acceleration_x,acceleration_y,acceleration_z,gyroscope_x,gyroscope_y,gyroscope_z,timestamp,label
189.6000000000004,15.200000000000044,108.0,-65.80000000000001,113.0,-20.90000000000001,2025-01-29 11:55:01,1.0
-122.39999999999964,63.200000000000045,52.0,-63.80000000000001,203.0,-22.90000000000001,2025-01-29 11:55:01,1.0
-58.39999999999964,19.200000000000045,-88.0,-18.80000000000001,29.0,-17.900000000000006,2025-01-29 11:55:01,1.0
-50.39999999999964,-12.799999999999956,-192.0,-21.80000000000001,-79.0,-23.90000000000001,2025-01-29 11:55:01,1.0
-78.39999999999964,-152.79999999999995,-28.0,-13.800000000000011,-124.0,-16.900000000000006,2025-01-29 11:55:01,1.0
-22.39999999999964,-88.79999999999995,12.0,27.19999999999999,-122.0,24.099999999999994,2025-01-29 11:55:01,1.0
49.60000000000037,-20.799999999999955,-108.0,59.19999999999999,-75.0,24.099999999999994,2025-01-29 11:55:01,1.0
-6.399999999999636,87.20000000000005,-28.0,23.19999999999999,-20.0,14.099999999999994,2025-01-29 11:55:01,1.0
37.60000000000037,67.20000000000005,136.0,54.19999999999999,10.0,22.099999999999994,2025-01-29 11:55:01,1.0
61.60000000000037,23.200000000000045,136.0,20.19999999999999,65.0,18.099999999999994,2025-01-29 11:55:01,1.0
29.600000000000364,123.20000000000005,-68.0,0.1999999999999886,65.0,-5.900000000000006,2025-01-29 11:55:01,1.0
-38.39999999999964,179.20000000000005,-92.0,-33.80000000000001,44.0,-31.90000000000001,2025-01-29 11:55:01,1.0
29.600000000000364,99.20000000000005,-200.0,-48.80000000000001,-32.0,-21.90000000000001,2025-01-29 11:55:01,1.0
-66.39999999999964,71.20000000000005,-32.0,-67.80000000000001,-69.0,-15.900000000000006,2025-01-29 11:55:01,1.0
105.60000000000036,139.20000000000005,16.0,-122.8,-5.0,-33.900000000000006,2025-01-29 11:55:01,1.0
101.60000000000036,163.20000000000005,100.0,-137.8,13.0,-28.90000000000001,2025-01-29 11:55:01,1.0
73.60000000000036,127.20000000000005,-8.0,-138.8,19.0,-22.90000000000001,2025-01-29 11:55:01,1.0
65.60000000000036,19.200000000000045,68.0,-140.8,-16.0,-34.900000000000006,2025-01-29 11:55:01,1.0
-42.39999999999964,35.200000000000045,-16.0,-114.8,-60.0,-31.90000000000001,2025-01-29 11:55:01,1.0
-46.39999999999964,-36.79999999999996,76.0,-77.80000000000001,-72.0,-34.900000000000006,2025-01-29 11:55:01,1.0
-6.399999999999636,31.200000000000045,144.0,-48.80000000000001,-30.0,-37.900000000000006,2025-01-29 11:55:01,1.0
37.60000000000037,43.200000000000045,216.0,-57.80000000000001,-8.0,-10.900000000000006,2025-01-29 11:55:01,1.0
-74.39999999999964,31.200000000000045,-64.0,-72.80000000000001,6.0,3.0999999999999943,2025-01-29 11:55:01,1.0
-34.39999999999964,-32.799999999999955,-112.0,-33.80000000000001,-7.0,3.0999999999999943,2025-01-29 11:55:01,1.0
53.60000000000037,67.20000000000005,20.0,-38.80000000000001,31.0,16.099999999999994,2025-01-29 11:55:01,1.0
45.60000000000037,91.20000000000005,-84.0,-85.80000000000001,83.0,10.099999999999994,2025-01-29 11:55:01,1.0
-82.39999999999964,127.20000000000005,-20.0,-95.8,49.0,-23.90000000000001,2025-01-29 11:55:01,1.0
21.600000000000364,95.20000000000005,-4.0,-106.8,58.0,-24.90000000000001,2025-01-29 11:55:01,1.0
-6.399999999999636,43.200000000000045,4.0,-104.8,-5.0,-38.900000000000006,2025-01-29 11:55:01,1.0
137.60000000000036,43.200000000000045,-120.0,-105.8,-8.0,-19.90000000000001,2025-01-29 11:55:01,1.0
169.60000000000036,119.20000000000005,-160.0,-117.8,7.0,-3.9000000000000057,2025-01-29 11:55:01,1.0
65.60000000000036,35.200000000000045,108.0,-99.8,55.0,9.099999999999994,2025-01-29 11:55:01,1.0
5.600000000000364,15.200000000000044,-12.0,-109.8,99.0,64.1,2025-01-29 11:55:01,1.0
113.60000000000036,-20.799999999999955,8.0,-112.8,179.0,40.1,2025-01-29 11:55:01,1.0
37.60000000000037,-112.79999999999995,52.0,-110.8,214.0,60.1,2025-01-29 11:55:01,1.0
41.60000000000037,107.20000000000005,-76.0,-72.80000000000001,214.0,120.1,2025-01-29 11:55:01,1.0
53.60000000000037,75.20000000000005,108.0,-83.80000000000001,295.0,176.1,2025-01-29 11:55:01,1.0
61.60000000000037,119.20000000000005,176.0,-26.80000000000001,385.0,204.1,2025-01-29 11:55:01,1.0
21.600000000000364,15.200000000000044,96.0,33.19999999999999,542.0,309.1,2025-01-29 11:55:01,1.0
-2.399999999999636,51.200000000000045,44.0,78.19999999999999,777.0,459.1,2025-01-29 11:55:01,1.0
269.6000000000004,155.20000000000005,-352.0,118.2,1153.0,578.1,2025-01-29 11:55:01,1.0
193.6000000000004,323.20000000000005,-468.0,87.19999999999999,1671.0,767.1,2025-01-29 11:55:01,1.0
-18.39999999999964,423.2000000000001,-716.0,-84.80000000000001,1933.0,891.1,2025-01-29 11:55:01,1.0
-374.3999999999997,559.2,-792.0,-304.8,1678.0,984.1,2025-01-29 11:55:01,1.0
-226.39999999999964,479.2000000000001,-320.0,-376.8,999.0,876.1,2025-01-29 11:55:01,1.0
177.60000000000036,391.2000000000001,148.0,-305.8,-107.0,542.1,2025-01-29 11:55:01,1.0
529.6000000000004,415.2000000000001,56.0,-109.8,-984.0,225.1,2025-01-29 11:55:01,1.0
213.6000000000004,375.2000000000001,96.0,297.2,-673.0,150.1,2025-01-29 11:55:01,1.0
245.6000000000004,683.2,388.0,607.2,96.0,209.1,2025-01-29 11:55:01,1.0
201.6000000000004,907.2,352.0,587.2,194.0,-41.900000000000006,2025-01-29 11:55:02,1.0
-398.3999999999997,975.2,412.0,389.2,97.0,-164.9,2025-01-29 11:55:02,1.0
-598.3999999999996,639.2,552.0,474.2,-62.0,-203.9,2025-01-29 11:55:02,1.0
-650.3999999999996,607.2,536.0,683.2,-247.0,-208.9,2025-01-29 11:55:02,1.0
-330.39999999999964,779.2,304.0,834.2,-423.0,-319.9,2025-01-29 11:55:02,1.0
-182.39999999999964,923.2,40.0,923.2,-594.0,-423.9,2025-01-29 11:55:02,1.0
-146.39999999999964,1007.2,188.0,1147.2,-710.0,-502.9,2025-01-29 11:55:02,1.0
25.600000000000364,1147.2,-104.0,1254.2,-875.0,-656.9,2025-01-29 11:55:02,1.0
17.600000000000364,1303.2,-596.0,1207.2,-924.0,-962.9,2025-01-29 11:55:02,1.0
-346.39999999999964,1539.2,-540.0,1014.2,-1015.0,-1207.9,2025-01-29 11:55:02,1.0
-126.39999999999964,1231.2,-248.0,974.2,-971.0,-1356.9,2025-01-29 11:55:02,1.0
-178.39999999999964,1159.2,232.0,938.2,-1209.0,-1416.9,2025-01-29 11:55:02,1.0
-98.39999999999964,1283.2,536.0,800.2,-1554.0,-1262.9,2025-01-29 11:55:02,1.0
145.60000000000036,1267.2,172.0,642.2,-1560.0,-1070.9,2025-01-29 11:55:02,1.0
325.6000000000004,939.2,456.0,447.2,-1136.0,-884.9,2025-01-29 11:55:02,1.0
277.6000000000004,411.2000000000001,1024.0,385.2,-667.0,-893.9,2025-01-29 11:55:02,1.0
9.600000000000364,683.2,980.0,334.2,-304.0,-969.9,2025-01-29 11:55:02,1.0
-78.39999999999964,699.2,556.0,270.2,-183.0,-1187.9,2025-01-29 11:55:02,1.0
-354.39999999999964,747.2,288.0,29.19999999999999,-70.0,-1308.9,2025-01-29 11:55:02,1.0
-406.3999999999997,675.2,336.0,-155.8,-145.0,-1522.9,2025-01-29 11:55:02,1.0
-382.3999999999997,479.2000000000001,688.0,-492.8,-354.0,-1688.9,2025-01-29 11:55:02,1.0
-426.3999999999997,399.2000000000001,712.0,-601.8,-605.0,-1793.9,2025-01-29 11:55:02,1.0
-22.39999999999964,-324.79999999999995,572.0,-724.8,-939.0,-1888.9,2025-01-29 11:55:02,1.0
293.6000000000004,-872.8,1004.0,-745.8,-920.0,-1978.9,2025-01-29 11:55:02,1.0
509.6000000000004,-1244.8,936.0,-542.8,-644.0,-2105.9,2025-01-29 11:55:02,1.0
677.6000000000004,-1828.8,764.0,-306.8,-205.0,-2164.9,2025-01-29 11:55:02,1.0
661.6000000000004,-2336.8,844.0,191.2,484.0,-2096.9,2025-01-29 11:55:02,1.0
445.6000000000004,-2976.8,884.0,538.2,1303.0,-1827.9,2025-01-29 11:55:02,1.0
193.6000000000004,-3220.8,1288.0,550.2,1823.0,-1609.9,2025-01-29 11:55:02,1.0
-346.39999999999964,-2824.8,1180.0,509.2,1901.0,-1313.9,2025-01-29 11:55:02,1.0
-662.3999999999996,-2260.8,1152.0,461.2,1819.0,-1043.9,2025-01-29 11:55:02,1.0
-710.3999999999996,-1484.8,916.0,198.2,1496.0,-1128.9,2025-01-29 11:55:02,1.0
-886.3999999999996,-1200.8,676.0,-201.8,1126.0,-1400.9,2025-01-29 11:55:02,1.0
-618.3999999999996,-1512.8,832.0,-404.8,711.0,-1917.9,2025-01-29 11:55:02,1.0
-594.3999999999996,-2124.8,960.0,-348.8,428.0,-1971.9,2025-01-29 11:55:02,1.0
57.60000000000037,-2556.8,992.0,-143.8,228.0,-2062.9,2025-01-29 11:55:02,1.0
229.6000000000004,-2904.8,1520.0,-33.80000000000001,126.0,-1922.9,2025-01-29 11:55:02,1.0
605.6000000000004,-3084.8,1624.0,125.2,240.0,-1615.9,2025-01-29 11:55:02,1.0
777.6000000000004,-2956.8,1536.0,267.2,555.0,-1288.9,2025-01-29 11:55:02,1.0
1045.6000000000004,-2524.8,1168.0,352.2,963.0,-979.9,2025-01-29 11:55:02,1.0
881.6000000000004,-2340.8,1560.0,243.2,1348.0,-772.9,2025-01-29 11:55:02,1.0
701.6000000000004,-1956.8,1552.0,41.19999999999999,1564.0,-493.9,2025-01-29 11:55:02,1.0
321.6000000000004,-1744.8,1384.0,-302.8,1688.0,-47.900000000000006,2025-01-29 11:55:02,1.0
-70.39999999999964,-1740.8,1092.0,-816.8,1398.0,300.1,2025-01-29 11:55:02,1.0
-398.3999999999997,-1824.8,1084.0,-1155.8,831.0,520.1,2025-01-29 11:55:02,1.0
-534.3999999999996,-1844.8,1480.0,-1354.8,240.0,559.1,2025-01-29 11:55:02,1.0
-634.3999999999996,-1956.8,1280.0,-1413.8,-358.0,604.1,2025-01-29 11:55:02,1.0
-630.3999999999996,-1788.8,952.0,-1414.8,-650.0,655.1,2025-01-29 11:55:02,1.0
-154.39999999999964,-1696.8,360.0,-1415.8,-579.0,481.1,2025-01-29 11:55:02,1.0
257.6000000000004,-1588.8,288.0,-1630.8,-179.0,-41.900000000000006,2025-01-29 11:55:02,1.0
-254.39999999999964,-1692.8,588.0,-1956.8,309.0,-416.9,2025-01-29 11:55:02,1.0
-606.3999999999996,-2112.8,872.0,-2200.8,447.0,-452.9,2025-01-29 11:55:02,1.0
-702.3999999999996,-2528.8,576.0,-2390.8,236.0,-459.9,2025-01-29 11:55:02,1.0
-550.3999999999996,-2428.8,976.0,-2667.8,-202.0,-564.9,2025-01-29 11:55:02,1.0
-458.3999999999997,-2148.8,1148.0,-2958.8,-514.0,-873.9,2025-01-29 11:55:02,1.0
-618.3999999999996,-1800.8,1492.0,-3480.8,-412.0,-1092.9,2025-01-29 11:55:02,1.0
-862.3999999999996,-1536.8,1560.0,-3967.8,-443.0,-1057.9,2025-01-29 11:55:02,1.0
-838.3999999999996,-1864.8,1844.0,-4629.8,-658.0,-984.9,2025-01-29 11:55:02,1.0
-1298.3999999999996,-2812.8,36.0,-4849.8,-577.0,-1268.9,2025-01-29 11:55:02,1.0
-2166.4,-3296.8,-1104.0,-4955.8,-48.0,-1269.9,2025-01-29 11:55:02,1.0
-2606.4,-4492.8,-1036.0,-4156.8,-557.0,-1097.9,2025-01-29 11:55:02,1.0
-2766.4,-5252.8,-408.0,-2404.8,-2345.0,-748.9,2025-01-29 11:55:03,1.0
-2430.4,-5124.8,-828.0,-467.8,-3822.0,-30.90000000000001,2025-01-29 11:55:03,1.0
-1066.3999999999996,-4268.8,-1452.0,678.2,-3593.0,281.1,2025-01-29 11:55:03,1.0
-578.3999999999996,-3468.8,-1364.0,1099.2,-2711.0,381.1,2025-01-29 11:55:03,1.0
-446.3999999999997,-2332.8,-1436.0,1018.2,-2448.0,1191.1,2025-01-29 11:55:03,1.0
229.6000000000004,-1172.8,-1720.0,323.2,-3116.0,2330.1,2025-01-29 11:55:03,1.0
1085.6000000000004,243.20000000000005,-1680.0,-340.8,-3481.0,3264.1,2025-01-29 11:55:03,1.0
2329.6000000000004,1315.2,-1908.0,-873.8,-3047.0,3801.1,2025-01-29 11:55:03,1.0
3381.6000000000004,2231.2,-1504.0,-1514.8,-2232.0,3395.1,2025-01-29 11:55:03,1.0
3733.6,2607.2,-724.0,-1710.8,-889.0,2213.1,2025-01-29 11:55:03,1.0
2989.6000000000004,2675.2,400.0,-1419.8,683.0,772.1,2025-01-29 11:55:03,1.0
1025.6000000000004,2171.2,424.0,-1098.8,1279.0,66.1,2025-01-29 11:55:03,1.0
-466.3999999999997,1175.2,284.0,-1091.8,1138.0,148.1,2025-01-29 11:55:03,1.0
-382.3999999999997,375.2000000000001,-572.0,-1115.8,732.0,306.1,2025-01-29 11:55:03,1.0
-974.3999999999996,-160.79999999999995,-476.0,-1056.8,300.0,484.1,2025-01-29 11:55:03,1.0
-1342.3999999999996,-684.8,-500.0,-991.8,-354.0,713.1,2025-01-29 11:55:03,1.0
-982.3999999999996,-308.79999999999995,-732.0,-744.8,-1003.0,966.1,2025-01-29 11:55:03,1.0
-950.3999999999996,379.2000000000001,-356.0,-667.8,-1615.0,1124.1,2025-01-29 11:55:03,1.0
-598.3999999999996,703.2,288.0,-564.8,-2235.0,1258.1,2025-01-29 11:55:03,1.0
173.60000000000036,879.2,316.0,-488.8,-2500.0,1560.1,2025-01-29 11:55:03,1.0
805.6000000000004,659.2,1092.0,-400.8,-2155.0,1566.1,2025-01-29 11:55:03,1.0
1385.6000000000004,579.2,1544.0,-29.80000000000001,-1111.0,1530.1,2025-01-29 11:55:03,1.0
1153.6000000000004,859.2,1480.0,294.2,-113.0,1726.1,2025-01-29 11:55:03,1.0
881.6000000000004,1371.2,896.0,371.2,487.0,2145.1,2025-01-29 11:55:03,1.0
561.6000000000004,1619.2,664.0,352.2,938.0,2447.1,2025-01-29 11:55:03,1.0
909.6000000000004,1775.2,656.0,316.2,1222.0,2158.1,2025-01-29 11:55:03,1.0
297.6000000000004,1847.2,1044.0,478.2,1316.0,1503.1,2025-01-29 11:55:03,1.0
293.6000000000004,1399.2,1576.0,657.2,1068.0,892.1,2025-01-29 11:55:03,1.0
-50.39999999999964,1383.2,1872.0,876.2,566.0,471.1,2025-01-29 11:55:03,1.0
29.600000000000364,1199.2,2036.0,894.2,151.0,208.1,2025-01-29 11:55:03,1.0
-106.39999999999964,775.2,1964.0,948.2,-275.0,-171.9,2025-01-29 11:55:03,1.0
-718.3999999999996,527.2,1876.0,1080.2,-556.0,-312.9,2025-01-29 11:55:03,1.0
-1090.3999999999996,315.20000000000005,2088.0,1277.2,-979.0,-256.9,2025-01-29 11:55:03,1.0
-1062.3999999999996,299.20000000000005,2484.0,1354.2,-1921.0,-270.9,2025-01-29 11:55:03,1.0
-834.3999999999996,355.20000000000005,2268.0,1327.2,-2827.0,-226.9,2025-01-29 11:55:03,1.0
-262.39999999999964,799.2,1820.0,1188.2,-3189.0,-186.9,2025-01-29 11:55:03,1.0
-134.39999999999964,1435.2,1600.0,1012.2,-2201.0,161.1,2025-01-29 11:55:03,1.0
-438.3999999999997,1503.2,1720.0,952.2,-593.0,500.1,2025-01-29 11:55:03,1.0
-1030.3999999999996,1259.2,2016.0,993.2,223.0,744.1,2025-01-29 11:55:03,1.0
-2138.4,635.2,2744.0,1336.2,189.0,1125.1,2025-01-29 11:55:03,1.0
-2798.4,-288.79999999999995,3600.0,2004.2,-371.0,1611.1,2025-01-29 11:55:03,1.0
-2906.4,-1500.8,3876.0,3174.2,-1273.0,2203.1,2025-01-29 11:55:03,1.0
-1222.3999999999996,-2040.8,2552.0,4688.2,-2593.0,2534.1,2025-01-29 11:55:03,1.0
-42.39999999999964,-776.8,1352.0,5790.2,-2846.0,2268.1,2025-01-29 11:55:03,1.0
-450.3999999999997,1035.2,-668.0,6036.2,-1519.0,2739.1,2025-01-29 11:55:03,1.0
-1302.3999999999996,3367.2,-2216.0,5430.2,691.0,3983.1,2025-01-29 11:55:03,1.0
-2274.4,4939.2,-2448.0,4469.2,2724.0,4654.1,2025-01-29 11:55:03,1.0
-2338.4,5651.2,-3024.0,2906.2,3093.0,3833.1,2025-01-29 11:55:03,1.0
-858.3999999999996,4927.2,-2088.0,1279.2,545.0,760.1,2025-01-29 11:55:03,1.0
-894.3999999999996,2467.2,-1436.0,861.2,-4094.0,-2247.9,2025-01-29 11:55:03,1.0
689.6000000000004,407.2000000000001,-1320.0,1132.2,-5984.0,-2745.9,2025-01-29 11:55:03,1.0
2401.6000000000004,-1196.8,-600.0,1681.2,-5078.0,-2607.9,2025-01-29 11:55:03,1.0
3557.6000000000004,-2596.8,40.0,2232.2,-2252.0,-2151.9,2025-01-29 11:55:03,1.0
3521.6000000000004,-3580.8,452.0,2525.2,2283.0,-1211.9,2025-01-29 11:55:03,1.0
1925.6000000000004,-3168.8,996.0,2652.2,5533.0,-358.9,2025-01-29 11:55:03,1.0
-22.39999999999964,-1784.8,276.0,2858.2,6113.0,202.1,2025-01-29 11:55:03,1.0
-1830.4,-896.8,36.0,2448.2,5196.0,0.0999999999999943,2025-01-29 11:55:03,1.0
-2610.4,-636.8,580.0,2212.2,3173.0,-815.9,2025-01-29 11:55:03,1.0
-2826.4,-800.8,496.0,2302.2,588.0,-1454.9,2025-01-29 11:55:03,1.0
-2374.4,-668.8,560.0,2387.2,-1408.0,-1647.9,2025-01-29 11:55:03,1.0
-494.3999999999997,-516.8,448.0,2232.2,-2309.0,-1655.9,2025-01-29 11:55:04,1.0
517.6000000000004,-768.8,1272.0,1830.2,-1770.0,-1703.9,2025-01-29 11:55:04,1.0
1413.6000000000004,-1000.8,984.0,1654.2,-568.0,-1513.9,2025-01-29 11:55:04,1.0
2045.6000000000004,-872.8,1344.0,1593.2,690.0,-1241.9,2025-01-29 11:55:04,1.0
2241.6000000000004,-612.8,996.0,1249.2,1785.0,-913.9,2025-01-29 11:55:04,1.0
1781.6000000000004,-592.8,1132.0,765.2,2579.0,-832.9,2025-01-29 11:55:04,1.0
1157.6000000000004,-960.8,1220.0,370.2,3017.0,-907.9,2025-01-29 11:55:04,1.0
-146.39999999999964,-1572.8,1644.0,148.2,3002.0,-832.9,2025-01-29 11:55:04,1.0
-1014.3999999999996,-2228.8,1720.0,144.2,2455.0,-479.9,2025-01-29 11:55:04,1.0
-1338.3999999999996,-2428.8,1508.0,82.19999999999999,1472.0,29.099999999999994,2025-01-29 11:55:04,1.0
-1198.3999999999996,-1912.8,1488.0,-85.80000000000001,384.0,540.1,2025-01-29 11:55:04,1.0
-990.3999999999996,-1172.8,1692.0,-169.8,-326.0,796.1,2025-01-29 11:55:04,1.0
-426.3999999999997,-780.8,1868.0,-283.8,-742.0,1059.1,2025-01-29 11:55:04,1.0
1.6000000000003638,-764.8,1696.0,-413.8,-643.0,1272.1,2025-01-29 11:55:04,1.0
45.60000000000037,-1096.8,1840.0,-489.8,-216.0,1505.1,2025-01-29 11:55:04,1.0
-318.39999999999964,-1544.8,2208.0,-484.8,164.0,1538.1,2025-01-29 11:55:04,1.0
-530.3999999999996,-1932.8,2016.0,-350.8,-178.0,1259.1,2025-01-29 11:55:04,1.0
-698.3999999999996,-2100.8,2088.0,-36.80000000000001,-894.0,918.1,2025-01-29 11:55:04,1.0
-390.3999999999997,-1936.8,1916.0,275.2,-1236.0,618.1,2025-01-29 11:55:04,1.0
-390.3999999999997,-1236.8,1568.0,181.2,-1387.0,165.1,2025-01-29 11:55:04,1.0
-858.3999999999996,-628.8,2104.0,-246.8,-1360.0,-65.9,2025-01-29 11:55:04,1.0
-1086.3999999999996,-964.8,1944.0,-858.8,-1619.0,-235.9,2025-01-29 11:55:04,1.0
-1082.3999999999996,-1292.8,640.0,-1305.8,-2224.0,-512.9,2025-01-29 11:55:04,1.0
-1018.3999999999996,-1668.8,152.0,-1348.8,-2536.0,-775.9,2025-01-29 11:55:04,1.0
-1314.3999999999996,-1604.8,168.0,-1222.8,-2816.0,-1025.9,2025-01-29 11:55:04,1.0
-1758.3999999999996,-1504.8,1168.0,-894.8,-3027.0,-931.9,2025-01-29 11:55:04,1.0
-2570.4,-1120.8,-104.0,-910.8,-3059.0,-417.9,2025-01-29 11:55:04,1.0
-2382.4,-1580.8,-2604.0,-1367.8,-2892.0,569.1,2025-01-29 11:55:04,1.0
-890.3999999999996,-2632.8,-3756.0,-1140.8,-2496.0,859.1,2025-01-29 11:55:04,1.0
-138.39999999999964,-2516.8,-2896.0,-667.8,-2148.0,779.1,2025-01-29 11:55:04,1.0
929.6000000000004,-1148.8,-2492.0,-617.8,-1858.0,514.1,2025-01-29 11:55:04,1.0
1073.6000000000004,635.2,-2020.0,-809.8,-1465.0,476.1,2025-01-29 11:55:04,1.0
677.6000000000004,2135.2,-852.0,-983.8,-591.0,542.1,2025-01-29 11:55:04,1.0
-826.3999999999996,2855.2,664.0,-1288.8,867.0,894.1,2025-01-29 11:55:04,1.0
-3098.4,2279.2,272.0,-1930.8,2274.0,1947.1,2025-01-29 11:55:04,1.0
-5182.4,1035.2,-576.0,-2353.8,3271.0,3663.1,2025-01-29 11:55:04,1.0
-6874.4,159.20000000000005,-1736.0,-3179.8,1955.0,6657.1,2025-01-29 11:55:04,1.0
-5482.4,1031.2,-284.0,-3938.8,-1818.0,8296.1,2025-01-29 11:55:04,1.0
-3294.4,2375.2,992.0,-4425.8,-6425.0,8288.1,2025-01-29 11:55:04,1.0
-1410.3999999999996,3031.2,1576.0,-4864.8,-9206.0,7245.1,2025-01-29 11:55:04,1.0
-258.39999999999964,2443.2,1532.0,-5196.8,-9872.0,6417.1,2025-01-29 11:55:04,1.0
-1398.3999999999996,931.2,660.0,-5768.8,-9043.0,7183.1,2025-01-29 11:55:04,1.0
-2046.4,-2872.8,-2496.0,-7143.8,-5967.0,8943.1,2025-01-29 11:55:04,1.0
-3682.4,-3316.8,4768.0,-10206.8,-645.0,10915.1,2025-01-29 11:55:04,1.0
-1570.3999999999996,2407.2,6240.0,-6207.8,-2658.0,14970.1,2025-01-29 11:55:04,1.0
1361.6000000000004,6447.2,4088.0,-3837.8,-4612.0,14286.1,2025-01-29 11:55:04,1.0
-1758.3999999999996,4675.2,860.0,-4974.8,-2586.0,12275.1,2025-01-29 11:55:04,1.0
-3318.4,2075.2,2852.0,-6708.8,-447.0,9826.1,2025-01-29 11:55:04,1.0
589.6000000000004,4399.2,3912.0,-5852.8,895.0,8035.1,2025-01-29 11:55:04,1.0
669.6000000000004,5519.2,4792.0,-5166.8,2747.0,8085.1,2025-01-29 11:55:04,1.0
2185.6000000000004,5543.2,3424.0,-4745.8,4892.0,8483.1,2025-01-29 11:55:04,1.0
2905.6000000000004,6031.2,3780.0,-4919.8,6809.0,7826.1,2025-01-29 11:55:04,1.0
4137.6,6923.2,3736.0,-4340.8,6020.0,6743.1,2025-01-29 11:55:04,1.0
5305.6,8291.2,3888.0,-3070.8,2735.0,5278.1,2025-01-29 11:55:04,1.0
4329.6,8207.2,3764.0,-2768.8,552.0,4274.1,2025-01-29 11:55:04,1.0
3161.6000000000004,8231.2,5408.0,-3339.8,2144.0,3414.1,2025-01-29 11:55:04,1.0
3865.6,8351.2,4692.0,-3493.8,4380.0,2036.1,2025-01-29 11:55:04,1.0
2353.6000000000004,7143.2,4520.0,-3581.8,5581.0,983.1,2025-01-29 11:55:04,1.0
1813.6000000000004,6591.2,4644.0,-3243.8,5200.0,395.1,2025-01-29 11:55:04,1.0
1597.6000000000004,6875.2,4520.0,-2655.8,3827.0,428.1,2025-01-29 11:55:04,1.0
1917.6000000000004,7803.2,5056.0,-2153.8,2661.0,453.1,2025-01-29 11:55:04,1.0
1097.6000000000004,7559.2,4544.0,-1527.8,3044.0,-260.9,2025-01-29 11:55:04,1.0
721.6000000000004,6847.2,3296.0,-1233.8,2957.0,-1020.9,2025-01-29 11:55:04,1.0
-22.39999999999964,6527.2,2856.0,-918.8,2088.0,-1432.9,2025-01-29 11:55:05,1.0
-34.39999999999964,5935.2,3816.0,-159.8,684.0,-1449.9,2025-01-29 11:55:05,1.0
401.6000000000004,5663.2,4020.0,376.2,399.0,-1068.9,2025-01-29 11:55:05,1.0
473.6000000000004,6287.2,4128.0,792.2,773.0,-698.9,2025-01-29 11:55:05,1.0
1049.6000000000004,6187.2,3828.0,815.2,1197.0,-163.9,2025-01-29 11:55:05,1.0
1729.6000000000004,6087.2,3504.0,1030.2,1452.0,35.099999999999994,2025-01-29 11:55:05,1.0
865.6000000000004,5955.2,3212.0,1146.2,1445.0,432.1,2025-01-29 11:55:05,1.0
425.6000000000004,6271.2,3432.0,1349.2,931.0,1111.1,2025-01-29 11:55:05,1.0
521.6000000000004,6707.2,3696.0,1497.2,819.0,1366.1,2025-01-29 11:55:05,1.0
-7722.4,10119.2,-3500.0,-75.80000000000001,9369.0,687.1,2025-01-29 11:55:05,1.0
-7930.4,8359.2,-1528.0,432.2,11028.0,1586.1,2025-01-29 11:55:05,1.0
-6162.4,9463.2,576.0,1785.2,11410.0,2711.1,2025-01-29 11:55:05,1.0
-3646.4,8691.2,-1264.0,3268.2,7498.0,5726.1,2025-01-29 11:55:05,1.0
-4534.4,10211.2,-3136.0,4483.2,7933.0,8842.1,2025-01-29 11:55:05,1.0
-9090.4,11723.2,-9220.0,2086.2,13968.0,8789.1,2025-01-29 11:55:05,1.0
-8810.4,13643.2,-11488.0,-1021.8,20127.0,6117.1,2025-01-29 11:55:05,1.0
-2074.4,17839.2,-8132.0,2902.2,17168.0,1323.1,2025-01-29 11:55:05,1.0
57.60000000000037,12675.2,-6152.0,8279.2,8017.0,-2426.9,2025-01-29 11:55:05,1.0
2985.6000000000004,8011.2,-4524.0,9779.2,3179.0,-2617.9,2025-01-29 11:55:05,1.0
5949.6,6603.2,-1892.0,9546.2,2172.0,-2033.9,2025-01-29 11:55:05,1.0
5645.6,7375.2,-2192.0,8463.2,3154.0,-1632.9,2025-01-29 11:55:05,1.0
4225.6,8767.2,-3340.0,7441.2,1658.0,-1562.9,2025-01-29 11:55:05,1.0
2761.6000000000004,9755.2,-4480.0,6981.2,-2755.0,-2398.9,2025-01-29 11:55:05,1.0
2301.6000000000004,10067.2,-3620.0,7145.2,-8737.0,-3995.9,2025-01-29 11:55:05,1.0
1017.6000000000004,4647.2,1544.0,10052.2,-10203.0,-5821.9,2025-01-29 11:55:05,1.0
5917.6,3339.2,-5892.0,11629.2,-11991.0,-7827.9,2025-01-29 11:55:05,1.0
5613.6,1835.2,-3388.0,8006.2,-11421.0,-10220.9,2025-01-29 11:55:05,1.0
4665.6,699.2,-752.0,5184.2,-8532.0,-11273.9,2025-01-29 11:55:05,1.0
4565.6,1147.2,228.0,5884.2,-5643.0,-9441.9,2025-01-29 11:55:05,1.0
5753.6,955.2,-1828.0,5803.2,-3837.0,-7344.9,2025-01-29 11:55:05,1.0
6877.6,1547.2,-3592.0,3813.2,-1152.0,-5467.9,2025-01-29 11:55:05,1.0
5429.6,2595.2,-976.0,2792.2,949.0,-3950.9,2025-01-29 11:55:05,1.0
5005.6,2599.2,-968.0,3537.2,2642.0,-3443.9,2025-01-29 11:55:05,1.0
3973.6,2263.2,-1508.0,4919.2,4675.0,-4545.9,2025-01-29 11:55:05,1.0
2857.6000000000004,1743.2,-1392.0,5586.2,3770.0,-5702.9,2025-01-29 11:55:05,1.0
2321.6000000000004,427.2000000000001,-3952.0,5249.2,1491.0,-5599.9,2025-01-29 11:55:05,1.0
-1554.3999999999996,-1680.8,-3164.0,4345.2,-3411.0,-4329.9,2025-01-29 11:55:05,1.0
3037.6000000000004,-1216.8,-4252.0,3584.2,-2234.0,-2603.9,2025-01-29 11:55:05,1.0
2713.6000000000004,-1352.8,-3384.0,2561.2,-338.0,-2350.9,2025-01-29 11:55:05,1.0
3041.6000000000004,295.20000000000005,-1688.0,2073.2,1070.0,-1635.9,2025-01-29 11:55:05,1.0
2917.6000000000004,895.2,-556.0,1728.2,1352.0,-1068.9,2025-01-29 11:55:05,1.0
4233.6,1567.2,-888.0,1576.2,928.0,-1444.9,2025-01-29 11:55:05,1.0
4857.6,3091.2,-1024.0,1987.2,1214.0,-3392.9,2025-01-29 11:55:05,1.0
4485.6,3071.2,-1420.0,2750.2,1140.0,-4520.9,2025-01-29 11:55:05,1.0
3865.6,1851.2,-1984.0,3136.2,1727.0,-5756.9,2025-01-29 11:55:05,1.0
3001.6000000000004,495.2000000000001,-1464.0,2739.2,-643.0,-5925.9,2025-01-29 11:55:05,1.0
2201.6000000000004,-1324.8,-1664.0,2100.2,-4111.0,-4840.9,2025-01-29 11:55:05,1.0
3021.6000000000004,-1528.8,-1268.0,1798.2,-3782.0,-4231.9,2025-01-29 11:55:05,1.0
4093.6,-2652.8,-2256.0,1703.2,-2986.0,-4107.9,2025-01-29 11:55:05,1.0
3025.6000000000004,-2216.8,-1104.0,1463.2,-3779.0,-3120.9,2025-01-29 11:55:05,1.0
2125.6000000000004,-2064.8,-1744.0,997.2,-3754.0,-2112.9,2025-01-29 11:55:05,1.0
2209.6000000000004,-932.8,-1652.0,470.2,-4054.0,-1105.9,2025-01-29 11:55:05,1.0
3077.6000000000004,571.2,-1468.0,-169.8,-6239.0,-956.9,2025-01-29 11:55:06,1.0
2745.6000000000004,979.2,-1248.0,-619.8,-7846.0,-840.9,2025-01-29 11:55:06,1.0
2901.6000000000004,1243.2,-1164.0,-1354.8,-8676.0,-601.9,2025-01-29 11:55:06,1.0
3813.6,439.2000000000001,-556.0,-2042.8,-9594.0,-615.9,2025-01-29 11:55:06,1.0
3809.6,-28.799999999999955,664.0,-1837.8,-10539.0,-228.9,2025-01-29 11:55:06,1.0
3621.6,-248.79999999999995,1412.0,-1538.8,-10843.0,-652.9,2025-01-29 11:55:06,1.0
3617.6,-76.79999999999995,2584.0,-2149.8,-11863.0,-459.9,2025-01-29 11:55:06,1.0
4453.6,-56.79999999999996,2020.0,-1709.8,-14947.0,-519.9,2025-01-29 11:55:06,1.0
4305.6,-840.8,1892.0,-2222.8,-17521.0,-819.9,2025-01-29 11:55:06,1.0
3809.6,-1024.8,1164.0,-2510.8,-18598.0,-1223.9,2025-01-29 11:55:06,1.0
3833.6,-1176.8,1344.0,-3422.8,-14769.0,-789.9,2025-01-29 11:55:06,1.0
3945.6,363.2000000000001,5672.0,-3497.8,-11155.0,-1811.9,2025-01-29 11:55:06,1.0
1493.6000000000004,211.20000000000005,6816.0,-3012.8,-9519.0,-2403.9,2025-01-29 11:55:06,1.0
53.60000000000037,-664.8,5140.0,-2587.8,-8080.0,-1197.9,2025-01-29 11:55:06,1.0
1637.6000000000004,-1592.8,1524.0,-2891.8,-8111.0,67.1,2025-01-29 11:55:06,1.0
2389.6000000000004,-2232.8,816.0,-3955.8,-8905.0,498.1,2025-01-29 11:55:06,1.0
3061.6000000000004,-2240.8,4008.0,-4888.8,-9719.0,436.1,2025-01-29 11:55:06,1.0
713.6000000000004,87.20000000000005,11076.0,-3755.8,-7466.0,-232.9,2025-01-29 11:55:06,1.0
973.6000000000004,359.20000000000005,14000.0,-1179.8,-7564.0,197.1,2025-01-29 11:55:06,1.0
785.6000000000004,-788.8,5824.0,212.2,-10911.0,336.1,2025-01-29 11:55:06,1.0
685.6000000000004,-1876.8,64.0,-1229.8,-12215.0,1139.1,2025-01-29 11:55:06,1.0
3713.6,-2508.8,2652.0,-2881.8,-10206.0,778.1,2025-01-29 11:55:06,1.0
3181.6000000000004,1315.2,9720.0,-2647.8,-4743.0,-928.9,2025-01-29 11:55:06,1.0
2657.6000000000004,1423.2,11556.0,-1279.8,646.0,-1830.9,2025-01-29 11:55:06,1.0
2761.6000000000004,355.20000000000005,5972.0,-1101.8,-917.0,-2084.9,2025-01-29 11:55:06,1.0
2981.6000000000004,-304.79999999999995,1108.0,-3001.8,-3760.0,-2376.9,2025-01-29 11:55:06,1.0
4101.6,-708.8,1696.0,-5086.8,-4326.0,-2579.9,2025-01-29 11:55:06,1.0
4753.6,-944.8,7616.0,-3691.8,2783.0,-5455.9,2025-01-29 11:55:06,1.0
3093.6000000000004,1351.2,11576.0,-129.8,12222.0,-6193.9,2025-01-29 11:55:06,1.0
6361.6,3191.2,7756.0,1200.2,11446.0,-5552.9,2025-01-29 11:55:06,1.0
5501.6,2539.2,1356.0,-593.8,5382.0,-4260.9,2025-01-29 11:55:06,1.0
14773.6,-2512.8,-5936.0,-7726.8,-10185.0,-294.9,2025-01-29 11:55:06,1.0
3149.6000000000004,2015.2,6912.0,-7200.8,-13084.0,-975.9,2025-01-29 11:55:06,1.0
2013.6000000000004,607.2,10544.0,-3509.8,-3823.0,4806.1,2025-01-29 11:55:06,1.0
5265.6,239.20000000000005,9812.0,-2631.8,2229.0,9809.1,2025-01-29 11:55:06,1.0
7381.6,1439.2,4972.0,-1451.8,4202.0,13059.1,2025-01-29 11:55:06,1.0
8965.6,1175.2,3312.0,-3315.8,5426.0,12587.1,2025-01-29 11:55:06,1.0
7097.6,1651.2,4940.0,-6373.8,6000.0,10384.1,2025-01-29 11:55:06,1.0
2969.6000000000004,3087.2,8060.0,-8418.8,4509.0,9827.1,2025-01-29 11:55:06,1.0
-1594.3999999999996,4003.2,4024.0,-6333.8,1925.0,9340.1,2025-01-29 11:55:06,1.0
-8798.4,891.2,-8384.0,-5394.8,3511.0,8479.1,2025-01-29 11:55:06,1.0
-12854.4,-280.79999999999995,-17340.0,-9889.8,6721.0,9073.1,2025-01-29 11:55:06,1.0
-15886.4,2707.2,-5568.0,-11014.8,6507.0,8037.1,2025-01-29 11:55:06,1.0
-20610.4,11975.2,17660.0,-3633.8,14668.0,5319.1,2025-01-29 11:55:06,1.0
-20610.4,13307.2,10924.0,7382.2,19954.0,3454.1,2025-01-29 11:55:06,1.0
-20610.4,6875.2,-1844.0,6656.2,5101.0,5625.1,2025-01-29 11:55:06,1.0
-15506.4,1139.2,-6564.0,3138.2,-5984.0,6676.1,2025-01-29 11:55:06,1.0
-5218.4,-3116.8,-1060.0,3061.2,-12229.0,4925.1,2025-01-29 11:55:06,1.0
2797.6000000000004,-772.8,3448.0,4755.2,-15114.0,1370.1,2025-01-29 11:55:06,1.0
4253.6,-928.8,3760.0,6068.2,-14280.0,-4833.9,2025-01-29 11:55:06,1.0
-590.3999999999996,-2048.8,2732.0,5420.2,-7513.0,-9383.9,2025-01-29 11:55:06,1.0
-7370.4,-1084.8,-448.0,4901.2,-1833.0,-9328.9,2025-01-29 11:55:06,1.0
-12970.4,-1348.8,492.0,3503.2,3254.0,-6058.9,2025-01-29 11:55:06,1.0
-14514.4,2499.2,7780.0,3198.2,7595.0,-995.9,2025-01-29 11:55:06,1.0
-9574.4,7235.2,8948.0,4931.2,7787.0,1989.1,2025-01-29 11:55:06,1.0
-5746.4,5607.2,3104.0,4837.2,8199.0,3055.1,2025-01-29 11:55:06,1.0
-2934.4,5171.2,-408.0,4411.2,6141.0,2799.1,2025-01-29 11:55:06,1.0
-2926.4,5395.2,448.0,3073.2,4108.0,1424.1,2025-01-29 11:55:06,1.0
-2418.4,4371.2,2896.0,2987.2,2526.0,-639.9,2025-01-29 11:55:06,1.0
-3402.4,1639.2,984.0,2307.2,2007.0,-1684.9,2025-01-29 11:55:06,1.0
-5222.4,1079.2,2124.0,1553.2,3111.0,-1310.9,2025-01-29 11:55:06,1.0
-5458.4,2155.2,3076.0,1794.2,4663.0,-449.9,2025-01-29 11:55:07,1.0
-4706.4,2047.2,1980.0,1845.2,7393.0,986.1,2025-01-29 11:55:07,1.0
-2986.4,1843.2,656.0,774.2,8978.0,1544.1,2025-01-29 11:55:07,1.0
-2486.4,1579.2,484.0,286.2,10305.0,1326.1,2025-01-29 11:55:07,1.0
-3154.4,1211.2,268.0,132.2,11108.0,1078.1,2025-01-29 11:55:07,1.0
-3410.4,1611.2,404.0,186.2,10189.0,1188.1,2025-01-29 11:55:07,1.0
-3026.4,2891.2,572.0,709.2,8468.0,2411.1,2025-01-29 11:55:07,1.0
-2014.4,4207.2,304.0,567.2,8304.0,3004.1,2025-01-29 11:55:07,1.0
-2010.4,4171.2,-124.0,107.2,9564.0,4332.1,2025-01-29 11:55:07,1.0
-1646.3999999999996,2799.2,1148.0,-59.80000000000001,10083.0,6076.1,2025-01-29 11:55:07,1.0
-1662.3999999999996,1219.2,2132.0,506.2,10854.0,7912.1,2025-01-29 11:55:07,1.0
-566.3999999999996,843.2,3944.0,773.2,11869.0,10426.1,2025-01-29 11:55:07,1.0
1509.6000000000004,1515.2,4364.0,1881.2,11416.0,12277.1,2025-01-29 11:55:07,1.0
4109.6,1495.2,2992.0,2726.2,9736.0,12405.1,2025-01-29 11:55:07,1.0
5993.6,1835.2,1564.0,2576.2,9420.0,11319.1,2025-01-29 11:55:07,1.0
8753.6,2243.2,436.0,2064.2,7729.0,8645.1,2025-01-29 11:55:07,1.0
9969.6,5211.2,1028.0,1715.2,2188.0,4701.1,2025-01-29 11:55:07,1.0
9517.6,7851.2,860.0,1261.2,-3703.0,1001.1,2025-01-29 11:55:07,1.0
6013.6,9135.2,988.0,123.2,-7042.0,-1866.9,2025-01-29 11:55:07,1.0
2569.6000000000004,7859.2,856.0,-720.8,-7259.0,-2386.9,2025-01-29 11:55:07,1.0
357.6000000000004,5687.2,436.0,-1205.8,-5492.0,-1569.9,2025-01-29 11:55:07,1.0
-130.39999999999964,3099.2,-768.0,-1352.8,-3572.0,-695.9,2025-01-29 11:55:07,1.0
-34.39999999999964,2407.2,-1288.0,-1920.8,-2279.0,-296.9,2025-01-29 11:55:07,1.0
2065.6000000000004,4299.2,-1860.0,-2438.8,-2917.0,143.1,2025-01-29 11:55:07,1.0
3877.6,5315.2,-2756.0,-2871.8,-4098.0,-836.9,2025-01-29 11:55:07,1.0
5165.6,6151.2,-2500.0,-2967.8,-4425.0,-2466.9,2025-01-29 11:55:07,1.0
4041.6,6539.2,-2436.0,-2957.8,-4480.0,-4111.9,2025-01-29 11:55:07,1.0
1561.6000000000004,5499.2,-1008.0,-3468.8,-2872.0,-4818.9,2025-01-29 11:55:07,1.0
-1022.3999999999996,2983.2,980.0,-3510.8,-2466.0,-4550.9,2025-01-29 11:55:07,1.0
-3002.4,2023.2,1920.0,-2314.8,-3247.0,-2869.9,2025-01-29 11:55:07,1.0
-2234.4,2399.2,712.0,-2035.8,-4525.0,-1187.9,2025-01-29 11:55:07,1.0
-1610.3999999999996,3131.2,1408.0,-2383.8,-5390.0,-17.900000000000006,2025-01-29 11:55:07,1.0
401.6000000000004,3415.2,3164.0,-1841.8,-5403.0,379.1,2025-01-29 11:55:07,1.0
769.6000000000004,3947.2,2492.0,-964.8,-4885.0,-77.9,2025-01-29 11:55:07,1.0
797.6000000000004,3751.2,2016.0,-440.8,-3189.0,-299.9,2025-01-29 11:55:07,1.0
445.6000000000004,3519.2,1444.0,602.2,-2759.0,-174.9,2025-01-29 11:55:07,1.0
133.60000000000036,3403.2,2000.0,1457.2,-3082.0,303.1,2025-01-29 11:55:07,1.0
221.6000000000004,4567.2,2916.0,2227.2,-3734.0,556.1,2025-01-29 11:55:07,1.0
1337.6000000000004,4883.2,3064.0,3421.2,-1731.0,-551.9,2025-01-29 11:55:07,1.0
901.6000000000004,3879.2,2120.0,3016.2,-1258.0,-1102.9,2025-01-29 11:55:07,1.0
777.6000000000004,3747.2,2924.0,2969.2,-894.0,-1203.9,2025-01-29 11:55:07,1.0
677.6000000000004,4027.2,3992.0,3377.2,-754.0,-1279.9,2025-01-29 11:55:07,1.0
1017.6000000000004,4487.2,4104.0,3889.2,-302.0,-1793.9,2025-01-29 11:55:07,1.0
1265.6000000000004,4299.2,3740.0,3173.2,245.0,-2170.9,2025-01-29 11:55:07,1.0
1401.6000000000004,4327.2,3952.0,2939.2,1189.0,-2674.9,2025-01-29 11:55:07,1.0
961.6000000000004,3811.2,3348.0,2288.2,1651.0,-3254.9,2025-01-29 11:55:07,1.0
-394.3999999999997,2907.2,3512.0,1964.2,1624.0,-3698.9,2025-01-29 11:55:07,1.0
-1738.3999999999996,2643.2,3596.0,2100.2,1163.0,-3657.9,2025-01-29 11:55:07,1.0
-2866.4,2743.2,3224.0,2716.2,648.0,-2998.9,2025-01-29 11:55:07,1.0
-2746.4,3443.2,2436.0,3171.2,370.0,-2199.9,2025-01-29 11:55:07,1.0
-2338.4,4127.2,1408.0,2832.2,39.0,-1733.9,2025-01-29 11:55:07,1.0
-1942.4,3751.2,2112.0,2438.2,-641.0,-1720.9,2025-01-29 11:55:07,1.0
-2358.4,2563.2,2832.0,2498.2,-1368.0,-1598.9,2025-01-29 11:55:07,1.0
-1174.3999999999996,1255.2,3752.0,2983.2,-1789.0,-1392.9,2025-01-29 11:55:07,1.0
-1414.3999999999996,207.20000000000005,4028.0,4524.2,-1151.0,-1832.9,2025-01-29 11:55:07,1.0
-2242.4,539.2,4712.0,5673.2,-489.0,-1479.9,2025-01-29 11:55:07,1.0
-3930.4,2095.2,3044.0,6731.2,519.0,-993.9,2025-01-29 11:55:07,1.0
-5954.4,2187.2,684.0,6710.2,2932.0,-69.9,2025-01-29 11:55:07,1.0
-8082.4,3415.2,-1316.0,5914.2,3425.0,1643.1,2025-01-29 11:55:07,1.0
-8318.4,4683.2,-2112.0,4465.2,2206.0,4229.1,2025-01-29 11:55:08,1.0
-5882.4,4983.2,-2516.0,3571.2,912.0,5610.1,2025-01-29 11:55:08,1.0
-2810.4,4027.2,-1256.0,3373.2,-64.0,5314.1,2025-01-29 11:55:08,1.0
13.600000000000364,3555.2,-612.0,4207.2,-289.0,3820.1,2025-01-29 11:55:08,1.0
1761.6000000000004,3463.2,-1168.0,4856.2,-102.0,1735.1,2025-01-29 11:55:08,1.0
2029.6000000000004,2995.2,-1092.0,5238.2,38.0,-831.9,2025-01-29 11:55:08,1.0
1313.6000000000004,1711.2,-920.0,5207.2,-848.0,-2477.9,2025-01-29 11:55:08,1.0
801.6000000000004,1047.2,-396.0,4794.2,-2765.0,-2883.9,2025-01-29 11:55:08,1.0
905.6000000000004,407.2000000000001,-348.0,4031.2,-4008.0,-2839.9,2025-01-29 11:55:08,1.0
1153.6000000000004,-324.79999999999995,-124.0,3340.2,-3941.0,-2842.9,2025-01-29 11:55:08,1.0
1333.6000000000004,-1016.8,644.0,3075.2,-2268.0,-2764.9,2025-01-29 11:55:08,1.0
1501.6000000000004,-668.8,784.0,3247.2,-595.0,-2662.9,2025-01-29 11:55:08,1.0
1577.6000000000004,-196.79999999999995,-604.0,3166.2,997.0,-2597.9,2025-01-29 11:55:08,1.0
137.60000000000036,623.2,-1460.0,2903.2,2904.0,-2458.9,2025-01-29 11:55:08,1.0
-614.3999999999996,1055.2,-2152.0,2830.2,3846.0,-2248.9,2025-01-29 11:55:08,1.0
-1158.3999999999996,1791.2,-1500.0,2233.2,3060.0,-2200.9,2025-01-29 11:55:08,1.0
-1186.3999999999996,2199.2,-496.0,1945.2,1432.0,-2055.9,2025-01-29 11:55:08,1.0
-534.3999999999996,1955.2,244.0,1752.2,-661.0,-1958.9,2025-01-29 11:55:08,1.0
1257.6000000000004,1367.2,188.0,1270.2,-2360.0,-2149.9,2025-01-29 11:55:08,1.0
2449.6000000000004,767.2,-240.0,482.2,-2943.0,-2618.9,2025-01-29 11:55:08,1.0
2925.6000000000004,231.20000000000005,328.0,-288.8,-2287.0,-3009.9,2025-01-29 11:55:08,1.0
3601.6000000000004,-240.79999999999995,548.0,-734.8,-1241.0,-3208.9,2025-01-29 11:55:08,1.0
3025.6000000000004,-820.8,-4.0,-1018.8,-505.0,-3690.9,2025-01-29 11:55:08,1.0
2021.6000000000004,-1036.8,40.0,-1568.8,1532.0,-3397.9,2025-01-29 11:55:08,1.0
1313.6000000000004,-1008.8,120.0,-1699.8,2231.0,-3474.9,2025-01-29 11:55:08,1.0
-122.39999999999964,-924.8,460.0,-1920.8,2610.0,-3173.9,2025-01-29 11:55:08,1.0
-1014.3999999999996,-604.8,656.0,-1959.8,2555.0,-2550.9,2025-01-29 11:55:08,1.0
-1430.3999999999996,-384.8,632.0,-2012.8,1660.0,-1649.9,2025-01-29 11:55:08,1.0
-922.3999999999996,-268.79999999999995,656.0,-2197.8,374.0,-1278.9,2025-01-29 11:55:08,1.0
-174.39999999999964,99.20000000000005,1068.0,-2439.8,-637.0,-1188.9,2025-01-29 11:55:08,1.0
625.6000000000004,103.20000000000005,1208.0,-2746.8,-1300.0,-1176.9,2025-01-29 11:55:08,1.0
1009.6000000000004,247.20000000000005,1184.0,-3007.8,-1141.0,-1106.9,2025-01-29 11:55:08,1.0
865.6000000000004,3.200000000000045,1384.0,-3609.8,-324.0,-971.9,2025-01-29 11:55:08,1.0
1005.6000000000004,-368.8,1920.0,-4031.8,703.0,-916.9,2025-01-29 11:55:08,1.0
853.6000000000004,-824.8,2160.0,-4126.8,1087.0,-1161.9,2025-01-29 11:55:08,1.0
93.60000000000036,-832.8,2376.0,-4105.8,1078.0,-1118.9,2025-01-29 11:55:08,1.0
-54.39999999999964,-888.8,2108.0,-4047.8,757.0,-977.9,2025-01-29 11:55:08,1.0
-414.3999999999997,-784.8,1464.0,-4096.8,658.0,-717.9,2025-01-29 11:55:08,1.0
-702.3999999999996,-732.8,1016.0,-4234.8,608.0,-319.9,2025-01-29 11:55:08,1.0
-814.3999999999996,-824.8,1144.0,-4127.8,407.0,-123.9,2025-01-29 11:55:08,1.0
-382.3999999999997,-924.8,1232.0,-3979.8,-129.0,-232.9,2025-01-29 11:55:08,1.0
-334.39999999999964,-1024.8,1312.0,-3888.8,-419.0,-780.9,2025-01-29 11:55:08,1.0
-498.3999999999997,-784.8,1232.0,-3952.8,-573.0,-1506.9,2025-01-29 11:55:08,1.0
-1018.3999999999996,-64.79999999999995,1660.0,-4125.8,-782.0,-2353.9,2025-01-29 11:55:08,1.0
-2218.4,707.2,2284.0,-4608.8,-961.0,-2956.9,2025-01-29 11:55:08,1.0
-2410.4,335.20000000000005,620.0,-4892.8,-682.0,-3961.9,2025-01-29 11:55:08,1.0
-2982.4,-1876.8,-1568.0,-5109.8,684.0,-4561.9,2025-01-29 11:55:08,1.0
-3142.4,-4792.8,-468.0,-4939.8,1672.0,-5038.9,2025-01-29 11:55:08,1.0
-3858.4,-6432.8,396.0,-3958.8,980.0,-4369.9,2025-01-29 11:55:08,1.0
-4478.4,-5324.8,2116.0,-1874.8,-557.0,-2051.9,2025-01-29 11:55:08,1.0
-3730.4,-3024.8,816.0,242.2,-1913.0,-281.9,2025-01-29 11:55:08,1.0
-2242.4,151.20000000000005,-2084.0,320.2,-2808.0,347.1,2025-01-29 11:55:08,1.0
-1410.3999999999996,1979.2,-2412.0,-655.8,-3071.0,492.1,2025-01-29 11:55:08,1.0
53.60000000000037,2143.2,-2292.0,-1541.8,-3867.0,625.1,2025-01-29 11:55:08,1.0
1885.6000000000004,1715.2,-2200.0,-1949.8,-4481.0,346.1,2025-01-29 11:55:08,1.0
3429.6000000000004,1583.2,-1716.0,-1855.8,-4114.0,-553.9,2025-01-29 11:55:08,1.0
3965.6,1063.2,-1816.0,-1540.8,-2865.0,-1639.9,2025-01-29 11:55:08,1.0
3645.6,935.2,-1764.0,-1433.8,-741.0,-2634.9,2025-01-29 11:55:08,1.0
2545.6000000000004,1483.2,-1348.0,-1357.8,1169.0,-2648.9,2025-01-29 11:55:08,1.0
889.6000000000004,2575.2,-1528.0,-1715.8,2614.0,-1993.9,2025-01-29 11:55:08,1.0
-442.3999999999997,3439.2,-1960.0,-2805.8,3087.0,-1165.9,2025-01-29 11:55:08,1.0
-1538.3999999999996,3107.2,-2144.0,-4331.8,2245.0,-343.9,2025-01-29 11:55:09,1.0
-1738.3999999999996,2003.2,-1648.0,-5060.8,812.0,282.1,2025-01-29 11:55:09,1.0
-1026.3999999999996,1371.2,-1764.0,-5342.8,-458.0,406.1,2025-01-29 11:55:09,1.0
-678.3999999999996,1451.2,-1648.0,-5622.8,-675.0,416.1,2025-01-29 11:55:09,1.0
-134.39999999999964,2063.2,-1536.0,-5900.8,-478.0,600.1,2025-01-29 11:55:09,1.0
397.6000000000004,2555.2,-1672.0,-6457.8,-18.0,918.1,2025-01-29 11:55:09,1.0
1229.6000000000004,3231.2,-856.0,-6933.8,-264.0,567.1,2025-01-29 11:55:09,1.0
1621.6000000000004,3699.2,-548.0,-7319.8,-919.0,28.099999999999994,2025-01-29 11:55:09,1.0
1857.6000000000004,3715.2,-172.0,-7744.8,-1065.0,-632.9,2025-01-29 11:55:09,1.0
1621.6000000000004,2807.2,488.0,-7796.8,-318.0,-1342.9,2025-01-29 11:55:09,1.0
1397.6000000000004,1995.2,472.0,-7514.8,385.0,-1452.9,2025-01-29 11:55:09,1.0
1285.6000000000004,1403.2,512.0,-7406.8,1147.0,-1622.9,2025-01-29 11:55:09,1.0
1177.6000000000004,643.2,1108.0,-7364.8,1328.0,-1966.9,2025-01-29 11:55:09,1.0
1177.6000000000004,443.2000000000001,920.0,-7251.8,966.0,-2461.9,2025-01-29 11:55:09,1.0
1065.6000000000004,903.2,712.0,-7116.8,960.0,-2885.9,2025-01-29 11:55:09,1.0
937.6000000000004,2303.2,160.0,-7217.8,946.0,-3266.9,2025-01-29 11:55:09,1.0
977.6000000000004,3379.2,-432.0,-7794.8,876.0,-3514.9,2025-01-29 11:55:09,1.0
917.6000000000004,3871.2,-516.0,-8671.8,902.0,-3874.9,2025-01-29 11:55:09,1.0
969.6000000000004,3443.2,-144.0,-9319.8,583.0,-4368.9,2025-01-29 11:55:09,1.0
1073.6000000000004,3071.2,-388.0,-9631.8,-94.0,-4814.9,2025-01-29 11:55:09,1.0
953.6000000000004,2663.2,-624.0,-10101.8,-353.0,-5121.9,2025-01-29 11:55:09,1.0
977.6000000000004,2115.2,-172.0,-10424.8,-209.0,-5427.9,2025-01-29 11:55:09,7.0
349.6000000000004,1715.2,556.0,-10341.8,-64.0,-5559.9,2025-01-29 11:55:09,7.0
293.6000000000004,1199.2,896.0,-9909.8,-254.0,-5674.9,2025-01-29 11:55:09,7.0
-370.3999999999997,791.2,2176.0,-9143.8,-691.0,-5766.9,2025-01-29 11:55:09,7.0
-1230.3999999999996,11.200000000000044,2696.0,-8138.8,-1172.0,-5591.9,2025-01-29 11:55:09,7.0
-1018.3999999999996,-428.8,2916.0,-7082.8,-1716.0,-5474.9,2025-01-29 11:55:09,7.0
-1210.3999999999996,-664.8,3144.0,-6163.8,-1841.0,-5348.9,2025-01-29 11:55:09,7.0
-1746.3999999999996,-384.8,3752.0,-5036.8,-1619.0,-4840.9,2025-01-29 11:55:09,7.0
-2210.4,-84.79999999999995,4124.0,-4003.8,-1123.0,-4032.9,2025-01-29 11:55:09,7.0
-2022.4,-380.8,4228.0,-3082.8,-523.0,-3202.9,2025-01-29 11:55:09,7.0
-1458.3999999999996,-932.8,3232.0,-2286.8,138.0,-2310.9,2025-01-29 11:55:09,7.0
-2762.4,1611.2,-2968.0,-951.8,4846.0,-672.9,2025-01-29 11:55:09,7.0
-3074.4,2783.2,-4492.0,-2141.8,5653.0,89.1,2025-01-29 11:55:09,7.0
-3802.4,3563.2,-4504.0,-3526.8,4739.0,811.1,2025-01-29 11:55:09,7.0
-3582.4,3415.2,-2148.0,-4726.8,904.0,1317.1,2025-01-29 11:55:09,7.0
-810.3999999999996,3123.2,-900.0,-4376.8,-3258.0,359.1,2025-01-29 11:55:09,7.0
977.6000000000004,3019.2,-2040.0,-3922.8,-4269.0,-1290.9,2025-01-29 11:55:09,7.0
2201.6000000000004,3175.2,-3548.0,-4427.8,-3514.0,-2692.9,2025-01-29 11:55:09,7.0
3405.6000000000004,3339.2,-3484.0,-5302.8,-2645.0,-3960.9,2025-01-29 11:55:09,7.0
3025.6000000000004,3503.2,-1716.0,-6393.8,-2141.0,-5254.9,2025-01-29 11:55:09,7.0
3577.6000000000004,2707.2,-1388.0,-7440.8,-1558.0,-5736.9,2025-01-29 11:55:09,7.0
2937.6000000000004,1167.2,-1984.0,-8016.8,-17.0,-6393.9,2025-01-29 11:55:09,7.0
2037.6000000000004,-772.8,-2504.0,-8530.8,1869.0,-7371.9,2025-01-29 11:55:09,7.0
245.6000000000004,-2844.8,-1148.0,-8397.8,2727.0,-8262.9,2025-01-29 11:55:09,7.0
-1414.3999999999996,-3744.8,-452.0,-7347.8,2090.0,-8313.9,2025-01-29 11:55:09,7.0
-1554.3999999999996,-2940.8,-964.0,-6491.8,-386.0,-7766.9,2025-01-29 11:55:09,7.0
297.6000000000004,-584.8,-1548.0,-6351.8,-1926.0,-7396.9,2025-01-29 11:55:09,7.0
1117.6000000000004,987.2,-2136.0,-6617.8,-1531.0,-7314.9,2025-01-29 11:55:09,7.0
1953.6000000000004,1443.2,-2488.0,-7285.8,-533.0,-7255.9,2025-01-29 11:55:09,7.0
2073.6000000000004,2047.2,-1612.0,-7927.8,-539.0,-7240.9,2025-01-29 11:55:09,7.0
2285.6000000000004,2535.2,-2628.0,-9153.8,-1068.0,-7253.9,2025-01-29 11:55:09,7.0
2373.6000000000004,2523.2,-1920.0,-10830.8,-1034.0,-7410.9,2025-01-29 11:55:09,7.0
1557.6000000000004,1619.2,-1768.0,-12059.8,-791.0,-8036.9,2025-01-29 11:55:09,7.0
1333.6000000000004,939.2,-1404.0,-12689.8,-1817.0,-10153.9,2025-01-29 11:55:09,7.0
-3462.4,683.2,-4176.0,-14144.8,-4900.0,-11002.9,2025-01-29 11:55:09,7.0
-3438.4,-328.79999999999995,-2696.0,-15818.8,-5549.0,-8316.9,2025-01-29 11:55:09,7.0
-350.39999999999964,-1092.8,-920.0,-16020.8,-6274.0,-7009.9,2025-01-29 11:55:09,7.0
2109.6000000000004,-2164.8,-464.0,-16474.8,-6679.0,-7415.9,2025-01-29 11:55:09,7.0
2869.6000000000004,-2820.8,-252.0,-16795.8,-5732.0,-8061.9,2025-01-29 11:55:10,7.0
2433.6000000000004,-2836.8,-348.0,-16732.8,-4214.0,-8213.9,2025-01-29 11:55:10,7.0
2173.6000000000004,-2448.8,-292.0,-16643.8,-3310.0,-8214.9,2025-01-29 11:55:10,7.0
1453.6000000000004,-2028.8,-428.0,-16460.8,-2578.0,-8204.9,2025-01-29 11:55:10,7.0
525.6000000000004,-1776.8,-440.0,-16435.8,-1710.0,-7882.9,2025-01-29 11:55:10,7.0
505.6000000000004,-1540.8,-728.0,-16639.8,-1494.0,-7504.9,2025-01-29 11:55:10,7.0
325.6000000000004,-1772.8,-832.0,-16944.8,-1847.0,-7111.9,2025-01-29 11:55:10,7.0
749.6000000000004,-1980.8,4.0,-16991.8,-2216.0,-6987.9,2025-01-29 11:55:10,7.0
753.6000000000004,-2288.8,276.0,-16954.8,-2897.0,-6992.9,2025-01-29 11:55:10,7.0
813.6000000000004,-2860.8,440.0,-16666.8,-3199.0,-7173.9,2025-01-29 11:55:10,7.0
441.6000000000004,-2928.8,352.0,-16369.8,-2919.0,-7080.9,2025-01-29 11:55:10,7.0
-26.39999999999964,-2492.8,-284.0,-15989.8,-2906.0,-6727.9,2025-01-29 11:55:10,7.0
377.6000000000004,-2304.8,-96.0,-16133.8,-3183.0,-6446.9,2025-01-29 11:55:10,7.0
977.6000000000004,-2504.8,96.0,-15835.8,-2846.0,-6477.9,2025-01-29 11:55:10,7.0
1485.6000000000004,-1848.8,212.0,-15861.8,-1976.0,-6495.9,2025-01-29 11:55:10,7.0
1677.6000000000004,-1032.8,-180.0,-16202.8,-1354.0,-6734.9,2025-01-29 11:55:10,7.0
1301.6000000000004,-740.8,-784.0,-16864.8,-728.0,-6863.9,2025-01-29 11:55:10,7.0
853.6000000000004,-468.8,-852.0,-17559.8,-622.0,-6921.9,2025-01-29 11:55:10,7.0
421.6000000000004,-820.8,-1004.0,-18062.8,-820.0,-6962.9,2025-01-29 11:55:10,7.0
229.6000000000004,-1228.8,-832.0,-18133.8,-1081.0,-7176.9,2025-01-29 11:55:10,7.0
1037.6000000000004,-2136.8,-344.0,-18175.8,-1735.0,-8125.9,2025-01-29 11:55:10,7.0
1937.6000000000004,-3200.8,112.0,-17908.8,-2885.0,-9635.9,2025-01-29 11:55:10,7.0
2613.6000000000004,-4580.8,-876.0,-17653.8,-3155.0,-11067.9,2025-01-29 11:55:10,7.0
961.6000000000004,-4244.8,-2364.0,-18258.8,-2091.0,-10895.9,2025-01-29 11:55:10,7.0
9.600000000000364,-2192.8,-2820.0,-19293.8,356.0,-9311.9,2025-01-29 11:55:10,7.0
197.6000000000004,-316.79999999999995,-2960.0,-20308.8,962.0,-8429.9,2025-01-29 11:55:10,7.0
285.6000000000004,243.20000000000005,-3488.0,-21849.8,-434.0,-7855.9,2025-01-29 11:55:10,7.0
521.6000000000004,-2232.8,-2040.0,-22916.8,-1445.0,-7497.9,2025-01-29 11:55:10,7.0
1161.6000000000004,-5552.8,-300.0,-22309.8,-1652.0,-7947.9,2025-01-29 11:55:10,7.0
1021.6000000000004,-7452.8,-448.0,-21119.8,-1835.0,-8592.9,2025-01-29 11:55:10,7.0
721.6000000000004,-5948.8,-1544.0,-20143.8,-1886.0,-7996.9,2025-01-29 11:55:10,7.0
1481.6000000000004,-3716.8,-2932.0,-19820.8,-1957.0,-7506.9,2025-01-29 11:55:10,7.0
2165.6000000000004,-2104.8,-4168.0,-19655.8,-1703.0,-7469.9,2025-01-29 11:55:10,7.0
1525.6000000000004,-736.8,-6932.0,-19105.8,-1266.0,-7332.9,2025-01-29 11:55:10,7.0
869.6000000000004,439.2000000000001,-6332.0,-19697.8,-592.0,-7241.9,2025-01-29 11:55:10,7.0
1673.6000000000004,1475.2,-2544.0,-19541.8,-601.0,-8438.9,2025-01-29 11:55:10,7.0
2225.6000000000004,2703.2,-612.0,-18521.8,-2302.0,-10357.9,2025-01-29 11:55:10,7.0
1405.6000000000004,1967.2,-3332.0,-19181.8,-3097.0,-10306.9,2025-01-29 11:55:10,7.0
3217.6000000000004,879.2,-4292.0,-20093.8,-1641.0,-9190.9,2025-01-29 11:55:10,7.0
4541.6,39.200000000000045,-5068.0,-21165.8,1281.0,-8840.9,2025-01-29 11:55:10,7.0
3905.6,-96.79999999999995,-4456.0,-21867.8,5203.0,-8808.9,2025-01-29 11:55:10,7.0
2281.6000000000004,7.2000000000000455,-4016.0,-22017.8,7816.0,-8713.9,2025-01-29 11:55:10,7.0
601.6000000000004,-436.8,-4008.0,-22188.8,7400.0,-9281.9,2025-01-29 11:55:10,7.0
-1530.3999999999996,-1076.8,-3492.0,-21800.8,5226.0,-9207.9,2025-01-29 11:55:10,7.0
-1738.3999999999996,-952.8,-1608.0,-21281.8,2171.0,-8305.9,2025-01-29 11:55:10,7.0
-154.39999999999964,307.20000000000005,-760.0,-20331.8,-1498.0,-8507.9,2025-01-29 11:55:10,7.0
485.6000000000004,855.2,-1724.0,-20001.8,-2644.0,-9091.9,2025-01-29 11:55:10,7.0
1393.6000000000004,1103.2,-2684.0,-20232.8,-2927.0,-9453.9,2025-01-29 11:55:10,7.0
3029.6000000000004,99.20000000000005,-3760.0,-20450.8,-3579.0,-10193.9,2025-01-29 11:55:10,7.0
4025.6,291.20000000000005,-2852.0,-20770.8,-3671.0,-10550.9,2025-01-29 11:55:10,7.0
4633.6,231.20000000000005,-2084.0,-20441.8,-3315.0,-10921.9,2025-01-29 11:55:10,7.0
4649.6,83.20000000000005,-1356.0,-19953.8,-2362.0,-10681.9,2025-01-29 11:55:10,7.0
5017.6,-156.79999999999995,-432.0,-18807.8,617.0,-10801.9,2025-01-29 11:55:10,7.0
4597.6,-716.8,-1376.0,-17778.8,2940.0,-10789.9,2025-01-29 11:55:10,7.0
3097.6000000000004,-1040.8,-2660.0,-17379.8,3559.0,-10975.9,2025-01-29 11:55:10,7.0
1921.6000000000004,-1556.8,-3008.0,-16897.8,3851.0,-10552.9,2025-01-29 11:55:10,7.0
941.6000000000004,-2280.8,-2464.0,-15039.8,3047.0,-10886.9,2025-01-29 11:55:10,7.0
441.6000000000004,-2148.8,-1964.0,-13119.8,3221.0,-10312.9,2025-01-29 11:55:10,7.0
825.6000000000004,-1332.8,-2692.0,-11156.8,3426.0,-9331.9,2025-01-29 11:55:10,7.0
973.6000000000004,-12.799999999999956,-2468.0,-10730.8,1436.0,-8013.9,2025-01-29 11:55:10,7.0
2009.6000000000004,-96.79999999999995,-872.0,-10137.8,-1059.0,-6700.9,2025-01-29 11:55:10,7.0
2385.6000000000004,-1296.8,-76.0,-9146.8,-1663.0,-5490.9,2025-01-29 11:55:11,7.0
4705.6,-1152.8,-456.0,-8159.8,-716.0,-5283.9,2025-01-29 11:55:11,7.0
4705.6,359.20000000000005,-552.0,-7249.8,267.0,-5226.9,2025-01-29 11:55:11,7.0
4913.6,1535.2,-800.0,-6751.8,1760.0,-4418.9,2025-01-29 11:55:11,7.0
4261.6,1843.2,-660.0,-7210.8,1585.0,-4062.9,2025-01-29 11:55:11,7.0
2885.6000000000004,1499.2,672.0,-8413.8,-1582.0,-3933.9,2025-01-29 11:55:11,2.0
3477.6000000000004,-612.8,1828.0,-8036.8,-2215.0,-2775.9,2025-01-29 11:55:11,2.0
5073.6,-284.79999999999995,748.0,-8026.8,-4314.0,-3471.9,2025-01-29 11:55:11,2.0
4077.6,483.2000000000001,1124.0,-7858.8,-7181.0,-5873.9,2025-01-29 11:55:11,2.0
365.6000000000004,467.2000000000001,1052.0,-7503.8,-10367.0,-7716.9,2025-01-29 11:55:11,2.0
-1850.4,655.2,-8.0,-8871.8,-8374.0,-5554.9,2025-01-29 11:55:11,2.0
-4974.4,-128.79999999999995,-688.0,-9557.8,-5757.0,-2999.9,2025-01-29 11:55:11,2.0
-5778.4,-4.7999999999999545,232.0,-12098.8,-2079.0,1353.1,2025-01-29 11:55:11,2.0
-1658.3999999999996,-1120.8,4272.0,-10760.8,972.0,3803.1,2025-01-29 11:55:11,2.0
1657.6000000000004,-988.8,1284.0,-9367.8,-2473.0,4594.1,2025-01-29 11:55:11,2.0
4285.6,915.2,2056.0,-9326.8,-3650.0,3167.1,2025-01-29 11:55:11,2.0
6049.6,2059.2,1824.0,-7371.8,-4028.0,359.1,2025-01-29 11:55:11,2.0
6965.6,1331.2,236.0,-5993.8,-1673.0,-2520.9,2025-01-29 11:55:11,2.0
-1178.3999999999996,211.20000000000005,188.0,-4967.8,-1936.0,-2806.9,2025-01-29 11:55:11,2.0
-770.3999999999996,427.2000000000001,-984.0,-4366.8,-4844.0,-2371.9,2025-01-29 11:55:11,2.0
-1986.4,883.2,1484.0,-2792.8,-10849.0,-1916.9,2025-01-29 11:55:11,2.0
-3498.4,1507.2,-1252.0,-2404.8,-12886.0,-1006.9,2025-01-29 11:55:11,2.0
-3522.4,1999.2,-48.0,-3561.8,-13034.0,-223.9,2025-01-29 11:55:11,2.0
-290.39999999999964,2667.2,2116.0,-2814.8,-19994.0,-201.9,2025-01-29 11:55:11,2.0
-4206.4,1771.2,-2344.0,-3054.8,-19931.0,31.099999999999994,2025-01-29 11:55:11,2.0
645.6000000000004,407.2000000000001,-812.0,-6337.8,-10313.0,1027.1,2025-01-29 11:55:11,2.0
1237.6000000000004,2411.2,4984.0,-4171.8,-7066.0,-308.9,2025-01-29 11:55:11,2.0
873.6000000000004,1079.2,3980.0,-2175.8,-3750.0,631.1,2025-01-29 11:55:11,2.0
-150.39999999999964,439.2000000000001,4132.0,-2013.8,-667.0,1100.1,2025-01-29 11:55:11,2.0
-3014.4,1019.2,5236.0,-1244.8,1502.0,2279.1,2025-01-29 11:55:11,2.0
-1794.3999999999996,663.2,3612.0,-48.80000000000001,-1.0,2282.1,2025-01-29 11:55:11,2.0
-2906.4,3271.2,4756.0,560.2,-1006.0,985.1,2025-01-29 11:55:11,2.0
-4162.4,3735.2,4936.0,1134.2,-3399.0,69.1,2025-01-29 11:55:11,2.0
-3046.4,2943.2,4244.0,984.2,-6456.0,33.099999999999994,2025-01-29 11:55:11,2.0
-3618.4,3699.2,6332.0,466.2,-7299.0,320.1,2025-01-29 11:55:11,2.0
-2690.4,4215.2,5512.0,-132.8,-6618.0,562.1,2025-01-29 11:55:11,2.0
-3314.4,3803.2,5412.0,-692.8,-4990.0,380.1,2025-01-29 11:55:11,2.0
-3394.4,2603.2,5704.0,-1163.8,-5282.0,480.1,2025-01-29 11:55:11,2.0
-4078.4,1791.2,7176.0,-878.8,-6944.0,1064.1,2025-01-29 11:55:11,2.0
-1314.3999999999996,3095.2,7112.0,-381.8,-8979.0,176.1,2025-01-29 11:55:11,2.0
-934.3999999999996,4247.2,7764.0,-68.80000000000001,-9508.0,-1748.9,2025-01-29 11:55:11,2.0
-3374.4,3343.2,6844.0,-616.8,-8642.0,-1921.9,2025-01-29 11:55:11,2.0
-6214.4,2439.2,6856.0,-943.8,-9236.0,-1157.9,2025-01-29 11:55:11,2.0
-4878.4,2827.2,6948.0,-18.80000000000001,-10195.0,-657.9,2025-01-29 11:55:11,2.0
-3942.4,3647.2,7396.0,373.2,-10528.0,-977.9,2025-01-29 11:55:11,2.0
-4918.4,2863.2,7236.0,-12.800000000000011,-10844.0,-1095.9,2025-01-29 11:55:11,2.0
-3610.4,2503.2,8456.0,-244.8,-12110.0,-1664.9,2025-01-29 11:55:11,2.0
-2958.4,2451.2,8928.0,137.2,-12135.0,-2544.9,2025-01-29 11:55:11,2.0
-3426.4,2239.2,8700.0,453.2,-11303.0,-2983.9,2025-01-29 11:55:11,2.0
-4662.4,1859.2,8404.0,84.19999999999999,-10105.0,-2477.9,2025-01-29 11:55:11,2.0
-2386.4,2643.2,8308.0,-208.8,-9794.0,-2200.9,2025-01-29 11:55:11,2.0
-606.3999999999996,2875.2,8736.0,-571.8,-10100.0,-3778.9,2025-01-29 11:55:11,2.0
-1730.3999999999996,3055.2,9184.0,-876.8,-9277.0,-5366.9,2025-01-29 11:55:11,2.0
-2622.4,3859.2,11176.0,-810.8,-8814.0,-6964.9,2025-01-29 11:55:11,2.0
-3790.4,3231.2,11608.0,-484.8,-8201.0,-7339.9,2025-01-29 11:55:11,2.0
-4630.4,2975.2,11812.0,99.2,-7047.0,-6278.9,2025-01-29 11:55:11,2.0
-4266.4,3035.2,11512.0,-520.8,-8828.0,-3876.9,2025-01-29 11:55:11,2.0
-2306.4,2843.2,12700.0,260.2,-9491.0,-2688.9,2025-01-29 11:55:11,2.0
-1266.3999999999996,3031.2,11972.0,919.2,-9664.0,-2106.9,2025-01-29 11:55:11,2.0
-2062.4,3759.2,11540.0,-184.8,-10395.0,-1312.9,2025-01-29 11:55:11,2.0
-1354.3999999999996,2727.2,11232.0,-1155.8,-8691.0,-1389.9,2025-01-29 11:55:12,2.0
-626.3999999999996,1679.2,11484.0,-2129.8,-6696.0,-1664.9,2025-01-29 11:55:12,2.0
-518.3999999999996,871.2,13264.0,-2394.8,-6245.0,-1852.9,2025-01-29 11:55:12,2.0
101.60000000000036,-392.8,13348.0,-2515.8,-6065.0,-1818.9,2025-01-29 11:55:12,2.0
-138.39999999999964,-636.8,13664.0,-2241.8,-5568.0,-1507.9,2025-01-29 11:55:12,2.0
237.6000000000004,-780.8,14052.0,-1301.8,-4973.0,-1162.9,2025-01-29 11:55:12,2.0
-74.39999999999964,-504.8,14024.0,-718.8,-4432.0,-828.9,2025-01-29 11:55:12,2.0
273.6000000000004,123.20000000000005,13568.0,-768.8,-4007.0,-701.9,2025-01-29 11:55:12,2.0
81.60000000000036,695.2,13396.0,-848.8,-3807.0,-1030.9,2025-01-29 11:55:12,2.0
253.6000000000004,1339.2,14100.0,-1184.8,-4392.0,-1728.9,2025-01-29 11:55:12,2.0
-6.399999999999636,755.2,15744.0,-1502.8,-4961.0,-2550.9,2025-01-29 11:55:12,2.0
-54.39999999999964,255.20000000000005,16456.0,-1672.8,-5622.0,-3109.9,2025-01-29 11:55:12,2.0
-522.3999999999996,-384.8,16704.0,-1525.8,-5882.0,-2805.9,2025-01-29 11:55:12,2.0
797.6000000000004,-1064.8,15616.0,-1220.8,-5280.0,-1747.9,2025-01-29 11:55:12,2.0
1549.6000000000004,-1868.8,16036.0,-1126.8,-4170.0,-942.9,2025-01-29 11:55:12,2.0
1485.6000000000004,-2212.8,15512.0,-1006.8,-2483.0,-489.9,2025-01-29 11:55:12,2.0
889.6000000000004,-1796.8,15324.0,-733.8,-1103.0,-275.9,2025-01-29 11:55:12,2.0
61.60000000000037,-1408.8,15808.0,-556.8,-620.0,-634.9,2025-01-29 11:55:12,2.0
-274.39999999999964,-1132.8,15900.0,-453.8,-710.0,-576.9,2025-01-29 11:55:12,2.0
-930.3999999999996,-876.8,15660.0,-514.8,-1021.0,-258.9,2025-01-29 11:55:12,2.0
-478.3999999999997,-1056.8,15792.0,-581.8,-1545.0,4.099999999999994,2025-01-29 11:55:12,2.0
113.60000000000036,-1100.8,15992.0,-456.8,-2376.0,147.1,2025-01-29 11:55:12,2.0
785.6000000000004,-1448.8,16044.0,-301.8,-3051.0,538.1,2025-01-29 11:55:12,2.0
1709.6000000000004,-1340.8,16004.0,-140.8,-3058.0,867.1,2025-01-29 11:55:12,2.0
1673.6000000000004,-996.8,16084.0,-128.8,-2443.0,1165.1,2025-01-29 11:55:12,2.0
1853.6000000000004,-844.8,16336.0,-67.80000000000001,-1615.0,1388.1,2025-01-29 11:55:12,2.0
1997.6000000000004,-512.8,16056.0,-68.80000000000001,-725.0,1485.1,2025-01-29 11:55:12,2.0
1341.6000000000004,-140.79999999999995,16064.0,-186.8,331.0,1176.1,2025-01-29 11:55:12,2.0
677.6000000000004,79.20000000000005,16000.0,-305.8,485.0,913.1,2025-01-29 11:55:12,2.0
89.60000000000036,-8.799999999999955,15760.0,-459.8,-105.0,893.1,2025-01-29 11:55:12,2.0
333.6000000000004,-324.79999999999995,15928.0,-532.8,-877.0,952.1,2025-01-29 11:55:12,2.0
493.6000000000004,-324.79999999999995,16064.0,-470.8,-1685.0,1177.1,2025-01-29 11:55:12,2.0
961.6000000000004,-80.79999999999995,16412.0,-409.8,-1852.0,1634.1,2025-01-29 11:55:12,2.0
1545.6000000000004,39.200000000000045,16468.0,-199.8,-1246.0,1651.1,2025-01-29 11:55:12,2.0
1685.6000000000004,475.2000000000001,16344.0,-327.8,-198.0,1018.1,2025-01-29 11:55:12,2.0
1165.6000000000004,727.2,16692.0,-561.8,479.0,233.1,2025-01-29 11:55:12,2.0
345.6000000000004,423.2000000000001,16916.0,-681.8,291.0,-116.9,2025-01-29 11:55:12,2.0
25.600000000000364,51.200000000000045,16560.0,-335.8,-327.0,686.1,2025-01-29 11:55:12,2.0
801.6000000000004,51.200000000000045,16012.0,-4.800000000000011,-485.0,1351.1,2025-01-29 11:55:12,2.0
1689.6000000000004,403.2000000000001,15652.0,69.19999999999999,-113.0,1428.1,2025-01-29 11:55:12,2.0
1621.6000000000004,731.2,15608.0,-22.80000000000001,217.0,1146.1,2025-01-29 11:55:12,2.0
1317.6000000000004,839.2,16124.0,-143.8,387.0,847.1,2025-01-29 11:55:12,2.0
881.6000000000004,691.2,16424.0,-239.8,300.0,672.1,2025-01-29 11:55:12,2.0
689.6000000000004,535.2,16548.0,-328.8,17.0,609.1,2025-01-29 11:55:12,2.0
729.6000000000004,467.2000000000001,16772.0,-323.8,-5.0,457.1,2025-01-29 11:55:12,2.0
897.6000000000004,235.20000000000005,16464.0,-366.8,189.0,329.1,2025-01-29 11:55:12,2.0
673.6000000000004,87.20000000000005,15936.0,-396.8,389.0,255.1,2025-01-29 11:55:12,2.0
769.6000000000004,-132.79999999999995,15888.0,-402.8,458.0,359.1,2025-01-29 11:55:12,2.0
473.6000000000004,-124.79999999999995,15768.0,-243.8,448.0,561.1,2025-01-29 11:55:12,2.0
633.6000000000004,51.200000000000045,15800.0,-155.8,296.0,657.1,2025-01-29 11:55:12,2.0
689.6000000000004,331.20000000000005,15784.0,-226.8,100.0,522.1,2025-01-29 11:55:12,2.0
849.6000000000004,363.2000000000001,16040.0,-247.8,66.0,350.1,2025-01-29 11:55:12,2.0
797.6000000000004,283.20000000000005,16196.0,-246.8,177.0,178.1,2025-01-29 11:55:12,2.0
609.6000000000004,339.20000000000005,16096.0,-243.8,120.0,192.1,2025-01-29 11:55:12,2.0
549.6000000000004,535.2,15900.0,-213.8,189.0,273.1,2025-01-29 11:55:12,2.0
525.6000000000004,783.2,15964.0,-236.8,392.0,304.1,2025-01-29 11:55:12,2.0
461.6000000000004,811.2,15640.0,-314.8,425.0,255.1,2025-01-29 11:55:12,2.0
445.6000000000004,747.2,15316.0,-304.8,259.0,178.1,2025-01-29 11:55:12,2.0
405.6000000000004,667.2,15588.0,-272.8,167.0,85.1,2025-01-29 11:55:12,2.0
437.6000000000004,535.2,15632.0,-287.8,125.0,21.099999999999994,2025-01-29 11:55:12,2.0
317.6000000000004,539.2,15712.0,-269.8,-33.0,43.1,2025-01-29 11:55:13,2.0
449.6000000000004,403.2000000000001,15844.0,-248.8,-96.0,4.099999999999994,2025-01-29 11:55:13,2.0
581.6000000000004,303.20000000000005,15692.0,-226.8,-41.0,-65.9,2025-01-29 11:55:13,2.0
517.6000000000004,247.20000000000005,15864.0,-245.8,2.0,-170.9,2025-01-29 11:55:13,2.0
617.6000000000004,59.200000000000045,15812.0,-212.8,130.0,-275.9,2025-01-29 11:55:13,2.0
393.6000000000004,151.20000000000005,15748.0,-193.8,146.0,-314.9,2025-01-29 11:55:13,2.0
449.6000000000004,219.20000000000005,15612.0,-157.8,44.0,-223.9,2025-01-29 11:55:13,2.0
349.6000000000004,159.20000000000005,15764.0,-134.8,27.0,-137.9,2025-01-29 11:55:13,2.0
341.6000000000004,131.20000000000005,15820.0,-141.8,-44.0,-85.9,2025-01-29 11:55:13,2.0
597.6000000000004,239.20000000000005,15816.0,-189.8,-75.0,-110.9,2025-01-29 11:55:13,2.0
557.6000000000004,191.20000000000005,15952.0,-203.8,-61.0,-152.9,2025-01-29 11:55:13,2.0
633.6000000000004,151.20000000000005,15944.0,-223.8,-4.0,-203.9,2025-01-29 11:55:13,2.0
533.6000000000004,187.20000000000005,15888.0,-186.8,-20.0,-247.9,2025-01-29 11:55:13,2.0
533.6000000000004,59.200000000000045,15824.0,-168.8,1.0,-254.9,2025-01-29 11:55:13,2.0
517.6000000000004,151.20000000000005,15900.0,-152.8,30.0,-202.9,2025-01-29 11:55:13,2.0
461.6000000000004,119.20000000000005,15712.0,-115.8,57.0,-157.9,2025-01-29 11:55:13,2.0
597.6000000000004,203.20000000000005,15836.0,-114.8,-27.0,-165.9,2025-01-29 11:55:13,2.0
585.6000000000004,83.20000000000005,15848.0,-89.80000000000001,-63.0,-198.9,2025-01-29 11:55:13,2.0
541.6000000000004,43.200000000000045,15980.0,-64.80000000000001,-112.0,-223.9,2025-01-29 11:55:13,2.0
605.6000000000004,31.200000000000045,16032.0,-60.80000000000001,-119.0,-247.9,2025-01-29 11:55:13,2.0
565.6000000000004,35.200000000000045,15856.0,-76.80000000000001,-101.0,-246.9,2025-01-29 11:55:13,2.0
521.6000000000004,59.200000000000045,15836.0,-14.800000000000011,-43.0,-201.9,2025-01-29 11:55:13,2.0
573.6000000000004,95.20000000000005,15780.0,26.19999999999999,-30.0,-199.9,2025-01-29 11:55:13,2.0
545.6000000000004,63.200000000000045,15776.0,15.199999999999989,32.0,-181.9,2025-01-29 11:55:13,2.0
529.6000000000004,-44.79999999999996,15868.0,69.19999999999999,19.0,-171.9,2025-01-29 11:55:13,2.0
561.6000000000004,7.2000000000000455,15792.0,95.2,-3.0,-110.9,2025-01-29 11:55:13,2.0
657.6000000000004,207.20000000000005,15820.0,232.2,-191.0,-111.9,2025-01-29 11:55:13,2.0
589.6000000000004,235.20000000000005,15836.0,200.2,-168.0,-193.9,2025-01-29 11:55:13,2.0
537.6000000000004,175.20000000000005,15976.0,206.2,-167.0,-202.9,2025-01-29 11:55:13,2.0
533.6000000000004,219.20000000000005,15900.0,190.2,-151.0,-134.9,2025-01-29 11:55:13,2.0
569.6000000000004,259.20000000000005,15976.0,178.2,-77.0,-132.9,2025-01-29 11:55:13,2.0
541.6000000000004,175.20000000000005,16012.0,130.2,-226.0,-149.9,2025-01-29 11:55:13,2.0
405.6000000000004,79.20000000000005,16112.0,93.2,-335.0,-251.9,2025-01-29 11:55:13,2.0
341.6000000000004,-20.799999999999955,15620.0,192.2,-252.0,-258.9,2025-01-29 11:55:13,2.0
237.6000000000004,195.20000000000005,15488.0,369.2,35.0,-181.9,2025-01-29 11:55:13,2.0
-22.39999999999964,303.20000000000005,16144.0,560.2,-127.0,-117.9,2025-01-29 11:55:13,2.0
105.60000000000036,279.20000000000005,15724.0,640.2,-286.0,-220.9,2025-01-29 11:55:13,2.0
533.6000000000004,775.2,15568.0,433.2,55.0,-421.9,2025-01-29 11:55:13,2.0
113.60000000000036,307.20000000000005,15712.0,313.2,494.0,-641.9,2025-01-29 11:55:13,2.0
997.6000000000004,167.20000000000005,15172.0,-70.80000000000001,-837.0,-872.9,2025-01-29 11:55:13,2.0
-250.39999999999964,-12.799999999999956,15356.0,-322.8,-789.0,-1071.9,2025-01-29 11:55:13,2.0
-250.39999999999964,-68.79999999999995,15320.0,-475.8,-1086.0,-965.9,2025-01-29 11:55:13,2.0
413.6000000000004,79.20000000000005,15436.0,-576.8,-2105.0,-380.9,2025-01-29 11:55:13,2.0
1621.6000000000004,667.2,15528.0,-598.8,-2845.0,82.1,2025-01-29 11:55:13,2.0
2473.6000000000004,931.2,15932.0,-685.8,-2551.0,68.1,2025-01-29 11:55:13,2.0
2585.6000000000004,475.2000000000001,16276.0,-783.8,-1031.0,-44.900000000000006,2025-01-29 11:55:13,2.0
2117.6000000000004,299.20000000000005,16108.0,-728.8,235.0,143.1,2025-01-29 11:55:13,2.0
1773.6000000000004,35.200000000000045,15856.0,-941.8,797.0,293.1,2025-01-29 11:55:13,2.0
1253.6000000000004,203.20000000000005,15724.0,-1162.8,678.0,475.1,2025-01-29 11:55:13,2.0
1085.6000000000004,287.20000000000005,16220.0,-1473.8,799.0,493.1,2025-01-29 11:55:13,2.0
1133.6000000000004,55.200000000000045,16316.0,-1660.8,830.0,183.1,2025-01-29 11:55:13,2.0
769.6000000000004,-60.79999999999996,16412.0,-1640.8,471.0,-73.9,2025-01-29 11:55:13,2.0
689.6000000000004,-408.8,16452.0,-1587.8,259.0,-182.9,2025-01-29 11:55:13,2.0
829.6000000000004,-504.8,16296.0,-1587.8,27.0,-31.90000000000001,2025-01-29 11:55:14,2.0
1209.6000000000004,-600.8,16296.0,-1446.8,53.0,296.1,2025-01-29 11:55:14,2.0
1569.6000000000004,-268.79999999999995,16112.0,-1278.8,304.0,447.1,2025-01-29 11:55:14,2.0
1429.6000000000004,107.20000000000005,15684.0,-1371.8,840.0,376.1,2025-01-29 11:55:14,2.0
1001.6000000000004,103.20000000000005,15348.0,-1604.8,1120.0,153.1,2025-01-29 11:55:14,2.0
297.6000000000004,-444.8,15696.0,-1474.8,827.0,181.1,2025-01-29 11:55:14,2.0
-582.3999999999996,-808.8,16640.0,-928.8,57.0,680.1,2025-01-29 11:55:14,2.0
-202.39999999999964,-964.8,16480.0,-424.8,-859.0,1103.1,2025-01-29 11:55:14,2.0
469.6000000000004,-872.8,15720.0,-414.8,-1324.0,1217.1,2025-01-29 11:55:14,2.0
977.6000000000004,-508.8,15692.0,-519.8,-918.0,1203.1,2025-01-29 11:55:14,2.0
1029.6000000000004,-300.79999999999995,15944.0,-661.8,27.0,1049.1,2025-01-29 11:55:14,2.0
881.6000000000004,-244.79999999999995,16676.0,-746.8,747.0,1068.1,2025-01-29 11:55:14,2.0
1041.6000000000004,-316.79999999999995,16944.0,-790.8,1333.0,1376.1,2025-01-29 11:55:14,2.0
969.6000000000004,-504.8,16856.0,-575.8,1959.0,1763.1,2025-01-29 11:55:14,2.0
1197.6000000000004,-596.8,16376.0,-409.8,2640.0,2129.1,2025-01-29 11:55:14,2.0
1185.6000000000004,-516.8,16448.0,-358.8,3199.0,2429.1,2025-01-29 11:55:14,2.0
1065.6000000000004,-524.8,16656.0,-321.8,3589.0,2519.1,2025-01-29 11:55:14,2.0
1097.6000000000004,-392.8,17220.0,-541.8,3895.0,2248.1,2025-01-29 11:55:14,2.0
1477.6000000000004,-824.8,17592.0,-596.8,4250.0,1914.1,2025-01-29 11:55:14,2.0
1073.6000000000004,-1116.8,16720.0,-187.8,5263.0,1699.1,2025-01-29 11:55:14,2.0
1185.6000000000004,-1784.8,14804.0,644.2,6948.0,1218.1,2025-01-29 11:55:14,2.0
285.6000000000004,-2132.8,14188.0,1558.2,7330.0,675.1,2025-01-29 11:55:14,2.0
-466.3999999999997,-2468.8,14864.0,2180.2,6108.0,385.1,2025-01-29 11:55:14,2.0
-530.3999999999996,-2088.8,16360.0,2675.2,4492.0,188.1,2025-01-29 11:55:14,2.0
-674.3999999999996,-804.8,16848.0,3471.2,4755.0,494.1,2025-01-29 11:55:14,2.0
-578.3999999999996,639.2,16128.0,4023.2,6519.0,897.1,2025-01-29 11:55:14,2.0
-1226.3999999999996,2247.2,15056.0,3999.2,8153.0,1379.1,2025-01-29 11:55:14,2.0
-874.3999999999996,3719.2,13772.0,3361.2,8927.0,1872.1,2025-01-29 11:55:14,2.0
-522.3999999999996,3195.2,12480.0,1208.2,9634.0,3389.1,2025-01-29 11:55:14,2.0
-1054.3999999999996,1939.2,12692.0,796.2,10628.0,4075.1,2025-01-29 11:55:14,2.0
-1374.3999999999996,899.2,14272.0,1064.2,11226.0,4237.1,2025-01-29 11:55:14,2.0
-2218.4,551.2,14060.0,1889.2,12323.0,4077.1,2025-01-29 11:55:14,2.0
-1538.3999999999996,1055.2,13964.0,2281.2,12985.0,3913.1,2025-01-29 11:55:14,2.0
-2082.4,2239.2,13816.0,2497.2,13326.0,3516.1,2025-01-29 11:55:14,2.0
-2370.4,3267.2,12800.0,2570.2,12477.0,2087.1,2025-01-29 11:55:14,2.0
-2950.4,1911.2,12212.0,1826.2,12558.0,1440.1,2025-01-29 11:55:14,2.0
-5426.4,1167.2,12424.0,1060.2,13489.0,1571.1,2025-01-29 11:55:14,2.0
-5330.4,619.2,11144.0,860.2,13498.0,1746.1,2025-01-29 11:55:14,2.0
-8542.4,1583.2,13264.0,1639.2,14959.0,1121.1,2025-01-29 11:55:14,2.0
-4194.4,1643.2,9072.0,869.2,10247.0,1502.1,2025-01-29 11:55:14,2.0
-3966.4,1259.2,9728.0,1485.2,10466.0,1088.1,2025-01-29 11:55:14,2.0
-4490.4,2163.2,9056.0,2219.2,10363.0,834.1,2025-01-29 11:55:14,2.0
-5430.4,2839.2,8780.0,2131.2,10079.0,734.1,2025-01-29 11:55:14,2.0
-4858.4,3047.2,7996.0,2487.2,9939.0,334.1,2025-01-29 11:55:14,2.0
-3966.4,3331.2,6096.0,2860.2,9705.0,205.1,2025-01-29 11:55:14,2.0
-3166.4,3155.2,5884.0,2863.2,8871.0,546.1,2025-01-29 11:55:14,2.0
-2546.4,3379.2,5764.0,2682.2,8047.0,344.1,2025-01-29 11:55:14,2.0
-2622.4,3351.2,5464.0,2724.2,7861.0,-117.9,2025-01-29 11:55:14,2.0
-2606.4,3123.2,5468.0,3025.2,7675.0,-290.9,2025-01-29 11:55:14,2.0
-3082.4,2695.2,5464.0,3353.2,6681.0,-468.9,2025-01-29 11:55:14,2.0
-3330.4,2283.2,5304.0,3577.2,5082.0,-209.9,2025-01-29 11:55:14,2.0
-2938.4,2603.2,5660.0,3537.2,3677.0,251.1,2025-01-29 11:55:14,2.0
-3078.4,2951.2,5184.0,3232.2,4171.0,755.1,2025-01-29 11:55:14,2.0
-3426.4,2695.2,4096.0,2724.2,5948.0,1848.1,2025-01-29 11:55:14,2.0
-1706.3999999999996,2803.2,3264.0,2630.2,5246.0,1636.1,2025-01-29 11:55:14,2.0
-2742.4,2991.2,3032.0,2924.2,2699.0,307.1,2025-01-29 11:55:14,2.0
-3906.4,2895.2,2948.0,3221.2,1660.0,-151.9,2025-01-29 11:55:14,2.0
-4506.4,2875.2,3588.0,3282.2,1411.0,83.1,2025-01-29 11:55:14,2.0
-3638.4,2859.2,2740.0,3010.2,1406.0,405.1,2025-01-29 11:55:14,2.0
-3130.4,3339.2,3044.0,2217.2,1661.0,366.1,2025-01-29 11:55:14,2.0
-1946.4,3507.2,3576.0,1654.2,1871.0,-301.9,2025-01-29 11:55:15,2.0
-1138.3999999999996,3679.2,4856.0,1932.2,2150.0,-1207.9,2025-01-29 11:55:15,2.0
-890.3999999999996,3303.2,4996.0,2729.2,2380.0,-1725.9,2025-01-29 11:55:15,2.0
-666.3999999999996,2863.2,4528.0,3234.2,3008.0,-2176.9,2025-01-29 11:55:15,2.0
-382.3999999999997,2583.2,3740.0,3237.2,3998.0,-2594.9,2025-01-29 11:55:15,2.0
-498.3999999999997,2251.2,3420.0,3088.2,3749.0,-2496.9,2025-01-29 11:55:15,2.0
-886.3999999999996,1467.2,4144.0,3179.2,3630.0,-2460.9,2025-01-29 11:55:15,2.0
-806.3999999999996,867.2,4736.0,3565.2,3342.0,-2607.9,2025-01-29 11:55:15,2.0
-1358.3999999999996,155.20000000000005,5476.0,4410.2,3192.0,-2953.9,2025-01-29 11:55:15,2.0
-1690.3999999999996,303.20000000000005,4300.0,5354.2,3939.0,-2715.9,2025-01-29 11:55:15,2.0
-466.3999999999997,-48.79999999999996,3576.0,6005.2,5560.0,-1908.9,2025-01-29 11:55:15,2.0
-126.39999999999964,935.2,3140.0,6107.2,2725.0,-892.9,2025-01-29 11:55:15,2.0
-846.3999999999996,1539.2,3308.0,6691.2,2331.0,452.1,2025-01-29 11:55:15,2.0
237.6000000000004,1531.2,1764.0,6968.2,-874.0,2016.1,2025-01-29 11:55:15,2.0
-326.39999999999964,4051.2,-1096.0,6293.2,-4769.0,2847.1,2025-01-29 11:55:15,2.0
821.6000000000004,2031.2,2492.0,3977.2,563.0,2072.1,2025-01-29 11:55:15,1.0
1417.6000000000004,1227.2,2612.0,2549.2,2538.0,507.1,2025-01-29 11:55:15,1.0
1561.6000000000004,1415.2,1988.0,2301.2,606.0,-915.9,2025-01-29 11:55:15,1.0
1597.6000000000004,1035.2,228.0,1721.2,-183.0,-2211.9,2025-01-29 11:55:15,1.0
2401.6000000000004,803.2,504.0,716.2,-1523.0,-2779.9,2025-01-29 11:55:15,1.0
3185.6000000000004,-204.79999999999995,716.0,55.19999999999999,-2206.0,-3129.9,2025-01-29 11:55:15,1.0
4609.6,-1224.8,1440.0,-72.80000000000001,-2521.0,-3181.9,2025-01-29 11:55:15,1.0
4737.6,-1268.8,1992.0,564.2,-1986.0,-3133.9,2025-01-29 11:55:15,1.0
4321.6,-708.8,2456.0,1275.2,-875.0,-3195.9,2025-01-29 11:55:15,1.0
3921.6,-664.8,2484.0,1182.2,-875.0,-3207.9,2025-01-29 11:55:15,1.0
3861.6,-624.8,2744.0,929.2,-1466.0,-3240.9,2025-01-29 11:55:15,1.0
3065.6000000000004,-1052.8,3396.0,824.2,-2853.0,-3121.9,2025-01-29 11:55:15,1.0
2197.6000000000004,-1544.8,2904.0,699.2,-855.0,-2666.9,2025-01-29 11:55:15,1.0
2105.6000000000004,-1716.8,3380.0,951.2,1610.0,-1617.9,2025-01-29 11:55:15,1.0
1733.6000000000004,-2308.8,3476.0,1829.2,2757.0,-1041.9,2025-01-29 11:55:15,1.0
-174.39999999999964,-2744.8,4288.0,2718.2,1941.0,-850.9,2025-01-29 11:55:15,1.0
-54.39999999999964,-2908.8,4040.0,2755.2,2900.0,-582.9,2025-01-29 11:55:15,1.0
-114.39999999999964,-2020.8,3460.0,2816.2,3757.0,-482.9,2025-01-29 11:55:15,1.0
-330.39999999999964,-1256.8,3084.0,2081.2,3802.0,-418.9,2025-01-29 11:55:15,1.0
-30.39999999999964,-932.8,3416.0,1489.2,3239.0,-95.9,2025-01-29 11:55:15,1.0
493.6000000000004,-1088.8,3388.0,1124.2,1823.0,-426.9,2025-01-29 11:55:15,1.0
-894.3999999999996,-1160.8,3632.0,1325.2,1277.0,-178.9,2025-01-29 11:55:15,1.0
-1798.3999999999996,-1772.8,4140.0,1984.2,2040.0,1813.1,2025-01-29 11:55:15,1.0
-6.399999999999636,-1968.8,3272.0,2609.2,2100.0,2563.1,2025-01-29 11:55:15,1.0
145.60000000000036,-1960.8,2452.0,2796.2,1904.0,1948.1,2025-01-29 11:55:15,1.0
-526.3999999999996,-1516.8,3280.0,2123.2,1471.0,1307.1,2025-01-29 11:55:15,1.0
-1770.3999999999996,-860.8,4432.0,1386.2,1284.0,1098.1,2025-01-29 11:55:15,1.0
-2802.4,-712.8,4572.0,1192.2,-117.0,1150.1,2025-01-29 11:55:15,1.0
-3626.4,-136.79999999999995,3240.0,1276.2,-1066.0,2190.1,2025-01-29 11:55:15,1.0
-2038.4,-1572.8,4296.0,484.2,-3204.0,2179.1,2025-01-29 11:55:15,1.0
-2358.4,-1952.8,4400.0,833.2,-5237.0,2017.1,2025-01-29 11:55:15,1.0
-1282.3999999999996,-1788.8,4708.0,591.2,-7308.0,1536.1,2025-01-29 11:55:15,1.0
-570.3999999999996,-1964.8,5556.0,803.2,-9231.0,621.1,2025-01-29 11:55:15,1.0
-422.3999999999997,-2860.8,5616.0,923.2,-9998.0,350.1,2025-01-29 11:55:15,1.0
329.6000000000004,-3036.8,6496.0,569.2,-9868.0,-232.9,2025-01-29 11:55:15,1.0
-34.39999999999964,-3464.8,7476.0,886.2,-9150.0,-679.9,2025-01-29 11:55:15,1.0
-966.3999999999996,-3464.8,7520.0,1392.2,-6913.0,-544.9,2025-01-29 11:55:15,1.0
-858.3999999999996,-2972.8,6368.0,686.2,-1541.0,-513.9,2025-01-29 11:55:15,1.0
-2242.4,-2804.8,7440.0,1296.2,633.0,-24.90000000000001,2025-01-29 11:55:15,1.0
-1982.4,-2220.8,7620.0,1072.2,2474.0,393.1,2025-01-29 11:55:15,1.0
-3054.4,-2528.8,8700.0,2610.2,3817.0,33.099999999999994,2025-01-29 11:55:15,1.0
-3674.4,-2776.8,5544.0,4164.2,5200.0,-1194.9,2025-01-29 11:55:15,1.0
-5134.4,-4816.8,3208.0,4578.2,7288.0,-2142.9,2025-01-29 11:55:15,1.0
-6546.4,-6868.8,-192.0,4406.2,8254.0,-1846.9,2025-01-29 11:55:15,1.0
-7130.4,-7488.8,-1196.0,4261.2,8920.0,18.099999999999994,2025-01-29 11:55:15,1.0
-4794.4,-5504.8,-912.0,4205.2,6800.0,2118.1,2025-01-29 11:55:16,1.0
-1758.3999999999996,-2576.8,-3980.0,4254.2,3463.0,2307.1,2025-01-29 11:55:16,1.0
-534.3999999999996,267.20000000000005,-5420.0,3477.2,1883.0,2289.1,2025-01-29 11:55:16,1.0
-266.39999999999964,2795.2,-2744.0,3242.2,-456.0,2657.1,2025-01-29 11:55:16,1.0
445.6000000000004,3795.2,-1676.0,3527.2,-3055.0,3531.1,2025-01-29 11:55:16,1.0
1525.6000000000004,3943.2,-2864.0,2989.2,-4987.0,3337.1,2025-01-29 11:55:16,1.0
1093.6000000000004,3471.2,-3116.0,1753.2,-4146.0,2486.1,2025-01-29 11:55:16,1.0
1109.6000000000004,1815.2,-2028.0,922.2,-2194.0,1954.1,2025-01-29 11:55:16,1.0
1533.6000000000004,-56.79999999999996,-692.0,1064.2,-958.0,1781.1,2025-01-29 11:55:16,1.0
641.6000000000004,-808.8,336.0,1283.2,31.0,2486.1,2025-01-29 11:55:16,1.0
1561.6000000000004,-140.79999999999995,1532.0,2217.2,828.0,3845.1,2025-01-29 11:55:16,1.0
1981.6000000000004,-524.8,1376.0,2501.2,1237.0,3560.1,2025-01-29 11:55:16,1.0
1701.6000000000004,-808.8,2408.0,2549.2,2715.0,3407.1,2025-01-29 11:55:16,1.0
1185.6000000000004,-736.8,4088.0,3581.2,3140.0,3435.1,2025-01-29 11:55:16,1.0
333.6000000000004,-716.8,3784.0,4569.2,3170.0,3592.1,2025-01-29 11:55:16,1.0
-562.3999999999996,-396.8,3672.0,5269.2,3339.0,4012.1,2025-01-29 11:55:16,1.0
-670.3999999999996,39.200000000000045,2584.0,5962.2,2655.0,4499.1,2025-01-29 11:55:16,1.0
-730.3999999999996,-112.79999999999995,2180.0,6219.2,2506.0,4701.1,2025-01-29 11:55:16,1.0
-430.3999999999997,-508.8,2644.0,6829.2,2974.0,4840.1,2025-01-29 11:55:16,1.0
-86.39999999999964,-452.8,2548.0,7597.2,2704.0,4874.1,2025-01-29 11:55:16,1.0
-358.39999999999964,11.200000000000044,2996.0,8250.2,2094.0,4913.1,2025-01-29 11:55:16,1.0
-442.3999999999997,915.2,2900.0,9142.2,1218.0,5107.1,2025-01-29 11:55:16,1.0
-466.3999999999997,1387.2,2040.0,9652.2,699.0,5277.1,2025-01-29 11:55:16,1.0
-318.39999999999964,1479.2,1532.0,9608.2,763.0,5351.1,2025-01-29 11:55:16,1.0
445.6000000000004,1063.2,1600.0,9616.2,1059.0,5256.1,2025-01-29 11:55:16,1.0
1393.6000000000004,531.2,1520.0,9899.2,1373.0,4985.1,2025-01-29 11:55:16,1.0
1661.6000000000004,631.2,808.0,10069.2,1752.0,4618.1,2025-01-29 11:55:16,1.0
1565.6000000000004,1399.2,692.0,10181.2,2619.0,4235.1,2025-01-29 11:55:16,1.0
777.6000000000004,2183.2,452.0,10296.2,3616.0,3702.1,2025-01-29 11:55:16,1.0
69.60000000000036,3139.2,-92.0,9957.2,4191.0,3587.1,2025-01-29 11:55:16,1.0
-1614.3999999999996,3907.2,280.0,8349.2,3668.0,3868.1,2025-01-29 11:55:16,1.0
-1286.3999999999996,4283.2,212.0,6964.2,3495.0,3823.1,2025-01-29 11:55:16,1.0
-1118.3999999999996,3283.2,1356.0,6275.2,2819.0,3465.1,2025-01-29 11:55:16,1.0
-1598.3999999999996,1951.2,2600.0,5788.2,1206.0,3489.1,2025-01-29 11:55:16,1.0
-1210.3999999999996,867.2,2860.0,6120.2,41.0,3776.1,2025-01-29 11:55:16,1.0
69.60000000000036,395.2000000000001,2632.0,6692.2,-579.0,3852.1,2025-01-29 11:55:16,1.0
629.6000000000004,367.2000000000001,2672.0,7159.2,-733.0,3463.1,2025-01-29 11:55:16,1.0
621.6000000000004,863.2,2872.0,7416.2,-780.0,2322.1,2025-01-29 11:55:16,1.0
-210.39999999999964,1123.2,2300.0,7252.2,-1523.0,-8.900000000000006,2025-01-29 11:55:16,1.0
-1862.4,607.2,1948.0,7436.2,-790.0,-551.9,2025-01-29 11:55:16,1.0
-3158.4,299.20000000000005,-276.0,7865.2,-659.0,-686.9,2025-01-29 11:55:16,1.0
-4006.4,43.200000000000045,-3884.0,7495.2,179.0,-664.9,2025-01-29 11:55:16,1.0
-4294.4,407.2000000000001,-5368.0,6338.2,507.0,299.1,2025-01-29 11:55:16,1.0
-2338.4,1507.2,-3720.0,5362.2,-1024.0,1190.1,2025-01-29 11:55:16,1.0
945.6000000000004,1427.2,-368.0,5377.2,-4092.0,815.1,2025-01-29 11:55:16,1.0
2909.6000000000004,211.20000000000005,1752.0,5371.2,-6157.0,-327.9,2025-01-29 11:55:16,1.0
3769.6,-1076.8,2756.0,5779.2,-6025.0,-1883.9,2025-01-29 11:55:16,1.0
3269.6000000000004,-2056.8,3488.0,6884.2,-4299.0,-2440.9,2025-01-29 11:55:16,1.0
2005.6000000000004,-1780.8,988.0,7602.2,-2287.0,-2550.9,2025-01-29 11:55:16,1.0
321.6000000000004,-396.8,-1212.0,6878.2,583.0,-2324.9,2025-01-29 11:55:16,1.0
-2326.4,687.2,-1668.0,5766.2,4029.0,-1734.9,2025-01-29 11:55:16,1.0
-3114.4,463.2000000000001,-828.0,4953.2,5817.0,-703.9,2025-01-29 11:55:16,1.0
-2630.4,-252.79999999999995,1104.0,4102.2,3857.0,-705.9,2025-01-29 11:55:16,1.0
-1714.3999999999996,-768.8,2764.0,4069.2,847.0,-880.9,2025-01-29 11:55:16,1.0
-754.3999999999996,-1684.8,2880.0,4554.2,-1257.0,-1121.9,2025-01-29 11:55:16,1.0
689.6000000000004,-2076.8,1592.0,4527.2,-2132.0,-1266.9,2025-01-29 11:55:16,1.0
1945.6000000000004,-1776.8,1812.0,4252.2,-1940.0,-1131.9,2025-01-29 11:55:16,1.0
2841.6000000000004,-1320.8,1832.0,3770.2,-1397.0,-1117.9,2025-01-29 11:55:16,1.0
3097.6000000000004,-1128.8,1508.0,3189.2,536.0,-1023.9,2025-01-29 11:55:16,1.0
2353.6000000000004,-1152.8,1836.0,2315.2,2792.0,-1022.9,2025-01-29 11:55:16,1.0
781.6000000000004,-1236.8,2392.0,1742.2,4268.0,-640.9,2025-01-29 11:55:16,1.0
-602.3999999999996,-1248.8,2580.0,1483.2,4260.0,225.1,2025-01-29 11:55:17,1.0
-894.3999999999996,-1084.8,1692.0,1050.2,4111.0,1190.1,2025-01-29 11:55:17,1.0
-838.3999999999996,-976.8,1564.0,391.2,4681.0,1651.1,2025-01-29 11:55:17,1.0
-934.3999999999996,-712.8,1708.0,-134.8,4967.0,1836.1,2025-01-29 11:55:17,1.0
-1330.3999999999996,-168.79999999999995,2036.0,-612.8,4855.0,1969.1,2025-01-29 11:55:17,1.0
-1490.3999999999996,-196.79999999999995,2360.0,-950.8,3952.0,1987.1,2025-01-29 11:55:17,1.0
-1414.3999999999996,-1064.8,1484.0,-1041.8,2765.0,1592.1,2025-01-29 11:55:17,1.0
-1242.3999999999996,-1688.8,1392.0,-1046.8,1567.0,863.1,2025-01-29 11:55:17,1.0
-1578.3999999999996,-2128.8,1980.0,-1018.8,356.0,433.1,2025-01-29 11:55:17,1.0
-1354.3999999999996,-1712.8,2624.0,-920.8,-1010.0,380.1,2025-01-29 11:55:17,1.0
-1854.4,-112.79999999999995,1068.0,-2322.8,-2939.0,1359.1,2025-01-29 11:55:17,1.0
-2418.4,-1176.8,-1188.0,-2893.8,-1742.0,1456.1,2025-01-29 11:55:17,1.0
-1878.4,-3032.8,-3128.0,-3228.8,189.0,1788.1,2025-01-29 11:55:17,1.0
-382.3999999999997,-3364.8,-3884.0,-2955.8,1134.0,1061.1,2025-01-29 11:55:17,1.0
697.6000000000004,-2664.8,-4620.0,-2419.8,1282.0,-33.900000000000006,2025-01-29 11:55:17,1.0
-206.39999999999964,-2008.8,-3016.0,-1734.8,514.0,-1025.9,2025-01-29 11:55:17,1.0
-758.3999999999996,107.20000000000005,-1900.0,-1601.8,-645.0,-1051.9,2025-01-29 11:55:17,1.0
-614.3999999999996,2103.2,-84.0,-1971.8,-2093.0,-946.9,2025-01-29 11:55:17,1.0
-1518.3999999999996,4139.2,1168.0,-2247.8,-3381.0,-158.9,2025-01-29 11:55:17,1.0
277.6000000000004,3479.2,-220.0,-2813.8,-3252.0,512.1,2025-01-29 11:55:17,1.0
-1430.3999999999996,571.2,-1560.0,-3460.8,-956.0,525.1,2025-01-29 11:55:17,1.0
-1178.3999999999996,-1040.8,-64.0,-3336.8,1432.0,1557.1,2025-01-29 11:55:17,1.0
-490.3999999999997,-996.8,368.0,-2520.8,1728.0,1879.1,2025-01-29 11:55:17,1.0
169.60000000000036,35.200000000000045,888.0,-2372.8,1659.0,1987.1,2025-01-29 11:55:17,1.0
385.6000000000004,1159.2,1092.0,-2081.8,1153.0,1696.1,2025-01-29 11:55:17,1.0
221.6000000000004,1835.2,600.0,-2124.8,603.0,1471.1,2025-01-29 11:55:17,1.0
301.6000000000004,1671.2,936.0,-2149.8,-348.0,1052.1,2025-01-29 11:55:17,1.0
1053.6000000000004,1035.2,1248.0,-1852.8,-1091.0,977.1,2025-01-29 11:55:17,1.0
909.6000000000004,623.2,2432.0,-1087.8,-1678.0,880.1,2025-01-29 11:55:17,1.0
1717.6000000000004,695.2,2700.0,125.2,-2171.0,542.1,2025-01-29 11:55:17,1.0
1605.6000000000004,1003.2,1884.0,438.2,-1889.0,436.1,2025-01-29 11:55:17,1.0
1709.6000000000004,1431.2,2256.0,632.2,-790.0,386.1,2025-01-29 11:55:17,1.0
1305.6000000000004,1515.2,2372.0,1111.2,221.0,127.1,2025-01-29 11:55:17,1.0
697.6000000000004,1607.2,2304.0,1159.2,564.0,-6.900000000000006,2025-01-29 11:55:17,1.0
373.6000000000004,1491.2,2328.0,1220.2,395.0,-281.9,2025-01-29 11:55:17,1.0
-142.39999999999964,1687.2,1960.0,1407.2,-330.0,-504.9,2025-01-29 11:55:17,1.0
-566.3999999999996,1839.2,1748.0,1289.2,-338.0,-525.9,2025-01-29 11:55:17,1.0
-790.3999999999996,2043.2,1648.0,874.2,94.0,-495.9,2025-01-29 11:55:17,1.0
-1298.3999999999996,2015.2,2404.0,668.2,20.0,-436.9,2025-01-29 11:55:17,1.0
-1502.3999999999996,1795.2,3168.0,664.2,-1193.0,-417.9,2025-01-29 11:55:17,1.0
-1486.3999999999996,1403.2,2944.0,587.2,-2819.0,-352.9,2025-01-29 11:55:17,1.0
-1078.3999999999996,1515.2,3212.0,666.2,-3679.0,-329.9,2025-01-29 11:55:17,1.0
-842.3999999999996,1995.2,3440.0,925.2,-4104.0,-635.9,2025-01-29 11:55:17,1.0
-366.3999999999997,2571.2,2456.0,1112.2,-4084.0,-970.9,2025-01-29 11:55:17,1.0
-42.39999999999964,2335.2,724.0,1033.2,-3297.0,-1070.9,2025-01-29 11:55:17,1.0
217.6000000000004,1315.2,584.0,928.2,-2542.0,-1470.9,2025-01-29 11:55:17,1.0
-382.3999999999997,-48.79999999999996,784.0,1162.2,-2561.0,-2248.9,2025-01-29 11:55:17,1.0
-1270.3999999999996,-512.8,-2068.0,1328.2,-1363.0,-2951.9,2025-01-29 11:55:17,1.0
-1914.4,-544.8,-6392.0,1779.2,1053.0,-3314.9,2025-01-29 11:55:17,1.0
-4090.4,-332.79999999999995,-7820.0,1594.2,2730.0,-2384.9,2025-01-29 11:55:17,1.0
-2602.4,-76.79999999999995,-2688.0,1911.2,1953.0,-1215.9,2025-01-29 11:55:17,1.0
-414.3999999999997,-920.8,188.0,2795.2,-219.0,-1834.9,2025-01-29 11:55:17,1.0
653.6000000000004,-1564.8,1088.0,3619.2,-1573.0,-3419.9,2025-01-29 11:55:17,1.0
409.6000000000004,-1848.8,92.0,3926.2,-1738.0,-5102.9,2025-01-29 11:55:17,1.0
-214.39999999999964,-1916.8,-1352.0,3692.2,-1059.0,-6361.9,2025-01-29 11:55:17,1.0
-1674.3999999999996,-1092.8,-1620.0,3846.2,666.0,-6825.9,2025-01-29 11:55:17,1.0
-1834.4,-1048.8,-1520.0,3947.2,2132.0,-6755.9,2025-01-29 11:55:17,1.0
-1126.3999999999996,-1516.8,-228.0,3491.2,1771.0,-6338.9,2025-01-29 11:55:17,1.0
77.60000000000036,-1368.8,2084.0,3075.2,694.0,-6162.9,2025-01-29 11:55:17,1.0
1177.6000000000004,-1360.8,1884.0,3506.2,-2048.0,-7162.9,2025-01-29 11:55:18,1.0
-426.3999999999997,-1760.8,724.0,4007.2,-5315.0,-8402.9,2025-01-29 11:55:18,1.0
-478.3999999999997,-2032.8,2108.0,2566.2,-4051.0,-8805.9,2025-01-29 11:55:18,1.0
317.6000000000004,-3440.8,3164.0,2939.2,-4521.0,-10485.9,2025-01-29 11:55:18,1.0
-1710.3999999999996,-5040.8,2092.0,2799.2,-4031.0,-11669.9,2025-01-29 11:55:18,1.0
-3346.4,-5668.8,2568.0,2922.2,-2810.0,-10535.9,2025-01-29 11:55:18,1.0
-3138.4,-5568.8,3348.0,3222.2,-3534.0,-9231.9,2025-01-29 11:55:18,1.0
-2706.4,-4708.8,3760.0,4045.2,-4967.0,-8562.9,2025-01-29 11:55:18,1.0
-1994.4,-3996.8,3160.0,4371.2,-6870.0,-7966.9,2025-01-29 11:55:18,1.0
-1942.4,-3488.8,3116.0,4498.2,-8007.0,-8339.9,2025-01-29 11:55:18,1.0
-1886.4,-4628.8,3136.0,4189.2,-8273.0,-7706.9,2025-01-29 11:55:18,1.0
1069.6000000000004,-6536.8,4084.0,2991.2,-10694.0,-5949.9,2025-01-29 11:55:18,1.0
2717.6000000000004,-6284.8,6032.0,2880.2,-13555.0,-3740.9,2025-01-29 11:55:18,1.0
4837.6,-5508.8,5336.0,2701.2,-15737.0,-2771.9,2025-01-29 11:55:18,1.0
5249.6,-4924.8,5172.0,1289.2,-17873.0,-1923.9,2025-01-29 11:55:18,1.0
5765.6,-4808.8,5812.0,-799.8,-20868.0,-959.9,2025-01-29 11:55:18,1.0
2837.6000000000004,-5068.8,7584.0,-1061.8,-20179.0,1.0999999999999943,2025-01-29 11:55:18,1.0
753.6000000000004,-5672.8,6480.0,1571.2,-4078.0,1200.1,2025-01-29 11:55:18,1.0
6497.6,-7876.8,4948.0,2089.2,16635.0,1149.1,2025-01-29 11:55:18,1.0
4237.6,-5092.8,10804.0,-699.8,13906.0,-3220.9,2025-01-29 11:55:18,1.0
-5514.4,-6576.8,13084.0,1720.2,3887.0,-562.9,2025-01-29 11:55:18,1.0
-3550.4,-6468.8,9696.0,2645.2,5208.0,1714.1,2025-01-29 11:55:18,1.0
-2646.4,-5084.8,5296.0,2487.2,-555.0,775.1,2025-01-29 11:55:18,1.0
-2994.4,-5600.8,6092.0,762.2,-3753.0,2755.1,2025-01-29 11:55:18,1.0
1437.6000000000004,-5540.8,8188.0,835.2,-3904.0,2433.1,2025-01-29 11:55:18,1.0
3501.6000000000004,-5092.8,8096.0,-134.8,-2753.0,1814.1,2025-01-29 11:55:18,1.0
3973.6,-4844.8,8840.0,-387.8,-2325.0,563.1,2025-01-29 11:55:18,1.0
765.6000000000004,-5424.8,8256.0,127.2,-1232.0,327.1,2025-01-29 11:55:18,1.0
161.60000000000036,-6152.8,7468.0,-99.8,-402.0,737.1,2025-01-29 11:55:18,1.0
289.6000000000004,-6368.8,7320.0,-251.8,512.0,453.1,2025-01-29 11:55:18,1.0
-210.39999999999964,-6080.8,7676.0,-652.8,787.0,307.1,2025-01-29 11:55:18,1.0
-766.3999999999996,-6252.8,7992.0,-570.8,148.0,911.1,2025-01-29 11:55:18,1.0
405.6000000000004,-5740.8,7700.0,-294.8,672.0,962.1,2025-01-29 11:55:18,1.0
349.6000000000004,-5648.8,7364.0,-847.8,1288.0,492.1,2025-01-29 11:55:18,1.0
-462.3999999999997,-5380.8,7272.0,-1245.8,1039.0,411.1,2025-01-29 11:55:18,1.0
-246.39999999999964,-5420.8,6940.0,-1230.8,967.0,763.1,2025-01-29 11:55:18,1.0
893.6000000000004,-6004.8,6336.0,-1413.8,1092.0,723.1,2025-01-29 11:55:18,1.0
1213.6000000000004,-6012.8,6136.0,-1651.8,1403.0,317.1,2025-01-29 11:55:18,1.0
1117.6000000000004,-5744.8,6824.0,-1709.8,1193.0,124.1,2025-01-29 11:55:18,1.0
781.6000000000004,-5552.8,7608.0,-1433.8,1013.0,56.1,2025-01-29 11:55:18,1.0
733.6000000000004,-5292.8,8012.0,-1301.8,987.0,42.1,2025-01-29 11:55:18,1.0
1453.6000000000004,-5660.8,7992.0,-1226.8,1145.0,462.1,2025-01-29 11:55:18,1.0
1813.6000000000004,-6556.8,7880.0,-848.8,2342.0,184.1,2025-01-29 11:55:18,1.0
989.6000000000004,-6620.8,7728.0,-448.8,2889.0,-8.900000000000006,2025-01-29 11:55:18,1.0
17.600000000000364,-6064.8,6940.0,-365.8,2328.0,351.1,2025-01-29 11:55:18,1.0
-250.39999999999964,-5468.8,7116.0,-462.8,1953.0,987.1,2025-01-29 11:55:18,1.0
97.60000000000036,-5288.8,6732.0,-802.8,1605.0,1591.1,2025-01-29 11:55:18,1.0
901.6000000000004,-6004.8,6796.0,-1349.8,1589.0,1651.1,2025-01-29 11:55:18,1.0
113.60000000000036,-6596.8,6432.0,-1080.8,2683.0,992.1,2025-01-29 11:55:18,1.0
-3306.4,-7688.8,6244.0,-513.8,3827.0,138.1,2025-01-29 11:55:18,1.0
-6258.4,-8088.8,6908.0,-393.8,3582.0,700.1,2025-01-29 11:55:18,1.0
-6786.4,-7340.8,7572.0,-344.8,1262.0,1522.1,2025-01-29 11:55:18,1.0
-5166.4,-6340.8,7664.0,-479.8,-1074.0,2309.1,2025-01-29 11:55:18,1.0
-2682.4,-6324.8,7060.0,-866.8,-708.0,2445.1,2025-01-29 11:55:18,1.0
-1250.3999999999996,-7164.8,5572.0,-1547.8,664.0,2221.1,2025-01-29 11:55:18,1.0
-218.39999999999964,-8372.8,5084.0,-1996.8,2089.0,1218.1,2025-01-29 11:55:18,1.0
-1954.4,-8488.8,4416.0,-2123.8,4584.0,-101.9,2025-01-29 11:55:18,1.0
-5298.4,-8668.8,3256.0,-2314.8,7338.0,-809.9,2025-01-29 11:55:18,1.0
-8962.4,-9324.8,2336.0,-2334.8,8143.0,-1204.9,2025-01-29 11:55:19,1.0
-10514.4,-7876.8,236.0,-2426.8,8581.0,379.1,2025-01-29 11:55:19,1.0
-7758.4,-7696.8,-2228.0,-3294.8,8074.0,-135.9,2025-01-29 11:55:19,1.0
-6894.4,-6992.8,-4064.0,-4160.8,7189.0,-1178.9,2025-01-29 11:55:19,1.0
-6822.4,-6816.8,-2608.0,-5940.8,6315.0,-1723.9,2025-01-29 11:55:19,1.0
-8750.4,-5820.8,3064.0,-7807.8,7727.0,917.1,2025-01-29 11:55:19,1.0
-4114.4,-6016.8,5988.0,-6651.8,7042.0,3523.1,2025-01-29 11:55:19,1.0
-842.3999999999996,-6024.8,5868.0,-4703.8,4392.0,4367.1,2025-01-29 11:55:19,1.0
-206.39999999999964,-6220.8,5400.0,-3461.8,3318.0,4490.1,2025-01-29 11:55:19,1.0
-570.3999999999996,-5136.8,4332.0,-2932.8,2807.0,5448.1,2025-01-29 11:55:19,1.0
-802.3999999999996,-3648.8,4512.0,-3066.8,2665.0,6308.1,2025-01-29 11:55:19,1.0
-438.3999999999997,-2936.8,4840.0,-2786.8,1898.0,6147.1,2025-01-29 11:55:19,1.0
-6.399999999999636,-2716.8,5000.0,-1122.8,857.0,5279.1,2025-01-29 11:55:19,1.0
-154.39999999999964,-2308.8,3532.0,1106.2,1219.0,5096.1,2025-01-29 11:55:19,1.0
785.6000000000004,-2516.8,2404.0,1478.2,1482.0,6118.1,2025-01-29 11:55:19,1.0
2173.6000000000004,-2836.8,1744.0,1082.2,1321.0,6845.1,2025-01-29 11:55:19,1.0
3481.6000000000004,-2380.8,1136.0,981.2,1673.0,6525.1,2025-01-29 11:55:19,1.0
3061.6000000000004,-2172.8,528.0,739.2,2910.0,5657.1,2025-01-29 11:55:19,1.0
2253.6000000000004,-1988.8,292.0,239.2,3792.0,5301.1,2025-01-29 11:55:19,1.0
1829.6000000000004,-1304.8,236.0,-32.80000000000001,4488.0,5350.1,2025-01-29 11:55:19,1.0
1697.6000000000004,-900.8,384.0,-25.80000000000001,4941.0,5123.1,2025-01-29 11:55:19,1.0
1849.6000000000004,-808.8,564.0,67.19999999999999,4674.0,4503.1,2025-01-29 11:55:19,1.0
1401.6000000000004,-1636.8,1204.0,646.2,5030.0,3401.1,2025-01-29 11:55:19,1.0
1685.6000000000004,-2628.8,868.0,1037.2,4265.0,2581.1,2025-01-29 11:55:19,1.0
1277.6000000000004,-2196.8,620.0,1242.2,2234.0,2356.1,2025-01-29 11:55:19,1.0
677.6000000000004,-620.8,700.0,1372.2,-325.0,2859.1,2025-01-29 11:55:19,1.0
1397.6000000000004,-12.799999999999956,836.0,1494.2,-2286.0,3360.1,2025-01-29 11:55:19,1.0
1893.6000000000004,147.20000000000005,732.0,1337.2,-2391.0,3365.1,2025-01-29 11:55:19,1.0
2121.6000000000004,515.2,1252.0,1061.2,-811.0,3105.1,2025-01-29 11:55:19,1.0
2093.6000000000004,1083.2,2044.0,460.2,1992.0,3299.1,2025-01-29 11:55:19,1.0
2029.6000000000004,719.2,2608.0,24.19999999999999,4844.0,3486.1,2025-01-29 11:55:19,1.0
469.6000000000004,55.200000000000045,992.0,404.2,6049.0,3747.1,2025-01-29 11:55:19,1.0
173.60000000000036,-552.8,-1088.0,479.2,2849.0,4441.1,2025-01-29 11:55:19,1.0
417.6000000000004,-504.8,-772.0,185.2,-581.0,5831.1,2025-01-29 11:55:19,1.0
2213.6000000000004,-672.8,948.0,202.2,-2100.0,6921.1,2025-01-29 11:55:19,1.0
4665.6,-568.8,2220.0,523.2,-2846.0,7203.1,2025-01-29 11:55:19,1.0
5553.6,-364.8,3748.0,1015.2,-2869.0,6581.1,2025-01-29 11:55:19,1.0
5677.6,631.2,3632.0,1425.2,-2547.0,5937.1,2025-01-29 11:55:19,1.0
5001.6,1879.2,2596.0,1020.2,-2886.0,5682.1,2025-01-29 11:55:19,1.0
5605.6,2319.2,2796.0,861.2,-2936.0,5720.1,2025-01-29 11:55:19,1.0
6285.6,2107.2,2940.0,871.2,-2520.0,4424.1,2025-01-29 11:55:19,1.0
5965.6,1963.2,2772.0,995.2,-1386.0,2901.1,2025-01-29 11:55:19,1.0
6065.6,1727.2,2776.0,1189.2,-340.0,1656.1,2025-01-29 11:55:19,1.0
5981.6,1291.2,3288.0,1444.2,243.0,611.1,2025-01-29 11:55:19,1.0
5857.6,1179.2,3236.0,2023.2,979.0,-620.9,2025-01-29 11:55:19,1.0
5481.6,1335.2,4344.0,2387.2,2172.0,-1633.9,2025-01-29 11:55:19,1.0
4045.6,967.2,3628.0,3046.2,3561.0,-1986.9,2025-01-29 11:55:19,1.0
3021.6000000000004,1555.2,1764.0,3663.2,4557.0,-1896.9,2025-01-29 11:55:19,1.0
1465.6000000000004,1427.2,-560.0,2941.2,4147.0,-1564.9,2025-01-29 11:55:19,1.0
705.6000000000004,871.2,-816.0,1327.2,2846.0,-643.9,2025-01-29 11:55:19,1.0
1393.6000000000004,1091.2,1436.0,865.2,577.0,389.1,2025-01-29 11:55:19,1.0
3417.6000000000004,375.2000000000001,2220.0,1490.2,-1445.0,849.1,2025-01-29 11:55:19,1.0
3981.6,831.2,2044.0,1536.2,-997.0,243.1,2025-01-29 11:55:19,1.0
3325.6000000000004,-2724.8,4392.0,-1468.8,1083.0,-7891.9,2025-01-29 11:55:20,1.0
2205.6000000000004,-3840.8,688.0,-916.8,-1319.0,-9123.9,2025-01-29 11:55:20,1.0
-1934.4,-5064.8,3924.0,164.2,-3042.0,-6091.9,2025-01-29 11:55:20,1.0
-118.39999999999964,-4948.8,6776.0,3324.2,-4009.0,-2940.9,2025-01-29 11:55:20,1.0
1441.6000000000004,-3872.8,6704.0,5398.2,-4382.0,-1385.9,2025-01-29 11:55:20,1.0
2925.6000000000004,-1736.8,5136.0,6323.2,-2223.0,-575.9,2025-01-29 11:55:20,1.0
4621.6,-620.8,4152.0,6417.2,-561.0,-1376.9,2025-01-29 11:55:20,1.0
3841.6,-1924.8,5128.0,6964.2,437.0,-2209.9,2025-01-29 11:55:20,1.0
3105.6000000000004,-2460.8,7204.0,8408.2,367.0,-2383.9,2025-01-29 11:55:20,1.0
2053.6000000000004,-1840.8,7404.0,10326.2,-245.0,-1687.9,2025-01-29 11:55:20,1.0
3949.6,-1224.8,5596.0,11037.2,-1136.0,-1017.9,2025-01-29 11:55:20,1.0
6957.6,727.2,4672.0,9964.2,-518.0,-1990.9,2025-01-29 11:55:20,1.0
7533.6,2447.2,5468.0,9859.2,3765.0,-3827.9,2025-01-29 11:55:20,1.0
8029.6,-164.79999999999995,1848.0,10171.2,3133.0,-5882.9,2025-01-29 11:55:20,1.0
8137.6,-5572.8,-3504.0,8955.2,2346.0,-7845.9,2025-01-29 11:55:20,1.0
4189.6,-6500.8,-12188.0,6125.2,3148.0,-10527.9,2025-01-29 11:55:20,1.0
-1686.3999999999996,-3548.8,-14224.0,2526.2,11755.0,-11358.9,2025-01-29 11:55:20,1.0
-7874.4,-4008.8,-15388.0,-1301.8,15898.0,-10036.9,2025-01-29 11:55:20,1.0
-15414.4,-7208.8,-10228.0,-3791.8,21529.0,-7921.9,2025-01-29 11:55:20,1.0
-19782.4,-12128.8,-3224.0,-2765.8,15637.0,-5536.9,2025-01-29 11:55:20,1.0
-20610.4,-16672.8,-6768.0,-774.8,2501.0,326.1,2025-01-29 11:55:20,1.0
-19710.4,-13720.8,-7728.0,-1015.8,-4210.0,5680.1,2025-01-29 11:55:20,1.0
-10370.4,-10756.8,-5360.0,-888.8,-6461.0,7078.1,2025-01-29 11:55:20,1.0
-2742.4,-9356.8,-1804.0,411.2,-8077.0,5936.1,2025-01-29 11:55:20,1.0
1697.6000000000004,-8184.8,-1656.0,1549.2,-7499.0,3482.1,2025-01-29 11:55:20,1.0
3969.6,-5964.8,-4384.0,1810.2,-4803.0,665.1,2025-01-29 11:55:20,1.0
1201.6000000000004,-3188.8,-6672.0,819.2,215.0,-417.9,2025-01-29 11:55:20,1.0
-730.3999999999996,-2828.8,-4936.0,-1000.8,4956.0,-333.9,2025-01-29 11:55:20,1.0
-2618.4,-4540.8,-3368.0,-2864.8,6359.0,-72.9,2025-01-29 11:55:20,1.0
-3338.4,-5720.8,-2180.0,-3890.8,5310.0,705.1,2025-01-29 11:55:20,1.0
-2418.4,-6144.8,-464.0,-3725.8,3177.0,655.1,2025-01-29 11:55:20,1.0
-1726.3999999999996,-5368.8,-168.0,-2794.8,610.0,-467.9,2025-01-29 11:55:20,1.0
-1746.3999999999996,-4260.8,-2732.0,-2628.8,-766.0,-802.9,2025-01-29 11:55:20,1.0
-906.3999999999996,-4316.8,-2848.0,-3185.8,416.0,-595.9,2025-01-29 11:55:20,1.0
73.60000000000036,-4296.8,-2788.0,-3459.8,1768.0,-641.9,2025-01-29 11:55:20,1.0
1313.6000000000004,-6748.8,-952.0,-4013.8,1794.0,-1419.9,2025-01-29 11:55:20,1.0
849.6000000000004,-8244.8,1408.0,-3441.8,2215.0,-2337.9,2025-01-29 11:55:20,1.0
-166.39999999999964,-7536.8,1808.0,-1506.8,2486.0,-1708.9,2025-01-29 11:55:20,1.0
653.6000000000004,-6848.8,384.0,150.2,3609.0,-1622.9,2025-01-29 11:55:20,1.0
1077.6000000000004,-5340.8,-1940.0,106.2,2941.0,-2117.9,2025-01-29 11:55:20,1.0
833.6000000000004,-4672.8,-2732.0,-897.8,2601.0,-1982.9,2025-01-29 11:55:20,1.0
825.6000000000004,-4408.8,-2420.0,-1545.8,2654.0,-1503.9,2025-01-29 11:55:20,1.0
249.6000000000004,-4272.8,-1764.0,-2534.8,2392.0,-37.900000000000006,2025-01-29 11:55:20,1.0
1377.6000000000004,-4628.8,-1044.0,-3429.8,2951.0,1042.1,2025-01-29 11:55:20,1.0
2105.6000000000004,-4960.8,-304.0,-2605.8,1656.0,36.1,2025-01-29 11:55:20,1.0
717.6000000000004,-5080.8,-1948.0,-2313.8,253.0,-875.9,2025-01-29 11:55:20,1.0
117.60000000000036,-5796.8,-2372.0,-2589.8,-1060.0,-662.9,2025-01-29 11:55:20,1.0
1517.6000000000004,-6280.8,-1252.0,-2371.8,-2752.0,-296.9,2025-01-29 11:55:20,1.0
3365.6000000000004,-6232.8,-296.0,-1906.8,-4465.0,-247.9,2025-01-29 11:55:20,1.0
4137.6,-5300.8,612.0,-1668.8,-4940.0,-810.9,2025-01-29 11:55:20,1.0
4985.6,-4280.8,824.0,-1545.8,-4030.0,-1019.9,2025-01-29 11:55:20,1.0
4817.6,-3632.8,1900.0,-1035.8,-2407.0,-1291.9,2025-01-29 11:55:20,1.0
4229.6,-3812.8,1580.0,-664.8,-2121.0,-1447.9,2025-01-29 11:55:20,1.0
3837.6,-4440.8,1264.0,-455.8,-1932.0,-1160.9,2025-01-29 11:55:20,1.0
4257.6,-5104.8,1488.0,-220.8,-1835.0,-710.9,2025-01-29 11:55:20,1.0
4165.6,-5612.8,1784.0,347.2,-1674.0,-112.9,2025-01-29 11:55:20,1.0
4929.6,-5232.8,788.0,741.2,-1817.0,332.1,2025-01-29 11:55:20,1.0
4777.6,-4688.8,196.0,296.2,-1810.0,309.1,2025-01-29 11:55:20,1.0
3625.6,-3764.8,564.0,-223.8,-762.0,311.1,2025-01-29 11:55:20,1.0
2037.6000000000004,-2880.8,1132.0,-452.8,-1017.0,970.1,2025-01-29 11:55:20,1.0
1273.6000000000004,-2976.8,1572.0,-533.8,-1911.0,2055.1,2025-01-29 11:55:21,1.0
1189.6000000000004,-3128.8,1560.0,-201.8,-2991.0,2614.1,2025-01-29 11:55:21,1.0
1225.6000000000004,-3364.8,248.0,-209.8,-3265.0,3162.1,2025-01-29 11:55:21,1.0
1973.6000000000004,-2820.8,328.0,-922.8,-2331.0,3661.1,2025-01-29 11:55:21,1.0
1841.6000000000004,-2524.8,180.0,-1508.8,-2769.0,3780.1,2025-01-29 11:55:21,1.0
1585.6000000000004,-2436.8,1584.0,-1954.8,-4014.0,3919.1,2025-01-29 11:55:21,1.0
617.6000000000004,-2540.8,1472.0,-2165.8,-6159.0,3589.1,2025-01-29 11:55:21,1.0
-934.3999999999996,-3408.8,1020.0,-2552.8,-6919.0,4637.1,2025-01-29 11:55:21,1.0
-718.3999999999996,-3684.8,432.0,-2247.8,-5475.0,7269.1,2025-01-29 11:55:21,1.0
3113.6000000000004,-3676.8,1084.0,-2484.8,-4676.0,7520.1,2025-01-29 11:55:21,1.0
4581.6,-3556.8,2848.0,-3265.8,-5213.0,6139.1,2025-01-29 11:55:21,1.0
4997.6,-2960.8,3296.0,-3961.8,-6250.0,4685.1,2025-01-29 11:55:21,1.0
2841.6000000000004,-1796.8,3352.0,-4536.8,-7285.0,3490.1,2025-01-29 11:55:21,1.0
-850.3999999999996,-1208.8,3832.0,-5316.8,-8612.0,3523.1,2025-01-29 11:55:21,1.0
-4670.4,-1736.8,4220.0,-5348.8,-10262.0,4809.1,2025-01-29 11:55:21,1.0
-6814.4,-2628.8,3988.0,-3789.8,-10821.0,8226.1,2025-01-29 11:55:21,1.0
-1730.3999999999996,-2308.8,4124.0,-2632.8,-11653.0,9298.1,2025-01-29 11:55:21,1.0
3085.6000000000004,-2616.8,4528.0,-2354.8,-11749.0,7965.1,2025-01-29 11:55:21,1.0
7525.6,-728.8,6572.0,-937.8,-10913.0,4116.1,2025-01-29 11:55:21,1.0
6241.6,-504.8,6504.0,-1134.8,-8756.0,-871.9,2025-01-29 11:55:21,1.0
-630.3999999999996,-2212.8,3120.0,-2333.8,-2082.0,-4023.9,2025-01-29 11:55:21,1.0
-5382.4,-3760.8,2304.0,-3662.8,2137.0,-2996.9,2025-01-29 11:55:21,1.0
-5182.4,-1760.8,4892.0,-2395.8,355.0,-478.9,2025-01-29 11:55:21,1.0
-3502.4,-516.8,6208.0,-773.8,-1464.0,689.1,2025-01-29 11:55:21,1.0
-3358.4,-208.79999999999995,6792.0,-61.80000000000001,1041.0,224.1,2025-01-29 11:55:21,1.0
-7250.4,-584.8,6244.0,-6.800000000000011,5498.0,-159.9,2025-01-29 11:55:21,1.0
-9282.4,-1068.8,5092.0,131.2,6899.0,1311.1,2025-01-29 11:55:21,1.0
-9194.4,-2584.8,2460.0,60.19999999999999,7284.0,2842.1,2025-01-29 11:55:21,1.0
-7142.4,-3604.8,3320.0,603.2,6316.0,3079.1,2025-01-29 11:55:21,1.0
-4170.4,-3144.8,4052.0,1788.2,4544.0,2219.1,2025-01-29 11:55:21,1.0
-2790.4,-2964.8,3680.0,2708.2,2573.0,815.1,2025-01-29 11:55:21,1.0
-2218.4,-1536.8,1844.0,2755.2,-79.0,-724.9,2025-01-29 11:55:21,1.0
-3062.4,319.20000000000005,-216.0,1780.2,-2880.0,-741.9,2025-01-29 11:55:21,1.0
-1326.3999999999996,947.2,-1800.0,423.2,-5036.0,346.1,2025-01-29 11:55:21,1.0
913.6000000000004,1095.2,-2552.0,-767.8,-6168.0,1205.1,2025-01-29 11:55:21,1.0
2937.6000000000004,1891.2,-1692.0,-1212.8,-5384.0,1402.1,2025-01-29 11:55:21,1.0
3105.6000000000004,2111.2,-1040.0,-864.8,-2059.0,574.1,2025-01-29 11:55:21,1.0
1533.6000000000004,927.2,-228.0,-1299.8,3150.0,368.1,2025-01-29 11:55:21,1.0
305.6000000000004,11.200000000000044,1452.0,-1323.8,5991.0,887.1,2025-01-29 11:55:21,1.0
-994.3999999999996,-68.79999999999995,2396.0,-109.8,5700.0,971.1,2025-01-29 11:55:21,1.0
-1962.4,471.2000000000001,1940.0,128.2,4195.0,1292.1,2025-01-29 11:55:21,1.0
-2654.4,979.2,1488.0,-470.8,2083.0,1637.1,2025-01-29 11:55:21,1.0
-2566.4,1231.2,960.0,-1418.8,484.0,2004.1,2025-01-29 11:55:21,1.0
-2082.4,1371.2,1264.0,-2219.8,-1053.0,2352.1,2025-01-29 11:55:21,1.0
-1218.3999999999996,1219.2,1936.0,-2056.8,-2151.0,2808.1,2025-01-29 11:55:21,1.0
-178.39999999999964,1015.2,2904.0,-1941.8,-2951.0,2934.1,2025-01-29 11:55:21,1.0
1489.6000000000004,715.2,2652.0,-1078.8,-2615.0,2976.1,2025-01-29 11:55:21,1.0
2217.6000000000004,187.20000000000005,2740.0,-300.8,-1653.0,2818.1,2025-01-29 11:55:21,1.0
2057.6000000000004,-132.79999999999995,3324.0,473.2,281.0,2577.1,2025-01-29 11:55:21,1.0
1437.6000000000004,-508.8,3696.0,1561.2,1950.0,1538.1,2025-01-29 11:55:21,1.0
-102.39999999999964,-28.799999999999955,3748.0,2250.2,2895.0,1758.1,2025-01-29 11:55:21,1.0
-406.3999999999997,223.20000000000005,3360.0,2634.2,2882.0,1984.1,2025-01-29 11:55:21,1.0
-230.39999999999964,715.2,3344.0,2947.2,1944.0,1912.1,2025-01-29 11:55:21,1.0
-58.39999999999964,1071.2,3120.0,3380.2,755.0,1482.1,2025-01-29 11:55:21,1.0
369.6000000000004,1411.2,2468.0,3530.2,-211.0,977.1,2025-01-29 11:55:21,1.0
77.60000000000036,1647.2,3052.0,3585.2,-516.0,475.1,2025-01-29 11:55:21,1.0
97.60000000000036,1971.2,3572.0,3479.2,-739.0,188.1,2025-01-29 11:55:21,1.0
405.6000000000004,1759.2,3460.0,3242.2,-695.0,-110.9,2025-01-29 11:55:21,1.0
-142.39999999999964,1923.2,3924.0,2992.2,-470.0,-547.9,2025-01-29 11:55:21,1.0
-158.39999999999964,2007.2,3756.0,2760.2,-28.0,-927.9,2025-01-29 11:55:21,1.0
-274.39999999999964,2219.2,3532.0,2401.2,182.0,-1238.9,2025-01-29 11:55:22,1.0
-330.39999999999964,1999.2,3300.0,2248.2,1092.0,-1350.9,2025-01-29 11:55:22,1.0
-130.39999999999964,1319.2,3672.0,2291.2,2288.0,-1787.9,2025-01-29 11:55:22,1.0
-482.3999999999997,791.2,3132.0,2743.2,3278.0,-2139.9,2025-01-29 11:55:22,1.0
-802.3999999999996,903.2,2112.0,3009.2,2583.0,-2215.9,2025-01-29 11:55:22,1.0
-1198.3999999999996,791.2,2352.0,2693.2,1994.0,-1649.9,2025-01-29 11:55:22,1.0
-1058.3999999999996,943.2,2376.0,2517.2,2438.0,-1275.9,2025-01-29 11:55:22,1.0
-530.3999999999996,979.2,1632.0,2145.2,2837.0,-1141.9,2025-01-29 11:55:22,1.0
-1754.3999999999996,1087.2,1648.0,1985.2,2436.0,-1329.9,2025-01-29 11:55:22,1.0
-2818.4,1067.2,2648.0,2035.2,1949.0,-1006.9,2025-01-29 11:55:22,1.0
-3818.4,683.2,3720.0,2091.2,207.0,-463.9,2025-01-29 11:55:22,1.0
-3778.4,-244.79999999999995,3756.0,2795.2,-1318.0,353.1,2025-01-29 11:55:22,1.0
-3466.4,-852.8,3044.0,3394.2,-1712.0,1448.1,2025-01-29 11:55:22,1.0
-2914.4,-1416.8,1252.0,3679.2,-468.0,2199.1,2025-01-29 11:55:22,1.0
-2182.4,447.2000000000001,360.0,3788.2,1177.0,2583.1,2025-01-29 11:55:22,1.0
-3778.4,2715.2,-1036.0,2947.2,1793.0,1932.1,2025-01-29 11:55:22,1.0
-5158.4,3059.2,-1512.0,1702.2,1524.0,2046.1,2025-01-29 11:55:22,1.0
-4950.4,2535.2,-656.0,577.2,43.0,2477.1,2025-01-29 11:55:22,1.0
-4018.4,2179.2,408.0,-208.8,-2588.0,2313.1,2025-01-29 11:55:22,1.0
-1950.4,1363.2,560.0,-253.8,-4946.0,2041.1,2025-01-29 11:55:22,1.0
813.6000000000004,-436.8,560.0,177.2,-6008.0,1341.1,2025-01-29 11:55:22,1.0
3457.6000000000004,-1960.8,884.0,1175.2,-6014.0,443.1,2025-01-29 11:55:22,0.0
5277.6,-2532.8,924.0,2179.2,-4580.0,-522.9,2025-01-29 11:55:22,0.0
6053.6,-2076.8,1860.0,2992.2,-3431.0,-2431.9,2025-01-29 11:55:22,0.0
3289.6000000000004,-1624.8,1748.0,3095.2,-3034.0,-3565.9,2025-01-29 11:55:22,0.0
869.6000000000004,-1096.8,188.0,2908.2,53.0,-2186.9,2025-01-29 11:55:22,0.0
-1018.3999999999996,-428.8,-720.0,1809.2,3555.0,392.1,2025-01-29 11:55:22,0.0
-778.3999999999996,-68.79999999999995,-168.0,1100.2,3295.0,610.1,2025-01-29 11:55:22,0.0
-1518.3999999999996,-124.79999999999995,920.0,1277.2,2830.0,286.1,2025-01-29 11:55:22,0.0
-474.3999999999997,-1052.8,412.0,1673.2,2425.0,-139.9,2025-01-29 11:55:22,0.0
-670.3999999999996,-432.8,-308.0,906.2,992.0,-1328.9,2025-01-29 11:55:22,0.0
-1034.3999999999996,375.2000000000001,-1200.0,69.19999999999999,-389.0,-1860.9,2025-01-29 11:55:22,7.0
-762.3999999999996,1215.2,-1680.0,-1188.8,-982.0,-1929.9,2025-01-29 11:55:22,7.0
93.60000000000036,1815.2,-656.0,-2570.8,-922.0,-1895.9,2025-01-29 11:55:22,7.0
1189.6000000000004,1463.2,-316.0,-4305.8,-1173.0,-2224.9,2025-01-29 11:55:22,7.0
1461.6000000000004,1039.2,444.0,-5393.8,-659.0,-2480.9,2025-01-29 11:55:22,7.0
1105.6000000000004,683.2,588.0,-6565.8,-133.0,-2774.9,2025-01-29 11:55:22,7.0
765.6000000000004,143.20000000000005,172.0,-7676.8,-42.0,-3112.9,2025-01-29 11:55:22,7.0
197.6000000000004,-476.8,188.0,-8377.8,217.0,-3329.9,2025-01-29 11:55:22,7.0
-282.39999999999964,-1568.8,268.0,-8920.8,599.0,-3612.9,2025-01-29 11:55:22,7.0
-398.3999999999997,-1940.8,900.0,-9145.8,769.0,-3899.9,2025-01-29 11:55:22,7.0
-266.39999999999964,-1436.8,420.0,-9291.8,421.0,-4204.9,2025-01-29 11:55:22,7.0
-514.3999999999996,-288.79999999999995,216.0,-9759.8,-426.0,-4366.9,2025-01-29 11:55:22,7.0
-122.39999999999964,775.2,24.0,-10472.8,-1448.0,-4305.9,2025-01-29 11:55:22,7.0
-38.39999999999964,787.2,24.0,-11149.8,-1896.0,-4093.9,2025-01-29 11:55:22,7.0
505.6000000000004,439.2000000000001,-140.0,-11881.8,-1867.0,-3861.9,2025-01-29 11:55:22,7.0
525.6000000000004,171.20000000000005,-100.0,-12444.8,-1976.0,-3682.9,2025-01-29 11:55:22,7.0
469.6000000000004,-704.8,548.0,-12745.8,-2008.0,-3396.9,2025-01-29 11:55:22,7.0
893.6000000000004,-1096.8,796.0,-12726.8,-955.0,-3064.9,2025-01-29 11:55:22,7.0
1077.6000000000004,-1124.8,824.0,-13193.8,2.0,-3280.9,2025-01-29 11:55:22,7.0
225.6000000000004,-772.8,676.0,-13700.8,269.0,-3318.9,2025-01-29 11:55:22,7.0
-766.3999999999996,-332.79999999999995,172.0,-14121.8,245.0,-3164.9,2025-01-29 11:55:22,7.0
-1494.3999999999996,-292.79999999999995,-44.0,-14527.8,122.0,-3043.9,2025-01-29 11:55:22,7.0
-1966.4,-1252.8,152.0,-14886.8,-170.0,-3152.9,2025-01-29 11:55:22,7.0
-1774.3999999999996,-2196.8,948.0,-14978.8,-971.0,-3526.9,2025-01-29 11:55:22,7.0
-1518.3999999999996,-3236.8,1628.0,-14625.8,-2136.0,-3790.9,2025-01-29 11:55:22,7.0
-26.39999999999964,-3116.8,1584.0,-13895.8,-2590.0,-3945.9,2025-01-29 11:55:22,7.0
-34.39999999999964,-2972.8,1036.0,-13907.8,-2638.0,-4061.9,2025-01-29 11:55:22,7.0
117.60000000000036,-2488.8,1164.0,-13865.8,-2254.0,-4087.9,2025-01-29 11:55:22,7.0
-502.3999999999997,-2364.8,1352.0,-14262.8,-2141.0,-4257.9,2025-01-29 11:55:22,7.0
-1054.3999999999996,-1768.8,2092.0,-14863.8,-2473.0,-4294.9,2025-01-29 11:55:22,7.0
-886.3999999999996,-1536.8,3012.0,-15541.8,-4244.0,-4230.9,2025-01-29 11:55:22,7.0
225.6000000000004,-2064.8,3468.0,-16253.8,-5253.0,-3951.9,2025-01-29 11:55:22,7.0
725.6000000000004,-2308.8,3212.0,-16501.8,-4908.0,-4092.9,2025-01-29 11:55:23,7.0
1121.6000000000004,-2000.8,1024.0,-16500.8,-3217.0,-4370.9,2025-01-29 11:55:23,7.0
509.6000000000004,-1296.8,-884.0,-16314.8,-1252.0,-4924.9,2025-01-29 11:55:23,7.0
-322.39999999999964,-1324.8,-2052.0,-15876.8,-513.0,-5775.9,2025-01-29 11:55:23,7.0
-1354.3999999999996,-2664.8,-1500.0,-15062.8,-57.0,-6376.9,2025-01-29 11:55:23,7.0
-1402.3999999999996,-3292.8,228.0,-13795.8,-235.0,-6573.9,2025-01-29 11:55:23,7.0
-1674.3999999999996,-2336.8,156.0,-13309.8,-619.0,-5906.9,2025-01-29 11:55:23,7.0
-1838.4,-132.79999999999995,-604.0,-14094.8,-1165.0,-4090.9,2025-01-29 11:55:23,7.0
-482.3999999999997,863.2,-768.0,-15166.8,-1768.0,-2321.9,2025-01-29 11:55:23,7.0
665.6000000000004,251.20000000000005,-460.0,-15499.8,-1549.0,-2228.9,2025-01-29 11:55:23,7.0
1053.6000000000004,-712.8,-512.0,-15282.8,276.0,-2901.9,2025-01-29 11:55:23,7.0
821.6000000000004,-684.8,-52.0,-15037.8,2313.0,-3953.9,2025-01-29 11:55:23,7.0
-798.3999999999996,1183.2,460.0,-15361.8,2139.0,-4708.9,2025-01-29 11:55:23,7.0
-1394.3999999999996,2747.2,1048.0,-15509.8,686.0,-4118.9,2025-01-29 11:55:23,7.0
-766.3999999999996,4319.2,924.0,-15812.8,-268.0,-2987.9,2025-01-29 11:55:23,7.0
429.6000000000004,5115.2,-16.0,-16753.8,-229.0,-2557.9,2025-01-29 11:55:23,7.0
1997.6000000000004,4611.2,-820.0,-17855.8,750.0,-3564.9,2025-01-29 11:55:23,7.0
1405.6000000000004,2247.2,-380.0,-19371.8,2242.0,-5532.9,2025-01-29 11:55:23,7.0
281.6000000000004,999.2,1196.0,-19366.8,2600.0,-5939.9,2025-01-29 11:55:23,7.0
-366.3999999999997,147.20000000000005,1872.0,-19006.8,2118.0,-6325.9,2025-01-29 11:55:23,7.0
-1886.4,-148.79999999999995,1824.0,-18541.8,1290.0,-6401.9,2025-01-29 11:55:23,7.0
-1782.3999999999996,-180.79999999999995,1220.0,-18077.8,572.0,-6077.9,2025-01-29 11:55:23,7.0
-1662.3999999999996,323.20000000000005,1404.0,-17836.8,-645.0,-5795.9,2025-01-29 11:55:23,7.0
-394.3999999999997,739.2,2176.0,-17878.8,-1937.0,-6019.9,2025-01-29 11:55:23,7.0
173.60000000000036,599.2,2312.0,-17598.8,-1814.0,-6364.9,2025-01-29 11:55:23,7.0
21.600000000000364,535.2,2044.0,-17224.8,-592.0,-6213.9,2025-01-29 11:55:23,7.0
229.6000000000004,39.200000000000045,1576.0,-17005.8,832.0,-5936.9,2025-01-29 11:55:23,7.0
-538.3999999999996,-252.79999999999995,2280.0,-16076.8,1541.0,-5455.9,2025-01-29 11:55:23,7.0
-70.39999999999964,-12.799999999999956,1808.0,-14872.8,2323.0,-5253.9,2025-01-29 11:55:23,7.0
149.60000000000036,923.2,976.0,-14702.8,2155.0,-5601.9,2025-01-29 11:55:23,7.0
281.6000000000004,1539.2,592.0,-15340.8,664.0,-6550.9,2025-01-29 11:55:23,7.0
141.60000000000036,1843.2,928.0,-15255.8,-250.0,-7138.9,2025-01-29 11:55:23,7.0
209.6000000000004,2527.2,184.0,-15152.8,-1339.0,-7429.9,2025-01-29 11:55:23,7.0
881.6000000000004,3483.2,-1328.0,-15550.8,-1884.0,-7566.9,2025-01-29 11:55:23,7.0
741.6000000000004,3527.2,-1484.0,-16135.8,-1150.0,-7682.9,2025-01-29 11:55:23,7.0
1053.6000000000004,2039.2,-944.0,-16778.8,332.0,-7920.9,2025-01-29 11:55:23,7.0
1385.6000000000004,1023.2,936.0,-16477.8,638.0,-8334.9,2025-01-29 11:55:23,7.0
1493.6000000000004,-308.79999999999995,820.0,-15566.8,313.0,-8692.9,2025-01-29 11:55:23,7.0
1245.6000000000004,-1060.8,64.0,-14772.8,260.0,-8398.9,2025-01-29 11:55:23,7.0
1117.6000000000004,-784.8,-1144.0,-13833.8,751.0,-7661.9,2025-01-29 11:55:23,7.0
949.6000000000004,127.20000000000005,-1708.0,-13006.8,1759.0,-7271.9,2025-01-29 11:55:23,7.0
865.6000000000004,119.20000000000005,-1920.0,-13219.8,2344.0,-7469.9,2025-01-29 11:55:23,7.0
53.60000000000037,-484.8,752.0,-13627.8,2247.0,-7724.9,2025-01-29 11:55:23,7.0
-478.3999999999997,-1608.8,2036.0,-12635.8,2126.0,-7923.9,2025-01-29 11:55:23,7.0
-890.3999999999996,-2796.8,2044.0,-11396.8,1976.0,-8787.9,2025-01-29 11:55:23,7.0
-2730.4,-2724.8,744.0,-10768.8,863.0,-8840.9,2025-01-29 11:55:23,7.0
-3862.4,-3020.8,-1016.0,-10141.8,225.0,-7597.9,2025-01-29 11:55:23,7.0
-4194.4,-3076.8,-480.0,-8917.8,823.0,-5715.9,2025-01-29 11:55:23,7.0
-2694.4,-2848.8,1392.0,-6942.8,1181.0,-4296.9,2025-01-29 11:55:23,7.0
-534.3999999999996,-3100.8,2244.0,-5528.8,520.0,-4337.9,2025-01-29 11:55:23,7.0
677.6000000000004,-3468.8,1996.0,-4383.8,-494.0,-5143.9,2025-01-29 11:55:23,7.0
105.60000000000036,1319.2,856.0,-7772.8,-854.0,-4914.9,2025-01-29 11:55:23,7.0
121.60000000000036,-460.8,584.0,-8948.8,-812.0,-5722.9,2025-01-29 11:55:23,7.0
-290.39999999999964,-1780.8,612.0,-9751.8,-1384.0,-6141.9,2025-01-29 11:55:23,7.0
-458.3999999999997,-2860.8,548.0,-9785.8,-2252.0,-6117.9,2025-01-29 11:55:23,7.0
-194.39999999999964,-3256.8,-52.0,-9492.8,-2340.0,-5664.9,2025-01-29 11:55:23,7.0
609.6000000000004,-3216.8,-484.0,-9250.8,-1794.0,-5364.9,2025-01-29 11:55:24,7.0
1129.6000000000004,-2556.8,-572.0,-9167.8,-1776.0,-5340.9,2025-01-29 11:55:24,7.0
1213.6000000000004,-2064.8,-44.0,-9247.8,-1818.0,-5440.9,2025-01-29 11:55:24,7.0
401.6000000000004,-1408.8,580.0,-8803.8,-1259.0,-5264.9,2025-01-29 11:55:24,7.0
-366.3999999999997,-416.8,348.0,-8665.8,-1314.0,-4605.9,2025-01-29 11:55:24,7.0
-242.39999999999964,351.20000000000005,-196.0,-9240.8,-2099.0,-4006.9,2025-01-29 11:55:24,7.0
141.60000000000036,475.2000000000001,-36.0,-9952.8,-2502.0,-3624.9,2025-01-29 11:55:24,7.0
765.6000000000004,-700.8,128.0,-10371.8,-1798.0,-3374.9,2025-01-29 11:55:24,7.0
1017.6000000000004,-2136.8,524.0,-10949.8,-1409.0,-3054.9,2025-01-29 11:55:24,7.0
609.6000000000004,-2768.8,552.0,-11015.8,-1530.0,-2697.9,2025-01-29 11:55:24,7.0
-6.399999999999636,-2692.8,336.0,-10773.8,-1570.0,-2196.9,2025-01-29 11:55:24,7.0
-754.3999999999996,-3144.8,756.0,-10239.8,-1319.0,-1834.9,2025-01-29 11:55:24,7.0
-1466.3999999999996,-2576.8,724.0,-9203.8,-1075.0,-1379.9,2025-01-29 11:55:24,7.0
-1962.4,-1852.8,1240.0,-8764.8,-1157.0,-1210.9,2025-01-29 11:55:24,7.0
-2366.4,-1312.8,1796.0,-8349.8,-2228.0,-887.9,2025-01-29 11:55:24,7.0
-2058.4,-1376.8,2220.0,-8045.8,-3893.0,-615.9,2025-01-29 11:55:24,7.0
-986.3999999999996,-1516.8,2108.0,-7485.8,-5153.0,-586.9,2025-01-29 11:55:24,7.0
325.6000000000004,-1628.8,1496.0,-6796.8,-5566.0,-536.9,2025-01-29 11:55:24,7.0
1961.6000000000004,-2128.8,436.0,-5933.8,-4292.0,-994.9,2025-01-29 11:55:24,7.0
2741.6000000000004,-2400.8,-328.0,-5020.8,-2337.0,-1675.9,2025-01-29 11:55:24,7.0
2737.6000000000004,-2012.8,-864.0,-4277.8,-34.0,-2101.9,2025-01-29 11:55:24,7.0
1521.6000000000004,-1200.8,-1028.0,-3952.8,1702.0,-2116.9,2025-01-29 11:55:24,7.0
-178.39999999999964,-680.8,-1220.0,-3985.8,2633.0,-1740.9,2025-01-29 11:55:24,7.0
-1714.3999999999996,-792.8,-868.0,-4017.8,2221.0,-1103.9,2025-01-29 11:55:24,7.0
-2258.4,-1296.8,388.0,-3788.8,59.0,-702.9,2025-01-29 11:55:24,7.0
-1674.3999999999996,-1624.8,1200.0,-2972.8,-3015.0,-342.9,2025-01-29 11:55:24,7.0
-294.39999999999964,-1812.8,744.0,-2191.8,-4367.0,-146.9,2025-01-29 11:55:24,7.0
797.6000000000004,-1796.8,604.0,-1539.8,-4036.0,-23.90000000000001,2025-01-29 11:55:24,7.0
1561.6000000000004,-1304.8,1060.0,-726.8,-2170.0,12.099999999999994,2025-01-29 11:55:24,1.0
1553.6000000000004,-696.8,380.0,-324.8,-113.0,-209.9,2025-01-29 11:55:24,1.0
589.6000000000004,-172.79999999999995,984.0,-558.8,1197.0,-453.9,2025-01-29 11:55:24,1.0
-86.39999999999964,223.20000000000005,864.0,-481.8,1053.0,-571.9,2025-01-29 11:55:24,1.0
-410.3999999999997,327.20000000000005,460.0,-464.8,405.0,-672.9,2025-01-29 11:55:24,1.0
-866.3999999999996,-244.79999999999995,708.0,-495.8,-11.0,-776.9,2025-01-29 11:55:24,1.0
-278.39999999999964,-176.79999999999995,568.0,-562.8,-54.0,-677.9,2025-01-29 11:55:24,1.0
-226.39999999999964,59.200000000000045,476.0,-757.8,19.0,-693.9,2025-01-29 11:55:24,1.0
-434.3999999999997,163.20000000000005,296.0,-980.8,215.0,-569.9,2025-01-29 11:55:24,1.0
-90.39999999999964,503.2000000000001,476.0,-1167.8,306.0,-367.9,2025-01-29 11:55:24,1.0
17.600000000000364,-148.79999999999995,168.0,-1731.8,261.0,-70.9,2025-01-29 11:55:24,1.0
161.60000000000036,-708.8,616.0,-1821.8,354.0,100.1,2025-01-29 11:55:24,1.0
-110.39999999999964,-1128.8,896.0,-1659.8,664.0,234.1,2025-01-29 11:55:24,1.0
-378.3999999999997,-1324.8,1068.0,-1351.8,1066.0,249.1,2025-01-29 11:55:24,1.0
-886.3999999999996,-1184.8,1136.0,-871.8,984.0,330.1,2025-01-29 11:55:24,1.0
-1370.3999999999996,-616.8,1420.0,-562.8,451.0,493.1,2025-01-29 11:55:24,1.0
-1370.3999999999996,-152.79999999999995,1596.0,-590.8,-248.0,642.1,2025-01-29 11:55:24,1.0
-1278.3999999999996,-252.79999999999995,1540.0,-658.8,-1141.0,1005.1,2025-01-29 11:55:24,1.0
-874.3999999999996,-280.79999999999995,1124.0,-345.8,-1591.0,1483.1,2025-01-29 11:55:24,1.0
-322.39999999999964,-228.79999999999995,880.0,-205.8,-1326.0,1717.1,2025-01-29 11:55:24,1.0
-102.39999999999964,-172.79999999999995,1132.0,-174.8,-517.0,1489.1,2025-01-29 11:55:24,1.0
-1198.3999999999996,-32.799999999999955,1268.0,-52.80000000000001,-181.0,1453.1,2025-01-29 11:55:24,1.0
-1770.3999999999996,-140.79999999999995,968.0,63.19999999999999,-771.0,1615.1,2025-01-29 11:55:24,1.0
-2358.4,299.20000000000005,500.0,286.2,-1995.0,1991.1,2025-01-29 11:55:24,1.0
-1746.3999999999996,1227.2,108.0,341.2,-3626.0,2387.1,2025-01-29 11:55:24,1.0
-78.39999999999964,1891.2,-252.0,-91.8,-4546.0,2391.1,2025-01-29 11:55:24,1.0
1689.6000000000004,2443.2,460.0,-759.8,-5003.0,1792.1,2025-01-29 11:55:24,1.0
2625.6000000000004,2979.2,2056.0,-1297.8,-4003.0,770.1,2025-01-29 11:55:24,1.0
2241.6000000000004,3139.2,4080.0,-1400.8,-1450.0,-301.9,2025-01-29 11:55:25,1.0
277.6000000000004,2431.2,3448.0,-1849.8,854.0,-1191.9,2025-01-29 11:55:25,1.0
-2082.4,1691.2,2912.0,-2108.8,1978.0,-938.9,2025-01-29 11:55:25,1.0
-3126.4,727.2,2772.0,-2159.8,2162.0,-239.9,2025-01-29 11:55:25,1.0
-3066.4,283.20000000000005,4032.0,-1994.8,991.0,585.1,2025-01-29 11:55:25,1.0
-2746.4,87.20000000000005,5360.0,-1210.8,192.0,1089.1,2025-01-29 11:55:25,1.0
-2642.4,431.2000000000001,5060.0,-324.8,767.0,1878.1,2025-01-29 11:55:25,1.0
-2090.4,971.2,3612.0,276.2,1235.0,2691.1,2025-01-29 11:55:25,1.0
-1434.3999999999996,1995.2,2404.0,93.2,1251.0,3066.1,2025-01-29 11:55:25,1.0
-1190.3999999999996,2923.2,2936.0,-500.8,463.0,3265.1,2025-01-29 11:55:25,1.0
-682.3999999999996,3143.2,3776.0,-735.8,-475.0,3036.1,2025-01-29 11:55:25,1.0
-522.3999999999996,2971.2,4412.0,-603.8,-1308.0,2384.1,2025-01-29 11:55:25,1.0
165.60000000000036,2791.2,4884.0,-417.8,-1997.0,1745.1,2025-01-29 11:55:25,1.0
517.6000000000004,2355.2,4900.0,-213.8,-2422.0,1274.1,2025-01-29 11:55:25,1.0
1453.6000000000004,1963.2,5132.0,220.2,-2274.0,784.1,2025-01-29 11:55:25,1.0
2237.6000000000004,1395.2,5080.0,617.2,-1203.0,-7.900000000000006,2025-01-29 11:55:25,1.0
1489.6000000000004,1147.2,5036.0,1003.2,546.0,-447.9,2025-01-29 11:55:25,1.0
253.6000000000004,1379.2,4672.0,1526.2,2169.0,-567.9,2025-01-29 11:55:25,1.0
-1706.3999999999996,1707.2,4768.0,1883.2,3162.0,-465.9,2025-01-29 11:55:25,1.0
-3134.4,1495.2,4712.0,2075.2,2911.0,-36.900000000000006,2025-01-29 11:55:25,1.0
-3834.4,879.2,4944.0,2694.2,1610.0,207.1,2025-01-29 11:55:25,1.0
-3622.4,-392.8,4164.0,3214.2,-316.0,501.1,2025-01-29 11:55:25,1.0
-2882.4,135.20000000000005,4168.0,3648.2,-1444.0,1049.1,2025-01-29 11:55:25,1.0
-2290.4,2279.2,4052.0,4045.2,-1677.0,1615.1,2025-01-29 11:55:25,1.0
-3118.4,3811.2,2564.0,3894.2,-647.0,2482.1,2025-01-29 11:55:25,1.0
-3134.4,2955.2,1836.0,3457.2,1280.0,3580.1,2025-01-29 11:55:25,1.0
-4138.4,2591.2,1704.0,2886.2,1732.0,2991.1,2025-01-29 11:55:25,1.0
-6142.4,4043.2,1804.0,2942.2,1175.0,2624.1,2025-01-29 11:55:25,1.0
-7814.4,5143.2,1156.0,3869.2,125.0,2864.1,2025-01-29 11:55:25,1.0
-7918.4,5691.2,-152.0,3128.2,-1668.0,4140.1,2025-01-29 11:55:25,1.0
-4878.4,5723.2,-1236.0,1362.2,-3017.0,4944.1,2025-01-29 11:55:25,1.0
-754.3999999999996,5435.2,-456.0,-516.8,-2872.0,3176.1,2025-01-29 11:55:25,1.0
2925.6000000000004,5927.2,480.0,-1822.8,-2918.0,-372.9,2025-01-29 11:55:25,1.0
3965.6,4503.2,960.0,-1071.8,-1983.0,-3890.9,2025-01-29 11:55:25,1.0
3305.6000000000004,3115.2,-364.0,-1068.8,-977.0,-5506.9,2025-01-29 11:55:25,1.0
2601.6000000000004,2203.2,-548.0,-1208.8,-927.0,-6216.9,2025-01-29 11:55:25,1.0
2149.6000000000004,1351.2,-324.0,-1219.8,-999.0,-6648.9,2025-01-29 11:55:25,1.0
1889.6000000000004,587.2,-768.0,-1541.8,-841.0,-6303.9,2025-01-29 11:55:25,1.0
1453.6000000000004,-608.8,-332.0,-2144.8,-808.0,-5550.9,2025-01-29 11:55:25,1.0
2057.6000000000004,-1972.8,640.0,-2383.8,-679.0,-4659.9,2025-01-29 11:55:25,1.0
1229.6000000000004,-2876.8,1632.0,-1830.8,-188.0,-4082.9,2025-01-29 11:55:25,1.0
353.6000000000004,-2864.8,2092.0,-1003.8,1156.0,-3177.9,2025-01-29 11:55:25,1.0
-158.39999999999964,-1820.8,2124.0,69.19999999999999,2498.0,-2236.9,2025-01-29 11:55:25,1.0
-474.3999999999997,-632.8,1440.0,314.2,2432.0,-2269.9,2025-01-29 11:55:25,1.0
-950.3999999999996,463.2000000000001,376.0,289.2,1748.0,-2620.9,2025-01-29 11:55:25,1.0
-1486.3999999999996,767.2,-268.0,-4.800000000000011,769.0,-3017.9,2025-01-29 11:55:25,1.0
-1402.3999999999996,819.2,220.0,-520.8,-150.0,-3018.9,2025-01-29 11:55:25,1.0
-538.3999999999996,667.2,1008.0,-922.8,-953.0,-2842.9,2025-01-29 11:55:25,1.0
325.6000000000004,371.2000000000001,1172.0,-1353.8,-1420.0,-2695.9,2025-01-29 11:55:25,1.0
1389.6000000000004,71.20000000000005,1212.0,-1913.8,-934.0,-2791.9,2025-01-29 11:55:25,1.0
1881.6000000000004,-332.79999999999995,1504.0,-2297.8,-152.0,-3143.9,2025-01-29 11:55:25,1.0
1765.6000000000004,-704.8,2048.0,-2403.8,666.0,-3569.9,2025-01-29 11:55:25,1.0
1289.6000000000004,-1128.8,2272.0,-2472.8,1276.0,-3788.9,2025-01-29 11:55:25,1.0
665.6000000000004,-1888.8,2812.0,-2423.8,1862.0,-3888.9,2025-01-29 11:55:25,1.0
-70.39999999999964,-2392.8,2952.0,-2253.8,2033.0,-3768.9,2025-01-29 11:55:25,1.0
-1298.3999999999996,-2608.8,3036.0,-1932.8,1686.0,-3130.9,2025-01-29 11:55:25,1.0
-1582.3999999999996,-2640.8,2868.0,-1728.8,1094.0,-2003.9,2025-01-29 11:55:25,1.0
-1202.3999999999996,-2280.8,2748.0,-1449.8,510.0,-830.9,2025-01-29 11:55:25,1.0
-442.3999999999997,-1532.8,2656.0,-1332.8,168.0,-76.9,2025-01-29 11:55:25,1.0
145.60000000000036,-1052.8,2600.0,-1509.8,303.0,491.1,2025-01-29 11:55:25,1.0
617.6000000000004,-360.8,2960.0,-1813.8,492.0,941.1,2025-01-29 11:55:25,1.0
473.6000000000004,123.20000000000005,2988.0,-2212.8,547.0,1130.1,2025-01-29 11:55:25,1.0
481.6000000000004,-260.79999999999995,3012.0,-2769.8,562.0,1238.1,2025-01-29 11:55:25,1.0
761.6000000000004,-844.8,3032.0,-3154.8,421.0,1036.1,2025-01-29 11:55:25,1.0
397.6000000000004,-1224.8,2772.0,-3387.8,267.0,654.1,2025-01-29 11:55:25,1.0
-334.39999999999964,-928.8,2772.0,-3674.8,99.0,198.1,2025-01-29 11:55:26,1.0
-250.39999999999964,-356.79999999999995,2320.0,-3840.8,332.0,-192.9,2025-01-29 11:55:26,1.0
-690.3999999999996,-88.79999999999995,1228.0,-4228.8,665.0,-763.9,2025-01-29 11:55:26,1.0
-2154.4,-820.8,2904.0,-4432.8,1019.0,-816.9,2025-01-29 11:55:26,1.0
-2750.4,-2144.8,3056.0,-4299.8,866.0,-1371.9,2025-01-29 11:55:26,1.0
-3534.4,-3156.8,2860.0,-4378.8,69.0,-1832.9,2025-01-29 11:55:26,1.0
-4226.4,-3680.8,3336.0,-3761.8,-1315.0,-1951.9,2025-01-29 11:55:26,1.0
-4018.4,-3824.8,2372.0,-3204.8,-2120.0,-1550.9,2025-01-29 11:55:26,1.0
-3258.4,-2224.8,-112.0,-1845.8,-1311.0,-1983.9,2025-01-29 11:55:26,1.0
-4418.4,-2164.8,4.0,-1836.8,124.0,-2623.9,2025-01-29 11:55:26,1.0
-4218.4,-4288.8,956.0,-302.8,-672.0,-3534.9,2025-01-29 11:55:26,1.0
-5486.4,-5488.8,-2580.0,1428.2,-2585.0,-2973.9,2025-01-29 11:55:26,1.0
-6826.4,-4912.8,-4296.0,1323.2,-4051.0,512.1,2025-01-29 11:55:26,1.0
-3562.4,-2412.8,-4812.0,1259.2,-5269.0,4116.1,2025-01-29 11:55:26,1.0
781.6000000000004,-204.79999999999995,-5448.0,957.2,-6479.0,5113.1,2025-01-29 11:55:26,1.0
2493.6000000000004,2023.2,-4948.0,332.2,-6623.0,5151.1,2025-01-29 11:55:26,1.0
3181.6000000000004,4615.2,-3148.0,-793.8,-5884.0,4315.1,2025-01-29 11:55:26,1.0
1645.6000000000004,5443.2,-2972.0,-1739.8,-2855.0,3548.1,2025-01-29 11:55:26,1.0
161.60000000000036,2627.2,-2128.0,-3103.8,987.0,3301.1,2025-01-29 11:55:26,1.0
-1674.3999999999996,-300.79999999999995,-772.0,-2852.8,1894.0,3157.1,2025-01-29 11:55:26,1.0
-4002.4,-2408.8,804.0,-2137.8,1309.0,3462.1,2025-01-29 11:55:26,1.0
-5474.4,-2492.8,1488.0,-1165.8,-1287.0,4481.1,2025-01-29 11:55:26,1.0
-4538.4,-1264.8,1764.0,231.2,-4591.0,5662.1,2025-01-29 11:55:26,1.0
-2670.4,-168.79999999999995,552.0,780.2,-7231.0,6543.1,2025-01-29 11:55:26,1.0
-2138.4,1555.2,512.0,1002.2,-8455.0,7640.1,2025-01-29 11:55:26,1.0
-422.3999999999997,2623.2,688.0,1443.2,-7810.0,9309.1,2025-01-29 11:55:26,1.0
-150.39999999999964,4583.2,-96.0,414.2,-7371.0,10414.1,2025-01-29 11:55:26,1.0
485.6000000000004,4275.2,1912.0,-1244.8,-8694.0,9874.1,2025-01-29 11:55:26,1.0
-734.3999999999996,5107.2,3192.0,-1972.8,-9413.0,8871.1,2025-01-29 11:55:26,1.0
-2478.4,5591.2,2984.0,-1300.8,-9443.0,8869.1,2025-01-29 11:55:26,1.0
1033.6000000000004,4143.2,1240.0,-389.8,-6776.0,10852.1,2025-01-29 11:55:26,1.0
3009.6000000000004,751.2,1852.0,-459.8,-4002.0,9532.1,2025-01-29 11:55:26,1.0
-1718.3999999999996,1559.2,3752.0,-1009.8,-7965.0,6728.1,2025-01-29 11:55:26,1.0
-1818.4,2771.2,3348.0,-1964.8,-7576.0,4783.1,2025-01-29 11:55:26,1.0
-3410.4,3667.2,4712.0,-3321.8,-4495.0,3215.1,2025-01-29 11:55:26,1.0
-2166.4,4983.2,5404.0,-3185.8,-3612.0,2741.1,2025-01-29 11:55:26,1.0
1217.6000000000004,5995.2,6532.0,-3035.8,-6075.0,2970.1,2025-01-29 11:55:26,1.0
2853.6000000000004,5803.2,6192.0,-2795.8,-5852.0,2828.1,2025-01-29 11:55:26,1.0
4833.6,6755.2,9508.0,405.2,-5706.0,2570.1,2025-01-29 11:55:26,1.0
3405.6000000000004,6799.2,7136.0,4132.2,-9310.0,3959.1,2025-01-29 11:55:26,1.0
