acceleration_x,acceleration_y,acceleration_z,gyroscope_x,gyroscope_y,gyroscope_z,timestamp,label
-77.20000000000073,-46.0,124.0,28.0,-387.6,35.69999999999999,2025-01-29 10:42:04,1
102.79999999999929,18.0,372.0,26.0,-272.6,23.69999999999999,2025-01-29 10:42:04,1
130.79999999999927,-22.0,360.0,26.0,-92.60000000000002,43.69999999999999,2025-01-29 10:42:04,1
218.79999999999927,30.0,156.0,43.0,212.4,5.699999999999989,2025-01-29 10:42:04,1
126.79999999999929,42.0,44.0,51.0,408.4,-50.30000000000001,2025-01-29 10:42:04,1
-61.20000000000073,-10.0,-160.0,50.0,328.4,-30.30000000000001,2025-01-29 10:42:04,1
-209.20000000000076,-78.0,-296.0,23.0,122.39999999999998,7.699999999999989,2025-01-29 10:42:04,1
-173.20000000000073,-58.0,-280.0,-16.0,-51.60000000000002,19.69999999999999,2025-01-29 10:42:04,1
6.799999999999272,26.0,-228.0,-93.0,-137.60000000000002,2.6999999999999886,2025-01-29 10:42:04,1
-65.20000000000073,98.0,-92.0,-138.0,-129.60000000000002,-58.30000000000001,2025-01-29 10:42:04,1
138.79999999999927,94.0,0.0,-150.0,-148.60000000000002,-87.30000000000001,2025-01-29 10:42:04,1
70.79999999999927,90.0,-236.0,-159.0,-107.60000000000002,-138.3,2025-01-29 10:42:04,1
106.79999999999929,34.0,-52.0,-222.0,-88.60000000000002,-152.3,2025-01-29 10:42:04,1
62.79999999999927,-42.0,-4.0,-247.0,-44.60000000000002,-174.3,2025-01-29 10:42:04,1
-1.2000000000007276,-114.0,72.0,-251.0,-16.600000000000023,-151.3,2025-01-29 10:42:04,1
-5.200000000000728,-226.0,24.0,-241.0,13.399999999999975,-111.3,2025-01-29 10:42:04,1
150.79999999999927,-190.0,-12.0,-220.0,68.39999999999998,-123.3,2025-01-29 10:42:05,1
14.799999999999272,-42.0,-44.0,-209.0,65.39999999999998,-105.3,2025-01-29 10:42:05,1
-13.200000000000728,-26.0,-92.0,-192.0,46.39999999999998,-112.3,2025-01-29 10:42:05,1
-1.2000000000007276,-62.0,-308.0,-194.0,-7.600000000000023,-91.3,2025-01-29 10:42:05,1
-37.20000000000073,-90.0,-88.0,-167.0,-156.60000000000002,-109.3,2025-01-29 10:42:05,1
2.7999999999992724,-70.0,-44.0,-202.0,-200.6,-114.3,2025-01-29 10:42:05,1
70.79999999999927,-10.0,-40.0,-206.0,-155.60000000000002,-86.30000000000001,2025-01-29 10:42:05,1
2.7999999999992724,-74.0,168.0,-234.0,-74.60000000000002,-64.30000000000001,2025-01-29 10:42:05,1
70.79999999999927,-94.0,8.0,-182.0,20.399999999999977,-11.300000000000011,2025-01-29 10:42:05,1
14.799999999999272,-130.0,56.0,-172.0,144.39999999999998,17.69999999999999,2025-01-29 10:42:05,1
-189.20000000000076,-186.0,-64.0,-78.0,236.4,47.69999999999999,2025-01-29 10:42:05,1
-317.2000000000007,-206.0,-188.0,24.0,71.39999999999998,141.7,2025-01-29 10:42:05,1
-429.2000000000007,-418.0,-4.0,74.0,-110.60000000000002,247.7,2025-01-29 10:42:05,1
-549.2000000000007,-470.0,444.0,285.0,-170.60000000000002,474.7,2025-01-29 10:42:05,1
-513.2000000000007,-582.0,248.0,729.0,-82.60000000000002,594.7,2025-01-29 10:42:05,1
-921.2000000000008,-278.0,-1008.0,664.0,-276.6,856.7,2025-01-29 10:42:05,1
-1085.2000000000007,118.0,-780.0,606.0,-416.6,1268.7,2025-01-29 10:42:05,1
-1225.2000000000007,406.0,-108.0,692.0,-1007.6,1586.7,2025-01-29 10:42:05,1
-1577.2000000000007,542.0,488.0,772.0,-1714.6,1676.7,2025-01-29 10:42:05,1
-1465.2000000000007,34.0,904.0,776.0,-2773.6,1647.7,2025-01-29 10:42:05,1
-601.2000000000007,-730.0,2216.0,1003.0,-5323.6,1317.7,2025-01-29 10:42:05,1
-329.2000000000007,-650.0,2548.0,1730.0,-6462.6,1108.7,2025-01-29 10:42:05,1
-173.20000000000073,62.0,2240.0,2463.0,-4916.6,1557.7,2025-01-29 10:42:05,1
514.7999999999993,1278.0,2084.0,2880.0,-2760.6,1897.7,2025-01-29 10:42:05,1
518.7999999999993,2086.0,1212.0,2272.0,-1387.6,1372.7,2025-01-29 10:42:05,1
-269.2000000000007,1918.0,1368.0,1337.0,-565.6,788.7,2025-01-29 10:42:05,1
-1013.2000000000008,934.0,1872.0,1009.0,-463.6,334.7,2025-01-29 10:42:05,1
-1389.2000000000007,522.0,1724.0,1319.0,-477.6,404.7,2025-01-29 10:42:05,1
-1209.2000000000007,870.0,1368.0,1398.0,-719.6,588.7,2025-01-29 10:42:05,1
-817.2000000000007,1230.0,1300.0,1358.0,-1102.6,523.7,2025-01-29 10:42:05,1
-717.2000000000007,1398.0,1668.0,1347.0,-1357.6,401.7,2025-01-29 10:42:05,1
-361.2000000000007,1330.0,1236.0,1333.0,-1348.6,246.7,2025-01-29 10:42:05,1
-273.2000000000007,1078.0,836.0,1239.0,-1406.6,-36.30000000000001,2025-01-29 10:42:05,1
-549.2000000000007,518.0,1448.0,1367.0,-1256.6,-148.3,2025-01-29 10:42:05,1
-757.2000000000007,134.0,1564.0,1513.0,-1108.6,-199.3,2025-01-29 10:42:05,1
-501.2000000000007,-126.0,1600.0,1637.0,-1325.6,-214.3,2025-01-29 10:42:05,1
-413.2000000000007,-18.0,1492.0,1778.0,-1450.6,-119.3,2025-01-29 10:42:05,1
366.7999999999993,-82.0,588.0,1739.0,-1459.6,36.69999999999999,2025-01-29 10:42:05,1
734.7999999999993,-58.0,704.0,1564.0,-902.6,75.69999999999999,2025-01-29 10:42:05,1
822.7999999999993,-98.0,600.0,1439.0,279.4,-215.3,2025-01-29 10:42:05,1
350.7999999999993,2.0,608.0,1625.0,1575.4,-854.3,2025-01-29 10:42:05,1
-421.2000000000007,50.0,108.0,1857.0,2066.4,-1612.3,2025-01-29 10:42:05,1
-1457.2000000000007,210.0,-76.0,2043.0,1593.4,-2140.3,2025-01-29 10:42:05,1
-2205.2000000000007,302.0,596.0,2227.0,561.4,-2290.3,2025-01-29 10:42:05,1
-1737.2000000000007,106.0,1180.0,1999.0,-1075.6,-2203.3,2025-01-29 10:42:05,1
-553.2000000000007,-318.0,1920.0,1625.0,-1589.6,-2580.3,2025-01-29 10:42:05,1
-73.20000000000073,-846.0,3184.0,1163.0,-1225.6,-3025.3,2025-01-29 10:42:05,1
-133.20000000000073,-1246.0,3800.0,577.0,358.4,-3206.3,2025-01-29 10:42:05,1
-589.2000000000007,-1598.0,4208.0,198.0,2416.4,-3297.3,2025-01-29 10:42:05,1
-917.2000000000008,-1942.0,4188.0,-128.0,3513.4,-3492.3,2025-01-29 10:42:05,1
-1565.2000000000007,-2162.0,4272.0,-191.0,3698.4,-3641.3,2025-01-29 10:42:05,1
-1945.2000000000007,-2318.0,3908.0,-80.0,3234.4,-3707.3,2025-01-29 10:42:05,1
-1861.2000000000007,-2626.0,3404.0,26.0,2375.4,-3726.3,2025-01-29 10:42:05,1
-1653.2000000000007,-3010.0,2968.0,224.0,1438.4,-3435.3,2025-01-29 10:42:05,1
-1217.2000000000007,-3018.0,3292.0,300.0,960.4,-3039.3,2025-01-29 10:42:05,1
-649.2000000000007,-2422.0,3448.0,98.0,983.4,-2585.3,2025-01-29 10:42:05,1
-105.20000000000071,-2070.0,3232.0,-497.0,1168.4,-2296.3,2025-01-29 10:42:05,1
-25.200000000000728,-2318.0,2836.0,-1254.0,1433.4,-2105.3,2025-01-29 10:42:05,1
-333.2000000000007,-2462.0,2808.0,-1896.0,1640.4,-1939.3,2025-01-29 10:42:05,1
-925.2000000000008,-2322.0,3220.0,-2542.0,1767.4,-1606.3,2025-01-29 10:42:05,1
-989.2000000000008,-2034.0,3956.0,-3044.0,1381.4,-1456.3,2025-01-29 10:42:06,1
-1033.2000000000007,-1842.0,3628.0,-3256.0,680.4,-1381.3,2025-01-29 10:42:06,1
-605.2000000000007,-2214.0,2688.0,-3412.0,79.39999999999998,-1341.3,2025-01-29 10:42:06,1
186.79999999999927,-2646.0,1964.0,-3447.0,313.4,-1692.3,2025-01-29 10:42:06,1
478.7999999999993,-2442.0,1204.0,-3518.0,1214.4,-2249.3,2025-01-29 10:42:06,1
-977.2000000000008,-2138.0,1252.0,-3866.0,2706.4,-2940.3,2025-01-29 10:42:06,1
-1297.2000000000007,-3646.0,1516.0,-3658.0,2960.4,-3681.3,2025-01-29 10:42:06,1
-2885.2000000000007,-4926.0,2092.0,-3461.0,1885.4,-4226.3,2025-01-29 10:42:06,1
-5273.200000000001,-5462.0,3532.0,-3339.0,-504.6,-3120.3,2025-01-29 10:42:06,1
-4409.200000000001,-5062.0,4140.0,-2600.0,-1842.6,-1603.3,2025-01-29 10:42:06,1
-2329.2000000000007,-3718.0,148.0,-1396.0,-2144.6,-2026.3,2025-01-29 10:42:06,1
-2445.2000000000007,-2526.0,-1668.0,-1589.0,-1478.6,-3395.3,2025-01-29 10:42:06,1
-2849.2000000000007,-2770.0,84.0,-984.0,-1456.6,-4246.3,2025-01-29 10:42:06,1
-3893.2000000000007,-4278.0,-828.0,-492.0,-1846.6,-4434.3,2025-01-29 10:42:06,1
-5477.200000000001,-5854.0,-2236.0,-660.0,-1941.6,-3152.3,2025-01-29 10:42:06,1
-5921.200000000001,-7218.0,-2080.0,-352.0,-2614.6,-681.3,2025-01-29 10:42:06,1
-4801.200000000001,-5726.0,-364.0,1096.0,-3138.6,1476.7,2025-01-29 10:42:06,1
-3809.2000000000007,-3242.0,-168.0,594.0,-4380.6,2058.7,2025-01-29 10:42:06,1
-2825.2000000000007,-2522.0,-1624.0,-793.0,-5841.6,3345.7,2025-01-29 10:42:06,1
-269.2000000000007,-2622.0,-2900.0,-1877.0,-6634.6,5012.7,2025-01-29 10:42:06,1
1642.7999999999993,-1466.0,-3136.0,-2162.0,-6597.6,6114.7,2025-01-29 10:42:06,1
3698.7999999999993,794.0,-1780.0,-2216.0,-5145.6,6530.7,2025-01-29 10:42:06,1
5030.799999999999,2062.0,-72.0,-2035.0,-2346.6,5400.7,2025-01-29 10:42:06,1
5294.799999999999,2570.0,552.0,-1820.0,841.4,3192.7,2025-01-29 10:42:06,1
3654.7999999999993,2230.0,20.0,-1863.0,2932.4,1462.7,2025-01-29 10:42:06,1
950.7999999999992,1262.0,-240.0,-2421.0,3301.4,1594.7,2025-01-29 10:42:06,1
-181.20000000000076,-70.0,36.0,-2718.0,2879.4,2650.7,2025-01-29 10:42:06,1
-1017.2000000000008,-1178.0,448.0,-2557.0,2714.4,3536.7,2025-01-29 10:42:06,1
-837.2000000000007,-1846.0,432.0,-2067.0,2248.4,3919.7,2025-01-29 10:42:06,1
-881.2000000000007,-1686.0,796.0,-1301.0,754.4,4081.7,2025-01-29 10:42:06,1
-561.2000000000007,-1002.0,776.0,-640.0,-960.6,4254.7,2025-01-29 10:42:06,1
-153.20000000000073,-102.0,1348.0,-158.0,-1888.6,4343.7,2025-01-29 10:42:06,1
514.7999999999993,690.0,1988.0,4.0,-2190.6,4355.7,2025-01-29 10:42:06,1
1226.7999999999993,1466.0,2056.0,130.0,-2060.6,4104.7,2025-01-29 10:42:06,1
1490.7999999999993,2258.0,2296.0,109.0,-1168.6,3718.7,2025-01-29 10:42:06,1
2094.7999999999997,2338.0,1692.0,-157.0,-409.6,3239.7,2025-01-29 10:42:06,1
1322.7999999999993,2222.0,1772.0,-469.0,305.4,2975.7,2025-01-29 10:42:06,1
246.79999999999927,2302.0,1788.0,-540.0,1013.4,3068.7,2025-01-29 10:42:06,1
-813.2000000000007,2386.0,1756.0,-664.0,1289.4,3378.7,2025-01-29 10:42:06,1
-501.2000000000007,2150.0,1516.0,-664.0,353.4,2904.7,2025-01-29 10:42:06,1
-729.2000000000007,1718.0,1900.0,-337.0,-1909.6,1747.7,2025-01-29 10:42:06,1
-741.2000000000007,1150.0,2328.0,-157.0,-3724.6,1183.7,2025-01-29 10:42:06,1
158.79999999999927,830.0,2620.0,17.0,-4603.6,780.7,2025-01-29 10:42:06,1
1062.7999999999993,606.0,3076.0,137.0,-4923.6,277.7,2025-01-29 10:42:06,1
1406.7999999999993,570.0,3464.0,395.0,-4938.6,-60.30000000000001,2025-01-29 10:42:06,1
1762.7999999999993,770.0,3772.0,606.0,-4580.6,-335.3,2025-01-29 10:42:06,1
1870.7999999999995,1198.0,3924.0,806.0,-3515.6,-796.3,2025-01-29 10:42:06,1
1338.7999999999993,1458.0,4048.0,1057.0,-2087.6,-1154.3,2025-01-29 10:42:06,1
610.7999999999993,1670.0,3576.0,1277.0,-698.6,-1300.3,2025-01-29 10:42:06,1
-41.20000000000073,1782.0,3092.0,1355.0,476.4,-1241.3,2025-01-29 10:42:06,1
-1333.2000000000007,1810.0,3292.0,1508.0,1478.4,-849.3,2025-01-29 10:42:06,1
-1989.2000000000007,1694.0,2956.0,1848.0,2246.4,-214.3,2025-01-29 10:42:06,1
-2797.2000000000007,1002.0,2988.0,2055.0,2939.4,324.7,2025-01-29 10:42:06,1
-3933.2000000000007,78.0,3060.0,2650.0,3556.4,696.7,2025-01-29 10:42:06,1
-4657.200000000001,-54.0,2288.0,3309.0,3003.4,1179.7,2025-01-29 10:42:06,1
-4673.200000000001,1550.0,1676.0,3640.0,480.4,1721.7,2025-01-29 10:42:06,1
-4065.2000000000007,3050.0,2676.0,3460.0,-1691.6,1772.7,2025-01-29 10:42:06,1
-3669.2000000000007,3438.0,4436.0,3415.0,-2600.6,1235.7,2025-01-29 10:42:06,1
-3633.2000000000007,2874.0,3608.0,3263.0,-1744.6,1163.7,2025-01-29 10:42:06,1
-3133.2000000000007,2178.0,1240.0,2802.0,569.4,1610.7,2025-01-29 10:42:06,1
-3713.2000000000007,3742.0,-576.0,1860.0,3308.4,2074.7,2025-01-29 10:42:07,1
-3257.2000000000007,5598.0,-1928.0,486.0,5413.4,2403.7,2025-01-29 10:42:07,1
-1625.2000000000007,5542.0,-3092.0,-1074.0,4301.4,1569.7,2025-01-29 10:42:07,1
174.79999999999927,4666.0,-4128.0,-2019.0,1985.4,-544.3,2025-01-29 10:42:07,1
134.79999999999927,2426.0,-4352.0,-2605.0,-105.60000000000002,-2782.3,2025-01-29 10:42:07,1
-17.200000000000728,-10.0,-2744.0,-2933.0,-1274.6,-2604.3,2025-01-29 10:42:07,1
1510.7999999999993,-2274.0,-968.0,-2056.0,-2038.6,-1707.3,2025-01-29 10:42:07,1
2734.7999999999997,-4706.0,-580.0,-604.0,-668.6,-1266.3,2025-01-29 10:42:07,1
2334.7999999999997,-5658.0,-756.0,545.0,2053.4,-1301.3,2025-01-29 10:42:07,1
1338.7999999999993,-4366.0,-748.0,1444.0,3579.4,-1092.3,2025-01-29 10:42:07,1
906.7999999999992,-1918.0,-1120.0,2398.0,4049.4,-1203.3,2025-01-29 10:42:07,1
842.7999999999993,78.0,-1636.0,2479.0,3393.4,-2036.3,2025-01-29 10:42:07,1
590.7999999999993,1482.0,-1244.0,1753.0,1356.4,-3208.3,2025-01-29 10:42:07,1
386.7999999999993,1538.0,-764.0,777.0,-713.6,-4044.3,2025-01-29 10:42:07,1
238.79999999999927,950.0,-336.0,125.0,-1556.6,-4042.3,2025-01-29 10:42:07,1
1214.7999999999993,-90.0,-556.0,-374.0,-1652.6,-3615.3,2025-01-29 10:42:07,1
2314.7999999999997,-970.0,-180.0,-706.0,-1393.6,-3577.3,2025-01-29 10:42:07,1
2026.7999999999995,-1966.0,1416.0,-716.0,-714.6,-3723.3,2025-01-29 10:42:07,1
1526.7999999999993,-2482.0,1856.0,-554.0,484.4,-3563.3,2025-01-29 10:42:07,1
630.7999999999993,-2414.0,2200.0,-489.0,1479.4,-3232.3,2025-01-29 10:42:07,1
366.7999999999993,-2142.0,1940.0,-493.0,1807.4,-2753.3,2025-01-29 10:42:07,1
210.79999999999927,-1726.0,1644.0,-494.0,1579.4,-2278.3,2025-01-29 10:42:07,1
254.79999999999927,-1510.0,1792.0,-479.0,1207.4,-1935.3,2025-01-29 10:42:07,1
270.7999999999993,-1534.0,1776.0,-425.0,1230.4,-1729.3,2025-01-29 10:42:07,1
394.7999999999993,-1702.0,1536.0,-478.0,1475.4,-1683.3,2025-01-29 10:42:07,1
282.7999999999993,-1802.0,1644.0,-523.0,1664.4,-1766.3,2025-01-29 10:42:07,1
-61.20000000000073,-2018.0,1600.0,-539.0,1486.4,-1612.3,2025-01-29 10:42:07,1
114.79999999999929,-1874.0,1096.0,-670.0,1283.4,-1152.3,2025-01-29 10:42:07,1
42.79999999999927,-1486.0,1808.0,-915.0,1185.4,-995.3,2025-01-29 10:42:07,1
62.79999999999927,-1106.0,1852.0,-1260.0,1078.4,-1031.3,2025-01-29 10:42:07,1
-45.20000000000073,-1038.0,1916.0,-1622.0,1124.4,-902.3,2025-01-29 10:42:07,1
250.79999999999927,-798.0,1784.0,-1971.0,1163.4,-751.3,2025-01-29 10:42:07,1
-289.2000000000007,-990.0,1652.0,-2252.0,1329.4,-786.3,2025-01-29 10:42:07,1
-809.2000000000007,-1226.0,1392.0,-2585.0,1483.4,-1102.3,2025-01-29 10:42:07,1
-1361.2000000000007,-1222.0,1308.0,-2872.0,1062.4,-1661.3,2025-01-29 10:42:07,1
-2177.2000000000007,-1286.0,1196.0,-2994.0,138.39999999999998,-2158.3,2025-01-29 10:42:07,1
-1889.2000000000007,-1246.0,924.0,-3032.0,-1247.6,-2353.3,2025-01-29 10:42:07,1
-1081.2000000000007,-1902.0,820.0,-2846.0,-2216.6,-2632.3,2025-01-29 10:42:07,1
-337.2000000000007,-2826.0,1560.0,-2700.0,-2294.6,-3150.3,2025-01-29 10:42:07,1
-217.20000000000076,-3150.0,1824.0,-2858.0,-1809.6,-3864.3,2025-01-29 10:42:07,1
-1009.2000000000008,-2634.0,2216.0,-3134.0,-1319.6,-4329.3,2025-01-29 10:42:07,1
-1721.2000000000007,-1870.0,1980.0,-3252.0,-676.6,-4242.3,2025-01-29 10:42:07,1
-2533.2000000000007,-1026.0,-824.0,-3077.0,1131.4,-4241.3,2025-01-29 10:42:07,1
-2921.2000000000007,-2458.0,-2808.0,-3420.0,2773.4,-4801.3,2025-01-29 10:42:07,1
-3333.2000000000007,-5290.0,-2524.0,-2810.0,2369.4,-5726.3,2025-01-29 10:42:07,1
-5785.200000000001,-7742.0,-1756.0,-1082.0,566.4,-5236.3,2025-01-29 10:42:07,1
-8193.2,-7834.0,-2428.0,254.0,-2976.6,-1431.3,2025-01-29 10:42:07,1
-5185.200000000001,-4982.0,-3180.0,142.0,-5483.6,2714.7,2025-01-29 10:42:07,1
-1069.2000000000007,-2922.0,-3044.0,100.0,-6993.6,2967.7,2025-01-29 10:42:07,1
934.7999999999992,-1002.0,-2596.0,-434.0,-8568.6,2967.7,2025-01-29 10:42:07,1
3222.7999999999997,790.0,-1236.0,-971.0,-9290.6,3146.7,2025-01-29 10:42:07,1
5274.799999999999,2290.0,-868.0,-1505.0,-8402.6,3062.7,2025-01-29 10:42:07,1
5862.799999999999,2942.0,-884.0,-2558.0,-5065.6,2803.7,2025-01-29 10:42:07,1
6066.799999999999,2774.0,-780.0,-3168.0,-176.60000000000002,2241.7,2025-01-29 10:42:07,1
4958.799999999999,1274.0,-680.0,-3039.0,4616.4,1172.7,2025-01-29 10:42:07,1
1406.7999999999993,-234.0,-256.0,-2799.0,7590.4,982.7,2025-01-29 10:42:07,1
-933.2000000000008,-1278.0,372.0,-2443.0,8051.4,1304.7,2025-01-29 10:42:07,1
-3125.2000000000007,-1586.0,528.0,-1653.0,5328.4,2054.7,2025-01-29 10:42:07,1
-3981.2000000000007,-1538.0,456.0,-561.0,1274.4,3337.7,2025-01-29 10:42:07,1
-2589.2000000000007,-1158.0,-504.0,149.0,-1337.6,4107.7,2025-01-29 10:42:07,1
-1181.2000000000007,-766.0,-300.0,425.0,-2521.6,4141.7,2025-01-29 10:42:07,1
262.7999999999993,-242.0,512.0,955.0,-3184.6,4295.7,2025-01-29 10:42:08,1
1706.7999999999993,634.0,852.0,1227.0,-3273.6,4349.7,2025-01-29 10:42:08,1
2642.7999999999997,1342.0,1576.0,1309.0,-2105.6,4088.7,2025-01-29 10:42:08,1
3106.7999999999997,1678.0,1812.0,1299.0,-622.6,3622.7,2025-01-29 10:42:08,1
2790.7999999999997,2062.0,1632.0,1294.0,1057.4,3095.7,2025-01-29 10:42:08,1
1870.7999999999995,2114.0,1808.0,1266.0,2318.4,2716.7,2025-01-29 10:42:08,1
1050.7999999999993,1858.0,1300.0,1206.0,2640.4,2520.7,2025-01-29 10:42:08,1
242.79999999999927,1734.0,1400.0,1071.0,2161.4,2326.7,2025-01-29 10:42:08,1
346.7999999999993,786.0,1704.0,1393.0,804.4,1744.7,2025-01-29 10:42:08,1
514.7999999999993,506.0,2128.0,2040.0,-929.6,1278.7,2025-01-29 10:42:08,1
714.7999999999993,398.0,2280.0,2587.0,-1332.6,927.7,2025-01-29 10:42:08,1
994.7999999999992,114.0,2728.0,3157.0,-1316.6,321.7,2025-01-29 10:42:08,1
386.7999999999993,-22.0,2628.0,3553.0,-1561.6,-100.3,2025-01-29 10:42:08,1
-233.20000000000076,134.0,2420.0,3821.0,-1829.6,-223.3,2025-01-29 10:42:08,1
-933.2000000000008,806.0,2036.0,3886.0,-2150.6,-248.3,2025-01-29 10:42:08,1
-1297.2000000000007,1222.0,1664.0,3725.0,-2439.6,-108.3,2025-01-29 10:42:08,1
-1601.2000000000007,1226.0,2432.0,3570.0,-2711.6,128.7,2025-01-29 10:42:08,1
-1465.2000000000007,882.0,2540.0,3559.0,-3083.6,275.7,2025-01-29 10:42:08,1
-1181.2000000000007,570.0,3004.0,3720.0,-3387.6,430.7,2025-01-29 10:42:08,1
-1189.2000000000007,674.0,3156.0,4041.0,-3067.6,800.7,2025-01-29 10:42:08,1
-1041.2000000000007,394.0,3496.0,4351.0,-1278.6,1172.7,2025-01-29 10:42:08,1
-1121.2000000000007,-458.0,2780.0,4635.0,397.4,1428.7,2025-01-29 10:42:08,1
-1173.2000000000007,-450.0,2272.0,4811.0,1475.4,1353.7,2025-01-29 10:42:08,1
-3377.2000000000007,1598.0,1572.0,5023.0,2368.4,1916.7,2025-01-29 10:42:08,1
-4005.2000000000007,2194.0,1864.0,4946.0,2475.4,2578.7,2025-01-29 10:42:08,1
-4513.200000000001,1194.0,2044.0,4737.0,1583.4,2535.7,2025-01-29 10:42:08,1
-4921.200000000001,-814.0,1344.0,4577.0,1084.4,2720.7,2025-01-29 10:42:08,1
-4869.200000000001,-1214.0,552.0,4451.0,1035.4,3344.7,2025-01-29 10:42:08,1
-5141.200000000001,1990.0,-1772.0,4223.0,2545.4,4572.7,2025-01-29 10:42:08,1
-4569.200000000001,4746.0,-5844.0,2017.0,4271.4,5694.7,2025-01-29 10:42:08,1
-2949.2000000000007,5550.0,-6284.0,-545.0,4007.4,5219.7,2025-01-29 10:42:08,1
-521.2000000000007,5014.0,-3532.0,-1877.0,968.4,2731.7,2025-01-29 10:42:08,1
1302.7999999999993,2942.0,-2112.0,-1495.0,-2955.6,-612.3,2025-01-29 10:42:08,1
1586.7999999999993,986.0,-1776.0,-1313.0,-5982.6,-2233.3,2025-01-29 10:42:08,1
3710.7999999999993,-658.0,720.0,-578.0,-7364.6,-2539.3,2025-01-29 10:42:08,1
5630.799999999999,-2518.0,1708.0,595.0,-6387.6,-2398.3,2025-01-29 10:42:08,1
6538.799999999999,-4434.0,1632.0,1376.0,-3474.6,-2115.3,2025-01-29 10:42:08,1
5894.799999999999,-5950.0,1392.0,1759.0,1303.4,-1635.3,2025-01-29 10:42:08,1
4090.7999999999993,-5046.0,904.0,2224.0,5972.4,-559.3,2025-01-29 10:42:08,1
2494.7999999999997,-3194.0,-776.0,2490.0,8600.4,270.7,2025-01-29 10:42:08,1
102.79999999999929,-1042.0,-1772.0,2007.0,9658.4,-49.30000000000001,2025-01-29 10:42:08,1
-2205.2000000000007,594.0,-1668.0,1184.0,7984.4,-343.3,2025-01-29 10:42:08,1
-3433.2000000000007,1282.0,-476.0,441.0,3828.4,-720.3,2025-01-29 10:42:08,1
-3689.2000000000007,190.0,-280.0,6.0,-751.6,-1450.3,2025-01-29 10:42:08,1
-3205.2000000000007,-742.0,-492.0,64.0,-3764.6,-1420.3,2025-01-29 10:42:08,1
-1065.2000000000007,-1078.0,-1044.0,36.0,-5206.6,-1036.3,2025-01-29 10:42:08,1
1118.7999999999993,-1282.0,-324.0,-121.0,-5083.6,-1192.3,2025-01-29 10:42:08,1
2422.7999999999997,-1190.0,508.0,-353.0,-3774.6,-1735.3,2025-01-29 10:42:08,1
2818.7999999999997,-1194.0,1108.0,-652.0,-1639.6,-2140.3,2025-01-29 10:42:08,1
2438.7999999999997,-1534.0,1932.0,-801.0,502.4,-2204.3,2025-01-29 10:42:08,1
1794.7999999999993,-1690.0,2280.0,-964.0,2180.4,-2418.3,2025-01-29 10:42:08,1
434.7999999999993,-1674.0,2320.0,-1083.0,2523.4,-2826.3,2025-01-29 10:42:08,1
-545.2000000000007,-1694.0,1724.0,-1259.0,2354.4,-2836.3,2025-01-29 10:42:08,1
-1229.2000000000007,-1338.0,1340.0,-1545.0,1694.4,-2479.3,2025-01-29 10:42:08,1
-1457.2000000000007,-994.0,1312.0,-1879.0,735.4,-2155.3,2025-01-29 10:42:08,1
-1365.2000000000007,-830.0,1168.0,-2339.0,-541.6,-1855.3,2025-01-29 10:42:08,1
-665.2000000000007,-1086.0,2156.0,-2810.0,-1302.6,-1681.3,2025-01-29 10:42:08,1
574.7999999999993,-1106.0,1572.0,-3050.0,-1485.6,-1485.3,2025-01-29 10:42:08,1
182.79999999999927,-1210.0,2528.0,-3199.0,-1195.6,-1156.3,2025-01-29 10:42:09,1
170.79999999999927,-1490.0,2880.0,-3449.0,-672.6,-1026.3,2025-01-29 10:42:09,1
482.7999999999993,-1554.0,2860.0,-3580.0,41.39999999999998,-869.3,2025-01-29 10:42:09,1
750.7999999999993,-1786.0,2696.0,-3655.0,632.4,-790.3,2025-01-29 10:42:09,1
1054.7999999999993,-1878.0,1780.0,-3720.0,1413.4,-860.3,2025-01-29 10:42:09,1
1174.7999999999993,-1794.0,1404.0,-3683.0,2874.4,-1456.3,2025-01-29 10:42:09,1
126.79999999999929,-1014.0,728.0,-3751.0,3688.4,-1843.3,2025-01-29 10:42:09,1
-1089.2000000000007,-938.0,1388.0,-3744.0,3556.4,-1751.3,2025-01-29 10:42:09,1
-1221.2000000000007,-1526.0,1416.0,-3476.0,2884.4,-2103.3,2025-01-29 10:42:09,1
-1841.2000000000007,-2258.0,700.0,-3415.0,1687.4,-2601.3,2025-01-29 10:42:09,1
-2437.2000000000007,-2638.0,964.0,-3416.0,457.4,-3138.3,2025-01-29 10:42:09,1
-2733.2000000000007,-2138.0,2240.0,-3228.0,-717.6,-3755.3,2025-01-29 10:42:09,1
-2821.2000000000007,-1366.0,2748.0,-3399.0,-2229.6,-4327.3,2025-01-29 10:42:09,1
-1373.2000000000007,-698.0,348.0,-3149.0,-2784.6,-4976.3,2025-01-29 10:42:09,1
-393.2000000000007,-1822.0,-996.0,-3188.0,-1595.6,-5525.3,2025-01-29 10:42:09,1
506.7999999999993,-4354.0,-228.0,-2188.0,524.4,-6507.3,2025-01-29 10:42:09,1
-569.2000000000007,-6462.0,-616.0,-579.0,2984.4,-7377.3,2025-01-29 10:42:09,1
-4349.200000000001,-7318.0,-2008.0,725.0,4559.4,-6467.3,2025-01-29 10:42:09,1
-6829.200000000001,-6794.0,-3732.0,1424.0,3659.4,-3152.3,2025-01-29 10:42:09,1
-6529.200000000001,-5398.0,-5032.0,1588.0,-24.600000000000023,615.7,2025-01-29 10:42:09,1
-4573.200000000001,-2834.0,-4720.0,825.0,-4018.6,2109.7,2025-01-29 10:42:09,1
-2565.2000000000007,-1670.0,-3732.0,-631.0,-7439.6,3166.7,2025-01-29 10:42:09,1
478.7999999999993,-934.0,-3124.0,-1031.0,-8899.6,4461.7,2025-01-29 10:42:09,1
3630.7999999999993,462.0,-2956.0,-1366.0,-9064.6,5312.7,2025-01-29 10:42:09,1
6274.799999999999,1638.0,-1808.0,-1654.0,-7603.6,4961.7,2025-01-29 10:42:09,1
7866.799999999999,2318.0,-240.0,-1618.0,-4464.6,3442.7,2025-01-29 10:42:09,1
7766.799999999999,2102.0,668.0,-1259.0,145.39999999999998,1534.7,2025-01-29 10:42:09,1
5758.799999999999,1306.0,432.0,-1277.0,4780.4,128.7,2025-01-29 10:42:09,1
2494.7999999999997,390.0,340.0,-1557.0,7569.4,-50.30000000000001,2025-01-29 10:42:09,1
-345.2000000000007,-338.0,-404.0,-1830.0,8179.4,373.7,2025-01-29 10:42:09,1
-2617.2000000000007,-978.0,-872.0,-2041.0,6917.4,859.7,2025-01-29 10:42:09,1
-4193.200000000001,-982.0,-992.0,-1855.0,3729.4,1567.7,2025-01-29 10:42:09,1
-4525.200000000001,-578.0,-980.0,-1456.0,-853.6,2526.7,2025-01-29 10:42:09,1
-2965.2000000000007,-162.0,-1192.0,-1335.0,-4571.6,3005.7,2025-01-29 10:42:09,1
-977.2000000000008,858.0,-776.0,-1395.0,-6252.6,3305.7,2025-01-29 10:42:09,1
1298.7999999999993,1198.0,192.0,-1332.0,-6457.6,3388.7,2025-01-29 10:42:09,1
2770.7999999999997,1014.0,1528.0,-1313.0,-5249.6,2850.7,2025-01-29 10:42:09,1
3606.7999999999993,830.0,2056.0,-1039.0,-2790.6,1863.7,2025-01-29 10:42:09,1
3026.7999999999997,414.0,2640.0,-645.0,-420.6,1157.7,2025-01-29 10:42:09,1
1982.7999999999995,158.0,2304.0,-388.0,922.4,1029.7,2025-01-29 10:42:09,1
750.7999999999993,290.0,1668.0,-301.0,1503.4,1127.7,2025-01-29 10:42:09,1
26.799999999999272,978.0,1408.0,-116.0,1500.4,1334.7,2025-01-29 10:42:09,1
-189.20000000000076,1262.0,1648.0,158.0,826.4,1123.7,2025-01-29 10:42:09,1
-21.200000000000728,1458.0,1508.0,568.0,-207.6,629.7,2025-01-29 10:42:09,1
154.79999999999927,1434.0,1532.0,766.0,-932.6,104.7,2025-01-29 10:42:09,1
298.7999999999993,802.0,1800.0,983.0,-1242.6,-271.3,2025-01-29 10:42:09,1
18.799999999999272,470.0,2304.0,1218.0,-1181.6,-507.3,2025-01-29 10:42:09,1
-193.20000000000076,462.0,2280.0,1405.0,-1173.6,-711.3,2025-01-29 10:42:09,1
-737.2000000000007,654.0,1620.0,1473.0,-1537.6,-918.3,2025-01-29 10:42:09,1
-981.2000000000008,878.0,1448.0,1477.0,-1930.6,-1052.3,2025-01-29 10:42:09,1
-925.2000000000008,994.0,1200.0,1422.0,-2516.6,-1072.3,2025-01-29 10:42:09,1
-565.2000000000007,1342.0,1112.0,1227.0,-3301.6,-927.3,2025-01-29 10:42:09,1
146.79999999999927,1746.0,512.0,773.0,-3085.6,-721.3,2025-01-29 10:42:09,1
74.79999999999927,1998.0,-128.0,236.0,-1311.6,-541.3,2025-01-29 10:42:09,1
-653.2000000000007,1666.0,740.0,-283.0,929.4,-189.3,2025-01-29 10:42:09,1
-1577.2000000000007,1586.0,1784.0,-184.0,1902.4,300.7,2025-01-29 10:42:09,1
-2233.2000000000007,978.0,2076.0,245.0,2322.4,421.7,2025-01-29 10:42:09,1
-2741.2000000000007,-342.0,2712.0,819.0,1455.4,123.7,2025-01-29 10:42:09,1
-3981.2000000000007,-1526.0,3684.0,1855.0,-139.60000000000002,248.7,2025-01-29 10:42:09,1
-3737.2000000000007,-1774.0,3780.0,3232.0,-992.6,770.7,2025-01-29 10:42:09,1
-1969.2000000000007,-986.0,2560.0,3943.0,-1732.6,357.7,2025-01-29 10:42:09,1
-1481.2000000000007,706.0,624.0,4217.0,-1683.6,-185.3,2025-01-29 10:42:09,1
-1273.2000000000007,1594.0,-1536.0,3783.0,-235.6,-343.3,2025-01-29 10:42:09,1
-1985.2000000000007,2918.0,-4296.0,1376.0,2688.4,48.69999999999999,2025-01-29 10:42:10,1
-2345.2000000000007,2666.0,-3216.0,-198.0,2270.4,-220.3,2025-01-29 10:42:10,1
-1793.2000000000007,894.0,-1856.0,-691.0,-199.6,-952.3,2025-01-29 10:42:10,1
-409.2000000000007,-1182.0,-1620.0,-153.0,-3221.6,-1314.3,2025-01-29 10:42:10,1
1958.7999999999995,-3442.0,-796.0,673.0,-4378.6,-1576.3,2025-01-29 10:42:10,1
3262.7999999999997,-5022.0,-12.0,1364.0,-3336.6,-1821.3,2025-01-29 10:42:10,1
3066.7999999999997,-5282.0,1308.0,2051.0,-649.6,-1403.3,2025-01-29 10:42:10,1
2482.7999999999997,-4802.0,780.0,2880.0,2686.4,-456.3,2025-01-29 10:42:10,1
2146.7999999999997,-3702.0,-428.0,3002.0,5162.4,49.69999999999999,2025-01-29 10:42:10,1
738.7999999999993,-2286.0,-616.0,2731.0,5420.4,-173.3,2025-01-29 10:42:10,1
-829.2000000000007,-1598.0,-672.0,2597.0,4476.4,-370.3,2025-01-29 10:42:10,1
-1565.2000000000007,-1838.0,-1228.0,2762.0,1690.4,-538.3,2025-01-29 10:42:10,1
-1025.2000000000007,-2502.0,-1432.0,2987.0,-31.600000000000023,-491.3,2025-01-29 10:42:10,1
250.79999999999927,-2822.0,-844.0,3161.0,-1017.6,-68.30000000000001,2025-01-29 10:42:10,1
1998.7999999999995,-2878.0,284.0,3251.0,-1276.6,247.7,2025-01-29 10:42:10,1
3506.7999999999997,-3210.0,276.0,3381.0,-779.6,300.7,2025-01-29 10:42:10,1
4066.7999999999993,-2962.0,-212.0,3242.0,859.4,84.69999999999999,2025-01-29 10:42:10,1
3614.7999999999993,-2322.0,-580.0,2844.0,2828.4,-322.3,2025-01-29 10:42:10,1
2306.7999999999997,-1838.0,-1128.0,2221.0,3715.4,-558.3,2025-01-29 10:42:10,1
1210.7999999999993,-1482.0,-1020.0,1503.0,3262.4,-590.3,2025-01-29 10:42:10,1
394.7999999999993,-1482.0,-1272.0,826.0,2400.4,-399.3,2025-01-29 10:42:10,1
246.79999999999927,-1030.0,-1788.0,76.0,1432.4,-157.3,2025-01-29 10:42:10,1
382.7999999999993,-506.0,-2396.0,-889.0,1035.4,-81.30000000000001,2025-01-29 10:42:10,1
766.7999999999993,226.0,-2600.0,-1924.0,1206.4,-26.30000000000001,2025-01-29 10:42:10,1
778.7999999999993,322.0,-2272.0,-3011.0,1439.4,-119.3,2025-01-29 10:42:10,1
358.7999999999993,-718.0,-1520.0,-3668.0,1262.4,-287.3,2025-01-29 10:42:10,1
-457.2000000000007,-1714.0,-984.0,-3825.0,359.4,-275.3,2025-01-29 10:42:10,1
-913.2000000000008,-3118.0,-324.0,-3835.0,-1077.6,-78.30000000000001,2025-01-29 10:42:10,1
-997.2000000000008,-3406.0,632.0,-3432.0,-2022.6,124.7,2025-01-29 10:42:10,1
-669.2000000000007,-2926.0,840.0,-2925.0,-1914.6,423.7,2025-01-29 10:42:10,1
-233.20000000000076,-2102.0,992.0,-2501.0,-1881.6,776.7,2025-01-29 10:42:10,1
546.7999999999993,-1750.0,1196.0,-2343.0,-2210.6,1223.7,2025-01-29 10:42:10,1
1714.7999999999993,-1354.0,372.0,-2279.0,-2284.6,1547.7,2025-01-29 10:42:10,1
2494.7999999999997,-1978.0,-732.0,-2290.0,-1103.6,1242.7,2025-01-29 10:42:10,1
1358.7999999999993,-2110.0,-1196.0,-2039.0,1169.4,731.7,2025-01-29 10:42:10,1
-273.2000000000007,-1486.0,-1724.0,-1531.0,3199.4,576.7,2025-01-29 10:42:10,1
-1401.2000000000007,-750.0,-940.0,-1382.0,2166.4,603.7,2025-01-29 10:42:10,1
-1269.2000000000007,-378.0,-524.0,-1163.0,-766.6,680.7,2025-01-29 10:42:10,1
-361.2000000000007,-270.0,-804.0,-1127.0,-2124.6,710.7,2025-01-29 10:42:10,1
650.7999999999993,-138.0,-204.0,-1215.0,-1934.6,804.7,2025-01-29 10:42:10,1
1406.7999999999993,-270.0,352.0,-1354.0,-1083.6,881.7,2025-01-29 10:42:10,1
1810.7999999999995,-834.0,-108.0,-1439.0,374.4,808.7,2025-01-29 10:42:10,1
1510.7999999999993,-1510.0,-676.0,-1212.0,2101.4,736.7,2025-01-29 10:42:10,1
926.7999999999992,-1418.0,-724.0,-753.0,3074.4,480.7,2025-01-29 10:42:10,1
-65.20000000000073,-1302.0,-464.0,-402.0,2954.4,50.69999999999999,2025-01-29 10:42:10,1
-933.2000000000008,-758.0,-172.0,-61.0,1963.4,-172.3,2025-01-29 10:42:10,1
-1453.2000000000007,-242.0,88.0,254.0,662.4,-172.3,2025-01-29 10:42:10,1
-837.2000000000007,326.0,-216.0,311.0,-430.6,-122.3,2025-01-29 10:42:10,1
-253.20000000000076,414.0,-288.0,43.0,-507.6,-111.3,2025-01-29 10:42:10,1
366.7999999999993,486.0,-420.0,-301.0,-192.6,-88.30000000000001,2025-01-29 10:42:10,1
698.7999999999993,74.0,-120.0,-543.0,10.399999999999975,-96.3,2025-01-29 10:42:10,1
626.7999999999993,-162.0,-96.0,-605.0,283.4,-96.3,2025-01-29 10:42:10,1
698.7999999999993,-438.0,-64.0,-611.0,627.4,-113.3,2025-01-29 10:42:10,1
374.7999999999993,-254.0,124.0,-467.0,942.4,-103.3,2025-01-29 10:42:10,1
254.79999999999927,18.0,-260.0,-346.0,1094.4,-86.30000000000001,2025-01-29 10:42:10,1
-109.20000000000071,134.0,-568.0,-395.0,1004.4,-6.300000000000011,2025-01-29 10:42:10,1
-217.20000000000076,22.0,-488.0,-333.0,780.4,117.7,2025-01-29 10:42:10,1
-205.20000000000076,78.0,-484.0,-276.0,533.4,163.7,2025-01-29 10:42:10,1
-117.20000000000071,-14.0,-168.0,-204.0,137.39999999999998,66.69999999999999,2025-01-29 10:42:10,1
-157.20000000000073,-278.0,32.0,-49.0,-141.60000000000002,39.69999999999999,2025-01-29 10:42:10,1
-129.20000000000073,-114.0,-248.0,130.0,-210.6,32.69999999999999,2025-01-29 10:42:10,1
222.79999999999927,-66.0,-372.0,143.0,-153.60000000000002,16.69999999999999,2025-01-29 10:42:11,1
238.79999999999927,166.0,-412.0,106.0,-32.60000000000002,-50.30000000000001,2025-01-29 10:42:11,1
90.79999999999929,154.0,-160.0,103.0,-22.600000000000023,-6.300000000000011,2025-01-29 10:42:11,1
206.79999999999927,226.0,-328.0,16.0,-131.60000000000002,-14.300000000000011,2025-01-29 10:42:11,1
318.7999999999993,294.0,-160.0,-71.0,-68.60000000000002,-27.30000000000001,2025-01-29 10:42:11,1
422.7999999999993,242.0,-236.0,-146.0,-4.600000000000023,-90.3,2025-01-29 10:42:11,1
318.7999999999993,10.0,-376.0,-295.0,180.4,-188.3,2025-01-29 10:42:11,1
150.79999999999927,-142.0,-212.0,-326.0,244.4,-156.3,2025-01-29 10:42:11,1
10.799999999999272,-142.0,-44.0,-285.0,180.4,-94.3,2025-01-29 10:42:11,1
130.79999999999927,-238.0,-92.0,-275.0,73.39999999999998,-136.3,2025-01-29 10:42:11,1
94.79999999999929,-410.0,-44.0,-207.0,5.399999999999977,-154.3,2025-01-29 10:42:11,1
142.79999999999927,-282.0,-68.0,-186.0,-5.600000000000023,-211.3,2025-01-29 10:42:11,1
138.79999999999927,-258.0,20.0,-102.0,6.399999999999977,-134.3,2025-01-29 10:42:11,1
190.79999999999927,-346.0,-40.0,-81.0,108.39999999999998,-139.3,2025-01-29 10:42:11,1
250.79999999999927,-378.0,-240.0,-40.0,195.4,-109.3,2025-01-29 10:42:11,1
142.79999999999927,-318.0,-104.0,-11.0,243.4,-101.3,2025-01-29 10:42:11,1
114.79999999999929,-282.0,-244.0,-7.0,272.4,-99.3,2025-01-29 10:42:11,1
98.79999999999929,-246.0,-536.0,30.0,249.4,-75.30000000000001,2025-01-29 10:42:11,1
106.79999999999929,-118.0,-540.0,6.0,188.4,-55.30000000000001,2025-01-29 10:42:11,1
138.79999999999927,-146.0,-344.0,23.0,138.39999999999998,-45.30000000000001,2025-01-29 10:42:11,1
206.79999999999927,-206.0,-360.0,-24.0,131.39999999999998,-104.3,2025-01-29 10:42:11,1
74.79999999999927,-258.0,-256.0,-42.0,81.39999999999998,-100.3,2025-01-29 10:42:11,1
6.799999999999272,-206.0,-144.0,-35.0,68.39999999999998,-60.30000000000001,2025-01-29 10:42:11,1
194.79999999999927,-266.0,-380.0,-50.0,-3.6000000000000227,-93.3,2025-01-29 10:42:11,1
230.79999999999927,-354.0,-392.0,-88.0,-21.600000000000023,-91.3,2025-01-29 10:42:11,1
394.7999999999993,-370.0,-384.0,-131.0,53.39999999999998,-88.30000000000001,2025-01-29 10:42:11,1
334.7999999999993,-342.0,132.0,-142.0,342.4,-137.3,2025-01-29 10:42:11,1
402.7999999999993,-286.0,-168.0,-90.0,433.4,-160.3,2025-01-29 10:42:11,1
550.7999999999993,-474.0,-400.0,-91.0,390.4,-204.3,2025-01-29 10:42:11,1
418.7999999999993,-506.0,-408.0,-92.0,619.4,-252.3,2025-01-29 10:42:11,1
498.7999999999993,-530.0,-200.0,-14.0,789.4,-290.3,2025-01-29 10:42:11,1
386.7999999999993,-386.0,-348.0,54.0,755.4,-342.3,2025-01-29 10:42:11,1
458.7999999999993,-494.0,-588.0,80.0,852.4,-405.3,2025-01-29 10:42:11,1
542.7999999999993,-454.0,-372.0,156.0,890.4,-374.3,2025-01-29 10:42:11,1
550.7999999999993,-646.0,-700.0,221.0,1011.4,-403.3,2025-01-29 10:42:11,5
678.7999999999993,-914.0,-716.0,354.0,1282.4,-404.3,2025-01-29 10:42:11,5
622.7999999999993,-1162.0,-548.0,577.0,1587.4,-432.3,2025-01-29 10:42:11,5
458.7999999999993,-1210.0,-804.0,849.0,1815.4,-378.3,2025-01-29 10:42:11,5
294.7999999999993,-930.0,-1104.0,1023.0,1594.4,-240.3,2025-01-29 10:42:11,5
62.79999999999927,-714.0,-1364.0,1050.0,1188.4,-8.300000000000011,2025-01-29 10:42:11,5
282.7999999999993,-474.0,-1644.0,971.0,824.4,195.7,2025-01-29 10:42:11,5
334.7999999999993,-646.0,-1480.0,884.0,381.4,439.7,2025-01-29 10:42:11,5
914.7999999999992,-822.0,-1852.0,826.0,-28.600000000000023,708.7,2025-01-29 10:42:11,5
1514.7999999999993,-1030.0,-2112.0,715.0,32.39999999999998,613.7,2025-01-29 10:42:11,5
1090.7999999999993,-934.0,-1560.0,560.0,281.4,514.7,2025-01-29 10:42:11,5
686.7999999999993,-1082.0,-1052.0,471.0,117.39999999999998,848.7,2025-01-29 10:42:11,5
958.7999999999992,-902.0,-1288.0,383.0,-390.6,1421.7,2025-01-29 10:42:11,5
1842.7999999999995,-462.0,-1836.0,331.0,-922.6,1886.7,2025-01-29 10:42:11,5
3238.7999999999997,-190.0,-2376.0,193.0,-1051.6,2085.7,2025-01-29 10:42:11,5
5338.799999999999,70.0,-2640.0,-26.0,-1108.6,2100.7,2025-01-29 10:42:11,5
6706.799999999999,22.0,-2356.0,-147.0,-951.6,1974.7,2025-01-29 10:42:11,5
8226.8,-674.0,-592.0,-576.0,-354.6,2008.7,2025-01-29 10:42:12,5
8578.8,-1102.0,2660.0,-816.0,-93.60000000000002,1986.7,2025-01-29 10:42:12,5
8926.8,-946.0,6076.0,-1032.0,40.39999999999998,1946.7,2025-01-29 10:42:12,5
8618.8,-54.0,9116.0,-908.0,306.4,1795.7,2025-01-29 10:42:12,5
8030.799999999999,470.0,12312.0,-438.0,1857.4,1309.7,2025-01-29 10:42:12,5
5958.799999999999,562.0,12632.0,93.0,4445.4,946.7,2025-01-29 10:42:12,5
3770.7999999999993,122.0,12300.0,1058.0,4887.4,837.7,2025-01-29 10:42:12,5
2090.7999999999997,-214.0,8244.0,1778.0,3927.4,984.7,2025-01-29 10:42:12,5
1994.7999999999995,-42.0,4212.0,1938.0,2175.4,1440.7,2025-01-29 10:42:12,5
-15261.2,-4202.0,-16004.0,300.0,1273.4,-1801.3,2025-01-29 10:42:12,5
-21733.2,-7570.0,-13256.0,2280.0,5215.4,397.7,2025-01-29 10:42:12,5
-21733.2,-7878.0,-12172.0,3702.0,16895.4,1918.7,2025-01-29 10:42:12,5
-21733.2,-3638.0,-17496.0,4246.0,32503.4,476.7,2025-01-29 10:42:12,5
-21733.2,1258.0,-22624.0,4718.0,32503.4,-1360.3,2025-01-29 10:42:12,5
-17865.2,3662.0,-25076.0,5930.0,32503.4,-2868.3,2025-01-29 10:42:12,5
-4977.200000000001,2910.0,-25076.0,6098.0,32503.4,-4737.3,2025-01-29 10:42:12,5
11426.8,2206.0,-25076.0,5451.0,32503.4,-6144.3,2025-01-29 10:42:12,5
11122.8,754.0,-25076.0,2876.0,21399.4,-8709.3,2025-01-29 10:42:12,5
6826.799999999999,-1874.0,-25076.0,-3412.0,-11505.6,-7550.3,2025-01-29 10:42:12,5
7306.799999999999,-2850.0,-17348.0,-8002.0,-33031.6,-1266.3,2025-01-29 10:42:12,5
13686.8,-3134.0,-8724.0,-8802.0,-33031.6,4885.7,2025-01-29 10:42:12,5
20490.8,-2170.0,-6316.0,-8503.0,-33031.6,9666.7,2025-01-29 10:42:12,5
19426.8,-1418.0,-9844.0,-10581.0,-33031.6,12491.7,2025-01-29 10:42:12,5
9018.8,-1550.0,30660.0,-49.0,-33031.6,10733.7,2025-01-29 10:42:12,5
-1701.2000000000007,-4330.0,-19260.0,-1141.0,-33031.6,10587.7,2025-01-29 10:42:12,5
-517.2000000000007,-3598.0,-25076.0,-5389.0,-33031.6,10433.7,2025-01-29 10:42:12,5
18434.8,-2662.0,-16652.0,-8479.0,-33031.6,9097.7,2025-01-29 10:42:12,5
43801.8,-2818.0,12816.0,-11954.0,-33031.6,8592.7,2025-01-29 10:42:12,5
43801.8,586.0,35008.0,-7449.0,-33031.6,3728.7,2025-01-29 10:42:12,5
33522.8,-1050.0,11736.0,-3840.0,-33031.6,84.69999999999999,2025-01-29 10:42:12,5
11174.8,-1422.0,-2208.0,-2821.0,-33031.6,176.7,2025-01-29 10:42:12,5
3846.7999999999993,-690.0,-7960.0,-2729.0,-5918.6,1629.7,2025-01-29 10:42:12,5
6922.799999999999,1098.0,-7436.0,-2271.0,12583.4,2685.7,2025-01-29 10:42:12,5
13454.8,2402.0,-2016.0,-976.0,23101.4,1744.7,2025-01-29 10:42:12,5
17078.8,2494.0,2752.0,502.0,32503.4,-329.3,2025-01-29 10:42:12,5
16562.8,1146.0,5160.0,803.0,32503.4,-2248.3,2025-01-29 10:42:12,5
15854.8,-978.0,4164.0,375.0,32503.4,-3728.3,2025-01-29 10:42:12,5
16454.8,-4370.0,13568.0,1620.0,32503.4,-4519.3,2025-01-29 10:42:12,5
13950.8,-2134.0,16308.0,3357.0,32503.4,-4076.3,2025-01-29 10:42:12,5
10558.8,-142.0,16024.0,4525.0,32503.4,-2751.3,2025-01-29 10:42:12,5
6022.799999999999,102.0,5880.0,2155.0,5956.4,-560.3,2025-01-29 10:42:12,5
1414.7999999999993,1550.0,5160.0,-1692.0,-1469.6,1314.7,2025-01-29 10:42:12,5
5906.799999999999,2850.0,9308.0,-2769.0,-1767.6,1965.7,2025-01-29 10:42:12,5
10934.8,942.0,7032.0,-3682.0,-10096.6,1143.7,2025-01-29 10:42:12,5
11918.8,-38.0,5732.0,-4780.0,-16272.6,-273.3,2025-01-29 10:42:12,5
11442.8,-506.0,3176.0,-5584.0,-14584.6,-1185.3,2025-01-29 10:42:12,5
15002.8,130.0,4924.0,-6093.0,-14332.6,-474.3,2025-01-29 10:42:12,5
14134.8,770.0,10444.0,-5804.0,-16517.6,1472.7,2025-01-29 10:42:12,5
6126.799999999999,1038.0,7168.0,-3293.0,239.4,3089.7,2025-01-29 10:42:12,5
1082.7999999999993,1258.0,-6468.0,-2034.0,27212.4,1929.7,2025-01-29 10:42:12,5
-5893.200000000001,1122.0,-6116.0,1197.0,32503.4,-1343.3,2025-01-29 10:42:12,5
-7613.200000000001,-1518.0,600.0,7394.0,32503.4,-4865.3,2025-01-29 10:42:12,5
-10029.2,-4830.0,-22124.0,7438.0,32503.4,-18296.3,2025-01-29 10:42:12,5
-21733.2,2470.0,-14340.0,7049.0,32503.4,-32622.3,2025-01-29 10:42:12,5
-21733.2,-20974.0,-25076.0,-5578.0,32503.4,-736.3,2025-01-29 10:42:12,5
42754.8,-4590.0,-25076.0,4644.0,32503.4,-3553.3,2025-01-29 10:42:12,5
43801.8,3430.0,-25076.0,8527.0,-10709.6,-749.3,2025-01-29 10:42:12,5
18686.8,2502.0,-25076.0,-1221.0,-33031.6,5429.7,2025-01-29 10:42:12,5
-761.2000000000007,3558.0,-19712.0,-5805.0,-33031.6,4844.7,2025-01-29 10:42:12,5
1918.7999999999995,574.0,1832.0,-9835.0,-33031.6,1946.7,2025-01-29 10:42:12,5
2394.7999999999997,1830.0,6956.0,-14224.0,-33031.6,2398.7,2025-01-29 10:42:13,5
3586.7999999999997,-3958.0,-6832.0,-673.0,9320.4,7184.7,2025-01-29 10:42:13,5
16454.8,-4238.0,9192.0,3547.0,29957.4,5396.7,2025-01-29 10:42:13,5
27866.8,-5854.0,20528.0,4123.0,-8472.6,2589.7,2025-01-29 10:42:13,5
13990.8,-1410.0,11776.0,2229.0,-32638.6,-540.3,2025-01-29 10:42:13,5
9470.8,-114.0,2696.0,1648.0,-18834.6,-3062.3,2025-01-29 10:42:13,5
8054.799999999999,926.0,808.0,952.0,2700.4,-4715.3,2025-01-29 10:42:13,5
5442.799999999999,1214.0,3512.0,1046.0,17034.4,-4492.3,2025-01-29 10:42:13,5
2850.7999999999997,-42.0,5288.0,558.0,31867.4,-3039.3,2025-01-29 10:42:13,5
5582.799999999999,-350.0,6816.0,687.0,32503.4,-1787.3,2025-01-29 10:42:13,5
4626.799999999999,-1002.0,2916.0,2114.0,32503.4,-1987.3,2025-01-29 10:42:13,5
-1433.2000000000007,-1422.0,-1848.0,1298.0,32503.4,-5143.3,2025-01-29 10:42:13,5
-4977.200000000001,3866.0,3900.0,-80.0,32503.4,-7581.3,2025-01-29 10:42:13,5
-14761.2,3498.0,4640.0,891.0,32503.4,-6686.3,2025-01-29 10:42:13,5
-12217.2,-1726.0,-2972.0,1469.0,21939.4,-3395.3,2025-01-29 10:42:13,5
-4573.200000000001,-4034.0,-9244.0,1780.0,4045.4,896.7,2025-01-29 10:42:13,5
-693.2000000000007,-3002.0,-10112.0,988.0,-16271.6,3625.7,2025-01-29 10:42:13,5
1022.7999999999992,-1046.0,-7412.0,38.0,-32463.6,3553.7,2025-01-29 10:42:13,5
-669.2000000000007,230.0,-3596.0,-681.0,-33031.6,2844.7,2025-01-29 10:42:13,5
-7349.200000000001,-146.0,13440.0,508.0,-33031.6,1978.7,2025-01-29 10:42:13,5
4302.799999999999,298.0,5996.0,1310.0,-17275.6,1943.7,2025-01-29 10:42:13,5
8594.8,-330.0,332.0,1053.0,-7778.6,1934.7,2025-01-29 10:42:13,5
7418.799999999999,-814.0,-524.0,1204.0,4438.4,672.7,2025-01-29 10:42:13,5
5054.799999999999,-1146.0,600.0,1254.0,14548.4,-1398.3,2025-01-29 10:42:13,5
558.7999999999993,-778.0,1560.0,950.0,16573.4,-1905.3,2025-01-29 10:42:13,5
-3253.2000000000007,-426.0,1620.0,931.0,14696.4,-1513.3,2025-01-29 10:42:13,5
-5869.200000000001,-422.0,1612.0,738.0,9543.4,-854.3,2025-01-29 10:42:13,5
-7065.200000000001,-566.0,956.0,566.0,2628.4,-42.30000000000001,2025-01-29 10:42:13,5
-5869.200000000001,-966.0,-128.0,786.0,-5719.6,1059.7,2025-01-29 10:42:13,5
-2749.2000000000007,-446.0,564.0,823.0,-9103.6,1715.7,2025-01-29 10:42:13,5
1010.7999999999992,-30.0,68.0,461.0,-8539.6,1900.7,2025-01-29 10:42:13,5
3150.7999999999997,154.0,980.0,336.0,-5252.6,1308.7,2025-01-29 10:42:13,5
3866.7999999999993,-102.0,1360.0,51.0,-894.6,100.7,2025-01-29 10:42:13,5
2238.7999999999997,-622.0,1808.0,-42.0,2879.4,-603.3,2025-01-29 10:42:13,5
-205.20000000000076,-1050.0,1768.0,112.0,4610.4,-534.3,2025-01-29 10:42:13,5
-1929.2000000000007,-934.0,1396.0,152.0,4160.4,-522.3,2025-01-29 10:42:13,5
-3309.2000000000007,-466.0,1364.0,-121.0,1846.4,-256.3,2025-01-29 10:42:13,5
-3217.2000000000007,-430.0,1760.0,-201.0,-937.6,114.7,2025-01-29 10:42:13,5
-2005.2000000000007,-458.0,1472.0,-231.0,-2530.6,271.7,2025-01-29 10:42:13,5
-737.2000000000007,-606.0,1528.0,-246.0,-2466.6,325.7,2025-01-29 10:42:13,5
470.7999999999993,-618.0,1548.0,-240.0,-1217.6,130.7,2025-01-29 10:42:13,5
462.7999999999993,-562.0,1472.0,-244.0,316.4,-134.3,2025-01-29 10:42:13,5
-465.2000000000007,-662.0,1816.0,-148.0,1313.4,-97.3,2025-01-29 10:42:13,5
-821.2000000000007,-654.0,1612.0,-128.0,1175.4,-4.300000000000011,2025-01-29 10:42:13,5
-1009.2000000000008,-606.0,1272.0,-261.0,744.4,-126.3,2025-01-29 10:42:13,5
-1661.2000000000007,-450.0,1596.0,-371.0,172.39999999999998,-134.3,2025-01-29 10:42:13,5
-1569.2000000000007,-350.0,1388.0,-360.0,-464.6,72.69999999999999,2025-01-29 10:42:13,5
-1093.2000000000007,-378.0,1320.0,-306.0,-621.6,96.7,2025-01-29 10:42:13,5
-773.2000000000007,-406.0,1628.0,-276.0,-638.6,20.69999999999999,2025-01-29 10:42:13,5
-709.2000000000007,-638.0,1860.0,-177.0,-505.6,-9.300000000000011,2025-01-29 10:42:13,5
-609.2000000000007,-654.0,1876.0,-39.0,-220.6,79.69999999999999,2025-01-29 10:42:13,5
-421.2000000000007,-782.0,1672.0,10.0,196.4,74.69999999999999,2025-01-29 10:42:13,5
-669.2000000000007,-646.0,1340.0,61.0,454.4,120.7,2025-01-29 10:42:13,5
-937.2000000000008,-266.0,1384.0,13.0,559.4,151.7,2025-01-29 10:42:13,5
-1221.2000000000007,66.0,1664.0,0.0,500.4,174.7,2025-01-29 10:42:13,5
-1061.2000000000007,-50.0,1196.0,-30.0,-84.60000000000002,288.7,2025-01-29 10:42:13,5
-865.2000000000007,-46.0,1024.0,-58.0,-412.6,315.7,2025-01-29 10:42:13,5
-461.2000000000007,66.0,1064.0,-93.0,-122.60000000000002,280.7,2025-01-29 10:42:13,5
-493.2000000000007,270.0,1300.0,-149.0,318.4,179.7,2025-01-29 10:42:13,5
-793.2000000000007,310.0,1120.0,-312.0,596.4,56.69999999999999,2025-01-29 10:42:13,5
-941.2000000000008,386.0,1468.0,-368.0,574.4,6.699999999999989,2025-01-29 10:42:13,7
-981.2000000000008,1082.0,1132.0,-659.0,316.4,-86.30000000000001,2025-01-29 10:42:13,7
-737.2000000000007,1390.0,820.0,-1114.0,93.39999999999998,-143.3,2025-01-29 10:42:14,7
-473.2000000000007,1506.0,1096.0,-1454.0,119.39999999999998,-130.3,2025-01-29 10:42:14,7
-57.20000000000073,1694.0,1072.0,-1698.0,324.4,-400.3,2025-01-29 10:42:14,7
34.79999999999927,1962.0,1200.0,-2049.0,890.4,-906.3,2025-01-29 10:42:14,7
-217.20000000000076,1786.0,1452.0,-2487.0,1281.4,-1383.3,2025-01-29 10:42:14,7
-621.2000000000007,1778.0,1368.0,-2781.0,1377.4,-1683.3,2025-01-29 10:42:14,7
-697.2000000000007,2186.0,1336.0,-3117.0,1206.4,-1867.3,2025-01-29 10:42:14,7
-509.2000000000007,2578.0,744.0,-3624.0,943.4,-2057.3,2025-01-29 10:42:14,7
-169.20000000000073,2394.0,800.0,-4193.0,761.4,-2493.3,2025-01-29 10:42:14,7
-65.20000000000073,2214.0,864.0,-4741.0,733.4,-3036.3,2025-01-29 10:42:14,7
-129.20000000000073,1994.0,480.0,-5269.0,687.4,-3455.3,2025-01-29 10:42:14,7
-185.20000000000076,1778.0,40.0,-5717.0,640.4,-3839.3,2025-01-29 10:42:14,7
-205.20000000000076,1514.0,-152.0,-6359.0,633.4,-4359.3,2025-01-29 10:42:14,7
-597.2000000000007,1538.0,-332.0,-6765.0,272.4,-4696.3,2025-01-29 10:42:14,7
-517.2000000000007,1430.0,-116.0,-7150.0,-291.6,-4902.3,2025-01-29 10:42:14,7
-153.20000000000073,1170.0,-576.0,-7455.0,-897.6,-5271.3,2025-01-29 10:42:14,7
298.7999999999993,554.0,-856.0,-7750.0,-1242.6,-5525.3,2025-01-29 10:42:14,7
898.7999999999993,-194.0,-284.0,-7897.0,-1181.6,-5711.3,2025-01-29 10:42:14,7
1274.7999999999993,-898.0,104.0,-7834.0,-732.6,-5859.3,2025-01-29 10:42:14,7
1282.7999999999993,-1398.0,160.0,-7721.0,-15.600000000000025,-5803.3,2025-01-29 10:42:14,7
1114.7999999999993,-1730.0,-52.0,-7802.0,1233.4,-5728.3,2025-01-29 10:42:14,7
310.7999999999993,-2090.0,-248.0,-7936.0,3161.4,-5634.3,2025-01-29 10:42:14,7
-793.2000000000007,-2006.0,-616.0,-8142.0,3723.4,-5944.3,2025-01-29 10:42:14,7
-1949.2000000000007,-1966.0,-704.0,-8394.0,3057.4,-6287.3,2025-01-29 10:42:14,7
-2561.2000000000007,-1666.0,-484.0,-8692.0,1532.4,-6527.3,2025-01-29 10:42:14,7
-2213.2000000000007,-1314.0,-196.0,-9145.0,-453.6,-7028.3,2025-01-29 10:42:14,7
-1265.2000000000007,-1158.0,-248.0,-9688.0,-1466.6,-7886.3,2025-01-29 10:42:14,7
-469.2000000000007,-1190.0,-200.0,-10209.0,-1645.6,-8487.3,2025-01-29 10:42:14,7
110.79999999999929,-1318.0,-328.0,-10662.0,-1566.6,-8828.3,2025-01-29 10:42:14,7
814.7999999999993,-1598.0,-116.0,-11108.0,-1529.6,-9058.3,2025-01-29 10:42:14,7
1250.7999999999993,-1950.0,-204.0,-11383.0,-1455.6,-9264.3,2025-01-29 10:42:14,7
1398.7999999999993,-2318.0,24.0,-11594.0,-1276.6,-9240.3,2025-01-29 10:42:14,7
1250.7999999999993,-2530.0,352.0,-11812.0,-896.6,-9140.3,2025-01-29 10:42:14,7
1094.7999999999993,-2650.0,360.0,-12051.0,-532.6,-8962.3,2025-01-29 10:42:14,7
974.7999999999992,-2754.0,312.0,-12233.0,-308.6,-8811.3,2025-01-29 10:42:14,7
366.7999999999993,-2798.0,716.0,-12337.0,-184.6,-8525.3,2025-01-29 10:42:14,7
-177.20000000000073,-3074.0,528.0,-12332.0,-374.6,-7931.3,2025-01-29 10:42:14,7
-105.20000000000071,-3278.0,600.0,-12424.0,-529.6,-7503.3,2025-01-29 10:42:14,7
-25.200000000000728,-3566.0,288.0,-12540.0,-388.6,-7152.3,2025-01-29 10:42:14,7
-229.20000000000076,-3606.0,12.0,-12660.0,-366.6,-6564.3,2025-01-29 10:42:14,7
-9.200000000000728,-3306.0,-256.0,-12651.0,6.399999999999977,-6182.3,2025-01-29 10:42:14,7
422.7999999999993,-3202.0,-600.0,-12762.0,348.4,-6287.3,2025-01-29 10:42:14,7
310.7999999999993,-2950.0,-736.0,-12775.0,257.4,-6406.3,2025-01-29 10:42:14,7
-13.200000000000728,-2946.0,-252.0,-12748.0,144.39999999999998,-6423.3,2025-01-29 10:42:14,7
-73.20000000000073,-2754.0,268.0,-12441.0,246.4,-6305.3,2025-01-29 10:42:14,7
306.7999999999993,-2678.0,-32.0,-12251.0,291.4,-6502.3,2025-01-29 10:42:14,7
246.79999999999927,-2662.0,-352.0,-12388.0,15.399999999999975,-6946.3,2025-01-29 10:42:14,7
-337.2000000000007,-3266.0,-328.0,-12540.0,-474.6,-7358.3,2025-01-29 10:42:14,7
-545.2000000000007,-3206.0,-408.0,-12862.0,-1046.6,-7521.3,2025-01-29 10:42:14,7
-449.2000000000007,-2518.0,-456.0,-13435.0,-1729.6,-7447.3,2025-01-29 10:42:14,7
-37.20000000000073,-1934.0,92.0,-14261.0,-2496.6,-7342.3,2025-01-29 10:42:14,7
382.7999999999993,-1710.0,80.0,-15295.0,-3099.6,-7010.3,2025-01-29 10:42:14,7
1222.7999999999993,-1218.0,-476.0,-16374.0,-2929.6,-7101.3,2025-01-29 10:42:14,7
1238.7999999999993,-1050.0,-880.0,-17166.0,-2393.6,-7427.3,2025-01-29 10:42:14,7
1262.7999999999993,-1690.0,-1508.0,-17445.0,-2043.6,-7887.3,2025-01-29 10:42:14,7
986.7999999999992,-2034.0,-1848.0,-16811.0,-1938.6,-8231.3,2025-01-29 10:42:14,7
1206.7999999999993,-2634.0,-1724.0,-15936.0,-1275.6,-8778.3,2025-01-29 10:42:14,7
1206.7999999999993,-3246.0,-1624.0,-15249.0,-329.6,-9378.3,2025-01-29 10:42:14,7
898.7999999999993,-2370.0,-1588.0,-14966.0,328.4,-9319.3,2025-01-29 10:42:14,7
1098.7999999999993,-778.0,-1668.0,-15258.0,780.4,-8791.3,2025-01-29 10:42:14,7
1310.7999999999993,954.0,-1572.0,-15647.0,1559.4,-8142.3,2025-01-29 10:42:14,7
1866.7999999999995,1618.0,-1556.0,-16059.0,2864.4,-8244.3,2025-01-29 10:42:15,7
1718.7999999999993,1070.0,-1384.0,-16228.0,3681.4,-9221.3,2025-01-29 10:42:15,7
414.7999999999993,326.0,-1004.0,-16198.0,3799.4,-10534.3,2025-01-29 10:42:15,7
-1573.2000000000007,-10.0,-828.0,-16009.0,2807.4,-10888.3,2025-01-29 10:42:15,7
-3561.2000000000007,762.0,-1068.0,-16068.0,573.4,-9937.3,2025-01-29 10:42:15,7
-3697.2000000000007,1478.0,-1276.0,-16327.0,-2118.6,-8452.3,2025-01-29 10:42:15,7
-2109.2000000000007,2498.0,-1300.0,-16746.0,-4408.6,-7250.3,2025-01-29 10:42:15,7
-581.2000000000007,2454.0,-776.0,-17066.0,-4703.6,-7022.3,2025-01-29 10:42:15,7
382.7999999999993,1202.0,268.0,-17152.0,-3626.6,-7129.3,2025-01-29 10:42:15,7
1150.7999999999993,18.0,940.0,-16706.0,-2083.6,-7243.3,2025-01-29 10:42:15,7
1514.7999999999993,-778.0,1724.0,-16103.0,-992.6,-7439.3,2025-01-29 10:42:15,7
1190.7999999999993,-874.0,2108.0,-15297.0,-60.60000000000002,-7551.3,2025-01-29 10:42:15,7
858.7999999999993,-390.0,1800.0,-14525.0,570.4,-7560.3,2025-01-29 10:42:15,7
194.79999999999927,486.0,1048.0,-13690.0,1219.4,-7455.3,2025-01-29 10:42:15,7
-633.2000000000007,1430.0,916.0,-13051.0,1763.4,-7153.3,2025-01-29 10:42:15,7
-641.2000000000007,1614.0,512.0,-12688.0,1631.4,-7024.3,2025-01-29 10:42:15,7
-457.2000000000007,1262.0,408.0,-12508.0,792.4,-7178.3,2025-01-29 10:42:15,7
-137.20000000000073,1110.0,792.0,-12216.0,-775.6,-7382.3,2025-01-29 10:42:15,7
-5.200000000000728,1310.0,876.0,-12015.0,-1065.6,-7225.3,2025-01-29 10:42:15,7
378.7999999999993,1366.0,1220.0,-11782.0,-668.6,-7172.3,2025-01-29 10:42:15,7
438.7999999999993,1510.0,1268.0,-11627.0,-186.6,-7308.3,2025-01-29 10:42:15,7
278.7999999999993,1606.0,1156.0,-11531.0,-88.60000000000002,-7458.3,2025-01-29 10:42:15,7
674.7999999999993,1530.0,616.0,-11540.0,-437.6,-7537.3,2025-01-29 10:42:15,7
938.7999999999992,1390.0,396.0,-11472.0,-255.6,-7532.3,2025-01-29 10:42:15,7
1286.7999999999993,1466.0,992.0,-11157.0,649.4,-7479.3,2025-01-29 10:42:15,7
1378.7999999999993,1486.0,1328.0,-10881.0,1751.4,-7559.3,2025-01-29 10:42:15,7
610.7999999999993,1138.0,1152.0,-10659.0,2853.4,-7696.3,2025-01-29 10:42:15,7
-429.2000000000007,806.0,608.0,-10331.0,3658.4,-7649.3,2025-01-29 10:42:15,7
-1153.2000000000007,446.0,416.0,-10084.0,3772.4,-7351.3,2025-01-29 10:42:15,7
-1857.2000000000007,386.0,432.0,-9803.0,2969.4,-6907.3,2025-01-29 10:42:15,7
-1669.2000000000007,410.0,712.0,-9053.0,347.4,-6165.3,2025-01-29 10:42:15,7
-1281.2000000000007,502.0,920.0,-8713.0,-359.6,-5828.3,2025-01-29 10:42:15,7
-753.2000000000007,266.0,1292.0,-8407.0,-433.6,-5512.3,2025-01-29 10:42:15,7
-453.2000000000007,242.0,1924.0,-7961.0,-325.6,-5175.3,2025-01-29 10:42:15,7
-293.2000000000007,174.0,2068.0,-7408.0,-86.60000000000002,-4701.3,2025-01-29 10:42:15,7
-97.20000000000071,254.0,2320.0,-6807.0,303.4,-4254.3,2025-01-29 10:42:15,7
-337.2000000000007,650.0,2208.0,-6090.0,1017.4,-3973.3,2025-01-29 10:42:15,7
-601.2000000000007,678.0,2252.0,-5451.0,1617.4,-3764.3,2025-01-29 10:42:15,7
-1309.2000000000007,870.0,2424.0,-4840.0,1746.4,-3583.3,2025-01-29 10:42:15,7
-1581.2000000000007,662.0,1416.0,-4430.0,1325.4,-3283.3,2025-01-29 10:42:15,7
-2065.2000000000007,490.0,1408.0,-3946.0,1079.4,-2916.3,2025-01-29 10:42:15,7
-2133.2000000000007,194.0,1160.0,-3615.0,814.4,-2660.3,2025-01-29 10:42:15,7
-2265.2000000000007,334.0,1372.0,-3427.0,332.4,-2416.3,2025-01-29 10:42:15,7
-2069.2000000000007,702.0,2384.0,-3103.0,-418.6,-2161.3,2025-01-29 10:42:15,7
-1269.2000000000007,862.0,2524.0,-2524.0,-955.6,-1941.3,2025-01-29 10:42:15,7
-525.2000000000007,1078.0,2212.0,-1981.0,-868.6,-2072.3,2025-01-29 10:42:15,7
-213.20000000000076,1522.0,2048.0,-1526.0,-517.6,-2129.3,2025-01-29 10:42:15,1
22.799999999999272,1774.0,936.0,-1510.0,195.4,-2074.3,2025-01-29 10:42:15,1
230.79999999999927,1782.0,640.0,-1510.0,881.4,-2258.3,2025-01-29 10:42:15,1
386.7999999999993,1394.0,512.0,-1316.0,969.4,-2790.3,2025-01-29 10:42:15,1
342.7999999999993,1110.0,-344.0,-1119.0,379.4,-3232.3,2025-01-29 10:42:15,1
-21.200000000000728,538.0,-1484.0,-1545.0,-374.6,-3436.3,2025-01-29 10:42:15,1
-321.2000000000007,526.0,-696.0,-1976.0,-234.6,-3333.3,2025-01-29 10:42:15,1
-609.2000000000007,886.0,-1432.0,-1997.0,117.39999999999998,-3524.3,2025-01-29 10:42:15,1
-1077.2000000000007,1646.0,-2780.0,-2122.0,398.4,-3881.3,2025-01-29 10:42:15,1
-1197.2000000000007,1978.0,-2740.0,-2219.0,-191.6,-4695.3,2025-01-29 10:42:15,1
-617.2000000000007,1750.0,-1148.0,-2088.0,-2283.6,-6273.3,2025-01-29 10:42:15,1
-741.2000000000007,570.0,-464.0,-2404.0,-4715.6,-7399.3,2025-01-29 10:42:15,1
234.79999999999927,-998.0,604.0,-2762.0,-5682.6,-7551.3,2025-01-29 10:42:15,1
1470.7999999999993,-2562.0,1024.0,-2744.0,-5412.6,-7306.3,2025-01-29 10:42:15,1
2638.7999999999997,-3994.0,1288.0,-2843.0,-3657.6,-6937.3,2025-01-29 10:42:15,1
2702.7999999999997,-4662.0,2616.0,-2769.0,-560.6,-6495.3,2025-01-29 10:42:15,1
1766.7999999999993,-4338.0,3572.0,-2193.0,2862.4,-5651.3,2025-01-29 10:42:16,1
794.7999999999993,-3342.0,2940.0,-1810.0,4991.4,-5081.3,2025-01-29 10:42:16,1
-341.2000000000007,-2714.0,1796.0,-1488.0,5535.4,-5647.3,2025-01-29 10:42:16,1
-2157.2000000000007,-2622.0,436.0,-1349.0,5449.4,-5913.3,2025-01-29 10:42:16,1
-3109.2000000000007,-2926.0,104.0,-1233.0,3640.4,-5642.3,2025-01-29 10:42:16,1
-3361.2000000000007,-3042.0,644.0,-1107.0,671.4,-4922.3,2025-01-29 10:42:16,1
-2449.2000000000007,-2762.0,1392.0,-1141.0,-1731.6,-3916.3,2025-01-29 10:42:16,1
-533.2000000000007,-2794.0,1196.0,-1230.0,-3090.6,-3254.3,2025-01-29 10:42:16,1
918.7999999999992,-2918.0,1500.0,-1289.0,-2788.6,-2877.3,2025-01-29 10:42:16,1
1682.7999999999993,-2794.0,1496.0,-1394.0,-1322.6,-2482.3,2025-01-29 10:42:16,1
1902.7999999999995,-2762.0,1744.0,-1663.0,446.4,-2165.3,2025-01-29 10:42:16,1
1774.7999999999993,-3090.0,1740.0,-1923.0,1971.4,-1944.3,2025-01-29 10:42:16,1
954.7999999999992,-3558.0,1848.0,-1948.0,2371.4,-1701.3,2025-01-29 10:42:16,1
26.799999999999272,-3870.0,2216.0,-1758.0,2354.4,-1303.3,2025-01-29 10:42:16,1
-629.2000000000007,-3614.0,2160.0,-1792.0,1891.4,-712.3,2025-01-29 10:42:16,1
-981.2000000000008,-2738.0,2292.0,-1818.0,1019.4,28.69999999999999,2025-01-29 10:42:16,1
-441.2000000000007,-2118.0,2040.0,-1945.0,448.4,686.7,2025-01-29 10:42:16,1
706.7999999999993,-2154.0,1784.0,-2265.0,738.4,758.7,2025-01-29 10:42:16,1
678.7999999999993,-2498.0,2136.0,-2504.0,1619.4,648.7,2025-01-29 10:42:16,1
182.79999999999927,-3322.0,2436.0,-2352.0,2631.4,518.7,2025-01-29 10:42:16,1
-465.2000000000007,-3594.0,1812.0,-2071.0,3026.4,405.7,2025-01-29 10:42:16,1
-1417.2000000000007,-2986.0,1012.0,-2045.0,2968.4,330.7,2025-01-29 10:42:16,1
-1913.2000000000007,-2566.0,48.0,-2270.0,2526.4,297.7,2025-01-29 10:42:16,1
-2697.2000000000007,-1370.0,-400.0,-2541.0,1907.4,98.7,2025-01-29 10:42:16,1
-3725.2000000000007,-1022.0,72.0,-3098.0,985.4,-168.3,2025-01-29 10:42:16,1
-3409.2000000000007,-2678.0,1532.0,-3228.0,10.399999999999975,-762.3,2025-01-29 10:42:16,1
-3453.2000000000007,-4490.0,1896.0,-3236.0,-1148.6,-1381.3,2025-01-29 10:42:16,1
-4005.2000000000007,-4018.0,2772.0,-3045.0,-1581.6,-759.3,2025-01-29 10:42:16,1
-2881.2000000000007,-2014.0,2296.0,-2929.0,-1202.6,-318.3,2025-01-29 10:42:16,1
-1813.2000000000007,-1126.0,-52.0,-2819.0,-582.6,-879.3,2025-01-29 10:42:16,1
-2577.2000000000007,-2706.0,-1552.0,-2796.0,1690.4,-1284.3,2025-01-29 10:42:16,1
-2401.2000000000007,-5142.0,-1428.0,-1676.0,2868.4,-1855.3,2025-01-29 10:42:16,1
-2985.2000000000007,-8010.0,-2140.0,546.0,2968.4,-2609.3,2025-01-29 10:42:16,1
-4945.200000000001,-8542.0,-1668.0,3131.0,-48.60000000000002,-1584.3,2025-01-29 10:42:16,1
-6001.200000000001,-8138.0,-1624.0,4594.0,-4330.6,2214.7,2025-01-29 10:42:16,1
-1513.2000000000007,-5902.0,-2368.0,5427.0,-6677.6,5599.7,2025-01-29 10:42:16,1
3410.7999999999997,-2486.0,-4032.0,5492.0,-8294.6,6378.7,2025-01-29 10:42:16,1
5426.799999999999,822.0,-4968.0,4246.0,-8478.6,6483.7,2025-01-29 10:42:16,1
7754.799999999999,4282.0,-4840.0,2109.0,-6712.6,6228.7,2025-01-29 10:42:16,1
8934.8,6114.0,-4304.0,-16.0,-2481.6,5085.7,2025-01-29 10:42:16,1
8586.8,5910.0,-3656.0,-1624.0,3407.4,3164.7,2025-01-29 10:42:16,1
6686.799999999999,1878.0,-2844.0,-2784.0,8484.4,232.7,2025-01-29 10:42:16,1
2598.7999999999997,-754.0,-668.0,-2692.0,10774.4,-1348.3,2025-01-29 10:42:16,1
-1461.2000000000007,-2722.0,480.0,-1479.0,10875.4,-1759.3,2025-01-29 10:42:16,1
-5229.200000000001,-3350.0,328.0,-404.0,8166.4,-370.3,2025-01-29 10:42:16,1
-7393.200000000001,-3274.0,-1044.0,309.0,1938.4,3371.7,2025-01-29 10:42:16,1
-4489.200000000001,-2666.0,-1388.0,858.0,-4379.6,6381.7,2025-01-29 10:42:16,1
-517.2000000000007,-1762.0,-700.0,1143.0,-7388.6,6842.7,2025-01-29 10:42:16,1
3102.7999999999997,-1038.0,-332.0,1918.0,-7704.6,5988.7,2025-01-29 10:42:16,1
4102.799999999999,-770.0,1408.0,2922.0,-6255.6,5181.7,2025-01-29 10:42:16,1
4210.799999999999,-2.0,1912.0,3446.0,-3328.6,5095.7,2025-01-29 10:42:16,1
3810.7999999999993,1026.0,880.0,3567.0,968.4,5392.7,2025-01-29 10:42:16,1
2910.7999999999997,1614.0,256.0,3061.0,4140.4,5145.7,2025-01-29 10:42:16,1
1602.7999999999993,1866.0,112.0,2473.0,4748.4,4339.7,2025-01-29 10:42:16,1
142.79999999999927,1678.0,856.0,2324.0,2983.4,3459.7,2025-01-29 10:42:16,1
-885.2000000000007,1006.0,924.0,2471.0,-308.6,2963.7,2025-01-29 10:42:16,1
-93.20000000000071,1094.0,1144.0,2555.0,-2805.6,2698.7,2025-01-29 10:42:16,1
1094.7999999999993,1678.0,1328.0,2527.0,-4074.6,2094.7,2025-01-29 10:42:16,1
2194.7999999999997,2058.0,1524.0,2249.0,-4458.6,1293.7,2025-01-29 10:42:16,1
2530.7999999999997,2414.0,1460.0,1514.0,-3882.6,491.7,2025-01-29 10:42:16,1
2582.7999999999997,2062.0,1992.0,928.0,-2817.6,-111.3,2025-01-29 10:42:16,1
2478.7999999999997,1166.0,1460.0,742.0,-1560.6,-771.3,2025-01-29 10:42:17,1
1482.7999999999993,750.0,1400.0,761.0,-891.6,-1402.3,2025-01-29 10:42:17,1
86.79999999999927,666.0,1452.0,809.0,-494.6,-1794.3,2025-01-29 10:42:17,1
-757.2000000000007,774.0,1632.0,802.0,-633.6,-1711.3,2025-01-29 10:42:17,1
-1233.2000000000007,542.0,1552.0,734.0,-1153.6,-1429.3,2025-01-29 10:42:17,1
-1789.2000000000007,70.0,2268.0,776.0,-1347.6,-799.3,2025-01-29 10:42:17,1
-1621.2000000000007,-374.0,2056.0,1081.0,-845.6,126.7,2025-01-29 10:42:17,1
-2893.2000000000007,-950.0,1536.0,1341.0,613.4,1298.7,2025-01-29 10:42:17,1
-3265.2000000000007,-1850.0,1592.0,1782.0,1973.4,1909.7,2025-01-29 10:42:17,1
-4609.200000000001,-1302.0,2040.0,2699.0,2258.4,1923.7,2025-01-29 10:42:17,1
-5493.200000000001,1154.0,1336.0,3351.0,962.4,2261.7,2025-01-29 10:42:17,1
-5189.200000000001,2802.0,176.0,3216.0,-526.6,2684.7,2025-01-29 10:42:17,1
-4273.200000000001,2378.0,-1476.0,2440.0,-579.6,2514.7,2025-01-29 10:42:17,1
-4501.200000000001,1254.0,-2892.0,1124.0,832.4,2009.7,2025-01-29 10:42:17,1
-5849.200000000001,1910.0,-4340.0,204.0,2103.4,2901.7,2025-01-29 10:42:17,1
-5549.200000000001,2934.0,-5552.0,-1111.0,1811.4,3665.7,2025-01-29 10:42:17,1
-4293.200000000001,4038.0,-5984.0,-2638.0,-468.6,3770.7,2025-01-29 10:42:17,1
-669.2000000000007,4446.0,-4304.0,-3671.0,-5007.6,2872.7,2025-01-29 10:42:17,1
3158.7999999999997,3114.0,-1872.0,-3750.0,-9316.6,881.7,2025-01-29 10:42:17,1
5546.799999999999,-370.0,680.0,-2835.0,-9846.6,-1104.3,2025-01-29 10:42:17,1
7034.799999999999,-3790.0,1112.0,-1226.0,-7461.6,-1906.3,2025-01-29 10:42:17,1
6894.799999999999,-6198.0,760.0,654.0,-3064.6,-2121.3,2025-01-29 10:42:17,1
5790.799999999999,-6458.0,-580.0,1821.0,2246.4,-1943.3,2025-01-29 10:42:17,1
3682.7999999999993,-3650.0,-636.0,2413.0,5632.4,-1402.3,2025-01-29 10:42:17,1
1142.7999999999993,10.0,-1268.0,2580.0,6861.4,-1263.3,2025-01-29 10:42:17,1
-825.2000000000007,2622.0,-1272.0,1273.0,5119.4,-1366.3,2025-01-29 10:42:17,1
-961.2000000000008,2822.0,-1424.0,-515.0,1286.4,-2208.3,2025-01-29 10:42:17,1
-913.2000000000008,1058.0,-1532.0,-1278.0,-1971.6,-3542.3,2025-01-29 10:42:17,1
-1309.2000000000007,-494.0,-552.0,-1237.0,-4056.6,-4062.3,2025-01-29 10:42:17,1
-365.2000000000007,-1414.0,-312.0,-1146.0,-5823.6,-3824.3,2025-01-29 10:42:17,1
970.7999999999992,-1782.0,164.0,-1332.0,-6967.6,-3262.3,2025-01-29 10:42:17,1
2838.7999999999997,-1262.0,1184.0,-1384.0,-6317.6,-2836.3,2025-01-29 10:42:17,1
3730.7999999999993,-1206.0,1944.0,-1733.0,-3292.6,-3361.3,2025-01-29 10:42:17,1
3438.7999999999997,-1698.0,1924.0,-1995.0,228.4,-3931.3,2025-01-29 10:42:17,1
1882.7999999999995,-1686.0,2580.0,-1858.0,2348.4,-3883.3,2025-01-29 10:42:17,1
694.7999999999993,-1810.0,2652.0,-1869.0,2753.4,-3754.3,2025-01-29 10:42:17,1
-185.20000000000076,-1998.0,2540.0,-1794.0,2468.4,-3583.3,2025-01-29 10:42:17,1
-677.2000000000007,-2178.0,2172.0,-1851.0,2268.4,-3359.3,2025-01-29 10:42:17,1
-933.2000000000008,-2402.0,2328.0,-1988.0,1664.4,-3084.3,2025-01-29 10:42:17,1
-1253.2000000000007,-2090.0,2856.0,-1943.0,943.4,-2490.3,2025-01-29 10:42:17,1
-1277.2000000000007,-1554.0,740.0,-2047.0,661.4,-1999.3,2025-01-29 10:42:17,1
-381.2000000000007,-1070.0,2496.0,-2504.0,44.39999999999998,-1763.3,2025-01-29 10:42:17,1
-793.2000000000007,-1082.0,2304.0,-2802.0,38.39999999999998,-1537.3,2025-01-29 10:42:17,1
-245.20000000000076,-1434.0,1768.0,-3246.0,150.39999999999998,-1387.3,2025-01-29 10:42:17,1
330.7999999999993,-1694.0,1436.0,-3484.0,21.399999999999977,-1586.3,2025-01-29 10:42:17,1
698.7999999999993,-1582.0,1164.0,-3612.0,86.39999999999998,-2066.3,2025-01-29 10:42:17,1
1090.7999999999993,-1230.0,376.0,-3697.0,-64.60000000000002,-2694.3,2025-01-29 10:42:17,1
350.7999999999993,-1238.0,1320.0,-3547.0,517.4,-3276.3,2025-01-29 10:42:17,1
-609.2000000000007,-1790.0,2424.0,-3220.0,1454.4,-4031.3,2025-01-29 10:42:17,1
-2285.2000000000007,-2570.0,2592.0,-3137.0,1495.4,-4622.3,2025-01-29 10:42:17,1
-4273.200000000001,-3518.0,2040.0,-3478.0,806.4,-4673.3,2025-01-29 10:42:17,1
-6597.200000000001,-4598.0,940.0,-3653.0,-1021.6,-3485.3,2025-01-29 10:42:17,1
-7209.200000000001,-5266.0,-500.0,-2892.0,-1877.6,-1777.3,2025-01-29 10:42:17,1
-5873.200000000001,-5246.0,-484.0,-884.0,-4249.6,-1293.3,2025-01-29 10:42:17,1
-4949.200000000001,-6274.0,-560.0,2188.0,-7074.6,-1410.3,2025-01-29 10:42:17,1
-3525.2000000000007,-6434.0,-1816.0,5013.0,-8325.6,-1395.3,2025-01-29 10:42:17,1
-3489.2000000000007,-3858.0,-2580.0,5202.0,-8064.6,-83.30000000000001,2025-01-29 10:42:17,1
-1481.2000000000007,-106.0,-3740.0,4309.0,-7391.6,1912.7,2025-01-29 10:42:17,1
706.7999999999993,2538.0,-5432.0,1966.0,-5996.6,3080.7,2025-01-29 10:42:17,1
3214.7999999999997,4678.0,-5348.0,-424.0,-3123.6,2983.7,2025-01-29 10:42:17,1
4210.799999999999,5206.0,-4024.0,-2304.0,487.4,1636.7,2025-01-29 10:42:18,1
3774.7999999999993,3598.0,-4056.0,-3823.0,3569.4,-65.30000000000001,2025-01-29 10:42:18,1
714.7999999999993,1006.0,-2480.0,-4971.0,5523.4,-367.3,2025-01-29 10:42:18,1
-1729.2000000000007,-1618.0,72.0,-4617.0,5961.4,831.7,2025-01-29 10:42:18,1
-2389.2000000000007,-3130.0,1676.0,-3475.0,3560.4,1841.7,2025-01-29 10:42:18,1
-1605.2000000000007,-3346.0,1916.0,-2095.0,-130.60000000000002,2851.7,2025-01-29 10:42:18,1
970.7999999999992,-2718.0,1240.0,-1050.0,-2204.6,3233.7,2025-01-29 10:42:18,1
2418.7999999999997,-1634.0,1836.0,-257.0,-2312.6,3493.7,2025-01-29 10:42:18,1
3490.7999999999997,-414.0,2352.0,450.0,-1011.6,3757.7,2025-01-29 10:42:18,1
4334.799999999999,486.0,2452.0,825.0,1250.4,3577.7,2025-01-29 10:42:18,1
4022.7999999999993,1374.0,2456.0,1011.0,3473.4,2764.7,2025-01-29 10:42:18,1
3102.7999999999997,1702.0,1496.0,950.0,4790.4,1979.7,2025-01-29 10:42:18,1
1318.7999999999993,1578.0,844.0,625.0,5143.4,1447.7,2025-01-29 10:42:18,1
-81.20000000000073,1314.0,368.0,-38.0,4425.4,1338.7,2025-01-29 10:42:18,1
-701.2000000000007,1386.0,808.0,-335.0,2697.4,1221.7,2025-01-29 10:42:18,1
-981.2000000000008,1662.0,884.0,-651.0,806.4,865.7,2025-01-29 10:42:18,1
-301.2000000000007,1606.0,916.0,-705.0,-519.6,232.7,2025-01-29 10:42:18,1
54.79999999999927,1130.0,1584.0,-488.0,-929.6,-379.3,2025-01-29 10:42:18,1
690.7999999999993,10.0,1488.0,-44.0,-971.6,-817.3,2025-01-29 10:42:18,1
386.7999999999993,-1306.0,2656.0,222.0,-560.6,-900.3,2025-01-29 10:42:18,1
-5.200000000000728,-1634.0,3652.0,912.0,-18.600000000000023,-834.3,2025-01-29 10:42:18,1
58.79999999999927,-766.0,3508.0,1540.0,673.4,-658.3,2025-01-29 10:42:18,1
-537.2000000000007,-78.0,2876.0,2063.0,819.4,-365.3,2025-01-29 10:42:18,1
-757.2000000000007,514.0,2184.0,2425.0,999.4,103.7,2025-01-29 10:42:18,1
-669.2000000000007,574.0,1992.0,2901.0,875.4,556.7,2025-01-29 10:42:18,1
-669.2000000000007,-170.0,2016.0,3478.0,930.4,971.7,2025-01-29 10:42:18,1
-321.2000000000007,-702.0,1768.0,4186.0,1287.4,1150.7,2025-01-29 10:42:18,1
-953.2000000000008,-1290.0,1992.0,5015.0,1836.4,1436.7,2025-01-29 10:42:18,1
-1721.2000000000007,-1234.0,2032.0,5551.0,1960.4,1902.7,2025-01-29 10:42:18,1
-2041.2000000000007,-598.0,1212.0,5752.0,1484.4,2460.7,2025-01-29 10:42:18,1
-2441.2000000000007,786.0,140.0,5390.0,893.4,3137.7,2025-01-29 10:42:18,1
-3269.2000000000007,1682.0,-52.0,4664.0,576.4,4040.7,2025-01-29 10:42:18,1
-4237.200000000001,1974.0,1388.0,4179.0,350.4,4912.7,2025-01-29 10:42:18,1
-3993.2000000000007,1546.0,2112.0,3900.0,-255.6,5496.7,2025-01-29 10:42:18,1
-3405.2000000000007,486.0,1796.0,3731.0,-924.6,5879.7,2025-01-29 10:42:18,1
-1929.2000000000007,-150.0,528.0,3711.0,-1058.6,6194.7,2025-01-29 10:42:18,1
-1001.2000000000008,722.0,-1188.0,3504.0,68.39999999999998,6089.7,2025-01-29 10:42:18,1
-1413.2000000000007,1858.0,-2220.0,2979.0,2263.4,6006.7,2025-01-29 10:42:18,1
-1769.2000000000007,2086.0,-3652.0,1955.0,3866.4,5521.7,2025-01-29 10:42:18,1
-2649.2000000000007,2146.0,-4956.0,853.0,3683.4,4766.7,2025-01-29 10:42:18,1
-2997.2000000000007,2182.0,-6416.0,-234.0,1803.4,4406.7,2025-01-29 10:42:18,1
-1909.2000000000007,1866.0,-5004.0,-887.0,-1505.6,3832.7,2025-01-29 10:42:18,1
414.7999999999993,1198.0,-2640.0,-591.0,-4753.6,2584.7,2025-01-29 10:42:18,1
2750.7999999999997,-302.0,-376.0,354.0,-6755.6,1132.7,2025-01-29 10:42:18,1
5222.799999999999,-2114.0,884.0,1451.0,-6959.6,-68.30000000000001,2025-01-29 10:42:18,1
6094.799999999999,-3410.0,2052.0,2687.0,-5512.6,-865.3,2025-01-29 10:42:18,1
5478.799999999999,-3554.0,1752.0,3629.0,-1187.6,-1190.3,2025-01-29 10:42:18,1
4198.799999999999,-1754.0,-768.0,3751.0,3208.4,-1370.3,2025-01-29 10:42:18,1
2002.7999999999995,-254.0,-1948.0,2852.0,6017.4,-1918.3,2025-01-29 10:42:18,1
-621.2000000000007,442.0,-1472.0,1985.0,6798.4,-2210.3,2025-01-29 10:42:18,1
-2113.2000000000007,-6.0,-1440.0,1239.0,4845.4,-2491.3,2025-01-29 10:42:18,1
-2877.2000000000007,-614.0,-1804.0,730.0,854.4,-2625.3,2025-01-29 10:42:18,1
-2869.2000000000007,-1098.0,-1316.0,543.0,-3000.6,-2315.3,2025-01-29 10:42:18,1
-1173.2000000000007,-1282.0,-716.0,608.0,-4723.6,-2054.3,2025-01-29 10:42:18,1
718.7999999999993,-1186.0,100.0,556.0,-4977.6,-2175.3,2025-01-29 10:42:18,1
2618.7999999999997,-1194.0,784.0,513.0,-4229.6,-2318.3,2025-01-29 10:42:18,1
3614.7999999999993,-1206.0,1348.0,356.0,-2663.6,-2704.3,2025-01-29 10:42:18,1
3586.7999999999997,-1782.0,1880.0,263.0,-467.6,-3112.3,2025-01-29 10:42:18,1
2442.7999999999997,-1886.0,2116.0,429.0,2022.4,-2843.3,2025-01-29 10:42:18,1
1630.7999999999993,-2090.0,1872.0,321.0,3698.4,-2716.3,2025-01-29 10:42:18,1
482.7999999999993,-2042.0,1844.0,227.0,4072.4,-2894.3,2025-01-29 10:42:18,1
-765.2000000000007,-1958.0,1432.0,217.0,3233.4,-2702.3,2025-01-29 10:42:18,1
-1313.2000000000007,-1526.0,1424.0,66.0,1919.4,-2300.3,2025-01-29 10:42:19,1
-1229.2000000000007,-818.0,1296.0,-227.0,918.4,-1975.3,2025-01-29 10:42:19,1
-881.2000000000007,-362.0,1108.0,-762.0,266.4,-1782.3,2025-01-29 10:42:19,1
-525.2000000000007,-282.0,1176.0,-1475.0,-294.6,-1716.3,2025-01-29 10:42:19,1
-285.2000000000007,-466.0,1220.0,-2017.0,-578.6,-1547.3,2025-01-29 10:42:19,1
66.79999999999927,-782.0,1012.0,-2467.0,-305.6,-1411.3,2025-01-29 10:42:19,1
170.79999999999927,-910.0,1564.0,-2890.0,278.4,-1289.3,2025-01-29 10:42:19,1
246.79999999999927,-1650.0,1172.0,-3247.0,378.4,-1103.3,2025-01-29 10:42:19,1
98.79999999999929,-2206.0,1248.0,-3417.0,581.4,-1269.3,2025-01-29 10:42:19,1
-621.2000000000007,-2494.0,1028.0,-3547.0,681.4,-1602.3,2025-01-29 10:42:19,1
-1345.2000000000007,-2090.0,884.0,-3521.0,249.4,-1757.3,2025-01-29 10:42:19,1
-1709.2000000000007,-1258.0,984.0,-3556.0,-784.6,-2007.3,2025-01-29 10:42:19,1
-2053.2000000000007,-1142.0,1412.0,-3624.0,-1876.6,-2005.3,2025-01-29 10:42:19,1
-1469.2000000000007,-1814.0,1456.0,-3554.0,-2731.6,-1969.3,2025-01-29 10:42:19,1
-1005.2000000000008,-2302.0,1648.0,-3537.0,-3125.6,-2371.3,2025-01-29 10:42:19,1
-909.2000000000008,-2366.0,2336.0,-3711.0,-3320.6,-2964.3,2025-01-29 10:42:19,1
-673.2000000000007,-2162.0,1768.0,-3477.0,-3676.6,-3543.3,2025-01-29 10:42:19,1
-1313.2000000000007,-1678.0,80.0,-3194.0,-3022.6,-4093.3,2025-01-29 10:42:19,1
-2277.2000000000007,-1978.0,-444.0,-3010.0,-1753.6,-4365.3,2025-01-29 10:42:19,1
-3117.2000000000007,-3914.0,-1020.0,-2495.0,-1139.6,-4757.3,2025-01-29 10:42:19,1
-4725.200000000001,-5986.0,-2104.0,-1247.0,-1963.6,-4361.3,2025-01-29 10:42:19,1
-6273.200000000001,-7242.0,-2948.0,154.0,-3833.6,-1969.3,2025-01-29 10:42:19,1
-5245.200000000001,-7322.0,-2648.0,1576.0,-5248.6,1152.7,2025-01-29 10:42:19,1
-1837.2000000000007,-5558.0,-3368.0,2153.0,-5594.6,2166.7,2025-01-29 10:42:19,1
-97.20000000000071,-2210.0,-3132.0,1357.0,-5510.6,2846.7,2025-01-29 10:42:19,1
1358.7999999999993,774.0,-2588.0,212.0,-4879.6,3973.7,2025-01-29 10:42:19,1
3622.7999999999993,3382.0,-1856.0,-911.0,-4154.6,4918.7,2025-01-29 10:42:19,1
5882.799999999999,4698.0,-964.0,-2022.0,-2344.6,4532.7,2025-01-29 10:42:19,1
7438.799999999999,4338.0,112.0,-2497.0,941.4,2194.7,2025-01-29 10:42:19,1
5670.799999999999,1822.0,84.0,-2276.0,5087.4,-755.3,2025-01-29 10:42:19,1
998.7999999999992,162.0,-216.0,-2234.0,7896.4,-958.3,2025-01-29 10:42:19,1
-1805.2000000000007,-1330.0,-260.0,-2111.0,8173.4,37.69999999999999,2025-01-29 10:42:19,1
-3429.2000000000007,-1974.0,-28.0,-1887.0,5710.4,1206.7,2025-01-29 10:42:19,1
-3793.2000000000007,-1786.0,336.0,-1302.0,1858.4,2443.7,2025-01-29 10:42:19,1
-2073.2000000000007,-970.0,276.0,-725.0,-1994.6,2883.7,2025-01-29 10:42:19,1
-33.20000000000073,-342.0,312.0,-409.0,-3435.6,2964.7,2025-01-29 10:42:19,1
1898.7999999999995,38.0,1344.0,33.0,-3371.6,2813.7,2025-01-29 10:42:19,1
3606.7999999999993,230.0,1708.0,424.0,-2174.6,2257.7,2025-01-29 10:42:19,1
3642.7999999999993,510.0,2228.0,795.0,514.4,1662.7,2025-01-29 10:42:19,1
3442.7999999999997,762.0,2148.0,1115.0,3228.4,1170.7,2025-01-29 10:42:19,1
2010.7999999999995,1086.0,1896.0,1282.0,5053.4,856.7,2025-01-29 10:42:19,1
-229.20000000000076,1410.0,1920.0,1474.0,5366.4,722.7,2025-01-29 10:42:19,1
-1581.2000000000007,1202.0,1964.0,1686.0,4006.4,580.7,2025-01-29 10:42:19,1
-2245.2000000000007,594.0,1480.0,2161.0,1520.4,695.7,2025-01-29 10:42:19,1
-1989.2000000000007,302.0,884.0,2496.0,-180.6,927.7,2025-01-29 10:42:19,1
-1277.2000000000007,158.0,748.0,2679.0,-860.6,952.7,2025-01-29 10:42:19,1
-1273.2000000000007,-130.0,1256.0,2956.0,-774.6,1085.7,2025-01-29 10:42:19,1
-1609.2000000000007,-410.0,2256.0,3349.0,-391.6,1388.7,2025-01-29 10:42:19,1
-1789.2000000000007,-706.0,2208.0,3679.0,-454.6,1729.7,2025-01-29 10:42:19,1
-1257.2000000000007,-950.0,2432.0,4248.0,-1104.6,1801.7,2025-01-29 10:42:19,1
-925.2000000000008,-382.0,2440.0,4996.0,-2138.6,1635.7,2025-01-29 10:42:19,1
-485.2000000000007,390.0,1840.0,5542.0,-2687.6,1569.7,2025-01-29 10:42:19,1
542.7999999999993,774.0,572.0,5687.0,-2479.6,1366.7,2025-01-29 10:42:19,1
1770.7999999999993,354.0,996.0,5673.0,-2080.6,170.7,2025-01-29 10:42:19,1
610.7999999999993,-406.0,904.0,5698.0,-1361.6,-567.3,2025-01-29 10:42:19,1
-737.2000000000007,-1734.0,-1168.0,5547.0,76.39999999999998,-190.3,2025-01-29 10:42:19,1
-2013.2000000000007,-1442.0,-4076.0,5164.0,2297.4,569.7,2025-01-29 10:42:19,1
-3201.2000000000007,-718.0,-6752.0,4362.0,3416.4,1791.7,2025-01-29 10:42:19,1
-2921.2000000000007,-190.0,-6284.0,2841.0,2328.4,3039.7,2025-01-29 10:42:19,1
-577.2000000000007,-258.0,-2384.0,2203.0,-509.6,2875.7,2025-01-29 10:42:20,1
1522.7999999999993,-234.0,-1348.0,2581.0,-3246.6,1593.7,2025-01-29 10:42:20,1
2526.7999999999997,-502.0,-996.0,2648.0,-3702.6,1002.7,2025-01-29 10:42:20,1
3982.7999999999993,-1270.0,-300.0,2559.0,-2743.6,678.7,2025-01-29 10:42:20,1
4430.799999999999,-2462.0,336.0,2288.0,-916.6,301.7,2025-01-29 10:42:20,1
3842.7999999999993,-2854.0,700.0,2322.0,1364.4,119.7,2025-01-29 10:42:20,1
2146.7999999999997,-2022.0,-248.0,2167.0,3281.4,185.7,2025-01-29 10:42:20,1
222.79999999999927,-1314.0,-868.0,1469.0,3740.4,510.7,2025-01-29 10:42:20,1
-517.2000000000007,-1482.0,-964.0,977.0,2521.4,841.7,2025-01-29 10:42:20,1
-665.2000000000007,-1954.0,-520.0,738.0,800.4,1067.7,2025-01-29 10:42:20,1
366.7999999999993,-2894.0,-36.0,508.0,-265.6,1223.7,2025-01-29 10:42:20,1
1554.7999999999993,-3818.0,-136.0,500.0,95.39999999999998,1053.7,2025-01-29 10:42:20,1
2190.7999999999997,-3598.0,-540.0,835.0,1914.4,1069.7,2025-01-29 10:42:20,1
2734.7999999999997,-2606.0,-1524.0,1063.0,3751.4,816.7,2025-01-29 10:42:20,1
1814.7999999999995,-1678.0,-2204.0,988.0,4860.4,240.7,2025-01-29 10:42:20,1
158.79999999999927,-1362.0,-2276.0,1116.0,5389.4,-66.30000000000001,2025-01-29 10:42:20,1
-857.2000000000007,-1174.0,-1776.0,1396.0,4880.4,-346.3,2025-01-29 10:42:20,1
-1741.2000000000007,-910.0,-1004.0,1571.0,1413.4,-332.3,2025-01-29 10:42:20,1
-1205.2000000000007,-566.0,-288.0,981.0,-1782.6,373.7,2025-01-29 10:42:20,1
1070.7999999999993,-730.0,-32.0,-20.0,-2220.6,730.7,2025-01-29 10:42:20,1
2426.7999999999997,-1558.0,388.0,-897.0,-939.6,603.7,2025-01-29 10:42:20,1
2598.7999999999997,-2550.0,364.0,-756.0,1761.4,538.7,2025-01-29 10:42:20,1
1890.7999999999995,-2758.0,-80.0,-247.0,4291.4,357.7,2025-01-29 10:42:20,1
410.7999999999993,-2270.0,-364.0,204.0,5484.4,-34.30000000000001,2025-01-29 10:42:20,1
-1597.2000000000007,-1386.0,-1040.0,514.0,5058.4,-32.30000000000001,2025-01-29 10:42:20,1
-2393.2000000000007,-702.0,-1832.0,379.0,2984.4,315.7,2025-01-29 10:42:20,1
-1801.2000000000007,-506.0,-1936.0,47.0,-274.6,289.7,2025-01-29 10:42:20,1
-985.2000000000008,-958.0,-1824.0,-266.0,-2351.6,103.7,2025-01-29 10:42:20,1
806.7999999999993,-1426.0,-904.0,-421.0,-2919.6,229.7,2025-01-29 10:42:20,1
2198.7999999999997,-1734.0,-392.0,-423.0,-2133.6,96.7,2025-01-29 10:42:20,1
2762.7999999999997,-1818.0,88.0,-257.0,58.39999999999998,-43.30000000000001,2025-01-29 10:42:20,1
2326.7999999999997,-1326.0,-52.0,-78.0,2203.4,-116.3,2025-01-29 10:42:20,1
922.7999999999992,-838.0,-528.0,-72.0,3260.4,-98.3,2025-01-29 10:42:20,1
-525.2000000000007,-786.0,-808.0,-286.0,2814.4,2.6999999999999886,2025-01-29 10:42:20,1
-1441.2000000000007,-890.0,-900.0,-381.0,1497.4,224.7,2025-01-29 10:42:20,1
-1045.2000000000007,-778.0,-908.0,-425.0,-71.60000000000002,319.7,2025-01-29 10:42:20,1
-321.2000000000007,-582.0,-952.0,-626.0,-1143.6,212.7,2025-01-29 10:42:20,1
638.7999999999993,-538.0,-936.0,-800.0,-1393.6,101.7,2025-01-29 10:42:20,1
1318.7999999999993,-554.0,-836.0,-927.0,-721.6,8.699999999999989,2025-01-29 10:42:20,1
1602.7999999999993,-830.0,-788.0,-996.0,107.39999999999998,-32.30000000000001,2025-01-29 10:42:20,1
1398.7999999999993,-1082.0,-756.0,-954.0,768.4,-155.3,2025-01-29 10:42:20,1
818.7999999999993,-1182.0,-352.0,-872.0,1124.4,-262.3,2025-01-29 10:42:20,1
146.79999999999927,-1226.0,-664.0,-694.0,942.4,-214.3,2025-01-29 10:42:20,1
-73.20000000000073,-1298.0,-964.0,-545.0,382.4,-141.3,2025-01-29 10:42:20,1
66.79999999999927,-1066.0,-1276.0,-507.0,-44.60000000000002,-140.3,2025-01-29 10:42:20,1
282.7999999999993,-906.0,-1256.0,-594.0,-307.6,-127.3,2025-01-29 10:42:20,1
782.7999999999993,-746.0,-852.0,-634.0,-414.6,-119.3,2025-01-29 10:42:20,1
850.7999999999993,-574.0,-756.0,-706.0,-328.6,-164.3,2025-01-29 10:42:20,1
1022.7999999999992,-690.0,-792.0,-746.0,-124.60000000000002,-143.3,2025-01-29 10:42:20,1
878.7999999999993,-910.0,-568.0,-716.0,76.39999999999998,-49.30000000000001,2025-01-29 10:42:20,1
834.7999999999993,-922.0,-712.0,-551.0,290.4,-32.30000000000001,2025-01-29 10:42:20,1
458.7999999999993,-958.0,-472.0,-400.0,438.4,-127.3,2025-01-29 10:42:20,1
294.7999999999993,-930.0,-508.0,-273.0,267.4,3.6999999999999886,2025-01-29 10:42:20,1
306.7999999999993,-934.0,-872.0,-230.0,-30.600000000000023,58.69999999999999,2025-01-29 10:42:20,1
490.7999999999993,-794.0,-948.0,-189.0,-130.60000000000002,42.69999999999999,2025-01-29 10:42:20,1
654.7999999999993,-550.0,-828.0,-154.0,-117.60000000000002,62.69999999999999,2025-01-29 10:42:20,1
766.7999999999993,-526.0,-1076.0,-120.0,64.39999999999998,117.7,2025-01-29 10:42:20,1
702.7999999999993,-558.0,-1144.0,-23.0,263.4,108.7,2025-01-29 10:42:20,1
498.7999999999993,-722.0,-816.0,-46.0,402.4,90.7,2025-01-29 10:42:20,1
334.7999999999993,-830.0,-724.0,101.0,247.4,159.7,2025-01-29 10:42:20,1
390.7999999999993,-882.0,-1008.0,135.0,-6.600000000000023,201.7,2025-01-29 10:42:20,1
466.7999999999993,-634.0,-732.0,116.0,-232.6,229.7,2025-01-29 10:42:20,1
786.7999999999993,-542.0,-752.0,109.0,-251.6,194.7,2025-01-29 10:42:20,1
834.7999999999993,-386.0,-860.0,76.0,-44.60000000000002,86.69999999999999,2025-01-29 10:42:21,1
850.7999999999993,-490.0,-700.0,48.0,197.4,-11.300000000000011,2025-01-29 10:42:21,1
602.7999999999993,-670.0,-720.0,45.0,299.4,-47.30000000000001,2025-01-29 10:42:21,1
514.7999999999993,-670.0,-780.0,81.0,237.4,-21.30000000000001,2025-01-29 10:42:21,1
398.7999999999993,-670.0,-896.0,0.0,92.39999999999998,10.699999999999989,2025-01-29 10:42:21,1
410.7999999999993,-642.0,-888.0,-39.0,-44.60000000000002,17.69999999999999,2025-01-29 10:42:21,1
510.7999999999993,-594.0,-952.0,-70.0,-159.60000000000002,-49.30000000000001,2025-01-29 10:42:21,1
550.7999999999993,-710.0,-1124.0,-130.0,-231.6,-54.30000000000001,2025-01-29 10:42:21,1
710.7999999999993,-662.0,-944.0,-141.0,-202.6,-57.30000000000001,2025-01-29 10:42:21,1
786.7999999999993,-610.0,-1004.0,-125.0,-73.60000000000002,-95.3,2025-01-29 10:42:21,1
662.7999999999993,-586.0,-1092.0,-217.0,3.3999999999999773,-149.3,2025-01-29 10:42:21,1
542.7999999999993,-654.0,-776.0,-293.0,58.39999999999998,-177.3,2025-01-29 10:42:21,1
482.7999999999993,-814.0,-608.0,-295.0,-25.600000000000023,-148.3,2025-01-29 10:42:21,1
682.7999999999993,-694.0,-816.0,-291.0,-122.60000000000002,-115.3,2025-01-29 10:42:21,1
646.7999999999993,-726.0,-972.0,-322.0,-118.60000000000002,-122.3,2025-01-29 10:42:21,1
742.7999999999993,-650.0,-804.0,-318.0,-40.60000000000002,-129.3,2025-01-29 10:42:21,1
750.7999999999993,-742.0,-1088.0,-272.0,51.39999999999998,-201.3,2025-01-29 10:42:21,1
686.7999999999993,-658.0,-820.0,-283.0,110.39999999999998,-237.3,2025-01-29 10:42:21,1
498.7999999999993,-846.0,-712.0,-264.0,127.39999999999998,-228.3,2025-01-29 10:42:21,1
458.7999999999993,-858.0,-860.0,-290.0,-0.6000000000000227,-173.3,2025-01-29 10:42:21,1
