acceleration_x,acceleration_y,acceleration_z,gyroscope_x,gyroscope_y,gyroscope_z,timestamp,label
-9428,1844,-9580,-152,185,-192,2025-02-17 16:22:18,0.0
-9428,1860,-9612,-133,154,-182,2025-02-17 16:22:19,0.0
-9448,1856,-9504,-148,164,-194,2025-02-17 16:22:19,0.0
-9464,1800,-9420,-140,156,-167,2025-02-17 16:22:19,0.0
-9604,1804,-9416,-140,159,-203,2025-02-17 16:22:19,0.0
-9432,1840,-9516,-176,195,-159,2025-02-17 16:22:19,0.0
-9532,1916,-9376,-146,161,-171,2025-02-17 16:22:19,0.0
-9548,1836,-9448,-185,165,-179,2025-02-17 16:22:19,0.0
-9552,1868,-9476,-146,166,-166,2025-02-17 16:22:19,0.0
-9548,1860,-9452,-184,149,-163,2025-02-17 16:22:19,0.0
-9404,1868,-9412,-166,150,-166,2025-02-17 16:22:19,0.0
-9532,1880,-9508,-134,154,-169,2025-02-17 16:22:19,0.0
-9540,1808,-9580,-149,182,-173,2025-02-17 16:22:19,0.0
-9536,1868,-9492,-157,175,-166,2025-02-17 16:22:19,0.0
-9540,1920,-9396,-157,175,-174,2025-02-17 16:22:19,0.0
-9640,1844,-9520,-190,187,-170,2025-02-17 16:22:19,0.0
-9556,1876,-9416,-161,165,-160,2025-02-17 16:22:19,0.0
-9564,1900,-9440,-157,195,-184,2025-02-17 16:22:19,0.0
-9480,1832,-9480,-126,169,-176,2025-02-17 16:22:19,0.0
-9552,1852,-9408,-165,165,-197,2025-02-17 16:22:19,0.0
-9616,1852,-9516,-182,165,-183,2025-02-17 16:22:19,0.0
-9492,1840,-9372,-161,174,-175,2025-02-17 16:22:19,0.0
-9480,1836,-9500,-166,158,-156,2025-02-17 16:22:19,0.0
-9552,1884,-9496,-148,158,-167,2025-02-17 16:22:19,0.0
-9464,1804,-9520,-162,177,-176,2025-02-17 16:22:19,0.0
-9388,1804,-9472,-153,155,-186,2025-02-17 16:22:19,0.0
-9484,1852,-9500,-177,152,-173,2025-02-17 16:22:19,0.0
-9480,1796,-9492,-168,173,-172,2025-02-17 16:22:19,0.0
-9448,1788,-9444,-143,148,-185,2025-02-17 16:22:19,0.0
-9504,1896,-9572,-177,150,-187,2025-02-17 16:22:19,0.0
-9584,1840,-9536,-144,192,-177,2025-02-17 16:22:19,0.0
-9460,1888,-9548,-152,175,-182,2025-02-17 16:22:19,0.0
-9532,1924,-9436,-142,202,-181,2025-02-17 16:22:19,0.0
-9508,1872,-9416,-162,156,-165,2025-02-17 16:22:19,0.0
-9504,1884,-9500,-166,173,-149,2025-02-17 16:22:19,0.0
-9488,1848,-9432,-176,167,-179,2025-02-17 16:22:19,0.0
-9560,1736,-9396,-149,165,-176,2025-02-17 16:22:19,0.0
-9544,1944,-9344,-151,163,-196,2025-02-17 16:22:19,0.0
-9436,1864,-9468,-144,161,-162,2025-02-17 16:22:19,0.0
-9496,1840,-9344,-177,160,-176,2025-02-17 16:22:19,0.0
-9524,1816,-9520,-174,135,-176,2025-02-17 16:22:19,0.0
-9564,1792,-9344,-185,170,-180,2025-02-17 16:22:19,0.0
-9456,1776,-9436,-168,174,-191,2025-02-17 16:22:19,0.0
-9476,1852,-9420,-120,181,-175,2025-02-17 16:22:19,0.0
-9556,1788,-9368,-172,173,-167,2025-02-17 16:22:19,0.0
-9524,1868,-9484,-173,165,-170,2025-02-17 16:22:19,0.0
-9584,1816,-9484,-135,179,-180,2025-02-17 16:22:19,0.0
-9552,1812,-9504,-137,174,-174,2025-02-17 16:22:19,0.0
-9472,1928,-9436,-122,174,-174,2025-02-17 16:22:19,0.0
-9516,1916,-9368,-161,167,-156,2025-02-17 16:22:19,0.0
-9596,1848,-9536,-155,175,-165,2025-02-17 16:22:19,0.0
-9560,1840,-9484,-166,181,-162,2025-02-17 16:22:19,0.0
-9512,1784,-9580,-176,162,-169,2025-02-17 16:22:19,0.0
-9484,1840,-9692,-146,174,-170,2025-02-17 16:22:19,0.0
-9564,1888,-9396,-169,166,-187,2025-02-17 16:22:19,0.0
-9612,1776,-9528,-163,160,-152,2025-02-17 16:22:19,0.0
-9492,1884,-9468,-148,183,-196,2025-02-17 16:22:19,0.0
-9524,1832,-9516,-159,158,-172,2025-02-17 16:22:19,0.0
-9456,1932,-9504,-165,164,-152,2025-02-17 16:22:19,0.0
-9632,1980,-9524,-116,143,-168,2025-02-17 16:22:19,0.0
-9620,1924,-9500,-171,171,-165,2025-02-17 16:22:19,0.0
-9496,1780,-9380,-142,174,-185,2025-02-17 16:22:19,0.0
-9656,1848,-9368,-138,161,-173,2025-02-17 16:22:20,0.0
-9564,1868,-9524,-150,157,-170,2025-02-17 16:22:20,0.0
-9488,1888,-9584,-153,164,-164,2025-02-17 16:22:20,0.0
-9436,1812,-9484,-170,166,-179,2025-02-17 16:22:20,0.0
-9532,1844,-9400,-160,185,-175,2025-02-17 16:22:20,0.0
-9576,1864,-9268,-147,176,-170,2025-02-17 16:22:20,0.0
-9596,1832,-9520,-144,152,-169,2025-02-17 16:22:20,0.0
-9500,1812,-9580,-135,176,-172,2025-02-17 16:22:20,0.0
-9660,1840,-9380,-130,181,-180,2025-02-17 16:22:20,0.0
-9536,1828,-9460,-159,180,-182,2025-02-17 16:22:20,0.0
-9532,1932,-9552,-131,162,-182,2025-02-17 16:22:20,0.0
-9556,1812,-9332,-174,162,-178,2025-02-17 16:22:20,0.0
-9512,1788,-9380,-151,167,-175,2025-02-17 16:22:20,0.0
-9644,1800,-9432,-146,196,-174,2025-02-17 16:22:20,0.0
-9480,1896,-9336,-137,177,-177,2025-02-17 16:22:20,0.0
-9528,1772,-9452,-154,169,-172,2025-02-17 16:22:20,0.0
-9660,1936,-9548,-159,182,-175,2025-02-17 16:22:20,0.0
-9484,1884,-9472,-149,162,-160,2025-02-17 16:22:20,0.0
-9524,1840,-9532,-150,151,-168,2025-02-17 16:22:20,0.0
-9516,1840,-9496,-176,166,-172,2025-02-17 16:22:20,0.0
-9544,1720,-9480,-191,190,-181,2025-02-17 16:22:20,0.0
-9528,1812,-9448,-164,167,-198,2025-02-17 16:22:20,0.0
-9612,1832,-9532,-185,155,-159,2025-02-17 16:22:20,0.0
-9456,1868,-9484,-163,165,-194,2025-02-17 16:22:20,0.0
-9516,1776,-9428,-150,146,-187,2025-02-17 16:22:20,0.0
-9572,1900,-9412,-136,180,-170,2025-02-17 16:22:20,0.0
-9644,1820,-9600,-145,170,-172,2025-02-17 16:22:20,0.0
-9636,1956,-9412,-179,163,-190,2025-02-17 16:22:20,0.0
-9520,1900,-9552,-138,156,-170,2025-02-17 16:22:20,0.0
-9540,1796,-9536,-150,168,-177,2025-02-17 16:22:20,0.0
-9456,1912,-9508,-176,146,-192,2025-02-17 16:22:20,0.0
-9536,1864,-9448,-135,170,-164,2025-02-17 16:22:20,0.0
-9612,1892,-9452,-147,159,-154,2025-02-17 16:22:20,0.0
-9516,1788,-9448,-136,166,-189,2025-02-17 16:22:20,0.0
-9432,1876,-9380,-160,186,-163,2025-02-17 16:22:20,0.0
-9544,1780,-9448,-148,175,-153,2025-02-17 16:22:20,0.0
-9536,1860,-9560,-173,171,-193,2025-02-17 16:22:20,0.0
-9476,1880,-9492,-161,159,-182,2025-02-17 16:22:20,
-9516,1744,-9552,-177,152,-175,2025-02-17 16:22:20,0.0
-9508,1940,-9388,-154,163,-166,2025-02-17 16:22:20,0.0
-9600,1952,-9456,-165,172,-184,2025-02-17 16:22:20,0.0
-9516,1880,-9496,-141,165,-165,2025-02-17 16:22:20,0.0
-9560,1824,-9480,-151,168,-148,2025-02-17 16:22:20,0.0
-9504,1836,-9524,-144,162,-190,2025-02-17 16:22:20,0.0
-9556,1820,-9340,-172,175,-184,2025-02-17 16:22:20,0.0
-9564,1800,-9436,-181,170,-166,2025-02-17 16:22:20,0.0
-9480,1968,-9500,-155,186,-187,2025-02-17 16:22:20,0.0
-9464,1840,-9468,-135,149,-173,2025-02-17 16:22:20,0.0
-9488,1860,-9632,-157,195,-179,2025-02-17 16:22:20,0.0
-9552,1776,-9360,-177,183,-169,2025-02-17 16:22:20,0.0
-9424,1788,-9416,-148,166,-157,2025-02-17 16:22:20,0.0
-9516,1976,-9472,-156,154,-173,2025-02-17 16:22:20,0.0
-9584,1820,-9460,-144,157,-187,2025-02-17 16:22:20,0.0
-9448,1848,-9504,-165,149,-193,2025-02-17 16:22:20,0.0
-9600,1776,-9508,-144,166,-173,2025-02-17 16:22:20,0.0
-9580,1744,-9384,-194,157,-176,2025-02-17 16:22:20,0.0
-9512,1776,-9272,-172,146,-178,2025-02-17 16:22:20,0.0
-9528,1804,-9360,-123,197,-160,2025-02-17 16:22:20,0.0
-9520,1956,-9460,-168,159,-193,2025-02-17 16:22:20,0.0
-9488,1936,-9536,-148,152,-194,2025-02-17 16:22:20,0.0
-9520,1824,-9376,-151,180,-174,2025-02-17 16:22:21,0.0
-9488,1844,-9516,-186,185,-167,2025-02-17 16:22:21,0.0
-9588,1748,-9428,-164,191,-169,2025-02-17 16:22:21,0.0
-9508,1832,-9388,-165,144,-176,2025-02-17 16:22:21,0.0
-9560,1808,-9576,-171,170,-167,2025-02-17 16:22:21,0.0
-9528,1800,-9480,-153,186,-176,2025-02-17 16:22:21,0.0
-9504,1848,-9528,-152,158,-180,2025-02-17 16:22:21,0.0
-9492,1736,-9568,-174,176,-187,2025-02-17 16:22:21,0.0
-9528,1880,-9596,-156,151,-189,2025-02-17 16:22:21,0.0
-9568,1904,-9368,-154,181,-178,2025-02-17 16:22:21,0.0
-9532,1896,-9496,-131,163,-167,2025-02-17 16:22:21,0.0
-9452,1804,-9424,-194,173,-166,2025-02-17 16:22:21,0.0
-9512,1796,-9452,-165,167,-185,2025-02-17 16:22:21,0.0
-9452,1836,-9504,-162,173,-169,2025-02-17 16:22:21,0.0
-9544,1832,-9540,-131,185,-156,2025-02-17 16:22:21,0.0
-9496,1852,-9492,-167,161,-169,2025-02-17 16:22:21,0.0
-9420,1924,-9568,-160,180,-175,2025-02-17 16:22:21,0.0
-9616,1760,-9384,-147,148,-181,2025-02-17 16:22:21,0.0
-9508,1848,-9300,-173,178,-174,2025-02-17 16:22:21,0.0
-9472,1788,-9568,-179,142,-154,2025-02-17 16:22:21,0.0
-9672,1804,-9516,-154,172,-167,2025-02-17 16:22:21,0.0
-9512,1788,-9552,-156,181,-199,2025-02-17 16:22:21,0.0
-9532,1800,-9368,-152,181,-178,2025-02-17 16:22:21,0.0
-9456,1768,-9560,-160,180,-164,2025-02-17 16:22:21,0.0
-9564,1864,-9284,-158,178,-165,2025-02-17 16:22:21,0.0
-9420,1836,-9588,-148,161,-194,2025-02-17 16:22:21,0.0
-9588,1768,-9500,-138,131,-163,2025-02-17 16:22:21,0.0
-9492,1908,-9408,-125,152,-183,2025-02-17 16:22:21,0.0
-9580,1792,-9492,-169,181,-162,2025-02-17 16:22:21,0.0
-9492,1800,-9452,-167,139,-181,2025-02-17 16:22:21,0.0
-9460,1824,-9480,-151,164,-194,2025-02-17 16:22:21,0.0
-9492,1884,-9328,-157,151,-203,2025-02-17 16:22:21,0.0
-9548,1768,-9416,-176,178,-177,2025-02-17 16:22:21,0.0
-9492,1900,-9620,-141,169,-167,2025-02-17 16:22:21,0.0
-9560,1832,-9392,-187,171,-169,2025-02-17 16:22:21,0.0
-9584,1944,-9460,-135,142,-189,2025-02-17 16:22:21,0.0
-9528,1876,-9404,-137,182,-191,2025-02-17 16:22:21,0.0
-9540,1800,-9424,-154,173,-187,2025-02-17 16:22:21,0.0
-9520,1840,-9520,-146,165,-171,2025-02-17 16:22:21,0.0
-9572,1840,-9372,-138,148,-212,2025-02-17 16:22:21,0.0
-9516,1904,-9568,-138,167,-184,2025-02-17 16:22:21,0.0
-9648,1856,-9404,-115,194,-182,2025-02-17 16:22:21,0.0
-9544,1892,-9468,-146,166,-176,2025-02-17 16:22:21,0.0
-9556,1692,-9636,-141,161,-179,2025-02-17 16:22:21,0.0
-9448,1844,-9516,-182,156,-185,2025-02-17 16:22:21,0.0
-9612,1768,-9564,-164,158,-158,2025-02-17 16:22:21,0.0
-9600,1872,-9540,-130,177,-181,2025-02-17 16:22:21,0.0
-9524,1840,-9380,-141,163,-177,2025-02-17 16:22:21,0.0
-9516,1880,-9328,-156,182,-178,2025-02-17 16:22:21,0.0
-9476,1932,-9616,-158,158,-164,2025-02-17 16:22:21,0.0
-9552,1836,-9500,-182,176,-167,2025-02-17 16:22:21,0.0
-9532,1836,-9416,-168,151,-185,2025-02-17 16:22:21,0.0
-9512,1828,-9420,-151,174,-187,2025-02-17 16:22:21,0.0
-9524,1832,-9588,-141,190,-191,2025-02-17 16:22:21,0.0
-9564,1820,-9500,-163,175,-173,2025-02-17 16:22:21,0.0
-9532,1840,-9508,-165,161,-183,2025-02-17 16:22:21,0.0
-9528,1916,-9480,-159,158,-140,2025-02-17 16:22:21,0.0
-9524,1872,-9676,-139,181,-164,2025-02-17 16:22:21,0.0
-9608,1876,-9464,-163,188,-183,2025-02-17 16:22:21,0.0
-9532,1900,-9452,-153,175,-180,2025-02-17 16:22:21,0.0
-9504,1820,-9440,-164,168,-174,2025-02-17 16:22:21,0.0
-9484,1836,-9604,-146,164,-174,2025-02-17 16:22:22,0.0
-9536,1760,-9264,-153,137,-176,2025-02-17 16:22:22,0.0
-9544,1808,-9364,-164,161,-168,2025-02-17 16:22:22,0.0
-9404,1836,-9528,-144,161,-189,2025-02-17 16:22:22,0.0
-9516,1820,-9412,-169,199,-193,2025-02-17 16:22:22,0.0
-9520,1844,-9572,-126,166,-173,2025-02-17 16:22:22,0.0
-9524,1824,-9432,-176,159,-166,2025-02-17 16:22:22,0.0
-9408,1860,-9572,-158,166,-158,2025-02-17 16:22:22,0.0
-9588,1800,-9460,-144,155,-186,2025-02-17 16:22:22,0.0
-9612,1856,-9568,-139,179,-182,2025-02-17 16:22:22,0.0
-9564,1880,-9456,-147,171,-127,2025-02-17 16:22:22,0.0
-9464,1848,-9372,-137,163,-182,2025-02-17 16:22:22,0.0
-9528,1864,-9512,-162,176,-188,2025-02-17 16:22:22,0.0
-9544,1812,-9404,-163,176,-163,2025-02-17 16:22:22,0.0
-9504,1808,-9456,-155,171,-206,2025-02-17 16:22:22,0.0
-9516,1892,-9456,-189,174,-172,2025-02-17 16:22:22,0.0
-9404,1764,-9472,-164,168,-155,2025-02-17 16:22:22,
-9580,1788,-9340,-154,168,-194,2025-02-17 16:22:22,0.0
-9536,1780,-9452,-138,178,-181,2025-02-17 16:22:22,0.0
-9536,1892,-9516,-178,169,-155,2025-02-17 16:22:22,0.0
-9508,1840,-9424,-153,169,-157,2025-02-17 16:22:22,0.0
-9564,1860,-9404,-143,153,-173,2025-02-17 16:22:22,0.0
-9464,1932,-9500,-174,157,-176,2025-02-17 16:22:22,0.0
-9432,1768,-9560,-155,175,-189,2025-02-17 16:22:22,0.0
-9580,1880,-9532,-156,170,-188,2025-02-17 16:22:22,0.0
-9544,1792,-9464,-159,149,-183,2025-02-17 16:22:22,0.0
-9520,1856,-9440,-137,180,-188,2025-02-17 16:22:22,0.0
-9540,1800,-9420,-169,175,-173,2025-02-17 16:22:22,0.0
-9476,1824,-9464,-168,169,-187,2025-02-17 16:22:22,0.0
-9532,1792,-9420,-156,185,-181,2025-02-17 16:22:22,0.0
-9564,1860,-9440,-156,163,-199,2025-02-17 16:22:22,0.0
-9404,1888,-9580,-168,167,-147,2025-02-17 16:22:22,0.0
-9512,1876,-9424,-196,155,-174,2025-02-17 16:22:22,0.0
-9484,1848,-9404,-162,172,-167,2025-02-17 16:22:22,0.0
-9464,1772,-9380,-187,161,-177,2025-02-17 16:22:22,0.0
-9420,1840,-9560,-159,143,-184,2025-02-17 16:22:22,0.0
-9496,1896,-9512,-161,160,-177,2025-02-17 16:22:22,0.0
-9472,1868,-9560,-164,179,-178,2025-02-17 16:22:22,0.0
-9492,1880,-9508,-166,191,-180,2025-02-17 16:22:22,0.0
-9580,1804,-9428,-150,172,-169,2025-02-17 16:22:22,0.0
-9472,1756,-9468,-157,160,-170,2025-02-17 16:22:22,0.0
-9508,1860,-9580,-154,195,-175,2025-02-17 16:22:22,0.0
-9656,1804,-9320,-146,159,-166,2025-02-17 16:22:22,0.0
-9520,1856,-9504,-167,153,-190,2025-02-17 16:22:22,0.0
-9564,1804,-9404,-158,180,-173,2025-02-17 16:22:22,0.0
-9500,1724,-9540,-171,186,-171,2025-02-17 16:22:22,0.0
-9524,1812,-9496,-174,176,-160,2025-02-17 16:22:22,0.0
-9420,1832,-9588,-185,175,-180,2025-02-17 16:22:22,0.0
-9512,1836,-9612,-148,147,-177,2025-02-17 16:22:22,0.0
-9540,1884,-9604,-145,174,-181,2025-02-17 16:22:22,0.0
-9456,1816,-9464,-164,163,-172,2025-02-17 16:22:22,0.0
-9424,1812,-9368,-150,176,-182,2025-02-17 16:22:22,0.0
-9404,1836,-9424,-167,173,-175,2025-02-17 16:22:22,0.0
-9528,1752,-9452,-165,162,-195,2025-02-17 16:22:22,0.0
-9608,1916,-9348,-177,172,-175,2025-02-17 16:22:22,0.0
-9508,1876,-9544,-143,181,-174,2025-02-17 16:22:22,0.0
-9548,1748,-9548,-184,178,-168,2025-02-17 16:22:22,0.0
-9508,1752,-9412,-163,196,-173,2025-02-17 16:22:22,0.0
-9532,1876,-9408,-156,163,-168,2025-02-17 16:22:22,0.0
-9512,1864,-9396,-139,161,-176,2025-02-17 16:22:22,0.0
-9520,1836,-9500,-162,172,-170,2025-02-17 16:22:23,0.0
-9548,1812,-9544,-135,174,-202,2025-02-17 16:22:23,0.0
-9572,1824,-9280,-172,190,-163,2025-02-17 16:22:23,0.0
-9536,1788,-9532,-170,176,-186,2025-02-17 16:22:23,0.0
-9560,1880,-9388,-169,156,-169,2025-02-17 16:22:23,0.0
-9388,1840,-9472,-153,175,-177,2025-02-17 16:22:23,0.0
-9528,1816,-9504,-173,175,-181,2025-02-17 16:22:23,0.0
-9476,1764,-9468,-169,157,-169,2025-02-17 16:22:23,0.0
-9524,1892,-9412,-178,178,-155,2025-02-17 16:22:23,0.0
-9440,1848,-9424,-160,169,-177,2025-02-17 16:22:23,0.0
-9520,1864,-9532,-155,182,-175,2025-02-17 16:22:23,0.0
-9520,1864,-9404,-165,188,-173,2025-02-17 16:22:23,0.0
-9532,1852,-9536,-156,172,-182,2025-02-17 16:22:23,0.0
-9540,1840,-9472,-150,164,-164,2025-02-17 16:22:23,0.0
-9496,1844,-9444,-145,143,-198,2025-02-17 16:22:23,0.0
-9456,1908,-9556,-152,171,-188,2025-02-17 16:22:23,0.0
-9608,1864,-9456,-166,177,-189,2025-02-17 16:22:23,0.0
-9596,1820,-9500,-168,171,-166,2025-02-17 16:22:23,0.0
-9488,1864,-9544,-195,174,-170,2025-02-17 16:22:23,0.0
-9492,1928,-9388,-146,173,-165,2025-02-17 16:22:23,0.0
-9520,1824,-9460,-173,178,-161,2025-02-17 16:22:23,0.0
-9520,1924,-9356,-132,165,-176,2025-02-17 16:22:23,0.0
-9564,1800,-9360,-166,167,-177,2025-02-17 16:22:23,0.0
-9556,1860,-9428,-173,184,-170,2025-02-17 16:22:23,0.0
-9576,1888,-9380,-136,171,-169,2025-02-17 16:22:23,0.0
-9628,1824,-9604,-156,187,-147,2025-02-17 16:22:23,0.0
-9484,1816,-9568,-168,170,-171,2025-02-17 16:22:23,0.0
-9516,1880,-9540,-149,170,-182,2025-02-17 16:22:23,0.0
-9676,1948,-8576,-74,-23,-151,2025-02-17 16:22:23,0.0
-9392,1900,-9976,60,-200,-209,2025-02-17 16:22:23,0.0
-9524,1656,-9668,-123,-17,-107,2025-02-17 16:22:23,0.0
-12140,1412,-4372,-302,-5794,-72,2025-02-17 16:22:23,0.0
-9992,1256,-5752,-499,-11054,-971,2025-02-17 16:22:23,0.0
-10628,2600,-13528,259,-4633,-43,2025-02-17 16:22:23,0.0
-11076,1928,-8304,-381,3143,140,2025-02-17 16:22:23,0.0
-6736,1636,-7704,-179,3885,-342,2025-02-17 16:22:23,0.0
-12100,1744,-10208,82,2676,151,2025-02-17 16:22:23,0.0
-10032,2112,-10664,-237,-2851,38,2025-02-17 16:22:23,0.0
-10852,1908,-8932,131,-5204,-482,2025-02-17 16:22:23,0.0
-9944,1780,-8912,-239,-3396,-223,2025-02-17 16:22:23,0.0
-10884,940,-8412,-457,-3396,303,2025-02-17 16:22:23,0.0
-11416,1972,-8328,-672,-3794,627,2025-02-17 16:22:23,0.0
-12448,1376,-8016,-496,-8773,327,2025-02-17 16:22:23,0.0
-13620,1700,-10796,-829,-17280,1205,2025-02-17 16:22:23,0.0
-13328,2664,-11908,-1073,-26556,2320,2025-02-17 16:22:23,0.0
-6712,3808,-12396,-1973,-26618,2175,2025-02-17 16:22:23,0.0
-8880,3716,-8080,-3662,-17374,957,2025-02-17 16:22:23,0.0
-13816,3788,-6756,-4845,-15721,1140,2025-02-17 16:22:23,0.0
-15680,3864,-6636,-5898,-12853,2988,2025-02-17 16:22:23,0.0
-15676,3472,-6384,-5614,-8126,6143,2025-02-17 16:22:23,0.0
-14848,2812,-4048,-3804,-5761,7063,2025-02-17 16:22:23,0.0
-12260,2516,-3352,-754,-4588,3984,2025-02-17 16:22:23,0.0
-10520,2800,-4880,2918,367,-1703,2025-02-17 16:22:23,0.0
-14732,1856,-5540,5258,1634,-4725,2025-02-17 16:22:23,0.0
-15612,2652,-6504,5992,2581,-4600,2025-02-17 16:22:23,0.0
-14552,2024,-7212,5692,3609,-4070,2025-02-17 16:22:23,0.0
-14508,1568,-6556,6007,4266,-4566,2025-02-17 16:22:23,
-15320,900,-5996,6786,4956,-5351,2025-02-17 16:22:23,0.0
-16176,716,-5636,7644,5335,-5986,2025-02-17 16:22:23,0.0
-17000,604,-5352,8373,5092,-6094,2025-02-17 16:22:23,0.0
-16364,468,-5440,8571,4633,-5840,2025-02-17 16:22:23,0.0
-15604,816,-5940,7587,4488,-5868,2025-02-17 16:22:24,0.0
-16968,1016,-6180,6551,4857,-5565,2025-02-17 16:22:24,0.0
-17508,1232,-5708,4547,4736,-4502,2025-02-17 16:22:24,0.0
-17364,-16,-4292,3646,3095,-3770,2025-02-17 16:22:24,0.0
-18016,-332,-3752,3909,3005,-4255,2025-02-17 16:22:24,0.0
-17920,-376,-3796,3975,1617,-4525,2025-02-17 16:22:24,0.0
-18124,-36,-4240,4013,985,-3877,2025-02-17 16:22:24,0.0
-17760,208,-5312,3638,485,-3058,2025-02-17 16:22:24,0.0
-16072,336,-7360,2468,488,-2452,2025-02-17 16:22:24,0.0
-15380,748,-8508,-70,1924,-3744,2025-02-17 16:22:24,0.0
-15308,244,-9080,-3036,2670,-5125,2025-02-17 16:22:24,0.0
-14584,460,-9144,-5630,4038,-6702,2025-02-17 16:22:24,0.0
-14692,468,-8256,-7363,5514,-7226,2025-02-17 16:22:24,0.0
-14928,464,-5268,-8228,5573,-6072,2025-02-17 16:22:24,0.0
-14276,816,-4576,-9249,4844,-3589,2025-02-17 16:22:24,0.0
-12096,328,-3736,-10626,3879,-2041,2025-02-17 16:22:24,0.0
-12628,-416,-2996,-9785,3821,-1959,2025-02-17 16:22:24,0.0
-13944,-336,-3932,-7862,2825,-1584,2025-02-17 16:22:24,0.0
-13520,-104,-4632,-7337,1474,-489,2025-02-17 16:22:24,0.0
-11880,224,-7596,-7596,1926,-588,2025-02-17 16:22:24,0.0
-11804,264,-8552,-9644,2576,-935,2025-02-17 16:22:24,0.0
-12276,-1792,-5788,-9726,2870,-1711,2025-02-17 16:22:24,0.0
-12452,-1676,-4660,-7721,3161,-3163,2025-02-17 16:22:24,0.0
-13296,-720,-4076,-6483,3152,-2328,2025-02-17 16:22:24,0.0
-13552,-228,-3920,-5456,2589,-394,2025-02-17 16:22:24,0.0
-12208,-768,-3108,-5092,2323,1432,2025-02-17 16:22:24,0.0
-10992,-2064,-472,-2854,1122,96,2025-02-17 16:22:24,0.0
-10516,-1952,-148,134,-209,-3194,2025-02-17 16:22:24,0.0
-11904,-824,-2836,474,-2179,-4570,2025-02-17 16:22:24,0.0
-11960,-156,-5072,-1348,-2597,-4029,2025-02-17 16:22:24,0.0
-11448,-264,-5148,-3881,-3049,-3265,2025-02-17 16:22:24,0.0
-9176,-312,-6188,-6202,-3972,-3104,2025-02-17 16:22:24,0.0
-7972,-152,-7140,-8625,-3917,-3403,2025-02-17 16:22:24,0.0
-8756,-808,-7244,-11163,-4005,-3062,2025-02-17 16:22:24,0.0
-8412,-2088,-6224,-11713,-4290,-2769,2025-02-17 16:22:24,0.0
-8856,-2784,-5160,-10421,-4674,-2968,2025-02-17 16:22:24,0.0
-9604,-3112,-4388,-8059,-5682,-3569,2025-02-17 16:22:24,0.0
-9304,-2880,-4808,-5513,-6868,-4931,2025-02-17 16:22:24,0.0
-9224,-2544,-5488,-3788,-6730,-6324,2025-02-17 16:22:24,0.0
-8892,-2148,-7032,-4198,-7026,-7503,2025-02-17 16:22:24,0.0
-9136,-1728,-8572,-7232,-7693,-8512,2025-02-17 16:22:24,0.0
-9920,-2124,-6668,-10992,-9003,-7401,2025-02-17 16:22:24,0.0
-9528,-2448,-4400,-11942,-9730,-6414,2025-02-17 16:22:24,0.0
-7660,-2512,-3768,-11391,-9788,-6685,2025-02-17 16:22:24,0.0
-6496,-1952,-4264,-10458,-8731,-7938,2025-02-17 16:22:24,0.0
-5956,-1628,-5028,-9896,-7551,-8887,2025-02-17 16:22:24,0.0
-6828,-1348,-5232,-9802,-6068,-9067,2025-02-17 16:22:24,0.0
-7696,-936,-4396,-10192,-6216,-8781,2025-02-17 16:22:24,0.0
-8312,-1528,-3608,-10866,-6431,-8229,2025-02-17 16:22:24,0.0
-9576,-1900,-3184,-12518,-7476,-7353,2025-02-17 16:22:24,0.0
-9788,-1684,-4956,-14848,-8089,-6681,2025-02-17 16:22:24,0.0
-9228,-1864,-6948,-17541,-6717,-7192,2025-02-17 16:22:24,0.0
-8976,-1372,-7152,-20289,-5157,-9082,2025-02-17 16:22:24,0.0
-9404,-1272,-6100,-21889,-4333,-10664,2025-02-17 16:22:24,0.0
-10672,-908,-4712,-22893,-3911,-11145,2025-02-17 16:22:24,0.0
-10512,-1056,-3564,-22666,-2582,-11129,2025-02-17 16:22:24,0.0
-10800,-1944,840,-20562,-1836,-10590,2025-02-17 16:22:24,0.0
-13024,-2364,792,-16206,-1899,-7548,2025-02-17 16:22:24,0.0
-10936,-2364,-732,-12617,-2853,-4777,2025-02-17 16:22:24,0.0
-10092,-2344,-2340,-10954,-1718,-5617,2025-02-17 16:22:24,0.0
-11920,-1224,-4168,-11980,-369,-5324,2025-02-17 16:22:25,0.0
-13408,-696,-3584,-13475,-198,-4928,2025-02-17 16:22:25,0.0
-14124,-1320,-2876,-13792,-170,-4632,2025-02-17 16:22:25,0.0
-14916,-1736,-1388,-12280,937,-3534,2025-02-17 16:22:25,0.0
-14384,-2584,1296,-9615,864,-2545,2025-02-17 16:22:25,0.0
-14576,-2812,1812,-5511,-349,-1176,2025-02-17 16:22:25,0.0
-14980,-3088,1340,-2228,-1292,102,2025-02-17 16:22:25,0.0
-15676,-3948,432,-206,-2513,1164,2025-02-17 16:22:25,0.0
-14472,-3968,-2680,105,-2805,1340,2025-02-17 16:22:25,0.0
-13932,-3228,-4856,-2644,-2677,372,2025-02-17 16:22:25,0.0
-13536,-3048,-4444,-6126,-2866,-955,2025-02-17 16:22:25,0.0
-13132,-3120,-2596,-8547,-2347,-2365,2025-02-17 16:22:25,0.0
-14120,-3472,-1180,-8953,-1770,-2774,2025-02-17 16:22:25,0.0
-14512,-3048,-156,-8000,-1857,-2097,2025-02-17 16:22:25,0.0
-14548,-2812,372,-6430,-2067,-800,2025-02-17 16:22:25,0.0
-14112,-2588,116,-4638,-3158,596,2025-02-17 16:22:25,0.0
-13148,-2364,-908,-3468,-3516,1679,2025-02-17 16:22:25,0.0
-12372,-2284,-2724,-3405,-3179,2232,2025-02-17 16:22:25,0.0
-12492,-2456,-3512,-4721,-3297,1728,2025-02-17 16:22:25,0.0
-11992,-3012,-4136,-6628,-3457,326,2025-02-17 16:22:25,0.0
-12636,-3108,-3908,-8321,-2165,-1335,2025-02-17 16:22:25,0.0
-13400,-3280,-3288,-9432,-1453,-2853,2025-02-17 16:22:25,0.0
-14308,-3144,-2096,-9422,-1205,-3507,2025-02-17 16:22:25,0.0
-14740,-3044,-1760,-8362,-1157,-3146,2025-02-17 16:22:25,0.0
-14692,-2804,-1892,-6475,-1019,-1834,2025-02-17 16:22:25,0.0
-13984,-3024,-2264,-4622,-230,-845,2025-02-17 16:22:25,0.0
-13896,-2944,-2536,-3215,392,-462,2025-02-17 16:22:25,0.0
-13904,-3144,-2636,-2454,770,-374,2025-02-17 16:22:25,0.0
-14168,-3096,-2852,-2171,1162,-355,2025-02-17 16:22:25,0.0
-13728,-3068,-2464,-1814,1006,-624,2025-02-17 16:22:25,0.0
-13756,-2524,-1988,-1194,768,-1031,2025-02-17 16:22:25,0.0
-13796,-1724,-1628,-456,1240,-1311,2025-02-17 16:22:25,0.0
-13576,-1256,-1492,62,1452,-1417,2025-02-17 16:22:25,0.0
-13720,-1380,-984,388,1287,-1113,2025-02-17 16:22:25,0.0
-14716,-1964,-928,360,234,-535,2025-02-17 16:22:25,0.0
-14408,-2288,-1220,-211,-147,-188,2025-02-17 16:22:25,
-14280,-2376,-1512,-1450,236,-454,2025-02-17 16:22:25,0.0
-14152,-2096,-1700,-3044,129,-1196,2025-02-17 16:22:25,0.0
-13532,-2208,-1428,-4224,-736,-1903,2025-02-17 16:22:25,0.0
-13228,-2200,-808,-4953,-1306,-2572,2025-02-17 16:22:25,0.0
-13960,-2300,-292,-5211,-2421,-2786,2025-02-17 16:22:25,0.0
-13816,-2580,-264,-5037,-3084,-2351,2025-02-17 16:22:25,0.0
-13728,-2744,-916,-5051,-2880,-1680,2025-02-17 16:22:25,0.0
-13960,-2940,-1992,-5832,-3171,-1083,2025-02-17 16:22:25,0.0
-13788,-3088,-2656,-7013,-2327,-903,2025-02-17 16:22:25,0.0
-13592,-3160,-3092,-8594,-2374,-954,2025-02-17 16:22:25,0.0
-12920,-3600,-2196,-9649,-2924,-1436,2025-02-17 16:22:25,0.0
-11732,-3720,-1496,-9935,-2813,-2178,2025-02-17 16:22:25,0.0
-11632,-3380,-508,-9853,-2387,-2492,2025-02-17 16:22:25,0.0
-12572,-3632,616,-9389,-2980,-1988,2025-02-17 16:22:25,0.0
-14356,-3888,176,-8179,-3255,-1180,2025-02-17 16:22:25,0.0
-13600,-3548,-1420,-6954,-1547,107,2025-02-17 16:22:25,0.0
-13280,-3424,-2140,-6872,-124,804,2025-02-17 16:22:25,0.0
-12888,-2680,-2640,-8081,15,663,2025-02-17 16:22:25,0.0
-12992,-3068,-2760,-10977,-2250,1066,2025-02-17 16:22:25,0.0
-14032,-3536,-1976,-12190,-4237,1317,2025-02-17 16:22:25,0.0
-15052,-3172,-1440,-11815,-3958,1961,2025-02-17 16:22:25,0.0
-15136,-2728,-1328,-10667,-3079,3838,2025-02-17 16:22:25,0.0
-13444,-2640,-1288,-9594,-1432,5032,2025-02-17 16:22:25,0.0
-12532,-2456,-1164,-9064,-428,4972,2025-02-17 16:22:25,0.0
-15108,-2208,-1116,-9459,-1374,4780,2025-02-17 16:22:25,0.0
-15844,-1504,-880,-10015,-2621,4923,2025-02-17 16:22:26,0.0
-13540,-1360,136,-8807,-1938,4162,2025-02-17 16:22:26,0.0
-12728,-1392,792,-6246,-531,3502,2025-02-17 16:22:26,0.0
-9344,-1116,352,-4170,733,2517,2025-02-17 16:22:26,0.0
-8200,-1056,-824,-5109,200,-835,2025-02-17 16:22:26,0.0
-11576,-988,-628,-6700,507,-3905,2025-02-17 16:22:26,0.0
-15240,-108,-140,-8182,-438,-5390,2025-02-17 16:22:26,0.0
-13500,148,-1140,-9178,-1740,-7342,2025-02-17 16:22:26,0.0
-13592,-688,1496,-7936,2034,-9713,2025-02-17 16:22:26,0.0
-26840,16316,-2080,-15141,-5019,-6978,2025-02-17 16:22:26,0.0
-14288,-480,7320,-23151,3938,-1508,2025-02-17 16:22:26,0.0
-12796,-1280,7544,-15226,3353,4808,2025-02-17 16:22:26,0.0
-12716,-4772,2364,-9908,-1482,4143,2025-02-17 16:22:26,0.0
-12024,-3448,1420,-6582,-4086,1788,2025-02-17 16:22:26,0.0
-10156,-1956,1768,-3529,-2094,-3468,2025-02-17 16:22:26,0.0
-13404,-1060,668,-2983,209,-7439,2025-02-17 16:22:26,0.0
-15560,-2296,1476,-1557,-3170,-6529,2025-02-17 16:22:26,0.0
-15516,-212,-12,1062,-1958,-2750,2025-02-17 16:22:26,0.0
-11548,-752,-3084,1267,1194,56,2025-02-17 16:22:26,0.0
-11688,-312,-7200,-1407,8379,966,2025-02-17 16:22:26,0.0
-14316,-1104,-6036,-4631,8467,1192,2025-02-17 16:22:26,0.0
-15684,-1528,-4332,-7016,5459,1953,2025-02-17 16:22:26,0.0
-13896,-2616,-3116,-8543,2281,2810,2025-02-17 16:22:26,0.0
-13088,-4108,-784,-8175,-557,1238,2025-02-17 16:22:26,0.0
-11684,-4980,2360,-6091,-1772,456,2025-02-17 16:22:26,0.0
-7952,-5484,3920,-1502,917,-583,2025-02-17 16:22:26,0.0
-7304,-3360,1204,188,3775,327,2025-02-17 16:22:26,0.0
-7412,-5224,768,1984,13972,661,2025-02-17 16:22:26,0.0
-10704,-3532,-2724,4263,20528,2318,2025-02-17 16:22:26,0.0
-9304,-2796,-9792,3448,17460,742,2025-02-17 16:22:26,0.0
-12660,-1636,-11772,-59,9511,-540,2025-02-17 16:22:26,0.0
-12520,-2180,-7804,-2978,3117,-125,2025-02-17 16:22:26,0.0
-11668,-2064,-4688,-3355,-3582,-328,2025-02-17 16:22:26,0.0
-11544,-1964,-2256,-4012,-10247,-700,2025-02-17 16:22:26,0.0
-8840,-3340,10724,2753,-10340,-2531,2025-02-17 16:22:26,0.0
-10408,-664,-4116,3236,-4829,-2971,2025-02-17 16:22:26,0.0
-12636,-472,-5516,1514,-2548,-3302,2025-02-17 16:22:26,0.0
-19824,-2228,-1448,3156,-1646,-3256,2025-02-17 16:22:26,0.0
-23628,500,-5132,5174,-2713,-554,2025-02-17 16:22:26,0.0
-17144,-1532,-1116,5630,-4347,-1936,2025-02-17 16:22:26,0.0
-21476,-1504,-20,8064,-5386,-65,2025-02-17 16:22:26,0.0
-23168,-744,-2444,8627,-4940,2825,2025-02-17 16:22:26,0.0
-23288,-344,-3832,7353,-5562,4417,2025-02-17 16:22:26,0.0
-21540,-364,-3648,6741,-4063,4990,2025-02-17 16:22:26,0.0
-19660,436,-3972,6831,-848,4509,2025-02-17 16:22:26,0.0
-17376,376,-1980,8050,-1734,3449,2025-02-17 16:22:26,0.0
-14240,1432,-804,8348,-1060,2745,2025-02-17 16:22:26,0.0
-12380,1404,-2404,6931,2612,2910,2025-02-17 16:22:26,0.0
-12196,1204,-1328,5547,5850,2471,2025-02-17 16:22:26,0.0
-12988,784,376,4924,6346,3144,2025-02-17 16:22:26,0.0
-11652,-84,-540,3966,2752,4575,2025-02-17 16:22:26,0.0
-11292,1540,584,3684,-3195,6075,2025-02-17 16:22:26,0.0
-8292,1912,876,3832,-5727,6648,2025-02-17 16:22:26,0.0
-5664,1412,664,4016,-6093,6614,2025-02-17 16:22:26,0.0
-3856,2092,-88,4210,-6287,6578,2025-02-17 16:22:26,0.0
-3236,2060,-812,4511,-6402,5900,2025-02-17 16:22:26,0.0
-3464,1836,-1852,5093,-7833,4611,2025-02-17 16:22:26,0.0
-5076,1616,-3912,5537,-8422,2635,2025-02-17 16:22:26,0.0
-9092,2168,-2476,6375,-6515,644,2025-02-17 16:22:26,0.0
-11968,2380,428,7915,-6017,-486,2025-02-17 16:22:27,0.0
-13452,492,-1472,9660,-6987,-770,2025-02-17 16:22:27,0.0
-16604,-748,-3108,8856,-3887,-184,2025-02-17 16:22:27,0.0
-18708,-144,-3104,8111,-2450,1013,2025-02-17 16:22:27,0.0
-19016,1144,-3980,6603,-1127,2265,2025-02-17 16:22:27,0.0
-15616,1332,-2464,5536,-80,1985,2025-02-17 16:22:27,0.0
-12348,2208,188,5454,3303,757,2025-02-17 16:22:27,0.0
-15920,724,2580,5485,-342,281,2025-02-17 16:22:27,0.0
-14268,668,3768,5536,-5428,-667,2025-02-17 16:22:27,0.0
-14084,280,6104,6182,-4965,-1070,2025-02-17 16:22:27,0.0
-15892,-4,7100,6639,-2121,-1332,2025-02-17 16:22:27,0.0
-15168,-100,3464,6581,-814,-2575,2025-02-17 16:22:27,0.0
-15052,-284,688,5852,1581,-3821,2025-02-17 16:22:27,0.0
-17108,-72,416,5609,1540,-3999,2025-02-17 16:22:27,0.0
-16160,324,3148,6370,1574,-4631,2025-02-17 16:22:27,0.0
-16700,-124,4676,7056,-392,-4102,2025-02-17 16:22:27,
-16204,-700,4160,6930,-3952,-3800,2025-02-17 16:22:27,0.0
-13984,-1008,3532,7195,-4031,-3926,2025-02-17 16:22:27,0.0
-12544,-1000,2432,7417,-1606,-4473,2025-02-17 16:22:27,0.0
-11548,-1352,1348,7693,553,-4972,2025-02-17 16:22:27,0.0
-13088,-624,896,7776,455,-4608,2025-02-17 16:22:27,0.0
-12272,-564,428,8264,-829,-3531,2025-02-17 16:22:27,0.0
-14320,876,456,8607,-1747,-3051,2025-02-17 16:22:27,0.0
-16848,464,2008,7351,-4347,-1261,2025-02-17 16:22:27,0.0
-16832,28,1316,6202,-4989,302,2025-02-17 16:22:27,0.0
-16316,-280,224,5173,-1936,1740,2025-02-17 16:22:27,0.0
-15744,-132,420,4106,2631,2592,2025-02-17 16:22:27,0.0
-13724,-356,1528,4062,5113,2829,2025-02-17 16:22:27,0.0
-11888,-44,2080,4877,6961,2681,2025-02-17 16:22:27,0.0
-10500,172,2560,7149,8779,2107,2025-02-17 16:22:27,0.0
-10764,-964,640,9526,7731,750,2025-02-17 16:22:27,0.0
-12064,-1992,-308,11464,5569,-23,2025-02-17 16:22:27,0.0
-13564,-2872,-176,13888,3052,-377,2025-02-17 16:22:27,0.0
-15236,-3788,-1468,15159,216,-130,2025-02-17 16:22:27,0.0
-16492,-5128,-1580,15352,-2041,511,2025-02-17 16:22:27,0.0
-16216,-4288,-2812,14573,-3100,1369,2025-02-17 16:22:27,0.0
-15860,-3088,-2128,13061,-4123,2012,2025-02-17 16:22:27,0.0
-13880,-4788,-1760,11623,-2625,1899,2025-02-17 16:22:27,0.0
-14364,-5044,-812,11061,-1354,1281,2025-02-17 16:22:27,0.0
-14424,-4360,344,11415,-422,903,2025-02-17 16:22:27,0.0
-13504,-3676,2256,11768,-1477,339,2025-02-17 16:22:27,0.0
-10088,-3384,1096,11990,-785,-770,2025-02-17 16:22:27,0.0
-10312,-3024,-1760,10878,1899,-2282,2025-02-17 16:22:27,0.0
-9796,-3288,-2952,8514,3061,-2859,2025-02-17 16:22:27,0.0
-10312,-3024,-516,6291,1935,-2892,2025-02-17 16:22:27,0.0
-10392,-4264,1344,5566,-929,-2794,2025-02-17 16:22:27,0.0
-11428,-5352,1684,6066,-2892,-3009,2025-02-17 16:22:27,0.0
-12836,-3864,1168,6122,-4051,-2683,2025-02-17 16:22:27,0.0
-13504,-3448,2136,6006,-4268,-1740,2025-02-17 16:22:27,0.0
-16092,-4716,6152,6640,-5427,-336,2025-02-17 16:22:27,0.0
-16240,-7080,7452,7722,-6141,948,2025-02-17 16:22:27,0.0
-16816,-5972,7524,10281,-6291,1500,2025-02-17 16:22:27,0.0
-16152,-4552,3852,12176,-4019,1324,2025-02-17 16:22:27,0.0
-15264,-2888,1296,12068,-1407,874,2025-02-17 16:22:27,0.0
-15232,-432,748,10807,828,1038,2025-02-17 16:22:27,0.0
-15068,1364,-592,9012,3878,2261,2025-02-17 16:22:27,0.0
-14096,2916,-348,6396,6027,2840,2025-02-17 16:22:27,0.0
-13956,2388,1252,4285,5803,2701,2025-02-17 16:22:27,0.0
-12216,1384,348,3684,5277,1898,2025-02-17 16:22:27,0.0
-12056,404,-144,4096,4875,930,2025-02-17 16:22:27,0.0
-13252,16,-308,5645,3468,443,2025-02-17 16:22:28,0.0
-13836,908,-132,6478,2155,639,2025-02-17 16:22:28,0.0
-13940,1736,-260,6199,889,1399,2025-02-17 16:22:28,0.0
-13248,1704,-268,5199,-536,1828,2025-02-17 16:22:28,0.0
-14080,1964,1008,4903,-2132,2104,2025-02-17 16:22:28,0.0
-15288,1236,876,5535,-3924,2382,2025-02-17 16:22:28,0.0
-14952,-84,-540,5804,-3383,1567,2025-02-17 16:22:28,0.0
-15548,-208,-628,5884,-1103,506,2025-02-17 16:22:28,0.0
-18432,1072,1012,6535,-320,473,2025-02-17 16:22:28,0.0
-15620,1580,-1080,5944,-123,-357,2025-02-17 16:22:28,0.0
-14464,612,-148,5618,1418,-227,2025-02-17 16:22:28,0.0
-13888,-20,1128,6129,2822,163,2025-02-17 16:22:28,0.0
-12620,324,1108,7143,4062,1176,2025-02-17 16:22:28,0.0
-12008,-32,2084,8407,4087,1912,2025-02-17 16:22:28,0.0
-12160,-136,1012,9161,2684,2126,2025-02-17 16:22:28,0.0
-12388,-580,768,10038,494,1937,2025-02-17 16:22:28,0.0
-12744,-844,364,10870,-2647,1318,2025-02-17 16:22:28,0.0
-13692,-704,416,11070,-6148,512,2025-02-17 16:22:28,0.0
-13044,-912,-36,10810,-6335,89,2025-02-17 16:22:28,0.0
-13808,-772,68,9220,-4115,-1029,2025-02-17 16:22:28,0.0
-14648,628,104,7385,-2053,-1532,2025-02-17 16:22:28,0.0
-15020,168,0,5905,-1611,-1067,2025-02-17 16:22:28,0.0
-14672,136,940,5285,-2586,814,2025-02-17 16:22:28,0.0
-14168,-148,2260,4162,-3513,1338,2025-02-17 16:22:28,0.0
-13284,96,3168,4068,-5016,1070,2025-02-17 16:22:28,0.0
-13776,696,1008,3215,-3471,531,2025-02-17 16:22:28,0.0
-13764,960,1040,2796,-1608,8,2025-02-17 16:22:28,0.0
-13968,968,2308,2538,144,14,2025-02-17 16:22:28,0.0
-15508,-96,1212,2204,-1098,97,2025-02-17 16:22:28,0.0
-14480,-464,1268,2195,-3823,-603,2025-02-17 16:22:28,0.0
-13940,-1192,1168,1064,-3574,-1306,2025-02-17 16:22:28,0.0
-13416,-2112,1524,258,-1247,484,2025-02-17 16:22:28,0.0
-12564,-2196,2576,175,147,485,2025-02-17 16:22:28,0.0
-13868,-932,3444,1257,1873,-104,2025-02-17 16:22:28,0.0
-14120,-196,2844,2777,3456,-510,2025-02-17 16:22:28,0.0
-12876,-72,692,2641,4166,-185,2025-02-17 16:22:28,0.0
-11840,240,-272,1411,3216,-254,2025-02-17 16:22:28,0.0
-11896,592,-272,-257,2382,-886,2025-02-17 16:22:28,0.0
-12604,324,472,-1251,2527,-1524,2025-02-17 16:22:28,0.0
-13408,-176,600,-1504,3322,-1831,2025-02-17 16:22:28,0.0
-13520,28,716,-1641,4090,-1692,2025-02-17 16:22:28,0.0
-13816,348,1292,-1325,4122,-1425,2025-02-17 16:22:28,0.0
-13956,700,984,-1127,3380,-1042,2025-02-17 16:22:28,0.0
-13880,776,176,-1298,2615,-462,2025-02-17 16:22:28,0.0
-13708,832,4,-1545,1843,216,2025-02-17 16:22:28,0.0
-13200,840,372,-1639,674,689,2025-02-17 16:22:28,0.0
-13744,1016,500,-1450,-1210,1408,2025-02-17 16:22:28,0.0
-13768,1228,1476,-793,-2329,1959,2025-02-17 16:22:28,0.0
-13600,984,2572,504,-3180,1917,2025-02-17 16:22:28,0.0
-13300,1864,1940,1497,-2154,1223,2025-02-17 16:22:28,0.0
-13332,2152,-12,1789,-649,-52,2025-02-17 16:22:28,0.0
-13680,1512,-212,2093,420,-1318,2025-02-17 16:22:28,0.0
-14296,888,-496,2426,1312,-1966,2025-02-17 16:22:28,0.0
-14652,584,-460,2581,1762,-1879,2025-02-17 16:22:28,0.0
-14080,216,812,2982,1855,-1482,2025-02-17 16:22:28,0.0
-13916,160,832,3458,1574,-1309,2025-02-17 16:22:28,
-14036,572,456,3846,1349,-1263,2025-02-17 16:22:28,0.0
-14380,1176,-388,3737,1686,-919,2025-02-17 16:22:28,0.0
-14844,1620,-576,3032,1952,-278,2025-02-17 16:22:28,0.0
-14516,1772,-724,2396,2636,108,2025-02-17 16:22:28,0.0
-13996,2572,-1104,1830,4321,478,2025-02-17 16:22:29,0.0
-14020,3332,-1828,1342,5683,520,2025-02-17 16:22:29,0.0
-13760,3288,-2260,423,6039,636,2025-02-17 16:22:29,0.0
-14828,2976,-620,-388,4542,295,2025-02-17 16:22:29,0.0
-16320,1268,1468,-329,1860,383,2025-02-17 16:22:29,0.0
-17260,436,2784,725,-1826,554,2025-02-17 16:22:29,0.0
-16080,616,3276,1588,-3520,167,2025-02-17 16:22:29,0.0
-14804,752,3992,1966,-2801,-490,2025-02-17 16:22:29,0.0
-14200,616,4904,2323,-1781,-1494,2025-02-17 16:22:29,0.0
-15028,680,5552,2568,-1762,-2084,2025-02-17 16:22:29,0.0
-15436,292,5288,2715,-1643,-2250,2025-02-17 16:22:29,0.0
-14080,-1260,5452,3334,-953,-1871,2025-02-17 16:22:29,0.0
-13096,-1916,4768,3868,-1565,-1708,2025-02-17 16:22:29,0.0
-12284,-2724,4108,4338,-2251,-1789,2025-02-17 16:22:29,0.0
-12088,-2900,3392,4415,-3001,-1827,2025-02-17 16:22:29,0.0
-12344,-3204,2676,4386,-3593,-1927,2025-02-17 16:22:29,0.0
-12596,-2924,2028,4090,-3525,-1766,2025-02-17 16:22:29,0.0
-13428,-1776,1616,3624,-3260,-1400,2025-02-17 16:22:29,0.0
-13120,-1292,1220,2845,-1739,-1175,2025-02-17 16:22:29,0.0
-13044,-864,664,1145,1141,-1439,2025-02-17 16:22:29,0.0
-12984,-992,172,-483,2875,-1916,2025-02-17 16:22:29,0.0
-13592,-904,472,-1826,3704,-1968,2025-02-17 16:22:29,0.0
-13384,-812,1748,-2065,4660,-1657,2025-02-17 16:22:29,0.0
-13348,-1456,3280,-1092,4585,-1113,2025-02-17 16:22:29,0.0
-12872,-2128,4336,535,2231,-595,2025-02-17 16:22:29,0.0
-12636,-2720,3752,2052,-4,64,2025-02-17 16:22:29,0.0
-12600,-3136,2832,2987,-1389,218,2025-02-17 16:22:29,0.0
-12484,-2644,2016,3317,-2126,188,2025-02-17 16:22:29,0.0
-12756,-2352,1752,3447,-2759,-165,2025-02-17 16:22:29,0.0
-13016,-1936,1236,3322,-3278,-663,2025-02-17 16:22:29,0.0
-13684,-1624,852,2906,-3106,-949,2025-02-17 16:22:29,0.0
-13472,-1488,360,2508,-2466,-946,2025-02-17 16:22:29,0.0
-13448,-1360,-68,1913,-1555,-720,2025-02-17 16:22:29,0.0
-13468,-1624,-188,1266,-1020,-663,2025-02-17 16:22:29,0.0
-13376,-1784,-24,659,143,-774,2025-02-17 16:22:29,0.0
-13364,-1528,564,590,1420,-397,2025-02-17 16:22:29,0.0
-13116,-1320,456,572,2531,-331,2025-02-17 16:22:29,0.0
-12940,-796,-24,542,3259,-396,2025-02-17 16:22:29,0.0
-14088,-720,152,620,3349,-325,2025-02-17 16:22:29,0.0
-14208,-592,-88,768,3062,-179,2025-02-17 16:22:29,0.0
-13928,-1040,768,1667,1618,259,2025-02-17 16:22:29,0.0
-14844,-1528,1340,2349,653,377,2025-02-17 16:22:29,0.0
-14448,-1364,1228,2961,98,653,2025-02-17 16:22:29,0.0
-14264,-1488,84,2803,-291,375,2025-02-17 16:22:29,0.0
-15000,-1864,280,2792,279,-149,2025-02-17 16:22:29,0.0
-16292,-2076,312,3725,1329,-142,2025-02-17 16:22:29,0.0
-16016,-2260,-708,4766,1437,-216,2025-02-17 16:22:29,0.0
-16180,-2420,-568,4889,1769,-175,2025-02-17 16:22:29,0.0
-16296,-2604,100,4442,2245,-60,2025-02-17 16:22:29,0.0
-16168,-2620,1248,3987,1849,-17,2025-02-17 16:22:29,0.0
-16292,-2712,2708,3822,334,-302,2025-02-17 16:22:29,0.0
-16572,-3152,4948,4035,-2793,-502,2025-02-17 16:22:29,0.0
-15452,-3052,5532,4762,-3861,-640,2025-02-17 16:22:29,0.0
-14880,-2224,5012,5020,-4500,-736,2025-02-17 16:22:29,0.0
-13660,-1156,4376,5074,-3677,-891,2025-02-17 16:22:29,0.0
-13576,-312,3628,4767,-1705,-717,2025-02-17 16:22:29,0.0
-12256,1104,3292,4410,1227,-458,2025-02-17 16:22:29,0.0
-12928,2240,3780,3532,4472,364,2025-02-17 16:22:29,0.0
-13288,2088,3592,1557,6605,1169,2025-02-17 16:22:29,0.0
-13188,1612,2844,-700,7919,1899,2025-02-17 16:22:29,0.0
-12136,1020,2860,-1680,7845,2035,2025-02-17 16:22:29,0.0
-11268,1044,2340,-2007,5764,1160,2025-02-17 16:22:30,0.0
-12208,1240,3708,-2262,2492,565,2025-02-17 16:22:30,0.0
-12420,120,5332,-1282,-1376,448,2025-02-17 16:22:30,0.0
-13276,324,6816,519,-3642,627,2025-02-17 16:22:30,0.0
-13228,272,6436,2691,-4343,701,2025-02-17 16:22:30,0.0
-13756,320,4828,4402,-6397,769,2025-02-17 16:22:30,0.0
-14620,-452,1592,5117,-8541,1230,2025-02-17 16:22:30,0.0
-13884,-236,-868,4068,-7274,1811,2025-02-17 16:22:30,0.0
-13636,556,-1352,2515,-4207,1979,2025-02-17 16:22:30,0.0
-14016,796,-672,1576,-2206,1762,2025-02-17 16:22:30,0.0
-13024,988,-508,918,-2082,1402,2025-02-17 16:22:30,0.0
-12084,656,-40,908,-2166,640,2025-02-17 16:22:30,0.0
-12364,216,-220,1165,-3399,-14,2025-02-17 16:22:30,0.0
-12536,-360,-608,1728,-4128,-519,2025-02-17 16:22:30,0.0
-13588,-356,-836,1940,-5298,-416,2025-02-17 16:22:30,0.0
-14280,12,-1304,1044,-8908,-588,2025-02-17 16:22:30,0.0
-13896,196,-764,49,-11239,-438,2025-02-17 16:22:30,0.0
-14184,692,896,-150,-10409,-537,2025-02-17 16:22:30,0.0
-13548,356,1228,-43,-7537,-1030,2025-02-17 16:22:30,0.0
-13824,-340,1296,352,-3993,-1474,2025-02-17 16:22:30,0.0
-14204,-1084,1036,858,-2187,-1624,2025-02-17 16:22:30,0.0
-14944,-868,2224,804,-1851,-1205,2025-02-17 16:22:30,0.0
-14992,-308,3416,391,-3750,-614,2025-02-17 16:22:30,0.0
-14312,-8,4328,-128,-6636,-602,2025-02-17 16:22:30,0.0
-13540,-424,5024,-179,-11014,-539,2025-02-17 16:22:30,0.0
-12508,-464,5136,-281,-16251,-531,2025-02-17 16:22:30,0.0
-11580,-244,5940,-271,-20921,-526,2025-02-17 16:22:30,0.0
-10552,-284,6872,-342,-23348,-592,2025-02-17 16:22:30,0.0
-9244,92,7012,-361,-22090,-821,2025-02-17 16:22:30,0.0
-7984,496,7672,-932,-16999,-857,2025-02-17 16:22:30,0.0
-7984,-1188,8380,-1389,-10175,-157,2025-02-17 16:22:30,0.0
-6764,-1688,7872,-1384,-5847,956,2025-02-17 16:22:30,0.0
-4212,-2068,6360,-1880,-1356,1909,2025-02-17 16:22:30,0.0
-1440,-1912,5684,-2328,4125,2572,2025-02-17 16:22:30,0.0
-540,-764,3140,-2328,8244,2284,2025-02-17 16:22:30,
-724,260,2768,-1904,9982,3593,2025-02-17 16:22:30,0.0
3052,-160,1596,-1302,12874,4511,2025-02-17 16:22:30,0.0
2904,-268,1544,-1622,14067,4213,2025-02-17 16:22:30,0.0
2536,-360,1740,-1698,14388,4019,2025-02-17 16:22:30,0.0
2516,-324,1856,-1640,14370,3904,2025-02-17 16:22:30,0.0
2740,-312,1984,-1665,14565,3657,2025-02-17 16:22:30,0.0
2800,-172,1788,-1836,14961,3234,2025-02-17 16:22:30,0.0
2696,-296,1656,-2053,14895,2902,2025-02-17 16:22:30,0.0
2852,-228,1896,-2170,14751,2435,2025-02-17 16:22:30,0.0
2652,-344,2008,-2244,14611,1899,2025-02-17 16:22:30,0.0
2580,-256,2092,-2242,14499,1526,2025-02-17 16:22:30,0.0
2496,-244,2340,-2233,14642,1302,2025-02-17 16:22:30,0.0
2384,-252,2324,-2116,14785,1208,2025-02-17 16:22:30,0.0
1972,-308,2532,-1800,14269,1198,2025-02-17 16:22:30,0.0
1712,-364,2644,-1309,13099,1273,2025-02-17 16:22:30,0.0
1556,-288,2444,-895,11692,1408,2025-02-17 16:22:30,0.0
1324,-248,2544,-563,9569,1676,2025-02-17 16:22:30,0.0
1388,-236,2696,-269,7581,1944,2025-02-17 16:22:30,0.0
1176,-184,2480,-86,5254,2237,2025-02-17 16:22:30,0.0
1556,1960,-1288,-3162,5487,3589,2025-02-17 16:22:30,0.0
-1816,2028,-464,-11025,5986,6601,2025-02-17 16:22:30,0.0
13600,3844,4076,-13968,-6500,-9848,2025-02-17 16:22:30,0.0
-32768,-52,32767,-32768,-32768,-32768,2025-02-17 16:22:30,0.0
-32768,-32768,5804,-9052,-32768,-25827,2025-02-17 16:22:30,0.0
5900,-2624,568,-12752,-32768,-20922,2025-02-17 16:22:30,0.0
30152,56,-9384,-16713,-32768,-27977,2025-02-17 16:22:31,0.0
32767,-3760,-32768,-32768,-8258,-32768,2025-02-17 16:22:31,0.0
12740,-15156,-6984,-32768,-661,-32768,2025-02-17 16:22:31,0.0
5404,-14056,308,-32768,4320,-32768,2025-02-17 16:22:31,0.0
5452,-14200,620,-32768,12900,-32768,2025-02-17 16:22:31,0.0
3528,-14308,1800,-32768,23408,-32768,2025-02-17 16:22:31,0.0
3016,-13940,1704,-32768,30822,-32768,2025-02-17 16:22:31,0.0
3176,-13828,2732,-31814,32767,-32768,2025-02-17 16:22:31,0.0
1168,-13504,3832,-23797,32767,-32768,2025-02-17 16:22:31,0.0
-16132,-9056,10788,-11598,27143,-32768,2025-02-17 16:22:31,0.0
-4956,-4932,5872,322,22868,-27913,2025-02-17 16:22:31,0.0
-9616,-3292,5184,9487,21657,2685,2025-02-17 16:22:31,0.0
5944,-3524,-3340,8120,20675,16575,2025-02-17 16:22:31,0.0
11176,-19280,-3032,2983,15637,9013,2025-02-17 16:22:31,0.0
12448,-32768,2204,1679,4685,1433,2025-02-17 16:22:31,0.0
21972,-32768,876,5144,-3684,-4795,2025-02-17 16:22:31,0.0
18444,-32768,-3860,-840,-2969,-4711,2025-02-17 16:22:31,0.0
12908,-13720,-576,-1581,-165,-3164,2025-02-17 16:22:31,0.0
7480,-7048,2772,-891,1756,-4098,2025-02-17 16:22:31,0.0
4104,-4464,3192,572,1719,-3407,2025-02-17 16:22:31,0.0
6868,-7936,944,-535,894,-653,2025-02-17 16:22:31,0.0
11644,-15108,2428,-1098,324,175,2025-02-17 16:22:31,0.0
12636,-18352,2572,-623,-442,1127,2025-02-17 16:22:31,0.0
10428,-16336,1208,-256,-513,1114,2025-02-17 16:22:31,0.0
8760,-14036,924,-105,-2,370,2025-02-17 16:22:31,0.0
9896,-15480,1064,66,713,-655,2025-02-17 16:22:31,0.0
10472,-15452,1800,-21,614,-896,2025-02-17 16:22:31,0.0
9908,-14220,2304,-156,65,-435,2025-02-17 16:22:31,0.0
10000,-14096,1484,-392,-251,130,2025-02-17 16:22:31,0.0
10116,-15512,1320,-293,155,177,2025-02-17 16:22:31,0.0
10148,-15244,1460,-207,303,-144,2025-02-17 16:22:31,0.0
9740,-14672,1500,-116,220,-303,2025-02-17 16:22:31,0.0
9992,-14868,1680,-106,231,-222,2025-02-17 16:22:31,0.0
10028,-14888,1560,-83,97,-165,2025-02-17 16:22:31,0.0
9964,-14816,1564,-110,252,-178,2025-02-17 16:22:31,0.0
9972,-14684,1940,-264,217,-120,2025-02-17 16:22:31,0.0
9920,-15144,1736,-294,-210,-198,2025-02-17 16:22:31,0.0
10064,-15088,1336,-213,58,-327,2025-02-17 16:22:31,0.0
10020,-14736,1624,-107,400,-249,2025-02-17 16:22:31,0.0
10212,-14764,1708,-51,228,-51,2025-02-17 16:22:31,0.0
9944,-14952,1772,-197,132,-11,2025-02-17 16:22:31,0.0
9924,-14988,1544,-217,59,-233,2025-02-17 16:22:31,0.0
9916,-15012,1560,-173,162,-326,2025-02-17 16:22:31,0.0
10056,-14704,1476,-99,180,-195,2025-02-17 16:22:31,0.0
10080,-14932,1808,-144,234,-69,2025-02-17 16:22:31,0.0
10032,-14976,1724,-199,66,-187,2025-02-17 16:22:31,0.0
9972,-14888,1504,-171,130,-274,2025-02-17 16:22:31,0.0
10084,-14920,1484,-133,243,-183,2025-02-17 16:22:31,0.0
10044,-14840,1508,-116,176,-116,2025-02-17 16:22:31,0.0
9968,-14960,1668,-166,177,-147,2025-02-17 16:22:31,0.0
9896,-14828,1636,-207,120,-204,2025-02-17 16:22:31,0.0
10092,-14940,1484,-178,162,-198,2025-02-17 16:22:31,0.0
10048,-14948,1580,-125,196,-168,2025-02-17 16:22:31,0.0
10200,-14924,1564,-118,164,-215,2025-02-17 16:22:31,0.0
9916,-14848,1680,-143,248,-161,2025-02-17 16:22:31,0.0
9940,-14856,1524,-148,125,-181,2025-02-17 16:22:31,0.0
9864,-14812,1780,-206,158,-193,2025-02-17 16:22:31,0.0
10180,-15016,1428,-171,150,-203,2025-02-17 16:22:31,0.0
10048,-14948,1396,-163,188,-160,2025-02-17 16:22:31,0.0
10004,-14884,1652,-163,156,-161,2025-02-17 16:22:31,0.0
10008,-14888,1540,-154,171,-185,2025-02-17 16:22:32,0.0
9992,-14888,1588,-154,141,-179,2025-02-17 16:22:32,0.0
10076,-14960,1624,-144,204,-187,2025-02-17 16:22:32,0.0
10060,-14940,1580,-155,142,-184,2025-02-17 16:22:32,0.0
10064,-14896,1688,-175,158,-191,2025-02-17 16:22:32,0.0
10008,-14900,1636,-166,157,-166,2025-02-17 16:22:32,0.0
9940,-14900,1520,-156,165,-153,2025-02-17 16:22:32,0.0
10036,-14948,1600,-156,160,-181,2025-02-17 16:22:32,0.0
9960,-14908,1656,-131,148,-195,2025-02-17 16:22:32,0.0
10092,-14904,1616,-137,189,-183,2025-02-17 16:22:32,0.0
10152,-14844,1532,-149,203,-160,2025-02-17 16:22:32,0.0
9972,-14920,1516,-164,183,-180,2025-02-17 16:22:32,0.0
10040,-14952,1576,-167,156,-196,2025-02-17 16:22:32,0.0
10004,-14824,1584,-176,169,-212,2025-02-17 16:22:32,0.0
10044,-14812,1520,-184,161,-178,2025-02-17 16:22:32,
10124,-14924,1572,-141,174,-167,2025-02-17 16:22:32,0.0
10092,-14880,1792,-154,179,-192,2025-02-17 16:22:32,0.0
10116,-14884,1516,-118,177,-149,2025-02-17 16:22:32,0.0
9932,-14892,1628,-140,198,-199,2025-02-17 16:22:32,0.0
10060,-14964,1604,-140,154,-158,2025-02-17 16:22:32,0.0
10028,-14916,1628,-167,133,-203,2025-02-17 16:22:32,0.0
9984,-15024,1660,-140,152,-172,2025-02-17 16:22:32,0.0
9992,-14892,1528,-187,169,-174,2025-02-17 16:22:32,0.0
10052,-14932,1668,-177,142,-174,2025-02-17 16:22:32,0.0
9968,-14968,1484,-138,173,-192,2025-02-17 16:22:32,0.0
9972,-14844,1600,-159,172,-183,2025-02-17 16:22:32,0.0
10008,-14908,1632,-157,153,-171,2025-02-17 16:22:32,0.0
9972,-14888,1516,-166,155,-163,2025-02-17 16:22:32,0.0
10160,-14960,1680,-173,170,-184,2025-02-17 16:22:32,0.0
10096,-14876,1588,-167,160,-195,2025-02-17 16:22:32,0.0
9972,-14888,1684,-178,171,-172,2025-02-17 16:22:32,0.0
9964,-14960,1600,-172,164,-172,2025-02-17 16:22:32,0.0
10076,-14784,1664,-142,136,-184,2025-02-17 16:22:32,0.0
9996,-14872,1672,-137,157,-190,2025-02-17 16:22:32,0.0
10088,-15052,1724,-149,179,-185,2025-02-17 16:22:32,0.0
10096,-14796,1592,-172,180,-164,2025-02-17 16:22:32,0.0
10120,-14892,1620,-157,174,-184,2025-02-17 16:22:32,0.0
9992,-14852,1704,-153,170,-174,2025-02-17 16:22:32,0.0
9980,-14948,1704,-134,154,-181,2025-02-17 16:22:32,0.0
10088,-14924,1484,-139,142,-168,2025-02-17 16:22:32,0.0
9952,-14848,1568,-151,184,-179,2025-02-17 16:22:32,0.0
10072,-14888,1672,-147,178,-208,2025-02-17 16:22:32,0.0
10092,-14856,1712,-172,161,-178,2025-02-17 16:22:32,0.0
9992,-14808,1540,-151,168,-173,2025-02-17 16:22:32,0.0
10076,-14844,1584,-148,167,-187,2025-02-17 16:22:32,0.0
10024,-14960,1648,-136,174,-174,2025-02-17 16:22:32,0.0
10120,-14920,1724,-173,150,-175,2025-02-17 16:22:32,0.0
10020,-14884,1756,-149,183,-179,2025-02-17 16:22:32,0.0
9972,-14948,1556,-166,162,-163,2025-02-17 16:22:32,0.0
9992,-14868,1516,-163,203,-188,2025-02-17 16:22:32,0.0
9952,-14808,1608,-152,158,-183,2025-02-17 16:22:32,0.0
9972,-14860,1616,-173,183,-158,2025-02-17 16:22:32,0.0
9988,-14864,1580,-117,183,-164,2025-02-17 16:22:32,0.0
10124,-14952,1508,-158,180,-174,2025-02-17 16:22:32,0.0
10112,-14896,1744,-131,164,-188,2025-02-17 16:22:32,0.0
10080,-14856,1636,-146,144,-159,2025-02-17 16:22:32,0.0
10064,-14948,1608,-157,146,-179,2025-02-17 16:22:32,0.0
9988,-14760,1680,-152,168,-174,2025-02-17 16:22:32,0.0
10072,-14876,1652,-171,164,-174,2025-02-17 16:22:32,0.0
10028,-14908,1644,-155,172,-200,2025-02-17 16:22:32,0.0
9992,-14892,1540,-176,158,-181,2025-02-17 16:22:33,0.0
10108,-14844,1572,-164,176,-191,2025-02-17 16:22:33,0.0
10096,-14896,1584,-177,163,-173,2025-02-17 16:22:33,0.0
10156,-14848,1684,-140,183,-183,2025-02-17 16:22:33,0.0
10032,-14868,1696,-130,155,-155,2025-02-17 16:22:33,0.0
10120,-14868,1636,-149,175,-178,2025-02-17 16:22:33,0.0
9980,-14988,1556,-156,167,-159,2025-02-17 16:22:33,0.0
10056,-14928,1676,-157,148,-176,2025-02-17 16:22:33,0.0
10000,-14972,1528,-129,166,-189,2025-02-17 16:22:33,0.0
10052,-14932,1588,-136,190,-192,2025-02-17 16:22:33,0.0
10060,-14808,1600,-163,180,-178,2025-02-17 16:22:33,0.0
10012,-14804,1540,-150,182,-173,2025-02-17 16:22:33,0.0
10064,-14880,1704,-158,174,-190,2025-02-17 16:22:33,0.0
10140,-14884,1540,-142,161,-175,2025-02-17 16:22:33,0.0
10044,-14844,1584,-151,161,-184,2025-02-17 16:22:33,0.0
9964,-14848,1676,-159,178,-193,2025-02-17 16:22:33,0.0
10064,-14756,1652,-152,187,-180,2025-02-17 16:22:33,0.0
9984,-14892,1548,-141,182,-202,2025-02-17 16:22:33,0.0
9996,-14900,1488,-137,191,-174,2025-02-17 16:22:33,0.0
10028,-14944,1660,-159,172,-172,2025-02-17 16:22:33,0.0
10128,-14948,1616,-129,168,-167,2025-02-17 16:22:33,0.0
10116,-14844,1604,-144,173,-161,2025-02-17 16:22:33,0.0
10004,-14760,1476,-157,166,-179,2025-02-17 16:22:33,0.0
10020,-14952,1764,-164,152,-160,2025-02-17 16:22:33,0.0
10072,-14928,1688,-165,179,-182,2025-02-17 16:22:33,0.0
10060,-14896,1520,-174,138,-165,2025-02-17 16:22:33,0.0
10080,-14980,1732,-148,158,-182,2025-02-17 16:22:33,0.0
10084,-14796,1488,-142,146,-179,2025-02-17 16:22:33,0.0
10084,-14940,1592,-159,167,-194,2025-02-17 16:22:33,0.0
10032,-14872,1636,-144,177,-172,2025-02-17 16:22:33,0.0
10044,-14916,1600,-171,173,-181,2025-02-17 16:22:33,0.0
10068,-14800,1728,-151,173,-176,2025-02-17 16:22:33,0.0
10100,-14864,1536,-177,161,-172,2025-02-17 16:22:33,0.0
9992,-14800,1544,-165,166,-188,2025-02-17 16:22:33,0.0
10052,-14872,1636,-149,178,-167,2025-02-17 16:22:33,0.0
10020,-15040,1564,-157,186,-187,2025-02-17 16:22:33,0.0
10080,-14900,1504,-154,159,-175,2025-02-17 16:22:33,0.0
10060,-14880,1532,-150,198,-179,2025-02-17 16:22:33,0.0
10100,-14808,1748,-155,164,-180,2025-02-17 16:22:33,0.0
10088,-14828,1476,-166,168,-196,2025-02-17 16:22:33,0.0
10024,-15016,1692,-148,165,-180,2025-02-17 16:22:33,0.0
10040,-14980,1584,-144,196,-182,2025-02-17 16:22:33,0.0
10096,-14924,1580,-167,183,-185,2025-02-17 16:22:33,0.0
10068,-14784,1668,-158,160,-202,2025-02-17 16:22:33,0.0
10052,-14860,1616,-154,165,-188,2025-02-17 16:22:33,0.0
10004,-14912,1528,-144,165,-173,2025-02-17 16:22:33,0.0
10020,-14860,1588,-140,163,-180,2025-02-17 16:22:33,0.0
10052,-14928,1676,-158,163,-162,2025-02-17 16:22:33,0.0
10052,-14860,1524,-143,152,-179,2025-02-17 16:22:33,0.0
10116,-14932,1728,-163,174,-194,2025-02-17 16:22:33,0.0
9984,-14888,1596,-161,155,-184,2025-02-17 16:22:33,0.0
10012,-14872,1620,-167,159,-192,2025-02-17 16:22:33,0.0
9960,-14900,1476,-129,169,-201,2025-02-17 16:22:33,0.0
10048,-14960,1704,-169,139,-194,2025-02-17 16:22:33,0.0
10072,-14916,1612,-163,176,-166,2025-02-17 16:22:33,
9948,-14872,1656,-162,148,-178,2025-02-17 16:22:33,0.0
10096,-14924,1568,-160,179,-193,2025-02-17 16:22:33,0.0
10036,-14872,1608,-160,158,-161,2025-02-17 16:22:33,0.0
10044,-14844,1472,-154,183,-183,2025-02-17 16:22:33,0.0
9976,-14796,1748,-136,174,-184,2025-02-17 16:22:33,0.0
9972,-14800,1592,-157,157,-181,2025-02-17 16:22:34,0.0
10000,-14872,1716,-169,165,-181,2025-02-17 16:22:34,0.0
10020,-14940,1648,-151,189,-180,2025-02-17 16:22:34,0.0
10012,-15008,1600,-140,162,-178,2025-02-17 16:22:34,0.0
9932,-14828,1552,-162,161,-173,2025-02-17 16:22:34,0.0
10048,-14864,1596,-163,149,-171,2025-02-17 16:22:34,0.0
10116,-14856,1560,-142,158,-163,2025-02-17 16:22:34,0.0
9944,-14844,1572,-158,189,-184,2025-02-17 16:22:34,0.0
10120,-14900,1568,-176,159,-166,2025-02-17 16:22:34,0.0
10128,-14932,1636,-141,167,-181,2025-02-17 16:22:34,0.0
9972,-14912,1640,-135,158,-167,2025-02-17 16:22:34,0.0
10052,-14868,1692,-146,155,-180,2025-02-17 16:22:34,0.0
10000,-14908,1452,-161,171,-175,2025-02-17 16:22:34,0.0
10096,-14952,1704,-168,168,-180,2025-02-17 16:22:34,0.0
10124,-14832,1644,-149,174,-179,2025-02-17 16:22:34,0.0
10116,-14900,1444,-157,188,-182,2025-02-17 16:22:34,0.0
10028,-14860,1520,-157,167,-167,2025-02-17 16:22:34,0.0
10068,-14884,1484,-152,177,-193,2025-02-17 16:22:34,0.0
10060,-14856,1628,-177,153,-176,2025-02-17 16:22:34,0.0
10088,-14876,1664,-143,167,-158,2025-02-17 16:22:34,0.0
10104,-14884,1512,-168,162,-192,2025-02-17 16:22:34,0.0
10076,-15012,1604,-165,166,-164,2025-02-17 16:22:34,0.0
10064,-14868,1548,-168,160,-185,2025-02-17 16:22:34,0.0
10004,-14864,1640,-172,161,-176,2025-02-17 16:22:34,0.0
10144,-14928,1520,-175,194,-178,2025-02-17 16:22:34,0.0
10100,-14900,1460,-163,180,-172,2025-02-17 16:22:34,0.0
10088,-14872,1524,-162,149,-183,2025-02-17 16:22:34,0.0
10012,-14840,1716,-144,165,-192,2025-02-17 16:22:34,0.0
10008,-14892,1608,-150,151,-166,2025-02-17 16:22:34,0.0
10080,-14924,1516,-130,180,-190,2025-02-17 16:22:34,0.0
10052,-14888,1604,-126,175,-181,2025-02-17 16:22:34,0.0
10020,-14872,1620,-153,143,-165,2025-02-17 16:22:34,0.0
10076,-14864,1620,-154,151,-161,2025-02-17 16:22:34,0.0
10056,-14916,1544,-147,161,-155,2025-02-17 16:22:34,0.0
10032,-14960,1604,-151,170,-169,2025-02-17 16:22:34,0.0
10068,-14888,1508,-163,174,-192,2025-02-17 16:22:34,0.0
10100,-14908,1568,-169,161,-181,2025-02-17 16:22:34,0.0
10044,-14916,1436,-136,174,-190,2025-02-17 16:22:34,0.0
9992,-14836,1520,-157,172,-161,2025-02-17 16:22:34,0.0
10016,-14884,1696,-155,174,-191,2025-02-17 16:22:34,0.0
10120,-14948,1524,-168,180,-172,2025-02-17 16:22:34,0.0
10068,-14872,1588,-161,171,-184,2025-02-17 16:22:34,0.0
10012,-14880,1692,-147,163,-185,2025-02-17 16:22:34,0.0
9996,-14808,1660,-141,171,-174,2025-02-17 16:22:34,0.0
10008,-14948,1660,-152,177,-178,2025-02-17 16:22:34,0.0
10092,-14960,1544,-146,188,-169,2025-02-17 16:22:34,0.0
9980,-14896,1620,-147,193,-183,2025-02-17 16:22:34,0.0
9936,-14896,1500,-159,169,-181,2025-02-17 16:22:34,0.0
9972,-14888,1448,-165,161,-173,2025-02-17 16:22:34,0.0
10108,-14824,1804,-159,175,-187,2025-02-17 16:22:34,0.0
9992,-14980,1648,-151,158,-187,2025-02-17 16:22:34,0.0
10132,-14868,1744,-143,140,-176,2025-02-17 16:22:34,0.0
10064,-14860,1540,-161,176,-177,2025-02-17 16:22:34,0.0
10068,-14908,1604,-167,162,-185,2025-02-17 16:22:34,0.0
10108,-14880,1744,-131,167,-175,2025-02-17 16:22:34,0.0
10020,-14868,1572,-168,165,-175,2025-02-17 16:22:34,0.0
10012,-14880,1580,-163,189,-179,2025-02-17 16:22:34,0.0
9988,-14924,1660,-155,137,-181,2025-02-17 16:22:34,0.0
10092,-14996,1596,-136,171,-173,2025-02-17 16:22:34,0.0
10132,-14836,1540,-180,184,-191,2025-02-17 16:22:34,0.0
10060,-15040,1696,-135,187,-171,2025-02-17 16:22:35,0.0
10008,-14884,1528,-144,166,-174,2025-02-17 16:22:35,0.0
10036,-14844,1472,-155,165,-184,2025-02-17 16:22:35,0.0
10060,-14984,1680,-162,161,-147,2025-02-17 16:22:35,0.0
10052,-14920,1684,-162,180,-171,2025-02-17 16:22:35,0.0
10064,-14832,1556,-150,166,-181,2025-02-17 16:22:35,0.0
10044,-14844,1528,-156,160,-173,2025-02-17 16:22:35,0.0
10108,-14864,1612,-150,178,-180,2025-02-17 16:22:35,0.0
10120,-14960,1528,-142,163,-160,2025-02-17 16:22:35,0.0
10072,-14912,1588,-154,187,-179,2025-02-17 16:22:35,0.0
10084,-14964,1688,-170,160,-170,2025-02-17 16:22:35,0.0
9972,-14948,1528,-154,169,-163,2025-02-17 16:22:35,0.0
10128,-14876,1560,-153,170,-176,2025-02-17 16:22:35,0.0
9980,-14824,1576,-149,176,-175,2025-02-17 16:22:35,0.0
10148,-14924,1596,-154,162,-171,2025-02-17 16:22:35,0.0
10016,-14904,1540,-160,157,-181,2025-02-17 16:22:35,0.0
9948,-14884,1656,-148,148,-179,2025-02-17 16:22:35,0.0
10132,-14812,1632,-180,172,-171,2025-02-17 16:22:35,0.0
10128,-14864,1532,-171,159,-164,2025-02-17 16:22:35,0.0
10040,-14964,1544,-160,176,-191,2025-02-17 16:22:35,0.0
10064,-14844,1632,-132,172,-177,2025-02-17 16:22:35,0.0
10116,-14816,1552,-161,162,-159,2025-02-17 16:22:35,0.0
10092,-14924,1556,-146,177,-196,2025-02-17 16:22:35,0.0
10032,-14816,1628,-183,139,-197,2025-02-17 16:22:35,0.0
10092,-14728,1552,-180,149,-161,2025-02-17 16:22:35,0.0
10000,-14924,1640,-145,159,-180,2025-02-17 16:22:35,0.0
10080,-14944,1672,-137,172,-153,2025-02-17 16:22:35,0.0
10124,-14968,1708,-164,157,-167,2025-02-17 16:22:35,0.0
10000,-14976,1648,-164,167,-203,2025-02-17 16:22:35,0.0
10060,-14940,1796,-155,161,-183,2025-02-17 16:22:35,0.0
9956,-14944,1576,-154,181,-177,2025-02-17 16:22:35,0.0
9996,-14916,1584,-154,180,-159,2025-02-17 16:22:35,0.0
10016,-14852,1604,-189,159,-173,2025-02-17 16:22:35,0.0
10036,-14868,1688,-141,169,-195,2025-02-17 16:22:35,0.0
10036,-14908,1580,-182,165,-182,2025-02-17 16:22:35,
10048,-14912,1640,-181,184,-191,2025-02-17 16:22:35,0.0
10016,-14992,1716,-85,212,-196,2025-02-17 16:22:35,0.0
9584,-14068,2040,-867,-556,-1478,2025-02-17 16:22:35,0.0
6808,-16588,3876,-7184,3196,-8009,2025-02-17 16:22:35,0.0
21296,-22816,5244,-3221,2775,-4270,2025-02-17 16:22:35,0.0
15508,-14972,-8532,2922,13036,-1236,2025-02-17 16:22:35,0.0
12792,-20340,3224,-2079,9925,3374,2025-02-17 16:22:35,0.0
11520,-25616,5064,-7522,18602,11616,2025-02-17 16:22:35,0.0
13364,-25316,8268,-9201,16426,12559,2025-02-17 16:22:35,0.0
16932,-26816,10568,-6706,8453,10872,2025-02-17 16:22:35,0.0
24876,-24396,12264,-2910,7278,5117,2025-02-17 16:22:35,0.0
23408,-25824,12092,633,4450,-1782,2025-02-17 16:22:35,0.0
20744,-22832,9348,3133,1777,-7266,2025-02-17 16:22:35,0.0
21328,-21640,4592,1086,6919,-10821,2025-02-17 16:22:35,0.0
19680,-21824,2968,-1849,11326,-13493,2025-02-17 16:22:35,0.0
18592,-21948,4848,-4078,12394,-15073,2025-02-17 16:22:35,0.0
17872,-21160,8364,-4099,11643,-15637,2025-02-17 16:22:35,0.0
18828,-20288,10592,-1979,10747,-16081,2025-02-17 16:22:35,0.0
19672,-20084,13552,2306,11295,-17406,2025-02-17 16:22:35,0.0
15788,-20748,14136,8375,7254,-19042,2025-02-17 16:22:35,0.0
6948,-18160,9932,12975,-5154,-16137,2025-02-17 16:22:35,0.0
2756,-16728,7376,15420,-20805,-8299,2025-02-17 16:22:35,0.0
1892,-15044,9476,18555,-32530,-382,2025-02-17 16:22:35,0.0
8840,-13628,6456,21555,-32768,3872,2025-02-17 16:22:35,0.0
12776,-12956,2180,19932,-30658,3565,2025-02-17 16:22:35,0.0
10588,-10860,1512,16730,-19447,4689,2025-02-17 16:22:36,0.0
11420,-10128,828,13920,-11770,5602,2025-02-17 16:22:36,0.0
8968,-11424,1960,12020,-10442,7344,2025-02-17 16:22:36,0.0
12120,-12648,2700,10447,-16391,5975,2025-02-17 16:22:36,0.0
18256,-11448,1924,8191,-19921,-247,2025-02-17 16:22:36,0.0
19212,-10564,2016,7131,-18664,-5700,2025-02-17 16:22:36,0.0
17980,-12000,1336,6080,-14835,-10971,2025-02-17 16:22:36,0.0
13180,-10544,-60,4710,-14167,-13539,2025-02-17 16:22:36,0.0
12780,-9648,-2000,1748,-11421,-14708,2025-02-17 16:22:36,0.0
10984,-9888,-796,-989,-9799,-14181,2025-02-17 16:22:36,0.0
12404,-10052,568,-2149,-8283,-13628,2025-02-17 16:22:36,0.0
14320,-10220,1836,-2224,-6291,-14350,2025-02-17 16:22:36,0.0
15112,-10776,2612,-1949,-4825,-15909,2025-02-17 16:22:36,0.0
16304,-11844,3260,-1059,-4142,-18469,2025-02-17 16:22:36,0.0
16232,-11716,2752,411,-4120,-21817,2025-02-17 16:22:36,0.0
15456,-10424,1536,1039,-2613,-23791,2025-02-17 16:22:36,0.0
13448,-9396,1008,1110,-1053,-24195,2025-02-17 16:22:36,0.0
12128,-9060,1424,1320,71,-22961,2025-02-17 16:22:36,0.0
12224,-8256,1336,1767,2036,-21053,2025-02-17 16:22:36,0.0
13052,-8200,2844,2472,5165,-19634,2025-02-17 16:22:36,0.0
12808,-7804,3716,4007,5081,-18537,2025-02-17 16:22:36,0.0
11224,-7740,-1896,4219,3808,-16868,2025-02-17 16:22:36,0.0
11792,-8216,2836,6004,1313,-16333,2025-02-17 16:22:36,0.0
-8900,-9844,-3704,6036,-3397,-7364,2025-02-17 16:22:36,0.0
1336,-10316,-8084,2324,-7893,3126,2025-02-17 16:22:36,0.0
16932,-6868,-1108,1865,-3850,2421,2025-02-17 16:22:36,0.0
24284,-6460,152,1496,6004,-1572,2025-02-17 16:22:36,0.0
17780,264,3176,5122,19970,-7630,2025-02-17 16:22:36,0.0
16708,-2448,7092,7147,23439,-6451,2025-02-17 16:22:36,0.0
16844,-1084,6008,6294,28534,-6815,2025-02-17 16:22:36,0.0
12452,184,7404,6832,28683,-7933,2025-02-17 16:22:36,0.0
12724,420,2692,4419,25547,-8490,2025-02-17 16:22:36,0.0
9128,404,2684,349,18006,-6968,2025-02-17 16:22:36,0.0
10668,1608,3028,-1605,9104,-6410,2025-02-17 16:22:36,0.0
11728,836,2820,-3167,-605,-6840,2025-02-17 16:22:36,0.0
15160,-724,2380,-4983,-10100,-9602,2025-02-17 16:22:36,0.0
14836,-372,2816,-7257,-13603,-12132,2025-02-17 16:22:36,0.0
13576,36,4792,-8870,-13006,-10977,2025-02-17 16:22:36,0.0
11848,1284,6416,-8373,-19239,-10309,2025-02-17 16:22:36,0.0
13544,1968,1432,-8950,-28325,-9803,2025-02-17 16:22:36,0.0
17420,-516,940,-7132,-21846,-8620,2025-02-17 16:22:36,0.0
15160,1292,1084,-6661,-11560,-7218,2025-02-17 16:22:36,0.0
15100,1572,1212,-7872,-5100,-3046,2025-02-17 16:22:36,0.0
14580,1272,2600,-9894,-5531,-2730,2025-02-17 16:22:36,0.0
14912,1296,4348,-9899,355,2774,2025-02-17 16:22:36,0.0
19248,352,2436,-4855,3991,6901,2025-02-17 16:22:36,0.0
19796,2056,-1604,-90,5335,7244,2025-02-17 16:22:36,0.0
19420,2488,-2560,1491,2416,7435,2025-02-17 16:22:36,0.0
20120,2152,-636,476,28,7483,2025-02-17 16:22:36,0.0
20284,1056,2028,-365,1047,7047,2025-02-17 16:22:36,0.0
19564,24,3824,-1,5090,5963,2025-02-17 16:22:36,0.0
17288,28,4596,-489,7158,4046,2025-02-17 16:22:36,0.0
17804,-540,5136,-1593,8632,1477,2025-02-17 16:22:36,0.0
17448,-648,5972,-2219,8296,-1102,2025-02-17 16:22:36,0.0
17632,-364,5164,-2283,8729,-1970,2025-02-17 16:22:36,0.0
17796,400,4796,-2556,9422,-1741,2025-02-17 16:22:36,0.0
17216,-152,4760,-2140,9592,-1458,2025-02-17 16:22:36,0.0
18888,232,4304,-1710,8560,-1521,2025-02-17 16:22:36,0.0
20840,140,4544,-1556,7449,-2157,2025-02-17 16:22:36,0.0
22104,-1108,5940,-1259,6447,-3283,2025-02-17 16:22:37,0.0
21564,-1640,6240,-1012,4939,-2958,2025-02-17 16:22:37,0.0
21404,-2132,5800,-677,3876,-1618,2025-02-17 16:22:37,0.0
21416,-2628,4684,88,3676,-312,2025-02-17 16:22:37,0.0
20960,-3616,4456,908,3561,1018,2025-02-17 16:22:37,0.0
20516,-3684,4080,611,2912,2312,2025-02-17 16:22:37,0.0
21268,-4304,4532,-72,1738,3584,2025-02-17 16:22:37,0.0
22676,-5332,4304,-1725,2808,4693,2025-02-17 16:22:37,0.0
23640,-6336,3476,-2181,1617,3265,2025-02-17 16:22:37,0.0
22468,-6724,884,-1161,-948,1634,2025-02-17 16:22:37,0.0
19816,-5396,1016,-721,-3634,889,2025-02-17 16:22:37,0.0
17304,-5900,-1228,-3509,-5104,3413,2025-02-17 16:22:37,0.0
19828,-8128,1740,-5978,3126,4808,2025-02-17 16:22:37,0.0
20628,-4532,3184,-6023,8879,1538,2025-02-17 16:22:37,0.0
18628,-4588,3272,-4429,8847,-449,2025-02-17 16:22:37,0.0
18808,-3884,2664,-4599,6072,1187,2025-02-17 16:22:37,
19116,-3056,4508,-4919,1576,648,2025-02-17 16:22:37,0.0
18900,-2816,3984,-5106,-3056,30,2025-02-17 16:22:37,0.0
18916,-3076,1664,-5770,-4253,-552,2025-02-17 16:22:37,0.0
18048,-2568,812,-5966,-3753,-884,2025-02-17 16:22:37,0.0
17476,-2488,1124,-5888,-3360,-1048,2025-02-17 16:22:37,0.0
17516,-2392,1524,-5604,-4281,-1018,2025-02-17 16:22:37,0.0
18308,-2844,1600,-5163,-5163,-946,2025-02-17 16:22:37,0.0
17704,-1872,1828,-3684,-4674,-1223,2025-02-17 16:22:37,0.0
18080,-2204,1156,-2434,-3043,-1427,2025-02-17 16:22:37,0.0
18136,-2748,1540,-2476,-1259,-1280,2025-02-17 16:22:37,0.0
18520,-2944,2792,-2941,-1569,-1616,2025-02-17 16:22:37,0.0
19620,-2720,1944,-3802,-2980,-2161,2025-02-17 16:22:37,0.0
19448,-2492,2640,-4409,-3647,-2037,2025-02-17 16:22:37,0.0
19568,-2004,2580,-4478,-4710,-1398,2025-02-17 16:22:37,0.0
19884,-1724,2628,-3598,-4998,-702,2025-02-17 16:22:37,0.0
21896,-1236,5708,-3783,2360,-462,2025-02-17 16:22:37,0.0
18992,-3504,9084,-3679,6099,-695,2025-02-17 16:22:37,0.0
18840,-3148,8140,-3949,5126,-1319,2025-02-17 16:22:37,0.0
18288,-1540,5804,-4088,5795,-2111,2025-02-17 16:22:37,0.0
15948,-1876,3932,-3940,206,-1808,2025-02-17 16:22:37,0.0
17828,-1096,4092,-3012,-2919,-1646,2025-02-17 16:22:37,0.0
17804,-876,3348,-2297,-3722,-1210,2025-02-17 16:22:37,0.0
18044,-908,2964,-1975,-4235,-919,2025-02-17 16:22:37,0.0
18188,-1224,3704,-1059,-2988,-839,2025-02-17 16:22:37,0.0
18128,192,4096,-139,-805,-864,2025-02-17 16:22:37,0.0
16524,1252,3244,-139,1165,-492,2025-02-17 16:22:37,0.0
16924,772,3344,-702,2358,522,2025-02-17 16:22:37,0.0
17848,156,3624,-1283,3370,1346,2025-02-17 16:22:37,0.0
19248,-1292,3764,-2040,3544,1927,2025-02-17 16:22:37,0.0
20624,-3028,4912,-2328,2460,1953,2025-02-17 16:22:37,0.0
21372,-3044,5256,-2110,493,1131,2025-02-17 16:22:37,0.0
20280,-3036,4044,-1718,-2176,-300,2025-02-17 16:22:37,0.0
19748,-3132,3840,-1353,-2560,-1176,2025-02-17 16:22:37,0.0
18812,-2716,4068,-824,-2211,-1801,2025-02-17 16:22:37,0.0
18024,-1920,4252,-398,-1785,-1920,2025-02-17 16:22:37,0.0
17388,-1268,4136,-188,-1411,-1840,2025-02-17 16:22:37,0.0
16816,-848,4680,244,-612,-1353,2025-02-17 16:22:37,0.0
17228,-464,4280,881,1297,-901,2025-02-17 16:22:37,0.0
18204,-1036,4264,1490,3216,-404,2025-02-17 16:22:37,0.0
18392,-1252,3800,1441,3503,-19,2025-02-17 16:22:37,0.0
19240,-1680,3876,918,2259,349,2025-02-17 16:22:37,0.0
19648,-1368,3824,353,1242,212,2025-02-17 16:22:37,0.0
19476,-1648,4168,-231,729,-37,2025-02-17 16:22:37,0.0
18816,-1548,4348,-616,621,-166,2025-02-17 16:22:37,0.0
18012,-1428,4424,-775,995,-103,2025-02-17 16:22:37,0.0
17872,-1668,4676,-993,1586,-14,2025-02-17 16:22:38,0.0
18020,-1972,5008,-1048,2013,-196,2025-02-17 16:22:38,0.0
17872,-1692,5204,-1488,3603,-619,2025-02-17 16:22:38,0.0
18316,-2188,5964,-1391,2982,-1466,2025-02-17 16:22:38,0.0
17716,-2216,5468,-1808,2780,-1622,2025-02-17 16:22:38,0.0
17596,-2244,5424,-2071,3134,-1806,2025-02-17 16:22:38,0.0
17600,-2420,4820,-2081,3978,-2013,2025-02-17 16:22:38,0.0
17348,-1920,5160,-1804,5023,-2030,2025-02-17 16:22:38,0.0
18096,-1244,4352,-1610,4502,-2032,2025-02-17 16:22:38,0.0
18864,-1116,4244,-1702,4174,-1581,2025-02-17 16:22:38,0.0
19040,-1360,4484,-2340,4394,-1359,2025-02-17 16:22:38,0.0
20248,-876,5444,-3036,4315,-1126,2025-02-17 16:22:38,0.0
20320,-932,5652,-3409,4726,-1246,2025-02-17 16:22:38,0.0
19412,-1976,5120,-3668,3900,-927,2025-02-17 16:22:38,0.0
19964,-2060,4388,-3366,1793,-319,2025-02-17 16:22:38,0.0
19836,-2264,4408,-2785,-231,440,2025-02-17 16:22:38,0.0
20476,-2376,4208,-2030,-1502,650,2025-02-17 16:22:38,0.0
19784,-2612,4180,-1250,-2093,585,2025-02-17 16:22:38,0.0
19612,-2500,3872,-342,-1894,315,2025-02-17 16:22:38,0.0
18392,-2800,3932,-136,-1987,264,2025-02-17 16:22:38,0.0
17832,-2596,4624,27,-1426,-66,2025-02-17 16:22:38,0.0
17312,-2680,4576,243,-440,-326,2025-02-17 16:22:38,0.0
16612,-2752,4192,609,451,-282,2025-02-17 16:22:38,0.0
16372,-2988,3992,813,892,-124,2025-02-17 16:22:38,0.0
16092,-3424,4756,1018,2025,187,2025-02-17 16:22:38,0.0
17296,-2876,4404,1306,3125,-166,2025-02-17 16:22:38,0.0
17584,-2324,3196,951,4083,-543,2025-02-17 16:22:38,0.0
18176,-1852,2600,196,3775,-955,2025-02-17 16:22:38,0.0
18132,-1964,2444,-541,2921,-769,2025-02-17 16:22:38,0.0
18824,-1824,2692,-1100,1579,-902,2025-02-17 16:22:38,0.0
19076,-1808,3060,-1503,2157,-1201,2025-02-17 16:22:38,0.0
18964,-1668,3448,-1537,3257,-1565,2025-02-17 16:22:38,0.0
19208,-1092,4652,-1324,3732,-1172,2025-02-17 16:22:38,0.0
20880,-1792,3752,-1209,3119,-1560,2025-02-17 16:22:38,0.0
18616,-1524,3992,-1559,1715,-839,2025-02-17 16:22:38,0.0
20412,-1636,4620,-1455,-504,-711,2025-02-17 16:22:38,0.0
19760,-2132,4036,-1389,-2554,-978,2025-02-17 16:22:38,0.0
19736,-2528,5160,-1391,-2852,-1066,2025-02-17 16:22:38,0.0
20572,-2508,5700,-2052,-308,-1667,2025-02-17 16:22:38,0.0
20100,-2492,6448,-2501,2727,-2556,2025-02-17 16:22:38,0.0
19284,-2172,7080,-2270,3005,-2539,2025-02-17 16:22:38,0.0
19612,-2508,7728,-1461,296,-2027,2025-02-17 16:22:38,0.0
19480,-2988,6448,329,-3901,-1347,2025-02-17 16:22:38,0.0
20112,-3656,5100,1935,-6831,-353,2025-02-17 16:22:38,0.0
21488,-3900,4808,2447,-5865,-302,2025-02-17 16:22:38,0.0
21928,-2936,6244,2320,-1240,-443,2025-02-17 16:22:38,0.0
22152,-1896,8436,2873,5150,-476,2025-02-17 16:22:38,0.0
20044,-1516,8820,3025,6557,-454,2025-02-17 16:22:38,0.0
18864,-1416,7472,1441,4546,178,2025-02-17 16:22:38,0.0
18628,-668,9432,-756,2128,1255,2025-02-17 16:22:38,0.0
18272,444,10056,-1881,58,1914,2025-02-17 16:22:38,0.0
16632,-720,9148,-3004,-2780,2519,2025-02-17 16:22:38,0.0
17008,-1604,8924,-3280,-3502,1894,2025-02-17 16:22:38,0.0
16884,-1428,8060,-3177,-3224,228,2025-02-17 16:22:38,0.0
17800,-1076,6480,-2657,-1062,-1788,2025-02-17 16:22:38,
17444,248,5924,-1975,1630,-3305,2025-02-17 16:22:38,0.0
16544,-228,6844,-952,3047,-3086,2025-02-17 16:22:38,0.0
16768,-900,7252,329,4008,-2015,2025-02-17 16:22:38,0.0
16060,-1420,7188,1367,3628,-583,2025-02-17 16:22:38,0.0
14256,-1616,5796,1093,3228,679,2025-02-17 16:22:38,0.0
15424,-1236,6376,128,2272,1097,2025-02-17 16:22:39,0.0
14904,-732,7220,-496,1238,614,2025-02-17 16:22:39,0.0
15636,-244,6540,-712,223,654,2025-02-17 16:22:39,0.0
16892,-32,6728,-418,334,277,2025-02-17 16:22:39,0.0
17600,36,6612,-178,1360,-197,2025-02-17 16:22:39,0.0
18120,172,6924,-431,2038,-745,2025-02-17 16:22:39,0.0
18120,0,6824,-1008,1639,-1296,2025-02-17 16:22:39,0.0
17956,-244,5996,-1772,1368,-1247,2025-02-17 16:22:39,0.0
17824,-104,5460,-2451,1636,-805,2025-02-17 16:22:39,0.0
18136,-656,5812,-2466,2166,-221,2025-02-17 16:22:39,0.0
18168,-756,5696,-2417,1654,-38,2025-02-17 16:22:39,0.0
18568,-896,6296,-2344,591,-66,2025-02-17 16:22:39,0.0
18272,-868,6324,-2013,-548,-201,2025-02-17 16:22:39,0.0
18044,-1048,5948,-1627,-1807,-226,2025-02-17 16:22:39,0.0
18056,-1080,4764,-1482,-3232,-269,2025-02-17 16:22:39,0.0
18428,-972,4208,-1401,-4961,-185,2025-02-17 16:22:39,0.0
19320,-708,3352,-1308,-5523,-181,2025-02-17 16:22:39,0.0
19524,-212,2560,-1844,-4687,-189,2025-02-17 16:22:39,0.0
19464,180,2788,-2629,-2054,-53,2025-02-17 16:22:39,0.0
18592,-80,2952,-4298,957,63,2025-02-17 16:22:39,0.0
17876,-340,3764,-5246,4296,439,2025-02-17 16:22:39,0.0
17416,-960,5228,-5486,7259,1542,2025-02-17 16:22:39,0.0
19432,-1880,5928,-5124,8904,2216,2025-02-17 16:22:39,0.0
21164,-2160,6208,-4553,7250,1859,2025-02-17 16:22:39,0.0
22764,-2724,6604,-4384,5009,215,2025-02-17 16:22:39,0.0
21736,-2308,7008,-3974,4960,-1546,2025-02-17 16:22:39,0.0
20680,-1860,7316,-3627,7553,-1969,2025-02-17 16:22:39,0.0
20024,-1628,7680,-2797,11965,-1553,2025-02-17 16:22:39,0.0
19704,-1628,7960,-2377,16016,-1199,2025-02-17 16:22:39,0.0
18748,-1396,8860,-2375,19425,-1122,2025-02-17 16:22:39,0.0
16420,-1816,9424,-2225,20800,-717,2025-02-17 16:22:39,0.0
14688,-2188,11312,-756,22216,-71,2025-02-17 16:22:39,0.0
12344,-1420,12664,-139,20262,2399,2025-02-17 16:22:39,0.0
13600,-1300,12660,-774,16198,4127,2025-02-17 16:22:39,0.0
15148,-1804,12020,-1862,11748,3975,2025-02-17 16:22:39,0.0
16344,-2304,9608,-2995,8006,2088,2025-02-17 16:22:39,0.0
15720,-2488,10912,-2781,5115,527,2025-02-17 16:22:39,0.0
15576,-2644,10876,-1922,4885,-829,2025-02-17 16:22:39,0.0
15636,-2424,12000,-624,7449,-2156,2025-02-17 16:22:39,0.0
12868,-2340,12168,-60,8017,-2726,2025-02-17 16:22:39,0.0
12564,-2292,10352,510,6704,-2701,2025-02-17 16:22:39,0.0
12316,-2320,9652,1198,6389,-2579,2025-02-17 16:22:39,0.0
11172,-2048,10376,1880,7460,-2997,2025-02-17 16:22:39,0.0
10392,-2064,9232,2267,7882,-3910,2025-02-17 16:22:39,0.0
9340,-1680,7668,2321,8393,-4421,2025-02-17 16:22:39,0.0
7948,-936,6380,3096,11699,-3808,2025-02-17 16:22:39,0.0
4860,-1028,4644,4051,17986,-2893,2025-02-17 16:22:39,0.0
2576,-808,2360,3739,20150,-2449,2025-02-17 16:22:39,0.0
1996,-1092,2556,4705,18169,-2328,2025-02-17 16:22:39,0.0
1632,-844,2084,5698,15176,-2389,2025-02-17 16:22:39,0.0
1644,-628,2276,6266,12592,-1857,2025-02-17 16:22:39,0.0
1936,-564,1904,6568,10776,-1281,2025-02-17 16:22:39,0.0
2036,-532,1980,6720,9585,-729,2025-02-17 16:22:39,0.0
2316,-356,2032,6744,8768,-326,2025-02-17 16:22:39,0.0
2304,-264,1776,6707,8073,-36,2025-02-17 16:22:39,0.0
2516,-184,1812,6552,7450,87,2025-02-17 16:22:39,0.0
2324,-264,1812,6369,6845,135,2025-02-17 16:22:39,0.0
2352,-316,1940,6115,6249,251,2025-02-17 16:22:39,0.0
2252,-272,1824,5910,5669,390,2025-02-17 16:22:39,0.0
2152,-220,1972,5768,5075,536,2025-02-17 16:22:39,0.0
2124,-232,1964,5639,4409,775,2025-02-17 16:22:39,0.0
1896,-188,1968,5516,3681,1050,2025-02-17 16:22:40,0.0
1800,-176,2148,5369,3015,1405,2025-02-17 16:22:40,0.0
1824,-108,2256,5155,2196,1868,2025-02-17 16:22:40,0.0
1680,-24,2108,4849,1475,2330,2025-02-17 16:22:40,0.0
1604,-8,2260,4478,790,2893,2025-02-17 16:22:40,0.0
1788,-100,2412,4122,367,3421,2025-02-17 16:22:40,0.0
1420,76,2804,3857,-19,4154,2025-02-17 16:22:40,0.0
-5644,1108,20872,11499,-1217,11645,2025-02-17 16:22:40,0.0
32767,32767,32767,-32768,32767,5023,2025-02-17 16:22:40,0.0
-32768,7792,32767,-23276,32767,-18705,2025-02-17 16:22:40,0.0
-27080,-9584,9820,-5176,32767,-4910,2025-02-17 16:22:40,0.0
-11320,-3752,-6516,-3125,32767,2850,2025-02-17 16:22:40,0.0
-6288,-5000,-29564,-9701,32767,8096,2025-02-17 16:22:40,0.0
-3688,-8636,-15872,-5667,32767,5833,2025-02-17 16:22:40,0.0
-1904,-3496,-13744,92,32767,2186,2025-02-17 16:22:40,0.0
-4108,-784,-11712,3655,32767,1225,2025-02-17 16:22:40,0.0
-10220,2396,-13884,223,32767,3403,2025-02-17 16:22:40,0.0
-3832,608,-6756,-2072,32767,2697,2025-02-17 16:22:40,0.0
-2908,476,-1492,-319,10719,694,2025-02-17 16:22:40,0.0
-1880,536,472,1105,-6414,-723,2025-02-17 16:22:40,0.0
1256,196,1080,2857,-18954,-2330,2025-02-17 16:22:40,0.0
-3488,8,-1008,2439,-26152,-1145,2025-02-17 16:22:40,0.0
-13136,-1312,1268,1213,-32768,6599,2025-02-17 16:22:40,0.0
-27388,-4840,2940,3136,-32768,19392,2025-02-17 16:22:40,0.0
-32768,-9368,3068,8236,-32768,27365,2025-02-17 16:22:40,0.0
-32416,-2120,2044,9982,-32768,24086,2025-02-17 16:22:40,0.0
-32768,13076,6232,-4650,-32768,10293,2025-02-17 16:22:40,0.0
-14612,10912,3884,-11350,-32768,7263,2025-02-17 16:22:40,0.0
928,7288,2844,-15717,-32768,5317,2025-02-17 16:22:40,0.0
13896,7556,11828,-17660,-32768,3488,2025-02-17 16:22:40,0.0
18228,5828,17540,-17400,-32768,1341,2025-02-17 16:22:40,0.0
14448,2704,14972,-17660,-32768,566,2025-02-17 16:22:40,0.0
10192,-252,11852,-18494,-24490,1398,2025-02-17 16:22:40,0.0
7772,-2064,11768,-18357,-22246,2888,2025-02-17 16:22:40,
7224,-2832,13024,-16770,-22100,4091,2025-02-17 16:22:40,0.0
8004,-3516,17152,-14403,-22715,4955,2025-02-17 16:22:40,0.0
9920,-3388,19188,-11646,-23205,5460,2025-02-17 16:22:40,0.0
10636,-3448,18324,-9646,-18103,6589,2025-02-17 16:22:40,0.0
10700,-3136,15124,-8427,-7133,8203,2025-02-17 16:22:40,0.0
9808,-3816,15632,-6655,-3530,8613,2025-02-17 16:22:40,0.0
10788,-4344,16376,-4919,-5499,8143,2025-02-17 16:22:40,0.0
10876,-4620,16608,-4181,-8505,6943,2025-02-17 16:22:40,0.0
11664,-4648,15056,-4835,-9077,6425,2025-02-17 16:22:40,0.0
18892,-5404,15252,-5996,-6547,4361,2025-02-17 16:22:40,0.0
20152,-6308,14024,-6576,-1883,-3941,2025-02-17 16:22:40,0.0
14712,-8012,16932,-5362,-1163,-9127,2025-02-17 16:22:40,0.0
11124,-7552,18628,-2985,-3325,-9367,2025-02-17 16:22:40,0.0
10872,-6564,18404,-1396,-4876,-6849,2025-02-17 16:22:40,0.0
13672,-4964,15740,-330,-4014,-5293,2025-02-17 16:22:40,0.0
13536,-4020,13908,-119,-1479,-4888,2025-02-17 16:22:40,0.0
12432,-3632,14988,-452,1614,-2944,2025-02-17 16:22:40,0.0
12072,-3392,15120,-459,1367,-1285,2025-02-17 16:22:40,0.0
11668,-4424,15952,-412,-310,147,2025-02-17 16:22:40,0.0
11908,-4552,15424,-25,1048,-108,2025-02-17 16:22:40,0.0
11052,-4160,14876,187,632,-136,2025-02-17 16:22:40,0.0
11088,-3764,14964,-217,7,-162,2025-02-17 16:22:40,0.0
11564,-4324,15340,-350,-97,-186,2025-02-17 16:22:40,0.0
11908,-4356,15184,-183,53,-185,2025-02-17 16:22:40,0.0
11860,-4120,15208,-88,325,-191,2025-02-17 16:22:40,0.0
11580,-4160,15156,-152,188,-159,2025-02-17 16:22:40,0.0
11472,-4168,15308,-193,112,-148,2025-02-17 16:22:41,0.0
11608,-4256,15068,-189,40,-184,2025-02-17 16:22:41,0.0
11532,-4220,15468,-192,96,-124,2025-02-17 16:22:41,0.0
11484,-4264,15292,-188,146,-179,2025-02-17 16:22:41,0.0
11752,-4212,15200,-193,189,-198,2025-02-17 16:22:41,0.0
11568,-4140,15252,-159,158,-166,2025-02-17 16:22:41,0.0
11524,-4252,15252,-148,74,-168,2025-02-17 16:22:41,0.0
11668,-4132,15100,-191,105,-172,2025-02-17 16:22:41,0.0
11456,-4236,15128,-189,79,-179,2025-02-17 16:22:41,0.0
11436,-4208,15156,-183,96,-167,2025-02-17 16:22:41,0.0
11228,-4304,15284,-233,-133,-203,2025-02-17 16:22:41,0.0
12072,-4288,15372,-94,230,-209,2025-02-17 16:22:41,0.0
11632,-4184,15068,-116,366,-152,2025-02-17 16:22:41,0.0
11404,-4120,15036,-183,159,-154,2025-02-17 16:22:41,0.0
11564,-4128,15236,-169,87,-186,2025-02-17 16:22:41,0.0
11628,-4276,15296,-172,63,-171,2025-02-17 16:22:41,0.0
11656,-4296,15084,-148,197,-168,2025-02-17 16:22:41,0.0
11544,-4172,15236,-134,181,-170,2025-02-17 16:22:41,0.0
11668,-4188,15052,-170,135,-181,2025-02-17 16:22:41,0.0
11560,-4228,15280,-150,150,-175,2025-02-17 16:22:41,0.0
11664,-4228,15124,-135,128,-196,2025-02-17 16:22:41,0.0
11660,-4204,15252,-173,162,-131,2025-02-17 16:22:41,0.0
11576,-4208,15064,-180,153,-171,2025-02-17 16:22:41,0.0
11636,-4160,15188,-153,175,-160,2025-02-17 16:22:41,0.0
11572,-4204,15244,-167,161,-174,2025-02-17 16:22:41,0.0
11692,-4176,15172,-153,145,-172,2025-02-17 16:22:41,0.0
11632,-4196,15248,-180,151,-188,2025-02-17 16:22:41,0.0
11596,-4128,15208,-165,161,-162,2025-02-17 16:22:41,0.0
11648,-4164,15048,-142,158,-167,2025-02-17 16:22:41,0.0
11572,-4148,15176,-160,144,-190,2025-02-17 16:22:41,0.0
11664,-4216,15180,-138,175,-153,2025-02-17 16:22:41,0.0
11596,-4180,15232,-161,158,-170,2025-02-17 16:22:41,0.0
11652,-4136,15120,-154,171,-187,2025-02-17 16:22:41,0.0
11680,-4172,15156,-177,184,-174,2025-02-17 16:22:41,0.0
11616,-4320,15104,-158,173,-184,2025-02-17 16:22:41,0.0
11608,-4136,15132,-162,168,-184,2025-02-17 16:22:41,0.0
11604,-4216,15288,-171,160,-182,2025-02-17 16:22:41,0.0
11564,-4268,15144,-167,161,-189,2025-02-17 16:22:41,0.0
11532,-4172,15300,-153,156,-172,2025-02-17 16:22:41,0.0
11516,-4172,15264,-150,158,-170,2025-02-17 16:22:41,0.0
11596,-4232,15192,-147,156,-172,2025-02-17 16:22:41,0.0
11540,-4160,15160,-173,185,-142,2025-02-17 16:22:41,0.0
11596,-4224,15164,-161,131,-170,2025-02-17 16:22:41,0.0
11696,-4168,15172,-158,164,-185,2025-02-17 16:22:41,0.0
11692,-4164,15212,-148,159,-181,2025-02-17 16:22:41,0.0
11516,-4188,15144,-164,175,-146,2025-02-17 16:22:41,0.0
11600,-4172,15224,-117,165,-166,2025-02-17 16:22:41,0.0
11620,-4148,15100,-157,147,-185,2025-02-17 16:22:41,0.0
11552,-4192,15232,-173,167,-179,2025-02-17 16:22:41,0.0
11516,-4124,15248,-148,147,-174,2025-02-17 16:22:41,0.0
11700,-4248,15116,-153,155,-192,2025-02-17 16:22:41,0.0
11720,-4144,15216,-177,150,-166,2025-02-17 16:22:41,0.0
11620,-4232,15168,-163,142,-186,2025-02-17 16:22:41,0.0
11664,-4320,15292,-143,146,-160,2025-02-17 16:22:41,0.0
11560,-4224,15084,-166,141,-167,2025-02-17 16:22:41,0.0
11600,-4212,15196,-164,155,-156,2025-02-17 16:22:41,0.0
11600,-4232,15164,-149,131,-183,2025-02-17 16:22:41,0.0
11652,-4324,15164,-143,169,-176,2025-02-17 16:22:41,0.0
11608,-4232,15136,-143,144,-170,2025-02-17 16:22:41,0.0
11692,-4164,15212,-145,177,-179,2025-02-17 16:22:41,0.0
11584,-4160,15240,-169,172,-159,2025-02-17 16:22:42,0.0
11612,-4248,15020,-170,122,-158,2025-02-17 16:22:42,0.0
11680,-4208,15024,-181,158,-179,2025-02-17 16:22:42,0.0
11640,-4144,15260,-178,178,-156,2025-02-17 16:22:42,0.0
11688,-4192,15236,-190,145,-174,2025-02-17 16:22:42,0.0
11656,-4132,15152,-138,168,-172,2025-02-17 16:22:42,0.0
11636,-4164,15192,-170,141,-174,2025-02-17 16:22:42,0.0
11604,-4232,15080,-161,166,-167,2025-02-17 16:22:42,0.0
11756,-4240,15096,-153,171,-164,2025-02-17 16:22:42,0.0
11620,-4276,15176,-152,165,-190,2025-02-17 16:22:42,0.0
11716,-4188,15252,-145,147,-172,2025-02-17 16:22:42,0.0
11604,-4276,15332,-156,158,-182,2025-02-17 16:22:42,0.0
11560,-4176,15272,-161,175,-167,2025-02-17 16:22:42,0.0
11740,-4208,15180,-192,149,-168,2025-02-17 16:22:42,
11576,-4144,15252,-144,164,-168,2025-02-17 16:22:42,0.0
11684,-4252,15116,-139,170,-170,2025-02-17 16:22:42,0.0
11724,-4252,15124,-156,139,-159,2025-02-17 16:22:42,0.0
11632,-4164,15120,-162,187,-169,2025-02-17 16:22:42,0.0
11624,-4152,15076,-148,180,-166,2025-02-17 16:22:42,0.0
11568,-4188,15096,-179,163,-155,2025-02-17 16:22:42,0.0
11604,-4132,15096,-169,179,-197,2025-02-17 16:22:42,0.0
11572,-4248,15176,-161,167,-186,2025-02-17 16:22:42,0.0
11616,-4168,15104,-179,140,-180,2025-02-17 16:22:42,0.0
11624,-4196,15148,-173,146,-152,2025-02-17 16:22:42,0.0
11620,-4244,15128,-147,152,-175,2025-02-17 16:22:42,0.0
11608,-4192,15028,-177,158,-170,2025-02-17 16:22:42,0.0
11636,-4164,15140,-143,159,-192,2025-02-17 16:22:42,0.0
11684,-4232,15192,-178,155,-185,2025-02-17 16:22:42,0.0
11604,-4216,15196,-148,143,-152,2025-02-17 16:22:42,0.0
11656,-4224,15152,-176,161,-181,2025-02-17 16:22:42,0.0
11616,-4272,15164,-155,170,-178,2025-02-17 16:22:42,0.0
11652,-4304,15304,-130,186,-174,2025-02-17 16:22:42,0.0
11620,-4256,15200,-164,161,-178,2025-02-17 16:22:42,0.0
12900,-3576,13624,3917,12193,-6022,2025-02-17 16:22:42,0.0
9264,-2108,14584,5847,19217,-11520,2025-02-17 16:22:42,0.0
3172,-612,16052,748,3066,-13369,2025-02-17 16:22:42,0.0
4636,-860,12928,-5437,-14036,-14884,2025-02-17 16:22:42,0.0
8076,-4796,12016,-9860,-24801,-14417,2025-02-17 16:22:42,0.0
15008,-7996,12904,-3721,-28814,-7438,2025-02-17 16:22:42,0.0
17792,-5612,14512,-2346,-22770,-2189,2025-02-17 16:22:42,0.0
20252,-632,15164,-6237,-21528,2551,2025-02-17 16:22:42,0.0
18344,-2252,18480,-13728,-25774,3804,2025-02-17 16:22:42,0.0
20272,-6536,18992,-11408,-19198,7279,2025-02-17 16:22:42,0.0
15684,-9912,13192,-9006,-18653,12158,2025-02-17 16:22:42,0.0
14016,-14440,10608,-9140,-32768,18622,2025-02-17 16:22:42,0.0
18956,-15004,8512,-9241,-32768,20674,2025-02-17 16:22:42,0.0
19520,-11876,6652,-9523,-32768,22697,2025-02-17 16:22:42,0.0
18636,-11724,6356,-9441,-28045,24884,2025-02-17 16:22:42,0.0
20124,-13604,4904,-8589,-16777,23917,2025-02-17 16:22:42,0.0
19356,-13308,4388,-8417,-8382,22571,2025-02-17 16:22:42,0.0
17460,-13568,4564,-9556,-3915,21925,2025-02-17 16:22:42,0.0
18616,-15280,2732,-12484,-2463,20792,2025-02-17 16:22:42,0.0
22120,-17052,2232,-15768,1403,17544,2025-02-17 16:22:42,0.0
24348,-16872,3708,-18148,5794,11437,2025-02-17 16:22:42,0.0
22080,-15564,8476,-16133,7464,3692,2025-02-17 16:22:42,0.0
19244,-15988,9740,-11896,5785,597,2025-02-17 16:22:42,0.0
17836,-16224,8588,-8393,3762,157,2025-02-17 16:22:42,0.0
16200,-15156,6976,-6332,-421,191,2025-02-17 16:22:42,0.0
16156,-15200,5368,-5647,-4124,1229,2025-02-17 16:22:42,0.0
16556,-14120,4872,-5678,-6595,1663,2025-02-17 16:22:42,0.0
18108,-14188,6812,-4777,-5940,813,2025-02-17 16:22:43,0.0
19048,-13504,7692,-2429,-7338,-362,2025-02-17 16:22:43,0.0
20568,-13632,7880,-12,-7115,-2589,2025-02-17 16:22:43,0.0
19404,-13316,7288,1966,-6726,-4959,2025-02-17 16:22:43,0.0
18420,-13364,6256,3159,-8459,-6209,2025-02-17 16:22:43,0.0
16848,-13176,6112,3921,-10763,-6614,2025-02-17 16:22:43,0.0
17620,-10940,4140,4127,-11458,-6746,2025-02-17 16:22:43,0.0
17188,-12228,9052,5155,-9779,-6910,2025-02-17 16:22:43,0.0
14000,-9792,9824,7712,-12606,-6404,2025-02-17 16:22:43,0.0
14960,-9800,10160,11672,-15790,-6523,2025-02-17 16:22:43,0.0
17328,-10704,2708,10672,-15936,-7479,2025-02-17 16:22:43,0.0
14616,-10048,5376,10517,-15525,-5860,2025-02-17 16:22:43,0.0
10824,-7112,5044,10137,-12510,-5178,2025-02-17 16:22:43,0.0
11380,-9748,6464,11599,-12344,-3551,2025-02-17 16:22:43,0.0
16968,-7780,3120,11318,-9996,-4448,2025-02-17 16:22:43,0.0
21024,-7960,2692,10984,-5655,-7296,2025-02-17 16:22:43,0.0
19328,-8268,1704,9547,-2615,-10383,2025-02-17 16:22:43,0.0
17076,-7884,1296,7930,-2046,-12128,2025-02-17 16:22:43,0.0
15256,-7796,2980,7287,-2890,-11826,2025-02-17 16:22:43,0.0
13936,-6684,3496,7972,-5036,-10914,2025-02-17 16:22:43,0.0
13624,-6776,3572,9222,-7747,-9496,2025-02-17 16:22:43,0.0
14316,-6508,2620,9403,-9309,-8560,2025-02-17 16:22:43,0.0
15916,-6636,2828,8466,-9807,-8540,2025-02-17 16:22:43,0.0
15816,-7076,4104,8220,-10994,-9318,2025-02-17 16:22:43,0.0
16164,-7732,4392,8908,-13388,-10557,2025-02-17 16:22:43,0.0
15488,-7868,3380,9090,-12353,-11110,2025-02-17 16:22:43,0.0
14104,-7168,2456,8483,-10532,-10842,2025-02-17 16:22:43,0.0
14164,-6368,2244,8016,-10226,-10573,2025-02-17 16:22:43,0.0
14528,-5704,1912,7929,-10686,-9961,2025-02-17 16:22:43,0.0
15588,-5912,1460,7864,-10497,-9201,2025-02-17 16:22:43,0.0
16260,-5780,660,7320,-8069,-8224,2025-02-17 16:22:43,0.0
16968,-6540,348,6427,-5843,-7258,2025-02-17 16:22:43,0.0
17376,-6532,-208,5718,-5122,-7542,2025-02-17 16:22:43,0.0
18020,-6908,-860,4431,-3806,-8214,2025-02-17 16:22:43,0.0
19180,-6668,-1868,2518,-989,-9455,2025-02-17 16:22:43,0.0
18044,-6216,-1500,437,1631,-11217,2025-02-17 16:22:43,0.0
17376,-5876,-980,-117,3087,-11995,2025-02-17 16:22:43,0.0
15908,-5432,-1252,-40,3297,-12391,2025-02-17 16:22:43,0.0
14956,-5048,-1532,33,3077,-11970,2025-02-17 16:22:43,0.0
12376,-4968,-5208,-1360,3456,-9642,2025-02-17 16:22:43,0.0
-1016,-7776,5428,727,1971,-4625,2025-02-17 16:22:43,0.0
200,-4772,-10472,-1061,2504,3469,2025-02-17 16:22:43,0.0
11052,-5428,-6800,-3029,2693,4424,2025-02-17 16:22:43,0.0
18628,-2168,-5408,-3007,6215,88,2025-02-17 16:22:43,0.0
24524,-3660,-6688,-6630,8963,-7263,2025-02-17 16:22:43,0.0
25368,-6464,-5408,-8097,14496,-12459,2025-02-17 16:22:43,0.0
15964,-3364,-4552,-8961,14767,-14269,2025-02-17 16:22:43,0.0
11016,-1932,-1872,-8114,11642,-12481,2025-02-17 16:22:43,0.0
11672,-1120,1828,-6882,12211,-10472,2025-02-17 16:22:43,0.0
10684,548,4088,-5384,11451,-8765,2025-02-17 16:22:43,0.0
9584,3284,4776,-3457,6852,-7158,2025-02-17 16:22:43,0.0
12292,1944,2320,-4237,7271,-6681,2025-02-17 16:22:43,0.0
12796,1016,1212,-7219,7006,-3704,2025-02-17 16:22:43,0.0
14824,1884,2168,-8551,8097,-3187,2025-02-17 16:22:43,
15028,2572,1968,-9758,3936,-2465,2025-02-17 16:22:43,0.0
16868,-36,1360,-10547,680,-1382,2025-02-17 16:22:43,0.0
17944,268,924,-9631,2143,-1349,2025-02-17 16:22:43,0.0
16696,1260,1020,-5425,5963,-1993,2025-02-17 16:22:43,0.0
15228,5440,1128,1060,-2889,-4076,2025-02-17 16:22:43,0.0
17888,5316,-4028,3700,-12876,-5873,2025-02-17 16:22:43,0.0
16636,5504,-1216,3616,-14518,-6841,2025-02-17 16:22:43,0.0
17036,4216,1332,580,-13525,-4871,2025-02-17 16:22:44,0.0
17180,1588,3408,-2505,-7821,-4927,2025-02-17 16:22:44,0.0
14964,976,3964,-3739,-2578,-4928,2025-02-17 16:22:44,0.0
14076,896,2644,-4456,1321,-4483,2025-02-17 16:22:44,0.0
15640,1272,3884,-6341,3181,-1501,2025-02-17 16:22:44,0.0
16624,1012,6148,-10393,4854,1889,2025-02-17 16:22:44,0.0
21044,1612,3280,-7611,4091,1032,2025-02-17 16:22:44,0.0
23072,1604,488,-6620,7549,2852,2025-02-17 16:22:44,0.0
23516,748,-424,-5248,9187,2699,2025-02-17 16:22:44,0.0
23328,-120,-268,-3453,9658,3408,2025-02-17 16:22:44,0.0
22384,-1316,-1212,-1642,9308,4350,2025-02-17 16:22:44,0.0
21440,-1888,-1012,-447,9410,5872,2025-02-17 16:22:44,0.0
21628,-2116,-928,756,10748,7128,2025-02-17 16:22:44,0.0
19764,-3224,-148,1578,12685,8985,2025-02-17 16:22:44,0.0
20132,-3644,-276,1505,12980,11646,2025-02-17 16:22:44,0.0
19264,-3568,768,-173,9485,11941,2025-02-17 16:22:44,0.0
19100,-4956,1436,-2042,7062,11321,2025-02-17 16:22:44,0.0
20232,-6412,3548,-2425,7739,9867,2025-02-17 16:22:44,0.0
20388,-5736,2948,-1834,8720,6995,2025-02-17 16:22:44,0.0
18536,-3952,2064,-855,7068,5216,2025-02-17 16:22:44,0.0
16392,-3204,1440,-546,4950,4388,2025-02-17 16:22:44,0.0
16336,-3548,5500,954,4562,5374,2025-02-17 16:22:44,0.0
17140,-2932,2300,965,3157,4910,2025-02-17 16:22:44,0.0
18876,-2816,2444,511,2660,4207,2025-02-17 16:22:44,0.0
20540,-2644,2496,137,2506,2837,2025-02-17 16:22:44,0.0
20864,-2960,1648,-138,1888,1702,2025-02-17 16:22:44,0.0
19328,-3024,1636,-733,890,532,2025-02-17 16:22:44,0.0
20636,-3720,2052,-1470,-2035,-90,2025-02-17 16:22:44,0.0
19676,-3748,3408,-2037,-4193,-467,2025-02-17 16:22:44,0.0
17940,-3596,4080,-2155,-5636,-126,2025-02-17 16:22:44,0.0
18648,-3444,3376,-2226,-5230,53,2025-02-17 16:22:44,0.0
19360,-3848,3284,-2330,-3514,-389,2025-02-17 16:22:44,0.0
19872,-4144,3400,-2106,-4321,-1992,2025-02-17 16:22:44,0.0
18828,-3708,2908,-1620,-5475,-2863,2025-02-17 16:22:44,0.0
18604,-3888,2912,-1535,-4779,-3081,2025-02-17 16:22:44,0.0
18392,-3812,4356,-926,-2886,-3384,2025-02-17 16:22:44,0.0
19272,-4056,3992,-179,-814,-3788,2025-02-17 16:22:44,0.0
22404,-2372,4268,-540,5438,-4568,2025-02-17 16:22:44,0.0
19796,-1876,7568,-1491,12498,-5206,2025-02-17 16:22:44,0.0
17444,-928,8100,-1972,8455,-6356,2025-02-17 16:22:44,0.0
16576,-772,6840,-2088,733,-6602,2025-02-17 16:22:44,0.0
16320,-788,4664,-2524,-4595,-4237,2025-02-17 16:22:44,0.0
17284,-964,4020,-2510,-7070,-3251,2025-02-17 16:22:44,0.0
17456,-1100,2836,-1823,-6684,-3104,2025-02-17 16:22:44,0.0
17772,-944,3168,-985,-4234,-2699,2025-02-17 16:22:44,0.0
17876,-288,4032,-32,-1867,-2348,2025-02-17 16:22:44,0.0
17904,532,4304,215,-39,-1974,2025-02-17 16:22:44,0.0
17692,1056,3756,55,390,-1556,2025-02-17 16:22:44,0.0
17408,1012,3388,-429,612,-695,2025-02-17 16:22:44,0.0
17700,812,3744,-1456,877,286,2025-02-17 16:22:44,0.0
19412,268,4840,-2816,2333,772,2025-02-17 16:22:44,0.0
19916,-940,6068,-3304,2930,530,2025-02-17 16:22:44,0.0
19956,-1464,5464,-2580,942,32,2025-02-17 16:22:44,0.0
20248,-1572,4688,-1681,-407,-896,2025-02-17 16:22:44,0.0
19480,-1124,3700,-1285,-1397,-1749,2025-02-17 16:22:44,0.0
19184,-768,3352,-1514,-1242,-2446,2025-02-17 16:22:44,0.0
18616,-692,4244,-1342,-974,-2608,2025-02-17 16:22:44,0.0
18264,-168,3828,-1022,-622,-2485,2025-02-17 16:22:44,0.0
17852,-300,3616,-986,687,-2475,2025-02-17 16:22:44,0.0
17356,-100,3468,-1370,902,-1975,2025-02-17 16:22:44,0.0
16548,-128,3776,-1910,435,-859,2025-02-17 16:22:44,0.0
18344,-208,5192,-2184,707,-102,2025-02-17 16:22:45,0.0
19032,88,6232,-1358,-701,418,2025-02-17 16:22:45,0.0
19244,84,6564,-38,-2328,680,2025-02-17 16:22:45,0.0
18984,-316,4732,280,-2347,1011,2025-02-17 16:22:45,0.0
18684,-720,4812,3,-1732,679,2025-02-17 16:22:45,0.0
18252,-924,4980,45,-1234,302,2025-02-17 16:22:45,0.0
17584,-1404,4724,76,-815,130,2025-02-17 16:22:45,0.0
17132,-1696,4688,131,-572,129,2025-02-17 16:22:45,0.0
17172,-2032,4680,354,-268,31,2025-02-17 16:22:45,0.0
17496,-1904,4096,474,159,-214,2025-02-17 16:22:45,0.0
17580,-1376,3780,251,788,-214,2025-02-17 16:22:45,0.0
18324,-396,3316,-397,1821,-192,2025-02-17 16:22:45,0.0
18404,-52,3192,-1423,2568,158,2025-02-17 16:22:45,0.0
18644,-456,3572,-2489,3465,636,2025-02-17 16:22:45,0.0
19128,-1260,3372,-3165,3974,1092,2025-02-17 16:22:45,0.0
20016,-2052,3120,-3209,3208,1272,2025-02-17 16:22:45,0.0
20788,-2728,2460,-3058,2077,1186,2025-02-17 16:22:45,0.0
20676,-2820,2420,-2726,1169,839,2025-02-17 16:22:45,0.0
20256,-2776,2460,-2254,46,495,2025-02-17 16:22:45,0.0
19672,-2648,2724,-1595,-610,166,2025-02-17 16:22:45,0.0
18944,-2292,2708,-1193,-294,77,2025-02-17 16:22:45,0.0
18532,-2092,3100,-1028,444,53,2025-02-17 16:22:45,0.0
18264,-1844,3272,-930,912,-19,2025-02-17 16:22:45,0.0
18752,-1708,2524,-1237,1733,-428,2025-02-17 16:22:45,0.0
18288,-1620,2940,-1778,2084,-773,2025-02-17 16:22:45,0.0
18104,-1532,3384,-1919,1306,-636,2025-02-17 16:22:45,0.0
18144,-1980,2956,-1879,891,-587,2025-02-17 16:22:45,0.0
17804,-1908,2728,-1547,640,-412,2025-02-17 16:22:45,0.0
17436,-1328,2280,-1132,763,-287,2025-02-17 16:22:45,0.0
17492,-888,2128,-739,1199,-146,2025-02-17 16:22:45,0.0
17488,-656,1684,-253,1332,78,2025-02-17 16:22:45,0.0
17820,-684,1484,78,776,48,2025-02-17 16:22:45,
18096,-704,1156,304,-603,-225,2025-02-17 16:22:45,0.0
18840,-76,504,-323,-1427,-641,2025-02-17 16:22:45,0.0
18256,-1448,2644,104,-2402,-734,2025-02-17 16:22:45,0.0
19356,-2244,3556,969,-1775,-1215,2025-02-17 16:22:45,0.0
18920,-2820,4456,2060,-1215,-1658,2025-02-17 16:22:45,0.0
19168,-2676,3640,3749,-465,-1511,2025-02-17 16:22:45,0.0
19756,-1960,1964,4623,-376,-791,2025-02-17 16:22:45,0.0
21160,-1244,1064,4386,-996,38,2025-02-17 16:22:45,0.0
22332,-1176,1460,3429,-1461,426,2025-02-17 16:22:45,0.0
21524,-1432,2100,2618,-2018,751,2025-02-17 16:22:45,0.0
20600,-1692,3036,2137,-3072,1202,2025-02-17 16:22:45,0.0
19736,-2016,4400,1810,-3040,1710,2025-02-17 16:22:45,0.0
18636,-2376,4804,2080,-2779,2345,2025-02-17 16:22:45,0.0
19100,-2916,4488,2937,-3258,3126,2025-02-17 16:22:45,0.0
20648,-3304,3864,3809,-3491,3141,2025-02-17 16:22:45,0.0
22108,-4148,3868,4750,-3172,2355,2025-02-17 16:22:45,0.0
23448,-4936,4396,5565,-2999,1121,2025-02-17 16:22:45,0.0
24064,-4604,4516,6075,-2520,-598,2025-02-17 16:22:45,0.0
23540,-2832,4796,5709,-1354,-2322,2025-02-17 16:22:45,0.0
21544,-1240,5052,4849,-212,-2922,2025-02-17 16:22:45,0.0
19420,212,5836,3373,-75,-2536,2025-02-17 16:22:45,0.0
18656,676,6208,1785,-153,-1710,2025-02-17 16:22:45,0.0
17932,1368,6716,490,96,-809,2025-02-17 16:22:45,0.0
17596,1736,6416,-551,685,117,2025-02-17 16:22:45,0.0
17380,1652,5404,-1348,171,396,2025-02-17 16:22:45,0.0
17628,1200,4696,-1949,-769,95,2025-02-17 16:22:45,0.0
18320,148,3596,-2487,-261,-646,2025-02-17 16:22:45,0.0
18368,-1156,4924,-2154,1087,-1501,2025-02-17 16:22:45,0.0
17864,-1412,5932,-755,2075,-1815,2025-02-17 16:22:46,0.0
17472,-808,6628,761,2597,-1830,2025-02-17 16:22:46,0.0
16976,-372,6148,1732,2119,-1469,2025-02-17 16:22:46,0.0
16504,-536,5468,2413,1215,-867,2025-02-17 16:22:46,0.0
16336,-632,4588,2878,274,-8,2025-02-17 16:22:46,0.0
16520,-572,3856,2982,-371,735,2025-02-17 16:22:46,0.0
16628,-80,3064,2977,-1484,1577,2025-02-17 16:22:46,0.0
17112,596,2456,2611,-2169,1566,2025-02-17 16:22:46,0.0
17156,804,2252,2125,-1185,940,2025-02-17 16:22:46,0.0
17464,372,1796,971,-43,731,2025-02-17 16:22:46,0.0
18156,76,1756,-36,1276,55,2025-02-17 16:22:46,0.0
18196,-148,2300,-985,2463,-535,2025-02-17 16:22:46,0.0
18080,-436,3376,-1636,2851,-754,2025-02-17 16:22:46,0.0
18128,-516,1748,-2611,3042,-472,2025-02-17 16:22:46,0.0
17956,-688,4568,-2972,3043,-497,2025-02-17 16:22:46,0.0
17848,-692,3992,-2283,2040,-33,2025-02-17 16:22:46,0.0
18340,-748,3180,-1988,1335,309,2025-02-17 16:22:46,0.0
18732,-1412,2576,-1478,-13,372,2025-02-17 16:22:46,0.0
19208,-1660,1780,-1363,-642,-35,2025-02-17 16:22:46,0.0
19304,-1656,1356,-1461,-731,-345,2025-02-17 16:22:46,0.0
19424,-1432,1028,-1405,-1056,-686,2025-02-17 16:22:46,0.0
19688,-1392,724,-1378,-1367,-1143,2025-02-17 16:22:46,0.0
19996,-728,908,-1333,-257,-1826,2025-02-17 16:22:46,0.0
19068,-8,1640,-1441,1775,-1959,2025-02-17 16:22:46,0.0
18088,-68,2384,-2079,1958,-1608,2025-02-17 16:22:46,0.0
17440,-104,3200,-3271,1199,-823,2025-02-17 16:22:46,0.0
18016,0,3676,-4652,609,-359,2025-02-17 16:22:46,0.0
19292,-288,4000,-5631,1941,-568,2025-02-17 16:22:46,0.0
19000,-884,3924,-5409,5054,-604,2025-02-17 16:22:46,0.0
18736,-776,3956,-4793,7532,-161,2025-02-17 16:22:46,0.0
19516,-904,4036,-4199,10121,13,2025-02-17 16:22:46,0.0
19200,-832,4892,-3640,11970,-121,2025-02-17 16:22:46,0.0
18216,-816,5228,-2974,13116,-99,2025-02-17 16:22:46,0.0
17340,-856,5152,-3092,13291,194,2025-02-17 16:22:46,0.0
14668,-808,6044,-3886,10750,541,2025-02-17 16:22:46,0.0
20172,-1176,4020,-3423,9573,-65,2025-02-17 16:22:46,0.0
17368,-1204,7628,-2437,9257,-1409,2025-02-17 16:22:46,0.0
16856,-956,8432,-1712,8700,-2536,2025-02-17 16:22:46,0.0
15784,-968,8204,-1275,7365,-3019,2025-02-17 16:22:46,0.0
15348,-644,7556,-1385,5069,-3134,2025-02-17 16:22:46,0.0
15128,-724,6352,-1478,5182,-2946,2025-02-17 16:22:46,0.0
13388,-692,5052,-1898,7136,-2363,2025-02-17 16:22:46,0.0
12312,-1352,5984,-1861,9482,-2040,2025-02-17 16:22:46,0.0
11788,-1896,5264,333,16454,-2050,2025-02-17 16:22:46,0.0
8896,-1652,3376,1234,20370,-3646,2025-02-17 16:22:46,0.0
5328,-976,1084,142,20823,-5664,2025-02-17 16:22:46,0.0
2344,-320,996,-875,18847,-6732,2025-02-17 16:22:46,0.0
1672,-372,1232,-669,17788,-6222,2025-02-17 16:22:46,0.0
2124,-552,1680,-500,17179,-5800,2025-02-17 16:22:46,0.0
2172,-328,1316,-473,17075,-5597,2025-02-17 16:22:46,0.0
2128,-356,1644,-733,17086,-5334,2025-02-17 16:22:46,0.0
2412,-392,1536,-886,17289,-5140,2025-02-17 16:22:46,0.0
2420,-388,1572,-1054,17649,-4935,2025-02-17 16:22:46,0.0
2548,-412,1536,-1229,18121,-4789,2025-02-17 16:22:46,0.0
2544,-432,1688,-1397,18739,-4733,2025-02-17 16:22:46,0.0
2548,-448,1596,-1578,19268,-4724,2025-02-17 16:22:46,0.0
2524,-436,1484,-1667,19732,-4691,2025-02-17 16:22:46,0.0
2472,-368,1692,-1723,20032,-4718,2025-02-17 16:22:46,0.0
2436,-400,1756,-1708,20217,-4787,2025-02-17 16:22:46,0.0
2328,-444,1964,-1661,20250,-4876,2025-02-17 16:22:46,0.0
2352,-400,1700,-1689,20185,-4897,2025-02-17 16:22:46,0.0
2084,-424,2068,-1677,19939,-4738,2025-02-17 16:22:47,0.0
1888,-392,2264,-1544,19812,-4720,2025-02-17 16:22:47,0.0
3648,-540,2108,-1703,20530,-5337,2025-02-17 16:22:47,0.0
3628,-552,2752,-1256,21774,-6026,2025-02-17 16:22:47,0.0
-5304,2740,18548,2367,20162,-3565,2025-02-17 16:22:47,0.0
32767,-14244,32767,20457,32767,819,2025-02-17 16:22:47,0.0
-32768,32767,32767,-22975,32767,-25775,2025-02-17 16:22:47,0.0
-31268,-5856,11520,604,32767,-19811,2025-02-17 16:22:47,0.0
-6496,-2928,-11992,1730,32767,-12396,2025-02-17 16:22:47,0.0
-16372,-1112,-24888,-10056,32767,-7056,2025-02-17 16:22:47,0.0
-5116,-5756,-22156,-20419,32767,-3728,2025-02-17 16:22:47,
-6756,-5152,-20792,-30215,32767,-3326,2025-02-17 16:22:47,0.0
-7776,-776,-8520,-6508,32767,1088,2025-02-17 16:22:47,0.0
820,1400,-14084,-9137,32767,3334,2025-02-17 16:22:47,0.0
5888,-2264,-4676,-9267,23347,-1335,2025-02-17 16:22:47,0.0
1588,-3028,-1944,-4921,8313,-5974,2025-02-17 16:22:47,0.0
-3664,-1148,-2652,-2762,-13180,-7836,2025-02-17 16:22:47,0.0
-4148,-776,-1388,-3765,-32768,-7880,2025-02-17 16:22:47,0.0
-2736,-384,-616,-5774,-32768,-5966,2025-02-17 16:22:47,0.0
-2636,-188,496,-7312,-32768,-4437,2025-02-17 16:22:47,0.0
-13412,-556,4052,-6643,-32768,-551,2025-02-17 16:22:47,0.0
-32768,-5836,15680,2707,-32768,12894,2025-02-17 16:22:47,0.0
-32768,-13052,21424,19348,-32768,22319,2025-02-17 16:22:47,0.0
-29748,-9352,16560,30201,-32768,11403,2025-02-17 16:22:47,0.0
-3716,8348,27216,20169,-32768,726,2025-02-17 16:22:47,0.0
15524,12416,32767,7516,-23370,2757,2025-02-17 16:22:47,0.0
5504,5476,16856,2559,-11735,3757,2025-02-17 16:22:47,0.0
5472,1956,7996,1318,-17363,3328,2025-02-17 16:22:47,0.0
5664,920,4884,437,-17699,3663,2025-02-17 16:22:47,0.0
8468,956,6164,-147,-12627,3365,2025-02-17 16:22:47,0.0
12740,1808,11656,-324,698,1992,2025-02-17 16:22:47,0.0
13064,2504,20200,-1521,13434,-225,2025-02-17 16:22:47,0.0
7412,2056,26568,-1704,14598,-1650,2025-02-17 16:22:47,0.0
1140,1044,23176,-264,13659,-1688,2025-02-17 16:22:47,0.0
-1924,1136,17448,602,13722,-1543,2025-02-17 16:22:47,0.0
-4376,1736,15756,632,10344,-1486,2025-02-17 16:22:47,0.0
-6044,2476,16832,51,2782,-1019,2025-02-17 16:22:47,0.0
-5272,2468,18584,-426,-1948,-72,2025-02-17 16:22:47,0.0
-1632,1788,19256,-437,-3880,211,2025-02-17 16:22:47,0.0
1304,1512,17968,-21,-3451,125,2025-02-17 16:22:47,0.0
2520,1780,17668,5,-761,4,2025-02-17 16:22:47,0.0
1692,2064,18132,-196,1559,-337,2025-02-17 16:22:47,0.0
-724,1600,18288,-245,1973,-353,2025-02-17 16:22:47,0.0
-1900,1768,18132,-85,411,-228,2025-02-17 16:22:47,0.0
-824,1972,18196,-180,-690,-102,2025-02-17 16:22:47,0.0
444,1768,18188,-192,-498,-129,2025-02-17 16:22:47,0.0
632,1676,18168,-130,423,-177,2025-02-17 16:22:47,0.0
-404,1912,18228,-138,573,-203,2025-02-17 16:22:47,0.0
-696,1864,18244,-198,104,-154,2025-02-17 16:22:47,0.0
-264,1780,18124,-158,-13,-150,2025-02-17 16:22:47,0.0
-20,1840,18212,-111,134,-166,2025-02-17 16:22:47,0.0
-104,1868,18232,-172,221,-191,2025-02-17 16:22:47,0.0
-300,1804,18164,-155,228,-186,2025-02-17 16:22:47,0.0
-284,1836,18124,-132,143,-159,2025-02-17 16:22:47,0.0
-316,1856,18080,-160,141,-175,2025-02-17 16:22:47,0.0
-240,1760,18152,-121,120,-169,2025-02-17 16:22:47,0.0
-108,1876,18140,-141,192,-202,2025-02-17 16:22:47,0.0
-280,1848,18212,-158,249,-194,2025-02-17 16:22:47,0.0
-336,1840,18200,-128,124,-150,2025-02-17 16:22:47,0.0
-340,1812,18164,-151,52,-185,2025-02-17 16:22:47,0.0
-56,1880,18068,-150,151,-188,2025-02-17 16:22:47,0.0
-196,1700,18304,-147,259,-176,2025-02-17 16:22:48,0.0
-280,1832,18076,-150,198,-193,2025-02-17 16:22:48,0.0
-292,1716,18088,-167,90,-175,2025-02-17 16:22:48,0.0
-224,1784,18240,-148,137,-179,2025-02-17 16:22:48,0.0
-160,1844,18120,-171,191,-175,2025-02-17 16:22:48,0.0
-236,1856,18108,-169,221,-191,2025-02-17 16:22:48,0.0
-176,1780,18108,-141,179,-168,2025-02-17 16:22:48,0.0
-168,1808,18292,-131,128,-172,2025-02-17 16:22:48,0.0
-128,1788,18248,-119,164,-177,2025-02-17 16:22:48,0.0
-236,1852,18120,-148,189,-168,2025-02-17 16:22:48,0.0
-248,1792,18076,-139,157,-189,2025-02-17 16:22:48,0.0
-304,1820,18140,-123,174,-177,2025-02-17 16:22:48,0.0
-256,1836,18100,-164,165,-172,2025-02-17 16:22:48,0.0
-180,1800,18044,-170,160,-160,2025-02-17 16:22:48,0.0
-148,1820,18096,-150,180,-156,2025-02-17 16:22:48,0.0
-264,1888,18200,-168,162,-147,2025-02-17 16:22:48,0.0
-160,1900,18216,-158,179,-161,2025-02-17 16:22:48,0.0
-192,1816,18136,-142,142,-177,2025-02-17 16:22:48,0.0
-196,1852,18280,-167,163,-191,2025-02-17 16:22:48,0.0
-272,1832,18048,-162,197,-156,2025-02-17 16:22:48,0.0
-256,1724,18184,-137,191,-175,2025-02-17 16:22:48,0.0
-232,1724,18100,-111,170,-170,2025-02-17 16:22:48,0.0
-280,1748,18244,-154,174,-184,2025-02-17 16:22:48,0.0
-164,1780,18156,-147,203,-171,2025-02-17 16:22:48,0.0
-268,1796,18204,-172,161,-151,2025-02-17 16:22:48,0.0
-176,1768,18224,-172,160,-186,2025-02-17 16:22:48,0.0
-288,1864,18156,-147,163,-182,2025-02-17 16:22:48,0.0
-380,1752,18004,-160,175,-189,2025-02-17 16:22:48,0.0
-216,1848,18228,-148,165,-193,2025-02-17 16:22:48,0.0
-196,1808,18036,-167,175,-182,2025-02-17 16:22:48,0.0
-224,1884,18128,-150,178,-166,2025-02-17 16:22:48,0.0
-236,1816,18292,-190,169,-174,2025-02-17 16:22:48,0.0
-232,1840,18096,-155,152,-176,2025-02-17 16:22:48,0.0
-192,1804,18152,-175,159,-193,2025-02-17 16:22:48,0.0
-268,1872,18124,-147,171,-170,2025-02-17 16:22:48,0.0
-168,1896,18120,-153,159,-156,2025-02-17 16:22:48,0.0
-264,1860,18100,-143,155,-163,2025-02-17 16:22:48,0.0
-272,1864,17988,-139,173,-187,2025-02-17 16:22:48,0.0
-296,1796,18184,-166,158,-166,2025-02-17 16:22:48,0.0
-232,1804,18132,-167,186,-168,2025-02-17 16:22:48,0.0
-280,1776,18216,-162,178,-189,2025-02-17 16:22:48,0.0
-288,1844,18204,-130,171,-200,2025-02-17 16:22:48,0.0
-256,1836,18232,-157,187,-214,2025-02-17 16:22:48,0.0
-148,1908,18268,-157,156,-168,2025-02-17 16:22:48,0.0
-388,1764,18224,-138,165,-170,2025-02-17 16:22:48,0.0
-272,1756,18236,-168,152,-169,2025-02-17 16:22:48,0.0
-240,1764,18220,-164,203,-174,2025-02-17 16:22:48,0.0
-220,1836,18108,-166,163,-153,2025-02-17 16:22:48,0.0
-320,1832,18208,-146,177,-190,2025-02-17 16:22:48,0.0
-252,1772,18200,-139,164,-183,2025-02-17 16:22:48,
-192,1964,18044,-156,162,-181,2025-02-17 16:22:48,0.0
-148,1836,18216,-159,169,-189,2025-02-17 16:22:48,0.0
-252,1840,18240,-151,175,-159,2025-02-17 16:22:48,0.0
-308,1824,18356,-157,174,-158,2025-02-17 16:22:48,0.0
-216,1856,18088,-162,175,-183,2025-02-17 16:22:48,0.0
-340,1844,18096,-167,154,-176,2025-02-17 16:22:48,0.0
-204,1828,18108,-170,156,-182,2025-02-17 16:22:48,0.0
-192,1812,18108,-164,167,-169,2025-02-17 16:22:48,0.0
-292,1820,18076,-142,201,-191,2025-02-17 16:22:48,0.0
-280,1860,18188,-146,168,-160,2025-02-17 16:22:48,0.0
-228,1844,18152,-152,199,-193,2025-02-17 16:22:49,0.0
-176,1720,18136,-147,166,-187,2025-02-17 16:22:49,0.0
-248,1876,18160,-171,167,-191,2025-02-17 16:22:49,0.0
-264,1864,18112,-142,167,-174,2025-02-17 16:22:49,0.0
-304,1812,18144,-166,179,-197,2025-02-17 16:22:49,0.0
-228,1844,18212,-145,190,-170,2025-02-17 16:22:49,0.0
-256,1944,18144,-172,181,-178,2025-02-17 16:22:49,0.0
-228,1860,18116,-188,193,-198,2025-02-17 16:22:49,0.0
-260,1884,18076,-170,199,-172,2025-02-17 16:22:49,0.0
-208,1824,18024,-150,179,-185,2025-02-17 16:22:49,0.0
-260,1792,18304,-173,159,-186,2025-02-17 16:22:49,0.0
-152,1868,18216,-179,170,-159,2025-02-17 16:22:49,0.0
-352,1828,18004,-149,167,-148,2025-02-17 16:22:49,0.0
-308,1784,18148,-128,159,-172,2025-02-17 16:22:49,0.0
-196,1852,18116,-180,157,-156,2025-02-17 16:22:49,0.0
-192,1828,18104,-105,181,-177,2025-02-17 16:22:49,0.0
-272,1904,18244,-153,161,-176,2025-02-17 16:22:49,0.0
-232,1752,18204,-130,171,-161,2025-02-17 16:22:49,0.0
-340,1796,18244,-157,157,-203,2025-02-17 16:22:49,0.0
-300,1728,18256,-161,189,-189,2025-02-17 16:22:49,0.0
-192,1812,18180,-160,172,-161,2025-02-17 16:22:49,0.0
-252,1776,18112,-156,167,-173,2025-02-17 16:22:49,0.0
-240,1784,18024,-154,166,-175,2025-02-17 16:22:49,0.0
-236,1720,18172,-153,181,-161,2025-02-17 16:22:49,0.0
-164,1816,18192,-158,191,-163,2025-02-17 16:22:49,0.0
-260,1796,18128,-182,169,-152,2025-02-17 16:22:49,0.0
-188,1824,18208,-159,179,-182,2025-02-17 16:22:49,0.0
-220,1808,18240,-142,188,-172,2025-02-17 16:22:49,0.0
-260,1780,18064,-137,178,-215,2025-02-17 16:22:49,0.0
-312,1848,18100,-133,192,-189,2025-02-17 16:22:49,0.0
-136,1784,18300,-137,172,-182,2025-02-17 16:22:49,0.0
-260,1824,18092,-151,181,-186,2025-02-17 16:22:49,0.0
-200,1732,18276,-169,168,-164,2025-02-17 16:22:49,0.0
-264,1860,18280,-175,194,-182,2025-02-17 16:22:49,0.0
-220,1848,18192,-125,147,-186,2025-02-17 16:22:49,0.0
-284,1792,18072,-137,161,-172,2025-02-17 16:22:49,0.0
-232,1800,18200,-160,169,-168,2025-02-17 16:22:49,0.0
-208,1884,18116,-152,168,-179,2025-02-17 16:22:49,0.0
-232,1832,18020,-160,178,-182,2025-02-17 16:22:49,0.0
-252,1800,18248,-185,159,-191,2025-02-17 16:22:49,0.0
-164,1860,18132,-165,159,-176,2025-02-17 16:22:49,0.0
-232,1672,18232,-152,171,-185,2025-02-17 16:22:49,0.0
-276,1772,18092,-157,190,-182,2025-02-17 16:22:49,0.0
-304,1804,18156,-148,180,-164,2025-02-17 16:22:49,0.0
-196,1860,18156,-168,188,-194,2025-02-17 16:22:49,0.0
-204,1812,18196,-139,182,-162,2025-02-17 16:22:49,0.0
-120,1932,18172,-152,170,-185,2025-02-17 16:22:49,0.0
-244,1804,18052,-136,139,-180,2025-02-17 16:22:49,0.0
-232,1872,18236,-176,163,-182,2025-02-17 16:22:49,0.0
-236,1764,18272,-148,177,-163,2025-02-17 16:22:49,0.0
-176,1860,18172,-164,171,-161,2025-02-17 16:22:49,0.0
-296,1820,18216,-148,180,-172,2025-02-17 16:22:49,0.0
-268,1876,18172,-155,170,-167,2025-02-17 16:22:49,0.0
-232,1752,18184,-156,172,-166,2025-02-17 16:22:49,0.0
-244,1864,18140,-162,165,-184,2025-02-17 16:22:49,0.0
-272,1832,18180,-160,181,-186,2025-02-17 16:22:49,0.0
-156,1912,18236,-149,169,-163,2025-02-17 16:22:49,0.0
-220,1800,18116,-149,184,-159,2025-02-17 16:22:49,0.0
-260,1836,18120,-157,173,-192,2025-02-17 16:22:49,0.0
-224,1840,18196,-159,175,-186,2025-02-17 16:22:49,0.0
-212,1824,18120,-138,165,-155,2025-02-17 16:22:49,0.0
-340,1856,18312,-164,187,-172,2025-02-17 16:22:50,0.0
-208,1824,18112,-179,175,-176,2025-02-17 16:22:50,0.0
-256,1868,18196,-164,173,-178,2025-02-17 16:22:50,0.0
-136,1840,18172,-154,181,-186,2025-02-17 16:22:50,0.0
-200,1760,18148,-154,155,-177,2025-02-17 16:22:50,0.0
-256,1852,18144,-163,163,-185,2025-02-17 16:22:50,0.0
-220,1732,18204,-129,157,-177,2025-02-17 16:22:50,0.0
-296,1872,18220,-157,160,-182,2025-02-17 16:22:50,0.0
-152,1852,18156,-145,161,-166,2025-02-17 16:22:50,0.0
-204,1812,18132,-166,181,-176,2025-02-17 16:22:50,0.0
-304,1736,18280,-165,152,-187,2025-02-17 16:22:50,0.0
-164,1840,18180,-167,152,-193,2025-02-17 16:22:50,0.0
-260,1848,18228,-147,162,-181,2025-02-17 16:22:50,0.0
-172,1832,18156,-155,198,-161,2025-02-17 16:22:50,0.0
-292,1784,18208,-156,160,-192,2025-02-17 16:22:50,0.0
-336,1880,18140,-127,170,-189,2025-02-17 16:22:50,0.0
-268,1832,18264,-191,162,-178,2025-02-17 16:22:50,0.0
-228,1804,18220,-147,128,-199,2025-02-17 16:22:50,0.0
-244,1808,18220,-161,163,-154,2025-02-17 16:22:50,0.0
-148,1816,18152,-118,164,-177,2025-02-17 16:22:50,0.0
-212,1852,18188,-144,162,-184,2025-02-17 16:22:50,0.0
-284,1880,18108,-136,179,-181,2025-02-17 16:22:50,0.0
-168,1820,18164,-150,160,-183,2025-02-17 16:22:50,0.0
-252,1700,18216,-168,174,-165,2025-02-17 16:22:50,0.0
-172,1824,18044,-146,165,-175,2025-02-17 16:22:50,0.0
-124,1816,18216,-164,164,-145,2025-02-17 16:22:50,0.0
-228,1828,18216,-149,179,-175,2025-02-17 16:22:50,0.0
-204,1876,18120,-144,151,-177,2025-02-17 16:22:50,0.0
-220,1852,18252,-159,168,-177,2025-02-17 16:22:50,
-236,1816,18164,-145,150,-172,2025-02-17 16:22:50,0.0
-308,1800,18248,-148,155,-170,2025-02-17 16:22:50,0.0
-212,1788,18104,-161,178,-172,2025-02-17 16:22:50,0.0
-232,1828,18160,-166,197,-174,2025-02-17 16:22:50,0.0
-268,1856,18068,-138,168,-178,2025-02-17 16:22:50,0.0
-220,1772,18208,-125,172,-169,2025-02-17 16:22:50,0.0
-264,1808,18104,-172,167,-188,2025-02-17 16:22:50,0.0
-236,1808,18164,-160,155,-182,2025-02-17 16:22:50,0.0
-188,1848,18116,-177,157,-158,2025-02-17 16:22:50,0.0
-208,1776,18188,-154,194,-172,2025-02-17 16:22:50,0.0
-232,1816,18196,-152,144,-176,2025-02-17 16:22:50,0.0
-216,1880,18136,-148,167,-145,2025-02-17 16:22:50,0.0
-252,1844,17916,-147,181,-184,2025-02-17 16:22:50,0.0
-156,1796,18180,-148,162,-178,2025-02-17 16:22:50,0.0
-308,1832,18044,-153,170,-170,2025-02-17 16:22:50,0.0
-236,1788,18000,-160,173,-178,2025-02-17 16:22:50,0.0
-152,1772,18136,-139,163,-211,2025-02-17 16:22:50,0.0
-252,1804,18124,-178,178,-175,2025-02-17 16:22:50,0.0
-204,1848,18272,-163,172,-164,2025-02-17 16:22:50,0.0
-272,1784,18212,-159,174,-179,2025-02-17 16:22:50,0.0
-160,1840,18112,-182,176,-168,2025-02-17 16:22:50,0.0
-160,1832,18196,-138,155,-197,2025-02-17 16:22:50,0.0
-244,1824,18220,-165,148,-183,2025-02-17 16:22:50,0.0
-176,1736,18264,-164,183,-167,2025-02-17 16:22:50,0.0
-272,1836,18204,-174,172,-183,2025-02-17 16:22:50,0.0
-192,1808,18096,-150,178,-171,2025-02-17 16:22:50,0.0
-204,1812,18148,-179,155,-179,2025-02-17 16:22:50,0.0
-264,1724,18132,-124,179,-211,2025-02-17 16:22:50,0.0
-388,1804,18084,-115,161,-201,2025-02-17 16:22:50,0.0
-332,1720,18140,-141,177,-187,2025-02-17 16:22:50,0.0
-220,1808,18136,-149,157,-178,2025-02-17 16:22:50,0.0
-296,1792,18208,-162,170,-175,2025-02-17 16:22:51,0.0
-272,1812,18204,-171,182,-175,2025-02-17 16:22:51,0.0
-272,1924,18096,-150,167,-188,2025-02-17 16:22:51,0.0
-244,1752,18152,-163,153,-161,2025-02-17 16:22:51,0.0
-208,1852,18220,-169,151,-161,2025-02-17 16:22:51,0.0
-236,1820,18196,-178,152,-178,2025-02-17 16:22:51,0.0
-272,1716,18080,-146,159,-192,2025-02-17 16:22:51,0.0
-368,1800,18264,-152,159,-169,2025-02-17 16:22:51,0.0
-292,1804,18188,-143,140,-165,2025-02-17 16:22:51,0.0
-280,1904,18096,-151,179,-169,2025-02-17 16:22:51,0.0
-216,1788,18112,-161,167,-189,2025-02-17 16:22:51,0.0
-252,1888,18236,-157,172,-163,2025-02-17 16:22:51,0.0
-256,1844,18140,-151,172,-171,2025-02-17 16:22:51,0.0
-312,1888,18184,-142,160,-189,2025-02-17 16:22:51,0.0
-228,1780,18092,-148,174,-185,2025-02-17 16:22:51,0.0
-192,1740,18164,-179,135,-187,2025-02-17 16:22:51,0.0
-264,1808,18268,-133,170,-179,2025-02-17 16:22:51,0.0
-200,1800,18224,-135,179,-142,2025-02-17 16:22:51,0.0
-200,1844,18156,-152,183,-142,2025-02-17 16:22:51,0.0
-228,1836,18364,-145,175,-156,2025-02-17 16:22:51,0.0
-168,1788,18136,-151,188,-170,2025-02-17 16:22:51,0.0
-208,1864,18204,-159,179,-184,2025-02-17 16:22:51,0.0
-228,1792,18148,-138,172,-175,2025-02-17 16:22:51,0.0
-284,1832,18160,-145,176,-197,2025-02-17 16:22:51,0.0
-304,1992,18360,-150,160,-160,2025-02-17 16:22:51,0.0
-256,1864,18348,-151,161,-170,2025-02-17 16:22:51,0.0
-252,1876,18268,-162,191,-160,2025-02-17 16:22:51,0.0
-160,1840,18104,-161,179,-168,2025-02-17 16:22:51,0.0
-284,1812,18164,-139,168,-176,2025-02-17 16:22:51,0.0
-268,1732,18204,-161,151,-152,2025-02-17 16:22:51,0.0
-276,1840,18184,-141,162,-183,2025-02-17 16:22:51,0.0
-236,1824,18000,-164,152,-188,2025-02-17 16:22:51,0.0
-208,1848,18132,-142,192,-193,2025-02-17 16:22:51,0.0
-244,1780,18208,-162,183,-173,2025-02-17 16:22:51,0.0
-244,1816,18260,-143,139,-185,2025-02-17 16:22:51,0.0
-136,1788,18092,-144,176,-177,2025-02-17 16:22:51,0.0
-268,1884,18128,-159,179,-182,2025-02-17 16:22:51,0.0
-228,1824,18196,-139,161,-170,2025-02-17 16:22:51,0.0
-180,1832,18172,-132,171,-180,2025-02-17 16:22:51,0.0
-236,1776,18108,-125,155,-188,2025-02-17 16:22:51,0.0
-252,1924,18216,-158,168,-183,2025-02-17 16:22:51,0.0
-252,1868,18100,-156,153,-162,2025-02-17 16:22:51,0.0
-272,1844,18084,-172,181,-177,2025-02-17 16:22:51,0.0
-220,1816,18048,-158,162,-193,2025-02-17 16:22:51,0.0
-192,1744,18148,-150,159,-179,2025-02-17 16:22:51,0.0
-180,1776,18148,-163,149,-167,2025-02-17 16:22:51,0.0
-264,1748,18204,-161,174,-168,2025-02-17 16:22:51,0.0
-160,1884,18064,-162,155,-186,2025-02-17 16:22:51,0.0
-228,1844,18184,-147,173,-171,2025-02-17 16:22:51,0.0
-240,1824,18168,-156,152,-190,2025-02-17 16:22:51,0.0
-276,1840,18236,-130,159,-173,2025-02-17 16:22:51,0.0
-284,1824,18184,-155,178,-152,2025-02-17 16:22:51,0.0
-304,1820,18112,-152,183,-175,2025-02-17 16:22:51,0.0
-184,1960,18088,-145,187,-179,2025-02-17 16:22:51,0.0
-236,1772,18116,-134,157,-176,2025-02-17 16:22:51,0.0
-284,1856,18212,-155,159,-178,2025-02-17 16:22:51,0.0
-288,1848,18076,-155,174,-172,2025-02-17 16:22:51,0.0
-216,1816,18184,-143,185,-167,2025-02-17 16:22:51,0.0
-220,1840,18164,-140,187,-161,2025-02-17 16:22:51,0.0
-316,1864,18100,-152,164,-181,2025-02-17 16:22:51,0.0
-192,1852,18128,-107,185,-159,2025-02-17 16:22:52,0.0
-192,1832,18296,-145,168,-178,2025-02-17 16:22:52,0.0
-192,1836,18028,-158,176,-184,2025-02-17 16:22:52,0.0
-288,1856,18144,-134,186,-167,2025-02-17 16:22:52,0.0
-264,1812,18128,-151,146,-181,2025-02-17 16:22:52,0.0
-276,1832,18176,-161,177,-150,2025-02-17 16:22:52,0.0
-180,1876,18304,-175,186,-152,2025-02-17 16:22:52,0.0
-264,1836,18212,-165,155,-167,2025-02-17 16:22:52,0.0
-220,1808,18088,-122,176,-186,2025-02-17 16:22:52,
-324,1804,18136,-162,166,-173,2025-02-17 16:22:52,0.0
-168,1900,18072,-148,167,-183,2025-02-17 16:22:52,0.0
-280,1852,18348,-141,166,-162,2025-02-17 16:22:52,0.0
-276,1896,18076,-161,173,-177,2025-02-17 16:22:52,0.0
-324,1812,18144,-163,195,-186,2025-02-17 16:22:52,0.0
-316,1832,18148,-154,189,-183,2025-02-17 16:22:52,0.0
-300,1772,18132,-131,174,-175,2025-02-17 16:22:52,0.0
-252,1816,18200,-168,157,-180,2025-02-17 16:22:52,0.0
-284,1808,18164,-173,175,-180,2025-02-17 16:22:52,0.0
-300,1760,18104,-156,168,-168,2025-02-17 16:22:52,0.0
-236,1852,18200,-158,169,-161,2025-02-17 16:22:52,0.0
-220,1792,18144,-136,162,-180,2025-02-17 16:22:52,0.0
-232,1812,18212,-152,151,-170,2025-02-17 16:22:52,0.0
-300,1788,18184,-163,175,-192,2025-02-17 16:22:52,0.0
-192,1848,18148,-150,191,-194,2025-02-17 16:22:52,0.0
-280,1800,18152,-160,152,-182,2025-02-17 16:22:52,0.0
-236,1824,18184,-147,154,-176,2025-02-17 16:22:52,0.0
-164,1900,18140,-151,173,-162,2025-02-17 16:22:52,0.0
-204,1780,18272,-150,170,-175,2025-02-17 16:22:52,0.0
-260,1804,18376,-138,162,-179,2025-02-17 16:22:52,0.0
-256,1736,18196,-165,162,-168,2025-02-17 16:22:52,0.0
-184,1824,18116,-137,176,-173,2025-02-17 16:22:52,0.0
-164,1824,18204,-167,157,-167,2025-02-17 16:22:52,0.0
-316,1748,18120,-167,163,-178,2025-02-17 16:22:52,0.0
-264,1760,18176,-163,172,-155,2025-02-17 16:22:52,0.0
-284,1848,18260,-154,155,-168,2025-02-17 16:22:52,0.0
-264,1884,18020,-139,172,-166,2025-02-17 16:22:52,0.0
-292,1756,18116,-135,164,-179,2025-02-17 16:22:52,0.0
-280,1884,18168,-180,183,-198,2025-02-17 16:22:52,0.0
-200,1908,18064,-173,183,-176,2025-02-17 16:22:52,0.0
-184,1832,18184,-183,173,-181,2025-02-17 16:22:52,0.0
-220,1788,18096,-150,174,-162,2025-02-17 16:22:52,0.0
-228,1800,18152,-162,179,-177,2025-02-17 16:22:52,0.0
-264,1868,18108,-161,168,-184,2025-02-17 16:22:52,0.0
-168,1784,18244,-166,180,-184,2025-02-17 16:22:52,0.0
-260,1840,18204,-173,169,-154,2025-02-17 16:22:52,0.0
-240,1792,18252,-143,186,-179,2025-02-17 16:22:52,0.0
-220,1808,18096,-120,165,-174,2025-02-17 16:22:52,0.0
-240,1740,18276,-202,175,-176,2025-02-17 16:22:52,0.0
-280,1796,18180,-155,156,-159,2025-02-17 16:22:52,0.0
-164,1796,18104,-140,172,-163,2025-02-17 16:22:52,0.0
-284,1748,18160,-151,190,-187,2025-02-17 16:22:52,0.0
-244,1788,18164,-152,168,-174,2025-02-17 16:22:52,0.0
-236,1840,18064,-160,187,-177,2025-02-17 16:22:52,0.0
-192,1844,18316,-164,149,-177,2025-02-17 16:22:52,0.0
-296,1796,18036,-163,175,-159,2025-02-17 16:22:52,0.0
-200,1832,18248,-160,149,-195,2025-02-17 16:22:52,0.0
-284,1836,18196,-131,193,-144,2025-02-17 16:22:52,0.0
-316,1776,18220,-162,161,-154,2025-02-17 16:22:52,0.0
-256,1884,18056,-146,171,-178,2025-02-17 16:22:52,0.0
-228,1816,18148,-179,151,-197,2025-02-17 16:22:52,0.0
-200,1780,18196,-147,152,-160,2025-02-17 16:22:52,0.0
-308,1868,18216,-168,193,-163,2025-02-17 16:22:53,0.0
-240,1772,18188,-161,175,-184,2025-02-17 16:22:53,0.0
-260,1916,18076,-139,156,-172,2025-02-17 16:22:53,0.0
-204,1744,18156,-179,146,-200,2025-02-17 16:22:53,0.0
-196,1776,18184,-161,172,-175,2025-02-17 16:22:53,0.0
-228,1784,18216,-152,184,-194,2025-02-17 16:22:53,0.0
-144,1836,18152,-172,186,-186,2025-02-17 16:22:53,0.0
-236,1780,18152,-145,148,-176,2025-02-17 16:22:53,0.0
-228,1888,18112,-159,184,-187,2025-02-17 16:22:53,0.0
-256,1836,18108,-143,167,-170,2025-02-17 16:22:53,0.0
-232,1792,18092,-170,175,-193,2025-02-17 16:22:53,0.0
-192,1780,18284,-171,168,-191,2025-02-17 16:22:53,0.0
-164,1780,18228,-170,165,-161,2025-02-17 16:22:53,0.0
-236,1828,18100,-136,170,-193,2025-02-17 16:22:53,0.0
-200,1916,18180,-152,161,-190,2025-02-17 16:22:53,0.0
-296,1800,18156,-144,160,-184,2025-02-17 16:22:53,0.0
-308,1880,18224,-144,169,-156,2025-02-17 16:22:53,0.0
-308,1760,18080,-160,194,-193,2025-02-17 16:22:53,0.0
-260,1840,18236,-180,169,-171,2025-02-17 16:22:53,0.0
-304,1884,18156,-162,204,-192,2025-02-17 16:22:53,0.0
-168,1852,18244,-157,148,-182,2025-02-17 16:22:53,0.0
-208,1856,18112,-157,168,-169,2025-02-17 16:22:53,0.0
-184,1868,18172,-177,176,-160,2025-02-17 16:22:53,0.0
-252,1812,18152,-164,160,-187,2025-02-17 16:22:53,0.0
-204,1808,18204,-152,159,-187,2025-02-17 16:22:53,0.0
-208,1944,18244,-148,180,-168,2025-02-17 16:22:53,0.0
-152,1844,18324,-154,188,-172,2025-02-17 16:22:53,0.0
-288,1840,18172,-148,150,-178,2025-02-17 16:22:53,0.0
-244,1856,18132,-170,173,-162,2025-02-17 16:22:53,0.0
-244,1780,18164,-163,170,-163,2025-02-17 16:22:53,0.0
-268,1816,18204,-148,182,-183,2025-02-17 16:22:53,0.0
-264,1808,18168,-136,187,-182,2025-02-17 16:22:53,0.0
-220,1900,18184,-155,168,-193,2025-02-17 16:22:53,0.0
-288,1812,18108,-165,173,-154,2025-02-17 16:22:53,0.0
-220,1740,18180,-156,178,-183,2025-02-17 16:22:53,0.0
-204,1760,18164,-144,177,-176,2025-02-17 16:22:53,0.0
-240,1824,18200,-165,173,-174,2025-02-17 16:22:53,0.0
-312,1876,18316,-170,149,-181,2025-02-17 16:22:53,0.0
-208,1876,18132,-156,167,-167,2025-02-17 16:22:53,0.0
-280,1772,18228,-145,164,-200,2025-02-17 16:22:53,0.0
-288,1880,18140,-146,194,-168,2025-02-17 16:22:53,0.0
-280,1844,18132,-144,163,-173,2025-02-17 16:22:53,0.0
-248,1808,18304,-146,170,-156,2025-02-17 16:22:53,0.0
-312,1780,18164,-177,182,-193,2025-02-17 16:22:53,0.0
-360,1884,18240,-149,165,-194,2025-02-17 16:22:53,0.0
-272,1800,18160,-154,166,-176,2025-02-17 16:22:53,0.0
-292,1884,18180,-150,177,-189,2025-02-17 16:22:53,0.0
-276,1800,18268,-148,168,-164,2025-02-17 16:22:53,
