acceleration_x,acceleration_y,acceleration_z,gyroscope_x,gyroscope_y,gyroscope_z,timestamp,label
-12652,1264,-3832,39,477,-103,2025-02-06 16:36:52,0.0
-12776,1460,-3956,5,721,-99,2025-02-06 16:36:52,0.0
-12808,1620,-4080,-33,862,-115,2025-02-06 16:36:52,0.0
-12948,1500,-4128,-55,698,-104,2025-02-06 16:36:52,0.0
-12980,1428,-3876,-101,328,-109,2025-02-06 16:36:52,0.0
-12808,1448,-3900,-92,-19,-157,2025-02-06 16:36:52,0.0
-12848,1364,-3972,-82,-249,-122,2025-02-06 16:36:52,0.0
-12828,1380,-3976,-86,-337,-98,2025-02-06 16:36:52,0.0
-12600,1336,-3968,-25,-231,-203,2025-02-06 16:36:52,0.0
-12744,1252,-3668,42,-30,-315,2025-02-06 16:36:52,0.0
-12688,1172,-3584,40,147,-419,2025-02-06 16:36:52,0.0
-12828,924,-3428,36,304,-414,2025-02-06 16:36:52,0.0
-13072,872,-3400,141,593,-283,2025-02-06 16:36:52,0.0
-12920,868,-3628,187,834,-183,2025-02-06 16:36:52,0.0
-12864,1076,-3692,216,845,-161,2025-02-06 16:36:52,0.0
-12872,1064,-3760,313,815,-289,2025-02-06 16:36:52,0.0
-12964,1048,-3616,355,686,-330,2025-02-06 16:36:52,0.0
-13000,840,-3776,405,526,-327,2025-02-06 16:36:52,0.0
-12924,836,-3744,399,468,-307,2025-02-06 16:36:52,0.0
-12864,956,-3772,400,389,-236,2025-02-06 16:36:52,0.0
-12860,844,-3832,401,504,-207,2025-02-06 16:36:52,0.0
-12852,1084,-3748,418,724,-193,2025-02-06 16:36:52,0.0
-12912,972,-3824,430,835,-242,2025-02-06 16:36:52,0.0
-12996,912,-3820,388,704,-234,2025-02-06 16:36:52,0.0
-12932,740,-4008,345,346,-194,2025-02-06 16:36:52,0.0
-13008,820,-4164,336,125,-218,2025-02-06 16:36:52,0.0
-12972,856,-4044,343,-12,-187,2025-02-06 16:36:52,0.0
-13036,792,-4020,275,-154,-127,2025-02-06 16:36:53,0.0
-12872,732,-3868,267,-244,-68,2025-02-06 16:36:53,0.0
-12816,772,-3952,293,-211,-117,2025-02-06 16:36:53,0.0
-12660,876,-3904,327,-192,-120,2025-02-06 16:36:53,0.0
-12848,808,-3872,362,-155,-137,2025-02-06 16:36:53,0.0
-12924,856,-3840,346,-149,-96,2025-02-06 16:36:53,0.0
-12904,884,-3872,328,-130,-126,2025-02-06 16:36:53,0.0
-12804,788,-3908,321,-91,-180,2025-02-06 16:36:53,0.0
-12920,808,-4072,284,42,-202,2025-02-06 16:36:53,0.0
-12908,872,-4044,314,18,-80,2025-02-06 16:36:53,0.0
-12896,740,-3872,389,-124,-33,2025-02-06 16:36:53,0.0
-12904,656,-3952,360,-185,27,2025-02-06 16:36:53,0.0
-12920,804,-3800,319,-3,-19,2025-02-06 16:36:53,0.0
-12984,1016,-3984,355,151,114,2025-02-06 16:36:53,0.0
-12932,1160,-4044,220,57,203,2025-02-06 16:36:53,0.0
-12848,1108,-3920,51,-67,135,2025-02-06 16:36:53,0.0
-12844,1092,-3992,30,94,118,2025-02-06 16:36:53,0.0
-12788,1168,-4072,-68,53,248,2025-02-06 16:36:53,0.0
-12764,1088,-3852,-182,169,136,2025-02-06 16:36:53,0.0
-12808,1064,-3824,-258,330,-11,2025-02-06 16:36:53,0.0
-12904,1256,-3656,-188,315,-92,2025-02-06 16:36:53,0.0
-12784,1104,-3684,-156,109,-175,2025-02-06 16:36:53,0.0
-12776,1264,-3712,-125,7,-201,2025-02-06 16:36:53,0.0
-12564,1108,-3680,-69,4,-314,2025-02-06 16:36:53,0.0
-12612,760,-3636,7,95,-462,2025-02-06 16:36:53,0.0
-12676,776,-3752,133,510,-420,2025-02-06 16:36:53,0.0
-12800,704,-3860,185,751,-338,2025-02-06 16:36:53,0.0
-12792,828,-3984,158,957,-291,2025-02-06 16:36:53,0.0
-12820,904,-3808,158,976,-264,2025-02-06 16:36:53,0.0
-12976,908,-3984,167,888,-254,2025-02-06 16:36:53,0.0
-13104,772,-3928,239,671,-179,2025-02-06 16:36:53,0.0
-13332,668,-3768,382,405,-88,2025-02-06 16:36:53,0.0
-13400,472,-3816,571,89,125,2025-02-06 16:36:53,0.0
-13332,720,-3596,620,-253,348,2025-02-06 16:36:53,0.0
-13160,924,-3568,836,-372,419,2025-02-06 16:36:53,0.0
-13128,1312,-3744,696,-394,648,2025-02-06 16:36:53,0.0
-12824,1428,-3756,506,56,733,2025-02-06 16:36:53,0.0
-12660,1588,-3976,356,456,681,2025-02-06 16:36:53,0.0
-12564,1648,-4148,118,442,635,2025-02-06 16:36:53,0.0
-12816,1508,-4288,-73,122,568,2025-02-06 16:36:53,0.0
-12956,1772,-4204,-476,-147,486,2025-02-06 16:36:53,0.0
-12988,2328,-4076,-789,-572,516,2025-02-06 16:36:53,0.0
-12644,2404,-4196,-1049,-1091,340,2025-02-06 16:36:53,0.0
-12488,2384,-3720,-1324,-1638,82,2025-02-06 16:36:53,0.0
-12588,1876,-3048,-1465,-1925,-234,2025-02-06 16:36:53,0.0
-12544,1564,-2656,-1367,-1788,-509,2025-02-06 16:36:53,0.0
-12372,1248,-2656,-1376,-1328,-547,2025-02-06 16:36:53,0.0
-11976,1080,-2728,-1423,-505,-626,2025-02-06 16:36:53,0.0
-12052,728,-3060,-1385,367,-522,2025-02-06 16:36:53,0.0
-11952,388,-2984,-1333,1397,-254,2025-02-06 16:36:53,0.0
-12320,372,-3140,-1196,2363,-379,2025-02-06 16:36:53,0.0
-12968,796,-3536,-1100,3756,-290,2025-02-06 16:36:53,0.0
-13224,992,-4224,-987,5139,-272,2025-02-06 16:36:53,0.0
-12956,1108,-4532,-852,5979,-1009,2025-02-06 16:36:53,0.0
-13476,1472,-4356,-352,5645,-2021,2025-02-06 16:36:53,0.0
-13616,1056,-4712,140,3079,-3404,2025-02-06 16:36:53,0.0
-13780,312,-5052,281,165,-3923,2025-02-06 16:36:53,0.0
-13476,-364,-4992,69,-2540,-4205,2025-02-06 16:36:53,0.0
-13488,-1048,-4240,-618,-4566,-4120,2025-02-06 16:36:53,0.0
-13348,-1188,-3020,-1241,-5268,-3648,2025-02-06 16:36:53,0.0
-13020,-1088,-2160,-1616,-4749,-3061,2025-02-06 16:36:53,0.0
-12696,-520,-1900,-1938,-2915,-2633,2025-02-06 16:36:54,0.0
-12232,-676,-1276,-2304,72,-2606,2025-02-06 16:36:54,0.0
-12060,-1124,-952,-2033,4250,-3139,2025-02-06 16:36:54,0.0
-12148,-1668,-1664,-1398,6493,-3406,2025-02-06 16:36:54,0.0
-12740,-1980,-2140,-953,7208,-3384,2025-02-06 16:36:54,0.0
-13428,-2284,-2264,-621,6603,-3068,2025-02-06 16:36:54,0.0
-13988,-2296,-2456,-451,5316,-2576,2025-02-06 16:36:54,0.0
-14000,-2036,-2520,-400,3261,-1977,2025-02-06 16:36:54,0.0
-13596,-1584,-2440,-487,646,-1435,2025-02-06 16:36:54,0.0
-13196,-1064,-2028,-556,-1006,-1058,2025-02-06 16:36:54,0.0
-13100,-324,-1668,-754,-1362,-811,2025-02-06 16:36:54,0.0
-13012,436,-1408,-1165,-1282,-533,2025-02-06 16:36:54,
-12964,992,-1268,-1878,-906,-298,2025-02-06 16:36:54,0.0
-12716,1052,-1288,-2770,-329,-213,2025-02-06 16:36:54,0.0
-12380,352,-1508,-3041,88,-325,2025-02-06 16:36:54,0.0
-12728,-272,-1928,-3110,971,-715,2025-02-06 16:36:54,0.0
-13244,-168,-2144,-3229,1713,-780,2025-02-06 16:36:54,0.0
-13296,-40,-2284,-3237,1888,-569,2025-02-06 16:36:54,0.0
-12884,-1152,-2528,-2988,1860,-1133,2025-02-06 16:36:54,0.0
-13740,-1868,-2440,-2756,2701,-2372,2025-02-06 16:36:54,0.0
-15596,-912,-1548,-2781,2745,-3140,2025-02-06 16:36:54,0.0
-17144,496,-1660,-3562,2285,-3545,2025-02-06 16:36:54,0.0
-16148,1000,-3020,-4801,1566,-4370,2025-02-06 16:36:54,0.0
-14332,232,-4328,-5375,-491,-5271,2025-02-06 16:36:54,0.0
-12396,-2036,-5220,-5066,-2388,-6800,2025-02-06 16:36:54,0.0
-11540,-4008,-5308,-3669,-3522,-8357,2025-02-06 16:36:54,0.0
-11812,-4924,-5264,-2612,-5818,-8958,2025-02-06 16:36:54,0.0
-13048,-5404,-5096,-1907,-6270,-8739,2025-02-06 16:36:54,0.0
-17492,-5240,-6100,-2344,-3233,-6257,2025-02-06 16:36:54,0.0
-20336,-5304,-7396,-4380,1634,-764,2025-02-06 16:36:54,0.0
-17464,-3888,-7188,-5853,4779,3913,2025-02-06 16:36:54,0.0
-15536,-1192,-7468,-5698,7526,5376,2025-02-06 16:36:54,0.0
-13284,932,-7468,-5327,8025,4442,2025-02-06 16:36:54,0.0
-12148,1608,-6804,-4827,3910,2811,2025-02-06 16:36:54,0.0
-12480,1328,-8112,-4216,-2407,2049,2025-02-06 16:36:54,0.0
-12448,788,-7860,-3953,-6218,2372,2025-02-06 16:36:54,0.0
-11684,144,-5448,-3372,-9486,3203,2025-02-06 16:36:54,0.0
-11640,-524,-3568,-2729,-10533,3606,2025-02-06 16:36:54,0.0
-11968,-260,-2592,-2256,-8552,4001,2025-02-06 16:36:54,0.0
-12012,732,-2020,-1673,-3889,4661,2025-02-06 16:36:54,0.0
-10896,1304,-3188,-1104,1295,5141,2025-02-06 16:36:54,0.0
-9804,1660,-5068,-1119,4533,4920,2025-02-06 16:36:54,0.0
-9460,1700,-5712,-1756,5549,4326,2025-02-06 16:36:54,0.0
-9512,2224,-5404,-2449,4592,3773,2025-02-06 16:36:54,0.0
-9732,2792,-4800,-3078,2726,3536,2025-02-06 16:36:54,0.0
-9964,3188,-3604,-3680,399,3276,2025-02-06 16:36:54,0.0
-10088,3288,-3032,-3710,137,2870,2025-02-06 16:36:54,0.0
-10248,2920,-2764,-3192,1380,2232,2025-02-06 16:36:54,0.0
-10700,2304,-2640,-2547,3149,1334,2025-02-06 16:36:54,0.0
-11964,1948,-3076,-2227,4584,990,2025-02-06 16:36:54,0.0
-12916,1796,-3324,-2143,5204,1225,2025-02-06 16:36:54,0.0
-13104,1620,-3440,-2134,5052,1474,2025-02-06 16:36:54,0.0
-13052,1660,-3276,-2007,3837,1507,2025-02-06 16:36:54,0.0
-12296,1960,-2860,-1676,1172,942,2025-02-06 16:36:54,0.0
-11576,2196,-2452,-1178,-1795,-183,2025-02-06 16:36:54,0.0
-11300,1984,-1512,-343,-3480,-1180,2025-02-06 16:36:54,0.0
-11748,1540,-684,378,-3912,-1602,2025-02-06 16:36:54,0.0
-11856,964,132,1242,-3511,-1636,2025-02-06 16:36:54,0.0
-12096,764,-28,2311,-2114,-1535,2025-02-06 16:36:54,0.0
-12040,1392,-1552,2914,-22,-1266,2025-02-06 16:36:54,0.0
-11044,1936,-3620,2739,1622,-1206,2025-02-06 16:36:55,0.0
-10708,2576,-4976,2144,2045,-1985,2025-02-06 16:36:55,0.0
-15568,4692,-4432,1548,4141,-911,2025-02-06 16:36:55,0.0
-20244,4548,-1880,1280,7115,2423,2025-02-06 16:36:55,0.0
-21808,1624,96,1039,7800,4816,2025-02-06 16:36:55,0.0
-20088,-888,-420,1094,5861,4910,2025-02-06 16:36:55,0.0
-16848,836,-2032,1847,1989,3622,2025-02-06 16:36:55,0.0
-14000,4784,-4792,3669,-2774,3332,2025-02-06 16:36:55,0.0
-12948,6220,-7392,3908,-6473,3869,2025-02-06 16:36:55,0.0
-14872,7668,-9460,1103,-5621,5170,2025-02-06 16:36:55,0.0
-17416,9328,-9656,-1814,495,6830,2025-02-06 16:36:55,0.0
-16624,10280,-11772,-4996,10393,9104,2025-02-06 16:36:55,0.0
-9352,7560,-9284,-7068,13695,6063,2025-02-06 16:36:55,0.0
-6632,5628,-6720,-5871,6463,-699,2025-02-06 16:36:55,0.0
-7788,3152,-6472,-3265,-1200,-6402,2025-02-06 16:36:55,0.0
-8568,624,-6836,-684,-7065,-9006,2025-02-06 16:36:55,0.0
-8476,-1256,-7428,860,-11229,-9499,2025-02-06 16:36:55,0.0
-9124,-2328,-7872,1592,-13566,-8672,2025-02-06 16:36:55,0.0
-9268,-2820,-8168,1537,-13951,-6843,2025-02-06 16:36:55,0.0
-10296,-2972,-7712,808,-12971,-4034,2025-02-06 16:36:55,0.0
-12408,-2976,-4800,-245,-8846,841,2025-02-06 16:36:55,0.0
-11968,-1412,-1336,604,-3117,4061,2025-02-06 16:36:55,0.0
-10280,772,-1508,2307,3185,4535,2025-02-06 16:36:55,0.0
-10240,2680,-2628,2766,7965,2550,2025-02-06 16:36:55,0.0
-11204,3968,-4928,2048,10484,-68,2025-02-06 16:36:55,0.0
-11724,4128,-6468,654,10480,-2499,2025-02-06 16:36:55,0.0
-12144,4072,-7380,-162,7428,-4471,2025-02-06 16:36:55,0.0
-13852,3560,-7232,-418,2384,-5165,2025-02-06 16:36:55,0.0
-13068,2636,-7852,-1127,-3697,-5236,2025-02-06 16:36:55,0.0
-13012,1176,-6320,-2563,-6703,-4648,2025-02-06 16:36:55,0.0
-11400,-228,-4840,-3063,-8663,-4937,2025-02-06 16:36:55,0.0
-11004,-1560,-3248,-2860,-9367,-5533,2025-02-06 16:36:55,0.0
-11720,-2688,-1768,-2281,-8546,-5759,2025-02-06 16:36:55,0.0
-12912,-3140,-1360,-1745,-5845,-5139,2025-02-06 16:36:55,0.0
-12804,-3044,-808,-979,-839,-3818,2025-02-06 16:36:55,0.0
-11904,-1880,-1736,-502,2410,-2629,2025-02-06 16:36:55,0.0
-11364,-732,-2528,-238,3909,-1798,2025-02-06 16:36:55,0.0
-11440,140,-2540,128,4036,-1386,2025-02-06 16:36:55,0.0
-11944,440,-2752,351,3543,-1152,2025-02-06 16:36:55,0.0
-12556,204,-2868,180,2851,-1020,2025-02-06 16:36:55,0.0
-12828,-456,-2444,-232,2059,-911,2025-02-06 16:36:55,0.0
-13204,-992,-2164,-576,1072,-829,2025-02-06 16:36:55,0.0
-13480,-1664,-1656,-748,-216,-380,2025-02-06 16:36:55,0.0
-13852,-1500,-1140,-674,-1110,363,2025-02-06 16:36:55,0.0
-12960,-1316,-1352,-516,-1731,809,2025-02-06 16:36:55,0.0
-12996,-864,-1436,-269,-1632,962,2025-02-06 16:36:55,0.0
-12856,-432,-1608,-142,-1357,1392,2025-02-06 16:36:55,0.0
-12940,-252,-1028,-73,-945,2065,2025-02-06 16:36:55,0.0
-12440,-312,-692,209,-177,2341,2025-02-06 16:36:55,0.0
-12388,-448,-920,812,1007,2010,2025-02-06 16:36:55,0.0
-12896,-196,-380,1415,2307,938,2025-02-06 16:36:55,0.0
-14196,436,-448,1951,3665,-471,2025-02-06 16:36:55,
-15440,-360,-916,2727,5188,-2136,2025-02-06 16:36:55,0.0
-15856,-2884,-2772,3851,5652,-3523,2025-02-06 16:36:55,0.0
-15996,-5384,-5324,5239,7895,-4684,2025-02-06 16:36:55,0.0
-17176,-6152,-6624,7125,12307,-6102,2025-02-06 16:36:55,0.0
-19964,-4980,-7332,9211,17501,-6630,2025-02-06 16:36:55,0.0
-21816,-3484,-9000,10328,19845,-4680,2025-02-06 16:36:55,0.0
-18792,-3052,-11432,9484,15609,-1435,2025-02-06 16:36:55,0.0
-16404,-1640,-14040,7079,3330,2181,2025-02-06 16:36:55,0.0
-14052,128,-15040,2702,-9344,6176,2025-02-06 16:36:56,0.0
-11504,1732,-12564,-727,-17704,9089,2025-02-06 16:36:56,0.0
-8016,2572,-9896,-2855,-25320,11056,2025-02-06 16:36:56,0.0
-5552,2592,-8220,-3723,-29048,10630,2025-02-06 16:36:56,0.0
-3580,2516,-5612,-3947,-28922,7604,2025-02-06 16:36:56,0.0
-2916,3016,3924,-1243,-18289,1584,2025-02-06 16:36:56,0.0
-5060,620,3800,2692,1419,-4875,2025-02-06 16:36:56,0.0
-8856,-1472,104,4805,15070,-6996,2025-02-06 16:36:56,0.0
-14356,-2476,-3956,5072,22574,-5059,2025-02-06 16:36:56,0.0
-19008,-3400,-4716,5012,24521,-141,2025-02-06 16:36:56,0.0
-19584,-3820,-5988,4826,18790,4876,2025-02-06 16:36:56,0.0
-17088,-2996,-8820,4211,11147,7779,2025-02-06 16:36:56,0.0
-14100,-1540,-9852,3921,2682,8667,2025-02-06 16:36:56,0.0
-11904,-328,-9708,3754,-5107,8426,2025-02-06 16:36:56,0.0
-11024,780,-7680,4411,-10568,8152,2025-02-06 16:36:56,0.0
-10384,1340,-5408,5463,-15070,8038,2025-02-06 16:36:56,0.0
-10188,1732,-3480,6039,-18095,7950,2025-02-06 16:36:56,0.0
-10036,2228,-1240,6591,-15131,7587,2025-02-06 16:36:56,0.0
-8764,2088,-492,7730,-4413,6017,2025-02-06 16:36:56,0.0
-8620,1800,-1400,8256,4028,4609,2025-02-06 16:36:56,0.0
-9828,1556,-2792,8512,9122,3971,2025-02-06 16:36:56,0.0
-11612,1192,-3472,8626,10849,4364,2025-02-06 16:36:56,0.0
-12596,948,-3784,8715,9226,5055,2025-02-06 16:36:56,0.0
-13068,1084,-4692,8780,6002,5330,2025-02-06 16:36:56,0.0
-12392,1724,-5112,8888,3021,5268,2025-02-06 16:36:56,0.0
-11404,2308,-4300,9261,89,4757,2025-02-06 16:36:56,0.0
-11364,2204,-2812,10210,-2532,3650,2025-02-06 16:36:56,0.0
-11572,1536,-1464,11258,-3153,3220,2025-02-06 16:36:56,0.0
-11672,100,-396,12670,-2571,2947,2025-02-06 16:36:56,0.0
-11940,-220,-1240,14248,-621,3250,2025-02-06 16:36:56,0.0
-11764,960,-3084,15229,708,4149,2025-02-06 16:36:56,0.0
-11192,2500,-4216,15516,1216,5123,2025-02-06 16:36:56,0.0
-10756,3796,-4764,15437,975,5367,2025-02-06 16:36:56,0.0
-11208,5004,-4960,14886,877,5370,2025-02-06 16:36:56,0.0
-12640,5948,-4684,14168,1409,5583,2025-02-06 16:36:56,0.0
-13776,6212,-4628,13012,3419,6074,2025-02-06 16:36:56,0.0
-13272,4472,-6624,11761,7733,5722,2025-02-06 16:36:56,0.0
-14032,2940,-10000,11017,14725,4876,2025-02-06 16:36:56,0.0
-15092,828,-12284,9070,19806,5303,2025-02-06 16:36:56,0.0
-16936,136,-12580,5744,19265,7625,2025-02-06 16:36:56,0.0
-17452,1152,-13956,2976,14448,9997,2025-02-06 16:36:56,0.0
-14312,1648,-11968,2865,8880,9550,2025-02-06 16:36:56,0.0
-11468,520,-9472,5884,-469,5322,2025-02-06 16:36:56,0.0
-12948,-2572,-8176,9775,-9989,-308,2025-02-06 16:36:56,0.0
-12788,-5680,-8412,11697,-15327,-2270,2025-02-06 16:36:56,0.0
-12576,-8060,-8164,13040,-18754,-2666,2025-02-06 16:36:56,0.0
-12276,-8136,-8552,12948,-20816,-1432,2025-02-06 16:36:56,0.0
-11528,-6940,-9148,11594,-22096,1506,2025-02-06 16:36:56,0.0
-10952,-5300,-7776,9875,-20991,5339,2025-02-06 16:36:56,0.0
-9196,-2716,-2984,10333,-13956,7570,2025-02-06 16:36:56,0.0
-6892,-880,-1384,12635,-3054,6804,2025-02-06 16:36:56,0.0
-5800,380,-3300,14270,6876,4419,2025-02-06 16:36:56,0.0
-8012,1624,-5868,14072,13092,2887,2025-02-06 16:36:56,0.0
-10336,1276,-6620,12870,14625,2735,2025-02-06 16:36:56,0.0
-11672,140,-6352,11341,12771,2211,2025-02-06 16:36:56,0.0
-13212,-1308,-5600,10693,9008,1622,2025-02-06 16:36:56,0.0
-13208,-3304,-6232,10691,3271,1192,2025-02-06 16:36:56,0.0
-11888,-4408,-8020,10820,-2018,1041,2025-02-06 16:36:56,0.0
-10884,-4272,-8224,10800,-7957,1651,2025-02-06 16:36:56,0.0
-11232,-3316,-7996,9990,-12167,3202,2025-02-06 16:36:56,0.0
-11124,-1624,-6292,9373,-11822,4801,2025-02-06 16:36:57,0.0
-9960,-904,-4728,9439,-8629,4989,2025-02-06 16:36:57,0.0
-9192,-384,-4052,9491,-4174,3945,2025-02-06 16:36:57,0.0
-8908,-780,-4120,8994,1437,1996,2025-02-06 16:36:57,0.0
-10472,-1612,-5088,8502,5137,723,2025-02-06 16:36:57,0.0
-12168,-2252,-6296,7959,7640,809,2025-02-06 16:36:57,0.0
-14244,-1792,-6680,6981,8762,2353,2025-02-06 16:36:57,0.0
-15448,-752,-6128,5876,7766,4406,2025-02-06 16:36:57,0.0
-15280,504,-5204,4828,4978,5434,2025-02-06 16:36:57,0.0
-13612,204,-4128,4016,-8158,4117,2025-02-06 16:36:57,0.0
-12564,-1124,-3732,4000,-10559,3922,2025-02-06 16:36:57,0.0
-11968,-2388,-2908,3740,-11631,3698,2025-02-06 16:36:57,0.0
-11432,-3212,-1908,3762,-10659,3651,2025-02-06 16:36:57,0.0
-11528,-3332,-588,4230,-6450,3423,2025-02-06 16:36:57,0.0
-11520,-2036,-1028,5060,-693,2949,2025-02-06 16:36:57,0.0
-12164,-776,-3652,5742,5280,2118,2025-02-06 16:36:57,0.0
-12808,-200,-4920,6551,10461,326,2025-02-06 16:36:57,0.0
-12904,-1888,-5460,7268,11054,-3223,2025-02-06 16:36:57,0.0
-14132,-4680,-5636,7604,6603,-5326,2025-02-06 16:36:57,0.0
-17944,-7132,-7352,7763,1369,-3960,2025-02-06 16:36:57,0.0
-18520,-8800,-9804,6762,-1496,1205,2025-02-06 16:36:57,0.0
-15984,-7412,-10868,5135,-3302,6370,2025-02-06 16:36:57,0.0
-12236,-3928,-10132,4773,-4503,9394,2025-02-06 16:36:57,0.0
-10100,-976,-9828,4992,-3745,9689,2025-02-06 16:36:57,0.0
-9240,2396,-8688,5090,-2934,8872,2025-02-06 16:36:57,0.0
-8752,4536,-6972,5195,-2194,7226,2025-02-06 16:36:57,0.0
-8692,5128,-5688,5743,-632,4869,2025-02-06 16:36:57,0.0
-10084,4072,-5164,6232,1543,2806,2025-02-06 16:36:57,0.0
-12732,1724,-4428,6771,3183,2039,2025-02-06 16:36:57,0.0
-16460,-448,-3916,7739,3521,3359,2025-02-06 16:36:57,0.0
-17136,-2260,-5700,8376,4329,5528,2025-02-06 16:36:57,0.0
-15244,-3048,-7128,8343,3399,6845,2025-02-06 16:36:57,
-12740,-2296,-8188,7772,-658,7373,2025-02-06 16:36:57,0.0
-11240,-224,-7688,7653,-5655,7967,2025-02-06 16:36:57,0.0
-9708,1588,-6484,8074,-9036,8522,2025-02-06 16:36:57,0.0
-8680,3348,-5440,8644,-10861,8892,2025-02-06 16:36:57,0.0
-7872,4216,-4076,8818,-8941,8163,2025-02-06 16:36:57,0.0
-7336,3932,-3208,8967,-3041,6111,2025-02-06 16:36:57,0.0
-8272,3168,-2852,8984,3544,4322,2025-02-06 16:36:57,0.0
-10568,2024,-2916,9072,8175,3705,2025-02-06 16:36:57,0.0
-13104,1192,-3404,9024,8856,4102,2025-02-06 16:36:57,0.0
-16020,604,-2876,8904,8109,4722,2025-02-06 16:36:57,0.0
-16684,704,-3456,8370,5781,4893,2025-02-06 16:36:57,0.0
-15300,1416,-4220,7354,367,4089,2025-02-06 16:36:57,0.0
-13692,2156,-5852,6554,-5008,3112,2025-02-06 16:36:57,0.0
-12836,3448,-6244,5177,-9177,2777,2025-02-06 16:36:57,0.0
-11268,4772,-5408,4074,-11717,2542,2025-02-06 16:36:57,0.0
-10424,5304,-4180,3694,-11994,2165,2025-02-06 16:36:57,0.0
-9316,3640,-2460,4213,-10885,1177,2025-02-06 16:36:57,0.0
-9988,1340,-1416,5881,-8421,149,2025-02-06 16:36:57,0.0
-11916,-2052,-3360,7691,-2951,-28,2025-02-06 16:36:57,0.0
-13924,-4488,-8040,7305,4399,1119,2025-02-06 16:36:57,0.0
-13852,-2964,-9404,4698,10199,4345,2025-02-06 16:36:57,0.0
-10964,580,-8712,5697,7178,5207,2025-02-06 16:36:57,0.0
-10868,3880,-8360,7834,2757,3697,2025-02-06 16:36:57,0.0
-11776,4524,-7856,8733,-2665,1434,2025-02-06 16:36:57,0.0
-13164,1936,-6972,8396,-5356,-280,2025-02-06 16:36:57,0.0
-14860,-188,-5304,7641,-6215,-1155,2025-02-06 16:36:57,0.0
-16316,-356,-5480,6561,-4731,-872,2025-02-06 16:36:58,0.0
-14520,1464,-5920,5981,-3349,-638,2025-02-06 16:36:58,0.0
-12340,2896,-6396,5936,-4793,-866,2025-02-06 16:36:58,0.0
-10700,2864,-5084,5671,-9377,-2110,2025-02-06 16:36:58,0.0
-9936,1776,-3700,5115,-13461,-3494,2025-02-06 16:36:58,0.0
-10528,-444,-2152,4589,-13484,-4196,2025-02-06 16:36:58,0.0
-10808,-3184,-760,4334,-9400,-4088,2025-02-06 16:36:58,0.0
-10608,-4916,-384,4804,-4038,-3339,2025-02-06 16:36:58,0.0
-11460,-5620,-1616,5764,2495,-1798,2025-02-06 16:36:58,0.0
-12160,-3700,-1788,6160,6282,82,2025-02-06 16:36:58,0.0
-12956,-1912,-2204,6673,8172,1263,2025-02-06 16:36:58,0.0
-13748,-440,-2536,6753,7859,1702,2025-02-06 16:36:58,0.0
-14260,448,-3408,6435,5710,1561,2025-02-06 16:36:58,0.0
-14608,592,-4596,6025,2954,1222,2025-02-06 16:36:58,0.0
-13592,-168,-5600,5863,327,1236,2025-02-06 16:36:58,0.0
-12920,-1464,-4568,6161,-2462,1079,2025-02-06 16:36:58,0.0
-13004,-1768,-3312,6557,-3826,687,2025-02-06 16:36:58,0.0
-13684,-1340,-2260,6905,-2032,446,2025-02-06 16:36:58,0.0
-13184,-1608,-3368,7678,112,749,2025-02-06 16:36:58,0.0
-13008,-1976,-5396,7622,943,988,2025-02-06 16:36:58,0.0
-12468,-1336,-5736,6600,1340,1487,2025-02-06 16:36:58,0.0
-12076,480,-4424,5788,1348,1256,2025-02-06 16:36:58,0.0
-12672,1800,-4332,4784,1032,1025,2025-02-06 16:36:58,0.0
-12784,1808,-5004,3306,1083,1235,2025-02-06 16:36:58,0.0
-11528,1148,-4564,1777,1092,923,2025-02-06 16:36:58,0.0
-11240,408,-3548,1132,620,271,2025-02-06 16:36:58,0.0
-12040,-380,-2580,859,1054,-314,2025-02-06 16:36:58,0.0
-12660,-1364,-2192,913,2508,-591,2025-02-06 16:36:58,0.0
-13112,-1860,-2372,1416,3413,-622,2025-02-06 16:36:58,0.0
-13992,-1656,-2780,1766,3778,-299,2025-02-06 16:36:58,0.0
-14296,-1220,-3388,1635,3514,201,2025-02-06 16:36:58,0.0
-13388,-1064,-3332,1464,1789,339,2025-02-06 16:36:58,0.0
-12660,-1248,-3260,1506,-249,88,2025-02-06 16:36:58,0.0
-12492,-1896,-2824,1515,-1557,-300,2025-02-06 16:36:58,0.0
-12704,-2716,-2360,1733,48,-251,2025-02-06 16:36:58,0.0
-12964,-2364,-2260,1999,2608,164,2025-02-06 16:36:58,0.0
-12484,-2264,-2496,2195,4041,497,2025-02-06 16:36:58,0.0
-12260,-2528,-2596,2400,4240,254,2025-02-06 16:36:58,0.0
-12364,-2864,-2316,2684,3258,-85,2025-02-06 16:36:58,0.0
-12844,-3400,-1908,3207,1797,-345,2025-02-06 16:36:58,0.0
-13460,-3924,-1420,3921,1436,-343,2025-02-06 16:36:58,0.0
-14020,-3700,-1148,4576,1944,-59,2025-02-06 16:36:58,0.0
-13828,-3340,-1552,5043,2234,-26,2025-02-06 16:36:58,0.0
-13824,-2784,-2096,5170,1962,-201,2025-02-06 16:36:58,0.0
-14100,-1940,-2340,4888,421,50,2025-02-06 16:36:58,0.0
-13848,-1792,-2428,4598,-1192,256,2025-02-06 16:36:58,0.0
-13324,-2828,-3180,4373,-2018,-305,2025-02-06 16:36:58,0.0
-14052,-3584,-5012,4596,-36,-826,2025-02-06 16:36:58,0.0
-14924,-3696,-6352,5270,4243,-890,2025-02-06 16:36:58,0.0
-15880,-3412,-6528,6198,8317,-923,2025-02-06 16:36:58,0.0
-17340,-1436,-6912,6423,9134,-541,2025-02-06 16:36:58,0.0
-18220,1156,-9068,3739,5256,1660,2025-02-06 16:36:58,0.0
-15276,1040,-10228,-574,-263,3807,2025-02-06 16:36:58,0.0
-12852,1220,-9784,-1723,-4319,4161,2025-02-06 16:36:58,0.0
-11876,2044,-10500,-2421,-6595,4749,2025-02-06 16:36:58,0.0
-10216,2484,-9728,-3481,-7549,4794,2025-02-06 16:36:58,0.0
-8704,2436,-7048,-3963,-8261,3530,2025-02-06 16:36:58,0.0
-8332,1872,-4392,-3538,-9010,1484,2025-02-06 16:36:58,0.0
-9572,1180,-1756,-2651,-8880,-244,2025-02-06 16:36:58,0.0
-11376,348,-172,-1606,-6181,-909,2025-02-06 16:36:58,0.0
-14220,-320,224,-80,1034,279,2025-02-06 16:36:59,0.0
-15192,-848,-1568,846,7051,2795,2025-02-06 16:36:59,0.0
-14128,-1288,-3704,816,9991,4667,2025-02-06 16:36:59,0.0
-12904,-412,-5484,240,9509,4892,2025-02-06 16:36:59,0.0
-12352,976,-6092,-195,5043,4363,2025-02-06 16:36:59,0.0
-11920,2320,-6608,-780,-199,3921,2025-02-06 16:36:59,0.0
-11344,3156,-5820,-1427,-4530,3571,2025-02-06 16:36:59,0.0
-10448,3212,-4736,-1833,-6505,3302,2025-02-06 16:36:59,0.0
-9608,2768,-3700,-2091,-6610,2824,2025-02-06 16:36:59,0.0
-9528,2252,-2816,-2092,-4112,2155,2025-02-06 16:36:59,0.0
-10008,1636,-1964,-1382,91,1752,2025-02-06 16:36:59,0.0
-11216,864,-2464,-982,4628,1787,2025-02-06 16:36:59,0.0
-12300,360,-2764,-565,7814,2321,2025-02-06 16:36:59,0.0
-13388,424,-2828,-32,8837,2920,2025-02-06 16:36:59,
-13784,1132,-3164,674,6096,3392,2025-02-06 16:36:59,0.0
-13312,1768,-4432,880,971,3133,2025-02-06 16:36:59,0.0
-12188,2124,-4008,1161,-2635,2278,2025-02-06 16:36:59,0.0
-11756,1912,-2732,1873,-4529,1240,2025-02-06 16:36:59,0.0
-11940,1120,-1508,2841,-4784,776,2025-02-06 16:36:59,0.0
-11740,104,-600,4070,-3756,694,2025-02-06 16:36:59,0.0
-12028,-556,272,5497,-1795,779,2025-02-06 16:36:59,0.0
-12172,-856,196,6997,85,1072,2025-02-06 16:36:59,0.0
-12528,-296,-900,7764,828,1419,2025-02-06 16:36:59,0.0
-13160,1952,-2616,7560,1005,2320,2025-02-06 16:36:59,0.0
-13228,4804,-3580,7039,1256,3590,2025-02-06 16:36:59,0.0
-13664,6460,-3764,6312,1497,4288,2025-02-06 16:36:59,0.0
-14956,7672,-3332,5384,2495,4420,2025-02-06 16:36:59,0.0
-16652,7556,-2760,4602,4721,4299,2025-02-06 16:36:59,0.0
-17236,5212,-2012,4564,5443,3678,2025-02-06 16:36:59,0.0
-16928,2568,-3732,4810,4213,2250,2025-02-06 16:36:59,0.0
-15828,2516,-6836,4757,2581,1339,2025-02-06 16:36:59,0.0
-15468,3216,-9448,4349,1264,1667,2025-02-06 16:36:59,0.0
-16104,3824,-11956,2163,529,3848,2025-02-06 16:36:59,0.0
-16776,5400,-10912,-288,636,5421,2025-02-06 16:36:59,0.0
-14260,5732,-11032,-1827,1816,5735,2025-02-06 16:36:59,0.0
-9660,3360,-8452,-1627,-1943,2433,2025-02-06 16:36:59,0.0
-9200,1896,-7580,640,-6953,-1143,2025-02-06 16:36:59,0.0
-8236,-508,-6856,2451,-11281,-3114,2025-02-06 16:36:59,0.0
-7936,-2828,-5616,4280,-16463,-4560,2025-02-06 16:36:59,0.0
-8120,-4148,-5288,5868,-19453,-5223,2025-02-06 16:36:59,0.0
-9328,-5056,-5696,6508,-18839,-4526,2025-02-06 16:36:59,0.0
-10780,-5588,-4600,5732,-12666,-1934,2025-02-06 16:36:59,0.0
-11708,-4260,-2724,5512,-2849,1171,2025-02-06 16:36:59,0.0
-10572,-1984,-1436,6094,5918,3515,2025-02-06 16:36:59,0.0
-10344,144,-1356,6880,10870,4233,2025-02-06 16:36:59,0.0
-10984,1812,-2316,7437,13461,3497,2025-02-06 16:36:59,0.0
-12188,3192,-3656,7432,14011,1832,2025-02-06 16:36:59,0.0
-12512,3072,-5644,6537,12414,-638,2025-02-06 16:36:59,0.0
-13360,2272,-7220,5610,6994,-3018,2025-02-06 16:36:59,0.0
-12924,744,-7992,4722,453,-4399,2025-02-06 16:36:59,0.0
-12960,-1620,-7524,3662,-7379,-3898,2025-02-06 16:36:59,0.0
-12852,-2164,-5600,2400,-13257,-2014,2025-02-06 16:36:59,0.0
-11960,-1868,-3352,1622,-15586,110,2025-02-06 16:36:59,0.0
-11788,-1736,-300,2013,-12526,1327,2025-02-06 16:36:59,0.0
-10052,-1592,764,2897,-5598,1671,2025-02-06 16:36:59,0.0
-8568,-1476,104,3690,1517,1059,2025-02-06 16:36:59,0.0
-8396,-1316,-1724,3777,6595,166,2025-02-06 16:36:59,0.0
-9648,-1356,-2660,3317,9124,-617,2025-02-06 16:36:59,0.0
-11916,-1004,-2588,2774,9757,-544,2025-02-06 16:36:59,0.0
-14152,-788,-2548,2239,8634,173,2025-02-06 16:37:00,0.0
-15064,124,-3320,1171,5707,1644,2025-02-06 16:37:00,0.0
-14428,1088,-3704,-71,1937,2542,2025-02-06 16:37:00,0.0
-14088,1628,-3028,-963,-1620,2921,2025-02-06 16:37:00,0.0
-13912,1816,-1944,-1609,-4145,3012,2025-02-06 16:37:00,0.0
-13328,1480,-1104,-2140,-5323,2778,2025-02-06 16:37:00,0.0
-13372,908,-872,-2275,-4563,2078,2025-02-06 16:37:00,0.0
-13724,1412,-1268,-2047,-2573,2104,2025-02-06 16:37:00,0.0
-13268,1636,-1280,-1457,-922,2352,2025-02-06 16:37:00,0.0
-12612,-732,180,-614,-172,-1042,2025-02-06 16:37:00,0.0
-14816,-2376,1816,0,177,-5282,2025-02-06 16:37:00,0.0
-18516,-2368,1932,933,-1067,-7087,2025-02-06 16:37:00,0.0
-18488,-3400,-1632,1582,-3163,-4812,2025-02-06 16:37:00,0.0
-16148,-6196,-4872,1562,-4447,-1998,2025-02-06 16:37:00,0.0
-15360,-7592,-5784,2109,-1448,-389,2025-02-06 16:37:00,0.0
-15676,-7532,-5152,4328,7186,-1349,2025-02-06 16:37:00,0.0
-16388,-5916,-4280,8127,15634,-4751,2025-02-06 16:37:00,0.0
-19220,-5944,-7472,11324,18718,-5703,2025-02-06 16:37:00,0.0
-18464,-5800,-11116,11808,15423,-2200,2025-02-06 16:37:00,0.0
-16156,-4016,-13056,10190,5422,3515,2025-02-06 16:37:00,0.0
-13904,-1036,-14592,6571,-6730,9290,2025-02-06 16:37:00,0.0
-9808,1976,-13320,1883,-17965,13290,2025-02-06 16:37:00,0.0
-7100,3312,-11796,-1427,-25677,14464,2025-02-06 16:37:00,0.0
-4556,3792,-8928,-2725,-28944,13010,2025-02-06 16:37:00,0.0
-2520,4680,1204,848,-23046,6242,2025-02-06 16:37:00,0.0
-3380,1936,3588,5329,-2867,-1770,2025-02-06 16:37:00,0.0
-6488,-596,772,7422,12130,-5678,2025-02-06 16:37:00,0.0
-11644,-1812,-3168,8172,19888,-5452,2025-02-06 16:37:00,0.0
-15452,-2712,-5796,8221,23605,-2669,2025-02-06 16:37:00,0.0
-18196,-3196,-6208,7655,23415,863,2025-02-06 16:37:00,0.0
-18456,-2232,-6940,7454,16610,4956,2025-02-06 16:37:00,0.0
-16364,-964,-9136,7426,9053,7956,2025-02-06 16:37:00,0.0
-13376,1108,-10684,6858,-399,8886,2025-02-06 16:37:00,0.0
-11040,2284,-9272,6033,-7615,8069,2025-02-06 16:37:00,0.0
-10332,2160,-6408,6464,-13244,7099,2025-02-06 16:37:00,0.0
-10168,1916,-4528,7099,-16469,6359,2025-02-06 16:37:00,0.0
-10204,1736,-3104,7582,-16825,5841,2025-02-06 16:37:00,0.0
-10256,1576,-1116,8280,-11129,4971,2025-02-06 16:37:00,0.0
-9292,1024,-784,9171,-2166,3791,2025-02-06 16:37:00,0.0
-9336,820,-1680,9556,4492,2916,2025-02-06 16:37:00,0.0
-10388,1156,-2808,9710,6962,3011,2025-02-06 16:37:00,0.0
-11744,1600,-2868,9796,6975,3230,2025-02-06 16:37:00,0.0
-12156,1768,-3204,9804,5027,2893,2025-02-06 16:37:00,0.0
-12372,1868,-3532,9783,2304,2239,2025-02-06 16:37:00,0.0
-12396,1464,-3540,9791,172,1598,2025-02-06 16:37:00,0.0
-12136,912,-3076,9776,-1496,1164,2025-02-06 16:37:00,0.0
-12476,944,-2964,9487,-2161,962,2025-02-06 16:37:00,0.0
-13100,1620,-2912,9383,-1136,1386,2025-02-06 16:37:00,0.0
-13064,1940,-3148,9402,1048,2261,2025-02-06 16:37:00,0.0
-12280,820,-2880,9684,2436,2214,2025-02-06 16:37:00,0.0
-12120,-744,-4160,9727,2927,1172,2025-02-06 16:37:00,0.0
-14176,-32,-5096,9648,3925,1248,2025-02-06 16:37:00,0.0
-16084,868,-3516,10379,4330,2775,2025-02-06 16:37:00,0.0
-17832,40,-748,11366,3213,4396,2025-02-06 16:37:00,0.0
-19992,-1924,820,12348,178,5634,2025-02-06 16:37:00,
-17500,-3640,-944,13912,-1825,6088,2025-02-06 16:37:00,0.0
-13216,-1752,-4104,14801,-4283,5085,2025-02-06 16:37:00,0.0
-11824,984,-6460,15480,-7109,5002,2025-02-06 16:37:00,0.0
-11256,2408,-7532,15088,-7199,4982,2025-02-06 16:37:00,0.0
-12136,2624,-8008,13953,-2899,4443,2025-02-06 16:37:00,0.0
-16756,4084,-8568,11322,7207,5592,2025-02-06 16:37:00,0.0
-18808,6156,-10936,9422,15176,8772,2025-02-06 16:37:01,0.0
-15460,4632,-13404,6765,20455,11159,2025-02-06 16:37:01,0.0
-9088,832,-11548,5229,12745,8988,2025-02-06 16:37:01,0.0
-6072,-624,-10224,7395,-432,4579,2025-02-06 16:37:01,0.0
-5888,-2692,-9600,11221,-11254,491,2025-02-06 16:37:01,0.0
-7872,-3888,-8856,13206,-18520,-1399,2025-02-06 16:37:01,0.0
-9732,-3692,-7644,13628,-23842,-915,2025-02-06 16:37:01,0.0
-11504,-4204,-7060,12688,-24736,924,2025-02-06 16:37:01,0.0
-12940,-4300,-2976,11249,-15269,3149,2025-02-06 16:37:01,0.0
-10804,-2132,-604,12606,-283,3913,2025-02-06 16:37:01,0.0
-7264,-1584,-3088,13486,8122,2170,2025-02-06 16:37:01,0.0
-8808,-1036,-4864,13069,11315,33,2025-02-06 16:37:01,0.0
-12068,-328,-5552,12475,11466,-713,2025-02-06 16:37:01,0.0
-15432,-396,-4628,12008,9149,284,2025-02-06 16:37:01,0.0
-16760,-1204,-5256,11254,6067,1570,2025-02-06 16:37:01,0.0
-15508,-1616,-6072,10533,2137,2099,2025-02-06 16:37:01,0.0
-13628,-1668,-6568,10359,-3029,2303,2025-02-06 16:37:01,0.0
-11796,-2016,-6972,10215,-8125,2503,2025-02-06 16:37:01,0.0
-10740,-2256,-5828,9495,-12210,2688,2025-02-06 16:37:01,0.0
-10696,-2676,-3436,9272,-12946,2954,2025-02-06 16:37:01,0.0
-10564,-3128,-1528,9764,-8210,3365,2025-02-06 16:37:01,0.0
-9936,-3504,-700,10489,-1877,3488,2025-02-06 16:37:01,0.0
-8872,-3584,-1924,11311,4210,3195,2025-02-06 16:37:01,0.0
-10140,-3492,-3516,11746,7471,2978,2025-02-06 16:37:01,0.0
-11396,-3556,-4952,11710,8751,3201,2025-02-06 16:37:01,0.0
-13712,-3124,-4360,11442,8175,3847,2025-02-06 16:37:01,0.0
-14872,-2412,-4248,10940,6247,4778,2025-02-06 16:37:01,0.0
-15032,-1696,-4564,10699,3449,5632,2025-02-06 16:37:01,0.0
-14524,-1076,-5868,10010,76,6443,2025-02-06 16:37:01,0.0
-13736,-740,-6148,8948,-3179,6881,2025-02-06 16:37:01,0.0
-13236,-156,-4708,7772,-5899,6738,2025-02-06 16:37:01,0.0
-12640,504,-2932,6998,-8198,6726,2025-02-06 16:37:01,0.0
-12488,296,-1832,6644,-7958,6808,2025-02-06 16:37:01,0.0
-11424,-676,-1448,6554,-5000,6727,2025-02-06 16:37:01,0.0
-10452,-2012,-1124,6768,-1617,5975,2025-02-06 16:37:01,0.0
-10532,-3060,-672,7448,887,4705,2025-02-06 16:37:01,0.0
-12272,-3556,-828,8435,2710,3530,2025-02-06 16:37:01,0.0
-14736,-3236,-1552,8874,3438,3329,2025-02-06 16:37:01,0.0
-15484,-3380,-2192,8848,3319,3578,2025-02-06 16:37:01,0.0
-14736,-4084,-4720,9484,4860,2658,2025-02-06 16:37:01,0.0
-14608,-4384,-7012,10402,7402,1586,2025-02-06 16:37:01,0.0
-16828,-4764,-6840,11782,10170,1135,2025-02-06 16:37:01,0.0
-17224,-6080,-6584,13796,11439,473,2025-02-06 16:37:01,0.0
-17680,-7328,-7992,15093,8343,1231,2025-02-06 16:37:01,0.0
-16848,-6820,-11052,14909,1870,4864,2025-02-06 16:37:01,0.0
-14196,-5440,-12368,13617,-5193,9595,2025-02-06 16:37:01,0.0
-11444,-3160,-11952,12267,-11569,13065,2025-02-06 16:37:01,0.0
-9256,-328,-11288,10740,-17471,15362,2025-02-06 16:37:01,0.0
-7368,2384,-11064,8692,-21389,16496,2025-02-06 16:37:01,0.0
-5192,3932,-8504,7656,-19604,15037,2025-02-06 16:37:01,0.0
-3336,4912,-2476,10179,-12627,9911,2025-02-06 16:37:01,0.0
-3884,3348,244,14432,296,2048,2025-02-06 16:37:01,0.0
-10000,880,-3076,15745,12083,-2183,2025-02-06 16:37:01,0.0
-14092,-1236,-5628,15426,18940,-1398,2025-02-06 16:37:01,0.0
-17720,-2872,-4964,14967,20834,1723,2025-02-06 16:37:01,0.0
-19892,-3452,-6512,15458,13662,7444,2025-02-06 16:37:01,0.0
-17504,-3868,-9664,15208,7636,11407,2025-02-06 16:37:01,0.0
-13784,-2288,-11440,14674,-25,13132,2025-02-06 16:37:01,0.0
-10420,-324,-11936,13949,-8104,13345,2025-02-06 16:37:01,0.0
-8320,656,-10036,14266,-13535,12521,2025-02-06 16:37:01,0.0
-7676,716,-7468,14746,-18472,11144,2025-02-06 16:37:02,0.0
-9228,1200,-4584,14765,-18186,9594,2025-02-06 16:37:02,0.0
-10588,1812,-2252,15770,-12011,8735,2025-02-06 16:37:02,0.0
-11144,1772,-2180,16901,-2321,7978,2025-02-06 16:37:02,0.0
-12248,1800,-3992,16875,5901,8212,2025-02-06 16:37:02,0.0
-12752,2224,-4892,16178,8149,8980,2025-02-06 16:37:02,0.0
-13096,2948,-7140,15471,7062,9584,2025-02-06 16:37:02,0.0
-12340,3872,-8372,14616,4104,9710,2025-02-06 16:37:02,0.0
-10864,3740,-8560,13028,-1284,8440,2025-02-06 16:37:02,0.0
-11452,3436,-7688,11847,-5097,7309,2025-02-06 16:37:02,0.0
-11600,2972,-6064,11053,-6958,6841,2025-02-06 16:37:02,0.0
-11476,2652,-4596,10514,-7689,6701,2025-02-06 16:37:02,0.0
-10488,2904,-3628,10190,-6833,6565,2025-02-06 16:37:02,0.0
-9632,3496,-2676,9765,-3737,5764,2025-02-06 16:37:02,0.0
-9340,3660,-1932,9626,-756,4385,2025-02-06 16:37:02,0.0
-10424,3116,-1996,9537,937,3164,2025-02-06 16:37:02,0.0
-11188,2844,-2364,9293,1320,2473,2025-02-06 16:37:02,0.0
-11556,2296,-2476,9007,767,1856,2025-02-06 16:37:02,0.0
-12560,2688,-2780,8656,631,1372,2025-02-06 16:37:02,0.0
-12672,1712,-2312,8968,1702,803,2025-02-06 16:37:02,0.0
-12912,-944,-1920,9576,1989,-675,2025-02-06 16:37:02,0.0
-14504,-2924,-1892,10003,1336,-1647,2025-02-06 16:37:02,0.0
-15544,-3432,-2108,10342,132,-849,2025-02-06 16:37:02,0.0
-14588,-2744,-2824,10580,-1497,819,2025-02-06 16:37:02,0.0
-13672,-1884,-2544,10684,-2684,2351,2025-02-06 16:37:02,0.0
-13328,-2012,-1956,11437,-2200,2386,2025-02-06 16:37:02,0.0
-15420,-1232,-4260,11898,2649,2590,2025-02-06 16:37:02,0.0
-16808,544,-8108,11088,7771,3814,2025-02-06 16:37:02,0.0
-18492,3680,-11712,8998,12098,6129,2025-02-06 16:37:02,0.0
-18824,7068,-14984,6149,17578,9483,2025-02-06 16:37:02,0.0
-14616,8716,-16664,3479,21402,11872,2025-02-06 16:37:02,0.0
-6872,6224,-13356,2235,13860,9093,2025-02-06 16:37:02,0.0
-4216,3344,-9680,5631,-3979,1442,2025-02-06 16:37:02,0.0
-6860,1768,-8852,9011,-13421,-2951,2025-02-06 16:37:02,
-9448,1632,-9084,9679,-18570,-3612,2025-02-06 16:37:02,0.0
-10676,1888,-8796,8738,-20519,-1981,2025-02-06 16:37:02,0.0
-10392,1676,-8152,7263,-19904,71,2025-02-06 16:37:02,0.0
-9684,1384,-7612,5882,-17649,1687,2025-02-06 16:37:02,0.0
-9396,488,-5428,4942,-12684,2107,2025-02-06 16:37:02,0.0
-8920,172,-2476,5486,-6758,1407,2025-02-06 16:37:02,0.0
-10308,768,-1932,6724,-457,517,2025-02-06 16:37:02,0.0
-10000,912,-3396,7491,5195,-460,2025-02-06 16:37:02,0.0
-11416,1996,-4704,7781,9535,-978,2025-02-06 16:37:02,0.0
-11848,2340,-6872,7116,11604,-1412,2025-02-06 16:37:02,0.0
-11508,1792,-7376,6198,9818,-2422,2025-02-06 16:37:02,0.0
-11640,1172,-8732,5768,5086,-3219,2025-02-06 16:37:02,0.0
-11628,160,-9096,5177,-298,-3730,2025-02-06 16:37:02,0.0
-11756,-392,-8252,4619,-5668,-3479,2025-02-06 16:37:02,0.0
-11568,-672,-7212,3648,-9422,-2940,2025-02-06 16:37:02,0.0
-11608,-1080,-5528,2544,-11696,-2619,2025-02-06 16:37:02,0.0
-11472,-1240,-4608,1523,-12037,-2401,2025-02-06 16:37:02,0.0
-11232,-1136,-3556,815,-9872,-2225,2025-02-06 16:37:02,0.0
-10944,-788,-2924,507,-6359,-2254,2025-02-06 16:37:02,0.0
-10716,-632,-2432,157,-2348,-2423,2025-02-06 16:37:02,0.0
-10832,-456,-2536,-557,1726,-2618,2025-02-06 16:37:02,0.0
-10808,-388,-3480,-1285,3285,-2442,2025-02-06 16:37:02,0.0
-11196,-612,-3812,-2069,3486,-2074,2025-02-06 16:37:02,0.0
-11888,-688,-4120,-2713,3422,-1537,2025-02-06 16:37:02,0.0
-12264,-1060,-3868,-3313,3319,-1223,2025-02-06 16:37:02,0.0
-12868,-396,-3420,-4296,2993,-936,2025-02-06 16:37:03,0.0
-12800,180,-2904,-5177,2551,-898,2025-02-06 16:37:03,0.0
-12608,-232,-2932,-5433,2432,-1548,2025-02-06 16:37:03,0.0
-11892,-1808,-2780,-5051,2005,-2528,2025-02-06 16:37:03,0.0
-11824,-4372,-3420,-3614,2030,-4279,2025-02-06 16:37:03,0.0
-13064,-5024,-4572,-2741,2235,-4698,2025-02-06 16:37:03,0.0
-14020,-4272,-4492,-3217,1507,-3982,2025-02-06 16:37:03,0.0
-14480,-1660,-2152,-4118,-447,-3792,2025-02-06 16:37:03,0.0
-15268,1000,-380,-4810,-1942,-4583,2025-02-06 16:37:03,0.0
-15160,2092,-900,-5485,-2453,-6000,2025-02-06 16:37:03,0.0
-13168,304,-4196,-6111,-2528,-7612,2025-02-06 16:37:03,0.0
-11872,-1416,-6152,-6337,-2319,-8709,2025-02-06 16:37:03,0.0
-11828,-2556,-8108,-5201,473,-8981,2025-02-06 16:37:03,0.0
-12992,-3364,-9016,-2668,7509,-9669,2025-02-06 16:37:03,0.0
-14412,-4244,-9808,581,16743,-11465,2025-02-06 16:37:03,0.0
-16144,-3424,-11216,3413,21738,-11050,2025-02-06 16:37:03,0.0
-16980,-2904,-14384,2629,17917,-7046,2025-02-06 16:37:03,0.0
-18092,-988,-16600,-2359,6130,-1146,2025-02-06 16:37:03,0.0
-16620,2544,-15664,-7749,-2614,3203,2025-02-06 16:37:03,0.0
-14644,5904,-11880,-10417,-9025,5563,2025-02-06 16:37:03,0.0
-11552,7300,-9720,-10830,-14509,6144,2025-02-06 16:37:03,0.0
-7440,7256,-8524,-10843,-20372,4627,2025-02-06 16:37:03,0.0
-4724,5140,-6904,-10071,-23160,1048,2025-02-06 16:37:03,0.0
-4560,3376,-6116,-9803,-22684,-2438,2025-02-06 16:37:03,0.0
-6956,1696,-3456,-10082,-17689,-5032,2025-02-06 16:37:03,0.0
-10072,-156,-1352,-10852,-5940,-5098,2025-02-06 16:37:03,0.0
-11216,-1008,-2848,-11584,7693,-2743,2025-02-06 16:37:03,0.0
-10836,-60,-3988,-12392,14216,-180,2025-02-06 16:37:03,0.0
-12552,1568,-5692,-12774,13947,1134,2025-02-06 16:37:03,0.0
-12552,2684,-7008,-13242,12765,255,2025-02-06 16:37:03,0.0
-11816,3268,-7452,-13793,9179,-1927,2025-02-06 16:37:03,0.0
-11492,2524,-8464,-14246,3962,-4074,2025-02-06 16:37:03,0.0
-12432,652,-7404,-14495,-267,-4525,2025-02-06 16:37:03,0.0
-13792,-908,-5588,-13938,-2895,-3308,2025-02-06 16:37:03,0.0
-14088,-1572,-4292,-13014,-3431,-1007,2025-02-06 16:37:03,0.0
-13060,-1272,-3304,-11833,-2363,493,2025-02-06 16:37:03,0.0
-10848,-992,-2768,-9928,-1155,368,2025-02-06 16:37:03,0.0
-10336,-304,-2596,-8073,-299,-353,2025-02-06 16:37:03,0.0
-9992,356,-2824,-6500,-52,-636,2025-02-06 16:37:03,0.0
-9872,1632,-2772,-5355,-306,-309,2025-02-06 16:37:03,0.0
-10188,3284,-2200,-4279,-352,-27,2025-02-06 16:37:03,0.0
-10324,4788,-1740,-3673,613,-426,2025-02-06 16:37:03,0.0
-10472,6320,-2124,-3776,1743,-1725,2025-02-06 16:37:03,0.0
-10824,6664,-2080,-4152,2304,-3647,2025-02-06 16:37:03,0.0
-11992,5928,-2748,-4704,1609,-5459,2025-02-06 16:37:03,0.0
-13504,5368,-3980,-5449,1058,-6188,2025-02-06 16:37:03,0.0
-13344,4344,-4652,-5958,904,-6522,2025-02-06 16:37:03,0.0
-12368,2720,-5480,-6238,73,-7098,2025-02-06 16:37:03,0.0
-12180,-140,-4780,-6215,-1143,-8149,2025-02-06 16:37:03,0.0
-14752,-1108,-3192,-6053,-2015,-7347,2025-02-06 16:37:03,0.0
-18432,-396,-1216,-6131,-2202,-3204,2025-02-06 16:37:03,0.0
-18572,468,-652,-6021,-911,1429,2025-02-06 16:37:03,0.0
-15896,1400,-2388,-5682,1631,2648,2025-02-06 16:37:03,0.0
-12800,3836,-4368,-4651,4229,817,2025-02-06 16:37:03,0.0
-13460,6040,-7152,-3841,4573,-95,2025-02-06 16:37:03,0.0
-15088,6264,-9740,-4848,6156,317,2025-02-06 16:37:03,0.0
-16088,4616,-10760,-6827,8686,656,2025-02-06 16:37:03,0.0
-15280,4436,-12132,-8431,10102,565,2025-02-06 16:37:03,0.0
-12284,4496,-13276,-9480,8263,-181,2025-02-06 16:37:03,0.0
-8328,4104,-12068,-9200,468,-2145,2025-02-06 16:37:03,0.0
-5032,1652,-11792,-8177,-7945,-4888,2025-02-06 16:37:04,0.0
-4892,-416,-10176,-7911,-12919,-7352,2025-02-06 16:37:04,0.0
-7216,-1284,-7976,-7417,-15504,-8466,2025-02-06 16:37:04,0.0
-10192,-1484,-6484,-6862,-14994,-7290,2025-02-06 16:37:04,0.0
-12900,-1228,-5844,-7257,-9190,-4249,2025-02-06 16:37:04,0.0
-12848,-68,-3604,-7671,-1993,-2081,2025-02-06 16:37:04,0.0
-11752,988,-2668,-7307,2957,-1943,2025-02-06 16:37:04,0.0
-10892,1780,-3184,-7069,5438,-3525,2025-02-06 16:37:04,0.0
-11084,2308,-4720,-7017,5458,-5683,2025-02-06 16:37:04,0.0
-10984,2152,-6140,-7084,4302,-7535,2025-02-06 16:37:04,0.0
-11896,856,-7824,-7566,2785,-8852,2025-02-06 16:37:04,0.0
-12524,-224,-8256,-8018,1789,-8534,2025-02-06 16:37:04,0.0
-13004,-664,-6780,-8108,-107,-7213,2025-02-06 16:37:04,0.0
-13184,-1240,-5156,-7752,-2309,-6009,2025-02-06 16:37:04,0.0
-11976,-1456,-4320,-7095,-3898,-5607,2025-02-06 16:37:04,
-12052,-1208,-3560,-6342,-4859,-5619,2025-02-06 16:37:04,0.0
-11936,-1188,-3152,-5674,-4408,-5497,2025-02-06 16:37:04,0.0
-12024,-1176,-2800,-5169,-3455,-4655,2025-02-06 16:37:04,0.0
-11852,-1044,-2440,-4770,-1862,-3231,2025-02-06 16:37:04,0.0
-11664,-992,-2124,-4475,52,-2161,2025-02-06 16:37:04,0.0
-10852,-1132,-1804,-3738,1336,-1822,2025-02-06 16:37:04,0.0
-10892,-1308,-1664,-2965,1991,-1492,2025-02-06 16:37:04,0.0
-12232,-1556,-2184,-2456,2170,-376,2025-02-06 16:37:04,0.0
-12792,-1152,-1444,-1797,1642,1109,2025-02-06 16:37:04,0.0
-12824,-436,-1532,-1523,1065,2451,2025-02-06 16:37:04,0.0
-12512,-40,-888,-1331,535,3394,2025-02-06 16:37:04,0.0
-12536,-56,-252,-1058,-275,3863,2025-02-06 16:37:04,0.0
-12520,-952,-40,-539,-627,3656,2025-02-06 16:37:04,0.0
-12928,-1412,-800,-188,451,3117,2025-02-06 16:37:04,0.0
-13464,-1008,-1572,-65,1354,2972,2025-02-06 16:37:04,0.0
-13984,-216,-2192,-69,1180,3403,2025-02-06 16:37:04,0.0
-14396,1040,-2932,-429,866,4300,2025-02-06 16:37:04,0.0
-14584,2952,-3580,-816,907,5713,2025-02-06 16:37:04,0.0
-13808,4288,-3376,-1005,1006,6402,2025-02-06 16:37:04,0.0
-12588,3704,-2520,-1464,693,4440,2025-02-06 16:37:04,0.0
-13428,1848,-572,-2097,-835,-941,2025-02-06 16:37:04,0.0
-14836,516,-80,-1613,-2736,-3844,2025-02-06 16:37:04,0.0
-14520,-744,-1536,-445,-4154,-4537,2025-02-06 16:37:04,0.0
-13180,-2760,-3264,910,-5251,-4616,2025-02-06 16:37:04,0.0
-12896,-4864,-4688,2175,-4231,-4687,2025-02-06 16:37:04,0.0
-14132,-6956,-5648,4201,2031,-5196,2025-02-06 16:37:04,0.0
-16164,-8616,-6600,6701,13011,-7108,2025-02-06 16:37:04,0.0
-18736,-7956,-6292,9896,23530,-9330,2025-02-06 16:37:04,0.0
-21092,-6356,-11032,11870,25970,-5243,2025-02-06 16:37:04,0.0
-17688,-4808,-15420,10698,15802,2147,2025-02-06 16:37:04,0.0
-14904,-1680,-19148,6455,2996,8860,2025-02-06 16:37:04,0.0
-9908,1904,-17984,-67,-10423,13515,2025-02-06 16:37:04,0.0
-6784,4156,-12616,-3625,-20812,14457,2025-02-06 16:37:04,0.0
-4700,3944,-7196,-3464,-27466,12428,2025-02-06 16:37:04,0.0
-5104,1952,-1404,361,-29299,6973,2025-02-06 16:37:04,0.0
-8432,-300,2136,5154,-22400,836,2025-02-06 16:37:04,0.0
-12312,-2440,3436,8662,-7910,-1570,2025-02-06 16:37:04,0.0
-13672,-3184,544,10554,3593,132,2025-02-06 16:37:04,0.0
-13064,-2612,-3420,10630,9060,3903,2025-02-06 16:37:04,0.0
-12092,-972,-6164,10338,11716,7229,2025-02-06 16:37:04,0.0
-11712,608,-7388,10058,8804,8439,2025-02-06 16:37:04,0.0
-12048,1336,-8000,9548,4698,8617,2025-02-06 16:37:04,0.0
-11484,1876,-7412,9234,91,7938,2025-02-06 16:37:04,0.0
-11440,1268,-6084,9469,-2338,7055,2025-02-06 16:37:04,0.0
-10308,248,-6144,10037,-3703,6509,2025-02-06 16:37:04,0.0
-11432,-184,-4944,10634,-3825,6489,2025-02-06 16:37:05,0.0
-11876,204,-4420,11391,-3551,6866,2025-02-06 16:37:05,0.0
-11732,892,-4216,11950,-2942,7475,2025-02-06 16:37:05,0.0
-10196,1532,-4684,12112,-2187,7230,2025-02-06 16:37:05,0.0
-9768,2192,-3976,12090,-1624,6130,2025-02-06 16:37:05,0.0
-10624,2152,-3512,12413,-317,4997,2025-02-06 16:37:05,0.0
-11084,2136,-4036,12401,543,4696,2025-02-06 16:37:05,0.0
-10920,2100,-4108,12230,472,4326,2025-02-06 16:37:05,0.0
-10664,1804,-3572,12159,-16,3723,2025-02-06 16:37:05,0.0
-11064,1680,-3208,12040,-581,2999,2025-02-06 16:37:05,0.0
-12052,1608,-2612,11962,-732,2419,2025-02-06 16:37:05,0.0
-12408,776,-2344,12511,41,2229,2025-02-06 16:37:05,0.0
-12860,236,-3132,12857,458,1957,2025-02-06 16:37:05,0.0
-13224,800,-4272,12681,1092,2533,2025-02-06 16:37:05,0.0
-12232,688,-4536,12643,1161,2868,2025-02-06 16:37:05,0.0
-11620,160,-5616,12565,799,2338,2025-02-06 16:37:05,0.0
-13964,1344,-6332,11809,1038,2756,2025-02-06 16:37:05,0.0
-16524,1712,-4084,12090,1131,5094,2025-02-06 16:37:05,0.0
-18244,28,-1308,12753,-776,7187,2025-02-06 16:37:05,0.0
-17492,-2412,-440,13784,-3117,7467,2025-02-06 16:37:05,0.0
-13592,-3176,-3100,15406,-3966,5670,2025-02-06 16:37:05,0.0
-11996,-1148,-5732,16576,-4945,4331,2025-02-06 16:37:05,0.0
-12112,596,-7436,17135,-5142,4477,2025-02-06 16:37:05,0.0
-12420,464,-7536,17079,-2835,4739,2025-02-06 16:37:05,0.0
-15596,616,-8548,16587,4313,5543,2025-02-06 16:37:05,0.0
-17048,3096,-11248,14920,12293,8540,2025-02-06 16:37:05,0.0
-14884,3888,-13052,13708,15514,10985,2025-02-06 16:37:05,0.0
-10592,2736,-13572,12113,11283,11462,2025-02-06 16:37:05,0.0
-6528,492,-11120,12182,460,8861,2025-02-06 16:37:05,0.0
-5748,-2028,-8640,14445,-10033,5031,2025-02-06 16:37:05,0.0
-6876,-3768,-7948,15292,-18405,1980,2025-02-06 16:37:05,0.0
-9004,-3580,-6976,15747,-22843,749,2025-02-06 16:37:05,0.0
-11956,-3040,-6680,16163,-20365,1699,2025-02-06 16:37:05,0.0
-12864,-1992,-4848,15638,-7589,4042,2025-02-06 16:37:05,0.0
-11040,272,-4096,14697,4059,4565,2025-02-06 16:37:05,0.0
-10860,1948,-3612,14713,10514,3750,2025-02-06 16:37:05,0.0
-11164,1056,-4772,14440,12954,1778,2025-02-06 16:37:05,0.0
-12716,-904,-6220,13409,11132,-676,2025-02-06 16:37:05,0.0
-15308,-2960,-5700,13507,3957,-538,2025-02-06 16:37:05,0.0
-15304,-4776,-7048,14467,-2722,1744,2025-02-06 16:37:05,0.0
-12900,-4976,-6932,14731,-9217,4270,2025-02-06 16:37:05,0.0
-11816,-3380,-5048,14802,-13630,5600,2025-02-06 16:37:05,0.0
-10708,-2084,-3728,15261,-13901,5664,2025-02-06 16:37:05,0.0
-9812,-1276,-2180,15331,-9622,4966,2025-02-06 16:37:05,0.0
-8592,-832,-1904,15044,-2656,3873,2025-02-06 16:37:05,0.0
-7820,-1292,-3028,14772,3208,2767,2025-02-06 16:37:05,0.0
-8472,-2144,-4280,14042,6764,2145,2025-02-06 16:37:05,0.0
-10452,-2548,-4744,13101,8782,2330,2025-02-06 16:37:05,0.0
-13340,-2552,-4500,11757,9691,3908,2025-02-06 16:37:05,0.0
-14632,-2016,-4512,10543,8956,5518,2025-02-06 16:37:05,0.0
-14576,-1548,-4496,9697,6969,6723,2025-02-06 16:37:05,0.0
-14312,-1280,-4944,9243,4232,7266,2025-02-06 16:37:05,0.0
-13832,-788,-5816,8524,745,7502,2025-02-06 16:37:05,0.0
-13768,476,-4924,7297,-3033,7693,2025-02-06 16:37:05,0.0
-13136,1268,-3164,6658,-5666,7333,2025-02-06 16:37:05,
-12776,1620,-1804,6602,-6761,6412,2025-02-06 16:37:05,0.0
-12836,1304,-1128,6343,-5970,4683,2025-02-06 16:37:05,0.0
-12688,256,-1120,5807,-4190,3012,2025-02-06 16:37:05,0.0
-12888,-1460,-952,5676,-2693,1213,2025-02-06 16:37:05,0.0
-13748,-2776,-1204,5770,-1861,85,2025-02-06 16:37:05,0.0
-14492,-4136,-3368,5922,473,-313,2025-02-06 16:37:06,0.0
-13792,-5308,-5692,6836,4721,-671,2025-02-06 16:37:06,0.0
-12504,-6416,-7644,8983,9539,-2361,2025-02-06 16:37:06,0.0
-14196,-5808,-7996,10969,12246,-3354,2025-02-06 16:37:06,0.0
-17424,-6192,-8876,11568,12234,-2320,2025-02-06 16:37:06,0.0
-20060,-6564,-9880,10975,11598,1211,2025-02-06 16:37:06,0.0
-18456,-6096,-11288,10416,7826,6693,2025-02-06 16:37:06,0.0
-14776,-4344,-13056,8592,-687,11475,2025-02-06 16:37:06,0.0
-10988,-2028,-12816,6002,-9577,14336,2025-02-06 16:37:06,0.0
-8076,-360,-10640,5185,-15659,14947,2025-02-06 16:37:06,0.0
-5968,504,-8532,6017,-20645,13711,2025-02-06 16:37:06,0.0
-4672,884,-6428,7756,-22171,10733,2025-02-06 16:37:06,0.0
-6132,1000,-3168,10229,-18420,5883,2025-02-06 16:37:06,0.0
-9392,944,-664,12357,-7901,2763,2025-02-06 16:37:06,0.0
-11572,804,-1624,13823,4529,2695,2025-02-06 16:37:06,0.0
-12304,40,-4580,14493,12378,4442,2025-02-06 16:37:06,0.0
-12596,-584,-6368,14065,15982,5496,2025-02-06 16:37:06,0.0
-13912,-680,-6168,14047,14125,6546,2025-02-06 16:37:06,0.0
-14984,-1608,-8972,14250,10383,8198,2025-02-06 16:37:06,0.0
-13820,-1784,-9840,14236,5392,9349,2025-02-06 16:37:06,0.0
-12796,-1100,-10592,13700,-1800,10334,2025-02-06 16:37:06,0.0
-11416,-408,-9336,13127,-6851,11202,2025-02-06 16:37:06,0.0
-10408,548,-7940,13318,-9485,11763,2025-02-06 16:37:06,0.0
-10296,1224,-6148,13773,-10258,11907,2025-02-06 16:37:06,0.0
-10144,1952,-5072,14234,-8324,11152,2025-02-06 16:37:06,0.0
-10180,2392,-3888,14806,-3853,9898,2025-02-06 16:37:06,0.0
-10624,1964,-4544,15726,735,8893,2025-02-06 16:37:06,0.0
-10944,1176,-5640,15876,3349,8471,2025-02-06 16:37:06,0.0
-11440,844,-6700,15607,3871,8582,2025-02-06 16:37:06,0.0
-11600,1256,-7528,14761,2852,9147,2025-02-06 16:37:06,0.0
-10824,1912,-7868,14209,1248,9228,2025-02-06 16:37:06,0.0
-10212,2244,-6972,13517,-308,8389,2025-02-06 16:37:06,0.0
-10248,2648,-5660,12918,-1208,7357,2025-02-06 16:37:06,0.0
-11240,2932,-4656,12250,-1183,6963,2025-02-06 16:37:06,0.0
-11928,2760,-4092,11390,-555,6957,2025-02-06 16:37:06,0.0
-12516,3016,-4156,10351,-74,6690,2025-02-06 16:37:06,0.0
-13092,5072,-3720,9788,597,7347,2025-02-06 16:37:06,0.0
-10972,2672,-3168,10709,-1359,5188,2025-02-06 16:37:06,0.0
-12020,400,-3124,10943,-4264,2924,2025-02-06 16:37:06,0.0
-12152,-36,-3040,11182,-5550,2310,2025-02-06 16:37:06,0.0
-11740,-56,-3416,11777,-5716,2394,2025-02-06 16:37:06,0.0
-11440,132,-4280,12151,-5095,2527,2025-02-06 16:37:06,0.0
-12252,116,-6232,12451,-2547,2895,2025-02-06 16:37:06,0.0
-14400,-2008,-10080,11756,3496,3712,2025-02-06 16:37:06,0.0
-17608,-1636,-11720,9326,8664,6605,2025-02-06 16:37:06,0.0
-15304,1336,-9556,7904,8706,10227,2025-02-06 16:37:06,0.0
-9856,3260,-7888,9776,1701,9171,2025-02-06 16:37:06,0.0
-6456,4180,-9344,12335,-3527,5192,2025-02-06 16:37:06,0.0
-5880,2624,-8532,14720,-7329,993,2025-02-06 16:37:06,0.0
-9056,1072,-8040,15897,-8782,-1257,2025-02-06 16:37:06,0.0
-13412,252,-6896,15307,-6880,173,2025-02-06 16:37:06,0.0
-14224,416,-6428,13605,-2837,2916,2025-02-06 16:37:06,0.0
-12260,780,-7140,11711,720,3604,2025-02-06 16:37:06,0.0
-11120,1284,-7540,10546,1939,3065,2025-02-06 16:37:06,0.0
-10432,1384,-7288,10180,634,2359,2025-02-06 16:37:06,0.0
-10880,1160,-6256,10354,-862,1693,2025-02-06 16:37:06,0.0
-12564,280,-5108,10761,-1346,930,2025-02-06 16:37:06,0.0
-13764,-76,-5132,10448,603,422,2025-02-06 16:37:06,0.0
-13336,-196,-5500,9921,1242,-342,2025-02-06 16:37:06,0.0
-12104,-156,-6552,9525,-229,-1057,2025-02-06 16:37:06,0.0
-10328,-700,-7528,9040,-3531,-1656,2025-02-06 16:37:07,0.0
-9556,-1100,-7968,8004,-7109,-1729,2025-02-06 16:37:07,0.0
-9384,-924,-7556,6279,-9072,-1311,2025-02-06 16:37:07,0.0
-9684,-748,-5676,5026,-8294,-906,2025-02-06 16:37:07,0.0
-9560,-680,-4092,4702,-5080,-862,2025-02-06 16:37:07,0.0
-9312,-1072,-3904,4491,245,-1226,2025-02-06 16:37:07,0.0
-9248,-1592,-4840,3729,4820,-1919,2025-02-06 16:37:07,0.0
-9908,-2068,-5488,2717,7219,-2610,2025-02-06 16:37:07,0.0
-11260,-2864,-5684,1755,7813,-3051,2025-02-06 16:37:07,0.0
-12680,-3552,-5704,939,7484,-2884,2025-02-06 16:37:07,0.0
-13568,-3940,-6012,202,6310,-2135,2025-02-06 16:37:07,0.0
-13784,-3916,-5820,-628,3859,-973,2025-02-06 16:37:07,0.0
-12896,-3448,-5900,-1370,1170,-458,2025-02-06 16:37:07,0.0
-12496,-2592,-5196,-1980,-1155,-552,2025-02-06 16:37:07,0.0
-12412,-1424,-4264,-2678,-2850,-611,2025-02-06 16:37:07,0.0
-11884,-1084,-3632,-3200,-3325,-702,2025-02-06 16:37:07,0.0
-11036,-1880,-3264,-3202,-2156,-1494,2025-02-06 16:37:07,0.0
-10740,-3984,-2804,-2512,-39,-3165,2025-02-06 16:37:07,0.0
-11964,-4924,-3384,-1599,1610,-4205,2025-02-06 16:37:07,0.0
-12968,-5808,-4432,-1348,2100,-4251,2025-02-06 16:37:07,0.0
-13964,-5836,-4248,-1500,1653,-4013,2025-02-06 16:37:07,0.0
-14932,-3500,-3844,-1599,-260,-2903,2025-02-06 16:37:07,0.0
-15056,-52,-5668,-2135,-425,-1785,2025-02-06 16:37:07,0.0
-12992,-620,-7136,-1969,3325,-3153,2025-02-06 16:37:07,0.0
-11816,-3616,-8492,-268,7941,-6831,2025-02-06 16:37:07,0.0
-13300,-5020,-10116,2123,11490,-8918,2025-02-06 16:37:07,0.0
-14872,-5264,-12144,3949,13889,-8988,2025-02-06 16:37:07,0.0
-16904,-1732,-13372,4502,12513,-5712,2025-02-06 16:37:07,0.0
-17656,1276,-15932,1360,7358,-19,2025-02-06 16:37:07,0.0
-14660,2468,-16272,-4190,2134,3386,2025-02-06 16:37:07,0.0
-11632,4420,-13868,-7730,-5734,4543,2025-02-06 16:37:07,0.0
-9596,5504,-11140,-9464,-13588,5022,2025-02-06 16:37:07,0.0
-7896,5084,-8496,-9512,-18600,4885,2025-02-06 16:37:07,0.0
-6680,3628,-5452,-8418,-21446,3526,2025-02-06 16:37:07,0.0
-7916,1964,-2932,-6390,-20775,1320,2025-02-06 16:37:07,
-10388,872,-316,-3574,-13812,-136,2025-02-06 16:37:07,0.0
-11220,-696,-640,-1336,-3489,-572,2025-02-06 16:37:07,0.0
-11096,-1272,-3984,-1016,4870,427,2025-02-06 16:37:07,0.0
-10476,-600,-6108,-1863,7620,1700,2025-02-06 16:37:07,0.0
-11432,1096,-7296,-2165,6719,2481,2025-02-06 16:37:07,0.0
-11240,2776,-8068,-3203,4210,2664,2025-02-06 16:37:07,0.0
-10912,4348,-8016,-4955,1713,1940,2025-02-06 16:37:07,0.0
-9764,4892,-7200,-6588,20,442,2025-02-06 16:37:07,0.0
-9900,4232,-6080,-7697,-540,-1162,2025-02-06 16:37:07,0.0
-10088,3108,-5588,-8522,19,-2094,2025-02-06 16:37:07,0.0
-10268,1760,-5212,-8860,1756,-2784,2025-02-06 16:37:07,0.0
-11164,992,-4824,-8522,3449,-2775,2025-02-06 16:37:07,0.0
-11976,808,-5328,-8122,3948,-2129,2025-02-06 16:37:07,0.0
-12408,1116,-5228,-7658,3458,-1575,2025-02-06 16:37:07,0.0
-12580,1488,-5236,-7173,2155,-1336,2025-02-06 16:37:07,0.0
-12444,1792,-5436,-6879,613,-1586,2025-02-06 16:37:07,0.0
-11876,1612,-5180,-6597,-510,-2231,2025-02-06 16:37:07,0.0
-11656,1184,-4460,-5970,-1231,-2727,2025-02-06 16:37:07,0.0
-12084,720,-3444,-5304,-1674,-2744,2025-02-06 16:37:07,0.0
-12016,588,-2396,-4405,-1702,-2563,2025-02-06 16:37:07,0.0
-12184,784,-2344,-3619,-1222,-2485,2025-02-06 16:37:07,0.0
-12132,952,-2632,-3142,-597,-2808,2025-02-06 16:37:07,0.0
-12452,992,-3064,-2441,-651,-3338,2025-02-06 16:37:07,0.0
-13032,1592,-3748,-2355,-1348,-3323,2025-02-06 16:37:07,0.0
-13484,2788,-4424,-2700,-1966,-2753,2025-02-06 16:37:07,0.0
-13164,4144,-4700,-3365,-2231,-1937,2025-02-06 16:37:08,0.0
-12380,4524,-4948,-4197,-2198,-1728,2025-02-06 16:37:08,0.0
-12932,4372,-4336,-5111,-1250,-1581,2025-02-06 16:37:08,0.0
-13908,4140,-4364,-6236,1047,-621,2025-02-06 16:37:08,0.0
-14252,3780,-5308,-6460,4939,46,2025-02-06 16:37:08,0.0
-14536,3468,-6648,-6526,8881,366,2025-02-06 16:37:08,0.0
-15432,3736,-8124,-6862,11447,897,2025-02-06 16:37:08,0.0
-15512,4148,-9600,-7497,12795,1571,2025-02-06 16:37:08,0.0
-14136,4960,-10640,-7905,11918,1500,2025-02-06 16:37:08,0.0
-11216,5540,-12252,-8152,8534,28,2025-02-06 16:37:08,0.0
-8952,5636,-11312,-7720,3214,-2770,2025-02-06 16:37:08,0.0
-9256,4592,-10352,-6778,-2321,-5793,2025-02-06 16:37:08,0.0
-9644,-1336,-7296,-5313,-9694,-7943,2025-02-06 16:37:08,0.0
-9148,-1068,-7380,-5556,-10608,-6212,2025-02-06 16:37:08,0.0
-8924,-736,-7160,-6301,-10236,-4165,2025-02-06 16:37:08,0.0
-8900,-752,-6328,-6874,-7894,-2522,2025-02-06 16:37:08,0.0
-10316,-420,-4348,-6537,-1469,-1546,2025-02-06 16:37:08,0.0
-11292,-100,-3728,-5412,7125,-1405,2025-02-06 16:37:08,0.0
-12424,696,-4272,-4502,12438,-2277,2025-02-06 16:37:08,0.0
-13600,1728,-6528,-4186,13285,-3527,2025-02-06 16:37:08,0.0
-13744,2800,-8396,-4324,12070,-4943,2025-02-06 16:37:08,0.0
-12824,2756,-9952,-4569,6507,-6653,2025-02-06 16:37:08,0.0
-12340,1736,-10136,-4591,-968,-7209,2025-02-06 16:37:08,0.0
-11696,0,-9008,-4563,-7150,-7072,2025-02-06 16:37:08,0.0
-11228,-976,-7360,-4869,-11219,-6763,2025-02-06 16:37:08,0.0
-10968,-1636,-5196,-4879,-13592,-6454,2025-02-06 16:37:08,0.0
-11340,-2188,-3864,-4546,-13360,-5917,2025-02-06 16:37:08,0.0
-11440,-2400,-3156,-4312,-10551,-5186,2025-02-06 16:37:08,0.0
-11572,-1916,-2652,-4002,-6493,-4068,2025-02-06 16:37:08,0.0
-10984,-1444,-2756,-3621,-1204,-2882,2025-02-06 16:37:08,0.0
-10416,-800,-3252,-3276,2324,-2465,2025-02-06 16:37:08,0.0
-10432,-336,-3568,-2892,4130,-2363,2025-02-06 16:37:08,0.0
-11212,-204,-4316,-2708,3961,-2323,2025-02-06 16:37:08,0.0
-11624,-356,-4656,-2803,3205,-2216,2025-02-06 16:37:08,0.0
-11944,-788,-4312,-2838,2519,-1979,2025-02-06 16:37:08,0.0
-12212,-1200,-4108,-2706,1734,-1438,2025-02-06 16:37:08,0.0
-12420,-1548,-3980,-2658,1073,-622,2025-02-06 16:37:08,0.0
-12356,-1796,-3576,-2567,678,114,2025-02-06 16:37:08,0.0
-12252,-1800,-2836,-2349,397,570,2025-02-06 16:37:08,0.0
-12776,-1568,-2236,-2282,246,1080,2025-02-06 16:37:08,0.0
-13404,-1384,-1720,-2451,408,1695,2025-02-06 16:37:08,0.0
-13756,-788,-1992,-2684,527,2372,2025-02-06 16:37:08,0.0
-13444,-628,-2036,-2762,322,2794,2025-02-06 16:37:08,0.0
-12828,-908,-2700,-2313,54,2725,2025-02-06 16:37:08,0.0
-12692,-1036,-3104,-1649,-146,2219,2025-02-06 16:37:08,0.0
-13492,240,-3584,-1083,-743,2538,2025-02-06 16:37:08,0.0
-14012,2064,-3644,-966,-1044,3937,2025-02-06 16:37:08,0.0
-12572,1772,-2708,-643,126,2804,2025-02-06 16:37:08,0.0
-12700,592,-1696,129,739,-1135,2025-02-06 16:37:08,0.0
-14588,-284,-2340,954,1056,-4119,2025-02-06 16:37:08,0.0
-14612,-968,-4520,2345,1225,-5169,2025-02-06 16:37:08,0.0
-12920,-2920,-7512,4016,1476,-5586,2025-02-06 16:37:08,0.0
-12528,-4516,-9092,5198,2865,-6572,2025-02-06 16:37:08,0.0
-15136,-3892,-8656,6370,5002,-6904,2025-02-06 16:37:08,0.0
-18348,-3360,-9168,6471,7547,-5824,2025-02-06 16:37:08,0.0
-20096,-3096,-10868,5073,9597,-2724,2025-02-06 16:37:08,0.0
-17328,-3496,-12056,3521,4917,1551,2025-02-06 16:37:08,0.0
-14532,-3072,-14108,1392,-3155,5007,2025-02-06 16:37:08,0.0
-11748,-1392,-13152,-1393,-10793,7918,2025-02-06 16:37:08,0.0
-8604,280,-9808,-2938,-17964,9857,2025-02-06 16:37:09,0.0
-6436,1440,-6436,-2248,-23968,9838,2025-02-06 16:37:09,0.0
-5052,1620,-3732,-262,-26354,7614,2025-02-06 16:37:09,0.0
-4884,924,-552,2001,-22349,3359,2025-02-06 16:37:09,0.0
-7072,-236,2200,4782,-8239,-678,2025-02-06 16:37:09,0.0
-9332,-1360,424,7520,5318,-1566,2025-02-06 16:37:09,0.0
-11968,-1840,-3444,8420,15125,873,2025-02-06 16:37:09,0.0
-14228,-1492,-4972,8143,19254,3167,2025-02-06 16:37:09,0.0
-15924,-868,-5168,8248,20128,5118,2025-02-06 16:37:09,0.0
-16044,392,-7032,8152,15068,6673,2025-02-06 16:37:09,0.0
-14968,708,-9724,7679,9757,7583,2025-02-06 16:37:09,0.0
-12556,892,-10844,6847,1057,7882,2025-02-06 16:37:09,0.0
-11300,1204,-9776,6177,-6288,7769,2025-02-06 16:37:09,0.0
-10924,1116,-7080,6456,-11654,7545,2025-02-06 16:37:09,0.0
-10660,1312,-5048,7058,-14815,7412,2025-02-06 16:37:09,0.0
-10408,1776,-3912,7529,-14942,7111,2025-02-06 16:37:09,
-9984,2272,-2372,7932,-12531,6352,2025-02-06 16:37:09,0.0
-9056,2368,-1516,8495,-6944,4928,2025-02-06 16:37:09,0.0
-8720,2092,-2204,8701,223,3356,2025-02-06 16:37:09,0.0
-9556,1980,-3000,8474,4638,2893,2025-02-06 16:37:09,0.0
-10552,2124,-3644,8100,6421,2893,2025-02-06 16:37:09,0.0
-11488,2152,-3788,7784,6648,2883,2025-02-06 16:37:09,0.0
-11884,2212,-3692,7553,4773,2376,2025-02-06 16:37:09,0.0
-12624,2204,-3912,7414,2529,1591,2025-02-06 16:37:09,0.0
-12644,1440,-3400,7386,424,767,2025-02-06 16:37:09,0.0
-13704,1216,-2992,7357,-1060,313,2025-02-06 16:37:09,0.0
-14316,1388,-2444,7319,-2150,757,2025-02-06 16:37:09,0.0
-13552,1040,-2692,7516,-3048,1178,2025-02-06 16:37:09,0.0
-12540,816,-3184,7362,-3685,861,2025-02-06 16:37:09,0.0
-11976,876,-4080,7106,-3434,391,2025-02-06 16:37:09,0.0
-11980,1088,-4148,6808,-2271,235,2025-02-06 16:37:09,0.0
-14664,1720,-3460,6434,349,1208,2025-02-06 16:37:09,0.0
-16640,1600,-1716,6472,2636,2992,2025-02-06 16:37:09,0.0
-17736,80,-48,7004,3397,4255,2025-02-06 16:37:09,0.0
-17184,-1760,-688,7883,1603,4229,2025-02-06 16:37:09,0.0
-15648,-796,-3076,8564,-430,3840,2025-02-06 16:37:09,0.0
-14516,1348,-5160,9050,-2780,4546,2025-02-06 16:37:09,0.0
-14072,2420,-6376,7900,-3794,5196,2025-02-06 16:37:09,0.0
-14688,3836,-5360,6712,-2626,5281,2025-02-06 16:37:09,0.0
-15396,4516,-5440,5911,647,4953,2025-02-06 16:37:09,0.0
-15916,5488,-6612,5100,3982,4908,2025-02-06 16:37:09,0.0
-15124,6004,-8320,4277,6155,5285,2025-02-06 16:37:09,0.0
-10488,3488,-9036,3124,4858,3591,2025-02-06 16:37:09,0.0
-9456,2252,-7244,3934,-475,845,2025-02-06 16:37:09,0.0
-9312,1320,-6904,5769,-6268,-864,2025-02-06 16:37:09,0.0
-8744,-72,-6884,6994,-10378,-1830,2025-02-06 16:37:09,0.0
-8268,-1016,-6820,7940,-13212,-1963,2025-02-06 16:37:09,0.0
-8232,-3384,-6852,8110,-13970,-1573,2025-02-06 16:37:09,0.0
-9684,-5288,-6092,7515,-10448,-748,2025-02-06 16:37:10,0.0
-11592,-5604,-3512,7878,-3446,941,2025-02-06 16:37:10,0.0
-11980,-4188,-2512,9436,4856,2948,2025-02-06 16:37:10,0.0
-11460,-2224,-3476,10651,10904,3764,2025-02-06 16:37:10,0.0
-12824,312,-3616,10981,14118,3601,2025-02-06 16:37:10,0.0
-13824,2396,-4432,10465,15129,2806,2025-02-06 16:37:10,0.0
-14528,4228,-6400,9312,15153,1118,2025-02-06 16:37:10,0.0
-14692,5128,-8056,7992,11478,-865,2025-02-06 16:37:10,0.0
-13968,4676,-9640,6610,6154,-2753,2025-02-06 16:37:10,0.0
-14432,-1040,-2600,3399,9724,1705,2025-02-06 16:37:10,0.0
-14868,-632,-3996,2986,6945,2349,2025-02-06 16:37:10,0.0
-14644,-64,-5164,2190,3272,3167,2025-02-06 16:37:10,0.0
-13936,588,-4984,978,-815,3587,2025-02-06 16:37:10,0.0
-13364,964,-3972,237,-3638,3353,2025-02-06 16:37:10,0.0
-13148,648,-3024,17,-4813,2789,2025-02-06 16:37:10,0.0
-12508,224,-2588,74,-4482,2320,2025-02-06 16:37:10,0.0
-12192,-216,-3208,431,-3173,2340,2025-02-06 16:37:10,0.0
-11712,-1024,-2756,573,-803,1551,2025-02-06 16:37:10,0.0
-13428,-1172,-636,575,1425,-264,2025-02-06 16:37:10,0.0
-16232,-76,772,450,2714,-2029,2025-02-06 16:37:10,0.0
-17264,1068,-136,-529,2190,-3431,2025-02-06 16:37:10,0.0
-16316,320,-2080,-1373,-91,-4194,2025-02-06 16:37:10,0.0
-13628,-2612,-3952,-1737,-4634,-4465,2025-02-06 16:37:10,0.0
-12004,-4764,-5104,-1580,-8048,-4370,2025-02-06 16:37:10,0.0
-11024,-5652,-5140,-296,-7697,-4445,2025-02-06 16:37:10,0.0
-11040,-5684,-4768,1973,-3931,-4878,2025-02-06 16:37:10,0.0
-11796,-5792,-4332,5319,4825,-6851,2025-02-06 16:37:10,0.0
-14012,-6064,-5548,8367,12605,-8724,2025-02-06 16:37:10,0.0
-17996,-5232,-7716,9554,16764,-7517,2025-02-06 16:37:10,0.0
-19956,-4772,-9496,9085,17598,-3747,2025-02-06 16:37:10,0.0
-19140,-4172,-11348,7297,13830,1759,2025-02-06 16:37:10,0.0
-15964,-2444,-12812,4056,4685,7554,2025-02-06 16:37:10,0.0
-11744,-304,-12708,1292,-5029,10819,2025-02-06 16:37:10,0.0
-8080,1456,-10804,818,-12118,10633,2025-02-06 16:37:10,0.0
-6284,2420,-8900,1433,-18074,8198,2025-02-06 16:37:10,0.0
-6100,2712,-6584,2348,-20147,5178,2025-02-06 16:37:10,0.0
-7160,1768,-3080,3650,-19042,1682,2025-02-06 16:37:10,0.0
-9772,648,8,5068,-13612,-999,2025-02-06 16:37:10,0.0
-12640,-684,700,6386,-1900,-669,2025-02-06 16:37:10,0.0
-12904,-1888,-1988,7438,8140,1571,2025-02-06 16:37:10,0.0
-12688,-1812,-5724,7164,13648,3940,2025-02-06 16:37:10,0.0
-12540,-1056,-6992,6439,15963,5515,2025-02-06 16:37:10,0.0
-13028,248,-6252,5885,13212,5851,2025-02-06 16:37:10,0.0
-13828,920,-7080,5756,7086,5375,2025-02-06 16:37:10,0.0
-13448,844,-7588,5436,1919,5320,2025-02-06 16:37:10,0.0
-12548,732,-6724,5222,-2721,5793,2025-02-06 16:37:10,0.0
-12148,600,-5364,5260,-5159,6134,2025-02-06 16:37:10,0.0
-11908,964,-4024,5469,-5804,6163,2025-02-06 16:37:10,0.0
-11540,1484,-2872,5799,-4681,5813,2025-02-06 16:37:10,0.0
-10940,1720,-1968,6092,-2537,4884,2025-02-06 16:37:10,0.0
-10748,1100,-1584,6562,-591,3734,2025-02-06 16:37:10,0.0
-11160,512,-1848,6975,484,3101,2025-02-06 16:37:10,0.0
-11360,100,-2180,7439,808,2903,2025-02-06 16:37:10,0.0
-11272,116,-2504,7733,974,2610,2025-02-06 16:37:10,0.0
-11376,-204,-2152,8041,768,1739,2025-02-06 16:37:10,0.0
-12624,-144,-1784,8461,940,1153,2025-02-06 16:37:10,0.0
-13308,-484,-2236,8775,1327,1176,2025-02-06 16:37:11,0.0
-14028,-344,-3032,8705,1638,1745,2025-02-06 16:37:11,0.0
-14104,-100,-3540,8577,1778,2628,2025-02-06 16:37:11,0.0
-13488,-408,-4236,8807,1518,2976,2025-02-06 16:37:11,0.0
-12916,-1092,-5412,8806,855,2612,2025-02-06 16:37:11,0.0
-13780,-428,-5844,8525,329,2829,2025-02-06 16:37:11,0.0
-15348,572,-4504,8759,-421,4014,2025-02-06 16:37:11,0.0
-16460,344,-2416,9307,-1680,5330,2025-02-06 16:37:11,0.0
-16764,-2004,-184,11041,-4265,6591,2025-02-06 16:37:11,0.0
-14328,-2708,-1808,12351,-3921,6497,2025-02-06 16:37:11,0.0
-12480,-1500,-3704,13428,-4348,6476,2025-02-06 16:37:11,0.0
-10912,-1032,-4520,13869,-5528,6756,2025-02-06 16:37:11,
-10260,-1372,-4648,14510,-5117,6566,2025-02-06 16:37:11,0.0
-11084,-1544,-5168,14799,-1501,5903,2025-02-06 16:37:11,0.0
-13684,268,-7092,14711,5816,6092,2025-02-06 16:37:11,0.0
-16648,3868,-10960,14656,14791,8236,2025-02-06 16:37:11,0.0
-15416,4352,-14140,11888,22971,11781,2025-02-06 16:37:11,0.0
-9500,2008,-13980,9384,17962,10492,2025-02-06 16:37:11,0.0
-6896,1308,-11868,9955,5346,6865,2025-02-06 16:37:11,0.0
-7252,-424,-9788,12611,-6712,3098,2025-02-06 16:37:11,0.0
-9304,-1764,-8480,13774,-15262,894,2025-02-06 16:37:11,0.0
-10504,-2184,-6992,14056,-20820,511,2025-02-06 16:37:11,0.0
-11524,-3212,-6784,13952,-21081,939,2025-02-06 16:37:11,0.0
-12052,-3964,-5428,13350,-15133,1303,2025-02-06 16:37:11,0.0
-12544,-2980,-3104,13730,-6778,2011,2025-02-06 16:37:11,0.0
-11532,-2016,-3084,14466,1782,2466,2025-02-06 16:37:11,0.0
-11044,-1492,-3872,14733,5769,2329,2025-02-06 16:37:11,0.0
-11536,-2180,-4492,15051,6468,2150,2025-02-06 16:37:11,0.0
-13004,-2824,-5268,15331,5545,2527,2025-02-06 16:37:11,0.0
-13144,-3528,-6180,15119,3026,3599,2025-02-06 16:37:11,0.0
-12568,-3716,-6160,14789,-249,4396,2025-02-06 16:37:11,0.0
-12368,-3180,-5708,15308,-2804,4976,2025-02-06 16:37:11,0.0
-11760,-2388,-4760,15306,-4573,5439,2025-02-06 16:37:11,0.0
-11236,-2244,-4124,15397,-4865,5589,2025-02-06 16:37:11,0.0
-10612,-2616,-3876,15220,-3770,5526,2025-02-06 16:37:11,0.0
-10224,-2900,-3828,15185,-1681,5445,2025-02-06 16:37:11,0.0
-10236,-3100,-3888,15009,1126,5389,2025-02-06 16:37:11,0.0
-10760,-3244,-4040,14694,3459,5626,2025-02-06 16:37:11,0.0
-11552,-3448,-5116,14088,5102,6017,2025-02-06 16:37:11,0.0
-12156,-3180,-5364,13305,5429,6462,2025-02-06 16:37:11,0.0
-13244,-2660,-4452,12557,4640,6542,2025-02-06 16:37:11,0.0
-14584,-1724,-4004,12180,3028,6829,2025-02-06 16:37:11,0.0
-14912,-848,-4168,11714,734,7599,2025-02-06 16:37:11,0.0
-13828,-712,-4532,11316,-1781,7876,2025-02-06 16:37:11,0.0
-12980,-668,-3968,10703,-3972,7124,2025-02-06 16:37:11,0.0
-13348,-216,-2932,9862,-5244,6430,2025-02-06 16:37:11,0.0
-13600,-180,-1540,8897,-6293,6204,2025-02-06 16:37:11,0.0
-13012,-1356,-1792,8050,-5794,5920,2025-02-06 16:37:11,0.0
-11580,-3452,-4336,8355,-915,4841,2025-02-06 16:37:11,0.0
-11008,-4804,-8664,10411,8920,2866,2025-02-06 16:37:11,0.0
-11088,-5048,-7700,13722,16853,-317,2025-02-06 16:37:11,0.0
-14016,-4104,-6888,15298,15205,-2171,2025-02-06 16:37:11,0.0
-18304,-3288,-8792,13154,8226,-518,2025-02-06 16:37:11,0.0
-19100,-4572,-11004,9868,2541,4177,2025-02-06 16:37:11,0.0
-14524,-5868,-11772,8390,-2620,8706,2025-02-06 16:37:11,0.0
-11172,-4816,-11184,8402,-7787,11537,2025-02-06 16:37:11,0.0
-9356,-3068,-10000,8607,-11547,12836,2025-02-06 16:37:11,0.0
-8228,-856,-7940,9241,-14327,12883,2025-02-06 16:37:11,0.0
-7656,1592,-5684,10908,-13356,10997,2025-02-06 16:37:11,0.0
-7520,2800,-3996,12872,-8259,7719,2025-02-06 16:37:11,0.0
-8500,2548,-4188,14338,-1571,4943,2025-02-06 16:37:11,0.0
-10404,1256,-5688,14199,5134,4060,2025-02-06 16:37:11,0.0
-12256,-328,-5768,14028,10404,4326,2025-02-06 16:37:11,0.0
-14484,-1924,-4084,14203,10608,5202,2025-02-06 16:37:11,0.0
-15964,-3456,-6468,14801,8121,7189,2025-02-06 16:37:11,0.0
-14876,-3860,-8848,15245,5005,9278,2025-02-06 16:37:11,0.0
-12980,-2712,-9548,15558,-1273,11538,2025-02-06 16:37:12,0.0
-10608,-924,-10428,15880,-6282,12378,2025-02-06 16:37:12,0.0
-9344,680,-9428,16219,-8996,12254,2025-02-06 16:37:12,0.0
-8620,2116,-8248,16125,-10225,11263,2025-02-06 16:37:12,0.0
-9360,2976,-7056,15496,-8814,9865,2025-02-06 16:37:12,0.0
-10692,3316,-5276,15222,-5051,8389,2025-02-06 16:37:12,0.0
-12128,2564,-4328,15322,-1563,7585,2025-02-06 16:37:12,0.0
-13396,1332,-5332,15261,579,8019,2025-02-06 16:37:12,0.0
-13640,304,-6424,14711,1626,9024,2025-02-06 16:37:12,0.0
-12284,248,-7528,14281,964,9749,2025-02-06 16:37:12,0.0
-12016,1356,-7352,13797,-952,9830,2025-02-06 16:37:12,0.0
-10724,2396,-7176,13226,-3093,9447,2025-02-06 16:37:12,0.0
-10244,3096,-6072,12920,-4585,8668,2025-02-06 16:37:12,0.0
-10044,3684,-5752,12595,-4897,7860,2025-02-06 16:37:12,0.0
-9936,3864,-5036,11918,-3980,7131,2025-02-06 16:37:12,0.0
-9620,3984,-4800,11062,-2253,6239,2025-02-06 16:37:12,0.0
-9604,3836,-4304,10239,-648,5285,2025-02-06 16:37:12,0.0
-10488,3792,-3560,9455,276,4480,2025-02-06 16:37:12,0.0
-11072,3712,-3160,8879,505,3662,2025-02-06 16:37:12,0.0
-11356,3536,-2616,8570,108,2670,2025-02-06 16:37:12,0.0
-11244,2884,-2256,8239,-712,1338,2025-02-06 16:37:12,0.0
-11620,2316,-2076,7834,-1359,173,2025-02-06 16:37:12,0.0
-12348,1820,-2292,7481,-1105,-269,2025-02-06 16:37:12,0.0
-12572,908,-2420,7450,1,-646,2025-02-06 16:37:12,0.0
-13184,-1152,-2380,7796,914,-1330,2025-02-06 16:37:12,0.0
-14164,-3660,-2068,8456,1282,-2304,2025-02-06 16:37:12,0.0
-15756,-4676,-2100,8882,1039,-2327,2025-02-06 16:37:12,0.0
-16780,-3880,-2552,9167,181,-590,2025-02-06 16:37:12,0.0
-15664,-2492,-3424,9154,-1349,1801,2025-02-06 16:37:12,0.0
-15524,-628,-4652,8201,-453,3210,2025-02-06 16:37:12,0.0
-15824,720,-5852,7270,1957,3603,2025-02-06 16:37:12,0.0
-15940,3040,-7572,6167,3507,4554,2025-02-06 16:37:12,0.0
-15764,6076,-11496,4785,5815,6409,2025-02-06 16:37:12,0.0
-17440,9296,-14668,2603,11856,9693,2025-02-06 16:37:12,0.0
-9680,7760,-13728,706,13600,9913,2025-02-06 16:37:12,0.0
-2884,4596,-10060,1874,2576,3498,2025-02-06 16:37:12,0.0
-4312,2272,-9492,4303,-8662,-2764,2025-02-06 16:37:12,0.0
-10056,1676,-8084,4621,-14086,-3628,2025-02-06 16:37:12,0.0
-13564,1760,-5996,4303,-13964,-254,2025-02-06 16:37:12,0.0
-12528,2012,-4616,4470,-9892,2230,2025-02-06 16:37:12,0.0
-10488,2036,-4596,4149,-5183,1984,2025-02-06 16:37:12,0.0
-8696,2164,-4580,3498,-1509,-228,2025-02-06 16:37:12,0.0
-9236,2600,-4852,3573,1626,-2903,2025-02-06 16:37:12,0.0
-10144,2796,-6840,3386,3606,-4003,2025-02-06 16:37:12,0.0
-11600,2824,-7944,2464,3699,-4091,2025-02-06 16:37:12,0.0
-11716,3040,-8036,1199,1661,-3793,2025-02-06 16:37:12,
-10316,2780,-8268,-227,-905,-3967,2025-02-06 16:37:12,0.0
-9412,2436,-7296,-1133,-2188,-4816,2025-02-06 16:37:12,0.0
-9356,2084,-6348,-1841,-2880,-5877,2025-02-06 16:37:12,0.0
-10180,1464,-5660,-2279,-2310,-6729,2025-02-06 16:37:12,0.0
-11192,416,-5392,-2953,-523,-6915,2025-02-06 16:37:12,0.0
-11528,-496,-5332,-3697,744,-6467,2025-02-06 16:37:12,0.0
-11484,-1488,-5036,-4369,875,-5918,2025-02-06 16:37:12,0.0
-11604,-1820,-4564,-4891,695,-5310,2025-02-06 16:37:12,0.0
-11780,-1924,-4252,-5066,423,-4586,2025-02-06 16:37:12,0.0
-11964,-1508,-4148,-5301,-103,-3685,2025-02-06 16:37:12,0.0
-12052,-1328,-3740,-5952,-157,-2961,2025-02-06 16:37:12,0.0
-12116,-128,-3324,-7064,-95,-2491,2025-02-06 16:37:12,0.0
-12548,1344,-2160,-8285,-228,-2013,2025-02-06 16:37:12,0.0
-12348,2620,-1880,-8897,-538,-1737,2025-02-06 16:37:13,0.0
-11776,2340,-2904,-8921,-721,-2290,2025-02-06 16:37:13,0.0
-11376,416,-2892,-9015,-428,-3415,2025-02-06 16:37:13,0.0
-11700,-2492,-2956,-8278,532,-5084,2025-02-06 16:37:13,0.0
-14188,-3848,-3004,-7438,1348,-5852,2025-02-06 16:37:13,0.0
-15824,-3528,-3684,-7481,1041,-4834,2025-02-06 16:37:13,0.0
-15612,-2096,-4004,-7912,453,-4141,2025-02-06 16:37:13,0.0
-14528,-592,-3732,-8234,-669,-4737,2025-02-06 16:37:13,0.0
-13392,88,-5964,-8219,-945,-6062,2025-02-06 16:37:13,0.0
-11892,1264,-7880,-8638,-468,-7051,2025-02-06 16:37:13,0.0
-9732,1912,-8480,-8208,-910,-8473,2025-02-06 16:37:13,0.0
-9428,2504,-10608,-6090,1650,-9966,2025-02-06 16:37:13,0.0
-10764,2504,-10992,-4471,5701,-11783,2025-02-06 16:37:13,0.0
-14500,740,-12296,-5267,8985,-12366,2025-02-06 16:37:13,0.0
-21100,-772,-12548,-9079,11826,-9262,2025-02-06 16:37:13,0.0
-20636,368,-12608,-12645,8272,-2603,2025-02-06 16:37:13,0.0
-13636,2880,-14664,-16258,2411,1340,2025-02-06 16:37:13,0.0
-9896,5584,-13260,-18062,-2971,1859,2025-02-06 16:37:13,0.0
-7464,6768,-9892,-17949,-9289,834,2025-02-06 16:37:13,0.0
-6764,5700,-6924,-16632,-14312,-1767,2025-02-06 16:37:13,0.0
-8384,3664,-4668,-15466,-15275,-4333,2025-02-06 16:37:13,0.0
-10640,1152,-2496,-14794,-13251,-5706,2025-02-06 16:37:13,0.0
-12204,-1292,-1376,-14160,-6842,-5229,2025-02-06 16:37:13,0.0
-11428,-1480,-2292,-13153,-99,-3535,2025-02-06 16:37:13,0.0
-9596,-564,-4220,-12668,4588,-2279,2025-02-06 16:37:13,0.0
-9040,704,-4476,-12631,6564,-1452,2025-02-06 16:37:13,0.0
-10104,2104,-3968,-12570,7288,-996,2025-02-06 16:37:13,0.0
-11240,2924,-3852,-12701,8070,-1058,2025-02-06 16:37:13,0.0
-12052,2968,-4028,-12878,8750,-1182,2025-02-06 16:37:13,0.0
-13188,2488,-4324,-12763,8482,-1046,2025-02-06 16:37:13,0.0
-12752,1704,-5072,-12074,6712,-613,2025-02-06 16:37:13,0.0
-11840,1796,-4864,-11290,2905,-227,2025-02-06 16:37:13,0.0
-11672,2212,-4080,-10469,-361,82,2025-02-06 16:37:13,0.0
-10808,2564,-2872,-9144,-2228,226,2025-02-06 16:37:13,0.0
-9848,3016,-2068,-7645,-2720,-390,2025-02-06 16:37:13,0.0
-9780,2960,-1316,-6180,-1278,-1540,2025-02-06 16:37:13,0.0
-10512,2800,-160,-4978,1577,-2523,2025-02-06 16:37:13,0.0
-12196,2416,712,-3501,4320,-2945,2025-02-06 16:37:13,0.0
-13748,2192,772,-2404,5880,-3058,2025-02-06 16:37:13,0.0
-14716,2600,-428,-2237,4271,-3122,2025-02-06 16:37:13,0.0
-14280,3868,-3440,-2756,2658,-3040,2025-02-06 16:37:13,0.0
-13260,6472,-5836,-4024,1074,-2401,2025-02-06 16:37:13,0.0
-11208,7932,-6108,-5287,-647,-2150,2025-02-06 16:37:13,0.0
-12228,8444,-5020,-6013,-899,-2824,2025-02-06 16:37:13,0.0
-16124,7008,-2180,-6041,2194,-2949,2025-02-06 16:37:13,0.0
-19020,2896,172,-4931,4632,-2763,2025-02-06 16:37:13,0.0
-20064,92,-2216,-4129,7034,-2521,2025-02-06 16:37:13,0.0
-13996,8164,-14388,-5631,679,5009,2025-02-06 16:37:13,0.0
-12384,9880,-14040,-8370,2663,4545,2025-02-06 16:37:13,0.0
-8464,8008,-11276,-9097,3671,1739,2025-02-06 16:37:13,0.0
-6560,3624,-9376,-7543,904,-3885,2025-02-06 16:37:13,0.0
-7424,1128,-8808,-5083,-3873,-7764,2025-02-06 16:37:13,0.0
-7628,-856,-9360,-3779,-7109,-8702,2025-02-06 16:37:13,0.0
-8224,-2116,-8980,-2871,-9557,-7805,2025-02-06 16:37:13,0.0
-9220,-2096,-8360,-2478,-10105,-5631,2025-02-06 16:37:13,0.0
-10592,-1108,-7416,-2573,-8158,-2314,2025-02-06 16:37:13,0.0
-11504,-640,-6304,-3022,-4134,88,2025-02-06 16:37:14,0.0
-11848,348,-4556,-3027,303,775,2025-02-06 16:37:14,0.0
-11828,1784,-3796,-2499,2991,-272,2025-02-06 16:37:14,0.0
-11856,3044,-4400,-1806,3854,-2699,2025-02-06 16:37:14,0.0
-10744,3336,-6312,-1428,2489,-5379,2025-02-06 16:37:14,0.0
-10780,2840,-6920,-1242,-287,-7078,2025-02-06 16:37:14,0.0
-12324,2144,-6368,-998,-3173,-7145,2025-02-06 16:37:14,0.0
-11692,140,-6196,-1017,-5528,-6009,2025-02-06 16:37:14,0.0
-11068,-812,-5768,-1596,-6688,-5060,2025-02-06 16:37:14,0.0
-11244,-656,-3580,-1881,-6444,-3825,2025-02-06 16:37:14,0.0
-11012,-332,-2664,-1366,-4452,-3119,2025-02-06 16:37:14,0.0
-11292,-32,-2304,-619,-1116,-2613,2025-02-06 16:37:14,0.0
-11496,168,-1592,-81,2219,-2580,2025-02-06 16:37:14,0.0
-11924,216,-1800,216,3772,-2581,2025-02-06 16:37:14,0.0
-12292,-12,-2412,253,3341,-2493,2025-02-06 16:37:14,0.0
-12196,-264,-2856,225,2104,-2391,2025-02-06 16:37:14,0.0
-12220,-528,-3028,-152,-466,-1889,2025-02-06 16:37:14,0.0
-12420,-476,-2664,-722,-1997,-977,2025-02-06 16:37:14,0.0
-12344,-148,-2016,-1289,-2055,-250,2025-02-06 16:37:14,0.0
-12284,536,-1596,-1881,-1690,226,2025-02-06 16:37:14,0.0
-12232,668,-1012,-2426,-1534,453,2025-02-06 16:37:14,0.0
-12184,104,-696,-2841,-1580,133,2025-02-06 16:37:14,0.0
-12236,-680,-840,-3070,-1325,-629,2025-02-06 16:37:14,0.0
-12312,-1408,-1772,-2822,-682,-1242,2025-02-06 16:37:14,0.0
-13244,-732,-2520,-2196,-108,-487,2025-02-06 16:37:14,0.0
-12548,-400,-3592,-1007,104,972,2025-02-06 16:37:14,0.0
-11780,-1940,-2952,-376,841,349,2025-02-06 16:37:14,0.0
-13284,-2736,-780,144,2897,-2701,2025-02-06 16:37:14,0.0
-17200,12,916,1057,4582,-5274,2025-02-06 16:37:14,0.0
-18520,2780,-1380,1519,3055,-5122,2025-02-06 16:37:14,0.0
-14688,-696,-6864,1253,2206,-4841,2025-02-06 16:37:14,
-13612,-5724,-8132,1864,4810,-6926,2025-02-06 16:37:14,0.0
-17640,-7152,-6856,4970,10366,-7751,2025-02-06 16:37:14,0.0
-20324,-6856,-7580,7755,15776,-7325,2025-02-06 16:37:14,0.0
-19856,-4004,-11500,9146,17581,-4268,2025-02-06 16:37:14,0.0
-16868,-2280,-15416,7847,12778,542,2025-02-06 16:37:14,0.0
-13816,-916,-17504,4558,2909,3961,2025-02-06 16:37:14,0.0
-10720,956,-16392,391,-8392,5977,2025-02-06 16:37:14,0.0
-8080,2808,-12800,-3470,-21521,7633,2025-02-06 16:37:14,0.0
-6592,3068,-9624,-5317,-30165,8422,2025-02-06 16:37:14,0.0
-5536,2596,-6684,-5017,-32768,7992,2025-02-06 16:37:14,0.0
-5144,1736,-3920,-3301,-32768,6183,2025-02-06 16:37:14,0.0
-7664,1032,4104,-158,-23955,2872,2025-02-06 16:37:14,0.0
-8448,-272,6208,3414,-3108,-155,2025-02-06 16:37:14,0.0
-8920,-1040,1264,5774,12295,-499,2025-02-06 16:37:14,0.0
-10456,-1444,-5668,6192,20417,1114,2025-02-06 16:37:14,0.0
-12964,-804,-6660,4935,21818,2670,2025-02-06 16:37:14,0.0
-15640,116,-4760,3679,19759,4637,2025-02-06 16:37:14,0.0
-16768,1020,-4952,3408,12204,5854,2025-02-06 16:37:14,0.0
-15560,1904,-7308,3419,6476,5954,2025-02-06 16:37:14,0.0
-13344,2092,-9816,2378,92,6011,2025-02-06 16:37:14,0.0
-11280,2120,-8080,698,-6581,6157,2025-02-06 16:37:14,0.0
-10056,2068,-5112,471,-12362,6055,2025-02-06 16:37:14,0.0
-9752,2120,-3140,731,-15768,5420,2025-02-06 16:37:14,0.0
-9568,2420,-848,1115,-15119,4381,2025-02-06 16:37:14,0.0
-9344,2320,1028,1857,-9682,2809,2025-02-06 16:37:14,0.0
-8988,1668,1664,2879,-1019,1082,2025-02-06 16:37:15,0.0
-9732,1100,536,3324,5336,39,2025-02-06 16:37:15,0.0
-10648,888,-452,3499,7719,-467,2025-02-06 16:37:15,0.0
-11664,484,-1044,3634,7457,-951,2025-02-06 16:37:15,0.0
-12100,0,-1456,3648,5165,-1503,2025-02-06 16:37:15,0.0
-12368,-248,-2228,3455,1787,-1971,2025-02-06 16:37:15,0.0
-13268,640,-3524,2953,-722,-1833,2025-02-06 16:37:15,0.0
-13584,1876,-4144,1984,-1914,-911,2025-02-06 16:37:15,0.0
-13304,3132,-3504,1074,-2324,-269,2025-02-06 16:37:15,0.0
-13200,1952,-996,470,-832,-1822,2025-02-06 16:37:15,0.0
-14220,1032,-68,831,186,-2168,2025-02-06 16:37:15,0.0
-14680,680,172,1562,818,-1602,2025-02-06 16:37:15,0.0
-14920,1056,-1588,2020,1474,-343,2025-02-06 16:37:15,0.0
-15216,1328,-4232,1945,4886,1380,2025-02-06 16:37:15,0.0
-16892,2288,-3592,2010,7258,2505,2025-02-06 16:37:15,0.0
-18652,3156,-2712,1659,7437,3542,2025-02-06 16:37:15,0.0
-17224,4180,-4924,1935,6963,3587,2025-02-06 16:37:15,0.0
-14796,4884,-8532,2604,8031,1797,2025-02-06 16:37:15,0.0
-14696,5732,-13444,2206,10018,574,2025-02-06 16:37:15,0.0
-13468,5116,-16908,-1857,11022,1575,2025-02-06 16:37:15,0.0
-9584,4256,-12400,-5096,3353,1836,2025-02-06 16:37:15,0.0
-6328,3784,-9328,-5869,-6730,389,2025-02-06 16:37:15,0.0
-4548,3696,-7960,-6208,-14367,-2345,2025-02-06 16:37:15,0.0
-5744,4020,-8236,-6935,-15675,-4716,2025-02-06 16:37:15,0.0
-9080,4176,-7852,-8079,-8394,-6119,2025-02-06 16:37:15,0.0
-13120,3492,-6048,-8847,5200,-6156,2025-02-06 16:37:15,0.0
-14240,2380,-4884,-9286,14616,-6417,2025-02-06 16:37:15,0.0
-13464,2168,-6692,-9292,16255,-7910,2025-02-06 16:37:15,0.0
-11436,2116,-9232,-9113,12968,-9552,2025-02-06 16:37:15,0.0
-10140,1712,-11208,-9641,5865,-10568,2025-02-06 16:37:15,0.0
-9720,712,-11316,-10712,-1080,-10776,2025-02-06 16:37:15,0.0
-9844,16,-9800,-11663,-5027,-10540,2025-02-06 16:37:15,0.0
-10368,200,-7976,-12667,-6980,-9694,2025-02-06 16:37:15,0.0
-10132,968,-6568,-13616,-7304,-8298,2025-02-06 16:37:15,0.0
-9064,1768,-6352,-14735,-6832,-7136,2025-02-06 16:37:15,0.0
-8036,1988,-6304,-16054,-5060,-6440,2025-02-06 16:37:15,0.0
-7120,1552,-5964,-16686,-2189,-6536,2025-02-06 16:37:15,0.0
-7420,404,-5540,-16398,1876,-7184,2025-02-06 16:37:15,0.0
-9636,-976,-6456,-16041,7348,-7344,2025-02-06 16:37:15,0.0
-11480,-2232,-7688,-16484,11725,-7186,2025-02-06 16:37:15,0.0
-13372,-804,-7840,-16993,14178,-6811,2025-02-06 16:37:15,0.0
-14108,2176,-8260,-17653,13030,-5986,2025-02-06 16:37:15,0.0
-12772,4524,-8676,-18556,9495,-6094,2025-02-06 16:37:15,0.0
-10828,5092,-8548,-19056,3848,-7481,2025-02-06 16:37:15,0.0
-10100,1644,-8648,-18814,-1593,-10195,2025-02-06 16:37:15,0.0
-12068,-1600,-8124,-18994,-4842,-10976,2025-02-06 16:37:15,0.0
-13080,-3668,-7640,-19710,-7182,-9464,2025-02-06 16:37:15,0.0
-11696,-5600,-7916,-20343,-6984,-7577,2025-02-06 16:37:15,0.0
-10708,-5724,-9052,-21273,-4291,-6434,2025-02-06 16:37:15,0.0
-11260,-400,-7264,-22728,-1965,-4007,2025-02-06 16:37:15,0.0
-10824,4048,-6100,-23154,629,-2379,2025-02-06 16:37:15,0.0
-9776,7096,-4408,-22022,4810,-3638,2025-02-06 16:37:15,0.0
-8952,5564,-3512,-18403,8554,-8227,2025-02-06 16:37:15,0.0
-11400,684,-9528,-16612,11122,-12680,2025-02-06 16:37:15,0.0
-13512,-2144,-13376,-18798,11189,-12213,2025-02-06 16:37:15,0.0
-12344,-2012,-12832,-20644,9449,-9565,2025-02-06 16:37:15,0.0
-10976,-472,-11192,-20953,6195,-7263,2025-02-06 16:37:15,0.0
-10496,1668,-9048,-21226,3538,-6578,2025-02-06 16:37:15,0.0
-11212,3876,-7068,-21627,2054,-6934,2025-02-06 16:37:15,0.0
-11220,4704,-6688,-22227,1737,-7334,2025-02-06 16:37:15,0.0
-10124,4452,-6800,-22408,2290,-7714,2025-02-06 16:37:15,0.0
-9044,3244,-6724,-21730,3076,-8714,2025-02-06 16:37:15,0.0
-8812,1924,-6620,-20733,2379,-9608,2025-02-06 16:37:15,0.0
-9660,1068,-6588,-20328,1454,-10018,2025-02-06 16:37:15,0.0
-10688,996,-6376,-20274,1040,-9448,2025-02-06 16:37:15,0.0
-11156,1588,-5400,-19916,1775,-8754,2025-02-06 16:37:15,0.0
-11212,2148,-5084,-19319,3380,-8471,2025-02-06 16:37:16,0.0
-11372,2792,-5128,-18653,5128,-8843,2025-02-06 16:37:16,0.0
-11756,3316,-5536,-18309,6225,-9349,2025-02-06 16:37:16,0.0
-12120,3784,-6072,-18139,6494,-9647,2025-02-06 16:37:16,0.0
-12020,3460,-6796,-18099,5868,-9684,2025-02-06 16:37:16,0.0
-11716,2964,-7184,-18234,4593,-9750,2025-02-06 16:37:16,0.0
-11752,2344,-6396,-18004,2839,-9763,2025-02-06 16:37:16,0.0
-12328,2144,-5616,-17394,1061,-9334,2025-02-06 16:37:16,0.0
-12504,2172,-5112,-16990,-87,-8623,2025-02-06 16:37:16,
-12336,2208,-4068,-16450,-376,-7831,2025-02-06 16:37:16,0.0
-12264,2344,-3376,-15417,-2,-7259,2025-02-06 16:37:16,0.0
-12400,2736,-3020,-14361,637,-6660,2025-02-06 16:37:16,0.0
-12408,3252,-2652,-13422,1093,-6182,2025-02-06 16:37:16,0.0
-12684,6296,-2356,-6510,4528,-4535,2025-02-06 16:37:16,0.0
-13068,6448,-6828,-6411,9063,-4418,2025-02-06 16:37:16,0.0
-15136,7400,-8904,-7061,14403,-3167,2025-02-06 16:37:16,0.0
-16264,7200,-8144,-7987,17926,-1575,2025-02-06 16:37:16,0.0
-15744,4940,-5948,-7817,14928,-2391,2025-02-06 16:37:16,0.0
-13828,3088,-7068,-6076,9885,-5081,2025-02-06 16:37:16,0.0
-10800,3476,-10100,-3754,1269,-7845,2025-02-06 16:37:16,0.0
-9284,3296,-12580,-3184,-6851,-8804,2025-02-06 16:37:16,0.0
-9492,2196,-11948,-4645,-9847,-8450,2025-02-06 16:37:16,0.0
-10116,1436,-10936,-6929,-9003,-7238,2025-02-06 16:37:16,0.0
-10332,1032,-9368,-8188,-4490,-6053,2025-02-06 16:37:16,0.0
-9544,804,-7680,-7768,836,-5491,2025-02-06 16:37:16,0.0
-8116,548,-6932,-6180,4594,-5971,2025-02-06 16:37:16,0.0
-8288,548,-7756,-5101,5301,-6729,2025-02-06 16:37:16,0.0
-9864,524,-9032,-4759,5234,-7135,2025-02-06 16:37:16,0.0
-11244,740,-9584,-5010,5437,-7345,2025-02-06 16:37:16,0.0
-11916,720,-9328,-5560,4615,-7597,2025-02-06 16:37:16,0.0
-12240,584,-8500,-6291,2366,-8406,2025-02-06 16:37:16,0.0
-12556,688,-7968,-7238,-1750,-9189,2025-02-06 16:37:16,0.0
-11872,820,-8116,-7758,-4087,-9220,2025-02-06 16:37:16,0.0
-10548,840,-7696,-8032,-5533,-9031,2025-02-06 16:37:16,0.0
-9396,336,-7004,-8008,-6830,-8968,2025-02-06 16:37:16,0.0
-9064,-312,-6228,-7605,-7417,-9200,2025-02-06 16:37:16,0.0
-9260,-1016,-5584,-7082,-6704,-9485,2025-02-06 16:37:16,0.0
-10000,-1836,-5592,-6859,-4448,-9446,2025-02-06 16:37:16,0.0
-11016,-2160,-5264,-6825,-1307,-8502,2025-02-06 16:37:16,0.0
-11660,-2332,-4400,-6437,1457,-7415,2025-02-06 16:37:16,0.0
-12024,-2132,-3920,-5647,3053,-6490,2025-02-06 16:37:16,0.0
-12540,-1940,-3996,-5090,2981,-6048,2025-02-06 16:37:16,0.0
-13500,-1500,-4748,-4920,1720,-5900,2025-02-06 16:37:16,0.0
-13660,-780,-4804,-4790,-751,-5276,2025-02-06 16:37:16,0.0
-12888,-756,-3968,-4529,-3924,-4805,2025-02-06 16:37:16,0.0
-11952,-1092,-4048,-4679,-6687,-4316,2025-02-06 16:37:16,0.0
-11176,-1388,-3536,-5271,-8812,-3853,2025-02-06 16:37:16,0.0
-11240,-1400,-3368,-5948,-9404,-3102,2025-02-06 16:37:16,0.0
-12068,-608,-2652,-6740,-7994,-1391,2025-02-06 16:37:16,0.0
-12548,120,-1176,-7475,-4215,573,2025-02-06 16:37:16,0.0
-12068,-364,32,-7671,618,865,2025-02-06 16:37:16,0.0
-11972,-1212,1232,-7220,4616,-285,2025-02-06 16:37:17,0.0
-13848,-1432,204,-6596,7527,-1543,2025-02-06 16:37:17,0.0
-15944,-480,-552,-5863,8794,-990,2025-02-06 16:37:17,0.0
-15392,-588,-1488,-4143,8191,-250,2025-02-06 16:37:17,0.0
-15816,-1204,-2132,-2577,5994,-1679,2025-02-06 16:37:17,0.0
-17900,12,-1856,-2663,2039,-2714,2025-02-06 16:37:17,0.0
-19704,2372,-1872,-3690,-2580,-2641,2025-02-06 16:37:17,0.0
-18612,3044,-3160,-4268,-6043,-1260,2025-02-06 16:37:17,0.0
-13356,-1788,-5992,-4107,-7675,-1611,2025-02-06 16:37:17,0.0
-11104,-5412,-6288,-2244,-6669,-4033,2025-02-06 16:37:17,0.0
-11804,-7500,-5652,2120,-1760,-6540,2025-02-06 16:37:17,0.0
-12492,-9352,-7696,7042,6318,-9366,2025-02-06 16:37:17,0.0
-14916,-7784,-11112,9031,11004,-8764,2025-02-06 16:37:17,0.0
-15636,-5032,-13316,6787,7335,-3397,2025-02-06 16:37:17,0.0
-14412,-3276,-14900,1933,-267,3158,2025-02-06 16:37:17,0.0
-12620,-820,-14572,-2707,-4472,7223,2025-02-06 16:37:17,0.0
-10792,2008,-11696,-5549,-5505,8501,2025-02-06 16:37:17,0.0
-9760,3960,-6716,-4126,-5912,6762,2025-02-06 16:37:17,0.0
-9336,2692,-3748,318,-6911,3604,2025-02-06 16:37:17,0.0
-9820,-620,-6376,2512,-7952,985,2025-02-06 16:37:17,0.0
-11764,-2648,-6212,1710,-7314,925,2025-02-06 16:37:17,0.0
-12676,-2884,-4292,984,-6789,2763,2025-02-06 16:37:17,0.0
-12108,-1744,-2136,1243,-5635,5341,2025-02-06 16:37:17,0.0
-13248,-400,-2908,1015,-3016,7863,2025-02-06 16:37:17,0.0
-10716,1056,-3884,983,-591,9288,2025-02-06 16:37:17,0.0
-9996,2412,-4080,1596,1759,8678,2025-02-06 16:37:17,0.0
-9380,3416,-4000,2456,2783,7021,2025-02-06 16:37:17,0.0
-9636,3404,-4084,2703,2213,5051,2025-02-06 16:37:17,0.0
-10520,2952,-4248,2329,1066,3774,2025-02-06 16:37:17,0.0
-11640,2576,-3716,1848,739,3709,2025-02-06 16:37:17,0.0
-11988,1988,-3384,1533,674,3781,2025-02-06 16:37:17,0.0
-11800,1532,-2836,1549,586,3295,2025-02-06 16:37:17,0.0
-11596,1072,-2884,1894,283,2582,2025-02-06 16:37:17,0.0
-11128,744,-3608,2156,124,2034,2025-02-06 16:37:17,0.0
-10712,572,-3532,2123,-554,1738,2025-02-06 16:37:17,0.0
-10580,592,-3108,2166,-1075,1660,2025-02-06 16:37:17,0.0
-10536,720,-2032,2234,-1137,1595,2025-02-06 16:37:17,0.0
-10712,1040,-1260,2562,-273,1540,2025-02-06 16:37:17,0.0
-12004,1320,-516,3230,1534,1454,2025-02-06 16:37:17,0.0
-13576,1476,336,4195,2552,1494,2025-02-06 16:37:17,0.0
-14000,952,348,5190,1961,1642,2025-02-06 16:37:17,0.0
-12748,180,-1236,5670,-180,909,2025-02-06 16:37:17,0.0
-11564,444,-3624,5721,-2527,-312,2025-02-06 16:37:17,0.0
-11304,2172,-5684,5241,-3717,-242,2025-02-06 16:37:17,0.0
-11668,3748,-5352,4115,-4194,562,2025-02-06 16:37:17,0.0
-14892,5224,-2520,3591,-2175,1418,2025-02-06 16:37:17,0.0
-18920,5920,-580,3311,3644,3157,2025-02-06 16:37:17,0.0
-18452,3748,-1228,2869,7779,3782,2025-02-06 16:37:17,0.0
-15944,1952,-4908,1726,9185,2782,2025-02-06 16:37:17,0.0
-13956,3256,-6916,1366,7178,1664,2025-02-06 16:37:17,0.0
-15740,5404,-10448,991,4796,2502,2025-02-06 16:37:17,0.0
-17508,5816,-12056,-1247,5135,4177,2025-02-06 16:37:17,0.0
-16724,4504,-11044,-3284,5960,4218,2025-02-06 16:37:17,0.0
-15192,3900,-11996,-3330,7001,3101,2025-02-06 16:37:17,0.0
-11228,1408,-11668,-2592,3109,1173,2025-02-06 16:37:17,0.0
-9476,-220,-9776,-358,-4516,-327,2025-02-06 16:37:17,0.0
-7616,-1908,-8876,1982,-11927,-989,2025-02-06 16:37:17,0.0
-6968,-3584,-6832,3643,-18049,-1645,2025-02-06 16:37:17,
-7020,-4476,-5776,5067,-22876,-2368,2025-02-06 16:37:17,0.0
-9348,-4272,-5244,6050,-22454,-2386,2025-02-06 16:37:17,0.0
-11644,-2872,-4584,5638,-15485,-710,2025-02-06 16:37:17,0.0
-12248,68,-1604,5070,-3701,1855,2025-02-06 16:37:18,0.0
-10336,3252,-1796,4613,7403,3001,2025-02-06 16:37:18,0.0
-9420,5344,-3960,3399,12362,2075,2025-02-06 16:37:18,0.0
-9524,5692,-5444,2130,14473,-66,2025-02-06 16:37:18,0.0
-9716,5012,-4908,1329,14559,-2987,2025-02-06 16:37:18,0.0
-11304,3704,-6284,622,11206,-5542,2025-02-06 16:37:18,0.0
-14016,1368,-7244,-249,5435,-6341,2025-02-06 16:37:18,0.0
-13452,-868,-7964,-1071,1026,-6274,2025-02-06 16:37:18,0.0
-12764,-2536,-6600,-1287,-3510,-5305,2025-02-06 16:37:18,0.0
-12724,-3232,-4616,-1264,-7976,-3617,2025-02-06 16:37:18,0.0
-12516,-3576,-2716,-788,-9921,-2236,2025-02-06 16:37:18,0.0
-12252,-3304,-1732,-20,-8883,-1342,2025-02-06 16:37:18,0.0
-12340,-2380,-836,629,-5563,-715,2025-02-06 16:37:18,0.0
-11940,-948,-872,1007,-1175,-212,2025-02-06 16:37:18,0.0
-10820,-144,-1324,1018,2031,-139,2025-02-06 16:37:18,0.0
-11164,-16,-1380,1151,3133,-172,2025-02-06 16:37:18,0.0
-12372,332,-1156,1090,2664,161,2025-02-06 16:37:18,0.0
-12472,420,-1900,890,1596,679,2025-02-06 16:37:18,0.0
-12664,740,-2152,310,361,1248,2025-02-06 16:37:18,0.0
-13028,1172,-1216,-542,-665,1867,2025-02-06 16:37:18,0.0
-12816,1404,-1588,-1362,-1000,2493,2025-02-06 16:37:18,0.0
-12384,1024,-1264,-1915,-371,2189,2025-02-06 16:37:18,0.0
-11868,604,-1868,-1687,1057,1512,2025-02-06 16:37:18,0.0
-13604,1160,-2388,-1406,2285,2220,2025-02-06 16:37:18,0.0
-11920,-116,-3492,-177,2974,2333,2025-02-06 16:37:18,0.0
-13396,-968,-2532,560,3933,-259,2025-02-06 16:37:18,0.0
-16804,432,-12,585,3562,-2287,2025-02-06 16:37:18,0.0
-18592,2636,424,-158,1858,-3727,2025-02-06 16:37:18,0.0
-17836,2888,-1616,-1253,-503,-4137,2025-02-06 16:37:18,0.0
-13704,-432,-4208,-2716,-5191,-4238,2025-02-06 16:37:18,0.0
-11460,-3520,-4756,-3859,-9894,-4551,2025-02-06 16:37:18,0.0
-12692,-6108,-2620,-2611,-10513,-4274,2025-02-06 16:37:18,0.0
-14796,-7256,-364,443,-4649,-3946,2025-02-06 16:37:18,0.0
-16880,-6996,-220,4272,5191,-3670,2025-02-06 16:37:18,0.0
-16832,-6748,-3816,8017,15718,-4563,2025-02-06 16:37:18,0.0
-17568,-4920,-6488,9022,19934,-5586,2025-02-06 16:37:18,0.0
-18488,-3452,-9488,7931,16231,-2635,2025-02-06 16:37:18,0.0
-15684,-4052,-13064,5659,9182,2475,2025-02-06 16:37:18,0.0
-12664,-2772,-15884,2662,2329,6744,2025-02-06 16:37:18,0.0
-9800,360,-14352,-345,-2684,9285,2025-02-06 16:37:18,0.0
-7596,3520,-10364,-818,-6925,9477,2025-02-06 16:37:18,0.0
-6072,5596,-8124,364,-10470,7560,2025-02-06 16:37:18,0.0
-6332,6316,-6064,2123,-12324,3414,2025-02-06 16:37:18,0.0
-8412,3784,-5196,2786,-10201,-693,2025-02-06 16:37:18,0.0
-11152,520,-3420,3115,-7178,-2909,2025-02-06 16:37:18,0.0
-15504,-2340,-992,4529,-4580,-2456,2025-02-06 16:37:18,0.0
-9152,2136,-2480,9054,-658,5495,2025-02-06 16:37:18,0.0
-9776,2108,-2056,9450,2279,4308,2025-02-06 16:37:18,0.0
-10516,1892,-2544,9502,3675,3385,2025-02-06 16:37:18,0.0
-11544,1872,-3380,9353,3499,2981,2025-02-06 16:37:18,0.0
-11444,2256,-3520,9039,1709,2753,2025-02-06 16:37:18,0.0
-11208,2480,-3332,8723,3,2168,2025-02-06 16:37:19,0.0
-11636,2428,-1744,8610,-741,967,2025-02-06 16:37:19,0.0
-12488,1268,-552,9128,-500,34,2025-02-06 16:37:19,0.0
-13808,64,-484,9707,-84,-171,2025-02-06 16:37:19,0.0
-14456,288,-2536,9461,118,671,2025-02-06 16:37:19,0.0
-13472,1108,-3756,9140,599,2117,2025-02-06 16:37:19,0.0
-11884,1040,-4524,8945,442,2387,2025-02-06 16:37:19,0.0
-11712,1108,-5288,8333,389,1389,2025-02-06 16:37:19,0.0
-15936,2192,-4000,8065,1902,2294,2025-02-06 16:37:19,0.0
-19052,1572,-1072,8496,2591,5626,2025-02-06 16:37:19,0.0
-18452,-1636,532,9057,814,7001,2025-02-06 16:37:19,0.0
-16648,-3624,-916,10030,-320,5876,2025-02-06 16:37:19,0.0
-14572,-1896,-3660,10952,-263,4423,2025-02-06 16:37:19,0.0
-14108,1396,-6336,11500,-1860,5178,2025-02-06 16:37:19,0.0
-14240,3804,-8668,10518,-2349,6589,2025-02-06 16:37:19,0.0
-14912,5016,-9184,8626,274,7008,2025-02-06 16:37:19,0.0
-17044,6984,-9996,7133,5889,7789,2025-02-06 16:37:19,0.0
-15732,6880,-11628,5717,12740,8886,2025-02-06 16:37:19,0.0
-10156,4120,-11140,4522,12024,7193,2025-02-06 16:37:19,0.0
-7556,2400,-9584,5570,4939,3827,2025-02-06 16:37:19,0.0
-6668,-300,-8328,7787,-4133,623,2025-02-06 16:37:19,0.0
-6888,-3292,-7008,9866,-13746,-2138,2025-02-06 16:37:19,0.0
-8336,-3540,-6148,10747,-18886,-2725,2025-02-06 16:37:19,0.0
-10888,-3280,-6828,10531,-19592,-1070,2025-02-06 16:37:19,0.0
-12868,-3548,-6556,8972,-12446,1677,2025-02-06 16:37:19,0.0
-12764,-2160,-1916,9206,-2642,3698,2025-02-06 16:37:19,0.0
-11932,-320,-1588,10723,5731,3673,2025-02-06 16:37:19,0.0
-12112,1248,-3308,11176,11245,2094,2025-02-06 16:37:19,0.0
-12868,1608,-4156,11277,12679,769,2025-02-06 16:37:19,0.0
-13528,924,-5484,11081,9519,-61,2025-02-06 16:37:19,0.0
-13628,-152,-8396,10191,2773,-32,2025-02-06 16:37:19,0.0
-12032,-1076,-8928,9159,-2989,583,2025-02-06 16:37:19,0.0
-11348,-1348,-6772,8264,-8438,1187,2025-02-06 16:37:19,0.0
-11020,-956,-5336,7468,-12585,1805,2025-02-06 16:37:19,0.0
-11320,-552,-2880,7035,-14447,2317,2025-02-06 16:37:19,0.0
-11020,-808,-1260,6991,-13195,2583,2025-02-06 16:37:19,0.0
-10932,-880,-8,7161,-9078,2625,2025-02-06 16:37:19,0.0
-10336,-976,496,7411,-2958,2502,2025-02-06 16:37:19,0.0
-9584,-1460,-656,7518,3741,2509,2025-02-06 16:37:19,0.0
-10404,-2028,-1792,7171,6823,2457,2025-02-06 16:37:19,0.0
-12484,-1896,-2120,7019,8034,2741,2025-02-06 16:37:19,0.0
-14460,-1620,-1644,6801,8178,3803,2025-02-06 16:37:19,0.0
-15412,-1008,-2996,6745,7384,5320,2025-02-06 16:37:19,0.0
-15792,568,-3912,6504,4506,7172,2025-02-06 16:37:19,0.0
-14976,1780,-4604,5542,811,7976,2025-02-06 16:37:19,0.0
-14256,2804,-3784,4200,-2494,7432,2025-02-06 16:37:19,
-13620,3596,-1800,3885,-5857,5629,2025-02-06 16:37:19,0.0
-13048,3380,-944,4438,-8262,3489,2025-02-06 16:37:19,0.0
-11796,1264,-1516,4766,-9214,944,2025-02-06 16:37:19,0.0
-11448,-1256,-3316,5313,-6943,-2120,2025-02-06 16:37:19,0.0
-12296,-2860,-5636,6748,-236,-4213,2025-02-06 16:37:19,0.0
-12180,-4020,-6056,9154,8440,-6682,2025-02-06 16:37:19,0.0
-12100,-5104,-5696,12055,13840,-10025,2025-02-06 16:37:19,0.0
-13992,-6832,-7872,13314,13737,-11039,2025-02-06 16:37:19,0.0
-19428,-8368,-9808,12484,13351,-8102,2025-02-06 16:37:19,0.0
-22468,-8576,-10648,11067,11818,-326,2025-02-06 16:37:19,0.0
-17560,-5952,-13736,8040,3816,9497,2025-02-06 16:37:19,0.0
-11548,-1644,-13876,4929,-5199,16394,2025-02-06 16:37:20,0.0
-6844,244,-11196,3922,-9836,16932,2025-02-06 16:37:20,0.0
-4424,1768,-7032,5061,-13659,14211,2025-02-06 16:37:20,0.0
-4156,2256,-4484,8052,-15306,9538,2025-02-06 16:37:20,0.0
-6592,1796,-3316,11037,-12807,4232,2025-02-06 16:37:20,0.0
-10900,1408,-3236,12591,-6751,1122,2025-02-06 16:37:20,0.0
-14436,956,-2972,13036,335,1822,2025-02-06 16:37:20,0.0
-16192,956,-4676,13169,6600,4710,2025-02-06 16:37:20,0.0
-15668,216,-4916,12318,8548,6945,2025-02-06 16:37:20,0.0
-12880,-168,-8800,11836,3894,8580,2025-02-06 16:37:20,0.0
-10996,-568,-9272,11601,-1603,8648,2025-02-06 16:37:20,0.0
-9860,-952,-8196,12001,-6381,8264,2025-02-06 16:37:20,0.0
-10064,-1396,-6056,12925,-8069,8224,2025-02-06 16:37:20,0.0
-9904,-1896,-5012,14623,-7519,8192,2025-02-06 16:37:20,0.0
-10972,-1464,-4196,15742,-4481,8539,2025-02-06 16:37:20,0.0
-11204,-36,-4028,16683,61,9016,2025-02-06 16:37:20,0.0
-11092,1640,-4944,16812,3332,9077,2025-02-06 16:37:20,0.0
-11280,3120,-5884,16367,4611,8688,2025-02-06 16:37:20,0.0
-11504,3496,-6408,15591,4036,8220,2025-02-06 16:37:20,0.0
-11844,3324,-6896,15172,2760,7775,2025-02-06 16:37:20,0.0
-11904,2656,-6996,14180,1403,7367,2025-02-06 16:37:20,0.0
-12520,1916,-6172,13403,239,6949,2025-02-06 16:37:20,0.0
-12416,1160,-4920,12967,-1021,6426,2025-02-06 16:37:20,0.0
-12164,712,-5184,12416,-1971,6023,2025-02-06 16:37:20,0.0
-12588,1724,-5596,11498,-1929,6053,2025-02-06 16:37:20,0.0
-12384,2320,-5084,10697,-2245,5911,2025-02-06 16:37:20,0.0
-13412,4344,-5676,9917,-2811,6148,2025-02-06 16:37:20,0.0
-11800,3388,-3596,10149,-4134,5447,2025-02-06 16:37:20,0.0
-10700,508,-2792,11046,-7821,2725,2025-02-06 16:37:20,0.0
-11260,-1908,-2092,12316,-10743,1014,2025-02-06 16:37:20,0.0
-12348,-3508,-2164,14223,-11362,1050,2025-02-06 16:37:20,0.0
-13460,-4052,-5524,15262,-6850,2688,2025-02-06 16:37:20,0.0
-14388,-4412,-7972,14640,-2315,5120,2025-02-06 16:37:20,0.0
-13900,-2508,-9772,12459,354,9009,2025-02-06 16:37:20,0.0
-9864,1020,-9272,11821,667,10946,2025-02-06 16:37:20,0.0
-6676,3952,-8464,13591,2055,9667,2025-02-06 16:37:20,0.0
-6208,5152,-6980,17174,4183,5916,2025-02-06 16:37:20,0.0
-10440,4900,-7196,19413,7049,2588,2025-02-06 16:37:20,0.0
-14524,2808,-8580,18764,9404,1590,2025-02-06 16:37:20,0.0
-15856,-564,-9148,16875,8518,1993,2025-02-06 16:37:20,0.0
-14116,-3144,-9588,15063,2574,2344,2025-02-06 16:37:20,0.0
-12788,-2712,-9588,14225,-3904,2454,2025-02-06 16:37:20,0.0
-12524,-1296,-7528,14103,-9272,3159,2025-02-06 16:37:20,0.0
-12452,-80,-5752,13721,-12547,3904,2025-02-06 16:37:20,0.0
-12764,616,-4088,13335,-12386,4220,2025-02-06 16:37:20,0.0
-12592,736,-3224,13251,-8526,3999,2025-02-06 16:37:20,0.0
-11400,108,-3112,13127,-2892,3074,2025-02-06 16:37:20,0.0
-10544,-472,-3520,13330,2050,1550,2025-02-06 16:37:20,0.0
-11316,-1036,-3776,13570,4566,469,2025-02-06 16:37:20,0.0
-12508,-1760,-4512,13564,4754,149,2025-02-06 16:37:20,0.0
-13148,-1948,-4744,13152,2092,987,2025-02-06 16:37:20,0.0
-12292,-2248,-4996,12870,-450,1813,2025-02-06 16:37:20,0.0
-11744,-2076,-5100,12355,-2495,2410,2025-02-06 16:37:20,0.0
-11660,-1232,-4508,11578,-3159,2812,2025-02-06 16:37:20,0.0
-11112,-792,-3816,10909,-2990,2790,2025-02-06 16:37:20,0.0
-10516,-996,-3728,10224,-1956,2122,2025-02-06 16:37:20,0.0
-10388,-1692,-4096,9048,333,1070,2025-02-06 16:37:20,0.0
-10768,-1908,-4128,8122,1689,971,2025-02-06 16:37:20,0.0
-11808,-2032,-3340,7083,2336,1493,2025-02-06 16:37:20,0.0
-12300,-2088,-2712,6170,2369,2143,2025-02-06 16:37:20,0.0
-11984,-2216,-2688,5482,2055,2344,2025-02-06 16:37:20,0.0
-11652,-2644,-2980,4714,1580,1873,2025-02-06 16:37:20,0.0
-11948,-3500,-3160,4202,1282,1016,2025-02-06 16:37:21,0.0
-12532,-3420,-3816,3873,1488,645,2025-02-06 16:37:21,0.0
-13548,-2624,-3952,3726,1945,1426,2025-02-06 16:37:21,0.0
-13316,-2240,-3556,4217,2174,2752,2025-02-06 16:37:21,0.0
-11632,-3860,-4052,5423,3127,2474,2025-02-06 16:37:21,0.0
-12276,-5692,-3792,6530,4939,-7,2025-02-06 16:37:21,0.0
-15032,-5544,-2988,7342,7243,-2278,2025-02-06 16:37:21,0.0
-16660,-4628,-3120,8925,9142,-3636,2025-02-06 16:37:21,0.0
-14168,-6768,-7720,10931,11426,-5810,2025-02-06 16:37:21,0.0
-15092,-5336,-11172,11613,10784,-5291,2025-02-06 16:37:21,0.0
-17328,-3888,-14228,9503,8855,-1717,2025-02-06 16:37:21,0.0
-18644,-2688,-14648,5917,10491,2472,2025-02-06 16:37:21,0.0
-16172,-1408,-12608,4258,7108,5418,2025-02-06 16:37:21,0.0
-13572,-1560,-13228,2442,-1575,7363,2025-02-06 16:37:21,0.0
-11312,-892,-12700,705,-9966,9180,2025-02-06 16:37:21,0.0
-8816,-36,-10740,-205,-16449,10674,2025-02-06 16:37:21,0.0
-6972,320,-8516,-384,-21986,11008,2025-02-06 16:37:21,0.0
-5920,212,-5360,1263,-23293,8730,2025-02-06 16:37:21,0.0
-6428,148,-2180,4059,-19269,4888,2025-02-06 16:37:21,0.0
-8952,92,-716,6526,-10691,1858,2025-02-06 16:37:21,0.0
-11588,-448,-1272,7788,528,1631,2025-02-06 16:37:21,0.0
-12756,-628,-3912,8116,9204,3601,2025-02-06 16:37:21,0.0
-12948,-392,-5764,7701,13959,5455,2025-02-06 16:37:21,0.0
-12764,344,-6376,6783,12708,6625,2025-02-06 16:37:21,0.0
-12980,716,-7964,6191,8996,6847,2025-02-06 16:37:21,0.0
-12780,1096,-8616,5545,4980,6582,2025-02-06 16:37:21,0.0
-12196,1184,-9248,4623,-89,6493,2025-02-06 16:37:21,
-11136,984,-8384,3559,-4282,6387,2025-02-06 16:37:21,0.0
-10248,780,-6384,3206,-7121,6367,2025-02-06 16:37:21,0.0
-9852,624,-5100,3016,-8136,6269,2025-02-06 16:37:21,0.0
-9876,772,-4204,2911,-6845,5795,2025-02-06 16:37:21,0.0
-10032,788,-2896,3113,-3249,4986,2025-02-06 16:37:21,0.0
-10372,796,-2780,3481,668,4109,2025-02-06 16:37:21,0.0
-10860,952,-2976,3379,3183,3380,2025-02-06 16:37:21,0.0
-11208,1220,-3724,3203,3399,2919,2025-02-06 16:37:21,0.0
-11336,1640,-4452,2519,1667,2520,2025-02-06 16:37:21,0.0
-10880,2132,-4144,1664,-861,1798,2025-02-06 16:37:21,0.0
-10616,2372,-2892,1310,-2233,718,2025-02-06 16:37:21,0.0
-10976,2244,-1712,1297,-2280,-357,2025-02-06 16:37:21,0.0
-11296,2096,-1004,1553,-1594,-966,2025-02-06 16:37:21,0.0
-11676,1992,-848,1907,-742,-1438,2025-02-06 16:37:21,0.0
-11840,1656,-1352,2383,-189,-2153,2025-02-06 16:37:21,0.0
-12248,1288,-1856,2604,-353,-2926,2025-02-06 16:37:21,0.0
-13044,312,-1688,2857,-1271,-3881,2025-02-06 16:37:21,0.0
-13680,-1292,-2112,3270,-1848,-4531,2025-02-06 16:37:21,0.0
-14072,-2184,-3064,3589,-1390,-4652,2025-02-06 16:37:21,0.0
-14024,-2508,-3456,3831,-1059,-4135,2025-02-06 16:37:21,0.0
-15180,-1768,-3148,3875,-1830,-2368,2025-02-06 16:37:21,0.0
-17076,-1176,-2660,2979,-1948,1308,2025-02-06 16:37:21,0.0
-17996,-236,-2240,1968,45,4856,2025-02-06 16:37:21,0.0
-17516,1068,-3560,1398,4377,6755,2025-02-06 16:37:21,0.0
-16988,3616,-6128,744,9661,7505,2025-02-06 16:37:21,0.0
-17600,7188,-10516,-1613,15873,8257,2025-02-06 16:37:21,0.0
-18064,10068,-12856,-4935,21038,8787,2025-02-06 16:37:21,0.0
-14192,11044,-14264,-9120,24040,7167,2025-02-06 16:37:21,0.0
-9432,10604,-13456,-9687,20702,2716,2025-02-06 16:37:21,0.0
-5008,8900,-12620,-7519,10959,-3454,2025-02-06 16:37:21,0.0
-2892,4704,-11992,-5273,-1750,-9453,2025-02-06 16:37:21,0.0
-4684,520,-11556,-3885,-12441,-13154,2025-02-06 16:37:21,0.0
-6576,-2560,-10248,-4600,-21101,-13161,2025-02-06 16:37:22,0.0
-8996,-3152,-8508,-6742,-26525,-10206,2025-02-06 16:37:22,0.0
-10796,-1980,-7812,-8765,-26651,-5750,2025-02-06 16:37:22,0.0
-11472,-512,-6660,-9897,-22113,-1071,2025-02-06 16:37:22,0.0
-10828,920,-5284,-10182,-13314,1974,2025-02-06 16:37:22,0.0
-8796,3340,-2548,-9828,856,1423,2025-02-06 16:37:22,0.0
-8680,4476,-3100,-9746,11348,-2057,2025-02-06 16:37:22,0.0
-9656,4292,-5040,-9710,19752,-6537,2025-02-06 16:37:22,0.0
-11016,3188,-6764,-9920,18712,-9791,2025-02-06 16:37:22,0.0
-10884,2088,-11852,-10689,15792,-11379,2025-02-06 16:37:22,0.0
-10980,1632,-11900,-11749,11653,-11639,2025-02-06 16:37:22,0.0
-10560,1180,-12644,-12736,6176,-11376,2025-02-06 16:37:22,0.0
-10844,960,-12076,-14004,508,-11049,2025-02-06 16:37:22,0.0
-12380,848,-10692,-15353,-3881,-10571,2025-02-06 16:37:22,0.0
-11960,360,-7856,-17307,-7389,-9528,2025-02-06 16:37:22,0.0
-9928,20,-7972,-18480,-8002,-9144,2025-02-06 16:37:22,0.0
-9208,12,-7044,-19340,-6886,-8825,2025-02-06 16:37:22,0.0
-9000,-492,-6960,-20337,-4652,-8351,2025-02-06 16:37:22,0.0
-9480,-636,-5832,-20865,-1673,-7560,2025-02-06 16:37:22,0.0
-10268,-620,-4688,-20725,1656,-6959,2025-02-06 16:37:22,0.0
-11164,-28,-5160,-20780,4450,-6380,2025-02-06 16:37:22,0.0
-11060,556,-6228,-21252,6299,-6212,2025-02-06 16:37:22,0.0
-10468,1000,-7248,-21689,7288,-6678,2025-02-06 16:37:22,0.0
-10404,2764,-7260,-22251,6300,-7017,2025-02-06 16:37:22,0.0
-9716,2096,-7684,-22158,3798,-7830,2025-02-06 16:37:22,0.0
-9900,24,-8572,-21491,2549,-9243,2025-02-06 16:37:22,0.0
-9612,-2656,-9208,-20594,1520,-10468,2025-02-06 16:37:22,0.0
-8952,-5332,-9828,-19621,621,-11570,2025-02-06 16:37:22,0.0
-8664,-7112,-10468,-18881,153,-12402,2025-02-06 16:37:22,0.0
-11016,-4360,-9360,-19576,-561,-11053,2025-02-06 16:37:22,0.0
-12536,420,-5792,-19386,-1167,-7552,2025-02-06 16:37:22,0.0
-12808,4260,-4520,-16950,2930,-6092,2025-02-06 16:37:22,0.0
-12056,5428,-5560,-14312,9777,-8472,2025-02-06 16:37:22,0.0
-13244,4952,-8824,-13518,14293,-11736,2025-02-06 16:37:22,0.0
-15012,4068,-11708,-15300,14823,-12579,2025-02-06 16:37:22,0.0
-15068,3444,-12096,-17624,12159,-11512,2025-02-06 16:37:22,0.0
-14000,3652,-11348,-18722,6618,-9599,2025-02-06 16:37:22,0.0
-12732,4040,-11436,-19454,189,-7775,2025-02-06 16:37:22,0.0
-11008,3708,-10828,-21386,-4389,-7236,2025-02-06 16:37:22,0.0
-9536,2628,-6744,-23875,-6289,-9191,2025-02-06 16:37:22,0.0
-9108,1616,-5140,-23359,-5287,-10218,2025-02-06 16:37:22,0.0
-9116,1212,-4204,-22549,-4440,-10341,2025-02-06 16:37:22,0.0
-9220,1356,-4044,-21986,-3340,-9360,2025-02-06 16:37:22,0.0
-9072,1252,-3984,-21373,-778,-7894,2025-02-06 16:37:22,0.0
-8800,1176,-3416,-20269,3193,-7028,2025-02-06 16:37:22,0.0
-9348,1288,-3468,-19015,7634,-7012,2025-02-06 16:37:22,0.0
-10560,1512,-3840,-17950,11745,-7439,2025-02-06 16:37:22,0.0
-11772,1644,-4740,-16788,15207,-8234,2025-02-06 16:37:22,0.0
-13232,2188,-5904,-16041,17435,-9001,2025-02-06 16:37:22,0.0
-14512,2928,-6952,-15854,17831,-9378,2025-02-06 16:37:22,0.0
-11292,3256,-808,-12762,-10812,-3954,2025-02-06 16:37:22,0.0
-10376,4024,-196,-11861,-5294,-3988,2025-02-06 16:37:22,0.0
-9300,4368,-804,-11019,558,-4778,2025-02-06 16:37:22,0.0
-9944,4356,-1192,-10269,4659,-5488,2025-02-06 16:37:22,0.0
-11612,4308,-1152,-9371,6774,-5490,2025-02-06 16:37:22,0.0
-13024,4196,-960,-8509,7400,-5036,2025-02-06 16:37:22,0.0
-13872,4320,-668,-7478,6294,-4468,2025-02-06 16:37:23,0.0
-13600,4636,-1152,-6521,3375,-4254,2025-02-06 16:37:23,0.0
-13008,4964,-3044,-5784,663,-4533,2025-02-06 16:37:23,0.0
-13012,5640,-5236,-5562,-118,-4551,2025-02-06 16:37:23,0.0
-12860,6336,-8864,-6084,2433,-3780,2025-02-06 16:37:23,0.0
-14036,7548,-11344,-8880,6305,-2358,2025-02-06 16:37:23,0.0
-15488,9088,-7984,-12800,7020,287,2025-02-06 16:37:23,0.0
-13452,7436,-3216,-13251,3811,1254,2025-02-06 16:37:23,0.0
-10952,3552,-2716,-10663,1371,-1522,2025-02-06 16:37:23,0.0
-10784,1044,-5864,-7360,3052,-5803,2025-02-06 16:37:23,0.0
-10592,-772,-10040,-5129,6260,-9270,2025-02-06 16:37:23,0.0
-10660,-1448,-11900,-5303,5338,-9894,2025-02-06 16:37:23,
-11164,-1660,-11584,-6513,1656,-8362,2025-02-06 16:37:23,0.0
-12012,-736,-11412,-7466,1424,-6863,2025-02-06 16:37:23,0.0
-11300,504,-11060,-8503,2358,-5887,2025-02-06 16:37:23,0.0
-10644,364,-10068,-8874,3159,-6055,2025-02-06 16:37:23,0.0
-10780,-620,-9036,-8256,3636,-6911,2025-02-06 16:37:23,0.0
-11564,-2320,-8620,-7431,3048,-7839,2025-02-06 16:37:23,0.0
-12352,-3364,-8328,-6836,774,-8313,2025-02-06 16:37:23,0.0
-12448,-3716,-8784,-6773,-3647,-7783,2025-02-06 16:37:23,0.0
-12068,-3012,-9128,-7718,-7508,-6703,2025-02-06 16:37:23,0.0
-11488,-1784,-7380,-8576,-10959,-5552,2025-02-06 16:37:23,0.0
-11268,-32,-5276,-8866,-14264,-3653,2025-02-06 16:37:23,0.0
-10660,600,-4724,-9089,-14866,-2565,2025-02-06 16:37:23,0.0
-10380,772,-4152,-9683,-13096,-1891,2025-02-06 16:37:23,0.0
-9784,564,-3148,-10050,-8837,-1747,2025-02-06 16:37:23,0.0
-9224,280,-2376,-9709,-3458,-1967,2025-02-06 16:37:23,0.0
-8488,-696,-1948,-8337,2352,-3240,2025-02-06 16:37:23,0.0
-9404,-1764,-2924,-6682,7254,-4902,2025-02-06 16:37:23,0.0
-11612,-2540,-3824,-5341,10501,-5726,2025-02-06 16:37:23,0.0
-14228,-2300,-4248,-4794,11616,-5093,2025-02-06 16:37:23,0.0
-15364,-1340,-4944,-4530,10918,-3868,2025-02-06 16:37:23,0.0
-15076,-256,-5964,-4601,6957,-3146,2025-02-06 16:37:23,0.0
-14096,420,-7092,-5123,3127,-3280,2025-02-06 16:37:23,0.0
-12952,488,-7516,-6099,-486,-4021,2025-02-06 16:37:23,0.0
-12772,344,-6216,-6981,-3527,-4595,2025-02-06 16:37:23,0.0
-13048,-64,-4728,-7574,-5505,-4685,2025-02-06 16:37:23,0.0
-12968,-504,-3696,-7987,-5947,-4577,2025-02-06 16:37:23,0.0
-12728,-720,-3176,-8012,-5107,-4479,2025-02-06 16:37:23,0.0
-12320,-760,-3260,-7934,-3671,-4403,2025-02-06 16:37:23,0.0
-11468,-856,-4464,-8318,-1477,-4473,2025-02-06 16:37:23,0.0
-11056,-1396,-5336,-8531,-719,-4503,2025-02-06 16:37:23,0.0
-10940,-2068,-5472,-8633,175,-4508,2025-02-06 16:37:23,0.0
-11640,-2428,-5168,-8524,1204,-4283,2025-02-06 16:37:23,0.0
-11504,-2704,-5244,-8297,2089,-4114,2025-02-06 16:37:23,0.0
-11772,-2888,-4808,-8093,2590,-4229,2025-02-06 16:37:23,0.0
-12104,-3068,-4956,-7834,2525,-4416,2025-02-06 16:37:23,0.0
-12188,-3172,-5160,-7444,1779,-4332,2025-02-06 16:37:23,0.0
-11916,-3484,-5848,-7325,148,-3793,2025-02-06 16:37:23,0.0
-11464,-3580,-6180,-7619,-1763,-2961,2025-02-06 16:37:23,0.0
-10728,-3448,-5636,-8042,-3092,-2275,2025-02-06 16:37:23,0.0
-10072,-3400,-5044,-8345,-3477,-2020,2025-02-06 16:37:23,0.0
-9752,-3224,-4508,-8583,-2929,-1802,2025-02-06 16:37:23,0.0
-9736,-2792,-4860,-8995,-395,-1730,2025-02-06 16:37:23,0.0
-10160,-1684,-5212,-9347,4319,-1879,2025-02-06 16:37:23,0.0
-10572,-716,-8332,-8878,10812,-2674,2025-02-06 16:37:23,0.0
-10764,168,-9716,-8214,15369,-3853,2025-02-06 16:37:23,0.0
-11352,772,-10600,-6930,18627,-4682,2025-02-06 16:37:23,0.0
-11672,1268,-11280,-5259,21149,-5483,2025-02-06 16:37:23,0.0
-12616,1832,-12668,-3340,23226,-5991,2025-02-06 16:37:23,0.0
-15480,6740,-14876,-3347,24396,-4406,2025-02-06 16:37:24,0.0
-17204,12048,-14956,-7067,17497,-560,2025-02-06 16:37:24,0.0
-15236,13716,-12264,-11137,9407,828,2025-02-06 16:37:24,0.0
-10596,8836,-8548,-9778,824,-4404,2025-02-06 16:37:24,0.0
-11868,3344,-10180,-8669,-4326,-7914,2025-02-06 16:37:24,0.0
-12776,264,-8864,-9320,-9676,-7000,2025-02-06 16:37:24,0.0
-11672,-748,-7772,-9646,-15688,-3903,2025-02-06 16:37:24,0.0
-10684,676,-5840,-9406,-20590,-34,2025-02-06 16:37:24,0.0
-9068,3904,-4652,-8114,-22035,3752,2025-02-06 16:37:24,0.0
-7564,6124,-2680,-7109,-17927,5177,2025-02-06 16:37:24,0.0
-5248,7148,-568,-6263,-7230,3667,2025-02-06 16:37:24,0.0
-2996,5440,-360,-4453,6092,-979,2025-02-06 16:37:24,0.0
-4712,2568,-2544,-1814,14467,-4966,2025-02-06 16:37:24,0.0
-7948,-188,-5028,-94,19437,-6616,2025-02-06 16:37:24,0.0
-10696,-2240,-5844,1635,22574,-6174,2025-02-06 16:37:24,0.0
-12124,-3388,-5852,3085,21830,-4674,2025-02-06 16:37:24,0.0
-14412,-2124,-7056,4058,13880,-1607,2025-02-06 16:37:24,0.0
-13840,400,-9512,4373,6772,2517,2025-02-06 16:37:24,0.0
-10768,3084,-9936,4099,473,3914,2025-02-06 16:37:24,0.0
-7968,5212,-8492,4206,-6451,3025,2025-02-06 16:37:24,0.0
-5848,4596,-7564,3949,-11071,751,2025-02-06 16:37:24,0.0
-6036,3708,-5076,3059,-13103,-726,2025-02-06 16:37:24,0.0
-5300,2236,-3216,2583,-12057,-1420,2025-02-06 16:37:24,0.0
-3816,692,-2716,2553,-8174,-1720,2025-02-06 16:37:24,0.0
-2712,420,-4112,2988,-2561,-1883,2025-02-06 16:37:24,0.0
-3296,724,-6328,3669,3926,-1407,2025-02-06 16:37:24,0.0
-5016,556,-6268,2538,7989,-276,2025-02-06 16:37:24,0.0
-8768,548,-2828,-721,8111,-670,2025-02-06 16:37:24,0.0
-16072,1492,-2004,-2437,8689,544,2025-02-06 16:37:24,0.0
-16396,1296,-2732,-2700,9058,2835,2025-02-06 16:37:24,0.0
-12124,2148,-2728,-718,6151,2241,2025-02-06 16:37:24,0.0
-9088,2972,-4448,2126,1458,-35,2025-02-06 16:37:24,0.0
-7244,1680,-7408,2906,-1519,-2048,2025-02-06 16:37:24,0.0
-7216,-2076,-7996,2029,-666,-3646,2025-02-06 16:37:24,0.0
-7996,-4496,-7620,1068,1340,-3415,2025-02-06 16:37:24,0.0
-11284,-3068,-7340,-141,3847,-1313,2025-02-06 16:37:24,0.0
-13096,868,-6704,-672,4875,949,2025-02-06 16:37:24,0.0
-12696,4512,-8276,191,3148,455,2025-02-06 16:37:24,0.0
-12540,4848,-10956,419,-444,-1493,2025-02-06 16:37:24,0.0
-12036,1104,-10864,-119,-1574,-1722,2025-02-06 16:37:24,0.0
-11104,-1620,-10472,-79,-713,-1947,2025-02-06 16:37:24,0.0
-10472,-2276,-11272,428,-540,-1974,2025-02-06 16:37:24,0.0
-11924,-1516,-11728,774,-1327,-1699,2025-02-06 16:37:24,0.0
-17752,-112,-10872,1252,-740,-1207,2025-02-06 16:37:24,0.0
-11876,720,-12036,1787,-106,-917,2025-02-06 16:37:24,0.0
-12692,1184,-12916,1861,723,-731,2025-02-06 16:37:24,0.0
-13236,976,-13692,1528,-611,-700,2025-02-06 16:37:24,0.0
-14620,608,-12632,945,-2847,-317,2025-02-06 16:37:24,0.0
-15092,-484,-13052,708,-4006,-325,2025-02-06 16:37:24,0.0
-16644,-912,-12576,548,-4823,-415,2025-02-06 16:37:24,0.0
-18076,-836,-12404,451,-5291,-194,2025-02-06 16:37:24,0.0
-19556,-40,-12412,109,-4645,-153,2025-02-06 16:37:24,
-18920,-752,-12592,-251,-4210,159,2025-02-06 16:37:24,0.0
-16288,-1064,-12000,-513,-5342,192,2025-02-06 16:37:24,0.0
-13888,-1136,-9976,-678,-6648,123,2025-02-06 16:37:24,0.0
-11800,-1072,-7172,-936,-7984,260,2025-02-06 16:37:24,0.0
-10108,-616,-4456,-1136,-8779,378,2025-02-06 16:37:24,0.0
-9284,-660,-2732,-1248,-8035,8,2025-02-06 16:37:24,0.0
-10504,-168,-1092,-1038,-6042,75,2025-02-06 16:37:24,0.0
-11876,216,-792,-302,-2671,262,2025-02-06 16:37:24,0.0
-12592,16,-3120,-24,450,403,2025-02-06 16:37:25,0.0
-12392,-352,-4636,-30,170,702,2025-02-06 16:37:25,0.0
-12460,-596,-5680,169,-1447,427,2025-02-06 16:37:25,0.0
-13832,-1020,-7288,334,-3021,210,2025-02-06 16:37:25,0.0
-13540,-968,-7732,389,-5194,260,2025-02-06 16:37:25,0.0
-12528,-1064,-8848,196,-6960,228,2025-02-06 16:37:25,0.0
-11832,-992,-7100,605,-7851,293,2025-02-06 16:37:25,0.0
-11684,-1000,-6088,938,-7727,259,2025-02-06 16:37:25,0.0
-12148,-96,-5472,940,-7177,71,2025-02-06 16:37:25,0.0
-12596,724,-4740,673,-6647,-116,2025-02-06 16:37:25,0.0
-12688,1044,-4428,470,-6050,-169,2025-02-06 16:37:25,0.0
-12804,1224,-4092,394,-5463,-36,2025-02-06 16:37:25,0.0
-13112,1592,-4080,127,-4852,137,2025-02-06 16:37:25,0.0
-12908,1440,-3564,-140,-4306,351,2025-02-06 16:37:25,0.0
-12568,1028,-2992,-323,-3980,356,2025-02-06 16:37:25,0.0
-12956,644,-2328,-298,-3654,313,2025-02-06 16:37:25,0.0
-13060,320,-2232,-196,-3402,243,2025-02-06 16:37:25,0.0
-13424,244,-1884,-135,-3092,389,2025-02-06 16:37:25,0.0
-13488,276,-2236,-160,-2896,602,2025-02-06 16:37:25,0.0
-13508,120,-1744,-262,-2592,783,2025-02-06 16:37:25,0.0
-13352,-84,-1340,-272,-2164,524,2025-02-06 16:37:25,0.0
-13556,-356,-1392,-114,-1847,236,2025-02-06 16:37:25,0.0
-13416,-160,-1228,-135,-1437,18,2025-02-06 16:37:25,0.0
-13440,32,-1168,-278,-953,-141,2025-02-06 16:37:25,0.0
-13348,120,-1280,-285,-251,-340,2025-02-06 16:37:25,0.0
-13436,76,-1600,-275,294,-246,2025-02-06 16:37:25,0.0
-13296,176,-1908,-440,597,-76,2025-02-06 16:37:25,0.0
-13340,136,-1852,-429,878,-48,2025-02-06 16:37:25,0.0
-13144,236,-1896,-420,1224,-120,2025-02-06 16:37:25,0.0
-13116,196,-2136,-262,1625,-216,2025-02-06 16:37:25,0.0
-12788,148,-2596,-145,2085,-316,2025-02-06 16:37:25,0.0
-12688,92,-2568,11,2546,-509,2025-02-06 16:37:25,0.0
-12996,-20,-2732,188,3008,-547,2025-02-06 16:37:25,0.0
-13168,-92,-2860,263,3525,-375,2025-02-06 16:37:25,0.0
-13048,60,-3184,278,3961,-279,2025-02-06 16:37:25,0.0
-12896,24,-3456,213,4341,-252,2025-02-06 16:37:25,0.0
-13132,-24,-3488,164,4624,-161,2025-02-06 16:37:25,0.0
-12764,100,-3500,77,4949,-116,2025-02-06 16:37:25,0.0
-12348,168,-3720,10,5361,-145,2025-02-06 16:37:25,0.0
-12456,352,-3388,24,5966,-365,2025-02-06 16:37:25,0.0
-12224,132,-3376,32,6750,-661,2025-02-06 16:37:25,0.0
-12244,-16,-3408,43,7569,-901,2025-02-06 16:37:25,0.0
-12172,36,-3588,-21,8534,-1409,2025-02-06 16:37:25,0.0
-11684,-216,-4228,-139,9711,-1650,2025-02-06 16:37:25,0.0
-12324,-200,-3972,-28,10297,-1608,2025-02-06 16:37:25,0.0
-13016,-8,-4108,-49,10877,-1560,2025-02-06 16:37:25,0.0
-13164,8,-4376,-90,11413,-1025,2025-02-06 16:37:25,0.0
-14144,-176,-4328,-242,12366,-489,2025-02-06 16:37:25,0.0
-14588,-112,-4996,-399,13251,-279,2025-02-06 16:37:25,0.0
-15228,944,-5876,-352,13789,-207,2025-02-06 16:37:25,0.0
-15360,1068,-7740,-603,14069,-574,2025-02-06 16:37:25,0.0
-17264,256,-9372,-1011,13020,-699,2025-02-06 16:37:25,0.0
-18740,-328,-9500,-1648,9877,-131,2025-02-06 16:37:25,0.0
-16408,-1024,-10148,-1880,7138,-159,2025-02-06 16:37:25,0.0
-14336,-772,-9960,-1477,6657,-717,2025-02-06 16:37:25,0.0
-14864,180,-10848,-1142,7452,-1114,2025-02-06 16:37:25,0.0
-14700,76,-11920,-1037,7640,-762,2025-02-06 16:37:25,0.0
-13032,-556,-12692,-795,7899,-373,2025-02-06 16:37:25,0.0
-12136,-352,-13720,-675,8097,-373,2025-02-06 16:37:25,0.0
-11588,604,-14556,-854,7796,-123,2025-02-06 16:37:25,0.0
-11380,836,-14548,-663,6612,-60,2025-02-06 16:37:26,0.0
-11748,296,-14148,-600,4875,42,2025-02-06 16:37:26,0.0
-11092,-52,-14360,-633,3104,360,2025-02-06 16:37:26,0.0
-10492,-184,-14036,-576,2013,434,2025-02-06 16:37:26,0.0
-10544,4,-14772,-308,1796,334,2025-02-06 16:37:26,0.0
-10812,-64,-14364,-64,1737,120,2025-02-06 16:37:26,0.0
-10388,-260,-14616,-96,-746,390,2025-02-06 16:37:26,0.0
-9964,-108,-14292,-920,-5000,915,2025-02-06 16:37:26,0.0
-10180,148,-12892,-1653,-8590,1593,2025-02-06 16:37:26,0.0
-10292,216,-11812,-2224,-10436,2242,2025-02-06 16:37:26,0.0
-9504,-76,-10600,-2359,-11908,2990,2025-02-06 16:37:26,0.0
-9284,68,-9360,-2335,-13148,3019,2025-02-06 16:37:26,0.0
-9104,92,-7636,-1869,-13496,2129,2025-02-06 16:37:26,0.0
-10060,-252,-5452,-1315,-13668,1019,2025-02-06 16:37:26,0.0
-10372,-652,-4520,-615,-12894,-84,2025-02-06 16:37:26,0.0
-10524,-484,-3800,275,-11740,-568,2025-02-06 16:37:26,0.0
-9824,-340,-5012,466,-11220,-384,2025-02-06 16:37:26,0.0
-8840,344,-5556,-37,-11811,316,2025-02-06 16:37:26,0.0
-7792,924,-6348,-834,-12924,1273,2025-02-06 16:37:26,0.0
-6708,724,-6080,-1678,-13726,1611,2025-02-06 16:37:26,0.0
-5920,692,-5144,-2189,-14550,1200,2025-02-06 16:37:26,0.0
-5660,720,-3988,-2338,-14865,538,2025-02-06 16:37:26,0.0
-5644,412,-2884,-2120,-14344,-276,2025-02-06 16:37:26,0.0
-5744,4,-1836,-1747,-12804,-1251,2025-02-06 16:37:26,0.0
-5852,96,-1812,-1381,-9608,-1762,2025-02-06 16:37:26,0.0
-5912,576,-2452,-724,-6479,-1513,2025-02-06 16:37:26,0.0
-4836,1084,-3812,-339,-4282,-801,2025-02-06 16:37:26,0.0
-4196,1764,-5124,-413,-3093,472,2025-02-06 16:37:26,0.0
-4688,2304,-4688,-725,-1694,1797,2025-02-06 16:37:26,0.0
-5796,2320,-4116,-832,1766,2135,2025-02-06 16:37:26,0.0
-7280,2756,-3132,-46,6194,1418,2025-02-06 16:37:26,0.0
-8940,3140,-3128,1260,9922,529,2025-02-06 16:37:26,
-11020,3576,-4288,2188,13377,-538,2025-02-06 16:37:26,0.0
-12784,4020,-5320,2124,16009,-1454,2025-02-06 16:37:26,0.0
-14996,4216,-5388,1377,14461,-1719,2025-02-06 16:37:26,0.0
-15116,4252,-6276,1576,12648,-1292,2025-02-06 16:37:26,0.0
-14800,3296,-8504,1754,7981,-770,2025-02-06 16:37:26,0.0
-12884,1804,-9980,1463,2306,-414,2025-02-06 16:37:26,0.0
-11852,260,-9792,1000,-3788,-19,2025-02-06 16:37:26,0.0
-11020,-1280,-9244,287,-8466,256,2025-02-06 16:37:26,0.0
-10664,-1868,-7928,-491,-11254,260,2025-02-06 16:37:26,0.0
-11912,-148,-6240,-453,-10124,716,2025-02-06 16:37:26,0.0
-12296,1872,-4972,1018,-5362,1611,2025-02-06 16:37:26,0.0
-10932,2496,-4016,2485,-1073,1228,2025-02-06 16:37:26,0.0
-9592,2164,-3324,2597,-912,-523,2025-02-06 16:37:26,0.0
-11084,464,-1256,2378,-2321,-2947,2025-02-06 16:37:26,0.0
-14404,-516,-4,1665,-3710,-4263,2025-02-06 16:37:26,0.0
-16524,-1104,-624,1167,-1556,-3841,2025-02-06 16:37:26,0.0
-15968,-1356,-2184,754,3512,-3788,2025-02-06 16:37:26,0.0
-14052,-996,-3104,708,5715,-4403,2025-02-06 16:37:26,0.0
-12144,-2304,-3004,790,4458,-5487,2025-02-06 16:37:26,0.0
-12060,-3984,-2872,1359,994,-6664,2025-02-06 16:37:26,0.0
-12976,-5056,-2800,1613,-2045,-6491,2025-02-06 16:37:26,0.0
-13384,-4352,-3348,1238,-4769,-4292,2025-02-06 16:37:26,0.0
-12524,-2860,-2280,461,-6738,-1682,2025-02-06 16:37:26,0.0
-11768,-1268,-340,-272,-8167,110,2025-02-06 16:37:26,0.0
-10680,-424,428,-1110,-7344,913,2025-02-06 16:37:26,0.0
-10656,-148,596,-1533,-2462,642,2025-02-06 16:37:26,0.0
-10488,-4,-608,-1851,3329,240,2025-02-06 16:37:26,0.0
-10804,-356,-2304,-2302,6420,-103,2025-02-06 16:37:26,0.0
-12284,-108,-2836,-3360,7583,-1236,2025-02-06 16:37:27,0.0
-14444,144,-3192,-4043,8050,-2381,2025-02-06 16:37:27,0.0
-15812,-312,-2996,-4446,7468,-2843,2025-02-06 16:37:27,0.0
-15656,-2960,-3108,-4187,5300,-3602,2025-02-06 16:37:27,0.0
-15204,-5020,-2812,-3474,1256,-4527,2025-02-06 16:37:27,0.0
-18488,-4520,-2392,-2883,-4533,-4231,2025-02-06 16:37:27,0.0
-18560,-3448,-2760,-2846,-5557,-2781,2025-02-06 16:37:27,0.0
-17868,-3052,-2712,-2893,-3771,-1828,2025-02-06 16:37:27,0.0
-16756,-3956,-2624,-2815,-1388,-2092,2025-02-06 16:37:27,0.0
-16944,-5164,-4180,-2297,1220,-2621,2025-02-06 16:37:27,0.0
-16060,-6708,-5664,-1005,4824,-2913,2025-02-06 16:37:27,0.0
-16660,-6868,-6044,1091,7019,-2445,2025-02-06 16:37:27,0.0
-17380,-5180,-7768,2868,7553,-672,2025-02-06 16:37:27,0.0
-16156,-3652,-10776,2974,7134,1376,2025-02-06 16:37:27,0.0
-14040,-856,-12920,1204,4727,3397,2025-02-06 16:37:27,0.0
-12172,2200,-13592,-1436,1369,5321,2025-02-06 16:37:27,0.0
-10444,4560,-13504,-3864,-1679,6789,2025-02-06 16:37:27,0.0
-8568,5808,-12692,-5783,-4596,7389,2025-02-06 16:37:27,0.0
-7948,6576,-9664,-6469,-6833,6671,2025-02-06 16:37:27,0.0
-7276,5156,-5972,-4841,-9017,3459,2025-02-06 16:37:27,0.0
-9032,2712,-4912,-3067,-10155,443,2025-02-06 16:37:27,0.0
-12264,348,-5272,-1756,-8025,-91,2025-02-06 16:37:27,0.0
-12692,-1812,-5964,-1299,-4041,1134,2025-02-06 16:37:27,0.0
-12060,-2160,-5636,-1338,-1401,2894,2025-02-06 16:37:27,0.0
-11156,-1484,-5724,-1266,-826,4819,2025-02-06 16:37:27,0.0
-10156,-536,-5576,-994,-1456,6050,2025-02-06 16:37:27,0.0
-9744,856,-4704,-53,-2310,6722,2025-02-06 16:37:27,0.0
-10244,1752,-4052,1661,-2168,7182,2025-02-06 16:37:27,0.0
-10548,2448,-3600,3126,-780,7168,2025-02-06 16:37:27,0.0
-10712,2628,-3744,4002,1037,6622,2025-02-06 16:37:27,0.0
-9708,2892,-3520,4550,1848,5116,2025-02-06 16:37:27,0.0
-9328,3476,-4464,5161,1278,3100,2025-02-06 16:37:27,0.0
-9680,4388,-5272,5008,54,1498,2025-02-06 16:37:27,0.0
-9908,4928,-5576,4161,-1635,541,2025-02-06 16:37:27,0.0
-9508,5076,-6868,3245,-3134,-434,2025-02-06 16:37:27,0.0
