acceleration_x,acceleration_y,acceleration_z,gyroscope_x,gyroscope_y,gyroscope_z,timestamp,label
-194.0,-39.60000000000002,-2.800000000000182,-162.1,-36.30000000000001,-8.699999999999989,2025-01-29 10:47:00,1
-118.0,-63.60000000000002,-118.80000000000018,-95.1,-135.3,-1.6999999999999886,2025-01-29 10:47:00,1
-6.0,-71.60000000000002,157.19999999999982,-45.1,-91.3,35.30000000000001,2025-01-29 10:47:00,1
250.0,-67.60000000000002,133.19999999999982,-32.099999999999994,8.699999999999989,-3.6999999999999886,2025-01-29 10:47:00,1
238.0,-179.60000000000002,25.199999999999815,-12.099999999999994,166.7,-3.6999999999999886,2025-01-29 10:47:00,1
-70.0,-79.60000000000002,21.199999999999815,71.9,225.7,4.300000000000011,2025-01-29 10:47:00,1
-14.0,128.39999999999998,-110.80000000000018,82.9,154.7,10.300000000000011,2025-01-29 10:47:00,1
-74.0,244.4,-10.800000000000182,36.900000000000006,2.6999999999999886,-11.699999999999989,2025-01-29 10:47:00,1
-34.0,136.39999999999998,-38.80000000000018,78.9,-145.3,-34.69999999999999,2025-01-29 10:47:01,1
22.0,-7.600000000000023,-54.80000000000018,75.9,-150.3,14.300000000000011,2025-01-29 10:47:01,1
66.0,-147.60000000000002,-38.80000000000018,143.9,-62.30000000000001,56.30000000000001,2025-01-29 10:47:01,1
50.0,-143.60000000000002,-6.800000000000182,187.9,-0.3000000000000113,130.3,2025-01-29 10:47:01,1
-86.0,-15.600000000000025,-118.80000000000018,216.9,-55.30000000000001,169.3,2025-01-29 10:47:01,1
-154.0,84.39999999999998,-210.80000000000015,208.9,-124.3,200.3,2025-01-29 10:47:01,1
-378.0,344.4,-198.80000000000015,180.9,-381.3,228.3,2025-01-29 10:47:01,1
-162.0,184.4,-406.8000000000002,60.900000000000006,-589.3,262.3,2025-01-29 10:47:01,1
-70.0,136.39999999999998,-130.80000000000018,116.9,-683.3,285.3,2025-01-29 10:47:01,1
238.0,100.39999999999998,-34.80000000000018,318.9,-519.3,287.3,2025-01-29 10:47:01,1
466.0,216.4,353.1999999999998,424.9,-79.30000000000001,147.3,2025-01-29 10:47:01,1
234.0,148.39999999999998,249.19999999999985,580.9,157.7,103.3,2025-01-29 10:47:01,1
-50.0,-243.6,489.1999999999998,957.9,382.7,177.3,2025-01-29 10:47:01,1
-454.0,-415.6,641.1999999999998,1492.9,438.7,295.3,2025-01-29 10:47:01,1
-494.0,-15.600000000000025,545.1999999999998,1811.9,52.69999999999999,368.3,2025-01-29 10:47:01,1
-570.0,-31.600000000000023,685.1999999999998,1992.9,-501.3,355.3,2025-01-29 10:47:01,1
-482.0,-7.600000000000023,701.1999999999998,2271.9,-847.3,314.3,2025-01-29 10:47:01,1
-146.0,144.39999999999998,633.1999999999998,2459.9,-908.3,243.3,2025-01-29 10:47:01,1
-2.0,276.4,513.1999999999998,2572.9,-756.3,228.3,2025-01-29 10:47:01,1
6.0,412.4,305.1999999999998,2745.9,-525.3,215.3,2025-01-29 10:47:01,1
-186.0,392.4,13.199999999999818,2779.9,-624.3,202.3,2025-01-29 10:47:01,1
-138.0,368.4,-46.80000000000018,2451.9,-790.3,86.30000000000001,2025-01-29 10:47:01,1
-266.0,316.4,305.1999999999998,2310.9,-1167.3,-5.699999999999989,2025-01-29 10:47:01,1
-46.0,376.4,505.1999999999998,2344.9,-1406.3,-201.7,2025-01-29 10:47:01,1
66.0,540.4,69.19999999999982,2175.9,-1013.3,-356.7,2025-01-29 10:47:01,1
294.0,380.4,213.19999999999985,1901.9,-576.3,-810.7,2025-01-29 10:47:01,1
-282.0,212.4,133.19999999999982,1638.9,-245.3,-1314.7,2025-01-29 10:47:01,1
-634.0,124.39999999999998,93.19999999999982,1539.9,-330.3,-1566.7,2025-01-29 10:47:01,1
-426.0,144.39999999999998,257.1999999999998,1383.9,-746.3,-1706.7,2025-01-29 10:47:01,1
-46.0,40.39999999999998,129.19999999999982,964.9,-1089.3,-1835.7,2025-01-29 10:47:01,1
282.0,-279.6,473.1999999999998,640.9,-1163.3,-1817.7,2025-01-29 10:47:01,1
510.0,-659.6,609.1999999999998,487.9,-837.3,-1641.7,2025-01-29 10:47:01,1
830.0,-1031.6,1033.1999999999998,467.9,-348.3,-1456.7,2025-01-29 10:47:01,1
942.0,-1743.6,997.1999999999998,521.9,221.7,-1432.7,2025-01-29 10:47:01,1
354.0,-2535.6,1269.1999999999998,841.9,1056.7,-1634.7,2025-01-29 10:47:01,1
-3546.0,-4443.6,1565.1999999999998,1316.9,860.7,-1088.7,2025-01-29 10:47:01,1
-1474.0,-3799.6,2269.2,2841.9,-774.3,-1215.7,2025-01-29 10:47:01,1
-1246.0,-2455.6,345.1999999999998,2496.9,-1489.3,-1628.7,2025-01-29 10:47:01,1
10.0,-1607.6,965.1999999999998,2116.9,-1424.3,-2325.7,2025-01-29 10:47:01,1
-210.0,-1251.6,1085.1999999999998,1761.9,-592.3,-2936.7,2025-01-29 10:47:01,1
-802.0,-1131.6,2057.2,1181.9,-126.3,-2541.7,2025-01-29 10:47:01,1
-1038.0,-1611.6,1993.2,838.9,-757.3,-1623.7,2025-01-29 10:47:01,1
2422.0,-2679.6,1793.1999999999998,254.9,-1093.3,-2631.7,2025-01-29 10:47:01,1
110.0,-2987.6,2005.2,824.9,167.7,-2097.7,2025-01-29 10:47:01,1
-18.0,-2911.6,949.1999999999998,911.9,468.7,-2253.7,2025-01-29 10:47:01,1
-430.0,-3207.6,285.1999999999998,859.9,315.7,-3142.7,2025-01-29 10:47:01,1
-710.0,-2683.6,2021.2,327.9,64.69999999999999,-1932.7,2025-01-29 10:47:01,1
-490.0,-2815.6,2069.2,909.9,99.7,-765.7,2025-01-29 10:47:01,1
-26.0,-3091.6,1781.1999999999998,806.9,291.7,-66.69999999999999,2025-01-29 10:47:01,1
534.0,-3491.6,1965.2,796.9,542.7,90.3,2025-01-29 10:47:01,1
378.0,-3383.6,1793.1999999999998,701.9,422.7,1.3000000000000114,2025-01-29 10:47:01,1
406.0,-3171.6,1585.1999999999998,590.9,252.7,-49.69999999999999,2025-01-29 10:47:01,1
374.0,-2683.6,1509.1999999999998,306.9,481.7,287.3,2025-01-29 10:47:01,1
1106.0,-2619.6,1585.1999999999998,-0.0999999999999943,1033.7,104.3,2025-01-29 10:47:01,1
-442.0,-2327.6,1829.2,74.9,840.7,26.30000000000001,2025-01-29 10:47:01,1
-446.0,-2303.6,2149.2,116.9,602.7,487.3,2025-01-29 10:47:01,1
-182.0,-2483.6,1469.1999999999998,-121.1,310.7,794.3,2025-01-29 10:47:01,1
-42.0,-2527.6,1317.1999999999998,-637.1,248.7,958.3,2025-01-29 10:47:01,1
198.0,-2079.6,1629.1999999999998,-1252.1,314.7,883.3,2025-01-29 10:47:01,1
-578.0,-2055.6,2225.2,-1562.1,-57.30000000000001,1008.3,2025-01-29 10:47:01,1
-450.0,-1883.6,2349.2,-2026.1,-556.3,656.3,2025-01-29 10:47:01,1
-1162.0,-2431.6,2269.2,-2538.1,-1098.3,206.3,2025-01-29 10:47:01,1
-1550.0,-2527.6,1985.2,-3433.1,-2034.3,-41.69999999999999,2025-01-29 10:47:01,1
-1750.0,-2043.6,2329.2,-4128.1,-2942.3,-4.699999999999989,2025-01-29 10:47:01,1
-1906.0,-2059.6,2621.2,-4155.1,-3292.3,434.3,2025-01-29 10:47:02,1
-2006.0,-2295.6,2689.2,-4415.1,-2925.3,879.3,2025-01-29 10:47:02,1
-1330.0,-2651.6,2061.2,-4667.1,-3104.3,767.3,2025-01-29 10:47:02,1
-302.0,-3051.6,2409.2,-4792.1,-3775.3,-10.699999999999989,2025-01-29 10:47:02,1
-710.0,-3491.6,1797.1999999999998,-4833.1,-4279.3,-698.7,2025-01-29 10:47:02,1
-3266.0,-3919.6,1601.1999999999998,-4720.1,-4086.3,-1216.7,2025-01-29 10:47:02,1
-4626.0,-4399.6,593.1999999999998,-3950.1,-2378.3,-1025.7,2025-01-29 10:47:02,1
-4830.0,-4743.6,1221.1999999999998,-3017.1,-1680.3,-428.7,2025-01-29 10:47:02,1
-4818.0,-4891.6,1489.1999999999998,-2264.1,-2636.3,424.3,2025-01-29 10:47:02,1
-3502.0,-4339.6,1657.1999999999998,-1299.1,-3649.3,1169.3,2025-01-29 10:47:02,1
-2522.0,-4179.6,1973.2,-211.1,-4606.3,1305.3,2025-01-29 10:47:02,1
-938.0,-2767.6,1549.1999999999998,153.9,-5019.3,1610.3,2025-01-29 10:47:02,1
386.0,-2279.6,1237.1999999999998,564.9,-4520.3,1718.3,2025-01-29 10:47:02,1
1058.0,-1687.6,521.1999999999998,959.9,-3952.3,1749.3,2025-01-29 10:47:02,1
1290.0,-1031.6,21.199999999999815,515.9,-3450.3,1383.3,2025-01-29 10:47:02,1
1630.0,1040.4,-130.80000000000018,500.9,-3289.3,1041.3,2025-01-29 10:47:02,1
1594.0,1272.4,-858.8000000000002,149.9,-2847.3,441.3,2025-01-29 10:47:02,1
302.0,1764.4,-422.8000000000002,-161.1,-2153.3,-215.7,2025-01-29 10:47:02,1
-1546.0,2040.4,261.1999999999998,-500.1,-960.3,881.3,2025-01-29 10:47:02,1
-1042.0,1552.4,481.1999999999998,-467.1,-365.3,1781.3,2025-01-29 10:47:02,1
-214.0,348.4,393.1999999999998,-572.1,-274.3,2026.3,2025-01-29 10:47:02,1
-294.0,-215.6,-86.80000000000018,-982.1,268.7,2165.3,2025-01-29 10:47:02,1
-370.0,-847.6,861.1999999999998,-1626.1,668.7,2388.3,2025-01-29 10:47:02,1
-1298.0,-751.6,2233.2,-1323.1,337.7,2928.3,2025-01-29 10:47:02,1
-1570.0,-219.6,1809.2,-1489.1,-594.3,3536.3,2025-01-29 10:47:02,1
-1102.0,-119.60000000000002,2085.2,-1771.1,-1566.3,3708.3,2025-01-29 10:47:02,1
-2.0,284.4,2537.2,-2114.1,-1856.3,3493.3,2025-01-29 10:47:02,1
-138.0,744.4,3689.2,-2106.1,-969.3,4051.3,2025-01-29 10:47:02,1
1394.0,916.4,2949.2,-1291.1,-865.3,4151.3,2025-01-29 10:47:02,1
2094.0,760.4,3661.2,-585.1,-349.3,3610.3,2025-01-29 10:47:02,1
2114.0,228.4,4049.2,109.9,-236.3,2625.3,2025-01-29 10:47:02,1
1506.0,60.39999999999998,3941.2,600.9,-400.3,1619.3,2025-01-29 10:47:02,1
702.0,476.4,3337.2,525.9,265.7,911.3,2025-01-29 10:47:02,1
158.0,868.4,3577.2,617.9,1111.7,496.3,2025-01-29 10:47:02,1
-130.0,1188.4,3849.2,937.9,1597.7,343.3,2025-01-29 10:47:02,1
-166.0,1432.4,3841.2,1071.9,1516.7,278.3,2025-01-29 10:47:02,1
-490.0,1296.4,3817.2,873.9,1010.7,206.3,2025-01-29 10:47:02,1
-834.0,1280.4,4169.2,938.9,534.7,237.3,2025-01-29 10:47:02,1
-586.0,1444.4,3761.2,968.9,-290.3,480.3,2025-01-29 10:47:02,1
-690.0,1524.4,4057.2,1033.9,-611.3,501.3,2025-01-29 10:47:02,1
-510.0,1632.4,3869.2,1119.9,-712.3,365.3,2025-01-29 10:47:02,1
-1358.0,1176.4,4453.2,1076.9,-837.3,340.3,2025-01-29 10:47:02,1
-1670.0,1392.4,4257.2,1262.9,-985.3,550.3,2025-01-29 10:47:02,1
-2050.0,1412.4,4441.2,1324.9,-1805.3,626.3,2025-01-29 10:47:02,1
-2662.0,1924.4,4265.2,1449.9,-2674.3,908.3,2025-01-29 10:47:02,1
-2970.0,1952.4,3677.2,1838.9,-3396.3,1490.3,2025-01-29 10:47:02,1
-3226.0,1852.4,3345.2,1871.9,-3822.3,2508.3,2025-01-29 10:47:02,1
-2618.0,1684.4,3957.2,1577.9,-3804.3,3411.3,2025-01-29 10:47:02,1
-2002.0,1740.4,4537.2,1651.9,-3626.3,3755.3,2025-01-29 10:47:02,1
-1542.0,1720.4,5445.2,1799.9,-3793.3,3595.3,2025-01-29 10:47:02,1
-1958.0,1656.4,5341.2,2195.9,-3487.3,3724.3,2025-01-29 10:47:02,1
-2418.0,1452.4,3849.2,2946.9,-2060.3,4079.3,2025-01-29 10:47:02,1
-2914.0,2140.4,3201.2,3341.9,-581.3,3807.3,2025-01-29 10:47:02,1
-2786.0,2768.4,1249.1999999999998,3246.9,1388.7,2614.3,2025-01-29 10:47:02,1
-3962.0,3224.4,401.1999999999998,2869.9,1573.7,1808.3,2025-01-29 10:47:02,1
-4298.0,3164.4,401.1999999999998,2232.9,176.7,1499.3,2025-01-29 10:47:02,1
-3690.0,3088.4,893.1999999999998,1598.9,-1231.3,816.3,2025-01-29 10:47:02,1
-1946.0,2968.4,497.1999999999998,779.9,-2088.3,99.3,2025-01-29 10:47:02,1
-110.0,2288.4,345.1999999999998,405.9,-2166.3,-803.7,2025-01-29 10:47:02,1
458.0,1932.4,193.19999999999985,324.9,-1630.3,-1717.7,2025-01-29 10:47:02,1
1362.0,472.4,41.19999999999982,-320.1,-714.3,-2158.7,2025-01-29 10:47:02,1
1542.0,-123.60000000000002,-74.80000000000018,-941.1,507.7,-2653.7,2025-01-29 10:47:03,1
894.0,-735.6,1021.1999999999998,-1253.1,1999.7,-2921.7,2025-01-29 10:47:03,1
-218.0,-1523.6,1837.2,-1398.1,2838.7,-2934.7,2025-01-29 10:47:03,1
-714.0,-1667.6,2541.2,-1483.1,2827.7,-2756.7,2025-01-29 10:47:03,1
-1002.0,-1531.6,2721.2,-1404.1,2372.7,-2682.7,2025-01-29 10:47:03,1
-1394.0,-1491.6,2397.2,-1202.1,1725.7,-2671.7,2025-01-29 10:47:03,1
-1418.0,-1099.6,2481.2,-1177.1,1419.7,-2665.7,2025-01-29 10:47:03,1
-842.0,-1103.6,2745.2,-1046.1,1340.7,-2650.7,2025-01-29 10:47:03,1
-690.0,-811.6,2313.2,-1000.1,1296.7,-2754.7,2025-01-29 10:47:03,1
-662.0,-419.6,2229.2,-1282.1,910.7,-2915.7,2025-01-29 10:47:03,1
-514.0,-611.6,4969.2,-829.1,-426.3,-2944.7,2025-01-29 10:47:03,1
-22.0,-211.6,3121.2,-846.1,-784.3,-2349.7,2025-01-29 10:47:03,1
438.0,-491.6,3069.2,-926.1,-257.3,-1940.7,2025-01-29 10:47:03,1
386.0,-943.6,2897.2,-878.1,251.7,-1380.7,2025-01-29 10:47:03,1
802.0,-1271.6,3085.2,-1154.1,293.7,-1311.7,2025-01-29 10:47:03,1
1118.0,-1303.6,2517.2,-1579.1,448.7,-1519.7,2025-01-29 10:47:03,1
842.0,-1147.6,2401.2,-1752.1,687.7,-1724.7,2025-01-29 10:47:03,1
774.0,-1143.6,2525.2,-1973.1,851.7,-1656.7,2025-01-29 10:47:03,1
622.0,-1075.6,2469.2,-2282.1,886.7,-1458.7,2025-01-29 10:47:03,1
414.0,-1187.6,2833.2,-2449.1,877.7,-1345.7,2025-01-29 10:47:03,1
378.0,-1295.6,2757.2,-2471.1,910.7,-1302.7,2025-01-29 10:47:03,1
-478.0,-1003.6,3029.2,-2273.1,980.7,-1307.7,2025-01-29 10:47:03,1
-830.0,-991.6,3197.2,-2257.1,748.7,-1165.7,2025-01-29 10:47:03,1
-1354.0,-1303.6,3537.2,-2279.1,340.7,-887.7,2025-01-29 10:47:03,1
-1306.0,-1219.6,3521.2,-2316.1,-124.3,-312.7,2025-01-29 10:47:03,1
-1038.0,-1343.6,3773.2,-2320.1,-410.3,30.30000000000001,2025-01-29 10:47:03,1
-622.0,-1363.6,4669.2,-2167.1,-699.3,161.3,2025-01-29 10:47:03,1
-206.0,-1411.6,3989.2,-2118.1,-876.3,65.30000000000001,2025-01-29 10:47:03,1
-58.0,-1171.6,2833.2,-2657.1,-616.3,-246.7,2025-01-29 10:47:03,1
-478.0,-1299.6,3589.2,-2733.1,-95.3,-522.7,2025-01-29 10:47:03,1
-1078.0,-1091.6,3497.2,-2963.1,113.7,-705.7,2025-01-29 10:47:03,1
-1730.0,-871.6,3409.2,-3193.1,482.7,-832.7,2025-01-29 10:47:03,1
-1926.0,-607.6,2393.2,-3421.1,478.7,-1103.7,2025-01-29 10:47:03,1
-2234.0,-855.6,2693.2,-3872.1,122.7,-1607.7,2025-01-29 10:47:03,1
-3086.0,-1359.6,3205.2,-4062.1,-315.3,-1738.7,2025-01-29 10:47:03,1
-3330.0,-1787.6,4049.2,-4191.1,-868.3,-1804.7,2025-01-29 10:47:03,1
-3854.0,-1671.6,4001.2,-4083.1,-1230.3,-2119.7,2025-01-29 10:47:03,1
-4242.0,-1879.6,4045.2,-4039.1,-1476.3,-2383.7,2025-01-29 10:47:03,1
-4446.0,-2823.6,3049.2,-4003.1,-1553.3,-2767.7,2025-01-29 10:47:03,1
-5182.0,-2931.6,1737.1999999999998,-3735.1,-1468.3,-2750.7,2025-01-29 10:47:03,1
-4898.0,-3243.6,2265.2,-3172.1,-1275.3,-1979.7,2025-01-29 10:47:03,1
-3766.0,-3343.6,2253.2,-2535.1,-1405.3,-1053.7,2025-01-29 10:47:03,1
-2574.0,-2835.6,2833.2,-1827.1,-1565.3,-448.7,2025-01-29 10:47:03,1
-2822.0,-2471.6,2653.2,-952.1,-1774.3,173.3,2025-01-29 10:47:03,1
-1426.0,-1671.6,1337.1999999999998,-337.1,-2759.3,943.3,2025-01-29 10:47:03,1
1066.0,-787.6,-410.8000000000002,-243.1,-3736.3,838.3,2025-01-29 10:47:03,1
1726.0,-327.6,-1054.8000000000002,-501.1,-3599.3,390.3,2025-01-29 10:47:03,1
1738.0,916.4,-1742.8000000000002,-1068.1,-2984.3,29.30000000000001,2025-01-29 10:47:03,1
718.0,1316.4,-1174.8000000000002,-1446.1,-1396.3,-229.7,2025-01-29 10:47:03,1
-622.0,1940.4,517.1999999999998,-934.1,-13.300000000000011,442.3,2025-01-29 10:47:03,1
-1450.0,1516.4,685.1999999999998,-424.1,724.7,1597.3,2025-01-29 10:47:03,1
-1090.0,-115.60000000000002,1621.1999999999998,-435.1,1663.7,2245.3,2025-01-29 10:47:03,1
-598.0,-1475.6,2805.2,109.9,976.7,2686.3,2025-01-29 10:47:03,1
-634.0,-1367.6,1929.2,329.9,553.7,3075.3,2025-01-29 10:47:03,1
-922.0,-1003.6,1381.1999999999998,11.900000000000006,-78.30000000000001,3328.3,2025-01-29 10:47:03,1
-1294.0,-555.6,2689.2,205.9,-1225.3,3643.3,2025-01-29 10:47:03,1
-294.0,136.39999999999998,3653.2,970.9,-2287.3,3565.3,2025-01-29 10:47:03,1
162.0,292.4,3249.2,1615.9,-2768.3,3437.3,2025-01-29 10:47:03,1
938.0,1332.4,2905.2,1969.9,-2605.3,3121.3,2025-01-29 10:47:03,1
1238.0,1696.4,3297.2,2423.9,-1539.3,3146.3,2025-01-29 10:47:03,1
1362.0,1744.4,3829.2,2737.9,-556.3,2940.3,2025-01-29 10:47:04,1
1314.0,1412.4,4013.2,2924.9,-89.30000000000001,2796.3,2025-01-29 10:47:04,1
690.0,1160.4,3533.2,2868.9,18.69999999999999,2590.3,2025-01-29 10:47:04,1
106.0,1220.4,3517.2,2772.9,-109.3,2389.3,2025-01-29 10:47:04,1
-66.0,1332.4,3249.2,2684.9,-38.30000000000001,1972.3,2025-01-29 10:47:04,1
-38.0,1100.4,3185.2,2307.9,424.7,1358.3,2025-01-29 10:47:04,1
-222.0,1216.4,3841.2,2254.9,642.7,898.3,2025-01-29 10:47:04,1
-382.0,1180.4,4429.2,2292.9,658.7,724.3,2025-01-29 10:47:04,1
-450.0,888.4,4421.2,2354.9,277.7,676.3,2025-01-29 10:47:04,1
-54.0,1032.4,4725.2,2454.9,45.69999999999999,502.3,2025-01-29 10:47:04,1
254.0,1228.4,4969.2,2688.9,163.7,309.3,2025-01-29 10:47:04,1
10.0,952.4,5201.2,3041.9,542.7,-77.69999999999999,2025-01-29 10:47:04,1
-326.0,1296.4,4941.2,3377.9,752.7,-445.7,2025-01-29 10:47:04,1
-1494.0,1944.4,3717.2,3650.9,490.7,-342.7,2025-01-29 10:47:04,1
-1566.0,1740.4,3233.2,3529.9,785.7,-173.7,2025-01-29 10:47:04,1
-2234.0,1860.4,3885.2,3625.9,455.7,153.3,2025-01-29 10:47:04,1
-2422.0,1756.4,3897.2,3704.9,-9.300000000000011,659.3,2025-01-29 10:47:04,1
-2410.0,1596.4,3265.2,3779.9,-179.3,1041.3,2025-01-29 10:47:04,1
-2094.0,1632.4,2621.2,3622.9,-266.3,1112.3,2025-01-29 10:47:04,1
-2574.0,1772.4,3397.2,3547.9,-466.3,1130.3,2025-01-29 10:47:04,1
-3206.0,2176.4,4377.2,3649.9,-668.3,1083.3,2025-01-29 10:47:04,1
-3754.0,2004.4,4701.2,3883.9,-730.3,1106.3,2025-01-29 10:47:04,1
-4186.0,1960.4,3757.2,4069.9,-841.3,1392.3,2025-01-29 10:47:04,1
-4234.0,2000.4,2561.2,3720.9,-612.3,1675.3,2025-01-29 10:47:04,1
470.0,-1343.6,2649.2,-2410.1,1219.7,-2467.7,2025-01-29 10:47:04,1
110.0,-1243.6,3313.2,-1671.1,614.7,-2792.7,2025-01-29 10:47:04,1
-90.0,-1039.6,3501.2,-969.1,422.7,-2848.7,2025-01-29 10:47:04,1
102.0,-1175.6,3157.2,-403.1,605.7,-2635.7,2025-01-29 10:47:04,1
190.0,-1235.6,2745.2,-31.099999999999994,1098.7,-2238.7,2025-01-29 10:47:04,1
914.0,-1183.6,2529.2,-139.1,1876.7,-1753.7,2025-01-29 10:47:04,1
266.0,-759.6,3033.2,-330.1,1987.7,-1286.7,2025-01-29 10:47:04,1
-178.0,-671.6,3745.2,-379.1,1282.7,-679.7,2025-01-29 10:47:04,1
-1010.0,-1343.6,4025.2,-1092.1,774.7,-162.7,2025-01-29 10:47:04,1
-994.0,-1399.6,3725.2,-983.1,431.7,68.30000000000001,2025-01-29 10:47:04,1
-1046.0,-1263.6,4241.2,-1004.1,-119.3,139.3,2025-01-29 10:47:04,1
-658.0,-1335.6,3545.2,-1177.1,-595.3,90.3,2025-01-29 10:47:04,1
-22.0,-1299.6,3189.2,-1647.1,-883.3,-311.7,2025-01-29 10:47:04,1
-202.0,-1019.6,2981.2,-2193.1,-666.3,-1046.7,2025-01-29 10:47:04,1
-1166.0,-535.6,3133.2,-2649.1,-323.3,-1661.7,2025-01-29 10:47:04,1
-2606.0,-619.6,4137.2,-2794.1,-256.3,-1678.7,2025-01-29 10:47:05,1
-3418.0,-1215.6,4309.2,-2715.1,-415.3,-932.7,2025-01-29 10:47:05,1
-2870.0,-1499.6,4309.2,-2769.1,-825.3,-303.7,2025-01-29 10:47:05,1
-2398.0,-1671.6,4201.2,-3194.1,-850.3,-421.7,2025-01-29 10:47:05,1
-2662.0,-1767.6,4913.2,-3275.1,-769.3,-599.7,2025-01-29 10:47:05,1
-3106.0,-1971.6,5221.2,-3271.1,-1100.3,-638.7,2025-01-29 10:47:05,1
-3942.0,-2287.6,4249.2,-3037.1,-1487.3,-326.7,2025-01-29 10:47:05,1
-4150.0,-2291.6,3473.2,-2709.1,-980.3,-23.69999999999999,2025-01-29 10:47:05,1
-4306.0,-2507.6,3029.2,-2379.1,-639.3,424.3,2025-01-29 10:47:05,1
-3962.0,-2871.6,2053.2,-2013.1,-1142.3,695.3,2025-01-29 10:47:05,1
-3282.0,-2107.6,697.1999999999998,-1808.1,-1620.3,782.3,2025-01-29 10:47:05,1
-2362.0,-939.6,753.1999999999998,-1335.1,-2220.3,-193.7,2025-01-29 10:47:05,1
-3354.0,-1415.6,1065.1999999999998,-1043.1,-1815.3,-852.7,2025-01-29 10:47:05,1
-2334.0,44.39999999999998,1757.1999999999998,-1176.1,-2679.3,-659.7,2025-01-29 10:47:05,1
-578.0,1388.4,1497.1999999999998,-887.1,-3963.3,-593.7,2025-01-29 10:47:05,1
1258.0,1864.4,-366.8000000000002,-1414.1,-1471.3,9.300000000000011,2025-01-29 10:47:05,1
1018.0,1788.4,-54.80000000000018,-1852.1,624.7,89.30000000000001,2025-01-29 10:47:05,1
-170.0,1820.4,1021.1999999999998,-2025.1,2640.7,598.3,2025-01-29 10:47:05,1
-1722.0,1132.4,2321.2,-2016.1,3343.7,1388.3,2025-01-29 10:47:05,1
-2634.0,372.4,2885.2,-1927.1,2520.7,2073.3,2025-01-29 10:47:05,1
-1130.0,-359.6,2885.2,-1365.1,-102.3,4074.3,2025-01-29 10:47:05,1
734.0,684.4,3169.2,-936.1,-947.3,3529.3,2025-01-29 10:47:05,1
1110.0,1336.4,4077.2,-49.1,-1683.3,2749.3,2025-01-29 10:47:05,1
898.0,1648.4,3521.2,650.9,-2030.3,2024.3,2025-01-29 10:47:05,1
802.0,1764.4,3305.2,882.9,-2046.3,1504.3,2025-01-29 10:47:05,1
1642.0,1616.4,3537.2,982.9,-1931.3,812.3,2025-01-29 10:47:05,1
2458.0,1460.4,3797.2,912.9,-1105.3,-348.7,2025-01-29 10:47:05,1
814.0,1736.4,3517.2,898.9,134.7,-551.7,2025-01-29 10:47:05,1
-162.0,2012.4,2765.2,511.9,391.7,-508.7,2025-01-29 10:47:05,1
-870.0,2280.4,3281.2,78.9,761.7,-291.7,2025-01-29 10:47:05,1
-1282.0,1784.4,4437.2,205.9,69.69999999999999,-0.6999999999999886,2025-01-29 10:47:05,1
-506.0,1424.4,3557.2,-15.099999999999994,102.7,-105.7,2025-01-29 10:47:05,1
-1270.0,1340.4,4529.2,107.9,238.7,-60.69999999999999,2025-01-29 10:47:05,1
-1402.0,1012.4,4621.2,411.9,-334.3,249.3,2025-01-29 10:47:05,1
-958.0,688.4,4005.2,286.9,-459.3,155.3,2025-01-29 10:47:05,1
-818.0,924.4,4561.2,162.9,-323.3,100.3,2025-01-29 10:47:05,1
-1458.0,1492.4,4873.2,336.9,-444.3,391.3,2025-01-29 10:47:05,1
-2278.0,1996.4,5121.2,610.9,-1013.3,769.3,2025-01-29 10:47:05,1
-1886.0,-1055.6,3265.2,-1571.1,2275.7,-1377.7,2025-01-29 10:47:06,1
-2734.0,-891.6,3001.2,-527.1,807.7,-1569.7,2025-01-29 10:47:06,1
-2566.0,-763.6,3077.2,254.9,-626.3,-1415.7,2025-01-29 10:47:06,1
-1634.0,-1703.6,2645.2,744.9,-1459.3,-1603.7,2025-01-29 10:47:06,1
-550.0,-2139.6,2089.2,744.9,-1773.3,-1915.7,2025-01-29 10:47:06,1
-306.0,-2307.6,2137.2,684.9,-2516.3,-1911.7,2025-01-29 10:47:06,1
-78.0,-2191.6,1981.2,653.9,-3126.3,-1653.7,2025-01-29 10:47:06,1
174.0,-2083.6,2113.2,870.9,-3355.3,-1126.7,2025-01-29 10:47:06,1
-1390.0,252.4,2025.2,-1524.1,1284.7,2160.3,2025-01-29 10:47:06,1
-2254.0,1204.4,2265.2,-1373.1,1588.7,1919.3,2025-01-29 10:47:06,1
-2862.0,1360.4,2697.2,-1072.1,1404.7,1621.3,2025-01-29 10:47:06,1
-3178.0,868.4,2645.2,-797.1,388.7,1284.3,2025-01-29 10:47:06,1
-1994.0,400.4,2781.2,-817.1,-1000.3,1075.3,2025-01-29 10:47:06,1
-754.0,400.4,2117.2,-923.1,-1491.3,894.3,2025-01-29 10:47:06,1
430.0,672.4,1949.2,-1165.1,-1307.3,657.3,2025-01-29 10:47:06,1
1018.0,872.4,1977.2,-1367.1,-228.3,572.3,2025-01-29 10:47:06,1
758.0,1240.4,2589.2,-1329.1,1079.7,642.3,2025-01-29 10:47:06,1
-182.0,1680.4,3181.2,-1104.1,1759.7,689.3,2025-01-29 10:47:06,1
-934.0,2096.4,3669.2,-696.1,1216.7,831.3,2025-01-29 10:47:06,1
-454.0,2120.4,3213.2,-532.1,487.7,550.3,2025-01-29 10:47:06,1
-754.0,1860.4,2973.2,-558.1,496.7,224.3,2025-01-29 10:47:06,1
-818.0,1336.4,2557.2,-653.1,762.7,-108.7,2025-01-29 10:47:06,4
-1398.0,1260.4,2561.2,-780.1,1177.7,-267.7,2025-01-29 10:47:06,4
-2002.0,1244.4,3269.2,-677.1,716.7,-13.699999999999989,2025-01-29 10:47:06,4
-1798.0,1120.4,2901.2,-513.1,-323.3,118.3,2025-01-29 10:47:06,4
-1682.0,868.4,2737.2,-581.1,-1050.3,-7.699999999999989,2025-01-29 10:47:06,4
-1538.0,856.4,2737.2,-582.1,-1015.3,-108.7,2025-01-29 10:47:06,4
-1222.0,732.4,3021.2,-520.1,-925.3,-242.7,2025-01-29 10:47:06,4
-1298.0,864.4,3005.2,-538.1,-386.3,-306.7,2025-01-29 10:47:06,4
-1546.0,1104.4,3149.2,-477.1,33.69999999999999,-347.7,2025-01-29 10:47:07,4
-2478.0,508.4,4977.2,225.9,-710.3,1151.3,2025-01-29 10:47:07,4
-8078.0,476.4,697.1999999999998,-1067.1,-4579.3,1106.3,2025-01-29 10:47:07,4
-11390.0,320.4,1477.1999999999998,-1563.1,-6928.3,1860.3,2025-01-29 10:47:07,4
-12998.0,4592.4,-4070.8,-1503.1,-10997.3,721.3,2025-01-29 10:47:08,4
1386.0,3136.4,-2862.8,1054.9,-11468.3,-1580.7,2025-01-29 10:47:08,4
1674.0,1696.4,-5198.8,2260.9,752.7,251.3,2025-01-29 10:47:08,4
7606.0,2252.4,-7778.8,2206.9,7560.7,5431.3,2025-01-29 10:47:08,4
16482.0,352.4,-10362.8,2340.9,7815.7,7360.3,2025-01-29 10:47:08,4
25538.0,392.4,-10714.8,-1011.1,3916.7,5166.3,2025-01-29 10:47:08,4
28594.0,1332.4,-5230.8,-3452.1,955.7,1766.3,2025-01-29 10:47:08,4
24806.0,-355.6,-1362.8000000000002,-4992.1,2903.7,-925.7,2025-01-29 10:47:08,4
17770.0,-1571.6,3669.2,-7037.1,5347.7,-2714.7,2025-01-29 10:47:08,4
6798.0,728.4,22313.2,-6962.1,9123.7,-4337.7,2025-01-29 10:47:08,4
1926.0,-263.6,19237.2,-1811.1,-7215.3,-2066.7,2025-01-29 10:47:08,4
6578.0,-4159.6,15285.2,-2110.1,-9605.3,-1489.7,2025-01-29 10:47:08,4
13654.0,-4015.6,12325.2,-2028.1,-9448.3,-582.7,2025-01-29 10:47:08,4
17150.0,-1443.6,9257.2,-1591.1,-9002.3,-84.69999999999999,2025-01-29 10:47:08,4
16118.0,884.4,5849.2,1648.9,-4682.3,30.30000000000001,2025-01-29 10:47:08,4
14406.0,356.4,6865.2,1318.9,-4906.3,31.30000000000001,2025-01-29 10:47:08,4
14378.0,72.39999999999998,7013.2,706.9,-3322.3,-522.7,2025-01-29 10:47:08,4
14350.0,992.4,7929.2,206.9,-1537.3,-1089.7,2025-01-29 10:47:08,4
14806.0,1656.4,8081.2,133.9,-1475.3,-1282.7,2025-01-29 10:47:08,4
15078.0,988.4,7089.2,113.9,-2413.3,-1340.7,2025-01-29 10:47:08,4
14946.0,984.4,6973.2,245.9,-2393.3,-1095.7,2025-01-29 10:47:08,4
14386.0,1100.4,6385.2,631.9,-2482.3,-1099.7,2025-01-29 10:47:08,4
12906.0,1216.4,4665.2,627.9,-1803.3,-779.7,2025-01-29 10:47:08,4
11886.0,924.4,3765.2,-5.099999999999994,-1637.3,42.30000000000001,2025-01-29 10:47:08,4
10942.0,816.4,3005.2,-909.1,-733.3,1022.3,2025-01-29 10:47:08,4
8514.0,40.39999999999998,4069.2,-1885.1,-1225.3,1201.3,2025-01-29 10:47:08,4
3566.0,1344.4,5625.2,-2881.1,-2480.3,1783.3,2025-01-29 10:47:08,4
-214.0,4048.4,7949.2,-2153.1,-3310.3,3108.3,2025-01-29 10:47:08,4
-8918.0,5724.4,-7738.8,-1950.1,-8048.3,4355.3,2025-01-29 10:47:08,4
-12982.0,-2175.6,5729.2,-1179.1,-2521.3,1900.3,2025-01-29 10:47:08,4
-20670.0,-4119.6,4261.2,-1976.1,5471.7,-135.7,2025-01-29 10:47:08,4
-20670.0,-2699.6,-834.8000000000002,-3547.1,10443.7,-1067.7,2025-01-29 10:47:08,4
-1334.0,968.4,1933.2,3871.9,6622.7,338.3,2025-01-29 10:47:08,4
-1742.0,-123.60000000000002,2801.2,4517.9,5327.7,1194.3,2025-01-29 10:47:08,4
-1590.0,-919.6,4565.2,4486.9,3688.7,2212.3,2025-01-29 10:47:08,4
2154.0,356.4,7481.2,5458.9,2986.7,2880.3,2025-01-29 10:47:08,4
5270.0,1340.4,8813.2,6200.9,1524.7,2987.3,2025-01-29 10:47:08,4
7630.0,1204.4,7893.2,6410.9,-671.3,2757.3,2025-01-29 10:47:08,4
8674.0,-15.600000000000025,5913.2,5015.9,-3019.3,1714.3,2025-01-29 10:47:08,4
8806.0,-179.60000000000002,3837.2,3175.9,-3953.3,322.3,2025-01-29 10:47:09,4
6870.0,1240.4,3029.2,1701.9,-4258.3,-265.7,2025-01-29 10:47:09,4
7254.0,736.4,2349.2,435.9,-2691.3,-838.7,2025-01-29 10:47:09,4
5674.0,1852.4,6105.2,269.9,-2432.3,-823.7,2025-01-29 10:47:09,4
2402.0,884.4,5621.2,1071.9,-857.3,323.3,2025-01-29 10:47:09,4
-2698.0,540.4,3945.2,1938.9,5490.7,1346.3,2025-01-29 10:47:09,4
-3146.0,860.4,2405.2,2134.9,4122.7,1688.3,2025-01-29 10:47:09,4
-5078.0,912.4,2801.2,3053.9,3365.7,1452.3,2025-01-29 10:47:09,4
-8114.0,-143.60000000000002,2789.2,3598.9,4508.7,817.3,2025-01-29 10:47:09,4
-9906.0,-1271.6,2037.2,2543.9,5407.7,-51.69999999999999,2025-01-29 10:47:09,4
-7806.0,64.39999999999998,5609.2,1122.9,-423.3,9.300000000000011,2025-01-29 10:47:09,4
-4070.0,424.4,5721.2,566.9,-5632.3,888.3,2025-01-29 10:47:09,4
38.0,788.4,5549.2,-24.099999999999994,-4912.3,1159.3,2025-01-29 10:47:09,4
3382.0,1280.4,5897.2,-431.1,-4033.3,1311.3,2025-01-29 10:47:09,4
5006.0,1136.4,6005.2,-627.1,-2499.3,1016.3,2025-01-29 10:47:09,4
4114.0,572.4,6077.2,-505.1,23.69999999999999,306.3,2025-01-29 10:47:09,4
1530.0,508.4,6285.2,-302.1,3452.7,-318.7,2025-01-29 10:47:09,4
-846.0,156.39999999999998,6253.2,-78.1,3895.7,-780.7,2025-01-29 10:47:09,4
-2638.0,-159.60000000000002,4149.2,-67.1,1210.7,-695.7,2025-01-29 10:47:09,4
-4734.0,-99.60000000000002,3417.2,-434.1,1198.7,-491.7,2025-01-29 10:47:09,4
-5178.0,-71.60000000000002,3497.2,-908.1,491.7,-316.7,2025-01-29 10:47:09,4
-4630.0,476.4,3665.2,-1180.1,-1222.3,-278.7,2025-01-29 10:47:09,4
-2650.0,796.4,4209.2,-1359.1,-2822.3,-298.7,2025-01-29 10:47:09,4
-1066.0,512.4,4529.2,-1480.1,-2412.3,-426.7,2025-01-29 10:47:09,4
398.0,424.4,4505.2,-1681.1,-1286.3,-734.7,2025-01-29 10:47:09,4
258.0,156.39999999999998,5473.2,-1576.1,-435.3,-620.7,2025-01-29 10:47:09,4
-834.0,-23.600000000000023,5753.2,-1323.1,1221.7,-254.7,2025-01-29 10:47:09,4
-1614.0,-171.60000000000002,6125.2,-868.1,1053.7,234.3,2025-01-29 10:47:09,4
-1850.0,-375.6,5125.2,-626.1,526.7,352.3,2025-01-29 10:47:09,4
-1986.0,-147.60000000000002,4709.2,-423.1,-52.30000000000001,337.3,2025-01-29 10:47:09,4
-2134.0,68.39999999999998,4865.2,-369.1,-656.3,102.3,2025-01-29 10:47:09,4
-2030.0,212.4,4785.2,-337.1,-1187.3,-19.69999999999999,2025-01-29 10:47:09,4
-1374.0,364.4,4537.2,-384.1,-1242.3,-118.7,2025-01-29 10:47:09,4
-1306.0,280.4,4429.2,-607.1,-1017.3,-165.7,2025-01-29 10:47:09,4
-1290.0,280.4,4385.2,-811.1,-602.3,-138.7,2025-01-29 10:47:09,4
-1422.0,304.4,4581.2,-842.1,-257.3,59.30000000000001,2025-01-29 10:47:09,4
-1582.0,12.399999999999975,4757.2,-766.1,-120.3,246.3,2025-01-29 10:47:09,4
-1570.0,-135.60000000000002,5097.2,-659.1,-215.3,187.3,2025-01-29 10:47:09,4
-1574.0,-83.60000000000002,4829.2,-573.1,-476.3,27.30000000000001,2025-01-29 10:47:09,4
-1670.0,-79.60000000000002,4605.2,-498.1,-571.3,-50.69999999999999,2025-01-29 10:47:09,4
-1222.0,32.39999999999998,4745.2,-470.1,-618.3,-74.69999999999999,2025-01-29 10:47:09,4
-1322.0,252.4,4889.2,-422.1,-354.3,-68.69999999999999,2025-01-29 10:47:09,4
-1250.0,176.39999999999998,4897.2,-374.1,-75.30000000000001,36.30000000000001,2025-01-29 10:47:09,4
-1342.0,52.39999999999998,4561.2,-366.1,89.69999999999999,-9.699999999999989,2025-01-29 10:47:09,4
-1546.0,12.399999999999975,4661.2,-357.1,130.7,-168.7,2025-01-29 10:47:09,4
-1762.0,72.39999999999998,5009.2,-257.1,-59.30000000000001,-164.7,2025-01-29 10:47:09,4
-1858.0,52.39999999999998,5113.2,-130.1,-316.3,-110.7,2025-01-29 10:47:09,4
-1822.0,-23.600000000000023,4901.2,-21.099999999999994,-584.3,-69.69999999999999,2025-01-29 10:47:09,4
-1514.0,16.399999999999977,4681.2,-12.099999999999994,-354.3,-12.699999999999989,2025-01-29 10:47:09,4
-1402.0,288.4,4849.2,-22.099999999999994,-20.30000000000001,77.30000000000001,2025-01-29 10:47:09,4
-1534.0,364.4,4709.2,11.900000000000006,160.7,299.3,2025-01-29 10:47:09,4
-1370.0,468.4,4705.2,-16.099999999999994,184.7,373.3,2025-01-29 10:47:09,4
-1162.0,376.4,4541.2,-174.1,86.69999999999999,140.3,2025-01-29 10:47:09,4
-1338.0,480.4,4741.2,-359.1,-232.3,-96.7,2025-01-29 10:47:09,4
-1290.0,428.4,4641.2,-494.1,-414.3,-305.7,2025-01-29 10:47:09,4
-1210.0,356.4,4369.2,-588.1,-476.3,-399.7,2025-01-29 10:47:09,4
-1282.0,320.4,4425.2,-581.1,-309.3,-301.7,2025-01-29 10:47:09,4
-1650.0,228.4,4753.2,-537.1,-139.3,-77.69999999999999,2025-01-29 10:47:09,4
-1650.0,72.39999999999998,4897.2,-385.1,86.69999999999999,175.3,2025-01-29 10:47:09,4
-1738.0,132.39999999999998,4917.2,-257.1,344.7,313.3,2025-01-29 10:47:09,4
-1894.0,104.39999999999998,5077.2,-148.1,336.7,328.3,2025-01-29 10:47:09,0.0
-1486.0,88.39999999999998,4865.2,-139.1,-97.3,125.3,2025-01-29 10:47:09,0.0
-1606.0,96.39999999999998,5041.2,-241.1,-310.3,-36.69999999999999,2025-01-29 10:47:10,0.0
-1374.0,340.4,4709.2,-206.1,-257.3,-67.69999999999999,2025-01-29 10:47:10,0.0
-1534.0,452.4,4805.2,-206.1,-92.3,57.30000000000001,2025-01-29 10:47:10,0.0
-1602.0,432.4,4825.2,-214.1,-15.300000000000011,137.3,2025-01-29 10:47:10,0.0
-1626.0,388.4,4913.2,-231.1,-160.3,228.3,2025-01-29 10:47:10,0.0
-1582.0,328.4,4845.2,-290.1,-104.3,177.3,2025-01-29 10:47:10,0.0
-1494.0,300.4,4749.2,-359.1,-197.3,71.30000000000001,2025-01-29 10:47:10,0.0
-1558.0,320.4,4757.2,-372.1,-309.3,-2.6999999999999886,2025-01-29 10:47:10,7
-1678.0,352.4,4625.2,-412.1,-361.3,-60.69999999999999,2025-01-29 10:47:10,7
-1878.0,432.4,4637.2,-518.1,-533.3,22.30000000000001,2025-01-29 10:47:10,7
-1642.0,532.4,4557.2,-660.1,-632.3,127.3,2025-01-29 10:47:10,7
-1710.0,1036.4,4441.2,-764.1,-541.3,234.3,2025-01-29 10:47:10,7
-1386.0,1116.4,4077.2,-925.1,-455.3,242.3,2025-01-29 10:47:10,7
-1186.0,1424.4,3733.2,-1048.1,-237.3,-17.69999999999999,2025-01-29 10:47:10,7
-1458.0,1332.4,3413.2,-1322.1,-0.3000000000000113,-304.7,2025-01-29 10:47:10,7
-1102.0,1412.4,3257.2,-1686.1,-625.3,-433.7,2025-01-29 10:47:10,7
-1598.0,1428.4,3757.2,-1982.1,-242.3,-441.7,2025-01-29 10:47:10,7
-1706.0,1916.4,4353.2,-2149.1,-125.3,-166.7,2025-01-29 10:47:10,7
-1602.0,1536.4,3757.2,-2558.1,96.7,-567.7,2025-01-29 10:47:10,7
-1590.0,1776.4,4845.2,-2667.1,-142.3,-55.69999999999999,2025-01-29 10:47:10,7
-798.0,2028.4,4317.2,-2895.1,-135.3,51.30000000000001,2025-01-29 10:47:10,7
-798.0,2236.4,4625.2,-3313.1,43.69999999999999,-583.7,2025-01-29 10:47:10,7
-1054.0,2104.4,4861.2,-3639.1,-100.3,-1059.7,2025-01-29 10:47:10,7
-998.0,2084.4,4937.2,-3851.1,-200.3,-1382.7,2025-01-29 10:47:10,7
-878.0,1900.4,5065.2,-4089.1,24.69999999999999,-1651.7,2025-01-29 10:47:10,7
-1126.0,1740.4,4725.2,-4223.1,353.7,-1783.7,2025-01-29 10:47:10,7
-1486.0,1720.4,4501.2,-4379.1,758.7,-1726.7,2025-01-29 10:47:10,7
-2662.0,1808.4,4613.2,-4479.1,762.7,-1465.7,2025-01-29 10:47:10,7
-3298.0,1808.4,5005.2,-4291.1,-241.3,-966.7,2025-01-29 10:47:10,7
-2330.0,1396.4,4105.2,-4738.1,-819.3,-774.7,2025-01-29 10:47:10,7
-1966.0,1260.4,4601.2,-5255.1,-932.3,-1195.7,2025-01-29 10:47:10,7
-2194.0,1324.4,4309.2,-5400.1,-1447.3,-1031.7,2025-01-29 10:47:10,7
-1774.0,1332.4,3845.2,-5777.1,-928.3,-1449.7,2025-01-29 10:47:10,7
-1682.0,1352.4,4313.2,-5855.1,-751.3,-1684.7,2025-01-29 10:47:10,7
-1014.0,1216.4,4345.2,-5847.1,-810.3,-1883.7,2025-01-29 10:47:10,7
-1042.0,1192.4,3301.2,-6166.1,-694.3,-2095.7,2025-01-29 10:47:10,7
-1310.0,216.4,3757.2,-6721.1,-298.3,-2158.7,2025-01-29 10:47:10,7
-1294.0,-647.6,4001.2,-7575.1,-68.30000000000001,-2563.7,2025-01-29 10:47:10,7
-2146.0,-947.6,4829.2,-7881.1,-340.3,-2486.7,2025-01-29 10:47:10,7
-1178.0,-1707.6,4845.2,-8088.1,-471.3,-2152.7,2025-01-29 10:47:10,7
-938.0,-1819.6,5125.2,-8251.1,-897.3,-1923.7,2025-01-29 10:47:10,7
-1266.0,-1027.6,5345.2,-8193.1,-322.3,-1489.7,2025-01-29 10:47:10,7
-1546.0,-1051.6,5205.2,-7852.1,976.7,-1162.7,2025-01-29 10:47:10,7
-1606.0,-1319.6,5193.2,-7373.1,1321.7,-956.7,2025-01-29 10:47:10,7
-2186.0,-1735.6,4537.2,-7350.1,1077.7,-642.7,2025-01-29 10:47:10,7
-2338.0,-1807.6,4789.2,-7495.1,1058.7,-705.7,2025-01-29 10:47:10,7
-1390.0,-1087.6,4557.2,-9929.1,-3367.3,-4241.7,2025-01-29 10:47:10,7
-818.0,-1415.6,3745.2,-10202.1,-3157.3,-3550.7,2025-01-29 10:47:10,7
-242.0,-1283.6,4461.2,-10409.1,-2977.3,-3021.7,2025-01-29 10:47:10,7
-442.0,-1535.6,4505.2,-10671.1,-1343.3,-1973.7,2025-01-29 10:47:10,7
-878.0,-1407.6,4249.2,-10910.1,-674.3,-1207.7,2025-01-29 10:47:10,7
-1174.0,-1859.6,4353.2,-11085.1,41.69999999999999,-602.7,2025-01-29 10:47:10,7
-1386.0,-1811.6,4517.2,-11271.1,813.7,-159.7,2025-01-29 10:47:10,7
-1598.0,-1903.6,5177.2,-11214.1,1383.7,-21.69999999999999,2025-01-29 10:47:10,7
-1954.0,-1863.6,5169.2,-11231.1,1127.7,-57.69999999999999,2025-01-29 10:47:10,7
-2038.0,-1899.6,4893.2,-11389.1,513.7,-362.7,2025-01-29 10:47:10,7
-1814.0,-1587.6,4517.2,-11511.1,-316.3,-847.7,2025-01-29 10:47:11,7
-1694.0,-1459.6,4249.2,-11915.1,-909.3,-1499.7,2025-01-29 10:47:11,7
-1834.0,-1247.6,4657.2,-12130.1,-1248.3,-2024.7,2025-01-29 10:47:11,7
-1426.0,-911.6,5025.2,-12105.1,-2176.3,-2437.7,2025-01-29 10:47:11,7
-2094.0,-1355.6,4753.2,-12660.1,-2650.3,-2839.7,2025-01-29 10:47:11,7
-2030.0,-1487.6,4065.2,-12918.1,-2281.3,-2598.7,2025-01-29 10:47:11,7
-1322.0,-1283.6,4825.2,-13159.1,-1808.3,-2706.7,2025-01-29 10:47:11,7
-2178.0,-1367.6,4901.2,-13447.1,-2030.3,-2273.7,2025-01-29 10:47:11,7
-2782.0,-1287.6,4689.2,-13555.1,-1935.3,-1365.7,2025-01-29 10:47:11,7
-2034.0,-1403.6,3769.2,-13781.1,-1805.3,-585.7,2025-01-29 10:47:11,7
-1330.0,-1719.6,3757.2,-14256.1,-1876.3,-765.7,2025-01-29 10:47:11,7
-1242.0,-1911.6,3537.2,-14441.1,-2269.3,-971.7,2025-01-29 10:47:11,7
-1166.0,-1663.6,2405.2,-14451.1,-2676.3,-855.7,2025-01-29 10:47:11,7
-1006.0,-1423.6,1665.1999999999998,-14487.1,-1905.3,-462.7,2025-01-29 10:47:11,7
-962.0,-1675.6,1369.1999999999998,-14622.1,-115.3,-140.7,2025-01-29 10:47:11,7
-1314.0,-1163.6,849.1999999999998,-14993.1,1421.7,397.3,2025-01-29 10:47:11,7
-1354.0,-619.6,2169.2,-15082.1,3386.7,765.3,2025-01-29 10:47:11,7
-42.0,956.4,3397.2,-14421.1,3445.7,128.3,2025-01-29 10:47:11,7
198.0,2340.4,3669.2,-13576.1,2325.7,-666.7,2025-01-29 10:47:11,7
74.0,2860.4,3189.2,-13202.1,2188.7,-941.7,2025-01-29 10:47:11,7
86.0,2276.4,2565.2,-13084.1,2476.7,-1340.7,2025-01-29 10:47:11,7
-422.0,1508.4,2065.2,-13723.1,2730.7,-1630.7,2025-01-29 10:47:11,7
-522.0,956.4,1649.1999999999998,-14786.1,2683.7,-2202.7,2025-01-29 10:47:11,7
-1282.0,688.4,1473.1999999999998,-16028.1,1548.7,-2699.7,2025-01-29 10:47:11,7
-2266.0,536.4,1877.2,-16807.1,-144.3,-2421.7,2025-01-29 10:47:11,7
-2814.0,1028.4,2021.2,-17429.1,-840.3,-1719.7,2025-01-29 10:47:11,7
-2562.0,840.4,2637.2,-17856.1,-749.3,-992.7,2025-01-29 10:47:11,7
-1982.0,840.4,3281.2,-17672.1,-302.3,-782.7,2025-01-29 10:47:11,7
-1466.0,436.4,3545.2,-17274.1,-411.3,-935.7,2025-01-29 10:47:11,7
-1218.0,96.39999999999998,3601.2,-17209.1,-388.3,-1076.7,2025-01-29 10:47:11,7
-1106.0,-115.60000000000002,4637.2,-16712.1,384.7,-1484.7,2025-01-29 10:47:11,7
-1574.0,244.4,5449.2,-15891.1,1236.7,-1787.7,2025-01-29 10:47:11,7
-2430.0,248.4,6105.2,-14877.1,2302.7,-1722.7,2025-01-29 10:47:11,7
-2406.0,760.4,5805.2,-14042.1,1883.7,-1529.7,2025-01-29 10:47:11,7
-1330.0,1908.4,5357.2,-13398.1,243.7,-1848.7,2025-01-29 10:47:11,7
-1426.0,2488.4,5025.2,-13009.1,-376.3,-2137.7,2025-01-29 10:47:11,7
-1034.0,2132.4,4801.2,-12896.1,-833.3,-2543.7,2025-01-29 10:47:11,7
-1118.0,1876.4,4617.2,-13066.1,-1033.3,-2962.7,2025-01-29 10:47:11,7
-1138.0,1888.4,4501.2,-13372.1,-1117.3,-3347.7,2025-01-29 10:47:11,7
-1442.0,1744.4,4257.2,-13861.1,-1384.3,-3354.7,2025-01-29 10:47:11,7
-1242.0,1912.4,4421.2,-14122.1,-1429.3,-3205.7,2025-01-29 10:47:11,7
-554.0,2224.4,4565.2,-14217.1,-1210.3,-3046.7,2025-01-29 10:47:11,7
-114.0,2420.4,4357.2,-14156.1,-635.3,-2995.7,2025-01-29 10:47:11,7
-358.0,2312.4,4105.2,-14153.1,254.7,-2884.7,2025-01-29 10:47:11,7
-766.0,2128.4,3685.2,-14223.1,942.7,-2974.7,2025-01-29 10:47:11,7
-1358.0,2212.4,4097.2,-14258.1,917.7,-3141.7,2025-01-29 10:47:11,7
-1702.0,2096.4,4421.2,-14172.1,473.7,-3214.7,2025-01-29 10:47:11,7
-1442.0,2144.4,4097.2,-14002.1,-130.3,-3370.7,2025-01-29 10:47:11,7
-1186.0,2140.4,3533.2,-14011.1,-565.3,-3658.7,2025-01-29 10:47:11,7
-918.0,1908.4,3625.2,-14066.1,-641.3,-3959.7,2025-01-29 10:47:11,7
-970.0,1544.4,3409.2,-14104.1,-580.3,-4077.7,2025-01-29 10:47:11,7
-1138.0,1324.4,3405.2,-14181.1,-387.3,-3965.7,2025-01-29 10:47:11,7
-1374.0,1040.4,3377.2,-14177.1,3.6999999999999886,-3813.7,2025-01-29 10:47:11,7
-1762.0,1196.4,3813.2,-13978.1,-44.30000000000001,-3473.7,2025-01-29 10:47:11,7
-1846.0,1296.4,4085.2,-13585.1,-248.3,-3209.7,2025-01-29 10:47:11,7
-1562.0,1328.4,4409.2,-13099.1,-396.3,-2947.7,2025-01-29 10:47:11,7
-1126.0,1260.4,4433.2,-12548.1,-63.30000000000001,-2788.7,2025-01-29 10:47:11,7
-986.0,1292.4,4329.2,-12201.1,125.7,-2834.7,2025-01-29 10:47:11,7
-1010.0,1552.4,4305.2,-11955.1,-118.3,-2857.7,2025-01-29 10:47:11,7
-1254.0,1512.4,4381.2,-11781.1,-454.3,-2863.7,2025-01-29 10:47:11,7
-1078.0,1524.4,4373.2,-11747.1,-620.3,-2948.7,2025-01-29 10:47:11,7
-1150.0,1340.4,3961.2,-11901.1,-807.3,-3341.7,2025-01-29 10:47:12,7
-1586.0,688.4,4429.2,-11890.1,-1016.3,-3243.7,2025-01-29 10:47:12,7
-1294.0,176.39999999999998,4137.2,-11617.1,-682.3,-2953.7,2025-01-29 10:47:12,7
-1218.0,-827.6,4185.2,-11647.1,-531.3,-2826.7,2025-01-29 10:47:12,7
-1178.0,-1047.6,4761.2,-11771.1,-487.3,-2647.7,2025-01-29 10:47:12,7
-1350.0,-963.6,4941.2,-11503.1,-284.3,-2239.7,2025-01-29 10:47:12,7
-1934.0,-635.6,5133.2,-10972.1,-48.30000000000001,-1603.7,2025-01-29 10:47:12,7
-2270.0,-495.6,5873.2,-10103.1,213.7,-951.7,2025-01-29 10:47:12,7
-2014.0,532.4,6037.2,-8939.1,294.7,-614.7,2025-01-29 10:47:12,7
-1446.0,2008.4,5769.2,-7476.1,-160.3,-851.7,2025-01-29 10:47:12,7
-1222.0,2336.4,4833.2,-6523.1,-523.3,-1120.7,2025-01-29 10:47:12,7
-1506.0,2048.4,4665.2,-5617.1,-570.3,-1368.7,2025-01-29 10:47:12,7
-1534.0,2100.4,4521.2,-5075.1,-593.3,-1849.7,2025-01-29 10:47:12,7
-1530.0,2232.4,4289.2,-4863.1,-722.3,-2095.7,2025-01-29 10:47:12,7
-1846.0,1784.4,3829.2,-4717.1,265.7,-2131.7,2025-01-29 10:47:12,7
-1422.0,948.4,2289.2,-5390.1,1334.7,-2051.7,2025-01-29 10:47:12,7
-1138.0,324.4,1869.2,-6539.1,1398.7,-2134.7,2025-01-29 10:47:12,7
-866.0,-75.60000000000002,2297.2,-7244.1,1913.7,-2255.7,2025-01-29 10:47:12,7
-1270.0,232.4,2937.2,-7205.1,3043.7,-2261.7,2025-01-29 10:47:12,7
-1354.0,56.39999999999998,3469.2,-7028.1,3956.7,-1756.7,2025-01-29 10:47:12,7
-802.0,-59.60000000000002,4341.2,-6550.1,3895.7,-1576.7,2025-01-29 10:47:12,7
-1402.0,-831.6,2793.2,-5856.1,3749.7,-1623.7,2025-01-29 10:47:12,7
-494.0,-1203.6,4069.2,-5306.1,3443.7,-1906.7,2025-01-29 10:47:12,7
566.0,-1847.6,3241.2,-4610.1,3479.7,-2741.7,2025-01-29 10:47:12,7
722.0,-1895.6,2721.2,-4775.1,3992.7,-3553.7,2025-01-29 10:47:12,7
-94.0,-1543.6,3101.2,-4735.1,5064.7,-3728.7,2025-01-29 10:47:12,7
-770.0,-1455.6,2629.2,-4603.1,5885.7,-3565.7,2025-01-29 10:47:12,7
-1830.0,-1507.6,2769.2,-4576.1,5961.7,-3298.7,2025-01-29 10:47:12,7
-1602.0,-2339.6,3085.2,-4362.1,5443.7,-2656.7,2025-01-29 10:47:12,7
-1634.0,-1931.6,3789.2,-3509.1,4315.7,-2293.7,2025-01-29 10:47:12,7
-998.0,-1819.6,2725.2,-3076.1,3947.7,-1961.7,2025-01-29 10:47:12,7
-894.0,-1835.6,2969.2,-2623.1,4474.7,-1426.7,2025-01-29 10:47:12,7
694.0,-2335.6,3897.2,-1484.1,5043.7,-2135.7,2025-01-29 10:47:12,7
722.0,-1735.6,3041.2,-824.1,5951.7,-2807.7,2025-01-29 10:47:12,7
842.0,-1707.6,1397.1999999999998,-307.1,7228.7,-3170.7,2025-01-29 10:47:12,7
-438.0,-1647.6,1861.2,-803.1,7732.7,-3462.7,2025-01-29 10:47:12,7
-758.0,-1651.6,1317.1999999999998,-614.1,7821.7,-3472.7,2025-01-29 10:47:12,1
-1746.0,-1471.6,1465.1999999999998,-1019.1,6611.7,-3443.7,2025-01-29 10:47:12,1
-1790.0,-1475.6,1869.2,-1192.1,4173.7,-3339.7,2025-01-29 10:47:12,1
-2394.0,-1379.6,2257.2,-1361.1,1257.7,-3151.7,2025-01-29 10:47:12,1
-2434.0,-1307.6,2085.2,-1333.1,-811.3,-2446.7,2025-01-29 10:47:12,1
-2098.0,-1147.6,1733.1999999999998,-1498.1,-1353.3,-1547.7,2025-01-29 10:47:12,1
-474.0,-891.6,1829.2,-1747.1,-1715.3,-952.7,2025-01-29 10:47:12,1
1722.0,-1103.6,2117.2,-2040.1,-1666.3,-1324.7,2025-01-29 10:47:12,1
2230.0,-1567.6,2145.2,-2252.1,-464.3,-2227.7,2025-01-29 10:47:12,1
1186.0,-1699.6,2233.2,-2407.1,1345.7,-2067.7,2025-01-29 10:47:12,1
-162.0,-1711.6,2593.2,-2433.1,2886.7,-1318.7,2025-01-29 10:47:12,1
-606.0,-1883.6,2729.2,-2398.1,3219.7,-668.7,2025-01-29 10:47:12,1
-1222.0,-1959.6,2657.2,-2250.1,2668.7,-807.7,2025-01-29 10:47:12,1
-1794.0,-2071.6,2649.2,-2190.1,1759.7,-910.7,2025-01-29 10:47:12,1
-1986.0,-1855.6,2005.2,-2084.1,658.7,-612.7,2025-01-29 10:47:12,1
-1290.0,-1415.6,2133.2,-2051.1,-465.3,-344.7,2025-01-29 10:47:12,1
-454.0,-1035.6,1605.1999999999998,-2181.1,-916.3,-441.7,2025-01-29 10:47:12,1
354.0,-1003.6,825.1999999999998,-2492.1,-1014.3,-733.7,2025-01-29 10:47:12,1
382.0,-1227.6,869.1999999999998,-2872.1,-240.3,-945.7,2025-01-29 10:47:12,1
354.0,-1395.6,1093.1999999999998,-3226.1,633.7,-1150.7,2025-01-29 10:47:12,1
-58.0,-1279.6,1533.1999999999998,-3484.1,997.7,-1423.7,2025-01-29 10:47:12,1
-554.0,-1503.6,1257.1999999999998,-3673.1,1139.7,-1957.7,2025-01-29 10:47:12,1
-1458.0,-1567.6,1401.1999999999998,-3884.1,951.7,-2293.7,2025-01-29 10:47:12,1
-1870.0,-1911.6,1477.1999999999998,-4186.1,217.7,-2273.7,2025-01-29 10:47:12,1
-1954.0,-2291.6,1453.1999999999998,-4409.1,-372.3,-2119.7,2025-01-29 10:47:12,1
-1958.0,-2703.6,1685.1999999999998,-4702.1,-479.3,-1713.7,2025-01-29 10:47:12,1
-1834.0,-2831.6,1913.2,-4968.1,-152.3,-1256.7,2025-01-29 10:47:13,1
-1098.0,-3075.6,1957.2,-5048.1,303.7,-1222.7,2025-01-29 10:47:13,1
-990.0,-3467.6,1065.1999999999998,-4846.1,979.7,-1774.7,2025-01-29 10:47:13,1
-1622.0,-3967.6,477.1999999999998,-4210.1,2002.7,-2652.7,2025-01-29 10:47:13,1
-2990.0,-4291.6,177.19999999999982,-2773.1,2285.7,-3485.7,2025-01-29 10:47:13,1
-4718.0,-4255.6,105.19999999999982,-1585.1,1289.7,-3210.7,2025-01-29 10:47:13,1
-5514.0,-3879.6,321.1999999999998,-879.1,-1093.3,-1872.7,2025-01-29 10:47:13,1
-5582.0,-3207.6,141.19999999999982,-932.1,-3409.3,-19.69999999999999,2025-01-29 10:47:13,1
-3286.0,-1611.6,-414.8000000000002,-1401.1,-4834.3,2199.3,2025-01-29 10:47:13,1
282.0,-951.6,-1694.8000000000002,-2188.1,-5020.3,3028.3,2025-01-29 10:47:13,1
2230.0,-931.6,-2842.8,-2806.1,-3745.3,2839.3,2025-01-29 10:47:13,1
3102.0,-979.6,-2822.8,-2919.1,-2096.3,2501.3,2025-01-29 10:47:13,1
3494.0,-971.6,-1834.8,-2328.1,-494.3,1991.3,2025-01-29 10:47:13,1
2518.0,-235.6,-1114.8000000000002,-1600.1,860.7,1667.3,2025-01-29 10:47:13,1
1362.0,1076.4,-830.8000000000002,-1161.1,1691.7,1881.3,2025-01-29 10:47:13,1
358.0,2632.4,-1070.8000000000002,-1270.1,1634.7,2374.3,2025-01-29 10:47:13,1
18.0,3160.4,-1690.8000000000002,-2001.1,950.7,2547.3,2025-01-29 10:47:13,1
-242.0,2324.4,-1670.8000000000002,-2739.1,436.7,2421.3,2025-01-29 10:47:13,1
-662.0,1268.4,-1446.8000000000002,-3018.1,193.7,2526.3,2025-01-29 10:47:13,1
-602.0,900.4,-1118.8000000000002,-2970.1,-202.3,2909.3,2025-01-29 10:47:13,1
30.0,396.4,-442.8000000000002,-2824.1,-829.3,3177.3,2025-01-29 10:47:13,1
1206.0,-519.6,825.1999999999998,-2016.1,-1643.3,3307.3,2025-01-29 10:47:13,1
2002.0,-1019.6,1569.1999999999998,-885.1,-1919.3,3079.3,2025-01-29 10:47:13,1
2410.0,-875.6,1789.1999999999998,220.9,-1435.3,2809.3,2025-01-29 10:47:13,1
1826.0,-303.6,1389.1999999999998,1103.9,-499.3,3320.3,2025-01-29 10:47:13,1
1794.0,440.4,989.1999999999998,1724.9,294.7,4259.3,2025-01-29 10:47:13,1
2082.0,1272.4,369.1999999999998,2135.9,1346.7,4851.3,2025-01-29 10:47:13,1
1970.0,2248.4,209.19999999999985,2287.9,2744.7,4886.3,2025-01-29 10:47:13,1
1418.0,2548.4,-126.80000000000018,2272.9,3336.7,4698.3,2025-01-29 10:47:13,1
734.0,2376.4,-402.8000000000002,2279.9,2683.7,4338.3,2025-01-29 10:47:13,1
-14.0,2168.4,-486.8000000000002,2161.9,1463.7,4140.3,2025-01-29 10:47:13,1
-178.0,2172.4,117.19999999999982,2150.9,263.7,3895.3,2025-01-29 10:47:13,1
50.0,2292.4,385.1999999999998,2270.9,-746.3,3527.3,2025-01-29 10:47:13,1
478.0,2672.4,377.1999999999998,2184.9,-1331.3,3161.3,2025-01-29 10:47:13,1
1094.0,3032.4,445.1999999999998,2072.9,-1522.3,2746.3,2025-01-29 10:47:13,1
1554.0,2836.4,473.1999999999998,1810.9,-1228.3,2290.3,2025-01-29 10:47:13,1
1834.0,2648.4,617.1999999999998,1612.9,-817.3,1810.3,2025-01-29 10:47:13,1
1970.0,2372.4,789.1999999999998,1592.9,-541.3,1197.3,2025-01-29 10:47:13,1
1734.0,2432.4,637.1999999999998,1586.9,-313.3,587.3,2025-01-29 10:47:13,1
1102.0,3076.4,1001.1999999999998,1587.9,-101.3,198.3,2025-01-29 10:47:13,1
822.0,3336.4,673.1999999999998,1361.9,-473.3,-129.7,2025-01-29 10:47:13,1
470.0,3152.4,705.1999999999998,861.9,-1238.3,-188.7,2025-01-29 10:47:13,1
190.0,2968.4,785.1999999999998,395.9,-1689.3,69.30000000000001,2025-01-29 10:47:13,1
250.0,3000.4,1049.1999999999998,96.9,-1325.3,273.3,2025-01-29 10:47:13,1
198.0,2824.4,1037.1999999999998,22.90000000000001,-284.3,-146.7,2025-01-29 10:47:13,1
-546.0,2500.4,397.1999999999998,-75.1,646.7,-678.7,2025-01-29 10:47:13,1
-1650.0,1612.4,397.1999999999998,272.9,947.7,-972.7,2025-01-29 10:47:13,1
-1990.0,912.4,801.1999999999998,532.9,453.7,-944.7,2025-01-29 10:47:13,1
-2094.0,616.4,1797.1999999999998,963.9,-505.3,-778.7,2025-01-29 10:47:13,1
-1986.0,736.4,1753.1999999999998,1364.9,-1130.3,-306.7,2025-01-29 10:47:13,1
-1178.0,812.4,1553.1999999999998,1811.9,-736.3,159.3,2025-01-29 10:47:13,1
-966.0,604.4,2109.2,2620.9,909.7,210.3,2025-01-29 10:47:13,1
-2522.0,776.4,2417.2,3361.9,2496.7,586.3,2025-01-29 10:47:13,1
-3906.0,1360.4,661.1999999999998,3616.9,3277.7,1366.3,2025-01-29 10:47:13,1
-4458.0,1752.4,-706.8000000000002,2970.9,2983.7,1724.3,2025-01-29 10:47:13,1
-4266.0,2316.4,-1650.8000000000002,2151.9,1041.7,1841.3,2025-01-29 10:47:13,1
-3454.0,3584.4,-3354.8,1127.9,-2249.3,1968.3,2025-01-29 10:47:13,1
-2154.0,5104.4,-4338.8,112.9,-4494.3,2052.3,2025-01-29 10:47:13,1
66.0,5020.4,-4538.8,-834.1,-4939.3,1370.3,2025-01-29 10:47:13,1
1750.0,2304.4,-3618.8,-1536.1,-4332.3,-132.7,2025-01-29 10:47:13,1
1838.0,-543.6,-1414.8000000000002,-1304.1,-3710.3,-1204.7,2025-01-29 10:47:13,1
1890.0,-2639.6,-878.8000000000002,390.9,-2923.3,-2026.7,2025-01-29 10:47:14,1
1410.0,-2211.6,-3066.8,1686.9,-1012.3,-2954.7,2025-01-29 10:47:14,1
1418.0,-967.6,-3030.8,1982.9,-200.3,-3624.7,2025-01-29 10:47:14,1
970.0,-163.60000000000002,-1770.8000000000002,2202.9,-275.3,-3840.7,2025-01-29 10:47:14,1
826.0,156.39999999999998,-866.8000000000002,2392.9,-1145.3,-3450.7,2025-01-29 10:47:14,1
1382.0,-403.6,-818.8000000000002,2183.9,-1799.3,-2689.7,2025-01-29 10:47:14,1
2086.0,-1087.6,-246.80000000000015,1922.9,-1637.3,-2144.7,2025-01-29 10:47:14,1
2558.0,-1099.6,113.19999999999982,2111.9,-800.3,-1900.7,2025-01-29 10:47:14,1
2930.0,-827.6,-186.80000000000015,2327.9,490.7,-1908.7,2025-01-29 10:47:14,1
2622.0,-207.6,-450.8000000000002,2392.9,1767.7,-2000.7,2025-01-29 10:47:14,1
2306.0,-123.60000000000002,-218.80000000000015,2381.9,2218.7,-2127.7,2025-01-29 10:47:14,1
1890.0,-335.6,-770.8000000000002,2220.9,1837.7,-2256.7,2025-01-29 10:47:14,1
1498.0,-527.6,-950.8000000000002,1988.9,1197.7,-2283.7,2025-01-29 10:47:14,1
1282.0,-987.6,-1202.8000000000002,1794.9,760.7,-2138.7,2025-01-29 10:47:14,1
1262.0,-1107.6,-714.8000000000002,1597.9,724.7,-1926.7,2025-01-29 10:47:14,1
1482.0,-1255.6,-154.80000000000018,1413.9,546.7,-1758.7,2025-01-29 10:47:14,1
1414.0,-875.6,-86.80000000000018,1251.9,324.7,-1468.7,2025-01-29 10:47:14,1
1482.0,128.39999999999998,-362.8000000000002,711.9,685.7,-1140.7,2025-01-29 10:47:14,1
1362.0,492.4,-182.80000000000015,156.9,1088.7,-1201.7,2025-01-29 10:47:14,1
1102.0,384.4,-46.80000000000018,-354.1,1137.7,-1407.7,2025-01-29 10:47:14,1
814.0,168.39999999999998,-562.8000000000002,-951.1,780.7,-1502.7,2025-01-29 10:47:14,1
382.0,396.4,-542.8000000000002,-1776.1,30.69999999999999,-1553.7,2025-01-29 10:47:14,1
306.0,728.4,-194.80000000000015,-2612.1,-771.3,-1612.7,2025-01-29 10:47:14,1
242.0,984.4,-10.800000000000182,-3539.1,-1116.3,-1691.7,2025-01-29 10:47:14,1
-214.0,540.4,521.1999999999998,-4292.1,-1036.3,-1668.7,2025-01-29 10:47:14,1
-258.0,-303.6,629.1999999999998,-5075.1,-1046.3,-1859.7,2025-01-29 10:47:14,1
-446.0,-815.6,353.1999999999998,-5722.1,-1455.3,-2164.7,2025-01-29 10:47:14,1
-486.0,-939.6,249.19999999999985,-6071.1,-1992.3,-2265.7,2025-01-29 10:47:14,1
-42.0,-819.6,477.1999999999998,-6065.1,-2221.3,-2142.7,2025-01-29 10:47:14,1
378.0,-1151.6,985.1999999999998,-5988.1,-1601.3,-1959.7,2025-01-29 10:47:14,1
734.0,-1895.6,1441.1999999999998,-5786.1,-89.30000000000001,-2044.7,2025-01-29 10:47:14,1
-62.0,-2715.6,1541.1999999999998,-5440.1,1371.7,-2623.7,2025-01-29 10:47:14,1
-1598.0,-2755.6,1701.1999999999998,-5233.1,2022.7,-2974.7,2025-01-29 10:47:14,1
-3286.0,-2335.6,2173.2,-5043.1,1810.7,-2699.7,2025-01-29 10:47:14,1
-4098.0,-1807.6,2585.2,-5039.1,856.7,-2002.7,2025-01-29 10:47:14,1
-3338.0,-2619.6,2909.2,-5274.1,-1019.3,-1113.7,2025-01-29 10:47:14,1
-2342.0,-3363.6,1073.1999999999998,-4763.1,-1566.3,-823.7,2025-01-29 10:47:14,1
-1810.0,-2875.6,-1058.8000000000002,-3872.1,233.7,-736.7,2025-01-29 10:47:14,1
-2386.0,-3155.6,-766.8000000000002,-2573.1,1918.7,-770.7,2025-01-29 10:47:14,1
-3230.0,-4271.6,-1282.8000000000002,-967.1,679.7,-493.7,2025-01-29 10:47:14,1
-3650.0,-4743.6,-3134.8,425.9,-1320.3,89.30000000000001,2025-01-29 10:47:14,1
-3766.0,-3967.6,-3754.8,1063.9,-2538.3,1174.3,2025-01-29 10:47:14,1
-1018.0,-2023.6,-4322.8,1702.9,-3694.3,1615.3,2025-01-29 10:47:14,1
898.0,152.39999999999998,-5422.8,1066.9,-5077.3,889.3,2025-01-29 10:47:14,1
1394.0,2516.4,-4106.8,-571.1,-5780.3,1222.3,2025-01-29 10:47:14,1
2874.0,3860.4,-4026.8,-1765.1,-4858.3,2264.3,2025-01-29 10:47:14,1
3970.0,4880.4,-4246.8,-2977.1,-2261.3,2552.3,2025-01-29 10:47:14,1
4590.0,4852.4,-3842.8,-3989.1,1063.7,1802.3,2025-01-29 10:47:14,1
3550.0,2680.4,-2434.8,-4772.1,3403.7,387.3,2025-01-29 10:47:14,1
954.0,-23.600000000000023,49.19999999999982,-4531.1,3848.7,130.3,2025-01-29 10:47:14,1
-334.0,-1627.6,1009.1999999999998,-3263.1,3039.7,735.3,2025-01-29 10:47:14,1
-890.0,-1955.6,733.1999999999998,-2140.1,1023.7,1654.3,2025-01-29 10:47:14,1
-590.0,-1483.6,113.19999999999982,-1326.1,-427.3,2337.3,2025-01-29 10:47:14,1
602.0,-715.6,-202.80000000000015,-664.1,-1494.3,2744.3,2025-01-29 10:47:14,1
1242.0,224.4,-94.80000000000018,-158.1,-1772.3,3126.3,2025-01-29 10:47:14,1
1946.0,1212.4,149.19999999999982,196.9,-1713.3,3447.3,2025-01-29 10:47:14,1
2782.0,2216.4,13.199999999999818,309.9,-1360.3,3308.3,2025-01-29 10:47:14,1
2738.0,2724.4,185.19999999999985,267.9,-353.3,2749.3,2025-01-29 10:47:14,1
2458.0,2808.4,201.19999999999985,120.9,334.7,2087.3,2025-01-29 10:47:14,1
1882.0,2792.4,345.1999999999998,-103.1,751.7,1602.3,2025-01-29 10:47:14,1
1158.0,2256.4,521.1999999999998,-226.1,749.7,1347.3,2025-01-29 10:47:14,1
534.0,1776.4,861.1999999999998,-228.1,565.7,1367.3,2025-01-29 10:47:15,1
378.0,1468.4,1069.1999999999998,17.900000000000006,101.7,1396.3,2025-01-29 10:47:15,1
510.0,1664.4,1077.1999999999998,379.9,-330.3,1270.3,2025-01-29 10:47:15,1
706.0,1868.4,969.1999999999998,582.9,-718.3,947.3,2025-01-29 10:47:15,1
606.0,2108.4,1329.1999999999998,773.9,-1068.3,555.3,2025-01-29 10:47:15,1
770.0,2296.4,1109.1999999999998,929.9,-1372.3,188.3,2025-01-29 10:47:15,1
966.0,2080.4,1109.1999999999998,1160.9,-1447.3,-222.7,2025-01-29 10:47:15,1
1162.0,1476.4,985.1999999999998,1408.9,-1317.3,-543.7,2025-01-29 10:47:15,1
618.0,1092.4,1785.1999999999998,1793.9,-1041.3,-690.7,2025-01-29 10:47:15,1
474.0,1108.4,2033.2,2244.9,-708.3,-708.7,2025-01-29 10:47:15,1
302.0,1452.4,1441.1999999999998,2332.9,-897.3,-612.7,2025-01-29 10:47:15,1
146.0,1624.4,1037.1999999999998,2573.9,-1083.3,-499.7,2025-01-29 10:47:15,1
94.0,1632.4,777.1999999999998,2768.9,-825.3,-138.7,2025-01-29 10:47:15,1
42.0,1620.4,577.1999999999998,2966.9,-179.3,190.3,2025-01-29 10:47:15,1
-454.0,1256.4,-206.80000000000015,2777.9,-0.3000000000000113,421.3,2025-01-29 10:47:15,1
-1394.0,1908.4,-410.8000000000002,2589.9,672.7,938.3,2025-01-29 10:47:15,1
-1970.0,2236.4,325.1999999999998,2215.9,1165.7,1328.3,2025-01-29 10:47:15,1
-2294.0,2396.4,1121.1999999999998,1765.9,514.7,1311.3,2025-01-29 10:47:15,1
-3202.0,1540.4,3085.2,1555.9,-225.3,1000.3,2025-01-29 10:47:15,1
-3350.0,720.4,3333.2,1794.9,-1253.3,1194.3,2025-01-29 10:47:15,1
-2874.0,700.4,1609.1999999999998,1847.9,-1156.3,1983.3,2025-01-29 10:47:15,1
-1726.0,724.4,413.1999999999998,1710.9,-150.3,2268.3,2025-01-29 10:47:15,1
-1162.0,1860.4,-1410.8000000000002,1272.9,1230.7,1792.3,2025-01-29 10:47:15,1
-2266.0,3468.4,-4158.8,99.9,3059.7,1488.3,2025-01-29 10:47:15,1
-3618.0,4352.4,-6766.8,-1569.1,4118.7,1980.3,2025-01-29 10:47:15,1
-4110.0,3776.4,-8510.8,-3592.1,3628.7,2591.3,2025-01-29 10:47:15,1
-3450.0,2600.4,-6046.8,-4921.1,1458.7,2653.3,2025-01-29 10:47:15,1
-54.0,996.4,-2062.8,-4482.1,-2777.3,1402.3,2025-01-29 10:47:15,1
3282.0,-439.6,-450.8000000000002,-2980.1,-6363.3,-614.7,2025-01-29 10:47:15,1
4870.0,-1971.6,-266.8000000000002,-798.1,-7324.3,-2165.7,2025-01-29 10:47:15,1
4910.0,-3743.6,-802.8000000000002,909.9,-5271.3,-2484.7,2025-01-29 10:47:15,1
3974.0,-4623.6,-1742.8000000000002,2190.9,87.69999999999999,-1454.7,2025-01-29 10:47:15,1
3398.0,-2735.6,-1830.8,3082.9,5032.7,-436.7,2025-01-29 10:47:15,1
2266.0,-711.6,-2274.8,3247.9,7377.7,-878.7,2025-01-29 10:47:15,1
-82.0,1200.4,-2866.8,2783.9,7699.7,-1224.7,2025-01-29 10:47:15,1
-1054.0,2248.4,-2554.8,2132.9,5337.7,-1525.7,2025-01-29 10:47:15,1
-1250.0,1932.4,-1650.8000000000002,1438.9,623.7,-2224.7,2025-01-29 10:47:15,1
-842.0,816.4,-854.8000000000002,972.9,-2292.3,-2469.7,2025-01-29 10:47:15,1
286.0,-319.6,-670.8000000000002,901.9,-3463.3,-2428.7,2025-01-29 10:47:15,1
1910.0,-935.6,-694.8000000000002,680.9,-3526.3,-2332.7,2025-01-29 10:47:15,1
3334.0,-851.6,-570.8000000000002,488.9,-2370.3,-2403.7,2025-01-29 10:47:15,1
4034.0,-443.6,-934.8000000000002,236.9,-457.3,-2497.7,2025-01-29 10:47:15,1
3470.0,32.39999999999998,-874.8000000000002,-200.1,1777.7,-2392.7,2025-01-29 10:47:15,1
2522.0,284.4,-446.8000000000002,-498.1,3177.7,-2275.7,2025-01-29 10:47:15,1
1462.0,444.4,-354.8000000000002,-610.1,3406.7,-2329.7,2025-01-29 10:47:15,1
162.0,-439.6,-326.8000000000002,-621.1,2856.7,-2384.7,2025-01-29 10:47:15,1
-670.0,-1143.6,109.19999999999982,-537.1,1891.7,-2227.7,2025-01-29 10:47:15,1
-1162.0,-1687.6,457.1999999999998,-347.1,788.7,-1890.7,2025-01-29 10:47:15,1
-1030.0,-1791.6,409.1999999999998,-51.1,-326.3,-1434.7,2025-01-29 10:47:15,1
-574.0,-1551.6,317.1999999999998,186.9,-991.3,-829.7,2025-01-29 10:47:15,1
218.0,-1427.6,297.1999999999998,363.9,-1183.3,-316.7,2025-01-29 10:47:15,1
778.0,-1231.6,401.1999999999998,420.9,-1021.3,-118.7,2025-01-29 10:47:15,1
854.0,-1031.6,725.1999999999998,383.9,-761.3,3.300000000000012,2025-01-29 10:47:15,1
822.0,-495.6,825.1999999999998,292.9,-694.3,229.3,2025-01-29 10:47:15,1
726.0,-171.60000000000002,1225.1999999999998,127.9,-598.3,372.3,2025-01-29 10:47:15,1
890.0,-295.6,821.1999999999998,-254.1,-406.3,482.3,2025-01-29 10:47:15,1
950.0,-439.6,985.1999999999998,-609.1,9.699999999999989,443.3,2025-01-29 10:47:15,1
1042.0,-915.6,685.1999999999998,-879.1,337.7,358.3,2025-01-29 10:47:15,1
550.0,-1255.6,169.19999999999982,-1062.1,460.7,291.3,2025-01-29 10:47:15,1
454.0,-1279.6,-266.8000000000002,-1292.1,482.7,344.3,2025-01-29 10:47:15,1
302.0,-783.6,-374.8000000000002,-1466.1,624.7,337.3,2025-01-29 10:47:16,1
342.0,-63.60000000000002,-1158.8000000000002,-1913.1,785.7,49.30000000000001,2025-01-29 10:47:16,1
454.0,80.39999999999998,-1046.8000000000002,-2460.1,992.7,-392.7,2025-01-29 10:47:16,1
42.0,-139.60000000000002,-874.8000000000002,-2915.1,911.7,-771.7,2025-01-29 10:47:16,1
-454.0,-811.6,-430.8000000000002,-3359.1,697.7,-1200.7,2025-01-29 10:47:16,1
-1406.0,-1203.6,149.19999999999982,-3621.1,180.7,-1363.7,2025-01-29 10:47:16,1
-1738.0,-1451.6,1205.1999999999998,-3713.1,-144.3,-1464.7,2025-01-29 10:47:16,1
-1478.0,-2115.6,1541.1999999999998,-3723.1,-771.3,-1875.7,2025-01-29 10:47:16,1
-1422.0,-2587.6,913.1999999999998,-3391.1,-1250.3,-2356.7,2025-01-29 10:47:16,1
-1962.0,-2875.6,-130.80000000000018,-3230.1,-1081.3,-2361.7,2025-01-29 10:47:16,1
-2178.0,-3251.6,-538.8000000000002,-2723.1,-731.3,-2142.7,2025-01-29 10:47:16,1
-2634.0,-3211.6,-498.8000000000002,-1799.1,-972.3,-1945.7,2025-01-29 10:47:16,1
-3346.0,-3187.6,-1138.8000000000002,-763.1,-2387.3,-1282.7,2025-01-29 10:47:16,1
-3570.0,-2387.6,-1934.8,-347.1,-3997.3,-35.69999999999999,2025-01-29 10:47:16,1
-2226.0,-1523.6,-2886.8,-56.1,-4844.3,945.3,2025-01-29 10:47:16,1
-298.0,-1051.6,-3062.8,-99.1,-5271.3,981.3,2025-01-29 10:47:16,1
1090.0,-519.6,-3346.8,-550.1,-5517.3,1093.3,2025-01-29 10:47:16,1
2474.0,760.4,-3130.8,-1103.1,-4690.3,1338.3,2025-01-29 10:47:16,1
3002.0,1988.4,-2582.8,-1564.1,-2617.3,1488.3,2025-01-29 10:47:16,1
3230.0,2768.4,-2558.8,-2032.1,-880.3,1404.3,2025-01-29 10:47:16,1
2846.0,3000.4,-2586.8,-2217.1,318.7,1118.3,2025-01-29 10:47:16,1
2166.0,2608.4,-2218.8,-2219.1,1555.7,500.3,2025-01-29 10:47:16,1
1018.0,1376.4,-1758.8000000000002,-2276.1,2076.7,68.30000000000001,2025-01-29 10:47:16,1
-238.0,364.4,-802.8000000000002,-2248.1,1671.7,371.3,2025-01-29 10:47:16,1
-782.0,-511.6,-806.8000000000002,-1971.1,944.7,1004.3,2025-01-29 10:47:16,1
-1010.0,-819.6,-754.8000000000002,-1523.1,447.7,1917.3,2025-01-29 10:47:16,1
-622.0,-547.6,-690.8000000000002,-1226.1,-531.3,2577.3,2025-01-29 10:47:16,1
-270.0,-91.60000000000002,-578.8000000000002,-1041.1,-1752.3,2807.3,2025-01-29 10:47:16,1
2.0,328.4,-34.80000000000018,-798.1,-2668.3,3023.3,2025-01-29 10:47:16,1
794.0,1056.4,-146.80000000000018,-561.1,-3241.3,3282.3,2025-01-29 10:47:16,1
1986.0,1720.4,-26.800000000000185,-399.1,-3432.3,3175.3,2025-01-29 10:47:16,1
2738.0,2052.4,193.19999999999985,-185.1,-2726.3,2718.3,2025-01-29 10:47:16,1
3166.0,2164.4,753.1999999999998,53.900000000000006,-1354.3,2007.3,2025-01-29 10:47:16,1
2226.0,2004.4,1125.1999999999998,187.9,77.69999999999999,1305.3,2025-01-29 10:47:16,1
1578.0,1820.4,1081.1999999999998,205.9,639.7,1112.3,2025-01-29 10:47:16,1
754.0,1552.4,1041.1999999999998,362.9,880.7,1250.3,2025-01-29 10:47:16,1
534.0,1668.4,605.1999999999998,535.9,937.7,1350.3,2025-01-29 10:47:16,1
798.0,1644.4,297.1999999999998,766.9,753.7,1140.3,2025-01-29 10:47:16,1
662.0,1192.4,393.1999999999998,1067.9,555.7,680.3,2025-01-29 10:47:16,1
786.0,664.4,709.1999999999998,1481.9,285.7,378.3,2025-01-29 10:47:16,1
890.0,292.4,897.1999999999998,2017.9,16.69999999999999,117.3,2025-01-29 10:47:16,1
810.0,156.39999999999998,841.1999999999998,2522.9,380.7,-19.69999999999999,2025-01-29 10:47:16,1
310.0,164.39999999999998,641.1999999999998,2944.9,1010.7,141.3,2025-01-29 10:47:16,1
-554.0,432.4,641.1999999999998,3355.9,1407.7,539.3,2025-01-29 10:47:16,1
-1174.0,716.4,489.1999999999998,3665.9,1337.7,997.3,2025-01-29 10:47:16,1
-1606.0,876.4,617.1999999999998,3984.9,408.7,1220.3,2025-01-29 10:47:16,1
-1934.0,1072.4,953.1999999999998,4302.9,-755.3,1371.3,2025-01-29 10:47:16,1
-1470.0,1380.4,729.1999999999998,4549.9,-1942.3,1528.3,2025-01-29 10:47:16,1
-698.0,1544.4,441.1999999999998,4566.9,-2492.3,1661.3,2025-01-29 10:47:16,1
350.0,1500.4,541.1999999999998,4604.9,-2190.3,1754.3,2025-01-29 10:47:16,1
682.0,1388.4,1113.1999999999998,4718.9,-1037.3,1779.3,2025-01-29 10:47:16,1
74.0,588.4,1885.2,4890.9,442.7,1933.3,2025-01-29 10:47:16,1
-666.0,-63.60000000000002,2905.2,5539.9,1413.7,2319.3,2025-01-29 10:47:16,1
-1270.0,-163.60000000000002,2357.2,6138.9,1359.7,2638.3,2025-01-29 10:47:16,1
-1902.0,172.39999999999998,1621.1999999999998,6421.9,1018.7,3014.3,2025-01-29 10:47:16,1
-1862.0,628.4,69.19999999999982,6666.9,441.7,3250.3,2025-01-29 10:47:16,1
-1618.0,1036.4,-1278.8000000000002,6573.9,-109.3,3316.3,2025-01-29 10:47:16,1
-878.0,1160.4,-1550.8000000000002,6234.9,-904.3,2889.3,2025-01-29 10:47:16,1
-326.0,1420.4,-1702.8000000000002,6121.9,-1204.3,2176.3,2025-01-29 10:47:16,1
-174.0,1428.4,-3006.8,5894.9,-644.3,1816.3,2025-01-29 10:47:16,1
-414.0,2580.4,-5586.8,5398.9,364.7,1997.3,2025-01-29 10:47:16,1
-534.0,3168.4,-6254.8,3879.9,1695.7,2040.3,2025-01-29 10:47:16,1
-158.0,3264.4,-3746.8,2686.9,1958.7,1172.3,2025-01-29 10:47:17,1
642.0,2596.4,-2078.8,2443.9,6.699999999999989,-427.7,2025-01-29 10:47:17,1
866.0,2112.4,-1486.8000000000002,2086.9,-2294.3,-1900.7,2025-01-29 10:47:17,1
1466.0,1436.4,-1158.8000000000002,1456.9,-3432.3,-2059.7,2025-01-29 10:47:17,1
2766.0,-11.600000000000025,-866.8000000000002,1164.9,-3497.3,-1910.7,2025-01-29 10:47:17,1
3610.0,-1387.6,-302.8000000000002,1035.9,-2559.3,-2027.7,2025-01-29 10:47:17,1
3382.0,-2267.6,449.1999999999998,1048.9,-559.3,-1884.7,2025-01-29 10:47:17,1
2606.0,-2487.6,297.1999999999998,1124.9,1649.7,-1405.7,2025-01-29 10:47:17,1
1622.0,-2159.6,-610.8000000000002,1249.9,2936.7,-1127.7,2025-01-29 10:47:17,1
258.0,-1187.6,-554.8000000000002,1452.9,4052.7,-1235.7,2025-01-29 10:47:17,1
-1314.0,-559.6,-1022.8000000000002,1318.9,4044.7,-1300.7,2025-01-29 10:47:17,1
-1406.0,-543.6,-2190.8,692.9,1277.7,-1250.7,2025-01-29 10:47:17,1
-1170.0,-1139.6,-1670.8000000000002,242.9,-995.3,-900.7,2025-01-29 10:47:17,1
470.0,-1303.6,-1530.8000000000002,43.900000000000006,-1995.3,-738.7,2025-01-29 10:47:17,1
2194.0,-1511.6,-1678.8000000000002,-100.1,-1988.3,-961.7,2025-01-29 10:47:17,1
3042.0,-1839.6,-1086.8000000000002,-90.1,-913.3,-1101.7,2025-01-29 10:47:17,1
3210.0,-2087.6,-898.8000000000002,-19.099999999999994,872.7,-1169.7,2025-01-29 10:47:17,1
2686.0,-1599.6,-670.8000000000002,3.9000000000000057,2548.7,-1166.7,2025-01-29 10:47:17,1
1946.0,-1575.6,-1342.8000000000002,-162.1,3164.7,-1282.7,2025-01-29 10:47:17,1
42.0,-1579.6,-1130.8000000000002,-281.1,2824.7,-1089.7,2025-01-29 10:47:17,1
-562.0,-1511.6,-1086.8000000000002,-403.1,1772.7,-794.7,2025-01-29 10:47:17,1
-602.0,-1259.6,-846.8000000000002,-605.1,903.7,-578.7,2025-01-29 10:47:17,1
-198.0,-1419.6,-522.8000000000002,-818.1,289.7,-350.7,2025-01-29 10:47:17,1
150.0,-1459.6,-242.80000000000015,-860.1,-33.30000000000001,-79.69999999999999,2025-01-29 10:47:17,1
678.0,-1483.6,-510.8000000000002,-959.1,-21.30000000000001,153.3,2025-01-29 10:47:17,1
926.0,-1519.6,-838.8000000000002,-1084.1,318.7,273.3,2025-01-29 10:47:17,1
518.0,-1115.6,-698.8000000000002,-1204.1,615.7,544.3,2025-01-29 10:47:17,1
-22.0,-863.6,-1162.8000000000002,-1424.1,362.7,783.3,2025-01-29 10:47:17,1
-146.0,-787.6,-1274.8000000000002,-1584.1,-9.300000000000011,567.3,2025-01-29 10:47:17,1
-422.0,-495.6,-1142.8000000000002,-1392.1,-404.3,337.3,2025-01-29 10:47:17,1
-510.0,-451.6,-910.8000000000002,-1210.1,-849.3,175.3,2025-01-29 10:47:17,1
-106.0,-223.6,-218.80000000000015,-1252.1,-1079.3,62.30000000000001,2025-01-29 10:47:17,1
350.0,-355.6,-10.800000000000182,-1322.1,-843.3,-127.7,2025-01-29 10:47:17,1
838.0,-983.6,-554.8000000000002,-1456.1,-555.3,-374.7,2025-01-29 10:47:17,1
1030.0,-1295.6,-498.8000000000002,-1279.1,-252.3,-342.7,2025-01-29 10:47:17,1
942.0,-1351.6,-854.8000000000002,-1172.1,-27.30000000000001,42.30000000000001,2025-01-29 10:47:17,1
1062.0,-1227.6,-810.8000000000002,-1151.1,245.7,337.3,2025-01-29 10:47:17,1
942.0,-943.6,-894.8000000000002,-949.1,549.7,348.3,2025-01-29 10:47:17,1
342.0,-539.6,-1090.8000000000002,-874.1,544.7,206.3,2025-01-29 10:47:17,1
14.0,-359.6,-830.8000000000002,-979.1,246.7,114.3,2025-01-29 10:47:17,1
-270.0,-175.60000000000002,-562.8000000000002,-1043.1,-268.3,64.30000000000001,2025-01-29 10:47:17,1
-34.0,0.3999999999999772,-530.8000000000002,-1142.1,-644.3,144.3,2025-01-29 10:47:17,1
354.0,-11.600000000000025,-842.8000000000002,-1140.1,-737.3,22.30000000000001,2025-01-29 10:47:17,1
550.0,-235.6,-1170.8000000000002,-1067.1,-575.3,-10.699999999999989,2025-01-29 10:47:17,1
738.0,-267.6,-1218.8000000000002,-1009.1,-211.3,151.3,2025-01-29 10:47:17,1
794.0,-135.60000000000002,-878.8000000000002,-1101.1,148.7,111.3,2025-01-29 10:47:17,1
434.0,-159.60000000000002,-598.8000000000002,-1149.1,20.69999999999999,-5.699999999999989,2025-01-29 10:47:17,1
118.0,-359.6,-498.8000000000002,-1093.1,-226.3,-78.69999999999999,2025-01-29 10:47:17,1
190.0,-263.6,-486.8000000000002,-1000.1,-416.3,-93.7,2025-01-29 10:47:17,1
154.0,-259.6,-458.8000000000002,-1037.1,-539.3,-178.7,2025-01-29 10:47:17,1
430.0,-95.60000000000002,-674.8000000000002,-1052.1,-506.3,-154.7,2025-01-29 10:47:17,1
578.0,-51.60000000000002,-882.8000000000002,-1169.1,-449.3,-97.7,2025-01-29 10:47:17,1
666.0,-79.60000000000002,-510.8000000000002,-1173.1,-155.3,-147.7,2025-01-29 10:47:17,1
626.0,-91.60000000000002,-626.8000000000002,-1164.1,83.69999999999999,-159.7,2025-01-29 10:47:17,1
202.0,-47.60000000000002,-346.8000000000002,-1044.1,239.7,-177.7,2025-01-29 10:47:17,1
74.0,-243.6,-378.8000000000002,-979.1,170.7,-151.7,2025-01-29 10:47:17,1
134.0,-331.6,-334.8000000000002,-882.1,-31.30000000000001,-70.69999999999999,2025-01-29 10:47:17,1
38.0,-403.6,-206.80000000000015,-765.1,-153.3,32.30000000000001,2025-01-29 10:47:17,1
318.0,-607.6,-430.8000000000002,-563.1,-145.3,156.3,2025-01-29 10:47:18,1
498.0,-631.6,-434.8000000000002,-406.1,55.69999999999999,172.3,2025-01-29 10:47:18,1
318.0,-411.6,-550.8000000000002,-316.1,120.7,220.3,2025-01-29 10:47:18,1
350.0,-347.6,-882.8000000000002,-160.1,229.7,213.3,2025-01-29 10:47:18,1
338.0,-203.6,-990.8000000000002,-130.1,242.7,151.3,2025-01-29 10:47:18,1
326.0,-143.60000000000002,-1038.8000000000002,-137.1,178.7,119.3,2025-01-29 10:47:18,1
310.0,-211.6,-1150.8000000000002,-244.1,21.69999999999999,57.30000000000001,2025-01-29 10:47:18,1
246.0,-391.6,-770.8000000000002,-353.1,-152.3,26.30000000000001,2025-01-29 10:47:18,1
314.0,-323.6,-754.8000000000002,-402.1,-204.3,93.3,2025-01-29 10:47:18,1
554.0,-91.60000000000002,-690.8000000000002,-530.1,-206.3,85.30000000000001,2025-01-29 10:47:18,1
614.0,52.39999999999998,-594.8000000000002,-661.1,-141.3,-62.69999999999999,2025-01-29 10:47:18,1
490.0,28.399999999999977,-506.8000000000002,-704.1,57.69999999999999,-190.7,2025-01-29 10:47:18,1
370.0,44.39999999999998,-386.8000000000002,-668.1,141.7,-250.7,2025-01-29 10:47:18,1
294.0,40.39999999999998,-662.8000000000002,-654.1,85.69999999999999,-346.7,2025-01-29 10:47:18,1
146.0,124.39999999999998,-714.8000000000002,-727.1,26.69999999999999,-390.7,2025-01-29 10:47:18,1
98.0,148.39999999999998,-354.8000000000002,-727.1,-87.30000000000001,-376.7,2025-01-29 10:47:18,1
202.0,240.4,-154.80000000000018,-771.1,-144.3,-399.7,2025-01-29 10:47:18,1
318.0,-19.600000000000023,-182.80000000000015,-789.1,-141.3,-394.7,2025-01-29 10:47:18,1
278.0,-91.60000000000002,-306.8000000000002,-663.1,-19.30000000000001,-335.7,2025-01-29 10:47:18,1
286.0,-27.600000000000023,-410.8000000000002,-571.1,176.7,-339.7,2025-01-29 10:47:18,1
158.0,-43.60000000000002,-526.8000000000002,-515.1,224.7,-296.7,2025-01-29 10:47:18,1
274.0,-159.60000000000002,-922.8000000000002,-452.1,57.69999999999999,-258.7,2025-01-29 10:47:18,1
390.0,-127.60000000000002,-674.8000000000002,-385.1,47.69999999999999,-180.7,2025-01-29 10:47:18,1
406.0,60.39999999999998,-706.8000000000002,-341.1,104.7,-127.7,2025-01-29 10:47:18,1
262.0,108.39999999999998,-530.8000000000002,-237.1,130.7,22.30000000000001,2025-01-29 10:47:18,1
414.0,-19.600000000000023,-846.8000000000002,-214.1,113.7,9.300000000000011,2025-01-29 10:47:18,1
254.0,-275.6,-670.8000000000002,-216.1,192.7,28.30000000000001,2025-01-29 10:47:18,1
290.0,-223.6,-750.8000000000002,-111.1,177.7,116.3,2025-01-29 10:47:18,1
190.0,-55.60000000000002,-678.8000000000002,-78.1,46.69999999999999,238.3,2025-01-29 10:47:18,1
146.0,-3.6000000000000227,-598.8000000000002,-57.1,-81.30000000000001,258.3,2025-01-29 10:47:18,1
234.0,-7.600000000000023,-638.8000000000002,-37.1,-193.3,287.3,2025-01-29 10:47:18,1
330.0,-107.60000000000002,-802.8000000000002,-38.1,-181.3,282.3,2025-01-29 10:47:18,1
386.0,-259.6,-702.8000000000002,-9.099999999999994,-222.3,257.3,2025-01-29 10:47:18,1
282.0,-355.6,-566.8000000000002,96.9,-306.3,350.3,2025-01-29 10:47:18,1
530.0,-275.6,-542.8000000000002,156.9,-229.3,328.3,2025-01-29 10:47:18,1
602.0,-91.60000000000002,-722.8000000000002,82.9,-158.3,238.3,2025-01-29 10:47:18,1
414.0,4.399999999999977,-562.8000000000002,113.9,-46.30000000000001,219.3,2025-01-29 10:47:18,1
442.0,112.39999999999998,-842.8000000000002,110.9,-25.30000000000001,215.3,2025-01-29 10:47:18,1
374.0,32.39999999999998,-734.8000000000002,78.9,8.699999999999989,222.3,2025-01-29 10:47:18,1
254.0,28.399999999999977,-866.8000000000002,44.900000000000006,-66.30000000000001,187.3,2025-01-29 10:47:18,1
370.0,28.399999999999977,-682.8000000000002,-60.1,-244.3,144.3,2025-01-29 10:47:18,1
422.0,0.3999999999999772,-742.8000000000002,-113.1,-226.3,99.3,2025-01-29 10:47:18,1
366.0,-15.600000000000025,-814.8000000000002,-129.1,-175.3,149.3,2025-01-29 10:47:18,1
546.0,56.39999999999998,-714.8000000000002,-178.1,-75.30000000000001,108.3,2025-01-29 10:47:18,1
366.0,-35.60000000000002,-686.8000000000002,-264.1,-70.30000000000001,44.30000000000001,2025-01-29 10:47:18,1
358.0,-139.60000000000002,-658.8000000000002,-220.1,-71.30000000000001,57.30000000000001,2025-01-29 10:47:18,1
402.0,-91.60000000000002,-802.8000000000002,-202.1,-92.3,62.30000000000001,2025-01-29 10:47:18,1
334.0,-51.60000000000002,-766.8000000000002,-267.1,-166.3,85.30000000000001,2025-01-29 10:47:18,1
238.0,-87.60000000000002,-766.8000000000002,-243.1,-297.3,122.3,2025-01-29 10:47:18,1
282.0,8.399999999999977,-566.8000000000002,-237.1,-289.3,132.3,2025-01-29 10:47:18,1
458.0,4.399999999999977,-550.8000000000002,-211.1,-236.3,106.3,2025-01-29 10:47:18,1
350.0,-51.60000000000002,-578.8000000000002,-276.1,-281.3,146.3,2025-01-29 10:47:18,1
270.0,-219.6,-586.8000000000002,-215.1,-313.3,85.30000000000001,2025-01-29 10:47:18,1
334.0,-47.60000000000002,-722.8000000000002,-180.1,-299.3,118.3,2025-01-29 10:47:18,1
234.0,-111.60000000000002,-610.8000000000002,-140.1,-273.3,157.3,2025-01-29 10:47:18,1
378.0,-27.600000000000023,-786.8000000000002,-190.1,-286.3,170.3,2025-01-29 10:47:18,1
434.0,80.39999999999998,-610.8000000000002,-225.1,-205.3,132.3,2025-01-29 10:47:18,1
414.0,108.39999999999998,-650.8000000000002,-237.1,-173.3,116.3,2025-01-29 10:47:18,1
362.0,-263.6,-746.8000000000002,-214.1,-195.3,147.3,2025-01-29 10:47:18,1
346.0,-119.60000000000002,-694.8000000000002,-137.1,-184.3,111.3,2025-01-29 10:47:18,1
358.0,-87.60000000000002,-654.8000000000002,-170.1,-150.3,85.30000000000001,2025-01-29 10:47:18,1
302.0,-115.60000000000002,-626.8000000000002,-165.1,-89.30000000000001,130.3,2025-01-29 10:47:18,1
342.0,-27.600000000000023,-898.8000000000002,-122.1,-276.3,124.3,2025-01-29 10:47:18,1
430.0,-111.60000000000002,-770.8000000000002,-115.1,-251.3,136.3,2025-01-29 10:47:18,1
498.0,-19.600000000000023,-818.8000000000002,-92.1,-136.3,145.3,2025-01-29 10:47:19,1
410.0,148.39999999999998,-722.8000000000002,-145.1,-127.3,111.3,2025-01-29 10:47:19,1
310.0,132.39999999999998,-598.8000000000002,-173.1,-148.3,119.3,2025-01-29 10:47:19,1
234.0,148.39999999999998,-662.8000000000002,-177.1,-222.3,82.30000000000001,2025-01-29 10:47:19,1
370.0,108.39999999999998,-810.8000000000002,-274.1,-283.3,39.30000000000001,2025-01-29 10:47:19,1
346.0,-3.6000000000000227,-694.8000000000002,-291.1,-360.3,45.30000000000001,2025-01-29 10:47:19,1
358.0,-31.600000000000023,-638.8000000000002,-231.1,-297.3,97.3,2025-01-29 10:47:19,1
438.0,-115.60000000000002,-630.8000000000002,-204.1,-245.3,118.3,2025-01-29 10:47:19,1
526.0,-227.6,-738.8000000000002,-117.1,-237.3,150.3,2025-01-29 10:47:19,1
542.0,-143.60000000000002,-490.8000000000002,-62.1,13.699999999999989,130.3,2025-01-29 10:47:19,1
422.0,-79.60000000000002,-466.8000000000002,-64.1,127.7,67.30000000000001,2025-01-29 10:47:19,1
570.0,28.399999999999977,-850.8000000000002,-57.1,104.7,0.3000000000000113,2025-01-29 10:47:19,1
106.0,-23.600000000000023,-670.8000000000002,-123.1,-12.300000000000011,-1.6999999999999886,2025-01-29 10:47:19,1
250.0,-27.600000000000023,-918.8000000000002,-136.1,-145.3,40.30000000000001,2025-01-29 10:47:19,1
298.0,-67.60000000000002,-974.8000000000002,-176.1,-156.3,89.30000000000001,2025-01-29 10:47:19,1
582.0,-67.60000000000002,-826.8000000000002,-236.1,-125.3,71.30000000000001,2025-01-29 10:47:19,1
614.0,-115.60000000000002,-706.8000000000002,-300.1,46.69999999999999,-48.69999999999999,2025-01-29 10:47:19,1
294.0,-163.60000000000002,-630.8000000000002,-355.1,89.69999999999999,-65.69999999999999,2025-01-29 10:47:19,1
250.0,-115.60000000000002,-450.8000000000002,-296.1,62.69999999999999,-107.7,2025-01-29 10:47:19,1
150.0,-179.60000000000002,-486.8000000000002,-257.1,23.69999999999999,-71.69999999999999,2025-01-29 10:47:19,1
242.0,-223.6,-478.8000000000002,-226.1,-79.30000000000001,-39.69999999999999,2025-01-29 10:47:19,1
346.0,-203.6,-542.8000000000002,-100.1,-88.30000000000001,-27.69999999999999,2025-01-29 10:47:19,1
378.0,-183.6,-342.8000000000002,-30.099999999999994,-53.30000000000001,-35.69999999999999,2025-01-29 10:47:19,1
306.0,-63.60000000000002,-490.8000000000002,86.9,24.69999999999999,-59.69999999999999,2025-01-29 10:47:19,1
158.0,-67.60000000000002,-586.8000000000002,127.9,-62.30000000000001,-0.6999999999999886,2025-01-29 10:47:19,1
66.0,68.39999999999998,-858.8000000000002,166.9,-185.3,101.3,2025-01-29 10:47:19,1
198.0,44.39999999999998,-778.8000000000002,152.9,-309.3,144.3,2025-01-29 10:47:19,1
298.0,136.39999999999998,-870.8000000000002,118.9,-372.3,166.3,2025-01-29 10:47:19,1
378.0,148.39999999999998,-962.8000000000002,48.900000000000006,-391.3,90.3,2025-01-29 10:47:19,1
342.0,-59.60000000000002,-546.8000000000002,-9.099999999999994,-317.3,109.3,2025-01-29 10:47:19,1
230.0,-131.60000000000002,-770.8000000000002,-3.0999999999999943,-316.3,211.3,2025-01-29 10:47:19,1
378.0,-63.60000000000002,-814.8000000000002,-66.1,-398.3,222.3,2025-01-29 10:47:19,1
562.0,-75.60000000000002,-698.8000000000002,-99.1,-391.3,191.3,2025-01-29 10:47:19,1
382.0,-119.60000000000002,-638.8000000000002,-97.1,-311.3,147.3,2025-01-29 10:47:19,1
482.0,-235.6,-598.8000000000002,-36.1,-296.3,169.3,2025-01-29 10:47:19,1
366.0,-263.6,-530.8000000000002,-23.099999999999994,-331.3,112.3,2025-01-29 10:47:19,1
394.0,-467.6,-510.8000000000002,2.9000000000000057,-328.3,144.3,2025-01-29 10:47:19,1
406.0,-295.6,-434.8000000000002,78.9,-244.3,202.3,2025-01-29 10:47:19,1
526.0,-159.60000000000002,-634.8000000000002,74.9,-106.3,160.3,2025-01-29 10:47:19,1
262.0,-31.600000000000023,-658.8000000000002,103.9,-91.3,159.3,2025-01-29 10:47:19,1
254.0,-239.6,-666.8000000000002,158.9,-86.30000000000001,167.3,2025-01-29 10:47:19,1
154.0,-347.6,-582.8000000000002,216.9,-208.3,155.3,2025-01-29 10:47:19,1
250.0,-363.6,-674.8000000000002,276.9,-311.3,181.3,2025-01-29 10:47:19,1
366.0,-243.6,-618.8000000000002,360.9,-365.3,230.3,2025-01-29 10:47:19,1
530.0,-3.6000000000000227,-750.8000000000002,346.9,-327.3,238.3,2025-01-29 10:47:19,1
594.0,180.4,-862.8000000000002,259.9,-147.3,179.3,2025-01-29 10:47:19,1
482.0,248.4,-706.8000000000002,154.9,33.69999999999999,124.3,2025-01-29 10:47:19,1
342.0,264.4,-1026.8000000000002,89.9,10.699999999999989,149.3,2025-01-29 10:47:19,1
302.0,-31.600000000000023,-910.8000000000002,4.900000000000006,-146.3,135.3,2025-01-29 10:47:19,1
274.0,-35.60000000000002,-934.8000000000002,-35.099999999999994,-264.3,93.3,2025-01-29 10:47:19,1
518.0,104.39999999999998,-1038.8000000000002,-176.1,-338.3,51.30000000000001,2025-01-29 10:47:19,1
