acceleration_x,acceleration_y,acceleration_z,gyroscope_x,gyroscope_y,gyroscope_z,timestamp,label
-13276,-592,-2000,40,319,-811,2025-02-17 11:27:15,0.0
-13364,-520,-1836,73,452,-871,2025-02-17 11:27:15,0.0
-13516,-456,-2220,-133,510,-956,2025-02-17 11:27:15,0.0
-13312,-512,-1960,-130,440,-1060,2025-02-17 11:27:15,0.0
-13080,-768,-2136,19,228,-1324,2025-02-17 11:27:15,0.0
-13232,-700,-2340,-207,137,-1532,2025-02-17 11:27:15,0.0
-13088,-728,-2132,-459,339,-1737,2025-02-17 11:27:15,0.0
-13332,-772,-2280,-726,580,-1789,2025-02-17 11:27:15,0.0
-13484,-936,-1936,-759,808,-1687,2025-02-17 11:27:15,0.0
-13708,-1024,-2064,-704,941,-1424,2025-02-17 11:27:16,0.0
-13724,-1128,-2272,-696,1015,-993,2025-02-17 11:27:16,0.0
-13572,-1188,-2164,-645,1200,-554,2025-02-17 11:27:16,0.0
-13480,-1060,-2120,-625,1322,-444,2025-02-17 11:27:16,0.0
-13508,-984,-2208,-566,1279,-295,2025-02-17 11:27:16,0.0
-13452,-1012,-2044,-422,1227,-292,2025-02-17 11:27:16,0.0
-13532,-1072,-2200,-249,1038,-254,2025-02-17 11:27:16,0.0
-13696,-864,-2360,-354,700,-237,2025-02-17 11:27:16,0.0
-13752,-880,-2408,-537,339,-11,2025-02-17 11:27:16,0.0
-13308,-1024,-2260,-640,168,50,2025-02-17 11:27:16,0.0
-13088,-1052,-2420,-712,379,-42,2025-02-17 11:27:16,0.0
-13084,-864,-2324,-519,696,-76,2025-02-17 11:27:16,0.0
-13468,-824,-2448,-588,850,-35,2025-02-17 11:27:16,0.0
-13184,-928,-2584,-470,1311,101,2025-02-17 11:27:16,0.0
-12904,-1096,-2424,-308,1356,124,2025-02-17 11:27:16,0.0
-13228,-1076,-2360,216,1142,-76,2025-02-17 11:27:16,0.0
-13668,-1268,-1632,1188,795,-94,2025-02-17 11:27:16,0.0
-12988,-928,-1924,1830,148,58,2025-02-17 11:27:16,0.0
-12384,-640,-4144,1099,325,-162,2025-02-17 11:27:16,0.0
-12952,-404,-3680,-646,645,-511,2025-02-17 11:27:16,0.0
-12892,-920,-2276,-885,1047,-817,2025-02-17 11:27:16,0.0
-13220,-1100,-2416,-422,1261,-881,2025-02-17 11:27:16,0.0
-13480,-1132,-2556,111,1195,-724,2025-02-17 11:27:16,0.0
-13712,-1084,-2616,239,966,-480,2025-02-17 11:27:16,0.0
-13344,-1000,-2412,558,745,-410,2025-02-17 11:27:16,0.0
-13408,-924,-2748,661,611,-459,2025-02-17 11:27:16,0.0
-13256,-872,-2732,454,686,-460,2025-02-17 11:27:16,0.0
-13032,-1012,-2544,457,763,-533,2025-02-17 11:27:16,0.0
-13364,-1124,-2872,307,1001,-437,2025-02-17 11:27:16,0.0
-13184,-1116,-2880,264,1152,-313,2025-02-17 11:27:16,0.0
-13184,-1032,-2524,379,1133,-281,2025-02-17 11:27:16,0.0
-13412,-1208,-2748,316,1037,-222,2025-02-17 11:27:16,0.0
-13380,-1104,-2692,342,973,-133,2025-02-17 11:27:16,0.0
-13340,-976,-2836,187,1030,-29,2025-02-17 11:27:16,0.0
-13084,-816,-2704,78,1090,-67,2025-02-17 11:27:16,0.0
-12988,-828,-2864,-8,1029,-147,2025-02-17 11:27:16,0.0
-13008,-1036,-2652,-111,1098,-151,2025-02-17 11:27:16,0.0
-13156,-976,-2568,72,1241,-156,2025-02-17 11:27:16,0.0
-13468,-808,-2632,262,1070,-29,2025-02-17 11:27:16,0.0
-13688,-672,-2900,260,521,175,2025-02-17 11:27:16,0.0
-13228,-672,-2772,154,74,154,2025-02-17 11:27:16,0.0
-13180,-548,-3024,-30,177,168,2025-02-17 11:27:16,0.0
-12896,-612,-2864,-188,715,129,2025-02-17 11:27:16,0.0
-13044,-908,-2680,74,1002,-17,2025-02-17 11:27:16,0.0
-13360,-784,-2604,275,862,-7,2025-02-17 11:27:16,0.0
-13424,-524,-2660,281,455,-157,2025-02-17 11:27:16,0.0
-13296,-396,-2888,-51,95,-428,2025-02-17 11:27:16,0.0
-13428,-608,-2688,-249,-303,-619,2025-02-17 11:27:16,0.0
-13328,-828,-2528,-428,-496,-743,2025-02-17 11:27:16,0.0
-13376,-1072,-2608,-460,-333,-663,2025-02-17 11:27:16,0.0
-13492,-1024,-2564,-176,-183,-447,2025-02-17 11:27:16,0.0
-13548,-852,-2484,44,23,-430,2025-02-17 11:27:16,0.0
-14212,-832,-2068,392,516,-524,2025-02-17 11:27:16,0.0
-13972,-1320,-2676,748,337,-534,2025-02-17 11:27:16,0.0
-13256,-1644,-3736,666,-21,-429,2025-02-17 11:27:16,0.0
-12216,-1688,-3360,136,-137,-513,2025-02-17 11:27:16,0.0
-11480,-1960,-3924,-389,130,-504,2025-02-17 11:27:16,0.0
-11756,-1768,-3248,-705,794,131,2025-02-17 11:27:16,0.0
-12160,-2044,-2560,-180,2150,899,2025-02-17 11:27:16,0.0
-12868,-2344,-1664,876,3944,1038,2025-02-17 11:27:17,0.0
-14096,-1460,-3064,799,3805,718,2025-02-17 11:27:17,0.0
-14540,-904,-2044,792,2009,370,2025-02-17 11:27:17,0.0
-13556,-600,-1912,1007,-285,-614,2025-02-17 11:27:17,0.0
-13220,140,-1716,684,-693,-1572,2025-02-17 11:27:17,0.0
-12268,300,-2036,239,209,-2459,2025-02-17 11:27:17,0.0
-12180,-456,-2344,-207,1430,-3300,2025-02-17 11:27:17,0.0
-12772,-1928,-2212,-837,2364,-3665,2025-02-17 11:27:17,0.0
-13916,-2632,-980,-643,2029,-3026,2025-02-17 11:27:17,0.0
-14076,-2872,-1464,-326,977,-2123,2025-02-17 11:27:17,0.0
-14052,-3036,-1640,-635,219,-1837,2025-02-17 11:27:17,0.0
-13564,-2864,-2100,-1385,-525,-1492,2025-02-17 11:27:17,0.0
-12628,-2924,-2108,-1888,-566,-1376,2025-02-17 11:27:17,0.0
-11876,-2712,-1864,-2147,315,-1391,2025-02-17 11:27:17,0.0
-12200,-2816,-1264,-1875,1382,-1294,2025-02-17 11:27:17,0.0
-12808,-2620,-880,-1411,1983,-1007,2025-02-17 11:27:17,0.0
-13288,-2468,-1368,-1058,2165,-669,2025-02-17 11:27:17,0.0
-13944,-2268,-1368,-881,1661,-638,2025-02-17 11:27:17,0.0
-14140,-2268,-756,-566,909,-284,2025-02-17 11:27:17,0.0
-13488,-2096,-856,-398,65,-94,2025-02-17 11:27:17,0.0
-12932,-1808,-936,-314,-555,-284,2025-02-17 11:27:17,0.0
-12944,-1584,-952,-505,-657,-570,2025-02-17 11:27:17,0.0
-13156,-1280,-556,-789,-485,-936,2025-02-17 11:27:17,0.0
-13528,-1084,-696,-1147,-390,-1411,2025-02-17 11:27:17,0.0
-13936,-1252,-708,-1512,-992,-1658,2025-02-17 11:27:17,0.0
-14532,-2376,-856,-1855,-1604,-1672,2025-02-17 11:27:17,0.0
-14588,-3260,-1100,-1945,-2105,-1373,2025-02-17 11:27:17,0.0
-14556,-3364,-2052,-2605,-2011,-1089,2025-02-17 11:27:17,0.0
-13828,-3348,-1136,-3685,-1107,-847,2025-02-17 11:27:17,0.0
-14096,-4808,-684,-4071,-262,-469,2025-02-17 11:27:17,0.0
-14556,-5252,-2848,-4244,1331,-136,2025-02-17 11:27:17,0.0
-16288,-4372,-3728,-4416,4632,-168,2025-02-17 11:27:17,
-17180,-4796,-3612,-4800,7553,-1132,2025-02-17 11:27:17,0.0
-19268,-5580,-3764,-4390,5843,-1194,2025-02-17 11:27:17,0.0
-19840,-5668,-5024,-2739,1878,164,2025-02-17 11:27:17,0.0
-19292,-5116,-5792,-896,-1555,1332,2025-02-17 11:27:17,0.0
-17500,-3964,-6336,9,-4771,1900,2025-02-17 11:27:17,0.0
-15164,-3332,-5416,377,-7734,2543,2025-02-17 11:27:17,0.0
-12520,-2652,-5188,744,-9933,3297,2025-02-17 11:27:17,0.0
-10024,-664,-5628,1196,-11360,3787,2025-02-17 11:27:17,0.0
-8548,1836,-5168,2218,-10970,4125,2025-02-17 11:27:17,0.0
-8276,3424,-4188,3325,-8776,3996,2025-02-17 11:27:17,0.0
-8168,3236,-3840,3642,-4509,2718,2025-02-17 11:27:17,0.0
-8740,1580,-3956,2763,-44,1386,2025-02-17 11:27:17,0.0
-10324,-912,-3336,2270,3088,927,2025-02-17 11:27:17,0.0
-12508,-1980,-3128,2989,6165,2241,2025-02-17 11:27:17,0.0
-14208,-2324,-4484,2917,9035,3522,2025-02-17 11:27:17,0.0
-14716,-1680,-4548,1797,9971,4352,2025-02-17 11:27:17,0.0
-14804,-768,-5212,505,8426,4632,2025-02-17 11:27:17,0.0
-14472,104,-4872,-368,4110,4158,2025-02-17 11:27:17,0.0
-13740,1056,-4228,-868,-1078,3383,2025-02-17 11:27:17,0.0
-13076,1488,-3016,-879,-4711,2484,2025-02-17 11:27:17,0.0
-11996,1832,-2368,-804,-4645,2256,2025-02-17 11:27:17,0.0
-11232,1460,-1904,-386,-4442,2019,2025-02-17 11:27:17,0.0
-10348,776,-1356,314,-3899,1780,2025-02-17 11:27:17,0.0
-9752,928,-740,1056,-3413,1350,2025-02-17 11:27:17,0.0
-9104,1400,-540,1548,-1890,930,2025-02-17 11:27:17,0.0
-9456,1660,-1212,1771,516,497,2025-02-17 11:27:17,0.0
-10184,1536,-572,1812,2405,-188,2025-02-17 11:27:17,0.0
-11236,1696,-1700,1398,3502,-542,2025-02-17 11:27:17,0.0
-12236,1120,-1956,784,3252,-1145,2025-02-17 11:27:17,0.0
-13888,548,-1516,442,1931,-1251,2025-02-17 11:27:17,0.0
-14972,-184,-696,554,314,-1096,2025-02-17 11:27:18,0.0
-15396,-164,-472,456,-1769,-784,2025-02-17 11:27:18,0.0
-15124,96,-588,98,-3345,-427,2025-02-17 11:27:18,0.0
-14704,-464,-1152,-495,-4209,-380,2025-02-17 11:27:18,0.0
-14516,-872,-1076,-611,-4907,-275,2025-02-17 11:27:18,0.0
-14508,296,-1660,-370,-5457,436,2025-02-17 11:27:18,0.0
-14184,832,-684,-146,-4823,1277,2025-02-17 11:27:18,0.0
-14032,-748,1104,548,-3516,1679,2025-02-17 11:27:18,0.0
-14576,-2080,1412,1747,-2744,2127,2025-02-17 11:27:18,0.0
-13776,-1400,2180,3107,-3007,1992,2025-02-17 11:27:18,0.0
-13448,-56,1188,4758,-3229,1647,2025-02-17 11:27:18,0.0
-14112,696,-2312,5654,-2680,1236,2025-02-17 11:27:18,0.0
-15288,2540,-4204,4741,81,1220,2025-02-17 11:27:18,0.0
-16004,4184,-4412,3593,2592,280,2025-02-17 11:27:18,0.0
-18316,4180,-4824,3240,3112,-485,2025-02-17 11:27:18,0.0
-19648,3020,-4452,4224,1470,-138,2025-02-17 11:27:18,0.0
-17400,1312,-5000,5253,-1093,-405,2025-02-17 11:27:18,0.0
-12280,-328,-5060,5168,-2580,-2170,2025-02-17 11:27:18,0.0
-11236,-1684,-3888,4855,-1431,-2658,2025-02-17 11:27:18,0.0
-9484,-2396,-3736,4427,-378,-1981,2025-02-17 11:27:18,0.0
-9764,-1688,-3760,3860,188,-1635,2025-02-17 11:27:18,0.0
-10952,-1448,-3740,2839,1889,-1215,2025-02-17 11:27:18,0.0
-12428,-632,-3444,1932,4458,-1742,2025-02-17 11:27:18,0.0
-13992,320,-2936,1382,3461,-2665,2025-02-17 11:27:18,0.0
-14256,-116,-2212,1362,2137,-3250,2025-02-17 11:27:18,0.0
-14240,-816,-2532,1360,799,-3186,2025-02-17 11:27:18,0.0
-13780,-944,-2252,1275,139,-2884,2025-02-17 11:27:18,0.0
-12756,-1352,-2772,1205,-734,-2466,2025-02-17 11:27:18,0.0
-12452,-1232,-2576,1122,-1845,-1718,2025-02-17 11:27:18,0.0
-11312,-1504,-2256,1164,-2748,-1267,2025-02-17 11:27:18,0.0
-10996,-2000,-2164,1125,-3188,-1099,2025-02-17 11:27:18,0.0
-11148,-2880,-2412,913,-2299,-848,2025-02-17 11:27:18,0.0
-11348,-3116,-3168,552,-533,-549,2025-02-17 11:27:18,0.0
-11888,-2492,-3608,227,667,-151,2025-02-17 11:27:18,0.0
-11652,-992,-3516,-299,1145,310,2025-02-17 11:27:18,0.0
-11824,-188,-3152,-690,1919,407,2025-02-17 11:27:18,0.0
-12244,852,-2720,-859,2431,408,2025-02-17 11:27:18,0.0
-12540,1652,-2456,-1334,2294,65,2025-02-17 11:27:18,0.0
-13200,1176,-2080,-2250,2594,-514,2025-02-17 11:27:18,0.0
-14072,-752,-3376,-3544,2342,-1065,2025-02-17 11:27:18,0.0
-14528,-712,-3608,-4209,1390,-959,2025-02-17 11:27:18,0.0
-13932,180,-3940,-5372,1047,-830,2025-02-17 11:27:18,0.0
-13416,1212,-4016,-6526,1542,-1010,2025-02-17 11:27:18,0.0
-13232,1064,-3584,-8093,1462,-1311,2025-02-17 11:27:18,0.0
-12800,624,-4152,-9410,962,-1813,2025-02-17 11:27:18,0.0
-13180,600,-4488,-10806,545,-2064,2025-02-17 11:27:18,0.0
-13344,-100,-5148,-12521,118,-1698,2025-02-17 11:27:18,0.0
-12604,-228,-4496,-13402,-82,-1528,2025-02-17 11:27:18,0.0
-11968,-304,-3344,-13937,-884,-1981,2025-02-17 11:27:18,0.0
-10860,-20,-2844,-15078,-2116,-3014,2025-02-17 11:27:18,0.0
-10628,800,-3552,-16832,-2798,-4467,2025-02-17 11:27:18,0.0
-11364,2348,-7032,-18705,-125,-5644,2025-02-17 11:27:18,0.0
-14752,1876,-11140,-20673,6190,-7059,2025-02-17 11:27:18,0.0
-15940,-596,-8740,-22651,8281,-8283,2025-02-17 11:27:18,0.0
-17812,-200,-6008,-22775,3948,-7890,2025-02-17 11:27:18,0.0
-17420,-940,-4056,-22734,-288,-7451,2025-02-17 11:27:18,0.0
-16280,-1636,-4536,-21676,-3432,-6286,2025-02-17 11:27:18,0.0
-13148,-2484,-5376,-20913,-4247,-5038,2025-02-17 11:27:18,0.0
-10404,-1560,-4532,-21074,-3496,-4458,2025-02-17 11:27:18,0.0
-10484,-536,-4308,-21682,-1776,-4537,2025-02-17 11:27:18,0.0
-11904,-156,-3812,-21894,89,-5107,2025-02-17 11:27:18,0.0
-13572,1024,-3044,-21109,-584,-5247,2025-02-17 11:27:19,0.0
-13384,1020,-2384,-19410,-2280,-5166,2025-02-17 11:27:19,0.0
-12312,608,-3888,-18635,-3924,-5507,2025-02-17 11:27:19,0.0
-11828,296,-6256,-18839,-4336,-5091,2025-02-17 11:27:19,0.0
-11228,-200,-6624,-19141,-1417,-3762,2025-02-17 11:27:19,0.0
-10452,188,-6312,-19698,1636,-4853,2025-02-17 11:27:19,0.0
-12940,92,-4680,-19665,2750,-4671,2025-02-17 11:27:19,5
-14216,-184,-4108,-19169,2245,-4141,2025-02-17 11:27:19,5
-15244,-788,-4368,-17947,826,-3123,2025-02-17 11:27:19,5
-15140,-32,-4972,-18070,-1490,-2436,2025-02-17 11:27:19,5
-13568,184,-3424,-17961,-3311,-2652,2025-02-17 11:27:19,5
-14532,0,-1520,-16825,-2848,-2282,2025-02-17 11:27:19,5
-15336,-1864,120,-13631,-2167,-748,2025-02-17 11:27:19,5
-16180,-1908,3932,-8247,-45,1139,2025-02-17 11:27:19,5
-13932,-2424,2264,-4052,5002,1186,2025-02-17 11:27:19,5
-12736,-840,-2820,-7680,14848,589,2025-02-17 11:27:19,5
-9836,620,-1712,-13238,27202,-781,2025-02-17 11:27:19,5
-6896,2024,2888,-13542,31726,-2551,2025-02-17 11:27:19,5
-5068,2436,1280,-10522,30556,-5146,2025-02-17 11:27:19,5
-3888,2356,516,-8854,26547,-6402,2025-02-17 11:27:19,5
0,1796,-1148,-8679,18439,-6570,2025-02-17 11:27:19,5
5560,408,420,-9525,10043,-9341,2025-02-17 11:27:19,5
4592,-800,628,-11944,1004,-10627,2025-02-17 11:27:19,5
2560,-864,2328,-11936,-4081,-10175,2025-02-17 11:27:19,5
1904,-712,1784,-12027,-6076,-9213,2025-02-17 11:27:19,5
1792,-652,1948,-11901,-7117,-8096,2025-02-17 11:27:19,5
2000,-404,1576,-11480,-8242,-6657,2025-02-17 11:27:19,5
1772,-504,1988,-11416,-8206,-5953,2025-02-17 11:27:19,5
1976,-564,1448,-11380,-7747,-5424,2025-02-17 11:27:19,5
2100,-600,1476,-11442,-7195,-5069,2025-02-17 11:27:19,5
2236,-696,1236,-11616,-6661,-4910,2025-02-17 11:27:19,5
1904,-588,1596,-11890,-6038,-4770,2025-02-17 11:27:19,5
2148,-624,1400,-12157,-5364,-4667,2025-02-17 11:27:19,5
2232,-656,1356,-12376,-4607,-4557,2025-02-17 11:27:19,5
2240,-536,1360,-12553,-3742,-4471,2025-02-17 11:27:19,5
2072,-596,1312,-12726,-2950,-4465,2025-02-17 11:27:19,5
2156,-620,1304,-12901,-2230,-4471,2025-02-17 11:27:19,5
2096,-660,1156,-13102,-1469,-4450,2025-02-17 11:27:19,5
2040,-688,1204,-13287,-615,-4497,2025-02-17 11:27:19,5
2112,-596,1256,-13473,195,-4577,2025-02-17 11:27:19,5
1972,-656,1096,-13686,1129,-4620,2025-02-17 11:27:19,5
2220,-668,1052,-13919,1993,-4834,2025-02-17 11:27:19,5
-868,10156,-32768,2135,32767,-32768,2025-02-17 11:27:19,5
-32768,-32768,-32768,32767,32767,-32768,2025-02-17 11:27:19,5
-32768,-32768,-32768,-15163,-12867,-11295,2025-02-17 11:27:19,5
-25992,-1320,-5500,-17892,-26538,5485,2025-02-17 11:27:19,5
-2424,2900,1492,-14119,-16810,5156,2025-02-17 11:27:19,5
1120,3372,6220,-10140,-9674,7184,2025-02-17 11:27:19,5
2548,188,1704,-7795,-3806,5814,2025-02-17 11:27:19,5
3000,-1276,52,-9000,2719,2728,2025-02-17 11:27:19,5
5000,-1140,1664,-8734,7104,-941,2025-02-17 11:27:19,5
3828,-2056,980,-5210,12490,-7158,2025-02-17 11:27:19,5
-432,-3572,-520,1285,17717,-15663,2025-02-17 11:27:19,5
-10936,-6656,-7268,6128,10758,-17402,2025-02-17 11:27:19,5
-19308,-8736,-11220,6209,-1430,-13148,2025-02-17 11:27:19,5
-26068,-8940,-16340,4714,-8170,-5387,2025-02-17 11:27:19,5
-23648,-6928,-16700,532,-6116,852,2025-02-17 11:27:19,5
2996,-3648,-32768,-868,1682,251,2025-02-17 11:27:19,5
-9700,-2836,-3360,-837,3663,578,2025-02-17 11:27:19,5
-7036,-3252,-8156,219,1979,-225,2025-02-17 11:27:20,5
-8232,-3600,-9488,202,0,-338,2025-02-17 11:27:20,5
-10796,-3648,-9040,-85,-676,-316,2025-02-17 11:27:20,5
-11068,-3516,-8276,-303,-161,-106,2025-02-17 11:27:20,5
-10004,-3464,-7980,-175,333,-152,2025-02-17 11:27:20,5
-10004,-3672,-8588,-162,214,-194,2025-02-17 11:27:20,5
-10064,-3592,-8268,-198,20,-153,2025-02-17 11:27:20,5
-10380,-3540,-8188,-146,110,-162,2025-02-17 11:27:20,5
-10492,-3560,-8396,-176,438,-95,2025-02-17 11:27:20,5
-10244,-3500,-8408,-210,501,-136,2025-02-17 11:27:20,5
-10540,-3544,-8824,-407,618,22,2025-02-17 11:27:20,5
-10136,-3512,-8732,-214,459,-34,2025-02-17 11:27:20,5
-9552,-3080,-8192,-119,-131,-286,2025-02-17 11:27:20,5
-10044,-3924,-7852,-103,-264,-315,2025-02-17 11:27:20,5
-10676,-3452,-8496,-109,256,-166,2025-02-17 11:27:20,5
-10160,-3448,-8228,-108,208,-179,2025-02-17 11:27:20,5
-10072,-3628,-8252,-148,234,-194,2025-02-17 11:27:20,5
-10272,-3428,-8352,-161,54,-201,2025-02-17 11:27:20,5
-10192,-3496,-8128,-121,209,-186,2025-02-17 11:27:20,5
-10340,-3544,-8324,-148,191,-213,2025-02-17 11:27:20,5
-10048,-3468,-8320,-132,175,-189,2025-02-17 11:27:20,5
-10300,-3568,-8368,-141,163,-195,2025-02-17 11:27:20,5
-10308,-3548,-8340,-138,138,-177,2025-02-17 11:27:20,5
-10268,-3552,-8360,-162,234,-172,2025-02-17 11:27:20,5
-10152,-3588,-8372,-151,166,-170,2025-02-17 11:27:20,5
-10320,-3472,-8348,-136,158,-195,2025-02-17 11:27:20,5
-10244,-3472,-8368,-136,170,-159,2025-02-17 11:27:20,5
-10240,-3484,-8276,-122,148,-169,2025-02-17 11:27:20,5
-10288,-3504,-8472,-150,142,-181,2025-02-17 11:27:20,5
-10272,-3532,-8380,-122,112,-176,2025-02-17 11:27:20,5
-10236,-3476,-8264,-152,212,-180,2025-02-17 11:27:20,5
-10252,-3556,-8260,-133,167,-202,2025-02-17 11:27:20,5
-10232,-3620,-8444,-160,185,-166,2025-02-17 11:27:20,5
-10172,-3552,-8320,-175,173,-176,2025-02-17 11:27:20,5
-10232,-3568,-8400,-160,161,-203,2025-02-17 11:27:20,5
-10236,-3484,-8396,-151,179,-196,2025-02-17 11:27:20,5
-10284,-3472,-8228,-134,139,-190,2025-02-17 11:27:20,5
-10312,-3548,-8344,-145,174,-178,2025-02-17 11:27:20,5
-10224,-3524,-8388,-139,164,-165,2025-02-17 11:27:20,5
-10328,-3584,-8284,-152,173,-190,2025-02-17 11:27:20,5
-10152,-3492,-8416,-166,183,-200,2025-02-17 11:27:20,5
-10204,-3480,-8340,-139,182,-185,2025-02-17 11:27:20,5
-10196,-3480,-8304,-142,190,-199,2025-02-17 11:27:20,5
-10220,-3500,-8272,-168,168,-148,2025-02-17 11:27:20,5
-10292,-3492,-8312,-147,190,-143,2025-02-17 11:27:20,5
-10284,-3508,-8352,-155,178,-203,2025-02-17 11:27:20,5
-10224,-3504,-8272,-162,162,-188,2025-02-17 11:27:20,5
-10272,-3576,-8372,-152,172,-174,2025-02-17 11:27:20,5
-10092,-3584,-8448,-157,155,-173,2025-02-17 11:27:20,5
-10296,-3588,-8432,-164,151,-194,2025-02-17 11:27:20,
-10300,-3592,-8400,-124,165,-183,2025-02-17 11:27:20,0.0
-10300,-3524,-8360,-144,173,-175,2025-02-17 11:27:20,0.0
-10288,-3520,-8248,-143,160,-165,2025-02-17 11:27:20,0.0
-10256,-3544,-8256,-167,185,-168,2025-02-17 11:27:20,0.0
-10208,-3508,-8352,-171,154,-181,2025-02-17 11:27:20,0.0
-10384,-3520,-8320,-156,203,-196,2025-02-17 11:27:20,0.0
-10300,-3528,-8216,-175,168,-188,2025-02-17 11:27:20,0.0
-10320,-3540,-8296,-140,176,-186,2025-02-17 11:27:20,0.0
-10248,-3508,-8220,-170,166,-179,2025-02-17 11:27:20,0.0
-10224,-3488,-8348,-155,184,-180,2025-02-17 11:27:20,0.0
-10236,-3516,-8276,-164,160,-172,2025-02-17 11:27:21,0.0
-10320,-3536,-8272,-163,192,-167,2025-02-17 11:27:21,0.0
-10224,-3528,-8336,-161,178,-183,2025-02-17 11:27:21,0.0
-10208,-3504,-8448,-148,169,-181,2025-02-17 11:27:21,0.0
-10328,-3516,-8256,-181,126,-194,2025-02-17 11:27:21,0.0
-10188,-3528,-8304,-132,195,-166,2025-02-17 11:27:21,0.0
-10188,-3480,-8348,-178,162,-205,2025-02-17 11:27:21,0.0
-10284,-3492,-8400,-176,175,-181,2025-02-17 11:27:21,0.0
-10196,-3536,-8280,-162,184,-183,2025-02-17 11:27:21,0.0
-10252,-3528,-8504,-138,184,-170,2025-02-17 11:27:21,0.0
-10276,-3524,-8228,-140,172,-170,2025-02-17 11:27:21,0.0
-10220,-3512,-8336,-156,155,-195,2025-02-17 11:27:21,0.0
-10172,-3600,-8188,-129,173,-170,2025-02-17 11:27:21,0.0
-10124,-3488,-8196,-155,164,-188,2025-02-17 11:27:21,0.0
-10196,-3552,-8316,-157,176,-195,2025-02-17 11:27:21,0.0
-10248,-3508,-8436,-147,170,-194,2025-02-17 11:27:21,0.0
-10160,-3524,-8492,-171,166,-203,2025-02-17 11:27:21,0.0
-10180,-3456,-8308,-150,140,-182,2025-02-17 11:27:21,0.0
-10148,-3536,-8392,-144,173,-174,2025-02-17 11:27:21,0.0
-10216,-3520,-8228,-155,170,-176,2025-02-17 11:27:21,0.0
-10244,-3548,-8388,-173,157,-196,2025-02-17 11:27:21,0.0
-10268,-3580,-8376,-176,194,-189,2025-02-17 11:27:21,0.0
-10180,-3544,-8348,-151,153,-158,2025-02-17 11:27:21,0.0
-10228,-3544,-8412,-160,177,-163,2025-02-17 11:27:21,0.0
-10184,-3508,-8496,-148,165,-184,2025-02-17 11:27:21,0.0
-10284,-3500,-8320,-170,149,-170,2025-02-17 11:27:21,0.0
-10140,-3496,-7960,-106,190,-216,2025-02-17 11:27:21,0.0
-10224,-3028,-7616,508,900,-495,2025-02-17 11:27:21,0.0
-10404,-4264,-9704,116,820,-289,2025-02-17 11:27:21,0.0
-10500,-3568,-9816,-353,99,6,2025-02-17 11:27:21,0.0
-8912,-3396,-7688,-312,-694,-362,2025-02-17 11:27:21,0.0
-10820,-3720,-9400,-609,-252,-96,2025-02-17 11:27:21,0.0
-10764,-3716,-7940,-142,-518,-402,2025-02-17 11:27:21,0.0
-10292,-3552,-6884,-105,-42,-239,2025-02-17 11:27:21,0.0
-10596,-3348,-8348,22,1211,-68,2025-02-17 11:27:21,0.0
-9828,-3504,-9124,-36,173,-323,2025-02-17 11:27:21,0.0
-9564,-3752,-8720,-153,-875,-166,2025-02-17 11:27:21,0.0
-10956,-3336,-7636,-55,-427,-160,2025-02-17 11:27:21,0.0
-9864,-3604,-8292,32,-235,-44,2025-02-17 11:27:21,0.0
-10464,-3152,-8604,-3,-536,-228,2025-02-17 11:27:21,0.0
-11064,-4088,-8752,-462,-666,58,2025-02-17 11:27:21,0.0
-10188,-3008,-7944,103,339,-368,2025-02-17 11:27:21,0.0
-9280,-3784,-8960,-772,-409,38,2025-02-17 11:27:21,0.0
-9484,-3540,-8248,-177,-1407,-438,2025-02-17 11:27:21,0.0
-11524,-2992,-7232,94,-189,-753,2025-02-17 11:27:21,0.0
-10412,-3900,-7052,879,1931,-672,2025-02-17 11:27:21,0.0
-10068,-3996,-9012,258,1933,351,2025-02-17 11:27:21,0.0
-8016,-4792,-8720,-1338,1348,1118,2025-02-17 11:27:21,0.0
-9388,-3232,-7980,-997,1618,322,2025-02-17 11:27:21,0.0
-10468,-3160,-8112,-746,780,-55,2025-02-17 11:27:21,0.0
-10820,-2452,-8640,88,-748,-179,2025-02-17 11:27:21,0.0
-10640,-3312,-9044,130,-908,-1383,2025-02-17 11:27:21,0.0
-10632,-3528,-6840,613,-908,-1321,2025-02-17 11:27:21,0.0
-10444,-3972,-8296,642,-372,-1079,2025-02-17 11:27:21,0.0
-11584,-4320,-9796,-249,-1167,62,2025-02-17 11:27:21,0.0
-8628,-4032,-9416,-1087,-1606,592,2025-02-17 11:27:21,0.0
-8576,-2964,-7296,-613,-2732,-140,2025-02-17 11:27:21,0.0
-10512,-3340,-8104,-172,-3082,-593,2025-02-17 11:27:21,0.0
-11128,-3984,-8016,-372,-2424,-895,2025-02-17 11:27:21,0.0
-10500,-4048,-8428,-947,-1448,-589,2025-02-17 11:27:21,0.0
-8508,-2928,-8340,-942,-2204,-1206,2025-02-17 11:27:21,0.0
-11208,-4012,-7460,-758,-1010,-1300,2025-02-17 11:27:22,0.0
-12588,-3824,-6884,-814,612,-1025,2025-02-17 11:27:22,0.0
-9980,-3832,-6368,102,432,-144,2025-02-17 11:27:22,0.0
-10396,-3556,-8344,120,706,-377,2025-02-17 11:27:22,0.0
-11788,-3940,-8212,127,509,-356,2025-02-17 11:27:22,0.0
-10320,-3676,-7840,-225,735,-212,2025-02-17 11:27:22,0.0
-10340,-3712,-7404,301,286,-294,2025-02-17 11:27:22,0.0
-10620,-3872,-8128,-21,592,-99,2025-02-17 11:27:22,0.0
-10932,-3780,-7060,222,894,75,2025-02-17 11:27:22,0.0
-10588,-3388,-7948,84,1792,90,2025-02-17 11:27:22,0.0
-9728,-2964,-6232,680,1359,-150,2025-02-17 11:27:22,0.0
-10016,-3452,-8564,666,1373,-344,2025-02-17 11:27:22,0.0
-9904,-3880,-8652,547,-46,-87,2025-02-17 11:27:22,0.0
-9356,-4092,-8824,254,-1739,-31,2025-02-17 11:27:22,0.0
-11008,-4332,-8024,-262,-1751,475,2025-02-17 11:27:22,0.0
-11296,-3728,-8108,-475,-575,314,2025-02-17 11:27:22,0.0
-10704,-3388,-7848,-279,-429,-109,2025-02-17 11:27:22,0.0
-10536,-3356,-8040,2,-553,-396,2025-02-17 11:27:22,0.0
-11424,-3860,-8048,-118,-658,-462,2025-02-17 11:27:22,0.0
-10208,-3792,-7856,-459,-652,-411,2025-02-17 11:27:22,0.0
-10880,-3748,-7140,-64,-506,-508,2025-02-17 11:27:22,0.0
-11568,-4188,-7844,-719,479,-269,2025-02-17 11:27:22,0.0
-10648,-4244,-7720,-1264,825,273,2025-02-17 11:27:22,0.0
-10176,-3056,-7008,-965,1723,-42,2025-02-17 11:27:22,0.0
-11120,-3964,-8740,-1015,2049,-31,2025-02-17 11:27:22,0.0
-10252,-4236,-8944,-1986,1877,211,2025-02-17 11:27:22,0.0
-10012,-3416,-8556,-2026,2414,-574,2025-02-17 11:27:22,0.0
-10632,-3504,-7648,-1184,883,-250,2025-02-17 11:27:22,0.0
-11176,-3444,-7256,-682,36,-293,2025-02-17 11:27:22,
-10528,-3564,-6488,60,-64,-661,2025-02-17 11:27:22,0.0
-11088,-3764,-7812,309,1065,-902,2025-02-17 11:27:22,0.0
-9812,-3708,-9080,590,1881,-1566,2025-02-17 11:27:22,0.0
-10456,-3780,-9124,246,2560,-2211,2025-02-17 11:27:22,0.0
-11072,-3816,-8884,544,3073,-2643,2025-02-17 11:27:22,0.0
-10616,-4428,-10752,-93,2192,-3178,2025-02-17 11:27:22,0.0
-9936,-3816,-10972,-766,1182,-4340,2025-02-17 11:27:22,0.0
-10836,-4732,-13008,-1481,576,-6423,2025-02-17 11:27:22,0.0
-9688,-6356,-18228,-2201,4816,-9974,2025-02-17 11:27:22,0.0
-12760,-5472,-14988,-3527,6523,-11534,2025-02-17 11:27:22,0.0
-9900,-7648,-20092,-4891,6506,-13201,2025-02-17 11:27:22,0.0
-13848,-5752,-17888,-6164,9355,-13540,2025-02-17 11:27:22,0.0
-14204,-9112,-17240,-907,23293,-15392,2025-02-17 11:27:22,0.0
-14288,-9572,-18132,-411,31032,-10039,2025-02-17 11:27:22,0.0
-6476,-7272,-17424,-8053,32767,-7350,2025-02-17 11:27:22,0.0
-3016,-5184,-6752,-4035,32767,-12022,2025-02-17 11:27:22,0.0
-4200,-6048,-9152,3739,32767,-14049,2025-02-17 11:27:22,0.0
-4428,-8300,-14820,5421,26173,-13224,2025-02-17 11:27:22,0.0
-7140,-9608,-17996,5085,17066,-10679,2025-02-17 11:27:22,0.0
-9408,-9376,-19024,5243,6908,-4386,2025-02-17 11:27:22,0.0
-8312,-8052,-19740,4093,980,-536,2025-02-17 11:27:22,0.0
-7168,-6300,-18160,2349,-2997,-516,2025-02-17 11:27:22,0.0
-8248,-5508,-15280,2074,-8950,1741,2025-02-17 11:27:22,0.0
-7120,-6008,-13628,3544,-14530,4452,2025-02-17 11:27:22,0.0
-6420,-7496,-12980,5956,-18305,5446,2025-02-17 11:27:22,0.0
-6444,-9232,-13736,7307,-19996,5080,2025-02-17 11:27:22,0.0
-8748,-10292,-15152,6857,-20527,6630,2025-02-17 11:27:22,0.0
-10280,-11564,-16792,5347,-18778,10111,2025-02-17 11:27:22,0.0
-5792,-13448,-16532,4049,-16782,9578,2025-02-17 11:27:22,0.0
-7264,-14592,-17332,2480,-14691,7061,2025-02-17 11:27:22,0.0
-9012,-11108,-12320,3426,-17284,11238,2025-02-17 11:27:22,0.0
-7668,-9584,-17172,-29,-14458,10925,2025-02-17 11:27:22,0.0
-7308,-7724,-10900,-2631,-13754,10206,2025-02-17 11:27:23,0.0
-7944,-5992,-5696,2015,-13779,11418,2025-02-17 11:27:23,0.0
-10672,-5692,-9712,4392,-13619,15330,2025-02-17 11:27:23,0.0
-10276,-5288,-11132,2958,-9440,19272,2025-02-17 11:27:23,0.0
-8184,-4112,-11560,3647,506,17092,2025-02-17 11:27:23,0.0
-8712,-2692,-12856,2272,9729,14988,2025-02-17 11:27:23,0.0
-7288,-2600,-11432,1422,11424,14660,2025-02-17 11:27:23,0.0
-4760,-2756,-9940,3324,8656,13471,2025-02-17 11:27:23,0.0
-3680,-2600,-12048,4757,3079,11055,2025-02-17 11:27:23,0.0
-5468,-2212,-14040,2537,-4522,9024,2025-02-17 11:27:23,0.0
-8552,-2492,-12108,4471,-7458,9600,2025-02-17 11:27:23,0.0
-7296,-3968,-14504,-2043,-15926,13271,2025-02-17 11:27:23,0.0
-3108,-3764,-9072,-9809,-24095,11410,2025-02-17 11:27:23,0.0
-5904,-1392,344,-6081,-24944,8352,2025-02-17 11:27:23,0.0
-7448,436,-1520,880,-19862,7327,2025-02-17 11:27:23,0.0
-12140,180,-1660,3543,-12630,7967,2025-02-17 11:27:23,0.0
-11736,-616,-2100,3295,-5932,9634,2025-02-17 11:27:23,0.0
-12128,-644,-816,5199,5749,9635,2025-02-17 11:27:23,0.0
-10132,-2068,-2420,6291,17758,8933,2025-02-17 11:27:23,0.0
-9124,-3584,-3596,4519,28088,8565,2025-02-17 11:27:23,0.0
-7832,-3708,-4492,2474,32767,8872,2025-02-17 11:27:23,0.0
-5368,-1416,-5292,326,32767,7800,2025-02-17 11:27:23,0.0
-5504,192,-5564,324,32767,6992,2025-02-17 11:27:23,0.0
-4588,1360,-6916,1562,32767,6454,2025-02-17 11:27:23,0.0
-3692,904,-8932,2346,32767,4470,2025-02-17 11:27:23,0.0
-3748,4,-11496,503,32767,2800,2025-02-17 11:27:23,0.0
-4552,-704,-10640,-1112,28509,3232,2025-02-17 11:27:23,0.0
-3824,-1156,-10260,-1380,22487,4976,2025-02-17 11:27:23,0.0
-2476,-836,-9444,-1187,16604,4861,2025-02-17 11:27:23,0.0
-2468,36,-9416,-1841,10846,4392,2025-02-17 11:27:23,0.0
-2972,800,-7888,-1999,5656,4273,2025-02-17 11:27:23,0.0
-2996,1076,-6656,-806,1194,4861,2025-02-17 11:27:23,0.0
-3204,1356,-6184,748,-2882,5571,2025-02-17 11:27:23,0.0
-3188,1376,-5768,1767,-7001,6649,2025-02-17 11:27:23,0.0
-440,268,-5120,3433,-10318,6548,2025-02-17 11:27:23,0.0
-5164,-196,-8208,7117,-18568,1872,2025-02-17 11:27:23,0.0
-6788,-420,-10608,6824,-18258,1299,2025-02-17 11:27:23,0.0
-7724,-796,-12024,5349,-17602,1210,2025-02-17 11:27:23,0.0
-8652,-1032,-11660,5298,-16897,2033,2025-02-17 11:27:23,0.0
-8244,-1152,-11964,6378,-16580,3969,2025-02-17 11:27:23,0.0
-6584,-1380,-13920,6440,-16970,4266,2025-02-17 11:27:23,0.0
-4796,-1220,-15136,4667,-16970,2438,2025-02-17 11:27:23,0.0
-5108,-1260,-14852,2093,-17603,956,2025-02-17 11:27:23,0.0
-5680,-1524,-13460,86,-17984,385,2025-02-17 11:27:23,0.0
-7052,-2592,-10392,-507,-17393,346,2025-02-17 11:27:23,0.0
-32768,-9476,22556,5281,-19795,6359,2025-02-17 11:27:23,0.0
-14120,-4108,108,7366,-15399,6439,2025-02-17 11:27:23,0.0
-9240,-544,-10148,5461,-15594,5939,2025-02-17 11:27:23,0.0
-5972,124,-13740,1891,-16101,4166,2025-02-17 11:27:23,0.0
-8648,-296,-10528,-1449,-17049,2012,2025-02-17 11:27:23,0.0
-11852,128,-6460,-3184,-20394,2209,2025-02-17 11:27:23,0.0
-9832,764,-3932,-1235,-27937,2446,2025-02-17 11:27:23,0.0
-9820,936,-6168,-1029,-32768,1913,2025-02-17 11:27:23,0.0
-7900,980,-6468,-1605,-32768,820,2025-02-17 11:27:23,0.0
-7912,1420,-6656,-1795,-32768,-2392,2025-02-17 11:27:23,0.0
-11920,540,-1716,-3099,-32768,-4098,2025-02-17 11:27:23,0.0
-24864,-1972,8692,-6172,-32768,66,2025-02-17 11:27:24,0.0
-12556,-3960,10272,-5448,-7039,5839,2025-02-17 11:27:24,0.0
-7312,120,3268,-5248,1551,4342,2025-02-17 11:27:24,0.0
-7308,1720,784,-4783,9250,-43,2025-02-17 11:27:24,0.0
-10476,2908,1940,-4743,13207,-2082,2025-02-17 11:27:24,0.0
-12532,2720,416,-6728,10190,-2891,2025-02-17 11:27:24,0.0
-15952,2488,1192,-8690,5859,-2668,2025-02-17 11:27:24,0.0
-17456,1188,1364,-8746,3050,-2254,2025-02-17 11:27:24,0.0
-16928,1068,1012,-10126,-177,-2024,2025-02-17 11:27:24,0.0
-15080,2432,-2660,-24593,9636,4217,2025-02-17 11:27:24,0.0
-14956,3792,-2728,-31540,6737,8196,2025-02-17 11:27:24,0.0
-12728,1932,-4256,-32768,3993,14125,2025-02-17 11:27:24,
-10840,1224,-2756,-32768,5908,17717,2025-02-17 11:27:24,0.0
-4076,1444,6280,-32768,3069,21671,2025-02-17 11:27:24,0.0
-3876,3440,1372,-20016,10006,11544,2025-02-17 11:27:24,0.0
-13820,1772,-3532,1084,30765,2416,2025-02-17 11:27:24,0.0
-14764,-4120,-8668,9278,32767,-5973,2025-02-17 11:27:24,0.0
-21364,-1548,-5780,-670,23732,-6426,2025-02-17 11:27:24,0.0
-28540,3912,-4708,-14505,5836,-1487,2025-02-17 11:27:24,0.0
-17288,4292,-2592,-20172,-2178,-4921,2025-02-17 11:27:24,0.0
-15076,2536,-3332,-18749,-12151,-11310,2025-02-17 11:27:24,0.0
-13812,1952,-3216,-16582,-16884,-11058,2025-02-17 11:27:24,0.0
-11624,1612,-2440,-14389,-13740,-8689,2025-02-17 11:27:24,0.0
-11220,1368,-2144,-13631,-8427,-6081,2025-02-17 11:27:24,0.0
-10492,1148,-1488,-13627,-2865,-3515,2025-02-17 11:27:24,0.0
-10096,908,-1780,-12943,3443,-2000,2025-02-17 11:27:24,0.0
-11092,1528,-2352,-11643,8042,-1503,2025-02-17 11:27:24,0.0
-12364,1432,-3132,-10803,9289,-1682,2025-02-17 11:27:24,0.0
-13696,1588,-2540,-11086,8354,-2062,2025-02-17 11:27:24,0.0
-14960,976,-1752,-11606,6524,-2642,2025-02-17 11:27:24,0.0
-15772,760,-1404,-11718,3056,-2824,2025-02-17 11:27:24,0.0
-15204,368,-1032,-11134,-533,-2525,2025-02-17 11:27:24,0.0
-14724,12,-248,-9755,-2800,-2666,2025-02-17 11:27:24,0.0
-14768,124,-816,-6211,-4760,-1090,2025-02-17 11:27:24,0.0
-12340,-728,-620,-3738,-4852,451,2025-02-17 11:27:24,0.0
-12208,-172,932,-2956,-2147,36,2025-02-17 11:27:24,0.0
-11612,576,-584,-3031,2821,-1587,2025-02-17 11:27:24,0.0
-12796,516,628,-2180,6356,-3176,2025-02-17 11:27:24,0.0
-13452,68,1812,1771,7504,-3878,2025-02-17 11:27:24,0.0
-13640,-344,1100,7677,9000,-4418,2025-02-17 11:27:24,0.0
-12912,936,-2052,9311,7642,-5462,2025-02-17 11:27:24,0.0
-15740,2624,-3048,6185,-320,-4785,2025-02-17 11:27:24,0.0
-16564,2760,-3096,821,-5525,-4004,2025-02-17 11:27:24,0.0
-14236,1944,-1056,-3826,-4262,-4553,2025-02-17 11:27:24,0.0
-11940,-4,1040,-3243,-2360,-6262,2025-02-17 11:27:24,0.0
-13024,-80,-1052,-2196,-643,-6568,2025-02-17 11:27:24,0.0
-13252,80,-276,-1638,894,-5033,2025-02-17 11:27:24,0.0
-12808,528,64,-40,1833,-4092,2025-02-17 11:27:24,0.0
-14292,324,-1492,216,2258,-3271,2025-02-17 11:27:24,0.0
-14372,712,-704,-1014,1478,-2940,2025-02-17 11:27:24,0.0
-13104,236,-456,-1288,-1502,-4399,2025-02-17 11:27:24,0.0
-13596,240,-704,-732,-2964,-5767,2025-02-17 11:27:24,0.0
-16344,-608,-796,-905,-2649,-4132,2025-02-17 11:27:25,0.0
-15080,-780,-1192,-241,-2882,-2182,2025-02-17 11:27:25,0.0
-14348,-748,-772,282,-3249,-1582,2025-02-17 11:27:25,0.0
-14328,-780,-1684,-443,-3474,-1472,2025-02-17 11:27:25,0.0
-13644,-268,-1756,-360,-3885,-1959,2025-02-17 11:27:25,0.0
-13800,204,-2828,-1159,-4588,-2155,2025-02-17 11:27:25,0.0
-13240,-308,-2160,-1232,-5348,-2459,2025-02-17 11:27:25,0.0
-13496,-1136,-1780,-343,-4690,-1727,2025-02-17 11:27:25,0.0
-13636,-1728,-1792,-105,-2474,-390,2025-02-17 11:27:25,0.0
-12312,-2664,-2732,-437,151,835,2025-02-17 11:27:25,0.0
-11768,-3504,-2376,-1375,3004,728,2025-02-17 11:27:25,0.0
-12440,-3268,-992,-2046,5403,-198,2025-02-17 11:27:25,0.0
-15248,-2836,348,-2289,6598,24,2025-02-17 11:27:25,0.0
-15632,-2136,1112,-2640,7558,655,2025-02-17 11:27:25,0.0
-14852,-1340,1064,-1639,6492,-1644,2025-02-17 11:27:25,0.0
-15540,-536,556,-1045,1758,-3091,2025-02-17 11:27:25,0.0
-15968,-672,1648,-467,-3450,-3702,2025-02-17 11:27:25,0.0
-14696,-1180,2288,863,-6617,-3421,2025-02-17 11:27:25,0.0
-12372,-1296,540,2240,-9438,-3788,2025-02-17 11:27:25,0.0
-12300,-1236,-1144,1096,-9060,-3711,2025-02-17 11:27:25,0.0
-11764,-2496,-1156,-554,-5738,-3007,2025-02-17 11:27:25,0.0
-10780,-3152,-388,-1177,-1320,-2702,2025-02-17 11:27:25,0.0
-10596,-3344,172,-1153,1601,-2710,2025-02-17 11:27:25,0.0
-11692,-2920,868,-889,2974,-2660,2025-02-17 11:27:25,0.0
-12588,-1680,104,-1598,3859,-2406,2025-02-17 11:27:25,0.0
-13664,-1304,1072,-2347,3892,-2156,2025-02-17 11:27:25,0.0
-13484,-1756,624,-2663,3403,-1351,2025-02-17 11:27:25,0.0
-13112,-1796,656,-2718,2551,-688,2025-02-17 11:27:25,0.0
-12456,-2708,372,-3103,2004,-214,2025-02-17 11:27:25,0.0
-12176,-3096,824,-3188,2305,59,2025-02-17 11:27:25,0.0
-12448,-2796,1124,-2862,2704,441,2025-02-17 11:27:25,0.0
-13836,-1892,-852,-4321,3149,2007,2025-02-17 11:27:25,0.0
-11100,-2284,2432,-3998,2278,2033,2025-02-17 11:27:25,0.0
-11980,-2848,1656,-2286,1471,1439,2025-02-17 11:27:25,0.0
-12516,-3068,1132,-1779,1440,1315,2025-02-17 11:27:25,0.0
-12932,-3212,68,-2165,2090,558,2025-02-17 11:27:25,0.0
-14452,-3008,-892,-3283,3272,484,2025-02-17 11:27:25,0.0
-15304,-1496,140,-3459,3548,659,2025-02-17 11:27:25,0.0
-14880,-1492,-780,-2976,3354,-31,2025-02-17 11:27:25,0.0
-15236,-2716,-832,-3129,2841,-1116,2025-02-17 11:27:25,0.0
-14816,-3540,832,-3614,845,-2445,2025-02-17 11:27:25,0.0
-16112,-2832,1724,-3211,-963,-2812,2025-02-17 11:27:25,0.0
-17040,-3848,1736,-631,-2436,-3452,2025-02-17 11:27:25,0.0
-18960,-3600,-2892,-842,-2436,-2977,2025-02-17 11:27:25,0.0
-18980,-4376,-3184,-3278,447,-2317,2025-02-17 11:27:25,0.0
-18032,-6248,-2752,-2995,900,-2353,2025-02-17 11:27:25,0.0
-18056,-6504,-3544,-2048,-76,-1419,2025-02-17 11:27:25,0.0
-17328,-4600,-4236,-1686,-878,-142,2025-02-17 11:27:25,0.0
-16412,-2820,-4704,-1944,-1375,925,2025-02-17 11:27:25,0.0
-14372,-1388,-6020,-2388,-2552,1959,2025-02-17 11:27:25,0.0
-11720,-1056,-5944,-2004,-4045,2279,2025-02-17 11:27:25,0.0
-10440,-112,-4980,-953,-3996,1628,2025-02-17 11:27:25,0.0
-10528,1164,-3332,172,-2188,904,2025-02-17 11:27:25,0.0
-11560,1124,-3532,228,1623,598,2025-02-17 11:27:25,0.0
-13148,-196,-3432,-339,4297,1101,2025-02-17 11:27:25,0.0
-14024,-1204,-3120,43,5251,2088,2025-02-17 11:27:25,0.0
-14592,-2332,-3636,590,4916,2844,2025-02-17 11:27:25,0.0
-14680,-2724,-3236,1050,4556,3632,2025-02-17 11:27:25,0.0
-14124,-2464,-3640,1134,3441,4412,2025-02-17 11:27:25,0.0
-12596,-2024,-3608,1479,1530,4017,2025-02-17 11:27:25,
-11224,-476,-3476,418,-479,2825,2025-02-17 11:27:25,0.0
-11044,96,-2228,171,-1809,1759,2025-02-17 11:27:25,0.0
-10864,136,-1384,617,-1801,1285,2025-02-17 11:27:26,0.0
-10720,12,-788,1900,-1313,727,2025-02-17 11:27:26,0.0
-10680,32,-1452,2845,-1615,547,2025-02-17 11:27:26,0.0
-10712,520,-2072,3035,-1819,830,2025-02-17 11:27:26,0.0
-10344,704,-1936,3003,-1214,907,2025-02-17 11:27:26,0.0
-10456,760,-1640,2692,193,781,2025-02-17 11:27:26,0.0
-11260,784,-1588,1840,1205,549,2025-02-17 11:27:26,0.0
-12256,256,-2212,1252,1139,364,2025-02-17 11:27:26,0.0
-12424,84,-2880,-48,1802,174,2025-02-17 11:27:26,0.0
-13040,-36,-2796,-985,2623,-231,2025-02-17 11:27:26,0.0
-13616,-668,-2128,-794,2694,-59,2025-02-17 11:27:26,0.0
-13584,-724,-1296,-125,1608,291,2025-02-17 11:27:26,0.0
-13080,-988,-820,504,-18,516,2025-02-17 11:27:26,0.0
-12700,-784,-164,874,-1309,368,2025-02-17 11:27:26,0.0
-12296,-876,-576,848,-2037,-62,2025-02-17 11:27:26,0.0
-12044,976,-640,605,-2230,-735,2025-02-17 11:27:26,0.0
-12092,820,-1008,1229,-1282,-923,2025-02-17 11:27:26,0.0
-11792,-308,-1964,2230,-121,-876,2025-02-17 11:27:26,0.0
-12668,-828,-1596,2798,1602,-443,2025-02-17 11:27:26,0.0
-13364,-728,-1424,2786,3730,181,2025-02-17 11:27:26,0.0
-14572,-400,-1240,2313,5447,487,2025-02-17 11:27:26,0.0
-16196,-252,-608,2060,5686,1056,2025-02-17 11:27:26,0.0
-16604,-552,464,2957,3550,1725,2025-02-17 11:27:26,0.0
-16776,184,-324,4180,1339,1960,2025-02-17 11:27:26,0.0
-16844,744,-1380,5145,760,2527,2025-02-17 11:27:26,0.0
-16396,992,-3800,5297,1102,3139,2025-02-17 11:27:26,0.0
-17264,1080,-4960,4757,2482,3960,2025-02-17 11:27:26,0.0
-17580,988,-6432,3950,3644,4427,2025-02-17 11:27:26,0.0
-19284,832,-10024,4914,3844,5920,2025-02-17 11:27:26,0.0
-15412,2512,-10496,3090,4135,6316,2025-02-17 11:27:26,0.0
-13544,3060,-8076,1280,986,3319,2025-02-17 11:27:26,0.0
-12404,1912,-5076,677,-3046,576,2025-02-17 11:27:26,0.0
-11136,588,-4708,483,-5221,-398,2025-02-17 11:27:26,0.0
-10076,-1156,-4272,607,-5917,-650,2025-02-17 11:27:26,0.0
-9328,-2536,-4676,957,-5802,-1115,2025-02-17 11:27:26,0.0
-9288,-3408,-4712,979,-4183,-2022,2025-02-17 11:27:26,0.0
-11344,-3280,-4720,1231,-1793,-2031,2025-02-17 11:27:26,0.0
-12436,-1404,-4756,157,1735,-1529,2025-02-17 11:27:26,0.0
-12392,112,-5136,-1035,4538,-1693,2025-02-17 11:27:26,0.0
-13376,684,-5408,-2153,5980,-2398,2025-02-17 11:27:26,0.0
-13844,120,-5248,-2661,5575,-2730,2025-02-17 11:27:26,0.0
-13608,-756,-4828,-2430,2498,-2843,2025-02-17 11:27:26,0.0
-12816,-964,-4656,-1696,-1672,-3168,2025-02-17 11:27:26,0.0
-11416,-844,-4412,-1461,-2867,-3248,2025-02-17 11:27:26,0.0
-10876,-1228,-4380,-1403,-3184,-3646,2025-02-17 11:27:26,0.0
-10708,-1780,-4600,-1518,-3365,-3672,2025-02-17 11:27:26,0.0
-10496,-2156,-4656,-1608,-3483,-3434,2025-02-17 11:27:26,0.0
-10344,-2136,-5016,-1897,-3159,-2831,2025-02-17 11:27:26,0.0
-10272,-1976,-4452,-1939,-1619,-2194,2025-02-17 11:27:26,0.0
-10656,-1968,-4248,-2305,1208,-1308,2025-02-17 11:27:26,0.0
-10736,-1648,-3576,-2847,4698,-1038,2025-02-17 11:27:26,0.0
-12080,-1960,-3364,-2603,5863,-1079,2025-02-17 11:27:26,0.0
-13356,-1680,-3392,-2506,6233,-777,2025-02-17 11:27:26,0.0
-14084,-1320,-3660,-3426,6449,-683,2025-02-17 11:27:26,0.0
-14908,-1652,-3004,-3962,6165,-963,2025-02-17 11:27:26,0.0
-16048,-1612,-2608,-4067,4954,-1188,2025-02-17 11:27:26,0.0
-17188,-1952,-1988,-3660,2037,-1010,2025-02-17 11:27:26,0.0
-17188,-1828,-1956,-3261,-1935,-407,2025-02-17 11:27:26,0.0
-16000,-1620,-1672,-2641,-5676,473,2025-02-17 11:27:26,0.0
-13480,-1592,-1816,-1965,-7980,915,2025-02-17 11:27:26,0.0
-12324,-2620,-444,659,-8515,1397,2025-02-17 11:27:27,0.0
-10396,-2020,-5376,-83,-9520,2071,2025-02-17 11:27:27,0.0
-9040,-1884,-3948,-623,-9291,2229,2025-02-17 11:27:27,0.0
-10124,-2284,-3932,-17,-7185,2295,2025-02-17 11:27:27,0.0
-10700,-2236,-5148,554,-1212,2809,2025-02-17 11:27:27,0.0
-12172,-2036,-7912,256,6297,2514,2025-02-17 11:27:27,0.0
-13892,-2368,-6664,5,13896,2088,2025-02-17 11:27:27,0.0
-15080,-2728,-3428,1360,14313,2175,2025-02-17 11:27:27,0.0
-15316,-3280,-3164,2862,9036,2213,2025-02-17 11:27:27,0.0
-15608,-3016,-4968,3622,1704,2144,2025-02-17 11:27:27,0.0
-14864,-2216,-4288,4076,-4310,1729,2025-02-17 11:27:27,0.0
-12992,-2160,-3608,5376,-7216,1662,2025-02-17 11:27:27,0.0
-11516,-1888,-3932,6344,-7294,2061,2025-02-17 11:27:27,0.0
-11204,-1692,-3800,7204,-5215,3157,2025-02-17 11:27:27,0.0
-10860,-1220,-4744,7662,-1115,4482,2025-02-17 11:27:27,0.0
-10608,-1152,-4788,7422,2318,4792,2025-02-17 11:27:27,0.0
-10544,-376,-4704,7204,3142,4104,2025-02-17 11:27:27,0.0
-10752,96,-4068,7155,2683,2536,2025-02-17 11:27:27,0.0
-11996,224,-2956,7615,2170,1279,2025-02-17 11:27:27,0.0
-14052,-228,-2364,8426,2529,1233,2025-02-17 11:27:27,0.0
-14872,-316,-2944,9334,3074,1709,2025-02-17 11:27:27,0.0
-15244,-540,-3864,10176,2575,2505,2025-02-17 11:27:27,0.0
-15300,-552,-4052,11042,1480,3407,2025-02-17 11:27:27,0.0
-14856,-288,-4020,11850,351,3989,2025-02-17 11:27:27,0.0
-14232,-744,-2944,12753,114,4522,2025-02-17 11:27:27,0.0
-13428,-1384,-2700,13613,215,4723,2025-02-17 11:27:27,0.0
-13536,-1752,-3008,14668,388,4991,2025-02-17 11:27:27,0.0
-13740,-1068,-2748,14851,386,5712,2025-02-17 11:27:27,0.0
-13520,-1360,-3844,15978,-269,5695,2025-02-17 11:27:27,0.0
-12816,-912,-3756,17103,-1090,5683,2025-02-17 11:27:27,0.0
-12580,-880,-3380,18429,-1588,5633,2025-02-17 11:27:27,0.0
-12264,-504,-4352,19396,-1637,5766,2025-02-17 11:27:27,0.0
-11256,-144,-4792,19654,-1463,5244,2025-02-17 11:27:27,0.0
-11308,204,-4480,19923,-573,4536,2025-02-17 11:27:27,0.0
-11768,224,-4688,19992,382,4346,2025-02-17 11:27:27,0.0
-12104,276,-5728,19467,830,4409,2025-02-17 11:27:27,0.0
-12448,760,-5892,18795,590,4218,2025-02-17 11:27:27,0.0
-12616,1212,-5292,18593,-69,4008,2025-02-17 11:27:27,
-13068,664,-4144,19472,-814,3456,2025-02-17 11:27:27,0.0
-14380,-176,-3472,21052,-2193,3709,2025-02-17 11:27:27,0.0
-14920,-692,-4824,22009,-3949,4613,2025-02-17 11:27:27,0.0
-14228,-352,-5984,21418,-6370,4846,2025-02-17 11:27:27,0.0
-13596,284,-4864,20456,-9171,4384,2025-02-17 11:27:27,0.0
-13120,-468,-1976,20774,-11976,3622,2025-02-17 11:27:27,0.0
-12132,-1956,1184,23478,-12688,2876,2025-02-17 11:27:27,0.0
-11368,-1036,276,26523,-8519,2876,2025-02-17 11:27:27,0.0
-10724,984,-2976,27266,-6776,2534,2025-02-17 11:27:27,0.0
-11880,1060,-6976,24067,-5426,2155,2025-02-17 11:27:27,0.0
-10984,236,-7120,20926,-2813,1373,2025-02-17 11:27:27,0.0
-11272,-672,-2908,19600,-578,718,2025-02-17 11:27:27,0.0
-12592,-1648,-3760,20515,445,29,2025-02-17 11:27:27,0.0
-15284,-1388,-4596,20478,5058,1100,2025-02-17 11:27:27,0.0
-14744,-1524,-4328,18950,7140,2399,2025-02-17 11:27:27,0.0
-13520,-1968,-1092,18075,4160,2197,2025-02-17 11:27:27,0.0
-13044,-2568,-464,18215,2491,1906,2025-02-17 11:27:27,0.0
-12240,-2888,-2652,17568,3237,1125,2025-02-17 11:27:27,0.0
-12896,-2620,-2812,16144,5298,589,2025-02-17 11:27:27,0.0
-13680,-2888,-2660,15034,7175,180,2025-02-17 11:27:27,0.0
-14932,-2640,-3136,13877,8371,-82,2025-02-17 11:27:27,0.0
-16388,-1288,-2572,12720,7639,671,2025-02-17 11:27:27,0.0
-16012,-972,-872,12564,5266,1586,2025-02-17 11:27:28,0.0
-15528,-1768,600,13266,2371,2466,2025-02-17 11:27:28,0.0
-14568,-2276,-68,14246,492,3212,2025-02-17 11:27:28,0.0
-13904,-2540,-800,14324,-769,4098,2025-02-17 11:27:28,0.0
-12432,-3128,-508,15294,-1615,4586,2025-02-17 11:27:28,0.0
-11552,-3600,-1360,16237,-1148,4527,2025-02-17 11:27:28,0.0
-12248,-3184,-2152,17054,202,4478,2025-02-17 11:27:28,0.0
-12824,-2512,-2708,16796,1202,5120,2025-02-17 11:27:28,0.0
-13120,-2132,-1964,16553,1289,5551,2025-02-17 11:27:28,0.0
-13288,-2100,-1548,16597,652,5884,2025-02-17 11:27:28,0.0
-12940,-2340,-2104,16669,-621,5927,2025-02-17 11:27:28,0.0
-12788,-2512,-2520,16610,-1555,5963,2025-02-17 11:27:28,0.0
-12428,-2440,-2320,16554,-613,5896,2025-02-17 11:27:28,0.0
-12120,-2576,-2628,16625,334,5352,2025-02-17 11:27:28,0.0
-12136,-2772,-3356,16060,762,4910,2025-02-17 11:27:28,0.0
-12264,-3160,-3132,15610,1225,4441,2025-02-17 11:27:28,0.0
-13128,-3156,-2704,15936,2206,4396,2025-02-17 11:27:28,0.0
-14360,-2068,-1820,16449,3492,4754,2025-02-17 11:27:28,0.0
-13988,-1664,-1696,17054,3029,4781,2025-02-17 11:27:28,0.0
-13776,-1696,-2316,17537,2073,4546,2025-02-17 11:27:28,0.0
-13868,-1864,-5364,16812,1309,4463,2025-02-17 11:27:28,0.0
-13180,-1992,-5052,15355,-1,4308,2025-02-17 11:27:28,0.0
-13340,-2268,-4492,14657,-580,4107,2025-02-17 11:27:28,0.0
-12868,-2160,-3364,14744,-142,4006,2025-02-17 11:27:28,0.0
-12912,-1960,-3884,15133,692,3921,2025-02-17 11:27:28,0.0
-12804,-1952,-4604,14703,1768,3939,2025-02-17 11:27:28,0.0
-12508,-1164,-5248,14689,3012,3568,2025-02-17 11:27:28,0.0
-13132,252,-4664,14167,3828,2936,2025-02-17 11:27:28,0.0
-13352,1356,-3752,13043,3825,2525,2025-02-17 11:27:28,0.0
-13116,816,-3388,11954,2511,1907,2025-02-17 11:27:28,0.0
-13992,776,-3232,10799,1500,1888,2025-02-17 11:27:28,0.0
-13640,840,-1608,10288,889,2050,2025-02-17 11:27:28,0.0
-13316,656,-1644,10713,-468,2059,2025-02-17 11:27:28,0.0
-13436,764,-3420,10128,-1391,2077,2025-02-17 11:27:28,0.0
-12860,288,-1396,10158,-639,1788,2025-02-17 11:27:28,0.0
-12528,-512,-3308,9904,67,1203,2025-02-17 11:27:28,0.0
-12920,-912,-1572,10059,1490,1224,2025-02-17 11:27:28,0.0
-12072,-700,-2884,10236,2408,1194,2025-02-17 11:27:28,0.0
-13176,-100,-3000,10467,1763,1227,2025-02-17 11:27:28,0.0
-13612,592,-3800,9726,1818,1599,2025-02-17 11:27:28,0.0
-13120,660,-3392,9106,1552,1233,2025-02-17 11:27:28,0.0
-13556,-332,-3076,8867,1153,905,2025-02-17 11:27:28,0.0
-13656,-1356,-2076,8880,1070,786,2025-02-17 11:27:28,0.0
-13556,-2140,-1040,9655,764,978,2025-02-17 11:27:28,0.0
-12996,-1788,-4048,9267,253,1413,2025-02-17 11:27:28,0.0
-12824,952,-4356,7509,551,545,2025-02-17 11:27:28,0.0
-13788,1732,-1664,7223,3255,1481,2025-02-17 11:27:28,0.0
-13036,2388,-3240,6975,4273,1282,2025-02-17 11:27:28,0.0
-12868,2584,-4420,6100,2991,232,2025-02-17 11:27:28,0.0
-16632,1184,-4712,5385,769,64,2025-02-17 11:27:28,0.0
-12728,960,-2744,3767,-1902,164,2025-02-17 11:27:28,0.0
-13920,348,-1796,4013,-2771,43,2025-02-17 11:27:28,0.0
-12120,336,-1328,4289,-1932,98,2025-02-17 11:27:28,0.0
-12328,672,-2084,4615,-904,-332,2025-02-17 11:27:28,0.0
-13492,876,-3020,4065,671,14,2025-02-17 11:27:28,0.0
-14240,1064,-2920,3854,984,387,2025-02-17 11:27:28,0.0
-14440,1000,-3260,3616,-80,664,2025-02-17 11:27:28,0.0
-13356,1112,-3700,3223,-1930,642,2025-02-17 11:27:28,0.0
-12296,852,-4064,2329,-2792,146,2025-02-17 11:27:28,0.0
-12172,428,-3836,1427,-2540,-193,2025-02-17 11:27:28,0.0
-11844,-68,-3408,748,-1912,-322,2025-02-17 11:27:28,0.0
-11720,-540,-2032,451,-1598,-207,2025-02-17 11:27:28,0.0
-11932,-1024,-856,574,-1321,-211,2025-02-17 11:27:29,0.0
-12928,-1556,-2788,73,-639,-206,2025-02-17 11:27:29,0.0
-12648,-1696,-3116,-1017,44,-888,2025-02-17 11:27:29,0.0
-13932,-1916,-2404,-1857,1014,-1460,2025-02-17 11:27:29,0.0
-14932,-1980,-1468,-2092,1880,-1841,2025-02-17 11:27:29,0.0
-15596,-2512,-1964,-2427,1648,-2057,2025-02-17 11:27:29,0.0
-15356,-2480,-1472,-3166,679,-2178,2025-02-17 11:27:29,0.0
-14612,-1824,-1020,-3608,-1120,-2565,2025-02-17 11:27:29,0.0
-14052,-1120,-356,-3856,-2300,-3054,2025-02-17 11:27:29,0.0
-13532,-724,-768,-4649,-3182,-3534,2025-02-17 11:27:29,0.0
-12952,-984,-536,-5282,-3780,-3884,2025-02-17 11:27:29,0.0
-12596,-1508,568,-4787,-4176,-3825,2025-02-17 11:27:29,0.0
-12364,-2040,1008,-3601,-3217,-3422,2025-02-17 11:27:29,0.0
-12228,-2192,1176,-2492,-2040,-2998,2025-02-17 11:27:29,0.0
-12428,-2160,872,-2098,-533,-2316,2025-02-17 11:27:29,0.0
-12604,-2004,896,-2233,497,-1926,2025-02-17 11:27:29,
-13076,-1936,880,-2591,616,-1883,2025-02-17 11:27:29,0.0
-13348,-1952,996,-2869,-18,-1997,2025-02-17 11:27:29,0.0
-13308,-1960,1472,-2779,-636,-1969,2025-02-17 11:27:29,0.0
-12960,-1912,1140,-2606,-686,-1625,2025-02-17 11:27:29,0.0
-12452,-1892,792,-2595,-253,-935,2025-02-17 11:27:29,0.0
-11728,-2080,728,-2930,671,-619,2025-02-17 11:27:29,0.0
-11008,-1828,-300,-3482,1765,-693,2025-02-17 11:27:29,0.0
-11840,-1628,-256,-4663,4046,-1032,2025-02-17 11:27:29,0.0
-13152,-1652,244,-5693,6181,-1150,2025-02-17 11:27:29,0.0
-14264,-2396,260,-6088,7916,-1210,2025-02-17 11:27:29,0.0
-15056,-3508,536,-5335,7782,-1349,2025-02-17 11:27:29,0.0
-15920,-3748,-688,-4503,5805,-1338,2025-02-17 11:27:29,0.0
-16564,-3160,-804,-4140,2942,-1279,2025-02-17 11:27:29,0.0
-16368,-3044,-416,-3993,1479,-936,2025-02-17 11:27:29,0.0
-15808,-3540,-312,-3544,799,-640,2025-02-17 11:27:29,0.0
-15904,-3620,-24,-3359,1066,-341,2025-02-17 11:27:29,0.0
-16116,-3676,116,-3170,849,-84,2025-02-17 11:27:29,0.0
-16108,-3676,928,-2893,-425,174,2025-02-17 11:27:29,0.0
-15248,-5436,20,-2427,-1326,761,2025-02-17 11:27:29,0.0
-15192,-6608,-2316,-1598,-245,555,2025-02-17 11:27:29,0.0
-16768,-4588,-1248,-503,1782,181,2025-02-17 11:27:29,0.0
-18504,-5028,-2468,419,2618,-129,2025-02-17 11:27:29,0.0
-19192,-5416,-3280,1205,-916,1027,2025-02-17 11:27:29,0.0
-17816,-4788,-4020,2213,-5097,2399,2025-02-17 11:27:29,0.0
-15364,-4272,-5192,2635,-6479,3222,2025-02-17 11:27:29,0.0
-12212,-3568,-4896,2861,-7183,3068,2025-02-17 11:27:29,0.0
-10284,-3408,-4812,2739,-7243,3402,2025-02-17 11:27:29,0.0
-8184,-3132,-5072,2605,-5729,3082,2025-02-17 11:27:29,0.0
-8776,-1432,-6504,1912,-2189,2280,2025-02-17 11:27:29,0.0
-10064,824,-6364,1427,699,1488,2025-02-17 11:27:29,0.0
-12428,1892,-6064,1378,3373,981,2025-02-17 11:27:29,0.0
-13856,440,-5892,1578,4429,1283,2025-02-17 11:27:29,0.0
-14204,-1036,-5444,1581,4346,1952,2025-02-17 11:27:29,0.0
-13324,-2344,-4228,1938,3813,2704,2025-02-17 11:27:29,0.0
-13296,-2808,-4412,2255,4619,3300,2025-02-17 11:27:29,0.0
-13328,-2036,-4472,2210,5963,3783,2025-02-17 11:27:29,0.0
-13528,-1660,-2896,2838,5487,3897,2025-02-17 11:27:29,0.0
-14504,-968,-2716,4752,2577,4014,2025-02-17 11:27:29,0.0
-13860,-240,-3736,5597,-2378,3765,2025-02-17 11:27:29,0.0
-14388,8,-2428,7318,-7113,3983,2025-02-17 11:27:29,0.0
-13080,628,-3076,7858,-10116,4162,2025-02-17 11:27:29,0.0
-11416,468,-2320,7592,-10051,4164,2025-02-17 11:27:29,0.0
-9772,-432,-2188,6643,-7853,4252,2025-02-17 11:27:29,0.0
-8184,-732,-740,6309,-4868,3859,2025-02-17 11:27:29,0.0
-7836,196,-968,6297,-2062,2744,2025-02-17 11:27:29,0.0
-8960,1428,-460,5400,275,1966,2025-02-17 11:27:30,0.0
-9404,1756,-1592,4751,1795,889,2025-02-17 11:27:30,0.0
-11432,1904,-1280,4286,2257,-32,2025-02-17 11:27:30,0.0
-12356,1784,-1324,3722,1779,-585,2025-02-17 11:27:30,0.0
-13048,1448,-1428,2549,834,-1322,2025-02-17 11:27:30,0.0
-13616,1272,-1016,1558,577,-1605,2025-02-17 11:27:30,0.0
-14016,1288,-1316,697,1187,-1446,2025-02-17 11:27:30,0.0
-14060,1116,-972,-314,1628,-1293,2025-02-17 11:27:30,0.0
-14520,132,-144,-190,325,-827,2025-02-17 11:27:30,0.0
-14724,-508,-136,-133,-1950,-34,2025-02-17 11:27:30,0.0
-13944,-308,260,-182,-3641,300,2025-02-17 11:27:30,0.0
-13236,464,616,375,-3996,284,2025-02-17 11:27:30,0.0
-13036,820,-880,208,-3485,145,2025-02-17 11:27:30,0.0
-12904,-304,-1304,60,-2941,74,2025-02-17 11:27:30,0.0
-13496,-492,-436,21,-1694,-106,2025-02-17 11:27:30,0.0
-14800,-200,912,390,389,69,2025-02-17 11:27:30,0.0
-15692,136,2268,1022,1942,674,2025-02-17 11:27:30,0.0
-15700,180,3740,2183,2102,1108,2025-02-17 11:27:30,0.0
-15204,1096,3832,3525,986,853,2025-02-17 11:27:30,0.0
-16052,1780,424,3782,59,785,2025-02-17 11:27:30,0.0
-17468,1500,-4012,1965,1488,204,2025-02-17 11:27:30,0.0
-17960,1980,-4692,1499,3201,-9,2025-02-17 11:27:30,0.0
-19532,3196,-5528,1365,4488,227,2025-02-17 11:27:30,0.0
-20260,2156,-6152,1035,4245,1347,2025-02-17 11:27:30,0.0
-18412,480,-6812,558,2234,2544,2025-02-17 11:27:30,0.0
-15604,-796,-5692,605,-310,3100,2025-02-17 11:27:30,0.0
-11612,-2420,-4112,1213,-4099,2907,2025-02-17 11:27:30,0.0
-9580,-4052,-2524,1745,-7288,2351,2025-02-17 11:27:30,0.0
-8928,-4220,-1792,2173,-7619,1747,2025-02-17 11:27:30,0.0
-9428,-4048,-2892,1952,-5251,1001,2025-02-17 11:27:30,0.0
-10668,-2308,-4140,1185,-1160,667,2025-02-17 11:27:30,0.0
-11452,32,-5568,-207,1466,311,2025-02-17 11:27:30,0.0
-12680,1932,-4580,-1434,3615,-754,2025-02-17 11:27:30,0.0
-13052,1400,-3148,-2668,4847,-2243,2025-02-17 11:27:30,0.0
-12936,-320,-2384,-3005,2925,-3903,2025-02-17 11:27:30,0.0
-13764,-1984,-1680,-2866,-545,-4368,2025-02-17 11:27:30,0.0
-13936,-2564,-1336,-2105,-4153,-3459,2025-02-17 11:27:30,0.0
-12432,-1896,-1432,-906,-5994,-2396,2025-02-17 11:27:30,0.0
-10920,-1328,-1944,-246,-5509,-2307,2025-02-17 11:27:30,0.0
-11324,-752,-2368,-384,-3185,-2448,2025-02-17 11:27:30,0.0
-11720,-688,-2020,-323,-1149,-1898,2025-02-17 11:27:30,0.0
-11860,-1284,-2716,-661,-37,-1575,2025-02-17 11:27:30,0.0
-12120,-1684,-1688,-1095,365,-1486,2025-02-17 11:27:30,0.0
-12660,-1912,-360,-574,286,-962,2025-02-17 11:27:30,0.0
-12704,-1872,-176,-222,648,-365,2025-02-17 11:27:30,0.0
-13168,-1620,-668,-518,1126,-15,2025-02-17 11:27:30,0.0
-13764,-1608,-552,-846,1419,350,2025-02-17 11:27:30,0.0
-13928,-1788,-516,-938,724,755,2025-02-17 11:27:30,0.0
-13456,-1204,-12,-917,-919,869,2025-02-17 11:27:30,0.0
-12976,-492,868,-882,-3122,772,2025-02-17 11:27:30,0.0
-13428,-892,1912,-495,-3903,852,2025-02-17 11:27:30,0.0
-13396,-1132,216,-489,-3065,1122,2025-02-17 11:27:30,0.0
-13480,-804,-1080,-1158,-1641,1256,2025-02-17 11:27:30,0.0
-13948,704,-1192,-1823,-737,1148,2025-02-17 11:27:30,0.0
-14740,1932,-1096,-2497,-249,974,2025-02-17 11:27:30,
-15100,1832,-1804,-3796,-1477,555,2025-02-17 11:27:30,0.0
-14996,92,-40,-4032,-4400,453,2025-02-17 11:27:30,0.0
-13568,-976,2332,-2902,-8368,240,2025-02-17 11:27:30,0.0
-12936,368,4460,-2979,-9658,764,2025-02-17 11:27:30,0.0
-11216,148,4852,-3829,-9736,458,2025-02-17 11:27:30,0.0
-10664,-800,3104,-5059,-7360,-1240,2025-02-17 11:27:30,0.0
-12140,1104,-2424,-7093,-2562,-2871,2025-02-17 11:27:31,0.0
-14812,4536,-5864,-10832,1828,-3808,2025-02-17 11:27:31,0.0
-16656,5852,-6044,-13547,1432,-4002,2025-02-17 11:27:31,0.0
-17204,408,-5356,-11979,1349,-4357,2025-02-17 11:27:31,0.0
-16816,-1672,-7828,-10239,3741,-3965,2025-02-17 11:27:31,0.0
-14740,-244,-8028,-13183,5392,-3480,2025-02-17 11:27:31,0.0
-15360,1344,-4172,-15414,6320,-2451,2025-02-17 11:27:31,0.0
-16400,2152,-3392,-15904,5435,-1378,2025-02-17 11:27:31,0.0
-17432,2380,-3460,-16642,2017,67,2025-02-17 11:27:31,0.0
-14900,2448,-3228,-16903,-2349,328,2025-02-17 11:27:31,0.0
-12912,1680,-3020,-17268,-3737,-476,2025-02-17 11:27:31,0.0
-11780,1220,-2772,-17505,-3057,-1442,2025-02-17 11:27:31,0.0
-11708,836,-2700,-17926,-1753,-2108,2025-02-17 11:27:31,0.0
-11792,1380,-2744,-17865,-1702,-2357,2025-02-17 11:27:31,0.0
-13648,1032,-3436,-17881,-494,-1866,2025-02-17 11:27:31,0.0
-12952,-2580,-3312,-18838,1164,-1148,2025-02-17 11:27:31,0.0
-12504,-3200,-1824,-19401,1932,-1322,2025-02-17 11:27:31,0.0
-12896,-2520,-1700,-20541,2622,-1310,2025-02-17 11:27:31,0.0
-13200,-1784,-2012,-21486,3490,-1169,2025-02-17 11:27:31,0.0
-13348,-652,-1368,-21859,3573,-1234,2025-02-17 11:27:31,0.0
-14456,52,-468,-20018,3038,-1087,2025-02-17 11:27:31,0.0
-15260,56,-1480,-18467,1611,-527,2025-02-17 11:27:31,5
-15128,-152,-2000,-17446,-29,577,2025-02-17 11:27:31,5
-13752,-612,-1632,-16607,-1370,1059,2025-02-17 11:27:31,5
-12792,-1048,-1308,-15698,-1470,656,2025-02-17 11:27:31,5
-12724,-1016,-1764,-15465,130,221,2025-02-17 11:27:31,5
-12564,-1140,-2424,-16134,3386,-335,2025-02-17 11:27:31,5
-12360,-652,-1248,-16912,9547,-1486,2025-02-17 11:27:31,5
-11972,-40,-376,-16212,12603,-3050,2025-02-17 11:27:31,5
-12756,364,-456,-15707,12482,-3538,2025-02-17 11:27:31,5
-13548,264,-1204,-15392,12285,-3813,2025-02-17 11:27:31,5
-14052,-80,-2760,-15472,12451,-4244,2025-02-17 11:27:31,5
-15048,104,-3816,-16785,13187,-4664,2025-02-17 11:27:31,5
-14492,176,-4528,-18509,15353,-5113,2025-02-17 11:27:31,5
-13208,-216,-4416,-19482,17044,-5658,2025-02-17 11:27:31,5
-11872,-580,-3692,-19570,18077,-6246,2025-02-17 11:27:31,5
-10748,-64,-1600,-17752,17994,-6386,2025-02-17 11:27:31,5
-9832,392,952,-14080,16715,-5974,2025-02-17 11:27:31,5
-9908,780,968,-10124,14771,-4041,2025-02-17 11:27:31,5
-9284,428,728,-7758,14934,-1447,2025-02-17 11:27:31,5
-7240,-236,760,-7177,16580,1205,2025-02-17 11:27:31,5
-1144,-1216,2332,-5668,19321,1507,2025-02-17 11:27:31,5
2796,-252,1308,-6074,18879,922,2025-02-17 11:27:31,5
2368,-448,1856,-5812,18297,826,2025-02-17 11:27:31,5
2560,-432,1756,-5799,17934,670,2025-02-17 11:27:31,5
2540,-484,1692,-5743,17868,578,2025-02-17 11:27:31,5
2280,-464,1688,-5715,18244,528,2025-02-17 11:27:31,5
2480,-468,1688,-5639,18607,263,2025-02-17 11:27:31,5
2704,-376,1708,-5682,18696,-270,2025-02-17 11:27:31,5
2688,-400,1688,-5628,18572,-917,2025-02-17 11:27:31,5
2608,-232,1624,-5527,18327,-1321,2025-02-17 11:27:31,5
2488,-276,1624,-5367,18066,-1559,2025-02-17 11:27:31,5
2472,-368,1732,-5148,17767,-1749,2025-02-17 11:27:31,5
2392,-336,1692,-4965,17454,-1826,2025-02-17 11:27:31,5
2336,-404,1648,-4861,17177,-1874,2025-02-17 11:27:31,5
2500,-372,1556,-4762,17007,-1903,2025-02-17 11:27:31,5
2376,-284,1540,-4676,16869,-1924,2025-02-17 11:27:31,5
2532,-272,1212,-4571,16765,-2030,2025-02-17 11:27:31,5
2556,-104,1636,-4339,16513,-2170,2025-02-17 11:27:31,5
2700,76,1704,-3919,16379,-2551,2025-02-17 11:27:31,5
2600,232,1980,-3162,16238,-2813,2025-02-17 11:27:32,5
2392,404,1952,-2301,15984,-2704,2025-02-17 11:27:32,5
2088,764,2216,-1082,15032,-1882,2025-02-17 11:27:32,5
1932,20,660,596,15575,-1523,2025-02-17 11:27:32,5
27824,11924,32767,32767,-11297,-14597,2025-02-17 11:27:32,5
-32768,-32768,-32768,32767,-32768,-21373,2025-02-17 11:27:32,5
-32768,-32768,-32768,32767,-6295,6293,2025-02-17 11:27:32,5
-13508,-32768,-32768,-1917,6180,2644,2025-02-17 11:27:32,5
3812,-9436,-3528,2375,-706,1722,2025-02-17 11:27:32,5
5672,-2324,3140,4300,-1024,-1177,2025-02-17 11:27:32,5
3412,-1424,1620,4912,-3157,-1949,2025-02-17 11:27:32,5
2696,-1020,3852,4727,-5470,-2234,2025-02-17 11:27:32,5
2272,-920,3736,5540,-7756,-2342,2025-02-17 11:27:32,5
2284,-2404,116,3367,-10893,-3226,2025-02-17 11:27:32,5
-1192,-4456,-2312,-2493,-9370,-4640,2025-02-17 11:27:32,5
-4844,-5828,-5148,-8286,-3833,-3161,2025-02-17 11:27:32,5
-9100,-8472,-7624,-15502,3539,576,2025-02-17 11:27:32,5
-11152,-15840,-14008,-25002,11352,6803,2025-02-17 11:27:32,5
-3944,-19576,-13088,-23727,5912,6771,2025-02-17 11:27:32,5
-1128,-15092,-21436,-10375,857,1525,2025-02-17 11:27:32,5
-2548,-2264,-24112,1394,2359,39,2025-02-17 11:27:32,5
220,-5180,-10696,6303,-4248,-790,2025-02-17 11:27:32,5
-3504,-8320,-9552,6917,-5087,-547,2025-02-17 11:27:32,5
-4204,-9940,-10620,2816,-1061,-7,2025-02-17 11:27:32,5
-3484,-9268,-10340,-1675,1094,-65,2025-02-17 11:27:32,5
-3048,-7964,-11868,-3177,1624,-52,2025-02-17 11:27:32,5
-2644,-7060,-13116,-1442,889,-13,2025-02-17 11:27:32,5
-2960,-7744,-12764,598,-381,-247,2025-02-17 11:27:32,5
-3184,-8424,-11828,607,-385,-186,2025-02-17 11:27:32,5
-3084,-8240,-11508,-234,252,-185,2025-02-17 11:27:32,5
-2864,-8068,-12128,-573,483,-142,2025-02-17 11:27:32,5
-2876,-7932,-12584,-216,240,-174,2025-02-17 11:27:32,5
-3020,-7980,-12004,22,-30,-170,2025-02-17 11:27:32,5
-3096,-8068,-11904,-118,175,-184,2025-02-17 11:27:32,5
-3008,-8120,-11956,-300,262,-130,2025-02-17 11:27:32,5
-2256,-8348,-12064,-264,187,-219,2025-02-17 11:27:32,5
-2580,-8300,-13408,-1227,-2142,-101,2025-02-17 11:27:32,5
-4012,-7432,-10952,-557,-1000,191,2025-02-17 11:27:32,5
-3388,-7564,-11948,367,1723,-293,2025-02-17 11:27:32,5
-2800,-8404,-12004,181,1160,-430,2025-02-17 11:27:32,5
-2736,-8288,-12868,-332,-283,-9,2025-02-17 11:27:32,5
-2984,-7676,-11408,-108,-225,-132,2025-02-17 11:27:32,5
-3516,-8032,-12132,-141,625,-198,2025-02-17 11:27:32,5
-3020,-8012,-12264,-235,78,-151,2025-02-17 11:27:32,5
-3132,-7928,-11992,-177,182,-145,2025-02-17 11:27:32,5
-3068,-8052,-11924,-87,97,-148,2025-02-17 11:27:32,5
-3184,-8104,-12152,-235,151,-157,2025-02-17 11:27:32,5
-3036,-7892,-11980,-139,201,-179,2025-02-17 11:27:32,5
-3204,-8188,-12068,-168,114,-166,2025-02-17 11:27:32,5
-3048,-7964,-12044,-196,195,-163,2025-02-17 11:27:32,5
-3064,-7996,-12044,-95,190,-211,2025-02-17 11:27:32,5
-3136,-8088,-12072,-120,171,-171,2025-02-17 11:27:32,5
-3048,-7992,-12024,-162,115,-166,2025-02-17 11:27:32,5
-2972,-8136,-12032,-169,166,-196,2025-02-17 11:27:32,5
-3000,-7904,-12116,-143,184,-181,2025-02-17 11:27:32,5
-3140,-8044,-12124,-157,193,-184,2025-02-17 11:27:32,5
-3052,-8008,-11944,-171,164,-162,2025-02-17 11:27:32,5
-3052,-7996,-12008,-168,188,-187,2025-02-17 11:27:32,5
-3064,-8064,-11892,-155,139,-164,2025-02-17 11:27:32,5
-3224,-8028,-11848,-170,175,-187,2025-02-17 11:27:32,5
-3028,-7964,-12056,-144,186,-180,2025-02-17 11:27:33,5
-3092,-7968,-12028,-136,176,-186,2025-02-17 11:27:33,5
-3112,-8040,-11948,-196,160,-169,2025-02-17 11:27:33,5
-3096,-8068,-11960,-161,194,-181,2025-02-17 11:27:33,5
-3020,-8000,-12100,-178,166,-184,2025-02-17 11:27:33,5
-3080,-8048,-12020,-140,149,-184,2025-02-17 11:27:33,5
-3068,-7988,-12184,-174,159,-171,2025-02-17 11:27:33,5
-2960,-7972,-12000,-136,154,-189,2025-02-17 11:27:33,5
-3024,-7984,-12112,-168,167,-177,2025-02-17 11:27:33,5
-3040,-8040,-11888,-174,138,-180,2025-02-17 11:27:33,5
-3032,-8092,-12008,-199,150,-151,2025-02-17 11:27:33,5
-3056,-7988,-11940,-135,172,-176,2025-02-17 11:27:33,5
-3016,-7992,-11924,-164,156,-182,2025-02-17 11:27:33,5
-3164,-8000,-12084,-154,181,-195,2025-02-17 11:27:33,5
-3056,-8080,-12084,-141,178,-187,2025-02-17 11:27:33,5
-3148,-8044,-12072,-159,166,-192,2025-02-17 11:27:33,5
-3164,-8044,-12044,-181,165,-151,2025-02-17 11:27:33,5
-3040,-7976,-12068,-185,141,-166,2025-02-17 11:27:33,5
-3068,-8048,-12068,-183,156,-182,2025-02-17 11:27:33,5
-3116,-7980,-12060,-170,182,-183,2025-02-17 11:27:33,5
-3092,-8000,-12032,-170,175,-153,2025-02-17 11:27:33,5
-3056,-8056,-12124,-172,155,-181,2025-02-17 11:27:33,5
-3072,-8008,-12008,-173,156,-178,2025-02-17 11:27:33,5
-3032,-8008,-12128,-169,177,-178,2025-02-17 11:27:33,5
-3200,-8012,-11992,-157,164,-186,2025-02-17 11:27:33,5
-3108,-7988,-12100,-175,162,-147,2025-02-17 11:27:33,5
-3100,-8020,-12180,-164,163,-155,2025-02-17 11:27:33,5
-2992,-7984,-12144,-145,180,-179,2025-02-17 11:27:33,5
-2972,-8040,-12016,-163,169,-175,2025-02-17 11:27:33,0.0
-3064,-7996,-12092,-160,151,-198,2025-02-17 11:27:33,0.0
-3124,-7984,-12008,-157,161,-175,2025-02-17 11:27:33,0.0
-3096,-8068,-11984,-153,156,-187,2025-02-17 11:27:33,0.0
-3060,-7968,-11980,-151,158,-150,2025-02-17 11:27:33,0.0
-3100,-8032,-11976,-141,138,-181,2025-02-17 11:27:33,0.0
-3136,-8000,-12108,-137,163,-142,2025-02-17 11:27:33,0.0
-3024,-8088,-11952,-164,135,-182,2025-02-17 11:27:33,0.0
-2928,-7948,-12064,-150,149,-173,2025-02-17 11:27:33,0.0
-3048,-7908,-12140,-165,175,-184,2025-02-17 11:27:33,0.0
-3140,-7980,-12028,-163,192,-175,2025-02-17 11:27:33,0.0
-3100,-8004,-11972,-166,171,-136,2025-02-17 11:27:33,0.0
-3016,-7948,-12104,-172,175,-152,2025-02-17 11:27:33,0.0
-3104,-7896,-12076,-156,178,-203,2025-02-17 11:27:33,0.0
-3076,-7976,-11888,-168,146,-197,2025-02-17 11:27:33,0.0
-3148,-8060,-11968,-171,171,-184,2025-02-17 11:27:33,0.0
-3104,-8032,-11992,-156,193,-171,2025-02-17 11:27:33,0.0
-2996,-8012,-12020,-128,166,-177,2025-02-17 11:27:33,0.0
-3056,-8012,-11936,-158,203,-183,2025-02-17 11:27:33,0.0
-3040,-8100,-11988,-180,170,-181,2025-02-17 11:27:33,0.0
-3084,-8052,-12064,-173,142,-179,2025-02-17 11:27:33,0.0
-3020,-8016,-12072,-146,158,-159,2025-02-17 11:27:33,0.0
-3048,-7964,-12092,-190,161,-168,2025-02-17 11:27:33,0.0
-3088,-7924,-12128,-170,216,-183,2025-02-17 11:27:33,0.0
-2952,-7952,-12084,-163,107,-193,2025-02-17 11:27:33,0.0
-3056,-8076,-11908,-105,164,-255,2025-02-17 11:27:33,0.0
-2964,-8172,-12032,-215,5,-175,2025-02-17 11:27:33,0.0
-3164,-7948,-12044,-259,-21,-158,2025-02-17 11:27:33,0.0
-3144,-7852,-12032,-102,193,-217,2025-02-17 11:27:33,0.0
-3180,-8264,-12440,-195,81,-208,2025-02-17 11:27:33,0.0
-3124,-8044,-12208,-548,19,-163,2025-02-17 11:27:33,0.0
-3468,-7796,-11752,-208,134,-39,2025-02-17 11:27:34,0.0
-3372,-7748,-11828,66,399,-237,2025-02-17 11:27:34,0.0
-3044,-8400,-12336,-162,293,-230,2025-02-17 11:27:34,0.0
-2868,-7872,-11776,-127,-16,-137,2025-02-17 11:27:34,0.0
-3388,-7744,-11760,159,106,-184,2025-02-17 11:27:34,0.0
-3396,-7988,-11804,391,946,-236,2025-02-17 11:27:34,0.0
-2860,-7880,-11816,648,1296,-231,2025-02-17 11:27:34,0.0
-2988,-7972,-12480,616,1535,-476,2025-02-17 11:27:34,0.0
-2756,-7756,-4084,605,1351,-557,2025-02-17 11:27:34,0.0
-3492,-7960,-11116,866,1983,-368,2025-02-17 11:27:34,0.0
-2840,-7824,-10940,1205,3306,-748,2025-02-17 11:27:34,0.0
-2472,-7960,-11456,2989,3787,-1283,2025-02-17 11:27:34,0.0
-2236,-9512,-17748,329,859,-836,2025-02-17 11:27:34,0.0
-1864,-9456,-11832,-711,-1853,16,2025-02-17 11:27:34,0.0
-2788,-8552,-13748,-1250,-3473,337,2025-02-17 11:27:34,
-2156,-7692,-10752,-1092,-4304,202,2025-02-17 11:27:34,0.0
-3052,-7600,-10172,-156,-2816,-240,2025-02-17 11:27:34,0.0
-4328,-8256,-11880,139,-550,-524,2025-02-17 11:27:34,0.0
-3568,-8896,-12052,-423,-54,-199,2025-02-17 11:27:34,0.0
-3036,-8296,-12092,-492,-133,-74,2025-02-17 11:27:34,0.0
-4016,-8052,-11244,-381,-184,121,2025-02-17 11:27:34,0.0
-2892,-8096,-12320,-380,-93,-209,2025-02-17 11:27:34,0.0
-2888,-7948,-11476,33,-6,-234,2025-02-17 11:27:34,0.0
-3452,-8548,-11936,58,262,-210,2025-02-17 11:27:34,0.0
-3912,-9288,-11292,139,1184,-156,2025-02-17 11:27:34,0.0
-4316,-9636,-10448,1128,4043,503,2025-02-17 11:27:34,0.0
-4284,-10916,-11376,976,4751,489,2025-02-17 11:27:34,0.0
-4912,-10792,-16760,-360,7092,-125,2025-02-17 11:27:34,0.0
-5312,-9720,-10500,1285,4512,2004,2025-02-17 11:27:34,0.0
-2892,-11640,-11968,4155,4112,2110,2025-02-17 11:27:34,0.0
108,-12744,-13148,3820,2125,3488,2025-02-17 11:27:34,0.0
-12,-15532,-17696,-1804,-4029,3530,2025-02-17 11:27:34,0.0
-1164,-16384,-14940,-3460,-7571,391,2025-02-17 11:27:34,0.0
-2788,-16196,-14112,-2843,-7065,-1455,2025-02-17 11:27:34,0.0
-1248,-17464,-14544,-4107,-7087,-2625,2025-02-17 11:27:34,0.0
-5564,-14060,-15124,-5512,-4679,-2250,2025-02-17 11:27:34,0.0
-8116,-9776,-17772,-6119,198,-224,2025-02-17 11:27:34,0.0
-6236,-5836,-19484,-6868,2873,1544,2025-02-17 11:27:34,0.0
-6416,-5496,-18972,-8075,4315,1502,2025-02-17 11:27:34,0.0
-6332,-3060,-20780,-7424,3558,819,2025-02-17 11:27:34,0.0
-8344,-8420,-18952,-3840,1740,2638,2025-02-17 11:27:34,0.0
-6564,-11464,-18952,-4312,-3016,4876,2025-02-17 11:27:34,0.0
-4720,-7720,-14804,-4684,-7040,5661,2025-02-17 11:27:34,0.0
-4596,-5632,-13096,-3083,-9494,6634,2025-02-17 11:27:34,0.0
-5872,-7024,-16032,-3133,-9329,7016,2025-02-17 11:27:34,0.0
-5052,-7760,-18092,-4969,-8103,6432,2025-02-17 11:27:34,0.0
-5032,-8280,-19340,-7435,-8177,5236,2025-02-17 11:27:34,0.0
-6208,-6372,-17524,-9063,-8741,4522,2025-02-17 11:27:34,0.0
-7460,-4080,-16576,-8348,-7970,4236,2025-02-17 11:27:34,0.0
-7336,-3608,-16244,-8225,-6722,4599,2025-02-17 11:27:34,0.0
-7356,-3460,-16408,-8507,-6521,4836,2025-02-17 11:27:34,0.0
-7840,-3408,-17192,-9394,-7147,5623,2025-02-17 11:27:34,0.0
-8248,-3564,-17280,-10179,-7763,6501,2025-02-17 11:27:34,0.0
-8076,-4060,-18340,-11027,-7772,7020,2025-02-17 11:27:34,0.0
-7860,-4576,-18428,-11915,-7308,6876,2025-02-17 11:27:34,0.0
-7680,-4812,-16700,-11415,-7374,6842,2025-02-17 11:27:34,0.0
-5528,-4920,-17560,-9720,-9070,5650,2025-02-17 11:27:34,0.0
-5732,-3872,-22152,-12110,-12439,4554,2025-02-17 11:27:34,0.0
-4968,-2196,-17604,-15685,-15458,3567,2025-02-17 11:27:34,0.0
-6232,-32,-8108,-11342,-14353,2067,2025-02-17 11:27:34,0.0
-6304,1428,-8244,-8998,-9792,1282,2025-02-17 11:27:34,0.0
-5680,2076,-7220,-8586,-4519,-401,2025-02-17 11:27:34,0.0
-6928,2504,-6588,-7264,164,-1515,2025-02-17 11:27:34,0.0
-8716,3084,-6900,-5079,4468,-980,2025-02-17 11:27:35,0.0
-8672,2812,-9316,-3442,7779,-76,2025-02-17 11:27:35,0.0
-8040,2236,-11804,-3726,10747,-147,2025-02-17 11:27:35,0.0
-8804,1624,-10848,-4098,14687,-1938,2025-02-17 11:27:35,0.0
-9356,868,-9432,-2734,17933,-3013,2025-02-17 11:27:35,0.0
-8224,532,-9616,-1831,17314,-2185,2025-02-17 11:27:35,0.0
-5748,764,-9192,-2249,12501,-851,2025-02-17 11:27:35,0.0
-3840,788,-7276,-2565,5410,-51,2025-02-17 11:27:35,0.0
-3292,128,-5472,-2011,-1939,5,2025-02-17 11:27:35,0.0
-3300,-700,-5636,-1710,-7101,-1012,2025-02-17 11:27:35,0.0
-4196,-1168,-6216,-2562,-9824,-2358,2025-02-17 11:27:35,0.0
-5416,-1340,-6280,-4293,-11546,-2580,2025-02-17 11:27:35,0.0
-5596,-1412,-5300,-5212,-12830,-2648,2025-02-17 11:27:35,0.0
-6772,224,-3956,-4039,-14681,-2851,2025-02-17 11:27:35,0.0
-7708,1868,-4216,-2346,-16973,-1441,2025-02-17 11:27:35,0.0
-6896,2964,-5216,-1267,-19962,1568,2025-02-17 11:27:35,0.0
-4888,2928,-5708,-1003,-22228,1709,2025-02-17 11:27:35,0.0
-5480,2256,-5444,-184,-22205,443,2025-02-17 11:27:35,0.0
-7320,1224,-5760,319,-19204,-784,2025-02-17 11:27:35,0.0
-9688,576,-6532,-559,-14202,115,2025-02-17 11:27:35,0.0
-8924,-136,-6156,-2030,-8394,1750,2025-02-17 11:27:35,0.0
-6864,-184,-5120,-3404,-3771,1993,2025-02-17 11:27:35,0.0
-4948,84,-4140,-4163,-1470,669,2025-02-17 11:27:35,0.0
-3448,224,-3360,-4274,-894,-2319,2025-02-17 11:27:35,0.0
-4596,232,-2896,-4158,-1924,-4172,2025-02-17 11:27:35,0.0
-6096,388,-2780,-3972,-3583,-4682,2025-02-17 11:27:35,0.0
-6484,408,-2948,-3641,-5756,-4631,2025-02-17 11:27:35,0.0
-7068,676,-2716,-3151,-8296,-4759,2025-02-17 11:27:35,0.0
-7792,456,-2896,-2553,-10764,-4646,2025-02-17 11:27:35,0.0
-7564,-192,-3708,-2312,-13541,-4921,2025-02-17 11:27:35,0.0
-8552,-652,-3728,-2043,-14827,-5759,2025-02-17 11:27:35,0.0
-9084,-1024,-4324,-1948,-14489,-6777,2025-02-17 11:27:35,0.0
-11460,-492,-4460,-2297,-12499,-6822,2025-02-17 11:27:35,0.0
-12196,4,-3160,-2296,-9117,-6971,2025-02-17 11:27:35,0.0
-14960,428,-2652,-1399,-3657,-5637,2025-02-17 11:27:35,0.0
-15192,-256,-2672,-671,815,-3331,2025-02-17 11:27:35,0.0
-13172,-776,-2624,-125,3866,-1542,2025-02-17 11:27:35,0.0
-11984,-1304,-2704,640,5613,-1112,2025-02-17 11:27:35,0.0
-11980,-1252,-3184,1720,6625,-786,2025-02-17 11:27:35,0.0
-11440,-1464,-4440,2129,7045,-689,2025-02-17 11:27:35,0.0
-11044,-1772,-5988,1566,6696,-500,2025-02-17 11:27:35,0.0
-10632,-1776,-6752,201,5915,-1127,2025-02-17 11:27:35,0.0
-12328,-2388,-7048,-1372,5733,-1576,2025-02-17 11:27:35,0.0
-15344,-5440,-3724,-5568,4289,-2084,2025-02-17 11:27:35,0.0
-17236,-2024,4192,-9140,-7705,-2446,2025-02-17 11:27:35,0.0
-20804,204,3748,-4249,-9829,-632,2025-02-17 11:27:35,0.0
-15820,432,-5072,-1980,-12752,336,2025-02-17 11:27:35,0.0
-12544,1460,-12084,-5357,-17769,1253,2025-02-17 11:27:35,0.0
-11432,2304,-9652,-9155,-22771,1926,2025-02-17 11:27:35,0.0
-11152,1320,4688,-5877,-29129,1807,2025-02-17 11:27:35,0.0
-12560,784,2248,-2794,-28346,2673,2025-02-17 11:27:35,0.0
-13616,764,-624,-2915,-20968,4097,2025-02-17 11:27:35,
-12076,716,-2368,-4127,-9042,3119,2025-02-17 11:27:35,0.0
-10292,1820,-408,-5951,3494,455,2025-02-17 11:27:35,0.0
-11760,1552,-52,-6492,9731,112,2025-02-17 11:27:35,0.0
-11636,872,704,-5252,11402,878,2025-02-17 11:27:35,0.0
-12500,1968,-2476,-5689,11381,318,2025-02-17 11:27:35,0.0
-12856,2740,-4180,-8302,9605,-1703,2025-02-17 11:27:35,0.0
-13764,1884,-3188,-10476,6999,-3591,2025-02-17 11:27:35,0.0
-14740,856,-2392,-11268,4863,-3930,2025-02-17 11:27:35,0.0
-15568,468,-2704,-11709,4356,-2891,2025-02-17 11:27:35,0.0
-15888,948,-2532,-12539,4603,-1258,2025-02-17 11:27:35,0.0
-13816,824,-2216,-12802,3941,-834,2025-02-17 11:27:36,0.0
-13120,936,-2212,-12898,2709,-1147,2025-02-17 11:27:36,0.0
-12952,1032,-3280,-13829,2141,-1791,2025-02-17 11:27:36,0.0
-11912,436,-2736,-14580,2154,-2620,2025-02-17 11:27:36,0.0
-12164,-48,-2656,-14893,2211,-3441,2025-02-17 11:27:36,0.0
-13500,148,-1900,-15732,3872,-2677,2025-02-17 11:27:36,0.0
-13148,-408,-1704,-14619,2940,-3362,2025-02-17 11:27:36,0.0
-13480,-944,-796,-13572,1234,-3684,2025-02-17 11:27:36,0.0
-12804,-880,-3184,-13883,296,-3877,2025-02-17 11:27:36,0.0
-11328,12,-3832,-14465,-528,-5209,2025-02-17 11:27:36,0.0
-11884,916,-3328,-15070,-878,-6812,2025-02-17 11:27:36,0.0
-13716,804,-2208,-16077,-628,-7119,2025-02-17 11:27:36,0.0
-14452,368,-2596,-15703,-742,-5384,2025-02-17 11:27:36,0.0
-13892,-40,-3812,-16180,-747,-4369,2025-02-17 11:27:36,0.0
-13848,-268,-3152,-16510,-601,-4055,2025-02-17 11:27:36,0.0
-13648,-672,-3188,-16366,-313,-4185,2025-02-17 11:27:36,0.0
-13036,-1204,-3388,-16750,-735,-4477,2025-02-17 11:27:36,0.0
-13200,-1436,-2824,-16946,-1152,-4534,2025-02-17 11:27:36,0.0
-13640,-1624,-2324,-17153,-238,-3745,2025-02-17 11:27:36,0.0
-13760,-1816,-1860,-16947,769,-3012,2025-02-17 11:27:36,0.0
-13452,-1668,-1784,-16630,1288,-2562,2025-02-17 11:27:36,0.0
-13488,-1224,-1504,-16400,1739,-2481,2025-02-17 11:27:36,0.0
-13776,-600,-2020,-15918,2587,-2546,2025-02-17 11:27:36,0.0
-14088,-568,-2272,-15498,2810,-2283,2025-02-17 11:27:36,0.0
-13564,-740,-2368,-15186,2642,-2171,2025-02-17 11:27:36,0.0
-13248,-952,-1804,-14510,2569,-2190,2025-02-17 11:27:36,0.0
-13088,-1148,-1348,-13372,2419,-2065,2025-02-17 11:27:36,0.0
-12836,-948,-1552,-12218,2272,-2335,2025-02-17 11:27:36,0.0
-13188,-628,-1672,-10964,2165,-2858,2025-02-17 11:27:36,0.0
-13828,-320,-1560,-10244,2031,-2863,2025-02-17 11:27:36,0.0
-13868,-208,-1608,-9587,1935,-2821,2025-02-17 11:27:36,0.0
-13932,-36,-1796,-9197,1826,-2640,2025-02-17 11:27:36,0.0
-13292,-116,-2440,-9078,1538,-2706,2025-02-17 11:27:36,0.0
-13088,-500,-2380,-9118,861,-2982,2025-02-17 11:27:36,0.0
-12704,-804,-2800,-8752,273,-3224,2025-02-17 11:27:36,0.0
-13160,-1008,-2804,-8730,153,-3243,2025-02-17 11:27:36,0.0
-13204,-920,-1984,-8448,837,-3176,2025-02-17 11:27:36,0.0
-13272,-1036,-1716,-8088,1474,-3086,2025-02-17 11:27:36,0.0
-13496,-716,-1932,-7576,2098,-2845,2025-02-17 11:27:36,0.0
-13836,-496,-2640,-7326,2487,-2279,2025-02-17 11:27:36,0.0
-13608,-884,-2584,-7033,1679,-1828,2025-02-17 11:27:36,0.0
-13340,-1160,-2704,-6901,666,-1727,2025-02-17 11:27:36,0.0
-13176,-684,-2316,-6770,69,-1669,2025-02-17 11:27:36,0.0
-12872,-524,-1616,-6434,-442,-1736,2025-02-17 11:27:36,0.0
-12672,-992,-600,-5780,-388,-1719,2025-02-17 11:27:36,0.0
-12272,-972,-1104,-5028,-73,-1670,2025-02-17 11:27:36,0.0
-11852,-448,-908,-4139,429,-1484,2025-02-17 11:27:36,0.0
-12128,-116,-596,-3167,1503,-972,2025-02-17 11:27:36,0.0
-13424,-384,-1520,-2361,3814,-531,2025-02-17 11:27:36,0.0
-16696,-1332,76,-1344,6379,718,2025-02-17 11:27:36,0.0
-15224,1288,3420,38,4680,5500,2025-02-17 11:27:36,0.0
-15720,2532,3304,1876,-315,3422,2025-02-17 11:27:36,0.0
-14620,1072,-1164,1231,-3400,2101,2025-02-17 11:27:36,0.0
-14672,380,-2140,15,-2340,2296,2025-02-17 11:27:36,0.0
-14620,696,-1192,171,-1060,3006,2025-02-17 11:27:36,0.0
-14048,1008,-2016,133,-756,3333,2025-02-17 11:27:36,0.0
-12620,1636,-1156,349,-1722,2489,2025-02-17 11:27:36,0.0
-13568,364,-1284,590,-1736,2420,2025-02-17 11:27:36,0.0
-13044,-16,-464,1241,-1242,2833,2025-02-17 11:27:36,0.0
-11960,392,-696,1526,-1181,3059,2025-02-17 11:27:36,0.0
-11588,1052,-600,1301,-533,2395,2025-02-17 11:27:36,0.0
-11628,1536,-148,809,534,1486,2025-02-17 11:27:37,0.0
-11696,2464,392,784,1075,879,2025-02-17 11:27:37,0.0
-12796,1956,632,922,1576,523,2025-02-17 11:27:37,0.0
-13424,1928,184,1131,1241,335,2025-02-17 11:27:37,0.0
-13756,1592,248,1245,828,397,2025-02-17 11:27:37,0.0
-13176,1572,664,1660,880,423,2025-02-17 11:27:37,0.0
-12920,1624,844,1928,823,264,2025-02-17 11:27:37,0.0
-13796,764,-40,1302,1992,202,2025-02-17 11:27:37,0.0
-13280,1272,724,2379,2357,321,2025-02-17 11:27:37,0.0
-13308,1380,-148,3086,2003,66,2025-02-17 11:27:37,0.0
-14244,2060,124,3375,1101,114,2025-02-17 11:27:37,0.0
-13840,2500,-480,2900,1421,74,2025-02-17 11:27:37,0.0
-13624,2212,-956,2469,2512,-133,2025-02-17 11:27:37,0.0
-14400,2660,-120,2338,3218,-306,2025-02-17 11:27:37,0.0
-15848,2144,-60,2704,2432,-307,2025-02-17 11:27:37,0.0
-17912,1948,-2212,2995,1806,763,2025-02-17 11:27:37,0.0
-17932,3368,-3932,1879,1937,2129,2025-02-17 11:27:37,0.0
-16760,4408,-4424,632,1872,3084,2025-02-17 11:27:37,0.0
-14464,5184,-4920,61,962,2092,2025-02-17 11:27:37,0.0
-14908,4140,-2572,-36,34,976,2025-02-17 11:27:37,0.0
-14188,1964,96,1414,-1582,41,2025-02-17 11:27:37,0.0
-12504,1972,-684,2153,-2638,-1274,2025-02-17 11:27:37,0.0
-13648,1300,324,2363,-1565,-1793,2025-02-17 11:27:37,0.0
-13868,1596,-1000,2872,843,-1382,2025-02-17 11:27:37,0.0
-15148,1868,-2104,3211,1733,-1655,2025-02-17 11:27:37,0.0
-15056,1520,-4108,3193,1087,-1412,2025-02-17 11:27:37,0.0
-15032,816,-6548,2642,-1540,-1003,2025-02-17 11:27:37,0.0
-13532,716,-7400,796,-3643,-650,2025-02-17 11:27:37,0.0
-10756,952,-5464,-648,-3838,-832,2025-02-17 11:27:37,
-10092,592,-4636,-836,-1949,-1975,2025-02-17 11:27:37,0.0
-10128,504,-5620,-1426,14,-3300,2025-02-17 11:27:37,0.0
-10964,888,-5972,-1985,495,-4243,2025-02-17 11:27:37,0.0
-12608,148,-5368,-2765,315,-4737,2025-02-17 11:27:37,0.0
-13028,-372,-4660,-2761,-1228,-4548,2025-02-17 11:27:37,0.0
-13096,-592,-3948,-2615,-2532,-4385,2025-02-17 11:27:37,0.0
-13484,-432,-2496,-2319,-2409,-3942,2025-02-17 11:27:37,0.0
-12772,-368,-2068,-1759,-2163,-3800,2025-02-17 11:27:37,0.0
-12124,-700,-2780,-1821,-2869,-4079,2025-02-17 11:27:37,0.0
-11908,-1248,-2880,-1990,-3998,-4124,2025-02-17 11:27:37,0.0
-11812,-2140,-2168,-1466,-4508,-3667,2025-02-17 11:27:37,0.0
-11580,-2832,-1924,-616,-3949,-2863,2025-02-17 11:27:37,0.0
-11180,-2964,-1840,-536,-2533,-2414,2025-02-17 11:27:37,0.0
-11072,-2372,-1804,-897,-466,-2484,2025-02-17 11:27:37,0.0
-10892,-1596,-1872,-1505,705,-2678,2025-02-17 11:27:37,0.0
-12148,-992,-1372,-815,557,-2408,2025-02-17 11:27:37,0.0
-11952,-788,-1600,-955,-101,-1699,2025-02-17 11:27:37,0.0
-11324,-1156,-2124,-1567,159,-1308,2025-02-17 11:27:37,0.0
-12296,-1060,-972,-1593,1580,-938,2025-02-17 11:27:37,0.0
-12572,-804,-76,-1609,1215,-493,2025-02-17 11:27:37,0.0
-13008,-496,1064,-1334,-566,-580,2025-02-17 11:27:37,0.0
-12936,-304,948,-890,-3372,-516,2025-02-17 11:27:37,0.0
-12752,-736,876,-893,-5452,-442,2025-02-17 11:27:37,0.0
-12408,-944,1008,-854,-6617,-632,2025-02-17 11:27:37,0.0
-11796,-1432,576,-983,-6459,-1188,2025-02-17 11:27:37,0.0
-11032,-1712,-500,-1330,-5435,-2455,2025-02-17 11:27:37,0.0
-10092,-1508,-920,-1400,-3710,-4213,2025-02-17 11:27:37,0.0
-10516,-1092,-1084,-1815,-1421,-6556,2025-02-17 11:27:37,0.0
-11988,-1820,-96,-1884,3164,-7527,2025-02-17 11:27:37,0.0
-13560,-2864,1260,-2043,4152,-7901,2025-02-17 11:27:37,0.0
-16392,-3204,2416,-1839,2732,-8190,2025-02-17 11:27:37,0.0
-19040,-3452,588,-1849,639,-7578,2025-02-17 11:27:37,0.0
-19376,-5084,-3228,-2450,1090,-6568,2025-02-17 11:27:38,0.0
-20536,-6904,-4888,-4226,4223,-6039,2025-02-17 11:27:38,0.0
-20732,-8196,-4524,-4856,6241,-4851,2025-02-17 11:27:38,0.0
-19920,-9164,-6728,-4993,4738,-3016,2025-02-17 11:27:38,0.0
-19092,-8052,-6260,-5569,1944,-716,2025-02-17 11:27:38,0.0
-17544,-5216,-3648,-5530,-939,688,2025-02-17 11:27:38,0.0
-16056,-1884,-2576,-5397,-4468,1536,2025-02-17 11:27:38,0.0
-14872,84,-2384,-4329,-7394,2742,2025-02-17 11:27:38,0.0
-12980,552,-3952,-2841,-8533,3378,2025-02-17 11:27:38,0.0
-10712,548,-5552,-1409,-5940,3157,2025-02-17 11:27:38,0.0
-8892,412,-5300,-728,-1139,1564,2025-02-17 11:27:38,0.0
-10172,-116,-4976,-629,3936,-289,2025-02-17 11:27:38,0.0
-13108,-1852,-4296,-882,7090,-420,2025-02-17 11:27:38,0.0
-14992,-2236,-3692,-528,8201,789,2025-02-17 11:27:38,0.0
-15660,-2076,-3632,-103,7880,2170,2025-02-17 11:27:38,0.0
-15140,-2308,-4080,443,5471,3827,2025-02-17 11:27:38,0.0
-12916,-2208,-3108,823,1150,3710,2025-02-17 11:27:38,0.0
-12092,-1652,-2412,1691,-3863,2705,2025-02-17 11:27:38,0.0
-10996,-916,-2652,2023,-5632,2373,2025-02-17 11:27:38,0.0
-9780,-264,-2056,2301,-5330,1853,2025-02-17 11:27:38,0.0
-9128,340,-2016,2294,-4024,1353,2025-02-17 11:27:38,0.0
-8796,360,-1868,1928,-1502,977,2025-02-17 11:27:38,0.0
-8532,192,-1696,1734,1527,471,2025-02-17 11:27:38,0.0
-9228,-36,-1184,1857,4617,-798,2025-02-17 11:27:38,0.0
-10456,0,-1272,2602,5852,-2088,2025-02-17 11:27:38,0.0
-12304,-900,-2032,3322,6355,-2944,2025-02-17 11:27:38,0.0
-13488,-1828,-3084,3512,5999,-3237,2025-02-17 11:27:38,0.0
-12924,-2008,-3136,3152,4691,-2984,2025-02-17 11:27:38,0.0
-12496,-1824,-2576,3029,2667,-3875,2025-02-17 11:27:38,0.0
-12880,-1464,-2832,2700,1194,-4779,2025-02-17 11:27:38,0.0
-13912,-1220,-1992,2405,839,-4953,2025-02-17 11:27:38,0.0
-14504,-1548,-1456,2405,-217,-4689,2025-02-17 11:27:38,0.0
-15112,-1808,-240,3006,-1217,-3730,2025-02-17 11:27:38,0.0
-14536,-2088,-1088,3847,-1448,-2464,2025-02-17 11:27:38,0.0
-13764,-1924,-2352,3797,-1080,-1545,2025-02-17 11:27:38,0.0
-13140,-1252,-3648,3231,-805,-908,2025-02-17 11:27:38,0.0
-12616,-744,-3540,2147,-278,-900,2025-02-17 11:27:38,0.0
-13200,-1412,-3088,987,693,-897,2025-02-17 11:27:38,0.0
-14148,-2208,-2288,308,820,-754,2025-02-17 11:27:38,0.0
-15280,-2524,-816,582,-915,-99,2025-02-17 11:27:38,0.0
-14032,-2476,-28,1342,-2426,364,2025-02-17 11:27:38,0.0
-13096,-1976,-1152,2038,-2759,334,2025-02-17 11:27:38,0.0
-12380,-1648,-2588,2472,-1640,382,2025-02-17 11:27:38,0.0
-13340,-1584,-4928,2210,294,584,2025-02-17 11:27:38,0.0
-15112,-848,-5508,1037,2792,1110,2025-02-17 11:27:38,0.0
-15544,-956,-5356,741,4730,1007,2025-02-17 11:27:38,0.0
-17696,-1996,-5700,703,6609,1168,2025-02-17 11:27:38,0.0
-17584,-3392,-6700,942,7156,2060,2025-02-17 11:27:38,0.0
-14672,-4652,-6004,995,2875,1556,2025-02-17 11:27:38,0.0
-11364,-4632,-7988,670,-4273,527,2025-02-17 11:27:38,0.0
-10096,-4992,-7204,-342,-5792,775,2025-02-17 11:27:38,0.0
-8544,-5324,-4564,-362,-3245,1132,2025-02-17 11:27:38,0.0
-8532,-4660,-2516,850,1774,1261,2025-02-17 11:27:38,0.0
-8976,-3824,-3252,1363,6565,761,2025-02-17 11:27:38,0.0
-10072,-3452,-5800,-77,9283,-781,2025-02-17 11:27:38,0.0
-11716,-3492,-6696,-2406,10325,-2966,2025-02-17 11:27:38,0.0
-13156,-3696,-5100,-3687,9311,-5350,2025-02-17 11:27:38,0.0
-14688,-4532,-4820,-2807,6098,-5299,2025-02-17 11:27:38,0.0
-13520,-5356,-5204,-966,1282,-3723,2025-02-17 11:27:38,0.0
-12052,-5300,-6412,561,-2612,-1735,2025-02-17 11:27:38,0.0
-10884,-4788,-5764,189,-3599,-191,2025-02-17 11:27:38,0.0
-10096,-4832,-5216,-412,-3619,138,2025-02-17 11:27:39,0.0
-10428,-4892,-3788,-1090,-2564,-65,2025-02-17 11:27:39,0.0
-11304,-5112,-2088,-686,25,528,2025-02-17 11:27:39,0.0
-12120,-5332,-1524,269,1867,1495,2025-02-17 11:27:39,0.0
-12712,-5396,-1116,1247,2330,2350,2025-02-17 11:27:39,0.0
-13508,-5456,-572,2522,2120,2995,2025-02-17 11:27:39,0.0
-14496,-5304,192,3462,1739,3503,2025-02-17 11:27:39,
-14996,-5160,64,4714,938,4316,2025-02-17 11:27:39,0.0
-14744,-4620,-1148,5973,-1244,5227,2025-02-17 11:27:39,0.0
-14344,-4012,-2124,6970,-3237,5972,2025-02-17 11:27:39,0.0
-13580,-3928,-2520,7652,-3871,6328,2025-02-17 11:27:39,0.0
-12952,-4532,-1784,9052,-3196,6276,2025-02-17 11:27:39,0.0
-12836,-5568,-2792,11342,-1290,6007,2025-02-17 11:27:39,0.0
-13048,-6012,-5904,13007,1293,5537,2025-02-17 11:27:39,0.0
-12728,-5912,-9148,12639,4289,4533,2025-02-17 11:27:39,0.0
-11868,-6304,-8624,10861,3240,3712,2025-02-17 11:27:39,0.0
-11696,-5904,-5432,9372,-1099,3694,2025-02-17 11:27:39,0.0
-11596,-4796,-2912,9491,-2088,4055,2025-02-17 11:27:39,0.0
-10680,-4032,-3800,9785,-1712,4223,2025-02-17 11:27:39,0.0
-10572,-3452,-4916,9722,-1168,3968,2025-02-17 11:27:39,0.0
-10596,-3084,-5464,9172,-924,3633,2025-02-17 11:27:39,0.0
-10348,-2936,-4468,8825,-73,3322,2025-02-17 11:27:39,0.0
-9636,-2532,-3064,9089,1761,2735,2025-02-17 11:27:39,0.0
-9784,-1652,-3292,9634,4119,1225,2025-02-17 11:27:39,0.0
-12340,-1156,-3692,9813,4596,852,2025-02-17 11:27:39,0.0
-13016,-1620,-3936,10793,4571,440,2025-02-17 11:27:39,0.0
-14444,-1912,-4136,12512,4168,-640,2025-02-17 11:27:39,0.0
-14720,-2324,-2912,14589,1675,-1553,2025-02-17 11:27:39,0.0
-16212,-4532,-2084,16219,-886,-1796,2025-02-17 11:27:39,0.0
-15880,-6900,-2352,17485,-2572,-779,2025-02-17 11:27:39,0.0
-14552,-7444,-2588,18540,-3493,482,2025-02-17 11:27:39,0.0
-13828,-6200,-4176,19152,-3116,2876,2025-02-17 11:27:39,0.0
-11188,-4336,-5928,18081,-2497,4421,2025-02-17 11:27:39,0.0
-12424,-3180,-5888,16793,-1800,5234,2025-02-17 11:27:39,0.0
-12952,-2304,-4444,15945,-562,6185,2025-02-17 11:27:39,0.0
-13376,-1816,-3008,15887,585,6787,2025-02-17 11:27:39,0.0
-14368,-2264,-2312,16338,1073,7604,2025-02-17 11:27:39,0.0
-14664,-2204,-2188,16480,1046,8868,2025-02-17 11:27:39,0.0
-14120,-2144,-2000,17209,1508,9676,2025-02-17 11:27:39,0.0
-12876,-1964,-1140,18362,2314,9513,2025-02-17 11:27:39,0.0
-11824,-2128,-1308,19970,3419,8312,2025-02-17 11:27:39,0.0
-11768,-2012,-1324,21346,3079,6864,2025-02-17 11:27:39,0.0
-12352,-1596,-2400,22121,2599,5922,2025-02-17 11:27:39,0.0
-12852,-880,-2764,22460,1958,5157,2025-02-17 11:27:39,0.0
-13548,-472,-3040,22205,1041,4560,2025-02-17 11:27:39,0.0
-13716,-652,-2496,22220,-823,3918,2025-02-17 11:27:39,0.0
-13864,-836,-2316,22510,-2319,3476,2025-02-17 11:27:39,0.0
-10824,1056,-5100,21628,2497,3029,2025-02-17 11:27:39,0.0
-10096,880,-5112,21002,3173,2044,2025-02-17 11:27:39,0.0
-10676,180,-6212,20083,3450,1129,2025-02-17 11:27:39,0.0
-11360,-1280,-6224,18877,5129,567,2025-02-17 11:27:39,0.0
-12708,-2728,-6656,17642,8640,903,2025-02-17 11:27:39,0.0
-14704,-4164,-4896,16458,11487,3005,2025-02-17 11:27:39,0.0
-14088,-3948,-1652,16217,10574,4109,2025-02-17 11:27:39,0.0
-15600,-3668,-40,16864,7166,5513,2025-02-17 11:27:39,0.0
-14444,-4012,-284,17855,5270,7037,2025-02-17 11:27:39,0.0
-12068,-4316,-2852,18345,6825,5485,2025-02-17 11:27:39,0.0
-13788,-3128,-3648,18274,7386,2479,2025-02-17 11:27:40,0.0
-16220,-2728,-3892,17602,4416,1754,2025-02-17 11:27:40,0.0
-16708,-3016,-2380,17645,1138,2260,2025-02-17 11:27:40,0.0
-15256,-3224,-2104,17500,-871,2794,2025-02-17 11:27:40,0.0
-13156,-2752,-2408,17236,-1548,3134,2025-02-17 11:27:40,0.0
-11792,-2436,-2772,17024,-807,3428,2025-02-17 11:27:40,0.0
-11112,-2112,-2564,17057,470,3910,2025-02-17 11:27:40,0.0
-10952,-2092,-2192,17033,1394,4456,2025-02-17 11:27:40,0.0
-11220,-2488,-1256,17610,1987,4747,2025-02-17 11:27:40,0.0
-12412,-4332,-736,19066,2085,5544,2025-02-17 11:27:40,0.0
-14232,-5896,-1104,20463,1354,7064,2025-02-17 11:27:40,0.0
-14992,-6744,-1716,21467,955,9140,2025-02-17 11:27:40,0.0
-14944,-6888,-5600,20567,682,10957,2025-02-17 11:27:40,0.0
-13772,-4644,-7492,17905,65,12139,2025-02-17 11:27:40,0.0
-11500,-2504,-5636,16285,-1085,11371,2025-02-17 11:27:40,0.0
-10292,-2064,-2868,16341,-1050,9296,2025-02-17 11:27:40,0.0
-10872,-2656,-2732,16686,1024,6905,2025-02-17 11:27:40,0.0
-12956,-2424,-3912,16146,2759,6020,2025-02-17 11:27:40,0.0
-14172,-1692,-4364,14670,3052,6257,2025-02-17 11:27:40,0.0
-14044,-1132,-3856,13852,1835,6154,2025-02-17 11:27:40,0.0
-14172,-1000,-3236,13249,363,5689,2025-02-17 11:27:40,0.0
-13876,-828,-3156,13295,-644,5273,2025-02-17 11:27:40,0.0
-13312,-848,-3572,13532,-1051,4648,2025-02-17 11:27:40,0.0
-13156,-784,-3124,13330,-519,4138,2025-02-17 11:27:40,0.0
-13468,-1096,-2188,13589,492,4194,2025-02-17 11:27:40,0.0
-13348,-2168,-3344,13769,1193,4458,2025-02-17 11:27:40,0.0
-13872,-2268,-4768,13489,1977,4672,2025-02-17 11:27:40,0.0
-17000,-720,-6080,11890,4749,6419,2025-02-17 11:27:40,0.0
-16252,2392,-2632,11389,5254,8917,2025-02-17 11:27:40,0.0
-13088,4340,-1448,11588,328,8251,2025-02-17 11:27:40,0.0
-12616,4904,-2900,10248,-4700,6532,2025-02-17 11:27:40,0.0
-10836,3748,-2116,8436,-6405,4621,2025-02-17 11:27:40,0.0
-10084,1736,-2544,7397,-5341,2987,2025-02-17 11:27:40,0.0
-10012,-184,-1720,7356,-3255,1933,2025-02-17 11:27:40,0.0
-10488,-796,-864,9113,-821,1676,2025-02-17 11:27:40,0.0
-11076,1108,-2120,10261,2450,801,2025-02-17 11:27:40,0.0
-13180,2744,-2812,9068,3929,183,2025-02-17 11:27:40,0.0
-13940,2832,-1812,7434,3290,-298,2025-02-17 11:27:40,0.0
-14164,2048,-1604,6974,1247,-596,2025-02-17 11:27:40,0.0
-13952,940,-2028,7017,-387,-515,2025-02-17 11:27:40,0.0
-14232,728,-2372,6919,-357,99,2025-02-17 11:27:40,0.0
-13752,2072,-2644,6477,345,1163,2025-02-17 11:27:40,0.0
-13140,3120,-2928,5317,35,624,2025-02-17 11:27:40,0.0
-13348,3388,-2488,4232,-642,456,2025-02-17 11:27:40,0.0
-12952,3360,-2308,3472,-788,240,2025-02-17 11:27:40,0.0
-12836,2532,-2240,3172,-199,0,2025-02-17 11:27:40,0.0
-13568,2184,-3024,3172,821,205,2025-02-17 11:27:40,0.0
-13084,2184,-3192,2580,944,294,2025-02-17 11:27:40,0.0
-12876,2100,-2744,1775,503,-17,2025-02-17 11:27:40,0.0
-12116,2504,-2400,1413,-120,-310,2025-02-17 11:27:40,
-11552,2496,-2848,1083,368,-567,2025-02-17 11:27:40,0.0
-11424,2284,-3236,646,1921,-647,2025-02-17 11:27:40,0.0
-11864,1884,-3380,-65,4112,-629,2025-02-17 11:27:40,0.0
-12704,1528,-3056,-893,6010,-731,2025-02-17 11:27:40,0.0
-13616,1564,-1972,-1826,6532,-1062,2025-02-17 11:27:40,0.0
-14340,1472,-1996,-1905,5316,-1394,2025-02-17 11:27:40,0.0
-14400,1300,-2596,-1715,3302,-1460,2025-02-17 11:27:40,0.0
-14236,1172,-2836,-1148,1422,-1334,2025-02-17 11:27:40,0.0
-13996,1396,-3184,-665,315,-1079,2025-02-17 11:27:40,0.0
-13172,2020,-3460,-623,-462,-998,2025-02-17 11:27:40,0.0
-12956,2336,-4108,-1437,-940,-1020,2025-02-17 11:27:40,0.0
-13016,2212,-4340,-2400,-368,-946,2025-02-17 11:27:41,0.0
-12904,1780,-4376,-3446,170,-863,2025-02-17 11:27:41,0.0
-12496,1220,-3328,-3648,-264,-948,2025-02-17 11:27:41,0.0
-12228,476,-2780,-2432,-1623,-1360,2025-02-17 11:27:41,0.0
-12980,-420,-4068,-2071,-2237,-1238,2025-02-17 11:27:41,0.0
-12668,-780,-4008,-2208,-1228,-1411,2025-02-17 11:27:41,0.0
-13052,-324,-4764,-3308,1133,-1541,2025-02-17 11:27:41,0.0
-12696,-384,-4496,-4947,3123,-2301,2025-02-17 11:27:41,0.0
-13500,-988,-2732,-4935,3069,-3077,2025-02-17 11:27:41,0.0
-14032,-1696,-1024,-3536,258,-2612,2025-02-17 11:27:41,0.0
-13772,-1360,-2292,-3654,-1627,-2490,2025-02-17 11:27:41,0.0
-14600,-976,-248,-2631,-1407,-2926,2025-02-17 11:27:41,0.0
-12596,-1324,-692,-2374,-524,-2934,2025-02-17 11:27:41,0.0
-13688,-844,-1736,-2550,-223,-3853,2025-02-17 11:27:41,0.0
-14168,-544,-660,-3067,-439,-4000,2025-02-17 11:27:41,0.0
-13844,-924,-116,-2917,-1395,-3945,2025-02-17 11:27:41,0.0
-13384,-1440,-120,-2473,-2482,-4073,2025-02-17 11:27:41,0.0
-13000,-1600,-748,-2325,-2800,-3839,2025-02-17 11:27:41,0.0
-12628,-1484,-1636,-2723,-1655,-3568,2025-02-17 11:27:41,0.0
-11824,-1268,-2252,-3001,-258,-3312,2025-02-17 11:27:41,0.0
-11632,-980,-1640,-3295,596,-3422,2025-02-17 11:27:41,0.0
-12192,-804,-1412,-3604,1078,-3398,2025-02-17 11:27:41,0.0
-13232,-640,-56,-3817,1616,-2998,2025-02-17 11:27:41,0.0
-13856,-820,292,-3736,1009,-2243,2025-02-17 11:27:41,0.0
-13588,-1480,68,-3476,217,-1602,2025-02-17 11:27:41,0.0
-13176,-1492,652,-3158,-719,-1152,2025-02-17 11:27:41,0.0
-13052,-1772,248,-2434,-938,-834,2025-02-17 11:27:41,0.0
-12544,-1660,-728,-2082,-919,-614,2025-02-17 11:27:41,0.0
-12504,-1144,-836,-2177,-509,-562,2025-02-17 11:27:41,0.0
-12572,-752,-636,-2806,364,-665,2025-02-17 11:27:41,0.0
-12872,-1076,-532,-3403,1738,-781,2025-02-17 11:27:41,0.0
-13176,-1748,-872,-4091,3168,-1186,2025-02-17 11:27:41,0.0
-14260,-1464,-1536,-4763,4179,-1780,2025-02-17 11:27:41,0.0
-14896,-868,-2128,-6174,3994,-2789,2025-02-17 11:27:41,0.0
-15708,-664,-1228,-6849,3039,-3454,2025-02-17 11:27:41,0.0
-15940,-1168,240,-6636,1874,-3431,2025-02-17 11:27:41,0.0
-15856,-2148,1240,-6094,1310,-3294,2025-02-17 11:27:41,0.0
-15956,-3364,1052,-5508,1215,-2985,2025-02-17 11:27:41,0.0
-14716,-5392,-3020,-5735,2693,-4044,2025-02-17 11:27:41,0.0
-16376,-5144,-2720,-5017,4324,-5207,2025-02-17 11:27:41,0.0
-17724,-5132,-2472,-3011,6194,-5266,2025-02-17 11:27:41,0.0
-18476,-4880,-3756,-963,4955,-4680,2025-02-17 11:27:41,0.0
-19692,-5400,-5536,438,2332,-3593,2025-02-17 11:27:41,0.0
-18956,-7224,-7004,1143,-832,-1806,2025-02-17 11:27:41,0.0
-16400,-7620,-6504,1729,-4023,-347,2025-02-17 11:27:41,0.0
-13460,-6448,-6064,3176,-5752,909,2025-02-17 11:27:41,0.0
-11544,-3620,-6520,3954,-6213,2089,2025-02-17 11:27:41,0.0
-9776,-1908,-7000,3563,-5342,3061,2025-02-17 11:27:41,0.0
-9220,68,-6752,3061,-2801,3707,2025-02-17 11:27:41,0.0
-9904,92,-6184,2954,331,4426,2025-02-17 11:27:41,0.0
-10820,-676,-5732,3286,2402,4865,2025-02-17 11:27:41,0.0
-11580,-980,-5120,3585,2714,5270,2025-02-17 11:27:41,0.0
-12008,-1120,-4708,3749,2152,5421,2025-02-17 11:27:41,0.0
-12200,-1908,-4556,4251,2202,5390,2025-02-17 11:27:41,0.0
-12540,-2008,-4776,4822,2774,5319,2025-02-17 11:27:41,0.0
-12888,-972,-4780,4953,2589,5414,2025-02-17 11:27:41,0.0
-12812,-12,-4956,5082,1210,5457,2025-02-17 11:27:41,0.0
-12384,504,-5008,5091,-1147,5491,2025-02-17 11:27:41,0.0
-11728,712,-4776,5616,-3243,4947,2025-02-17 11:27:41,0.0
-10784,280,-4132,6196,-3648,4341,2025-02-17 11:27:41,0.0
-10188,480,-3152,6443,-3258,4002,2025-02-17 11:27:42,0.0
-9928,648,-3768,6432,-1989,3715,2025-02-17 11:27:42,0.0
-10708,796,-4032,5972,-1890,3787,2025-02-17 11:27:42,0.0
-10808,932,-2992,5473,-2020,3730,2025-02-17 11:27:42,0.0
-11536,1264,-2456,5143,-2227,3544,2025-02-17 11:27:42,0.0
-11800,1608,-2464,4704,-1688,3226,2025-02-17 11:27:42,0.0
-12204,1372,-2652,4395,-1646,2461,2025-02-17 11:27:42,0.0
-11956,748,-2556,3989,-1695,1838,2025-02-17 11:27:42,0.0
-12260,-16,-1848,3576,-1616,1354,2025-02-17 11:27:42,0.0
-11924,-476,-764,2613,-1498,923,2025-02-17 11:27:42,0.0
-11860,-72,344,1947,-1750,568,2025-02-17 11:27:42,0.0
-11892,1048,144,1561,-2042,352,2025-02-17 11:27:42,0.0
-12644,2076,128,1286,-2143,287,2025-02-17 11:27:42,0.0
-13312,3028,64,1157,-2365,71,2025-02-17 11:27:42,0.0
-13848,3536,-796,1106,-3687,-263,2025-02-17 11:27:42,0.0
-13904,3152,-1132,1036,-6007,-797,2025-02-17 11:27:42,0.0
-13216,1048,-728,1783,-6565,-1253,2025-02-17 11:27:42,0.0
-13168,-380,-584,2102,-5312,-1002,2025-02-17 11:27:42,0.0
-13368,-912,-892,1959,-3486,-405,2025-02-17 11:27:42,0.0
-14164,-1576,40,2013,-1409,179,2025-02-17 11:27:42,0.0
-15652,-2084,1316,2671,1273,1092,2025-02-17 11:27:42,0.0
-15732,-1696,2548,3724,2605,1895,2025-02-17 11:27:42,0.0
-15424,-644,648,4428,1642,2445,2025-02-17 11:27:42,0.0
-14416,180,-1012,4658,-225,2448,2025-02-17 11:27:42,0.0
-15264,1684,-2212,4820,960,1726,2025-02-17 11:27:42,0.0
-16544,3032,-5476,4009,4512,1532,2025-02-17 11:27:42,0.0
-17892,5352,-6196,1977,8173,1311,2025-02-17 11:27:42,0.0
-18844,5560,-6640,508,8412,731,2025-02-17 11:27:42,0.0
-19632,4724,-7256,-374,6386,521,2025-02-17 11:27:42,
-18712,3216,-8004,-789,2976,816,2025-02-17 11:27:42,0.0
-15448,1600,-6568,-1148,-1848,962,2025-02-17 11:27:42,0.0
-12600,-124,-4036,-728,-5935,946,2025-02-17 11:27:42,0.0
-9704,-1760,-1812,854,-8254,1125,2025-02-17 11:27:42,0.0
-7232,-2748,-2216,2148,-8627,655,2025-02-17 11:27:42,0.0
-7324,-3320,-2596,2505,-6242,-684,2025-02-17 11:27:42,0.0
-8284,-2396,-4144,1450,-3666,-1702,2025-02-17 11:27:42,0.0
-9696,-724,-6180,-93,-236,-2271,2025-02-17 11:27:42,0.0
-11812,1312,-5516,-1592,4484,-2185,2025-02-17 11:27:42,0.0
-12424,876,-4032,-2417,7200,-2438,2025-02-17 11:27:42,0.0
-14036,-320,-3028,-2160,5237,-2835,2025-02-17 11:27:42,0.0
-14356,-536,-2948,-1579,1815,-2853,2025-02-17 11:27:42,0.0
-14332,-400,-3428,-1591,-528,-2708,2025-02-17 11:27:42,0.0
-13304,-808,-3184,-1984,-1770,-2488,2025-02-17 11:27:42,0.0
-12336,-1060,-3144,-2081,-1889,-2337,2025-02-17 11:27:42,0.0
-11356,-1984,-2180,-2014,-1927,-2098,2025-02-17 11:27:42,0.0
-11100,-2132,-1872,-1639,-1509,-1606,2025-02-17 11:27:42,0.0
-11020,-2212,-1824,-1498,-466,-1165,2025-02-17 11:27:42,0.0
-11244,-1380,-2052,-1578,284,-859,2025-02-17 11:27:42,0.0
-11628,-312,-2476,-2269,1228,-801,2025-02-17 11:27:42,0.0
-11916,532,-2660,-3428,2798,-966,2025-02-17 11:27:42,0.0
-12536,508,-1620,-4340,4106,-1136,2025-02-17 11:27:42,0.0
-13112,48,-860,-4570,4490,-1436,2025-02-17 11:27:42,0.0
-13836,-184,-168,-4435,3664,-1632,2025-02-17 11:27:42,0.0
-14424,-604,572,-4081,1174,-1467,2025-02-17 11:27:42,0.0
-15188,-1076,684,-3919,-119,-841,2025-02-17 11:27:42,0.0
-15056,-472,84,-4088,-1171,-320,2025-02-17 11:27:42,0.0
-15232,-396,-516,-4327,-2382,-231,2025-02-17 11:27:42,0.0
-14884,-504,-1116,-4746,-3041,-244,2025-02-17 11:27:42,0.0
-13872,-1064,80,-4998,-2993,-712,2025-02-17 11:27:42,0.0
-12572,-1252,-652,-5253,-2577,-1522,2025-02-17 11:27:42,0.0
-13064,-808,-192,-6284,-2693,-1585,2025-02-17 11:27:42,0.0
-12904,-480,-1500,-6582,-2479,-2024,2025-02-17 11:27:43,0.0
-13376,-148,-4224,-6255,-1793,-3055,2025-02-17 11:27:43,0.0
-14008,556,-5844,-6482,-2027,-4567,2025-02-17 11:27:43,0.0
-14028,-32,-5340,-7431,-3468,-6389,2025-02-17 11:27:43,0.0
-13312,-1296,-3472,-7323,-5689,-7250,2025-02-17 11:27:43,0.0
-13536,-2672,-3652,-7269,-6248,-7632,2025-02-17 11:27:43,0.0
-14456,-3416,-5824,-7233,-4353,-8006,2025-02-17 11:27:43,0.0
-16548,-2120,-6904,-7788,-284,-6826,2025-02-17 11:27:43,0.0
-16016,-816,-5464,-8650,3252,-5520,2025-02-17 11:27:43,0.0
-16324,-120,-5072,-9037,3794,-4106,2025-02-17 11:27:43,0.0
-16448,352,-3824,-9762,2156,-2888,2025-02-17 11:27:43,0.0
-16964,776,-3020,-10063,72,-2299,2025-02-17 11:27:43,0.0
-16764,2176,-4192,-9874,-2469,-1078,2025-02-17 11:27:43,0.0
-13948,2880,-5752,-9884,-4078,-549,2025-02-17 11:27:43,0.0
-12076,2920,-6692,-10093,-4133,-886,2025-02-17 11:27:43,0.0
-11016,2264,-6316,-10547,-3424,-1202,2025-02-17 11:27:43,0.0
-9748,1560,-5160,-11414,-2081,-1817,2025-02-17 11:27:43,0.0
-9816,1352,-3952,-12451,-885,-2666,2025-02-17 11:27:43,0.0
-10916,1276,-3572,-13354,-123,-3493,2025-02-17 11:27:43,0.0
-12036,932,-4148,-14182,44,-3494,2025-02-17 11:27:43,0.0
-12904,212,-4228,-15104,-201,-3180,2025-02-17 11:27:43,0.0
-12376,-616,-3632,-15321,-745,-2661,2025-02-17 11:27:43,0.0
-11852,-656,-3180,-15234,-1318,-3175,2025-02-17 11:27:43,0.0
-12516,-640,-3612,-16381,-1175,-3105,2025-02-17 11:27:43,0.0
-12064,-592,-3544,-17384,-1156,-3226,2025-02-17 11:27:43,0.0
-12284,-168,-4272,-18424,-918,-3756,2025-02-17 11:27:43,0.0
-12860,352,-5468,-19609,-144,-4012,2025-02-17 11:27:43,0.0
-13636,116,-6728,-21160,943,-4196,2025-02-17 11:27:43,0.0
-14344,-616,-5668,-22540,1490,-4082,2025-02-17 11:27:43,0.0
-14064,-1236,-4724,-22646,360,-3987,2025-02-17 11:27:43,0.0
-14400,-1856,-3820,-22037,-1197,-3482,2025-02-17 11:27:43,0.0
-13832,-1556,-2776,-20840,-1778,-2807,2025-02-17 11:27:43,0.0
-13052,-500,-3508,-19878,-1737,-2682,2025-02-17 11:27:43,0.0
-12824,440,-4780,-19772,-1263,-2805,2025-02-17 11:27:43,5
-12840,272,-5008,-19874,-1219,-3070,2025-02-17 11:27:43,5
-13048,-572,-4440,-19599,-1229,-3205,2025-02-17 11:27:43,5
-12876,-1820,-3452,-18965,-1876,-3561,2025-02-17 11:27:43,5
-12696,-2676,-2384,-18236,-3284,-3966,2025-02-17 11:27:43,5
-12668,-3356,-1060,-17650,-4248,-4192,2025-02-17 11:27:43,5
-12784,-3044,-456,-16210,-4726,-4175,2025-02-17 11:27:43,5
-12836,-3000,1072,-13890,-5009,-3457,2025-02-17 11:27:43,5
-11604,-2472,1816,-11008,-4914,-3743,2025-02-17 11:27:43,5
-10864,-2740,2776,-7862,-3712,-5618,2025-02-17 11:27:43,5
-11884,-3176,-2256,-7648,399,-6238,2025-02-17 11:27:43,5
-14120,-3836,-3280,-9217,6106,-4472,2025-02-17 11:27:43,5
-13644,-3732,-1548,-11648,15195,-2641,2025-02-17 11:27:43,5
-11384,-3484,2652,-11574,23613,-2457,2025-02-17 11:27:43,5
-10928,-2600,5992,-8246,30272,-3110,2025-02-17 11:27:43,5
-13548,-1304,6032,-4874,32767,-3336,2025-02-17 11:27:43,5
-14512,-1036,3948,-1923,32767,-2557,2025-02-17 11:27:43,5
-13264,-1468,3324,2119,32767,-1884,2025-02-17 11:27:43,5
-11084,-1876,1580,5546,32767,-1976,2025-02-17 11:27:43,5
-6972,-2100,80,9377,32767,-2857,2025-02-17 11:27:43,5
-2348,-2440,-904,12782,31854,-4660,2025-02-17 11:27:43,5
1660,-3300,-2268,14722,20070,-7587,2025-02-17 11:27:43,5
4248,-2796,-2836,11621,8172,-9204,2025-02-17 11:27:43,5
4636,-1744,-1228,9904,-1895,-8790,2025-02-17 11:27:43,5
4024,-896,1244,8706,-7146,-9326,2025-02-17 11:27:43,5
3304,-920,860,7510,-10961,-10227,2025-02-17 11:27:43,5
2568,-876,1028,6663,-11711,-10507,2025-02-17 11:27:43,5
2396,-720,1220,6006,-11785,-10771,2025-02-17 11:27:43,5
2572,-772,904,5502,-11332,-10903,2025-02-17 11:27:43,5
2132,-592,1408,5094,-10640,-11067,2025-02-17 11:27:43,5
2148,-592,1456,4733,-9905,-11049,2025-02-17 11:27:44,5
2120,-608,1400,4318,-9206,-10966,2025-02-17 11:27:44,5
2412,-772,1328,3659,-8913,-10922,2025-02-17 11:27:44,5
2444,-688,1308,3159,-8990,-10902,2025-02-17 11:27:44,5
2540,-708,1476,2750,-9239,-10919,2025-02-17 11:27:44,5
2404,-820,1348,2298,-9674,-10945,2025-02-17 11:27:44,5
2808,-832,1284,1787,-10483,-11027,2025-02-17 11:27:44,5
2984,-856,1268,1100,-11807,-11363,2025-02-17 11:27:44,5
3220,-824,1028,180,-13822,-11796,2025-02-17 11:27:44,5
3504,-976,596,-1114,-16651,-12444,2025-02-17 11:27:44,5
3372,-1076,432,-2598,-19385,-13009,2025-02-17 11:27:44,5
2920,-1132,680,-4102,-21730,-13248,2025-02-17 11:27:44,5
-728,-3108,-8216,-8136,-23122,-11340,2025-02-17 11:27:44,5
-8984,-16220,-32768,-32768,-29313,-4907,2025-02-17 11:27:44,5
-32768,-32768,-32768,-32768,32767,32767,2025-02-17 11:27:44,5
-32768,-32768,-6788,-32768,32767,20616,2025-02-17 11:27:44,5
12936,2596,-8932,9091,5266,-9221,2025-02-17 11:27:44,5
7780,-2076,-4444,8338,466,-13100,2025-02-17 11:27:44,5
6108,-1996,256,6668,-1947,-16213,2025-02-17 11:27:44,5
4204,-2172,1564,6893,-2783,-17476,2025-02-17 11:27:44,5
2404,-1932,1444,7078,-3444,-17314,2025-02-17 11:27:44,5
984,-2052,680,6434,-3817,-16076,2025-02-17 11:27:44,5
-3588,-2784,-1040,4445,-2392,-12690,2025-02-17 11:27:44,5
-11272,-8020,-6908,-784,1894,-2734,2025-02-17 11:27:44,5
-12988,-16500,-10996,-9494,-487,9313,2025-02-17 11:27:44,5
-7560,-25392,-11212,-16906,-6470,17579,2025-02-17 11:27:44,5
-3648,-25100,-11444,-18340,-4780,14970,2025-02-17 11:27:44,5
-15396,-9916,-12236,-11925,8310,9122,2025-02-17 11:27:44,5
-7452,68,-11732,-2341,11692,2732,2025-02-17 11:27:44,5
-3044,-2036,-12620,2281,4305,-3459,2025-02-17 11:27:44,5
-2728,-9612,-10088,3903,-1490,-4329,2025-02-17 11:27:44,5
-5812,-11492,-11000,2784,-2342,-2400,2025-02-17 11:27:44,5
-5112,-10040,-9068,463,-928,69,2025-02-17 11:27:44,5
-5740,-8232,-9396,-1122,91,589,2025-02-17 11:27:44,5
-5808,-8372,-10344,-942,902,237,2025-02-17 11:27:44,5
-5428,-8380,-11060,-270,705,-233,2025-02-17 11:27:44,5
-5264,-8692,-10648,209,-181,-372,2025-02-17 11:27:44,5
-5504,-8904,-10104,-28,-28,-234,2025-02-17 11:27:44,5
-5452,-8556,-10144,-288,368,-116,2025-02-17 11:27:44,5
-5428,-8600,-10488,-171,206,-202,2025-02-17 11:27:44,5
-5468,-8692,-10368,-100,103,-217,2025-02-17 11:27:44,5
-5364,-8636,-10220,-167,146,-165,2025-02-17 11:27:44,5
-5400,-8536,-10344,-177,221,-174,2025-02-17 11:27:44,5
-5404,-8644,-10428,-145,167,-213,2025-02-17 11:27:44,5
-5420,-8544,-10324,-130,126,-193,2025-02-17 11:27:44,5
-5408,-8596,-10184,-177,202,-173,2025-02-17 11:27:44,5
-5436,-8712,-10328,-180,169,-177,2025-02-17 11:27:44,5
-5460,-8612,-10188,-142,145,-191,2025-02-17 11:27:44,5
-5408,-8664,-10292,-142,196,-172,2025-02-17 11:27:44,5
-5428,-8760,-10220,-120,179,-190,2025-02-17 11:27:44,5
-5460,-8672,-10236,-136,143,-168,2025-02-17 11:27:44,5
-5392,-8608,-10284,-163,178,-188,2025-02-17 11:27:44,5
-5516,-8772,-10360,-151,190,-153,2025-02-17 11:27:44,5
-5464,-8636,-10456,-133,141,-170,2025-02-17 11:27:44,5
-5400,-8668,-10220,-146,162,-181,2025-02-17 11:27:44,5
-5408,-8644,-10320,-155,186,-175,2025-02-17 11:27:44,5
-5400,-8620,-10404,-121,170,-176,2025-02-17 11:27:44,5
-5380,-8620,-10500,-135,186,-183,2025-02-17 11:27:44,5
-5372,-8572,-10500,-147,172,-202,2025-02-17 11:27:44,5
-5384,-8660,-10324,-146,182,-192,2025-02-17 11:27:45,5
-5400,-8640,-10380,-160,162,-180,2025-02-17 11:27:45,5
-5396,-8660,-10228,-128,206,-169,2025-02-17 11:27:45,5
-5392,-8648,-10380,-163,170,-169,2025-02-17 11:27:45,5
-5332,-8532,-10396,-178,161,-177,2025-02-17 11:27:45,5
-5376,-8588,-10392,-157,160,-168,2025-02-17 11:27:45,5
-5484,-8652,-10248,-147,180,-165,2025-02-17 11:27:45,5
-5408,-8700,-10252,-151,181,-162,2025-02-17 11:27:45,5
-5420,-8664,-10220,-129,189,-194,2025-02-17 11:27:45,5
-5384,-8680,-10252,-158,182,-166,2025-02-17 11:27:45,5
-5328,-8708,-10324,-172,172,-174,2025-02-17 11:27:45,5
-5444,-8584,-10380,-157,182,-181,2025-02-17 11:27:45,5
-5448,-8652,-10200,-161,135,-166,2025-02-17 11:27:45,5
-5444,-8548,-10296,-155,153,-167,2025-02-17 11:27:45,5
-5372,-8696,-10272,-164,189,-191,2025-02-17 11:27:45,5
-5412,-8680,-10220,-124,169,-176,2025-02-17 11:27:45,5
-5384,-8564,-10440,-155,155,-164,2025-02-17 11:27:45,5
-5336,-8692,-10372,-122,173,-158,2025-02-17 11:27:45,5
-5328,-8632,-10248,-149,162,-177,2025-02-17 11:27:45,5
-5312,-8616,-10284,-169,165,-162,2025-02-17 11:27:45,5
-5440,-8644,-10228,-157,175,-157,2025-02-17 11:27:45,5
-5356,-8708,-10232,-135,155,-162,2025-02-17 11:27:45,5
-5412,-8644,-10304,-137,159,-177,2025-02-17 11:27:45,5
-5336,-8580,-10240,-162,174,-198,2025-02-17 11:27:45,5
-5416,-8728,-10260,-165,165,-184,2025-02-17 11:27:45,5
-5384,-8632,-10284,-162,164,-180,2025-02-17 11:27:45,5
-5548,-8608,-10232,-152,172,-164,2025-02-17 11:27:45,5
-5384,-8680,-10364,-148,155,-179,2025-02-17 11:27:45,5
-5404,-8640,-10248,-157,140,-190,2025-02-17 11:27:45,5
-5276,-8636,-10356,-177,184,-180,2025-02-17 11:27:45,5
-5420,-8672,-10364,-159,178,-193,2025-02-17 11:27:45,5
-5328,-8660,-10332,-167,167,-176,2025-02-17 11:27:45,5
-5424,-8664,-10104,-140,150,-186,2025-02-17 11:27:45,0.0
-5448,-8556,-10216,-142,161,-181,2025-02-17 11:27:45,0.0
-5388,-8668,-10300,-150,168,-181,2025-02-17 11:27:45,0.0
-5356,-8704,-10248,-145,186,-194,2025-02-17 11:27:45,0.0
-5316,-8572,-10204,-160,174,-171,2025-02-17 11:27:45,0.0
-5312,-8652,-10252,-137,179,-171,2025-02-17 11:27:45,0.0
-5304,-8624,-10188,-120,168,-179,2025-02-17 11:27:45,0.0
-5400,-8616,-10240,-159,210,-196,2025-02-17 11:27:45,0.0
-5344,-8656,-10224,-165,156,-182,2025-02-17 11:27:45,0.0
-5408,-8592,-10260,-157,164,-191,2025-02-17 11:27:45,0.0
-5348,-8656,-10256,-180,185,-167,2025-02-17 11:27:45,0.0
-5380,-8760,-10336,-158,185,-184,2025-02-17 11:27:45,0.0
-5404,-8672,-10300,-147,157,-177,2025-02-17 11:27:45,0.0
-5432,-8568,-10360,-161,180,-175,2025-02-17 11:27:45,
-5380,-8608,-10276,-132,166,-186,2025-02-17 11:27:45,0.0
-5376,-8672,-10284,-163,148,-160,2025-02-17 11:27:45,0.0
-5484,-8584,-10308,-120,160,-158,2025-02-17 11:27:45,0.0
-5496,-8668,-10304,-161,176,-183,2025-02-17 11:27:45,0.0
-5364,-8696,-10312,-139,176,-177,2025-02-17 11:27:45,0.0
-5444,-8664,-10420,-145,163,-180,2025-02-17 11:27:45,0.0
-5340,-8604,-10340,-160,180,-185,2025-02-17 11:27:45,0.0
-5336,-8668,-10216,-173,186,-167,2025-02-17 11:27:45,0.0
-5372,-8612,-10300,-161,155,-194,2025-02-17 11:27:45,0.0
-5488,-8628,-10260,-141,157,-179,2025-02-17 11:27:45,0.0
-5376,-8648,-10304,-152,186,-163,2025-02-17 11:27:45,0.0
-5416,-8660,-10248,-155,174,-209,2025-02-17 11:27:45,0.0
-5420,-8724,-10276,-167,183,-178,2025-02-17 11:27:45,0.0
-5424,-8656,-10452,-149,159,-172,2025-02-17 11:27:45,0.0
-5436,-8724,-10324,-161,182,-187,2025-02-17 11:27:45,0.0
-5396,-8624,-10276,-154,179,-183,2025-02-17 11:27:45,0.0
-5388,-8672,-10392,-142,172,-200,2025-02-17 11:27:46,0.0
-5376,-8656,-10176,-152,172,-173,2025-02-17 11:27:46,0.0
-5416,-8684,-10280,-147,163,-202,2025-02-17 11:27:46,0.0
-5392,-8628,-10240,-146,155,-170,2025-02-17 11:27:46,0.0
-5316,-8716,-10340,-178,183,-194,2025-02-17 11:27:46,0.0
-5392,-8724,-10424,-160,175,-170,2025-02-17 11:27:46,0.0
-5408,-8528,-10432,-152,156,-184,2025-02-17 11:27:46,0.0
-5508,-8752,-10228,-133,181,-159,2025-02-17 11:27:46,0.0
-5308,-8676,-10372,-159,149,-162,2025-02-17 11:27:46,0.0
-5372,-8736,-10228,-166,172,-166,2025-02-17 11:27:46,0.0
-5384,-8560,-10368,-142,178,-188,2025-02-17 11:27:46,0.0
-5460,-8704,-10336,-148,190,-190,2025-02-17 11:27:46,0.0
-5408,-8712,-10240,-150,183,-187,2025-02-17 11:27:46,0.0
-5220,-8696,-10368,-137,195,-173,2025-02-17 11:27:46,0.0
-5400,-8680,-10344,-131,178,-173,2025-02-17 11:27:46,0.0
-5328,-8684,-10276,-155,145,-170,2025-02-17 11:27:46,0.0
-5356,-8612,-10440,-181,153,-162,2025-02-17 11:27:46,0.0
-5448,-8640,-10344,-132,157,-190,2025-02-17 11:27:46,0.0
-5464,-8648,-10252,-150,173,-168,2025-02-17 11:27:46,0.0
-5376,-8608,-10260,-140,175,-180,2025-02-17 11:27:46,0.0
-5364,-8660,-10312,-134,175,-178,2025-02-17 11:27:46,0.0
-5404,-8696,-10344,-181,156,-170,2025-02-17 11:27:46,0.0
-5316,-8664,-10312,-146,167,-181,2025-02-17 11:27:46,0.0
-5408,-8620,-10328,-128,175,-166,2025-02-17 11:27:46,0.0
-5396,-8600,-10312,-173,158,-179,2025-02-17 11:27:46,0.0
-5344,-8640,-10304,-157,175,-189,2025-02-17 11:27:46,0.0
-5408,-8612,-10244,-166,163,-199,2025-02-17 11:27:46,0.0
-5404,-8692,-10360,-160,164,-172,2025-02-17 11:27:46,0.0
-5428,-8608,-10372,-176,159,-167,2025-02-17 11:27:46,0.0
-5420,-8592,-10292,-149,169,-184,2025-02-17 11:27:46,0.0
-5388,-8692,-10368,-135,185,-164,2025-02-17 11:27:46,0.0
-5380,-8696,-10220,-150,152,-172,2025-02-17 11:27:46,0.0
-5392,-8652,-10232,-145,158,-185,2025-02-17 11:27:46,0.0
-5428,-8628,-10372,-133,198,-167,2025-02-17 11:27:46,0.0
-5444,-8632,-10100,-171,161,-189,2025-02-17 11:27:46,0.0
-5484,-8780,-10552,-204,194,-222,2025-02-17 11:27:46,0.0
-5100,-8524,-10328,-117,104,-153,2025-02-17 11:27:46,0.0
-5448,-8696,-10340,-193,188,-204,2025-02-17 11:27:46,0.0
-5272,-8568,-10368,-165,292,-157,2025-02-17 11:27:46,0.0
-5364,-8564,-10336,-126,302,-232,2025-02-17 11:27:46,0.0
-5480,-8592,-10144,-124,431,-283,2025-02-17 11:27:46,0.0
-4928,-8536,-10308,93,170,-409,2025-02-17 11:27:46,0.0
-6172,-8844,-10520,-278,-130,-134,2025-02-17 11:27:46,0.0
-4408,-9132,-10816,-672,-381,-153,2025-02-17 11:27:46,0.0
-3216,-8684,-10328,-759,-1695,-99,2025-02-17 11:27:46,0.0
-5984,-8264,-10272,-940,-3795,-143,2025-02-17 11:27:46,0.0
-8016,-9284,-11152,-514,-1530,700,2025-02-17 11:27:46,0.0
-7260,-8832,-9548,-314,862,-162,2025-02-17 11:27:46,0.0
-5100,-7708,-9560,85,1792,-721,2025-02-17 11:27:46,0.0
-5388,-8008,-10788,514,1962,-521,2025-02-17 11:27:46,0.0
-7928,-8424,-10252,722,841,-369,2025-02-17 11:27:46,0.0
-3788,-8952,-10964,-843,1519,-418,2025-02-17 11:27:46,0.0
-4524,-8724,-8464,3,1450,-672,2025-02-17 11:27:46,0.0
-5672,-9216,-11632,-422,374,-183,2025-02-17 11:27:46,0.0
-6040,-9420,-10824,-633,162,307,2025-02-17 11:27:46,0.0
-5848,-8256,-10920,-681,-110,23,2025-02-17 11:27:46,0.0
928,-9284,-8180,-84,-3897,-2142,2025-02-17 11:27:46,0.0
-14624,-10056,-10652,-800,580,2545,2025-02-17 11:27:46,0.0
-5020,-8288,-8332,-1022,3938,973,2025-02-17 11:27:46,0.0
-4152,-5744,-10224,-625,3152,214,2025-02-17 11:27:46,0.0
-5152,-9440,-12204,16,-1110,80,2025-02-17 11:27:46,0.0
-6816,-11316,-11072,170,-1659,1245,2025-02-17 11:27:46,0.0
-6984,-11428,-10868,1864,-1283,2363,2025-02-17 11:27:47,0.0
-3332,-11492,-11032,3011,-2509,2583,2025-02-17 11:27:47,0.0
-3304,-11636,-10988,5500,-6290,807,2025-02-17 11:27:47,0.0
-5740,-12388,-15660,5792,-8786,-1113,2025-02-17 11:27:47,0.0
-12384,-15172,-17848,3993,-3727,220,2025-02-17 11:27:47,0.0
-15396,-17240,-19956,1957,5211,4222,2025-02-17 11:27:47,0.0
-14544,-19328,-21828,310,16016,10306,2025-02-17 11:27:47,0.0
-4896,-17300,-20756,-2226,21984,12570,2025-02-17 11:27:47,0.0
1384,-13344,-14852,-2438,22571,10137,2025-02-17 11:27:47,0.0
676,-10040,-15332,-3081,20991,7518,2025-02-17 11:27:47,0.0
-3276,-7732,-13080,-2526,21493,7632,2025-02-17 11:27:47,0.0
-4764,-7092,-14996,-654,22025,9201,2025-02-17 11:27:47,0.0
-3068,-7452,-19224,-2752,19164,10074,2025-02-17 11:27:47,0.0
-2124,-6812,-21360,-5638,14205,9511,2025-02-17 11:27:47,0.0
-1904,-5440,-21792,-8329,7723,8382,2025-02-17 11:27:47,0.0
-888,-4868,-19620,-9358,1652,6452,2025-02-17 11:27:47,0.0
236,-5052,-17692,-7960,-4497,3624,2025-02-17 11:27:47,0.0
-2516,-5200,-18036,-7572,-8095,1026,2025-02-17 11:27:47,0.0
-5572,-5600,-16376,-6720,-8528,988,2025-02-17 11:27:47,0.0
-6852,-5956,-14848,-4049,-6648,1871,2025-02-17 11:27:47,0.0
-8384,-5916,-16448,-2943,-3500,2461,2025-02-17 11:27:47,0.0
-8792,-6164,-16612,-3348,847,3616,2025-02-17 11:27:47,
-7316,-7276,-17216,-3112,5210,2419,2025-02-17 11:27:47,0.0
-6352,-7916,-19972,-5258,7213,254,2025-02-17 11:27:47,0.0
-6980,-7772,-21292,-9142,6661,-869,2025-02-17 11:27:47,0.0
-8516,-6556,-19216,-11931,3770,342,2025-02-17 11:27:47,0.0
-10176,-4580,-17420,-11465,1251,3573,2025-02-17 11:27:47,0.0
-9164,-3004,-16648,-10764,360,6277,2025-02-17 11:27:47,0.0
-6616,-2564,-14768,-11335,1064,5577,2025-02-17 11:27:47,0.0
-4408,-2856,-11880,-11223,1187,2097,2025-02-17 11:27:47,0.0
-5008,-3544,-8684,-8554,-1584,215,2025-02-17 11:27:47,0.0
-5524,-2272,-8968,-7044,-9033,4662,2025-02-17 11:27:47,0.0
-1704,-2876,-9576,-8057,-19255,10314,2025-02-17 11:27:47,0.0
960,-3436,-9228,-8138,-26374,8622,2025-02-17 11:27:47,0.0
-2816,-2024,-8368,-6637,-29009,5047,2025-02-17 11:27:47,0.0
-10452,820,-7864,-4096,-27438,6113,2025-02-17 11:27:47,0.0
-12488,2784,-6912,-422,-21951,10688,2025-02-17 11:27:47,0.0
-7720,3708,-7536,2687,-16081,11754,2025-02-17 11:27:47,0.0
-3448,4304,-8964,2402,-13402,9597,2025-02-17 11:27:47,0.0
-2956,3256,-9640,378,-12735,7698,2025-02-17 11:27:47,0.0
-3276,1900,-7048,59,-12446,6024,2025-02-17 11:27:47,0.0
-4688,440,-5564,1176,-10741,5083,2025-02-17 11:27:47,0.0
-4368,-976,-4212,1740,-8237,4260,2025-02-17 11:27:47,0.0
-3236,-924,-4352,767,-5261,2563,2025-02-17 11:27:47,0.0
-2536,-52,-3932,-1537,-2609,464,2025-02-17 11:27:47,0.0
-3972,696,-1984,-2654,307,-1491,2025-02-17 11:27:47,0.0
-5384,516,-316,-1078,2653,-1922,2025-02-17 11:27:47,0.0
-6560,-296,-780,1442,5257,-1791,2025-02-17 11:27:47,0.0
-7168,-876,-2976,2260,7734,-1628,2025-02-17 11:27:47,0.0
-5908,-852,-5056,594,8695,-2006,2025-02-17 11:27:47,0.0
-5212,-464,-5584,-1220,7228,-2671,2025-02-17 11:27:47,0.0
-4656,-196,-5556,-2002,4039,-3253,2025-02-17 11:27:47,0.0
-3884,-1136,-6212,-1738,-500,-5342,2025-02-17 11:27:47,0.0
-5148,-1660,-7644,-1685,-5305,-7440,2025-02-17 11:27:47,0.0
-7052,-1504,-8232,-2686,-10533,-7847,2025-02-17 11:27:47,0.0
-8568,-856,-7592,-4062,-15619,-6614,2025-02-17 11:27:47,0.0
-8264,-300,-6332,-5125,-20708,-4887,2025-02-17 11:27:47,0.0
-6948,-148,-5344,-6057,-26616,-4237,2025-02-17 11:27:47,0.0
-7548,-264,-4648,-6665,-32010,-4803,2025-02-17 11:27:47,0.0
-9968,-1436,-3084,-7748,-32768,-5542,2025-02-17 11:27:47,0.0
-11368,-1460,-2784,-7087,-32768,-4947,2025-02-17 11:27:47,0.0
-15192,-304,-1900,-6207,-32768,-3856,2025-02-17 11:27:48,0.0
-13748,984,-3576,-5994,-31147,-627,2025-02-17 11:27:48,0.0
-11696,1376,-5036,-7207,-25525,762,2025-02-17 11:27:48,0.0
-10444,276,-3920,-9885,-21370,-614,2025-02-17 11:27:48,0.0
-10408,-1348,276,-11280,-22179,-1475,2025-02-17 11:27:48,0.0
-17016,-3352,14852,-10366,-9655,-909,2025-02-17 11:27:48,0.0
-11144,180,4900,-7073,2633,952,2025-02-17 11:27:48,0.0
-10636,432,-3264,-6326,6089,979,2025-02-17 11:27:48,0.0
-9848,-1104,-4100,-9151,4466,-157,2025-02-17 11:27:48,0.0
-10928,-536,1480,-9681,6128,-1922,2025-02-17 11:27:48,0.0
-11156,-124,1248,-7911,7913,-4119,2025-02-17 11:27:48,0.0
-13604,620,-2608,-9355,7940,-4848,2025-02-17 11:27:48,0.0
-15176,988,-2808,-12003,7671,-4158,2025-02-17 11:27:48,0.0
-15796,148,-1008,-13648,6613,-3004,2025-02-17 11:27:48,0.0
-15712,-944,-596,-13440,4131,-1801,2025-02-17 11:27:48,0.0
-15072,-1112,-1264,-13517,-804,-676,2025-02-17 11:27:48,0.0
-14228,-356,-2712,-14054,-5313,631,2025-02-17 11:27:48,0.0
-14072,-456,-2216,-14979,-3229,811,2025-02-17 11:27:48,0.0
-10580,32,-1192,-15356,1082,-1051,2025-02-17 11:27:48,0.0
-12412,456,-1716,-15145,1786,-2577,2025-02-17 11:27:48,0.0
-13684,180,-2192,-16152,2487,-2003,2025-02-17 11:27:48,0.0
-13484,-256,-2020,-16616,2168,-2064,2025-02-17 11:27:48,0.0
-14024,-716,-2736,-17266,1237,-1908,2025-02-17 11:27:48,0.0
-14164,-1136,-2336,-17717,542,-1586,2025-02-17 11:27:48,0.0
-13752,-1640,-2036,-17550,349,-1418,2025-02-17 11:27:48,0.0
-13228,-1968,-2096,-17523,143,-1573,2025-02-17 11:27:48,0.0
-12228,-1732,-2788,-18148,117,-2208,2025-02-17 11:27:48,0.0
-12060,-1260,-2652,-18876,1054,-2743,2025-02-17 11:27:48,0.0
-13532,-720,-360,-18787,2848,-2502,2025-02-17 11:27:48,0.0
-14500,-720,816,-16985,4939,-1312,2025-02-17 11:27:48,0.0
-14028,-708,-352,-15740,6074,-745,2025-02-17 11:27:48,0.0
-14176,-132,-1304,-15631,5092,-1638,2025-02-17 11:27:48,0.0
-14708,-272,-2044,-16108,210,-2187,2025-02-17 11:27:48,0.0
-14884,-920,-1580,-16499,-3573,-1533,2025-02-17 11:27:48,0.0
-13760,-1336,-368,-16301,-5736,-942,2025-02-17 11:27:48,0.0
-12772,-1500,152,-15710,-6116,-596,2025-02-17 11:27:48,0.0
-12488,-1220,-568,-15278,-3636,-679,2025-02-17 11:27:48,0.0
-13192,-1036,-724,-15472,564,-930,2025-02-17 11:27:48,0.0
-12904,-1044,-512,-15381,3403,-1404,2025-02-17 11:27:48,0.0
-13624,-1308,-716,-15040,4177,-1906,2025-02-17 11:27:48,0.0
-14008,-1580,-968,-14732,3985,-1956,2025-02-17 11:27:48,0.0
-14240,-1760,-668,-14175,3682,-2046,2025-02-17 11:27:48,0.0
-14556,-1680,-840,-13670,4175,-2156,2025-02-17 11:27:48,0.0
-14428,-1340,-1460,-13253,4503,-2344,2025-02-17 11:27:48,0.0
-14664,-920,-508,-12546,4016,-2520,2025-02-17 11:27:48,0.0
-14860,-856,1448,-11032,2402,-2539,2025-02-17 11:27:48,0.0
-14296,-1268,1460,-9071,322,-2444,2025-02-17 11:27:48,0.0
-13932,-1352,1004,-7651,-803,-2041,2025-02-17 11:27:48,0.0
-13016,-1504,1232,-6306,-1151,-1551,2025-02-17 11:27:48,0.0
-12264,-1548,1260,-4741,-518,-1239,2025-02-17 11:27:48,0.0
-11884,-1336,1308,-3391,649,-914,2025-02-17 11:27:48,0.0
-11184,-1108,1420,-2240,1799,-800,2025-02-17 11:27:48,0.0
-11520,-604,452,-956,2967,-967,2025-02-17 11:27:48,0.0
-11640,-580,88,-292,3227,-1217,2025-02-17 11:27:48,0.0
-13192,-628,-176,234,3552,-815,2025-02-17 11:27:48,0.0
-15168,-428,604,740,5049,297,2025-02-17 11:27:48,0.0
-16448,420,656,1843,7391,56,2025-02-17 11:27:48,0.0
-19024,1360,20,2472,7407,94,2025-02-17 11:27:48,0.0
-17868,1664,-1636,2720,4375,928,2025-02-17 11:27:48,0.0
-15536,1636,-3160,2075,-568,1164,2025-02-17 11:27:48,0.0
-13320,696,-2368,978,-4331,592,2025-02-17 11:27:49,
-13500,-240,-1000,583,-4848,402,2025-02-17 11:27:49,0.0
-13632,-844,304,436,-2480,470,2025-02-17 11:27:49,0.0
-13012,-824,1856,412,-634,-57,2025-02-17 11:27:49,0.0
-13664,-412,1888,898,-933,-455,2025-02-17 11:27:49,0.0
-13720,252,832,1198,-1187,-711,2025-02-17 11:27:49,0.0
-13996,932,-196,1219,-1015,-1033,2025-02-17 11:27:49,0.0
-14348,1056,-1628,1103,-186,-1194,2025-02-17 11:27:49,0.0
-15416,1036,-2164,370,1837,-1249,2025-02-17 11:27:49,0.0
-16044,440,-2400,242,3241,-1489,2025-02-17 11:27:49,0.0
-15996,12,-3456,95,3373,-1143,2025-02-17 11:27:49,0.0
-15112,-460,-4184,224,2767,-881,2025-02-17 11:27:49,0.0
-13784,-1496,-4740,-139,1993,-1275,2025-02-17 11:27:49,0.0
-12496,-2576,-4252,-603,830,-2215,2025-02-17 11:27:49,0.0
-12560,-3184,-3344,-949,11,-2845,2025-02-17 11:27:49,0.0
-13156,-3460,-1168,-429,1347,-2559,2025-02-17 11:27:49,0.0
-13080,-3796,500,1661,2843,-2021,2025-02-17 11:27:49,0.0
-13992,-3784,640,3324,3894,-751,2025-02-17 11:27:49,0.0
-14208,-2952,52,4236,4659,646,2025-02-17 11:27:49,0.0
-13388,-1548,-2064,3524,4680,1025,2025-02-17 11:27:49,0.0
-11744,-272,-3356,2484,2922,-92,2025-02-17 11:27:49,0.0
-11400,384,-2916,1377,1867,-2290,2025-02-17 11:27:49,0.0
-11528,-528,-2048,616,2234,-4422,2025-02-17 11:27:49,0.0
-11892,-1076,-2240,520,2905,-5154,2025-02-17 11:27:49,0.0
-12004,-1484,-3004,200,2792,-5614,2025-02-17 11:27:49,0.0
-12380,-1536,-2764,76,1036,-5677,2025-02-17 11:27:49,0.0
-12600,-1564,-2072,366,-1196,-5191,2025-02-17 11:27:49,0.0
-12312,-1948,-1400,745,-2404,-4629,2025-02-17 11:27:49,0.0
-12100,-2104,-892,1167,-2287,-3777,2025-02-17 11:27:49,0.0
-11908,-2340,-608,1506,-1650,-2986,2025-02-17 11:27:49,0.0
-12204,-2560,-264,1749,-594,-2065,2025-02-17 11:27:49,0.0
-12160,-2704,-576,1715,87,-1270,2025-02-17 11:27:49,0.0
-12280,-2664,-852,1092,784,-863,2025-02-17 11:27:49,0.0
-13060,-2480,-728,831,1056,-440,2025-02-17 11:27:49,0.0
-13192,-2560,-372,961,839,311,2025-02-17 11:27:49,0.0
-12644,-2664,-1324,904,-372,835,2025-02-17 11:27:49,0.0
-13028,-3156,-1836,468,-979,1241,2025-02-17 11:27:49,0.0
-12760,-3452,-1748,-132,-572,1407,2025-02-17 11:27:49,0.0
-12400,-2968,-1712,-978,95,835,2025-02-17 11:27:49,0.0
-12692,-2528,-692,-1232,722,348,2025-02-17 11:27:49,0.0
-13124,-2720,-1144,-1218,1446,-39,2025-02-17 11:27:49,0.0
-13416,-3208,-1312,-1441,2235,-413,2025-02-17 11:27:49,0.0
-14480,-3928,-1864,-2272,2707,-708,2025-02-17 11:27:49,0.0
-15720,-4052,-1836,-3085,3498,-639,2025-02-17 11:27:49,0.0
-16492,-3192,-1032,-3818,3997,-240,2025-02-17 11:27:49,0.0
-16492,-2444,-436,-3926,4035,-243,2025-02-17 11:27:49,0.0
-16300,-2620,-824,-3718,3317,-589,2025-02-17 11:27:49,0.0
-15436,-4232,-1456,-3287,1856,-1514,2025-02-17 11:27:49,0.0
-15460,-5432,-3184,-3168,1332,-2586,2025-02-17 11:27:49,0.0
-16060,-5364,-3208,-2866,1899,-3191,2025-02-17 11:27:49,0.0
-16448,-4932,-4188,-2329,2805,-3598,2025-02-17 11:27:49,0.0
-17796,-5080,-3624,-1621,2404,-3609,2025-02-17 11:27:49,0.0
-17636,-4844,-5804,-1120,-431,-3059,2025-02-17 11:27:49,0.0
-18784,-3860,-5692,-692,-5473,-753,2025-02-17 11:27:49,0.0
-15860,-3312,-6200,-13,-10227,2020,2025-02-17 11:27:49,0.0
-11548,-3088,-6604,903,-13479,2953,2025-02-17 11:27:49,0.0
-8512,-3444,-6528,2184,-13265,2918,2025-02-17 11:27:49,0.0
-7716,-2476,-6848,2695,-8802,2633,2025-02-17 11:27:49,0.0
-8796,-380,-6788,1849,1492,1984,2025-02-17 11:27:49,0.0
-9636,620,-5564,318,8126,690,2025-02-17 11:27:49,0.0
-12904,-228,-4468,102,9985,-405,2025-02-17 11:27:50,0.0
-16052,-1864,-3764,538,10468,1286,2025-02-17 11:27:50,0.0
-14628,-2428,-5156,821,9352,3121,2025-02-17 11:27:50,0.0
-13296,-2620,-5872,672,7530,4188,2025-02-17 11:27:50,0.0
-14144,-2248,-6500,434,6124,4842,2025-02-17 11:27:50,0.0
-13056,-1972,-6816,12,3669,5358,2025-02-17 11:27:50,0.0
-13156,-1132,-7760,-1784,-1111,5663,2025-02-17 11:27:50,0.0
-12068,140,-4784,-1846,-8062,4662,2025-02-17 11:27:50,0.0
-12772,932,3664,-622,-11331,3875,2025-02-17 11:27:50,0.0
-11208,120,-2156,86,-5182,4143,2025-02-17 11:27:50,0.0
-9656,136,-2384,372,-2032,4072,2025-02-17 11:27:50,0.0
-9712,504,-2208,870,-465,3784,2025-02-17 11:27:50,0.0
-10208,452,-1748,1331,207,3816,2025-02-17 11:27:50,0.0
-9992,368,-1576,2118,233,3672,2025-02-17 11:27:50,0.0
-9544,680,-1096,2940,603,2959,2025-02-17 11:27:50,0.0
-9548,888,-2104,3246,1549,1951,2025-02-17 11:27:50,0.0
-10424,1140,-2972,2654,1914,789,2025-02-17 11:27:50,0.0
-10664,832,-3420,1641,1327,-256,2025-02-17 11:27:50,0.0
-11556,296,-2728,1079,828,-1257,2025-02-17 11:27:50,0.0
-12472,-464,-1412,1262,1116,-1530,2025-02-17 11:27:50,0.0
-13488,-1320,-1420,1802,1588,-787,2025-02-17 11:27:50,0.0
-13832,-1196,-948,3061,1739,197,2025-02-17 11:27:50,0.0
-14080,-580,-1716,3342,1322,1140,2025-02-17 11:27:50,0.0
-12924,8,-2812,3280,-130,1388,2025-02-17 11:27:50,0.0
-12756,344,-2576,3214,-1411,1118,2025-02-17 11:27:50,0.0
-11912,-96,-3928,3048,-1373,457,2025-02-17 11:27:50,0.0
-11520,-816,-3860,2768,-375,-242,2025-02-17 11:27:50,0.0
-12872,-1056,-3308,3416,1073,-653,2025-02-17 11:27:50,0.0
-13868,-596,-2736,3250,2402,-127,2025-02-17 11:27:50,0.0
