acceleration_x,acceleration_y,acceleration_z,gyroscope_x,gyroscope_y,gyroscope_z,timestamp,label
-12712,2740,-1664,-5721,-1155,-2349,2025-02-06 17:34:17,1
-12668,2372,-1576,-5298,-615,-2237,2025-02-06 17:34:17,1
-12880,1788,-1736,-4926,-331,-2128,2025-02-06 17:34:17,1
-13996,1408,-2036,-4481,-213,-1731,2025-02-06 17:34:17,1
-16500,1672,-4576,-4584,-524,-597,2025-02-06 17:34:17,1
-16796,244,-4432,-5095,-1385,128,2025-02-06 17:34:17,1
-16500,-784,-2728,-4971,-3998,138,2025-02-06 17:34:17,1
-16568,-668,-3196,-4842,-6441,1061,2025-02-06 17:34:17,1
-13896,-1036,-2808,-4492,-6820,1453,2025-02-06 17:34:17,1
-12068,-908,-3116,-4258,-5535,1283,2025-02-06 17:34:17,1
-10220,-992,-3980,-4586,-3879,638,2025-02-06 17:34:17,1
-9048,-1124,-4228,-4657,-1225,-1192,2025-02-06 17:34:17,1
-11980,-1948,-5452,-5172,2901,-2702,2025-02-06 17:34:17,1
-13860,-3120,-3652,-5700,4625,-3044,2025-02-06 17:34:17,1
-15168,-4768,-1696,-5887,3198,-3259,2025-02-06 17:34:17,1
-15900,-5560,-644,-5471,607,-3638,2025-02-06 17:34:17,1
-15556,-5784,32,-4956,-1312,-4232,2025-02-06 17:34:17,1
-14280,-6100,132,-4745,-2440,-4859,2025-02-06 17:34:17,1
-12956,-6340,-420,-5094,-2448,-5116,2025-02-06 17:34:17,1
-12348,-5504,-1100,-5460,-2067,-5061,2025-02-06 17:34:17,1
-12080,-4708,-680,-5986,-1856,-5113,2025-02-06 17:34:17,1
-11716,-3984,-100,-6224,-1895,-4975,2025-02-06 17:34:17,1
-11588,-3912,-28,-6415,-1738,-4681,2025-02-06 17:34:17,1
-11796,-3972,-436,-6482,-1228,-4570,2025-02-06 17:34:17,1
-12284,-4508,-268,-6388,-704,-4521,2025-02-06 17:34:17,1
-12368,-5012,-148,-6115,-363,-4278,2025-02-06 17:34:17,1
-13116,-5068,-760,-5771,-533,-3738,2025-02-06 17:34:17,1
-13288,-4612,-1132,-5677,-867,-3067,2025-02-06 17:34:17,1
-12788,-4304,-1076,-5925,-850,-3009,2025-02-06 17:34:17,1
-12732,-4272,-736,-6068,-651,-2743,2025-02-06 17:34:17,1
-12976,-4360,-444,-5937,-587,-2103,2025-02-06 17:34:17,1
-12720,-3852,-256,-5706,-853,-1088,2025-02-06 17:34:17,1
-12964,-3960,-868,-5715,-829,-496,2025-02-06 17:34:17,1
-13476,-3756,-592,-5901,-465,-531,2025-02-06 17:34:17,1
-14124,-3552,-212,-5811,-315,-498,2025-02-06 17:34:17,1
-13804,-3868,84,-5517,-1211,-34,2025-02-06 17:34:17,1
-12912,-4052,-612,-5057,-2420,517,2025-02-06 17:34:17,1
-11892,-4472,-1936,-4875,-2161,789,2025-02-06 17:34:17,1
-11524,-4476,-2044,-4784,-519,758,2025-02-06 17:34:17,1
-11820,-4552,-772,-4491,854,938,2025-02-06 17:34:18,1
-12360,-4444,-152,-3845,1301,1084,2025-02-06 17:34:18,1
-12668,-4264,-476,-3263,1483,1291,2025-02-06 17:34:18,1
-12400,-4552,-980,-2774,1173,1571,2025-02-06 17:34:18,1
-12400,-4816,-1476,-2489,1145,1824,2025-02-06 17:34:18,1
-12888,-4872,-2260,-2259,2162,1895,2025-02-06 17:34:18,1
-13812,-4124,-2820,-2182,3350,1649,2025-02-06 17:34:18,1
-14776,-3280,-1984,-2088,3665,1249,2025-02-06 17:34:18,1
-15068,-2564,-1024,-1761,2244,1120,2025-02-06 17:34:18,1
-14600,-2472,-1080,-1304,393,666,2025-02-06 17:34:18,1
-14028,-3300,-3076,-1345,-6,-97,2025-02-06 17:34:18,1
-13188,-3876,-3808,-1530,746,-613,2025-02-06 17:34:18,1
-12632,-4148,-2940,-1514,1239,-954,2025-02-06 17:34:18,1
-12720,-3680,-2052,-1354,1064,-844,2025-02-06 17:34:18,1
-12920,-3752,-1404,-1118,599,-480,2025-02-06 17:34:18,1
-13104,-3836,-1868,-842,405,-163,2025-02-06 17:34:18,1
-12916,-4300,-2112,-558,550,-19,2025-02-06 17:34:18,1
-13080,-4356,-2412,-120,931,-122,2025-02-06 17:34:18,1
-13496,-3756,-2412,206,1298,-207,2025-02-06 17:34:18,1
-13784,-3280,-2452,472,1001,-33,2025-02-06 17:34:18,1
-13724,-3408,-2540,440,146,-106,2025-02-06 17:34:18,1
-13548,-3876,-2672,475,24,-114,2025-02-06 17:34:18,1
-13588,-4136,-2988,809,342,-142,2025-02-06 17:34:18,2
-13424,-4220,-3420,1073,475,-189,2025-02-06 17:34:18,2
-13972,-4280,-3596,1259,300,-111,2025-02-06 17:34:18,2
-13560,-4440,-3040,1743,370,-26,2025-02-06 17:34:18,2
-13156,-4608,-2856,2359,384,-163,2025-02-06 17:34:18,2
-13292,-4264,-2428,2959,184,-382,2025-02-06 17:34:18,2
-13296,-3776,-2644,3478,-121,-350,2025-02-06 17:34:18,2
-13108,-3084,-2980,3625,-660,-72,2025-02-06 17:34:18,2
-12640,-2200,-3020,3701,-929,168,2025-02-06 17:34:18,2
-11936,-1644,-3464,3559,-623,311,2025-02-06 17:34:18,2
-11120,-2092,-3608,3412,453,162,2025-02-06 17:34:18,2
-11444,-2848,-3212,3534,1834,-56,2025-02-06 17:34:18,2
-12440,-3608,-2496,3704,2502,-177,2025-02-06 17:34:18,2
-13476,-3852,-2168,3985,2048,36,2025-02-06 17:34:18,2
-14020,-3920,-1896,4430,1213,449,2025-02-06 17:34:18,2
-13780,-4040,-1944,4822,477,895,2025-02-06 17:34:18,2
-13228,-3920,-2568,5077,-365,1282,2025-02-06 17:34:18,2
-12608,-3680,-2660,5248,-678,1408,2025-02-06 17:34:18,2
-12268,-3408,-2380,5224,-506,1500,2025-02-06 17:34:18,2
-12544,-3180,-2424,5138,-75,1840,2025-02-06 17:34:18,2
-13068,-3604,-2144,5006,166,2368,2025-02-06 17:34:18,2
-13156,-4144,-1512,5026,-249,2665,2025-02-06 17:34:18,2
-13340,-4260,-1900,5095,-741,2744,2025-02-06 17:34:18,2
-13412,-4144,-2340,5022,-987,2756,2025-02-06 17:34:18,2
-13044,-3944,-2212,4937,-1214,2634,2025-02-06 17:34:18,2
-12944,-3180,-2120,4678,-1621,2466,2025-02-06 17:34:18,2
-13304,-2500,-2512,4205,-2151,2820,2025-02-06 17:34:18,2
-13564,-2340,-2316,3771,-2045,3404,2025-02-06 17:34:18,2
-13464,-2920,-1416,3331,-1757,3855,2025-02-06 17:34:18,2
-13256,-3500,-572,3093,-2378,3771,2025-02-06 17:34:18,2
-13452,-3904,-128,3235,-3355,3482,2025-02-06 17:34:18,2
-13636,-4076,68,3480,-4189,3407,2025-02-06 17:34:18,2
-13408,-3772,12,3491,-4206,3737,2025-02-06 17:34:18,2
-13268,-3276,-340,3318,-3435,4118,2025-02-06 17:34:18,2
-12956,-3404,-1076,3055,-2209,4262,2025-02-06 17:34:18,2
-12332,-3716,-1140,2992,-865,4070,2025-02-06 17:34:18,2
-12124,-4172,-1260,3067,498,3818,2025-02-06 17:34:18,2
-12384,-4196,-1288,3359,1672,3839,2025-02-06 17:34:18,2
-12940,-3808,-1632,3947,2759,3854,2025-02-06 17:34:18,2
-14296,-2328,-1500,4293,3695,4003,2025-02-06 17:34:19,2
-14896,-688,-500,3963,3371,4327,2025-02-06 17:34:19,2
-15288,452,-784,3436,1980,4444,2025-02-06 17:34:19,2
-15528,1064,-1636,2995,610,4067,2025-02-06 17:34:19,2
-15332,1808,-2280,2777,141,3339,2025-02-06 17:34:19,2
-14916,2464,-1312,2732,116,2262,2025-02-06 17:34:19,2
-14228,2544,404,2642,-760,1422,2025-02-06 17:34:19,2
-13760,840,1708,2646,-2477,2215,2025-02-06 17:34:19,2
-12344,-456,1712,3079,-2547,3671,2025-02-06 17:34:19,2
-12356,-612,624,3342,-1745,4324,2025-02-06 17:34:19,2
-12860,-512,840,3666,-4,4097,2025-02-06 17:34:19,2
-14352,-72,920,4161,812,3700,2025-02-06 17:34:19,2
-15444,1556,120,4898,-1846,3119,2025-02-06 17:34:19,2
-15188,3960,36,5045,-6130,2613,2025-02-06 17:34:19,2
-13204,5000,660,4577,-7277,2621,2025-02-06 17:34:19,2
-10876,4200,596,4254,-5955,2519,2025-02-06 17:34:19,2
-9796,2884,1088,3930,-2372,1953,2025-02-06 17:34:19,2
-11228,1928,804,3904,367,1858,2025-02-06 17:34:19,2
-12772,2144,1268,3905,1544,1949,2025-02-06 17:34:19,2
-13880,3088,992,3499,1307,1736,2025-02-06 17:34:19,2
-15176,4148,1028,2773,75,1504,2025-02-06 17:34:19,2
-15780,5088,1244,2265,-1098,1603,2025-02-06 17:34:19,2
-15480,5332,196,1577,-2331,2072,2025-02-06 17:34:19,2
-14864,5052,248,719,-2713,2224,2025-02-06 17:34:19,2
-14088,4416,1240,-6,-2344,2154,2025-02-06 17:34:19,2
-13556,4044,1624,-300,-1831,2185,2025-02-06 17:34:19,2
-12992,3408,1100,-286,-1471,2078,2025-02-06 17:34:19,2
-12972,2676,884,-477,-791,1546,2025-02-06 17:34:19,2
-13436,2684,1432,-175,-14,1635,2025-02-06 17:34:19,2
-13744,2744,1104,-98,544,1808,2025-02-06 17:34:19,2
-14008,2436,684,-19,388,1766,2025-02-06 17:34:19,2
-13700,2384,828,164,307,1512,2025-02-06 17:34:19,2
-13232,2764,752,537,103,1152,2025-02-06 17:34:19,2
-13120,2812,988,630,408,768,2025-02-06 17:34:19,2
-13620,2916,928,806,730,574,2025-02-06 17:34:19,2
-13988,2760,632,810,810,444,2025-02-06 17:34:19,2
-14124,2724,932,835,440,535,2025-02-06 17:34:19,2
-13848,2624,684,933,-12,644,2025-02-06 17:34:19,2
-13244,2680,592,879,-198,724,2025-02-06 17:34:19,2
-13016,2780,612,781,125,791,2025-02-06 17:34:19,2
-13264,2816,588,601,557,747,2025-02-06 17:34:19,2
-13600,3100,876,363,461,665,2025-02-06 17:34:19,2
-13644,3432,1132,195,115,596,2025-02-06 17:34:19,2
-13540,3460,844,56,-438,704,2025-02-06 17:34:19,2
-13044,3452,648,-156,-415,726,2025-02-06 17:34:19,2
-12764,3296,556,-354,54,645,2025-02-06 17:34:19,2
-13012,2880,1088,-584,385,452,2025-02-06 17:34:19,2
-13432,2820,1340,-613,333,219,2025-02-06 17:34:19,2
-13732,2744,1200,-514,-143,205,2025-02-06 17:34:19,2
-13488,2744,788,-457,-585,229,2025-02-06 17:34:19,2
-12948,2832,664,-401,-613,250,2025-02-06 17:34:19,2
-12840,2888,864,-337,-317,201,2025-02-06 17:34:19,2
-13096,3000,828,-313,-54,93,2025-02-06 17:34:19,2
-13356,2940,664,-335,-17,-21,2025-02-06 17:34:19,2
-13788,2928,1008,-335,100,-42,2025-02-06 17:34:19,2
-13868,2712,988,-285,-67,28,2025-02-06 17:34:19,2
-14004,2668,1036,-226,-166,54,2025-02-06 17:34:19,2
-13696,2908,864,-299,-308,144,2025-02-06 17:34:19,2
-13680,3016,836,-359,-162,144,2025-02-06 17:34:19,2
-13608,2908,844,-413,-50,162,2025-02-06 17:34:19,2
-13820,2800,640,-446,52,154,2025-02-06 17:34:19,2
-13832,2588,744,-464,133,145,2025-02-06 17:34:20,2
-13772,2452,908,-380,34,201,2025-02-06 17:34:20,2
-13488,2384,876,-241,31,202,2025-02-06 17:34:20,2
-13480,2232,868,-92,176,265,2025-02-06 17:34:20,2
-13180,2540,584,46,402,228,2025-02-06 17:34:20,2
-13568,2564,548,-26,423,110,2025-02-06 17:34:20,2
-13660,2560,864,137,271,126,2025-02-06 17:34:20,2
-13320,2552,1112,203,199,125,2025-02-06 17:34:20,2
-13180,2532,1060,298,294,35,2025-02-06 17:34:20,2
-13416,2664,1004,312,287,-126,2025-02-06 17:34:20,2
-13424,3020,784,252,214,-131,2025-02-06 17:34:20,2
-13348,2996,996,175,-32,-94,2025-02-06 17:34:20,2
-13260,3248,736,90,-26,-66,2025-02-06 17:34:20,2
-13324,3260,832,-30,47,-124,2025-02-06 17:34:20,2
-13492,3224,784,-100,53,-164,2025-02-06 17:34:20,2
-13376,3184,904,-188,5,-225,2025-02-06 17:34:20,2
-13288,3032,1060,-257,125,-280,2025-02-06 17:34:20,2
-13296,3016,940,-281,257,-255,2025-02-06 17:34:20,2
-13436,2956,940,-321,495,-326,2025-02-06 17:34:20,2
-13796,3032,1084,-402,339,-327,2025-02-06 17:34:20,2
-13892,3212,944,-509,-3,-327,2025-02-06 17:34:20,2
-13648,3132,900,-570,-214,-288,2025-02-06 17:34:20,2
-13560,3228,896,-654,-164,-226,2025-02-06 17:34:20,2
-13324,2904,1040,-713,91,-163,2025-02-06 17:34:20,2
-13360,2748,876,-746,194,-183,2025-02-06 17:34:20,2
-13556,2648,1116,-796,247,-298,2025-02-06 17:34:20,2
-13840,2752,964,-749,110,-409,2025-02-06 17:34:20,2
-13860,3012,1040,-716,-77,-411,2025-02-06 17:34:20,2
-13764,2936,1124,-614,-200,-256,2025-02-06 17:34:20,2
-13276,2748,1020,-511,8,-115,2025-02-06 17:34:20,2
-13068,2896,1024,-512,448,-82,2025-02-06 17:34:20,2
-13348,3000,1144,-538,707,-140,2025-02-06 17:34:20,2
-13824,2844,960,-495,495,-197,2025-02-06 17:34:20,2
-13928,2776,1068,-413,135,-235,2025-02-06 17:34:20,2
-13916,2956,928,-349,-137,-198,2025-02-06 17:34:20,2
-13476,2776,1140,-359,-162,-82,2025-02-06 17:34:20,2
-13220,2728,908,-358,2,-49,2025-02-06 17:34:20,2
-13304,2648,936,-422,182,-129,2025-02-06 17:34:20,2
-13324,2760,1120,-368,226,-241,2025-02-06 17:34:20,2
-13528,2716,1116,-360,91,-268,2025-02-06 17:34:20,2
-13460,2596,944,-328,-25,-181,2025-02-06 17:34:20,2
-13328,2728,904,-372,-26,-161,2025-02-06 17:34:20,2
-13400,2792,1200,-457,176,-214,2025-02-06 17:34:20,2
-13544,2860,1192,-404,280,-254,2025-02-06 17:34:20,2
-13724,2712,1412,-364,295,-259,2025-02-06 17:34:20,2
-13704,2500,1232,-248,46,-115,2025-02-06 17:34:20,2
-13288,2548,1072,-195,-64,-80,2025-02-06 17:34:20,2
-13112,2660,1192,-179,57,-167,2025-02-06 17:34:20,2
-13384,2920,992,-253,333,-314,2025-02-06 17:34:20,2
-13800,3072,1104,-266,515,-314,2025-02-06 17:34:20,2
-14268,2804,920,-236,377,-160,2025-02-06 17:34:20,2
-13984,2656,1060,-208,71,-1,2025-02-06 17:34:20,2
-13432,2436,1020,-108,-131,46,2025-02-06 17:34:20,2
-13052,2552,1044,-113,88,-63,2025-02-06 17:34:20,2
-13248,2684,1188,-147,320,-254,2025-02-06 17:34:20,2
-13548,2944,1212,-137,459,-325,2025-02-06 17:34:20,2
-14016,2876,1276,-127,273,-230,2025-02-06 17:34:20,2
-13876,2716,1212,-125,-77,-116,2025-02-06 17:34:20,2
-13388,2596,1020,-170,-162,-85,2025-02-06 17:34:20,2
-13172,2804,1116,-199,-34,-161,2025-02-06 17:34:20,2
-13320,2928,1128,-256,96,-250,2025-02-06 17:34:20,2
-13584,3000,952,-423,214,-289,2025-02-06 17:34:21,2
-13956,3136,1056,-547,31,-329,2025-02-06 17:34:21,2
-14052,3112,1160,-519,-215,-263,2025-02-06 17:34:21,2
-13868,2960,1064,-532,-424,-145,2025-02-06 17:34:21,2
-13420,2916,1052,-579,-394,-83,2025-02-06 17:34:21,2
-12972,2848,1328,-557,-88,-105,2025-02-06 17:34:21,2
-12896,2884,1064,-595,323,-118,2025-02-06 17:34:21,2
-13152,2688,1164,-610,676,-159,2025-02-06 17:34:21,2
-13556,2664,1268,-561,600,-202,2025-02-06 17:34:21,2
-13896,2684,1376,-482,350,-230,2025-02-06 17:34:21,2
-13816,2784,1356,-401,120,-240,2025-02-06 17:34:21,2
-13632,2912,1056,-385,113,-197,2025-02-06 17:34:21,2
-13428,2796,1108,-429,232,-165,2025-02-06 17:34:21,2
-13216,2660,1140,-458,430,-170,2025-02-06 17:34:21,2
-13424,2872,1264,-562,591,-288,2025-02-06 17:34:21,2
-14080,3092,1484,-629,478,-387,2025-02-06 17:34:21,2
-14144,3140,1140,-598,152,-351,2025-02-06 17:34:21,2
-13784,3032,944,-615,-37,-132,2025-02-06 17:34:21,2
-13200,2528,1128,-596,210,-19,2025-02-06 17:34:21,2
-12928,2500,1248,-678,583,-78,2025-02-06 17:34:21,2
-13400,2704,1180,-649,618,-261,2025-02-06 17:34:21,2
-13692,2864,1124,-709,381,-407,2025-02-06 17:34:21,2
-13800,2956,1084,-600,101,-335,2025-02-06 17:34:21,2
-13344,2764,1236,-485,168,-210,2025-02-06 17:34:21,2
-13012,2780,1356,-407,670,-204,2025-02-06 17:34:21,2
-13264,2780,1448,-350,846,-330,2025-02-06 17:34:21,2
-13612,2672,1120,-249,773,-411,2025-02-06 17:34:21,2
-13868,2716,1156,-194,409,-425,2025-02-06 17:34:21,2
-13680,3004,1552,-64,191,-369,2025-02-06 17:34:21,2
-13600,2940,1144,4,136,-335,2025-02-06 17:34:21,2
-13488,2920,1024,41,274,-242,2025-02-06 17:34:21,2
-13528,2824,772,-4,417,-223,2025-02-06 17:34:21,2
-13704,2672,1164,-36,494,-222,2025-02-06 17:34:21,2
-13800,2568,1272,2,364,-217,2025-02-06 17:34:21,2
-13776,2956,1192,18,70,-253,2025-02-06 17:34:21,2
-13656,3008,992,35,-95,-242,2025-02-06 17:34:21,2
-13368,2972,912,-15,42,-198,2025-02-06 17:34:21,2
-13408,2636,1032,-134,294,-148,2025-02-06 17:34:21,2
-13532,2600,1236,-157,381,-162,2025-02-06 17:34:21,2
-13600,2712,1412,-159,296,-222,2025-02-06 17:34:21,2
-13764,2628,1084,-99,9,-203,2025-02-06 17:34:21,2
-13548,2616,960,-83,-7,-144,2025-02-06 17:34:21,2
-13408,2532,960,-77,135,-52,2025-02-06 17:34:21,2
-13564,2624,1068,-100,227,-175,2025-02-06 17:34:21,2
-13672,2724,1384,-135,200,-238,2025-02-06 17:34:21,2
-13792,2568,1236,-12,122,-194,2025-02-06 17:34:21,2
-13544,2552,900,24,23,-200,2025-02-06 17:34:21,2
-13364,2672,1152,13,116,-223,2025-02-06 17:34:21,2
-13260,2684,1072,35,170,-243,2025-02-06 17:34:21,2
-13348,2720,936,83,335,-248,2025-02-06 17:34:21,2
-13516,2592,876,13,447,-222,2025-02-06 17:34:21,2
-13644,2536,1064,-2,430,-242,2025-02-06 17:34:21,2
-13784,2740,1116,52,131,-294,2025-02-06 17:34:21,2
-13524,2888,952,109,-166,-225,2025-02-06 17:34:21,2
-13288,2912,756,79,11,-224,2025-02-06 17:34:21,2
-13268,2888,896,-68,373,-271,2025-02-06 17:34:21,2
-13808,2820,1064,-132,485,-296,2025-02-06 17:34:21,2
-13788,2748,1012,-115,183,-214,2025-02-06 17:34:21,2
-13744,2616,920,-30,-42,-163,2025-02-06 17:34:21,2
-13296,2636,912,-31,54,-187,2025-02-06 17:34:21,2
-13148,2756,1016,-130,365,-230,2025-02-06 17:34:22,2
-13564,2864,1184,-78,424,-254,2025-02-06 17:34:22,2
-13540,2784,1040,-36,334,-245,2025-02-06 17:34:22,2
-13656,2712,836,-130,175,-253,2025-02-06 17:34:22,2
-13580,2824,952,-235,126,-224,2025-02-06 17:34:22,2
-13740,2700,1112,-206,15,-199,2025-02-06 17:34:22,2
-13588,2540,1280,-125,-12,-125,2025-02-06 17:34:22,2
-13408,2436,1044,-105,90,-117,2025-02-06 17:34:22,2
-13284,2528,936,-132,289,-178,2025-02-06 17:34:22,2
-13732,2624,1344,-128,314,-216,2025-02-06 17:34:22,2
-13992,2712,1100,-116,84,-183,2025-02-06 17:34:22,2
-13844,2672,996,-149,-103,-101,2025-02-06 17:34:22,2
-13700,2672,1132,-136,-82,17,2025-02-06 17:34:22,2
-13444,2544,1160,-161,39,28,2025-02-06 17:34:22,2
-13388,2472,1192,-185,135,-65,2025-02-06 17:34:22,2
-13500,2508,1056,-125,173,-90,2025-02-06 17:34:22,2
-13576,2600,844,-146,176,-96,2025-02-06 17:34:22,2
-13492,2548,1112,-103,242,-106,2025-02-06 17:34:22,2
-13536,2476,1004,-70,315,-124,2025-02-06 17:34:22,2
-13720,2644,1064,-111,274,-174,2025-02-06 17:34:22,2
-13688,2580,1036,28,118,-172,2025-02-06 17:34:22,2
-13520,2416,836,89,134,-116,2025-02-06 17:34:22,2
-13200,2528,1068,80,333,-119,2025-02-06 17:34:22,2
-13372,2700,964,45,486,-280,2025-02-06 17:34:22,2
-13592,2744,984,133,353,-344,2025-02-06 17:34:22,2
-13464,2672,1092,175,179,-329,2025-02-06 17:34:22,2
-12940,2664,976,227,132,-272,2025-02-06 17:34:22,2
-12172,2664,768,280,510,-305,2025-02-06 17:34:22,2
-11824,2680,532,163,1141,-465,2025-02-06 17:34:22,2
-12160,3048,436,79,1978,-818,2025-02-06 17:34:22,2
-12988,3208,240,-81,2307,-1171,2025-02-06 17:34:22,2
-14212,3408,96,-144,1913,-1213,2025-02-06 17:34:22,2
-14364,3320,616,-188,1145,-979,2025-02-06 17:34:22,2
-14540,3284,516,-244,626,-742,2025-02-06 17:34:22,2
-14228,3324,440,-307,487,-579,2025-02-06 17:34:22,2
-14080,2980,460,-365,453,-637,2025-02-06 17:34:22,2
-13852,2800,508,-319,538,-801,2025-02-06 17:34:22,2
-13688,2856,652,-390,716,-1112,2025-02-06 17:34:22,2
-13840,3040,1060,-262,795,-1115,2025-02-06 17:34:22,2
-13852,3476,584,-121,895,-1062,2025-02-06 17:34:22,2
-13976,3512,228,-355,1077,-960,2025-02-06 17:34:22,2
-14096,2880,252,-606,1200,-944,2025-02-06 17:34:22,2
-14044,2720,336,-806,1521,-935,2025-02-06 17:34:22,2
-13912,2852,704,-1054,1485,-1207,2025-02-06 17:34:22,2
-13844,2948,584,-1312,1373,-1452,2025-02-06 17:34:22,2
-13824,3384,556,-1513,1521,-1541,2025-02-06 17:34:22,2
-13712,3164,-124,-1983,1619,-1375,2025-02-06 17:34:22,2
-13828,2856,-144,-2405,1559,-1199,2025-02-06 17:34:22,2
-13880,2448,28,-2754,2115,-986,2025-02-06 17:34:22,2
-14488,2236,-532,-2980,1789,-873,2025-02-06 17:34:22,2
-14104,2148,-1000,-2917,438,-904,2025-02-06 17:34:22,2
-13428,2064,-1240,-3092,-377,-1168,2025-02-06 17:34:22,2
-12804,2356,-432,-3364,549,-1701,2025-02-06 17:34:22,2
-13192,2616,-56,-3742,1291,-2177,2025-02-06 17:34:22,2
-13624,2796,1028,-3870,1940,-2514,2025-02-06 17:34:22,2
-13724,2736,1168,-3749,1960,-2800,2025-02-06 17:34:22,2
-13844,2200,612,-3856,1727,-2965,2025-02-06 17:34:22,2
-13640,1748,808,-3689,1683,-3018,2025-02-06 17:34:22,2
-13412,1392,924,-3605,1688,-3276,2025-02-06 17:34:22,2
-13280,1520,1324,-3409,1217,-3463,2025-02-06 17:34:22,2
-12940,1744,1240,-3252,1206,-3647,2025-02-06 17:34:23,2
-12680,1636,948,-3325,1571,-3739,2025-02-06 17:34:23,2
-12820,1484,1240,-3316,2026,-3775,2025-02-06 17:34:23,2
-13132,1836,1428,-3274,2596,-3730,2025-02-06 17:34:23,2
-13776,1944,1184,-3180,2278,-3512,2025-02-06 17:34:23,2
-13924,2116,1040,-3129,1920,-3221,2025-02-06 17:34:23,2
-13592,2224,896,-3067,1745,-2853,2025-02-06 17:34:23,2
-12704,1960,620,-3038,1667,-2668,2025-02-06 17:34:23,2
-12208,2072,-32,-3224,2361,-2679,2025-02-06 17:34:23,2
-11800,2468,-740,-3504,2850,-3037,2025-02-06 17:34:23,2
-12296,3212,-832,-3817,3389,-3322,2025-02-06 17:34:23,2
-13016,3948,-1012,-4299,4289,-3650,2025-02-06 17:34:23,2
-14156,4748,-1656,-4758,4621,-3795,2025-02-06 17:34:23,2
-15512,3424,-2904,-5716,3516,-3827,2025-02-06 17:34:23,2
-15536,1840,-424,-5767,2509,-3531,2025-02-06 17:34:23,2
-15040,592,20,-5019,1850,-2926,2025-02-06 17:34:23,2
-14348,388,-436,-4504,1274,-2554,2025-02-06 17:34:23,2
-13824,236,-1008,-4107,1004,-2402,2025-02-06 17:34:23,2
-13392,-84,-1264,-3537,939,-2238,2025-02-06 17:34:23,2
-12820,-400,-1316,-2797,1054,-2256,2025-02-06 17:34:23,2
-12300,304,-1556,-1798,1185,-2423,2025-02-06 17:34:23,2
-12060,1396,-3236,-1694,1551,-2500,2025-02-06 17:34:23,2
-12516,1704,-3816,-2115,2764,-2692,2025-02-06 17:34:23,2
-14068,1036,-4168,-2480,3835,-2861,2025-02-06 17:34:23,2
-15436,12,-3712,-2734,3881,-2738,2025-02-06 17:34:23,2
-16308,-1272,-3228,-2717,2631,-2865,2025-02-06 17:34:23,2
-16244,-2460,-2568,-2330,418,-3447,2025-02-06 17:34:23,2
-15688,-2604,-3092,-1890,-1405,-3701,2025-02-06 17:34:23,2
-13872,-2116,-3564,-1943,-2523,-4042,2025-02-06 17:34:23,2
-11928,-1444,-3400,-2270,-2142,-4603,2025-02-06 17:34:23,2
-10732,-1760,-2576,-2392,-482,-5054,2025-02-06 17:34:23,2
-11088,-2420,-1556,-2461,1256,-5209,2025-02-06 17:34:23,2
-12316,-2968,-1400,-2934,1963,-5052,2025-02-06 17:34:23,2
-14232,-3292,-1112,-3575,1398,-4485,2025-02-06 17:34:23,2
-14608,-4236,-732,-3984,-235,-3876,2025-02-06 17:34:23,2
-14132,-5120,-708,-4223,-1948,-3447,2025-02-06 17:34:23,2
-13148,-4740,-1132,-4406,-2279,-3105,2025-02-06 17:34:23,2
-12692,-3744,-1676,-4573,-1426,-3097,2025-02-06 17:34:23,2
-12408,-2608,-1868,-4794,-776,-2996,2025-02-06 17:34:23,2
-12404,-2540,-1852,-4953,-548,-2723,2025-02-06 17:34:23,2
-12372,-2716,-2080,-5106,-604,-2369,2025-02-06 17:34:23,2
-12512,-3100,-2520,-5450,-707,-2032,2025-02-06 17:34:23,2
-12720,-3612,-2808,-5718,-682,-1909,2025-02-06 17:34:23,2
-12524,-4376,-2612,-5736,-434,-2127,2025-02-06 17:34:23,2
-12632,-5224,-2152,-5412,46,-2687,2025-02-06 17:34:23,2
-13432,-5936,-1868,-4996,222,-2589,2025-02-06 17:34:23,2
-14024,-5984,-1856,-4443,-43,-2027,2025-02-06 17:34:23,2
-14112,-4480,-1384,-4087,-531,-1399,2025-02-06 17:34:23,2
-13804,-2624,-784,-4117,-1480,-996,2025-02-06 17:34:23,1
-13764,-1916,-176,-4038,-1983,-561,2025-02-06 17:34:23,1
-13444,-2112,-56,-3606,-2420,199,2025-02-06 17:34:23,1
-12760,-2880,-1060,-3246,-2582,1073,2025-02-06 17:34:23,1
-11940,-3296,-1748,-3132,-1875,1676,2025-02-06 17:34:23,1
-11696,-2984,-2136,-3280,-880,2229,2025-02-06 17:34:23,1
-11592,-3000,-624,-3282,-75,2932,2025-02-06 17:34:23,1
-12116,-2916,408,-2357,347,3921,2025-02-06 17:34:23,1
-12312,-2736,-148,-1451,659,4952,2025-02-06 17:34:23,1
-12364,-2416,-1048,-912,1338,5540,2025-02-06 17:34:23,1
-12372,-2532,-3148,-1024,3032,5023,2025-02-06 17:34:23,1
-12932,-2440,-4496,-946,4825,2864,2025-02-06 17:34:23,1
-15264,-2052,-4948,-877,5836,-197,2025-02-06 17:34:23,1
-18120,-1360,-2920,-887,4038,-1969,2025-02-06 17:34:23,1
-17820,-628,508,-43,-629,-940,2025-02-06 17:34:24,1
-14668,-268,-592,749,-3584,440,2025-02-06 17:34:24,1
-11536,-376,-2452,477,-4175,1287,2025-02-06 17:34:24,1
-9900,-1132,-3716,-123,-2258,1120,2025-02-06 17:34:24,1
-10272,-1700,-4132,-864,1607,467,2025-02-06 17:34:24,1
-12216,-1368,-2656,-1205,3864,130,2025-02-06 17:34:24,1
-14156,-1068,-1184,-1199,3774,195,2025-02-06 17:34:24,1
-14976,-556,-488,-834,2300,283,2025-02-06 17:34:24,1
-14700,56,-1092,-658,614,375,2025-02-06 17:34:24,1
-13640,384,-1252,-827,113,241,2025-02-06 17:34:24,1
-13036,596,-1408,-1045,811,168,2025-02-06 17:34:24,1
-12608,600,-1592,-1428,2235,-357,2025-02-06 17:34:24,1
-13240,144,-2104,-1887,2897,-1134,2025-02-06 17:34:24,1
-13860,-664,-2296,-2348,2745,-1676,2025-02-06 17:34:24,1
-14568,-1064,-2304,-2585,1712,-2042,2025-02-06 17:34:24,1
-14408,-784,-2256,-2697,1201,-2282,2025-02-06 17:34:24,1
-13872,-200,-3164,-2867,1156,-2650,2025-02-06 17:34:24,1
-13104,-120,-4116,-3173,893,-3502,2025-02-06 17:34:24,1
-14016,-144,-3964,-3511,1091,-4427,2025-02-06 17:34:24,1
-14580,-872,-3984,-3506,1221,-5455,2025-02-06 17:34:24,1
-13712,-2020,-3312,-3377,321,-6862,2025-02-06 17:34:24,1
-13612,-2388,-2784,-3457,-1142,-7537,2025-02-06 17:34:24,1
-12940,-2624,-1864,-3312,-2478,-6769,2025-02-06 17:34:24,1
-11988,-3436,-1624,-2583,-2301,-6122,2025-02-06 17:34:24,1
-11852,-3988,-1960,-2300,-801,-5318,2025-02-06 17:34:24,1
-12428,-4316,-1664,-2684,-196,-4379,2025-02-06 17:34:24,1
-12564,-4208,-936,-2736,-157,-3843,2025-02-06 17:34:24,1
-11776,-3944,-844,-2570,-61,-4023,2025-02-06 17:34:24,1
-12936,-3324,-1104,-2752,-198,-4708,2025-02-06 17:34:24,1
-13320,-2720,-1748,-3476,-136,-5280,2025-02-06 17:34:24,1
-13444,-2484,-1436,-3740,115,-5885,2025-02-06 17:34:24,1
-13624,-2800,-1100,-3822,-381,-5928,2025-02-06 17:34:24,1
-12580,-3564,-112,-3713,-1141,-5668,2025-02-06 17:34:24,1
-12072,-3524,-668,-3418,-2497,-4984,2025-02-06 17:34:24,1
-11376,-3968,-1260,-3672,-1981,-4549,2025-02-06 17:34:24,1
-10844,-4152,-1332,-3951,-192,-4367,2025-02-06 17:34:24,1
-11132,-4556,-536,-4285,1099,-4295,2025-02-06 17:34:24,1
-12364,-4916,64,-4538,1577,-4049,2025-02-06 17:34:24,1
-13144,-5296,1068,-4246,953,-3551,2025-02-06 17:34:24,1
-13656,-5852,1116,-3443,-258,-2367,2025-02-06 17:34:24,1
-13216,-5468,956,-2859,-683,-1409,2025-02-06 17:34:24,1
-12636,-4792,560,-2533,-648,-734,2025-02-06 17:34:24,1
-12012,-4476,-160,-2635,-589,-557,2025-02-06 17:34:24,1
-12036,-4152,-660,-3126,-102,-906,2025-02-06 17:34:24,1
-13216,-4148,-368,-3711,91,-1301,2025-02-06 17:34:24,1
-14428,-4564,284,-3845,-487,-1272,2025-02-06 17:34:24,1
-14360,-5460,680,-3850,-1758,-1653,2025-02-06 17:34:24,1
-14544,-5084,1616,-3675,-3496,-1845,2025-02-06 17:34:24,1
-14172,-4432,1832,-3022,-4865,-971,2025-02-06 17:34:24,1
-12480,-3856,464,-2826,-4711,-347,2025-02-06 17:34:24,1
-11128,-3548,-584,-3840,-3375,-717,2025-02-06 17:34:24,1
-11744,-4052,-1164,-5450,-317,-988,2025-02-06 17:34:24,1
-12720,-5004,-8,-6116,1480,-1120,2025-02-06 17:34:24,1
-13900,-5448,1620,-5909,1065,-1121,2025-02-06 17:34:24,1
-14708,-5704,2108,-5596,845,-556,2025-02-06 17:34:24,1
-15636,-7044,1656,-5658,1924,593,2025-02-06 17:34:24,1
-15612,-8020,2696,-5502,2169,1587,2025-02-06 17:34:24,1
-15348,-9644,108,-4587,1030,1538,2025-02-06 17:34:24,1
-16692,-10208,-2724,-3804,902,-548,2025-02-06 17:34:24,1
-19248,-9480,740,-1872,2221,-2777,2025-02-06 17:34:24,1
-21024,-9416,1248,868,485,-2447,2025-02-06 17:34:24,1
-20900,-9540,-1032,3605,-2578,-197,2025-02-06 17:34:25,1
-17168,-7616,-3488,4930,-3127,1780,2025-02-06 17:34:25,1
-14768,-5684,-6212,4187,-3270,2423,2025-02-06 17:34:25,1
-12468,-4220,-7408,2950,-2231,3810,2025-02-06 17:34:25,1
-9936,-3656,-7436,2231,-1018,5216,2025-02-06 17:34:25,1
-8284,-3200,-8488,1766,-274,6028,2025-02-06 17:34:25,1
-8040,-1528,-8464,1131,1024,5196,2025-02-06 17:34:25,1
-10184,-120,-6960,963,3221,4220,2025-02-06 17:34:25,1
-13088,-8,-5424,1467,5783,4803,2025-02-06 17:34:25,1
-14612,-1484,-3764,2123,6389,6694,2025-02-06 17:34:25,1
-12092,-3868,-3228,2272,4184,6871,2025-02-06 17:34:25,1
-10964,-5104,-1848,2448,2080,5590,2025-02-06 17:34:25,1
-12912,-5428,-2052,2676,2332,5428,2025-02-06 17:34:25,1
-13860,-4264,-1328,3513,2458,6071,2025-02-06 17:34:25,1
-13880,-2892,-1048,4758,1035,6938,2025-02-06 17:34:25,1
-12180,-1632,-1884,6042,-1251,6998,2025-02-06 17:34:25,1
-10484,-532,-2624,6074,-1676,6497,2025-02-06 17:34:25,1
-9360,-236,-2620,5880,-840,5906,2025-02-06 17:34:25,1
-9128,280,-2432,5758,835,5593,2025-02-06 17:34:25,1
-9484,276,-2828,5564,2253,5633,2025-02-06 17:34:25,1
-10196,368,-2620,5407,3108,5473,2025-02-06 17:34:25,1
-10924,220,-2600,5352,2985,4611,2025-02-06 17:34:25,1
-11724,-112,-2396,5151,2427,3579,2025-02-06 17:34:25,1
-12256,-564,-1464,4924,1656,2695,2025-02-06 17:34:25,1
-12400,-452,-396,4889,674,2176,2025-02-06 17:34:25,1
-12300,-200,-368,5123,-1121,1666,2025-02-06 17:34:25,1
-12208,384,-400,5050,-2212,1263,2025-02-06 17:34:25,1
-12028,1176,-524,4766,-3162,932,2025-02-06 17:34:25,1
-11792,980,-988,4615,-3822,686,2025-02-06 17:34:25,1
-11404,56,-1864,4393,-3841,115,2025-02-06 17:34:25,1
-11148,-964,-1964,4018,-2954,-499,2025-02-06 17:34:25,1
-11364,-1244,-1548,3691,-2027,-720,2025-02-06 17:34:25,1
-11676,-1356,-1512,4088,-1206,-521,2025-02-06 17:34:25,1
-12860,-1440,-2416,4798,738,193,2025-02-06 17:34:25,1
-14220,-1436,-2572,5228,2493,1248,2025-02-06 17:34:25,1
-15992,-732,-1924,5577,3331,2087,2025-02-06 17:34:25,1
-17796,964,-344,5715,2897,3204,2025-02-06 17:34:25,1
-18740,2720,984,5532,1522,4351,2025-02-06 17:34:25,1
-17824,3232,-1488,4533,1000,3840,2025-02-06 17:34:25,1
-18812,2784,-4380,3669,1776,2792,2025-02-06 17:34:25,1
-21268,2788,-5060,2580,1371,2935,2025-02-06 17:34:25,1
-22256,2272,-6644,1447,-733,4573,2025-02-06 17:34:25,1
-20948,1636,-8640,-332,-2824,5456,2025-02-06 17:34:25,1
-16468,1648,-8624,-2337,-3823,4113,2025-02-06 17:34:25,1
-11540,616,-6952,-3563,-5139,1184,2025-02-06 17:34:25,1
-9092,-1372,-5632,-3492,-6891,-1217,2025-02-06 17:34:25,1
-7084,-3932,-2848,-981,-5738,-3649,2025-02-06 17:34:25,1
-7988,-6300,-4528,925,-1131,-4881,2025-02-06 17:34:25,1
-10036,-7612,-6308,-26,3280,-4761,2025-02-06 17:34:25,1
-11740,-5828,-4920,-1161,5584,-4470,2025-02-06 17:34:25,1
-12720,-2816,-2948,-817,5948,-4476,2025-02-06 17:34:25,1
-13612,-388,-2796,-738,5020,-5411,2025-02-06 17:34:25,1
-13928,1124,-2520,-1085,2776,-6146,2025-02-06 17:34:25,1
-13892,1532,-2584,-1560,608,-6216,2025-02-06 17:34:25,1
-12520,276,-3044,-2035,-874,-6252,2025-02-06 17:34:25,1
-10744,-884,-3016,-2633,-2166,-6196,2025-02-06 17:34:25,1
-10476,-1892,-2132,-3171,-2494,-5461,2025-02-06 17:34:25,1
-9576,-3568,-1736,-3223,-2110,-5262,2025-02-06 17:34:25,1
-9600,-4128,-2208,-2834,-240,-5194,2025-02-06 17:34:25,1
-9444,-4440,-2464,-2933,1006,-5014,2025-02-06 17:34:25,1
-9220,-4972,-2672,-2964,1839,-4880,2025-02-06 17:34:26,1
-9432,-5356,-1728,-2670,2134,-4830,2025-02-06 17:34:26,1
-10528,-5572,-1336,-2156,2439,-4312,2025-02-06 17:34:26,1
-11896,-4576,-1472,-949,3468,-2963,2025-02-06 17:34:26,1
-12636,-3496,-1324,-433,3375,-1730,2025-02-06 17:34:26,1
-12520,-2960,-1672,-396,2592,-975,2025-02-06 17:34:26,1
-12244,-2432,-328,-308,964,-652,2025-02-06 17:34:26,1
-11348,-2180,-1112,-795,396,-363,2025-02-06 17:34:26,1
-10756,-2028,-2224,-1591,886,-229,2025-02-06 17:34:26,1
-10832,-2284,-2636,-2486,2518,-70,2025-02-06 17:34:26,1
-11368,-3232,-2828,-3366,3861,0,2025-02-06 17:34:26,1
-12512,-4360,-2608,-4051,3803,-416,2025-02-06 17:34:26,1
-14208,-4828,-2204,-4192,2946,-864,2025-02-06 17:34:26,1
-15756,-3968,-2236,-4176,1265,-1247,2025-02-06 17:34:26,1
-16272,-3772,-1636,-3722,-492,-1828,2025-02-06 17:34:26,1
-16780,-5340,-1220,-3354,-936,-3095,2025-02-06 17:34:26,1
-17248,-7004,-24,-3933,-1762,-4224,2025-02-06 17:34:26,1
-18312,-6204,2344,-4289,-4697,-4546,2025-02-06 17:34:26,1
-18160,-5124,2028,-3321,-6456,-2881,2025-02-06 17:34:26,1
-15728,-4112,-3264,-3112,-5870,-2722,2025-02-06 17:34:26,1
-14600,-4456,-4356,-4559,-3592,-3524,2025-02-06 17:34:26,1
-14528,-7796,-3460,-3909,-646,-5505,2025-02-06 17:34:26,1
-17972,-9652,-4008,-2022,-424,-7054,2025-02-06 17:34:26,1
-22140,-10928,-4404,1099,-2359,-5157,2025-02-06 17:34:26,1
-21716,-10296,-3096,4624,-5678,1472,2025-02-06 17:34:26,1
-14832,-5804,-4560,6403,-10081,4195,2025-02-06 17:34:26,1
-11268,-2576,-8144,5104,-12403,6226,2025-02-06 17:34:26,1
-8312,500,-10260,2313,-10359,7231,2025-02-06 17:34:26,1
-4892,3572,-9292,118,-5269,5371,2025-02-06 17:34:26,1
-7812,4960,-8284,-934,2520,2360,2025-02-06 17:34:26,1
-11984,328,-6392,-2757,8667,1974,2025-02-06 17:34:26,1
-15320,-2736,-1992,-2231,9825,3106,2025-02-06 17:34:26,1
-15152,-4756,-300,-441,6181,3984,2025-02-06 17:34:26,1
-14860,-4856,-220,807,1692,4963,2025-02-06 17:34:26,1
-14088,-5036,-1312,2059,-432,5497,2025-02-06 17:34:26,1
-12644,-3828,-2500,2886,-1092,5656,2025-02-06 17:34:26,1
-11216,-2624,-2924,3635,-2375,5542,2025-02-06 17:34:26,1
-10320,-1072,-3296,4047,-2037,5368,2025-02-06 17:34:26,1
-10100,-412,-2632,4458,-1024,5042,2025-02-06 17:34:26,1
-10164,8,-2300,4539,87,4715,2025-02-06 17:34:26,1
-9972,320,-1588,4288,858,4413,2025-02-06 17:34:26,1
-9964,184,-1196,4149,1033,4225,2025-02-06 17:34:26,1
-9896,-116,-1012,4042,777,3867,2025-02-06 17:34:26,1
-9720,-392,-1264,4133,911,3414,2025-02-06 17:34:26,1
-9608,-340,-1364,4010,1569,2536,2025-02-06 17:34:26,1
-9656,180,-1160,3783,1952,1321,2025-02-06 17:34:26,1
-10224,924,-528,3598,1707,-71,2025-02-06 17:34:26,1
-10988,1132,0,3516,757,-1210,2025-02-06 17:34:26,1
-11636,368,-36,3362,-1269,-2150,2025-02-06 17:34:26,1
-11864,-168,-996,3129,-1830,-2566,2025-02-06 17:34:26,1
-12372,-248,-2000,2944,-742,-2570,2025-02-06 17:34:26,1
-13808,-224,-2284,2787,1814,-2009,2025-02-06 17:34:26,1
-15512,-788,-1464,2704,3915,-938,2025-02-06 17:34:26,1
-17084,-1496,-296,3077,4243,169,2025-02-06 17:34:26,1
-18628,-160,-68,3739,2329,1308,2025-02-06 17:34:26,1
-19164,1460,112,4068,-358,2520,2025-02-06 17:34:26,1
-17520,916,972,4051,-3014,2893,2025-02-06 17:34:26,1
-16196,-1568,540,4014,-3101,1880,2025-02-06 17:34:26,1
-16944,-4048,-1168,4409,-1165,1476,2025-02-06 17:34:26,1
-17696,-2620,-2032,6009,-459,1236,2025-02-06 17:34:26,1
-20120,448,-7148,5658,-1492,2745,2025-02-06 17:34:27,1
-19888,2768,-11784,2886,-3306,4693,2025-02-06 17:34:27,1
-17496,4912,-13336,-1483,-3443,5610,2025-02-06 17:34:27,1
-12548,5584,-11528,-5171,-3006,4842,2025-02-06 17:34:27,1
-8276,836,-7016,-5512,-2539,1897,2025-02-06 17:34:27,1
-7576,-3844,-3140,-3659,-199,-725,2025-02-06 17:34:27,1
-8964,-8372,-3328,-998,3631,-3670,2025-02-06 17:34:27,1
-12164,-9552,-4980,-609,5800,-5281,2025-02-06 17:34:27,1
-15456,-6876,-3888,-527,4768,-5661,2025-02-06 17:34:27,1
-15324,-1840,-1352,813,1598,-4793,2025-02-06 17:34:27,1
-14436,-372,-2732,280,57,-4846,2025-02-06 17:34:27,1
-12152,12,-4388,-283,-909,-4562,2025-02-06 17:34:27,1
-11328,-276,-2760,-244,-1661,-4302,2025-02-06 17:34:27,1
-10192,-964,-3104,-529,-1634,-3946,2025-02-06 17:34:27,1
-9404,-2388,-2368,-1024,-1386,-3856,2025-02-06 17:34:27,1
-10004,-3520,-2440,-1602,-193,-3843,2025-02-06 17:34:27,1
-11028,-3856,-2132,-1820,1099,-3427,2025-02-06 17:34:27,1
-11488,-3508,-2512,-1968,1525,-2955,2025-02-06 17:34:27,1
-11600,-2968,-3352,-2310,1570,-2892,2025-02-06 17:34:27,1
-11812,-2816,-3100,-2513,1305,-2696,2025-02-06 17:34:27,1
-12064,-3144,-2704,-2703,1390,-2233,2025-02-06 17:34:27,1
-12816,-3928,-1300,-2916,1154,-1678,2025-02-06 17:34:27,1
-13540,-4324,64,-2460,73,-1334,2025-02-06 17:34:27,1
-13696,-4452,240,-2002,-1504,-1081,2025-02-06 17:34:27,1
-13604,-3844,688,-1364,-3531,-809,2025-02-06 17:34:27,1
-12872,-3020,620,-801,-4572,-467,2025-02-06 17:34:27,1
-12548,-2780,-188,-556,-4796,-165,2025-02-06 17:34:27,1
-12688,-2940,-2244,-871,-3435,290,2025-02-06 17:34:27,1
-12364,-3132,-3888,-1357,-1132,618,2025-02-06 17:34:27,1
-12200,-3192,-3528,-1797,3,557,2025-02-06 17:34:27,1
-12276,-3392,-2012,-2152,283,599,2025-02-06 17:34:27,1
-14696,-3360,-2092,-2646,-124,767,2025-02-06 17:34:27,1
-14796,-2920,-1440,-2908,-152,1482,2025-02-06 17:34:27,1
-15060,-3056,-1428,-3298,-927,1954,2025-02-06 17:34:27,1
-14672,-4384,-1408,-3505,-1604,2442,2025-02-06 17:34:27,1
-15028,-4548,-3400,-3103,-2153,2084,2025-02-06 17:34:27,1
-16504,-3372,-6536,-3428,-1173,744,2025-02-06 17:34:27,1
-17616,-2712,-6048,-3996,47,-1215,2025-02-06 17:34:27,1
-17264,-3212,-1464,-3755,-3684,-709,2025-02-06 17:34:27,1
-13572,-3260,-384,-1503,-7462,1696,2025-02-06 17:34:27,1
-10296,-3584,-4648,-986,-7332,3052,2025-02-06 17:34:27,1
-7036,-3344,-5736,-1908,-5092,2524,2025-02-06 17:34:27,1
-6492,-1936,-4716,-2178,-1467,989,2025-02-06 17:34:27,1
-7968,-1396,-4256,-2346,2447,-93,2025-02-06 17:34:27,1
-10776,-848,-2848,-1946,4988,-618,2025-02-06 17:34:27,1
-13312,-248,-2208,-1565,5636,-1212,2025-02-06 17:34:27,1
-15504,776,-1392,-1039,4204,-1159,2025-02-06 17:34:27,1
-18188,736,-2800,-870,4261,332,2025-02-06 17:34:27,1
-17668,-148,-1992,-1017,2340,1373,2025-02-06 17:34:27,7
-16704,-684,-1268,-643,-437,2154,2025-02-06 17:34:27,7
-15216,-332,-1620,-747,-1621,2301,2025-02-06 17:34:27,7
-13860,176,-1908,-1077,-2151,2151,2025-02-06 17:34:27,7
-12020,220,-2312,-1184,-2436,1544,2025-02-06 17:34:27,7
-10616,500,-2352,-1077,-1452,770,2025-02-06 17:34:27,7
-10056,632,-2564,-997,263,400,2025-02-06 17:34:27,7
-9724,436,-2724,-887,2474,-386,2025-02-06 17:34:27,7
-10728,-260,-2960,-866,3674,-1082,2025-02-06 17:34:27,7
-11644,-936,-2856,-664,4039,-1603,2025-02-06 17:34:27,7
-12600,-1492,-2776,-465,3740,-2164,2025-02-06 17:34:27,7
-13392,-1656,-3320,-339,3057,-2724,2025-02-06 17:34:27,7
-14164,-1540,-3724,-251,2401,-2988,2025-02-06 17:34:27,7
-15060,-1464,-4336,-246,1886,-2916,2025-02-06 17:34:28,7
-15304,-1424,-3824,-447,1681,-2263,2025-02-06 17:34:28,7
-14124,-2088,-2000,-419,1753,-1919,2025-02-06 17:34:28,7
-13028,-3148,-812,296,1875,-1814,2025-02-06 17:34:28,7
-11732,-2972,-912,1583,1393,-2010,2025-02-06 17:34:28,7
-11924,-1608,-3540,1937,1325,-2460,2025-02-06 17:34:28,7
-13064,-456,-5712,1282,2570,-2579,2025-02-06 17:34:28,7
-14832,-476,-5684,-83,3449,-2093,2025-02-06 17:34:28,7
-15864,-672,-4220,-529,3682,-1236,2025-02-06 17:34:28,7
-15516,-496,-3100,-739,2418,-687,2025-02-06 17:34:28,7
-14500,-400,-2756,-1155,208,-696,2025-02-06 17:34:28,7
-13320,-380,-3104,-1586,-999,-1029,2025-02-06 17:34:28,7
-12268,-208,-3788,-2256,-737,-1264,2025-02-06 17:34:28,7
-11340,-36,-4108,-3310,217,-1745,2025-02-06 17:34:28,7
-11444,36,-3692,-4474,1335,-2392,2025-02-06 17:34:28,7
-12976,-184,-3520,-5386,1753,-2699,2025-02-06 17:34:28,7
-13884,-256,-4032,-6181,1307,-2886,2025-02-06 17:34:28,7
-14460,-420,-4404,-7108,289,-3102,2025-02-06 17:34:28,7
-14368,-956,-4108,-8016,-581,-3172,2025-02-06 17:34:28,7
-13632,-1256,-4000,-8624,-985,-3330,2025-02-06 17:34:28,7
-12904,-1604,-4048,-9185,-1603,-3687,2025-02-06 17:34:28,7
-12396,-1676,-4500,-9639,-2188,-3913,2025-02-06 17:34:28,7
-11740,-1888,-4512,-10137,-2196,-4092,2025-02-06 17:34:28,7
-11384,-1984,-4580,-10771,-1775,-4263,2025-02-06 17:34:28,7
-11188,-2484,-4432,-11594,-1436,-4419,2025-02-06 17:34:28,7
-11660,-2992,-4264,-12421,-959,-4531,2025-02-06 17:34:28,7
-12296,-3504,-4356,-13581,-536,-4480,2025-02-06 17:34:28,7
-13448,-3716,-4012,-14688,-444,-4507,2025-02-06 17:34:28,7
-14304,-3404,-3292,-15475,-731,-4423,2025-02-06 17:34:28,7
-14432,-2928,-3600,-16104,-1640,-4571,2025-02-06 17:34:28,7
-14152,-2552,-4340,-17242,-3090,-5235,2025-02-06 17:34:28,7
-13680,-2264,-4480,-18458,-4146,-5758,2025-02-06 17:34:28,7
-13224,-2360,-4716,-19696,-5096,-6182,2025-02-06 17:34:28,7
-12356,-2216,-5244,-20746,-4870,-6289,2025-02-06 17:34:28,7
-11528,-2704,-6360,-22078,-4310,-6273,2025-02-06 17:34:28,7
-11336,-3436,-7484,-23539,-5293,-6205,2025-02-06 17:34:28,7
-11260,-3984,-6748,-24634,-6837,-5889,2025-02-06 17:34:28,7
-10692,-4652,-5872,-25153,-7368,-5584,2025-02-06 17:34:28,7
-11096,-4756,-5184,-25537,-6931,-4946,2025-02-06 17:34:28,7
-11384,-5520,-4524,-25453,-5949,-4674,2025-02-06 17:34:28,7
-12252,-5784,-4148,-25019,-4738,-4581,2025-02-06 17:34:28,7
-13264,-5352,-3908,-24489,-3832,-4299,2025-02-06 17:34:28,7
-12984,-5348,-3788,-24511,-3627,-4415,2025-02-06 17:34:28,7
-12892,-5232,-2932,-24255,-3950,-4462,2025-02-06 17:34:28,7
-12872,-5928,-2764,-23813,-4595,-4252,2025-02-06 17:34:28,7
-12860,-6196,-3256,-23536,-4459,-4206,2025-02-06 17:34:28,7
-13612,-5856,-3108,-23445,-4263,-4255,2025-02-06 17:34:28,7
-14192,-5424,-2824,-23226,-4415,-4022,2025-02-06 17:34:28,7
-13868,-5284,-2288,-22652,-5028,-3543,2025-02-06 17:34:28,7
-12640,-5428,-2568,-22106,-5915,-3049,2025-02-06 17:34:28,7
-11724,-5532,-2440,-21555,-6330,-2203,2025-02-06 17:34:28,7
-10628,-5420,-3416,-21376,-4708,-1293,2025-02-06 17:34:28,7
-9804,-5656,-4816,-21668,-1919,-770,2025-02-06 17:34:28,7
-10264,-5568,-5672,-21389,586,-79,2025-02-06 17:34:28,7
-10496,-4888,-7248,-20696,2174,748,2025-02-06 17:34:28,7
-9736,-4768,-9100,-20387,2604,226,2025-02-06 17:34:28,7
-10348,-4452,-9908,-21104,3368,-2308,2025-02-06 17:34:28,7
-12876,-2556,-6468,-21847,5297,-5857,2025-02-06 17:34:28,7
-16752,-452,-1360,-20383,4365,-6358,2025-02-06 17:34:28,7
-15944,-768,-708,-18581,-730,-4529,2025-02-06 17:34:28,7
-14052,-1464,-2184,-17997,-3181,-3541,2025-02-06 17:34:28,7
-12052,-1328,-3388,-18623,-1943,-3400,2025-02-06 17:34:29,7
-11420,-388,-4148,-19634,821,-4061,2025-02-06 17:34:29,7
-13916,-756,-2484,-20593,2661,-4446,2025-02-06 17:34:29,7
-15884,-1092,-476,-20166,1593,-4315,2025-02-06 17:34:29,7
-16556,-1288,-308,-19720,-563,-4026,2025-02-06 17:34:29,7
-16132,-1260,-428,-19695,-2412,-4009,2025-02-06 17:34:29,7
-13980,-1140,-380,-19660,-3620,-4259,2025-02-06 17:34:29,7
-12384,-1156,-852,-19613,-3612,-4847,2025-02-06 17:34:29,7
-11448,-1068,-1168,-19294,-3026,-5452,2025-02-06 17:34:29,7
-11140,-1056,-2036,-18895,-2047,-5598,2025-02-06 17:34:29,7
-11404,-1388,-2920,-18578,-525,-5445,2025-02-06 17:34:29,7
-11288,-1504,-3196,-18128,921,-5335,2025-02-06 17:34:29,7
-11592,-1460,-2960,-17357,2243,-5388,2025-02-06 17:34:29,7
-12200,-936,-3000,-16795,3509,-5647,2025-02-06 17:34:29,7
-13164,-264,-2108,-16198,4091,-5860,2025-02-06 17:34:29,7
-14532,824,-2124,-15278,3299,-5573,2025-02-06 17:34:29,7
-15256,1212,-3640,-14710,1760,-4736,2025-02-06 17:34:29,7
-14940,828,-4316,-14455,424,-3969,2025-02-06 17:34:29,7
-13312,-964,-3480,-14319,1270,-4325,2025-02-06 17:34:29,7
-13356,-1604,-1988,-13255,1602,-4156,2025-02-06 17:34:29,7
-12612,-2096,-1216,-11729,946,-4043,2025-02-06 17:34:29,7
-12464,-1716,-1168,-10112,-28,-4118,2025-02-06 17:34:29,7
-12768,-1404,-2012,-8900,-482,-4014,2025-02-06 17:34:29,7
-13644,-1804,-3280,-8163,-611,-3889,2025-02-06 17:34:29,7
-15140,-2364,-3672,-7083,-216,-3273,2025-02-06 17:34:29,7
-16324,-3136,-3712,-6432,32,-2303,2025-02-06 17:34:29,7
-16124,-3892,-2656,-5796,-551,-1353,2025-02-06 17:34:29,7
-13840,-4244,-688,-4426,-2892,-1288,2025-02-06 17:34:29,7
-11412,-3824,-288,-2952,-4406,-1959,2025-02-06 17:34:29,7
-10252,-2688,-944,-1834,-4231,-2584,2025-02-06 17:34:29,7
-9988,-2372,-2912,-1375,-2833,-3085,2025-02-06 17:34:29,7
-10744,-1740,-4476,-1534,110,-3364,2025-02-06 17:34:29,7
-12480,-1496,-3816,-1557,2862,-3314,2025-02-06 17:34:29,7
-14296,-1860,-2112,-1322,3675,-2674,2025-02-06 17:34:29,7
-14716,-1808,-1036,-1111,1717,-2239,2025-02-06 17:34:29,7
-14556,-1820,-1696,-1468,-735,-2302,2025-02-06 17:34:29,7
-14296,-1500,-2972,-1852,-1523,-2588,2025-02-06 17:34:29,7
-14200,-1700,-3728,-2062,-1126,-2913,2025-02-06 17:34:29,7
-13944,-1860,-3600,-2430,-620,-3471,2025-02-06 17:34:29,7
-14172,-2584,-3028,-2836,-507,-4081,2025-02-06 17:34:29,7
-14048,-3024,-2336,-3260,-1268,-4554,2025-02-06 17:34:29,7
-13344,-3564,-1864,-3598,-2165,-5010,2025-02-06 17:34:29,7
-12728,-3448,-1752,-3791,-2207,-5370,2025-02-06 17:34:29,7
-12400,-3184,-1840,-3956,-1465,-5298,2025-02-06 17:34:29,7
-11920,-2872,-1912,-4282,-355,-5480,2025-02-06 17:34:29,7
-11920,-2748,-1600,-4690,129,-5984,2025-02-06 17:34:29,7
-12244,-3484,-1564,-5044,-312,-6407,2025-02-06 17:34:29,7
-12684,-4136,-1496,-5184,-829,-6334,2025-02-06 17:34:29,7
-12692,-4544,-1232,-5035,-1145,-5791,2025-02-06 17:34:29,7
-12540,-4252,-1208,-4680,-1186,-4998,2025-02-06 17:34:29,7
-12336,-3924,-1060,-4289,-875,-4125,2025-02-06 17:34:29,7
-11904,-3948,-764,-4230,-821,-3713,2025-02-06 17:34:29,7
-12288,-4356,-436,-4015,-1153,-3501,2025-02-06 17:34:29,7
-12636,-4680,-280,-3518,-1321,-2999,2025-02-06 17:34:29,7
-12492,-4824,-544,-2846,-1267,-2284,2025-02-06 17:34:29,7
-12160,-4840,-712,-2485,-1012,-2040,2025-02-06 17:34:29,7
-11780,-5168,-424,-2096,-709,-1922,2025-02-06 17:34:29,7
-11996,-5212,-252,-1594,-800,-1755,2025-02-06 17:34:29,7
-12708,-5616,-948,-1284,-585,-1282,2025-02-06 17:34:30,7
-12932,-5308,-800,-1342,-431,-1015,2025-02-06 17:34:30,1
-13792,-4240,-356,-1752,-778,-1077,2025-02-06 17:34:30,1
-14516,-3468,468,-2325,-1428,-1123,2025-02-06 17:34:30,1
-14244,-3336,636,-2824,-2674,-1062,2025-02-06 17:34:30,1
-13340,-3432,24,-3032,-3510,-986,2025-02-06 17:34:30,1
-11864,-3440,-1144,-3486,-3149,-757,2025-02-06 17:34:30,1
-10960,-3748,-2136,-4604,-970,-707,2025-02-06 17:34:30,1
-11488,-4520,-1592,-5627,1667,-936,2025-02-06 17:34:30,1
-13412,-5756,72,-6139,2994,-1238,2025-02-06 17:34:30,1
-15540,-6988,1496,-5859,2601,-1234,2025-02-06 17:34:30,1
-17220,-7276,2228,-5254,1081,-416,2025-02-06 17:34:30,1
-16444,-6188,2528,-4578,-614,523,2025-02-06 17:34:30,1
-14968,-6888,-428,-4448,-1361,458,2025-02-06 17:34:30,1
-14880,-7432,-3156,-4271,-1176,-1166,2025-02-06 17:34:30,1
-15832,-8064,-1664,-3214,503,-3279,2025-02-06 17:34:30,1
-17784,-9316,-544,-1444,799,-4429,2025-02-06 17:34:30,1
-19320,-9492,264,1076,-865,-3381,2025-02-06 17:34:30,1
-19092,-9496,-1428,3637,-2413,-1445,2025-02-06 17:34:30,1
-16916,-7308,-4052,4351,-3543,402,2025-02-06 17:34:30,1
-13608,-5828,-5896,3371,-4007,1625,2025-02-06 17:34:30,1
-11252,-5084,-5676,2348,-3926,3089,2025-02-06 17:34:30,1
-10232,-4476,-6152,2015,-3046,4546,2025-02-06 17:34:30,1
-9708,-2272,-6460,1544,-1476,4752,2025-02-06 17:34:30,1
-10700,376,-6116,1016,54,3647,2025-02-06 17:34:30,1
-13252,1600,-5316,673,1820,2952,2025-02-06 17:34:30,1
-15116,84,-4236,1171,2331,4075,2025-02-06 17:34:30,1
-13712,-3028,-4052,1923,1311,5420,2025-02-06 17:34:30,1
-10992,-4960,-3428,2391,-670,4836,2025-02-06 17:34:30,1
-10488,-6436,-3288,2251,984,4131,2025-02-06 17:34:30,1
-11824,-6448,-2184,2653,2432,4564,2025-02-06 17:34:30,1
-12916,-5360,-1664,3719,2672,5672,2025-02-06 17:34:30,1
-13116,-3204,-1420,4802,1322,6716,2025-02-06 17:34:30,1
-12944,-1424,-1840,5482,-67,6876,2025-02-06 17:34:30,1
-12360,-8,-2372,5496,-989,6484,2025-02-06 17:34:30,1
-11672,672,-2124,5385,-1181,6176,2025-02-06 17:34:30,1
-10876,652,-2480,4997,-616,6110,2025-02-06 17:34:30,1
-10056,148,-2052,4651,351,5634,2025-02-06 17:34:30,1
-10088,-288,-1976,4176,1135,4860,2025-02-06 17:34:30,1
-10376,-396,-1636,3586,1544,3754,2025-02-06 17:34:30,1
-10632,-304,-960,3249,1492,2559,2025-02-06 17:34:30,1
-11036,100,-556,3038,955,1463,2025-02-06 17:34:30,1
-11224,448,-540,2760,255,604,2025-02-06 17:34:30,1
-11304,704,-752,2289,-692,-98,2025-02-06 17:34:30,1
-11424,168,-632,1709,-1212,-706,2025-02-06 17:34:30,1
-12052,-676,-224,1148,-981,-1190,2025-02-06 17:34:30,1
-13184,-1028,12,1065,-866,-1351,2025-02-06 17:34:30,1
-14456,-1144,220,1254,-1272,-950,2025-02-06 17:34:30,1
-14776,-924,12,1689,-1545,-213,2025-02-06 17:34:30,1
-14616,-884,-316,2115,-1871,562,2025-02-06 17:34:30,1
-14356,-720,-676,2314,-1765,1620,2025-02-06 17:34:30,1
-13556,-1780,-948,2540,-812,2145,2025-02-06 17:34:30,1
-13448,-2988,-524,3152,531,2015,2025-02-06 17:34:30,1
-15524,-1844,820,3972,1683,2768,2025-02-06 17:34:30,1
-16244,-724,2188,4639,1940,3610,2025-02-06 17:34:30,1
-17480,768,660,5317,1556,3845,2025-02-06 17:34:30,1
-18436,668,-2936,5451,1200,3855,2025-02-06 17:34:30,1
-20020,1144,-5092,4558,133,4248,2025-02-06 17:34:30,1
-20876,2780,-5828,2816,-884,5568,2025-02-06 17:34:30,1
-19476,4012,-6012,460,-1897,6211,2025-02-06 17:34:30,1
-16976,5124,-6956,-2256,-3032,4679,2025-02-06 17:34:30,1
-12500,4852,-6788,-4824,-3303,1341,2025-02-06 17:34:30,1
-10004,1564,-5280,-5863,-3637,-2410,2025-02-06 17:34:30,1
-8800,-1160,-3324,-4794,-3886,-4158,2025-02-06 17:34:31,1
-8268,-3920,-4188,-3364,-2327,-5229,2025-02-06 17:34:31,1
-9692,-5916,-5336,-3456,658,-5280,2025-02-06 17:34:31,1
-12008,-6664,-5832,-4255,4088,-4391,2025-02-06 17:34:31,1
-13828,-4552,-4300,-4034,6933,-3615,2025-02-06 17:34:31,1
-14244,-2368,-3184,-3250,7230,-3987,2025-02-06 17:34:31,1
-13948,-1272,-2588,-3169,5188,-5125,2025-02-06 17:34:31,1
-13940,-500,-2440,-3791,1187,-6142,2025-02-06 17:34:31,1
-13332,28,-2780,-3780,-808,-6462,2025-02-06 17:34:31,1
-11760,-1064,-3172,-3841,-1251,-6507,2025-02-06 17:34:31,1
-11208,-1620,-3488,-4081,-565,-6489,2025-02-06 17:34:31,1
-10868,-1932,-3212,-4451,-89,-6257,2025-02-06 17:34:31,1
-10340,-2696,-2512,-4854,34,-6002,2025-02-06 17:34:31,1
-11140,-3016,-1936,-5100,487,-6074,2025-02-06 17:34:31,1
-11404,-2792,-2084,-4938,726,-5494,2025-02-06 17:34:31,1
-11368,-3152,-2188,-4937,525,-4921,2025-02-06 17:34:31,1
-10660,-4228,-2072,-4792,361,-4440,2025-02-06 17:34:31,1
-11180,-4720,-1424,-4324,1396,-3766,2025-02-06 17:34:31,1
-11664,-4884,-1944,-3700,2532,-2768,2025-02-06 17:34:31,1
-12908,-4480,-1776,-3222,2793,-1795,2025-02-06 17:34:31,1
-13628,-3880,-1952,-2826,1611,-879,2025-02-06 17:34:31,1
-13420,-2932,-1740,-2416,810,-154,2025-02-06 17:34:31,1
-12864,-2192,-1608,-2467,653,182,2025-02-06 17:34:31,1
-12272,-1928,-744,-2561,391,417,2025-02-06 17:34:31,1
-12064,-2084,-916,-2362,119,793,2025-02-06 17:34:31,1
-11740,-3012,-1380,-2428,201,1002,2025-02-06 17:34:31,1
-11548,-4044,-2004,-2515,634,791,2025-02-06 17:34:31,1
-11980,-4672,-2380,-2827,1053,230,2025-02-06 17:34:31,1
-12724,-4436,-1792,-3099,997,-281,2025-02-06 17:34:31,1
-13564,-3272,-1000,-2981,357,-349,2025-02-06 17:34:31,1
-14092,-2032,-1192,-2919,-314,-142,2025-02-06 17:34:31,1
-14184,-2428,-1468,-3035,-603,83,2025-02-06 17:34:31,1
-13912,-3272,-1456,-2941,-694,51,2025-02-06 17:34:31,1
-14524,-3648,-1152,-3013,-1140,-40,2025-02-06 17:34:31,1
-15240,-3044,-172,-3406,-1400,-510,2025-02-06 17:34:31,1
-15072,-2276,480,-3621,-3034,-1520,2025-02-06 17:34:31,1
-14640,-1532,-272,-4076,-2838,-2385,2025-02-06 17:34:31,1
-13244,-1436,-424,-4957,-1329,-2522,2025-02-06 17:34:31,1
-12376,-2952,-1908,-6051,187,-2899,2025-02-06 17:34:31,1
-13696,-4264,-2568,-7120,1850,-4029,2025-02-06 17:34:31,1
-17248,-6044,-1392,-6965,3828,-6114,2025-02-06 17:34:31,1
-19860,-8192,-1788,-5131,3228,-7287,2025-02-06 17:34:31,1
-24008,-7968,-3044,-2310,-2493,-5113,2025-02-06 17:34:31,1
-22048,-9024,-3552,594,-5529,-711,2025-02-06 17:34:31,1
-15756,-7360,-4484,3075,-5772,1987,2025-02-06 17:34:31,1
-10604,-6032,-7484,2576,-5950,2940,2025-02-06 17:34:31,1
-7704,-4268,-8428,314,-5445,3215,2025-02-06 17:34:31,1
-6992,-1784,-7448,-1163,-3436,2842,2025-02-06 17:34:31,1
-8680,1416,-6816,-2110,593,1751,2025-02-06 17:34:31,1
-11972,3040,-5492,-2690,3106,1350,2025-02-06 17:34:31,1
-15056,1908,-4252,-2264,4940,2250,2025-02-06 17:34:31,1
-16092,-1424,-3748,-1069,4377,3764,2025-02-06 17:34:31,1
-13124,-4184,-2896,-321,979,4355,2025-02-06 17:34:31,1
-11040,-5880,-2684,368,-1009,3542,2025-02-06 17:34:31,1
-11764,-5520,-3076,1230,178,3377,2025-02-06 17:34:31,1
-11804,-4452,-2520,2153,1065,3997,2025-02-06 17:34:31,1
-12472,-3044,-2688,3061,668,4397,2025-02-06 17:34:31,1
-12580,-2164,-2012,3873,42,4536,2025-02-06 17:34:31,1
-12772,-856,-1832,4646,-737,4605,2025-02-06 17:34:31,1
-12800,-256,-2532,4987,-416,4820,2025-02-06 17:34:31,1
-12496,-528,-2208,5127,-181,4940,2025-02-06 17:34:31,1
-11452,-1052,-1644,5611,-421,4482,2025-02-06 17:34:32,1
-10920,-1144,-1340,5876,-587,3887,2025-02-06 17:34:32,1
-10540,-704,-1368,5944,-655,3295,2025-02-06 17:34:32,1
-10220,-300,-2020,5709,-320,2675,2025-02-06 17:34:32,1
-10456,428,-2884,5312,808,1755,2025-02-06 17:34:32,1
-11032,684,-3204,4710,1604,916,2025-02-06 17:34:32,1
-12228,416,-3292,4034,1551,441,2025-02-06 17:34:32,1
-13272,-92,-2324,3241,1086,230,2025-02-06 17:34:32,1
-14004,-416,-1780,2811,742,252,2025-02-06 17:34:32,1
-14420,-660,-1532,2529,406,362,2025-02-06 17:34:32,1
-14284,-760,-1268,2375,-207,576,2025-02-06 17:34:32,1
-13304,-408,-1288,2416,-924,453,2025-02-06 17:34:32,1
-12224,144,-2268,2428,-1961,225,2025-02-06 17:34:32,1
-11348,704,-2732,2275,-2543,-160,2025-02-06 17:34:32,1
-9908,-160,-2380,1980,-1826,-1139,2025-02-06 17:34:32,1
-10840,-952,-1580,2149,97,-1582,2025-02-06 17:34:32,1
-11660,-1488,-1088,2721,2305,-1687,2025-02-06 17:34:32,1
-12960,-1092,-1640,3009,3184,-1815,2025-02-06 17:34:32,1
-14020,-632,-1564,2890,2653,-1735,2025-02-06 17:34:32,1
-15448,-624,-1024,2907,1649,-1090,2025-02-06 17:34:32,1
-15276,-1424,236,3364,1165,-525,2025-02-06 17:34:32,1
-15468,-1652,652,3810,978,-162,2025-02-06 17:34:32,1
-15500,-1408,328,3834,1256,650,2025-02-06 17:34:32,1
-15088,-876,120,4201,1410,1305,2025-02-06 17:34:32,1
-15608,-296,-700,4262,2031,2196,2025-02-06 17:34:32,1
-16668,-148,-2088,4365,2128,2842,2025-02-06 17:34:32,1
-18020,-488,-3540,3928,2082,3175,2025-02-06 17:34:32,1
-19108,884,-4196,2706,1902,3885,2025-02-06 17:34:32,1
-18712,1964,-5704,1597,366,4358,2025-02-06 17:34:32,1
-17284,3052,-7564,159,-1114,4034,2025-02-06 17:34:32,1
-14016,3492,-6952,-1891,-1227,2183,2025-02-06 17:34:32,1
-11288,1292,-4904,-3057,-1731,-2063,2025-02-06 17:34:32,1
-10592,-924,-5280,-2715,-2881,-2709,2025-02-06 17:34:32,1
-8920,-3848,-5884,-2522,-3082,-3919,2025-02-06 17:34:32,1
-8408,-5732,-5196,-2276,-1849,-5232,2025-02-06 17:34:32,1
-9420,-7016,-4924,-1845,-43,-5601,2025-02-06 17:34:32,1
-10908,-6984,-4816,-1579,1183,-4632,2025-02-06 17:34:32,1
-12012,-4948,-4472,-756,2853,-3120,2025-02-06 17:34:32,1
-12036,-2612,-4772,-61,4931,-2378,2025-02-06 17:34:32,1
-12132,-1528,-5156,-576,5677,-2456,2025-02-06 17:34:32,1
-13012,-1300,-5212,-1574,5265,-2604,2025-02-06 17:34:32,1
-13584,-1520,-5472,-2036,4641,-3329,2025-02-06 17:34:32,1
-14540,-1772,-5896,-2528,3441,-3759,2025-02-06 17:34:32,1
-14516,-1912,-5672,-2672,1918,-3872,2025-02-06 17:34:32,1
-13504,-1916,-5092,-2888,320,-3865,2025-02-06 17:34:32,1
-12352,-2268,-4924,-3250,-604,-4001,2025-02-06 17:34:32,1
-11568,-3116,-4996,-3567,-460,-4289,2025-02-06 17:34:32,1
-11100,-3488,-4340,-3663,552,-4279,2025-02-06 17:34:32,1
-11128,-3648,-3616,-3475,1363,-4152,2025-02-06 17:34:32,1
-11344,-3756,-3424,-3237,1612,-3919,2025-02-06 17:34:32,1
-11872,-3840,-3328,-2824,1828,-3385,2025-02-06 17:34:32,1
-12264,-3792,-3536,-2580,1837,-2894,2025-02-06 17:34:32,1
-12468,-3528,-3580,-2301,1566,-2369,2025-02-06 17:34:32,1
-12668,-3264,-3912,-2114,935,-1915,2025-02-06 17:34:32,1
-12592,-3184,-4188,-1965,505,-1433,2025-02-06 17:34:32,1
-12116,-3300,-4140,-1860,423,-1100,2025-02-06 17:34:32,1
-11936,-3376,-3836,-1748,525,-827,2025-02-06 17:34:32,1
-12304,-3268,-3616,-1618,888,-662,2025-02-06 17:34:32,1
-12820,-3336,-3608,-1585,986,-554,2025-02-06 17:34:32,1
-13472,-3428,-3920,-1500,416,-445,2025-02-06 17:34:32,1
-14008,-3204,-3840,-1352,-485,-81,2025-02-06 17:34:33,1
-13724,-2796,-3916,-1354,-1347,240,2025-02-06 17:34:33,1
-12864,-3164,-4100,-1621,-1830,444,2025-02-06 17:34:33,1
-12208,-3384,-4420,-1708,-1650,661,2025-02-06 17:34:33,1
-11956,-3532,-3952,-1472,-1030,1008,2025-02-06 17:34:33,1
-11456,-3340,-4216,-1428,-401,1046,2025-02-06 17:34:33,1
-11900,-2668,-4236,-2087,-51,880,2025-02-06 17:34:33,1
-12276,-2284,-3656,-2634,6,869,2025-02-06 17:34:33,1
-12500,-2348,-4068,-2976,-859,942,2025-02-06 17:34:33,1
-12588,-2548,-4904,-3570,-1448,826,2025-02-06 17:34:33,1
-12708,-2512,-4708,-3933,-1777,908,2025-02-06 17:34:33,1
-12660,-2476,-4352,-4170,-1782,1330,2025-02-06 17:34:33,1
-12420,-2732,-4052,-4040,-1466,1756,2025-02-06 17:34:33,1
-12212,-3288,-4400,-3611,-1104,1889,2025-02-06 17:34:33,1
-12264,-3844,-4720,-2992,-467,1493,2025-02-06 17:34:33,1
-12388,-3924,-5196,-2364,355,545,2025-02-06 17:34:33,1
-12684,-3952,-5396,-2075,395,-195,2025-02-06 17:34:33,1
-13104,-2852,-4968,-1644,216,-205,2025-02-06 17:34:33,1
-12900,-1868,-4820,-1661,88,325,2025-02-06 17:34:33,1
-12136,-1364,-4464,-1993,433,836,2025-02-06 17:34:33,1
-11912,-888,-4480,-2435,1430,1045,2025-02-06 17:34:33,1
-12192,-584,-4040,-2796,2017,807,2025-02-06 17:34:33,1
-12728,-1132,-3744,-2829,1933,124,2025-02-06 17:34:33,1
-13568,-2396,-3468,-2456,1620,-213,2025-02-06 17:34:33,1
-14204,-2756,-3088,-1978,1304,-277,2025-02-06 17:34:33,1
-14168,-1928,-2408,-1756,512,-169,2025-02-06 17:34:33,1
-14028,-1348,-2352,-1574,-455,-173,2025-02-06 17:34:33,1
-13484,-1184,-2292,-1143,-1117,-157,2025-02-06 17:34:33,1
-12364,-868,-2852,-952,-1054,-440,2025-02-06 17:34:33,1
-11948,-292,-3368,-1102,-666,-814,2025-02-06 17:34:33,1
-12216,212,-3708,-1061,-251,-991,2025-02-06 17:34:33,1
-13052,80,-4636,-1295,506,-803,2025-02-06 17:34:33,1
-13508,-1092,-3632,-1337,1284,-578,2025-02-06 17:34:33,1
-14336,-2876,-2708,-994,634,-699,2025-02-06 17:34:33,1
-14576,-2908,-1700,-146,-955,-253,2025-02-06 17:34:33,1
-13144,-2048,-2736,594,-1818,-35,2025-02-06 17:34:33,1
-12244,-984,-3920,548,-1203,-159,2025-02-06 17:34:33,1
-11848,-364,-4276,498,109,-76,2025-02-06 17:34:33,1
-11848,-420,-4568,188,1143,-41,2025-02-06 17:34:33,1
-12488,-756,-3992,138,1544,-42,2025-02-06 17:34:33,1
-13116,-984,-3632,221,1335,-126,2025-02-06 17:34:33,1
-13424,-1016,-3384,254,676,-260,2025-02-06 17:34:33,1
-13544,-1064,-3228,197,36,-310,2025-02-06 17:34:33,1
-13232,-984,-3528,297,-265,-206,2025-02-06 17:34:33,1
-12720,-1060,-4200,83,-206,-199,2025-02-06 17:34:33,1
-12756,-1052,-4248,-109,386,-277,2025-02-06 17:34:33,1
-12824,-1100,-3880,-226,786,-316,2025-02-06 17:34:33,1
-13004,-1400,-3436,-369,563,-334,2025-02-06 17:34:33,1
-12896,-1620,-3396,-234,225,-345,2025-02-06 17:34:33,1
-12852,-1708,-3532,-99,-88,-303,2025-02-06 17:34:33,1
-12728,-1628,-3872,-38,-120,-240,2025-02-06 17:34:33,1
-12892,-1616,-4308,-27,215,-240,2025-02-06 17:34:33,1
-13096,-1488,-4204,-45,359,-384,2025-02-06 17:34:33,1
-13484,-1236,-4060,-97,321,-253,2025-02-06 17:34:33,1
-13556,-1132,-4600,-185,-469,-220,2025-02-06 17:34:33,1
-13476,-856,-4700,-289,-1313,-189,2025-02-06 17:34:33,1
-13076,-1012,-4676,-471,-2150,-103,2025-02-06 17:34:33,1
-12208,-1364,-4224,-386,-2739,93,2025-02-06 17:34:33,1
-10940,-1396,-4308,-92,-3193,131,2025-02-06 17:34:34,1
-10000,-1540,-5280,-115,-3282,-47,2025-02-06 17:34:34,1
-9684,-1540,-5528,-519,-2646,-225,2025-02-06 17:34:34,1
-9532,-1308,-5268,-913,-1818,-415,2025-02-06 17:34:34,1
-9908,-1240,-4864,-1282,-1206,-454,2025-02-06 17:34:34,1
-8800,-1100,-3272,-1510,-1119,-12,2025-02-06 17:34:34,1
-7396,-1236,-1240,-1301,-1351,495,2025-02-06 17:34:34,1
-5964,-1588,-688,-1116,-1308,549,2025-02-06 17:34:34,1
-5424,-1844,-1328,-1181,-376,285,2025-02-06 17:34:34,1
-5804,-2784,-1376,-1411,2270,-405,2025-02-06 17:34:34,1
-8132,-2840,1360,-1084,843,-613,2025-02-06 17:34:34,3
-9632,-2600,2068,-242,-1335,-510,2025-02-06 17:34:34,3
-9864,-2204,1520,316,-3018,-289,2025-02-06 17:34:34,3
-8512,-2320,-8,497,-2378,-582,2025-02-06 17:34:34,3
-8584,-2428,988,947,-3188,-929,2025-02-06 17:34:34,3
-9008,-1932,628,1276,-4582,-1007,2025-02-06 17:34:34,3
-9496,-1532,616,1106,-5612,-1152,2025-02-06 17:34:34,3
-9716,-1972,1064,1367,-6327,-1281,2025-02-06 17:34:34,3
-9764,-1824,592,1628,-7270,-1546,2025-02-06 17:34:34,3
-10860,-1404,528,1723,-9219,-1424,2025-02-06 17:34:34,3
-11072,-1012,-348,1755,-9821,-1085,2025-02-06 17:34:34,3
-11264,-1460,-932,1524,-9059,-629,2025-02-06 17:34:34,3
-11412,-2340,-380,1172,-8788,-921,2025-02-06 17:34:34,3
-12156,-2240,1416,823,-8870,-1615,2025-02-06 17:34:34,3
-18756,744,2372,400,-6474,-2417,2025-02-06 17:34:34,3
-32768,940,-1972,341,2602,3251,2025-02-06 17:34:34,3
-21752,-5768,4704,-679,711,8833,2025-02-06 17:34:34,3
-15120,-3284,1768,1439,-18022,8581,2025-02-06 17:34:34,3
-12056,-1988,-1240,2451,-21889,6961,2025-02-06 17:34:34,3
-9484,-552,-140,1313,-18782,4956,2025-02-06 17:34:34,3
-8088,1072,3068,881,-18342,4035,2025-02-06 17:34:34,3
-9688,1476,1528,250,-13646,2676,2025-02-06 17:34:34,3
-11244,36,4496,-156,-8824,1009,2025-02-06 17:34:34,3
-14908,-1348,5320,-43,-8265,1085,2025-02-06 17:34:34,3
-16500,-1144,5840,269,-8107,636,2025-02-06 17:34:34,3
-17116,-288,4920,4,-9127,420,2025-02-06 17:34:34,3
-16740,288,5540,-304,-9815,475,2025-02-06 17:34:34,3
-15748,368,6496,-608,-9985,590,2025-02-06 17:34:34,3
-15240,-668,6588,-779,-9903,406,2025-02-06 17:34:34,3
-15412,-1788,6684,-859,-8756,189,2025-02-06 17:34:34,3
-15768,-2244,6744,-767,-7697,14,2025-02-06 17:34:34,3
-16612,-1772,7440,-806,-7197,121,2025-02-06 17:34:34,3
-17848,40,7888,-1207,-7138,199,2025-02-06 17:34:34,3
-18196,876,8920,-1950,-7796,14,2025-02-06 17:34:34,3
-17744,1124,10364,-2660,-9156,-220,2025-02-06 17:34:34,3
-16604,-32,10856,-2795,-9049,-167,2025-02-06 17:34:34,3
-15624,-1660,11544,-2475,-7791,51,2025-02-06 17:34:34,3
-16832,-2248,11796,-2089,-6063,340,2025-02-06 17:34:34,3
-17796,-1764,11520,-1782,-5390,591,2025-02-06 17:34:34,3
-18344,-1164,11388,-1533,-5181,550,2025-02-06 17:34:34,3
-17776,-856,11544,-1147,-4329,569,2025-02-06 17:34:34,3
-16628,-1256,11412,-1079,-2919,395,2025-02-06 17:34:34,3
-16508,-896,11152,-1023,-1255,257,2025-02-06 17:34:34,3
-16464,-328,10872,-1293,458,478,2025-02-06 17:34:34,3
-15832,-520,10256,-1623,1295,464,2025-02-06 17:34:34,3
-15212,-1448,9684,-1713,1002,140,2025-02-06 17:34:34,3
-14252,-2076,9104,-1415,230,-102,2025-02-06 17:34:34,3
-12956,-1408,8572,-1055,147,-168,2025-02-06 17:34:34,3
-11916,-568,8452,-954,714,-132,2025-02-06 17:34:34,3
-11228,-612,8096,-960,1183,-96,2025-02-06 17:34:34,3
-10852,-612,8172,-858,1310,-55,2025-02-06 17:34:34,3
-10548,-324,8196,-609,1474,48,2025-02-06 17:34:34,3
-10520,-112,8024,-314,1543,191,2025-02-06 17:34:34,3
-10380,84,8076,-203,1219,285,2025-02-06 17:34:34,3
-10240,-108,8012,-107,593,269,2025-02-06 17:34:35,3
-10404,-348,8468,27,-168,131,2025-02-06 17:34:35,3
-10432,-408,8640,146,-721,-60,2025-02-06 17:34:35,3
-10664,-692,8668,320,-983,-227,2025-02-06 17:34:35,3
-11252,-668,8828,506,-1179,-193,2025-02-06 17:34:35,3
-11292,-252,8664,495,-1277,-144,2025-02-06 17:34:35,3
-11548,120,8912,330,-1113,-69,2025-02-06 17:34:35,3
-11644,160,8796,156,-926,-39,2025-02-06 17:34:35,3
-12356,-108,8956,52,-658,114,2025-02-06 17:34:35,3
-13024,-668,9020,-69,-513,292,2025-02-06 17:34:35,3
-13556,-800,9488,24,-981,346,2025-02-06 17:34:35,3
-13604,-868,9884,83,-1303,113,2025-02-06 17:34:35,3
-13708,-752,9976,122,-1106,-119,2025-02-06 17:34:35,3
-13724,-352,9884,106,-676,-205,2025-02-06 17:34:35,3
-13688,-120,9944,42,-315,-181,2025-02-06 17:34:35,3
-13396,52,9612,-73,26,-116,2025-02-06 17:34:35,3
-13232,-264,9468,-136,233,-76,2025-02-06 17:34:35,3
-12860,-432,9408,-102,352,-7,2025-02-06 17:34:35,3
-12668,-556,9348,-50,397,-6,2025-02-06 17:34:35,3
-12348,-908,9508,99,388,-31,2025-02-06 17:34:35,3
-11960,-976,9400,200,321,-107,2025-02-06 17:34:35,3
-11460,-972,9432,315,284,-250,2025-02-06 17:34:35,3
-11212,-772,9220,338,444,-471,2025-02-06 17:34:35,3
-11420,-152,9196,186,580,-544,2025-02-06 17:34:35,3
-11584,-4,9428,-33,836,-440,2025-02-06 17:34:35,3
-11300,-288,9612,-128,1588,-323,2025-02-06 17:34:35,3
-12076,-924,10924,-170,2420,-562,2025-02-06 17:34:35,3
-13376,-1884,11832,3,4335,-1085,2025-02-06 17:34:35,3
-14504,-1828,12368,51,7328,-1766,2025-02-06 17:34:35,3
-17260,-1072,12444,-159,10388,-2487,2025-02-06 17:34:35,3
-21548,-544,12812,-82,11595,-2615,2025-02-06 17:34:35,3
-24404,92,11124,-62,11903,-1869,2025-02-06 17:34:35,3
-24772,-580,8968,-579,12527,-1598,2025-02-06 17:34:35,3
-25136,-2536,9276,-1356,12335,-1402,2025-02-06 17:34:35,3
-24248,-3312,9548,-1716,11009,-774,2025-02-06 17:34:35,3
-21840,-2960,10368,-1355,10247,-219,2025-02-06 17:34:35,3
-19360,-1736,10212,-1075,10171,-149,2025-02-06 17:34:35,3
-18032,-264,9632,-1213,10561,-259,2025-02-06 17:34:35,3
-16864,12,8588,-1220,10662,-396,2025-02-06 17:34:35,3
-15916,-424,7212,-1086,10596,-519,2025-02-06 17:34:35,3
-14896,-1076,6240,-747,10339,-705,2025-02-06 17:34:35,3
-14628,-1344,5396,-476,9943,-660,2025-02-06 17:34:35,3
-14236,-1264,4568,-22,9863,-127,2025-02-06 17:34:35,3
-14456,-952,4228,253,10070,358,2025-02-06 17:34:35,3
-13720,-1008,3532,173,10240,683,2025-02-06 17:34:35,3
-11156,-960,1648,219,9572,1068,2025-02-06 17:34:35,3
-11708,-832,584,62,8735,1142,2025-02-06 17:34:35,3
-11244,-700,-88,15,8282,642,2025-02-06 17:34:35,3
-11684,-444,-656,102,8932,101,2025-02-06 17:34:35,3
-13108,172,-372,57,10209,-94,2025-02-06 17:34:35,3
-13612,528,-528,-192,10643,-122,2025-02-06 17:34:35,3
-13544,372,-860,-685,10876,-230,2025-02-06 17:34:35,3
-13132,-336,-476,-1214,11167,-382,2025-02-06 17:34:35,3
-12528,-1024,-240,-1210,11018,-317,2025-02-06 17:34:35,3
-11696,-1356,244,-913,9582,101,2025-02-06 17:34:35,3
-11192,-1452,408,-541,8626,572,2025-02-06 17:34:35,3
-10360,-1356,-20,-456,8162,909,2025-02-06 17:34:35,3
-9856,-1016,-864,-548,7463,1085,2025-02-06 17:34:35,3
-9368,-988,-852,-460,7292,1290,2025-02-06 17:34:35,3
-8968,-1228,-304,-280,6948,1504,2025-02-06 17:34:36,3
-7804,-708,-192,97,4837,1359,2025-02-06 17:34:36,3
-8368,-396,-372,363,2566,1165,2025-02-06 17:34:36,3
-8060,108,-860,611,727,564,2025-02-06 17:34:36,3
-8372,288,-968,461,457,383,2025-02-06 17:34:36,3
-8428,412,-948,294,273,412,2025-02-06 17:34:36,3
-7632,696,-144,396,-962,250,2025-02-06 17:34:36,3
-6552,928,-356,924,-2633,-165,2025-02-06 17:34:36,3
-6132,308,-1660,795,-2985,-606,2025-02-06 17:34:36,3
-5936,-568,-2016,166,-2148,-857,2025-02-06 17:34:36,3
-5828,-1596,-1676,-140,-793,-1128,2025-02-06 17:34:36,3
-6080,-2216,-1796,66,372,-1684,2025-02-06 17:34:36,3
-7476,-1924,-1528,708,1756,-2023,2025-02-06 17:34:36,3
-8916,-1428,-1932,1222,3072,-2155,2025-02-06 17:34:36,3
-9908,-1840,-2596,1233,4424,-2486,2025-02-06 17:34:36,3
-13612,-2752,-2752,1317,3732,-3061,2025-02-06 17:34:36,3
-12368,-2100,-4972,1071,3941,-3822,2025-02-06 17:34:36,3
-15768,-1868,-4244,1228,3498,-3427,2025-02-06 17:34:36,3
-17628,-1224,-2900,1407,3189,-1511,2025-02-06 17:34:36,3
-15984,-1272,-928,2139,1264,787,2025-02-06 17:34:36,3
-14152,-1444,-1456,3572,-1527,502,2025-02-06 17:34:36,3
-12848,-1844,-2976,3848,-1786,206,2025-02-06 17:34:36,3
-12044,-2152,-4116,3763,-49,-190,2025-02-06 17:34:36,3
-12708,-1588,-4312,3537,2194,-110,2025-02-06 17:34:36,3
-13192,-588,-3452,3416,2664,-74,2025-02-06 17:34:36,3
-14176,240,-3212,3091,1552,-110,2025-02-06 17:34:36,3
-14788,476,-3476,2362,-91,-88,2025-02-06 17:34:36,3
-14464,216,-3420,1850,-1094,123,2025-02-06 17:34:36,3
-13512,52,-3716,1530,-1577,238,2025-02-06 17:34:36,3
-12676,148,-4020,1107,-1155,132,2025-02-06 17:34:36,3
-12184,424,-4564,329,293,-216,2025-02-06 17:34:36,3
-12176,836,-4672,-525,1365,-555,2025-02-06 17:34:36,3
-12772,1216,-4688,-1469,2053,-715,2025-02-06 17:34:36,3
-13372,836,-4020,-2189,2253,-608,2025-02-06 17:34:36,3
-13512,216,-3584,-2483,1504,-537,2025-02-06 17:34:36,3
-13444,32,-3512,-2959,63,-859,2025-02-06 17:34:36,3
-12952,-100,-3036,-3275,-763,-1235,2025-02-06 17:34:36,7
-12580,-300,-3344,-3624,-545,-1552,2025-02-06 17:34:36,7
-12564,-176,-2900,-4095,429,-1939,2025-02-06 17:34:36,7
-12928,56,-2684,-4300,946,-2278,2025-02-06 17:34:36,7
-13448,368,-2916,-4581,680,-2513,2025-02-06 17:34:36,7
-13744,572,-3108,-4978,-141,-2555,2025-02-06 17:34:36,7
-14312,256,-3964,-5464,-1018,-2374,2025-02-06 17:34:36,7
-13820,-296,-3548,-5658,-1597,-2146,2025-02-06 17:34:36,7
-12640,-540,-2904,-5670,-2344,-2342,2025-02-06 17:34:36,7
-11964,-432,-3656,-5793,-2431,-2737,2025-02-06 17:34:36,7
-11804,-16,-4988,-6353,-1700,-3254,2025-02-06 17:34:36,7
-12276,372,-5724,-7266,-263,-3985,2025-02-06 17:34:36,7
-13268,-244,-5024,-8449,917,-4712,2025-02-06 17:34:36,7
-13428,-1272,-3548,-9318,818,-5274,2025-02-06 17:34:36,7
-13300,-1844,-2676,-9690,-699,-5219,2025-02-06 17:34:36,7
-14044,-1936,-2460,-10099,-2752,-4381,2025-02-06 17:34:36,7
-13324,-1836,-2760,-10583,-3660,-3872,2025-02-06 17:34:36,7
-13072,-2400,-3088,-11277,-3318,-3953,2025-02-06 17:34:36,7
-12764,-2696,-2932,-11992,-2790,-4297,2025-02-06 17:34:36,7
-12764,-2888,-3236,-12694,-2649,-4751,2025-02-06 17:34:36,7
-13064,-2604,-3360,-13407,-2870,-5236,2025-02-06 17:34:36,7
-13628,-1684,-3080,-14081,-3148,-5181,2025-02-06 17:34:36,7
-13676,-1332,-2984,-15034,-2821,-5010,2025-02-06 17:34:36,7
-13256,-1808,-2808,-15809,-2560,-5293,2025-02-06 17:34:36,7
-12980,-2328,-3332,-16327,-2816,-5697,2025-02-06 17:34:36,7
-12584,-3100,-3624,-16576,-2907,-5864,2025-02-06 17:34:36,7
-12416,-3624,-3288,-16666,-2818,-5363,2025-02-06 17:34:37,7
-11828,-3848,-3500,-16671,-2048,-4829,2025-02-06 17:34:37,7
-11528,-4472,-3300,-16869,-1239,-4926,2025-02-06 17:34:37,7
-12200,-4372,-2816,-16632,-761,-4939,2025-02-06 17:34:37,7
-12576,-4740,-3080,-16162,-394,-4849,2025-02-06 17:34:37,7
-13496,-4508,-3368,-15854,-133,-4578,2025-02-06 17:34:37,7
-13712,-3776,-2756,-15784,-405,-4081,2025-02-06 17:34:37,7
-13468,-3960,-3388,-15397,-489,-3767,2025-02-06 17:34:37,7
-13788,-3692,-3912,-15184,-1267,-3857,2025-02-06 17:34:37,7
-13776,-4048,-3800,-14986,-1956,-3666,2025-02-06 17:34:37,7
-13604,-4508,-3384,-14647,-2545,-3559,2025-02-06 17:34:37,7
-13056,-5100,-2656,-14289,-2978,-3649,2025-02-06 17:34:37,7
-12900,-5420,-2008,-13876,-3196,-3679,2025-02-06 17:34:37,7
-12652,-4804,-1800,-13750,-3144,-3696,2025-02-06 17:34:37,7
-12672,-3704,-1144,-13899,-2854,-3911,2025-02-06 17:34:37,7
-12696,-2768,-1208,-14440,-2700,-4006,2025-02-06 17:34:37,7
-13080,-2792,-1588,-14854,-2918,-3971,2025-02-06 17:34:37,7
-13244,-2576,-1912,-15006,-3261,-3732,2025-02-06 17:34:37,7
-13144,-2616,-2024,-15412,-2959,-3109,2025-02-06 17:34:37,7
-12740,-2588,-2132,-16051,-2743,-2372,2025-02-06 17:34:37,7
-12296,-3148,-2128,-16305,-2824,-2052,2025-02-06 17:34:37,7
-12492,-3364,-2712,-16454,-2434,-1686,2025-02-06 17:34:37,7
-12716,-3548,-2796,-16612,-1873,-1161,2025-02-06 17:34:37,7
-12652,-4124,-2276,-16447,-1167,-748,2025-02-06 17:34:37,7
-13076,-4732,-2020,-15724,-484,-297,2025-02-06 17:34:37,7
-13080,-5376,-2768,-14588,-607,56,2025-02-06 17:34:37,7
-13060,-5948,-4416,-12983,-1150,102,2025-02-06 17:34:37,7
-12964,-6316,-6388,-11898,-646,-378,2025-02-06 17:34:37,7
-13672,-4572,-6816,-10945,1042,-1588,2025-02-06 17:34:37,7
-14404,-1112,-5192,-10521,461,-1565,2025-02-06 17:34:37,7
-14188,1848,-2636,-10283,-1210,-230,2025-02-06 17:34:37,7
-11864,1004,-2100,-9406,-1641,1006,2025-02-06 17:34:37,7
-9508,-248,-4612,-8979,687,870,2025-02-06 17:34:37,7
-9656,-200,-6288,-10236,4423,-1045,2025-02-06 17:34:37,7
-11964,-164,-5552,-11985,7287,-2874,2025-02-06 17:34:37,7
-14412,176,-3632,-12504,7284,-3615,2025-02-06 17:34:37,7
-15448,884,-2696,-12471,4534,-3528,2025-02-06 17:34:37,7
-15036,2108,-2300,-12246,758,-3229,2025-02-06 17:34:37,7
-13340,2992,-3708,-12859,-2657,-3293,2025-02-06 17:34:37,7
-12188,3276,-5396,-14448,-3056,-3618,2025-02-06 17:34:37,7
-12028,3496,-6456,-16584,-1499,-4315,2025-02-06 17:34:37,7
-12692,1984,-6456,-18162,1061,-4745,2025-02-06 17:34:37,7
-14268,300,-5392,-18671,2460,-4287,2025-02-06 17:34:37,7
-14940,-912,-4204,-18656,1926,-3195,2025-02-06 17:34:37,7
-14688,-892,-2788,-18080,128,-2212,2025-02-06 17:34:37,7
-13164,-636,-2264,-17226,-2075,-1997,2025-02-06 17:34:37,7
-11676,-200,-2932,-16505,-3259,-2493,2025-02-06 17:34:37,7
-10760,256,-4204,-16017,-2389,-3205,2025-02-06 17:34:37,7
-10216,328,-4472,-15840,-90,-3920,2025-02-06 17:34:37,7
-10808,172,-4632,-15930,1867,-4547,2025-02-06 17:34:37,7
-11620,192,-4416,-16016,2578,-4694,2025-02-06 17:34:37,7
-12452,460,-4164,-15710,1923,-4742,2025-02-06 17:34:37,7
-13232,588,-4292,-15369,1559,-4481,2025-02-06 17:34:37,7
-13808,880,-4128,-15010,1539,-4347,2025-02-06 17:34:37,7
-14052,788,-4692,-14651,928,-4392,2025-02-06 17:34:37,7
-13948,308,-4504,-14310,204,-4403,2025-02-06 17:34:37,7
-13516,64,-3844,-13791,-743,-4329,2025-02-06 17:34:37,7
-12992,-80,-3676,-13192,-1491,-4130,2025-02-06 17:34:37,7
-12700,-292,-4248,-12802,-1344,-4004,2025-02-06 17:34:37,7
-12628,-676,-4400,-12552,-1213,-4103,2025-02-06 17:34:37,7
-13140,-756,-3172,-12079,-1047,-4249,2025-02-06 17:34:38,7
-13404,-600,-2516,-11407,-1428,-4359,2025-02-06 17:34:38,7
-13528,-232,-2220,-10650,-2420,-4446,2025-02-06 17:34:38,7
-12892,-160,-2128,-10174,-3608,-4372,2025-02-06 17:34:38,7
-12152,-92,-2140,-10064,-4402,-4586,2025-02-06 17:34:38,7
-11460,260,-2420,-10168,-4262,-4787,2025-02-06 17:34:38,7
-11432,12,-3228,-10204,-3328,-4891,2025-02-06 17:34:38,7
-12400,-1336,-4728,-10725,-534,-5073,2025-02-06 17:34:38,7
-13428,-2692,-3616,-11088,2222,-5189,2025-02-06 17:34:38,7
-14232,-3336,-2044,-10355,2205,-5291,2025-02-06 17:34:38,7
-15420,-3104,-2000,-8566,356,-4647,2025-02-06 17:34:38,7
-15376,-2040,-2908,-6904,-1546,-3134,2025-02-06 17:34:38,7
-13028,-772,-3500,-6265,-2101,-2760,2025-02-06 17:34:38,7
-11660,-1040,-3892,-6443,-1175,-3394,2025-02-06 17:34:38,7
-11936,-2048,-3668,-6802,667,-3984,2025-02-06 17:34:38,7
-13008,-2632,-2660,-6300,1820,-3999,2025-02-06 17:34:38,7
-13836,-2588,-2464,-5373,1284,-3334,2025-02-06 17:34:38,7
-13064,-2448,-2392,-4661,-378,-2615,2025-02-06 17:34:38,7
-11576,-2588,-2916,-4371,-1054,-2071,2025-02-06 17:34:38,7
-10848,-2688,-3156,-4534,175,-1704,2025-02-06 17:34:38,7
-11584,-2980,-3484,-4796,2384,-1691,2025-02-06 17:34:38,7
-13320,-3040,-2608,-4662,3425,-1734,2025-02-06 17:34:38,7
-15032,-2904,-1988,-3803,2499,-1518,2025-02-06 17:34:38,7
-15804,-2828,-1556,-2804,452,-750,2025-02-06 17:34:38,7
-14976,-2716,-1664,-1677,-1480,11,2025-02-06 17:34:38,7
-13376,-2892,-2176,-989,-2403,231,2025-02-06 17:34:38,7
-11512,-3116,-2620,-711,-2044,90,2025-02-06 17:34:38,7
-10624,-3236,-2816,-333,-1002,-252,2025-02-06 17:34:38,7
-10564,-2796,-2916,-3,329,-411,2025-02-06 17:34:38,7
-11468,-1968,-3388,44,1943,-485,2025-02-06 17:34:38,7
-12844,-336,-3168,141,3352,-1039,2025-02-06 17:34:38,7
-14060,252,-3716,-161,3098,-1603,2025-02-06 17:34:38,1
-14988,-180,-4000,-492,2362,-1519,2025-02-06 17:34:38,1
-15088,-788,-4344,-830,2319,-865,2025-02-06 17:34:38,1
-14936,-1692,-4496,-1225,2222,-385,2025-02-06 17:34:38,1
-14680,-2104,-3628,-1295,1642,-113,2025-02-06 17:34:38,1
-14576,-2132,-2696,-1098,568,44,2025-02-06 17:34:38,1
-14328,-1860,-1924,-712,-654,244,2025-02-06 17:34:38,1
-13584,-1468,-1824,-80,-1614,601,2025-02-06 17:34:38,1
-12688,-1400,-2036,291,-1678,655,2025-02-06 17:34:38,1
-11784,-1356,-1996,363,-866,379,2025-02-06 17:34:38,1
-11524,-1468,-2028,431,509,-30,2025-02-06 17:34:38,1
-11912,-1548,-1912,613,1670,-287,2025-02-06 17:34:38,1
-12560,-1244,-1788,765,2346,-398,2025-02-06 17:34:38,1
-13096,-940,-2192,874,2276,-509,2025-02-06 17:34:38,1
-13764,-668,-2560,809,1750,-564,2025-02-06 17:34:38,1
-13752,-604,-3172,545,1213,-752,2025-02-06 17:34:38,1
-13584,-568,-3556,207,1244,-983,2025-02-06 17:34:38,1
-13372,-696,-4040,-117,1414,-1190,2025-02-06 17:34:38,1
-13632,-620,-4304,-474,1305,-1385,2025-02-06 17:34:38,1
-13840,-508,-4312,-865,952,-1559,2025-02-06 17:34:38,1
-14004,-740,-4280,-1039,439,-1711,2025-02-06 17:34:38,1
-13888,-1104,-4448,-1230,-396,-1880,2025-02-06 17:34:38,1
-13596,-1588,-4400,-1132,-1210,-2095,2025-02-06 17:34:38,1
-13064,-1924,-4032,-616,-1272,-2529,2025-02-06 17:34:38,1
-13084,-2184,-3864,-294,-1028,-2977,2025-02-06 17:34:38,1
-12916,-2180,-2684,-283,-1501,-3108,2025-02-06 17:34:38,1
-12888,-2624,-2320,9,-1386,-3413,2025-02-06 17:34:38,1
-13384,-2716,-1732,182,-1679,-3288,2025-02-06 17:34:38,1
-13228,-2392,-1492,-17,-2196,-2583,2025-02-06 17:34:38,1
-12976,-1888,-1040,-396,-1941,-2308,2025-02-06 17:34:38,1
-12524,-1400,-844,-1106,-1591,-2615,2025-02-06 17:34:39,1
-12772,-968,-968,-1901,-982,-2950,2025-02-06 17:34:39,1
-12620,-1480,-1332,-2597,-50,-3557,2025-02-06 17:34:39,1
-12756,-1904,-1736,-3148,854,-4282,2025-02-06 17:34:39,1
-12932,-2368,-1752,-3516,1614,-4896,2025-02-06 17:34:39,1
-13364,-2828,-624,-3608,1075,-5343,2025-02-06 17:34:39,1
-13836,-3224,-968,-3618,88,-4984,2025-02-06 17:34:39,1
-13572,-3696,-776,-3398,-939,-4143,2025-02-06 17:34:39,1
-12712,-3952,-856,-2855,-1508,-3871,2025-02-06 17:34:39,1
-12436,-3768,-1196,-3101,-1547,-2986,2025-02-06 17:34:39,1
-12056,-3536,-728,-3424,-962,-2388,2025-02-06 17:34:39,1
-12000,-3080,-348,-3590,-519,-1879,2025-02-06 17:34:39,1
-12548,-2808,-476,-3521,-527,-1354,2025-02-06 17:34:39,1
-12836,-3056,-584,-3411,-513,-948,2025-02-06 17:34:39,1
-12956,-3900,-644,-3204,-9,-508,2025-02-06 17:34:39,1
-13228,-3824,-572,-2976,199,-247,2025-02-06 17:34:39,1
-13668,-3672,-400,-2994,-270,-126,2025-02-06 17:34:39,1
-13972,-3300,-208,-3026,-1338,-246,2025-02-06 17:34:39,1
-13328,-3232,-372,-2938,-2235,-447,2025-02-06 17:34:39,1
-12404,-3124,-556,-2796,-2366,-837,2025-02-06 17:34:39,1
-12440,-3280,-928,-3140,-1747,-1414,2025-02-06 17:34:39,1
-12700,-3388,-1428,-3758,-492,-1716,2025-02-06 17:34:39,1
-12984,-3284,-1744,-4722,998,-2051,2025-02-06 17:34:39,1
-13760,-2472,-2656,-6321,1302,-2413,2025-02-06 17:34:39,1
-14456,-1888,-2872,-7314,153,-2440,2025-02-06 17:34:39,1
-14568,-2164,-2656,-8230,-546,-2289,2025-02-06 17:34:39,1
-13584,-3584,-1080,-9413,43,-2113,2025-02-06 17:34:39,1
-13052,-5784,128,-9826,657,-2174,2025-02-06 17:34:39,1
-13012,-8176,-1436,-9508,1057,-2647,2025-02-06 17:34:39,1
-14580,-9372,-2476,-9057,2048,-3943,2025-02-06 17:34:39,1
-16488,-9416,-936,-7625,2755,-4774,2025-02-06 17:34:39,1
-17572,-9512,156,-5000,1048,-4454,2025-02-06 17:34:39,1
-17912,-9312,-364,-2098,-2082,-2852,2025-02-06 17:34:39,1
-16948,-8824,-1472,-31,-3825,-1466,2025-02-06 17:34:39,1
-15644,-7236,-2472,1187,-4002,-1022,2025-02-06 17:34:39,1
-15616,-5772,-3456,1572,-3227,-524,2025-02-06 17:34:39,1
-15688,-5012,-3064,1732,-2378,2468,2025-02-06 17:34:39,1
-13592,-5664,-3804,2217,-2973,4847,2025-02-06 17:34:39,1
-12716,-5360,-6148,2232,-2691,5939,2025-02-06 17:34:39,1
-12248,-3808,-7380,1730,-1681,5729,2025-02-06 17:34:39,1
-12368,-1640,-6068,1288,-1187,5263,2025-02-06 17:34:39,1
-12324,360,-4528,1490,-1993,5170,2025-02-06 17:34:39,1
-12024,1852,-3904,2121,-2897,5565,2025-02-06 17:34:39,1
-11120,2472,-4604,2151,-2723,5572,2025-02-06 17:34:39,1
-10912,1772,-5436,933,-863,5043,2025-02-06 17:34:39,1
-11308,-32,-5952,-774,2356,4562,2025-02-06 17:34:39,1
-11708,-1884,-4096,-1196,3736,4250,2025-02-06 17:34:39,1
-12052,-3180,-2468,-621,3295,3907,2025-02-06 17:34:39,1
-12172,-3776,-1436,-25,2514,3585,2025-02-06 17:34:39,1
-13472,-3172,-1748,820,1071,3525,2025-02-06 17:34:39,1
-14312,-2212,-2192,1520,-174,4245,2025-02-06 17:34:39,1
-13740,-1196,-2164,2323,-1940,4817,2025-02-06 17:34:39,1
-12828,0,-2240,3263,-3031,4701,2025-02-06 17:34:39,1
-12028,536,-2156,3721,-2841,4540,2025-02-06 17:34:39,1
-11300,540,-2264,3749,-1882,4209,2025-02-06 17:34:39,1
-10868,404,-2148,3548,-1007,3726,2025-02-06 17:34:39,1
-10752,116,-2024,3467,-433,3338,2025-02-06 17:34:39,1
-10948,-156,-1832,3454,-22,3067,2025-02-06 17:34:39,1
-11320,-180,-1596,3602,92,2961,2025-02-06 17:34:39,1
-11380,32,-980,3920,-146,2826,2025-02-06 17:34:39,1
-11432,400,-840,4197,-702,2171,2025-02-06 17:34:39,1
-11100,928,-692,4285,-1072,992,2025-02-06 17:34:40,1
-11208,1056,-716,3961,-1476,-161,2025-02-06 17:34:40,1
-11960,940,-336,3731,-1387,-924,2025-02-06 17:34:40,1
-12912,144,-820,3469,-1265,-777,2025-02-06 17:34:40,1
-13388,-616,-920,3502,-1659,-465,2025-02-06 17:34:40,1
-13572,-1096,-188,3969,-2151,-425,2025-02-06 17:34:40,1
-14088,-228,-60,4409,-2317,-363,2025-02-06 17:34:40,1
-14752,544,280,4400,-2190,81,2025-02-06 17:34:40,1
-14900,724,332,4699,-2676,450,2025-02-06 17:34:40,1
-14208,248,-420,4997,-3812,435,2025-02-06 17:34:40,1
-13840,284,-1044,4813,-3639,868,2025-02-06 17:34:40,1
-12976,36,-472,4945,-1784,1561,2025-02-06 17:34:40,1
-12764,-748,704,5385,1322,2438,2025-02-06 17:34:40,1
-13304,-1564,2244,5879,4016,2365,2025-02-06 17:34:40,1
-14492,-1776,3504,6740,5327,1542,2025-02-06 17:34:40,1
-17432,168,2604,7854,4113,1831,2025-02-06 17:34:40,1
-18136,1384,152,8699,2169,2634,2025-02-06 17:34:40,1
-18968,2224,-2760,8204,181,3175,2025-02-06 17:34:40,1
-19296,3500,-5624,5751,-565,4362,2025-02-06 17:34:40,1
-18124,4384,-6880,3063,-413,4719,2025-02-06 17:34:40,1
-16444,4464,-7772,740,330,3714,2025-02-06 17:34:40,1
-15700,5208,-7612,-871,1251,2335,2025-02-06 17:34:40,1
-12116,2892,-5352,-1889,-157,-167,2025-02-06 17:34:40,1
-10964,-36,-2920,-2452,-2824,-2321,2025-02-06 17:34:40,1
-9724,-2400,-2624,-1646,-3220,-3571,2025-02-06 17:34:40,1
-10080,-4564,-3892,-911,-1094,-4119,2025-02-06 17:34:40,1
-11580,-5708,-5068,-1493,1851,-3654,2025-02-06 17:34:40,1
-13340,-4012,-4228,-1644,5706,-3145,2025-02-06 17:34:40,1
-14420,-1908,-3024,-1066,6936,-3144,2025-02-06 17:34:40,1
-15244,-440,-2200,-936,5240,-3628,2025-02-06 17:34:40,1
-14936,312,-1952,-1237,1485,-4520,2025-02-06 17:34:40,1
-14040,-12,-2660,-1465,-2067,-4813,2025-02-06 17:34:40,1
-12556,-416,-3716,-1430,-1986,-5260,2025-02-06 17:34:40,1
-11548,-552,-4096,-1827,-898,-5580,2025-02-06 17:34:40,1
-10896,-876,-3108,-2455,18,-5821,2025-02-06 17:34:40,1
-10888,-1212,-2612,-2952,764,-5771,2025-02-06 17:34:40,1
-10828,-1608,-2572,-3332,1385,-5601,2025-02-06 17:34:40,1
-11044,-2184,-2240,-3633,1342,-5434,2025-02-06 17:34:40,1
-11484,-2616,-1684,-3553,1072,-4999,2025-02-06 17:34:40,1
-11224,-2988,-1608,-3343,905,-4446,2025-02-06 17:34:40,1
-10804,-3332,-1580,-3149,1361,-4143,2025-02-06 17:34:40,1
-11068,-3784,-2048,-2871,2298,-3951,2025-02-06 17:34:40,1
-11552,-3840,-2272,-2542,2628,-3185,2025-02-06 17:34:40,1
-12384,-3136,-2616,-2283,2825,-1581,2025-02-06 17:34:40,1
-12304,-2388,-2516,-2383,2673,-715,2025-02-06 17:34:40,1
-12340,-1940,-1772,-2619,2080,-203,2025-02-06 17:34:40,1
-13020,-1728,-596,-2747,1398,223,2025-02-06 17:34:40,1
-13072,-1212,-808,-2650,606,854,2025-02-06 17:34:40,1
-12496,-1532,-1872,-2560,-171,1524,2025-02-06 17:34:40,1
-11320,-2632,-2628,-2899,156,1425,2025-02-06 17:34:40,1
-11444,-3344,-2744,-3406,1436,706,2025-02-06 17:34:40,1
-12300,-3472,-2296,-3890,2266,-351,2025-02-06 17:34:40,1
-13512,-3148,-1972,-4077,2347,-1401,2025-02-06 17:34:40,1
-14768,-2688,-1532,-4383,1648,-2027,2025-02-06 17:34:40,1
-15360,-2160,-920,-4545,279,-2091,2025-02-06 17:34:40,1
-15060,-2220,-464,-4656,-1236,-1561,2025-02-06 17:34:40,1
-14184,-2612,-704,-4514,-1527,-778,2025-02-06 17:34:40,1
-13148,-3604,-568,-4408,-1154,-488,2025-02-06 17:34:41,1
-13452,-4096,-952,-4143,-1114,-954,2025-02-06 17:34:41,1
-14420,-3964,-2012,-4414,-966,-1491,2025-02-06 17:34:41,1
-14844,-3860,-2752,-5183,-265,-2045,2025-02-06 17:34:41,1
-15224,-3900,-2472,-5991,668,-3066,2025-02-06 17:34:41,1
-15560,-4608,-3440,-5734,1795,-5336,2025-02-06 17:34:41,1
-17000,-5672,-2544,-4286,1668,-7353,2025-02-06 17:34:41,1
-18048,-7468,-1088,-1909,419,-8178,2025-02-06 17:34:41,1
-18428,-8820,-1372,813,-2223,-7772,2025-02-06 17:34:41,1
-20116,-8728,-3724,3281,-5489,-4035,2025-02-06 17:34:41,1
-19236,-6568,-6192,2831,-6397,1375,2025-02-06 17:34:41,1
-14400,-3464,-6436,1359,-8280,5048,2025-02-06 17:34:41,1
-10968,-1684,-7252,259,-9856,7103,2025-02-06 17:34:41,1
-7708,40,-7720,0,-8002,6413,2025-02-06 17:34:41,1
-6488,2224,-7408,-507,-3471,3454,2025-02-06 17:34:41,1
-8100,3112,-4920,-966,2070,918,2025-02-06 17:34:41,1
-11276,488,-4576,-1790,6268,703,2025-02-06 17:34:41,1
-13876,-2296,-2816,-1399,7370,1753,2025-02-06 17:34:41,1
-14512,-4248,-2940,-811,5607,2697,2025-02-06 17:34:41,1
-14200,-4804,-1632,126,2636,2992,2025-02-06 17:34:41,1
-14724,-4628,-1900,1422,878,3302,2025-02-06 17:34:41,1
-14892,-3836,-1800,2579,-471,4064,2025-02-06 17:34:41,1
-14116,-2236,-2012,3889,-2170,4883,2025-02-06 17:34:41,1
-12620,-924,-2400,4802,-3703,5229,2025-02-06 17:34:41,1
-11164,-148,-2716,5265,-3838,5175,2025-02-06 17:34:41,1
-10176,-124,-2924,5284,-2487,4832,2025-02-06 17:34:41,1
-10020,68,-2492,5009,-959,4340,2025-02-06 17:34:41,1
-10232,-140,-2392,4706,408,3882,2025-02-06 17:34:41,1
-10728,-244,-1980,4571,769,3379,2025-02-06 17:34:41,1
-11248,32,-1600,4657,705,2920,2025-02-06 17:34:41,1
-11576,644,-1740,4711,427,2159,2025-02-06 17:34:41,1
-11424,1308,-2120,4241,-220,1157,2025-02-06 17:34:41,1
-11308,1776,-2320,3524,-1245,242,2025-02-06 17:34:41,1
-11216,1452,-2360,2743,-1924,-474,2025-02-06 17:34:41,1
-11948,440,-2028,2032,-1856,-868,2025-02-06 17:34:41,1
-12448,-660,-1000,1715,-1748,-1278,2025-02-06 17:34:41,1
-13284,-1348,-772,1768,-1906,-1558,2025-02-06 17:34:41,1
-14228,-940,-740,1695,-2369,-1485,2025-02-06 17:34:41,1
-14524,-172,-788,1874,-3206,-1398,2025-02-06 17:34:41,1
-13808,632,-948,1832,-4190,-1445,2025-02-06 17:34:41,1
-13008,744,-152,2080,-4293,-1176,2025-02-06 17:34:41,1
-11964,-364,524,2432,-2833,-687,2025-02-06 17:34:41,1
-11040,-1932,1124,2947,-511,-648,2025-02-06 17:34:41,1
-11780,-2356,1012,3580,1443,-716,2025-02-06 17:34:41,1
-13356,-2536,964,4534,2478,-627,2025-02-06 17:34:41,1
-15164,-3248,1276,5582,2449,-550,2025-02-06 17:34:41,1
-16020,-3220,2312,6543,1467,-213,2025-02-06 17:34:41,1
-16168,-2148,2080,7424,312,188,2025-02-06 17:34:41,1
-15528,-304,336,7367,457,1004,2025-02-06 17:34:41,1
-15100,788,-2032,7086,1909,1507,2025-02-06 17:34:41,1
-16292,-40,-4432,6456,4764,1571,2025-02-06 17:34:41,1
-19264,-1080,-6096,4035,7035,1825,2025-02-06 17:34:41,1
-21044,648,-5748,1581,6574,2492,2025-02-06 17:34:41,1
-19604,2800,-6856,-177,3157,3533,2025-02-06 17:34:41,1
-14444,2904,-8464,-1659,-1585,3184,2025-02-06 17:34:41,1
-9608,1260,-4232,-1678,-1685,616,2025-02-06 17:34:41,1
-8408,-1508,-2984,-923,-321,-2286,2025-02-06 17:34:41,1
-8420,-3960,-2152,819,40,-4120,2025-02-06 17:34:41,1
-11620,-6852,-4156,2079,712,-4911,2025-02-06 17:34:41,1
-13632,-7528,-5780,2064,1259,-4206,2025-02-06 17:34:41,1
-14612,-6660,-5364,2253,1229,-2768,2025-02-06 17:34:41,1
-14212,-4692,-4200,2725,1054,-1189,2025-02-06 17:34:41,1
-12792,-2552,-3720,3235,983,-222,2025-02-06 17:34:41,1
-11472,-1640,-4460,3083,1663,-471,2025-02-06 17:34:41,1
-11704,-1724,-5088,2297,3290,-1461,2025-02-06 17:34:42,1
-12076,-1912,-4476,1978,4014,-2293,2025-02-06 17:34:42,1
-12804,-2536,-4212,1887,3239,-2840,2025-02-06 17:34:42,1
-13004,-3192,-3340,1684,1702,-2675,2025-02-06 17:34:42,1
-12584,-3092,-3392,1575,860,-2334,2025-02-06 17:34:42,1
-12256,-2668,-3648,1279,517,-2075,2025-02-06 17:34:42,1
-12188,-2528,-3372,745,533,-2014,2025-02-06 17:34:42,1
-12136,-2148,-3096,383,740,-1913,2025-02-06 17:34:42,1
-12076,-2036,-3240,65,896,-1796,2025-02-06 17:34:42,1
-12232,-2040,-3360,-464,1137,-1623,2025-02-06 17:34:42,1
-12552,-2316,-3184,-806,1198,-1362,2025-02-06 17:34:42,1
-12512,-3188,-3236,-1071,770,-907,2025-02-06 17:34:42,1
-12156,-3584,-3244,-975,487,-641,2025-02-06 17:34:42,1
-12120,-3884,-3476,-1061,655,-692,2025-02-06 17:34:42,1
-12476,-3904,-3228,-1182,817,-722,2025-02-06 17:34:42,1
-13076,-3536,-3152,-1169,514,-565,2025-02-06 17:34:42,1
-13472,-2824,-3220,-1069,-45,-415,2025-02-06 17:34:42,7
-13768,-2340,-3140,-1069,-235,-163,2025-02-06 17:34:42,7
-13488,-2356,-2780,-1049,-628,254,2025-02-06 17:34:42,7
-12596,-2860,-2988,-1074,-1325,490,2025-02-06 17:34:42,7
-11940,-3080,-2900,-1297,-1557,766,2025-02-06 17:34:42,7
-11224,-2804,-3200,-1526,-1373,1125,2025-02-06 17:34:42,7
-10772,-2612,-3484,-2035,-543,1271,2025-02-06 17:34:42,7
-11184,-2456,-4040,-2608,984,1295,2025-02-06 17:34:42,7
-12336,-2316,-3688,-3229,2055,1631,2025-02-06 17:34:42,7
-13204,-2300,-2808,-3269,2002,1916,2025-02-06 17:34:42,7
-13944,-2596,-3208,-3050,1240,1728,2025-02-06 17:34:42,7
-14748,-2968,-4972,-2676,697,1202,2025-02-06 17:34:42,7
-14764,-3584,-6304,-2324,627,530,2025-02-06 17:34:42,7
-14260,-3648,-5624,-1733,474,91,2025-02-06 17:34:42,7
-13320,-2728,-4568,-1365,50,219,2025-02-06 17:34:42,7
-12344,-1352,-3604,-1395,-159,523,2025-02-06 17:34:42,7
-12096,-1440,-3836,-1658,353,844,2025-02-06 17:34:42,7
-11972,-2076,-4012,-1524,775,920,2025-02-06 17:34:42,7
-12276,-2264,-3668,-1417,1125,819,2025-02-06 17:34:42,7
-12752,-2600,-2832,-1297,1330,575,2025-02-06 17:34:42,7
-13076,-2872,-2328,-871,1014,337,2025-02-06 17:34:42,7
-13180,-2416,-1736,-239,345,273,2025-02-06 17:34:42,7
-13268,-1796,-1956,263,-58,263,2025-02-06 17:34:42,7
-12928,-1216,-2328,570,194,257,2025-02-06 17:34:42,7
-12776,-1136,-2340,722,757,-88,2025-02-06 17:34:42,7
-12800,-1440,-2316,901,1043,-339,2025-02-06 17:34:42,7
-12704,-1856,-2840,1087,1266,-419,2025-02-06 17:34:42,7
-12712,-1416,-3624,1032,1433,-502,2025-02-06 17:34:42,7
-12876,-800,-4376,808,1852,-342,2025-02-06 17:34:42,7
-13204,-384,-4724,387,2356,-248,2025-02-06 17:34:42,7
-13460,-136,-4736,-47,2302,-290,2025-02-06 17:34:42,7
-13532,116,-4540,-564,1741,-337,2025-02-06 17:34:42,7
-13316,300,-4260,-1151,857,-518,2025-02-06 17:34:42,7
-13132,476,-3656,-1571,273,-738,2025-02-06 17:34:42,7
-12872,548,-3668,-2066,129,-964,2025-02-06 17:34:42,7
-12960,648,-3820,-2685,134,-1079,2025-02-06 17:34:42,7
-12904,792,-3952,-3421,40,-1332,2025-02-06 17:34:42,7
-12988,812,-4004,-4164,49,-1667,2025-02-06 17:34:42,7
-12948,804,-4252,-4872,169,-1943,2025-02-06 17:34:42,7
-13100,792,-4476,-5865,173,-2192,2025-02-06 17:34:42,7
-13072,628,-3972,-6730,31,-2469,2025-02-06 17:34:42,7
-13192,552,-3832,-7187,-286,-2635,2025-02-06 17:34:42,7
-13256,412,-4052,-7491,-453,-2670,2025-02-06 17:34:42,7
-13028,-76,-4372,-7785,-258,-2591,2025-02-06 17:34:42,7
-12364,-796,-4220,-7953,139,-2544,2025-02-06 17:34:43,7
-11576,-1132,-4508,-8062,65,-2703,2025-02-06 17:34:43,7
-11024,-1532,-5048,-8102,-243,-3058,2025-02-06 17:34:43,7
-10968,-2120,-5164,-8266,485,-3451,2025-02-06 17:34:43,7
-11584,-2744,-5132,-8629,1559,-3580,2025-02-06 17:34:43,7
-12812,-3008,-4432,-9108,2957,-3648,2025-02-06 17:34:43,7
-14240,-2816,-3468,-9470,3211,-3508,2025-02-06 17:34:43,7
-15084,-2856,-2496,-9783,1812,-3337,2025-02-06 17:34:43,7
-15476,-3584,-2608,-9987,-481,-3686,2025-02-06 17:34:43,7
-15748,-3600,-2904,-10111,-2524,-4006,2025-02-06 17:34:43,7
-14564,-2896,-3396,-10419,-3775,-4137,2025-02-06 17:34:43,7
-12880,-2420,-3776,-11246,-3972,-4383,2025-02-06 17:34:43,7
-11964,-2432,-4004,-12005,-3344,-4421,2025-02-06 17:34:43,7
-11324,-2752,-4512,-12636,-2134,-4566,2025-02-06 17:34:43,7
-11276,-2876,-4904,-13104,-1046,-4795,2025-02-06 17:34:43,7
-11524,-2716,-4740,-13556,-442,-4888,2025-02-06 17:34:43,7
-11892,-2708,-4340,-13921,-279,-4911,2025-02-06 17:34:43,7
-12152,-2684,-4080,-14586,-737,-5011,2025-02-06 17:34:43,7
-12632,-2756,-3880,-14833,-768,-4888,2025-02-06 17:34:43,7
-12644,-2692,-3976,-15104,-917,-4637,2025-02-06 17:34:43,7
-13620,-2220,-2976,-18453,-6987,-4867,2025-02-06 17:34:43,7
-11800,-2960,-3596,-19001,-5854,-3550,2025-02-06 17:34:43,7
-9904,-5020,-3520,-19130,-4123,-2946,2025-02-06 17:34:43,7
-9092,-6268,-4380,-18491,-2816,-2266,2025-02-06 17:34:43,7
-9672,-6548,-7360,-17347,-602,-1495,2025-02-06 17:34:43,7
-11060,-5668,-10568,-17080,2440,-1570,2025-02-06 17:34:43,7
-12760,-2916,-9424,-17793,5766,-3935,2025-02-06 17:34:43,7
-16000,-148,-4368,-17863,6149,-6378,2025-02-06 17:34:43,7
-19616,3200,512,-15392,2000,-4627,2025-02-06 17:34:43,7
-15384,1872,-2008,-12710,-3774,-1616,2025-02-06 17:34:43,7
-10340,296,-6028,-13213,-4498,-1021,2025-02-06 17:34:43,7
-8216,-884,-7412,-15485,-849,-2148,2025-02-06 17:34:43,7
-9568,-2052,-5232,-17114,4780,-3761,2025-02-06 17:34:43,7
-13516,-2564,-2148,-17018,6858,-4147,2025-02-06 17:34:43,7
-15108,-1840,-1024,-16280,4816,-4090,2025-02-06 17:34:43,7
-16596,-164,-1100,-15644,933,-3560,2025-02-06 17:34:43,7
-16040,1700,-2460,-15624,-2863,-3000,2025-02-06 17:34:43,7
-13568,3100,-4956,-16702,-4644,-3296,2025-02-06 17:34:43,7
-11484,3536,-6104,-18055,-3677,-4118,2025-02-06 17:34:43,7
-9944,2436,-6004,-19360,-1762,-5491,2025-02-06 17:34:43,7
-9892,404,-4760,-20402,-166,-6414,2025-02-06 17:34:43,7
-10024,-752,-3200,-20310,666,-6916,2025-02-06 17:34:43,7
-10860,-1256,-3420,-19785,1035,-7335,2025-02-06 17:34:43,7
-12136,-532,-3996,-19144,956,-7594,2025-02-06 17:34:43,7
-13212,168,-4408,-18904,522,-7654,2025-02-06 17:34:43,7
-14112,336,-4532,-18820,-306,-7573,2025-02-06 17:34:43,7
-14664,540,-4792,-18630,-1465,-7354,2025-02-06 17:34:43,7
-13704,236,-5104,-18523,-2345,-6936,2025-02-06 17:34:43,7
-12784,16,-5564,-18418,-2549,-6794,2025-02-06 17:34:43,7
-12116,-252,-5520,-18312,-2285,-6574,2025-02-06 17:34:43,7
-11692,-572,-5548,-18228,-1315,-6357,2025-02-06 17:34:43,7
-11416,-772,-5704,-18231,-312,-6352,2025-02-06 17:34:44,7
-11728,-916,-6036,-18304,-96,-6285,2025-02-06 17:34:44,7
-11824,-1012,-5256,-18143,-264,-6272,2025-02-06 17:34:44,7
-12084,-768,-4544,-17862,-391,-6338,2025-02-06 17:34:44,7
-12680,-572,-4884,-17652,-335,-6468,2025-02-06 17:34:44,7
-13068,-340,-5552,-17456,-425,-6570,2025-02-06 17:34:44,7
-13052,-488,-5588,-17239,-627,-6558,2025-02-06 17:34:44,7
-13096,-840,-5244,-17087,-600,-6468,2025-02-06 17:34:44,7
-12864,-1620,-4964,-16767,-643,-6471,2025-02-06 17:34:44,7
-12768,-2472,-4468,-16302,-897,-6675,2025-02-06 17:34:44,7
-12692,-2960,-3596,-15729,-1338,-6867,2025-02-06 17:34:44,7
-12556,-2812,-3696,-14964,-2068,-6861,2025-02-06 17:34:44,7
-12412,-2472,-4424,-14283,-2647,-6670,2025-02-06 17:34:44,7
-12540,-2092,-5072,-13891,-2053,-6228,2025-02-06 17:34:44,7
-13148,-2312,-6068,-13830,-363,-5619,2025-02-06 17:34:44,7
-13616,-3344,-4944,-13784,1174,-5156,2025-02-06 17:34:44,7
-14240,-3892,-3112,-12972,699,-4941,2025-02-06 17:34:44,7
-14668,-3476,-2304,-11324,-927,-4401,2025-02-06 17:34:44,7
-13664,-2968,-1584,-9379,-2323,-3952,2025-02-06 17:34:44,7
-12384,-2936,-1996,-8337,-2444,-4010,2025-02-06 17:34:44,7
-11972,-2760,-2864,-7839,-1735,-4346,2025-02-06 17:34:44,7
-12128,-2020,-3208,-7713,-1034,-4661,2025-02-06 17:34:44,7
-12856,-1124,-2956,-7601,-20,-4359,2025-02-06 17:34:44,7
-12784,-1240,-3176,-7556,779,-3965,2025-02-06 17:34:44,7
-12584,-1876,-3544,-7615,1118,-3675,2025-02-06 17:34:44,7
-12112,-2632,-3536,-7371,1173,-3298,2025-02-06 17:34:44,7
-11832,-3452,-3412,-7086,1287,-3121,2025-02-06 17:34:44,7
-12180,-3944,-3500,-6902,1644,-3061,2025-02-06 17:34:44,7
-12928,-4100,-3084,-6687,2106,-2788,2025-02-06 17:34:44,7
-13752,-3704,-2448,-6132,1783,-2131,2025-02-06 17:34:44,7
-14148,-3004,-1900,-5025,514,-975,2025-02-06 17:34:44,7
-13428,-2828,-1840,-4177,-395,-85,2025-02-06 17:34:44,7
-12364,-2824,-2292,-3457,-697,598,2025-02-06 17:34:44,7
-11344,-3092,-2556,-2910,-162,923,2025-02-06 17:34:44,7
-11204,-3392,-3024,-2455,929,861,2025-02-06 17:34:44,7
-11408,-3080,-3180,-1742,1709,477,2025-02-06 17:34:44,7
-11812,-2056,-3368,-758,2299,-619,2025-02-06 17:34:44,7
-13076,-700,-3796,-269,1863,-2125,2025-02-06 17:34:44,7
-14664,-448,-4768,-518,793,-2290,2025-02-06 17:34:44,7
-14508,-252,-6008,-985,83,-1638,2025-02-06 17:34:44,7
-14532,-84,-7212,-1762,232,-766,2025-02-06 17:34:44,7
-14080,-576,-6244,-2158,1106,107,2025-02-06 17:34:44,7
-13480,-1808,-4984,-2316,1685,641,2025-02-06 17:34:44,7
-13144,-2864,-3436,-1961,1244,707,2025-02-06 17:34:44,7
-13208,-3732,-2176,-1151,-20,502,2025-02-06 17:34:44,7
-13780,-3980,-816,-121,-921,569,2025-02-06 17:34:44,7
-13668,-3420,-456,979,-2096,731,2025-02-06 17:34:44,7
-13332,-2060,-1708,1562,-2978,735,2025-02-06 17:34:44,7
-12464,-1140,-2540,1724,-2423,501,2025-02-06 17:34:44,7
-11668,-720,-3200,1634,-698,21,2025-02-06 17:34:44,7
-11968,-920,-3188,1393,995,-396,2025-02-06 17:34:44,7
-12888,-1060,-3276,1214,1675,-490,2025-02-06 17:34:44,7
-14076,-912,-3404,1124,1449,-513,2025-02-06 17:34:44,7
-14656,-492,-3812,791,367,-517,2025-02-06 17:34:44,7
-14804,-216,-4148,199,-1093,-552,2025-02-06 17:34:44,7
-14200,-616,-4084,-389,-2112,-728,2025-02-06 17:34:44,7
-13576,-988,-3680,-616,-2279,-851,2025-02-06 17:34:44,7
-13096,-1192,-3552,-581,-1987,-815,2025-02-06 17:34:44,7
-12696,-1576,-3720,-246,-1629,-879,2025-02-06 17:34:44,7
-12204,-2380,-4060,347,-1220,-1161,2025-02-06 17:34:44,7
-11848,-3980,-3936,1114,-358,-1590,2025-02-06 17:34:44,7
-11988,-5856,-3232,1647,122,-1967,2025-02-06 17:34:45,7
-12664,-6324,-1712,2553,273,-1768,2025-02-06 17:34:45,7
-13216,-5092,-1512,3537,-338,-1197,2025-02-06 17:34:45,7
-13428,-3560,-1768,4196,-1469,-725,2025-02-06 17:34:45,7
-13168,-1820,-1768,4387,-2083,-612,2025-02-06 17:34:45,7
-12844,-292,-2012,4098,-1640,-637,2025-02-06 17:34:45,7
-12144,392,-3304,2897,-328,-1746,2025-02-06 17:34:45,7
-12228,816,-3704,1225,1175,-3547,2025-02-06 17:34:45,7
-12860,180,-3264,-309,2027,-4803,2025-02-06 17:34:45,7
-13384,-1136,-2420,-1330,1687,-5347,2025-02-06 17:34:45,7
-13548,-2084,-1620,-1735,915,-5546,2025-02-06 17:34:45,7
-13248,-2752,-828,-1874,-15,-5421,2025-02-06 17:34:45,7
-13192,-3452,-1076,-1896,-975,-4972,2025-02-06 17:34:45,7
-12164,-4112,-1540,-1978,-745,-4530,2025-02-06 17:34:45,7
-11348,-4360,-1696,-1991,-501,-4587,2025-02-06 17:34:45,7
-11916,-4472,-1392,-2360,-404,-4434,2025-02-06 17:34:45,7
-12464,-3852,-1160,-2604,-185,-3813,2025-02-06 17:34:45,1
-13704,-3148,-804,-2913,-354,-2694,2025-02-06 17:34:45,1
-13924,-2164,-228,-2836,-1045,-1215,2025-02-06 17:34:45,1
-12788,-2172,-400,-2683,-1206,-392,2025-02-06 17:34:45,1
-12000,-3052,-868,-2650,-451,74,2025-02-06 17:34:45,1
-11424,-3852,-904,-2758,858,173,2025-02-06 17:34:45,1
-12068,-4372,-820,-3094,1805,-174,2025-02-06 17:34:45,1
-13292,-4488,-600,-3348,1721,-348,2025-02-06 17:34:45,1
-13944,-4388,-216,-3138,969,-355,2025-02-06 17:34:45,1
-13712,-3880,-556,-2751,-84,-598,2025-02-06 17:34:45,1
-13776,-3608,-1092,-2758,-732,-1069,2025-02-06 17:34:45,1
-13828,-3876,-1560,-3071,-711,-1430,2025-02-06 17:34:45,1
-14084,-4264,-1872,-3478,-827,-1743,2025-02-06 17:34:45,1
-14152,-4216,-1820,-4014,-1237,-1893,2025-02-06 17:34:45,1
-14096,-4068,-1700,-4655,-1446,-2099,2025-02-06 17:34:45,1
-14132,-4248,-1152,-5220,-1394,-2213,2025-02-06 17:34:45,1
-13424,-4628,-100,-5162,-1568,-2235,2025-02-06 17:34:45,1
-12592,-5240,136,-4975,-1030,-2274,2025-02-06 17:34:45,1
-12304,-6448,-2088,-5254,60,-2665,2025-02-06 17:34:45,1
-13684,-7108,-2364,-5461,2163,-3475,2025-02-06 17:34:45,1
-15204,-8284,-380,-4585,3744,-4688,2025-02-06 17:34:45,1
-16944,-9080,-268,-2999,1206,-4804,2025-02-06 17:34:45,1
-19156,-9008,-1116,-1038,-1925,-3187,2025-02-06 17:34:45,1
-19124,-7452,-3236,526,-3204,-739,2025-02-06 17:34:45,1
-17288,-4948,-4968,902,-3949,63,2025-02-06 17:34:45,1
-16348,-3484,-4516,901,-4467,766,2025-02-06 17:34:45,1
-14796,-4440,-4664,402,-4248,3064,2025-02-06 17:34:45,1
-13132,-5732,-5260,28,-3868,4599,2025-02-06 17:34:45,1
-12384,-4916,-6172,-83,-3382,5569,2025-02-06 17:34:45,1
-11688,-3424,-6252,-183,-2915,5536,2025-02-06 17:34:45,1
-10860,-1684,-5784,-211,-3402,5224,2025-02-06 17:34:45,1
-10032,-144,-5160,46,-3501,4935,2025-02-06 17:34:45,1
-9064,724,-5288,133,-2436,4478,2025-02-06 17:34:45,1
-8508,972,-5064,-425,-565,3651,2025-02-06 17:34:45,1
-9724,-124,-5556,-1549,2448,2929,2025-02-06 17:34:45,1
-11080,-2096,-4344,-2439,5354,2843,2025-02-06 17:34:45,1
-12348,-3496,-2576,-1764,5671,2794,2025-02-06 17:34:45,1
-14168,-3844,-2292,-1004,4162,2972,2025-02-06 17:34:45,1
-15512,-3472,-1780,86,2111,3586,2025-02-06 17:34:45,1
-15900,-2652,-2224,950,-276,4643,2025-02-06 17:34:45,1
-15572,-1744,-2584,1757,-2266,5559,2025-02-06 17:34:45,1
-13608,-460,-1608,2911,-4261,5947,2025-02-06 17:34:45,1
-11712,304,-1928,3482,-4423,5534,2025-02-06 17:34:45,1
-10380,648,-2660,2877,-2961,4948,2025-02-06 17:34:45,1
-9948,664,-2852,1981,-1146,4373,2025-02-06 17:34:45,1
-9740,300,-2424,1533,60,3656,2025-02-06 17:34:46,1
-10580,-264,-1716,1514,592,3013,2025-02-06 17:34:46,1
-11440,-392,-820,1628,338,2636,2025-02-06 17:34:46,1
-11596,-228,-60,2070,-335,2291,2025-02-06 17:34:46,1
-11544,272,216,2508,-872,1846,2025-02-06 17:34:46,1
-11120,176,-24,2926,-1055,844,2025-02-06 17:34:46,1
-11380,-420,-404,3107,-1474,-291,2025-02-06 17:34:46,1
-12240,-984,-524,3189,-1387,-638,2025-02-06 17:34:46,1
-13208,-824,-344,3372,-947,-640,2025-02-06 17:34:46,1
-13896,-720,-172,3151,-1236,-435,2025-02-06 17:34:46,1
-14880,-100,-728,3182,-1522,-83,2025-02-06 17:34:46,1
-15300,-132,-1448,3381,-2097,360,2025-02-06 17:34:46,1
-15428,-260,-1524,3341,-2541,774,2025-02-06 17:34:46,1
-15204,340,-1880,2816,-2343,1673,2025-02-06 17:34:46,1
-14808,1312,-1396,2630,-1056,3198,2025-02-06 17:34:46,1
-13208,112,820,3040,1074,2955,2025-02-06 17:34:46,1
-13672,-1660,1940,3846,2589,1297,2025-02-06 17:34:46,1
-17212,-1860,1348,5168,3881,511,2025-02-06 17:34:46,1
-19032,-1236,-452,6327,2745,1391,2025-02-06 17:34:46,1
-19352,180,-3900,6415,-713,2021,2025-02-06 17:34:46,1
-18424,2376,-6732,4500,-2470,2299,2025-02-06 17:34:46,1
-17580,3768,-8660,1208,-902,2412,2025-02-06 17:34:46,1
-16744,4244,-7184,-981,1591,2573,2025-02-06 17:34:46,1
-13764,3072,-4224,-1658,1839,1239,2025-02-06 17:34:46,1
-10932,1936,-2660,-1319,63,-2022,2025-02-06 17:34:46,1
-10104,700,-3400,-1727,-2036,-4039,2025-02-06 17:34:46,1
-8948,-620,-3588,-2083,-2706,-5135,2025-02-06 17:34:46,1
-8952,-2876,-4216,-1967,-667,-5711,2025-02-06 17:34:46,1
-10056,-4264,-4952,-1739,2688,-4939,2025-02-06 17:34:46,1
-11960,-4196,-4124,-1962,5191,-3104,2025-02-06 17:34:46,1
-12620,-3248,-2768,-1407,6084,-2026,2025-02-06 17:34:46,1
-13404,-2576,-2828,-1102,5228,-2023,2025-02-06 17:34:46,1
-14432,-1456,-2648,-1079,2974,-2255,2025-02-06 17:34:46,1
-14320,-872,-3164,-1225,181,-2950,2025-02-06 17:34:46,1
-13640,-908,-3780,-1447,-1032,-3677,2025-02-06 17:34:46,1
-12980,-1568,-3896,-1772,-1444,-4194,2025-02-06 17:34:46,1
-12480,-1656,-3656,-2215,-1323,-4811,2025-02-06 17:34:46,1
-12476,-1372,-2728,-2474,-1803,-4891,2025-02-06 17:34:46,1
-11964,-1572,-1860,-2563,-2401,-4439,2025-02-06 17:34:46,1
-11388,-2188,-2200,-3054,-2009,-4006,2025-02-06 17:34:46,1
-10624,-2868,-1836,-3469,-1324,-3965,2025-02-06 17:34:46,1
-10300,-3632,-1564,-3514,-456,-3979,2025-02-06 17:34:46,1
-10916,-3728,-1256,-3258,523,-3579,2025-02-06 17:34:46,1
-11292,-3872,-1532,-3032,1659,-3170,2025-02-06 17:34:46,1
-12108,-3728,-1672,-3088,2517,-2664,2025-02-06 17:34:46,1
-12908,-3376,-1348,-3128,2750,-2032,2025-02-06 17:34:46,1
-13240,-2872,-452,-3061,2162,-1323,2025-02-06 17:34:46,1
-13020,-2608,-8,-2966,1186,-768,2025-02-06 17:34:46,1
-12384,-2164,-160,-2940,323,-369,2025-02-06 17:34:46,1
-12100,-2072,80,-2984,125,-143,2025-02-06 17:34:46,1
-11712,-2500,-892,-3260,554,159,2025-02-06 17:34:46,1
-11528,-3400,-488,-3307,700,104,2025-02-06 17:34:46,1
-12060,-3908,-1220,-3437,689,-346,2025-02-06 17:34:46,1
-12392,-3780,-1980,-3508,913,-807,2025-02-06 17:34:46,1
-12984,-3104,-2776,-3710,1138,-1263,2025-02-06 17:34:46,1
-13476,-2540,-2380,-3917,1509,-1825,2025-02-06 17:34:46,1
-13844,-2936,-2064,-4014,2209,-2644,2025-02-06 17:34:46,1
-15180,-4396,-1356,-5030,2035,-3870,2025-02-06 17:34:46,1
-15716,-4608,128,-5637,-476,-5014,2025-02-06 17:34:46,1
-16092,-4732,-36,-5815,-4071,-5856,2025-02-06 17:34:46,1
-16324,-5292,-2460,-5190,-4839,-5674,2025-02-06 17:34:47,1
-15096,-5084,-2980,-4466,-3362,-5255,2025-02-06 17:34:47,1
-13548,-6468,-2704,-4105,-1426,-6226,2025-02-06 17:34:47,1
-14840,-8508,-3416,-3595,-1162,-8084,2025-02-06 17:34:47,1
-17592,-8920,-2828,-2088,-4030,-7899,2025-02-06 17:34:47,1
-22608,-9620,-1572,51,-7721,-5494,2025-02-06 17:34:47,1
-23168,-7204,-360,592,-2837,1156,2025-02-06 17:34:47,1
-17568,-5676,-1440,2164,-6024,5041,2025-02-06 17:34:47,1
-13960,-5032,-5092,3110,-8492,6859,2025-02-06 17:34:47,1
-10460,-3920,-7768,2912,-6713,6882,2025-02-06 17:34:47,1
-8260,-1848,-7532,1690,-2390,5043,2025-02-06 17:34:47,1
-7816,580,-4748,1635,1208,3625,2025-02-06 17:34:47,1
-8972,1408,-3916,1866,3190,2821,2025-02-06 17:34:47,1
-11228,1024,-4632,1284,3772,2658,2025-02-06 17:34:47,1
-12340,-696,-4804,432,3531,2891,2025-02-06 17:34:47,1
-13760,-2272,-3276,-50,3750,3253,2025-02-06 17:34:47,1
-13616,-3420,-2576,54,3699,3287,2025-02-06 17:34:47,1
-14108,-4160,-1576,728,3001,3403,2025-02-06 17:34:47,1
-15032,-3208,-1296,1974,1214,4106,2025-02-06 17:34:47,1
-14792,-1728,-2304,2485,-465,4995,2025-02-06 17:34:47,1
-13124,-472,-2424,2768,-1589,5083,2025-02-06 17:34:47,1
-11992,260,-2364,2849,-1542,4825,2025-02-06 17:34:47,1
-10884,388,-2024,2743,-910,4390,2025-02-06 17:34:47,1
-10660,368,-1868,2612,-10,3808,2025-02-06 17:34:47,1
-10672,224,-1732,2398,595,3354,2025-02-06 17:34:47,1
-10644,-252,-1580,2202,866,2973,2025-02-06 17:34:47,1
-10940,-480,-1216,1927,1104,2813,2025-02-06 17:34:47,1
-10728,-364,-580,1887,1277,2472,2025-02-06 17:34:47,1
-10508,-108,-824,1849,1734,1628,2025-02-06 17:34:47,1
-10720,376,-372,1589,1604,465,2025-02-06 17:34:47,1
-11376,492,20,1463,1224,-489,2025-02-06 17:34:47,1
-12192,60,652,1430,280,-1136,2025-02-06 17:34:47,1
-12880,-372,456,1432,-810,-1406,2025-02-06 17:34:47,1
-13484,-640,172,1362,-1633,-1493,2025-02-06 17:34:47,1
-13692,-1044,-220,1408,-2367,-1488,2025-02-06 17:34:47,1
-14096,-876,-1024,1593,-2422,-1312,2025-02-06 17:34:47,1
-14708,-608,-1160,1684,-1585,-814,2025-02-06 17:34:47,1
-15376,-684,-1000,1973,-717,241,2025-02-06 17:34:47,1
-15228,-1284,-568,2527,146,1182,2025-02-06 17:34:47,1
-14900,-924,168,3092,515,2172,2025-02-06 17:34:47,1
-13920,-504,760,3781,1034,2823,2025-02-06 17:34:47,1
-13504,-248,928,4079,1511,2439,2025-02-06 17:34:47,1
-14884,224,-144,4134,1726,1912,2025-02-06 17:34:47,1
-17220,132,-2028,4362,2417,2057,2025-02-06 17:34:47,1
-19296,1152,-2244,4565,1927,2923,2025-02-06 17:34:47,1
-19044,1772,-2796,4073,-177,3966,2025-02-06 17:34:47,1
-16956,2044,-5448,2015,-3237,3231,2025-02-06 17:34:47,1
-16344,2796,-7040,-211,-2629,1428,2025-02-06 17:34:47,1
-14868,1532,-6944,-1137,-1416,-101,2025-02-06 17:34:47,1
-14080,-504,-5356,-1366,-2346,-338,2025-02-06 17:34:47,1
-11704,-2348,-4040,-336,-2896,-482,2025-02-06 17:34:47,1
-9708,-3976,-3624,727,-1779,-860,2025-02-06 17:34:47,1
-8308,-5424,-3988,914,927,-1313,2025-02-06 17:34:47,1
-8864,-5724,-4708,149,2856,-757,2025-02-06 17:34:47,1
-10188,-5304,-4368,-27,5757,-73,2025-02-06 17:34:47,1
-12848,-2872,-3844,724,8830,146,2025-02-06 17:34:47,1
-15408,-440,-4236,856,10096,-471,2025-02-06 17:34:47,1
-16176,1080,-3348,759,7998,-2052,2025-02-06 17:34:47,1
-16472,1200,-3144,444,2517,-3852,2025-02-06 17:34:47,1
-15908,152,-3260,29,-4328,-3768,2025-02-06 17:34:48,1
-13260,-1152,-1456,78,-4760,-3040,2025-02-06 17:34:48,1
-10108,-2940,-2880,162,-4215,-3138,2025-02-06 17:34:48,1
-9316,-3604,-4852,-566,-3114,-3805,2025-02-06 17:34:48,1
-9316,-4056,-4488,-763,-633,-4613,2025-02-06 17:34:48,1
-10268,-3144,-4696,-926,2064,-4648,2025-02-06 17:34:48,1
-11788,-2376,-3448,-1166,3826,-4056,2025-02-06 17:34:48,1
-12764,-2140,-2332,-1396,3987,-3592,2025-02-06 17:34:48,1
-13464,-2536,-1360,-1461,2881,-3504,2025-02-06 17:34:48,1
-13844,-3256,-1928,-1375,1767,-3515,2025-02-06 17:34:48,1
-14180,-3560,-2596,-1157,942,-2770,2025-02-06 17:34:48,1
-13540,-3200,-2636,-972,399,-1896,2025-02-06 17:34:48,1
-12496,-2472,-2932,-1071,7,-1274,2025-02-06 17:34:48,1
-12004,-2020,-2192,-1321,156,-1021,2025-02-06 17:34:48,1
-12024,-1700,-2060,-1567,477,-751,2025-02-06 17:34:48,1
-12412,-1612,-1876,-1817,897,-424,2025-02-06 17:34:48,1
-12416,-1864,-1640,-2074,1138,-181,2025-02-06 17:34:48,1
-12852,-2116,-1824,-2477,997,-172,2025-02-06 17:34:48,1
-13344,-2520,-1640,-2798,825,-178,2025-02-06 17:34:48,1
-13640,-3072,-1416,-2936,260,-344,2025-02-06 17:34:48,1
-13996,-3232,-1012,-2937,-349,-551,2025-02-06 17:34:48,1
-14060,-3204,-892,-2686,-1268,-542,2025-02-06 17:34:48,1
-13828,-2904,-1204,-2454,-2396,-91,2025-02-06 17:34:48,1
-13104,-2908,-1864,-2405,-3449,1,2025-02-06 17:34:48,1
-12404,-2644,-2380,-3009,-3178,75,2025-02-06 17:34:48,1
-11912,-2760,-2220,-3414,-1840,-213,2025-02-06 17:34:48,1
-12124,-3068,-1936,-3654,-122,-660,2025-02-06 17:34:48,1
-13392,-2876,-1336,-3789,1176,-1043,2025-02-06 17:34:48,1
-14828,-2820,-1272,-4034,936,-924,2025-02-06 17:34:48,1
-15180,-3560,-2076,-4288,29,-702,2025-02-06 17:34:48,1
-14864,-4580,-2776,-4421,-886,-841,2025-02-06 17:34:48,1
-14660,-4440,-2628,-4007,-1486,-1248,2025-02-06 17:34:48,1
-14336,-4128,-2608,-3362,-1811,-1147,2025-02-06 17:34:48,1
-14200,-4188,-3644,-2404,-1483,-833,2025-02-06 17:34:48,1
-14092,-3880,-4536,-2051,-961,-997,2025-02-06 17:34:48,1
-14996,-3456,-3724,-2049,-1167,-957,2025-02-06 17:34:48,1
-15052,-2940,-2888,-1897,-1911,-59,2025-02-06 17:34:48,1
-14036,-2644,-2800,-1697,-2499,1161,2025-02-06 17:34:48,1
-13148,-2400,-3324,-1725,-2164,2216,2025-02-06 17:34:48,1
-12096,-1876,-3968,-1606,-1719,2653,2025-02-06 17:34:48,1
-11704,-1448,-4676,-1688,-1083,2355,2025-02-06 17:34:48,1
-11464,-620,-4456,-1972,3,1487,2025-02-06 17:34:48,1
-11832,64,-4312,-2401,733,640,2025-02-06 17:34:48,1
-11936,372,-3844,-2777,1341,311,2025-02-06 17:34:48,1
-12064,368,-3476,-3217,2080,446,2025-02-06 17:34:48,1
-12372,40,-3348,-3535,2926,610,2025-02-06 17:34:48,1
-13032,-420,-3592,-3546,3327,797,2025-02-06 17:34:48,1
-13344,-748,-3704,-3530,3092,857,2025-02-06 17:34:48,1
-13604,-704,-3596,-3519,2807,723,2025-02-06 17:34:48,1
-13968,-584,-2932,-3335,2281,819,2025-02-06 17:34:48,1
-14584,-272,-2716,-3075,1915,1057,2025-02-06 17:34:48,1
-14332,-440,-2892,-2976,1374,1332,2025-02-06 17:34:48,1
-12912,-800,-2496,-2511,395,1350,2025-02-06 17:34:48,1
-11652,-572,-3420,-2251,-174,1084,2025-02-06 17:34:48,1
-10752,-20,-5172,-1952,67,800,2025-02-06 17:34:48,1
-9912,484,-5820,-1951,1815,391,2025-02-06 17:34:48,1
-10280,668,-4896,-2496,4327,-467,2025-02-06 17:34:48,1
-12100,300,-3588,-2451,5381,-388,2025-02-06 17:34:48,1
-13816,-60,-3056,-2020,5181,-32,2025-02-06 17:34:48,1
-15044,-236,-3196,-1610,4111,397,2025-02-06 17:34:48,1
-15312,-316,-2804,-1224,2468,720,2025-02-06 17:34:48,1
-14732,-408,-2188,-655,943,683,2025-02-06 17:34:48,1
-13860,-592,-2204,-22,-692,515,2025-02-06 17:34:49,1
-12792,-996,-2532,482,-1472,181,2025-02-06 17:34:49,1
-11608,-1324,-2268,856,-1452,-360,2025-02-06 17:34:49,1
-10808,-1296,-2088,1129,-1004,-977,2025-02-06 17:34:49,1
-10632,-988,-2364,1222,-147,-1570,2025-02-06 17:34:49,1
-11552,-620,-2344,1271,1252,-2135,2025-02-06 17:34:49,1
-12644,-1144,-2020,1527,1837,-2634,2025-02-06 17:34:49,1
-13540,-1644,-2028,2176,1222,-3041,2025-02-06 17:34:49,1
-13496,-1968,-2632,2674,-7,-3326,2025-02-06 17:34:49,1
-13972,-1936,-4196,3040,-365,-3216,2025-02-06 17:34:49,1
-14816,-1948,-6344,2928,68,-2299,2025-02-06 17:34:49,1
-15272,-2412,-6772,2225,1305,-1018,2025-02-06 17:34:49,1
-14536,-2408,-4796,1847,1948,23,2025-02-06 17:34:49,1
-13260,-2052,-3780,1841,408,397,2025-02-06 17:34:49,1
-12044,-1180,-3704,1917,-542,511,2025-02-06 17:34:49,1
-10712,-880,-4360,2218,-273,397,2025-02-06 17:34:49,1
-10032,-912,-5516,1895,1292,-50,2025-02-06 17:34:49,1
-11060,-1424,-5476,1329,2686,-355,2025-02-06 17:34:49,1
-12476,-2008,-5184,1008,3341,-380,2025-02-06 17:34:49,1
-13948,-2356,-4420,661,2880,-250,2025-02-06 17:34:49,1
-14424,-2864,-3668,733,1327,-23,2025-02-06 17:34:49,1
-14008,-3008,-3508,1054,-77,178,2025-02-06 17:34:49,1
-13136,-2888,-4180,1114,-741,279,2025-02-06 17:34:49,1
-12324,-2924,-4244,1034,-589,113,2025-02-06 17:34:49,1
-11832,-2876,-4560,853,211,-93,2025-02-06 17:34:49,1
-11972,-2560,-4152,626,986,-313,2025-02-06 17:34:49,1
-12480,-2296,-3876,383,1137,-475,2025-02-06 17:34:49,1
-12892,-2232,-3460,266,1009,-416,2025-02-06 17:34:49,1
-13100,-2436,-3412,216,737,-298,2025-02-06 17:34:49,1
-13068,-2624,-3512,185,310,-171,2025-02-06 17:34:49,1
-13176,-2720,-3544,178,75,-140,2025-02-06 17:34:49,1
-12936,-2692,-3796,190,-277,-190,2025-02-06 17:34:49,1
-12828,-2404,-3748,37,-339,-284,2025-02-06 17:34:49,1
-12612,-2140,-3804,-296,29,-372,2025-02-06 17:34:49,1
-12512,-2212,-3776,-376,221,-411,2025-02-06 17:34:49,1
-12488,-2132,-3800,-316,340,-431,2025-02-06 17:34:49,1
-12412,-2236,-4256,-381,613,-404,2025-02-06 17:34:49,1
-12376,-2452,-4688,-570,908,-399,2025-02-06 17:34:49,1
-12804,-2668,-4448,-947,1061,-265,2025-02-06 17:34:49,1
-13512,-2404,-4608,-847,944,-73,2025-02-06 17:34:49,1
-13924,-2460,-5608,-747,911,1,2025-02-06 17:34:49,3
-13660,-2260,-5208,-974,535,97,2025-02-06 17:34:49,3
-13208,-2232,-4304,-1014,101,289,2025-02-06 17:34:49,3
-12572,-2172,-4324,-995,-123,442,2025-02-06 17:34:49,3
-12036,-1856,-4912,-1153,-304,472,2025-02-06 17:34:49,3
-11468,-1784,-5168,-1355,-338,300,2025-02-06 17:34:49,3
-10824,-1764,-5032,-1591,-346,-161,2025-02-06 17:34:49,3
-10616,-2124,-4824,-1639,-522,-640,2025-02-06 17:34:49,3
-10128,-2432,-3972,-1553,-941,-950,2025-02-06 17:34:49,3
-8764,-2536,-3000,-1387,-1508,-1059,2025-02-06 17:34:49,3
-7852,-1752,-2252,-962,-2416,-1220,2025-02-06 17:34:49,3
-7252,-1064,-2516,-692,-3346,-1675,2025-02-06 17:34:49,3
-7484,-620,-1556,-247,-4029,-1748,2025-02-06 17:34:49,3
-6944,-1252,-312,257,-4402,-1030,2025-02-06 17:34:49,3
-5940,-1356,-832,325,-3860,-870,2025-02-06 17:34:49,3
-6508,-1056,20,-111,-5012,-850,2025-02-06 17:34:49,3
-7520,-1360,896,-430,-4854,-576,2025-02-06 17:34:49,3
-8172,-1756,528,-419,-3661,359,2025-02-06 17:34:49,3
-8136,-2664,-224,87,-2674,1109,2025-02-06 17:34:49,3
-8604,-2792,-1136,285,-1941,644,2025-02-06 17:34:49,3
-9768,-1360,-1060,450,-2312,54,2025-02-06 17:34:49,3
-11640,-56,-1664,855,-2855,660,2025-02-06 17:34:50,3
-12292,104,-2912,576,-3692,2330,2025-02-06 17:34:50,3
-10800,-524,-2616,87,-5304,3057,2025-02-06 17:34:50,3
-9872,-1332,-676,318,-6757,2344,2025-02-06 17:34:50,3
-10892,-1268,-832,673,-7685,1914,2025-02-06 17:34:50,3
-12900,-192,-2408,79,-8474,2375,2025-02-06 17:34:50,3
-13468,-316,-1276,-286,-9713,3059,2025-02-06 17:34:50,3
-13676,-1252,52,-135,-11274,3316,2025-02-06 17:34:50,3
-14720,-1476,1160,-499,-11846,3719,2025-02-06 17:34:50,3
-15756,-368,1300,-1017,-11073,4316,2025-02-06 17:34:50,3
-16256,708,76,-1465,-10263,4439,2025-02-06 17:34:50,3
-15412,1556,72,-1554,-9878,3949,2025-02-06 17:34:50,3
-14052,1136,1504,-1253,-11826,2377,2025-02-06 17:34:50,3
-14264,-200,3148,-635,-14090,1334,2025-02-06 17:34:50,3
-14800,-2332,4612,-535,-15673,1502,2025-02-06 17:34:50,3
-14596,-2536,4480,277,-13275,2355,2025-02-06 17:34:50,3
-14164,-132,2328,454,-9724,2566,2025-02-06 17:34:50,3
-12884,748,3056,153,-9270,2047,2025-02-06 17:34:50,3
-13640,568,5400,244,-9338,1062,2025-02-06 17:34:50,3
-14692,648,6324,363,-9113,74,2025-02-06 17:34:50,3
-17116,332,7148,339,-6624,-373,2025-02-06 17:34:50,3
-16280,-220,6700,869,-5912,-395,2025-02-06 17:34:50,3
-16700,-1888,6376,1418,-5971,-158,2025-02-06 17:34:50,3
-16852,-1860,6008,2023,-6230,-104,2025-02-06 17:34:50,3
-16684,52,6536,2065,-6465,-467,2025-02-06 17:34:50,3
-15580,536,7948,1782,-6671,-933,2025-02-06 17:34:50,3
-16880,-16,7664,1429,-5773,-1525,2025-02-06 17:34:50,3
-18440,152,6592,1263,-5122,-1350,2025-02-06 17:34:50,3
-17428,632,8012,845,-5618,-1073,2025-02-06 17:34:50,3
-15900,972,8976,537,-6368,-1306,2025-02-06 17:34:50,3
-15240,584,8492,180,-6175,-1595,2025-02-06 17:34:50,3
-15600,252,10048,142,-6489,-1642,2025-02-06 17:34:50,3
-15416,-364,10804,224,-6875,-1720,2025-02-06 17:34:50,3
-15388,-792,10616,246,-7004,-1599,2025-02-06 17:34:50,3
-15976,-84,9780,135,-6861,-941,2025-02-06 17:34:50,3
-15784,-56,9520,75,-6163,-583,2025-02-06 17:34:50,3
-14520,-56,8756,53,-4807,-631,2025-02-06 17:34:50,3
-14288,-416,8476,-186,-2729,-967,2025-02-06 17:34:50,3
-14824,-1220,8684,-446,-2050,-1446,2025-02-06 17:34:50,3
-15072,-1192,9452,-615,-1523,-2004,2025-02-06 17:34:50,3
-16188,-1008,9988,-718,-1116,-2197,2025-02-06 17:34:50,3
-16952,-1284,10360,-590,-1087,-1776,2025-02-06 17:34:50,3
-16428,-1164,10000,-548,-934,-801,2025-02-06 17:34:50,3
-14368,-804,9632,-894,-317,-357,2025-02-06 17:34:50,3
-13260,-1144,9508,-1078,652,-737,2025-02-06 17:34:50,3
-12976,-1808,9488,-926,864,-1099,2025-02-06 17:34:50,3
-12756,-1632,9260,-699,678,-1165,2025-02-06 17:34:50,3
-12748,-1020,9016,-565,393,-962,2025-02-06 17:34:50,3
-12392,-528,8836,-572,-54,-619,2025-02-06 17:34:50,3
-11864,-460,8540,-664,-285,-317,2025-02-06 17:34:50,3
-11256,-936,8372,-755,-276,-307,2025-02-06 17:34:50,3
-10676,-2088,8564,-561,179,-374,2025-02-06 17:34:50,3
-10296,-2196,8636,-218,771,-333,2025-02-06 17:34:50,3
-10656,-1272,8148,-158,1097,-348,2025-02-06 17:34:50,3
-11140,-592,8228,-290,947,-275,2025-02-06 17:34:50,3
-11624,-320,8368,-391,202,-75,2025-02-06 17:34:50,3
-11332,-468,8492,-519,-419,91,2025-02-06 17:34:50,3
-11016,-840,8484,-613,-350,73,2025-02-06 17:34:50,3
-11108,-1180,8692,-711,-200,-141,2025-02-06 17:34:50,3
-11476,-1448,9040,-683,-60,-373,2025-02-06 17:34:50,3
-12000,-1380,9276,-475,-250,-410,2025-02-06 17:34:50,3
-12340,-1012,9192,-444,-370,-300,2025-02-06 17:34:51,3
-12516,-680,9212,-493,-416,-196,2025-02-06 17:34:51,3
-12776,-812,9320,-592,-353,-80,2025-02-06 17:34:51,3
-12904,-1344,9448,-552,118,-38,2025-02-06 17:34:51,3
-12852,-1976,9316,-332,828,-150,2025-02-06 17:34:51,3
-13496,-2108,9376,-1,1615,17,2025-02-06 17:34:51,3
-13864,-1520,9372,141,2108,193,2025-02-06 17:34:51,3
-14460,-1200,9684,148,2468,219,2025-02-06 17:34:51,3
-15964,-600,10740,96,3021,392,2025-02-06 17:34:51,3
-17104,-812,11080,-198,4256,145,2025-02-06 17:34:51,3
-18356,-1312,11072,-366,6220,217,2025-02-06 17:34:51,3
-19628,-1956,10840,-193,8278,430,2025-02-06 17:34:51,3
-21288,-3180,11780,274,9564,650,2025-02-06 17:34:51,3
-22124,-2612,12204,728,9547,582,2025-02-06 17:34:51,3
-20544,4,11504,621,8493,491,2025-02-06 17:34:51,3
-18796,1532,10472,-62,8867,-80,2025-02-06 17:34:51,3
-19164,872,10680,-480,9637,-486,2025-02-06 17:34:51,3
-20204,-104,10228,-471,9983,-260,2025-02-06 17:34:51,3
-19800,-332,8444,-430,9807,216,2025-02-06 17:34:51,3
-18056,-876,6924,-486,8725,275,2025-02-06 17:34:51,3
-16328,-1240,6752,-401,7011,7,2025-02-06 17:34:51,3
-15164,-1348,5676,-200,6196,-16,2025-02-06 17:34:51,3
-14444,-768,5464,-8,5888,349,2025-02-06 17:34:51,3
-13416,-420,5696,150,5799,735,2025-02-06 17:34:51,3
-12396,-560,4872,129,6123,1074,2025-02-06 17:34:51,3
-11712,-564,3840,-24,6793,923,2025-02-06 17:34:51,3
-11880,-708,3516,-374,7335,898,2025-02-06 17:34:51,3
-11916,-916,3924,-704,7572,852,2025-02-06 17:34:51,3
-9272,-756,2892,-721,7466,782,2025-02-06 17:34:51,3
-12564,-548,2672,-1027,7490,793,2025-02-06 17:34:51,3
-13180,-104,2516,-1323,8218,507,2025-02-06 17:34:51,3
-13564,408,2104,-1712,7858,-170,2025-02-06 17:34:51,3
-14584,848,1792,-2375,7286,-991,2025-02-06 17:34:51,3
-15400,1096,1184,-3226,6891,-1498,2025-02-06 17:34:51,3
-14448,284,784,-4068,5922,-1699,2025-02-06 17:34:51,3
-14380,52,-352,-4916,7051,-1417,2025-02-06 17:34:51,3
-13152,-632,-524,-5321,8158,-1080,2025-02-06 17:34:51,3
-12256,-1600,-764,-5580,9221,-1012,2025-02-06 17:34:51,3
-11812,-2480,-892,-5935,11666,-1064,2025-02-06 17:34:51,3
-11792,-2704,404,-5930,13128,-1027,2025-02-06 17:34:51,3
-11400,-2060,1796,-5380,12434,-915,2025-02-06 17:34:51,3
-11884,-876,1696,-4688,10261,-686,2025-02-06 17:34:51,3
-12320,8,636,-3972,8333,-406,2025-02-06 17:34:51,3
-12352,484,-736,-3226,7144,-243,2025-02-06 17:34:51,3
-12016,508,-1364,-2873,6472,-282,2025-02-06 17:34:51,3
-11432,-188,-1176,-2815,6022,-517,2025-02-06 17:34:51,3
-10884,-616,80,-2694,5446,-871,2025-02-06 17:34:51,3
-10168,-476,356,-2248,3333,-1150,2025-02-06 17:34:51,3
-9496,-480,400,-1593,1463,-1177,2025-02-06 17:34:51,3
-9488,-548,260,-1081,-376,-674,2025-02-06 17:34:51,3
-8948,-268,376,-737,-2436,177,2025-02-06 17:34:51,3
-6756,-500,212,-115,-4731,400,2025-02-06 17:34:51,3
-5440,-720,368,531,-5169,-81,2025-02-06 17:34:51,3
-4952,-460,304,1303,-4846,-408,2025-02-06 17:34:51,3
-4720,-784,-956,1800,-3280,-457,2025-02-06 17:34:51,3
-5124,-1952,-1784,1729,-637,-46,2025-02-06 17:34:51,3
-6032,-2988,-2380,1689,2938,393,2025-02-06 17:34:51,3
-6884,-3644,-2284,2204,6374,524,2025-02-06 17:34:51,3
-7796,-4448,-3108,2627,7992,-478,2025-02-06 17:34:51,3
-11640,-4152,-3296,3130,9184,-1526,2025-02-06 17:34:51,7
-12968,-2156,-3436,4144,7145,-1788,2025-02-06 17:34:52,7
-14116,-184,-3356,5365,2330,-1629,2025-02-06 17:34:52,7
-11700,1148,-2616,6000,-4444,-2293,2025-02-06 17:34:52,7
-19772,2868,-6716,5792,2119,-1695,2025-02-06 17:34:52,7
-19304,2728,-6644,2809,5472,106,2025-02-06 17:34:52,7
-15264,-476,864,1634,-766,470,2025-02-06 17:34:52,7
-14676,-1988,-444,2801,-4350,-156,2025-02-06 17:34:52,7
-12872,-1392,-2788,2404,-4537,252,2025-02-06 17:34:52,7
-11364,-20,-3524,2292,-3124,495,2025-02-06 17:34:52,7
-10180,1444,-4952,1528,-122,688,2025-02-06 17:34:52,7
-10684,2036,-5128,-350,3047,239,2025-02-06 17:34:52,7
-12244,1704,-3808,-2585,4827,-128,2025-02-06 17:34:52,7
-14048,988,-3000,-3323,4843,-750,2025-02-06 17:34:52,7
-15756,156,-2996,-3524,3336,-1475,2025-02-06 17:34:52,7
-16484,432,-2472,-3711,596,-1619,2025-02-06 17:34:52,7
-15608,884,-1956,-3903,-2342,-1334,2025-02-06 17:34:52,7
-13860,1360,-2412,-4367,-4455,-1336,2025-02-06 17:34:52,7
-12052,1272,-2520,-4912,-4489,-1467,2025-02-06 17:34:52,7
-10364,528,-2860,-5968,-2181,-1696,2025-02-06 17:34:52,7
-10004,-456,-3368,-6957,241,-2462,2025-02-06 17:34:52,7
-11280,-520,-3800,-7916,2454,-3230,2025-02-06 17:34:52,7
-12880,-396,-4492,-8895,3905,-3576,2025-02-06 17:34:52,7
-14396,-264,-5280,-9949,4175,-3744,2025-02-06 17:34:52,7
-14932,-480,-4936,-10625,2310,-3918,2025-02-06 17:34:52,7
-14948,-1128,-4224,-11031,-313,-4007,2025-02-06 17:34:52,7
-14264,-1644,-2748,-11183,-1390,-4061,2025-02-06 17:34:52,7
-13240,-2028,-2272,-11238,-1972,-3941,2025-02-06 17:34:52,7
-12504,-2408,-2576,-11642,-1975,-3753,2025-02-06 17:34:52,7
-12244,-3052,-2524,-11864,-1279,-3824,2025-02-06 17:34:52,7
-12304,-3464,-2552,-12031,142,-3866,2025-02-06 17:34:52,7
-13280,-3836,-2092,-12223,1055,-3969,2025-02-06 17:34:52,7
-14040,-3092,-2376,-12510,996,-4258,2025-02-06 17:34:52,7
-14744,-2144,-2216,-13127,192,-4364,2025-02-06 17:34:52,7
-14644,-2064,-2424,-13788,-1372,-4644,2025-02-06 17:34:52,7
-14148,-1896,-3316,-14576,-2451,-4875,2025-02-06 17:34:52,7
-13104,-1724,-4036,-15193,-2678,-5226,2025-02-06 17:34:52,7
-12300,-1956,-4588,-16209,-2475,-5535,2025-02-06 17:34:52,7
-12092,-2156,-4748,-17068,-1839,-5885,2025-02-06 17:34:52,7
-12096,-2792,-4620,-17784,-1378,-5631,2025-02-06 17:34:52,7
-11620,-3232,-4124,-18454,-761,-5677,2025-02-06 17:34:52,7
-11664,-4148,-3620,-18915,-532,-6222,2025-02-06 17:34:52,7
-12224,-4016,-3960,-19395,-975,-7307,2025-02-06 17:34:52,7
-14116,-3544,-4220,-19185,-1881,-6961,2025-02-06 17:34:52,7
-13332,-3540,-5020,-19157,-2999,-6156,2025-02-06 17:34:52,7
-13012,-3072,-5560,-19195,-3468,-6451,2025-02-06 17:34:52,7
-12600,-3416,-5356,-19290,-3563,-6935,2025-02-06 17:34:52,7
-12448,-3724,-4296,-19454,-3404,-7259,2025-02-06 17:34:52,7
-12568,-3956,-3884,-19744,-3719,-7236,2025-02-06 17:34:52,7
-13452,-3192,-3760,-20279,-4765,-6622,2025-02-06 17:34:52,7
-12920,-2456,-3164,-20382,-5592,-5317,2025-02-06 17:34:52,7
-11472,-2876,-3320,-19832,-5736,-3269,2025-02-06 17:34:52,7
-9180,-4456,-4456,-19764,-4304,-2020,2025-02-06 17:34:52,7
-8820,-6252,-4692,-20010,-925,-1795,2025-02-06 17:34:52,7
-10648,-7136,-4100,-19737,1808,-1522,2025-02-06 17:34:52,7
-13224,-6240,-3604,-19162,2374,-1292,2025-02-06 17:34:52,7
-14776,-5788,-2700,-18043,1351,-1072,2025-02-06 17:34:52,7
-15304,-5856,-2808,-16636,-1605,-684,2025-02-06 17:34:52,7
-14828,-6324,-3828,-15529,-3820,62,2025-02-06 17:34:52,7
-13692,-5880,-5776,-14561,-4577,344,2025-02-06 17:34:52,7
-11392,-3944,-6300,-13485,-1756,-891,2025-02-06 17:34:52,7
-10252,-1300,-3780,-13155,799,-3256,2025-02-06 17:34:52,7
-11860,996,-2416,-13706,2263,-4100,2025-02-06 17:34:53,7
-12948,1612,-1272,-13680,3508,-3882,2025-02-06 17:34:53,7
-13944,520,-1656,-13964,4795,-3541,2025-02-06 17:34:53,7
