acceleration_x,acceleration_y,acceleration_z,gyroscope_x,gyroscope_y,gyroscope_z,timestamp,label
-11584,-1340,-6764,-205,377,-257,2025-01-29 10:43:00,0
-11640,-1284,-6672,-178,390,-261,2025-01-29 10:43:00,0
-11704,-1204,-6608,-154,334,-270,2025-01-29 10:43:00,0
-11704,-1144,-6864,-153,172,-226,2025-01-29 10:43:00,0
-11652,-1260,-6788,-104,122,-157,2025-01-29 10:43:00,0
-11532,-1188,-6840,-150,173,-168,2025-01-29 10:43:00,0
-11384,-1272,-6744,-111,229,-144,2025-01-29 10:43:00,0
-11576,-1168,-6812,-35,281,-128,2025-01-29 10:43:00,0
-11516,-1116,-7008,-37,322,-113,2025-01-29 10:43:00,0
-11508,-1228,-6880,-33,274,-123,2025-01-29 10:43:00,0
-11608,-992,-6812,-21,227,-128,2025-01-29 10:43:00,0
-11592,-948,-6776,-51,224,-125,2025-01-29 10:43:00,0
-11600,-1060,-6948,-87,201,-103,2025-01-29 10:43:00,0
-11488,-1080,-6860,-136,176,-97,2025-01-29 10:43:00,0
-11480,-1092,-6888,-143,205,-136,2025-01-29 10:43:00,0
-11636,-1020,-6816,-130,192,-97,2025-01-29 10:43:00,0
-11588,-1084,-6732,-85,217,-90,2025-01-29 10:43:00,0
-11572,-992,-6716,-85,225,-131,2025-01-29 10:43:00,0
-11476,-1056,-6896,-63,257,-148,2025-01-29 10:43:00,0
-11476,-1152,-6904,-35,253,-175,2025-01-29 10:43:00,0
-11556,-1080,-6740,-19,287,-156,2025-01-29 10:43:00,0
-11532,-988,-6616,17,346,-164,2025-01-29 10:43:00,0
-11564,-1108,-6904,-24,387,-149,2025-01-29 10:43:00,0
-11660,-1128,-7164,-27,324,-127,2025-01-29 10:43:00,0
-11676,-1092,-7116,6,184,-73,2025-01-29 10:43:00,0
-11564,-1048,-6984,-13,169,-109,2025-01-29 10:43:00,0
-11440,-1108,-7068,-3,185,-107,2025-01-29 10:43:00,0
-11528,-1104,-6816,-13,209,-105,2025-01-29 10:43:00,0
-11408,-1128,-7048,10,210,-71,2025-01-29 10:43:00,0
-11660,-1080,-6952,40,262,-80,2025-01-29 10:43:00,0
-11432,-1000,-6912,67,223,-94,2025-01-29 10:43:00,0
-11504,-1032,-6904,53,128,-88,2025-01-29 10:43:00,0
-11592,-888,-7128,22,85,-84,2025-01-29 10:43:00,0
-11472,-988,-7016,1,125,-75,2025-01-29 10:43:00,0
-11468,-956,-7128,-48,186,-91,2025-01-29 10:43:00,0
-11428,-984,-6908,-58,261,-129,2025-01-29 10:43:00,0
-11376,-1004,-6848,-69,251,-155,2025-01-29 10:43:00,0
-11452,-920,-6956,-95,263,-162,2025-01-29 10:43:00,0
-11484,-792,-6864,-124,316,-165,2025-01-29 10:43:00,0
-11512,-920,-7044,-197,347,-171,2025-01-29 10:43:00,0
-11592,-868,-6924,-252,268,-188,2025-01-29 10:43:00,0
-11612,-968,-6888,-252,173,-172,2025-01-29 10:43:00,0
-11532,-988,-6952,-271,39,-169,2025-01-29 10:43:00,0
-11484,-1100,-6832,-235,119,-182,2025-01-29 10:43:00,0
-11348,-1080,-6856,-219,216,-181,2025-01-29 10:43:00,0
-11384,-1216,-6920,-175,290,-156,2025-01-29 10:43:00,0
-11464,-1068,-6800,-173,371,-157,2025-01-29 10:43:00,0
-11520,-1116,-6808,-150,431,-174,2025-01-29 10:43:00,0
-11728,-1060,-6872,-81,381,-184,2025-01-29 10:43:00,0
-11640,-984,-6996,-83,154,-167,2025-01-29 10:43:01,0
-11536,-1200,-7132,-40,41,-134,2025-01-29 10:43:01,0
-11520,-1176,-7196,3,18,-104,2025-01-29 10:43:01,0
-11384,-1056,-6880,3,105,-90,2025-01-29 10:43:01,0
-11448,-992,-6956,-66,147,-120,2025-01-29 10:43:01,0
-11540,-932,-6856,-44,204,-93,2025-01-29 10:43:01,0
-11584,-1020,-6844,-30,180,-63,2025-01-29 10:43:01,0
-11448,-1008,-7080,20,167,-50,2025-01-29 10:43:01,0
-11492,-1060,-6868,4,147,-34,2025-01-29 10:43:01,0
-11432,-912,-6944,6,200,-66,2025-01-29 10:43:01,0
-11404,-1124,-6832,-4,258,-62,2025-01-29 10:43:01,0
-11572,-1052,-6808,54,284,-23,2025-01-29 10:43:01,0
-11584,-1084,-6956,78,309,16,2025-01-29 10:43:01,0
-11504,-1112,-7004,140,267,90,2025-01-29 10:43:01,0
-11456,-1056,-7040,192,236,111,2025-01-29 10:43:01,0
-11624,-1012,-6964,262,300,189,2025-01-29 10:43:01,1
-11764,-1016,-6900,379,420,365,2025-01-29 10:43:01,1
-11744,-1196,-6828,485,508,483,2025-01-29 10:43:01,1
-11720,-1440,-6932,516,612,608,2025-01-29 10:43:01,1
-11704,-1304,-6984,682,742,772,2025-01-29 10:43:01,1
-11788,-904,-7212,763,845,863,2025-01-29 10:43:01,1
-12052,-556,-7052,850,792,996,2025-01-29 10:43:01,1
-12124,-392,-7264,766,461,1026,2025-01-29 10:43:01,1
-12276,-332,-7012,609,-84,946,2025-01-29 10:43:01,1
-12056,-452,-6560,754,-788,938,2025-01-29 10:43:01,1
-11772,-504,-5868,989,-1460,827,2025-01-29 10:43:01,1
-11256,-304,-5836,1326,-1706,498,2025-01-29 10:43:01,1
-11180,92,-5960,1484,-1203,344,2025-01-29 10:43:01,1
-11184,324,-5852,1471,-484,250,2025-01-29 10:43:01,1
-11564,480,-5972,1303,-135,103,2025-01-29 10:43:01,1
-11860,356,-6076,963,-68,-71,2025-01-29 10:43:01,1
-12492,40,-5824,819,-324,-209,2025-01-29 10:43:01,1
-12408,76,-6168,757,-702,-304,2025-01-29 10:43:01,1
-12224,180,-6320,682,-984,-303,2025-01-29 10:43:01,1
-11768,44,-6876,519,-1474,-590,2025-01-29 10:43:01,1
-12032,20,-7180,173,-1719,-844,2025-01-29 10:43:01,1
-12476,-860,-6044,-119,-923,-898,2025-01-29 10:43:01,1
-12796,-1468,-4768,123,-515,-642,2025-01-29 10:43:01,1
-12868,-1536,-5196,327,-1498,-609,2025-01-29 10:43:01,1
-12796,-1336,-5756,443,-3091,-802,2025-01-29 10:43:01,1
-12440,-1168,-5548,845,-3954,-1038,2025-01-29 10:43:01,1
-11516,-972,-5540,1529,-4337,-1183,2025-01-29 10:43:01,1
-10376,-696,-5732,2200,-3503,-1453,2025-01-29 10:43:01,1
-9904,-552,-6120,1968,-1968,-1722,2025-01-29 10:43:01,1
-10120,-476,-6696,1614,-300,-2074,2025-01-29 10:43:01,1
-10772,-880,-7172,1386,1105,-2434,2025-01-29 10:43:01,1
-11716,-1504,-6540,1543,1921,-2688,2025-01-29 10:43:01,1
-12684,-1908,-6004,1876,1587,-2633,2025-01-29 10:43:01,1
-13120,-2488,-5384,2170,686,-2383,2025-01-29 10:43:01,1
-13096,-3040,-4464,2561,-275,-1935,2025-01-29 10:43:01,1
-12356,-2932,-4856,2669,-722,-1542,2025-01-29 10:43:01,1
-11480,-2736,-4840,2418,-613,-1131,2025-01-29 10:43:01,1
-10900,-2620,-4164,1901,535,-575,2025-01-29 10:43:01,1
-10344,-2668,-4216,1545,1965,-524,2025-01-29 10:43:01,1
-11128,-2628,-4048,1136,3508,-922,2025-01-29 10:43:01,1
-12448,-2468,-4204,826,4192,-1728,2025-01-29 10:43:01,1
-13704,-2564,-4304,709,3583,-2391,2025-01-29 10:43:01,1
-14708,-2772,-4188,641,1994,-2592,2025-01-29 10:43:01,1
-14496,-3100,-4156,622,392,-2254,2025-01-29 10:43:01,1
-13144,-3096,-4060,529,-672,-1906,2025-01-29 10:43:01,1
-11996,-2996,-4008,376,-1134,-1715,2025-01-29 10:43:01,1
-11012,-2976,-3768,76,-841,-1336,2025-01-29 10:43:01,1
-10940,-3216,-3572,-210,-81,-1010,2025-01-29 10:43:01,1
-11032,-3584,-3388,-334,673,-602,2025-01-29 10:43:01,1
-11592,-3940,-3364,-412,967,-255,2025-01-29 10:43:02,1
-11968,-4384,-3748,-362,1059,92,2025-01-29 10:43:02,1
-12092,-4244,-4584,-318,988,246,2025-01-29 10:43:02,1
-12400,-3316,-5256,-602,968,26,2025-01-29 10:43:02,1
-12836,-2220,-5648,-1258,794,-606,2025-01-29 10:43:02,1
-13688,-1372,-6216,-1934,229,-1421,2025-01-29 10:43:02,1
-14908,-1584,-5920,-2604,-637,-1980,2025-01-29 10:43:02,1
-14816,-2960,-4948,-3060,-2176,-2369,2025-01-29 10:43:02,1
-14256,-4432,-4208,-3064,-4208,-2630,2025-01-29 10:43:02,1
-13592,-4872,-4052,-3023,-5714,-2147,2025-01-29 10:43:02,1
-11792,-4248,-3704,-3089,-5368,-1530,2025-01-29 10:43:02,1
-10884,-3768,-3008,-3585,-3730,-1593,2025-01-29 10:43:02,1
-11316,-3388,-1828,-4238,-1547,-1884,2025-01-29 10:43:02,1
-12984,-2944,-1152,-4985,-170,-1702,2025-01-29 10:43:02,1
-13836,-3912,-2628,-5360,190,-1273,2025-01-29 10:43:02,1
-14064,-4948,-4812,-5238,733,-1257,2025-01-29 10:43:02,1
-14652,-6156,-5408,-4430,1469,-2166,2025-01-29 10:43:02,1
-15276,-7392,-5140,-2909,1285,-3273,2025-01-29 10:43:02,1
-16400,-8464,-5788,-1023,-224,-3542,2025-01-29 10:43:02,1
-18492,-7820,-7108,597,-2111,-1631,2025-01-29 10:43:02,1
-17360,-4660,-9092,601,-3326,2048,2025-01-29 10:43:02,1
-13752,-2576,-9792,-84,-4116,3523,2025-01-29 10:43:02,1
-11596,-920,-9616,-867,-4317,4289,2025-01-29 10:43:02,1
-9336,32,-8604,-1555,-3615,4568,2025-01-29 10:43:02,1
-7948,176,-7648,-1710,-2542,4009,2025-01-29 10:43:02,1
-7524,-224,-6636,-1460,-546,2874,2025-01-29 10:43:02,1
-8768,-720,-6244,-1166,1526,1626,2025-01-29 10:43:02,1
-11532,-1100,-6320,-990,2452,1448,2025-01-29 10:43:02,1
-13048,-1176,-6604,-698,2435,2226,2025-01-29 10:43:02,1
-12968,-1124,-6956,-678,1336,2874,2025-01-29 10:43:02,1
-12332,-1104,-6900,-615,352,3042,2025-01-29 10:43:02,1
-11708,-1096,-6600,-451,-73,2944,2025-01-29 10:43:02,1
-11460,-1140,-6056,-201,28,3255,2025-01-29 10:43:02,1
-10764,-992,-5568,145,41,3551,2025-01-29 10:43:02,1
-10640,-908,-4832,417,-22,3562,2025-01-29 10:43:02,1
-10796,-508,-5172,513,147,3477,2025-01-29 10:43:02,1
-11040,-224,-5404,204,470,3616,2025-01-29 10:43:02,1
-11108,220,-5488,-17,717,3763,2025-01-29 10:43:02,1
-11288,784,-5204,-232,741,3756,2025-01-29 10:43:02,1
-11352,1648,-5144,-479,689,3501,2025-01-29 10:43:02,1
-11532,1972,-5292,-840,677,2906,2025-01-29 10:43:02,1
-11720,1720,-5144,-1038,511,2010,2025-01-29 10:43:02,1
-12308,568,-4384,-759,-245,1047,2025-01-29 10:43:02,1
-12244,-944,-4052,-393,-1131,863,2025-01-29 10:43:02,1
-11232,-1852,-3160,239,-1607,714,2025-01-29 10:43:02,1
-10232,-1912,-2548,875,-1269,382,2025-01-29 10:43:02,1
-9464,-1764,-2760,1509,-222,-30,2025-01-29 10:43:02,1
-9760,-1364,-2684,2036,1251,-306,2025-01-29 10:43:02,1
-11064,-860,-2936,2755,2158,-400,2025-01-29 10:43:02,1
-12688,-488,-3268,3219,1993,-531,2025-01-29 10:43:02,1
-14076,-696,-3124,3586,1311,-733,2025-01-29 10:43:02,1
-15152,-788,-3168,3867,-268,-850,2025-01-29 10:43:02,1
-15404,-148,-3800,4141,-2721,-246,2025-01-29 10:43:02,1
-14392,1456,-4280,4102,-4218,439,2025-01-29 10:43:02,1
-13696,2652,-4704,3373,-4105,768,2025-01-29 10:43:02,1
-12804,3180,-4692,2651,-3882,892,2025-01-29 10:43:02,1
-12144,2688,-3928,2274,-3226,596,2025-01-29 10:43:02,1
-11884,1872,-3908,2233,-2078,484,2025-01-29 10:43:02,1
-11556,992,-3756,2228,-376,635,2025-01-29 10:43:02,1
-11616,212,-3724,2142,1404,679,2025-01-29 10:43:02,1
-12120,-592,-3732,2401,2914,1018,2025-01-29 10:43:03,1
-13672,-352,-3352,2976,3842,1478,2025-01-29 10:43:03,1
-14928,-304,-3804,3449,4493,1826,2025-01-29 10:43:03,1
-16316,156,-5496,3752,5021,2224,2025-01-29 10:43:03,1
-17560,-376,-7300,3418,5022,2779,2025-01-29 10:43:03,1
-18300,152,-8680,2637,3466,3329,2025-01-29 10:43:03,1
-18240,1756,-8920,1687,934,4015,2025-01-29 10:43:03,1
-16068,3048,-8280,786,-1337,4011,2025-01-29 10:43:03,1
-12916,3084,-8216,-4,-2352,2522,2025-01-29 10:43:03,1
-10544,2204,-7412,-376,-1962,581,2025-01-29 10:43:03,1
-9356,620,-6572,-458,-1364,-867,2025-01-29 10:43:03,1
-8724,-1012,-6716,-228,-939,-1661,2025-01-29 10:43:03,1
-7912,-2120,-6908,559,-73,-2193,2025-01-29 10:43:03,1
-7912,-2856,-7180,963,1087,-2398,2025-01-29 10:43:03,1
-8412,-2800,-6856,838,2210,-2325,2025-01-29 10:43:03,1
-8876,-1880,-6668,630,2912,-2141,2025-01-29 10:43:03,1
-9440,-1084,-7188,258,3249,-2326,2025-01-29 10:43:03,1
-10844,-1204,-6992,-535,3396,-2819,2025-01-29 10:43:03,1
-12052,-1756,-6352,-992,3070,-3064,2025-01-29 10:43:03,1
-13208,-2604,-5772,-928,1984,-3061,2025-01-29 10:43:03,1
-13844,-2456,-6272,-677,400,-2897,2025-01-29 10:43:03,1
-13764,-2028,-6788,-549,-862,-2919,2025-01-29 10:43:03,1
-12744,-1524,-6884,-582,-1745,-2942,2025-01-29 10:43:03,1
-11620,-1536,-6384,-878,-2528,-2996,2025-01-29 10:43:03,1
-10536,-1560,-5824,-1072,-2775,-2980,2025-01-29 10:43:03,1
-9928,-1948,-5752,-1320,-2219,-2874,2025-01-29 10:43:03,1
-9604,-2132,-5212,-1439,-811,-2695,2025-01-29 10:43:03,1
-9340,-2200,-5256,-1596,1070,-2792,2025-01-29 10:43:03,1
-9948,-2040,-5180,-1869,2491,-3118,2025-01-29 10:43:03,1
-10812,-1844,-4760,-2075,2891,-3395,2025-01-29 10:43:03,1
-11812,-2332,-4528,-2184,2496,-3481,2025-01-29 10:43:03,1
-12252,-2764,-4488,-2233,1861,-3294,2025-01-29 10:43:03,1
-12384,-3396,-4712,-2147,1292,-2793,2025-01-29 10:43:03,1
-12408,-3464,-4128,-2022,895,-2210,2025-01-29 10:43:03,1
-12012,-3088,-4128,-1865,773,-1429,2025-01-29 10:43:03,1
-11208,-2876,-4564,-1840,880,-940,2025-01-29 10:43:03,1
-11136,-2648,-4592,-1933,1306,-607,2025-01-29 10:43:03,1
-11660,-2664,-4456,-2072,1837,-227,2025-01-29 10:43:03,1
-11548,-3376,-4892,-2113,2152,198,2025-01-29 10:43:03,1
-12224,-3496,-5092,-2034,1802,282,2025-01-29 10:43:03,1
-12580,-3132,-4932,-1756,1185,346,2025-01-29 10:43:03,1
-12504,-2304,-4944,-1495,632,235,2025-01-29 10:43:03,1
-12208,-1420,-5208,-1399,745,-185,2025-01-29 10:43:03,1
-12260,-1488,-5216,-1611,971,-696,2025-01-29 10:43:03,1
-12420,-1784,-5664,-1849,1191,-1289,2025-01-29 10:43:03,1
-12792,-1316,-6900,-2128,949,-1798,2025-01-29 10:43:03,1
-12852,-972,-6944,-2724,382,-2146,2025-01-29 10:43:03,1
-12468,-1124,-6132,-3324,-362,-2760,2025-01-29 10:43:03,1
-12864,-1180,-5456,-3889,-930,-3187,2025-01-29 10:43:03,1
-13828,-1668,-4648,-4527,-966,-3043,2025-01-29 10:43:03,1
-13788,-3276,-5796,-4812,-12,-3150,2025-01-29 10:43:03,1
-13888,-4988,-6904,-4596,813,-3799,2025-01-29 10:43:03,1
-15316,-6080,-6612,-3575,690,-4504,2025-01-29 10:43:03,1
-17992,-6964,-5340,-1916,-101,-3853,2025-01-29 10:43:03,1
-19096,-6652,-5964,-225,-2424,-1669,2025-01-29 10:43:03,1
-18288,-5812,-7808,1031,-4955,1366,2025-01-29 10:43:03,1
-14472,-4788,-8624,2109,-5981,2785,2025-01-29 10:43:03,1
-11268,-3832,-9360,2285,-5937,3326,2025-01-29 10:43:03,1
-8308,-2672,-8524,1842,-4918,3445,2025-01-29 10:43:03,1
-6136,-1200,-8096,1358,-3270,3065,2025-01-29 10:43:03,1
-5452,1476,-7628,626,-343,2383,2025-01-29 10:43:03,1
-5780,2892,-7148,75,3409,1315,2025-01-29 10:43:04,1
-7544,2532,-6936,-320,6134,-12,2025-01-29 10:43:04,1
-10936,580,-7332,-465,7367,-491,2025-01-29 10:43:04,1
-13944,-1228,-7660,-43,6978,235,2025-01-29 10:43:04,1
-15472,-2764,-7744,84,4581,1286,2025-01-29 10:43:04,1
-16208,-3792,-7244,448,1628,2717,2025-01-29 10:43:04,1
-14688,-3540,-6980,1220,-1620,3884,2025-01-29 10:43:04,1
-12744,-2540,-7600,1254,-3768,4230,2025-01-29 10:43:04,1
-11032,-1300,-7088,1240,-4529,4563,2025-01-29 10:43:04,1
-9564,-156,-6636,1484,-4057,4785,2025-01-29 10:43:04,1
-8344,848,-6032,1529,-2330,4440,2025-01-29 10:43:04,1
-8344,1488,-5484,1253,117,3659,2025-01-29 10:43:04,1
-9352,1480,-5392,915,2313,2761,2025-01-29 10:43:04,1
-10816,908,-5132,877,2757,2371,2025-01-29 10:43:04,1
-11980,84,-4824,808,1877,2504,2025-01-29 10:43:04,1
-12184,-356,-4700,944,846,2538,2025-01-29 10:43:04,1
-11964,-188,-5144,1235,-219,2331,2025-01-29 10:43:04,1
-11260,332,-5548,1381,-937,1784,2025-01-29 10:43:04,1
-10688,488,-5464,1373,-1361,1042,2025-01-29 10:43:04,1
-10444,324,-5212,1395,-1461,371,2025-01-29 10:43:04,1
-10140,348,-4748,1589,-1423,-183,2025-01-29 10:43:04,1
-10200,380,-4540,1837,-1187,-647,2025-01-29 10:43:04,1
-10796,752,-4508,1904,-856,-1039,2025-01-29 10:43:04,1
-11732,804,-4576,1878,-342,-1127,2025-01-29 10:43:04,1
-12296,744,-4640,1881,-13,-984,2025-01-29 10:43:04,1
-12744,340,-4876,1707,221,-754,2025-01-29 10:43:04,1
-12888,36,-4924,1625,107,-484,2025-01-29 10:43:04,1
-13364,-196,-4740,1702,-218,-296,2025-01-29 10:43:04,1
-13636,-656,-3864,1937,-434,-90,2025-01-29 10:43:04,1
-13684,-912,-3892,2364,-542,181,2025-01-29 10:43:04,1
-13424,-1116,-4916,2679,-750,463,2025-01-29 10:43:04,1
-13348,-756,-5148,2796,-533,737,2025-01-29 10:43:04,1
-13592,-12,-4572,2634,-106,1447,2025-01-29 10:43:04,1
-13480,292,-3704,2707,316,2008,2025-01-29 10:43:04,1
-13352,240,-3804,2911,970,2062,2025-01-29 10:43:04,1
-13896,-1264,-4624,3121,2077,1947,2025-01-29 10:43:04,1
-14572,-2344,-5876,3201,3099,2342,2025-01-29 10:43:04,1
-15728,-760,-7380,2867,3885,2858,2025-01-29 10:43:04,1
-16696,1820,-8796,1832,4417,3582,2025-01-29 10:43:04,1
-16552,3868,-10356,225,3921,3740,2025-01-29 10:43:04,1
-15332,4816,-11160,-1997,1081,2682,2025-01-29 10:43:04,1
-12936,4356,-9508,-3350,-1977,643,2025-01-29 10:43:04,1
-11296,2776,-8128,-3733,-3763,-1167,2025-01-29 10:43:04,1
-9512,1264,-7156,-3659,-4297,-1940,2025-01-29 10:43:04,1
-7276,-320,-6424,-3017,-3874,-2663,2025-01-29 10:43:04,1
-5708,-2700,-5692,-1779,-1472,-3742,2025-01-29 10:43:04,1
-6096,-4228,-5700,-665,1392,-4119,2025-01-29 10:43:04,1
-7608,-4296,-7136,190,4205,-3873,2025-01-29 10:43:04,1
-9724,-3380,-8500,310,5951,-3266,2025-01-29 10:43:04,1
-11460,-2628,-8944,161,6364,-2673,2025-01-29 10:43:04,1
-13364,-1732,-7584,60,4545,-2404,2025-01-29 10:43:04,1
-14172,-1404,-7044,28,1429,-2427,2025-01-29 10:43:04,1
-14108,-1336,-7036,-236,-1136,-2439,2025-01-29 10:43:04,1
-13224,-1376,-7172,-479,-2916,-2622,2025-01-29 10:43:04,1
-12128,-1628,-7112,-406,-3909,-3018,2025-01-29 10:43:04,1
-11180,-1868,-7012,-415,-4199,-3238,2025-01-29 10:43:04,1
-10052,-1720,-6868,-549,-3565,-3173,2025-01-29 10:43:04,1
-9600,-1544,-6616,-852,-2255,-2937,2025-01-29 10:43:04,1
-9104,-1420,-6080,-1281,-679,-2839,2025-01-29 10:43:04,1
-9152,-1680,-5460,-1686,819,-3119,2025-01-29 10:43:04,1
-10236,-2040,-4728,-1842,1593,-3616,2025-01-29 10:43:04,1
-11236,-2400,-4584,-1812,1613,-3627,2025-01-29 10:43:04,1
-11880,-2812,-4584,-1704,1273,-3275,2025-01-29 10:43:05,1
-12156,-3228,-4420,-1423,739,-2712,2025-01-29 10:43:05,1
-11808,-3568,-4396,-1202,334,-2127,2025-01-29 10:43:05,1
-11920,-3672,-4576,-951,153,-1500,2025-01-29 10:43:05,1
-11616,-3436,-4808,-746,289,-771,2025-01-29 10:43:05,1
-11072,-2908,-5152,-608,582,-252,2025-01-29 10:43:05,1
-10840,-2216,-5312,-900,1110,-91,2025-01-29 10:43:05,1
-11428,-1280,-5092,-1164,1465,33,2025-01-29 10:43:05,1
-11780,-772,-5148,-1566,1572,433,2025-01-29 10:43:05,1
-12104,-756,-4868,-1901,1643,706,2025-01-29 10:43:05,1
-12316,-1504,-4700,-2029,1501,721,2025-01-29 10:43:05,1
-12504,-2196,-5016,-2140,1042,548,2025-01-29 10:43:05,1
-12740,-2488,-5220,-2211,643,332,2025-01-29 10:43:05,1
-12332,-2452,-5728,-2232,461,157,2025-01-29 10:43:05,1
-12156,-1896,-5816,-2342,543,-258,2025-01-29 10:43:05,1
-11852,-1448,-5972,-2675,688,-806,2025-01-29 10:43:05,1
-12032,-1300,-5788,-3027,949,-1666,2025-01-29 10:43:05,1
-12148,-1368,-6240,-3523,958,-2662,2025-01-29 10:43:05,1
-12728,-1552,-6216,-4142,493,-3322,2025-01-29 10:43:05,1
-13264,-1696,-4908,-4544,15,-3580,2025-01-29 10:43:05,1
-12876,-2084,-4856,-4761,-248,-3790,2025-01-29 10:43:05,1
-12468,-2684,-6604,-4753,412,-4585,2025-01-29 10:43:05,1
-12904,-4456,-6452,-4451,1724,-5530,2025-01-29 10:43:05,1
-13740,-6736,-5972,-3436,2721,-6169,2025-01-29 10:43:05,1
-16052,-8176,-6244,-1918,1936,-5733,2025-01-29 10:43:05,1
-17924,-7432,-6420,-833,253,-3409,2025-01-29 10:43:05,1
-18012,-5416,-7564,-109,-1768,-365,2025-01-29 10:43:05,1
-15272,-2812,-9012,140,-3057,1066,2025-01-29 10:43:05,1
-14040,-1796,-10036,-705,-3938,1460,2025-01-29 10:43:05,1
-12592,-2076,-9564,-1558,-4664,2736,2025-01-29 10:43:05,1
-10184,-2940,-9308,-1451,-4686,3249,2025-01-29 10:43:05,1
-8320,-2936,-9220,-1043,-4249,2872,2025-01-29 10:43:05,1
-6880,-1780,-8732,-729,-3546,2101,2025-01-29 10:43:05,1
-6392,-552,-7764,-378,-2353,1383,2025-01-29 10:43:05,1
-6652,608,-7676,-216,-501,993,2025-01-29 10:43:05,1
-7068,1572,-7880,-611,1920,693,2025-01-29 10:43:05,1
-8184,1804,-7936,-1435,3797,256,2025-01-29 10:43:05,1
-10492,872,-7756,-2375,4919,-26,2025-01-29 10:43:05,1
-12752,-284,-7004,-2451,5318,417,2025-01-29 10:43:05,1
-14376,-1404,-6448,-2159,4291,1016,2025-01-29 10:43:05,1
-15508,-2364,-6140,-1612,1803,2107,2025-01-29 10:43:05,1
-14604,-2540,-6452,-505,-1467,3061,2025-01-29 10:43:05,1
-13360,-2340,-6968,52,-3024,3548,2025-01-29 10:43:05,1
-11884,-1828,-6680,607,-3059,4149,2025-01-29 10:43:05,1
-10520,-1160,-6412,1001,-2562,4335,2025-01-29 10:43:05,1
-9612,-464,-5396,1267,-1484,4200,2025-01-29 10:43:05,1
-9360,-12,-4548,1604,-372,3769,2025-01-29 10:43:05,1
-9796,572,-4972,1687,434,3473,2025-01-29 10:43:05,1
-10572,1132,-5228,1627,827,3242,2025-01-29 10:43:05,1
-10988,1204,-5252,1583,788,3117,2025-01-29 10:43:05,1
-11292,1084,-5140,1631,352,2852,2025-01-29 10:43:05,1
-11140,756,-5044,1920,-425,2300,2025-01-29 10:43:05,1
-10784,644,-4944,2217,-963,1426,2025-01-29 10:43:05,1
-10648,636,-4708,2412,-1097,556,2025-01-29 10:43:05,1
-10672,308,-4696,2563,-1013,91,2025-01-29 10:43:05,1
-10768,-84,-4624,2719,-949,-230,2025-01-29 10:43:05,1
-11244,-360,-4568,2896,-977,-494,2025-01-29 10:43:05,1
-11596,-376,-4628,3087,-1155,-618,2025-01-29 10:43:05,1
-11840,44,-4968,3230,-1334,-727,2025-01-29 10:43:05,1
-12072,444,-5244,3240,-1125,-825,2025-01-29 10:43:05,1
-12352,832,-5108,3154,-894,-711,2025-01-29 10:43:05,1
-12512,792,-4792,3145,-1057,-513,2025-01-29 10:43:06,1
-12424,584,-5000,3231,-1283,-296,2025-01-29 10:43:06,1
-12472,12,-4856,3333,-1158,30,2025-01-29 10:43:06,1
-12232,-568,-4596,3525,-789,340,2025-01-29 10:43:06,1
-12232,-1428,-4620,3548,19,695,2025-01-29 10:43:06,1
-12500,-1228,-4912,3659,938,882,2025-01-29 10:43:06,1
-14112,28,-4824,3684,1419,1415,2025-01-29 10:43:06,1
-14916,552,-4420,3684,1336,1893,2025-01-29 10:43:06,1
-15020,208,-3148,3891,723,1857,2025-01-29 10:43:06,1
-15372,-784,-3712,4497,555,1715,2025-01-29 10:43:06,1
-15356,-1792,-5360,4913,713,2073,2025-01-29 10:43:06,1
-14952,-1552,-7360,5022,1331,2572,2025-01-29 10:43:06,1
-15628,452,-8864,4467,2314,3246,2025-01-29 10:43:06,1
-15360,2644,-9736,3106,2568,3385,2025-01-29 10:43:06,1
-14472,3924,-10676,1141,1251,2502,2025-01-29 10:43:06,1
-13328,3716,-10736,-406,-263,1004,2025-01-29 10:43:06,1
-12184,2852,-9864,-1560,-1168,-343,2025-01-29 10:43:06,1
-10616,1120,-8276,-2181,-1705,-1264,2025-01-29 10:43:06,1
-8488,-560,-6716,-2388,-1841,-2223,2025-01-29 10:43:06,1
-7004,-1676,-6292,-2267,-1343,-3067,2025-01-29 10:43:06,1
-6244,-2496,-6004,-1909,-176,-3509,2025-01-29 10:43:06,1
-6464,-2856,-6256,-1299,2178,-3497,2025-01-29 10:43:06,1
-7548,-3336,-6796,-908,5759,-3383,2025-01-29 10:43:06,1
-9312,-3292,-7612,-751,7541,-3533,2025-01-29 10:43:06,1
-11868,-3804,-8320,-521,8309,-3669,2025-01-29 10:43:06,1
-13988,-4264,-8276,-166,6821,-3533,2025-01-29 10:43:06,1
-14920,-3976,-8752,355,2973,-2898,2025-01-29 10:43:06,1
-14348,-3100,-8776,713,-532,-1925,2025-01-29 10:43:06,1
-12544,-2264,-8796,751,-2240,-1666,2025-01-29 10:43:06,1
-10716,-2028,-8636,706,-3059,-1839,2025-01-29 10:43:06,1
-9188,-2296,-8232,675,-2899,-1933,2025-01-29 10:43:06,1
-8140,-2332,-7508,560,-1746,-2079,2025-01-29 10:43:06,1
-7900,-2576,-7676,370,-210,-2154,2025-01-29 10:43:06,1
-8784,-2880,-6936,414,1360,-2071,2025-01-29 10:43:06,1
-9768,-2788,-6900,410,2322,-1884,2025-01-29 10:43:06,1
-10860,-2868,-7032,310,2532,-1753,2025-01-29 10:43:06,1
-11512,-2960,-6908,304,2109,-1674,2025-01-29 10:43:06,1
-11824,-2868,-6720,138,1356,-1560,2025-01-29 10:43:06,1
-11964,-2796,-7024,-11,585,-1395,2025-01-29 10:43:06,1
-11560,-2664,-7132,-239,76,-1146,2025-01-29 10:43:06,1
-11272,-2324,-7100,-578,-71,-1098,2025-01-29 10:43:06,1
-10548,-2280,-7480,-877,28,-1153,2025-01-29 10:43:06,0
-10648,-2596,-7316,-1118,296,-1119,2025-01-29 10:43:06,0
-10860,-3248,-7440,-1225,1010,-994,2025-01-29 10:43:06,0
-11468,-3040,-7076,-1247,1044,-786,2025-01-29 10:43:06,0
-11732,-2900,-7088,-1300,754,-537,2025-01-29 10:43:06,0
-11800,-2940,-7220,-1447,257,-340,2025-01-29 10:43:06,0
-11852,-3144,-6872,-1479,-92,-188,2025-01-29 10:43:06,0
-11856,-3220,-6684,-1413,-228,13,2025-01-29 10:43:06,0
-11768,-3212,-6272,-1508,-406,266,2025-01-29 10:43:06,0
-11800,-2852,-6212,-1534,-431,684,2025-01-29 10:43:06,0
-11656,-2612,-6504,-1667,-545,1120,2025-01-29 10:43:06,0
-11248,-2344,-6756,-2036,-469,1495,2025-01-29 10:43:06,0
-11216,-2084,-6364,-2234,-437,1867,2025-01-29 10:43:06,0
-10860,-2352,-6740,-2334,-586,2179,2025-01-29 10:43:06,0
-10556,-2556,-7180,-2323,-612,2233,2025-01-29 10:43:06,0
-10608,-2536,-8168,-2130,-398,1876,2025-01-29 10:43:06,0
-10948,-2056,-8796,-1622,138,972,2025-01-29 10:43:06,0
-11160,-1440,-8532,-939,352,-323,2025-01-29 10:43:06,0
-12048,-992,-8064,-511,-287,-987,2025-01-29 10:43:06,0
-11584,-796,-8052,-409,-666,-647,2025-01-29 10:43:07,0
-10924,-948,-8112,-898,-490,-345,2025-01-29 10:43:07,0
-10348,-1408,-7756,-1497,-63,-130,2025-01-29 10:43:07,0
-9716,-1540,-7640,-1962,490,-130,2025-01-29 10:43:07,0
-9788,-1760,-7448,-2131,1255,-335,2025-01-29 10:43:07,0
-10344,-1688,-7184,-1905,2271,-541,2025-01-29 10:43:07,0
-11172,-1668,-7264,-1570,2736,-735,2025-01-29 10:43:07,0
-11884,-1244,-7164,-1315,2491,-747,2025-01-29 10:43:07,0
-12196,-1064,-7300,-1245,1556,-695,2025-01-29 10:43:07,0
-11784,-1512,-7072,-1078,459,-508,2025-01-29 10:43:07,0
-10908,-1932,-7224,-868,228,-261,2025-01-29 10:43:07,0
-10084,-2168,-7956,-626,1044,-217,2025-01-29 10:43:07,0
-10100,-2200,-8100,-412,1928,-30,2025-01-29 10:43:07,0
-10296,-1884,-8432,17,2645,122,2025-01-29 10:43:07,0
-10212,-1556,-9132,167,3022,151,2025-01-29 10:43:07,0
-10484,-1220,-9232,167,2795,159,2025-01-29 10:43:07,0
-10544,-1168,-9560,246,2262,332,2025-01-29 10:43:07,0
-10276,-900,-10324,134,1535,581,2025-01-29 10:43:07,0
-9488,-492,-11132,-94,761,755,2025-01-29 10:43:07,0
-8216,-456,-11384,-485,-21,1216,2025-01-29 10:43:07,4
-6332,-868,-10164,-855,-791,1866,2025-01-29 10:43:07,4
-3816,-840,-7956,-1112,-933,2086,2025-01-29 10:43:07,4
-2368,-780,-5692,-1383,-386,2213,2025-01-29 10:43:07,4
-1812,-416,-4192,-1841,742,2458,2025-01-29 10:43:07,4
-1744,-320,-2632,-2358,2910,2202,2025-01-29 10:43:07,4
-3396,44,-1176,-2555,5533,1613,2025-01-29 10:43:07,4
-6008,1156,252,-2322,7391,581,2025-01-29 10:43:07,4
-9192,1888,1108,-1910,6240,131,2025-01-29 10:43:07,4
-9892,560,288,-1482,4826,-93,2025-01-29 10:43:07,4
-9984,-1560,-892,-1229,2355,-747,2025-01-29 10:43:07,4
-12460,-1164,-3076,-809,-1012,-1444,2025-01-29 10:43:07,4
-13176,76,-3596,-549,-633,-550,2025-01-29 10:43:07,4
-12184,628,-4364,828,-1461,-10,2025-01-29 10:43:07,4
-12864,-692,-8284,1161,-2957,277,2025-01-29 10:43:07,4
-13308,-2244,-11756,1234,-3856,202,2025-01-29 10:43:07,4
-14848,-2164,-12944,1310,-3311,-744,2025-01-29 10:43:07,4
-18232,580,-11904,692,-1884,-1925,2025-01-29 10:43:07,4
-20116,1492,-11684,506,-2471,-1533,2025-01-29 10:43:07,4
-21044,-348,-13088,305,-3979,-25,2025-01-29 10:43:07,4
-22992,-2180,-13996,119,-2751,775,2025-01-29 10:43:07,4
-25436,-2780,-13580,881,175,762,2025-01-29 10:43:07,4
-28380,-2964,-14820,2301,3426,-21,2025-01-29 10:43:07,4
-31224,-1440,-16928,3342,5963,-324,2025-01-29 10:43:07,4
-32768,132,-18540,3267,10648,-867,2025-01-29 10:43:07,4
-32768,632,-19388,2826,20891,-1281,2025-01-29 10:43:07,4
-32768,936,-21844,2106,32767,-1514,2025-01-29 10:43:07,4
-32768,352,-27448,1032,32767,-1906,2025-01-29 10:43:07,4
-24148,-1748,-32768,196,32767,-2647,2025-01-29 10:43:07,4
-16400,-3148,-32768,-509,32767,-3381,2025-01-29 10:43:07,4
-13744,-1772,-32768,-616,32767,-2841,2025-01-29 10:43:07,4
-11512,628,-31372,-2133,9292,-1312,2025-01-29 10:43:07,4
-6492,2756,-24308,-3667,-28147,755,2025-01-29 10:43:07,4
-1144,2436,-16200,-3735,-32768,3468,2025-01-29 10:43:07,4
8104,-860,-12500,-4909,-32768,5631,2025-01-29 10:43:07,4
7924,-2712,-15132,-7701,-32768,7278,2025-01-29 10:43:07,4
14016,-3572,-7760,-1200,-32768,4602,2025-01-29 10:43:07,4
-6520,-4820,-32768,-7764,-32768,6656,2025-01-29 10:43:07,4
-5984,-3840,-32768,-12324,-32768,8986,2025-01-29 10:43:07,4
14500,-2424,-5464,-13318,-32768,12022,2025-01-29 10:43:07,4
30856,-2144,15432,-12426,-32768,14313,2025-01-29 10:43:07,4
31668,-1776,25868,-7552,-32768,10572,2025-01-29 10:43:08,4
32767,-5176,11540,461,-32768,3211,2025-01-29 10:43:08,4
16532,-6628,-8936,2181,-21406,-5163,2025-01-29 10:43:08,4
5780,-6304,-18224,-886,1357,-8903,2025-01-29 10:43:08,4
-588,-3812,-18288,-5213,22370,-7525,2025-01-29 10:43:08,4
132,-1220,-12400,-6353,32767,-4759,2025-01-29 10:43:08,4
696,1436,-5552,-4124,32767,-3296,2025-01-29 10:43:08,4
5176,5752,17044,4992,32767,-998,2025-01-29 10:43:08,4
4508,1148,10564,7482,32767,1516,2025-01-29 10:43:08,4
692,-1532,-6584,2742,6466,1114,2025-01-29 10:43:08,4
-6148,-1572,-4472,-1742,1293,-1324,2025-01-29 10:43:08,4
-6840,-1608,3660,-1701,6390,-3654,2025-01-29 10:43:08,4
-3656,-1676,6588,-189,-545,-4621,2025-01-29 10:43:08,4
-2240,-1768,468,-89,-9425,-3924,2025-01-29 10:43:08,4
-2608,228,3180,231,-13282,-1793,2025-01-29 10:43:08,4
-1052,1812,3216,1524,-13558,707,2025-01-29 10:43:08,4
740,2020,-1944,1052,-10551,1900,2025-01-29 10:43:08,4
3740,2024,-5424,-720,-10617,2081,2025-01-29 10:43:08,4
5116,2804,-2852,-1799,-12201,1585,2025-01-29 10:43:08,4
-3860,844,-15084,-1993,4220,-104,2025-01-29 10:43:08,4
-6532,-1048,-23868,-2162,32767,-3442,2025-01-29 10:43:08,4
-17472,-3908,1436,2657,32767,-6667,2025-01-29 10:43:08,4
-6956,-5232,-19000,7372,32767,-8370,2025-01-29 10:43:08,4
-25852,-8736,-32768,4684,32767,-17861,2025-01-29 10:43:08,4
-32768,-368,-32768,-930,32767,-12762,2025-01-29 10:43:08,4
-32768,-11232,-32768,4077,32767,-1963,2025-01-29 10:43:08,4
29888,-5992,-32768,7908,23682,-1637,2025-01-29 10:43:08,4
5260,-1592,-32768,146,-32768,3082,2025-01-29 10:43:08,4
-14568,1824,-27524,-487,-32768,7663,2025-01-29 10:43:08,4
-3460,572,-14716,-2839,-32768,5470,2025-01-29 10:43:08,4
-11128,908,-7548,-7605,-32768,4414,2025-01-29 10:43:08,4
31312,11508,32767,-8013,-32768,4245,2025-01-29 10:43:08,4
2116,-2444,-14644,-3955,-25536,5353,2025-01-29 10:43:08,4
-11768,-1440,-7536,1350,-5969,1392,2025-01-29 10:43:08,4
-9272,60,-9112,677,-5319,1145,2025-01-29 10:43:08,4
-8132,76,-8692,142,-2424,312,2025-01-29 10:43:08,4
-8672,-8,-7956,-204,1852,-291,2025-01-29 10:43:08,4
-10088,-304,-6392,-545,4259,-682,2025-01-29 10:43:08,4
-12112,-772,-5596,-489,4527,-1013,2025-01-29 10:43:08,4
-13520,-1052,-4900,-286,2993,-1077,2025-01-29 10:43:08,4
-14168,-1124,-4716,1,435,-620,2025-01-29 10:43:08,4
-14000,-1372,-5836,281,-1410,-21,2025-01-29 10:43:08,4
-13164,-936,-7116,150,-2146,659,2025-01-29 10:43:08,4
-11452,-444,-6976,-443,-2318,574,2025-01-29 10:43:09,0
-10528,-808,-5604,-419,-2152,109,2025-01-29 10:43:09,0
-10300,-996,-6040,-189,-1347,-273,2025-01-29 10:43:09,0
-10420,-1172,-6648,-97,-420,-525,2025-01-29 10:43:09,0
-11948,-1752,-6036,-45,546,-562,2025-01-29 10:43:09,0
-11552,-2108,-7720,189,652,-359,2025-01-29 10:43:09,0
-12296,-1636,-7872,266,122,22,2025-01-29 10:43:09,0
-11776,-1176,-7744,-12,-692,73,2025-01-29 10:43:09,0
-11396,-996,-6640,-82,-1119,-140,2025-01-29 10:43:09,0
-11100,-940,-6896,-137,-867,-282,2025-01-29 10:43:09,0
-11164,-748,-6652,-195,-166,-342,2025-01-29 10:43:09,0
-11360,-968,-6396,-353,585,-310,2025-01-29 10:43:09,0
-11908,-1048,-6144,-456,750,-236,2025-01-29 10:43:09,0
-12300,-1216,-6028,-465,243,-127,2025-01-29 10:43:09,0
-12128,-1340,-6120,-399,-481,-100,2025-01-29 10:43:09,0
-11648,-1480,-6044,-283,-716,-187,2025-01-29 10:43:09,0
-11180,-1664,-6544,-174,-474,-246,2025-01-29 10:43:09,0
-11100,-1660,-6504,20,56,-230,2025-01-29 10:43:09,0
-11068,-1212,-6400,60,841,-178,2025-01-29 10:43:09,0
-11476,-1248,-6608,5,1045,-197,2025-01-29 10:43:09,0
-11960,-1304,-6764,45,777,-144,2025-01-29 10:43:09,0
-12224,-1312,-6752,119,419,-85,2025-01-29 10:43:09,0
-11936,-1164,-6860,120,208,-120,2025-01-29 10:43:09,0
-11788,-1236,-6648,226,126,-152,2025-01-29 10:43:09,0
-11672,-1132,-6624,224,77,-158,2025-01-29 10:43:09,0
-11552,-1136,-6380,207,91,-53,2025-01-29 10:43:09,0
-11308,-1076,-6684,140,269,30,2025-01-29 10:43:09,0
-11404,-1168,-6548,135,471,44,2025-01-29 10:43:09,0
-11560,-1240,-6744,132,395,-22,2025-01-29 10:43:09,0
-11608,-1240,-6724,189,404,-51,2025-01-29 10:43:09,0
-11696,-1032,-6632,183,452,-107,2025-01-29 10:43:09,0
-11856,-836,-6584,111,399,-201,2025-01-29 10:43:09,0
-11824,-728,-6732,36,203,-133,2025-01-29 10:43:09,0
-11628,-860,-6780,-167,127,-71,2025-01-29 10:43:09,0
-11484,-1112,-6628,-156,90,-101,2025-01-29 10:43:09,0
-11648,-1156,-6868,-172,245,-63,2025-01-29 10:43:09,0
-11656,-1176,-6732,-117,327,-100,2025-01-29 10:43:09,0
-11756,-936,-6580,-39,292,-116,2025-01-29 10:43:09,0
-11976,-688,-6724,-89,104,-147,2025-01-29 10:43:09,0
-11920,-752,-6524,-184,-105,-154,2025-01-29 10:43:09,0
-11560,-728,-6636,-252,-167,-117,2025-01-29 10:43:09,0
-11664,-752,-6684,-357,-46,-144,2025-01-29 10:43:09,0
-11472,-728,-6972,-460,200,-168,2025-01-29 10:43:09,0
-11720,-492,-7076,-557,412,-175,2025-01-29 10:43:09,0
-11768,-556,-7264,-722,419,-206,2025-01-29 10:43:09,0
-11740,-356,-7096,-903,322,-313,2025-01-29 10:43:09,0
-11960,-76,-7260,-1071,166,-373,2025-01-29 10:43:09,0
-11728,92,-7276,-1268,-20,-435,2025-01-29 10:43:09,0
-11472,20,-7276,-1514,-211,-596,2025-01-29 10:43:09,0
-11340,152,-7188,-1703,-279,-695,2025-01-29 10:43:09,0
-11208,136,-6984,-1924,-169,-788,2025-01-29 10:43:09,0
-11128,156,-6992,-2163,-77,-1050,2025-01-29 10:43:09,0
-11616,212,-7196,-2328,147,-1219,2025-01-29 10:43:09,0
-11852,128,-7424,-2524,293,-1119,2025-01-29 10:43:09,0
-11960,-20,-6904,-2669,173,-1186,2025-01-29 10:43:09,0
-11928,-196,-6688,-2735,-221,-1304,2025-01-29 10:43:09,0
-11456,-72,-6120,-2664,-574,-1521,2025-01-29 10:43:09,0
-10972,40,-6072,-2683,-656,-1868,2025-01-29 10:43:09,0
-10696,244,-6388,-2699,-460,-2377,2025-01-29 10:43:09,0
-10856,192,-6484,-2863,-39,-2761,2025-01-29 10:43:10,0
-11164,160,-6408,-2923,100,-3125,2025-01-29 10:43:10,0
-11612,-136,-6644,-3064,-4,-3411,2025-01-29 10:43:10,0
-11872,-440,-6648,-3192,-84,-3663,2025-01-29 10:43:10,7
-12056,-724,-6712,-3167,-310,-3813,2025-01-29 10:43:10,7
-12000,-576,-7104,-3209,-457,-3994,2025-01-29 10:43:10,7
-12020,-256,-7612,-3385,-160,-4150,2025-01-29 10:43:10,7
-11684,12,-7292,-3472,186,-4174,2025-01-29 10:43:10,7
-11032,-80,-7528,-3583,99,-4451,2025-01-29 10:43:10,7
-10840,-456,-7644,-3595,229,-4814,2025-01-29 10:43:10,7
-10544,-1136,-7544,-3463,728,-4968,2025-01-29 10:43:10,7
-10448,-1692,-6664,-3207,1249,-5045,2025-01-29 10:43:10,7
-10716,-2444,-6764,-3273,1707,-5379,2025-01-29 10:43:10,7
-11732,-2888,-6344,-3749,2318,-5859,2025-01-29 10:43:10,7
-13072,-2260,-7364,-4391,1841,-5873,2025-01-29 10:43:10,7
-14076,-1556,-7752,-5538,366,-5662,2025-01-29 10:43:10,7
-14180,-1088,-6712,-6659,-1373,-5543,2025-01-29 10:43:10,7
-13316,-860,-6328,-7597,-2948,-5538,2025-01-29 10:43:10,7
-12116,-1580,-6860,-8817,-3866,-5875,2025-01-29 10:43:10,7
-11248,-2332,-6420,-9452,-4006,-6073,2025-01-29 10:43:10,7
-10532,-3084,-6096,-9714,-3550,-6122,2025-01-29 10:43:10,7
-10048,-3704,-5820,-9856,-2539,-6195,2025-01-29 10:43:10,7
-9872,-4084,-5644,-9841,-1526,-6264,2025-01-29 10:43:10,7
-10064,-3900,-6124,-9842,-598,-6340,2025-01-29 10:43:10,7
-10732,-3868,-6252,-10022,-23,-6328,2025-01-29 10:43:10,7
-11188,-3920,-6344,-10145,130,-6116,2025-01-29 10:43:10,7
-11760,-3724,-6472,-10477,-518,-6072,2025-01-29 10:43:10,7
-12104,-3976,-6308,-10601,-1118,-5881,2025-01-29 10:43:10,7
-11816,-4428,-6196,-10575,-1552,-5553,2025-01-29 10:43:10,7
-11444,-4704,-6424,-10527,-1765,-5253,2025-01-29 10:43:10,7
-10756,-4636,-6728,-10486,-1744,-5268,2025-01-29 10:43:10,7
-10604,-4200,-7228,-10621,-1289,-5536,2025-01-29 10:43:10,7
-10860,-3136,-7240,-10901,-713,-5777,2025-01-29 10:43:10,7
-11772,-2104,-7316,-11430,-490,-5552,2025-01-29 10:43:10,7
-11644,-2456,-7612,-11768,-400,-4833,2025-01-29 10:43:10,7
-10812,-3644,-8020,-12099,-120,-4850,2025-01-29 10:43:10,7
-10840,-4488,-7648,-12571,-12,-5494,2025-01-29 10:43:10,7
-11788,-4016,-7268,-12958,-259,-5889,2025-01-29 10:43:10,7
-12120,-2880,-6724,-13549,-938,-6017,2025-01-29 10:43:10,7
-12116,-2504,-7092,-14019,-1942,-6036,2025-01-29 10:43:10,7
-11772,-2552,-7804,-14632,-2891,-5882,2025-01-29 10:43:10,7
-11124,-2880,-8020,-15396,-3328,-5660,2025-01-29 10:43:10,7
-10396,-3568,-7536,-16304,-3505,-5236,2025-01-29 10:43:10,7
-10384,-3560,-7700,-16644,-3592,-4597,2025-01-29 10:43:10,7
-10456,-3220,-8452,-17185,-2952,-4268,2025-01-29 10:43:10,7
-10324,-3380,-8984,-17533,-2175,-4720,2025-01-29 10:43:10,7
-10636,-4056,-9308,-16919,-1641,-5657,2025-01-29 10:43:10,7
-11076,-5184,-8428,-15385,-1283,-6405,2025-01-29 10:43:10,7
-10864,-4304,-7576,-13469,-1526,-6447,2025-01-29 10:43:10,7
-10808,-2064,-8688,-13323,-1195,-5731,2025-01-29 10:43:10,7
-10616,28,-9112,-14177,255,-4938,2025-01-29 10:43:10,7
-10252,1360,-8784,-14440,1677,-4747,2025-01-29 10:43:10,7
-9848,1088,-8432,-14531,2921,-5387,2025-01-29 10:43:10,7
-10712,160,-7648,-14894,3744,-5879,2025-01-29 10:43:10,7
-11292,-600,-6460,-14973,3803,-5978,2025-01-29 10:43:10,7
-11908,-1144,-6292,-14812,3265,-5841,2025-01-29 10:43:10,7
-12664,-576,-6136,-14373,2381,-5414,2025-01-29 10:43:10,7
-12828,912,-7048,-13987,1084,-4953,2025-01-29 10:43:10,7
-12432,2264,-7992,-13980,-335,-4985,2025-01-29 10:43:10,7
-11828,3080,-8320,-14302,-1310,-5359,2025-01-29 10:43:10,7
-10800,2828,-8168,-14498,-1125,-5861,2025-01-29 10:43:10,7
-10504,1596,-7536,-14507,19,-6202,2025-01-29 10:43:10,7
-10612,464,-6784,-14228,1079,-6300,2025-01-29 10:43:11,7
-11068,-300,-6268,-13814,1625,-6211,2025-01-29 10:43:11,7
-11672,-556,-6212,-13342,1407,-6172,2025-01-29 10:43:11,7
-12416,-464,-6504,-12914,909,-5908,2025-01-29 10:43:11,7
-12596,-192,-6520,-12439,441,-5620,2025-01-29 10:43:11,7
-12280,340,-6296,-11928,-363,-5531,2025-01-29 10:43:11,7
-11828,1008,-6368,-11655,-973,-5588,2025-01-29 10:43:11,7
-11360,1588,-6388,-11484,-1234,-5676,2025-01-29 10:43:11,7
-10772,1684,-6468,-11427,-1116,-5919,2025-01-29 10:43:11,7
-10368,1148,-6268,-11267,-741,-6261,2025-01-29 10:43:11,7
-10452,688,-5896,-10915,-170,-6418,2025-01-29 10:43:11,7
-10676,620,-5616,-10455,265,-6495,2025-01-29 10:43:11,7
-11128,928,-5952,-10125,300,-6458,2025-01-29 10:43:11,7
-11188,1692,-6712,-10065,247,-6457,2025-01-29 10:43:11,7
-11016,2356,-7520,-10389,-28,-6542,2025-01-29 10:43:11,7
-10852,2780,-7872,-10962,-38,-6702,2025-01-29 10:43:11,7
-10816,2608,-7928,-11435,605,-6920,2025-01-29 10:43:11,7
-11076,2356,-8124,-11878,991,-7067,2025-01-29 10:43:11,7
-11012,1992,-7920,-12180,930,-7201,2025-01-29 10:43:11,7
-11364,1068,-7004,-12144,857,-7265,2025-01-29 10:43:11,7
-11560,556,-6100,-11733,783,-7161,2025-01-29 10:43:11,7
-11644,-44,-5652,-11124,737,-7076,2025-01-29 10:43:11,7
-11684,-320,-5296,-10383,620,-7055,2025-01-29 10:43:11,7
-11488,-412,-5460,-9734,162,-7095,2025-01-29 10:43:11,7
-11532,92,-5440,-9062,-144,-7221,2025-01-29 10:43:11,7
-11528,148,-5360,-8483,-95,-7096,2025-01-29 10:43:11,7
-11396,256,-5616,-8033,-86,-7110,2025-01-29 10:43:11,7
-11336,-108,-5720,-7704,11,-7087,2025-01-29 10:43:11,7
-11312,-412,-5696,-7398,70,-7024,2025-01-29 10:43:11,7
-11224,-708,-5804,-7075,427,-6911,2025-01-29 10:43:11,7
-11196,-1192,-6008,-6818,886,-6899,2025-01-29 10:43:11,7
-11356,-1840,-5736,-6475,1112,-7090,2025-01-29 10:43:11,7
-12044,-2224,-5956,-5841,1259,-6894,2025-01-29 10:43:11,7
-12948,-1992,-6696,-5179,1773,-6011,2025-01-29 10:43:11,7
-13112,-864,-7592,-4788,1912,-5077,2025-01-29 10:43:11,7
-13212,-40,-8064,-5161,1629,-4475,2025-01-29 10:43:11,7
-12876,432,-6936,-5394,1061,-4073,2025-01-29 10:43:11,7
-11940,996,-5256,-4926,286,-4077,2025-01-29 10:43:11,7
-11376,1400,-6388,-4715,-500,-4048,2025-01-29 10:43:11,7
-11072,852,-6972,-4948,65,-4227,2025-01-29 10:43:11,7
-11304,-128,-6784,-5092,1172,-4446,2025-01-29 10:43:11,7
-12096,-452,-6940,-5070,1690,-4691,2025-01-29 10:43:11,7
-12484,-324,-7124,-5292,1274,-5203,2025-01-29 10:43:11,7
-12624,192,-7012,-5332,636,-5648,2025-01-29 10:43:11,7
-12468,240,-7296,-5441,157,-5900,2025-01-29 10:43:11,7
-12116,-36,-7100,-5671,-182,-5967,2025-01-29 10:43:11,7
-11472,-916,-7400,-5966,-595,-6169,2025-01-29 10:43:11,7
-11068,-1872,-7208,-6343,-646,-6575,2025-01-29 10:43:11,7
-11216,-3004,-6712,-6492,-494,-6847,2025-01-29 10:43:11,7
-11512,-3604,-6348,-6349,-210,-6719,2025-01-29 10:43:11,7
-11584,-3296,-6224,-6070,-205,-6535,2025-01-29 10:43:11,7
-11612,-2772,-6144,-5920,-443,-6276,2025-01-29 10:43:11,7
-11504,-2188,-6252,-5906,-446,-6103,2025-01-29 10:43:11,7
-11700,-1844,-6556,-6009,-301,-5915,2025-01-29 10:43:11,7
-11260,-2244,-6156,-6101,-238,-5885,2025-01-29 10:43:11,7
-11672,-2880,-5748,-6050,-202,-5719,2025-01-29 10:43:11,7
-11780,-3272,-5564,-5909,-130,-5345,2025-01-29 10:43:11,7
-11408,-3476,-5648,-5637,-292,-5065,2025-01-29 10:43:11,7
-11344,-3492,-5700,-5245,-212,-4745,2025-01-29 10:43:11,7
-11368,-3376,-5700,-4980,100,-4295,2025-01-29 10:43:11,7
-11520,-3180,-5696,-4893,627,-3739,2025-01-29 10:43:11,7
-11884,-3092,-5408,-4840,932,-3213,2025-01-29 10:43:12,7
-11984,-3096,-5388,-4608,1035,-2817,2025-01-29 10:43:12,7
-12288,-3092,-5724,-4387,654,-2486,2025-01-29 10:43:12,7
-12536,-2844,-5476,-4254,151,-2340,2025-01-29 10:43:12,7
-12788,-2680,-4880,-3868,-333,-2233,2025-01-29 10:43:12,7
-12532,-2476,-4704,-3493,-999,-2108,2025-01-29 10:43:12,7
-12124,-2264,-4608,-3258,-1442,-2057,2025-01-29 10:43:12,7
-11468,-2352,-5108,-3287,-1424,-2068,2025-01-29 10:43:12,7
-11368,-2296,-5268,-3446,-879,-2190,2025-01-29 10:43:12,7
-11772,-2180,-5300,-3726,-438,-2141,2025-01-29 10:43:12,7
-12008,-2100,-5076,-3780,-664,-2030,2025-01-29 10:43:12,7
-12128,-2224,-5116,-3721,-964,-1765,2025-01-29 10:43:12,7
-11872,-2184,-5020,-3715,-1087,-1469,2025-01-29 10:43:12,7
-11344,-2016,-5148,-3802,-914,-1447,2025-01-29 10:43:12,7
-11160,-1892,-4864,-3944,-205,-1737,2025-01-29 10:43:12,7
-11404,-2064,-5020,-4031,576,-2078,2025-01-29 10:43:12,7
-11996,-2284,-4712,-4151,942,-2334,2025-01-29 10:43:12,7
-12444,-2488,-5100,-4392,826,-2660,2025-01-29 10:43:12,7
-13108,-2812,-5036,-4539,486,-3020,2025-01-29 10:43:12,7
-13624,-3292,-5228,-4504,-131,-3060,2025-01-29 10:43:12,7
-13428,-3400,-5604,-4411,-826,-2915,2025-01-29 10:43:12,7
-12952,-3196,-5644,-4489,-1217,-2944,2025-01-29 10:43:12,1
-12816,-3108,-4824,-4604,-1059,-3128,2025-01-29 10:43:12,1
-13072,-2884,-4064,-4617,-897,-2896,2025-01-29 10:43:12,1
-13256,-3440,-5224,-4505,-609,-2625,2025-01-29 10:43:12,1
-13544,-4456,-6424,-4250,551,-2653,2025-01-29 10:43:12,1
-13912,-5284,-6000,-3209,1182,-3096,2025-01-29 10:43:12,1
-14920,-5996,-5744,-1960,1151,-3311,2025-01-29 10:43:12,1
-16192,-6668,-5388,-844,-93,-2668,2025-01-29 10:43:12,1
-16428,-7096,-5468,389,-1866,-1379,2025-01-29 10:43:12,1
-16060,-6132,-6024,1460,-3285,375,2025-01-29 10:43:12,1
-14548,-3424,-6796,1431,-3715,2232,2025-01-29 10:43:12,1
-12104,-1592,-8176,522,-3690,3561,2025-01-29 10:43:12,1
-9940,-1532,-9488,-533,-2768,4177,2025-01-29 10:43:12,1
-8592,-1720,-10828,-869,-1669,3804,2025-01-29 10:43:12,1
-8824,-1304,-10484,-949,-469,3211,2025-01-29 10:43:12,1
-9180,-556,-8732,-580,-24,2800,2025-01-29 10:43:12,1
-9600,664,-8400,-181,-516,2824,2025-01-29 10:43:12,1
-9536,1680,-8552,-216,-703,3058,2025-01-29 10:43:12,1
-9516,2144,-8508,-748,93,2868,2025-01-29 10:43:12,1
-9848,1192,-8536,-1751,1667,2089,2025-01-29 10:43:12,1
-11156,-112,-8452,-2331,2460,1852,2025-01-29 10:43:12,1
-12328,-1416,-7212,-2125,2108,2062,2025-01-29 10:43:12,1
-13020,-1944,-6304,-1629,867,2268,2025-01-29 10:43:12,1
-13260,-1672,-5884,-1047,-689,2524,2025-01-29 10:43:12,1
-12780,-1420,-5888,-532,-1959,2880,2025-01-29 10:43:12,1
-11880,-632,-6388,-156,-2777,3273,2025-01-29 10:43:12,1
-10920,-132,-6312,-44,-2693,3476,2025-01-29 10:43:12,1
-9316,100,-5564,-98,-2107,3355,2025-01-29 10:43:12,1
-8516,568,-5164,-2,-1119,3059,2025-01-29 10:43:12,1
-9020,616,-4892,106,86,2781,2025-01-29 10:43:12,1
-9316,776,-5152,161,1195,2628,2025-01-29 10:43:12,1
-10340,920,-5256,180,1709,2435,2025-01-29 10:43:12,1
-11180,772,-4768,380,1267,2118,2025-01-29 10:43:12,1
-12084,168,-4280,911,475,1874,2025-01-29 10:43:12,1
-12260,-892,-4444,1486,-283,1815,2025-01-29 10:43:12,1
-11568,-1380,-4144,2252,-933,1663,2025-01-29 10:43:12,1
-10892,-736,-3960,2861,-1264,1204,2025-01-29 10:43:12,1
-10780,320,-3756,3267,-1615,524,2025-01-29 10:43:12,1
-11452,768,-4016,3472,-1817,-4,2025-01-29 10:43:12,1
-12232,1204,-4336,3614,-2004,53,2025-01-29 10:43:12,1
-12512,1800,-5104,3570,-2141,497,2025-01-29 10:43:12,1
-12252,2404,-5520,3156,-2033,777,2025-01-29 10:43:13,1
-11972,3000,-5128,2563,-1840,804,2025-01-29 10:43:13,1
-11092,2556,-4280,2297,-1180,464,2025-01-29 10:43:13,1
-10968,1624,-4228,2132,197,132,2025-01-29 10:43:13,1
-11312,1084,-3996,2144,1618,-121,2025-01-29 10:43:13,1
-12168,1096,-4520,2209,3009,-524,2025-01-29 10:43:13,1
-13740,1856,-5868,2009,4220,-640,2025-01-29 10:43:13,1
-15088,2460,-6812,1492,4266,-404,2025-01-29 10:43:13,1
-15692,2404,-7012,749,2704,39,2025-01-29 10:43:13,1
-15864,2096,-6400,316,964,271,2025-01-29 10:43:13,1
-15768,1272,-5564,220,-47,341,2025-01-29 10:43:13,1
-15940,-456,-4756,345,-91,592,2025-01-29 10:43:13,1
-15596,-2092,-5404,1036,669,1210,2025-01-29 10:43:13,1
-15620,-1684,-7080,1591,863,1368,2025-01-29 10:43:13,1
-15096,608,-6908,1702,446,1783,2025-01-29 10:43:13,1
-13376,1828,-7244,1574,-377,1309,2025-01-29 10:43:13,1
-12600,2792,-8912,767,-891,435,2025-01-29 10:43:13,1
-11448,2872,-10600,-259,-1250,129,2025-01-29 10:43:13,1
-9840,1068,-10172,-1121,-1498,-561,2025-01-29 10:43:13,1
-9072,-1128,-8228,-945,-1138,-1170,2025-01-29 10:43:13,1
-8332,-2760,-7976,-188,-517,-1664,2025-01-29 10:43:13,1
-8780,-4008,-7392,393,171,-2476,2025-01-29 10:43:13,1
-10204,-3832,-6944,921,435,-2290,2025-01-29 10:43:13,1
-10544,-2512,-6856,1216,624,-1674,2025-01-29 10:43:13,1
-10520,-1564,-7020,1083,725,-1719,2025-01-29 10:43:13,1
-10920,-628,-6668,739,288,-1994,2025-01-29 10:43:13,1
-11464,-116,-6728,367,-277,-2188,2025-01-29 10:43:13,1
-11660,-300,-6768,-157,-1040,-2388,2025-01-29 10:43:13,1
-11492,-876,-6760,-500,-2023,-2725,2025-01-29 10:43:13,1
-10852,-1212,-7256,-625,-2586,-3041,2025-01-29 10:43:13,1
-10548,-1260,-6856,-926,-2783,-3028,2025-01-29 10:43:13,1
-9596,-1688,-6492,-1160,-2209,-3146,2025-01-29 10:43:13,1
-9384,-2472,-5716,-1294,-1156,-3509,2025-01-29 10:43:13,1
-9700,-3012,-5344,-1076,7,-3744,2025-01-29 10:43:13,1
-10384,-3124,-5288,-992,1080,-3581,2025-01-29 10:43:13,1
-11020,-2976,-5236,-1142,1510,-3489,2025-01-29 10:43:13,1
-11368,-2916,-5224,-1195,1228,-3234,2025-01-29 10:43:13,1
-11692,-2928,-5524,-1001,984,-2774,2025-01-29 10:43:13,1
-11596,-3152,-5928,-859,798,-2507,2025-01-29 10:43:13,1
-11728,-3216,-5720,-737,661,-2322,2025-01-29 10:43:13,1
-11888,-2916,-5292,-543,336,-1939,2025-01-29 10:43:13,1
-11628,-2468,-5204,-423,-132,-1463,2025-01-29 10:43:13,1
-10904,-1820,-5140,-602,-312,-1392,2025-01-29 10:43:13,1
-10524,-1460,-5128,-958,227,-1447,2025-01-29 10:43:13,1
-10420,-1120,-5584,-1445,1058,-1331,2025-01-29 10:43:13,1
-10796,-1284,-5768,-2009,1973,-1021,2025-01-29 10:43:13,1
-11092,-2300,-5852,-2666,2751,-791,2025-01-29 10:43:13,1
-11532,-3232,-5172,-2779,2899,-894,2025-01-29 10:43:13,1
-12096,-3528,-4812,-2624,2389,-1058,2025-01-29 10:43:13,1
-12580,-2880,-5216,-2428,1710,-1001,2025-01-29 10:43:13,1
-12512,-1776,-5868,-2383,1622,-821,2025-01-29 10:43:13,1
-12444,-1264,-6656,-2703,2096,-750,2025-01-29 10:43:13,1
-13080,-1912,-6320,-3131,2533,-842,2025-01-29 10:43:13,1
-13700,-2712,-5716,-3363,2233,-989,2025-01-29 10:43:13,1
-14484,-3064,-5352,-3331,959,-964,2025-01-29 10:43:13,1
-14780,-2476,-4816,-3172,-633,-782,2025-01-29 10:43:13,1
-14072,-1492,-4836,-3338,-1980,-923,2025-01-29 10:43:13,1
-13508,-492,-4016,-3981,-2599,-889,2025-01-29 10:43:13,1
-12528,-812,-4372,-4599,-2685,-1073,2025-01-29 10:43:13,1
-13220,-1988,-5880,-4895,-1394,-1612,2025-01-29 10:43:13,1
-14244,-4056,-5812,-4528,-42,-2026,2025-01-29 10:43:13,1
-14652,-5544,-6084,-2962,-173,-2730,2025-01-29 10:43:14,1
-14976,-6488,-6956,-916,-1363,-2611,2025-01-29 10:43:14,1
-15280,-6808,-8460,773,-2455,-1726,2025-01-29 10:43:14,1
-14420,-5620,-9564,2009,-2572,-587,2025-01-29 10:43:14,1
-12644,-2740,-9904,1667,-2366,141,2025-01-29 10:43:14,1
-11576,-320,-9600,204,-3131,966,2025-01-29 10:43:14,1
-10144,952,-9948,-1261,-4217,2277,2025-01-29 10:43:14,1
-8080,2204,-10152,-2301,-3739,3197,2025-01-29 10:43:14,1
-6600,3204,-10736,-3147,-1023,2437,2025-01-29 10:43:14,1
-6860,3444,-10652,-4022,2124,444,2025-01-29 10:43:14,1
-9232,1612,-9632,-4439,4048,-1362,2025-01-29 10:43:14,1
-12040,-544,-7992,-4253,4135,-1263,2025-01-29 10:43:14,1
-13008,-2324,-6364,-3514,2435,-282,2025-01-29 10:43:14,1
-13076,-3300,-5644,-2679,805,432,2025-01-29 10:43:14,1
-12480,-3236,-6508,-2015,184,1024,2025-01-29 10:43:14,1
-12092,-2696,-6876,-1599,-6,1622,2025-01-29 10:43:14,1
-11276,-1540,-6360,-1027,-294,2261,2025-01-29 10:43:14,1
-10436,-208,-6348,-670,-404,2537,2025-01-29 10:43:14,1
-10532,484,-5536,-600,-1,2405,2025-01-29 10:43:14,1
-10160,884,-5516,-588,537,2138,2025-01-29 10:43:14,1
-10560,784,-5504,-494,967,1765,2025-01-29 10:43:14,1
-10440,524,-5332,-521,1013,1337,2025-01-29 10:43:14,1
-10672,396,-4812,-412,875,852,2025-01-29 10:43:14,1
-10960,372,-4552,-190,740,690,2025-01-29 10:43:14,1
-11008,844,-4956,-179,626,603,2025-01-29 10:43:14,1
-10844,1144,-5164,-209,609,394,2025-01-29 10:43:14,1
-10736,1268,-5352,-247,771,-55,2025-01-29 10:43:14,1
-11240,784,-5352,-236,994,-520,2025-01-29 10:43:14,1
-11880,296,-5032,-134,940,-690,2025-01-29 10:43:14,1
-12440,-172,-4644,89,691,-664,2025-01-29 10:43:14,1
-12352,-364,-4272,329,376,-568,2025-01-29 10:43:14,1
-12312,-376,-4092,641,-25,-423,2025-01-29 10:43:14,1
-12112,-324,-4148,1604,-42,225,2025-01-29 10:43:14,1
-12312,-104,-4288,1992,97,477,2025-01-29 10:43:14,1
-12436,124,-4512,2316,-82,705,2025-01-29 10:43:14,1
-12564,272,-4980,2713,-335,1033,2025-01-29 10:43:14,1
-12756,372,-5596,2835,-299,1435,2025-01-29 10:43:14,1
-12996,228,-5084,2850,44,1739,2025-01-29 10:43:14,1
-13684,4,-4700,3047,-172,2144,2025-01-29 10:43:14,1
-14072,716,-4716,3073,-1153,2883,2025-01-29 10:43:14,1
-13676,1064,-3888,3306,-1723,3389,2025-01-29 10:43:14,1
-13316,944,-3108,3888,-1723,3303,2025-01-29 10:43:14,1
-13132,-56,-4816,4237,-824,3012,2025-01-29 10:43:14,1
-13376,-596,-6516,4219,1005,3097,2025-01-29 10:43:14,1
-15048,624,-8288,3981,3095,3760,2025-01-29 10:43:14,1
-15872,2856,-9632,3176,4377,4755,2025-01-29 10:43:14,1
-15724,3448,-10176,1769,3884,4868,2025-01-29 10:43:14,1
-15080,3624,-11080,430,1868,3825,2025-01-29 10:43:14,1
-14396,3344,-10920,-679,-415,2350,2025-01-29 10:43:14,1
-12716,1912,-8864,-994,-2061,713,2025-01-29 10:43:14,1
-10932,592,-7124,-292,-3558,-107,2025-01-29 10:43:14,1
-8700,-696,-6316,577,-4128,-839,2025-01-29 10:43:14,1
-6856,-2312,-6248,1355,-4031,-1769,2025-01-29 10:43:14,1
-5944,-3816,-6232,2044,-2854,-2569,2025-01-29 10:43:14,1
-6524,-4692,-7400,2487,118,-2587,2025-01-29 10:43:14,1
-7880,-4060,-8432,2423,4005,-1554,2025-01-29 10:43:14,1
-8760,-2484,-8172,2373,6098,-857,2025-01-29 10:43:14,1
-11068,-968,-8128,2045,6682,-1045,2025-01-29 10:43:14,1
-13184,-36,-7604,1487,5124,-1312,2025-01-29 10:43:14,1
-14624,-68,-7144,975,1986,-1635,2025-01-29 10:43:14,1
-14788,-576,-7328,569,-1423,-2122,2025-01-29 10:43:14,1
-13836,-932,-7548,362,-4046,-2428,2025-01-29 10:43:15,1
-12016,-1308,-7176,398,-5382,-2638,2025-01-29 10:43:15,1
-9780,-1164,-7684,196,-5283,-2585,2025-01-29 10:43:15,1
-8184,-792,-7216,-295,-3438,-2319,2025-01-29 10:43:15,1
-7008,-564,-6712,-974,170,-2426,2025-01-29 10:43:15,1
-7716,-932,-6704,-1627,3128,-2856,2025-01-29 10:43:15,1
-8960,-1536,-6136,-1867,4582,-3452,2025-01-29 10:43:15,1
-10900,-2308,-5832,-1895,5054,-3926,2025-01-29 10:43:15,1
-12628,-3196,-5368,-1618,4554,-3974,2025-01-29 10:43:15,1
-13780,-3700,-5576,-1149,3132,-3454,2025-01-29 10:43:15,1
-13976,-3000,-5768,-794,1023,-2343,2025-01-29 10:43:15,1
-12560,-1672,-6196,-760,-171,-1596,2025-01-29 10:43:15,1
-11548,-1004,-6552,-1061,-453,-1628,2025-01-29 10:43:15,1
-10972,-732,-6352,-1476,-72,-1506,2025-01-29 10:43:15,1
-10560,-732,-6168,-1901,477,-1527,2025-01-29 10:43:15,1
-10920,-856,-6060,-2306,895,-1644,2025-01-29 10:43:15,1
-11408,-1036,-5692,-2618,921,-1513,2025-01-29 10:43:15,1
-11596,-1136,-5612,-2864,733,-1404,2025-01-29 10:43:15,1
-12000,-1372,-5572,-3204,450,-1377,2025-01-29 10:43:15,1
-12176,-1904,-5612,-3401,-17,-1349,2025-01-29 10:43:15,1
-12524,-2600,-5672,-3541,-131,-1199,2025-01-29 10:43:15,1
-12328,-3100,-5208,-3426,-573,-1257,2025-01-29 10:43:15,1
-11952,-3048,-5176,-3298,-906,-1304,2025-01-29 10:43:15,1
-11636,-2512,-5676,-3172,-936,-1381,2025-01-29 10:43:15,1
-11136,-2008,-5644,-3180,-590,-1654,2025-01-29 10:43:15,1
-11368,-1824,-5920,-3244,181,-2224,2025-01-29 10:43:15,1
-12200,-2040,-5440,-3453,353,-2703,2025-01-29 10:43:15,1
-13280,-2116,-4984,-3792,-9,-2904,2025-01-29 10:43:15,1
-14112,-2536,-4496,-4167,-557,-2519,2025-01-29 10:43:15,1
-14108,-2764,-5684,-4105,-962,-2111,2025-01-29 10:43:15,1
-13696,-3100,-7200,-4034,-327,-2329,2025-01-29 10:43:15,1
-13260,-4316,-7300,-3500,748,-3237,2025-01-29 10:43:15,1
-14424,-5608,-6604,-2141,928,-3826,2025-01-29 10:43:15,1
-16240,-6188,-6356,-698,-41,-2963,2025-01-29 10:43:15,1
-17352,-5120,-7296,318,-1812,-524,2025-01-29 10:43:15,1
-14676,-3144,-7800,901,-3401,1395,2025-01-29 10:43:15,1
-12680,-1984,-8708,798,-3913,1527,2025-01-29 10:43:15,1
-11236,-1216,-9240,-176,-3569,1639,2025-01-29 10:43:15,1
-9724,-1048,-8740,-685,-2892,2074,2025-01-29 10:43:15,1
-8292,-580,-8600,-1047,-1554,2050,2025-01-29 10:43:15,1
-7528,168,-8988,-1443,283,1312,2025-01-29 10:43:15,1
-7488,936,-9284,-2005,1738,278,2025-01-29 10:43:15,1
-8092,1068,-8336,-2082,2734,-586,2025-01-29 10:43:15,1
-8788,792,-7812,-2065,3336,-1304,2025-01-29 10:43:15,1
-10224,348,-7712,-2190,3642,-1563,2025-01-29 10:43:15,1
-11572,-100,-7872,-2223,3725,-1273,2025-01-29 10:43:15,1
-12500,-736,-7836,-2175,3277,-791,2025-01-29 10:43:15,1
-13608,-1616,-7476,-1988,2271,-87,2025-01-29 10:43:15,1
-14308,-2300,-6788,-1340,743,949,2025-01-29 10:43:15,1
-13472,-2516,-6340,-492,-953,1692,2025-01-29 10:43:15,1
-12872,-2208,-6688,9,-2186,2067,2025-01-29 10:43:15,1
-12444,-1864,-6192,335,-2558,2616,2025-01-29 10:43:15,1
-11500,-1196,-5572,754,-2393,3184,2025-01-29 10:43:15,1
-10604,-500,-6016,1062,-2013,3518,2025-01-29 10:43:15,1
-10168,20,-5824,1101,-1479,3476,2025-01-29 10:43:15,1
-10016,704,-5620,1175,-1047,3216,2025-01-29 10:43:15,1
-10064,1084,-5616,1252,-592,2857,2025-01-29 10:43:15,1
-10276,1228,-5444,1314,-13,2412,2025-01-29 10:43:15,1
-10664,976,-5352,1424,339,1960,2025-01-29 10:43:15,1
-10892,776,-5380,1482,133,1685,2025-01-29 10:43:15,1
-10680,500,-5276,1580,-22,1301,2025-01-29 10:43:15,1
-10100,200,-5416,1756,43,530,2025-01-29 10:43:16,1
-10400,-148,-5148,1969,380,38,2025-01-29 10:43:16,1
-10788,-276,-5384,1966,706,-259,2025-01-29 10:43:16,1
-11432,8,-5584,1942,586,-454,2025-01-29 10:43:16,1
-12072,24,-5608,1929,207,-515,2025-01-29 10:43:16,1
-12844,-12,-5600,2102,-134,-371,2025-01-29 10:43:16,1
-12932,-200,-5508,2214,-428,-209,2025-01-29 10:43:16,1
-12964,-352,-5480,2263,-1187,-156,2025-01-29 10:43:16,1
-13164,-232,-4960,2540,-2219,237,2025-01-29 10:43:16,1
-12888,368,-5512,2626,-2881,738,2025-01-29 10:43:16,1
-12252,840,-5436,2477,-3203,1116,2025-01-29 10:43:16,1
-11860,924,-4532,2529,-3249,1105,2025-01-29 10:43:16,1
-11868,-652,-4248,2751,-1908,914,2025-01-29 10:43:16,1
-11256,-528,-5036,3225,-808,873,2025-01-29 10:43:16,1
-12260,-76,-5304,3216,136,770,2025-01-29 10:43:16,1
-13052,32,-4664,3358,354,921,2025-01-29 10:43:16,1
-13796,-140,-4080,3611,212,1113,2025-01-29 10:43:16,1
-14064,-440,-3520,4010,-53,1488,2025-01-29 10:43:16,1
-13884,-548,-3044,4638,-214,1907,2025-01-29 10:43:16,1
-13356,-356,-4120,5095,26,2251,2025-01-29 10:43:16,1
-13120,-928,-5688,5414,1895,2538,2025-01-29 10:43:16,1
-14040,144,-7276,5427,3758,2708,2025-01-29 10:43:16,1
-14932,1448,-8896,4641,4409,3246,2025-01-29 10:43:16,1
-14908,2220,-10192,3405,3777,3381,2025-01-29 10:43:16,1
-14716,2204,-9948,1906,1881,2747,2025-01-29 10:43:16,1
-14716,2104,-10208,683,451,2084,2025-01-29 10:43:16,1
-14112,1512,-9644,-244,-392,1897,2025-01-29 10:43:16,1
-12568,648,-8100,-280,-1722,1420,2025-01-29 10:43:16,1
-10940,-404,-6416,219,-2780,422,2025-01-29 10:43:16,1
-9956,-1264,-5364,860,-3173,-444,2025-01-29 10:43:16,1
-9132,-1852,-5436,1457,-2758,-1132,2025-01-29 10:43:16,1
-8716,-2212,-6032,2045,-1572,-1298,2025-01-29 10:43:16,1
-8248,-2456,-7180,2188,-232,-1113,2025-01-29 10:43:16,1
-8288,-2776,-7548,1916,1428,-979,2025-01-29 10:43:16,1
-8720,-2680,-7652,1833,2910,-935,2025-01-29 10:43:16,1
-9516,-2268,-8144,1904,3753,-899,2025-01-29 10:43:16,1
-10444,-1772,-8520,1614,3986,-1012,2025-01-29 10:43:16,1
-11152,-1744,-8388,1376,3501,-1009,2025-01-29 10:43:16,1
-12216,-1952,-8272,1164,2390,-691,2025-01-29 10:43:16,1
-12496,-2596,-8048,1018,877,-272,2025-01-29 10:43:16,1
-12104,-2476,-7384,1042,-359,-248,2025-01-29 10:43:16,1
-11168,-2244,-7372,865,-1067,-601,2025-01-29 10:43:16,1
-10676,-1860,-7356,730,-1061,-1129,2025-01-29 10:43:16,1
-10396,-1732,-8020,448,-650,-1627,2025-01-29 10:43:16,1
-10552,-1284,-8340,128,-194,-1848,2025-01-29 10:43:16,1
-10228,-1260,-8164,-367,451,-2215,2025-01-29 10:43:16,1
-10296,-1332,-7632,-881,818,-2509,2025-01-29 10:43:16,1
-10716,-1648,-7192,-1098,1027,-2654,2025-01-29 10:43:16,1
-11056,-1772,-7004,-1453,1291,-2776,2025-01-29 10:43:16,1
-11324,-2216,-6724,-1753,1238,-3019,2025-01-29 10:43:16,1
-11720,-2328,-6356,-1767,784,-2959,2025-01-29 10:43:16,1
-11712,-2376,-6148,-1756,424,-2664,2025-01-29 10:43:16,1
-11132,-2396,-6424,-1764,356,-2456,2025-01-29 10:43:16,1
-10992,-2680,-6244,-1784,604,-2412,2025-01-29 10:43:16,1
-11188,-2716,-6340,-1757,1242,-2109,2025-01-29 10:43:16,1
-11212,-2644,-5876,-1553,1690,-1891,2025-01-29 10:43:16,1
-11488,-2352,-5984,-1417,1844,-1705,2025-01-29 10:43:16,1
-11584,-2316,-6228,-1347,1781,-1586,2025-01-29 10:43:16,1
-11608,-2524,-6304,-1290,1645,-1511,2025-01-29 10:43:16,1
-11704,-2796,-6532,-1285,1535,-1440,2025-01-29 10:43:16,1
-11792,-2880,-6604,-1219,1392,-1365,2025-01-29 10:43:17,1
-11604,-2760,-6576,-1205,1196,-1278,2025-01-29 10:43:17,1
-11504,-2296,-6524,-1253,1238,-1182,2025-01-29 10:43:17,1
-11512,-2328,-6476,-1405,1237,-1090,2025-01-29 10:43:17,1
-11332,-2700,-6376,-1510,1303,-990,2025-01-29 10:43:17,1
-11244,-2780,-6540,-1436,1601,-927,2025-01-29 10:43:17,1
-11312,-2780,-6816,-1558,1924,-852,2025-01-29 10:43:17,1
-11324,-3064,-6636,-1658,1937,-806,2025-01-29 10:43:17,1
-11636,-3248,-6900,-1635,1698,-719,2025-01-29 10:43:17,1
-11768,-2928,-6772,-1622,1498,-501,2025-01-29 10:43:17,1
-11756,-2472,-6540,-1770,1283,-354,2025-01-29 10:43:17,1
-12128,-1624,-6232,-2074,1015,8,2025-01-29 10:43:17,1
-12120,-1392,-5796,-2458,729,578,2025-01-29 10:43:17,1
-12324,-1476,-5536,-2813,367,1362,2025-01-29 10:43:17,1
-11872,-2008,-5820,-3212,-121,2147,2025-01-29 10:43:17,1
-11804,-2588,-7140,-3514,-611,2242,2025-01-29 10:43:17,1
-11828,-2948,-8512,-3548,-553,2174,2025-01-29 10:43:17,1
-11712,-3040,-8688,-3169,-587,2100,2025-01-29 10:43:17,1
-11224,-3260,-8188,-2143,-616,1655,2025-01-29 10:43:17,1
-11148,-2356,-9192,-892,346,590,2025-01-29 10:43:17,1
-11244,-728,-9296,-291,920,-176,2025-01-29 10:43:17,1
-10788,276,-8340,200,696,-867,2025-01-29 10:43:17,1
-10376,304,-7672,307,816,-1317,2025-01-29 10:43:17,1
-9868,416,-7252,141,1454,-1614,2025-01-29 10:43:17,1
-9692,436,-7540,-577,2127,-2074,2025-01-29 10:43:17,1
-10188,708,-7652,-1510,2411,-2256,2025-01-29 10:43:17,1
-10900,328,-7436,-2278,1876,-1813,2025-01-29 10:43:17,1
-10636,-264,-7640,-2404,1409,-1530,2025-01-29 10:43:17,1
-10440,-780,-7924,-2111,1485,-1624,2025-01-29 10:43:17,1
-10664,-1292,-7676,-1543,1723,-1781,2025-01-29 10:43:17,1
-10888,-1628,-7884,-867,1650,-1961,2025-01-29 10:43:17,1
-11292,-1500,-8124,-435,1124,-1869,2025-01-29 10:43:17,1
-11228,-1088,-8468,-269,582,-1590,2025-01-29 10:43:17,1
-10780,-520,-8840,-284,342,-1470,2025-01-29 10:43:17,0
-10592,-476,-8692,-427,487,-1547,2025-01-29 10:43:17,0
-10596,-464,-8324,-451,577,-1604,2025-01-29 10:43:17,0
-10640,-708,-8260,-461,549,-1628,2025-01-29 10:43:17,0
-10740,-932,-8048,-334,573,-1612,2025-01-29 10:43:17,0
-10716,-1112,-7928,-265,594,-1578,2025-01-29 10:43:17,0
-10868,-1172,-7868,-62,404,-1526,2025-01-29 10:43:17,0
-10936,-1116,-7832,105,139,-1338,2025-01-29 10:43:17,0
-10780,-1316,-8040,272,9,-1150,2025-01-29 10:43:17,0
-10544,-1640,-7408,459,-2,-1238,2025-01-29 10:43:17,0
-10808,-1684,-7852,637,162,-1342,2025-01-29 10:43:17,0
-11160,-1780,-8300,579,457,-1214,2025-01-29 10:43:17,0
-11344,-1616,-8496,506,445,-961,2025-01-29 10:43:17,0
-11124,-1300,-8848,425,158,-624,2025-01-29 10:43:17,0
-10752,-1156,-8908,141,-87,-545,2025-01-29 10:43:17,0
-10348,-1316,-8204,-41,-318,-543,2025-01-29 10:43:17,0
-9912,-1568,-8324,-74,-151,-579,2025-01-29 10:43:17,0
-9984,-1764,-8616,-166,214,-642,2025-01-29 10:43:17,0
-10344,-2112,-8488,-190,551,-736,2025-01-29 10:43:17,0
-10632,-2068,-7904,-175,622,-741,2025-01-29 10:43:17,0
-10928,-2284,-7296,-68,437,-627,2025-01-29 10:43:17,0
-10712,-2300,-7108,50,171,-428,2025-01-29 10:43:17,0
-10460,-2148,-7128,188,235,-225,2025-01-29 10:43:17,0
-10560,-2084,-7620,181,727,-194,2025-01-29 10:43:17,0
-10992,-2060,-8248,143,1035,-290,2025-01-29 10:43:17,0
-11568,-2032,-8656,95,939,-398,2025-01-29 10:43:17,0
-11852,-1948,-8372,71,396,-418,2025-01-29 10:43:17,0
-11772,-2088,-8160,-66,-454,-321,2025-01-29 10:43:17,0
-10856,-1720,-8060,-132,-774,-179,2025-01-29 10:43:18,0
-10236,-1868,-8044,-347,-381,-242,2025-01-29 10:43:18,0
-10224,-2040,-7720,-503,516,-410,2025-01-29 10:43:18,0
-10728,-2116,-7692,-512,792,-494,2025-01-29 10:43:18,0
-11080,-2244,-7764,-461,592,-546,2025-01-29 10:43:18,0
-11388,-2316,-7808,-369,262,-580,2025-01-29 10:43:18,0
-11232,-2412,-7460,-299,-99,-501,2025-01-29 10:43:18,0
-11020,-2484,-7640,-301,-252,-430,2025-01-29 10:43:18,0
-10824,-2244,-7736,-311,-39,-325,2025-01-29 10:43:18,0
-10752,-2332,-7624,-281,241,-244,2025-01-29 10:43:18,0
-10772,-2484,-7664,-166,380,-149,2025-01-29 10:43:18,0
-10904,-2416,-7520,-25,342,-98,2025-01-29 10:43:18,0
-11008,-2480,-7228,154,189,44,2025-01-29 10:43:18,0
-10792,-2496,-7524,276,63,144,2025-01-29 10:43:18,0
-10632,-2476,-7912,330,87,181,2025-01-29 10:43:18,0
-10756,-2384,-7856,376,310,162,2025-01-29 10:43:18,0
-10964,-2048,-7692,324,470,80,2025-01-29 10:43:18,0
-11220,-1916,-7808,248,399,28,2025-01-29 10:43:18,0
-11324,-2016,-7944,77,-11,56,2025-01-29 10:43:18,0
-10940,-2076,-8060,25,-156,129,2025-01-29 10:43:18,0
-10720,-2264,-8012,-89,-129,113,2025-01-29 10:43:18,0
-10628,-2256,-7592,-129,41,11,2025-01-29 10:43:18,0
-10560,-2152,-7624,-120,205,-122,2025-01-29 10:43:18,0
-10728,-2216,-7656,-106,291,-246,2025-01-29 10:43:18,0
-11008,-2160,-7516,-132,288,-286,2025-01-29 10:43:18,0
-11236,-2112,-7712,-136,212,-244,2025-01-29 10:43:18,0
-11136,-2016,-7860,-195,141,-188,2025-01-29 10:43:18,0
-11016,-1972,-7804,-194,86,-199,2025-01-29 10:43:18,0
-11012,-2144,-7864,-224,99,-187,2025-01-29 10:43:18,0
-11040,-2100,-7620,-207,37,-175,2025-01-29 10:43:18,0
-11124,-2240,-7552,-161,-11,-135,2025-01-29 10:43:18,0
-10980,-2308,-7548,-127,-54,-91,2025-01-29 10:43:18,0
