acceleration_x,acceleration_y,acceleration_z,gyroscope_x,gyroscope_y,gyroscope_z,timestamp,label
-13516,-1152,-920,-136,174,-155,2025-01-29 15:18:33,0
-13540,-1252,-952,-161,188,-156,2025-01-29 15:18:33,0
-13600,-1104,-940,-149,265,-184,2025-01-29 15:18:33,0
-13536,-1104,-1056,-232,307,-207,2025-01-29 15:18:33,0
-13532,-1140,-1040,-244,290,-208,2025-01-29 15:18:34,0
-13696,-1208,-984,-256,321,-203,2025-01-29 15:18:34,0
-13700,-1220,-944,-239,294,-175,2025-01-29 15:18:34,0
-13752,-1176,-1112,-192,181,-176,2025-01-29 15:18:34,0
-13644,-1224,-972,-220,137,-155,2025-01-29 15:18:34,0
-13660,-1164,-1012,-158,90,-173,2025-01-29 15:18:34,0
-13624,-1224,-1020,-149,139,-153,2025-01-29 15:18:34,0
-13568,-1296,-936,-169,209,-188,2025-01-29 15:18:34,0
-13592,-1240,-936,-115,270,-178,2025-01-29 15:18:34,0
-13660,-1204,-972,-106,285,-166,2025-01-29 15:18:34,0
-13664,-1280,-1040,-127,269,-183,2025-01-29 15:18:34,0
-13616,-1256,-1020,-107,165,-168,2025-01-29 15:18:34,0
-13708,-1196,-1088,-121,92,-155,2025-01-29 15:18:34,0
-13592,-1308,-1184,-155,71,-167,2025-01-29 15:18:34,0
-13600,-1176,-988,-124,89,-194,2025-01-29 15:18:34,0
-13564,-1272,-968,-117,127,-174,2025-01-29 15:18:34,0
-13540,-1288,-1040,-145,168,-173,2025-01-29 15:18:34,0
-13520,-1156,-1072,-128,245,-170,2025-01-29 15:18:34,0
-13676,-1148,-1064,-140,292,-155,2025-01-29 15:18:34,0
-13688,-1088,-1104,-180,301,-202,2025-01-29 15:18:34,0
-13592,-1196,-1036,-194,197,-190,2025-01-29 15:18:34,0
-13512,-1092,-924,-243,102,-171,2025-01-29 15:18:34,0
-13572,-1016,-1016,-218,174,-145,2025-01-29 15:18:34,0
-13540,-1144,-1060,-258,345,-203,2025-01-29 15:18:34,0
-13680,-1288,-1208,-255,133,-208,2025-01-29 15:18:34,0
-13728,-1280,-1088,-148,58,-160,2025-01-29 15:18:34,0
-13576,-1280,-1004,-144,160,-176,2025-01-29 15:18:34,0
-13592,-1128,-1056,-130,123,-141,2025-01-29 15:18:34,0
-13688,-1184,-928,-103,103,-160,2025-01-29 15:18:34,0
-13452,-952,-908,-125,227,-161,2025-01-29 15:18:34,0
-13432,-952,-864,-150,363,-171,2025-01-29 15:18:34,0
-13492,-1048,-1016,-185,476,-212,2025-01-29 15:18:34,0
-13608,-1088,-1144,-197,489,-182,2025-01-29 15:18:34,0
-13612,-992,-1240,-271,433,-170,2025-01-29 15:18:34,0
-13728,-932,-1184,-320,290,-157,2025-01-29 15:18:34,0
-13620,-1180,-1208,-329,114,-173,2025-01-29 15:18:34,0
-13704,-1124,-1192,-294,141,-92,2025-01-29 15:18:34,0
-13636,-1148,-948,-217,252,-99,2025-01-29 15:18:34,0
-13632,-1196,-980,-207,307,-114,2025-01-29 15:18:34,0
-13692,-1152,-944,-122,400,-37,2025-01-29 15:18:34,0
-13748,-1076,-1040,-38,464,34,2025-01-29 15:18:34,1
-13784,-892,-1072,-12,545,95,2025-01-29 15:18:34,1
-13880,-792,-1308,-121,592,170,2025-01-29 15:18:34,1
-13912,-756,-792,-149,516,278,2025-01-29 15:18:34,1
-13856,-876,-764,-71,196,356,2025-01-29 15:18:34,1
-13796,-1056,-964,-77,-152,338,2025-01-29 15:18:34,1
-13756,-884,-1120,-81,-92,384,2025-01-29 15:18:34,1
-13592,-924,-1076,87,-2,347,2025-01-29 15:18:34,1
-13396,-696,-1120,100,-99,213,2025-01-29 15:18:34,1
-13448,-580,-1032,40,-171,104,2025-01-29 15:18:34,1
-13356,-352,-888,45,-125,59,2025-01-29 15:18:34,1
-13364,-116,-632,-53,37,-50,2025-01-29 15:18:34,1
-13576,-132,-464,-122,102,-139,2025-01-29 15:18:34,1
-13764,-376,-376,-128,-10,-214,2025-01-29 15:18:34,1
-13768,-372,-240,-104,-424,-286,2025-01-29 15:18:34,1
-13840,-396,-456,-100,-925,-388,2025-01-29 15:18:34,1
-13648,-256,-600,-38,-1136,-434,2025-01-29 15:18:34,1
-13600,92,-408,-67,-975,-489,2025-01-29 15:18:34,1
-13304,28,-748,-206,-817,-584,2025-01-29 15:18:34,1
-13312,-64,-628,-294,-817,-718,2025-01-29 15:18:34,1
-13680,-220,-284,-257,-737,-802,2025-01-29 15:18:35,1
-13808,-484,-72,-172,-819,-861,2025-01-29 15:18:35,1
-13864,-296,-444,-234,-1175,-975,2025-01-29 15:18:35,1
-13992,-316,-768,-384,-1562,-1027,2025-01-29 15:18:35,1
-13664,-476,-404,-483,-1800,-1125,2025-01-29 15:18:35,1
-13676,-548,-500,-569,-1836,-1214,2025-01-29 15:18:35,1
-13540,-896,-940,-778,-1815,-1357,2025-01-29 15:18:35,1
-13176,-1040,-768,-790,-1694,-1555,2025-01-29 15:18:35,1
-13024,-1032,-460,-629,-1203,-1717,2025-01-29 15:18:35,1
-13088,-1188,-776,-462,-593,-1714,2025-01-29 15:18:35,1
-12900,-1900,-660,-428,139,-1795,2025-01-29 15:18:35,1
-13296,-2240,212,-255,952,-1773,2025-01-29 15:18:35,1
-13748,-2544,336,-47,1510,-1604,2025-01-29 15:18:35,1
-14076,-2608,340,139,1650,-1486,2025-01-29 15:18:35,1
-14324,-2564,112,79,1226,-1374,2025-01-29 15:18:35,1
-14436,-2316,600,-38,320,-1295,2025-01-29 15:18:35,1
-14080,-2016,996,-146,-465,-1261,2025-01-29 15:18:35,1
-13876,-1744,1036,-456,-680,-1344,2025-01-29 15:18:35,1
-13196,-1684,588,-935,-578,-1594,2025-01-29 15:18:35,1
-13192,-1616,756,-1443,-280,-1679,2025-01-29 15:18:35,1
-12912,-1516,656,-1936,595,-1701,2025-01-29 15:18:35,1
-12864,-1748,280,-2424,1796,-1903,2025-01-29 15:18:35,1
-12916,-2336,392,-2836,2629,-2275,2025-01-29 15:18:35,1
-13424,-3060,1040,-2938,2751,-2593,2025-01-29 15:18:35,1
-14088,-3516,1640,-2816,2210,-2712,2025-01-29 15:18:35,1
-14492,-3440,1924,-2388,1028,-2509,2025-01-29 15:18:35,1
-14504,-3268,1724,-1999,-420,-2230,2025-01-29 15:18:35,1
-13936,-3116,1652,-1788,-1719,-1957,2025-01-29 15:18:35,1
-13332,-3052,1216,-1770,-2871,-1668,2025-01-29 15:18:35,1
-12960,-3152,1364,-1823,-3032,-1525,2025-01-29 15:18:35,1
-12684,-2828,1400,-1865,-2385,-1424,2025-01-29 15:18:35,1
-12468,-2904,1348,-1827,-1817,-1229,2025-01-29 15:18:35,1
-12848,-2932,1416,-1904,-1405,-1155,2025-01-29 15:18:35,1
-13272,-3080,1844,-1938,-944,-984,2025-01-29 15:18:35,1
-13592,-3380,2164,-1910,-708,-595,2025-01-29 15:18:35,1
-13408,-3408,2260,-1712,-916,-255,2025-01-29 15:18:35,1
-13400,-3112,2300,-1452,-1428,27,2025-01-29 15:18:35,1
-13140,-3244,1820,-1237,-1567,234,2025-01-29 15:18:35,1
-12884,-3160,1476,-1355,-1099,154,2025-01-29 15:18:35,1
-13200,-3016,1940,-1719,-147,-164,2025-01-29 15:18:35,1
-13788,-3368,2152,-1929,646,-388,2025-01-29 15:18:35,1
-14028,-3604,2356,-2001,838,-572,2025-01-29 15:18:35,1
-13904,-3484,2696,-1979,304,-551,2025-01-29 15:18:35,1
-13856,-2744,2688,-2067,-291,-460,2025-01-29 15:18:35,1
-13688,-2232,2216,-2455,-205,-479,2025-01-29 15:18:35,1
-13648,-2164,1796,-3141,528,-443,2025-01-29 15:18:35,1
-13564,-2772,2296,-3924,1137,-480,2025-01-29 15:18:35,1
-13704,-3768,3176,-4391,1734,-586,2025-01-29 15:18:35,1
-14620,-4868,2720,-4511,2510,-1077,2025-01-29 15:18:35,1
-15832,-5464,1828,-4507,3378,-1828,2025-01-29 15:18:35,1
-16848,-5968,1812,-3865,3464,-2505,2025-01-29 15:18:35,1
-17812,-6796,2780,-2070,1953,-2709,2025-01-29 15:18:35,1
-18716,-7100,2808,-388,-638,-1901,2025-01-29 15:18:35,1
-19268,-6580,2040,917,-4220,-95,2025-01-29 15:18:35,1
-18040,-3956,2016,1817,-7021,1723,2025-01-29 15:18:35,1
-16584,-2664,684,2287,-8265,2777,2025-01-29 15:18:35,1
-14852,-2336,-1300,1994,-7732,4047,2025-01-29 15:18:35,1
-12868,-2512,-2340,1787,-6188,4679,2025-01-29 15:18:35,1
-11136,-2772,-3304,1729,-4521,4215,2025-01-29 15:18:35,1
-10204,-2284,-4064,1415,-2816,3063,2025-01-29 15:18:35,1
-10440,-1476,-3416,715,-731,1909,2025-01-29 15:18:35,1
-11364,20,-1708,302,2339,882,2025-01-29 15:18:36,1
-13440,296,-308,828,3986,997,2025-01-29 15:18:36,1
-15236,-252,-108,1588,4313,1977,2025-01-29 15:18:36,1
-15368,-1688,-328,2123,3716,3035,2025-01-29 15:18:36,1
-14624,-2952,256,2529,2451,3366,2025-01-29 15:18:36,1
-13740,-3244,800,3067,916,3004,2025-01-29 15:18:36,1
-13456,-2492,988,3699,-228,2870,2025-01-29 15:18:36,1
-13112,-1264,748,4461,-1219,3001,2025-01-29 15:18:36,1
-13272,-20,404,4755,-1547,3175,2025-01-29 15:18:36,1
-12148,752,-740,4521,-1874,3031,2025-01-29 15:18:36,1
-11708,1012,-576,4034,-1704,2592,2025-01-29 15:18:36,1
-11356,1140,-428,3558,-1086,2178,2025-01-29 15:18:36,1
-11292,1228,-720,3126,106,2160,2025-01-29 15:18:36,1
-11468,1076,-652,2760,1641,1987,2025-01-29 15:18:36,1
-11860,868,-472,2199,3006,1764,2025-01-29 15:18:36,1
-13084,488,936,1824,3423,1659,2025-01-29 15:18:36,1
-13412,-80,1804,1871,2786,1696,2025-01-29 15:18:36,1
-13512,-636,1796,1987,1427,1659,2025-01-29 15:18:36,1
-13208,-776,1672,2056,-60,1448,2025-01-29 15:18:36,1
-13192,-304,1976,1945,-1306,1043,2025-01-29 15:18:36,1
-12252,116,1712,1873,-1726,557,2025-01-29 15:18:36,1
-12344,528,1748,2092,-1641,38,2025-01-29 15:18:36,1
-12328,692,1184,2274,-1184,-249,2025-01-29 15:18:36,1
-12400,320,1860,2327,-598,-277,2025-01-29 15:18:36,1
-12276,-156,2400,2314,-446,-432,2025-01-29 15:18:36,1
-12224,-220,2520,2515,-324,-692,2025-01-29 15:18:36,1
-12956,208,2148,2896,207,-788,2025-01-29 15:18:36,1
-14028,584,1540,3356,1037,-583,2025-01-29 15:18:36,1
-14612,608,1500,3544,1654,-113,2025-01-29 15:18:36,1
-15360,616,1252,3563,1808,531,2025-01-29 15:18:36,1
-15952,168,2016,3653,2001,1374,2025-01-29 15:18:36,1
-16072,-440,2788,3816,2476,1845,2025-01-29 15:18:36,1
-15592,412,3120,4171,2415,1651,2025-01-29 15:18:36,1
-15476,1760,2344,4386,1275,982,2025-01-29 15:18:36,1
-15876,2200,1432,4011,-760,652,2025-01-29 15:18:36,1
-16548,2336,160,3141,-1399,547,2025-01-29 15:18:36,1
-17496,2560,-1000,1765,332,906,2025-01-29 15:18:36,1
-18052,3472,-1556,410,2395,1925,2025-01-29 15:18:36,1
-17976,3900,-2136,-702,3318,2936,2025-01-29 15:18:36,1
-17116,3812,-1508,-1630,3358,3107,2025-01-29 15:18:36,1
-16040,2700,-1128,-2827,1955,2089,2025-01-29 15:18:36,1
-14468,1232,-1640,-3623,-1006,469,2025-01-29 15:18:36,1
-12244,-1208,-2772,-4018,-5192,-1620,2025-01-29 15:18:36,1
-11672,-2868,-2612,-3786,-7927,-2881,2025-01-29 15:18:36,1
-11764,-3920,-3000,-3293,-8228,-3087,2025-01-29 15:18:36,1
-11768,-4604,-3492,-2844,-5399,-2438,2025-01-29 15:18:36,1
-11256,-4336,-3140,-2261,-335,-1952,2025-01-29 15:18:36,1
-11400,-2412,-2704,-1173,5786,-1836,2025-01-29 15:18:36,1
-12192,-512,-2184,-529,9338,-1983,2025-01-29 15:18:36,1
-13112,1028,-1096,-662,10052,-2289,2025-01-29 15:18:36,1
-14308,1660,-332,-1551,8050,-2670,2025-01-29 15:18:36,1
-14872,1060,-696,-2830,4851,-2992,2025-01-29 15:18:36,1
-15100,-256,-1040,-4026,1027,-3356,2025-01-29 15:18:36,1
-14772,-1560,-1848,-4455,-2089,-3420,2025-01-29 15:18:36,1
-14312,-2804,-1544,-4635,-3847,-2936,2025-01-29 15:18:36,1
-11748,-2968,-700,-4592,-4656,-2626,2025-01-29 15:18:36,1
-10660,-2564,-192,-4054,-3383,-2769,2025-01-29 15:18:36,1
-10768,-1804,-44,-3802,-1172,-2772,2025-01-29 15:18:36,1
-10320,-1640,-780,-3632,1215,-2773,2025-01-29 15:18:36,1
-10600,-1992,-716,-3553,2530,-2926,2025-01-29 15:18:36,1
-11876,-2792,120,-3629,2820,-3088,2025-01-29 15:18:37,1
-12784,-3140,312,-3525,2859,-2869,2025-01-29 15:18:37,1
-13368,-2536,-156,-3250,2651,-2317,2025-01-29 15:18:37,1
-13984,-2120,116,-2867,2120,-1609,2025-01-29 15:18:37,1
-12212,-1996,-1584,-2463,1142,-971,2025-01-29 15:18:37,1
-13488,-1828,512,-2233,-93,-400,2025-01-29 15:18:37,1
-13348,-1888,1196,-2103,-593,8,2025-01-29 15:18:37,1
-13048,-1752,984,-2039,-1014,400,2025-01-29 15:18:37,1
-12728,-1712,720,-2061,-1524,540,2025-01-29 15:18:37,1
-12376,-1556,396,-2373,-1707,394,2025-01-29 15:18:37,1
-12708,-1300,884,-2758,-1411,247,2025-01-29 15:18:37,1
-13284,-1392,1640,-3017,-381,322,2025-01-29 15:18:37,1
-13904,-1792,1552,-3103,286,514,2025-01-29 15:18:37,1
-13404,-1796,712,-3419,-224,456,2025-01-29 15:18:37,1
-13996,-1232,1316,-3747,-1609,150,2025-01-29 15:18:37,1
-13604,-972,524,-4089,-3216,-253,2025-01-29 15:18:37,1
-13244,-1240,412,-4567,-3580,-559,2025-01-29 15:18:37,1
-13432,-1820,1216,-5415,-1769,-1042,2025-01-29 15:18:37,1
-14048,-2448,2824,-5999,820,-1445,2025-01-29 15:18:37,1
-15332,-3480,3692,-6070,2481,-1588,2025-01-29 15:18:37,1
-15692,-4804,2392,-5519,3577,-2419,2025-01-29 15:18:37,1
-16576,-5168,284,-4875,4050,-4054,2025-01-29 15:18:37,1
-17440,-5856,620,-3888,3816,-5372,2025-01-29 15:18:37,1
-19000,-6452,1856,-1472,2650,-6044,2025-01-29 15:18:37,1
-20800,-6904,1292,1112,-98,-4981,2025-01-29 15:18:37,1
-21816,-5936,1096,3409,-3944,-2485,2025-01-29 15:18:37,1
-20308,-3420,456,4612,-8190,796,2025-01-29 15:18:37,1
-17636,-1952,-652,4994,-11938,2904,2025-01-29 15:18:37,1
-14740,-1284,-2316,4663,-14405,5063,2025-01-29 15:18:37,1
-11056,-1068,-4280,4233,-14667,5998,2025-01-29 15:18:37,1
-7428,-72,-7788,2550,-11430,4617,2025-01-29 15:18:37,1
-5956,1168,-7708,-181,-5595,2001,2025-01-29 15:18:37,1
-5488,1660,-4860,-2064,2074,-1200,2025-01-29 15:18:37,1
-10020,-84,-1820,-2134,10318,-2452,2025-01-29 15:18:37,1
-13548,-1432,1064,-804,15361,-1625,2025-01-29 15:18:37,1
-17024,-1980,1812,432,16330,64,2025-01-29 15:18:37,1
-17860,-2544,1656,1018,12503,1506,2025-01-29 15:18:37,1
-17952,-3268,1572,2458,4957,2552,2025-01-29 15:18:37,1
-17808,-3272,976,4170,-2037,3454,2025-01-29 15:18:37,1
-16388,-2320,220,5291,-6255,4444,2025-01-29 15:18:37,1
-13928,-1116,-80,6061,-7884,4942,2025-01-29 15:18:37,1
-11984,-28,-476,6236,-7481,4856,2025-01-29 15:18:37,1
-11020,684,284,5953,-5260,4415,2025-01-29 15:18:37,1
-9508,808,-720,5395,-1964,3477,2025-01-29 15:18:37,1
-9576,828,-676,4724,1372,2450,2025-01-29 15:18:37,1
-10920,968,60,4240,3426,1839,2025-01-29 15:18:37,1
-12232,1392,1136,3984,3497,1627,2025-01-29 15:18:37,1
-12472,1232,988,3697,1835,1429,2025-01-29 15:18:37,1
-12344,860,880,3238,7,769,2025-01-29 15:18:37,1
-12448,856,588,2781,-970,93,2025-01-29 15:18:37,1
-12116,808,192,2192,-1536,-573,2025-01-29 15:18:37,1
-11948,588,844,1472,-1650,-1130,2025-01-29 15:18:37,1
-12292,68,1476,1136,-1057,-1320,2025-01-29 15:18:37,1
-12924,-196,1528,922,-459,-1219,2025-01-29 15:18:37,1
-12932,-152,1332,831,-164,-1158,2025-01-29 15:18:37,1
-13028,200,1352,958,60,-1076,2025-01-29 15:18:37,1
-13140,380,1976,1377,478,-967,2025-01-29 15:18:37,1
-12964,360,2236,1771,809,-839,2025-01-29 15:18:37,1
-12852,252,2296,2235,833,-921,2025-01-29 15:18:37,1
-12864,488,1336,2628,860,-926,2025-01-29 15:18:37,1
-12796,12,32,2753,994,-807,2025-01-29 15:18:37,1
-12996,-392,244,2738,1942,-474,2025-01-29 15:18:38,1
-13140,148,1120,2805,3561,-257,2025-01-29 15:18:38,1
-14208,864,2180,3203,4929,-368,2025-01-29 15:18:38,1
-15656,808,2768,3744,5868,-842,2025-01-29 15:18:38,1
-17308,-192,3712,4390,5325,-410,2025-01-29 15:18:38,1
-18036,-1008,3112,5259,4073,548,2025-01-29 15:18:38,1
-18020,-1048,1564,6128,2659,1773,2025-01-29 15:18:38,1
-17204,-308,-740,6339,2340,2366,2025-01-29 15:18:38,1
-17116,1792,-3200,5400,3263,3050,2025-01-29 15:18:38,1
-16176,3044,-4200,3642,4054,3203,2025-01-29 15:18:38,1
-16232,3772,-5404,1261,4553,2561,2025-01-29 15:18:38,1
-16700,3344,-5928,-900,4991,1547,2025-01-29 15:18:38,1
-16764,2188,-4948,-1963,3994,478,2025-01-29 15:18:38,1
-15260,-404,-4624,-2092,253,-720,2025-01-29 15:18:38,1
-12612,-2056,-4540,-1991,-3103,-1785,2025-01-29 15:18:38,1
-11900,-3640,-4224,-1581,-5991,-2400,2025-01-29 15:18:38,1
-11276,-5028,-4308,-1183,-5272,-2412,2025-01-29 15:18:38,1
-11136,-6224,-4284,-736,-1436,-2018,2025-01-29 15:18:38,1
-10960,-6412,-4496,458,4260,-2002,2025-01-29 15:18:38,1
-11396,-3824,-3296,2186,7055,-2483,2025-01-29 15:18:38,1
-13224,-1228,-2584,2418,4434,-2253,2025-01-29 15:18:38,0
-15544,248,-2900,1305,-242,-1728,2025-01-29 15:18:38,0
-14140,-524,-2016,326,-1392,-2543,2025-01-29 15:18:38,0
-13960,-1820,-3140,-125,339,-3440,2025-01-29 15:18:38,0
-13596,-2832,-2872,-156,2245,-3753,2025-01-29 15:18:38,4
-12824,-3216,-3388,-144,2888,-3509,2025-01-29 15:18:38,4
-11940,-3400,-3156,-480,2863,-3349,2025-01-29 15:18:38,4
-11612,-3076,-2844,-841,2700,-3432,2025-01-29 15:18:38,4
-11656,-2808,-2732,-1213,2677,-3785,2025-01-29 15:18:38,4
-11748,-2340,-2992,-1738,2925,-4297,2025-01-29 15:18:38,4
-12656,-1848,-2140,-2398,2214,-4585,2025-01-29 15:18:38,4
-13524,-1452,-1412,-2590,606,-4153,2025-01-29 15:18:38,4
-13604,-1756,-1888,-2605,-570,-3279,2025-01-29 15:18:38,4
-12712,-2432,-3156,-2667,-793,-2310,2025-01-29 15:18:38,4
-12688,-3052,-3356,-2901,-123,-1687,2025-01-29 15:18:38,4
-12636,-3820,-2912,-3194,700,-1267,2025-01-29 15:18:38,4
-11912,-4080,-2584,-3280,696,-1144,2025-01-29 15:18:38,4
-11720,-3368,-2696,-3223,-155,-1071,2025-01-29 15:18:38,4
-11964,-2728,-2400,-3353,-474,-761,2025-01-29 15:18:38,4
-12668,-2360,-3380,-4081,83,-577,2025-01-29 15:18:38,4
-13192,-2136,-2732,-5180,656,-605,2025-01-29 15:18:38,4
-13640,-2376,-1020,-5688,1350,-574,2025-01-29 15:18:38,4
-14012,-2716,-1172,-5412,1117,-356,2025-01-29 15:18:38,4
-14548,-2768,-3052,-5079,420,198,2025-01-29 15:18:38,4
-17472,-2856,-6528,-5823,-382,1392,2025-01-29 15:18:38,4
-10620,-3284,148,-5318,-402,1322,2025-01-29 15:18:38,4
-10108,-3236,-1240,-5183,-1140,891,2025-01-29 15:18:38,4
-10664,-2612,-3076,-5367,-2710,211,2025-01-29 15:18:38,4
-13852,-2840,-3176,-6156,-4677,962,2025-01-29 15:18:38,4
-12912,-3336,-3660,-6131,-3263,1600,2025-01-29 15:18:38,4
-11388,-4292,-6560,-6128,-384,1677,2025-01-29 15:18:38,4
-10180,-4180,-7032,-6103,1554,395,2025-01-29 15:18:38,4
-10432,-3652,-7132,-5797,3377,-1813,2025-01-29 15:18:38,4
-10640,-2692,-6400,-6090,3140,-2347,2025-01-29 15:18:38,4
-8492,-2184,-4728,-6699,1941,-2227,2025-01-29 15:18:38,4
-5092,-1532,-1900,-6615,341,-2189,2025-01-29 15:18:38,4
-2812,-1044,900,-5271,-1450,-2147,2025-01-29 15:18:38,4
-1448,-1020,1172,-3436,-2408,-2296,2025-01-29 15:18:38,4
-1480,-1728,420,-2656,-2570,-2311,2025-01-29 15:18:38,4
-2016,-1360,768,-2706,-2552,-1657,2025-01-29 15:18:38,4
-4864,-1256,1724,-2723,-1790,-396,2025-01-29 15:18:39,4
-6732,-1136,3608,-2196,822,273,2025-01-29 15:18:39,4
-6952,-1016,4580,-2010,2002,-420,2025-01-29 15:18:39,4
-8012,-552,3780,-1159,696,-1413,2025-01-29 15:18:39,4
-11364,692,1824,-1112,-1195,-2179,2025-01-29 15:18:39,4
-15768,2032,1916,-1434,-2187,-1553,2025-01-29 15:18:39,4
-19544,1212,2188,-1148,-1825,-86,2025-01-29 15:18:39,4
-19316,-2180,2376,-1260,-262,-7,2025-01-29 15:18:39,4
-17876,-3872,-568,-1937,363,-1943,2025-01-29 15:18:39,4
-23744,-2208,-5344,-2105,2126,-2607,2025-01-29 15:18:39,4
-28692,560,-10216,-3581,4305,-843,2025-01-29 15:18:39,4
-29752,-684,-8676,-4920,4432,517,2025-01-29 15:18:39,4
-29348,-3236,-2620,-4470,1303,839,2025-01-29 15:18:39,4
-29356,-4320,-2128,-3271,-660,700,2025-01-29 15:18:39,4
-32336,-4100,-4500,-2299,-1001,514,2025-01-29 15:18:39,4
-32768,-2400,-4300,-1913,-1989,887,2025-01-29 15:18:39,4
-32768,-908,-3264,-1949,-3183,1884,2025-01-29 15:18:39,4
-32768,56,2580,-975,-2358,3463,2025-01-29 15:18:39,4
-32768,-1536,3244,1575,-2677,4486,2025-01-29 15:18:39,4
-32768,-4400,-2540,1313,-6144,3599,2025-01-29 15:18:39,4
-32768,-5740,-1468,-1010,-6275,-942,2025-01-29 15:18:39,4
-32768,-5164,2136,-1232,-4962,-5437,2025-01-29 15:18:39,4
-32768,-4592,-248,-2379,-3752,-5591,2025-01-29 15:18:39,4
-32768,-3164,-3368,-469,-872,-2731,2025-01-29 15:18:39,4
-30164,-3132,-12544,118,-931,211,2025-01-29 15:18:39,4
-16656,-3304,-16540,-4143,-3133,1801,2025-01-29 15:18:39,4
-3236,2928,-7396,-6021,-5684,154,2025-01-29 15:18:39,4
4308,6708,84,-572,-5328,-5,2025-01-29 15:18:39,4
12724,3852,-4708,-519,-9257,3985,2025-01-29 15:18:39,4
22332,196,-5464,-2211,-13063,5343,2025-01-29 15:18:39,4
21316,-3648,-10000,-3077,-10794,1858,2025-01-29 15:18:39,4
16992,-2564,-10184,-3819,-3771,-3840,2025-01-29 15:18:39,4
6792,-1112,-10416,-4403,2906,-6091,2025-01-29 15:18:39,4
340,836,-6196,-4767,8680,-6177,2025-01-29 15:18:39,4
-6200,1580,1660,-4798,11821,-4801,2025-01-29 15:18:39,4
-7000,236,11044,-2082,12078,-504,2025-01-29 15:18:39,4
-3948,-2492,13192,1762,8515,2229,2025-01-29 15:18:39,4
-2144,-5152,9888,4240,4064,4018,2025-01-29 15:18:39,4
1236,-4276,5656,3251,383,3502,2025-01-29 15:18:39,4
2852,-2740,1728,2273,-1782,2061,2025-01-29 15:18:39,4
3608,-1104,-340,930,-1908,870,2025-01-29 15:18:39,4
4292,160,-956,-228,-1203,28,2025-01-29 15:18:39,4
4504,968,-1024,-975,-319,-367,2025-01-29 15:18:39,4
4308,720,-696,-1549,755,-379,2025-01-29 15:18:39,4
4004,256,-1144,-2122,1747,-329,2025-01-29 15:18:39,4
3120,304,-556,-2709,3070,-192,2025-01-29 15:18:39,4
2504,372,948,-2891,3717,105,2025-01-29 15:18:39,4
2108,380,3212,-2768,3166,237,2025-01-29 15:18:39,4
1896,-232,4376,-2371,1852,124,2025-01-29 15:18:39,4
1160,-1168,4120,-1970,524,-111,2025-01-29 15:18:39,4
1184,-1588,3140,-1751,-270,-376,2025-01-29 15:18:39,4
1716,-1808,1512,-2032,-914,-615,2025-01-29 15:18:39,4
1772,-1728,-396,-2564,-2103,-899,2025-01-29 15:18:39,4
2084,-1324,-1184,-3012,-3015,-1371,2025-01-29 15:18:39,4
1172,-336,612,-2994,-4321,-1672,2025-01-29 15:18:39,4
-3360,-892,5248,-2644,-7483,-1011,2025-01-29 15:18:39,4
-11868,-2000,-6304,-1786,-8459,69,2025-01-29 15:18:39,4
-28164,-4652,-22324,-5183,-1202,1411,2025-01-29 15:18:39,4
-32768,-248,-20076,-4786,7682,3164,2025-01-29 15:18:39,4
-32768,5156,7932,197,24947,-3132,2025-01-29 15:18:40,4
-32768,-3980,-3576,1342,7346,-2042,2025-01-29 15:18:40,4
-32768,-17472,-6052,1017,-9373,5738,2025-01-29 15:18:40,4
-32768,-8604,-3776,-160,-6755,1279,2025-01-29 15:18:40,4
-32768,-1236,3684,-323,-6534,989,2025-01-29 15:18:40,4
-27260,2112,8404,5364,-7993,2876,2025-01-29 15:18:40,4
-15180,2188,64,8182,-8840,4168,2025-01-29 15:18:40,4
-17668,-1612,-3432,6960,-10061,2976,2025-01-29 15:18:40,4
-17496,-2924,-5760,3470,-5616,113,2025-01-29 15:18:40,4
-17900,-2472,-6464,71,-1743,-2638,2025-01-29 15:18:40,4
-20520,-2084,-5608,-1976,1729,-3207,2025-01-29 15:18:40,4
-20976,-280,1252,-2184,7100,-3454,2025-01-29 15:18:40,4
-20476,1944,6520,453,8139,-2181,2025-01-29 15:18:40,4
-17888,3264,5404,3988,6059,1111,2025-01-29 15:18:40,4
-13984,1708,2280,5175,3233,3329,2025-01-29 15:18:40,4
-9780,256,60,5030,-318,3997,2025-01-29 15:18:40,4
-4104,-1364,-968,3461,-3627,2467,2025-01-29 15:18:40,4
-2124,-1480,1140,1229,-6576,-577,2025-01-29 15:18:40,4
-2672,-980,2156,-59,-8217,-1661,2025-01-29 15:18:40,4
-4348,-888,592,-423,-7970,-1499,2025-01-29 15:18:40,4
-5592,-420,-864,-637,-5742,-1182,2025-01-29 15:18:40,4
-7408,224,-1596,381,-1400,-605,2025-01-29 15:18:40,4
-7708,772,-2136,1292,2095,337,2025-01-29 15:18:40,4
-8572,-200,-424,1394,4181,138,2025-01-29 15:18:40,4
-9848,-1520,2200,1715,4035,304,2025-01-29 15:18:40,4
-10704,-2552,1360,1642,2836,-379,2025-01-29 15:18:40,4
-14164,-2884,-300,566,2561,-842,2025-01-29 15:18:40,4
-16572,-1540,88,634,3628,-652,2025-01-29 15:18:40,4
-17512,-248,-56,1724,4150,275,2025-01-29 15:18:40,4
-15884,-216,120,2321,3052,895,2025-01-29 15:18:40,4
-14900,-892,-608,2160,1467,355,2025-01-29 15:18:40,4
-14128,-816,-644,1104,-118,-676,2025-01-29 15:18:40,4
-15340,-984,444,445,-2029,-877,2025-01-29 15:18:40,4
-14872,-492,-1036,103,-2621,-220,2025-01-29 15:18:40,4
-13880,-236,-836,-453,-1953,202,2025-01-29 15:18:40,4
-12396,-1044,328,115,-977,123,2025-01-29 15:18:40,4
-11192,-1888,812,359,-518,-426,2025-01-29 15:18:40,0
-11832,-1832,1916,635,-15,-1263,2025-01-29 15:18:40,0
-13548,-1284,2260,1141,7,-1174,2025-01-29 15:18:40,0
-14656,-908,1800,1569,-49,-549,2025-01-29 15:18:40,0
-14924,-884,1060,1785,89,77,2025-01-29 15:18:40,0
-14396,-1244,248,1728,686,172,2025-01-29 15:18:40,0
-13764,-1412,392,1796,756,-125,2025-01-29 15:18:40,0
-13040,-1372,128,1651,147,-507,2025-01-29 15:18:40,0
-13132,-1060,124,1094,-726,-665,2025-01-29 15:18:40,0
-13660,-760,-16,688,-781,-634,2025-01-29 15:18:40,0
-14048,-416,100,487,-205,-533,2025-01-29 15:18:40,0
-14288,-200,608,345,447,-328,2025-01-29 15:18:40,0
-13976,-288,936,380,689,-199,2025-01-29 15:18:40,0
-13652,-576,672,333,521,-262,2025-01-29 15:18:40,0
-13860,-908,876,79,34,-371,2025-01-29 15:18:40,0
-13948,-1076,672,-208,-532,-285,2025-01-29 15:18:40,0
-13880,-1288,980,-490,-738,-196,2025-01-29 15:18:40,0
-14052,-1120,1180,-416,-646,-226,2025-01-29 15:18:40,0
-13916,-1008,1084,-167,-632,-128,2025-01-29 15:18:40,0
-13656,-888,1016,49,-554,-76,2025-01-29 15:18:40,0
-13576,-820,780,144,-185,-98,2025-01-29 15:18:40,0
-13680,-1044,184,25,-218,-153,2025-01-29 15:18:40,0
-13624,-1336,332,-357,-183,-224,2025-01-29 15:18:40,0
-13876,-1332,1120,-382,-51,-312,2025-01-29 15:18:40,0
-14028,-1136,1056,-332,-74,-308,2025-01-29 15:18:40,0
-13928,-1244,824,-384,-222,-327,2025-01-29 15:18:40,0
-13732,-1332,512,-383,-251,-267,2025-01-29 15:18:41,0
-13744,-1296,748,-419,-281,-210,2025-01-29 15:18:41,0
-13764,-1252,936,-446,-398,-40,2025-01-29 15:18:41,0
-13704,-1376,1132,-157,-249,98,2025-01-29 15:18:41,0
-13776,-1488,1008,214,143,151,2025-01-29 15:18:41,0
-13832,-1332,964,469,356,206,2025-01-29 15:18:41,0
-13968,-1108,960,566,351,369,2025-01-29 15:18:41,0
-13916,-1024,1112,729,358,534,2025-01-29 15:18:41,0
-13512,-1264,916,891,543,477,2025-01-29 15:18:41,0
-13116,-1248,860,1045,972,191,2025-01-29 15:18:41,0
-13400,-1216,888,1057,1377,62,2025-01-29 15:18:41,0
-13720,-1148,884,1017,1844,91,2025-01-29 15:18:41,0
-13980,-836,764,1077,1985,296,2025-01-29 15:18:41,1
-14164,-276,288,1145,2015,416,2025-01-29 15:18:41,1
-13784,-168,348,639,2589,347,2025-01-29 15:18:41,1
-13060,-828,632,633,2026,-257,2025-01-29 15:18:41,1
-12700,-1656,600,500,1385,-991,2025-01-29 15:18:41,1
-13364,-1520,1324,715,1736,-1209,2025-01-29 15:18:41,1
-13852,-1032,1356,1245,2361,-928,2025-01-29 15:18:41,1
-13124,-592,836,1373,2841,-1030,2025-01-29 15:18:41,1
-13456,-456,392,1224,3428,-1327,2025-01-29 15:18:41,1
-13604,-888,-192,1238,4175,-1514,2025-01-29 15:18:41,1
-14880,-636,-400,1335,4016,-1195,2025-01-29 15:18:41,1
-14264,-548,-712,1014,2879,-868,2025-01-29 15:18:41,1
-14472,-680,-472,734,2031,-950,2025-01-29 15:18:41,1
-14640,-472,-316,728,999,-745,2025-01-29 15:18:41,1
-14392,-436,-12,582,59,-654,2025-01-29 15:18:41,1
-14212,-412,-200,344,-883,-577,2025-01-29 15:18:41,1
-13748,-616,-328,58,-1488,-537,2025-01-29 15:18:41,1
-13984,-648,-16,-154,-1575,-434,2025-01-29 15:18:41,1
-13776,-792,164,-340,-1466,-533,2025-01-29 15:18:41,1
-13300,-1444,272,-468,-904,-856,2025-01-29 15:18:41,1
-14336,-1604,1444,124,123,-834,2025-01-29 15:18:41,1
-14244,-2076,1692,1078,-260,-554,2025-01-29 15:18:41,1
-14384,-1536,-440,1086,-1655,-798,2025-01-29 15:18:41,1
-13508,-2432,664,391,-4717,-1114,2025-01-29 15:18:41,1
-13304,-2608,964,710,-4254,-1156,2025-01-29 15:18:41,1
-12468,-2200,996,1406,-1328,-982,2025-01-29 15:18:41,1
-12508,-2228,20,1759,1151,-915,2025-01-29 15:18:41,1
-12728,-2140,-40,1785,2850,-1218,2025-01-29 15:18:41,1
-13400,-2416,292,1819,3917,-1627,2025-01-29 15:18:41,1
-14392,-2604,1088,1787,3599,-1658,2025-01-29 15:18:41,1
-14688,-2156,2024,1790,1858,-1401,2025-01-29 15:18:41,1
-14768,-1472,1824,1600,83,-1125,2025-01-29 15:18:41,1
-14320,-1336,996,1175,-881,-1119,2025-01-29 15:18:41,1
-13712,-1400,816,657,-1096,-1377,2025-01-29 15:18:41,1
-13312,-1668,972,228,-878,-1762,2025-01-29 15:18:41,1
-13184,-2072,1616,48,-485,-2016,2025-01-29 15:18:41,1
-13372,-2624,1844,153,-339,-2033,2025-01-29 15:18:41,1
-13412,-2788,2012,279,-773,-1891,2025-01-29 15:18:41,1
-13432,-2676,2264,380,-1105,-1693,2025-01-29 15:18:41,1
-13248,-2436,1972,345,-1311,-1605,2025-01-29 15:18:41,1
-13068,-2312,1816,201,-1520,-1500,2025-01-29 15:18:41,1
-12828,-2148,1996,112,-1583,-1255,2025-01-29 15:18:41,1
-12944,-2064,2084,-169,-1124,-952,2025-01-29 15:18:41,1
-13324,-2076,1780,-580,-443,-517,2025-01-29 15:18:41,1
-13392,-2076,2188,-1128,69,-238,2025-01-29 15:18:41,1
-13080,-2056,2704,-1658,-138,-298,2025-01-29 15:18:41,1
-12972,-2204,1980,-2097,-581,-540,2025-01-29 15:18:41,1
-13160,-2100,1676,-2540,-680,-663,2025-01-29 15:18:41,1
-13256,-1892,1996,-3114,194,-642,2025-01-29 15:18:42,1
-13424,-1752,2212,-3718,1178,-574,2025-01-29 15:18:42,1
-13676,-1960,2468,-4434,1535,-732,2025-01-29 15:18:42,1
-13996,-2496,2660,-5037,926,-1096,2025-01-29 15:18:42,1
-14200,-3088,2872,-4885,33,-848,2025-01-29 15:18:42,1
-13696,-3228,2556,-4524,-186,-414,2025-01-29 15:18:42,1
-13432,-3032,2756,-5132,351,-626,2025-01-29 15:18:42,1
-13780,-3356,3812,-5359,478,-656,2025-01-29 15:18:42,1
-13916,-4308,4408,-5111,354,-387,2025-01-29 15:18:42,1
-14072,-5064,4148,-4666,538,-437,2025-01-29 15:18:42,1
-13976,-6068,2384,-4446,1040,-770,2025-01-29 15:18:42,1
-14212,-5752,644,-4909,1476,-2026,2025-01-29 15:18:42,1
-15412,-4900,1764,-4734,1709,-3516,2025-01-29 15:18:42,1
-16812,-4720,3724,-3091,1053,-3706,2025-01-29 15:18:42,1
-18032,-5536,3200,-1142,-469,-2599,2025-01-29 15:18:42,1
-18428,-6268,1032,40,-2501,-353,2025-01-29 15:18:42,1
-17452,-5840,904,340,-3815,1135,2025-01-29 15:18:42,1
-16568,-4800,1844,1011,-3870,1855,2025-01-29 15:18:42,1
-16272,-4592,1360,2063,-3100,3181,2025-01-29 15:18:42,1
-15168,-4756,292,2885,-2805,4348,2025-01-29 15:18:42,1
-14484,-3928,-836,3382,-2435,4309,2025-01-29 15:18:42,1
-14136,-2700,-1504,3814,-2661,3767,2025-01-29 15:18:42,1
-13556,-1688,-2000,4144,-3739,3557,2025-01-29 15:18:42,1
-12344,-836,-2408,4646,-4591,3344,2025-01-29 15:18:42,1
-11476,1016,-3464,4644,-4445,3094,2025-01-29 15:18:42,1
-10252,2996,-4044,3656,-2785,2882,2025-01-29 15:18:42,1
-9832,3732,-4080,2021,-28,2354,2025-01-29 15:18:42,1
-10208,2380,-3568,133,3758,1639,2025-01-29 15:18:42,1
-12192,724,-1944,-1231,7006,1541,2025-01-29 15:18:42,1
-14668,-364,524,-1500,9207,2122,2025-01-29 15:18:42,1
-15824,-1416,1092,-1443,9246,2564,2025-01-29 15:18:42,1
-17340,-1432,1484,-1031,6055,2756,2025-01-29 15:18:42,1
-17752,-428,1512,84,1393,3715,2025-01-29 15:18:42,1
-16188,568,1560,865,-3486,4435,2025-01-29 15:18:42,1
-13556,1136,336,673,-6428,4236,2025-01-29 15:18:42,1
-11704,1440,100,-109,-6919,3354,2025-01-29 15:18:42,1
-10416,1144,40,-862,-5672,2444,2025-01-29 15:18:42,1
-9752,584,320,-1275,-2982,1606,2025-01-29 15:18:42,1
-9696,136,780,-1146,-168,1201,2025-01-29 15:18:42,1
-9832,-16,1072,-900,2012,986,2025-01-29 15:18:42,1
-10508,-80,1588,-678,2952,531,2025-01-29 15:18:42,1
-11608,-100,2148,-489,3010,59,2025-01-29 15:18:42,1
-12328,-32,3152,-160,2254,-389,2025-01-29 15:18:42,1
-12640,104,3444,73,973,-974,2025-01-29 15:18:42,1
-13184,4,3824,429,-634,-1535,2025-01-29 15:18:42,1
-13000,-360,3416,942,-1873,-1811,2025-01-29 15:18:42,1
-12820,-628,2724,1417,-2302,-1886,2025-01-29 15:18:42,1
-12880,-236,2496,1882,-1763,-1997,2025-01-29 15:18:42,1
-13636,1052,2336,1950,-821,-1696,2025-01-29 15:18:42,1
-14372,1812,1940,1881,36,-1107,2025-01-29 15:18:42,1
-15192,1488,2232,1880,643,-451,2025-01-29 15:18:42,1
-16052,1052,2568,1721,1737,501,2025-01-29 15:18:42,1
-15612,960,2404,1635,2958,1498,2025-01-29 15:18:42,1
-14176,1168,2240,1487,3627,2227,2025-01-29 15:18:42,7
-12244,668,2732,1288,2992,1971,2025-01-29 15:18:42,7
-13004,-508,3716,1747,2289,1114,2025-01-29 15:18:42,7
-15612,-2148,2488,2913,4555,406,2025-01-29 15:18:42,7
-17964,-840,-512,3594,7307,-28,2025-01-29 15:18:42,7
-20688,2784,-5264,2789,8575,1416,2025-01-29 15:18:42,7
-22112,5864,-8488,268,8984,4127,2025-01-29 15:18:42,7
-21192,8288,-8196,-2994,7929,6192,2025-01-29 15:18:42,7
-16912,9380,-5456,-6137,3227,5643,2025-01-29 15:18:42,7
-12128,6368,-2592,-7896,-3270,1053,2025-01-29 15:18:43,7
-12512,408,-2216,-9009,-8090,-3720,2025-01-29 15:18:43,7
-11300,-2664,-1780,-8521,-12514,-5690,2025-01-29 15:18:43,7
-10860,-4192,-2924,-7160,-14526,-6041,2025-01-29 15:18:43,7
-10884,-5076,-3396,-6616,-12963,-4805,2025-01-29 15:18:43,7
-10600,-3848,-1816,-5821,-7114,-2692,2025-01-29 15:18:43,7
-10060,-1156,-772,-3710,2253,-1037,2025-01-29 15:18:43,7
-10612,272,-2248,-3106,9523,-346,2025-01-29 15:18:43,7
-12528,1564,-992,-3967,11680,-623,2025-01-29 15:18:43,7
-14200,1360,-1360,-4975,10135,-1362,2025-01-29 15:18:43,7
-15804,736,-1876,-6216,6694,-1914,2025-01-29 15:18:43,7
-16448,196,-2896,-7675,2585,-2426,2025-01-29 15:18:43,7
-16032,-196,-2272,-8965,-1739,-2865,2025-01-29 15:18:43,7
-14276,-372,-2336,-9709,-3908,-3019,2025-01-29 15:18:43,7
-13444,-124,-1476,-10785,-5314,-2865,2025-01-29 15:18:43,7
-11880,-276,-1924,-11545,-5113,-2891,2025-01-29 15:18:43,7
-11284,-476,-2152,-11982,-3630,-2959,2025-01-29 15:18:43,7
-11572,-868,-1764,-12139,-1316,-2863,2025-01-29 15:18:43,7
-11936,-1324,-1388,-12008,400,-2435,2025-01-29 15:18:43,7
-12276,-1520,-1068,-11968,1034,-1880,2025-01-29 15:18:43,7
-13068,-1168,-436,-12188,668,-1397,2025-01-29 15:18:43,7
-13428,-1020,-448,-12579,-193,-1158,2025-01-29 15:18:43,7
-13380,-896,-1080,-13107,-1565,-665,2025-01-29 15:18:43,7
-12984,-720,-1700,-13304,-2186,-375,2025-01-29 15:18:43,7
-12500,-588,-1420,-13488,-1966,-188,2025-01-29 15:18:43,7
-12504,-540,-1224,-13807,-754,-346,2025-01-29 15:18:43,7
-13340,-488,-932,-14105,792,-305,2025-01-29 15:18:43,7
-14328,-816,-716,-14430,1168,-211,2025-01-29 15:18:43,7
-14992,-1160,-748,-14794,525,-231,2025-01-29 15:18:43,7
-14688,-1428,-1024,-15446,-696,-592,2025-01-29 15:18:43,7
-14612,-1248,-660,-16206,-1795,-994,2025-01-29 15:18:43,7
-13700,-1184,-708,-16950,-2649,-1214,2025-01-29 15:18:43,7
-13232,-920,-720,-17497,-2691,-1315,2025-01-29 15:18:43,7
-13144,-912,-1084,-17760,-2238,-1319,2025-01-29 15:18:43,7
-13264,-1332,-1136,-17965,-1423,-1258,2025-01-29 15:18:43,7
-13176,-1780,-392,-18124,-397,-1235,2025-01-29 15:18:43,7
-13376,-1928,244,-18145,379,-1238,2025-01-29 15:18:43,7
-13636,-2096,596,-18198,459,-1351,2025-01-29 15:18:43,7
-13856,-3012,640,-18781,52,-2068,2025-01-29 15:18:43,7
-14652,-4776,964,-19174,-335,-2957,2025-01-29 15:18:43,7
-15064,-5508,892,-18443,-815,-2485,2025-01-29 15:18:43,7
-14560,-5268,1112,-17511,-1048,-1622,2025-01-29 15:18:43,7
-13948,-4716,632,-17224,-747,-1439,2025-01-29 15:18:43,7
-14316,-2812,-416,-16950,-433,-1344,2025-01-29 15:18:43,7
-15056,-992,-1488,-16437,151,-1018,2025-01-29 15:18:43,7
-15900,-276,-2712,-16006,1680,-826,2025-01-29 15:18:43,7
-15948,-1020,-2308,-15436,3782,-1060,2025-01-29 15:18:43,7
-15476,-2000,-1216,-14904,4962,-1850,2025-01-29 15:18:43,7
-14440,-1456,-208,-14716,3695,-2010,2025-01-29 15:18:43,7
-13140,-532,-168,-14608,2163,-1710,2025-01-29 15:18:43,7
-12000,-176,-1424,-14209,1167,-1785,2025-01-29 15:18:43,7
-11328,24,-2752,-14497,787,-2566,2025-01-29 15:18:43,7
-10892,880,-2732,-15425,1236,-3890,2025-01-29 15:18:43,7
-12060,2020,-2748,-16351,1963,-4412,2025-01-29 15:18:43,7
-13224,3000,-2660,-17099,2500,-4096,2025-01-29 15:18:43,7
-14364,3884,-2636,-17368,2457,-3586,2025-01-29 15:18:43,7
-15028,4180,-2860,-17503,1527,-2841,2025-01-29 15:18:43,7
-14668,3100,-3204,-17889,-885,-1667,2025-01-29 15:18:43,7
-13616,1240,-3416,-18578,-2052,-1079,2025-01-29 15:18:43,7
-12896,-180,-3320,-19092,-1548,-938,2025-01-29 15:18:44,7
-12604,-832,-2612,-19281,-219,-1024,2025-01-29 15:18:44,7
-12644,-864,-2012,-19029,637,-1077,2025-01-29 15:18:44,7
-13360,-744,-1512,-18242,764,-1133,2025-01-29 15:18:44,7
-14104,-304,-1428,-17411,512,-1335,2025-01-29 15:18:44,7
-14440,252,-1624,-17065,-60,-1485,2025-01-29 15:18:44,7
-14740,700,-1572,-16988,-1191,-1532,2025-01-29 15:18:44,7
-14556,1108,-984,-16673,-2294,-1560,2025-01-29 15:18:44,7
-14244,1464,-1152,-16659,-2732,-1464,2025-01-29 15:18:44,7
-13712,1484,-1320,-16845,-2626,-1570,2025-01-29 15:18:44,7
-13384,1308,-1032,-17148,-2240,-1808,2025-01-29 15:18:44,7
-13332,488,-720,-17266,-2015,-2054,2025-01-29 15:18:44,7
-12728,-944,-608,-17164,-2472,-2367,2025-01-29 15:18:44,7
-12720,-2044,-1608,-17033,-3640,-2643,2025-01-29 15:18:44,7
-12096,-2144,-2952,-17014,-4771,-2922,2025-01-29 15:18:44,7
-12020,-1148,-2304,-16688,-4378,-3136,2025-01-29 15:18:44,7
-12220,-292,-1092,-16746,-1962,-2795,2025-01-29 15:18:44,7
-12512,-388,-940,-16795,436,-2271,2025-01-29 15:18:44,7
-12676,-916,-1424,-16442,1232,-1846,2025-01-29 15:18:44,7
-12852,-640,-1072,-16228,1470,-1924,2025-01-29 15:18:44,7
-13576,-144,-516,-16187,1841,-2495,2025-01-29 15:18:44,7
-14640,112,384,-15930,1989,-3171,2025-01-29 15:18:44,7
-15716,-588,1324,-15218,1520,-3516,2025-01-29 15:18:44,7
-16604,-2108,1824,-13992,528,-3160,2025-01-29 15:18:44,7
-16196,-3508,2020,-12165,-919,-2521,2025-01-29 15:18:44,7
-14860,-3788,2108,-10092,-2598,-1698,2025-01-29 15:18:44,7
-13472,-2920,1508,-8090,-3571,-1182,2025-01-29 15:18:44,7
-12488,-1840,-108,-6671,-3284,-896,2025-01-29 15:18:44,7
-12424,-1680,-956,-6025,-1327,-860,2025-01-29 15:18:44,7
-12944,-2092,-692,-5574,1533,-944,2025-01-29 15:18:44,7
-13436,-1748,1172,-5184,2123,-1296,2025-01-29 15:18:44,7
-13820,-592,1504,-4939,1105,-1730,2025-01-29 15:18:44,7
-14044,260,756,-5252,-556,-2005,2025-01-29 15:18:44,7
-13600,776,-252,-5696,-1227,-1968,2025-01-29 15:18:44,7
-12928,712,-1572,-6505,-654,-1858,2025-01-29 15:18:44,7
-12784,-200,-1376,-8258,917,-2321,2025-01-29 15:18:44,7
-13124,-1584,-512,-9212,1669,-2628,2025-01-29 15:18:44,7
-14268,-2840,952,-9131,2184,-2607,2025-01-29 15:18:44,7
-15164,-3536,1944,-8607,2145,-2365,2025-01-29 15:18:44,7
-15276,-3856,1744,-7943,1105,-2222,2025-01-29 15:18:44,7
-15552,-3684,1040,-7425,-609,-2076,2025-01-29 15:18:44,7
-14296,-1828,1164,-6209,-3010,-1600,2025-01-29 15:18:44,7
-13012,-1544,-152,-5857,-3550,-1294,2025-01-29 15:18:44,7
-11984,-2564,-280,-6648,-1758,-1638,2025-01-29 15:18:44,7
-12348,-3644,1072,-7031,813,-2161,2025-01-29 15:18:44,7
-13568,-4152,2004,-6299,1644,-1845,2025-01-29 15:18:44,7
-14400,-3444,2644,-5288,606,-1117,2025-01-29 15:18:44,7
-14312,-2016,1748,-4604,-622,-542,2025-01-29 15:18:44,7
-13800,-1420,948,-4449,-1010,78,2025-01-29 15:18:44,7
-13096,-1980,748,-4400,-623,464,2025-01-29 15:18:44,7
-13096,-2812,1100,-4027,275,686,2025-01-29 15:18:44,7
-13016,-3136,1288,-3470,688,980,2025-01-29 15:18:44,7
-13064,-4008,1604,-2700,837,1383,2025-01-29 15:18:44,0
-13948,-3904,1164,-2069,1242,1538,2025-01-29 15:18:44,0
-14464,-3036,1244,-1460,2053,1385,2025-01-29 15:18:44,0
-15160,-1804,740,-710,2182,1118,2025-01-29 15:18:44,0
-15352,-752,508,-353,619,1307,2025-01-29 15:18:44,0
-14716,-80,492,-309,-1555,1577,2025-01-29 15:18:44,0
-13964,108,232,-411,-2736,1596,2025-01-29 15:18:44,0
-13208,-220,-820,-734,-2440,1398,2025-01-29 15:18:44,0
-12244,-968,-1976,-1167,-703,522,2025-01-29 15:18:44,0
-12220,-1236,-1428,-1273,1177,-99,2025-01-29 15:18:45,0
-12800,-1376,-768,-1263,2347,-91,2025-01-29 15:18:45,0
-13264,-1556,-120,-1102,2981,120,2025-01-29 15:18:45,0
-13884,-1556,-292,-872,3024,235,2025-01-29 15:18:45,0
-14340,-1796,-128,-638,2218,89,2025-01-29 15:18:45,0
-14424,-1596,-604,-293,209,-166,2025-01-29 15:18:45,0
-14096,-1240,-616,-32,-1011,-151,2025-01-29 15:18:45,0
-13616,-1008,-516,145,-862,-71,2025-01-29 15:18:45,0
-13584,-732,-456,319,178,80,2025-01-29 15:18:45,0
-13528,-756,-628,307,1030,66,2025-01-29 15:18:45,0
-13992,-868,32,332,1244,151,2025-01-29 15:18:45,0
-14036,-760,248,321,572,185,2025-01-29 15:18:45,0
-14152,-800,148,255,-468,109,2025-01-29 15:18:45,0
-14040,-808,-352,217,-947,-62,2025-01-29 15:18:45,0
-14020,-924,-972,165,-605,-99,2025-01-29 15:18:45,0
-13788,-384,-1336,74,387,254,2025-01-29 15:18:45,0
-13108,-164,-828,-124,835,230,2025-01-29 15:18:45,0
-13160,-176,-260,-190,672,184,2025-01-29 15:18:45,0
-13252,-448,-260,-128,249,163,2025-01-29 15:18:45,0
-13304,-972,-436,31,218,-33,2025-01-29 15:18:45,0
-13812,-1264,-652,130,801,-93,2025-01-29 15:18:45,0
-14184,-1232,-704,276,1221,17,2025-01-29 15:18:45,0
-14104,-804,-508,387,889,99,2025-01-29 15:18:45,0
-13640,-384,-704,253,-378,-81,2025-01-29 15:18:45,0
-13332,-184,-732,-4,-954,-330,2025-01-29 15:18:45,0
-13084,-276,-988,-65,-262,-323,2025-01-29 15:18:45,0
-13104,-328,-976,-83,755,-314,2025-01-29 15:18:45,0
-13376,-308,-784,-171,1370,-244,2025-01-29 15:18:45,0
-13760,-632,-524,-258,1292,-210,2025-01-29 15:18:45,0
-13952,-820,-428,-347,883,-216,2025-01-29 15:18:45,0
-14080,-780,-568,-336,331,-244,2025-01-29 15:18:45,0
-13812,-632,-648,-264,34,-279,2025-01-29 15:18:45,0
-13528,-672,-848,-189,122,-240,2025-01-29 15:18:45,0
-13504,-704,-712,-130,415,-184,2025-01-29 15:18:45,0
-13404,-596,-916,-122,705,-156,2025-01-29 15:18:45,0
-13448,-640,-572,-108,1034,-219,2025-01-29 15:18:45,0
-13796,-872,-820,-107,907,-324,2025-01-29 15:18:45,0
-13912,-1216,-816,42,549,-414,2025-01-29 15:18:45,0
-14004,-1092,-520,279,247,-356,2025-01-29 15:18:45,0
-13748,-744,-548,451,205,-239,2025-01-29 15:18:45,0
-13604,-372,-748,451,258,-124,2025-01-29 15:18:45,0
-13312,-116,-936,570,753,-109,2025-01-29 15:18:45,0
-13284,-484,-1128,678,1441,-38,2025-01-29 15:18:45,0
-13432,-1076,-716,838,2190,-58,2025-01-29 15:18:45,0
-13488,-1368,-432,1054,2871,-76,2025-01-29 15:18:45,0
-13684,-1424,-528,1187,3133,-158,2025-01-29 15:18:45,1
-14128,-1124,-348,1305,2583,-276,2025-01-29 15:18:45,1
-14280,-396,-108,1367,1545,-275,2025-01-29 15:18:45,1
-14516,456,-164,1159,377,-189,2025-01-29 15:18:45,1
-14516,1180,-748,523,-890,-241,2025-01-29 15:18:45,1
-14192,1424,-1168,-144,-1915,-334,2025-01-29 15:18:45,1
-13856,1396,-1372,-811,-2556,-443,2025-01-29 15:18:45,1
-13340,1356,-1260,-1389,-2827,-532,2025-01-29 15:18:45,1
-12908,904,-1388,-1974,-2712,-735,2025-01-29 15:18:46,1
-12684,128,-1544,-2561,-2129,-1001,2025-01-29 15:18:46,1
-12800,-344,-1704,-2761,-1208,-1344,2025-01-29 15:18:46,1
-13116,-868,-1860,-2710,-190,-1698,2025-01-29 15:18:46,1
-13028,-1348,-1728,-2445,481,-2063,2025-01-29 15:18:46,1
-13628,-1424,-1128,-2067,732,-2226,2025-01-29 15:18:46,1
-13896,-1512,-580,-1810,454,-2048,2025-01-29 15:18:46,1
-13936,-1684,-24,-1569,5,-1789,2025-01-29 15:18:46,1
-14044,-1780,32,-1292,-361,-1601,2025-01-29 15:18:46,1
-15088,-2624,1572,-1349,-266,489,2025-01-29 15:18:46,1
-14700,-1804,976,-1741,-713,173,2025-01-29 15:18:46,1
-14252,-1984,1100,-1971,-527,-222,2025-01-29 15:18:46,1
-14264,-2644,1628,-2311,-370,-360,2025-01-29 15:18:46,1
-14064,-2940,2716,-2668,-345,-609,2025-01-29 15:18:46,1
-14088,-2960,2824,-3063,-372,-1059,2025-01-29 15:18:46,1
-13984,-2912,2040,-3252,-569,-1721,2025-01-29 15:18:46,1
-14332,-2632,808,-3568,-878,-2502,2025-01-29 15:18:46,1
-14276,-3548,1428,-3433,-304,-3242,2025-01-29 15:18:46,1
-14608,-5008,2480,-2537,1048,-4024,2025-01-29 15:18:46,1
-15676,-6044,3268,-974,2273,-3923,2025-01-29 15:18:46,1
-16824,-6528,3036,760,2222,-2901,2025-01-29 15:18:46,1
-18172,-5924,2280,1848,1136,-1629,2025-01-29 15:18:46,1
-18892,-4192,1368,2513,-392,-73,2025-01-29 15:18:46,1
-18512,-2112,1152,2986,-2222,1491,2025-01-29 15:18:46,1
-16636,-1816,-1140,2931,-4289,3181,2025-01-29 15:18:46,1
-13824,-2620,-1436,2453,-4687,3579,2025-01-29 15:18:46,1
-13224,-3564,-1372,2580,-2782,3014,2025-01-29 15:18:46,1
-13496,-3964,-2124,3258,-952,2607,2025-01-29 15:18:46,1
-13880,-2924,-2788,3674,-1243,2864,2025-01-29 15:18:46,1
-13156,-1140,-3260,3832,-2463,3331,2025-01-29 15:18:46,1
-12044,272,-4288,3683,-3299,3566,2025-01-29 15:18:46,1
-10868,1244,-5276,2869,-2997,3512,2025-01-29 15:18:46,1
-9680,1504,-5792,1398,-1562,2947,2025-01-29 15:18:46,1
-9108,884,-4676,-525,2109,1293,2025-01-29 15:18:46,1
-10728,-408,-3160,-1239,5486,485,2025-01-29 15:18:46,1
-13232,-1440,-1436,-1056,8154,486,2025-01-29 15:18:46,1
-15280,-2300,-236,-651,8768,1050,2025-01-29 15:18:46,1
-16952,-2172,476,-309,6469,1502,2025-01-29 15:18:46,1
-17984,-1652,856,687,2428,2160,2025-01-29 15:18:46,1
-17180,-1064,408,2115,-2197,3102,2025-01-29 15:18:46,1
-14684,-564,-684,2848,-5699,3855,2025-01-29 15:18:46,1
-12704,-96,-184,3030,-6890,3854,2025-01-29 15:18:46,1
-10716,116,-840,2821,-6222,3264,2025-01-29 15:18:46,1
-9924,328,-924,2178,-3502,2649,2025-01-29 15:18:47,1
-9568,172,-772,1666,-48,1946,2025-01-29 15:18:47,1
-10460,96,-272,1551,2486,1460,2025-01-29 15:18:47,1
-11576,264,448,1687,3574,1361,2025-01-29 15:18:47,1
-12924,152,1052,2078,3374,1377,2025-01-29 15:18:47,1
-13304,180,1088,2075,1892,1137,2025-01-29 15:18:47,1
-13344,188,1264,1908,86,670,2025-01-29 15:18:47,1
-13192,148,1352,1628,-1470,106,2025-01-29 15:18:47,1
-13172,104,1776,1421,-2894,-368,2025-01-29 15:18:47,1
-12660,164,2320,1529,-4286,-714,2025-01-29 15:18:47,1
-12664,16,2584,1641,-5045,-693,2025-01-29 15:18:47,1
-12444,124,2552,1571,-4809,-584,2025-01-29 15:18:47,1
-12488,280,2420,1608,-3395,-706,2025-01-29 15:18:47,1
-13320,300,1844,1579,-2233,-700,2025-01-29 15:18:47,1
-13848,824,2288,1738,-1473,-329,2025-01-29 15:18:47,1
-14180,1044,1992,2042,-669,66,2025-01-29 15:18:47,1
-14288,812,1472,2210,288,534,2025-01-29 15:18:47,1
-14248,252,1640,2351,1263,1082,2025-01-29 15:18:47,1
-14580,8,2552,2934,2320,1705,2025-01-29 15:18:47,1
-14332,-168,3664,3875,3571,2272,2025-01-29 15:18:47,1
-14964,-264,3128,4643,4268,2278,2025-01-29 15:18:47,1
-16812,296,1356,5242,5249,2009,2025-01-29 15:18:47,1
-18992,984,-520,5224,5609,2199,2025-01-29 15:18:47,1
-19352,2468,-832,4566,4125,3020,2025-01-29 15:18:47,1
-18396,3888,-536,3563,908,3409,2025-01-29 15:18:47,1
-17004,4664,-980,1936,-2372,2864,2025-01-29 15:18:47,1
-15992,4200,-940,-48,-4109,1431,2025-01-29 15:18:47,1
-15476,2868,-484,-1668,-4135,-172,2025-01-29 15:18:47,1
-14812,1524,-72,-1925,-3736,-1242,2025-01-29 15:18:47,1
-14108,808,-956,-1413,-4101,-1717,2025-01-29 15:18:47,1
-13580,-468,-2492,-1095,-4866,-1574,2025-01-29 15:18:47,1
-10524,-3276,-3216,-2445,741,-2425,2025-01-29 15:18:47,1
-11044,-2260,-2060,-1852,4466,-2621,2025-01-29 15:18:47,1
-11980,-1052,-712,-570,7229,-2498,2025-01-29 15:18:47,1
-12964,-44,-44,185,8339,-2352,2025-01-29 15:18:47,1
-14284,364,-168,-254,7953,-2480,2025-01-29 15:18:47,1
-14848,-120,-892,-1406,6439,-2970,2025-01-29 15:18:47,1
-15460,-1252,-1384,-2406,3415,-4057,2025-01-29 15:18:47,1
-15784,-2488,-724,-2598,-331,-4624,2025-01-29 15:18:47,1
-14636,-3096,160,-2082,-4342,-3999,2025-01-29 15:18:47,1
-13036,-3348,860,-1370,-6096,-2976,2025-01-29 15:18:47,1
-11604,-2996,564,-934,-5342,-2458,2025-01-29 15:18:47,1
-10644,-2760,-520,-749,-3468,-2332,2025-01-29 15:18:47,1
-10332,-2228,-904,-730,-539,-2464,2025-01-29 15:18:47,1
-10400,-1872,-532,-1064,1681,-2639,2025-01-29 15:18:47,1
-11472,-1568,384,-1295,2731,-2698,2025-01-29 15:18:47,1
-12252,-1312,464,-1496,2522,-2531,2025-01-29 15:18:47,1
-13336,-1388,716,-1637,1444,-1891,2025-01-29 15:18:47,1
-13476,-1612,860,-1600,537,-932,2025-01-29 15:18:47,1
-13300,-1644,1012,-1478,355,-156,2025-01-29 15:18:47,1
-13432,-1356,1184,-1526,598,680,2025-01-29 15:18:47,1
-13408,-920,1236,-2073,529,1191,2025-01-29 15:18:47,1
-12788,-616,1288,-2772,-338,1349,2025-01-29 15:18:47,1
-12764,-628,1508,-3219,-1364,1366,2025-01-29 15:18:47,1
-12808,-936,1656,-3659,-1832,1456,2025-01-29 15:18:47,1
-13060,-1268,1428,-3937,-1554,1601,2025-01-29 15:18:47,1
-13252,-1720,1072,-4384,-624,1779,2025-01-29 15:18:47,1
-13344,-2144,1280,-4831,264,1541,2025-01-29 15:18:47,1
-13480,-1876,1496,-4966,697,947,2025-01-29 15:18:47,1
-13656,-1744,1660,-4922,1036,52,2025-01-29 15:18:47,1
-14120,-2760,1996,-4767,1744,-1156,2025-01-29 15:18:48,1
-15300,-3336,3064,-4669,2148,-2115,2025-01-29 15:18:48,1
-16832,-2888,4516,-4620,969,-2281,2025-01-29 15:18:48,1
-17460,-2280,4772,-4340,-1147,-1366,2025-01-29 15:18:48,1
-17308,-2200,1592,-4270,-1644,-1272,2025-01-29 15:18:48,1
-16716,-2160,-704,-4934,-787,-2393,2025-01-29 15:18:48,1
-16312,-3340,140,-4708,347,-4119,2025-01-29 15:18:48,1
-16928,-4748,-244,-3139,487,-5511,2025-01-29 15:18:48,1
-18832,-5900,-100,-948,-818,-4882,2025-01-29 15:18:48,1
-20276,-5864,-300,1970,-2651,-914,2025-01-29 15:18:48,1
-16392,-4136,-2124,3649,-4533,2085,2025-01-29 15:18:48,1
-13068,-2944,-5612,3273,-7020,2682,2025-01-29 15:18:48,1
-10892,-300,-7080,963,-8123,2152,2025-01-29 15:18:48,1
-10244,2416,-5296,-1217,-6067,916,2025-01-29 15:18:48,1
-10900,3352,-3796,-965,-637,335,2025-01-29 15:18:48,1
-12312,996,-4176,-266,4542,957,2025-01-29 15:18:48,1
-12500,-1336,-2976,-413,7360,1226,2025-01-29 15:18:48,1
-13136,-2392,-396,-454,7651,828,2025-01-29 15:18:48,1
-13992,-3168,1604,493,5862,1128,2025-01-29 15:18:48,1
-14392,-3768,1740,2206,3211,1717,2025-01-29 15:18:48,1
-14452,-3508,332,2877,1457,2177,2025-01-29 15:18:48,1
-14432,-2164,168,3187,79,2620,2025-01-29 15:18:48,1
-14192,-588,224,3693,-1101,3163,2025-01-29 15:18:48,1
-13308,1068,-284,4359,-2347,3499,2025-01-29 15:18:48,1
-12284,1948,-1124,4565,-3025,3505,2025-01-29 15:18:48,1
-11452,1948,-1920,3905,-2337,3049,2025-01-29 15:18:48,1
-10828,1232,-1532,2815,-117,2292,2025-01-29 15:18:48,1
-10996,-220,-492,2187,2492,1312,2025-01-29 15:18:48,1
-12016,-732,912,2309,3163,1082,2025-01-29 15:18:48,1
-12792,-616,1796,2742,2668,1182,2025-01-29 15:18:48,1
-13188,-324,2156,3069,1802,1304,2025-01-29 15:18:48,1
-13360,228,1680,3325,459,1247,2025-01-29 15:18:48,1
-12708,440,840,3229,-570,810,2025-01-29 15:18:48,1
-12180,328,708,2890,-1119,25,2025-01-29 15:18:48,1
-11772,160,1272,2627,-1126,-653,2025-01-29 15:18:48,1
-11576,-560,1852,2585,-867,-1041,2025-01-29 15:18:48,1
-11376,-768,1872,2643,-537,-1315,2025-01-29 15:18:48,1
-11740,-380,1860,2678,-176,-1574,2025-01-29 15:18:48,1
-12592,300,1872,2869,284,-1627,2025-01-29 15:18:48,1
-13368,340,2016,3271,766,-1391,2025-01-29 15:18:48,1
-13984,-76,1932,3545,979,-1270,2025-01-29 15:18:48,1
-14464,-432,924,3701,746,-1229,2025-01-29 15:18:48,1
-14856,-676,-168,3878,11,-970,2025-01-29 15:18:48,1
-14744,256,-4,4103,-293,-485,2025-01-29 15:18:48,1
-14864,1192,616,4109,-69,186,2025-01-29 15:18:48,1
-15112,1148,1988,4092,394,1078,2025-01-29 15:18:48,1
-14648,-80,3980,4314,1055,1652,2025-01-29 15:18:48,1
-13932,-1692,4636,4945,1764,1927,2025-01-29 15:18:48,1
-15696,-1784,2800,5801,3344,2653,2025-01-29 15:18:48,1
-16916,-148,1984,7578,5927,2953,2025-01-29 15:18:48,1
-19072,2192,152,7748,7068,3458,2025-01-29 15:18:48,1
-19056,3640,-2828,5904,5538,3792,2025-01-29 15:18:48,1
-18728,4308,-6248,2130,1331,3025,2025-01-29 15:18:48,1
-18184,4412,-5984,-769,-2527,1419,2025-01-29 15:18:48,1
-16964,3540,-4800,-2047,-4910,800,2025-01-29 15:18:48,1
-13880,1244,-3496,-2766,-6085,407,2025-01-29 15:18:48,1
-11320,-524,-2964,-2645,-5864,137,2025-01-29 15:18:48,1
-9844,-2672,-2952,-2326,-5302,-3,2025-01-29 15:18:48,1
-9432,-4792,-3140,-2038,-2681,-99,2025-01-29 15:18:48,1
-10232,-5200,-2164,-1463,1934,-222,2025-01-29 15:18:48,1
-11388,-3400,-2072,-118,6759,-310,2025-01-29 15:18:48,1
-12836,-1168,-2444,1119,10292,-631,2025-01-29 15:18:49,1
-13740,1052,-2384,1296,10981,-1294,2025-01-29 15:18:49,1
-14564,1772,-1792,546,8397,-1942,2025-01-29 15:18:49,1
-15012,1032,-1856,-1255,2621,-2813,2025-01-29 15:18:49,1
-14976,-356,-1508,-2512,-2466,-3324,2025-01-29 15:18:49,1
-14976,-1504,-972,-2732,-5185,-3315,2025-01-29 15:18:49,1
-13460,-2252,-1404,-2403,-5861,-3022,2025-01-29 15:18:49,1
-12668,-2396,-740,-2001,-5321,-2423,2025-01-29 15:18:49,1
-10984,-2088,-968,-1737,-4107,-2363,2025-01-29 15:18:49,1
-10052,-1776,-1584,-1852,-2104,-2565,2025-01-29 15:18:49,1
-10652,-1496,-1208,-2225,501,-2726,2025-01-29 15:18:49,1
-11136,-1356,-860,-2261,2182,-2535,2025-01-29 15:18:49,1
-12116,-1440,-128,-2138,2913,-2212,2025-01-29 15:18:49,1
-12484,-1724,640,-1938,2881,-2020,2025-01-29 15:18:49,1
-13408,-2312,820,-1716,1864,-1942,2025-01-29 15:18:49,1
-14132,-2128,412,-1497,202,-1343,2025-01-29 15:18:49,1
-14756,-1352,664,-1076,-1010,-164,2025-01-29 15:18:49,1
-13780,-576,272,-917,-1537,799,2025-01-29 15:18:49,1
-12760,-128,-172,-1212,-1741,1350,2025-01-29 15:18:49,1
-11768,184,92,-1614,-1668,1493,2025-01-29 15:18:49,1
-11528,496,300,-2079,-1145,1373,2025-01-29 15:18:49,1
-11680,336,-80,-2668,14,1115,2025-01-29 15:18:49,1
-12320,-412,-340,-3588,1785,412,2025-01-29 15:18:49,1
-13340,-796,548,-4249,2243,-240,2025-01-29 15:18:49,1
-14524,-896,1452,-4635,1910,-606,2025-01-29 15:18:49,1
-15576,-1148,2260,-4941,649,-535,2025-01-29 15:18:49,1
-15548,-1368,1960,-5045,-1488,-133,2025-01-29 15:18:49,1
-14372,-1556,1408,-5065,-3229,148,2025-01-29 15:18:49,1
-13228,-1004,524,-5245,-3924,56,2025-01-29 15:18:49,1
-12104,-1044,88,-5580,-3600,-369,2025-01-29 15:18:49,1
-11512,-2292,496,-5286,-919,-922,2025-01-29 15:18:49,1
-12164,-2980,1484,-4564,1394,-1014,2025-01-29 15:18:49,1
-13448,-2972,2312,-4509,3290,-1064,2025-01-29 15:18:49,1
-14492,-3104,2236,-4819,4848,-1739,2025-01-29 15:18:49,1
-15244,-3896,-480,-5279,6044,-3523,2025-01-29 15:18:49,1
-17020,-4460,-1476,-5154,5308,-5386,2025-01-29 15:18:49,1
-18480,-5144,744,-3388,2504,-6004,2025-01-29 15:18:49,1
-19744,-5620,2204,-775,-1692,-5348,2025-01-29 15:18:49,1
-20296,-5440,2308,1142,-4911,-3537,2025-01-29 15:18:49,1
-19704,-3236,380,2023,-7215,-1001,2025-01-29 15:18:49,1
-17824,-72,-904,2049,-9941,931,2025-01-29 15:18:49,1
-15916,1844,-3464,1644,-9534,3146,2025-01-29 15:18:49,1
-7520,1632,-7368,215,-2941,3509,2025-01-29 15:18:49,1
-7208,-108,-8068,-3165,5326,47,2025-01-29 15:18:49,1
-11300,-1824,-5488,-5684,9207,-1673,2025-01-29 15:18:49,1
-13860,-1160,-2036,-5556,8608,-1815,2025-01-29 15:18:49,4
-15052,128,-744,-3940,5512,-1353,2025-01-29 15:18:49,4
-15832,1556,-1392,-2252,803,-216,2025-01-29 15:18:49,4
-15396,1948,-4576,-1491,-2048,824,2025-01-29 15:18:49,4
-14076,2216,-4944,-2047,-3029,1166,2025-01-29 15:18:49,4
-12760,988,-4168,-2996,-2676,979,2025-01-29 15:18:49,4
-12576,-628,-3472,-3316,-366,998,2025-01-29 15:18:49,4
-13452,-1420,-3184,-3172,1460,1240,2025-01-29 15:18:49,4
-13468,-1664,-2832,-2864,2784,1523,2025-01-29 15:18:49,4
-13676,-976,-1992,-2544,3160,1762,2025-01-29 15:18:49,4
-13860,-64,-1808,-2128,2896,2004,2025-01-29 15:18:49,4
-14276,844,-2120,-1729,2399,2179,2025-01-29 15:18:49,4
-14004,984,-2696,-1537,1698,2322,2025-01-29 15:18:49,4
-12820,940,-2188,-1424,841,2075,2025-01-29 15:18:49,4
-12120,880,-1964,-1576,123,1629,2025-01-29 15:18:49,4
-12064,732,-3296,-1561,1187,958,2025-01-29 15:18:49,4
-12792,52,-3352,-1176,2931,875,2025-01-29 15:18:50,4
-12404,-976,1700,-591,3523,1180,2025-01-29 15:18:50,4
-13108,-896,3020,654,2015,1124,2025-01-29 15:18:50,4
-12744,-648,-400,1360,91,1025,2025-01-29 15:18:50,4
-11776,-396,-2452,1370,-347,547,2025-01-29 15:18:50,4
-11312,-368,-1664,1573,741,-288,2025-01-29 15:18:50,4
-11760,-184,-1088,1733,-28,-665,2025-01-29 15:18:50,4
-11044,-148,-1804,2029,-1167,-1441,2025-01-29 15:18:50,4
-10184,-644,-2480,2320,-1680,-2217,2025-01-29 15:18:50,4
-8848,-272,-2404,2788,-1654,-2521,2025-01-29 15:18:50,4
-8384,184,-3884,2624,-1820,-2470,2025-01-29 15:18:50,4
-7996,328,-3844,2092,-1880,-1987,2025-01-29 15:18:50,4
-8288,388,-2644,1524,-1831,-618,2025-01-29 15:18:50,4
-6736,128,-1148,1085,-960,760,2025-01-29 15:18:50,4
-5712,116,2080,903,-1718,1924,2025-01-29 15:18:50,4
-5444,536,3792,1479,-3209,2535,2025-01-29 15:18:50,4
-5272,-224,4456,2106,-3601,2504,2025-01-29 15:18:50,4
-4940,-1348,5568,2427,-3593,1612,2025-01-29 15:18:50,4
-4608,-2172,7012,2941,-3543,-181,2025-01-29 15:18:50,4
-5988,-2120,4736,3472,-3788,-1495,2025-01-29 15:18:50,4
-9724,-500,2180,3243,-3525,-1891,2025-01-29 15:18:50,4
-14940,2104,-100,3167,-1859,-1025,2025-01-29 15:18:50,4
-20020,3392,856,2884,142,171,2025-01-29 15:18:50,4
-21736,996,1256,1470,-1243,1221,2025-01-29 15:18:50,4
-21976,680,2196,-498,-4236,1713,2025-01-29 15:18:50,4
-22820,500,4564,233,-5463,1743,2025-01-29 15:18:50,4
-24316,-1940,292,1368,-3175,919,2025-01-29 15:18:50,4
-27440,-2920,-4416,1038,-162,8,2025-01-29 15:18:50,4
-32768,-784,-6448,-98,277,987,2025-01-29 15:18:50,4
-32768,2044,-3568,-1174,-3704,3609,2025-01-29 15:18:50,4
-32768,3268,2860,-289,-9611,5331,2025-01-29 15:18:50,4
-32768,-308,10540,2196,-8412,4092,2025-01-29 15:18:50,4
-32768,-1896,6188,3499,-3397,2756,2025-01-29 15:18:50,4
-32768,196,5484,3367,670,-720,2025-01-29 15:18:50,4
-32768,852,6460,2695,2628,-4206,2025-01-29 15:18:50,4
-32768,1460,8772,2093,3123,-5449,2025-01-29 15:18:50,4
-32768,348,6920,2797,2683,-4151,2025-01-29 15:18:50,4
-31752,-1780,-4108,1763,2259,-3200,2025-01-29 15:18:50,4
-21640,-1324,-12556,-2032,-688,-3498,2025-01-29 15:18:50,4
-13816,2340,-8944,-4412,-1586,-4434,2025-01-29 15:18:50,4
-7068,3944,976,-2694,-2735,-2001,2025-01-29 15:18:50,4
2148,596,3344,795,-3478,332,2025-01-29 15:18:50,4
14400,-4420,-3588,94,-7709,2746,2025-01-29 15:18:50,4
19032,-5572,-8792,-2657,-9598,1416,2025-01-29 15:18:50,4
18128,-3964,-12160,-3503,-6152,-2851,2025-01-29 15:18:50,4
7796,-972,-10252,-2455,1199,-5736,2025-01-29 15:18:50,4
-356,2192,-6756,-1196,8696,-5501,2025-01-29 15:18:50,4
-5872,2104,1704,1212,13079,-2977,2025-01-29 15:18:50,4
-5476,-820,8200,5286,14056,322,2025-01-29 15:18:50,4
-2288,-3056,12444,6563,8466,1733,2025-01-29 15:18:50,4
-108,-3292,9844,5969,2410,1806,2025-01-29 15:18:50,4
556,-2112,6764,4715,-1290,991,2025-01-29 15:18:50,4
2596,-52,2044,3242,-1931,57,2025-01-29 15:18:50,4
3516,996,708,2456,-1468,-545,2025-01-29 15:18:50,4
4132,864,-644,1924,-532,-835,2025-01-29 15:18:50,4
4476,560,-544,1386,292,-1084,2025-01-29 15:18:50,4
4136,-88,532,1330,910,-1281,2025-01-29 15:18:50,4
2900,-928,1588,1575,1544,-1130,2025-01-29 15:18:50,4
1880,-1612,1772,1926,2182,-708,2025-01-29 15:18:50,4
568,-1596,3636,2233,2803,-284,2025-01-29 15:18:51,4
1688,-1272,2896,2502,2575,-273,2025-01-29 15:18:51,4
2148,-556,2896,2920,1785,-117,2025-01-29 15:18:51,4
-412,-436,2940,3460,-7,149,2025-01-29 15:18:51,4
808,660,1824,3796,-524,4,2025-01-29 15:18:51,4
16,1108,824,4351,-2091,567,2025-01-29 15:18:51,4
208,656,540,3680,-3951,1168,2025-01-29 15:18:51,4
-2640,444,3788,4287,-5442,1697,2025-01-29 15:18:51,4
-13400,-2604,-17512,3316,-9382,5022,2025-01-29 15:18:51,4
-20788,-6752,-32768,-7669,-4761,5828,2025-01-29 15:18:51,4
-26472,-2132,-31528,-13584,8300,-3516,2025-01-29 15:18:51,4
-32768,13932,9552,-5405,32767,-11073,2025-01-29 15:18:51,4
-32768,6152,32767,-1697,22676,-2660,2025-01-29 15:18:51,4
-32768,-12336,-1968,3544,-3659,5692,2025-01-29 15:18:51,4
-32768,-5860,-10212,-2631,-6137,1077,2025-01-29 15:18:51,4
-32768,2520,-1808,-2980,-4813,-548,2025-01-29 15:18:51,4
-31956,2620,7124,-757,-6182,168,2025-01-29 15:18:51,4
-25868,172,9152,2152,-8989,1427,2025-01-29 15:18:51,4
-23504,-1124,84,2371,-9526,1815,2025-01-29 15:18:51,4
-21820,-1772,-6652,-496,-4949,982,2025-01-29 15:18:51,4
-20660,-660,-5932,-3177,2938,-863,2025-01-29 15:18:51,4
-22292,400,-1112,-3413,6754,-1207,2025-01-29 15:18:51,4
-22748,996,3284,-3254,7099,-999,2025-01-29 15:18:51,4
-21648,564,5520,-2225,4047,418,2025-01-29 15:18:51,4
-17828,-380,4236,-1492,589,1135,2025-01-29 15:18:51,4
-13624,-932,2528,-1775,-1329,918,2025-01-29 15:18:51,4
-9124,-1048,2096,-2262,-2997,405,2025-01-29 15:18:51,4
-4936,-1224,2232,-2259,-4346,-272,2025-01-29 15:18:51,4
-1864,-1112,1544,-2267,-5736,-1274,2025-01-29 15:18:51,4
-1160,-308,1492,-2470,-7084,-1507,2025-01-29 15:18:51,4
-2144,1008,28,-1838,-6276,-1115,2025-01-29 15:18:51,4
-1036,1612,-424,-1228,-6711,36,2025-01-29 15:18:51,4
-2944,1720,100,-232,-8739,510,2025-01-29 15:18:51,4
-5256,608,-2244,-1951,-5601,-1445,2025-01-29 15:18:51,4
-9044,-384,276,-2919,-638,-1233,2025-01-29 15:18:51,4
-9500,-372,2528,-1024,1676,146,2025-01-29 15:18:51,4
-11572,-808,1156,-693,3250,755,2025-01-29 15:18:51,4
-14636,-1140,80,-1537,5756,1316,2025-01-29 15:18:51,4
-16696,-1496,-264,-1493,8161,2025,2025-01-29 15:18:51,4
-16308,-2432,-1356,-1914,9774,1864,2025-01-29 15:18:51,4
-15720,-3340,572,-2657,9366,107,2025-01-29 15:18:51,4
-15904,-3056,3472,-3299,5931,-1849,2025-01-29 15:18:51,4
-17308,-1504,5988,-3069,484,-2128,2025-01-29 15:18:51,4
-17212,-400,5624,-2118,-4101,-1471,2025-01-29 15:18:51,4
-15112,-216,1920,-1319,-6006,-863,2025-01-29 15:18:51,4
-13064,-152,-640,-854,-4796,-395,2025-01-29 15:18:51,4
-12080,-788,-1448,-472,-1819,-180,2025-01-29 15:18:51,4
-11328,-1488,-1104,-419,1906,-400,2025-01-29 15:18:51,4
-11492,-1684,800,-443,4470,-778,2025-01-29 15:18:51,4
-12636,-1216,2908,-130,5541,-895,2025-01-29 15:18:51,4
-13660,-1108,3920,280,4919,-597,2025-01-29 15:18:51,4
-14104,-1064,4052,812,3052,-337,2025-01-29 15:18:51,4
-14668,-996,3264,1104,1336,-476,2025-01-29 15:18:51,4
-15428,-764,2260,1250,-37,-566,2025-01-29 15:18:51,4
-15028,-808,948,1257,-743,-617,2025-01-29 15:18:52,4
-13628,-1072,1512,640,1145,-310,2025-01-29 15:18:52,4
-13628,-1140,1652,892,1195,-425,2025-01-29 15:18:52,4
-13316,-1184,964,1247,1668,-704,2025-01-29 15:18:52,0
-13712,-632,1056,1504,1987,-874,2025-01-29 15:18:52,0
-14076,-216,868,1576,2086,-812,2025-01-29 15:18:52,0
-14096,-148,1024,1406,1840,-686,2025-01-29 15:18:52,0
-13872,-188,808,1182,1431,-605,2025-01-29 15:18:52,0
-14040,-496,456,813,967,-479,2025-01-29 15:18:52,0
-14336,-596,952,494,342,-435,2025-01-29 15:18:52,0
-13548,-676,344,204,762,-504,2025-01-29 15:18:52,0
-13712,-848,404,93,756,-526,2025-01-29 15:18:52,0
-13732,-880,424,5,744,-497,2025-01-29 15:18:52,0
-13752,-892,520,-34,1029,-383,2025-01-29 15:18:52,0
-13788,-812,516,28,1224,-309,2025-01-29 15:18:52,0
-13600,-884,584,70,1452,-376,2025-01-29 15:18:52,0
-13900,-720,508,159,1187,-375,2025-01-29 15:18:52,0
-13852,-640,612,72,1036,-265,2025-01-29 15:18:52,0
-13968,-836,648,104,656,-117,2025-01-29 15:18:52,0
-13712,-944,456,268,641,-47,2025-01-29 15:18:52,0
-13756,-796,256,215,756,-27,2025-01-29 15:18:52,0
-13796,-740,368,22,870,13,2025-01-29 15:18:52,0
-13984,-772,452,12,664,-55,2025-01-29 15:18:52,0
-14288,-780,584,-119,43,-196,2025-01-29 15:18:52,0
-13972,-776,364,-100,-426,-258,2025-01-29 15:18:52,0
-13732,-880,56,-241,-435,-263,2025-01-29 15:18:52,0
-13756,-1052,140,-390,-263,-319,2025-01-29 15:18:52,0
-13740,-912,68,-434,14,-322,2025-01-29 15:18:52,0
-13904,-772,116,-435,225,-211,2025-01-29 15:18:52,0
-13876,-788,220,-463,175,-158,2025-01-29 15:18:52,0
-13676,-804,28,-471,250,-151,2025-01-29 15:18:52,0
-13608,-1020,116,-445,432,-266,2025-01-29 15:18:52,0
-13760,-888,204,-359,528,-207,2025-01-29 15:18:52,0
-13708,-808,-44,-387,485,-179,2025-01-29 15:18:52,0
-13676,-944,216,-416,487,-193,2025-01-29 15:18:52,0
-13620,-944,160,-387,619,-171,2025-01-29 15:18:52,0
-13584,-836,224,-432,850,-256,2025-01-29 15:18:52,0
-13776,-800,-24,-448,902,-194,2025-01-29 15:18:52,0
-13792,-760,88,-341,670,-47,2025-01-29 15:18:52,0
-13796,-756,144,-202,472,-78,2025-01-29 15:18:52,0
-13800,-712,184,-260,393,-314,2025-01-29 15:18:52,0
-13672,-664,-8,-359,138,-348,2025-01-29 15:18:52,0
-13496,-840,116,-283,360,-400,2025-01-29 15:18:52,0
-13592,-768,-132,-259,668,-331,2025-01-29 15:18:52,0
-13836,-772,156,-208,886,-291,2025-01-29 15:18:52,0
-14216,-592,472,2,631,-140,2025-01-29 15:18:52,0
-13988,-852,520,193,403,-137,2025-01-29 15:18:52,0
-13872,-812,404,262,155,-192,2025-01-29 15:18:52,0
-13852,-936,516,604,267,26,2025-01-29 15:18:52,0
-13632,-880,-236,705,33,24,2025-01-29 15:18:52,0
-13640,-792,-224,497,-8,-185,2025-01-29 15:18:52,0
-13764,-668,-280,496,14,-118,2025-01-29 15:18:52,0
-13708,-600,-252,455,-7,-152,2025-01-29 15:18:52,0
-13712,-588,-12,284,48,-221,2025-01-29 15:18:52,0
-13708,-536,304,246,-35,-284,2025-01-29 15:18:52,0
-13912,-520,184,242,-200,-340,2025-01-29 15:18:52,0
-13772,-464,8,275,-334,-383,2025-01-29 15:18:52,0
-13924,-352,-188,182,-477,-364,2025-01-29 15:18:52,0
-13732,-424,-84,38,-517,-406,2025-01-29 15:18:52,0
-13616,-528,508,-85,-442,-411,2025-01-29 15:18:52,0
-13800,-320,524,-123,-373,-489,2025-01-29 15:18:53,0
-13940,-400,356,-178,-293,-556,2025-01-29 15:18:53,0
-14020,-496,392,-158,-225,-819,2025-01-29 15:18:53,0
-14192,-408,320,-212,-304,-933,2025-01-29 15:18:53,0
-14076,-620,416,-339,-522,-1038,2025-01-29 15:18:53,0
-14132,-700,520,-319,-701,-1219,2025-01-29 15:18:53,0
-13832,-1000,216,-301,-784,-1331,2025-01-29 15:18:53,0
-13472,-1024,184,-232,-681,-1480,2025-01-29 15:18:53,0
-13064,-992,216,-181,-354,-1698,2025-01-29 15:18:53,0
-12744,-1284,604,12,237,-1854,2025-01-29 15:18:53,1
-12732,-1672,592,188,466,-1889,2025-01-29 15:18:53,1
-12912,-2028,532,404,955,-1661,2025-01-29 15:18:53,1
-13324,-2204,932,839,1966,-1368,2025-01-29 15:18:53,1
-13596,-2044,1072,1009,2693,-1178,2025-01-29 15:18:53,1
-13796,-1784,1492,837,2809,-1089,2025-01-29 15:18:53,1
-14164,-1324,1624,491,2620,-1247,2025-01-29 15:18:53,1
-14580,-512,1420,36,1976,-1472,2025-01-29 15:18:53,1
-14536,-128,1484,-901,456,-1598,2025-01-29 15:18:53,1
-14376,56,1528,-1654,-517,-1743,2025-01-29 15:18:53,1
-14184,-160,1236,-2495,-682,-1862,2025-01-29 15:18:53,1
-13600,-780,596,-3218,-690,-2094,2025-01-29 15:18:53,1
-13272,-1600,328,-3665,-531,-2261,2025-01-29 15:18:53,1
-13192,-2292,588,-3848,-239,-2290,2025-01-29 15:18:53,1
-13356,-2624,1136,-3878,-117,-2072,2025-01-29 15:18:53,1
-13432,-2472,1604,-3837,-94,-1785,2025-01-29 15:18:53,1
-13564,-2444,1472,-3764,-166,-1628,2025-01-29 15:18:53,1
-13428,-2308,1552,-3765,-455,-1642,2025-01-29 15:18:53,1
-13564,-2236,1368,-3792,-983,-1602,2025-01-29 15:18:53,1
-13528,-1956,1252,-3957,-1445,-1489,2025-01-29 15:18:53,1
-13488,-1788,1332,-4156,-1482,-1378,2025-01-29 15:18:53,1
-13520,-1716,1480,-4251,-1385,-1309,2025-01-29 15:18:53,1
-13568,-1884,1776,-4162,-1234,-1091,2025-01-29 15:18:53,1
-13180,-1860,1924,-4102,-984,-937,2025-01-29 15:18:53,1
-13148,-1964,1976,-4054,-700,-739,2025-01-29 15:18:53,1
-12860,-2232,2216,-3815,-110,-541,2025-01-29 15:18:53,1
-12712,-2452,1980,-3676,552,-531,2025-01-29 15:18:53,1
-12936,-2420,2156,-3930,1110,-699,2025-01-29 15:18:53,1
-13384,-2236,2416,-4171,1201,-780,2025-01-29 15:18:53,1
-13796,-2148,2548,-4398,743,-860,2025-01-29 15:18:53,1
-14268,-1896,2692,-4738,105,-891,2025-01-29 15:18:53,1
-14336,-1388,2812,-4921,-415,-737,2025-01-29 15:18:53,1
-13948,-1428,1744,-5043,-1224,-457,2025-01-29 15:18:53,1
-13440,-1804,1620,-5361,-1240,-216,2025-01-29 15:18:53,1
-13064,-2360,2040,-5835,-478,-215,2025-01-29 15:18:53,1
-13292,-2808,2380,-6094,358,-150,2025-01-29 15:18:53,1
-13660,-3244,2640,-6072,582,-39,2025-01-29 15:18:53,1
-13872,-3260,2636,-5950,537,35,2025-01-29 15:18:53,1
-13928,-2952,2820,-5758,407,88,2025-01-29 15:18:53,1
-14232,-2780,2972,-5805,232,283,2025-01-29 15:18:53,1
-14428,-2576,4188,-6148,87,538,2025-01-29 15:18:53,1
-14888,-3748,3024,-5670,1003,352,2025-01-29 15:18:53,1
-15856,-4664,-420,-5875,2749,-729,2025-01-29 15:18:53,1
-16188,-5424,2728,-4910,3435,-2857,2025-01-29 15:18:53,1
-17540,-6764,4108,-2216,1656,-3444,2025-01-29 15:18:53,1
-18888,-7532,2380,70,-869,-2130,2025-01-29 15:18:53,1
-19620,-6540,204,1053,-2651,-385,2025-01-29 15:18:53,1
-18280,-4124,-420,1824,-3895,136,2025-01-29 15:18:53,1
-18152,-2800,-796,2235,-5814,345,2025-01-29 15:18:53,1
-17064,-2264,220,2214,-7785,2158,2025-01-29 15:18:53,1
-14476,-2488,744,2214,-8877,4355,2025-01-29 15:18:53,1
-11376,-2860,-356,2254,-7955,4897,2025-01-29 15:18:54,1
-9604,-2840,-3988,1932,-5838,4387,2025-01-29 15:18:54,1
-8836,-1384,-6600,602,-1751,3147,2025-01-29 15:18:54,1
-9164,804,-5352,-805,2647,1500,2025-01-29 15:18:54,1
-10804,1656,-3480,-1494,5379,370,2025-01-29 15:18:54,1
-13696,560,-1384,-1075,5803,579,2025-01-29 15:18:54,1
-15236,-1104,24,-557,4823,1555,2025-01-29 15:18:54,1
-14928,-2524,336,-150,3317,2141,2025-01-29 15:18:54,1
-15028,-3244,1680,772,1841,2386,2025-01-29 15:18:54,1
-15316,-3212,1204,1943,1145,2712,2025-01-29 15:18:54,1
-15556,-2580,1244,2905,782,3554,2025-01-29 15:18:54,1
-14572,-1896,1108,3836,148,4260,2025-01-29 15:18:54,1
-13544,-1132,1032,4386,-1231,4205,2025-01-29 15:18:54,1
-12180,-276,320,4869,-2150,3709,2025-01-29 15:18:54,1
-11740,276,144,5073,-1570,3201,2025-01-29 15:18:54,1
-11468,720,184,5116,228,2912,2025-01-29 15:18:54,1
-11408,700,84,5255,1516,2712,2025-01-29 15:18:54,1
-11652,640,380,5470,2189,2400,2025-01-29 15:18:54,1
-11960,560,528,5533,2407,2107,2025-01-29 15:18:54,1
-12304,552,312,5458,2219,1897,2025-01-29 15:18:54,1
-12496,512,432,5366,1695,1765,2025-01-29 15:18:54,1
-12424,476,464,5130,1278,1435,2025-01-29 15:18:54,1
-12564,496,708,4816,793,865,2025-01-29 15:18:54,1
-12448,560,644,4510,75,108,2025-01-29 15:18:54,1
-13160,932,1072,4040,-713,-566,2025-01-29 15:18:54,1
-12656,1060,1116,3681,-1394,-974,2025-01-29 15:18:54,1
-12376,900,1220,3580,-1559,-1247,2025-01-29 15:18:54,1
-12048,520,1248,3631,-1355,-1548,2025-01-29 15:18:54,1
-11988,180,1076,3855,-1146,-1768,2025-01-29 15:18:54,1
-12260,392,1024,3889,-1002,-1794,2025-01-29 15:18:54,1
-12660,780,1828,3900,-655,-1619,2025-01-29 15:18:54,1
-13044,728,1964,3899,-274,-1511,2025-01-29 15:18:54,1
-13184,484,1676,4011,-11,-1404,2025-01-29 15:18:54,1
-13816,196,1504,4185,745,-1283,2025-01-29 15:18:54,1
-14424,308,652,4225,1631,-871,2025-01-29 15:18:54,1
-15404,708,1100,4235,2007,-387,2025-01-29 15:18:54,1
-15588,944,1676,4199,1757,-204,2025-01-29 15:18:54,1
-15160,240,2384,3942,1275,-206,2025-01-29 15:18:54,1
-14928,-972,4052,3901,1422,-10,2025-01-29 15:18:54,1
-15468,-1496,3916,4576,2447,570,2025-01-29 15:18:54,1
-16572,-712,1560,5239,4450,1892,2025-01-29 15:18:54,1
-17976,-384,992,5897,6195,2627,2025-01-29 15:18:54,1
-19788,284,-1880,5568,6435,3624,2025-01-29 15:18:54,1
-19712,1728,-3592,3959,4238,4280,2025-01-29 15:18:54,1
-19236,2992,-4496,2089,823,4523,2025-01-29 15:18:54,1
-18088,4048,-4868,447,-3056,4336,2025-01-29 15:18:54,7
-14820,3040,-3672,-598,-6043,2814,2025-01-29 15:18:54,7
-11600,-556,-2916,-1608,-7430,57,2025-01-29 15:18:54,7
-10448,-1476,-1404,-1886,-7202,-2291,2025-01-29 15:18:54,7
-11208,-2324,-2012,-414,-4753,-2762,2025-01-29 15:18:54,7
-11640,-4012,-3472,1017,-1024,-1973,2025-01-29 15:18:54,7
-12096,-3976,-3248,1332,2146,-1588,2025-01-29 15:18:54,7
-12132,-1856,-3172,1314,4202,-2124,2025-01-29 15:18:54,7
-13076,724,-2604,793,4058,-2436,2025-01-29 15:18:54,7
-13724,2124,-856,121,2292,-2130,2025-01-29 15:18:54,7
-13756,1656,-372,-511,6,-1728,2025-01-29 15:18:54,7
-13332,852,-956,-1025,-1311,-1373,2025-01-29 15:18:54,7
-13640,228,-1304,-1301,-1432,-1035,2025-01-29 15:18:54,7
-13060,-348,-1688,-1723,-962,-954,2025-01-29 15:18:54,7
-12736,-1168,-1236,-2251,-396,-1372,2025-01-29 15:18:54,7
-12628,-1848,-1512,-2831,-781,-1704,2025-01-29 15:18:54,7
-12676,-2160,-1412,-3227,-1344,-1570,2025-01-29 15:18:55,7
-12464,-1716,-1016,-3406,-1065,-1458,2025-01-29 15:18:55,7
-11636,-1492,-1388,-3551,-147,-1562,2025-01-29 15:18:55,7
-12184,-688,-536,-3968,746,-1854,2025-01-29 15:18:55,7
-12236,-276,-256,-4483,808,-2039,2025-01-29 15:18:55,7
-12616,8,-356,-4993,411,-2139,2025-01-29 15:18:55,7
-13184,-328,-536,-5552,-252,-2073,2025-01-29 15:18:55,7
-13388,-1052,-876,-6127,-773,-1715,2025-01-29 15:18:55,7
-13488,-1060,-968,-6540,-972,-1232,2025-01-29 15:18:55,7
-13044,-636,-1016,-6867,-940,-752,2025-01-29 15:18:55,7
-13188,-240,-988,-7305,-1239,-391,2025-01-29 15:18:55,7
-12800,-112,-800,-7874,-1719,-202,2025-01-29 15:18:55,7
-12848,40,-200,-8330,-1711,205,2025-01-29 15:18:55,7
-12940,8,-68,-8478,-1572,962,2025-01-29 15:18:55,7
-12068,-48,-316,-8836,-986,1254,2025-01-29 15:18:55,7
-11756,-564,-624,-9703,-223,910,2025-01-29 15:18:55,7
-12252,-860,-484,-10572,563,647,2025-01-29 15:18:55,7
-12972,-952,144,-11100,1003,601,2025-01-29 15:18:55,7
-14200,-416,700,-11659,944,893,2025-01-29 15:18:55,7
-14488,224,244,-12686,451,740,2025-01-29 15:18:55,7
-14884,536,-260,-13905,-703,253,2025-01-29 15:18:55,7
-14752,776,-444,-14470,-1844,263,2025-01-29 15:18:55,7
-13428,-232,-272,-14557,-1796,203,2025-01-29 15:18:55,7
-12548,-2112,-344,-15155,-400,-310,2025-01-29 15:18:55,7
-13044,-3492,236,-16001,1693,-1353,2025-01-29 15:18:55,7
-13928,-4068,1064,-16832,2702,-2800,2025-01-29 15:18:55,7
-15652,-3748,2072,-17928,2317,-4141,2025-01-29 15:18:55,7
-17048,-2784,3468,-18625,692,-4627,2025-01-29 15:18:55,7
-17868,-1840,3804,-18327,-1388,-4038,2025-01-29 15:18:55,7
-18112,-1024,1292,-17861,-3362,-1940,2025-01-29 15:18:55,7
-16512,-1332,-76,-17684,-3876,-34,2025-01-29 15:18:55,7
-14120,-2896,-1936,-16673,-3491,642,2025-01-29 15:18:55,7
-13532,-4012,-4224,-14919,-1081,169,2025-01-29 15:18:55,7
-12988,-4740,-6428,-13832,4059,-1499,2025-01-29 15:18:55,7
-14152,-3580,-4728,-14931,8883,-4006,2025-01-29 15:18:55,7
-16520,-624,264,-15649,8838,-4513,2025-01-29 15:18:55,7
-16728,1568,2928,-13977,4646,-2595,2025-01-29 15:18:55,7
-15500,2808,-424,-11876,-141,-319,2025-01-29 15:18:55,7
-13092,3052,-4728,-12012,-2372,567,2025-01-29 15:18:55,7
-10084,2296,-6676,-14766,-565,-877,2025-01-29 15:18:55,7
-10184,536,-4816,-17186,4013,-2717,2025-01-29 15:18:55,7
-12236,-204,-2784,-17415,6044,-2654,2025-01-29 15:18:55,7
-13368,444,-1716,-16580,5924,-1696,2025-01-29 15:18:55,7
-13224,1484,-2236,-15922,4731,-1303,2025-01-29 15:18:55,7
-13428,2136,-3488,-16197,3416,-1193,2025-01-29 15:18:55,7
-12884,2524,-4172,-16816,2427,-1194,2025-01-29 15:18:55,7
-12716,1840,-4096,-17469,2096,-1431,2025-01-29 15:18:55,7
-12088,820,-3768,-17945,1920,-2073,2025-01-29 15:18:55,7
-11908,-164,-2652,-18029,1843,-2859,2025-01-29 15:18:55,7
-12144,-840,-2172,-17761,1740,-3393,2025-01-29 15:18:55,7
-12744,-1164,-1752,-17326,1730,-3533,2025-01-29 15:18:55,7
-13336,-956,-1360,-16793,1796,-3437,2025-01-29 15:18:55,7
-13360,-272,-1428,-16203,1279,-3373,2025-01-29 15:18:55,7
-13544,720,-1744,-15810,214,-3457,2025-01-29 15:18:55,7
-13572,1560,-2428,-15602,-735,-3523,2025-01-29 15:18:55,7
-13316,1784,-2900,-15864,-1462,-3748,2025-01-29 15:18:55,7
-12876,1032,-2840,-16417,-1491,-3965,2025-01-29 15:18:55,7
-12920,344,-2292,-16629,-1552,-3828,2025-01-29 15:18:55,7
-12668,-464,-2124,-16405,-1715,-3542,2025-01-29 15:18:55,7
-12352,-528,-2256,-16378,-1510,-3543,2025-01-29 15:18:55,7
-12084,-412,-2692,-16634,-1087,-4012,2025-01-29 15:18:56,7
-12064,-420,-2640,-16827,-1104,-4721,2025-01-29 15:18:56,7
-11816,-184,-2592,-16621,-1288,-5436,2025-01-29 15:18:56,7
-11840,-80,-3700,-16701,-1366,-5787,2025-01-29 15:18:56,7
-11672,-968,-4052,-17033,-1394,-5832,2025-01-29 15:18:56,7
-11668,-1660,-3596,-17124,-383,-5824,2025-01-29 15:18:56,7
-12304,-1836,-2736,-16627,1498,-5959,2025-01-29 15:18:56,7
-12984,-1664,-2244,-16227,2721,-6126,2025-01-29 15:18:56,7
-14072,-2172,-2484,-15701,3586,-6803,2025-01-29 15:18:56,7
-15604,-2740,-3696,-15253,2816,-6829,2025-01-29 15:18:56,7
-15992,-3320,-3428,-14314,133,-6179,2025-01-29 15:18:56,7
-16300,-3860,-2596,-13165,-2729,-4969,2025-01-29 15:18:56,7
-16024,-3552,-2196,-12088,-3552,-3649,2025-01-29 15:18:56,7
-15264,-3140,-2524,-11454,-3061,-2700,2025-01-29 15:18:56,7
-13784,-3872,-2508,-10765,-2937,-1851,2025-01-29 15:18:56,7
-13640,-4396,-1680,-10134,-2885,-1171,2025-01-29 15:18:56,7
-13692,-5012,160,-9346,-1952,-244,2025-01-29 15:18:56,7
-13888,-3484,1324,-7985,491,1153,2025-01-29 15:18:56,7
-13064,144,-76,-7241,1696,1607,2025-01-29 15:18:56,7
-12392,3568,-1492,-6740,1049,1127,2025-01-29 15:18:56,7
-12396,4820,-3008,-6786,376,-19,2025-01-29 15:18:56,7
-12992,1984,-2596,-8687,995,-1272,2025-01-29 15:18:56,7
-13832,-524,132,-9663,2007,-2738,2025-01-29 15:18:56,7
-15856,-2404,420,-10147,2746,-3514,2025-01-29 15:18:56,7
-17036,-2888,-352,-10607,2626,-3635,2025-01-29 15:18:56,7
-16636,-2476,-156,-10714,996,-3972,2025-01-29 15:18:56,7
-15592,-2176,8,-10361,-2545,-4289,2025-01-29 15:18:56,7
-14120,-2364,-224,-10285,-5142,-4307,2025-01-29 15:18:56,7
-12540,-2540,-252,-10617,-6377,-4250,2025-01-29 15:18:56,7
-11404,-2664,312,-10824,-5400,-4134,2025-01-29 15:18:56,7
-11352,-2904,828,-10785,-2733,-4114,2025-01-29 15:18:56,7
-11684,-2960,952,-10629,-912,-3872,2025-01-29 15:18:56,7
-12436,-3024,468,-10356,-169,-3520,2025-01-29 15:18:56,7
-13676,-3140,164,-10451,-318,-3125,2025-01-29 15:18:56,7
-14164,-3480,0,-10353,-736,-2690,2025-01-29 15:18:56,7
-14564,-3036,648,-9833,-924,-2176,2025-01-29 15:18:56,7
-13904,-2488,488,-9410,-906,-1706,2025-01-29 15:18:56,7
-13484,-2352,580,-9212,-1186,-1525,2025-01-29 15:18:56,7
-13732,-2568,260,-8922,-2130,-1354,2025-01-29 15:18:56,7
-13800,-2868,100,-8922,-2937,-1211,2025-01-29 15:18:56,7
-13544,-3096,-104,-8759,-3015,-983,2025-01-29 15:18:56,7
-12992,-3308,-224,-8585,-2989,-775,2025-01-29 15:18:56,7
-12660,-3576,-228,-8427,-2723,-665,2025-01-29 15:18:56,7
-12804,-3084,-28,-8248,-1940,-416,2025-01-29 15:18:56,7
-12824,-2760,268,-8023,-955,26,2025-01-29 15:18:56,7
-13044,-2596,200,-7910,-33,422,2025-01-29 15:18:56,7
-13468,-2552,356,-8083,20,629,2025-01-29 15:18:56,7
-14008,-2520,680,-8112,-432,1000,2025-01-29 15:18:56,7
-14064,-2576,1048,-7871,-832,1461,2025-01-29 15:18:56,7
-13992,-2884,56,-7589,-901,1738,2025-01-29 15:18:56,7
-13512,-3324,-1408,-7566,-816,1674,2025-01-29 15:18:56,7
-13032,-2668,-2580,-7374,-1046,1165,2025-01-29 15:18:56,7
-13484,-216,-1912,-6844,-631,430,2025-01-29 15:18:56,7
-14180,816,516,-6829,1085,51,2025-01-29 15:18:56,7
-15272,300,1464,-6953,1848,159,2025-01-29 15:18:56,7
-15880,-884,1140,-7207,98,516,2025-01-29 15:18:56,7
-14700,-2180,920,-6875,-3583,535,2025-01-29 15:18:56,7
-14244,-2720,580,-5884,-5428,631,2025-01-29 15:18:56,7
-14376,-2532,-268,-4683,-3412,1118,2025-01-29 15:18:56,7
-14060,-2380,24,-3650,111,1815,2025-01-29 15:18:56,7
-13328,-1968,268,-2856,1775,1888,2025-01-29 15:18:56,7
-13276,-1108,-116,-2431,1366,1552,2025-01-29 15:18:56,7
-13492,168,-12,-2122,151,1362,2025-01-29 15:18:57,7
-13052,684,-236,-1689,54,1181,2025-01-29 15:18:57,7
-12388,784,-832,-1532,644,763,2025-01-29 15:18:57,7
-12236,600,-1344,-1834,1229,183,2025-01-29 15:18:57,7
-12692,848,-1316,-2134,1673,-433,2025-01-29 15:18:57,0
-12920,1020,-1644,-2719,1559,-1041,2025-01-29 15:18:57,0
-12928,884,-2292,-3672,216,-1672,2025-01-29 15:18:57,0
-13296,320,-2416,-4485,-1331,-2315,2025-01-29 15:18:57,0
-13444,-656,-1524,-4932,-1805,-2624,2025-01-29 15:18:57,0
-13896,-1616,-452,-4661,-1268,-2480,2025-01-29 15:18:57,0
-13852,-1864,148,-4100,-790,-1947,2025-01-29 15:18:57,0
-14060,-592,-392,-3352,-864,-1073,2025-01-29 15:18:57,0
-13660,-164,-644,-3046,-1251,-808,2025-01-29 15:18:57,0
-13852,-712,-912,-2739,-1618,-897,2025-01-29 15:18:57,0
-13504,-1988,-676,-2355,-1568,-974,2025-01-29 15:18:57,0
-13488,-2740,-192,-1258,-734,-1044,2025-01-29 15:18:57,0
-13448,-2740,112,-589,126,-990,2025-01-29 15:18:57,0
-12804,-2016,-92,3,1176,-1004,2025-01-29 15:18:57,0
-13100,-1216,-456,499,1815,-790,2025-01-29 15:18:57,0
-12888,-632,-1328,652,1839,-627,2025-01-29 15:18:57,0
-12972,-408,-1652,387,2112,-785,2025-01-29 15:18:57,0
-13632,-396,-800,107,2849,-958,2025-01-29 15:18:57,0
-14604,-416,60,248,2956,-864,2025-01-29 15:18:57,0
-14808,-436,20,472,1675,-667,2025-01-29 15:18:57,0
-14800,-800,-32,502,-278,-572,2025-01-29 15:18:57,0
-14224,-1220,-308,381,-1787,-600,2025-01-29 15:18:57,0
-13500,-1360,-540,372,-2087,-591,2025-01-29 15:18:57,0
-13116,-1444,-1176,422,-1482,-598,2025-01-29 15:18:57,0
-12796,-1148,-2072,340,-249,-631,2025-01-29 15:18:57,0
-12996,-820,-2080,59,1127,-636,2025-01-29 15:18:57,0
-13436,-608,-1844,-158,2150,-483,2025-01-29 15:18:57,0
-14112,-632,-1224,-320,2398,-323,2025-01-29 15:18:57,0
-14456,-920,-760,-418,1759,-86,2025-01-29 15:18:57,0
-14480,-1196,-100,-424,669,61,2025-01-29 15:18:57,0
-14392,-1468,236,-279,-142,35,2025-01-29 15:18:57,0
-13984,-1996,-688,-7,-995,-287,2025-01-29 15:18:57,0
-13692,-1736,-388,335,-981,-358,2025-01-29 15:18:57,0
-13216,-1124,-504,504,-672,-291,2025-01-29 15:18:57,0
-12900,-868,-464,402,-292,-245,2025-01-29 15:18:57,0
-13108,-712,-468,297,109,-98,2025-01-29 15:18:57,0
-13324,-884,-608,238,491,-4,2025-01-29 15:18:57,0
-13544,-1212,-620,217,781,-87,2025-01-29 15:18:57,0
-13964,-1320,-492,182,954,-210,2025-01-29 15:18:57,0
-14044,-1132,-560,148,555,-219,2025-01-29 15:18:57,0
-14160,-900,-864,73,37,-118,2025-01-29 15:18:57,0
-13764,-972,-1020,-72,-106,-82,2025-01-29 15:18:57,0
-13444,-1040,-1080,-176,20,-102,2025-01-29 15:18:57,0
-13392,-1328,-664,-132,175,-119,2025-01-29 15:18:57,0
-13432,-1552,-660,-39,337,-126,2025-01-29 15:18:57,0
-13436,-1612,-632,82,512,-142,2025-01-29 15:18:57,0
-13600,-1500,-716,-38,513,-203,2025-01-29 15:18:57,0
-13800,-1376,-748,-51,361,-259,2025-01-29 15:18:57,0
-13764,-1104,-804,-85,217,-227,2025-01-29 15:18:57,0
-13756,-996,-888,-65,212,-226,2025-01-29 15:18:57,0
-13624,-1124,-916,-155,267,-159,2025-01-29 15:18:57,0
-13664,-1188,-836,-216,318,-145,2025-01-29 15:18:57,0
-13500,-1260,-904,-223,339,-124,2025-01-29 15:18:57,0
-13520,-1092,-920,-230,491,-108,2025-01-29 15:18:57,0
-13632,-1128,-808,-251,596,-83,2025-01-29 15:18:57,0
-13696,-1236,-884,-270,404,30,2025-01-29 15:18:57,0
-13692,-956,-988,-269,161,153,2025-01-29 15:18:58,0
-13432,-760,-684,-260,219,184,2025-01-29 15:18:58,0
-13432,-840,-1060,-271,495,121,2025-01-29 15:18:58,0
-13528,-936,-1232,-273,296,103,2025-01-29 15:18:58,0
-13312,-1048,-920,-194,507,-26,2025-01-29 15:18:58,0
-13484,-904,-700,-73,986,-110,2025-01-29 15:18:58,0
-13820,-704,-296,-82,860,-108,2025-01-29 15:18:58,0
-13652,-520,-40,-80,763,20,2025-01-29 15:18:58,0
-13636,-556,-304,-5,978,165,2025-01-29 15:18:58,0
-13544,-548,-316,58,1107,211,2025-01-29 15:18:58,0
-13600,-484,-308,16,1176,178,2025-01-29 15:18:58,0
-13820,-668,-348,-73,1209,30,2025-01-29 15:18:58,0
-14176,-668,-60,-70,998,-146,2025-01-29 15:18:58,0
-14332,-576,-4,-28,403,-330,2025-01-29 15:18:58,0
-14496,-324,-236,-226,-603,-566,2025-01-29 15:18:58,0
-14396,-100,-428,-523,-1545,-602,2025-01-29 15:18:58,0
-13984,-332,-540,-678,-2042,-668,2025-01-29 15:18:58,0
-13748,-660,-672,-758,-1765,-821,2025-01-29 15:18:58,0
-13832,-1176,-896,-778,-1380,-1007,2025-01-29 15:18:58,0
-13892,-1636,-636,-700,-1735,-1188,2025-01-29 15:18:58,1
-14236,-1436,-496,-570,-2913,-1110,2025-01-29 15:18:58,1
-13816,-1516,-676,-391,-3725,-1162,2025-01-29 15:18:58,1
-13412,-1680,-912,-203,-3368,-1468,2025-01-29 15:18:58,1
-13156,-2060,-1212,-23,-2159,-1921,2025-01-29 15:18:58,1
-13396,-2584,-388,255,-688,-2393,2025-01-29 15:18:58,1
-13616,-2708,780,631,296,-2515,2025-01-29 15:18:58,1
-13984,-2400,1612,987,681,-2050,2025-01-29 15:18:58,1
-13972,-1576,1692,813,37,-1446,2025-01-29 15:18:58,1
-13484,-824,872,283,-1154,-1160,2025-01-29 15:18:58,1
-12732,-568,280,-471,-1630,-1256,2025-01-29 15:18:58,1
-12180,-920,692,-1336,-85,-1860,2025-01-29 15:18:58,1
-12208,-1296,488,-2089,2099,-2561,2025-01-29 15:18:58,1
-13328,-2024,768,-2536,3282,-2810,2025-01-29 15:18:58,1
-13992,-2752,988,-2392,3219,-3012,2025-01-29 15:18:58,1
-14688,-2880,1536,-2162,1997,-2849,2025-01-29 15:18:58,1
-14644,-2824,2108,-1639,-306,-2183,2025-01-29 15:18:58,1
-14036,-2736,1860,-1352,-1699,-1807,2025-01-29 15:18:58,1
-13308,-2784,1632,-1253,-2436,-1696,2025-01-29 15:18:58,1
-13004,-2804,1608,-1264,-2455,-1652,2025-01-29 15:18:58,1
-12544,-2632,1816,-1357,-1935,-1598,2025-01-29 15:18:58,1
-12684,-2224,1768,-1473,-1209,-1430,2025-01-29 15:18:58,1
-13016,-1964,2008,-1650,-689,-1227,2025-01-29 15:18:58,1
-13236,-1984,2060,-1909,-686,-1047,2025-01-29 15:18:58,1
-13408,-2176,2208,-2004,-788,-808,2025-01-29 15:18:58,1
-13468,-2548,2592,-1877,-787,-363,2025-01-29 15:18:58,1
-12880,-2716,2184,-1729,-230,48,2025-01-29 15:18:58,1
-12540,-2528,2008,-1881,502,54,2025-01-29 15:18:58,1
-12756,-2008,1984,-2423,869,-130,2025-01-29 15:18:58,1
-13284,-1764,2236,-2847,950,-242,2025-01-29 15:18:58,1
-13732,-1736,1732,-3102,941,-402,2025-01-29 15:18:58,1
-14016,-1788,1232,-3691,900,-675,2025-01-29 15:18:58,1
-14116,-2260,1208,-4453,795,-761,2025-01-29 15:18:58,1
-14028,-2660,2116,-4996,526,-660,2025-01-29 15:18:58,1
-14264,-2880,2780,-5135,-21,-424,2025-01-29 15:18:58,1
-14440,-2888,2840,-5191,-684,-201,2025-01-29 15:18:58,1
-14260,-3292,3196,-5368,-875,-115,2025-01-29 15:18:58,1
-14064,-3800,3076,-5645,-743,-236,2025-01-29 15:18:58,1
-13640,-4316,3552,-5693,-790,-363,2025-01-29 15:18:58,1
-13488,-4516,4052,-5436,-819,-334,2025-01-29 15:18:58,1
-13540,-4920,4012,-5072,-156,-281,2025-01-29 15:18:58,1
-14556,-5348,1192,-5533,1418,-1482,2025-01-29 15:18:59,1
-15916,-5808,1660,-5784,2870,-3275,2025-01-29 15:18:59,1
-16968,-6516,3528,-4004,2937,-4377,2025-01-29 15:18:59,1
-18216,-7124,3648,-1148,647,-4355,2025-01-29 15:18:59,1
-20504,-6872,836,973,-2464,-2034,2025-01-29 15:18:59,1
-20336,-5128,-2192,1542,-3694,740,2025-01-29 15:18:59,1
-17416,-3292,-2092,2262,-4095,1555,2025-01-29 15:18:59,1
-16136,-3632,-2416,2516,-4128,3202,2025-01-29 15:18:59,1
-12932,-4044,-1976,2895,-4408,4577,2025-01-29 15:18:59,1
-10808,-3684,-2612,3491,-4537,4812,2025-01-29 15:18:59,1
-9516,-2656,-3932,3254,-3971,4296,2025-01-29 15:18:59,1
-8368,-492,-4104,2117,-982,2617,2025-01-29 15:18:59,1
-9504,1264,-2656,1510,2910,850,2025-01-29 15:18:59,1
-13024,1524,-1440,2009,5983,816,2025-01-29 15:18:59,1
-14988,392,-1228,2566,7242,2163,2025-01-29 15:18:59,1
-15456,-1092,-632,2553,6576,2996,2025-01-29 15:18:59,1
-15436,-2600,448,2870,4351,3395,2025-01-29 15:18:59,1
-14648,-3448,732,3488,1879,3465,2025-01-29 15:18:59,1
-13892,-2984,504,3873,475,3204,2025-01-29 15:18:59,1
-13584,-2036,176,4117,-498,2970,2025-01-29 15:18:59,1
-12980,-636,72,4491,-1164,2901,2025-01-29 15:18:59,1
-12776,340,-416,4846,-1509,2734,2025-01-29 15:18:59,1
-12208,928,-1012,4834,-1465,2505,2025-01-29 15:18:59,1
-12148,1164,-940,4408,-691,2522,2025-01-29 15:18:59,1
-12268,552,-1176,3997,854,2671,2025-01-29 15:18:59,1
-12952,-92,-632,3696,1989,3064,2025-01-29 15:18:59,1
-13124,-348,380,3458,1880,3428,2025-01-29 15:18:59,1
-13652,-340,1184,3467,739,3644,2025-01-29 15:18:59,1
-13648,-244,1388,3631,-714,3529,2025-01-29 15:18:59,1
-13420,96,820,3689,-2194,3122,2025-01-29 15:18:59,1
-12868,168,68,3426,-3326,2511,2025-01-29 15:18:59,1
-12140,256,-12,2982,-3669,1746,2025-01-29 15:18:59,1
-11452,240,552,2437,-3020,1013,2025-01-29 15:18:59,1
-11076,476,1492,2057,-2151,476,2025-01-29 15:18:59,1
-11032,420,1736,1534,-1612,-171,2025-01-29 15:18:59,1
-11200,420,1580,1216,-1619,-806,2025-01-29 15:18:59,1
-11968,836,1256,1082,-1700,-1041,2025-01-29 15:18:59,1
-12320,1260,1396,1009,-1200,-1122,2025-01-29 15:18:59,1
-12444,1320,1592,984,-567,-1172,2025-01-29 15:18:59,1
-12356,1372,1744,963,169,-1255,2025-01-29 15:18:59,1
-13148,1648,1528,997,1069,-1136,2025-01-29 15:18:59,1
-13836,1424,1664,1104,2134,-811,2025-01-29 15:18:59,1
-14584,704,1972,1353,3288,-461,2025-01-29 15:18:59,1
-15312,-776,2504,1850,4292,-256,2025-01-29 15:18:59,1
-15436,-2320,3084,2597,4035,-607,2025-01-29 15:18:59,1
-16108,-1068,3404,3396,2855,-593,2025-01-29 15:18:59,1
-16108,868,3252,3907,1400,-85,2025-01-29 15:18:59,1
-16424,2636,1984,3869,1264,549,2025-01-29 15:18:59,1
-17204,2784,264,3099,2486,1443,2025-01-29 15:18:59,1
-17796,2060,-484,2077,4399,2013,2025-01-29 15:18:59,1
-18284,1464,-1620,1383,6134,2173,2025-01-29 15:18:59,1
-19268,1992,-2824,748,7350,2396,2025-01-29 15:18:59,1
-19308,2600,-5016,-571,6361,2857,2025-01-29 15:18:59,1
-16152,2524,-6088,-2303,2024,2341,2025-01-29 15:18:59,1
-12132,1204,-5760,-3564,-3673,193,2025-01-29 15:18:59,1
-10580,-1008,-5184,-4543,-8170,-2158,2025-01-29 15:18:59,1
-10056,-2920,-2880,-4156,-9690,-3051,2025-01-29 15:18:59,1
-10344,-4180,-1632,-2858,-7280,-2695,2025-01-29 15:18:59,1
-10052,-3548,-1736,-1081,-271,-1724,2025-01-29 15:18:59,1
-10668,-1228,-3212,683,5935,-1494,2025-01-29 15:18:59,1
-11740,776,-4180,360,8758,-1679,2025-01-29 15:18:59,1
-12716,1684,-3280,-1168,9519,-2242,2025-01-29 15:18:59,1
-13924,648,-1788,-2925,8136,-2917,2025-01-29 15:19:00,1
-14772,-1288,-476,-3811,4627,-3732,2025-01-29 15:19:00,1
-14984,-2324,-1300,-3744,450,-4321,2025-01-29 15:19:00,1
-14376,-2476,-2904,-3500,-3562,-4099,2025-01-29 15:19:00,1
-13628,-1932,-2620,-3416,-6320,-3410,2025-01-29 15:19:00,1
-11248,-1208,-2564,-3526,-7084,-3275,2025-01-29 15:19:00,1
-10276,-804,-2936,-3936,-4973,-3379,2025-01-29 15:19:00,1
-9912,-1172,-2308,-4680,-1169,-3743,2025-01-29 15:19:00,1
-10676,-1664,-1200,-4977,2297,-3962,2025-01-29 15:19:00,1
-11664,-1792,-1000,-4854,4172,-3751,2025-01-29 15:19:00,1
-12452,-1824,-1104,-4764,4487,-3466,2025-01-29 15:19:00,1
-13104,-1568,-908,-4838,3764,-3538,2025-01-29 15:19:00,1
-13892,-1716,-324,-4912,2193,-3520,2025-01-29 15:19:00,1
-14252,-1932,228,-4735,329,-3125,2025-01-29 15:19:00,1
-14060,-2164,140,-4311,-1006,-2340,2025-01-29 15:19:00,1
-13296,-2176,60,-3557,-2015,-1207,2025-01-29 15:19:00,1
-12324,-1920,-724,-3409,-2019,-470,2025-01-29 15:19:00,1
-12260,-1384,-452,-3710,-902,42,2025-01-29 15:19:00,1
-11996,-1524,140,-3924,440,462,2025-01-29 15:19:00,1
-12324,-1924,720,-3742,891,1044,2025-01-29 15:19:00,1
-12364,-2468,1168,-3487,469,1396,2025-01-29 15:19:00,1
-12820,-2976,644,-3399,-18,1271,2025-01-29 15:19:00,1
-13376,-2988,512,-3682,90,780,2025-01-29 15:19:00,1
-14424,-2468,1412,-3790,395,472,2025-01-29 15:19:00,1
-15044,-1644,2192,-3410,302,751,2025-01-29 15:19:00,1
-14940,-900,1184,-3328,5,982,2025-01-29 15:19:00,1
-14440,-1288,-196,-4019,-65,565,2025-01-29 15:19:00,1
-14436,-1804,-188,-4878,-72,-454,2025-01-29 15:19:00,1
-15056,-1504,1256,-5563,-477,-1444,2025-01-29 15:19:00,1
-15840,-644,2968,-5637,-501,-1660,2025-01-29 15:19:00,1
-16132,-636,2960,-5141,550,-1616,2025-01-29 15:19:00,1
-16292,-1592,-916,-5176,2162,-2773,2025-01-29 15:19:00,1
-17148,-2912,-2660,-6151,3506,-5147,2025-01-29 15:19:00,1
-17896,-4164,-836,-5739,3403,-7521,2025-01-29 15:19:00,1
-19100,-5048,-220,-3604,484,-8532,2025-01-29 15:19:00,1
-21436,-6244,292,-590,-3457,-6770,2025-01-29 15:19:00,1
-23296,-7544,-524,2220,-6107,-1768,2025-01-29 15:19:00,1
-19828,-7028,-916,3858,-7601,4119,2025-01-29 15:19:00,1
-11332,-4596,-3704,4464,-10624,6618,2025-01-29 15:19:00,1
-8244,-2252,-5404,2468,-13165,6098,2025-01-29 15:19:00,1
-5220,1012,-5500,588,-11474,4143,2025-01-29 15:19:00,1
-5256,2496,-7188,-951,-3904,872,2025-01-29 15:19:00,1
-8196,1616,-7416,-2260,4441,-1192,2025-01-29 15:19:00,1
-11760,-944,-3856,-2087,10561,-1655,2025-01-29 15:19:00,1
-14140,-3220,-1164,-881,13310,-1038,2025-01-29 15:19:00,1
-16920,-4012,776,48,12701,-88,2025-01-29 15:19:00,1
-18076,-4416,1028,941,9020,1609,2025-01-29 15:19:00,1
-17720,-4388,324,2497,2977,3087,2025-01-29 15:19:00,1
-16496,-4048,-588,4050,-2652,3688,2025-01-29 15:19:00,1
-14776,-2948,-328,4997,-5994,3979,2025-01-29 15:19:00,1
-12808,-1688,-20,6132,-7578,4279,2025-01-29 15:19:00,1
-11384,-612,-68,7248,-7592,4526,2025-01-29 15:19:00,1
-10232,0,-1148,7655,-5673,4594,2025-01-29 15:19:00,1
-9168,32,-2748,7434,-1522,4339,2025-01-29 15:19:00,1
-8768,-616,-2660,6942,2968,3516,2025-01-29 15:19:00,1
-9244,-1000,-1612,6621,5571,2599,2025-01-29 15:19:00,1
-11360,-612,112,6682,5802,2507,2025-01-29 15:19:00,1
-12736,-44,1128,7106,4213,2687,2025-01-29 15:19:00,1
-12820,24,424,7499,2201,2221,2025-01-29 15:19:00,1
-13328,320,-804,7246,239,1391,2025-01-29 15:19:00,1
-13412,112,-1208,6545,-1858,735,2025-01-29 15:19:00,1
-13540,-320,416,6072,-3131,70,2025-01-29 15:19:01,1
-12932,-660,304,5573,-3509,-202,2025-01-29 15:19:01,1
-12280,-532,440,5365,-3078,-629,2025-01-29 15:19:01,1
-12864,896,136,4872,-1612,-1009,2025-01-29 15:19:01,1
-13896,2248,236,4315,-624,-784,2025-01-29 15:19:01,1
-14320,2944,848,4182,-683,-264,2025-01-29 15:19:01,1
-13580,2408,1508,4132,-1782,-89,2025-01-29 15:19:01,1
-12768,1308,1916,3890,-3003,-284,2025-01-29 15:19:01,1
-12200,-264,2128,3861,-2532,-717,2025-01-29 15:19:01,1
-12208,-560,1768,4106,-741,-1133,2025-01-29 15:19:01,1
-13008,-288,1596,4245,815,-1284,2025-01-29 15:19:01,1
-14080,-404,1616,4162,2143,-1371,2025-01-29 15:19:01,1
-15192,-144,1892,4095,2942,-835,2025-01-29 15:19:01,1
-14912,-108,2760,4097,3209,15,2025-01-29 15:19:01,1
-14408,-68,3156,4241,3566,724,2025-01-29 15:19:01,1
-15720,200,2668,4091,4532,1535,2025-01-29 15:19:01,1
-17568,708,1648,4302,6283,2905,2025-01-29 15:19:01,1
-19904,1228,-876,4654,8369,4372,2025-01-29 15:19:01,1
-21832,2360,-3832,3531,9673,6420,2025-01-29 15:19:01,1
-21520,3684,-5516,1376,8293,8356,2025-01-29 15:19:01,1
-19504,4908,-5936,-1294,3789,8965,2025-01-29 15:19:01,1
-16148,4796,-4892,-3312,-2631,6906,2025-01-29 15:19:01,1
-11380,1256,-3600,-4625,-7650,1698,2025-01-29 15:19:01,1
-9956,-1568,-3428,-5529,-11440,-2848,2025-01-29 15:19:01,1
-10544,-2080,-3320,-4795,-12986,-4609,2025-01-29 15:19:01,1
-12044,-3472,-3796,-3412,-10738,-3770,2025-01-29 15:19:01,1
-12228,-4968,-3792,-2208,-5281,-2302,2025-01-29 15:19:01,1
-11592,-4156,-2992,-1395,2530,-1212,2025-01-29 15:19:01,1
-11384,-1880,-2568,-673,8234,-1502,2025-01-29 15:19:01,1
-12000,492,-2400,-420,10224,-1885,2025-01-29 15:19:01,1
-13752,1576,-792,-758,9500,-2078,2025-01-29 15:19:01,1
-14740,956,-528,-1442,6476,-2411,2025-01-29 15:19:01,1
-15184,280,-1324,-2225,3456,-3251,2025-01-29 15:19:01,1
-14892,-332,-2468,-2682,1104,-4121,2025-01-29 15:19:01,1
-15424,-1300,-1784,-2741,-2642,-3954,2025-01-29 15:19:01,1
-14588,-1488,-704,-2766,-5236,-2974,2025-01-29 15:19:01,1
-11600,-2040,-1252,-2769,-6256,-2420,2025-01-29 15:19:01,1
-10656,-2568,-1812,-2878,-5438,-2483,2025-01-29 15:19:01,1
-9892,-2796,-1960,-3011,-3141,-2848,2025-01-29 15:19:01,1
-10028,-2884,-1456,-2843,-477,-3088,2025-01-29 15:19:01,1
-10832,-2584,-216,-2417,2123,-3098,2025-01-29 15:19:01,1
-11696,-1896,-120,-2221,2776,-2953,2025-01-29 15:19:01,1
-12504,-1228,8,-2400,2260,-2818,2025-01-29 15:19:01,1
-13336,-944,-372,-2671,1057,-2589,2025-01-29 15:19:01,1
-13916,-1168,-360,-2842,-541,-1919,2025-01-29 15:19:01,1
-14048,-1408,320,-2397,-1569,-500,2025-01-29 15:19:01,1
-12760,-1256,736,-2042,-1570,573,2025-01-29 15:19:01,1
-12148,-768,692,-2296,-989,778,2025-01-29 15:19:01,1
-11960,-448,380,-2715,-386,783,2025-01-29 15:19:01,1
-12616,-612,300,-3104,104,930,2025-01-29 15:19:01,1
-12744,-956,624,-3352,309,1108,2025-01-29 15:19:01,1
-13016,-1340,920,-3785,154,1181,2025-01-29 15:19:01,1
-13348,-1272,1152,-4252,-330,1131,2025-01-29 15:19:01,1
-13228,-1416,768,-4565,-1050,1238,2025-01-29 15:19:01,1
-12540,-1412,68,-4892,-1056,1136,2025-01-29 15:19:01,1
-12352,-1484,-544,-5502,-128,631,2025-01-29 15:19:01,1
-12944,-1360,-176,-6104,1150,50,2025-01-29 15:19:01,1
-13520,-1808,532,-6554,2160,-646,2025-01-29 15:19:01,1
-14440,-1896,1932,-6620,2599,-1294,2025-01-29 15:19:01,1
-14996,-1744,2088,-6715,1218,-1621,2025-01-29 15:19:02,1
-15600,-1836,2452,-6883,30,-1679,2025-01-29 15:19:02,1
-16092,-2916,2688,-6921,323,-1492,2025-01-29 15:19:02,1
-16220,-3928,-372,-6396,2589,-2479,2025-01-29 15:19:02,1
-16292,-4852,-2584,-6520,4672,-4717,2025-01-29 15:19:02,1
-17584,-6644,644,-4655,5264,-7499,2025-01-29 15:19:02,1
-19372,-8680,1500,-512,2693,-7965,2025-01-29 15:19:02,1
-22072,-8700,-680,2561,-1418,-5071,2025-01-29 15:19:02,1
-21368,-4360,-668,3338,-5676,985,2025-01-29 15:19:02,1
-17396,-160,-1628,3815,-9201,3245,2025-01-29 15:19:02,1
-15168,2120,-4140,2300,-11352,4728,2025-01-29 15:19:02,1
-11812,2868,-5600,725,-12191,5557,2025-01-29 15:19:02,1
-8592,2800,-6396,-783,-10866,4707,2025-01-29 15:19:02,1
-6232,2228,-6360,-2740,-5132,1674,2025-01-29 15:19:02,1
-7244,1340,-6504,-4620,2538,-1085,2025-01-29 15:19:02,1
-10132,676,-5408,-5831,9213,-2148,2025-01-29 15:19:02,1
-13152,484,-2752,-6029,12756,-2105,2025-01-29 15:19:02,1
-15628,-136,-700,-5351,11618,-1189,2025-01-29 15:19:02,1
-16840,-548,-176,-4166,7350,447,2025-01-29 15:19:02,1
-17640,-1200,-532,-3135,2593,1729,2025-01-29 15:19:02,1
-16600,-1136,-2144,-2740,-1484,2520,2025-01-29 15:19:02,1
-15972,-700,-1040,-2230,-3722,3062,2025-01-29 15:19:02,1
-14424,-268,-448,-1204,-4432,3525,2025-01-29 15:19:02,1
-12108,68,-1072,-270,-4086,3596,2025-01-29 15:19:02,1
-11396,420,-868,169,-2790,2974,2025-01-29 15:19:02,1
-10516,668,-1568,172,-1218,2063,2025-01-29 15:19:02,1
-10572,528,-1932,110,673,1301,2025-01-29 15:19:02,1
-11548,400,-1880,84,2386,1039,2025-01-29 15:19:02,1
-12724,348,-1040,110,3183,1131,2025-01-29 15:19:02,1
-13324,548,-1536,40,3912,1290,2025-01-29 15:19:02,1
-13392,1040,-588,271,4350,1435,2025-01-29 15:19:02,1
-13480,1528,-576,329,3526,1269,2025-01-29 15:19:02,1
-13872,1860,-696,267,1760,965,2025-01-29 15:19:02,1
-15416,1108,-1368,185,-827,759,2025-01-29 15:19:02,1
-15128,900,-80,385,-3061,869,2025-01-29 15:19:02,1
-14552,172,292,1011,-4652,1001,2025-01-29 15:19:02,1
-9240,-120,-1840,638,-2208,-404,2025-01-29 15:19:02,1
-10684,-192,-1356,124,1679,-1008,2025-01-29 15:19:02,1
-12592,232,272,1115,4350,-382,2025-01-29 15:19:02,1
-13532,808,-264,2883,5864,1013,2025-01-29 15:19:02,1
-13868,1468,-1392,3286,5735,1352,2025-01-29 15:19:02,1
-13664,1456,-1796,2646,3158,781,2025-01-29 15:19:02,1
-13284,1396,-1288,2104,-1134,-137,2025-01-29 15:19:02,1
-13212,840,-972,2109,-3866,-842,2025-01-29 15:19:02,1
-11972,688,-2064,2322,-4264,-1290,2025-01-29 15:19:02,1
-11164,716,-2824,2135,-1883,-1746,2025-01-29 15:19:02,4
-12304,220,-2960,2154,1013,-2279,2025-01-29 15:19:02,4
-14264,-8,-4448,1146,220,-1955,2025-01-29 15:19:02,4
-13488,376,2252,1966,-4174,-2624,2025-01-29 15:19:02,4
-15672,1384,-268,2316,-4494,-2410,2025-01-29 15:19:02,4
-13648,-664,-1908,2845,-2348,-2426,2025-01-29 15:19:02,4
-17544,248,-3640,3142,-2175,-2079,2025-01-29 15:19:02,4
-14068,432,-5724,1345,-1674,-2062,2025-01-29 15:19:02,4
-13964,644,-5260,-377,-1155,-1487,2025-01-29 15:19:02,4
-12660,492,-4400,-688,-823,-896,2025-01-29 15:19:02,4
-11016,-88,-4984,-649,-758,-1073,2025-01-29 15:19:02,4
-9952,-308,-5504,-681,-103,-1583,2025-01-29 15:19:02,4
-8676,-712,-6424,-976,149,-2344,2025-01-29 15:19:02,4
-7616,-1500,-6484,-1386,1363,-3145,2025-01-29 15:19:02,4
-6252,-1572,-5340,-1690,2020,-4150,2025-01-29 15:19:02,4
-5232,-796,-3800,-1815,1312,-4963,2025-01-29 15:19:02,4
-4568,688,-1344,-1298,685,-4616,2025-01-29 15:19:02,4
-3944,1160,428,-343,650,-2972,2025-01-29 15:19:03,4
-2416,544,1868,-133,-88,838,2025-01-29 15:19:03,4
-116,-524,3640,313,-646,814,2025-01-29 15:19:03,4
-1036,-960,4768,744,-213,898,2025-01-29 15:19:03,4
-2320,-620,5200,1092,501,1100,2025-01-29 15:19:03,4
-3636,-672,5448,85,1084,1374,2025-01-29 15:19:03,4
-5340,-2172,5676,39,2525,288,2025-01-29 15:19:03,4
-7888,-4088,4612,523,4080,-1902,2025-01-29 15:19:03,4
-12372,-2148,2504,-1404,4823,-3461,2025-01-29 15:19:03,4
-20876,3484,2904,-4564,3669,-1991,2025-01-29 15:19:03,4
-29064,9104,4700,-2074,393,4895,2025-01-29 15:19:03,4
-22216,544,352,306,-781,4677,2025-01-29 15:19:03,4
-21536,-4324,-2548,-1224,-1156,2312,2025-01-29 15:19:03,4
-22868,-4876,-180,-2947,250,1262,2025-01-29 15:19:03,4
-23596,-4140,3468,-2552,2381,142,2025-01-29 15:19:03,4
-25596,-3540,4512,-456,3798,-650,2025-01-29 15:19:03,4
-26424,-3316,1472,1033,3422,-1073,2025-01-29 15:19:03,4
-28260,-2716,-640,376,2615,-845,2025-01-29 15:19:03,4
-31408,-2232,16,326,975,-195,2025-01-29 15:19:03,4
-32768,-2604,868,484,-36,303,2025-01-29 15:19:03,4
-32768,-3260,780,844,-2498,1476,2025-01-29 15:19:03,4
-31788,-4140,-2976,458,-4850,1456,2025-01-29 15:19:03,4
-31804,-2356,-2788,-1142,-5312,863,2025-01-29 15:19:03,4
-32768,-104,-108,-1552,-8051,754,2025-01-29 15:19:03,4
-32768,820,3192,-148,-12416,1742,2025-01-29 15:19:03,4
-32768,1688,2420,1147,-11133,2368,2025-01-29 15:19:03,4
-32768,-1180,4700,1648,-8091,637,2025-01-29 15:19:03,4
-32768,-3192,5600,2267,-4901,-3382,2025-01-29 15:19:03,4
-32768,-1664,7392,1991,-2279,-5462,2025-01-29 15:19:03,4
-32768,-1212,13840,4467,-2954,-2942,2025-01-29 15:19:03,4
-32768,-1764,15932,8625,-67,393,2025-01-29 15:19:03,4
-32768,-4840,5060,9905,-1553,3180,2025-01-29 15:19:03,4
-22148,-5812,-4596,6238,-11480,4769,2025-01-29 15:19:03,4
-5712,-884,6372,6218,-14753,911,2025-01-29 15:19:03,4
-6980,-4268,-8940,5595,-16689,-2855,2025-01-29 15:19:03,4
12320,-372,-21372,-4028,-29021,2416,2025-01-29 15:19:03,4
15412,2100,-24296,-7508,-32768,3762,2025-01-29 15:19:03,4
7900,-1436,-21980,-4329,-25697,1092,2025-01-29 15:19:03,4
3736,-536,-22220,242,18022,-6793,2025-01-29 15:19:03,4
1408,4140,-20596,-256,32767,-9941,2025-01-29 15:19:03,4
-1144,3824,-8272,-1395,32767,-10706,2025-01-29 15:19:03,4
612,-7364,6720,-15724,32767,-8264,2025-01-29 15:19:03,4
5028,6904,32767,-17806,26259,-10463,2025-01-29 15:19:03,4
-13224,-9608,32767,2919,-3223,-406,2025-01-29 15:19:03,4
-4616,-8008,9084,14015,-9717,6335,2025-01-29 15:19:03,4
-4828,-7672,-7996,9331,-2651,3408,2025-01-29 15:19:03,4
-1240,-2204,-10892,4182,3727,1266,2025-01-29 15:19:03,4
1776,1692,-8412,2094,6230,1702,2025-01-29 15:19:03,4
5420,4584,-4324,1991,6701,2103,2025-01-29 15:19:03,4
6836,4724,-416,1919,5762,2299,2025-01-29 15:19:03,4
5644,1332,-1308,351,3079,2276,2025-01-29 15:19:03,4
6068,-2244,-1084,-2029,1308,346,2025-01-29 15:19:03,4
4692,-2652,724,-3096,1368,-2069,2025-01-29 15:19:03,4
3160,-1232,3568,-3209,2512,-2942,2025-01-29 15:19:03,4
1612,236,4260,-2579,3404,-2423,2025-01-29 15:19:03,4
1148,1184,2968,-1725,4384,-1187,2025-01-29 15:19:03,4
1748,784,980,-1235,5021,95,2025-01-29 15:19:03,4
3036,-228,-376,-1145,5630,381,2025-01-29 15:19:03,4
3080,-1116,-56,-1490,5319,82,2025-01-29 15:19:03,4
2944,-1704,-620,-1731,4036,-239,2025-01-29 15:19:03,4
2664,-2216,-4020,-2077,3364,-274,2025-01-29 15:19:04,4
1568,-2640,-9224,-2267,3753,-32,2025-01-29 15:19:04,4
2516,-2400,-10336,-2198,5049,-58,2025-01-29 15:19:04,4
3328,-760,-9276,-4354,8694,-1550,2025-01-29 15:19:04,4
912,1568,-1412,-9305,9652,-3447,2025-01-29 15:19:04,4
-5040,3312,17356,-11800,1850,-3530,2025-01-29 15:19:04,4
-16572,3256,31824,991,-10624,2768,2025-01-29 15:19:04,4
-23920,-9436,-3752,11385,-12077,6688,2025-01-29 15:19:04,4
-29528,-10156,-24096,4745,-1184,3285,2025-01-29 15:19:04,4
-31220,-4364,-11688,445,10098,-2542,2025-01-29 15:19:04,4
-32768,-656,-6852,1818,11625,-8883,2025-01-29 15:19:04,4
-32768,1700,-19908,-1565,3751,-3778,2025-01-29 15:19:04,4
-32768,3408,-13260,-4880,963,4266,2025-01-29 15:19:04,4
-32768,-936,4284,-5343,6427,1567,2025-01-29 15:19:04,4
-32768,-8744,5960,-2988,6494,-2277,2025-01-29 15:19:04,4
-32768,-9096,6132,-301,1469,-1655,2025-01-29 15:19:04,4
-32768,-6540,3312,-236,-5848,2117,2025-01-29 15:19:04,4
-26256,-5592,2816,-874,-11263,4400,2025-01-29 15:19:04,4
-18668,-5432,172,-672,-14811,5103,2025-01-29 15:19:04,4
-18224,-7116,-1136,1263,-12102,3791,2025-01-29 15:19:04,4
-18424,-7040,-1396,3864,-6675,172,2025-01-29 15:19:04,4
-22148,-2188,-3924,3696,1354,-2921,2025-01-29 15:19:04,4
-24016,1332,-3332,3308,7262,-3032,2025-01-29 15:19:04,4
-23828,2348,-2924,3078,10441,-1742,2025-01-29 15:19:04,4
-22444,2304,-3608,1909,9903,-952,2025-01-29 15:19:04,4
-20956,1484,-2720,565,8111,-450,2025-01-29 15:19:04,4
-18596,272,-1140,-28,6417,90,2025-01-29 15:19:04,4
-13904,-2796,-1988,-317,5176,150,2025-01-29 15:19:04,4
-12512,-2152,-2256,-72,4612,69,2025-01-29 15:19:04,4
-11500,-1920,-1144,-867,2064,-599,2025-01-29 15:19:04,4
-11496,-908,-372,-1397,-214,-938,2025-01-29 15:19:04,4
-11976,-168,924,-1053,-1524,-727,2025-01-29 15:19:04,4
-10484,-180,532,-596,-2075,-373,2025-01-29 15:19:04,4
-8812,-60,344,54,-2363,83,2025-01-29 15:19:04,4
-7652,60,792,482,-2915,416,2025-01-29 15:19:04,4
-6248,220,720,708,-3461,448,2025-01-29 15:19:04,4
-6532,-60,1032,883,-4063,930,2025-01-29 15:19:04,4
-5436,-284,188,1023,-4887,704,2025-01-29 15:19:04,4
-6208,-56,-276,984,-4585,858,2025-01-29 15:19:04,4
-6104,-236,-1212,956,-3554,1053,2025-01-29 15:19:04,4
-6152,-184,-1696,827,-1919,314,2025-01-29 15:19:04,4
-8004,-384,-2652,-140,-1282,258,2025-01-29 15:19:04,4
-8756,-844,-1856,-819,-564,583,2025-01-29 15:19:04,4
-9768,-1692,-1200,-641,94,924,2025-01-29 15:19:04,4
-10232,-2032,-1724,190,811,731,2025-01-29 15:19:04,4
-10604,-1860,-3576,-162,1216,361,2025-01-29 15:19:04,4
-10840,-2596,-2608,-1102,1359,-335,2025-01-29 15:19:04,4
-11820,-2336,-1176,-1164,1501,-1011,2025-01-29 15:19:04,4
-14400,-2172,-1216,-1355,1615,-1163,2025-01-29 15:19:04,0
-15920,-1892,-652,-1220,1262,-624,2025-01-29 15:19:04,0
-15816,-1516,-368,-703,1035,-527,2025-01-29 15:19:04,0
-15900,-1980,-840,-9,510,-1190,2025-01-29 15:19:04,0
-15388,-2052,-992,440,-681,-1430,2025-01-29 15:19:04,0
-14604,-1944,-1644,1078,-2010,-1246,2025-01-29 15:19:04,0
-13872,-824,-2084,1083,-3424,-597,2025-01-29 15:19:04,0
-13284,-140,-2188,569,-4090,-233,2025-01-29 15:19:04,0
-13444,-340,-2704,-246,-4222,-165,2025-01-29 15:19:04,0
-13840,-588,-2128,-973,-4004,-339,2025-01-29 15:19:04,0
-14780,-848,-1072,-1264,-3076,-305,2025-01-29 15:19:04,0
-13540,-1688,-16,-1346,-2067,-207,2025-01-29 15:19:05,0
-13100,-2204,820,-1080,-1556,-313,2025-01-29 15:19:05,0
-12872,-2676,1384,-444,-1038,-391,2025-01-29 15:19:05,0
-13680,-2288,608,344,-142,-375,2025-01-29 15:19:05,0
-13956,-1424,-152,856,341,-328,2025-01-29 15:19:05,0
-13676,-820,-436,773,-464,-126,2025-01-29 15:19:05,1
-12988,-988,-224,795,-680,83,2025-01-29 15:19:05,1
-13236,-1096,-444,898,-652,290,2025-01-29 15:19:05,1
-13172,-1016,-632,989,-362,371,2025-01-29 15:19:05,1
-13780,-596,-1360,588,319,144,2025-01-29 15:19:05,1
-13644,-864,-488,138,908,-131,2025-01-29 15:19:05,1
-13872,-1212,-272,153,973,-96,2025-01-29 15:19:05,1
-13468,-1408,60,406,1077,92,2025-01-29 15:19:05,1
-13488,-1336,-164,726,1113,105,2025-01-29 15:19:05,1
-13416,-1560,-504,868,1203,68,2025-01-29 15:19:05,1
-13204,-1744,-844,652,1461,-565,2025-01-29 15:19:05,1
-14172,-1584,108,386,1583,-590,2025-01-29 15:19:05,1
-14072,-1480,816,1157,1416,-367,2025-01-29 15:19:05,1
-13528,-1100,-88,1394,356,-626,2025-01-29 15:19:05,1
-13748,-848,-660,1063,-1512,-997,2025-01-29 15:19:05,1
-13980,-808,164,773,-2335,-1266,2025-01-29 15:19:05,1
-13656,-880,652,980,-1839,-1224,2025-01-29 15:19:05,1
-13624,-1060,-116,1416,-510,-855,2025-01-29 15:19:05,1
-13220,-820,-460,1454,783,-815,2025-01-29 15:19:05,1
-13328,-308,-696,1144,1277,-985,2025-01-29 15:19:05,1
-13704,-480,-616,838,959,-1203,2025-01-29 15:19:05,1
-13820,-944,-48,913,336,-1329,2025-01-29 15:19:05,1
-13632,-1256,592,1301,-16,-1487,2025-01-29 15:19:05,1
-13688,-1136,656,1630,-56,-1580,2025-01-29 15:19:05,1
-13884,-984,364,1811,-148,-1643,2025-01-29 15:19:05,1
-13884,-980,176,1875,23,-1656,2025-01-29 15:19:05,1
-13948,-780,-552,1853,264,-1697,2025-01-29 15:19:05,1
-13836,-376,-940,1484,213,-1885,2025-01-29 15:19:05,1
-14336,-168,-64,968,43,-1959,2025-01-29 15:19:05,1
-14468,-1028,172,665,-322,-1803,2025-01-29 15:19:05,1
-13932,-3256,1376,812,-1896,-1347,2025-01-29 15:19:05,1
-13232,-4224,2832,1800,-2872,-1087,2025-01-29 15:19:05,1
-12416,-4444,2896,2810,-2838,-860,2025-01-29 15:19:05,1
-11680,-3844,2420,3331,-1322,-821,2025-01-29 15:19:05,1
-11436,-2500,1320,2730,1519,-1133,2025-01-29 15:19:05,1
-12596,-1304,1264,1568,3313,-1261,2025-01-29 15:19:05,1
-13524,-736,1308,352,4405,-1293,2025-01-29 15:19:05,1
-14228,-980,1172,-924,4639,-1704,2025-01-29 15:19:05,1
-14748,-2160,1816,-1874,4026,-2343,2025-01-29 15:19:05,1
-15032,-3388,2760,-2147,2425,-2956,2025-01-29 15:19:05,1
-15324,-3948,2820,-1785,-396,-2919,2025-01-29 15:19:05,1
-14816,-3992,2320,-1455,-2518,-2419,2025-01-29 15:19:05,1
-13776,-3532,1628,-1559,-3715,-1963,2025-01-29 15:19:05,1
-12432,-3208,1084,-2178,-3897,-1796,2025-01-29 15:19:05,1
-11892,-3192,1468,-2828,-2852,-1849,2025-01-29 15:19:05,1
-12108,-3468,2068,-3156,-953,-1639,2025-01-29 15:19:05,1
-12804,-3716,3052,-3137,122,-1252,2025-01-29 15:19:05,1
-13272,-3676,3368,-3060,-254,-853,2025-01-29 15:19:05,1
-13536,-3424,2952,-3009,-1208,-365,2025-01-29 15:19:05,1
-12944,-3180,2636,-2868,-1761,223,2025-01-29 15:19:05,1
-12208,-3032,1704,-2998,-1274,761,2025-01-29 15:19:05,1
-11720,-2676,1060,-3556,86,815,2025-01-29 15:19:05,1
-12136,-2584,876,-4423,1940,523,2025-01-29 15:19:05,1
-13480,-2548,1728,-4983,3074,365,2025-01-29 15:19:05,1
-14680,-2740,2660,-5234,2997,452,2025-01-29 15:19:05,1
-14940,-3292,3196,-5375,1862,429,2025-01-29 15:19:05,1
-14992,-4520,3932,-5280,510,173,2025-01-29 15:19:05,1
-14264,-5508,4160,-4765,-697,-332,2025-01-29 15:19:05,1
-14164,-5272,4328,-4020,-1293,-588,2025-01-29 15:19:06,1
-14504,-4676,1516,-3449,-651,-1284,2025-01-29 15:19:06,1
-16096,-4100,-1668,-4365,462,-2385,2025-01-29 15:19:06,1
-16444,-5352,672,-4299,2025,-4280,2025-01-29 15:19:06,1
-17824,-7180,1808,-2791,1764,-5099,2025-01-29 15:19:06,1
-18604,-8324,3484,-943,-957,-3686,2025-01-29 15:19:06,1
-19248,-8596,4588,1403,-3723,-673,2025-01-29 15:19:06,1
-16824,-6348,4320,3394,-4855,2208,2025-01-29 15:19:06,1
-15332,-4520,1704,3815,-4248,3432,2025-01-29 15:19:06,1
-14232,-3196,-804,2800,-3029,4391,2025-01-29 15:19:06,1
-13872,-2988,-2112,1800,-1141,4563,2025-01-29 15:19:06,1
-14132,-3344,-2304,1836,-37,4117,2025-01-29 15:19:06,1
-14100,-3200,-2212,2209,-268,3709,2025-01-29 15:19:06,1
-13492,-2560,-2172,2507,-1618,3544,2025-01-29 15:19:06,1
-12140,-1004,-2240,2516,-2808,3490,2025-01-29 15:19:06,1
-11252,1044,-3108,1918,-2447,3164,2025-01-29 15:19:06,1
-10832,2192,-4400,359,-558,2618,2025-01-29 15:19:06,1
-11000,2156,-3796,-1333,2046,1854,2025-01-29 15:19:06,1
-12400,776,-2420,-2221,4303,1430,2025-01-29 15:19:06,1
-13956,-1132,-624,-2023,5739,1679,2025-01-29 15:19:06,1
-14992,-2340,764,-1145,5880,2064,2025-01-29 15:19:06,1
-15464,-3008,808,-191,4722,2351,2025-01-29 15:19:06,1
-15532,-3020,372,579,2756,2577,2025-01-29 15:19:06,1
-14544,-2272,544,1857,-1178,2810,2025-01-29 15:19:06,1
-13372,-1900,216,2565,-2422,2970,2025-01-29 15:19:06,1
-12404,-1176,4,2802,-2448,3140,2025-01-29 15:19:06,1
-11328,-508,-496,2592,-1867,3105,2025-01-29 15:19:06,1
-11328,364,76,2299,-730,2815,2025-01-29 15:19:06,1
-11544,900,-220,2004,431,2576,2025-01-29 15:19:06,1
-11760,1428,-320,1832,1229,2281,2025-01-29 15:19:06,1
-12256,1500,-752,1542,1478,1948,2025-01-29 15:19:06,1
-12472,1304,-388,1061,1202,1599,2025-01-29 15:19:06,1
-11952,580,120,523,518,833,2025-01-29 15:19:06,1
-11988,-736,1048,12,-1113,-217,2025-01-29 15:19:06,1
-12032,-824,1408,239,-1319,-675,2025-01-29 15:19:06,1
-11728,-436,1372,84,-1043,-1094,2025-01-29 15:19:06,1
-12024,20,1696,-57,-1337,-1590,2025-01-29 15:19:06,1
-12992,804,2056,20,-1830,-1855,2025-01-29 15:19:06,1
-13264,888,1832,-29,-2160,-1890,2025-01-29 15:19:06,1
-13788,196,2120,-169,-2150,-1796,2025-01-29 15:19:06,1
-14076,-756,2868,-171,-2361,-1594,2025-01-29 15:19:06,1
-14104,-1764,2892,288,-2778,-1284,2025-01-29 15:19:06,1
-14008,-1352,2732,1029,-2843,-823,2025-01-29 15:19:06,1
-14028,-520,2056,1852,-2146,-249,2025-01-29 15:19:06,1
-14372,-200,1484,2395,-905,444,2025-01-29 15:19:06,1
-14140,-784,1580,2901,440,1027,2025-01-29 15:19:06,1
-13880,-2264,2584,3644,1402,1357,2025-01-29 15:19:06,1
-13808,-2568,4244,4642,1979,1423,2025-01-29 15:19:06,1
-13428,-1960,5296,5560,2196,1511,2025-01-29 15:19:06,1
-13204,-780,4580,6458,2327,1365,2025-01-29 15:19:06,1
-14252,840,1552,6682,3182,1480,2025-01-29 15:19:06,1
-15464,2204,-496,6514,5160,1557,2025-01-29 15:19:06,1
-17004,3784,-1572,5711,6766,1848,2025-01-29 15:19:06,1
-18076,5320,-3604,3653,7151,2796,2025-01-29 15:19:06,7
-17052,5104,-4308,560,5358,2803,2025-01-29 15:19:06,7
-17624,3856,-4172,-1808,3320,1706,2025-01-29 15:19:06,7
-18872,2484,-3504,-3483,1050,1425,2025-01-29 15:19:06,7
-18464,584,-2564,-4064,-2004,1795,2025-01-29 15:19:06,7
-15376,-1328,-1856,-3562,-4772,987,2025-01-29 15:19:06,7
-11556,-3584,-2496,-2695,-7137,-1618,2025-01-29 15:19:06,7
-10748,-3892,-3000,-1976,-8256,-3698,2025-01-29 15:19:06,7
-10884,-4476,-2852,-1156,-6889,-3741,2025-01-29 15:19:07,7
-10884,-4408,-2584,182,-2399,-2422,2025-01-29 15:19:07,7
-10648,-3560,-1408,1861,3317,-1203,2025-01-29 15:19:07,7
-11020,-2612,-2012,2821,6991,-740,2025-01-29 15:19:07,7
-12024,-1320,-1904,2664,8475,-718,2025-01-29 15:19:07,7
-13176,-388,-1324,1814,7942,-1215,2025-01-29 15:19:07,7
-14588,48,-1768,725,5824,-1591,2025-01-29 15:19:07,7
-15736,4,-1780,-144,2860,-1757,2025-01-29 15:19:07,7
-15508,-144,-2564,-935,-315,-1810,2025-01-29 15:19:07,7
-14100,-360,-1944,-2763,-3599,-2153,2025-01-29 15:19:07,7
-13016,-240,-1336,-4108,-3747,-2363,2025-01-29 15:19:07,7
-11976,-492,-1996,-5011,-3173,-2390,2025-01-29 15:19:07,7
-11820,-736,-2172,-5991,-1582,-2345,2025-01-29 15:19:07,7
-11452,-824,-2412,-6917,392,-2393,2025-01-29 15:19:07,7
-11720,-1048,-2700,-7831,1586,-2379,2025-01-29 15:19:07,7
-12260,-1360,-1772,-8560,1857,-2453,2025-01-29 15:19:07,7
-12196,-1392,-2176,-9243,1477,-2411,2025-01-29 15:19:07,7
-12828,-1432,-1676,-9903,1183,-2248,2025-01-29 15:19:07,7
-12824,-1744,-1800,-10885,749,-1642,2025-01-29 15:19:07,7
-13056,-1780,-1404,-11326,755,-1327,2025-01-29 15:19:07,7
-13388,-1664,-1584,-11887,738,-1052,2025-01-29 15:19:07,7
-14280,-1048,-864,-12278,269,-550,2025-01-29 15:19:07,7
-14064,-280,-1032,-12607,-577,-99,2025-01-29 15:19:07,7
-13700,48,-1840,-13634,-1172,-137,2025-01-29 15:19:07,7
-13808,-392,-1664,-14620,-1422,-405,2025-01-29 15:19:07,7
-14128,-916,-1504,-15287,-1512,-479,2025-01-29 15:19:07,7
-13984,-1580,-940,-15825,-1597,-544,2025-01-29 15:19:07,7
-13584,-2224,-700,-16664,-1763,-745,2025-01-29 15:19:07,7
-12928,-2372,-696,-17241,-2072,-1143,2025-01-29 15:19:07,7
-13028,-2528,-1360,-17592,-2074,-1566,2025-01-29 15:19:07,7
-13212,-2764,-2232,-17865,-1422,-1689,2025-01-29 15:19:07,7
-13820,-2888,-1692,-18523,89,-2173,2025-01-29 15:19:07,7
-14016,-3356,-564,-19112,1156,-2520,2025-01-29 15:19:07,7
-14348,-3564,-300,-19652,370,-3171,2025-01-29 15:19:07,7
-14908,-2704,32,-19808,-1693,-3070,2025-01-29 15:19:07,7
-13752,-2096,176,-20107,-3177,-2432,2025-01-29 15:19:07,7
-13452,-1776,628,-20950,-3145,-2026,2025-01-29 15:19:07,7
-14004,-2024,-1024,-21012,-2516,-1150,2025-01-29 15:19:07,7
-13908,-2796,-3368,-21292,-1861,-1025,2025-01-29 15:19:07,7
-14584,-2952,-4144,-21179,-1616,-1315,2025-01-29 15:19:07,7
-14512,-3856,-2872,-20335,-1845,-848,2025-01-29 15:19:07,7
-13688,-4896,-2792,-18497,-517,-896,2025-01-29 15:19:07,7
-13924,-4744,-4084,-17637,2743,-1557,2025-01-29 15:19:07,7
-14732,-2540,-3984,-17952,4843,-1598,2025-01-29 15:19:07,7
-14288,-268,-2476,-18235,4908,-792,2025-01-29 15:19:07,7
-14468,564,-2400,-18136,3997,-246,2025-01-29 15:19:07,7
-13352,416,-4172,-18477,3198,-191,2025-01-29 15:19:07,7
-11860,296,-4624,-19381,3365,-1443,2025-01-29 15:19:07,7
-11372,424,-3800,-20109,3920,-2892,2025-01-29 15:19:07,7
-12076,1072,-2852,-20563,4300,-3782,2025-01-29 15:19:07,7
-13328,1304,-2184,-20508,3973,-3713,2025-01-29 15:19:07,7
-14048,1040,-2220,-20417,2672,-3423,2025-01-29 15:19:07,7
-13508,884,-2852,-20844,1741,-3285,2025-01-29 15:19:07,7
-13384,448,-2560,-21604,1114,-3417,2025-01-29 15:19:07,7
-13156,-268,-2224,-22291,715,-3689,2025-01-29 15:19:07,7
-13520,-616,-1792,-22496,329,-3993,2025-01-29 15:19:07,7
-13716,-844,-1452,-22388,-317,-4220,2025-01-29 15:19:07,7
-14132,-808,-988,-22022,-1285,-4226,2025-01-29 15:19:07,7
-14200,-444,-448,-21425,-2504,-4023,2025-01-29 15:19:07,7
-14000,228,-428,-20830,-3768,-3778,2025-01-29 15:19:07,7
-13196,1348,-1808,-20870,-4769,-2867,2025-01-29 15:19:08,7
-12444,1084,-1688,-21024,-4054,-2709,2025-01-29 15:19:08,7
-12080,304,-2068,-20997,-3192,-2761,2025-01-29 15:19:08,7
-12032,-404,-2276,-20860,-2815,-2914,2025-01-29 15:19:08,7
-12032,-732,-2072,-20534,-2132,-3231,2025-01-29 15:19:08,7
-11844,-796,-1952,-20121,-1386,-3602,2025-01-29 15:19:08,7
-12516,-884,-1552,-19528,-878,-3898,2025-01-29 15:19:08,7
-12880,-800,-1600,-18894,-532,-3937,2025-01-29 15:19:08,7
-13572,-84,-1880,-18391,84,-3857,2025-01-29 15:19:08,7
-13764,280,-2032,-18197,130,-3833,2025-01-29 15:19:08,7
-14096,428,-2128,-18007,-216,-3755,2025-01-29 15:19:08,7
-14060,308,-2200,-17755,-678,-3724,2025-01-29 15:19:08,7
-13968,16,-2244,-17668,-1101,-3848,2025-01-29 15:19:08,7
-13768,-180,-1812,-17196,-1270,-3928,2025-01-29 15:19:08,7
-13704,-248,-1868,-16432,-1430,-3875,2025-01-29 15:19:08,7
-13820,-676,-1896,-15673,-1448,-3427,2025-01-29 15:19:08,7
-14228,-1276,-2468,-14655,-808,-2727,2025-01-29 15:19:08,7
-14812,-1500,-4160,-13990,-54,-1711,2025-01-29 15:19:08,7
-14720,-328,-4548,-13185,192,-917,2025-01-29 15:19:08,7
-14436,1392,-4408,-12354,63,-383,2025-01-29 15:19:08,7
-14644,500,-4380,-12586,-410,-125,2025-01-29 15:19:08,7
-14272,-3128,68,-12642,-1228,-250,2025-01-29 15:19:08,7
-13636,-7324,5920,-11117,-2606,-714,2025-01-29 15:19:08,7
-12012,-8660,6468,-8850,-5743,-660,2025-01-29 15:19:08,7
-9692,-4600,1600,-6539,-8883,-1034,2025-01-29 15:19:08,7
-9348,1612,-2668,-5412,-6993,-954,2025-01-29 15:19:08,7
-9252,4044,-5344,-6068,2095,-1031,2025-01-29 15:19:08,7
-10672,2384,-5952,-9015,12843,-2314,2025-01-29 15:19:08,7
-13552,-304,-3384,-11839,19527,-4198,2025-01-29 15:19:08,7
-16120,-3056,-1000,-13280,22167,-6364,2025-01-29 15:19:08,7
-19068,-5196,824,-12885,18041,-8006,2025-01-29 15:19:08,7
-20964,-6336,1248,-11301,7522,-7553,2025-01-29 15:19:08,7
-20972,-6996,1388,-9420,-4641,-5829,2025-01-29 15:19:08,7
-17988,-5636,2324,-7549,-12809,-4639,2025-01-29 15:19:08,7
-15052,-4044,2672,-6392,-15650,-3632,2025-01-29 15:19:08,7
-12564,-2924,2160,-6055,-13622,-2872,2025-01-29 15:19:08,7
-10692,-2540,912,-5980,-8690,-2292,2025-01-29 15:19:08,7
-9692,-3136,496,-6192,-3219,-2445,2025-01-29 15:19:08,7
-10320,-3876,900,-5962,973,-2899,2025-01-29 15:19:08,7
-11684,-4188,2012,-5303,2880,-3030,2025-01-29 15:19:08,7
-13320,-4244,2556,-4438,3412,-2761,2025-01-29 15:19:08,7
-14628,-3960,2432,-3595,2992,-2068,2025-01-29 15:19:08,7
-15208,-2888,1256,-3118,1586,-1270,2025-01-29 15:19:08,7
-15032,-1268,-48,-3498,-894,-409,2025-01-29 15:19:08,7
-14308,-716,292,-3935,-2064,-68,2025-01-29 15:19:08,7
-13716,-1056,744,-3900,-2430,202,2025-01-29 15:19:08,7
-13072,-2052,524,-3676,-2745,586,2025-01-29 15:19:08,7
-12348,-3360,716,-3391,-2489,608,2025-01-29 15:19:08,7
-12416,-3680,636,-2799,-1457,668,2025-01-29 15:19:08,7
-12832,-2824,796,-2007,637,1310,2025-01-29 15:19:08,7
-13404,-2440,168,-1726,1911,1545,2025-01-29 15:19:08,7
-14168,-1860,-248,-1727,2193,1678,2025-01-29 15:19:08,0
-14220,-1848,-156,-1444,1591,1527,2025-01-29 15:19:08,0
-14336,-1840,-172,-924,263,1386,2025-01-29 15:19:08,0
-14084,-1856,-596,-624,-907,1605,2025-01-29 15:19:08,0
-13564,-1576,-1304,-531,-827,1559,2025-01-29 15:19:08,0
-13524,-1288,-1848,-696,282,1152,2025-01-29 15:19:08,0
-13872,-1268,-2068,-980,1427,599,2025-01-29 15:19:08,0
-14416,-1240,-1488,-1081,1708,212,2025-01-29 15:19:08,0
-14572,-1156,-856,-1046,683,426,2025-01-29 15:19:08,0
-14296,-1256,-824,-1115,-1281,871,2025-01-29 15:19:09,0
-13892,-1584,-1012,-1081,-2844,1192,2025-01-29 15:19:09,0
-13584,-1664,-980,-849,-2859,1378,2025-01-29 15:19:09,0
-13404,-1564,-1048,-671,-2078,1338,2025-01-29 15:19:09,0
-13156,-1472,-1156,-761,-1320,1036,2025-01-29 15:19:09,0
-13132,-1244,-700,-1055,-1039,589,2025-01-29 15:19:09,0
-13148,-1028,-300,-1115,-988,192,2025-01-29 15:19:09,0
-13236,-840,-512,-916,-604,66,2025-01-29 15:19:09,0
-13048,-856,-1012,-760,107,-65,2025-01-29 15:19:09,0
-12904,-792,-988,-848,725,-142,2025-01-29 15:19:09,0
-13116,-844,-772,-944,910,-194,2025-01-29 15:19:09,0
-13312,-812,-764,-955,740,-84,2025-01-29 15:19:09,0
-13384,-564,-544,-796,628,-54,2025-01-29 15:19:09,0
-13464,-532,-1236,-793,820,-149,2025-01-29 15:19:09,0
-13728,-672,-1664,-1099,702,-262,2025-01-29 15:19:09,0
-13864,-916,-1152,-1239,614,-322,2025-01-29 15:19:09,0
-13996,-1032,-688,-996,706,-211,2025-01-29 15:19:09,0
-13848,-1212,-696,-734,578,-106,2025-01-29 15:19:09,0
-13592,-1060,-688,-574,237,-168,2025-01-29 15:19:09,0
-13696,-1060,-784,-381,152,-256,2025-01-29 15:19:09,0
-13560,-1064,-864,-249,399,-312,2025-01-29 15:19:09,0
-13516,-940,-1080,-167,732,-325,2025-01-29 15:19:09,0
-13656,-1052,-928,-56,997,-297,2025-01-29 15:19:09,0
-14144,-876,-576,12,1084,-240,2025-01-29 15:19:09,0
-13820,-688,-932,49,984,-194,2025-01-29 15:19:09,0
-13832,-824,-740,121,714,-150,2025-01-29 15:19:09,0
-13740,-804,-752,154,348,-140,2025-01-29 15:19:09,0
-13636,-672,-572,173,344,-149,2025-01-29 15:19:09,0
-13464,-644,-520,178,698,-226,2025-01-29 15:19:09,0
-13348,-880,-1064,137,721,-282,2025-01-29 15:19:09,0
-13576,-860,-1072,175,788,-344,2025-01-29 15:19:09,0
-13652,-692,-960,227,1066,-303,2025-01-29 15:19:09,0
-13916,-804,-704,185,1050,-232,2025-01-29 15:19:09,0
-14052,-356,-756,205,564,-88,2025-01-29 15:19:09,0
-13792,-336,-920,155,357,13,2025-01-29 15:19:09,0
-13552,-344,-1048,0,427,-7,2025-01-29 15:19:09,0
-13280,-300,-1068,-53,747,-76,2025-01-29 15:19:09,0
-13332,-336,-1016,-142,1131,-177,2025-01-29 15:19:09,0
-13404,-452,-728,-177,1448,-265,2025-01-29 15:19:09,0
-13784,-320,-512,-311,1430,-278,2025-01-29 15:19:09,0
-14012,-284,-512,-371,1180,-292,2025-01-29 15:19:09,0
-13932,-116,-712,-394,778,-327,2025-01-29 15:19:09,0
-13928,-148,-676,-495,487,-356,2025-01-29 15:19:09,0
-13820,-496,-552,-606,269,-524,2025-01-29 15:19:09,0
-14064,-732,-464,-482,73,-600,2025-01-29 15:19:09,0
-14080,-688,-744,-253,-253,-632,2025-01-29 15:19:09,0
-14368,-584,-1196,-352,-644,-677,2025-01-29 15:19:09,0
-14252,-272,-908,-510,-1013,-833,2025-01-29 15:19:09,0
-14300,-108,-784,-546,-1265,-942,2025-01-29 15:19:09,1
-14132,-140,-788,-527,-1582,-964,2025-01-29 15:19:09,1
-13816,-188,-1148,-678,-2132,-973,2025-01-29 15:19:09,1
-13492,-352,-1400,-869,-2306,-1003,2025-01-29 15:19:09,1
-13080,-716,-1064,-953,-1962,-954,2025-01-29 15:19:09,1
-12852,-1164,-1076,-836,-1154,-1045,2025-01-29 15:19:09,1
-12752,-1720,-1244,-663,-27,-1493,2025-01-29 15:19:09,1
-13288,-2152,-808,-316,823,-2079,2025-01-29 15:19:09,1
-13796,-2248,-196,95,943,-2379,2025-01-29 15:19:09,1
-14156,-2320,576,522,586,-2484,2025-01-29 15:19:09,1
-14484,-2604,1388,801,-737,-2482,2025-01-29 15:19:09,1
-14772,-2076,1376,822,-2059,-2274,2025-01-29 15:19:09,1
-14816,-1384,1468,392,-3427,-1848,2025-01-29 15:19:10,1
-14324,-460,1636,-313,-4265,-1576,2025-01-29 15:19:10,1
-13732,488,1608,-932,-4320,-1409,2025-01-29 15:19:10,1
-12948,996,800,-1979,-3408,-1216,2025-01-29 15:19:10,1
-12008,332,224,-3387,-1576,-1509,2025-01-29 15:19:10,1
-11636,-1216,344,-4504,544,-2197,2025-01-29 15:19:10,1
-12324,-3072,1116,-4908,2236,-2768,2025-01-29 15:19:10,1
-13228,-3704,2188,-4452,2673,-2924,2025-01-29 15:19:10,1
-14292,-3480,2896,-3870,2149,-2721,2025-01-29 15:19:10,1
-14644,-3004,2840,-3466,933,-2499,2025-01-29 15:19:10,1
-14896,-2640,2516,-3297,-870,-2073,2025-01-29 15:19:10,1
-14428,-2664,2180,-3173,-2556,-1554,2025-01-29 15:19:10,1
-13380,-2952,2288,-3031,-3675,-1088,2025-01-29 15:19:10,1
-12212,-2888,2132,-2956,-3785,-812,2025-01-29 15:19:10,1
-11840,-2788,2072,-2888,-2868,-569,2025-01-29 15:19:10,1
-11812,-2856,1660,-2842,-878,-502,2025-01-29 15:19:10,1
-12500,-2708,1648,-2927,939,-429,2025-01-29 15:19:10,1
-12948,-2472,1804,-3040,1656,-450,2025-01-29 15:19:10,1
-13984,-2400,2300,-3016,1211,-316,2025-01-29 15:19:10,1
-14192,-2908,2464,-2985,423,41,2025-01-29 15:19:10,1
-14216,-3184,2676,-2661,-500,446,2025-01-29 15:19:10,1
-13756,-3116,2160,-2392,-1030,582,2025-01-29 15:19:10,1
-13352,-3096,1640,-2564,-1054,268,2025-01-29 15:19:10,1
-13464,-2724,1812,-3127,-634,-222,2025-01-29 15:19:10,1
-14004,-2640,2572,-3378,-485,-413,2025-01-29 15:19:10,1
-13900,-2520,2764,-3368,-781,-330,2025-01-29 15:19:10,1
-13460,-2224,2808,-3369,-1101,-116,2025-01-29 15:19:10,1
-12736,-2092,2620,-3329,-618,66,2025-01-29 15:19:10,1
-12352,-2748,1692,-3455,367,69,2025-01-29 15:19:10,1
