acceleration_x,acceleration_y,acceleration_z,gyroscope_x,gyroscope_y,gyroscope_z,timestamp,label
-10464,-732,-8148,-138,366,-172,2025-01-29 10:35:44,0
-10644,-800,-8212,-54,385,-176,2025-01-29 10:35:44,0
-10732,-716,-8180,-71,337,-193,2025-01-29 10:35:44,0
-10724,-712,-8320,-6,218,-160,2025-01-29 10:35:44,0
-10720,-796,-8352,-44,136,-147,2025-01-29 10:35:44,0
-10640,-640,-8296,-101,132,-126,2025-01-29 10:35:44,0
-10500,-704,-8352,-101,199,-132,2025-01-29 10:35:44,0
-10508,-616,-8288,-61,288,-146,2025-01-29 10:35:44,0
-10688,-572,-8292,-89,336,-153,2025-01-29 10:35:44,0
-10832,-716,-8508,-52,35,-153,2025-01-29 10:35:44,0
-10668,-844,-8160,-72,-69,-165,2025-01-29 10:35:44,0
-10716,-804,-8212,-15,-57,-103,2025-01-29 10:35:44,0
-10588,-652,-8316,-39,54,-93,2025-01-29 10:35:44,0
-10612,-484,-8400,-50,162,-94,2025-01-29 10:35:44,0
-10648,-556,-8192,-109,200,-129,2025-01-29 10:35:44,0
-10684,-684,-8156,-89,174,-111,2025-01-29 10:35:44,0
-10712,-752,-8320,-118,146,-155,2025-01-29 10:35:44,0
-10696,-780,-8344,-126,88,-135,2025-01-29 10:35:44,0
-10592,-668,-8372,-144,66,-170,2025-01-29 10:35:44,0
-10684,-592,-8284,-173,53,-157,2025-01-29 10:35:44,0
-10628,-728,-8328,-175,69,-127,2025-01-29 10:35:44,0
-10612,-728,-8344,-180,146,-154,2025-01-29 10:35:44,0
-10536,-700,-8268,-187,158,-156,2025-01-29 10:35:44,0
-10632,-696,-8144,-203,77,-180,2025-01-29 10:35:44,0
-10764,-716,-8028,-188,83,-202,2025-01-29 10:35:44,0
-10548,-672,-8176,-193,135,-209,2025-01-29 10:35:44,0
-10640,-476,-8292,-217,170,-241,2025-01-29 10:35:44,0
-10720,-528,-8324,-245,262,-200,2025-01-29 10:35:45,0
-10684,-556,-8276,-274,298,-234,2025-01-29 10:35:45,0
-10712,-580,-8092,-281,272,-215,2025-01-29 10:35:45,0
-10680,-624,-8312,-292,233,-196,2025-01-29 10:35:45,0
-10612,-540,-8080,-286,251,-206,2025-01-29 10:35:45,0
-10648,-520,-8156,-244,296,-239,2025-01-29 10:35:45,0
-10664,-592,-8224,-256,300,-262,2025-01-29 10:35:45,0
-10668,-592,-8368,-258,317,-230,2025-01-29 10:35:45,0
-10832,-576,-8404,-264,279,-241,2025-01-29 10:35:45,0
-10676,-528,-8312,-225,202,-237,2025-01-29 10:35:45,0
-10840,-656,-8224,-204,126,-215,2025-01-29 10:35:45,0
-10680,-572,-8152,-187,44,-159,2025-01-29 10:35:45,0
-10576,-556,-8260,-218,89,-198,2025-01-29 10:35:45,0
-10600,-696,-8068,-182,131,-185,2025-01-29 10:35:45,0
-10560,-660,-8180,-145,189,-160,2025-01-29 10:35:45,0
-10608,-656,-8120,-167,242,-176,2025-01-29 10:35:45,0
-10736,-520,-8296,-142,252,-160,2025-01-29 10:35:45,0
-10728,-652,-8148,-125,176,-149,2025-01-29 10:35:45,0
-10700,-728,-8268,-125,109,-128,2025-01-29 10:35:45,1
-10812,-812,-8192,-86,82,-76,2025-01-29 10:35:45,1
-10684,-688,-8124,-17,55,-17,2025-01-29 10:35:45,1
-10576,-684,-8308,26,79,-25,2025-01-29 10:35:45,1
-10732,-824,-8408,110,146,0,2025-01-29 10:35:45,1
-10632,-816,-8272,257,92,40,2025-01-29 10:35:45,1
-10640,-876,-8336,389,147,-2,2025-01-29 10:35:45,1
-10700,-904,-7924,567,301,9,2025-01-29 10:35:45,1
-11012,-664,-8236,659,320,11,2025-01-29 10:35:45,1
-10972,-632,-8352,674,122,32,2025-01-29 10:35:45,1
-11028,-484,-8360,627,-142,158,2025-01-29 10:35:45,1
-10772,-188,-8248,503,-281,98,2025-01-29 10:35:45,1
-10680,-36,-8092,448,-297,-28,2025-01-29 10:35:45,1
-10688,32,-8012,498,-217,-185,2025-01-29 10:35:45,1
-10820,-160,-7624,570,-13,-334,2025-01-29 10:35:45,1
-10840,-288,-7540,679,22,-442,2025-01-29 10:35:45,1
-11028,-604,-7572,818,43,-367,2025-01-29 10:35:45,1
-11008,-924,-7632,990,170,-316,2025-01-29 10:35:45,1
-11088,-1212,-7524,1226,129,-199,2025-01-29 10:35:45,1
-11164,-1504,-7380,1588,-39,-148,2025-01-29 10:35:45,1
-11364,-1432,-7208,2026,-355,-70,2025-01-29 10:35:45,1
-11244,-1172,-7660,2621,-804,64,2025-01-29 10:35:45,1
-10912,-996,-7840,2807,-858,-16,2025-01-29 10:35:45,1
-10912,-692,-7720,2972,-768,-95,2025-01-29 10:35:45,1
-10700,-536,-7740,3174,-707,-22,2025-01-29 10:35:45,1
-10520,-484,-8100,3073,-475,53,2025-01-29 10:35:45,1
-10300,-636,-8216,2964,-207,169,2025-01-29 10:35:45,1
-10360,-844,-8168,2785,60,124,2025-01-29 10:35:45,1
-10620,-816,-8132,2826,453,-42,2025-01-29 10:35:45,1
-10980,-632,-7996,3072,787,-186,2025-01-29 10:35:45,1
-11144,-316,-8224,3234,507,-136,2025-01-29 10:35:45,1
-11100,-392,-8420,3304,-217,93,2025-01-29 10:35:45,1
-10364,-1176,-8168,3236,-570,472,2025-01-29 10:35:45,1
-10004,-2172,-7584,3238,-47,649,2025-01-29 10:35:45,1
-9852,-2804,-7604,3228,507,739,2025-01-29 10:35:45,1
-10500,-2176,-7224,3045,1216,932,2025-01-29 10:35:45,1
-11284,-1472,-6680,2772,1808,910,2025-01-29 10:35:45,1
-12068,-952,-6536,2210,1621,413,2025-01-29 10:35:45,1
-12448,-780,-6364,1633,957,-338,2025-01-29 10:35:45,1
-12620,-752,-6276,1130,246,-1227,2025-01-29 10:35:45,1
-12096,-992,-6156,587,-201,-1933,2025-01-29 10:35:45,1
-11576,-1464,-6016,210,-360,-2253,2025-01-29 10:35:45,1
-10688,-2096,-6216,-174,-128,-2316,2025-01-29 10:35:46,1
-10152,-2716,-6380,-460,752,-2323,2025-01-29 10:35:46,1
-10220,-3256,-6708,-625,1969,-2325,2025-01-29 10:35:46,1
-11032,-3448,-6760,-647,2557,-2169,2025-01-29 10:35:46,1
-11856,-3392,-6556,-560,2215,-1927,2025-01-29 10:35:46,1
-12424,-3328,-6052,-371,1294,-1578,2025-01-29 10:35:46,1
-12344,-3352,-5680,-229,311,-1284,2025-01-29 10:35:46,1
-12036,-3448,-5540,-88,-288,-1038,2025-01-29 10:35:46,1
-11676,-3280,-5596,-136,-475,-790,2025-01-29 10:35:46,1
-11340,-2900,-5832,-257,-257,-542,2025-01-29 10:35:46,1
-11044,-2096,-5988,-604,157,-371,2025-01-29 10:35:46,1
-11044,-1664,-6276,-1154,535,-226,2025-01-29 10:35:46,1
-11016,-1592,-6224,-1669,871,-249,2025-01-29 10:35:46,1
-11236,-1776,-5888,-2198,941,-357,2025-01-29 10:35:46,1
-11216,-2220,-6012,-2539,847,-584,2025-01-29 10:35:46,1
-11196,-2580,-5916,-2688,800,-820,2025-01-29 10:35:46,1
-11172,-2580,-6552,-2716,516,-1066,2025-01-29 10:35:46,1
-10964,-1980,-7268,-2894,603,-1230,2025-01-29 10:35:46,1
-11012,-1936,-7528,-3456,1282,-1420,2025-01-29 10:35:46,1
-11472,-2732,-7044,-3929,1778,-1836,2025-01-29 10:35:46,1
-12568,-3164,-7104,-4266,1230,-2200,2025-01-29 10:35:46,1
-13248,-3052,-6468,-4348,337,-2323,2025-01-29 10:35:46,1
-12836,-3800,-6752,-4151,-515,-2498,2025-01-29 10:35:46,1
-11832,-4440,-8588,-3382,-731,-3169,2025-01-29 10:35:46,1
-12532,-4940,-8288,-2632,-88,-4135,2025-01-29 10:35:46,1
-13520,-5784,-6684,-1287,-186,-4405,2025-01-29 10:35:46,1
-14484,-6332,-6784,-110,-1175,-4010,2025-01-29 10:35:46,1
-15504,-5660,-7728,-7,-2160,-2467,2025-01-29 10:35:46,1
-14832,-4344,-9024,-856,-2403,-605,2025-01-29 10:35:46,1
-13196,-2732,-9392,-1641,-2009,349,2025-01-29 10:35:46,1
-12568,-2012,-9816,-2507,-1311,618,2025-01-29 10:35:46,1
-12072,-2516,-10332,-3086,-603,952,2025-01-29 10:35:46,1
-12124,-3228,-9980,-3212,-113,1027,2025-01-29 10:35:46,1
-12636,-3424,-9444,-2963,-657,1498,2025-01-29 10:35:46,1
-11824,-3104,-9732,-2444,-1929,2099,2025-01-29 10:35:46,1
-10532,-2424,-9484,-1968,-3643,2443,2025-01-29 10:35:46,1
-9128,-1200,-8932,-1567,-4534,2590,2025-01-29 10:35:46,1
-7520,180,-8696,-1478,-4576,2252,2025-01-29 10:35:46,1
-6616,856,-8412,-1730,-3367,1354,2025-01-29 10:35:46,1
-7088,692,-7912,-1842,-1090,473,2025-01-29 10:35:46,1
-8272,-4,-8040,-1548,603,380,2025-01-29 10:35:46,1
-9392,-772,-8012,-1087,998,680,2025-01-29 10:35:46,1
-10500,-1756,-7968,-436,493,1051,2025-01-29 10:35:46,1
-11236,-2136,-7820,288,-415,1818,2025-01-29 10:35:46,1
-11092,-1684,-7144,720,-808,2525,2025-01-29 10:35:46,1
-10784,-912,-7292,998,-934,2906,2025-01-29 10:35:46,1
-10580,-8,-8004,1085,-848,3112,2025-01-29 10:35:46,1
-10720,792,-8472,860,-586,3443,2025-01-29 10:35:46,1
-10800,1504,-8564,604,-390,3750,2025-01-29 10:35:46,1
-10648,2076,-8416,319,-543,3909,2025-01-29 10:35:46,1
-10144,1948,-7764,-2,-568,3663,2025-01-29 10:35:46,1
-10016,1452,-7284,-331,-457,3219,2025-01-29 10:35:46,1
-10020,980,-7128,-464,-258,2783,2025-01-29 10:35:46,1
-10080,360,-6708,-392,-505,2454,2025-01-29 10:35:46,1
-10404,32,-6568,-157,-616,2385,2025-01-29 10:35:46,1
-10388,-128,-6528,-2,-444,2306,2025-01-29 10:35:46,1
-10852,-68,-6092,309,-506,2254,2025-01-29 10:35:46,1
-11252,-200,-5956,704,-715,2121,2025-01-29 10:35:46,1
-11824,-372,-5740,1076,-1004,1921,2025-01-29 10:35:46,1
-12160,-484,-5492,1530,-1804,1658,2025-01-29 10:35:46,1
-11512,40,-5916,1742,-4146,964,2025-01-29 10:35:46,1
-10664,608,-5660,1907,-6019,434,2025-01-29 10:35:46,1
-9892,980,-4724,2146,-6865,-119,2025-01-29 10:35:47,1
-9120,1416,-4360,2314,-6434,-506,2025-01-29 10:35:47,1
-8752,1164,-4136,2191,-4751,-539,2025-01-29 10:35:47,1
-8700,1056,-4168,1972,-1721,-511,2025-01-29 10:35:47,1
-9452,1408,-4944,1653,1735,-740,2025-01-29 10:35:47,1
-11560,1900,-5964,1286,4137,-896,2025-01-29 10:35:47,1
-13368,1656,-6548,917,4281,-847,2025-01-29 10:35:47,1
-15012,1084,-6172,639,3247,-592,2025-01-29 10:35:47,1
-15952,80,-5916,650,1630,-290,2025-01-29 10:35:47,1
-15956,-852,-5884,981,100,-28,2025-01-29 10:35:47,1
-15264,-1220,-5932,1500,-1075,175,2025-01-29 10:35:47,1
-14496,-592,-5220,2347,-1554,385,2025-01-29 10:35:47,1
-14820,-108,-4628,2967,-1412,783,2025-01-29 10:35:47,1
-15312,-364,-4908,3301,-660,1329,2025-01-29 10:35:47,1
-15552,-916,-5004,3467,-249,1992,2025-01-29 10:35:47,1
-14844,-696,-5956,3724,-308,2383,2025-01-29 10:35:47,1
-14528,1156,-7748,3693,313,2866,2025-01-29 10:35:47,1
-14408,3488,-8800,2789,1067,3343,2025-01-29 10:35:47,1
-13252,4392,-9476,1438,894,2732,2025-01-29 10:35:47,1
-13028,4924,-9224,27,245,1110,2025-01-29 10:35:47,1
-12804,4724,-9416,-1847,-1497,-623,2025-01-29 10:35:47,1
-10768,2888,-8560,-2800,-2862,-1486,2025-01-29 10:35:47,1
-9460,760,-6072,-2646,-3592,-2239,2025-01-29 10:35:47,1
-8012,-1404,-5016,-1793,-3226,-2581,2025-01-29 10:35:47,1
-7400,-3300,-5432,-892,-1641,-2784,2025-01-29 10:35:47,1
-7852,-4228,-6420,-188,1444,-2568,2025-01-29 10:35:47,1
-9028,-3844,-7424,738,4729,-2020,2025-01-29 10:35:47,1
-10280,-3384,-7956,1217,5756,-1545,2025-01-29 10:35:47,1
-11692,-2148,-8072,1274,4275,-1524,2025-01-29 10:35:47,1
-12992,-728,-8404,920,1656,-1994,2025-01-29 10:35:47,1
-12876,-12,-8696,612,-679,-2480,2025-01-29 10:35:47,1
-11768,-328,-8948,278,-2961,-2920,2025-01-29 10:35:47,1
-10640,-916,-8704,-28,-4251,-3042,2025-01-29 10:35:47,1
-8900,-1304,-7608,-429,-4455,-3263,2025-01-29 10:35:47,1
-7940,-1832,-7376,-857,-3496,-3546,2025-01-29 10:35:47,1
-8236,-1928,-6832,-1014,-1193,-3463,2025-01-29 10:35:47,1
-8500,-1828,-6620,-1117,998,-3342,2025-01-29 10:35:47,1
-9152,-1748,-6452,-1416,2529,-3509,2025-01-29 10:35:47,1
-10084,-1872,-6180,-1649,3060,-3830,2025-01-29 10:35:47,1
-11288,-2016,-6452,-1741,2928,-3949,2025-01-29 10:35:47,1
-12372,-2168,-5948,-1833,2117,-3558,2025-01-29 10:35:47,1
-12324,-2508,-5824,-1890,1180,-2963,2025-01-29 10:35:47,1
-11760,-2888,-5236,-1821,591,-2629,2025-01-29 10:35:47,1
-10600,-2876,-5464,-1644,410,-2539,2025-01-29 10:35:47,1
-10240,-2284,-6180,-1697,1175,-2344,2025-01-29 10:35:47,1
-10448,-1476,-6460,-1999,2391,-2055,2025-01-29 10:35:47,1
-10424,-1192,-6556,-2598,3495,-1960,2025-01-29 10:35:47,1
-11132,-1384,-5828,-3131,3741,-2138,2025-01-29 10:35:47,1
-11600,-1572,-6204,-3586,3036,-2244,2025-01-29 10:35:47,1
-12128,-1908,-5776,-4000,2229,-2275,2025-01-29 10:35:47,1
-12208,-1940,-5760,-4242,1660,-1997,2025-01-29 10:35:47,1
-11704,-1540,-6112,-4576,1210,-1761,2025-01-29 10:35:47,1
-11044,-1464,-6012,-4903,1015,-1800,2025-01-29 10:35:47,1
-10596,-1612,-6112,-5238,1252,-2056,2025-01-29 10:35:47,1
-11160,-1912,-5976,-5468,1598,-2236,2025-01-29 10:35:47,1
-12096,-2464,-5204,-5426,2023,-2254,2025-01-29 10:35:47,1
-12932,-3044,-5148,-5202,1888,-2545,2025-01-29 10:35:47,1
-13644,-3000,-5128,-4871,901,-2676,2025-01-29 10:35:48,1
-13904,-2728,-4952,-4625,-275,-2653,2025-01-29 10:35:48,1
-14016,-2084,-5144,-4722,-862,-2446,2025-01-29 10:35:48,1
-13248,-1848,-5416,-5018,-646,-2322,2025-01-29 10:35:48,1
-12580,-1908,-7208,-4562,679,-2735,2025-01-29 10:35:48,1
-12560,-1952,-9480,-3945,2948,-3812,2025-01-29 10:35:48,1
-13244,-4460,-10060,-2887,5997,-5783,2025-01-29 10:35:48,1
-15056,-7608,-9324,-890,6673,-7707,2025-01-29 10:35:48,1
-18720,-9316,-8576,1731,2939,-6697,2025-01-29 10:35:48,1
-20636,-8928,-10120,2864,-2477,-2401,2025-01-29 10:35:48,1
-17804,-5616,-11228,2957,-5096,1935,2025-01-29 10:35:48,1
-13764,-1920,-11560,1794,-6879,3223,2025-01-29 10:35:48,1
-11356,-208,-11440,-314,-9029,4260,2025-01-29 10:35:48,1
-8632,20,-9828,-1586,-9562,5640,2025-01-29 10:35:48,1
-5992,-200,-8580,-1984,-8661,6224,2025-01-29 10:35:48,1
-3188,-1128,-7092,-2084,-4724,5038,2025-01-29 10:35:48,1
-2240,-1204,-6188,-1565,608,2446,2025-01-29 10:35:48,1
-4848,-492,-6792,-1155,5410,-173,2025-01-29 10:35:48,1
-9072,708,-7748,-1575,7295,-522,2025-01-29 10:35:48,1
-12128,1796,-9184,-2452,7590,389,2025-01-29 10:35:48,1
-13760,1684,-10436,-3590,6484,1213,2025-01-29 10:35:48,1
-14464,728,-10628,-4382,3383,1796,2025-01-29 10:35:48,1
-13988,-1040,-9256,-4204,-1055,2011,2025-01-29 10:35:48,1
-12648,-2696,-6836,-2998,-5265,2363,2025-01-29 10:35:48,1
-9992,-3296,-6336,-1764,-6551,2519,2025-01-29 10:35:48,1
-8640,-3208,-5760,-679,-5906,2610,2025-01-29 10:35:48,1
-7872,-2328,-5512,369,-3573,2884,2025-01-29 10:35:48,1
-7592,-896,-5896,1222,-538,3057,2025-01-29 10:35:48,1
-8688,428,-6376,1771,1863,3125,2025-01-29 10:35:48,1
-10008,756,-6956,1944,2465,3169,2025-01-29 10:35:48,1
-11080,308,-6796,2113,1888,3157,2025-01-29 10:35:48,1
-11308,-336,-6196,2601,769,2851,2025-01-29 10:35:48,1
-11468,-516,-5744,3204,-213,2686,2025-01-29 10:35:48,1
-11236,-268,-6080,3592,-787,2711,2025-01-29 10:35:48,1
-10752,-216,-6000,3835,-886,2580,2025-01-29 10:35:48,1
-10556,-96,-6152,3880,-716,2304,2025-01-29 10:35:48,1
-10924,-200,-5996,3979,-587,2119,2025-01-29 10:35:48,1
-11284,-264,-5880,4080,-757,1920,2025-01-29 10:35:48,1
-11536,-224,-5700,4154,-1388,1693,2025-01-29 10:35:48,1
-11304,-36,-5784,4080,-2173,1371,2025-01-29 10:35:48,1
-11048,404,-5716,3801,-3239,978,2025-01-29 10:35:48,1
-10700,1916,-5588,3549,-4079,887,2025-01-29 10:35:48,1
-9720,2780,-5648,2898,-3856,862,2025-01-29 10:35:48,1
-9048,2848,-5480,2250,-2480,507,2025-01-29 10:35:48,1
-9204,2272,-6088,1709,102,-18,2025-01-29 10:35:48,1
-10880,1544,-6392,1402,3034,-303,2025-01-29 10:35:48,1
-13940,864,-8132,5013,3617,4978,2025-01-29 10:35:48,1
-14236,3492,-10276,3885,4309,5403,2025-01-29 10:35:48,1
-13244,4700,-10208,2225,3550,5003,2025-01-29 10:35:48,1
-12400,5500,-9096,1243,1816,3215,2025-01-29 10:35:48,1
-11520,4992,-9160,813,-392,936,2025-01-29 10:35:48,1
-11116,2244,-8812,376,-2016,-1034,2025-01-29 10:35:48,1
-10380,76,-8744,461,-3390,-1372,2025-01-29 10:35:48,1
-8692,-1024,-7904,773,-4106,-1273,2025-01-29 10:35:48,1
-7800,-1440,-7416,1120,-2995,-1494,2025-01-29 10:35:49,1
-8056,-2312,-7120,1255,-522,-1279,2025-01-29 10:35:49,1
-8200,-3196,-7700,1233,2379,-886,2025-01-29 10:35:49,1
-8948,-3828,-8308,1824,4246,-642,2025-01-29 10:35:49,1
-9820,-3332,-8520,2735,4420,-694,2025-01-29 10:35:49,1
-11120,-1976,-7916,3241,3499,-945,2025-01-29 10:35:49,1
-11532,-352,-8432,3160,2077,-1421,2025-01-29 10:35:49,1
-11420,564,-8884,2506,1041,-2049,2025-01-29 10:35:49,1
-11472,956,-9132,1646,-166,-2697,2025-01-29 10:35:49,1
-11272,924,-9112,928,-1323,-3109,2025-01-29 10:35:49,1
-10408,472,-8604,28,-1916,-3380,2025-01-29 10:35:49,1
-9744,48,-7776,-675,-1972,-3665,2025-01-29 10:35:49,1
-9220,-468,-7008,-1187,-1804,-3840,2025-01-29 10:35:49,1
-9028,-988,-6660,-1558,-1106,-4027,2025-01-29 10:35:49,1
-9484,-1960,-5968,-1752,12,-4138,2025-01-29 10:35:49,1
-9792,-2684,-5964,-1789,882,-3995,2025-01-29 10:35:49,1
-9908,-3280,-5928,-1707,1409,-3737,2025-01-29 10:35:49,1
-11112,-3260,-5740,-1512,1797,-3204,2025-01-29 10:35:49,1
-11364,-3120,-6000,-1141,2056,-2726,2025-01-29 10:35:49,1
-11484,-3000,-6172,-911,1592,-2390,2025-01-29 10:35:49,1
-11616,-3100,-5924,-822,1107,-1917,2025-01-29 10:35:49,1
-11208,-3124,-6296,-694,777,-1418,2025-01-29 10:35:49,1
-11016,-2748,-6156,-596,754,-963,2025-01-29 10:35:49,1
-10612,-2088,-6196,-739,903,-581,2025-01-29 10:35:49,1
-10456,-1296,-6304,-1154,1255,-349,2025-01-29 10:35:49,1
-9932,-736,-6244,-1617,1822,-162,2025-01-29 10:35:49,1
-9552,-840,-6452,-2101,2735,113,2025-01-29 10:35:49,1
-9756,-1080,-6564,-2590,3802,199,2025-01-29 10:35:49,1
-10336,-1720,-6136,-3036,4771,37,2025-01-29 10:35:49,1
-10992,-1816,-6488,-3230,5191,-467,2025-01-29 10:35:49,1
-12064,-1872,-7328,-3526,4654,-782,2025-01-29 10:35:49,1
-12848,-1828,-7092,-3690,3523,-960,2025-01-29 10:35:49,1
-13072,-1532,-7548,-3920,2348,-1207,2025-01-29 10:35:49,1
-12728,-1528,-7480,-4209,1252,-1434,2025-01-29 10:35:49,1
-12668,-2032,-7180,-4265,615,-1851,2025-01-29 10:35:49,1
-12076,-3180,-7252,-4106,318,-2695,2025-01-29 10:35:49,1
-12372,-3848,-6596,-3768,108,-3799,2025-01-29 10:35:49,1
-12908,-3592,-6680,-3325,-570,-4157,2025-01-29 10:35:49,1
-12232,-1492,-8152,-2597,-539,-4176,2025-01-29 10:35:49,1
-12296,-1580,-9448,-2558,907,-4687,2025-01-29 10:35:49,1
-12216,-3668,-8656,-2225,2202,-5386,2025-01-29 10:35:49,1
-13600,-6268,-8536,-1093,2714,-6032,2025-01-29 10:35:49,1
-15504,-8040,-9520,238,1897,-4618,2025-01-29 10:35:49,1
-17100,-7700,-10392,896,392,-1115,2025-01-29 10:35:49,1
-15372,-5408,-10032,1256,-932,1993,2025-01-29 10:35:49,1
-13508,-2584,-10892,976,-2472,2950,2025-01-29 10:35:49,1
-13120,-512,-11540,-488,-4671,4203,2025-01-29 10:35:49,1
-11332,-372,-10560,-1138,-6238,5509,2025-01-29 10:35:49,1
-7972,-292,-10220,-871,-6442,5622,2025-01-29 10:35:49,1
-5716,72,-8628,-433,-5567,4249,2025-01-29 10:35:49,1
-4648,200,-6816,423,-3743,2248,2025-01-29 10:35:49,1
-5416,316,-6884,1020,-970,768,2025-01-29 10:35:49,1
-7152,848,-8700,753,1733,727,2025-01-29 10:35:49,1
-7984,1492,-9480,-20,3631,1092,2025-01-29 10:35:49,1
-8944,1592,-9756,-1032,4738,1069,2025-01-29 10:35:49,1
-10464,1012,-9600,-1981,4634,839,2025-01-29 10:35:49,1
-12240,-60,-9344,-2465,3135,899,2025-01-29 10:35:49,1
-13028,-716,-9216,-2411,1037,1291,2025-01-29 10:35:49,1
-12624,-1032,-8664,-2224,-1547,1588,2025-01-29 10:35:49,1
-11588,-1016,-7956,-1839,-3681,1757,2025-01-29 10:35:49,1
-10028,-712,-7324,-1272,-4617,1884,2025-01-29 10:35:49,1
-8692,48,-6712,-766,-4112,1790,2025-01-29 10:35:49,1
-7940,616,-6152,-368,-2670,1560,2025-01-29 10:35:49,1
-7688,920,-6056,-135,-708,1217,2025-01-29 10:35:49,1
-8100,508,-6344,23,1478,716,2025-01-29 10:35:50,1
-9788,100,-6332,218,2652,544,2025-01-29 10:35:50,1
-10228,-28,-7036,478,2886,586,2025-01-29 10:35:50,1
-11000,-76,-7308,706,2540,493,2025-01-29 10:35:50,1
-11696,276,-7416,767,1457,388,2025-01-29 10:35:50,1
-12328,564,-7472,712,34,320,2025-01-29 10:35:50,1
-12460,712,-7404,583,-1082,340,2025-01-29 10:35:50,1
-11744,696,-7136,509,-2062,283,2025-01-29 10:35:50,1
-11040,320,-6536,414,-2521,41,2025-01-29 10:35:50,1
-9844,164,-5912,532,-2385,-252,2025-01-29 10:35:50,1
-9388,20,-5632,601,-1563,-517,2025-01-29 10:35:50,1
-9004,340,-5976,652,-496,-839,2025-01-29 10:35:50,1
-9680,668,-6768,574,895,-1083,2025-01-29 10:35:50,1
-10512,1264,-6704,511,1608,-1178,2025-01-29 10:35:50,1
-11640,1840,-7376,293,1211,-1185,2025-01-29 10:35:50,1
-12612,1404,-6552,70,314,-1237,2025-01-29 10:35:50,1
-13592,-300,-5116,142,-717,-1232,2025-01-29 10:35:50,1
-13764,-1300,-4996,642,-1976,-932,2025-01-29 10:35:50,1
-13184,-1648,-5528,1093,-2888,-693,2025-01-29 10:35:50,1
-12544,-1512,-5340,1640,-3215,-324,2025-01-29 10:35:50,1
-11544,-764,-5268,2051,-2865,11,2025-01-29 10:35:50,1
-10948,-76,-4916,2236,-1287,429,2025-01-29 10:35:50,1
-10692,-56,-5144,2357,763,700,2025-01-29 10:35:50,1
-10624,-56,-5872,2648,2705,574,2025-01-29 10:35:50,1
-11496,-172,-6736,2966,4101,-23,2025-01-29 10:35:50,1
-13976,-16,-6180,3332,4893,-172,2025-01-29 10:35:50,1
-15680,240,-8448,3193,5084,723,2025-01-29 10:35:50,1
-15960,564,-10644,2312,4910,1575,2025-01-29 10:35:50,1
-16048,2240,-12624,440,4218,2054,2025-01-29 10:35:50,1
-15736,3940,-12384,-1666,2677,2322,2025-01-29 10:35:50,1
-14052,5128,-11348,-3094,390,1843,2025-01-29 10:35:50,1
-12716,5628,-10320,-3771,-1726,619,2025-01-29 10:35:50,1
-11484,4444,-8544,-3767,-2895,-1450,2025-01-29 10:35:50,1
-10024,2196,-7024,-3296,-3903,-3463,2025-01-29 10:35:50,1
-8264,-288,-6692,-2359,-5067,-4616,2025-01-29 10:35:50,1
-7232,-1908,-6992,-1786,-4706,-4674,2025-01-29 10:35:50,1
-7012,-2292,-8532,-1484,-1111,-3742,2025-01-29 10:35:50,1
-6740,-1916,-9556,-1552,2798,-2981,2025-01-29 10:35:50,1
-7596,-1224,-9916,-1839,4979,-2996,2025-01-29 10:35:50,1
-9648,-1228,-10044,-2366,4826,-2921,2025-01-29 10:35:50,1
-11180,-1636,-9208,-2330,2503,-2685,2025-01-29 10:35:50,1
-11004,-1480,-9252,-2168,-57,-2932,2025-01-29 10:35:50,1
-10780,-1032,-10064,-2599,-1372,-3362,2025-01-29 10:35:50,7
-10260,-456,-10416,-3292,-2006,-3688,2025-01-29 10:35:50,7
-9352,-4,-10484,-4256,-2169,-4113,2025-01-29 10:35:50,7
-8964,-12,-10348,-5231,-1757,-4698,2025-01-29 10:35:50,7
-9064,-148,-9328,-5843,-1170,-5061,2025-01-29 10:35:50,7
-8796,-672,-9040,-6228,-909,-5672,2025-01-29 10:35:50,7
-9032,-1304,-9124,-6348,-960,-6293,2025-01-29 10:35:50,7
-9780,-1968,-9052,-6479,-846,-6671,2025-01-29 10:35:50,7
-10000,-2352,-9040,-6703,-616,-6821,2025-01-29 10:35:50,7
-10104,-2400,-8948,-6971,-459,-6584,2025-01-29 10:35:50,7
-9948,-2432,-8344,-7047,-257,-6332,2025-01-29 10:35:50,7
-9752,-2544,-7480,-6846,62,-6218,2025-01-29 10:35:50,7
-9348,-2716,-7596,-6639,359,-6202,2025-01-29 10:35:50,7
-9344,-2736,-7812,-6431,639,-6077,2025-01-29 10:35:50,7
-9596,-2476,-8312,-6324,1083,-5760,2025-01-29 10:35:50,7
-9964,-1996,-8584,-6483,1608,-5330,2025-01-29 10:35:50,7
-10140,-1616,-8236,-6771,2073,-4960,2025-01-29 10:35:50,7
-10656,-848,-9156,-7337,2069,-5197,2025-01-29 10:35:50,7
-11852,-528,-9092,-7934,683,-5388,2025-01-29 10:35:50,7
-12172,-412,-8888,-8466,-1107,-5084,2025-01-29 10:35:51,7
-11576,-148,-8624,-9125,-2692,-5057,2025-01-29 10:35:51,7
-10916,-264,-8484,-9733,-4038,-5521,2025-01-29 10:35:51,7
-10604,-604,-8192,-10102,-4769,-5696,2025-01-29 10:35:51,7
-9756,-1420,-8100,-10301,-4056,-5533,2025-01-29 10:35:51,7
-8712,-2428,-8064,-10332,-2684,-5366,2025-01-29 10:35:51,7
-7456,-3412,-8068,-10420,-623,-5730,2025-01-29 10:35:51,7
-8368,-2644,-8260,-10605,2216,-6249,2025-01-29 10:35:51,7
-10072,-1412,-7728,-11005,3432,-6507,2025-01-29 10:35:51,7
-11440,-1004,-8104,-11495,2957,-6760,2025-01-29 10:35:51,7
-12512,-712,-8132,-12117,914,-7063,2025-01-29 10:35:51,7
-12564,-1024,-8164,-12492,-1551,-7381,2025-01-29 10:35:51,7
-12188,-1204,-8436,-12783,-3513,-7781,2025-01-29 10:35:51,7
-12152,-524,-8512,-13020,-4148,-7685,2025-01-29 10:35:51,7
-11064,-460,-8460,-13424,-4170,-7172,2025-01-29 10:35:51,7
-8860,-1456,-8224,-14050,-4021,-7205,2025-01-29 10:35:51,7
-8456,-1436,-7644,-13922,-3169,-7407,2025-01-29 10:35:51,7
-8360,-1972,-7832,-13733,-1367,-7727,2025-01-29 10:35:51,7
-9068,-2972,-7692,-13450,851,-8446,2025-01-29 10:35:51,7
-11100,-3356,-7960,-12946,2221,-8865,2025-01-29 10:35:51,7
-13160,-3640,-8400,-12710,2165,-8607,2025-01-29 10:35:51,7
-14252,-3564,-8100,-12747,657,-8250,2025-01-29 10:35:51,7
-14392,-3544,-7124,-12655,-1232,-7706,2025-01-29 10:35:51,7
-13200,-2980,-7216,-12661,-2308,-6951,2025-01-29 10:35:51,7
-11344,-2340,-7420,-12670,-2326,-6822,2025-01-29 10:35:51,7
-10324,-2776,-8332,-12483,-973,-7177,2025-01-29 10:35:51,7
-9588,-3368,-9152,-11674,587,-7830,2025-01-29 10:35:51,7
-9860,-4608,-9588,-10399,2185,-8633,2025-01-29 10:35:51,7
-10932,-4856,-9276,-9082,2774,-8695,2025-01-29 10:35:51,7
-11276,-4152,-8776,-8656,2150,-8461,2025-01-29 10:35:51,7
-11484,-2200,-8500,-9092,860,-8158,2025-01-29 10:35:51,7
-12212,-180,-8136,-10028,-264,-7647,2025-01-29 10:35:51,7
-11484,1120,-8804,-11361,-1102,-6969,2025-01-29 10:35:51,7
-10164,1396,-9964,-13098,-1558,-6335,2025-01-29 10:35:51,7
-9624,604,-9764,-14005,-1253,-6117,2025-01-29 10:35:51,7
-8104,-952,-9140,-14302,198,-6770,2025-01-29 10:35:51,7
-8656,-1412,-8140,-13782,1080,-7633,2025-01-29 10:35:51,7
-9388,-936,-8552,-13445,1574,-7553,2025-01-29 10:35:51,7
-9788,420,-9628,-13408,2195,-7029,2025-01-29 10:35:51,7
-9556,1188,-10748,-13813,2820,-6892,2025-01-29 10:35:51,7
-9544,1400,-10792,-14246,3104,-7254,2025-01-29 10:35:51,7
-9876,716,-10204,-14602,2764,-7747,2025-01-29 10:35:51,7
-10248,-400,-9176,-14451,1450,-8013,2025-01-29 10:35:51,7
-10284,-688,-8388,-13936,627,-7994,2025-01-29 10:35:51,7
-10140,-884,-8264,-13364,145,-8048,2025-01-29 10:35:51,7
-10232,-572,-7916,-12654,99,-7905,2025-01-29 10:35:51,7
-9932,288,-9468,-12462,-207,-7764,2025-01-29 10:35:51,7
-9744,1024,-9372,-12824,-542,-7807,2025-01-29 10:35:51,7
-9332,1068,-9484,-13280,-1003,-7931,2025-01-29 10:35:51,7
-9136,1480,-9736,-13822,-1019,-8085,2025-01-29 10:35:51,7
-8548,1336,-9920,-14487,-794,-8418,2025-01-29 10:35:51,7
-8920,1008,-9476,-14710,-295,-8762,2025-01-29 10:35:51,7
-9272,344,-9588,-14527,78,-8946,2025-01-29 10:35:51,7
-9552,-552,-9664,-14196,333,-9090,2025-01-29 10:35:51,7
-9828,-1228,-8940,-13771,210,-9235,2025-01-29 10:35:51,7
-10184,-2092,-8384,-13362,-100,-9339,2025-01-29 10:35:51,7
-10640,-2424,-7684,-12737,-299,-9190,2025-01-29 10:35:51,7
-10884,-2320,-7768,-11807,-361,-8752,2025-01-29 10:35:51,7
-10868,-1900,-7812,-10941,-516,-8291,2025-01-29 10:35:51,7
-10236,-1004,-8212,-10026,-1055,-7989,2025-01-29 10:35:51,7
-9448,408,-9304,-9688,-1414,-7954,2025-01-29 10:35:52,7
-9040,1436,-9260,-9687,-1255,-7951,2025-01-29 10:35:52,7
-8280,2276,-9912,-9970,-903,-8096,2025-01-29 10:35:52,7
-8080,2512,-10036,-10516,-264,-8436,2025-01-29 10:35:52,7
-8260,2348,-9876,-10835,434,-8727,2025-01-29 10:35:52,7
-8576,1272,-9668,-11047,820,-8786,2025-01-29 10:35:52,7
-9208,56,-8864,-10849,1011,-8809,2025-01-29 10:35:52,7
-9808,-1104,-8140,-10378,1236,-8641,2025-01-29 10:35:52,7
-10336,-1360,-7628,-9391,725,-8381,2025-01-29 10:35:52,7
-9988,-1080,-8648,-8636,-355,-7925,2025-01-29 10:35:52,7
-9264,-976,-8904,-7961,-907,-7540,2025-01-29 10:35:52,7
-8560,-1000,-8832,-7549,-874,-7460,2025-01-29 10:35:52,7
-8796,-1204,-8088,-7130,21,-7141,2025-01-29 10:35:52,7
-8872,-1504,-8188,-6633,1479,-6512,2025-01-29 10:35:52,7
-8628,-1776,-9936,-6550,2920,-5886,2025-01-29 10:35:52,7
-9020,-1604,-10596,-6604,4375,-5655,2025-01-29 10:35:52,7
-9500,-1724,-11600,-6814,5146,-5518,2025-01-29 10:35:52,7
-9864,-1968,-11284,-6809,5073,-5233,2025-01-29 10:35:52,7
-9628,-2188,-10796,-6497,4649,-4947,2025-01-29 10:35:52,7
-8964,-2596,-10704,-6099,4684,-5116,2025-01-29 10:35:52,7
-9084,-3012,-10872,-5906,5010,-5367,2025-01-29 10:35:52,7
-9512,-3788,-10124,-5622,5272,-5446,2025-01-29 10:35:52,7
-9280,-4288,-9736,-5061,4960,-5549,2025-01-29 10:35:52,7
-9208,-4300,-9488,-4144,4170,-5878,2025-01-29 10:35:52,7
-9136,-3684,-9132,-3405,3297,-6458,2025-01-29 10:35:52,7
-8956,-1304,-7228,-3074,-104,-6936,2025-01-29 10:35:52,7
-8592,-1004,-7544,-3570,-379,-6733,2025-01-29 10:35:52,7
-8012,-1420,-8632,-4525,-235,-5963,2025-01-29 10:35:52,7
-7656,-2496,-9668,-5517,362,-4960,2025-01-29 10:35:52,7
-7148,-4148,-10068,-6285,1514,-3894,2025-01-29 10:35:52,7
-7396,-5080,-9392,-6523,2569,-3384,2025-01-29 10:35:52,7
-8384,-5376,-8360,-6177,2672,-3262,2025-01-29 10:35:52,7
-9596,-5136,-7556,-5369,1512,-2755,2025-01-29 10:35:52,7
-9776,-4980,-6688,-4319,218,-2100,2025-01-29 10:35:52,7
-8512,-4756,-6584,-3370,-1152,-1743,2025-01-29 10:35:52,7
-6552,-4436,-8272,-2636,-2232,-1866,2025-01-29 10:35:52,7
-5072,-4268,-11020,-2469,-2247,-1919,2025-01-29 10:35:52,7
-6008,-3892,-10904,-2243,-552,-1583,2025-01-29 10:35:52,7
-7676,-3208,-8988,-2186,1115,-1135,2025-01-29 10:35:52,7
-8952,-1804,-7468,-2293,1682,-754,2025-01-29 10:35:52,2
-10232,-796,-8232,-2742,2487,-137,2025-01-29 10:35:52,2
-10236,228,-9112,-3736,2961,727,2025-01-29 10:35:52,2
-9440,840,-8976,-3637,758,529,2025-01-29 10:35:52,2
-9908,540,-9540,-3245,-1742,-347,2025-01-29 10:35:52,2
-8468,-228,-9360,-2467,-4226,-958,2025-01-29 10:35:52,2
-9640,-1440,-10880,-2516,-3614,-998,2025-01-29 10:35:52,2
-8332,-1880,-11620,-2976,-2685,-636,2025-01-29 10:35:52,2
-8860,-1944,-10120,-2946,-3897,-277,2025-01-29 10:35:52,2
-10360,-1016,-9500,-2860,-5139,-485,2025-01-29 10:35:52,2
-12612,368,-9808,-2766,-6138,-1124,2025-01-29 10:35:52,2
-12840,48,-9744,-3146,-7236,-1022,2025-01-29 10:35:52,2
-11440,140,-9416,-3318,-11883,-188,2025-01-29 10:35:52,2
-10964,148,-7736,-3183,-13678,692,2025-01-29 10:35:52,2
-9788,76,-7536,-3086,-11641,958,2025-01-29 10:35:52,2
-9896,1032,-7232,-4050,-8708,716,2025-01-29 10:35:52,2
-11252,1216,-7520,-4146,-5540,-123,2025-01-29 10:35:52,2
-11816,324,-6636,-4101,-3933,-503,2025-01-29 10:35:52,2
-12076,-608,-6704,-3558,-4048,-619,2025-01-29 10:35:52,2
-11524,-900,-6912,-3222,-3696,-648,2025-01-29 10:35:52,2
-10764,4,-7344,-2778,-3768,-953,2025-01-29 10:35:52,2
-11824,1064,-6668,-3273,-4622,-732,2025-01-29 10:35:53,2
-12156,1252,-5104,-3166,-5641,-748,2025-01-29 10:35:53,2
-12820,1072,-4860,-2666,-6655,-798,2025-01-29 10:35:53,2
-12716,576,-4660,-2471,-7271,-425,2025-01-29 10:35:53,2
-12180,120,-3920,-2192,-7095,-373,2025-01-29 10:35:53,2
-12312,904,-3684,-1771,-6675,-933,2025-01-29 10:35:53,2
-13624,1124,-4220,-1690,-6905,-974,2025-01-29 10:35:53,2
-14580,1112,-4184,-1632,-7375,-383,2025-01-29 10:35:53,2
-14156,872,-3760,-1485,-7170,92,2025-01-29 10:35:53,2
-13576,348,-3144,-1235,-6589,462,2025-01-29 10:35:53,2
-13296,-344,-992,-827,-6447,685,2025-01-29 10:35:53,2
-13684,-848,-228,-596,-4788,317,2025-01-29 10:35:53,2
-14892,372,-2596,-1014,-2550,-131,2025-01-29 10:35:53,2
-15784,1184,-5020,-1469,-1827,-612,2025-01-29 10:35:53,2
-14864,724,-4388,-1313,-3849,-797,2025-01-29 10:35:53,2
-13132,256,-3972,-948,-6616,-570,2025-01-29 10:35:53,2
-11132,-164,-4204,-806,-6795,-322,2025-01-29 10:35:53,2
-12840,240,-3256,-1305,-3813,-157,2025-01-29 10:35:53,2
-14940,420,-2632,-1327,-1765,208,2025-01-29 10:35:53,2
-17072,392,-3368,-1264,-2810,-151,2025-01-29 10:35:53,2
-17616,-688,-2848,-999,-5038,-600,2025-01-29 10:35:53,2
-16948,-1068,-2932,-724,-6478,-609,2025-01-29 10:35:53,2
-15740,-140,-1052,-5,-6367,-588,2025-01-29 10:35:53,2
-15176,1636,-872,380,-5586,-451,2025-01-29 10:35:53,2
-14132,1712,-972,642,-4349,-772,2025-01-29 10:35:53,2
-15076,860,-1580,798,-3368,-1212,2025-01-29 10:35:53,2
-16528,-32,-1652,733,-3496,-739,2025-01-29 10:35:53,2
-16300,36,-924,1014,-3768,-197,2025-01-29 10:35:53,2
-15288,816,-700,1337,-3585,-344,2025-01-29 10:35:53,2
-14168,1180,-904,1756,-3603,-941,2025-01-29 10:35:53,2
-13744,1316,-560,2276,-3536,-1231,2025-01-29 10:35:53,2
-14088,1096,-656,2537,-3131,-1029,2025-01-29 10:35:53,2
-14884,680,-1160,2442,-2091,-511,2025-01-29 10:35:53,2
-14880,696,-2264,2240,-1751,195,2025-01-29 10:35:53,2
-13764,1132,-2632,2009,-2674,535,2025-01-29 10:35:53,2
-12372,1276,-2256,1812,-3728,168,2025-01-29 10:35:53,2
-11680,972,-1536,1739,-3815,-237,2025-01-29 10:35:53,2
-12192,496,-1192,1586,-3309,-501,2025-01-29 10:35:53,2
-14824,180,-652,1326,-3293,-289,2025-01-29 10:35:53,2
-14168,-436,-1580,1153,-3027,336,2025-01-29 10:35:53,2
-13892,-432,-1340,954,-3596,545,2025-01-29 10:35:53,2
-13940,-692,608,1090,-4259,266,2025-01-29 10:35:53,2
-12676,-812,1648,1522,-4421,-489,2025-01-29 10:35:53,2
-12884,-576,1272,1605,-3427,-968,2025-01-29 10:35:53,2
-13796,-44,720,1572,-2456,-980,2025-01-29 10:35:53,2
-14636,272,180,1432,-2067,-890,2025-01-29 10:35:53,2
-15412,396,348,1249,-1971,-587,2025-01-29 10:35:53,2
-16156,140,944,1102,-2196,-124,2025-01-29 10:35:53,2
-16164,-164,1320,1032,-2533,362,2025-01-29 10:35:53,2
-14976,192,1284,848,-2881,383,2025-01-29 10:35:53,2
-14308,52,1644,802,-3214,153,2025-01-29 10:35:53,2
-14196,-4,2120,773,-2748,132,2025-01-29 10:35:53,2
-13968,-8,2108,813,-2213,424,2025-01-29 10:35:53,2
-13636,168,1988,728,-1306,586,2025-01-29 10:35:53,2
-13744,368,2276,737,-795,630,2025-01-29 10:35:53,2
-13656,272,2048,709,-603,526,2025-01-29 10:35:53,2
-13728,312,1816,745,-647,318,2025-01-29 10:35:53,2
-13488,284,1432,758,-916,104,2025-01-29 10:35:53,2
-13280,420,1620,594,-1407,40,2025-01-29 10:35:53,2
-13036,576,1700,488,-1499,-56,2025-01-29 10:35:53,2
-12732,472,1876,532,-1331,-390,2025-01-29 10:35:53,2
-12360,-12,1520,586,-503,-490,2025-01-29 10:35:54,2
-12680,-44,1084,518,-154,-579,2025-01-29 10:35:54,2
-13548,-112,1180,519,-167,-499,2025-01-29 10:35:54,2
-13888,68,648,390,-153,-221,2025-01-29 10:35:54,2
-13968,100,868,229,-401,-88,2025-01-29 10:35:54,2
-14008,240,1240,111,-403,10,2025-01-29 10:35:54,2
-13940,312,1364,-5,-101,-2,2025-01-29 10:35:54,2
-14356,8,1420,-34,195,3,2025-01-29 10:35:54,2
-14184,104,1572,2,98,-15,2025-01-29 10:35:54,2
-13904,208,1552,63,-9,-151,2025-01-29 10:35:54,2
-13900,336,1668,153,-121,-272,2025-01-29 10:35:54,2
-13896,336,2004,224,-101,-364,2025-01-29 10:35:54,2
-13784,384,1812,247,-3,-384,2025-01-29 10:35:54,2
-13788,380,1940,321,54,-419,2025-01-29 10:35:54,2
-13620,480,1932,274,168,-457,2025-01-29 10:35:54,2
-13656,496,1744,221,252,-518,2025-01-29 10:35:54,2
-13724,580,1832,127,309,-538,2025-01-29 10:35:54,2
-13852,520,1552,7,425,-506,2025-01-29 10:35:54,2
-13920,500,1404,-98,421,-420,2025-01-29 10:35:54,2
-13892,340,1324,-208,372,-335,2025-01-29 10:35:54,2
-13880,232,1188,-328,374,-277,2025-01-29 10:35:54,2
-13828,92,1224,-409,248,-182,2025-01-29 10:35:54,2
-13820,180,1388,-415,165,-155,2025-01-29 10:35:54,2
-13820,100,1560,-446,207,-178,2025-01-29 10:35:54,2
-13768,192,1476,-447,261,-231,2025-01-29 10:35:54,2
-13860,76,1412,-428,321,-313,2025-01-29 10:35:54,2
-13840,76,1452,-435,326,-356,2025-01-29 10:35:54,2
-13964,-32,1528,-459,426,-380,2025-01-29 10:35:54,2
-14096,-4,1356,-427,406,-390,2025-01-29 10:35:54,2
-13936,12,1180,-423,214,-313,2025-01-29 10:35:54,2
-13824,-160,1276,-406,-18,-235,2025-01-29 10:35:54,2
-13912,32,1552,-408,-7,-197,2025-01-29 10:35:54,2
-13816,-104,1464,-405,-58,-245,2025-01-29 10:35:54,2
-13792,36,1528,-410,-136,-270,2025-01-29 10:35:54,2
-13784,36,1552,-401,-124,-343,2025-01-29 10:35:54,2
-13844,56,1560,-368,-59,-350,2025-01-29 10:35:54,2
-13844,32,1392,-395,-38,-330,2025-01-29 10:35:54,2
-13940,-44,1656,-430,-7,-264,2025-01-29 10:35:54,2
-13844,-64,1516,-447,-53,-196,2025-01-29 10:35:54,2
-13932,-76,1404,-487,-52,-165,2025-01-29 10:35:54,2
-13800,-32,1784,-497,-64,-169,2025-01-29 10:35:54,2
-13808,148,1768,-476,-12,-209,2025-01-29 10:35:54,2
-13864,120,1704,-440,73,-218,2025-01-29 10:35:54,2
-13756,204,1708,-494,112,-219,2025-01-29 10:35:54,2
-13784,92,1728,-503,183,-207,2025-01-29 10:35:54,2
-13836,140,1740,-510,248,-215,2025-01-29 10:35:54,2
-13856,68,1724,-515,257,-212,2025-01-29 10:35:54,2
-13968,144,1660,-513,283,-203,2025-01-29 10:35:54,2
-13824,40,1724,-508,233,-172,2025-01-29 10:35:54,2
-14000,68,1636,-517,228,-167,2025-01-29 10:35:54,2
-13844,0,1688,-518,251,-141,2025-01-29 10:35:54,2
-13840,16,1712,-540,318,-121,2025-01-29 10:35:54,2
-13840,20,1628,-552,349,-110,2025-01-29 10:35:54,2
-13940,80,1408,-541,314,-147,2025-01-29 10:35:54,2
-13844,156,1532,-510,277,-162,2025-01-29 10:35:54,2
-13756,112,1636,-493,230,-137,2025-01-29 10:35:54,2
-13816,100,1236,-473,253,-169,2025-01-29 10:35:54,2
-13860,140,1540,-445,226,-180,2025-01-29 10:35:55,2
-13832,12,1532,-466,227,-170,2025-01-29 10:35:55,2
-13932,-12,1484,-454,168,-146,2025-01-29 10:35:55,2
-13848,120,1572,-443,167,-140,2025-01-29 10:35:55,2
-13760,84,1460,-436,146,-120,2025-01-29 10:35:55,2
-13768,92,1404,-441,134,-144,2025-01-29 10:35:55,2
-13856,20,1756,-468,148,-159,2025-01-29 10:35:55,2
-13932,64,1568,-434,148,-169,2025-01-29 10:35:55,2
-13852,24,1612,-430,168,-159,2025-01-29 10:35:55,2
-13884,-120,1564,-417,157,-96,2025-01-29 10:35:55,2
-13888,8,1404,-413,130,-34,2025-01-29 10:35:55,2
-13724,-8,1576,-399,143,-21,2025-01-29 10:35:55,2
-13744,0,1612,-390,78,-19,2025-01-29 10:35:55,2
-13916,20,1624,-409,121,-49,2025-01-29 10:35:55,2
-13840,92,1836,-406,190,-101,2025-01-29 10:35:55,2
-13860,88,1712,-383,367,-205,2025-01-29 10:35:55,2
-13756,144,1572,-335,321,-270,2025-01-29 10:35:55,2
-13896,208,1348,-319,234,-250,2025-01-29 10:35:55,2
-13896,260,1572,-317,186,-230,2025-01-29 10:35:55,2
-13836,160,1512,-267,111,-212,2025-01-29 10:35:55,2
-13712,216,1572,-308,138,-223,2025-01-29 10:35:55,2
-13764,284,1616,-317,149,-229,2025-01-29 10:35:55,2
-13812,232,1532,-347,190,-247,2025-01-29 10:35:55,2
-13712,96,1580,-322,276,-257,2025-01-29 10:35:55,2
-13916,144,1588,-357,251,-220,2025-01-29 10:35:55,2
-13816,120,1588,-334,267,-243,2025-01-29 10:35:55,2
-13808,80,1492,-318,277,-240,2025-01-29 10:35:55,2
-13860,88,1428,-302,264,-243,2025-01-29 10:35:55,2
-13864,24,1572,-261,206,-202,2025-01-29 10:35:55,2
-13804,112,1560,-284,208,-205,2025-01-29 10:35:55,2
-13732,112,1516,-252,245,-238,2025-01-29 10:35:55,2
-13864,104,1496,-245,252,-244,2025-01-29 10:35:55,2
-13916,136,1428,-211,231,-250,2025-01-29 10:35:55,2
-13836,80,1552,-208,210,-243,2025-01-29 10:35:55,2
-13872,132,1448,-222,176,-188,2025-01-29 10:35:55,2
-13848,196,1596,-214,180,-212,2025-01-29 10:35:55,2
-13852,104,1676,-181,155,-218,2025-01-29 10:35:55,2
-13828,-8,1604,-197,154,-189,2025-01-29 10:35:55,2
-13816,-56,1632,-156,194,-169,2025-01-29 10:35:55,2
-13872,24,1552,-155,222,-186,2025-01-29 10:35:55,2
-13920,0,1384,-174,240,-186,2025-01-29 10:35:55,2
-13880,104,1264,-138,226,-211,2025-01-29 10:35:55,2
-13904,112,1376,-138,212,-198,2025-01-29 10:35:55,2
-13916,64,1616,-144,195,-190,2025-01-29 10:35:55,2
-13740,-8,1600,-166,194,-158,2025-01-29 10:35:55,2
-13824,-36,1520,-135,225,-172,2025-01-29 10:35:55,2
-13812,-8,1636,-154,177,-171,2025-01-29 10:35:55,2
-13740,64,1540,-157,183,-174,2025-01-29 10:35:55,2
-13748,68,1612,-137,174,-154,2025-01-29 10:35:55,2
-13764,160,1528,-148,132,-159,2025-01-29 10:35:55,2
-13748,88,1532,-156,173,-181,2025-01-29 10:35:55,2
-13832,80,1508,-115,226,-213,2025-01-29 10:35:55,2
-13824,96,1332,-146,235,-201,2025-01-29 10:35:55,2
-13992,48,1436,-169,221,-161,2025-01-29 10:35:55,2
-13884,-60,1488,-168,185,-142,2025-01-29 10:35:55,2
-13836,48,1480,-173,211,-150,2025-01-29 10:35:55,2
-13880,68,1712,-186,285,-160,2025-01-29 10:35:55,2
-13956,68,1388,-156,271,-208,2025-01-29 10:35:55,2
-13856,128,1372,-156,93,-148,2025-01-29 10:35:55,2
-13924,128,1528,-158,54,-143,2025-01-29 10:35:55,2
-13868,76,1532,-172,60,-125,2025-01-29 10:35:55,2
-13808,116,1680,-173,67,-145,2025-01-29 10:35:55,2
-13736,60,1764,-161,157,-198,2025-01-29 10:35:55,2
-13784,60,1540,-159,183,-187,2025-01-29 10:35:56,2
-13832,-84,1608,-174,196,-166,2025-01-29 10:35:56,2
-13896,68,1476,-183,193,-159,2025-01-29 10:35:56,2
-13832,56,1464,-195,166,-162,2025-01-29 10:35:56,2
-13992,-28,1504,-180,148,-162,2025-01-29 10:35:56,2
-13864,-16,1604,-202,151,-192,2025-01-29 10:35:56,2
-13808,20,1480,-184,93,-172,2025-01-29 10:35:56,2
-13880,-44,1532,-163,130,-162,2025-01-29 10:35:56,2
-13776,72,1540,-189,143,-160,2025-01-29 10:35:56,2
-13836,12,1472,-174,160,-154,2025-01-29 10:35:56,2
-13880,-4,1500,-188,144,-178,2025-01-29 10:35:56,2
-13860,144,1456,-192,137,-154,2025-01-29 10:35:56,2
-13788,176,1656,-194,101,-141,2025-01-29 10:35:56,2
-13724,76,1572,-195,136,-156,2025-01-29 10:35:56,2
-13852,52,1576,-197,165,-168,2025-01-29 10:35:56,2
-13816,108,1620,-192,177,-193,2025-01-29 10:35:56,2
-13784,152,1376,-197,193,-171,2025-01-29 10:35:56,2
-13816,68,1532,-156,191,-170,2025-01-29 10:35:56,2
-13804,32,1500,-176,224,-195,2025-01-29 10:35:56,2
-13856,96,1564,-203,223,-172,2025-01-29 10:35:56,2
-13800,72,1556,-175,221,-198,2025-01-29 10:35:56,2
-13784,148,1376,-186,238,-188,2025-01-29 10:35:56,2
-13780,40,1464,-208,237,-165,2025-01-29 10:35:56,2
-13808,80,1440,-200,189,-155,2025-01-29 10:35:56,2
-13888,68,1536,-209,196,-179,2025-01-29 10:35:56,2
-13856,32,1468,-218,185,-157,2025-01-29 10:35:56,2
-13900,104,1636,-204,187,-143,2025-01-29 10:35:56,2
-13900,28,1504,-201,215,-152,2025-01-29 10:35:56,2
-13824,12,1444,-208,196,-159,2025-01-29 10:35:56,2
-13796,-24,1488,-197,211,-172,2025-01-29 10:35:56,2
-13824,76,1520,-196,219,-206,2025-01-29 10:35:56,2
-13860,52,1596,-166,230,-189,2025-01-29 10:35:56,2
-13872,80,1372,-190,194,-160,2025-01-29 10:35:56,2
-13788,36,1452,-176,180,-175,2025-01-29 10:35:56,2
-13872,40,1460,-177,257,-182,2025-01-29 10:35:56,2
-14008,124,1380,-177,331,-175,2025-01-29 10:35:56,2
-13804,88,1388,-136,188,-159,2025-01-29 10:35:56,2
-13792,136,1344,-143,100,-150,2025-01-29 10:35:56,2
-13924,96,1584,-126,88,-144,2025-01-29 10:35:56,2
-13732,236,1424,-142,43,-182,2025-01-29 10:35:56,2
-13832,160,1516,-132,88,-200,2025-01-29 10:35:56,2
-13796,112,1524,-170,150,-220,2025-01-29 10:35:56,2
-13852,-12,1400,-168,170,-183,2025-01-29 10:35:56,2
-13752,104,1332,-182,187,-183,2025-01-29 10:35:56,2
-13856,36,1484,-202,169,-146,2025-01-29 10:35:56,2
-13832,44,1316,-187,148,-203,2025-01-29 10:35:56,2
-13864,76,1508,-204,133,-201,2025-01-29 10:35:56,2
-13796,-36,1552,-187,110,-189,2025-01-29 10:35:56,2
-13868,8,1516,-189,107,-186,2025-01-29 10:35:56,2
-13800,112,1524,-203,138,-175,2025-01-29 10:35:56,2
-13836,48,1416,-197,168,-179,2025-01-29 10:35:56,2
-13840,0,1488,-181,172,-182,2025-01-29 10:35:56,2
-13700,136,1480,-159,174,-168,2025-01-29 10:35:56,2
-13872,56,1432,-161,153,-177,2025-01-29 10:35:56,2
-13840,120,1560,-169,138,-187,2025-01-29 10:35:56,2
-13840,80,1376,-179,144,-192,2025-01-29 10:35:56,2
-13792,56,1528,-153,151,-181,2025-01-29 10:35:56,2
-13756,52,1492,-185,162,-192,2025-01-29 10:35:56,2
-13812,0,1552,-187,189,-171,2025-01-29 10:35:56,2
-13880,12,1412,-170,168,-164,2025-01-29 10:35:56,2
-13872,52,1652,-197,159,-169,2025-01-29 10:35:56,2
-13880,116,1436,-185,168,-185,2025-01-29 10:35:56,2
-13872,136,1500,-197,166,-189,2025-01-29 10:35:57,2
-13892,88,1452,-179,204,-204,2025-01-29 10:35:57,2
-13844,8,1604,-188,205,-187,2025-01-29 10:35:57,2
-13844,16,1428,-185,217,-186,2025-01-29 10:35:57,2
-13856,-48,1528,-218,205,-189,2025-01-29 10:35:57,2
-13816,48,1496,-215,198,-177,2025-01-29 10:35:57,2
-13824,92,1528,-185,194,-183,2025-01-29 10:35:57,2
-13916,64,1468,-165,172,-176,2025-01-29 10:35:57,2
-13844,88,1532,-166,153,-174,2025-01-29 10:35:57,2
-13912,80,1508,-193,146,-160,2025-01-29 10:35:57,2
-13684,180,1376,-189,171,-179,2025-01-29 10:35:57,2
-13764,56,1504,-182,162,-181,2025-01-29 10:35:57,2
-13716,-16,1500,-170,302,-233,2025-01-29 10:35:57,2
-13872,16,1372,-61,305,-286,2025-01-29 10:35:57,2
-13812,-32,1300,-44,180,-193,2025-01-29 10:35:57,2
-13900,-160,1256,-41,119,-121,2025-01-29 10:35:57,2
-14016,-32,1456,-44,189,-169,2025-01-29 10:35:57,2
-13940,20,1344,25,252,-268,2025-01-29 10:35:57,2
-13804,228,1336,108,181,-288,2025-01-29 10:35:57,2
-13796,160,1192,161,218,-304,2025-01-29 10:35:57,2
-13572,260,1232,215,180,-303,2025-01-29 10:35:57,2
-13564,184,1236,244,84,-216,2025-01-29 10:35:57,2
-13408,84,1304,205,29,-203,2025-01-29 10:35:57,2
-13824,-12,1736,159,-181,-237,2025-01-29 10:35:57,2
-14088,-220,1724,119,-158,-250,2025-01-29 10:35:57,2
-14128,-452,1920,156,-148,-204,2025-01-29 10:35:57,2
-14024,-512,2008,190,-106,-113,2025-01-29 10:35:57,2
-13776,-440,2076,293,84,-110,2025-01-29 10:35:57,2
-13748,-124,1880,357,164,-77,2025-01-29 10:35:57,2
-13856,68,1460,289,140,33,2025-01-29 10:35:57,2
-13812,188,1604,140,80,54,2025-01-29 10:35:57,2
-13756,244,1460,-7,190,40,2025-01-29 10:35:57,2
-13748,-36,1616,-114,324,67,2025-01-29 10:35:57,2
-13808,-44,1604,-106,332,34,2025-01-29 10:35:57,2
-13680,-80,1556,-83,269,50,2025-01-29 10:35:57,2
-13656,72,1440,4,198,30,2025-01-29 10:35:57,2
-13564,196,1520,-47,150,96,2025-01-29 10:35:57,2
-13392,300,1272,-161,248,174,2025-01-29 10:35:57,2
-13816,256,1396,-270,283,279,2025-01-29 10:35:57,2
-13972,360,1456,-359,331,309,2025-01-29 10:35:57,2
-14000,336,1348,-361,414,228,2025-01-29 10:35:57,2
-13960,300,1196,-362,368,77,2025-01-29 10:35:57,2
-13976,360,1352,-329,162,-9,2025-01-29 10:35:57,2
-13476,352,1240,-352,155,23,2025-01-29 10:35:57,2
-13240,280,1400,-405,406,109,2025-01-29 10:35:57,2
-13420,-60,1792,-432,651,306,2025-01-29 10:35:57,2
-13680,52,1756,-384,1078,413,2025-01-29 10:35:57,2
-13828,284,1452,-446,1525,347,2025-01-29 10:35:57,2
-14104,400,1444,-375,1592,161,2025-01-29 10:35:57,2
-13772,220,1348,-318,1201,19,2025-01-29 10:35:57,2
-12704,272,1804,-360,1314,-31,2025-01-29 10:35:57,2
-12376,60,1908,-341,1958,-48,2025-01-29 10:35:57,2
-13000,104,1944,-392,3032,140,2025-01-29 10:35:57,2
-14152,320,1692,-280,3982,203,2025-01-29 10:35:57,2
-14796,564,1148,-316,4028,77,2025-01-29 10:35:57,2
-14516,340,1048,-388,3443,-252,2025-01-29 10:35:57,2
-13788,272,852,-485,3261,-476,2025-01-29 10:35:57,2
-13400,600,1252,-517,3079,-458,2025-01-29 10:35:57,2
-13916,588,1192,-446,3742,-323,2025-01-29 10:35:57,2
-15088,240,1000,-368,4156,-32,2025-01-29 10:35:57,2
-15904,484,920,-425,4453,87,2025-01-29 10:35:58,2
-15604,296,412,-486,5107,-145,2025-01-29 10:35:58,2
-14832,420,904,-511,5426,-724,2025-01-29 10:35:58,2
-14348,220,620,-435,5494,-772,2025-01-29 10:35:58,2
-14604,-332,336,-8,5456,-402,2025-01-29 10:35:58,2
-14472,-396,460,262,5563,304,2025-01-29 10:35:58,2
-14192,-804,388,350,7090,339,2025-01-29 10:35:58,2
-14188,-468,344,58,8578,-551,2025-01-29 10:35:58,2
-14800,548,-708,-116,8593,-1131,2025-01-29 10:35:58,2
-15096,1560,-1644,-441,8751,-1368,2025-01-29 10:35:58,2
-16416,1956,-2764,-876,9713,-1241,2025-01-29 10:35:58,2
-17668,-876,-2732,-1081,11603,860,2025-01-29 10:35:58,2
-15656,4,-3512,-778,7724,174,2025-01-29 10:35:58,2
-15052,60,-3288,-438,6846,23,2025-01-29 10:35:58,2
-14520,332,-3520,-389,7339,-220,2025-01-29 10:35:58,2
-14664,604,-3620,-199,7898,-200,2025-01-29 10:35:58,2
-14600,364,-4236,-38,8149,134,2025-01-29 10:35:58,2
-14636,348,-3916,162,8111,267,2025-01-29 10:35:58,2
-14516,388,-4092,325,7664,229,2025-01-29 10:35:58,2
-14136,72,-4428,592,6725,63,2025-01-29 10:35:58,2
-13504,180,-4060,825,6180,-243,2025-01-29 10:35:58,2
-13216,540,-3964,950,6686,-573,2025-01-29 10:35:58,2
-13472,568,-4868,883,7685,-535,2025-01-29 10:35:58,2
-13564,336,-5244,688,8454,-273,2025-01-29 10:35:58,2
-13384,172,-5776,715,8363,-303,2025-01-29 10:35:58,2
-13468,340,-6368,744,7679,-436,2025-01-29 10:35:58,2
-14096,472,-7400,803,6534,-335,2025-01-29 10:35:58,2
-14056,732,-7880,664,4865,-64,2025-01-29 10:35:58,2
-13432,648,-7056,548,3354,292,2025-01-29 10:35:58,2
-11900,52,-7328,667,2636,425,2025-01-29 10:35:58,2
-11160,-96,-6640,679,2818,344,2025-01-29 10:35:58,2
-11484,-292,-7308,493,3672,255,2025-01-29 10:35:58,2
-11752,-220,-6872,411,4165,91,2025-01-29 10:35:58,2
-11512,-104,-6732,484,4399,44,2025-01-29 10:35:58,2
-11504,252,-6644,613,4431,-146,2025-01-29 10:35:58,2
-11460,16,-7068,633,4263,-62,2025-01-29 10:35:58,2
-11208,100,-6964,700,3889,-59,2025-01-29 10:35:58,2
-11032,12,-7836,553,3569,-252,2025-01-29 10:35:58,2
-10792,-208,-7980,438,2939,-302,2025-01-29 10:35:58,2
-10280,-452,-7908,402,2445,-335,2025-01-29 10:35:58,2
-9952,-368,-7356,694,2048,-530,2025-01-29 10:35:58,2
-10068,-116,-7168,917,2025,-847,2025-01-29 10:35:58,2
-10196,80,-7328,1000,2024,-1104,2025-01-29 10:35:58,2
-11852,864,-8960,641,-445,-1924,2025-01-29 10:35:58,2
-10232,-124,-7880,96,1194,-1042,2025-01-29 10:35:58,2
-10256,40,-8464,175,-89,-861,2025-01-29 10:35:58,2
-10084,-136,-8996,27,-725,-683,2025-01-29 10:35:58,2
-10192,-240,-8780,-221,-890,-602,2025-01-29 10:35:58,2
-10484,-148,-8112,-191,-568,-700,2025-01-29 10:35:58,2
-10508,4,-7408,-110,190,-823,2025-01-29 10:35:58,2
-10476,40,-7460,-172,1094,-899,2025-01-29 10:35:58,0
-10452,140,-7544,-249,1417,-1006,2025-01-29 10:35:58,0
-10392,180,-7880,-295,2000,-1261,2025-01-29 10:35:58,0
-10468,0,-8312,-493,1684,-1505,2025-01-29 10:35:58,0
-10564,-100,-7880,-312,1425,-1674,2025-01-29 10:35:58,0
-11520,-228,-7892,-1,2098,-1768,2025-01-29 10:35:58,0
-11040,-340,-8032,-52,1458,-1634,2025-01-29 10:35:58,0
-11260,-272,-7992,-84,-113,-1142,2025-01-29 10:35:58,0
-11232,-336,-7992,-47,-1548,-362,2025-01-29 10:35:58,0
-10936,-208,-7860,26,-2854,377,2025-01-29 10:35:58,0
-10028,-316,-7484,61,-3692,625,2025-01-29 10:35:59,0
-10000,-228,-7472,274,-3820,640,2025-01-29 10:35:59,0
-10184,-376,-7184,466,-3675,764,2025-01-29 10:35:59,0
-10080,-440,-7140,690,-3722,908,2025-01-29 10:35:59,0
-9480,-596,-7340,907,-3823,933,2025-01-29 10:35:59,0
-9576,-780,-7688,1181,-3935,690,2025-01-29 10:35:59,0
-9528,-744,-7536,1766,-4086,394,2025-01-29 10:35:59,0
-9768,-276,-7156,2294,-4389,342,2025-01-29 10:35:59,0
-10208,20,-6820,2499,-4979,728,2025-01-29 10:35:59,0
-10112,124,-6412,2935,-5516,1264,2025-01-29 10:35:59,0
-10000,-304,-6768,3270,-5506,1862,2025-01-29 10:35:59,0
-8868,-1196,-6856,3645,-4811,1631,2025-01-29 10:35:59,0
-8532,-1156,-7488,4457,-3903,635,2025-01-29 10:35:59,0
-8776,-636,-7596,4824,-3426,-231,2025-01-29 10:35:59,0
-9520,260,-7364,5011,-3204,-621,2025-01-29 10:35:59,0
-10084,716,-7188,4809,-2863,-669,2025-01-29 10:35:59,0
-10240,920,-7204,4309,-2289,-553,2025-01-29 10:35:59,0
-10200,416,-7188,3675,-1862,-556,2025-01-29 10:35:59,0
-10480,32,-6832,3355,-1674,-499,2025-01-29 10:35:59,0
-10608,-536,-6984,3234,-1582,-365,2025-01-29 10:35:59,0
-10500,-656,-7592,3117,-1136,-171,2025-01-29 10:35:59,0
-10460,-672,-7460,3059,-964,-247,2025-01-29 10:35:59,0
-10840,-508,-6440,2968,-799,-635,2025-01-29 10:35:59,0
-11344,-568,-5568,2951,-798,-1047,2025-01-29 10:35:59,0
-12024,-524,-5616,2930,-858,-1164,2025-01-29 10:35:59,0
-9688,-708,-6504,2914,-1076,-929,2025-01-29 10:35:59,0
-11780,-864,-6180,3019,-1545,-720,2025-01-29 10:35:59,1
-11268,-944,-5664,3310,-1632,-800,2025-01-29 10:35:59,1
-10332,-1372,-6212,3331,-1472,-1177,2025-01-29 10:35:59,1
-9936,-1948,-6308,3037,-1205,-1468,2025-01-29 10:35:59,1
-9856,-2456,-5516,3044,-382,-1599,2025-01-29 10:35:59,1
-10012,-3024,-5248,3229,1119,-1584,2025-01-29 10:35:59,1
-10492,-3060,-4968,3240,2565,-1454,2025-01-29 10:35:59,1
-10948,-2628,-4940,3212,4386,-1325,2025-01-29 10:35:59,1
-11508,-2452,-4688,3055,5734,-1377,2025-01-29 10:35:59,1
-11700,-2540,-4844,2715,6346,-1661,2025-01-29 10:35:59,1
-12184,-3260,-5068,2268,5957,-2078,2025-01-29 10:35:59,1
-13224,-3440,-4520,2121,4777,-2116,2025-01-29 10:35:59,1
-14096,-3188,-4296,1908,3544,-1546,2025-01-29 10:35:59,1
-13596,-2596,-5420,1351,1830,-877,2025-01-29 10:35:59,1
-12680,-2276,-5316,902,922,-918,2025-01-29 10:35:59,1
-12128,-2424,-5176,557,1075,-1461,2025-01-29 10:35:59,1
-11992,-2868,-4892,245,1068,-1724,2025-01-29 10:35:59,1
-11964,-3168,-4712,3,920,-1554,2025-01-29 10:35:59,1
-11380,-3304,-4828,-353,830,-1429,2025-01-29 10:35:59,1
-11272,-3020,-4900,-843,935,-1405,2025-01-29 10:35:59,1
-11248,-3032,-5048,-1365,950,-1387,2025-01-29 10:35:59,1
-11428,-3024,-4932,-1942,982,-1221,2025-01-29 10:35:59,1
-11076,-3300,-4936,-2561,1342,-979,2025-01-29 10:35:59,1
-10820,-3508,-5204,-3095,1877,-910,2025-01-29 10:35:59,1
-11044,-3240,-5268,-3585,2542,-882,2025-01-29 10:35:59,1
-11444,-3048,-5284,-3925,3005,-994,2025-01-29 10:35:59,1
-12096,-3228,-5480,-4143,3240,-1188,2025-01-29 10:35:59,1
-12428,-3360,-6012,-4291,2945,-1426,2025-01-29 10:35:59,1
-12704,-3488,-6108,-4188,2226,-1741,2025-01-29 10:35:59,1
-12572,-3708,-6564,-4101,1411,-1966,2025-01-29 10:35:59,1
-12424,-4080,-6224,-4096,1121,-2309,2025-01-29 10:35:59,1
-12748,-4168,-5856,-4049,1099,-2488,2025-01-29 10:35:59,1
-13016,-3992,-5716,-4098,674,-2468,2025-01-29 10:35:59,1
-13104,-3468,-5576,-4326,65,-2394,2025-01-29 10:35:59,1
-12860,-2696,-5608,-4874,-489,-2438,2025-01-29 10:35:59,1
-12952,-2196,-5724,-5596,-755,-2263,2025-01-29 10:35:59,1
-12976,-2516,-5436,-6440,-643,-2008,2025-01-29 10:36:00,1
-12672,-3420,-5268,-6954,-568,-1960,2025-01-29 10:36:00,1
-12820,-4356,-4544,-7209,-426,-1571,2025-01-29 10:36:00,1
-12296,-5012,-4456,-6704,0,-1593,2025-01-29 10:36:00,1
-12788,-4988,-6120,-5723,852,-1989,2025-01-29 10:36:00,1
-13588,-5720,-6152,-4707,1714,-2134,2025-01-29 10:36:00,1
-14036,-6384,-6120,-3524,1378,-2478,2025-01-29 10:36:00,1
-14492,-6556,-6260,-2419,135,-2473,2025-01-29 10:36:00,1
-15120,-6188,-6976,-1466,-1736,-1465,2025-01-29 10:36:00,1
-15324,-5144,-7368,-1274,-2439,686,2025-01-29 10:36:00,1
-13332,-3528,-7972,-1757,-1708,2084,2025-01-29 10:36:00,1
-11980,-2564,-9692,-2604,-1389,2200,2025-01-29 10:36:00,1
-11892,-1596,-10588,-3210,-1406,2386,2025-01-29 10:36:00,1
-11608,-792,-11352,-3306,-1665,2794,2025-01-29 10:36:00,1
-11168,-212,-11036,-3194,-1935,2998,2025-01-29 10:36:00,1
-10560,288,-9968,-2901,-2459,2946,2025-01-29 10:36:00,1
-10284,292,-8572,-2753,-2927,2731,2025-01-29 10:36:00,1
-9408,-388,-7400,-2593,-3586,2420,2025-01-29 10:36:00,1
-8576,-828,-6732,-2189,-3620,2326,2025-01-29 10:36:00,1
-8360,-548,-6592,-1681,-2178,2336,2025-01-29 10:36:00,1
-8324,-368,-7044,-1322,-44,2335,2025-01-29 10:36:00,1
-8612,-392,-7048,-839,1581,2198,2025-01-29 10:36:00,1
-9484,-380,-7588,-307,2265,2257,2025-01-29 10:36:00,1
-10672,-108,-7636,146,2406,2383,2025-01-29 10:36:00,1
-11440,96,-7244,325,1691,2635,2025-01-29 10:36:00,1
-11756,628,-7292,512,501,2798,2025-01-29 10:36:00,1
-11520,1144,-7544,495,-750,2923,2025-01-29 10:36:00,1
-10796,1216,-7688,409,-1853,2838,2025-01-29 10:36:00,1
-10324,1104,-7532,257,-2337,2606,2025-01-29 10:36:00,1
-9908,1036,-7188,61,-2251,2276,2025-01-29 10:36:00,1
-9752,1320,-6992,88,-1692,2069,2025-01-29 10:36:00,1
-9552,1692,-6980,-62,-838,1764,2025-01-29 10:36:00,1
-9620,1928,-6808,-211,-268,1278,2025-01-29 10:36:00,1
-10076,1836,-6680,-211,32,944,2025-01-29 10:36:00,1
-10276,1280,-6748,-296,81,709,2025-01-29 10:36:00,1
-10356,800,-6400,-210,125,460,2025-01-29 10:36:00,1
-10648,472,-6104,223,-23,237,2025-01-29 10:36:00,1
-10824,464,-5992,533,-90,36,2025-01-29 10:36:00,1
-10832,684,-6000,689,-100,-96,2025-01-29 10:36:00,1
-11280,808,-5820,855,-119,-125,2025-01-29 10:36:00,1
-11712,628,-5624,1059,-16,-118,2025-01-29 10:36:00,1
-11920,264,-5392,1204,-200,-123,2025-01-29 10:36:00,1
-12204,160,-5272,1522,-812,-139,2025-01-29 10:36:00,1
-12164,216,-5212,1988,-1601,-120,2025-01-29 10:36:00,1
-11852,244,-5032,2406,-2242,-123,2025-01-29 10:36:00,1
-11668,180,-4948,2575,-2471,-72,2025-01-29 10:36:00,1
-11756,420,-4496,2645,-2237,232,2025-01-29 10:36:00,1
-12104,584,-4524,2713,-1636,526,2025-01-29 10:36:00,1
-12600,520,-4444,2634,-571,739,2025-01-29 10:36:00,1
-13320,568,-4300,2781,108,847,2025-01-29 10:36:00,1
-14252,784,-4272,2836,126,1061,2025-01-29 10:36:00,1
-14500,1224,-5024,2832,212,1310,2025-01-29 10:36:00,1
-14056,1340,-4880,2907,-171,1263,2025-01-29 10:36:00,1
-13320,1360,-3900,3260,-833,859,2025-01-29 10:36:00,1
-12416,1552,-3704,3671,-1158,499,2025-01-29 10:36:00,1
-12512,228,-5268,3628,877,537,2025-01-29 10:36:00,1
-12208,-496,-6552,3740,3420,412,2025-01-29 10:36:00,1
-14256,1096,-7840,3301,4841,152,2025-01-29 10:36:00,1
-15492,2832,-9808,2213,5053,760,2025-01-29 10:36:00,1
-15672,3728,-9732,539,3533,926,2025-01-29 10:36:01,1
-15044,3964,-9688,-663,1216,460,2025-01-29 10:36:01,1
-13960,3240,-9608,-1507,-880,-590,2025-01-29 10:36:01,1
-13268,1580,-8968,-2012,-2368,-1331,2025-01-29 10:36:01,1
-11480,-340,-7852,-1779,-3459,-1237,2025-01-29 10:36:01,1
-9572,-1680,-6788,-998,-3293,-1469,2025-01-29 10:36:01,1
-8752,-2388,-6212,178,-2748,-1878,2025-01-29 10:36:01,1
-8480,-2920,-7884,960,-1821,-1869,2025-01-29 10:36:01,1
-8332,-3324,-8508,1089,-511,-1546,2025-01-29 10:36:01,1
-8692,-3544,-8120,1284,657,-1103,2025-01-29 10:36:01,1
-8988,-3612,-7496,1573,1314,-674,2025-01-29 10:36:01,1
-9992,-3220,-6848,1934,1734,-161,2025-01-29 10:36:01,1
-10336,-2660,-7068,2091,1801,171,2025-01-29 10:36:01,1
-10516,-1896,-7300,1889,1683,139,2025-01-29 10:36:01,1
-11112,-1248,-7732,1430,1410,-201,2025-01-29 10:36:01,1
-11496,-1032,-7672,1116,1037,-610,2025-01-29 10:36:01,1
-11456,-1060,-7796,1150,549,-980,2025-01-29 10:36:01,1
-11364,-1116,-7364,995,-149,-1379,2025-01-29 10:36:01,1
-11076,-1180,-7060,709,-302,-1743,2025-01-29 10:36:01,1
-10768,-1188,-7256,479,-336,-1940,2025-01-29 10:36:01,1
-10552,-980,-7056,-73,70,-2200,2025-01-29 10:36:01,1
-10204,-784,-6552,-710,392,-2611,2025-01-29 10:36:01,1
-10468,-868,-6044,-1216,730,-2919,2025-01-29 10:36:01,1
-10736,-1320,-5720,-1600,1072,-3109,2025-01-29 10:36:01,1
-10908,-1828,-5548,-1915,1391,-3193,2025-01-29 10:36:01,1
-11320,-2312,-5472,-2085,1759,-3072,2025-01-29 10:36:01,1
-11904,-2452,-5040,-2195,1835,-2726,2025-01-29 10:36:01,1
-11976,-2456,-5268,-2289,1854,-2359,2025-01-29 10:36:01,1
-11788,-2172,-5168,-2407,1854,-2014,2025-01-29 10:36:01,1
-11692,-1768,-4884,-2525,1915,-1685,2025-01-29 10:36:01,1
-11548,-1580,-4816,-2694,1940,-1482,2025-01-29 10:36:01,1
-11656,-1468,-4652,-2838,2069,-1147,2025-01-29 10:36:01,1
-11408,-1756,-4752,-3002,2114,-859,2025-01-29 10:36:01,1
-11380,-2660,-4824,-2998,2171,-540,2025-01-29 10:36:01,1
-11416,-2932,-4900,-2741,2162,-286,2025-01-29 10:36:01,1
-11156,-2604,-5200,-2777,2343,-85,2025-01-29 10:36:01,1
-10936,-2144,-5604,-2963,2789,-107,2025-01-29 10:36:01,1
-10856,-1508,-6092,-3065,3204,-441,2025-01-29 10:36:01,1
-11276,-1076,-7088,-3331,3655,-1011,2025-01-29 10:36:01,1
-12144,-628,-7156,-3787,3775,-1634,2025-01-29 10:36:01,1
-13120,-936,-7064,-4058,3156,-2380,2025-01-29 10:36:01,1
-13736,-1608,-7176,-4139,1725,-3148,2025-01-29 10:36:01,1
-14328,-1844,-6344,-4302,-375,-3822,2025-01-29 10:36:01,1
-13888,-1692,-6356,-4608,-2127,-4329,2025-01-29 10:36:01,1
-13292,-1212,-7368,-4545,-3018,-4805,2025-01-29 10:36:01,1
-11876,-936,-8688,-4299,-2594,-5403,2025-01-29 10:36:01,1
-11612,-2624,-7824,-3844,-1158,-6181,2025-01-29 10:36:01,1
-11248,-5684,-6724,-2453,224,-7098,2025-01-29 10:36:01,1
-12696,-7412,-7228,-1128,1831,-7269,2025-01-29 10:36:01,1
-14948,-7748,-9072,-545,3097,-6009,2025-01-29 10:36:01,1
-16916,-6820,-10856,-639,3831,-3347,2025-01-29 10:36:01,1
-16628,-5100,-11048,-502,2696,-539,2025-01-29 10:36:01,1
-14664,-2968,-11644,-442,-927,1474,2025-01-29 10:36:01,1
-12504,-2060,-11876,-1003,-4196,2072,2025-01-29 10:36:01,1
-10232,-1108,-11136,-1130,-6590,2446,2025-01-29 10:36:01,1
-8120,-240,-10856,-1144,-7686,2936,2025-01-29 10:36:01,1
-5708,508,-9944,-1389,-7672,3058,2025-01-29 10:36:01,1
-4408,716,-8576,-1683,-6253,2339,2025-01-29 10:36:01,1
-4684,1152,-7508,-1655,-2518,1095,2025-01-29 10:36:01,1
-6480,1264,-7720,-1832,2971,-53,2025-01-29 10:36:01,1
-9068,708,-7884,-2308,6029,-241,2025-01-29 10:36:01,1
-11824,-348,-8036,-2426,7184,136,2025-01-29 10:36:01,1
-13172,-828,-8000,-2311,6454,372,2025-01-29 10:36:01,1
-14656,-1296,-7972,-2068,3227,960,2025-01-29 10:36:02,1
-14600,-1288,-7148,-1294,-2394,2308,2025-01-29 10:36:02,1
-12040,-936,-8308,-935,-4656,3107,2025-01-29 10:36:02,1
-10104,-904,-7544,-804,-4727,3261,2025-01-29 10:36:02,1
-7920,-900,-6404,-107,-3814,3141,2025-01-29 10:36:02,1
-6716,-988,-6296,512,-1776,2721,2025-01-29 10:36:02,1
-6972,-680,-5756,1200,1383,2264,2025-01-29 10:36:02,1
-8280,-48,-6416,1622,4238,1866,2025-01-29 10:36:02,1
-10248,788,-6780,1589,5191,1742,2025-01-29 10:36:02,1
-11720,1264,-7352,1357,4809,1748,2025-01-29 10:36:02,1
-12540,1744,-7796,912,2927,1393,2025-01-29 10:36:02,1
-12484,1780,-7700,557,80,819,2025-01-29 10:36:02,1
-12000,1600,-8036,249,-2070,400,2025-01-29 10:36:02,1
-10808,1312,-8104,-325,-3007,79,2025-01-29 10:36:02,1
-10004,876,-7040,-457,-2539,-22,2025-01-29 10:36:02,1
-10100,-96,-5508,-282,-1081,-58,2025-01-29 10:36:02,1
-10184,-344,-5224,246,88,-184,2025-01-29 10:36:02,1
-10872,-40,-5944,604,595,-447,2025-01-29 10:36:02,1
-11720,432,-6148,722,201,-611,2025-01-29 10:36:02,1
-12400,648,-6232,841,-648,-591,2025-01-29 10:36:02,1
-12552,560,-5964,906,-1621,-419,2025-01-29 10:36:02,1
-12212,252,-5404,1146,-2206,-280,2025-01-29 10:36:02,1
-11884,36,-4576,1570,-2322,-167,2025-01-29 10:36:02,1
-11120,112,-4912,1972,-1368,19,2025-01-29 10:36:02,1
-11156,772,-5100,2280,163,221,2025-01-29 10:36:02,1
-11760,944,-5152,2374,1692,543,2025-01-29 10:36:02,1
-12612,328,-5432,2454,2510,903,2025-01-29 10:36:02,1
-13604,-1080,-5512,2454,2563,1403,2025-01-29 10:36:02,1
-13008,-1684,-5728,2929,1487,1802,2025-01-29 10:36:02,1
-12932,44,-6984,3173,259,1891,2025-01-29 10:36:02,1
-12720,2120,-6584,2872,204,1959,2025-01-29 10:36:02,1
-12900,2092,-6656,2753,1143,1592,2025-01-29 10:36:02,1
-13640,816,-7484,2568,2673,979,2025-01-29 10:36:02,1
-14648,1084,-9048,2170,3298,934,2025-01-29 10:36:02,1
-15160,1908,-10924,1360,3094,1413,2025-01-29 10:36:02,1
-15256,2832,-12096,-24,2553,1719,2025-01-29 10:36:02,1
-14980,3344,-12304,-1482,1812,1466,2025-01-29 10:36:02,1
-14428,3688,-11640,-2695,286,695,2025-01-29 10:36:02,1
-13080,3752,-11156,-3648,-2533,-435,2025-01-29 10:36:02,1
-10636,1860,-9240,-3809,-6027,-2174,2025-01-29 10:36:02,1
-9136,244,-8452,-3265,-7533,-2790,2025-01-29 10:36:02,1
-6860,-1376,-7424,-2742,-8006,-3215,2025-01-29 10:36:02,1
-5744,-3348,-6164,-1776,-7368,-3460,2025-01-29 10:36:02,1
-5684,-4744,-5816,-624,-5088,-3063,2025-01-29 10:36:02,1
-6252,-5788,-6612,187,-689,-2124,2025-01-29 10:36:02,1
-7164,-5676,-7528,710,4940,-1001,2025-01-29 10:36:02,1
-8556,-3948,-7544,1270,8009,-577,2025-01-29 10:36:02,1
-10204,-2200,-7712,1553,8619,-885,2025-01-29 10:36:02,1
-12228,-896,-8284,1363,7358,-1369,2025-01-29 10:36:02,1
-13080,-480,-8272,1062,4399,-2038,2025-01-29 10:36:02,1
-13348,-704,-8524,747,741,-2618,2025-01-29 10:36:02,1
-12660,-1064,-9284,386,-1967,-2694,2025-01-29 10:36:02,1
-11440,-1128,-8880,70,-3016,-2743,2025-01-29 10:36:02,1
-9712,-844,-8292,-487,-3041,-2994,2025-01-29 10:36:02,1
-8524,-804,-8112,-1052,-2251,-2946,2025-01-29 10:36:02,1
-7844,-1124,-7736,-1657,-168,-3051,2025-01-29 10:36:02,1
-8068,-1776,-6432,-1969,2575,-3204,2025-01-29 10:36:03,1
-8692,-2648,-6420,-1879,4407,-3376,2025-01-29 10:36:03,1
-9716,-2904,-6624,-1792,5315,-3800,2025-01-29 10:36:03,1
-11616,-3228,-6768,-1644,5178,-3697,2025-01-29 10:36:03,1
-12676,-3140,-7364,-1423,4150,-3149,2025-01-29 10:36:03,1
-13492,-2584,-7296,-1357,2396,-2244,2025-01-29 10:36:03,1
-12384,-1832,-7744,-1438,395,-1665,2025-01-29 10:36:03,1
-11380,-1532,-7428,-1733,-788,-1729,2025-01-29 10:36:03,1
-10676,-1552,-6760,-1817,-930,-1770,2025-01-29 10:36:03,1
-9824,-1644,-6728,-2431,2004,-1546,2025-01-29 10:36:03,1
-10500,-1160,-6872,-2810,2378,-1482,2025-01-29 10:36:03,1
-11388,-832,-6832,-3259,1852,-1259,2025-01-29 10:36:03,1
-11156,-928,-7204,-3798,1199,-986,2025-01-29 10:36:03,1
-11040,-1284,-7432,-4100,795,-864,2025-01-29 10:36:03,1
-10904,-2096,-7516,-4525,482,-851,2025-01-29 10:36:03,1
-11092,-2676,-7780,-4688,412,-762,2025-01-29 10:36:03,1
-11428,-2584,-7364,-4704,336,-672,2025-01-29 10:36:03,1
-11640,-1992,-7280,-4773,-25,-722,2025-01-29 10:36:03,1
-11392,-680,-7656,-5015,-339,-907,2025-01-29 10:36:03,1
-11280,860,-7904,-5394,-506,-1472,2025-01-29 10:36:03,1
-11796,612,-7536,-6015,-307,-1812,2025-01-29 10:36:03,1
-12340,-1192,-6432,-6063,98,-1880,2025-01-29 10:36:03,1
-13120,-2500,-6428,-6046,195,-1867,2025-01-29 10:36:03,1
-13504,-2312,-6408,-6125,-50,-1990,2025-01-29 10:36:03,1
-13528,-1880,-6540,-6195,-548,-2317,2025-01-29 10:36:03,1
-12836,-1324,-8048,-5517,-595,-2746,2025-01-29 10:36:03,1
-12536,-1756,-9280,-4929,709,-3469,2025-01-29 10:36:03,1
-13160,-2804,-9312,-4265,1973,-4043,2025-01-29 10:36:03,1
-14604,-4612,-8580,-3064,1990,-3978,2025-01-29 10:36:03,1
-15708,-6556,-7908,-1593,1140,-3128,2025-01-29 10:36:03,1
-16716,-7616,-8132,-23,-1193,-1057,2025-01-29 10:36:03,1
-16072,-7256,-8800,1172,-3180,1577,2025-01-29 10:36:03,1
-12348,-5528,-9384,2165,-4257,2494,2025-01-29 10:36:03,1
-10212,-3572,-9452,2617,-5045,2297,2025-01-29 10:36:03,1
-8512,-1480,-9496,2525,-5731,2338,2025-01-29 10:36:03,1
-6852,300,-9972,1929,-5924,2498,2025-01-29 10:36:03,1
-5152,1736,-9980,996,-4747,2227,2025-01-29 10:36:03,1
-4636,1744,-9752,283,-1714,1435,2025-01-29 10:36:03,1
-5708,404,-8956,-53,2329,477,2025-01-29 10:36:03,1
-8048,-812,-8348,163,4741,437,2025-01-29 10:36:03,1
-10596,-1256,-8424,393,5213,981,2025-01-29 10:36:03,1
-11844,-1124,-9144,548,3654,1659,2025-01-29 10:36:03,1
-12548,-1016,-8812,763,946,2224,2025-01-29 10:36:03,1
-12604,-1340,-8412,1274,-1666,2752,2025-01-29 10:36:03,1
-11908,-1680,-8380,1895,-2776,3204,2025-01-29 10:36:03,1
-10848,-1576,-8480,2536,-3335,3672,2025-01-29 10:36:03,1
-9720,-1080,-8156,2985,-3234,4096,2025-01-29 10:36:03,1
-9008,-312,-8248,3189,-2363,4420,2025-01-29 10:36:03,1
-8532,364,-7852,3318,-779,4555,2025-01-29 10:36:03,1
-9056,840,-7728,3415,925,4417,2025-01-29 10:36:03,1
-9464,692,-7980,3391,1927,4147,2025-01-29 10:36:03,1
-10584,296,-8056,3404,2142,4124,2025-01-29 10:36:03,1
-11084,-64,-8020,3523,1646,4297,2025-01-29 10:36:03,1
-11164,-244,-7832,3727,756,4411,2025-01-29 10:36:03,1
-10884,76,-7612,3862,-337,4418,2025-01-29 10:36:03,1
-10236,760,-7676,3836,-1097,4229,2025-01-29 10:36:03,1
-9500,1436,-7440,3733,-1175,3884,2025-01-29 10:36:03,1
-8712,1684,-8000,3526,-532,3180,2025-01-29 10:36:03,1
-8964,1556,-7840,3236,564,2519,2025-01-29 10:36:03,1
-9528,720,-7396,3139,1517,2035,2025-01-29 10:36:03,1
-9996,268,-7680,3201,1549,1594,2025-01-29 10:36:03,1
-10532,432,-7676,3262,1161,1093,2025-01-29 10:36:03,1
-11492,808,-7360,3371,472,695,2025-01-29 10:36:04,1
-12036,1184,-6868,3321,-229,811,2025-01-29 10:36:04,1
-11512,1232,-7044,3114,-996,935,2025-01-29 10:36:04,1
-10724,924,-6720,2998,-1343,718,2025-01-29 10:36:04,1
-10260,480,-6308,3085,-1161,487,2025-01-29 10:36:04,1
-10208,236,-6204,3336,-737,147,2025-01-29 10:36:04,1
-10404,412,-6552,3505,-289,-225,2025-01-29 10:36:04,1
-11140,208,-6504,3502,4,-464,2025-01-29 10:36:04,1
-11708,260,-5772,3655,-134,-359,2025-01-29 10:36:04,1
-11536,344,-6096,3734,-546,-290,2025-01-29 10:36:04,1
-11424,268,-6744,3668,-431,-338,2025-01-29 10:36:04,1
-12068,-212,-6124,3660,-32,-212,2025-01-29 10:36:04,1
-12228,-404,-6048,3912,310,53,2025-01-29 10:36:04,1
-12388,-276,-6484,4151,554,173,2025-01-29 10:36:04,1
-12896,-276,-6308,4410,841,399,2025-01-29 10:36:04,1
-13236,152,-6092,4612,735,686,2025-01-29 10:36:04,1
-13516,-44,-6144,4800,512,897,2025-01-29 10:36:04,1
-14116,-956,-7008,4749,1105,1602,2025-01-29 10:36:04,1
-13604,-1016,-8100,4762,2109,2296,2025-01-29 10:36:04,1
-13644,164,-9396,4532,2584,2455,2025-01-29 10:36:04,1
-14292,1104,-10184,3905,2389,2523,2025-01-29 10:36:04,1
-14056,1604,-10088,3122,1181,2597,2025-01-29 10:36:04,1
-13700,1748,-9876,2483,-609,2209,2025-01-29 10:36:04,1
-12992,1672,-9892,1726,-1878,1644,2025-01-29 10:36:04,1
-12440,984,-9112,1237,-2361,1255,2025-01-29 10:36:04,1
-11840,16,-8104,981,-2716,1074,2025-01-29 10:36:04,1
-10784,-728,-7168,1100,-3489,954,2025-01-29 10:36:04,1
-9848,-1048,-7244,1210,-4152,896,2025-01-29 10:36:04,1
-8724,-1176,-7356,1161,-4201,804,2025-01-29 10:36:04,1
-7792,-1712,-7392,1190,-3763,661,2025-01-29 10:36:04,1
-7080,-2472,-7780,1497,-2349,500,2025-01-29 10:36:04,1
-7184,-3048,-8144,1993,317,186,2025-01-29 10:36:04,1
-8112,-2848,-8124,2123,2475,-80,2025-01-29 10:36:04,1
-9516,-2512,-8228,2144,3273,37,2025-01-29 10:36:04,1
-10300,-2548,-8696,2117,3151,295,2025-01-29 10:36:04,1
-10900,-2572,-9084,1940,2450,392,2025-01-29 10:36:04,1
-11640,-2668,-8364,1812,1370,381,2025-01-29 10:36:04,1
-11872,-2804,-8116,1804,226,340,2025-01-29 10:36:04,1
-11816,-2584,-7692,1791,-886,160,2025-01-29 10:36:04,1
-11348,-1992,-7752,1871,-1976,-171,2025-01-29 10:36:04,1
-10812,-1400,-7888,1605,-2168,-892,2025-01-29 10:36:04,1
-10668,-1104,-8368,1358,-2126,-1347,2025-01-29 10:36:04,1
-10552,-1144,-8696,845,-1956,-1655,2025-01-29 10:36:04,1
-10316,-1380,-8144,197,-1495,-1808,2025-01-29 10:36:04,1
-10272,-1876,-7220,-208,-935,-1938,2025-01-29 10:36:04,1
-10360,-2428,-6608,-578,-349,-2218,2025-01-29 10:36:04,1
-10584,-2944,-6176,-620,161,-2474,2025-01-29 10:36:04,1
-10884,-3280,-5752,-529,390,-2543,2025-01-29 10:36:04,1
-11172,-3280,-5972,-273,353,-2296,2025-01-29 10:36:04,1
-10824,-2984,-6244,-144,411,-2039,2025-01-29 10:36:04,1
-10564,-2804,-6448,-113,877,-1815,2025-01-29 10:36:04,1
-10688,-2812,-6560,-209,1484,-1680,2025-01-29 10:36:04,1
-11196,-2788,-6604,-259,1785,-1374,2025-01-29 10:36:04,1
-11616,-2264,-6220,-268,1604,-858,2025-01-29 10:36:04,1
-11540,-2024,-6408,-409,1267,-594,2025-01-29 10:36:04,1
-11616,-1600,-6276,-539,1033,-357,2025-01-29 10:36:04,1
-11540,-1604,-6424,-809,975,-103,2025-01-29 10:36:04,1
-11312,-1728,-6812,-1060,1133,74,2025-01-29 10:36:04,1
-11204,-1880,-7084,-1426,1330,196,2025-01-29 10:36:04,1
-11208,-2060,-6792,-1821,1350,237,2025-01-29 10:36:04,1
-11584,-2088,-6828,-2336,1079,97,2025-01-29 10:36:04,1
-11932,-2036,-6596,-2624,626,5,2025-01-29 10:36:04,1
-11908,-2144,-6484,-2646,173,-186,2025-01-29 10:36:05,1
-11552,-1856,-6452,-2653,8,-562,2025-01-29 10:36:05,1
-11628,-1820,-6360,-2802,146,-919,2025-01-29 10:36:05,1
-11752,-1572,-6612,-2951,324,-900,2025-01-29 10:36:05,1
-11616,-1068,-6828,-3227,605,-856,2025-01-29 10:36:05,1
-11756,-1044,-6596,-3705,874,-1017,2025-01-29 10:36:05,1
-11896,-1028,-6328,-4142,788,-1422,2025-01-29 10:36:05,1
-12020,-1116,-6072,-4508,285,-1757,2025-01-29 10:36:05,1
-11984,-1152,-5936,-4790,205,-2083,2025-01-29 10:36:05,1
-12160,-1116,-6848,-4994,540,-2334,2025-01-29 10:36:05,1
-12596,-1624,-7652,-4948,716,-2469,2025-01-29 10:36:05,1
-12920,-3028,-8468,-4698,157,-2364,2025-01-29 10:36:05,1
-12624,-4520,-7796,-3851,-877,-1932,2025-01-29 10:36:05,1
-12932,-5072,-8084,-2783,-1526,-1113,2025-01-29 10:36:05,1
-12520,-3960,-9044,-2092,-1243,61,2025-01-29 10:36:05,1
-11932,-2556,-10204,-1871,-760,464,2025-01-29 10:36:05,1
-11032,-1092,-11220,-1954,-668,509,2025-01-29 10:36:05,1
-10084,56,-11020,-2435,-1272,318,2025-01-29 10:36:05,1
-9156,1004,-9568,-2988,-1803,-172,2025-01-29 10:36:05,1
-8708,1820,-7364,-3403,-1881,-672,2025-01-29 10:36:05,1
-8592,1380,-5148,-3596,-648,-1119,2025-01-29 10:36:05,1
-9824,-324,-3828,-3175,1235,-1531,2025-01-29 10:36:05,1
-12736,-1680,-5628,-1732,4019,-707,2025-01-29 10:36:05,1
-14184,-2260,-8592,-1102,6304,1111,2025-01-29 10:36:05,1
-14756,-1596,-9224,-1079,5545,2021,2025-01-29 10:36:05,1
-12904,340,-10536,-1401,149,2552,2025-01-29 10:36:05,1
-10700,1740,-10176,-2007,-3021,2256,2025-01-29 10:36:05,1
-8504,2048,-8316,-2080,-3770,1374,2025-01-29 10:36:05,1
-7488,1636,-7732,-1986,-2457,340,2025-01-29 10:36:05,1
-7688,932,-7316,-1947,-208,-217,2025-01-29 10:36:05,1
-8364,632,-6832,-1462,1334,-321,2025-01-29 10:36:05,1
-9216,1032,-7288,-897,2573,-563,2025-01-29 10:36:05,1
-11080,568,-7024,-493,3891,-750,2025-01-29 10:36:05,1
-12968,-300,-5668,147,3896,-389,2025-01-29 10:36:05,1
-13056,-888,-5312,706,1718,-405,2025-01-29 10:36:05,1
-12448,-848,-5904,1088,-1411,-1148,2025-01-29 10:36:05,1
-11776,184,-7364,1496,-3645,-1575,2025-01-29 10:36:05,1
-10584,1772,-8312,1292,-3816,-1639,2025-01-29 10:36:05,1
-9848,1888,-9452,631,-2366,-1792,2025-01-29 10:36:05,1
-9116,796,-9888,88,-344,-1459,2025-01-29 10:36:05,1
-9848,-392,-9260,-376,1369,-1287,2025-01-29 10:36:05,1
-10648,-956,-8584,-410,1978,-986,2025-01-29 10:36:05,1
-10936,-952,-8768,-512,1515,-745,2025-01-29 10:36:05,1
-10692,-1144,-8228,-652,392,-906,2025-01-29 10:36:05,1
-10940,-1048,-8248,-609,-256,-812,2025-01-29 10:36:05,1
-10424,-860,-7848,-465,-332,-584,2025-01-29 10:36:05,1
-9980,-500,-7552,-232,161,-387,2025-01-29 10:36:05,1
-9328,-624,-8036,-198,923,-473,2025-01-29 10:36:05,1
-9876,-1156,-7980,-82,1968,-658,2025-01-29 10:36:05,1
-10592,-1732,-8260,190,2250,-559,2025-01-29 10:36:05,1
-11104,-1948,-8360,452,1654,-550,2025-01-29 10:36:05,1
-11712,-2084,-8392,640,964,-315,2025-01-29 10:36:05,1
-11712,-1596,-8220,821,392,5,2025-01-29 10:36:05,1
-11236,-1096,-8632,763,214,46,2025-01-29 10:36:05,1
-11000,-748,-8536,616,47,-13,2025-01-29 10:36:05,1
-10684,-696,-8464,456,-5,-70,2025-01-29 10:36:05,1
-10436,-664,-8296,271,24,-156,2025-01-29 10:36:05,1
-10040,-612,-7944,-12,166,-301,2025-01-29 10:36:05,1
-9896,-656,-7736,-161,780,-578,2025-01-29 10:36:05,1
-10228,-760,-7656,-206,1320,-716,2025-01-29 10:36:06,1
-10792,-980,-7612,-216,1616,-803,2025-01-29 10:36:06,1
-11256,-1044,-7680,-163,1427,-759,2025-01-29 10:36:06,1
-11296,-1100,-8208,-192,927,-631,2025-01-29 10:36:06,1
-11100,-976,-8280,-256,557,-612,2025-01-29 10:36:06,1
-10708,-900,-8216,-246,566,-611,2025-01-29 10:36:06,1
-10724,-836,-8260,-227,874,-685,2025-01-29 10:36:06,1
-10996,-772,-8376,-207,1017,-606,2025-01-29 10:36:06,1
-11284,-852,-8256,-349,926,-556,2025-01-29 10:36:06,1
-11200,-988,-8376,-531,503,-520,2025-01-29 10:36:06,1
-11184,-1072,-7936,-519,71,-437,2025-01-29 10:36:06,1
-10880,-1088,-7832,-492,-107,-399,2025-01-29 10:36:06,1
-10696,-1132,-7536,-443,98,-436,2025-01-29 10:36:06,0
-10692,-1112,-7548,-364,465,-422,2025-01-29 10:36:06,0
-10904,-1248,-7648,-260,738,-424,2025-01-29 10:36:06,0
-11176,-1392,-7424,-80,768,-343,2025-01-29 10:36:06,0
-11188,-1568,-7680,179,374,-209,2025-01-29 10:36:06,0
-11128,-1492,-7604,307,100,-184,2025-01-29 10:36:06,0
-10884,-1360,-7896,427,148,-101,2025-01-29 10:36:06,0
-10752,-1152,-7948,482,343,-128,2025-01-29 10:36:06,0
-10916,-1012,-7672,570,522,-78,2025-01-29 10:36:06,0
-11020,-888,-7924,638,567,3,2025-01-29 10:36:06,0
-10888,-944,-8252,555,475,24,2025-01-29 10:36:06,0
-11004,-892,-8008,481,349,-2,2025-01-29 10:36:06,0
-11048,-1000,-7840,378,180,24,2025-01-29 10:36:06,0
-11004,-988,-7804,404,67,21,2025-01-29 10:36:06,0
-10780,-808,-7984,345,46,-71,2025-01-29 10:36:06,0
-10928,-824,-8160,170,144,-146,2025-01-29 10:36:06,0
-10916,-832,-8656,-28,60,-174,2025-01-29 10:36:06,0
-10728,-844,-8624,-211,-83,-245,2025-01-29 10:36:06,0
-10572,-1000,-8384,-390,-204,-397,2025-01-29 10:36:06,0
-10752,-988,-8004,-476,-197,-397,2025-01-29 10:36:06,0
-10700,-1148,-7964,-585,-158,-482,2025-01-29 10:36:06,0
-10696,-1152,-8176,-732,196,-491,2025-01-29 10:36:06,0
-10624,-1052,-8048,-877,203,-625,2025-01-29 10:36:06,0
-10792,-1316,-7584,-887,32,-727,2025-01-29 10:36:06,0
-10816,-1440,-7920,-820,-95,-702,2025-01-29 10:36:06,0
-10980,-1420,-7648,-783,-102,-687,2025-01-29 10:36:06,0
-11016,-1412,-7464,-675,13,-657,2025-01-29 10:36:06,0
-10984,-1464,-7940,-634,155,-540,2025-01-29 10:36:06,0
-11148,-1404,-7852,-531,271,-482,2025-01-29 10:36:06,0
-11016,-1276,-7548,-434,135,-479,2025-01-29 10:36:06,0
-11020,-1108,-7580,-370,-52,-466,2025-01-29 10:36:06,0
-10796,-1116,-7988,-373,-138,-438,2025-01-29 10:36:06,0
-10876,-1024,-7852,-406,10,-425,2025-01-29 10:36:06,0
-10792,-884,-8024,-375,174,-405,2025-01-29 10:36:06,0
-10900,-936,-8092,-508,163,-509,2025-01-29 10:36:06,0
-11128,-1088,-7876,-562,43,-489,2025-01-29 10:36:06,0
-11136,-1128,-7752,-560,-147,-466,2025-01-29 10:36:06,0
-11092,-1148,-7640,-575,-365,-435,2025-01-29 10:36:06,0
-11024,-1040,-7648,-616,-445,-451,2025-01-29 10:36:06,0
-10948,-1072,-7628,-652,-313,-508,2025-01-29 10:36:06,0
-10984,-1112,-7528,-630,-105,-461,2025-01-29 10:36:06,0
-11084,-1376,-7484,-497,41,-388,2025-01-29 10:36:06,0
-11208,-1572,-7536,-301,56,-339,2025-01-29 10:36:06,0
-11092,-1484,-7436,-135,73,-233,2025-01-29 10:36:06,0
-11112,-1412,-7460,25,41,-152,2025-01-29 10:36:06,0
-11052,-1304,-7444,97,38,-126,2025-01-29 10:36:06,0
-11064,-1256,-7432,186,74,-74,2025-01-29 10:36:06,0
-11156,-1400,-7352,298,212,59,2025-01-29 10:36:06,0
-11148,-1380,-7464,413,334,121,2025-01-29 10:36:06,0
-11172,-1276,-7740,449,266,169,2025-01-29 10:36:07,0
-11128,-1340,-7960,475,160,157,2025-01-29 10:36:07,0
-11240,-1372,-7928,461,3,180,2025-01-29 10:36:07,0
-11028,-1352,-7876,428,-185,221,2025-01-29 10:36:07,0
-10920,-1212,-7800,320,-193,214,2025-01-29 10:36:07,0
-10808,-1240,-7576,271,-92,188,2025-01-29 10:36:07,0
-10684,-1176,-7584,242,85,76,2025-01-29 10:36:07,0
-10792,-1232,-7728,136,176,-65,2025-01-29 10:36:07,0
-10888,-1396,-7744,129,229,-109,2025-01-29 10:36:07,0
-10864,-1268,-7868,155,204,-144,2025-01-29 10:36:07,0
-10928,-1144,-7732,25,242,-235,2025-01-29 10:36:07,0
-10912,-1020,-7868,-52,147,-313,2025-01-29 10:36:07,0
-11068,-1280,-7852,-38,22,-288,2025-01-29 10:36:07,0
-10892,-1320,-7584,-5,195,-230,2025-01-29 10:36:07,0
-10840,-1360,-7564,28,450,-259,2025-01-29 10:36:07,0
-11144,-1404,-7344,100,616,-195,2025-01-29 10:36:07,0
-11140,-1276,-7524,196,578,-143,2025-01-29 10:36:07,0
-11260,-1272,-7616,253,457,-77,2025-01-29 10:36:07,0
-11136,-1288,-7604,313,456,-58,2025-01-29 10:36:07,0
-11172,-1248,-7576,391,418,-3,2025-01-29 10:36:07,0
-11008,-1288,-7680,424,394,50,2025-01-29 10:36:07,0
-11100,-1392,-7728,403,320,104,2025-01-29 10:36:07,0
-11040,-1284,-7804,425,342,152,2025-01-29 10:36:07,0
-10932,-1308,-7740,389,342,110,2025-01-29 10:36:07,0
-10952,-1208,-7400,407,415,100,2025-01-29 10:36:07,0
-11084,-1248,-7692,390,446,100,2025-01-29 10:36:07,0
-11076,-1192,-7736,358,334,75,2025-01-29 10:36:07,0
-11020,-1332,-7764,347,277,42,2025-01-29 10:36:07,0
-10960,-1328,-7940,329,250,73,2025-01-29 10:36:07,0
-10888,-1304,-7840,267,261,45,2025-01-29 10:36:07,0
-10864,-1128,-7724,221,257,11,2025-01-29 10:36:07,0
-10896,-1060,-7924,106,243,-65,2025-01-29 10:36:07,0
-10916,-1084,-7836,52,311,-107,2025-01-29 10:36:07,0
-10988,-1172,-7884,50,333,-130,2025-01-29 10:36:07,0
-11076,-1152,-7876,-27,346,-144,2025-01-29 10:36:07,0
-11000,-1176,-7920,-43,326,-159,2025-01-29 10:36:07,0
-11060,-1136,-7892,-89,279,-131,2025-01-29 10:36:07,0
-10952,-1180,-7560,-56,198,-129,2025-01-29 10:36:07,0
-10900,-1096,-7744,-71,167,-155,2025-01-29 10:36:07,0
-10984,-1196,-7684,-96,186,-215,2025-01-29 10:36:07,0
-10920,-1240,-7876,-60,157,-218,2025-01-29 10:36:07,0
-10984,-1272,-7860,-58,194,-202,2025-01-29 10:36:07,0
-10932,-1200,-7840,-37,293,-196,2025-01-29 10:36:07,0
-10780,-1248,-7844,-23,313,-239,2025-01-29 10:36:07,0
-10900,-1296,-7608,-14,246,-226,2025-01-29 10:36:07,0
-10768,-1152,-7596,-28,318,-248,2025-01-29 10:36:07,0
-10848,-1228,-7880,-108,385,-263,2025-01-29 10:36:07,0
-10892,-1136,-8012,-181,431,-283,2025-01-29 10:36:07,0
