acceleration_x,acceleration_y,acceleration_z,gyroscope_x,gyroscope_y,gyroscope_z,timestamp,label
-13016,-728,-2964,-281,250,-324,2025-02-17 11:26:05,0.0
-13176,-796,-2904,-239,445,-299,2025-02-17 11:26:05,0.0
-13232,-984,-2956,-54,481,-172,2025-02-17 11:26:05,0.0
-13156,-780,-2924,6,584,-206,2025-02-17 11:26:05,0.0
-13244,-716,-2936,17,559,-90,2025-02-17 11:26:05,0.0
-13268,-916,-3068,12,580,-121,2025-02-17 11:26:05,0.0
-13160,-740,-3016,22,439,-64,2025-02-17 11:26:05,0.0
-13216,-804,-3032,69,394,-97,2025-02-17 11:26:05,0.0
-13144,-732,-3200,-166,391,-215,2025-02-17 11:26:05,0.0
-13200,-656,-2772,-104,332,-210,2025-02-17 11:26:05,0.0
-13148,-776,-2976,-49,267,-184,2025-02-17 11:26:05,0.0
-13168,-760,-3052,3,351,-204,2025-02-17 11:26:05,0.0
-13112,-776,-3000,5,481,-242,2025-02-17 11:26:05,0.0
-13308,-684,-2976,162,544,-96,2025-02-17 11:26:05,0.0
-13292,-540,-3068,94,683,-7,2025-02-17 11:26:05,0.0
-13080,-660,-3508,-16,474,-58,2025-02-17 11:26:05,0.0
-13152,-716,-3476,-133,289,-52,2025-02-17 11:26:05,0.0
-13044,-768,-3156,-217,348,-207,2025-02-17 11:26:05,0.0
-13124,-756,-2996,-223,539,-272,2025-02-17 11:26:05,0.0
-12988,-540,-3252,-234,477,-349,2025-02-17 11:26:05,0.0
-13236,-736,-3096,-196,335,-406,2025-02-17 11:26:05,0.0
-12976,-668,-2964,-91,357,-368,2025-02-17 11:26:05,0.0
-13056,-728,-3124,-111,627,-388,2025-02-17 11:26:05,0.0
-13208,-824,-3156,-141,768,-286,2025-02-17 11:26:05,0.0
-13396,-884,-3340,118,353,-21,2025-02-17 11:26:05,0.0
-13128,-844,-3176,139,169,-66,2025-02-17 11:26:05,0.0
-13140,-780,-3264,-23,194,-240,2025-02-17 11:26:05,0.0
-13176,-768,-3444,-132,156,-233,2025-02-17 11:26:05,0.0
-13164,-672,-3284,78,152,-73,2025-02-17 11:26:05,0.0
-13236,-716,-3148,130,360,23,2025-02-17 11:26:05,0.0
-12996,-836,-3248,49,430,-51,2025-02-17 11:26:05,0.0
-13136,-824,-2924,165,518,25,2025-02-17 11:26:05,0.0
-13060,-816,-3448,54,811,46,2025-02-17 11:26:05,0.0
-13028,-736,-3204,-160,1138,-129,2025-02-17 11:26:05,0.0
-13232,-624,-3008,83,1263,-3,2025-02-17 11:26:05,0.0
-13124,-592,-3596,176,1471,159,2025-02-17 11:26:05,0.0
-13084,-700,-3428,146,1676,144,2025-02-17 11:26:05,0.0
-13172,-884,-3516,191,2070,73,2025-02-17 11:26:05,0.0
-13316,-1008,-3936,20,2265,34,2025-02-17 11:26:05,0.0
-13220,-980,-3988,-377,2436,-81,2025-02-17 11:26:05,0.0
-13412,-836,-3540,-122,2179,-17,2025-02-17 11:26:05,0.0
-13096,-476,-3472,196,1202,271,2025-02-17 11:26:05,0.0
-12556,-80,-3364,336,363,304,2025-02-17 11:26:05,0.0
-12312,-76,-3304,488,427,101,2025-02-17 11:26:05,0.0
-12444,-348,-3352,620,1289,25,2025-02-17 11:26:05,0.0
-13104,-440,-3248,776,2021,6,2025-02-17 11:26:05,0.0
-13148,-204,-3416,827,1898,-194,2025-02-17 11:26:05,0.0
-13272,-80,-3488,963,569,-258,2025-02-17 11:26:05,0.0
-12920,-68,-3592,1063,38,-269,2025-02-17 11:26:05,0.0
-12552,372,-4100,978,599,-237,2025-02-17 11:26:05,0.0
-12412,396,-4592,946,979,-84,2025-02-17 11:26:05,0.0
-12024,360,-4508,1126,1242,-66,2025-02-17 11:26:06,0.0
-12436,208,-4280,1201,1927,-238,2025-02-17 11:26:06,0.0
-13100,340,-3152,1134,2241,-582,2025-02-17 11:26:06,0.0
-13580,416,-2928,1102,1740,-796,2025-02-17 11:26:06,0.0
-13908,480,-3208,1031,624,-913,2025-02-17 11:26:06,0.0
-14480,356,-3020,573,-390,-1006,2025-02-17 11:26:06,0.0
-12840,-92,-4220,-270,-972,-1500,2025-02-17 11:26:06,0.0
-11836,-1416,-4204,-842,-901,-2072,2025-02-17 11:26:06,0.0
-10396,-1640,-4120,-1314,237,-2474,2025-02-17 11:26:06,0.0
-11720,-1660,-3216,-1449,2271,-2189,2025-02-17 11:26:06,0.0
-12796,-2172,-3140,-1450,3773,-1134,2025-02-17 11:26:06,0.0
-13468,-2272,-3404,-1650,3378,-1261,2025-02-17 11:26:06,0.0
-14116,-2108,-4084,-1959,2407,-1971,2025-02-17 11:26:06,0.0
-14432,-2132,-4008,-2006,1394,-2369,2025-02-17 11:26:06,0.0
-13908,-2636,-3208,-1601,1053,-2737,2025-02-17 11:26:06,0.0
-14000,-2632,-2176,-1211,1260,-2796,2025-02-17 11:26:06,0.0
-13856,-2128,-1828,-883,1784,-2760,2025-02-17 11:26:06,0.0
-13732,-2104,-2932,-415,1447,-2653,2025-02-17 11:26:06,0.0
-13560,-2232,-3060,-174,624,-2493,2025-02-17 11:26:06,0.0
-12916,-2712,-2816,-45,-525,-2325,2025-02-17 11:26:06,0.0
-12520,-2912,-2772,-16,-1426,-1929,2025-02-17 11:26:06,0.0
-12472,-2856,-1960,-338,-1417,-1527,2025-02-17 11:26:06,0.0
-12264,-2656,-1496,-399,-1249,-1146,2025-02-17 11:26:06,0.0
-12076,-2496,-2344,-456,-1049,-811,2025-02-17 11:26:06,0.0
-11548,-2044,-2660,-839,-681,-743,2025-02-17 11:26:06,0.0
-11324,-1860,-2476,-1004,204,-994,2025-02-17 11:26:06,0.0
-11764,-1580,-2160,-1090,1644,-1262,2025-02-17 11:26:06,0.0
-12256,-1676,-1660,-1053,2568,-1351,2025-02-17 11:26:06,0.0
-13060,-2088,-2156,-1049,2653,-1474,2025-02-17 11:26:06,0.0
-13516,-2232,-1736,-832,1678,-1586,2025-02-17 11:26:06,0.0
-13284,-1864,-1468,-576,390,-1469,2025-02-17 11:26:06,0.0
-13032,-1608,-1324,-701,-376,-1517,2025-02-17 11:26:06,0.0
-12460,-1764,-980,-653,-906,-1572,2025-02-17 11:26:06,0.0
-13156,-1908,-1380,-626,-51,-1189,2025-02-17 11:26:06,0.0
-13612,-1992,-1276,-923,1269,-641,2025-02-17 11:26:06,0.0
-14108,-2600,-1704,-1451,1740,-788,2025-02-17 11:26:06,0.0
-14360,-3456,-2228,-2574,1624,-1930,2025-02-17 11:26:06,0.0
-13988,-3508,-2272,-3210,973,-3724,2025-02-17 11:26:06,0.0
-15444,-3784,-2020,-3667,-574,-4704,2025-02-17 11:26:06,0.0
-15644,-5116,-1984,-3160,-2673,-3888,2025-02-17 11:26:06,0.0
-16096,-5308,-4092,-2995,-3709,-2502,2025-02-17 11:26:06,0.0
-14480,-3684,-5516,-3782,-1332,-2528,2025-02-17 11:26:06,0.0
-16156,-4840,-4744,-4524,1544,-2980,2025-02-17 11:26:06,0.0
-17064,-6572,-5472,-4811,3152,-2806,2025-02-17 11:26:06,0.0
-17504,-6588,-6944,-4407,3735,-2466,2025-02-17 11:26:06,0.0
-17824,-5888,-6480,-3357,1632,-2182,2025-02-17 11:26:06,0.0
-17728,-4576,-6240,-2465,-1396,-844,2025-02-17 11:26:06,0.0
-15904,-4176,-6156,-1640,-5418,2108,2025-02-17 11:26:06,0.0
-13496,-3816,-6472,-839,-6511,4108,2025-02-17 11:26:06,
-11548,-2968,-7268,38,-6213,5446,2025-02-17 11:26:06,0.0
-10768,-1428,-6704,847,-6281,6112,2025-02-17 11:26:06,0.0
-10144,96,-4888,1524,-6526,6016,2025-02-17 11:26:06,0.0
-10228,1360,-2316,2060,-6678,5493,2025-02-17 11:26:06,0.0
-10044,1432,-1892,2279,-6200,5312,2025-02-17 11:26:06,0.0
-9424,252,-2956,2409,-4974,5044,2025-02-17 11:26:06,0.0
-8456,-668,-4396,2319,-1809,4554,2025-02-17 11:26:06,0.0
-8812,-832,-5364,1779,2866,3864,2025-02-17 11:26:06,0.0
-9980,-844,-6116,581,7437,3126,2025-02-17 11:26:06,0.0
-11032,-620,-5276,-664,9208,2805,2025-02-17 11:26:06,0.0
-12068,140,-5300,-1208,9289,2155,2025-02-17 11:26:06,0.0
-13304,332,-4260,-1754,7685,1674,2025-02-17 11:26:06,0.0
-14380,400,-3160,-1109,3704,888,2025-02-17 11:26:06,0.0
-14552,-84,-2856,-310,-1060,1101,2025-02-17 11:26:07,0.0
-13324,-328,-3488,334,-2884,1993,2025-02-17 11:26:07,0.0
-11104,-272,-3416,698,-2887,2687,2025-02-17 11:26:07,0.0
-10396,-464,-3776,888,-2970,3207,2025-02-17 11:26:07,0.0
-9780,-916,-3736,878,-1696,3341,2025-02-17 11:26:07,0.0
-9676,672,-3260,1809,694,2052,2025-02-17 11:26:07,0.0
-10320,1636,-1948,1680,3916,1105,2025-02-17 11:26:07,0.0
-12384,1836,-2404,1321,4533,313,2025-02-17 11:26:07,0.0
-14088,1696,-2772,389,3268,190,2025-02-17 11:26:07,0.0
-14356,600,-2112,357,1136,-881,2025-02-17 11:26:07,0.0
-16376,-116,-1476,1139,-1344,-1049,2025-02-17 11:26:07,0.0
-14300,-484,-2744,1722,-3916,-717,2025-02-17 11:26:07,0.0
-13696,-60,-2640,1987,-4882,-488,2025-02-17 11:26:07,0.0
-12836,500,-2888,2065,-4983,-328,2025-02-17 11:26:07,0.0
-12880,540,-3308,2093,-4089,-64,2025-02-17 11:26:07,0.0
-13024,-40,-3844,1878,-1927,475,2025-02-17 11:26:07,0.0
-14000,-1028,-3632,1755,179,1200,2025-02-17 11:26:07,0.0
-14324,-1052,-2760,2122,319,1784,2025-02-17 11:26:07,0.0
-14452,-752,-1452,2697,-988,1980,2025-02-17 11:26:07,0.0
-13788,-324,-1540,3432,-2363,2019,2025-02-17 11:26:07,0.0
-13748,-140,-1552,3841,-2699,1998,2025-02-17 11:26:07,0.0
-14476,316,-2520,4677,-796,1570,2025-02-17 11:26:07,0.0
-16196,1220,-6528,4988,2731,1117,2025-02-17 11:26:07,0.0
-17148,3332,-12436,3528,5230,933,2025-02-17 11:26:07,0.0
-17216,4236,-11680,2079,5624,1048,2025-02-17 11:26:07,0.0
-15744,2852,-7992,2545,2480,1050,2025-02-17 11:26:07,0.0
-11456,464,-4600,4320,-3488,1003,2025-02-17 11:26:07,0.0
-9064,-644,-3084,6085,-4689,574,2025-02-17 11:26:07,0.0
-8960,-1372,-3856,6290,-3708,99,2025-02-17 11:26:07,0.0
-9840,-2112,-5040,4693,-1346,-211,2025-02-17 11:26:07,0.0
-11408,-2112,-5452,3618,436,-586,2025-02-17 11:26:07,0.0
-11956,-1656,-6284,2912,1535,-1736,2025-02-17 11:26:07,0.0
-12504,-624,-6324,2808,1444,-3175,2025-02-17 11:26:07,0.0
-12968,-784,-5928,2347,1093,-3760,2025-02-17 11:26:07,0.0
-12464,-1388,-5308,1783,1027,-3855,2025-02-17 11:26:07,0.0
-12356,-1220,-4560,1779,1142,-3571,2025-02-17 11:26:07,0.0
-11380,-1032,-5328,1328,1090,-3042,2025-02-17 11:26:07,0.0
-11436,-1356,-4708,1149,748,-2870,2025-02-17 11:26:07,0.0
-12464,-1844,-3468,1280,-790,-2423,2025-02-17 11:26:07,0.0
-12500,-2484,-3328,1685,-2310,-1703,2025-02-17 11:26:07,0.0
-11952,-3080,-4076,1659,-2611,-973,2025-02-17 11:26:07,0.0
-11320,-2760,-4240,1432,-2164,-532,2025-02-17 11:26:07,0.0
-10880,-2528,-3992,917,-912,-240,2025-02-17 11:26:07,0.0
-10600,-1676,-3376,387,1407,-215,2025-02-17 11:26:07,0.0
-10908,-508,-3164,37,2613,-352,2025-02-17 11:26:07,0.0
-11376,-428,-3040,-312,2719,-581,2025-02-17 11:26:07,0.0
-12088,-632,-3484,-578,2451,-662,2025-02-17 11:26:07,0.0
-12604,-844,-3520,-976,2058,-509,2025-02-17 11:26:07,0.0
-12224,-752,-4092,-1418,2236,-125,2025-02-17 11:26:07,0.0
-11736,-200,-4636,-1766,2575,63,2025-02-17 11:26:07,0.0
-11000,636,-5776,-2641,2974,-177,2025-02-17 11:26:07,0.0
-10972,1672,-5492,-4280,3665,-1076,2025-02-17 11:26:07,0.0
-10892,1524,-5404,-5933,3932,-2867,2025-02-17 11:26:07,0.0
-12192,1164,-5724,-6962,3248,-4921,2025-02-17 11:26:07,0.0
-13516,212,-7480,-8191,2023,-6224,2025-02-17 11:26:07,0.0
-14064,-696,-7484,-9951,-79,-6885,2025-02-17 11:26:07,0.0
-13808,-2160,-6492,-11578,-1962,-7481,2025-02-17 11:26:07,0.0
-13612,-3188,-6244,-12634,-2240,-8086,2025-02-17 11:26:07,0.0
-14880,-2484,-6428,-13266,139,-8091,2025-02-17 11:26:07,0.0
-14352,-396,-6376,-13155,2315,-8269,2025-02-17 11:26:07,0.0
-14508,360,-8208,-14441,2138,-9121,2025-02-17 11:26:07,0.0
-14864,2336,-8916,-16611,-1064,-9458,2025-02-17 11:26:07,0.0
-14332,1652,-9396,-18704,-4315,-9576,2025-02-17 11:26:08,0.0
-14652,504,-8944,-19901,-7801,-7553,2025-02-17 11:26:08,0.0
-12320,-1552,-8600,-19112,-8437,-5226,2025-02-17 11:26:08,0.0
-10636,-3216,-8628,-17420,-5474,-3718,2025-02-17 11:26:08,0.0
-10216,-2888,-9564,-17994,-1538,-3524,2025-02-17 11:26:08,0.0
-11572,-1372,-7260,-19231,2622,-3877,2025-02-17 11:26:08,0.0
-12912,240,-7452,-19974,3664,-4209,2025-02-17 11:26:08,0.0
-13696,1404,-6984,-20552,1606,-4878,2025-02-17 11:26:08,0.0
-14720,1592,-7272,-21206,-2732,-5443,2025-02-17 11:26:08,0.0
-12580,1372,-6688,-21617,-6891,-5440,2025-02-17 11:26:08,0.0
-10112,1140,-6380,-21509,-9578,-5633,2025-02-17 11:26:08,0.0
-8100,1656,-6608,-21462,-10732,-5764,2025-02-17 11:26:08,0.0
-7600,2352,-7944,-21758,-10179,-6634,2025-02-17 11:26:08,0.0
-8588,1824,-8832,-22795,-7320,-7334,2025-02-17 11:26:08,0.0
-9528,-740,-8252,-23136,-2902,-7808,2025-02-17 11:26:08,0.0
-10980,-3076,-8012,-22831,370,-7972,2025-02-17 11:26:08,0.0
-13044,-3700,-6996,-22728,2316,-6546,2025-02-17 11:26:08,0.0
-13248,-3808,-4824,-21563,2679,-5543,2025-02-17 11:26:08,0.0
-13456,-3028,-4600,-20649,2028,-5281,2025-02-17 11:26:08,0.0
-13744,-1684,-4620,-19824,482,-5299,2025-02-17 11:26:08,0.0
-13236,-552,-3720,-18418,-1508,-5736,2025-02-17 11:26:08,0.0
-13008,1012,-3580,-16250,-4235,-6546,2025-02-17 11:26:08,5
-14116,1100,-4188,-14342,-4799,-5768,2025-02-17 11:26:08,5
-16420,-1036,-3148,-12821,-2812,-2719,2025-02-17 11:26:08,5
-14480,-3008,-2628,-10487,1926,-315,2025-02-17 11:26:08,5
-11036,-2928,-2696,-10499,12549,-825,2025-02-17 11:26:08,5
-9612,-1684,-1436,-12564,29845,-4769,2025-02-17 11:26:08,5
-12468,1520,1764,-15077,32767,-7433,2025-02-17 11:26:08,5
-13620,3328,3808,-13785,32767,-6523,2025-02-17 11:26:08,5
-12328,1916,2084,-10828,32767,-5773,2025-02-17 11:26:08,5
-10316,980,-1176,-7852,32767,-4334,2025-02-17 11:26:08,5
-3368,92,-4664,-4790,32767,-3119,2025-02-17 11:26:08,5
4848,220,-2936,-4561,20011,-4629,2025-02-17 11:26:08,5
4932,712,-1088,-5450,9502,-5415,2025-02-17 11:26:08,5
3924,-428,1020,-5953,4232,-6022,2025-02-17 11:26:08,5
1236,-672,2072,-5487,2571,-5389,2025-02-17 11:26:08,5
1116,-420,1532,-5505,2463,-3048,2025-02-17 11:26:08,5
1648,-480,1368,-5524,2423,-2020,2025-02-17 11:26:08,5
1860,-248,1552,-5668,1992,-801,2025-02-17 11:26:08,5
2176,-384,1504,-5747,1946,-340,2025-02-17 11:26:08,5
2448,-396,1148,-5861,1877,-111,2025-02-17 11:26:08,5
2576,-552,1212,-6006,1857,-95,2025-02-17 11:26:08,5
2584,-416,1420,-6215,1900,-264,2025-02-17 11:26:08,5
2556,-172,1628,-6381,2262,-585,2025-02-17 11:26:08,5
2256,-552,1444,-6633,2729,-857,2025-02-17 11:26:08,5
2432,-608,988,-6903,3264,-1052,2025-02-17 11:26:08,5
2592,-532,1000,-7201,3699,-1284,2025-02-17 11:26:08,5
2468,-648,1032,-7528,4190,-1610,2025-02-17 11:26:08,5
2496,-532,1028,-7801,4452,-1886,2025-02-17 11:26:08,5
2540,-708,1080,-8197,4630,-1976,2025-02-17 11:26:08,5
2596,-612,748,-8330,4966,-2273,2025-02-17 11:26:08,5
2632,-564,876,-8435,5373,-2589,2025-02-17 11:26:08,5
2816,-476,976,-8494,5882,-3132,2025-02-17 11:26:08,5
2444,-708,1332,-8307,6302,-3544,2025-02-17 11:26:08,5
2536,-328,964,-8062,6607,-3937,2025-02-17 11:26:08,5
-23304,-32768,-32768,-32768,12679,6632,2025-02-17 11:26:08,5
-5948,32767,32767,15784,30585,-24049,2025-02-17 11:26:08,5
-29688,32767,-32768,32767,-10509,-27147,2025-02-17 11:26:08,5
-25084,-3928,-32768,-4098,-12405,-2220,2025-02-17 11:26:08,5
-4192,-2100,-13392,-13917,-10235,1791,2025-02-17 11:26:08,5
5380,-3116,-352,-11627,-14302,652,2025-02-17 11:26:09,5
4956,-2836,4852,-7477,-14633,-2619,2025-02-17 11:26:09,5
4176,-2112,5412,-3106,-11879,-5977,2025-02-17 11:26:09,5
1232,-2352,4104,295,-8547,-7835,2025-02-17 11:26:09,5
-2688,-3272,-492,3101,-3411,-7431,2025-02-17 11:26:09,5
-7132,-4052,-7248,3947,1983,-6668,2025-02-17 11:26:09,5
-9780,-2624,-12920,2886,2276,-5140,2025-02-17 11:26:09,5
-12700,-832,-16920,2084,995,-3417,2025-02-17 11:26:09,5
-12672,372,-19568,1573,723,-1725,2025-02-17 11:26:09,5
-11380,720,-19924,287,1106,-286,2025-02-17 11:26:09,5
-6064,-1564,-14080,-382,1127,-217,2025-02-17 11:26:09,5
-5500,-1856,-10272,-461,1224,-249,2025-02-17 11:26:09,5
-4800,-1320,-10788,-29,-565,-219,2025-02-17 11:26:09,5
-6792,-684,-12660,-149,-20,-200,2025-02-17 11:26:09,5
-7120,-940,-12976,-80,395,-93,2025-02-17 11:26:09,5
-5264,-588,-12484,-205,510,-213,2025-02-17 11:26:09,5
-6304,-1552,-12904,-122,-346,-336,2025-02-17 11:26:09,5
-7132,-832,-12476,-185,213,-209,2025-02-17 11:26:09,5
-6252,-1088,-11912,-130,466,-117,2025-02-17 11:26:09,5
-6228,-816,-12596,-79,-65,-190,2025-02-17 11:26:09,5
-6572,-1072,-12328,-210,211,-216,2025-02-17 11:26:09,5
-6380,-996,-12152,-163,118,-196,2025-02-17 11:26:09,5
-6380,-996,-12260,-114,232,-163,2025-02-17 11:26:09,5
-6264,-952,-12660,-121,169,-225,2025-02-17 11:26:09,5
-6340,-968,-12456,-171,156,-190,2025-02-17 11:26:09,5
-6340,-992,-12212,-146,90,-198,2025-02-17 11:26:09,5
-6572,-1116,-12124,-32,168,-220,2025-02-17 11:26:09,5
-6076,-1080,-12832,-180,328,-194,2025-02-17 11:26:09,5
-6436,-988,-12000,-74,-36,-171,2025-02-17 11:26:09,5
-6388,-1028,-12396,-151,212,-175,2025-02-17 11:26:09,5
-6728,-1036,-12604,-197,718,-221,2025-02-17 11:26:09,5
-5424,-876,-12560,-106,-35,-231,2025-02-17 11:26:09,5
-6588,-1136,-12484,-154,3,-230,2025-02-17 11:26:09,5
-6540,-872,-12116,-204,328,-117,2025-02-17 11:26:09,5
-6204,-1032,-12584,-49,221,-190,2025-02-17 11:26:09,5
-6280,-1204,-12972,-249,131,-175,2025-02-17 11:26:09,5
-6248,-888,-11992,-120,2,-240,2025-02-17 11:26:09,5
-6464,-1088,-12596,-181,311,-170,2025-02-17 11:26:09,5
-6332,-1036,-12252,-87,55,-214,2025-02-17 11:26:09,5
-6488,-920,-12360,-177,255,-190,2025-02-17 11:26:09,5
-6304,-1012,-12420,-127,175,-213,2025-02-17 11:26:09,5
-6200,-928,-12364,-158,180,-183,2025-02-17 11:26:09,5
-6360,-936,-12436,-166,117,-171,2025-02-17 11:26:09,5
-6420,-880,-12464,-182,229,-162,2025-02-17 11:26:09,5
-6248,-1036,-12532,-121,138,-246,2025-02-17 11:26:09,5
-6456,-1032,-12536,-179,240,-145,2025-02-17 11:26:09,5
-6352,-1044,-12044,-152,82,-191,2025-02-17 11:26:09,5
-6348,-1012,-12604,-196,199,-215,2025-02-17 11:26:09,5
-6480,-1056,-12424,-152,187,-174,2025-02-17 11:26:09,5
-6208,-876,-12336,-154,129,-180,2025-02-17 11:26:09,5
-6396,-984,-12540,-184,142,-192,2025-02-17 11:26:09,5
-6504,-896,-12392,-128,168,-139,2025-02-17 11:26:09,5
-6376,-1036,-12488,-136,171,-176,2025-02-17 11:26:09,5
-6380,-1100,-12456,-165,143,-184,2025-02-17 11:26:09,5
-6376,-928,-12488,-147,148,-188,2025-02-17 11:26:09,5
-6348,-892,-12408,-154,184,-178,2025-02-17 11:26:09,5
-6392,-1048,-12316,-164,164,-192,2025-02-17 11:26:10,5
-6360,-960,-12468,-151,180,-177,2025-02-17 11:26:10,5
-6208,-976,-12432,-151,170,-154,2025-02-17 11:26:10,5
-6388,-996,-12476,-171,147,-179,2025-02-17 11:26:10,5
-6364,-960,-12268,-143,175,-183,2025-02-17 11:26:10,5
-6392,-952,-12444,-128,170,-184,2025-02-17 11:26:10,5
-6328,-1028,-12300,-168,167,-191,2025-02-17 11:26:10,5
-6316,-1008,-12508,-149,167,-168,2025-02-17 11:26:10,5
-6372,-1004,-12416,-167,142,-184,2025-02-17 11:26:10,5
-6432,-1032,-12300,-150,187,-160,2025-02-17 11:26:10,5
-6376,-944,-12300,-168,175,-178,2025-02-17 11:26:10,5
-6336,-940,-12272,-156,178,-172,2025-02-17 11:26:10,5
-6416,-956,-12484,-148,171,-183,2025-02-17 11:26:10,5
-6480,-1072,-12436,-161,186,-186,2025-02-17 11:26:10,5
-6404,-1032,-12368,-133,153,-187,2025-02-17 11:26:10,5
-6372,-1000,-12416,-149,187,-180,2025-02-17 11:26:10,5
-6284,-1040,-12456,-159,158,-194,2025-02-17 11:26:10,5
-6336,-1040,-12428,-133,169,-169,2025-02-17 11:26:10,0.0
-6400,-1000,-12324,-179,176,-176,2025-02-17 11:26:10,0.0
-6504,-972,-12500,-130,139,-178,2025-02-17 11:26:10,0.0
-6448,-1024,-12412,-160,165,-192,2025-02-17 11:26:10,0.0
-6300,-992,-12416,-148,150,-164,2025-02-17 11:26:10,0.0
-6336,-1012,-12468,-154,175,-188,2025-02-17 11:26:10,0.0
-6344,-1064,-12416,-170,142,-187,2025-02-17 11:26:10,0.0
-6240,-968,-12364,-161,149,-165,2025-02-17 11:26:10,0.0
-6296,-1008,-12396,-137,176,-178,2025-02-17 11:26:10,0.0
-6464,-984,-12396,-149,185,-170,2025-02-17 11:26:10,0.0
-6336,-1012,-12376,-169,148,-157,2025-02-17 11:26:10,0.0
-6416,-932,-12368,-143,157,-184,2025-02-17 11:26:10,0.0
-6348,-1068,-12312,-131,160,-171,2025-02-17 11:26:10,0.0
-6276,-1016,-12392,-144,159,-158,2025-02-17 11:26:10,0.0
-6344,-1032,-12380,-157,184,-189,2025-02-17 11:26:10,0.0
-6332,-1048,-12388,-151,160,-160,2025-02-17 11:26:10,0.0
-6396,-976,-12344,-152,171,-171,2025-02-17 11:26:10,0.0
-6436,-1088,-12364,-192,147,-176,2025-02-17 11:26:10,0.0
-6344,-1036,-12468,-168,149,-171,2025-02-17 11:26:10,0.0
-6312,-1068,-12448,-155,177,-185,2025-02-17 11:26:10,0.0
-6428,-1012,-12476,-146,163,-180,2025-02-17 11:26:10,0.0
-6428,-1048,-12216,-78,-13,-111,2025-02-17 11:26:10,0.0
-6420,-1056,-12492,-339,149,-273,2025-02-17 11:26:10,0.0
-6260,-928,-12428,-80,168,-130,2025-02-17 11:26:10,0.0
-6272,-1168,-12720,-246,183,-138,2025-02-17 11:26:10,0.0
-6392,-932,-12432,-182,90,-188,2025-02-17 11:26:10,0.0
-6780,-836,-12128,-59,399,-168,2025-02-17 11:26:10,0.0
-6132,-1184,-12420,-281,835,-202,2025-02-17 11:26:10,0.0
-6132,-956,-12372,-275,553,-210,2025-02-17 11:26:10,0.0
-6472,-1120,-12584,-242,467,-165,2025-02-17 11:26:10,0.0
-5768,-792,-13268,65,-147,-206,2025-02-17 11:26:10,0.0
-6508,-1060,-12480,-50,127,-128,2025-02-17 11:26:10,0.0
-6896,-1132,-11744,-110,223,-398,2025-02-17 11:26:10,0.0
-6720,-880,-13096,-150,-131,23,2025-02-17 11:26:10,0.0
-6216,-1196,-12752,-194,83,-249,2025-02-17 11:26:10,0.0
-6816,-1244,-12312,-404,42,7,2025-02-17 11:26:10,0.0
-6336,-772,-12296,-481,443,77,2025-02-17 11:26:10,0.0
-6888,-608,-12628,-66,381,-251,2025-02-17 11:26:10,0.0
-6420,-832,-12096,-274,137,-281,2025-02-17 11:26:10,0.0
-5928,-1084,-12512,-86,60,-270,2025-02-17 11:26:10,0.0
-6608,-820,-12040,-85,946,-325,2025-02-17 11:26:10,0.0
-6480,-680,-12456,145,673,-382,2025-02-17 11:26:10,0.0
-5236,-1056,-12372,-152,1967,-766,2025-02-17 11:26:10,0.0
-6184,-824,-11888,-371,4801,-1515,2025-02-17 11:26:10,0.0
-7576,-1096,-12720,411,1873,-1056,2025-02-17 11:26:10,0.0
-6588,-1172,-13344,605,-333,-347,2025-02-17 11:26:10,0.0
-5080,-620,-11096,658,-994,-489,2025-02-17 11:26:10,0.0
-5500,-1280,-11596,889,-1949,-764,2025-02-17 11:26:10,0.0
-5948,-768,-12064,2285,-3537,-1408,2025-02-17 11:26:10,0.0
-5288,-1244,-13556,3319,-6122,-1766,2025-02-17 11:26:11,0.0
-6924,-1876,-13224,3329,-4555,-3306,2025-02-17 11:26:11,0.0
-6712,-2516,-12168,4724,-2453,-4155,2025-02-17 11:26:11,0.0
-5172,-3296,-12148,6753,-3441,-5985,2025-02-17 11:26:11,0.0
-5408,-4220,-11224,9853,-4785,-9153,2025-02-17 11:26:11,0.0
-4660,-4884,-10212,13980,-7910,-13317,2025-02-17 11:26:11,0.0
-6140,-5928,-12140,15986,-11006,-14931,2025-02-17 11:26:11,0.0
-6880,-7232,-12916,16429,-11074,-15522,2025-02-17 11:26:11,0.0
-5740,-7836,-10352,18373,-8407,-16845,2025-02-17 11:26:11,0.0
-3760,-7556,-7580,21618,-8890,-19659,2025-02-17 11:26:11,0.0
-10892,-2068,-6952,23145,-9804,-14016,2025-02-17 11:26:11,0.0
-7996,-1700,-8672,27302,-3276,-13295,2025-02-17 11:26:11,0.0
-11232,-6136,-16356,27629,4101,-14014,2025-02-17 11:26:11,0.0
-10876,-11188,-16248,25296,9499,-12847,2025-02-17 11:26:11,0.0
-5644,-14856,-9512,23237,7304,-14014,2025-02-17 11:26:11,0.0
-1804,-16300,-4660,22543,-5662,-17257,2025-02-17 11:26:11,0.0
-80,-19432,-4108,22382,-10734,-22410,2025-02-17 11:26:11,0.0
-1252,-23792,-5368,22872,-7971,-28133,2025-02-17 11:26:11,0.0
-2896,-25688,-3476,24672,-5117,-32164,2025-02-17 11:26:11,0.0
-76,-27256,-3988,25829,-5432,-32768,2025-02-17 11:26:11,0.0
-4032,-29136,-6200,27040,-4467,-32768,2025-02-17 11:26:11,0.0
2384,-30936,-8164,24278,-5392,-31849,2025-02-17 11:26:11,0.0
-288,-29252,-7484,20970,-15620,-28664,2025-02-17 11:26:11,0.0
700,-26356,-2736,15579,-25180,-26458,2025-02-17 11:26:11,0.0
-1872,-22920,-2404,12870,-28496,-25555,2025-02-17 11:26:11,0.0
-656,-21368,-1848,10080,-30172,-27337,2025-02-17 11:26:11,0.0
-3936,-22712,392,8802,-27473,-26025,2025-02-17 11:26:11,0.0
-4344,-23532,976,8293,-18628,-21079,2025-02-17 11:26:11,0.0
-5008,-22332,932,7420,-8641,-15779,2025-02-17 11:26:11,0.0
-2328,-19976,216,6044,-723,-12197,2025-02-17 11:26:11,0.0
-1104,-19592,-876,5495,5279,-9934,2025-02-17 11:26:11,0.0
-1716,-20772,-2312,3838,10754,-7733,2025-02-17 11:26:11,0.0
-1976,-20540,468,2908,15453,-2995,2025-02-17 11:26:11,0.0
1172,-20584,2132,2817,18818,275,2025-02-17 11:26:11,0.0
428,-21960,612,1530,20272,2572,2025-02-17 11:26:11,0.0
524,-22936,-9336,-2113,19631,4284,2025-02-17 11:26:11,0.0
2968,-17508,3180,-4842,15957,3753,2025-02-17 11:26:11,0.0
2332,-18448,236,-4293,9681,7660,2025-02-17 11:26:11,0.0
2740,-18980,2044,-7197,1771,7820,2025-02-17 11:26:11,0.0
-688,-18708,1860,-9393,-4167,10980,2025-02-17 11:26:11,0.0
5156,-17152,2648,-10180,-5714,10783,2025-02-17 11:26:11,0.0
5376,-19964,1876,-10607,-3665,10230,2025-02-17 11:26:11,0.0
3244,-18308,3652,-10282,-3457,10473,2025-02-17 11:26:11,
4008,-16324,4760,-6598,-602,10398,2025-02-17 11:26:11,0.0
8228,-17372,2504,-3827,2035,7819,2025-02-17 11:26:11,0.0
6936,-22480,-6256,-9258,-2085,6561,2025-02-17 11:26:11,0.0
7628,-17720,1688,-8610,-9982,4091,2025-02-17 11:26:11,0.0
3128,-16460,1024,-7180,-13622,899,2025-02-17 11:26:11,0.0
584,-16216,4,-7435,-13686,1191,2025-02-17 11:26:11,0.0
1036,-14328,320,-7640,-12254,1977,2025-02-17 11:26:11,0.0
1832,-12548,-156,-8649,-10134,1734,2025-02-17 11:26:11,0.0
1440,-10932,-1756,-10481,-9189,2546,2025-02-17 11:26:11,0.0
584,-9888,-1948,-11938,-8849,4532,2025-02-17 11:26:11,0.0
856,-9284,-912,-11487,-8840,6740,2025-02-17 11:26:11,0.0
1492,-9204,256,-9221,-9700,8393,2025-02-17 11:26:11,0.0
1712,-10308,-6048,-12021,-10830,9418,2025-02-17 11:26:11,0.0
1008,-10580,-4040,-13264,-12003,11222,2025-02-17 11:26:11,0.0
-2572,-10732,-2528,-13366,-12599,13386,2025-02-17 11:26:11,0.0
-6304,-11624,3544,-11076,-13572,17221,2025-02-17 11:26:11,0.0
-4136,-11500,8192,-5925,-15144,18958,2025-02-17 11:26:11,0.0
-820,-12684,4808,-2889,-15969,17284,2025-02-17 11:26:11,0.0
-2804,-12088,3848,-2231,-15255,16726,2025-02-17 11:26:12,0.0
-3080,-10732,3864,-340,-13737,17883,2025-02-17 11:26:12,0.0
-5036,-9252,3240,1579,-11539,20242,2025-02-17 11:26:12,0.0
-5904,-9112,52,3143,-8298,25430,2025-02-17 11:26:12,0.0
-5400,-8964,-892,3634,-7554,28579,2025-02-17 11:26:12,0.0
-4968,-9304,352,5023,-9322,29674,2025-02-17 11:26:12,0.0
-6404,-9576,1008,7390,-11901,29979,2025-02-17 11:26:12,0.0
-5060,-10060,-604,9273,-13448,28753,2025-02-17 11:26:12,0.0
-7036,-8684,-2408,9794,-12805,27324,2025-02-17 11:26:12,0.0
-8436,-8068,-5928,8489,-10502,27420,2025-02-17 11:26:12,0.0
-7136,-8436,-6344,6528,-7805,27146,2025-02-17 11:26:12,0.0
-9052,-9484,-3868,5911,-5778,27063,2025-02-17 11:26:12,0.0
-9136,-9624,-2020,6464,-4451,27400,2025-02-17 11:26:12,0.0
-9120,-8424,-1172,6250,-3155,27001,2025-02-17 11:26:12,0.0
-9624,-5360,1292,4912,-1218,24754,2025-02-17 11:26:12,0.0
-10172,-4436,1048,4103,-333,23122,2025-02-17 11:26:12,0.0
-8896,-3568,892,3169,509,20085,2025-02-17 11:26:12,0.0
-9592,-2432,412,2767,1500,16987,2025-02-17 11:26:12,0.0
-11128,-1144,-244,1808,2983,15851,2025-02-17 11:26:12,0.0
-10648,-364,-544,694,4739,14453,2025-02-17 11:26:12,0.0
-8924,700,-792,-119,5941,10900,2025-02-17 11:26:12,0.0
-9264,1192,-708,-411,6191,6767,2025-02-17 11:26:12,0.0
-12496,244,-676,-803,6207,4214,2025-02-17 11:26:12,0.0
-13800,1112,6736,-1865,-18277,-1043,2025-02-17 11:26:12,0.0
-18156,764,1064,-2200,-1638,-2231,2025-02-17 11:26:12,0.0
-17452,-1468,44,251,8740,-1099,2025-02-17 11:26:12,0.0
-14748,-3276,-860,734,2983,-826,2025-02-17 11:26:12,0.0
-19028,-2356,1324,386,-4096,811,2025-02-17 11:26:12,0.0
-15776,-1288,2524,1689,-8180,1576,2025-02-17 11:26:12,0.0
-14028,-392,1624,1338,-7637,1635,2025-02-17 11:26:12,0.0
-10300,-396,-248,118,-3599,394,2025-02-17 11:26:12,0.0
-11672,380,-68,-1092,768,-23,2025-02-17 11:26:12,0.0
-11852,352,636,-1493,3258,-376,2025-02-17 11:26:12,0.0
-12492,-104,2640,-703,4380,-835,2025-02-17 11:26:12,0.0
-15176,872,604,-975,3547,106,2025-02-17 11:26:12,0.0
-14440,540,200,-2713,1379,-390,2025-02-17 11:26:12,0.0
-14508,136,1432,-3279,205,-494,2025-02-17 11:26:12,0.0
-13340,120,1332,-3860,738,-333,2025-02-17 11:26:12,0.0
-12988,-148,1268,-4384,2028,-70,2025-02-17 11:26:12,0.0
-12712,172,1780,-4551,3130,-187,2025-02-17 11:26:12,0.0
-13400,892,1076,-4989,4002,-339,2025-02-17 11:26:12,0.0
-13600,1528,260,-5654,4586,-235,2025-02-17 11:26:12,0.0
-13080,2140,40,-6072,4844,-606,2025-02-17 11:26:12,0.0
-13216,2108,164,-6974,5393,-1170,2025-02-17 11:26:12,0.0
-12992,1892,-216,-9289,7663,-1748,2025-02-17 11:26:12,0.0
-12984,1588,744,-9653,8519,-1951,2025-02-17 11:26:12,0.0
-13456,2188,76,-10293,8695,-2684,2025-02-17 11:26:12,0.0
-13784,2104,-96,-11077,8789,-3247,2025-02-17 11:26:12,0.0
-13072,932,-76,-10388,7334,-3291,2025-02-17 11:26:12,0.0
-15148,648,-2736,-10905,6413,-2318,2025-02-17 11:26:12,0.0
-14660,648,-2508,-12241,6063,-1901,2025-02-17 11:26:12,0.0
-14020,1136,-2056,-12124,5100,-1331,2025-02-17 11:26:12,0.0
-13236,1064,-3308,-12631,4385,-1276,2025-02-17 11:26:12,0.0
-13400,596,-3080,-13411,4386,-1960,2025-02-17 11:26:12,0.0
-13088,320,-2864,-13972,4257,-3219,2025-02-17 11:26:12,0.0
-14124,272,-3188,-13837,3003,-3859,2025-02-17 11:26:12,0.0
-13216,560,-2460,-14331,1499,-4492,2025-02-17 11:26:12,0.0
-14080,612,-2804,-14543,511,-4867,2025-02-17 11:26:13,0.0
-13848,444,-3348,-14566,-544,-4968,2025-02-17 11:26:13,0.0
-13648,448,-2888,-15344,-1114,-4832,2025-02-17 11:26:13,0.0
-13096,292,-956,-14811,-1573,-5019,2025-02-17 11:26:13,0.0
-13588,64,-2676,-14913,-2108,-4456,2025-02-17 11:26:13,0.0
-13036,-380,-1180,-14772,-1977,-4080,2025-02-17 11:26:13,0.0
-13432,-456,-2600,-14548,-1269,-3330,2025-02-17 11:26:13,0.0
-12960,-568,-2412,-14793,77,-3038,2025-02-17 11:26:13,0.0
-13208,-592,-3456,-15327,1409,-2863,2025-02-17 11:26:13,0.0
-13492,-644,-3216,-16787,3832,-1947,2025-02-17 11:26:13,0.0
-13488,-604,-1832,-16659,5235,-1847,2025-02-17 11:26:13,0.0
-12884,-196,-1728,-16035,6229,-2194,2025-02-17 11:26:13,0.0
-12188,292,-2128,-15695,6996,-3391,2025-02-17 11:26:13,0.0
-12316,48,-3376,-15730,6822,-4467,2025-02-17 11:26:13,0.0
-12464,168,-3252,-15380,6864,-5427,2025-02-17 11:26:13,0.0
-13104,508,-3192,-14741,6802,-5963,2025-02-17 11:26:13,0.0
-13964,212,-3332,-13948,5592,-5996,2025-02-17 11:26:13,0.0
-14688,48,-3468,-13405,3863,-5484,2025-02-17 11:26:13,0.0
-14628,-52,-2992,-12369,1184,-4526,2025-02-17 11:26:13,0.0
-13348,184,-2872,-11271,-551,-3708,2025-02-17 11:26:13,0.0
-12120,124,-2880,-10606,-1125,-3677,2025-02-17 11:26:13,0.0
-12144,96,-2420,-10037,-808,-3519,2025-02-17 11:26:13,0.0
-12436,-536,-2844,-9777,-68,-3209,2025-02-17 11:26:13,0.0
-12916,-888,-2928,-9562,817,-2862,2025-02-17 11:26:13,0.0
-13048,-1136,-2324,-9378,1902,-2608,2025-02-17 11:26:13,
-13884,-1180,-2512,-9174,2791,-2273,2025-02-17 11:26:13,0.0
-14040,-1044,-2312,-8862,3286,-2092,2025-02-17 11:26:13,0.0
-14400,-368,-2192,-8604,3002,-1886,2025-02-17 11:26:13,0.0
-14576,44,-1752,-8505,2016,-1609,2025-02-17 11:26:13,0.0
-14848,-304,-1776,-8353,995,-1576,2025-02-17 11:26:13,0.0
-14920,-1492,-160,-5945,-2360,-846,2025-02-17 11:26:13,0.0
-14276,-1648,1292,-4849,-4301,-708,2025-02-17 11:26:13,0.0
-12504,-924,-788,-3716,-6821,-499,2025-02-17 11:26:13,0.0
-13776,44,780,-3138,-8207,-820,2025-02-17 11:26:13,0.0
-12628,636,-1304,-2503,-7347,-1338,2025-02-17 11:26:13,0.0
-12680,1100,-3056,-2127,-4195,-1868,2025-02-17 11:26:13,0.0
-11348,1292,-3540,-1789,-1160,-2872,2025-02-17 11:26:13,0.0
-11936,440,-3252,-1319,35,-4157,2025-02-17 11:26:13,0.0
-12816,-1144,-3232,-1332,500,-5186,2025-02-17 11:26:13,0.0
-13384,-1584,-3664,-1137,1129,-5545,2025-02-17 11:26:13,0.0
-12836,-2272,-4452,-1370,1337,-6051,2025-02-17 11:26:13,0.0
-12612,-2500,-4108,-1921,1305,-6802,2025-02-17 11:26:13,0.0
-13704,-2980,-3648,-2091,1495,-6518,2025-02-17 11:26:13,0.0
-14956,-2648,-2988,-2028,2808,-5174,2025-02-17 11:26:13,0.0
-15060,-1940,-2052,-1738,2978,-3883,2025-02-17 11:26:13,0.0
-15152,-2320,-2308,-1537,2448,-3578,2025-02-17 11:26:13,0.0
-14720,-2016,-2512,-1415,1962,-3296,2025-02-17 11:26:13,0.0
-13652,-2016,-3184,-1462,770,-3198,2025-02-17 11:26:13,0.0
-12660,-2100,-4016,-1492,382,-3080,2025-02-17 11:26:13,0.0
-12208,-2660,-3492,-1228,541,-2621,2025-02-17 11:26:13,0.0
-11944,-2860,-3492,-1170,2365,-2182,2025-02-17 11:26:13,0.0
-12924,-2920,-3948,-1598,4698,-1986,2025-02-17 11:26:13,0.0
-13348,-2960,-3220,-1654,3979,-1737,2025-02-17 11:26:13,0.0
-12888,-2504,-2856,-1335,1458,-1475,2025-02-17 11:26:13,0.0
-11764,-1968,-3080,-955,436,-1085,2025-02-17 11:26:13,0.0
-11292,-1316,-2428,-936,288,-1073,2025-02-17 11:26:13,0.0
-10876,-1228,-3484,-1609,700,-1070,2025-02-17 11:26:13,0.0
-11420,-1372,-3064,-2182,1924,-1006,2025-02-17 11:26:13,0.0
-12260,-2080,-1236,-2433,3151,-169,2025-02-17 11:26:14,0.0
-12216,-2256,-1656,-2535,2940,264,2025-02-17 11:26:14,0.0
-12728,-2328,-932,-2712,2206,822,2025-02-17 11:26:14,0.0
-13192,-2496,-640,-2594,1838,998,2025-02-17 11:26:14,0.0
-13800,-1868,172,-2455,1338,1162,2025-02-17 11:26:14,0.0
-14052,-1660,-308,-2072,426,1155,2025-02-17 11:26:14,0.0
-14192,-1408,-324,-1510,-824,734,2025-02-17 11:26:14,0.0
-15252,-1844,-188,-1206,-1270,614,2025-02-17 11:26:14,0.0
-13992,-1684,-1776,-1082,-2312,512,2025-02-17 11:26:14,0.0
-14904,-932,-796,-584,-3224,399,2025-02-17 11:26:14,0.0
-14652,-1972,-272,-354,-3890,218,2025-02-17 11:26:14,0.0
-15692,-3884,-940,-1109,-4785,35,2025-02-17 11:26:14,0.0
-16044,-3348,-3520,-1553,-5091,-601,2025-02-17 11:26:14,0.0
-16272,-3216,-5256,-2157,-3414,-1197,2025-02-17 11:26:14,0.0
-15972,-4332,-6348,-2731,-1238,-1595,2025-02-17 11:26:14,0.0
-14980,-4228,-5760,-3166,-687,-1363,2025-02-17 11:26:14,0.0
-13964,-4000,-6820,-3688,-567,-1094,2025-02-17 11:26:14,0.0
-13704,-2372,-6920,-4320,711,-361,2025-02-17 11:26:14,0.0
-12808,-144,-8396,-5013,2560,-450,2025-02-17 11:26:14,0.0
-12116,1224,-9600,-4809,3071,-628,2025-02-17 11:26:14,0.0
-14920,844,-6716,-4038,3265,-491,2025-02-17 11:26:14,0.0
-15016,-124,-6496,-2766,2314,159,2025-02-17 11:26:14,0.0
-16032,-400,-5216,-1906,1533,1094,2025-02-17 11:26:14,0.0
-15792,-548,-4744,-1106,517,2230,2025-02-17 11:26:14,0.0
-14856,-968,-4816,-493,-804,3179,2025-02-17 11:26:14,0.0
-13236,-1488,-5468,-222,-1886,3775,2025-02-17 11:26:14,0.0
-12036,-1676,-5472,-160,-2492,4154,2025-02-17 11:26:14,0.0
-10488,-1372,-5152,-146,-2467,4113,2025-02-17 11:26:14,0.0
-10168,-1024,-3440,-142,-2146,3870,2025-02-17 11:26:14,0.0
-10536,-260,-1796,-165,-1302,3530,2025-02-17 11:26:14,0.0
-9640,304,-2204,-290,-857,2931,2025-02-17 11:26:14,0.0
-9704,720,-2500,-261,-645,2133,2025-02-17 11:26:14,0.0
-10180,1044,-2488,83,-103,1605,2025-02-17 11:26:14,0.0
-9976,1220,-2964,600,739,1268,2025-02-17 11:26:14,0.0
-10228,768,-1352,1869,1338,950,2025-02-17 11:26:14,0.0
-10204,1144,-4032,1821,1654,671,2025-02-17 11:26:14,0.0
-10752,1292,-2680,1933,2037,367,2025-02-17 11:26:14,0.0
-11240,880,-2112,2946,1882,-20,2025-02-17 11:26:14,0.0
-11068,360,-3384,2611,1299,-574,2025-02-17 11:26:14,0.0
-12256,776,-2840,3085,594,-539,2025-02-17 11:26:14,0.0
-12404,1160,-3852,3284,246,-185,2025-02-17 11:26:14,0.0
-12276,920,-3500,2929,-104,-636,2025-02-17 11:26:14,0.0
-12364,796,-3228,2844,-404,-1015,2025-02-17 11:26:14,0.0
-12036,1008,-3368,2847,-845,-1275,2025-02-17 11:26:14,0.0
-12412,600,-2864,2919,-1595,-1342,2025-02-17 11:26:14,0.0
-12748,264,-2736,2951,-2109,-1168,2025-02-17 11:26:14,0.0
-12416,-36,-2728,2750,-2589,-1185,2025-02-17 11:26:14,0.0
-12516,-256,-2772,2593,-2456,-1449,2025-02-17 11:26:14,0.0
-14044,100,-2904,2637,904,-211,2025-02-17 11:26:14,0.0
-14252,-56,-2352,2732,1656,105,2025-02-17 11:26:14,0.0
-15116,-48,-1572,2842,2472,291,2025-02-17 11:26:14,0.0
-16376,100,-1988,3135,2924,757,2025-02-17 11:26:14,0.0
-17336,-404,-3064,3657,2627,1700,2025-02-17 11:26:14,0.0
-17844,124,-4424,4525,2316,2842,2025-02-17 11:26:14,0.0
-17320,1100,-5884,5052,2898,4481,2025-02-17 11:26:14,0.0
-16440,64,-6424,5576,2924,4794,2025-02-17 11:26:14,0.0
-16432,-1384,-6268,5645,3901,4502,2025-02-17 11:26:14,0.0
-14908,-1660,-5484,5294,4849,3628,2025-02-17 11:26:14,0.0
-12016,-824,-5488,5856,3958,2206,2025-02-17 11:26:14,0.0
-8984,-436,-7912,6337,2171,858,2025-02-17 11:26:14,0.0
-7480,-1556,-10048,5647,1094,-194,2025-02-17 11:26:14,0.0
-8084,-2028,-10472,3979,1763,-895,2025-02-17 11:26:14,0.0
-9024,-2732,-9596,2562,3569,-1549,2025-02-17 11:26:14,0.0
-10656,-3828,-8876,1198,5358,-2623,2025-02-17 11:26:14,0.0
-12840,-2392,-7068,459,5992,-3086,2025-02-17 11:26:15,0.0
-12764,-440,-6468,1112,4236,-2606,2025-02-17 11:26:15,0.0
-12208,-524,-6544,1835,231,-2846,2025-02-17 11:26:15,
-11708,-900,-7048,2323,-4150,-3050,2025-02-17 11:26:15,0.0
-11660,-1340,-7076,2587,-7439,-2994,2025-02-17 11:26:15,0.0
-11324,-2056,-6896,2725,-9810,-2627,2025-02-17 11:26:15,0.0
-10708,-3152,-1268,3235,-9800,-1980,2025-02-17 11:26:15,0.0
-9996,-2804,-5504,2863,-2125,-1088,2025-02-17 11:26:15,0.0
-9204,-2740,-6164,2022,2488,-329,2025-02-17 11:26:15,0.0
-10348,-2460,-6300,1358,3909,160,2025-02-17 11:26:15,0.0
-11600,-1804,-5916,953,4137,406,2025-02-17 11:26:15,0.0
-12020,-1444,-5508,441,3316,262,2025-02-17 11:26:15,0.0
-12664,-1632,-5032,130,1950,-355,2025-02-17 11:26:15,0.0
-13592,-2364,-5268,-41,668,-353,2025-02-17 11:26:15,0.0
-13144,-2808,-4696,154,-651,195,2025-02-17 11:26:15,0.0
-12464,-2836,-4452,603,-1394,802,2025-02-17 11:26:15,0.0
-11248,-2092,-2824,2397,-974,1831,2025-02-17 11:26:15,0.0
-12176,-924,-6004,2808,-1440,3824,2025-02-17 11:26:15,0.0
-12036,-1992,-4724,2020,-2586,4533,2025-02-17 11:26:15,0.0
-11700,-2640,-2700,2426,-4326,5040,2025-02-17 11:26:15,0.0
-11844,-3176,-2088,3824,-5285,5112,2025-02-17 11:26:15,0.0
-12372,-3592,-2940,5012,-4899,5357,2025-02-17 11:26:15,0.0
-12392,-3184,-6360,5293,-1938,4863,2025-02-17 11:26:15,0.0
-12616,-1752,-9344,4607,4078,3215,2025-02-17 11:26:15,0.0
-13764,-1352,-10168,3573,8782,1405,2025-02-17 11:26:15,0.0
-14944,-2900,-7304,3362,9075,814,2025-02-17 11:26:15,0.0
-15200,-3400,-4840,4307,5155,1655,2025-02-17 11:26:15,0.0
-14928,-3680,-4216,5008,1071,2958,2025-02-17 11:26:15,0.0
-13780,-3648,-4332,5776,-1363,4009,2025-02-17 11:26:15,0.0
-12228,-3500,-5692,6090,-1711,4536,2025-02-17 11:26:15,0.0
-11320,-3168,-6148,5987,-1289,4815,2025-02-17 11:26:15,0.0
-10552,-2952,-5048,6096,202,5125,2025-02-17 11:26:15,0.0
-10404,-2372,-4504,6521,2742,5281,2025-02-17 11:26:15,0.0
-10948,-1300,-4020,7280,4621,4856,2025-02-17 11:26:15,0.0
-12108,-812,-4084,8442,5759,5070,2025-02-17 11:26:15,0.0
-12244,-828,-4076,10182,6439,5511,2025-02-17 11:26:15,0.0
-12524,-1064,-5356,12568,5968,5999,2025-02-17 11:26:15,0.0
-12848,-392,-5772,14600,4107,6219,2025-02-17 11:26:15,0.0
-13344,1020,-6332,16599,953,6369,2025-02-17 11:26:15,0.0
-13748,1684,-5948,17726,-1577,6380,2025-02-17 11:26:15,0.0
-13568,592,-5168,18645,-3530,5921,2025-02-17 11:26:15,0.0
-13384,-888,-4856,19550,-4600,5851,2025-02-17 11:26:15,0.0
-12824,-1796,-5928,20371,-4682,6170,2025-02-17 11:26:15,0.0
-12520,-2248,-6800,20279,-4133,7371,2025-02-17 11:26:15,0.0
-10196,-1904,-7104,20743,-3263,8511,2025-02-17 11:26:15,0.0
-9188,-984,-7564,21572,-2260,7861,2025-02-17 11:26:15,0.0
-9524,384,-7996,21517,-918,6343,2025-02-17 11:26:15,0.0
-12188,692,-7372,20991,180,5499,2025-02-17 11:26:15,0.0
-13784,-148,-5624,21137,-194,5995,2025-02-17 11:26:15,0.0
-13428,-1608,-5796,22214,-3075,6470,2025-02-17 11:26:15,0.0
-12624,-1200,-7372,22419,-4943,7130,2025-02-17 11:26:15,0.0
-10940,-536,-8200,22390,-5203,7034,2025-02-17 11:26:15,0.0
-11100,1056,-8892,22310,-2919,7565,2025-02-17 11:26:15,0.0
-11552,2536,-7756,22241,1638,8656,2025-02-17 11:26:15,0.0
-12200,2484,-5444,22670,2780,9358,2025-02-17 11:26:15,0.0
-12848,1504,-5300,22673,537,9236,2025-02-17 11:26:16,0.0
-12228,1028,-6472,22375,-3260,8191,2025-02-17 11:26:16,0.0
-11036,-92,-6816,22954,-7334,6843,2025-02-17 11:26:16,0.0
-10092,-1924,-6820,23838,-7841,5558,2025-02-17 11:26:16,0.0
-10372,-2608,-8104,23025,-3065,4510,2025-02-17 11:26:16,0.0
-10656,-1816,-7160,21231,3348,4207,2025-02-17 11:26:16,0.0
-11296,-1860,-4360,19728,6983,4255,2025-02-17 11:26:16,0.0
-12236,-1868,-2900,19501,7244,3997,2025-02-17 11:26:16,0.0
-13336,-1320,-3240,19615,5572,4128,2025-02-17 11:26:16,0.0
-13904,-1372,-3676,19730,3076,4472,2025-02-17 11:26:16,0.0
-14980,-2120,-4692,19620,2425,4929,2025-02-17 11:26:16,0.0
-15536,-2448,-5448,18948,2438,6046,2025-02-17 11:26:16,0.0
-14908,-2092,-4580,18775,1430,6955,2025-02-17 11:26:16,0.0
-14784,-1300,-3672,19566,-264,7586,2025-02-17 11:26:16,0.0
-13208,-900,-2836,20460,-1731,7535,2025-02-17 11:26:16,0.0
-12208,-556,-3732,19972,-2196,7534,2025-02-17 11:26:16,0.0
-11112,-224,-4568,18720,-1889,6840,2025-02-17 11:26:16,0.0
-11128,-556,-4888,17168,-1000,6019,2025-02-17 11:26:16,0.0
-11592,-1488,-3696,16068,-249,5570,2025-02-17 11:26:16,0.0
-11256,-2388,-3180,16125,286,5083,2025-02-17 11:26:16,0.0
-11376,-3064,-3384,16850,242,4326,2025-02-17 11:26:16,0.0
-13356,-2112,-4300,16526,1834,4995,2025-02-17 11:26:16,0.0
-13084,-1188,-3400,15900,2616,5552,2025-02-17 11:26:16,0.0
-12636,-1056,-3268,15512,1832,5450,2025-02-17 11:26:16,0.0
-12716,-1520,-3536,15085,709,5161,2025-02-17 11:26:16,0.0
-12672,-2304,-3932,14670,-257,4943,2025-02-17 11:26:16,0.0
-13024,-2716,-5004,14601,-580,4897,2025-02-17 11:26:16,0.0
-13292,-2224,-5500,13286,388,5280,2025-02-17 11:26:16,0.0
-12864,-1472,-5452,11943,1378,5532,2025-02-17 11:26:16,0.0
-12592,-1024,-5048,10841,1833,5656,2025-02-17 11:26:16,0.0
-12308,-1036,-4116,10615,1521,6020,2025-02-17 11:26:16,0.0
-12028,-1664,-3964,10931,722,6337,2025-02-17 11:26:16,0.0
-11528,-1312,-5040,10997,1299,6169,2025-02-17 11:26:16,0.0
-11964,-2000,-6836,10471,5532,5686,2025-02-17 11:26:16,0.0
-13132,-2000,-8176,9674,9214,5954,2025-02-17 11:26:16,0.0
-14128,-1716,-6664,9791,9432,6812,2025-02-17 11:26:16,0.0
-14636,-372,-4892,11493,4698,7777,2025-02-17 11:26:16,0.0
-13364,2608,-5552,12380,-165,7942,2025-02-17 11:26:16,0.0
-11336,4204,-5992,11378,-3233,6238,2025-02-17 11:26:16,0.0
-10448,2412,-5844,10035,-3392,4212,2025-02-17 11:26:16,0.0
-9976,340,-3808,10560,-1759,2751,2025-02-17 11:26:16,0.0
-11316,-648,-3968,11638,10,2422,2025-02-17 11:26:16,0.0
-12936,-52,-5152,12215,1004,3812,2025-02-17 11:26:16,0.0
-12664,1008,-6460,12133,1563,5042,2025-02-17 11:26:16,0.0
-13180,1984,-6016,11127,821,4800,2025-02-17 11:26:16,0.0
-13424,3044,-5076,10626,-420,5038,2025-02-17 11:26:16,0.0
-12688,3580,-5516,10571,-1657,4787,2025-02-17 11:26:16,0.0
-11872,3120,-6144,10248,-2057,4567,2025-02-17 11:26:16,
-10608,2876,-6476,9675,-1252,3941,2025-02-17 11:26:16,0.0
-10100,2512,-6564,8598,491,2825,2025-02-17 11:26:16,0.0
-10808,1828,-6284,7390,1600,1836,2025-02-17 11:26:16,0.0
-11440,1760,-5980,6201,1555,1110,2025-02-17 11:26:16,0.0
-12176,2072,-5236,4926,660,883,2025-02-17 11:26:16,0.0
-11476,2336,-4444,3917,-402,430,2025-02-17 11:26:16,0.0
-11684,1876,-4824,3914,-490,390,2025-02-17 11:26:16,0.0
-11332,2000,-5464,3853,245,310,2025-02-17 11:26:16,0.0
-11844,1804,-6776,2603,2108,185,2025-02-17 11:26:16,0.0
-12444,1288,-6760,652,3847,82,2025-02-17 11:26:16,0.0
-13092,1028,-5600,-353,3840,19,2025-02-17 11:26:16,0.0
-14252,1148,-3644,929,2332,812,2025-02-17 11:26:16,0.0
-14052,1036,-4664,2543,933,1598,2025-02-17 11:26:16,0.0
-13072,1844,-5680,2324,396,1226,2025-02-17 11:26:16,0.0
-13100,1596,-5212,1564,-321,706,2025-02-17 11:26:16,0.0
-12732,976,-4980,981,-377,258,2025-02-17 11:26:16,0.0
-12000,844,-4040,1226,-823,-99,2025-02-17 11:26:17,0.0
-11636,636,-3876,1976,-528,-532,2025-02-17 11:26:17,0.0
-12000,888,-4000,2137,245,-637,2025-02-17 11:26:17,0.0
-12876,1172,-4876,1536,618,-850,2025-02-17 11:26:17,0.0
-13472,960,-4760,864,65,-1017,2025-02-17 11:26:17,0.0
-13632,1060,-4960,451,-775,-1066,2025-02-17 11:26:17,0.0
-13080,1056,-4824,346,-1409,-979,2025-02-17 11:26:17,0.0
-12216,744,-4628,323,-1222,-896,2025-02-17 11:26:17,0.0
-11488,400,-5024,276,-548,-927,2025-02-17 11:26:17,0.0
-11504,-892,-3368,-545,771,-867,2025-02-17 11:26:17,0.0
-12300,-924,-3476,-987,1163,-549,2025-02-17 11:26:17,0.0
-13120,-980,-5240,-1616,1594,-521,2025-02-17 11:26:17,0.0
-13864,-1040,-6120,-1951,1830,-762,2025-02-17 11:26:17,0.0
-14824,-964,-5136,-2183,1808,-1055,2025-02-17 11:26:17,0.0
-14696,-1476,-4020,-2089,1185,-1781,2025-02-17 11:26:17,0.0
-14472,-1704,-3032,-2090,-78,-2380,2025-02-17 11:26:17,0.0
-13516,-1536,-2872,-2585,-1432,-2627,2025-02-17 11:26:17,0.0
-12780,-1216,-2924,-3332,-1858,-2966,2025-02-17 11:26:17,0.0
-12428,-888,-2576,-3745,-1485,-3015,2025-02-17 11:26:17,0.0
-12052,-1236,-3384,-3304,-1551,-3091,2025-02-17 11:26:17,0.0
-11660,-960,-2256,-2666,-1749,-2949,2025-02-17 11:26:17,0.0
-11804,-1124,-2580,-2098,-1855,-2801,2025-02-17 11:26:17,0.0
-11580,-776,-2540,-2354,-1229,-3076,2025-02-17 11:26:17,0.0
-11908,-520,-2700,-2897,-605,-3297,2025-02-17 11:26:17,0.0
-12528,-116,-2456,-3613,652,-3468,2025-02-17 11:26:17,0.0
-13492,-1236,-3332,-4076,1342,-3186,2025-02-17 11:26:17,0.0
-13144,-2116,-2464,-4218,556,-2965,2025-02-17 11:26:17,0.0
-13592,-2296,-1488,-3715,-254,-2129,2025-02-17 11:26:17,0.0
-12852,-2376,-1904,-3482,-412,-1685,2025-02-17 11:26:17,0.0
-11808,-1404,-1708,-3820,-223,-1615,2025-02-17 11:26:17,0.0
-11504,-960,-3260,-5009,749,-1683,2025-02-17 11:26:17,0.0
-11968,-884,-2304,-5643,1929,-1932,2025-02-17 11:26:17,0.0
-12380,-680,-3576,-6813,3459,-1844,2025-02-17 11:26:17,0.0
-12800,-1228,-3508,-7725,5134,-1553,2025-02-17 11:26:17,0.0
-13120,-1436,-2956,-7086,6261,-1310,2025-02-17 11:26:17,0.0
-14460,-1460,-1536,-5498,5931,-1597,2025-02-17 11:26:17,0.0
-16284,-1440,-704,-3687,1906,-2500,2025-02-17 11:26:17,0.0
-15516,-2996,-2044,-3131,-1774,-3662,2025-02-17 11:26:17,0.0
-14316,-4260,-2008,-2323,-3926,-3643,2025-02-17 11:26:17,0.0
-13868,-4280,-2272,-1927,-4351,-2936,2025-02-17 11:26:17,0.0
-12808,-4028,-5688,-2182,-2241,-2709,2025-02-17 11:26:17,0.0
-13528,-1816,-5084,-2178,1347,-3168,2025-02-17 11:26:17,0.0
-17460,-3360,-4052,-834,6243,-3035,2025-02-17 11:26:17,0.0
-20312,-5812,-7752,-563,8679,-1735,2025-02-17 11:26:17,0.0
-19880,-6820,-11412,-708,6145,40,2025-02-17 11:26:17,0.0
-19300,-6112,-10608,-135,2430,973,2025-02-17 11:26:17,0.0
-18372,-3416,-7852,772,-2827,1925,2025-02-17 11:26:17,0.0
-15964,-1752,-6932,377,-7766,3354,2025-02-17 11:26:17,0.0
-11380,-1724,-7912,10,-9903,4469,2025-02-17 11:26:17,0.0
-9812,-1320,-7004,626,-9586,5105,2025-02-17 11:26:17,0.0
-8712,212,-6908,2044,-8514,5576,2025-02-17 11:26:17,0.0
-7812,1552,-5616,3280,-6371,5145,2025-02-17 11:26:17,0.0
-9232,1880,-4572,3799,-2754,4225,2025-02-17 11:26:17,0.0
-10280,1612,-5300,2618,-749,3838,2025-02-17 11:26:17,0.0
-10336,252,-5388,2022,-530,3086,2025-02-17 11:26:17,0.0
-11692,-1056,-6648,2067,1260,3786,2025-02-17 11:26:17,0.0
-11472,-776,-7064,1895,4114,4923,2025-02-17 11:26:17,0.0
-11604,-360,-6484,1332,5259,4781,2025-02-17 11:26:17,0.0
-12008,976,-5220,986,3395,3835,2025-02-17 11:26:17,0.0
-11484,1212,-4364,604,332,2096,2025-02-17 11:26:18,0.0
-12444,1420,-3900,619,-2562,1153,2025-02-17 11:26:18,0.0
-11688,1284,-3672,637,-3347,1216,2025-02-17 11:26:18,0.0
-11080,1264,-3572,1040,-3647,1271,2025-02-17 11:26:18,0.0
-10088,1812,-3996,1075,-3194,1732,2025-02-17 11:26:18,0.0
-8760,1244,-2984,940,-1315,1460,2025-02-17 11:26:18,0.0
-8644,708,-2228,1345,113,783,2025-02-17 11:26:18,0.0
-9164,708,-2340,1870,769,413,2025-02-17 11:26:18,0.0
-10160,908,-2084,2293,2290,449,2025-02-17 11:26:18,0.0
-10212,512,-2144,2383,3571,149,2025-02-17 11:26:18,0.0
-11944,364,-2552,2017,3341,-170,2025-02-17 11:26:18,0.0
-13348,1576,-2292,1306,2719,-551,2025-02-17 11:26:18,0.0
-13400,1796,-3256,843,1162,-885,2025-02-17 11:26:18,0.0
-13972,2172,-3116,819,-695,-851,2025-02-17 11:26:18,0.0
-13648,2060,-3204,896,-2461,-681,2025-02-17 11:26:18,0.0
-13352,1524,-2352,776,-3682,-589,2025-02-17 11:26:18,0.0
-13384,952,-2112,930,-3734,-375,2025-02-17 11:26:18,0.0
-12860,584,-2880,806,-3133,-64,2025-02-17 11:26:18,0.0
-11848,1012,-4312,316,-2163,247,2025-02-17 11:26:18,0.0
-11404,1520,-4672,-428,-481,429,2025-02-17 11:26:18,0.0
-11412,728,-4172,-770,2789,184,2025-02-17 11:26:18,0.0
-14320,228,-1816,-321,7071,252,2025-02-17 11:26:18,0.0
-17176,1040,-2812,894,9121,1068,2025-02-17 11:26:18,0.0
-18852,1668,-6072,1082,8338,2569,2025-02-17 11:26:18,0.0
-19504,2180,-8632,-86,4568,3746,2025-02-17 11:26:18,
-18492,4132,-8652,-1043,965,4394,2025-02-17 11:26:18,0.0
-16940,4144,-8932,-1241,-111,4651,2025-02-17 11:26:18,0.0
-14740,3460,-9248,121,-46,3739,2025-02-17 11:26:18,0.0
-7320,3580,-12268,1444,1116,2219,2025-02-17 11:26:18,0.0
-13984,3624,-7544,1565,-1146,906,2025-02-17 11:26:18,0.0
-12364,2840,-6972,1157,-4371,-1174,2025-02-17 11:26:18,0.0
-10244,640,-6844,712,-6380,-2040,2025-02-17 11:26:18,0.0
-7216,-3196,-6796,3240,811,-544,2025-02-17 11:26:18,0.0
-9616,-1188,-6332,3214,3985,-1140,2025-02-17 11:26:18,0.0
-12016,668,-7176,2572,4124,-1652,2025-02-17 11:26:18,0.0
-13924,1600,-6648,1809,2026,-1877,2025-02-17 11:26:18,0.0
-13916,1172,-5964,2045,-229,-2117,2025-02-17 11:26:18,0.0
-13488,-40,-6608,2992,-1557,-2447,2025-02-17 11:26:18,0.0
-12852,-768,-6192,3136,-2325,-2046,2025-02-17 11:26:18,0.0
-10668,-548,-5568,3897,-3326,-2352,2025-02-17 11:26:18,0.0
-9984,-60,-5424,3969,-5063,-3316,2025-02-17 11:26:18,0.0
-10084,-200,-5932,2589,-5853,-4574,2025-02-17 11:26:18,0.0
-10708,-888,-4564,1904,-4519,-5148,2025-02-17 11:26:18,0.0
-11416,-1272,-3136,2467,-3649,-4819,2025-02-17 11:26:18,0.0
-11924,-1568,-2964,2820,-4288,-3983,2025-02-17 11:26:18,0.0
-11512,-1900,-3036,2881,-5390,-3076,2025-02-17 11:26:18,0.0
-10724,-1904,-4128,2163,-5753,-2727,2025-02-17 11:26:18,0.0
-10136,-1620,-4376,590,-4288,-2881,2025-02-17 11:26:18,0.0
-10832,-1568,-3240,-719,-1277,-2644,2025-02-17 11:26:18,0.0
-11884,-1268,-1144,-297,1340,-1533,2025-02-17 11:26:18,0.0
-12144,-1128,-244,1270,1229,-703,2025-02-17 11:26:18,0.0
-13332,-1064,-2336,1918,356,-138,2025-02-17 11:26:18,0.0
-13568,-1140,-2256,1020,-948,607,2025-02-17 11:26:18,0.0
-12884,-1308,-1292,293,-2766,113,2025-02-17 11:26:18,0.0
-13316,-1752,-1460,62,-3704,-692,2025-02-17 11:26:18,0.0
-13508,-2456,-2784,-216,-3864,-858,2025-02-17 11:26:18,0.0
-14368,-2392,-2800,-993,-3520,-210,2025-02-17 11:26:18,0.0
-14336,-1596,-3108,-1543,-2811,504,2025-02-17 11:26:18,0.0
-14156,-388,-3504,-1876,-1558,792,2025-02-17 11:26:18,0.0
-14948,120,-8440,-3996,-1196,144,2025-02-17 11:26:18,0.0
-12112,1888,-2920,-5969,-2537,-2249,2025-02-17 11:26:19,0.0
-12960,1892,1548,-4743,-4171,-4458,2025-02-17 11:26:19,0.0
-12896,-576,240,-3612,-6653,-5633,2025-02-17 11:26:19,0.0
-13852,-3980,-4640,-5792,-10272,-5884,2025-02-17 11:26:19,0.0
-14540,-4992,-8068,-9261,-10565,-5210,2025-02-17 11:26:19,0.0
-14852,-1356,-6256,-12154,-6056,-4590,2025-02-17 11:26:19,0.0
-15148,1764,-5808,-13529,-1664,-4637,2025-02-17 11:26:19,0.0
-15540,3296,-6500,-14245,-1185,-4183,2025-02-17 11:26:19,0.0
-14160,-1280,-9628,-14426,-2882,-2785,2025-02-17 11:26:19,0.0
-12060,-2080,-8232,-16341,-2216,-2276,2025-02-17 11:26:19,0.0
-11548,-2360,-4548,-18700,-993,-2674,2025-02-17 11:26:19,0.0
-13208,-2104,-1740,-19457,2952,-3860,2025-02-17 11:26:19,0.0
-16612,416,-3000,-17283,8261,-4292,2025-02-17 11:26:19,0.0
-18488,3240,-5664,-16110,8433,-3449,2025-02-17 11:26:19,0.0
-17200,3668,-6112,-15739,3217,-2488,2025-02-17 11:26:19,0.0
-14800,1592,-6400,-15689,-3042,-2696,2025-02-17 11:26:19,0.0
-12440,204,-5956,-16359,-4242,-2888,2025-02-17 11:26:19,0.0
-11892,-820,-5116,-16687,-1017,-2822,2025-02-17 11:26:19,0.0
-11904,-1028,-5532,-16106,382,-2087,2025-02-17 11:26:19,0.0
-11772,-836,-6772,-16324,-187,-1633,2025-02-17 11:26:19,0.0
-10960,-716,-6764,-17527,-938,-2229,2025-02-17 11:26:19,0.0
-11868,-1568,-5944,-18772,-1014,-2814,2025-02-17 11:26:19,0.0
-12296,-1116,-5008,-19823,-707,-2592,2025-02-17 11:26:19,0.0
-11956,-424,-4836,-19861,-1162,-2244,2025-02-17 11:26:19,0.0
-11356,-188,-4940,-19890,-1780,-2301,2025-02-17 11:26:19,0.0
-10540,1012,-6708,-20654,-1534,-3554,2025-02-17 11:26:19,0.0
-11720,112,-6564,-21771,-7,-4223,2025-02-17 11:26:19,0.0
-11852,-712,-3500,-20033,510,-5661,2025-02-17 11:26:19,0.0
-14684,-1812,-5240,-19152,988,-4037,2025-02-17 11:26:19,0.0
-12796,-1368,-4248,-19397,962,-3696,2025-02-17 11:26:19,0.0
-14620,-1292,-3672,-19433,-1015,-3889,2025-02-17 11:26:19,5
-14976,-1236,-2796,-18420,-3709,-2932,2025-02-17 11:26:19,5
-14128,-984,-3224,-17047,-5138,-2405,2025-02-17 11:26:19,5
-15460,-1056,-4660,-17732,-3239,-1832,2025-02-17 11:26:19,5
-13400,-1180,-720,-18225,1134,-2073,2025-02-17 11:26:19,5
-15300,-340,-616,-17363,8807,-2443,2025-02-17 11:26:19,5
-18000,-36,488,-18586,22220,-1247,2025-02-17 11:26:19,5
-15844,196,5496,-19111,32767,-502,2025-02-17 11:26:19,5
-11492,-208,7224,-17032,32767,-899,2025-02-17 11:26:19,5
-9244,68,4652,-14945,32767,-1875,2025-02-17 11:26:19,5
-6976,568,888,-13529,27550,-2814,2025-02-17 11:26:19,5
5528,1844,888,-5341,-10449,-10027,2025-02-17 11:26:19,5
4616,1096,2524,-5148,-18827,-12879,2025-02-17 11:26:19,5
3304,-376,4712,-4075,-24409,-12102,2025-02-17 11:26:19,5
2480,-828,2376,-3924,-26200,-11459,2025-02-17 11:26:19,5
2440,-660,2432,-4151,-26222,-11147,2025-02-17 11:26:19,5
2324,-776,2204,-4489,-25924,-11087,2025-02-17 11:26:19,5
2480,-700,1984,-4921,-25627,-11019,2025-02-17 11:26:19,5
2660,-760,1520,-5638,-25318,-10967,2025-02-17 11:26:19,5
2220,-832,1296,-6248,-24942,-10765,2025-02-17 11:26:19,5
1756,-792,1852,-6599,-24002,-9986,2025-02-17 11:26:19,5
2280,-620,1868,-6897,-23840,-9295,2025-02-17 11:26:19,5
2368,-716,1824,-7164,-24173,-8816,2025-02-17 11:26:19,5
2400,-764,1560,-7600,-24639,-8355,2025-02-17 11:26:19,5
2644,-752,1456,-8246,-24810,-7884,2025-02-17 11:26:19,5
2784,-744,1348,-8969,-24993,-7710,2025-02-17 11:26:19,5
2268,-832,1500,-10069,-25236,-7442,2025-02-17 11:26:19,5
2188,-884,1460,-10989,-25304,-6967,2025-02-17 11:26:19,5
2192,-896,1356,-11970,-25336,-6157,2025-02-17 11:26:20,5
2044,-924,1352,-12941,-25279,-5232,2025-02-17 11:26:20,5
1708,-968,1324,-13952,-25029,-4132,2025-02-17 11:26:20,5
1544,-916,1176,-15050,-24414,-2807,2025-02-17 11:26:20,5
1368,-516,800,-16379,-23543,-1407,2025-02-17 11:26:20,5
-6076,1052,-12892,-21268,-20164,2646,2025-02-17 11:26:20,5
-27580,-32768,-25052,-32768,27339,-32768,2025-02-17 11:26:20,5
-32768,-32768,32767,-32768,32767,-32768,2025-02-17 11:26:20,5
-32768,-32768,11032,-16216,32767,12470,2025-02-17 11:26:20,5
-12696,-18976,-2708,-5463,27688,6675,2025-02-17 11:26:20,5
-2760,1004,-4876,1648,32767,11506,2025-02-17 11:26:20,5
3220,4772,-5136,983,32767,11798,2025-02-17 11:26:20,5
4928,3500,-4748,-1216,27230,9603,2025-02-17 11:26:20,5
8920,1536,-1712,-3425,19441,4399,2025-02-17 11:26:20,5
6048,-1124,904,-3823,10109,-2051,2025-02-17 11:26:20,5
4620,-2956,2284,-3285,333,-8217,2025-02-17 11:26:20,5
-3476,-5468,3976,459,-3797,-11706,2025-02-17 11:26:20,5
-21056,-13228,-1932,2583,-6424,-4489,2025-02-17 11:26:20,5
-23360,-20304,-3684,609,-5662,3032,2025-02-17 11:26:20,5
-17912,-20088,-3240,-590,833,1614,2025-02-17 11:26:20,5
-14300,-8244,-3936,-716,5116,-26,2025-02-17 11:26:20,5
-5404,-6348,-3012,-545,3643,-502,2025-02-17 11:26:20,5
-7424,-8352,-4288,75,-38,-688,2025-02-17 11:26:20,5
-11052,-9684,-3772,-222,-1262,470,2025-02-17 11:26:20,5
-11960,-8904,-2972,-189,-396,-162,2025-02-17 11:26:20,5
-10464,-8996,-3120,-119,916,-507,2025-02-17 11:26:20,5
-9500,-9004,-3740,-188,553,-107,2025-02-17 11:26:20,5
-10676,-8952,-3796,-145,-277,-136,2025-02-17 11:26:20,5
-10736,-9120,-3216,-172,182,-252,2025-02-17 11:26:20,5
-9916,-8904,-3404,-113,427,-304,2025-02-17 11:26:20,5
-10388,-8932,-3688,-129,23,-60,2025-02-17 11:26:20,5
-10760,-9096,-3344,-151,135,-203,2025-02-17 11:26:20,5
-10260,-8968,-3488,-146,250,-195,2025-02-17 11:26:20,5
-10292,-9100,-3524,-145,173,-180,2025-02-17 11:26:20,5
-10560,-9000,-3660,-155,141,-190,2025-02-17 11:26:20,5
-10384,-8952,-3432,-147,165,-172,2025-02-17 11:26:20,5
-10436,-8988,-3436,-139,220,-164,2025-02-17 11:26:20,5
-10452,-9000,-3396,-141,187,-204,2025-02-17 11:26:20,5
-10380,-8964,-3688,-168,175,-179,2025-02-17 11:26:20,5
-10316,-9004,-3696,-159,159,-169,2025-02-17 11:26:20,5
-10412,-9072,-3420,-173,177,-172,2025-02-17 11:26:20,5
-10408,-8936,-3724,-162,173,-173,2025-02-17 11:26:20,5
-10408,-9028,-3564,-164,152,-176,2025-02-17 11:26:20,5
-10424,-9008,-3564,-144,180,-197,2025-02-17 11:26:20,5
-10376,-9080,-3544,-157,202,-176,2025-02-17 11:26:20,5
-10436,-8944,-3504,-173,170,-190,2025-02-17 11:26:20,5
-10468,-9036,-3540,-162,174,-189,2025-02-17 11:26:20,5
-10376,-9052,-3508,-162,173,-158,2025-02-17 11:26:20,5
-10272,-9040,-3516,-169,172,-160,2025-02-17 11:26:20,5
-10424,-9024,-3472,-167,193,-180,2025-02-17 11:26:20,5
-10336,-9024,-3560,-176,171,-191,2025-02-17 11:26:20,5
-10416,-9036,-3548,-159,135,-189,2025-02-17 11:26:20,5
-10480,-8960,-3508,-144,151,-178,2025-02-17 11:26:20,5
-10424,-9028,-3480,-153,188,-181,2025-02-17 11:26:20,5
-10468,-9128,-3620,-169,152,-176,2025-02-17 11:26:20,5
-10388,-9008,-3456,-157,174,-162,2025-02-17 11:26:20,5
-10472,-9112,-3568,-182,186,-187,2025-02-17 11:26:20,5
-10396,-9004,-3524,-152,175,-191,2025-02-17 11:26:20,5
-10516,-8940,-3492,-159,159,-193,2025-02-17 11:26:20,5
-10316,-9044,-3516,-175,149,-175,2025-02-17 11:26:20,5
-10400,-9092,-3444,-166,179,-157,2025-02-17 11:26:20,5
-10428,-9016,-3496,-165,149,-196,2025-02-17 11:26:21,5
-10400,-9024,-3552,-129,184,-177,2025-02-17 11:26:21,5
-10424,-9088,-3472,-152,152,-179,2025-02-17 11:26:21,5
-10444,-8980,-3568,-138,173,-174,2025-02-17 11:26:21,5
-10404,-8968,-3616,-142,171,-167,2025-02-17 11:26:21,5
-10412,-9056,-3408,-178,156,-158,2025-02-17 11:26:21,5
-10444,-9052,-3624,-183,155,-161,2025-02-17 11:26:21,5
-10476,-9088,-3624,-158,171,-185,2025-02-17 11:26:21,5
-10440,-9124,-3508,-164,175,-162,2025-02-17 11:26:21,5
-10440,-9108,-3712,-149,166,-166,2025-02-17 11:26:21,5
-10464,-8968,-3524,-151,181,-175,2025-02-17 11:26:21,5
-10380,-9024,-3448,-156,181,-159,2025-02-17 11:26:21,5
-10376,-9024,-3512,-166,173,-166,2025-02-17 11:26:21,5
-10396,-9032,-3504,-152,167,-180,2025-02-17 11:26:21,0.0
-10368,-8948,-3584,-179,158,-187,2025-02-17 11:26:21,0.0
-10500,-9052,-3444,-152,180,-172,2025-02-17 11:26:21,0.0
-10356,-9020,-3660,-165,186,-168,2025-02-17 11:26:21,0.0
-10444,-9096,-3580,-164,161,-167,2025-02-17 11:26:21,0.0
-10340,-9048,-3428,-166,164,-174,2025-02-17 11:26:21,0.0
-10508,-9008,-3484,-130,150,-195,2025-02-17 11:26:21,0.0
-10472,-9072,-3552,-151,163,-170,2025-02-17 11:26:21,0.0
-10504,-8988,-3476,-156,173,-178,2025-02-17 11:26:21,0.0
-10368,-9032,-3440,-178,192,-172,2025-02-17 11:26:21,0.0
-10484,-9056,-3604,-141,182,-182,2025-02-17 11:26:21,0.0
-10396,-8972,-3476,-191,190,-178,2025-02-17 11:26:21,0.0
-10372,-8948,-3476,-154,137,-185,2025-02-17 11:26:21,0.0
-10504,-8940,-3440,-130,168,-184,2025-02-17 11:26:21,0.0
-10456,-9072,-3436,-173,161,-191,2025-02-17 11:26:21,0.0
-10396,-9092,-3504,-172,169,-169,2025-02-17 11:26:21,0.0
-10388,-9024,-3600,-156,170,-152,2025-02-17 11:26:21,0.0
-10396,-9064,-3532,-190,173,-172,2025-02-17 11:26:21,0.0
-10396,-8996,-3424,-160,173,-152,2025-02-17 11:26:21,0.0
-10388,-9072,-3644,-127,177,-182,2025-02-17 11:26:21,0.0
-10492,-9028,-3456,-153,147,-182,2025-02-17 11:26:21,0.0
-10392,-8980,-3480,-166,178,-165,2025-02-17 11:26:21,0.0
-10400,-8984,-3556,-154,185,-183,2025-02-17 11:26:21,0.0
-10456,-9064,-3632,-185,180,-207,2025-02-17 11:26:21,0.0
-10408,-8988,-3564,-161,174,-159,2025-02-17 11:26:21,0.0
-10360,-8816,-3360,-183,82,-231,2025-02-17 11:26:21,0.0
-8996,-9740,-2780,-77,-26,-382,2025-02-17 11:26:21,0.0
-10284,-8780,-3160,-83,176,-64,2025-02-17 11:26:21,0.0
-10904,-9252,-3732,-156,37,-118,2025-02-17 11:26:21,0.0
-10464,-8752,-3544,-205,-21,-227,2025-02-17 11:26:21,0.0
-10096,-9156,-3392,-172,233,-179,2025-02-17 11:26:21,0.0
-10536,-8944,-3608,-152,325,-76,2025-02-17 11:26:21,0.0
-10364,-9160,-3684,-158,185,-145,2025-02-17 11:26:21,
-10280,-9000,-3576,-234,208,-35,2025-02-17 11:26:21,0.0
-10468,-8888,-3456,-211,224,-195,2025-02-17 11:26:21,0.0
-9860,-8880,-2804,-28,443,-357,2025-02-17 11:26:21,0.0
-10788,-9012,-3320,-54,945,-154,2025-02-17 11:26:21,0.0
-10396,-9028,-4020,-209,936,-306,2025-02-17 11:26:21,0.0
-10684,-8844,-3784,-16,516,-417,2025-02-17 11:26:21,0.0
-9852,-9636,-4756,-126,-593,-158,2025-02-17 11:26:21,0.0
-10332,-8620,-3516,-44,-1902,20,2025-02-17 11:26:21,0.0
-10240,-9024,-2980,-169,-864,-466,2025-02-17 11:26:21,0.0
-11016,-8840,-2760,-1,701,-320,2025-02-17 11:26:21,0.0
-10916,-8748,-3476,-57,1028,-123,2025-02-17 11:26:21,0.0
-9184,-8736,-3480,133,543,-625,2025-02-17 11:26:21,0.0
-8980,-9232,-3736,10,-28,-1138,2025-02-17 11:26:21,0.0
-10996,-9276,-3760,-150,-689,-834,2025-02-17 11:26:21,0.0
-11540,-9344,-3072,-190,-90,-416,2025-02-17 11:26:22,0.0
-11712,-9212,-2880,22,1111,-245,2025-02-17 11:26:22,0.0
-10232,-9240,-3232,-154,1805,-56,2025-02-17 11:26:22,0.0
-9772,-9084,-3384,166,732,119,2025-02-17 11:26:22,0.0
-10648,-8960,-3368,-32,-71,245,2025-02-17 11:26:22,0.0
-11056,-8936,-1676,-9,528,242,2025-02-17 11:26:22,0.0
-10848,-8268,-3100,188,1962,-54,2025-02-17 11:26:22,0.0
-8448,-8648,-1440,895,2481,-239,2025-02-17 11:26:22,0.0
-11428,-8668,-3112,1775,3007,-49,2025-02-17 11:26:22,0.0
-10980,-10480,-6060,676,3508,325,2025-02-17 11:26:22,0.0
-9640,-10108,-5104,-721,1571,76,2025-02-17 11:26:22,0.0
-9424,-8980,-6204,-978,-1074,2,2025-02-17 11:26:22,0.0
-11840,-9120,-2228,-642,-1940,-1,2025-02-17 11:26:22,0.0
-11200,-9456,-2308,-544,-1087,-230,2025-02-17 11:26:22,0.0
-11308,-9732,-4304,-96,-1080,108,2025-02-17 11:26:22,0.0
-10736,-9332,-2472,-326,754,201,2025-02-17 11:26:22,0.0
-9804,-9400,-5564,-476,59,639,2025-02-17 11:26:22,0.0
-10388,-9668,-6212,-1114,-1854,684,2025-02-17 11:26:22,0.0
-11228,-10008,-6520,-1559,-4289,259,2025-02-17 11:26:22,0.0
-16040,-14296,-9144,-906,11833,1272,2025-02-17 11:26:22,0.0
-14684,-14604,-11824,-1862,17864,1708,2025-02-17 11:26:22,0.0
-11572,-12616,-8308,-2069,15808,1578,2025-02-17 11:26:22,0.0
-10896,-10956,-9340,-583,14451,1748,2025-02-17 11:26:22,0.0
-10372,-9792,-6864,-343,14577,870,2025-02-17 11:26:22,0.0
-10724,-9092,-8892,1060,16292,-816,2025-02-17 11:26:22,0.0
-17240,-8200,-9228,4106,26572,2166,2025-02-17 11:26:22,0.0
-1516,-12264,-10508,4477,27381,1509,2025-02-17 11:26:22,0.0
-9888,-9304,-7568,3557,23825,2560,2025-02-17 11:26:22,0.0
-7336,-8832,-11608,5273,21089,1547,2025-02-17 11:26:22,0.0
-7220,-9264,-14412,3906,16123,-631,2025-02-17 11:26:22,0.0
-12956,-9128,-13124,4136,19726,746,2025-02-17 11:26:22,0.0
-16740,-8336,-13568,5725,28949,4790,2025-02-17 11:26:22,0.0
-10320,-9432,-12216,6754,30726,6113,2025-02-17 11:26:22,0.0
-7508,-10160,-14284,6101,25361,6782,2025-02-17 11:26:22,0.0
-628,-10928,-13792,6063,2480,3612,2025-02-17 11:26:22,0.0
-3136,-11400,-14472,5192,-9606,742,2025-02-17 11:26:22,0.0
-7384,-11912,-17368,4220,-14158,431,2025-02-17 11:26:22,0.0
-14372,-11076,-16084,2123,-12418,3418,2025-02-17 11:26:22,0.0
-13768,-11440,-14660,2642,-4997,6954,2025-02-17 11:26:22,0.0
-9776,-12200,-14204,1563,4615,7105,2025-02-17 11:26:22,0.0
-10468,-12236,-12172,-1957,9394,7694,2025-02-17 11:26:22,0.0
-13104,-11336,-11044,-3129,10796,9591,2025-02-17 11:26:22,0.0
-13532,-10044,-10576,-3456,9685,13612,2025-02-17 11:26:22,0.0
-10308,-8552,-11928,-4443,5543,15382,2025-02-17 11:26:22,0.0
-8964,-6956,-12404,-6574,-882,14907,2025-02-17 11:26:22,0.0
-9184,-5248,-11932,-7705,-8902,13758,2025-02-17 11:26:22,0.0
-10056,-4708,-9888,-7407,-14193,13792,2025-02-17 11:26:22,0.0
-10720,-4900,-9640,-6680,-17172,14446,2025-02-17 11:26:22,0.0
-9028,-4664,-7464,-5527,-18053,14888,2025-02-17 11:26:22,0.0
-8796,-3980,-7912,-3609,-17810,13936,2025-02-17 11:26:22,0.0
-8996,-2984,-8792,-4017,-14380,13173,2025-02-17 11:26:22,0.0
-7976,-5456,-2340,-2084,-7656,10360,2025-02-17 11:26:22,0.0
-9332,-4996,-3368,1983,-1916,9050,2025-02-17 11:26:22,0.0
-9588,-4864,-6756,3052,1184,8918,2025-02-17 11:26:22,0.0
-9868,-4440,-7704,1363,3608,9493,2025-02-17 11:26:22,0.0
-8800,-3420,-6928,112,5696,8396,2025-02-17 11:26:22,0.0
-8956,-1940,-6352,-1312,7601,5565,2025-02-17 11:26:23,0.0
-9940,-1640,-5420,-1389,8307,3826,2025-02-17 11:26:23,0.0
-9648,-2136,-4224,-835,7568,2825,2025-02-17 11:26:23,0.0
-8988,-2532,-3704,180,4858,2642,2025-02-17 11:26:23,0.0
-7632,-3568,-3876,850,-92,3189,2025-02-17 11:26:23,0.0
-6736,-4432,-4056,1017,-6457,3235,2025-02-17 11:26:23,0.0
-6756,-4404,-3696,905,-13364,2908,2025-02-17 11:26:23,0.0
-7540,-3600,-3556,513,-20027,3427,2025-02-17 11:26:23,0.0
-8372,-2308,-2388,1585,-25637,4653,2025-02-17 11:26:23,0.0
-8168,-1188,-2988,3357,-29650,6459,2025-02-17 11:26:23,0.0
-7772,-1412,-2096,5589,-31995,7461,2025-02-17 11:26:23,0.0
-8352,-1268,-2756,7700,-30917,5978,2025-02-17 11:26:23,0.0
-7720,-2152,-5256,6827,-28317,5140,2025-02-17 11:26:23,0.0
-6336,-2892,-2888,5780,-24975,3728,2025-02-17 11:26:23,0.0
-6416,-3404,-924,5936,-21373,3312,2025-02-17 11:26:23,0.0
-6080,-3304,-1808,5811,-17366,4027,2025-02-17 11:26:23,0.0
-6132,-2892,-1720,4755,-12376,4124,2025-02-17 11:26:23,0.0
-7336,-2220,-1476,2847,-5711,4135,2025-02-17 11:26:23,0.0
-7436,-2032,-1488,1499,960,3510,2025-02-17 11:26:23,0.0
-8012,-1584,-1552,-143,7098,2382,2025-02-17 11:26:23,0.0
-10164,-1132,-1392,-1708,12965,1812,2025-02-17 11:26:23,0.0
-11040,-1588,-1172,-2731,18503,2223,2025-02-17 11:26:23,0.0
-10348,-1684,-796,-3022,23870,1502,2025-02-17 11:26:23,0.0
-9788,-376,-1492,-3210,27102,84,2025-02-17 11:26:23,0.0
-9004,376,-1544,-3391,27579,-674,2025-02-17 11:26:23,0.0
-7940,-252,-1680,-2761,25247,-1527,2025-02-17 11:26:23,0.0
-7936,-744,-3104,-2506,21908,-3334,2025-02-17 11:26:23,0.0
-9620,-1280,-4296,-3235,19122,-4919,2025-02-17 11:26:23,0.0
-11144,-1248,-4416,-5102,15187,-4244,2025-02-17 11:26:23,0.0
-2280,-8084,8032,-8002,-4552,-2887,2025-02-17 11:26:23,
-12036,-664,888,-6096,-24365,172,2025-02-17 11:26:23,0.0
-8848,-496,-5852,-2733,-27033,649,2025-02-17 11:26:23,0.0
-13136,-1420,-8152,-3720,-23599,-2726,2025-02-17 11:26:23,0.0
-20204,-2768,-844,-6823,-11351,-7106,2025-02-17 11:26:23,0.0
-18376,-2580,2644,-3956,-9402,-6298,2025-02-17 11:26:23,0.0
-15724,-2440,-1504,-689,-14705,-3979,2025-02-17 11:26:23,0.0
-13392,-648,-2632,-474,-20209,-2399,2025-02-17 11:26:23,0.0
-15248,-112,-244,1692,-17856,-1622,2025-02-17 11:26:23,0.0
-13392,-948,-3692,946,-7415,-802,2025-02-17 11:26:23,0.0
-9944,-232,-964,150,1971,-1057,2025-02-17 11:26:23,0.0
-10528,-580,-2244,464,6655,-1556,2025-02-17 11:26:23,0.0
-13124,572,-3540,-1219,7532,-705,2025-02-17 11:26:23,0.0
-14040,700,-3216,-2895,6019,-143,2025-02-17 11:26:23,0.0
-15116,532,-2948,-3660,3945,80,2025-02-17 11:26:23,0.0
-14976,252,-3596,-5219,736,886,2025-02-17 11:26:23,0.0
-14048,80,-3572,-6540,-897,1035,2025-02-17 11:26:23,0.0
-12832,152,-3572,-7618,-686,523,2025-02-17 11:26:23,0.0
-11792,216,-4072,-8941,1017,-168,2025-02-17 11:26:23,0.0
-11360,308,-4184,-10228,2836,-1064,2025-02-17 11:26:23,0.0
-10628,508,-4568,-11176,3588,-1700,2025-02-17 11:26:23,0.0
-10812,456,-4504,-11929,4117,-2389,2025-02-17 11:26:23,0.0
-11240,-36,-4304,-12292,5068,-3500,2025-02-17 11:26:23,0.0
-10892,-908,-5740,-12947,4604,-4827,2025-02-17 11:26:23,0.0
-12060,-1440,-5512,-13989,3691,-6212,2025-02-17 11:26:23,0.0
-12716,-1984,-5388,-15125,2926,-7440,2025-02-17 11:26:23,0.0
-13436,-1944,-5328,-16299,1316,-8028,2025-02-17 11:26:23,0.0
-13256,-2404,-6660,-18263,-52,-8331,2025-02-17 11:26:23,0.0
-12616,-3436,-5896,-19808,761,-8668,2025-02-17 11:26:23,0.0
-12120,-4036,-4580,-19832,2767,-8389,2025-02-17 11:26:23,0.0
-16288,-4152,-292,-17351,4323,-6244,2025-02-17 11:26:23,0.0
-18736,-2980,-2588,-14797,5081,-1240,2025-02-17 11:26:23,0.0
-16052,-1172,-4596,-14517,821,257,2025-02-17 11:26:23,0.0
-13736,4,-6440,-15218,-5426,-958,2025-02-17 11:26:23,0.0
-12420,-2236,-5400,-16566,-9962,-2957,2025-02-17 11:26:23,0.0
-10756,-2200,-5212,-16783,-7364,-2998,2025-02-17 11:26:24,0.0
-9764,-1524,-5724,-17222,-3110,-3455,2025-02-17 11:26:24,0.0
-10240,-980,-4912,-17669,684,-4039,2025-02-17 11:26:24,0.0
-11520,-1020,-4716,-17902,2679,-4647,2025-02-17 11:26:24,0.0
-12256,-928,-5172,-18143,2493,-5522,2025-02-17 11:26:24,0.0
-13012,-1060,-6028,-18575,1464,-6568,2025-02-17 11:26:24,0.0
-13132,-1336,-6192,-18899,315,-7323,2025-02-17 11:26:24,0.0
-13392,-1792,-5092,-18979,-453,-7502,2025-02-17 11:26:24,0.0
-13240,-2452,-4328,-18852,-709,-7119,2025-02-17 11:26:24,0.0
-12884,-2516,-3816,-18570,-1070,-6960,2025-02-17 11:26:24,0.0
-13064,-2276,-3620,-18269,-2026,-6516,2025-02-17 11:26:24,0.0
-12904,-1964,-3308,-17852,-2654,-6165,2025-02-17 11:26:24,0.0
-12904,-2000,-3336,-17345,-2655,-5595,2025-02-17 11:26:24,0.0
-13064,-1956,-3020,-16892,-2249,-4878,2025-02-17 11:26:24,0.0
-13244,-1576,-3324,-16123,-1650,-4214,2025-02-17 11:26:24,0.0
-13504,-1580,-2900,-15336,-1439,-3907,2025-02-17 11:26:24,0.0
-13336,-1948,-3164,-14706,-1532,-3711,2025-02-17 11:26:24,0.0
-12920,-1892,-3856,-14746,-1245,-3895,2025-02-17 11:26:24,0.0
-12880,-2432,-2820,-14395,-645,-4181,2025-02-17 11:26:24,0.0
-13408,-2588,-2368,-13940,132,-4260,2025-02-17 11:26:24,0.0
-14320,-2348,-2012,-13226,425,-3875,2025-02-17 11:26:24,0.0
-14620,-2020,-2196,-12556,-376,-3624,2025-02-17 11:26:24,0.0
-14844,-2344,-1276,-11717,-507,-2975,2025-02-17 11:26:24,0.0
-14792,-2428,-960,-10631,-207,-2291,2025-02-17 11:26:24,0.0
-14164,-2384,-868,-9584,74,-1973,2025-02-17 11:26:24,0.0
-13888,-2352,-996,-8679,381,-1967,2025-02-17 11:26:24,0.0
-13372,-1776,-896,-7537,772,-1850,2025-02-17 11:26:24,0.0
-13008,-1280,-1064,-6586,1143,-1877,2025-02-17 11:26:24,0.0
-13112,-1612,-1376,-5804,1045,-1968,2025-02-17 11:26:24,0.0
-13200,-1512,-1112,-4945,211,-1949,2025-02-17 11:26:24,0.0
-13400,-1120,-704,-3961,38,-1706,2025-02-17 11:26:24,0.0
-12636,-1088,-1056,-3255,151,-1314,2025-02-17 11:26:24,0.0
-11896,-1136,-488,-2514,483,-1181,2025-02-17 11:26:24,0.0
-11844,-1064,-608,-1804,1051,-1153,2025-02-17 11:26:24,0.0
-11948,-1188,-1144,-1601,1743,-1195,2025-02-17 11:26:24,0.0
-11928,-1208,-1268,-1485,1895,-1433,2025-02-17 11:26:24,0.0
-11904,-1032,-1184,-1047,1694,-1388,2025-02-17 11:26:24,0.0
-12096,-1012,-1692,-968,2322,-786,2025-02-17 11:26:24,0.0
-13164,-1400,-1648,-944,3989,207,2025-02-17 11:26:24,0.0
-14904,-1512,-2600,-901,6264,1559,2025-02-17 11:26:24,0.0
-15568,-1596,-4812,-1560,9298,2049,2025-02-17 11:26:24,0.0
-15976,176,-4116,-2361,11328,291,2025-02-17 11:26:24,0.0
-15936,1372,-4292,-2096,7893,-2114,2025-02-17 11:26:24,0.0
-15524,256,-2736,-169,-85,-3750,2025-02-17 11:26:24,0.0
-15720,-1596,-3068,989,-3976,-2951,2025-02-17 11:26:24,0.0
-13516,-1532,-4132,2012,-4726,-1938,2025-02-17 11:26:24,0.0
-11188,-2000,-4352,2399,-4296,-2061,2025-02-17 11:26:24,0.0
-9760,-2292,-4432,2376,-3118,-2750,2025-02-17 11:26:24,0.0
-9392,-2812,-4720,1998,-1783,-3335,2025-02-17 11:26:24,0.0
-10028,-3368,-5148,1371,908,-3240,2025-02-17 11:26:24,0.0
-10628,-3072,-4036,1007,2471,-2605,2025-02-17 11:26:24,0.0
-11540,-2864,-3988,676,3559,-2154,2025-02-17 11:26:24,0.0
-12416,-2184,-3772,383,4787,-2049,2025-02-17 11:26:24,0.0
-13584,-1360,-3888,-30,5212,-2950,2025-02-17 11:26:24,0.0
-15152,-1032,-2868,-248,4822,-3957,2025-02-17 11:26:24,0.0
-15876,-1004,-2784,3,2534,-4678,2025-02-17 11:26:24,0.0
-15320,-1680,-3380,615,-1710,-4613,2025-02-17 11:26:24,0.0
-13912,-2488,-3996,1135,-4534,-4362,2025-02-17 11:26:24,0.0
-11912,-3124,-4572,1131,-5593,-4149,2025-02-17 11:26:24,0.0
-10976,-3304,-3952,983,-5174,-3820,2025-02-17 11:26:24,0.0
-10068,-3540,-4196,274,-4207,-3310,2025-02-17 11:26:25,0.0
-9436,-3928,-3608,-477,-2435,-3201,2025-02-17 11:26:25,0.0
-9532,-4348,-3616,-1056,40,-2824,2025-02-17 11:26:25,0.0
-9932,-4272,-3160,-1502,2578,-2007,2025-02-17 11:26:25,0.0
-10624,-3848,-2704,-2033,5738,-1425,2025-02-17 11:26:25,0.0
-11600,-3980,-2384,-2454,6986,-1615,2025-02-17 11:26:25,
-13032,-3744,-2736,-2338,6057,-2054,2025-02-17 11:26:25,0.0
-13676,-3584,-2648,-1844,3853,-1579,2025-02-17 11:26:25,0.0
-13544,-3524,-2620,-1219,2301,-828,2025-02-17 11:26:25,0.0
-12764,-3516,-3072,-541,1175,-300,2025-02-17 11:26:25,0.0
-12968,-3264,-3392,-26,1130,101,2025-02-17 11:26:25,0.0
-13368,-3884,-3184,244,886,407,2025-02-17 11:26:25,0.0
-13680,-4148,-2752,361,32,687,2025-02-17 11:26:25,0.0
-13704,-4040,-2372,362,-797,949,2025-02-17 11:26:25,0.0
-13056,-3864,-2372,426,-1416,1029,2025-02-17 11:26:25,0.0
-12960,-3524,-3304,89,-1063,1171,2025-02-17 11:26:25,0.0
-12876,-2796,-3980,-666,-534,1058,2025-02-17 11:26:25,0.0
-13216,-2264,-4008,-1300,-348,639,2025-02-17 11:26:25,0.0
-13372,-2696,-3820,-1913,-834,-363,2025-02-17 11:26:25,0.0
-13984,-3388,-3460,-2574,-1209,-1107,2025-02-17 11:26:25,0.0
-15060,-4004,-2828,-3218,-1129,-1828,2025-02-17 11:26:25,0.0
-16028,-4344,-1712,-3581,-1415,-1991,2025-02-17 11:26:25,0.0
-16064,-5424,-1400,-3556,-2737,-1909,2025-02-17 11:26:25,0.0
-15060,-7392,-3936,-3667,-3891,-2381,2025-02-17 11:26:25,0.0
-15784,-7880,-5288,-3872,-3525,-2988,2025-02-17 11:26:25,0.0
-16300,-8292,-5324,-3107,-2115,-3111,2025-02-17 11:26:25,0.0
-17468,-8332,-5484,-2386,-2510,-2365,2025-02-17 11:26:25,0.0
-16920,-8168,-5076,-1671,-5091,-275,2025-02-17 11:26:25,0.0
-14628,-5912,-5532,-401,-8655,1329,2025-02-17 11:26:25,0.0
-12928,-3764,-5548,556,-10447,2406,2025-02-17 11:26:25,0.0
-10500,-1608,-4492,1995,-11434,3007,2025-02-17 11:26:25,0.0
-8692,-1128,-5112,3336,-10793,2854,2025-02-17 11:26:25,0.0
-8176,-1424,-5984,3672,-7461,1929,2025-02-17 11:26:25,0.0
-9804,-1032,-7328,2833,-1661,1142,2025-02-17 11:26:25,0.0
-11180,-856,-6188,1738,3258,470,2025-02-17 11:26:25,0.0
-14340,-1548,-5616,925,5494,586,2025-02-17 11:26:25,0.0
-16308,-2204,-4444,393,4325,1847,2025-02-17 11:26:25,0.0
-16536,-2672,-4764,659,2414,3054,2025-02-17 11:26:25,0.0
-15724,-2860,-5660,511,1014,4559,2025-02-17 11:26:25,0.0
-13132,-2636,-5312,72,198,5321,2025-02-17 11:26:25,0.0
-11820,-1828,-4336,-53,105,4824,2025-02-17 11:26:25,0.0
-11032,-952,-3404,234,97,4038,2025-02-17 11:26:25,0.0
-11076,-764,-2916,485,-119,3203,2025-02-17 11:26:25,0.0
-10780,-1296,-2080,1330,-521,2855,2025-02-17 11:26:25,0.0
-10640,-1224,-1568,2262,-570,2667,2025-02-17 11:26:25,0.0
-10688,-720,-1684,2793,-297,2906,2025-02-17 11:26:25,0.0
-10484,-596,-2108,3419,561,3165,2025-02-17 11:26:25,0.0
-10528,60,-2384,3401,1130,2862,2025-02-17 11:26:25,0.0
-10884,92,-2560,3399,1483,2443,2025-02-17 11:26:25,0.0
-10944,-12,-2852,3077,1195,1780,2025-02-17 11:26:25,0.0
-11164,-16,-2472,2807,994,1137,2025-02-17 11:26:25,0.0
-11192,-44,-2552,2784,976,554,2025-02-17 11:26:25,0.0
-11284,-356,-2560,2236,1171,-23,2025-02-17 11:26:25,0.0
-11792,-680,-2308,1783,1585,-324,2025-02-17 11:26:25,0.0
-12348,-688,-2988,1318,2296,-148,2025-02-17 11:26:25,0.0
-12508,-504,-3240,876,3211,193,2025-02-17 11:26:25,0.0
-12216,-160,-2940,664,2748,237,2025-02-17 11:26:25,0.0
-12496,-124,-2336,849,2379,263,2025-02-17 11:26:25,0.0
-12504,-436,-1720,1368,1797,282,2025-02-17 11:26:25,0.0
-12656,-824,-1932,1883,1918,203,2025-02-17 11:26:25,0.0
-13040,-896,-3232,2124,2593,78,2025-02-17 11:26:25,0.0
-13732,-876,-2756,2164,2780,87,2025-02-17 11:26:25,0.0
-13976,-1164,-2972,2761,2431,311,2025-02-17 11:26:25,0.0
-14972,-1056,-2604,3181,2010,712,2025-02-17 11:26:26,0.0
-14756,-1084,-1756,3420,1462,1136,2025-02-17 11:26:26,0.0
-15024,-1216,-764,4189,1064,1175,2025-02-17 11:26:26,0.0
-15288,-1244,-1824,5086,1514,1158,2025-02-17 11:26:26,0.0
-15228,-1384,-4632,5194,2054,1178,2025-02-17 11:26:26,0.0
-16708,-284,-6368,4818,3458,1278,2025-02-17 11:26:26,0.0
-17256,92,-8212,3818,4266,1382,2025-02-17 11:26:26,0.0
-17780,228,-8780,3156,5119,1277,2025-02-17 11:26:26,0.0
-17420,352,-10936,2832,5674,1790,2025-02-17 11:26:26,0.0
-15752,204,-11880,1742,3781,2109,2025-02-17 11:26:26,0.0
-13428,-56,-10564,582,-1531,1709,2025-02-17 11:26:26,0.0
-10576,-1304,-7680,162,-7767,633,2025-02-17 11:26:26,0.0
-8252,-2752,-5276,555,-10788,-179,2025-02-17 11:26:26,0.0
-6540,-3924,-4140,1108,-10244,-909,2025-02-17 11:26:26,0.0
-6616,-4336,-3628,1141,-7108,-1440,2025-02-17 11:26:26,0.0
-7696,-3996,-4388,566,-2261,-1819,2025-02-17 11:26:26,0.0
-9116,-2948,-6372,-381,3482,-2357,2025-02-17 11:26:26,0.0
-11288,-1744,-6624,-1401,6932,-2409,2025-02-17 11:26:26,0.0
-12832,-1328,-5180,-1796,7786,-2354,2025-02-17 11:26:26,0.0
-14208,-1696,-4148,-1569,7094,-2577,2025-02-17 11:26:26,0.0
-14736,-2484,-4188,-855,4010,-2855,2025-02-17 11:26:26,0.0
-14872,-2796,-5740,-329,489,-2521,2025-02-17 11:26:26,0.0
-12072,-2408,-6408,-299,-4501,-1747,2025-02-17 11:26:26,0.0
-10552,-2624,-5008,-650,-5073,-1837,2025-02-17 11:26:26,0.0
-9536,-2196,-4432,-783,-2488,-2169,2025-02-17 11:26:26,0.0
-8812,-2448,-3856,-908,-12,-2824,2025-02-17 11:26:26,0.0
-9076,-2740,-3792,-1186,1483,-3139,2025-02-17 11:26:26,0.0
-9468,-2876,-4392,-1892,2665,-3139,2025-02-17 11:26:26,0.0
-10844,-2492,-4400,-2874,4353,-2645,2025-02-17 11:26:26,0.0
-11892,-2452,-4144,-3813,6293,-2388,2025-02-17 11:26:26,0.0
-13808,-2904,-4672,-4302,6497,-2424,2025-02-17 11:26:26,0.0
-15128,-3148,-5064,-4859,4958,-1752,2025-02-17 11:26:26,0.0
-15384,-3508,-4840,-5119,2726,-979,2025-02-17 11:26:26,0.0
-14228,-3960,-4380,-4868,-1321,-356,2025-02-17 11:26:26,0.0
-12940,-3252,-3752,-4069,-6940,-352,2025-02-17 11:26:26,0.0
-13356,-3032,-2660,-3612,-8765,-444,2025-02-17 11:26:26,0.0
-12460,-3048,-2124,-3087,-5918,-292,2025-02-17 11:26:26,0.0
-12356,-2760,-1972,-2067,-3238,171,2025-02-17 11:26:26,0.0
-13380,-3100,-1956,-1356,-1537,1533,2025-02-17 11:26:26,0.0
-12940,-2892,-2140,-929,-2858,2428,2025-02-17 11:26:26,0.0
-12180,-2684,-3416,-816,-5560,2685,2025-02-17 11:26:26,0.0
-11912,-2836,-6504,-1187,-6627,2737,2025-02-17 11:26:26,0.0
-12040,-3848,-12264,-2611,-3336,2514,2025-02-17 11:26:26,
-12224,-2116,-14496,-3824,3018,1817,2025-02-17 11:26:26,0.0
-12304,-532,-10376,-4985,8214,-110,2025-02-17 11:26:26,0.0
-10236,-48,-6268,-4894,3529,-1919,2025-02-17 11:26:26,0.0
-9700,-520,-3808,-4259,-3362,-3233,2025-02-17 11:26:26,0.0
-10748,-1424,-3340,-3721,-5191,-2787,2025-02-17 11:26:26,0.0
-10768,-2172,-4448,-3306,-1139,-1862,2025-02-17 11:26:26,0.0
-11752,-1416,-5808,-3139,6206,-502,2025-02-17 11:26:26,0.0
-13440,-1036,-7428,-3427,9806,791,2025-02-17 11:26:26,0.0
-15732,-1132,-6444,-3603,9893,1428,2025-02-17 11:26:26,0.0
-15344,-1360,-5256,-3097,8079,1084,2025-02-17 11:26:26,0.0
-16480,-412,-4828,-2082,4350,1145,2025-02-17 11:26:26,0.0
-14996,-1040,-4484,-1039,91,1285,2025-02-17 11:26:26,0.0
-12828,-2248,-3640,807,-2151,635,2025-02-17 11:26:26,0.0
-10496,-2940,-2652,2673,-2258,155,2025-02-17 11:26:26,0.0
-9048,-2252,-2272,4201,-2379,-397,2025-02-17 11:26:26,0.0
-8300,-600,-1684,5501,-3269,-763,2025-02-17 11:26:26,0.0
-8024,-480,-4460,6016,-3473,-1409,2025-02-17 11:26:26,0.0
-10352,-2396,-8164,5250,-1623,-1524,2025-02-17 11:26:27,0.0
-12756,-3364,-7664,4868,3022,-593,2025-02-17 11:26:27,0.0
-14764,-5584,-5732,5014,7147,558,2025-02-17 11:26:27,0.0
-16492,-6824,-4996,5656,6532,1899,2025-02-17 11:26:27,0.0
-16824,-6320,-3680,6312,680,3453,2025-02-17 11:26:27,0.0
-13648,-4496,-3128,7695,-4570,4254,2025-02-17 11:26:27,0.0
-10884,-3840,-2940,10215,-6306,4134,2025-02-17 11:26:27,0.0
-9568,-2764,-5908,11563,-5282,4251,2025-02-17 11:26:27,0.0
-9324,-2184,-8168,10834,-1978,3652,2025-02-17 11:26:27,0.0
-9640,-2560,-7148,9756,2742,2835,2025-02-17 11:26:27,0.0
-10568,-3228,-6016,10702,3772,2220,2025-02-17 11:26:27,0.0
-12232,-2856,-6628,11856,3588,2943,2025-02-17 11:26:27,0.0
-12816,-1728,-7484,11371,4489,4551,2025-02-17 11:26:27,0.0
-12024,-1148,-6352,11112,3905,4874,2025-02-17 11:26:27,0.0
-12144,-740,-5996,11227,3180,4604,2025-02-17 11:26:27,0.0
-12252,-684,-5000,11824,2612,4273,2025-02-17 11:26:27,0.0
-12320,-956,-4864,12912,2829,3941,2025-02-17 11:26:27,0.0
-13408,-2028,-5512,14205,4197,4364,2025-02-17 11:26:27,0.0
-14084,-2548,-6008,15069,4176,5195,2025-02-17 11:26:27,0.0
-14232,-2264,-5992,16548,3379,5611,2025-02-17 11:26:27,0.0
-13784,-1736,-5848,17471,1752,5707,2025-02-17 11:26:27,0.0
-13376,-1660,-5388,17956,98,5293,2025-02-17 11:26:27,0.0
-13312,-1596,-5232,18237,-670,5096,2025-02-17 11:26:27,0.0
-12764,-2460,-5260,18662,-581,5561,2025-02-17 11:26:27,0.0
-11900,-2696,-5224,19423,-727,6292,2025-02-17 11:26:27,0.0
-10932,-2316,-7144,19945,69,7281,2025-02-17 11:26:27,0.0
-10352,-1464,-9364,19803,1986,8302,2025-02-17 11:26:27,0.0
-10572,-188,-8272,19468,4472,9471,2025-02-17 11:26:27,0.0
-10836,104,-6828,19993,6318,9964,2025-02-17 11:26:27,0.0
-11776,56,-4148,21544,5837,9585,2025-02-17 11:26:27,0.0
-12540,-140,-4324,22580,3505,8483,2025-02-17 11:26:27,0.0
-11536,-600,-5556,21533,1096,6348,2025-02-17 11:26:27,0.0
-12204,-2372,-6184,20287,-376,4552,2025-02-17 11:26:27,0.0
-12208,-3644,-7504,20152,-500,4881,2025-02-17 11:26:27,0.0
-10736,-4348,-9680,19936,127,5679,2025-02-17 11:26:27,0.0
-10648,-3684,-9716,18949,1106,5890,2025-02-17 11:26:27,0.0
-12696,-3036,-6184,15894,3710,5781,2025-02-17 11:26:27,0.0
-12476,-4812,-3912,13473,7233,6221,2025-02-17 11:26:27,0.0
-12060,-5668,-1364,13192,8064,5621,2025-02-17 11:26:27,0.0
-13680,-4528,-1480,14695,7662,6290,2025-02-17 11:26:27,0.0
-13096,-3324,-2688,16320,6775,6478,2025-02-17 11:26:27,0.0
-14872,-3052,-3868,17200,5535,6432,2025-02-17 11:26:27,0.0
-15308,-2848,-6520,16024,3740,6864,2025-02-17 11:26:27,0.0
-15420,-2924,-6540,13863,463,7364,2025-02-17 11:26:27,0.0
-14348,-4552,-2364,14061,-2191,8534,2025-02-17 11:26:27,0.0
-12016,-5068,-1768,14242,-2983,9312,2025-02-17 11:26:27,0.0
-10368,-5320,-2428,14766,-2015,9735,2025-02-17 11:26:27,0.0
-9736,-4904,-2672,15894,28,9729,2025-02-17 11:26:27,0.0
-10196,-4384,-3284,17121,1750,9481,2025-02-17 11:26:27,0.0
-11256,-4336,-3992,17690,2591,9554,2025-02-17 11:26:27,0.0
-11552,-4936,-4120,18557,2960,9801,2025-02-17 11:26:27,0.0
-12168,-5516,-5412,19147,2735,10083,2025-02-17 11:26:27,0.0
-11948,-5092,-7648,18164,2249,10792,2025-02-17 11:26:27,0.0
-10920,-3476,-7156,17284,1179,10729,2025-02-17 11:26:27,0.0
-10328,-2288,-7168,17015,935,9791,2025-02-17 11:26:27,0.0
-10872,-1960,-7172,16662,1203,8498,2025-02-17 11:26:27,0.0
-11496,-1700,-7432,16014,2223,7683,2025-02-17 11:26:27,0.0
-12368,-2016,-7200,15281,2878,7129,2025-02-17 11:26:27,0.0
-13360,-2336,-6804,13531,2524,7520,2025-02-17 11:26:27,0.0
-12768,-2448,-5968,12098,1461,8198,2025-02-17 11:26:27,0.0
-11652,-2092,-6924,11467,561,8448,2025-02-17 11:26:27,0.0
-10932,-2084,-8332,11376,660,8580,2025-02-17 11:26:27,0.0
-10624,-3176,-8720,12708,1888,8227,2025-02-17 11:26:28,0.0
-11504,-3424,-8488,13282,3583,8147,2025-02-17 11:26:28,0.0
-12500,-2300,-6032,13422,5119,8706,2025-02-17 11:26:28,0.0
-12228,-704,-5916,12897,5169,8715,2025-02-17 11:26:28,0.0
-12240,-64,-6936,11820,3027,8308,2025-02-17 11:26:28,0.0
-12160,292,-9032,11216,1153,7829,2025-02-17 11:26:28,0.0
-11968,2088,-8504,11760,1886,6302,2025-02-17 11:26:28,0.0
-12792,4192,-6352,11981,2541,4797,2025-02-17 11:26:28,0.0
-13176,5000,-4572,11388,2011,4181,2025-02-17 11:26:28,0.0
-12832,3172,-4668,10866,-190,3493,2025-02-17 11:26:28,0.0
-12860,344,-5212,10314,-1835,3532,2025-02-17 11:26:28,0.0
-12084,-2220,-4000,10173,-1593,3701,2025-02-17 11:26:28,0.0
-11284,-3972,-2848,11097,-1151,3414,2025-02-17 11:26:28,0.0
-12880,-3392,-3220,11923,-42,4632,2025-02-17 11:26:28,0.0
-12380,-1176,-4236,11776,1305,6041,2025-02-17 11:26:28,0.0
-12268,1692,-5488,10553,1127,5838,2025-02-17 11:26:28,0.0
-12032,3088,-5212,9481,1089,5355,2025-02-17 11:26:28,0.0
-11080,2852,-5212,10278,924,4346,2025-02-17 11:26:28,0.0
-12236,2284,-5312,11122,954,3837,2025-02-17 11:26:28,0.0
-12164,1496,-4960,11374,1547,3314,2025-02-17 11:26:28,0.0
-12860,876,-4660,11020,1829,2634,2025-02-17 11:26:28,
-13400,-68,-4188,10885,1176,2370,2025-02-17 11:26:28,0.0
-13988,-1200,-3608,11610,-294,2341,2025-02-17 11:26:28,0.0
-13208,-1280,-4372,12611,-2103,2960,2025-02-17 11:26:28,0.0
-11432,-500,-3976,13345,-3360,2623,2025-02-17 11:26:28,0.0
-10728,312,-3972,13922,-3870,1774,2025-02-17 11:26:28,0.0
-10476,788,-5132,12996,-3316,907,2025-02-17 11:26:28,0.0
-11028,360,-5168,11230,-1863,646,2025-02-17 11:26:28,0.0
-10868,36,-4400,10348,-931,377,2025-02-17 11:26:28,0.0
-10856,1552,-4324,9241,-678,-476,2025-02-17 11:26:28,0.0
-11588,2208,-6048,7900,-649,-1314,2025-02-17 11:26:28,0.0
-12540,1264,-9280,6712,214,-1325,2025-02-17 11:26:28,0.0
-13404,644,-10560,5343,2125,-1020,2025-02-17 11:26:28,0.0
-16388,-1808,-9332,3541,5595,428,2025-02-17 11:26:28,0.0
-15904,-3212,-4444,2837,7283,2205,2025-02-17 11:26:28,0.0
-14244,-2700,-1912,3896,1971,3202,2025-02-17 11:26:28,0.0
-12604,-1168,-3180,4358,-1925,3689,2025-02-17 11:26:28,0.0
-10340,-100,-4348,4322,-2658,3028,2025-02-17 11:26:28,0.0
-9948,96,-4956,4791,-911,760,2025-02-17 11:26:28,0.0
-12432,-24,-5364,4583,1324,251,2025-02-17 11:26:28,0.0
-12676,-760,-4764,4757,2128,622,2025-02-17 11:26:28,0.0
-12452,-1412,-4412,5461,1473,801,2025-02-17 11:26:28,0.0
-11948,-1508,-4728,5767,766,812,2025-02-17 11:26:28,0.0
-11320,-940,-5816,5193,936,718,2025-02-17 11:26:28,0.0
-10972,-328,-7268,3710,2182,315,2025-02-17 11:26:28,0.0
-12092,-552,-6096,2366,3076,-291,2025-02-17 11:26:28,0.0
-13260,-848,-5032,2042,1906,-407,2025-02-17 11:26:28,0.0
-13436,-616,-5664,1725,18,-426,2025-02-17 11:26:28,0.0
-13036,-648,-5960,1165,-1179,-361,2025-02-17 11:26:28,0.0
-12612,-952,-5452,846,-1599,-291,2025-02-17 11:26:28,0.0
-12412,-1644,-4728,594,-1402,111,2025-02-17 11:26:28,0.0
-12136,-1992,-4820,660,-566,224,2025-02-17 11:26:28,0.0
-11940,-1996,-5344,184,63,-112,2025-02-17 11:26:28,0.0
-13000,-1908,-6012,-393,284,-503,2025-02-17 11:26:28,0.0
-13388,-2004,-5772,-1187,-139,-765,2025-02-17 11:26:28,0.0
-13408,-1788,-4632,-2053,-1587,-1196,2025-02-17 11:26:28,0.0
-12952,-2928,-3996,-2177,-3448,-1061,2025-02-17 11:26:28,0.0
-12008,-3580,-3800,-2215,-4349,-930,2025-02-17 11:26:28,0.0
-10352,-3296,-4108,-2132,-4175,-1034,2025-02-17 11:26:28,0.0
-11032,-3020,-2788,-2239,-2231,-1355,2025-02-17 11:26:28,0.0
-10892,-2692,-4176,-2364,1523,-1872,2025-02-17 11:26:28,0.0
-12216,-2644,-3100,-3107,3354,-3181,2025-02-17 11:26:29,0.0
-14064,-3404,-2664,-2639,3672,-3581,2025-02-17 11:26:29,0.0
-14544,-3540,-2528,-2400,570,-3666,2025-02-17 11:26:29,0.0
-14000,-3600,-3464,-2692,-1800,-3904,2025-02-17 11:26:29,0.0
-12532,-2960,-3052,-2718,-3838,-4175,2025-02-17 11:26:29,0.0
-11576,-2932,-2376,-2429,-4576,-4273,2025-02-17 11:26:29,0.0
-11020,-2804,-1488,-2315,-4203,-3962,2025-02-17 11:26:29,0.0
-11156,-2800,-1528,-2469,-3105,-3599,2025-02-17 11:26:29,0.0
-12172,-3288,-2012,-2716,-1341,-2871,2025-02-17 11:26:29,0.0
-12720,-4116,-2216,-3104,351,-1742,2025-02-17 11:26:29,0.0
-12984,-4528,-1320,-2890,996,-742,2025-02-17 11:26:29,0.0
-12180,-4492,-984,-2259,1513,26,2025-02-17 11:26:29,0.0
-11880,-4480,-1260,-1624,2435,319,2025-02-17 11:26:29,0.0
-11664,-4272,-1588,-983,3452,368,2025-02-17 11:26:29,0.0
-12728,-3960,-2264,-1031,4308,413,2025-02-17 11:26:29,0.0
-13800,-4208,-2012,-1255,4585,448,2025-02-17 11:26:29,0.0
-14200,-3868,-1980,-1128,3300,155,2025-02-17 11:26:29,0.0
-14160,-3620,-2748,-1138,1690,-246,2025-02-17 11:26:29,0.0
-13828,-3016,-3324,-1773,967,-523,2025-02-17 11:26:29,0.0
-13640,-2628,-3824,-3329,1368,-706,2025-02-17 11:26:29,0.0
-12952,-2596,-3960,-5157,2266,-910,2025-02-17 11:26:29,0.0
-13400,-3316,-2096,-6680,3829,-772,2025-02-17 11:26:29,0.0
-13928,-4668,-1468,-4952,5119,-411,2025-02-17 11:26:29,0.0
-16060,-4720,-880,-2047,3742,350,2025-02-17 11:26:29,0.0
-16944,-4624,-1280,-20,736,1881,2025-02-17 11:26:29,0.0
-15812,-5732,-2468,1151,-916,2373,2025-02-17 11:26:29,0.0
-14988,-6376,-5868,1599,42,1772,2025-02-17 11:26:29,0.0
-17016,-5448,-6004,2476,2679,718,2025-02-17 11:26:29,0.0
-18928,-4628,-6300,2450,2088,-233,2025-02-17 11:26:29,0.0
-19824,-5628,-7584,3531,-1958,545,2025-02-17 11:26:29,0.0
-16080,-5872,-9368,3993,-5969,1335,2025-02-17 11:26:29,0.0
-11920,-5196,-8348,4046,-6144,1566,2025-02-17 11:26:29,0.0
-9196,-4228,-7348,4560,-4599,1829,2025-02-17 11:26:29,0.0
-7732,-3524,-6972,4209,-2509,1983,2025-02-17 11:26:29,0.0
-8460,-1988,-7212,3871,-582,2461,2025-02-17 11:26:29,0.0
-10324,-532,-7316,3412,1156,3510,2025-02-17 11:26:29,0.0
-12372,404,-6552,3396,2444,4677,2025-02-17 11:26:29,0.0
-13268,636,-6652,3400,2051,5353,2025-02-17 11:26:29,0.0
-13216,-652,-6712,3753,-451,5026,2025-02-17 11:26:29,0.0
-12612,-2856,-6696,4107,-2327,4911,2025-02-17 11:26:29,0.0
-11272,-3760,-6984,4220,-1491,5618,2025-02-17 11:26:29,0.0
-9848,-3932,-6876,4240,-253,6068,2025-02-17 11:26:29,0.0
-9800,-3196,-6636,4428,807,6269,2025-02-17 11:26:29,0.0
-9924,-1832,-5664,4542,858,6038,2025-02-17 11:26:29,0.0
-10432,-456,-5668,4602,-391,5456,2025-02-17 11:26:29,0.0
-10732,608,-5384,4410,-2513,4811,2025-02-17 11:26:29,0.0
-10752,1216,-5388,3882,-3218,4384,2025-02-17 11:26:29,0.0
-10684,1312,-4876,3435,-2736,4169,2025-02-17 11:26:29,0.0
-10900,1020,-4356,3215,-2132,3974,2025-02-17 11:26:29,0.0
-10560,748,-4100,2909,-1680,3327,2025-02-17 11:26:29,0.0
-10144,700,-4936,2263,-1124,2435,2025-02-17 11:26:29,0.0
-9092,1048,-5152,1046,-190,1418,2025-02-17 11:26:29,0.0
-8696,688,-4312,234,1026,93,2025-02-17 11:26:29,0.0
-9472,148,-4296,-419,1938,-1033,2025-02-17 11:26:29,0.0
-11152,-408,-4076,-1042,1979,-1770,2025-02-17 11:26:29,0.0
-12504,-588,-3892,-1708,1202,-2291,2025-02-17 11:26:29,0.0
-13788,-656,-2572,-1715,24,-2367,2025-02-17 11:26:29,0.0
-13956,-980,-2488,-1492,-608,-1990,2025-02-17 11:26:29,0.0
-13560,-1064,-2624,-1538,-528,-1636,2025-02-17 11:26:29,0.0
-13128,-1196,-2104,-1097,-577,-1122,2025-02-17 11:26:29,
-11860,-1436,-2196,-603,-741,-968,2025-02-17 11:26:29,0.0
-11948,-1008,-904,293,-491,-882,2025-02-17 11:26:30,0.0
-11092,-300,-1900,396,1286,-639,2025-02-17 11:26:30,0.0
-11188,500,-3292,-966,3372,-1525,2025-02-17 11:26:30,0.0
-12896,916,-2672,-891,4457,-1887,2025-02-17 11:26:30,0.0
-14788,-604,-2716,1561,3506,-1122,2025-02-17 11:26:30,0.0
-16144,-3524,-3604,4563,1481,357,2025-02-17 11:26:30,0.0
-16220,-2500,-2416,6442,-233,1316,2025-02-17 11:26:30,0.0
-15560,-768,-1684,7143,-335,462,2025-02-17 11:26:30,0.0
-15688,-1308,-2428,7146,-891,340,2025-02-17 11:26:30,0.0
-14856,-2584,-5880,6085,-158,1045,2025-02-17 11:26:30,0.0
-16148,-1776,-8932,4388,2866,1946,2025-02-17 11:26:30,0.0
-16512,208,-9624,2112,5508,2797,2025-02-17 11:26:30,0.0
-17748,992,-9240,974,7527,3169,2025-02-17 11:26:30,0.0
-18792,1764,-9568,874,8004,4170,2025-02-17 11:26:30,0.0
-17180,2420,-10812,1269,4534,4625,2025-02-17 11:26:30,0.0
-11696,688,-11148,482,-4647,3064,2025-02-17 11:26:30,0.0
-9360,-236,-7884,-784,-10704,215,2025-02-17 11:26:30,0.0
-7796,-2108,-4712,154,-10902,-1286,2025-02-17 11:26:30,0.0
-6584,-3144,-3724,1813,-9445,-1376,2025-02-17 11:26:30,0.0
-6084,-3764,-4624,2644,-7900,-1198,2025-02-17 11:26:30,0.0
-6676,-3360,-5964,2113,-3685,-1144,2025-02-17 11:26:30,0.0
-7848,-2704,-6616,1156,1862,-1642,2025-02-17 11:26:30,0.0
-10196,-2072,-7124,230,5624,-1894,2025-02-17 11:26:30,0.0
-12400,-1672,-6156,-733,6367,-1355,2025-02-17 11:26:30,0.0
-13744,-1524,-4360,-213,5014,-1150,2025-02-17 11:26:30,0.0
-13908,-1412,-5076,-113,2882,-1557,2025-02-17 11:26:30,0.0
-14000,-1464,-5556,-805,357,-2320,2025-02-17 11:26:30,0.0
-13632,-1332,-6192,-1629,-2763,-2601,2025-02-17 11:26:30,0.0
-12268,-1560,-5124,-1674,-5084,-2742,2025-02-17 11:26:30,0.0
-11076,-1504,-6068,-1695,-4441,-2779,2025-02-17 11:26:30,0.0
-9604,-1836,-4324,-1327,-2909,-3081,2025-02-17 11:26:30,0.0
-10320,-2452,-4920,-1221,-1324,-2319,2025-02-17 11:26:30,0.0
-9336,-2756,-3656,-1681,-585,-2109,2025-02-17 11:26:30,0.0
-10484,-2700,-4048,-1518,738,-1551,2025-02-17 11:26:30,0.0
-10620,-2088,-4972,-2265,1834,-738,2025-02-17 11:26:30,0.0
-10852,-1580,-4344,-3317,3245,-1109,2025-02-17 11:26:30,0.0
-12328,-1664,-3024,-3631,4106,-1385,2025-02-17 11:26:30,0.0
-13868,-1792,-2664,-2804,3931,-430,2025-02-17 11:26:30,0.0
-13344,-2060,-3384,-1647,2395,968,2025-02-17 11:26:30,0.0
-12528,-1688,-3696,-1854,1231,771,2025-02-17 11:26:30,0.0
-11500,-1480,-4056,-1392,151,-153,2025-02-17 11:26:30,0.0
-12940,-1808,-3744,-1697,227,-911,2025-02-17 11:26:30,0.0
-13756,-2220,-4364,-2612,436,-602,2025-02-17 11:26:30,0.0
-13968,-2024,-4236,-3817,-607,-733,2025-02-17 11:26:30,0.0
-14072,-2064,-3280,-3544,-2404,-694,2025-02-17 11:26:30,0.0
-13568,-1692,-1804,-2457,-4341,-899,2025-02-17 11:26:30,0.0
-13312,-1664,-2012,-1364,-5546,-1198,2025-02-17 11:26:30,0.0
-13108,-1584,-3352,-358,-5316,-1312,2025-02-17 11:26:30,0.0
-13136,-1052,-2160,490,-4661,-2299,2025-02-17 11:26:30,0.0
-13120,-1768,-2244,103,-5582,-3512,2025-02-17 11:26:30,0.0
-14052,-2716,-5368,-2070,-5888,-4616,2025-02-17 11:26:30,0.0
-13988,-2840,-8904,-4633,-5006,-5475,2025-02-17 11:26:30,0.0
-13472,20,-8480,-7537,-5231,-6214,2025-02-17 11:26:30,0.0
-13432,2808,-7200,-10544,-8406,-7262,2025-02-17 11:26:30,0.0
-12940,3080,-5136,-13154,-12276,-8273,2025-02-17 11:26:30,0.0
-12456,-648,-4812,-11203,-14805,-8862,2025-02-17 11:26:30,0.0
-11436,-2676,-9736,-8166,-11849,-8436,2025-02-17 11:26:30,0.0
-11420,-3168,-13792,-9400,-2601,-8066,2025-02-17 11:26:30,0.0
-12624,-4252,-12804,-14787,8188,-7040,2025-02-17 11:26:30,0.0
-15164,-3548,-4548,-18491,19605,-4547,2025-02-17 11:26:30,0.0
-17040,-2544,-3952,-16993,17706,-3454,2025-02-17 11:26:31,0.0
-17084,-760,-4972,-14879,12946,-2200,2025-02-17 11:26:31,0.0
-15460,560,-8668,-14410,5412,-1402,2025-02-17 11:26:31,0.0
-12040,1064,-11280,-15833,-6379,-1741,2025-02-17 11:26:31,0.0
-10540,744,-9980,-16899,-18049,-3262,2025-02-17 11:26:31,0.0
-11640,180,-6928,-17457,-27564,-3812,2025-02-17 11:26:31,0.0
-12912,-192,764,-16359,-19737,-1627,2025-02-17 11:26:31,0.0
-7576,-212,-4440,-14810,-10982,-1065,2025-02-17 11:26:31,0.0
-7164,388,-7908,-15379,-6003,-1515,2025-02-17 11:26:31,0.0
-7392,-212,-7308,-16270,-1420,-2129,2025-02-17 11:26:31,0.0
-8104,-492,-8132,-18630,1518,-4631,2025-02-17 11:26:31,0.0
-10732,-1480,-6760,-19869,2567,-5786,2025-02-17 11:26:31,0.0
-12072,-1752,-6736,-19993,2967,-5579,2025-02-17 11:26:31,0.0
-12400,-1584,-5760,-19723,3324,-5559,2025-02-17 11:26:31,0.0
-13768,-1896,-6832,-19392,4480,-5334,2025-02-17 11:26:31,0.0
-13720,-1796,-8180,-19744,4248,-4999,2025-02-17 11:26:31,0.0
-13088,-1644,-8392,-20076,1428,-5330,2025-02-17 11:26:31,0.0
-12420,-1472,-7952,-20575,-1704,-6004,2025-02-17 11:26:31,0.0
-12440,-1704,-6264,-20719,-3036,-6285,2025-02-17 11:26:31,0.0
-11856,-1880,-4356,-19957,-3120,-6109,2025-02-17 11:26:31,0.0
-11980,-2024,-4364,-19225,-2393,-5014,2025-02-17 11:26:31,0.0
-10816,-1912,-4288,-17916,-2908,-5192,2025-02-17 11:26:31,0.0
-10540,-1452,-4020,-17338,-4268,-5374,2025-02-17 11:26:31,0.0
-10584,-1772,-3192,-16189,-4287,-5973,2025-02-17 11:26:31,0.0
-10300,-2244,-1444,-13946,-3493,-6782,2025-02-17 11:26:31,0.0
-12540,-2720,-3292,-12793,-1702,-6657,2025-02-17 11:26:31,0.0
-13692,-3816,-3872,-13262,1754,-5386,2025-02-17 11:26:31,0.0
-13012,-4824,-3136,-13322,2803,-5286,2025-02-17 11:26:31,0.0
-14656,-3516,-2424,-13348,5311,-4833,2025-02-17 11:26:31,0.0
-13412,-1628,-1156,-13422,10380,-5271,2025-02-17 11:26:31,5
-11532,-228,-172,-12733,16590,-8032,2025-02-17 11:26:31,5
-11208,-1820,800,-10781,23305,-11927,2025-02-17 11:26:31,5
-17420,-4456,-2288,-10729,27745,-12614,2025-02-17 11:26:31,5
-12292,-7068,-1804,-9078,27817,-10473,2025-02-17 11:26:31,5
-13740,-7436,-3024,-7928,25184,-8225,2025-02-17 11:26:31,5
-14648,-5552,-904,-7642,22356,-5786,2025-02-17 11:26:31,5
-13120,-3048,16,-5661,18893,-3465,2025-02-17 11:26:31,5
-10328,-1652,-732,-3280,15743,-2592,2025-02-17 11:26:31,5
-7620,168,-1536,-1062,14268,-2519,2025-02-17 11:26:31,5
-3008,1632,-1816,-2549,13028,-2344,2025-02-17 11:26:31,5
-2232,1268,2584,-3060,10443,-960,2025-02-17 11:26:31,5
3368,-116,1980,-1950,5485,671,2025-02-17 11:26:31,5
3644,-456,1020,-2092,320,971,2025-02-17 11:26:31,5
4248,-460,796,-3160,-3743,-60,2025-02-17 11:26:31,5
3020,-408,1712,-3204,-5025,-553,2025-02-17 11:26:31,5
2872,-528,1376,-3137,-5095,-749,2025-02-17 11:26:31,5
3084,-388,1604,-3249,-5551,-1289,2025-02-17 11:26:31,5
2860,-408,1528,-3297,-5773,-1619,2025-02-17 11:26:31,5
2912,-408,1484,-3469,-6019,-2078,2025-02-17 11:26:31,5
2952,-328,1596,-3629,-6075,-2499,2025-02-17 11:26:31,5
3488,-284,1580,-3830,-6075,-3269,2025-02-17 11:26:31,5
4056,-172,1604,-3996,-6226,-4472,2025-02-17 11:26:31,5
4480,-388,1296,-4369,-6557,-5922,2025-02-17 11:26:31,5
4592,-428,1164,-5120,-7128,-8605,2025-02-17 11:26:31,5
4500,-484,1344,-5563,-7280,-10574,2025-02-17 11:26:31,5
3260,-632,1228,-6149,-7194,-11708,2025-02-17 11:26:31,5
2496,-568,1176,-6786,-6881,-12029,2025-02-17 11:26:31,5
2212,-592,888,-7384,-6400,-11944,2025-02-17 11:26:31,5
1984,-624,920,-8027,-5943,-11603,2025-02-17 11:26:31,5
2220,-652,428,-8952,-5484,-11272,2025-02-17 11:26:31,5
3108,-356,-284,-10149,-5633,-11449,2025-02-17 11:26:31,5
-18572,-8048,-15412,-14948,-7631,-8830,2025-02-17 11:26:32,5
16820,-7140,-32768,-27016,24071,-15813,2025-02-17 11:26:32,5
-32768,-28704,-32768,24964,32767,-32768,2025-02-17 11:26:32,5
-32768,-32768,-32768,2562,32767,-15858,2025-02-17 11:26:32,5
-80,-6572,-27472,-12921,-1603,-5267,2025-02-17 11:26:32,5
892,356,-756,-7106,-9786,-5083,2025-02-17 11:26:32,5
1812,-592,2380,-10815,4891,2836,2025-02-17 11:26:32,5
6944,-216,2848,-4010,7432,-1576,2025-02-17 11:26:32,5
7652,-1500,300,-2730,7231,-1260,2025-02-17 11:26:32,5
5124,-1368,1564,-991,-2882,-3561,2025-02-17 11:26:32,5
1392,-1740,724,1213,-7694,-4541,2025-02-17 11:26:32,5
-1908,-3036,-5344,2080,-9152,-4336,2025-02-17 11:26:32,5
-10960,-6080,-15516,127,-4589,-2199,2025-02-17 11:26:32,5
-16968,-10248,-21368,-2544,6464,2192,2025-02-17 11:26:32,5
-8804,-12380,-22676,-4078,11333,995,2025-02-17 11:26:32,5
-5028,-6600,-19212,-2725,9439,-952,2025-02-17 11:26:32,5
560,-2404,-12900,-1462,4494,-787,2025-02-17 11:26:32,5
-816,-3140,-9340,623,-883,-601,2025-02-17 11:26:32,5
-3764,-5864,-13180,286,-1477,-345,2025-02-17 11:26:32,5
-4668,-5124,-13836,-620,1016,43,2025-02-17 11:26:32,5
-2520,-3884,-13392,-95,832,-225,2025-02-17 11:26:32,5
-3076,-5028,-13676,36,-318,-233,2025-02-17 11:26:32,5
-3608,-4748,-12888,-235,193,-117,2025-02-17 11:26:32,5
-3280,-4540,-13388,-93,291,-199,2025-02-17 11:26:32,5
-3172,-4852,-13724,-162,184,-155,2025-02-17 11:26:32,5
-3380,-4624,-13280,-126,151,-163,2025-02-17 11:26:32,5
-3328,-4784,-13480,-135,302,-200,2025-02-17 11:26:32,5
-3192,-4724,-13356,-75,217,-198,2025-02-17 11:26:32,5
-3568,-4812,-13348,-90,208,-183,2025-02-17 11:26:32,5
-3408,-4788,-13624,-168,253,-196,2025-02-17 11:26:32,5
-3152,-4664,-13380,-129,150,-213,2025-02-17 11:26:32,5
-3284,-4860,-13268,-157,149,-199,2025-02-17 11:26:32,5
-3252,-4724,-13344,-132,207,-174,2025-02-17 11:26:32,5
-3212,-4752,-13500,-170,181,-160,2025-02-17 11:26:32,5
-3284,-4744,-13380,-127,198,-179,2025-02-17 11:26:32,5
-3156,-4728,-13276,-161,203,-168,2025-02-17 11:26:32,5
-3352,-4752,-13328,-133,207,-179,2025-02-17 11:26:32,5
-3180,-4764,-13500,-175,171,-150,2025-02-17 11:26:32,5
-3348,-4692,-13508,-163,185,-180,2025-02-17 11:26:32,5
-3176,-4772,-13384,-142,181,-200,2025-02-17 11:26:32,5
-3288,-4740,-13376,-141,178,-175,2025-02-17 11:26:32,5
-3248,-4796,-13336,-142,192,-176,2025-02-17 11:26:32,5
-3208,-4764,-13416,-135,159,-177,2025-02-17 11:26:32,5
-3216,-4704,-13392,-162,193,-204,2025-02-17 11:26:32,5
-3280,-4712,-13300,-143,142,-181,2025-02-17 11:26:32,5
-3232,-4652,-13408,-163,181,-159,2025-02-17 11:26:32,5
-3232,-4768,-13444,-195,179,-173,2025-02-17 11:26:32,5
-3228,-4664,-13484,-145,178,-163,2025-02-17 11:26:32,5
-3244,-4696,-13472,-145,174,-153,2025-02-17 11:26:32,5
-3240,-4804,-13312,-150,189,-175,2025-02-17 11:26:32,5
-3200,-4636,-13224,-178,163,-196,2025-02-17 11:26:32,5
-3264,-4720,-13352,-167,186,-167,2025-02-17 11:26:32,5
-3316,-4700,-13584,-155,159,-157,2025-02-17 11:26:32,5
-3244,-4792,-13388,-150,161,-170,2025-02-17 11:26:32,5
-3300,-4720,-13416,-171,176,-177,2025-02-17 11:26:32,5
-3212,-4708,-13364,-152,178,-180,2025-02-17 11:26:32,5
-3256,-4756,-13356,-174,162,-180,2025-02-17 11:26:32,5
-3216,-4728,-13352,-166,187,-169,2025-02-17 11:26:32,5
-3252,-4752,-13516,-137,166,-169,2025-02-17 11:26:32,5
-3220,-4752,-13436,-156,182,-197,2025-02-17 11:26:32,5
-3312,-4792,-13276,-153,185,-178,2025-02-17 11:26:33,5
-3256,-4748,-13440,-187,183,-176,2025-02-17 11:26:33,5
-3244,-4740,-13436,-159,201,-169,2025-02-17 11:26:33,5
-3244,-4680,-13488,-143,180,-184,2025-02-17 11:26:33,5
-3228,-4748,-13520,-182,188,-181,2025-02-17 11:26:33,5
-3116,-4768,-13492,-164,180,-165,2025-02-17 11:26:33,5
-3248,-4820,-13248,-167,167,-171,2025-02-17 11:26:33,5
-3248,-4792,-13432,-145,148,-166,2025-02-17 11:26:33,5
-3196,-4764,-13492,-187,159,-215,2025-02-17 11:26:33,5
-3216,-4752,-13472,-173,194,-180,2025-02-17 11:26:33,5
-3256,-4812,-13496,-158,190,-185,2025-02-17 11:26:33,5
-3300,-4676,-13476,-157,176,-181,2025-02-17 11:26:33,5
-3328,-4680,-13372,-154,169,-170,2025-02-17 11:26:33,5
-3220,-4692,-13360,-158,194,-175,2025-02-17 11:26:33,5
-3176,-4812,-13424,-140,160,-174,2025-02-17 11:26:33,5
-3256,-4676,-13380,-152,168,-162,2025-02-17 11:26:33,5
-3188,-4744,-13348,-170,175,-189,2025-02-17 11:26:33,5
-3256,-4648,-13420,-153,173,-171,2025-02-17 11:26:33,5
-3272,-4828,-13416,-137,186,-169,2025-02-17 11:26:33,5
-3256,-4692,-13388,-155,161,-175,2025-02-17 11:26:33,5
-3236,-4768,-13424,-145,161,-193,2025-02-17 11:26:33,5
-3216,-4772,-13376,-136,150,-155,2025-02-17 11:26:33,5
-3184,-4712,-13340,-185,178,-179,2025-02-17 11:26:33,5
-3224,-4816,-13408,-153,183,-199,2025-02-17 11:26:33,5
-3228,-4748,-13548,-179,185,-186,2025-02-17 11:26:33,5
-3180,-4656,-13244,-163,167,-162,2025-02-17 11:26:33,5
-3112,-4688,-13368,-156,168,-170,2025-02-17 11:26:33,5
-3248,-4776,-13436,-162,185,-168,2025-02-17 11:26:33,5
-3216,-4680,-13472,-183,172,-191,2025-02-17 11:26:33,5
-3212,-4632,-13400,-159,166,-198,2025-02-17 11:26:33,5
-3200,-4700,-13416,-135,180,-192,2025-02-17 11:26:33,5
-3232,-4764,-13368,-165,180,-171,2025-02-17 11:26:33,0.0
-3220,-4768,-13396,-154,170,-173,2025-02-17 11:26:33,0.0
-3232,-4808,-13400,-149,161,-170,2025-02-17 11:26:33,0.0
-3160,-4764,-13308,-158,187,-185,2025-02-17 11:26:33,0.0
-3324,-4688,-13496,-149,171,-169,2025-02-17 11:26:33,0.0
-3176,-4672,-13388,-193,175,-162,2025-02-17 11:26:33,0.0
-3256,-4756,-13368,-155,173,-187,2025-02-17 11:26:33,0.0
-3292,-4732,-13440,-156,174,-163,2025-02-17 11:26:33,0.0
-3172,-4856,-13528,-173,163,-169,2025-02-17 11:26:33,0.0
-3188,-4660,-13440,-181,195,-203,2025-02-17 11:26:33,0.0
-3208,-4720,-13312,-152,167,-173,2025-02-17 11:26:33,0.0
-3276,-4804,-13480,-147,162,-170,2025-02-17 11:26:33,0.0
-3368,-4716,-13304,-156,159,-156,2025-02-17 11:26:33,0.0
-3216,-4792,-13304,-154,154,-169,2025-02-17 11:26:33,0.0
-3220,-4712,-13316,-156,178,-163,2025-02-17 11:26:33,0.0
-3308,-4788,-13348,-186,163,-188,2025-02-17 11:26:33,0.0
-3232,-4688,-13528,-154,156,-173,2025-02-17 11:26:33,0.0
-3204,-4748,-13456,-180,172,-181,2025-02-17 11:26:33,0.0
-3232,-4684,-13236,-154,142,-165,2025-02-17 11:26:33,0.0
-3224,-4772,-13488,-167,158,-169,2025-02-17 11:26:33,0.0
-3188,-4712,-13248,-141,184,-190,2025-02-17 11:26:33,0.0
-3220,-4692,-13400,-166,180,-190,2025-02-17 11:26:33,0.0
-3208,-4780,-13388,-154,182,-175,2025-02-17 11:26:33,0.0
-3240,-4660,-13476,-187,171,-183,2025-02-17 11:26:33,0.0
-3260,-4768,-13416,-184,176,-171,2025-02-17 11:26:33,0.0
-3224,-4632,-13388,-147,185,-176,2025-02-17 11:26:33,0.0
-3224,-4728,-13444,-172,178,-182,2025-02-17 11:26:33,0.0
-3244,-4756,-13304,-187,158,-182,2025-02-17 11:26:33,0.0
-3200,-4756,-13488,-152,171,-165,2025-02-17 11:26:33,0.0
-3192,-4676,-13400,-164,178,-177,2025-02-17 11:26:34,0.0
-3156,-4812,-13436,-142,174,-169,2025-02-17 11:26:34,0.0
-3284,-4704,-13364,-170,164,-186,2025-02-17 11:26:34,0.0
-3288,-4716,-13476,-162,187,-168,2025-02-17 11:26:34,0.0
-3112,-4692,-13404,-165,190,-166,2025-02-17 11:26:34,0.0
-3248,-4800,-13336,-162,193,-185,2025-02-17 11:26:34,0.0
-3096,-4760,-13416,-148,180,-185,2025-02-17 11:26:34,0.0
-3124,-4764,-13456,-132,174,-181,2025-02-17 11:26:34,0.0
-3180,-4764,-13484,-138,168,-158,2025-02-17 11:26:34,0.0
-3228,-4748,-13312,-168,167,-178,2025-02-17 11:26:34,0.0
-3168,-4780,-13488,-169,165,-176,2025-02-17 11:26:34,0.0
-3204,-4808,-13488,-139,192,-173,2025-02-17 11:26:34,0.0
-3272,-4756,-13520,-160,186,-180,2025-02-17 11:26:34,0.0
-3328,-4640,-13432,-172,178,-171,2025-02-17 11:26:34,0.0
-3292,-4792,-13368,-184,165,-182,2025-02-17 11:26:34,0.0
-3212,-4696,-13432,-147,156,-168,2025-02-17 11:26:34,0.0
-3208,-4740,-13448,-145,181,-164,2025-02-17 11:26:34,0.0
-3180,-4704,-13476,-168,177,-163,2025-02-17 11:26:34,0.0
-3240,-4784,-13444,-172,167,-206,2025-02-17 11:26:34,0.0
-3276,-4708,-13460,-127,194,-182,2025-02-17 11:26:34,0.0
-3260,-4732,-13332,-191,153,-183,2025-02-17 11:26:34,0.0
-3156,-4752,-13324,-176,164,-189,2025-02-17 11:26:34,0.0
-3180,-4688,-13444,-157,179,-169,2025-02-17 11:26:34,0.0
-3184,-4768,-13544,-141,188,-169,2025-02-17 11:26:34,0.0
-3204,-4844,-13408,-153,158,-162,2025-02-17 11:26:34,0.0
-3268,-4728,-13508,-178,159,-141,2025-02-17 11:26:34,0.0
-3248,-4724,-13416,-163,201,-163,2025-02-17 11:26:34,0.0
-3184,-4780,-13476,-154,171,-174,2025-02-17 11:26:34,0.0
-3192,-4744,-13384,-170,179,-153,2025-02-17 11:26:34,0.0
-3172,-4776,-13436,-168,162,-176,2025-02-17 11:26:34,0.0
-3248,-4836,-13296,-189,186,-175,2025-02-17 11:26:34,0.0
-48,-4684,-13564,-594,-1907,1105,2025-02-17 11:26:34,0.0
-8604,-3936,-12964,80,807,-11,2025-02-17 11:26:34,0.0
-1296,-5296,-14140,-102,118,-249,2025-02-17 11:26:34,0.0
-3316,-5080,-14000,-464,-664,192,2025-02-17 11:26:34,0.0
-4272,-4520,-12424,-593,35,331,2025-02-17 11:26:34,0.0
-3944,-4432,-13404,-408,480,-249,2025-02-17 11:26:34,0.0
-3132,-4512,-13848,154,556,-268,2025-02-17 11:26:34,0.0
-2592,-4832,-13108,104,-374,-334,2025-02-17 11:26:34,0.0
-3996,-4940,-12664,73,-234,-119,2025-02-17 11:26:34,0.0
-3420,-4768,-13280,-198,218,-90,2025-02-17 11:26:34,0.0
-3112,-4752,-13556,-256,221,-128,2025-02-17 11:26:34,0.0
-3388,-4736,-13844,-128,82,-200,2025-02-17 11:26:34,0.0
-3412,-4764,-13280,1,273,-287,2025-02-17 11:26:34,0.0
-3080,-4568,-13368,615,-155,-354,2025-02-17 11:26:34,0.0
-3032,-5036,-13756,301,-707,-259,2025-02-17 11:26:34,0.0
-3432,-4644,-12644,1201,-1512,-184,2025-02-17 11:26:34,0.0
-3444,-4416,-11260,4368,-4124,-122,2025-02-17 11:26:34,0.0
-2116,-4212,-13604,7650,-9555,437,2025-02-17 11:26:34,0.0
-4652,-4852,-12448,8677,-13256,264,2025-02-17 11:26:34,0.0
-4156,-5428,-13100,10868,-15584,698,2025-02-17 11:26:34,0.0
-6884,-5532,-11556,13885,-15257,1145,2025-02-17 11:26:34,0.0
-5836,-6560,-13996,17255,-8057,3756,2025-02-17 11:26:34,0.0
-4112,-6620,-14028,17383,-1674,3027,2025-02-17 11:26:35,0.0
-4944,-7656,-10728,18419,2390,579,2025-02-17 11:26:35,0.0
-5440,-8884,-9368,20468,2072,-1094,2025-02-17 11:26:35,0.0
-5796,-10056,-9312,23352,3098,-1657,2025-02-17 11:26:35,0.0
-5160,-10852,-9152,26062,5334,-1931,2025-02-17 11:26:35,
-3728,-10824,-8468,28941,7653,-3551,2025-02-17 11:26:35,0.0
-3032,-11520,-7848,31760,7104,-3885,2025-02-17 11:26:35,0.0
-4608,-12352,-5944,32767,8455,-3085,2025-02-17 11:26:35,0.0
-1136,-14308,-7884,32767,12247,-4113,2025-02-17 11:26:35,0.0
-1388,-18580,-6460,32767,12048,-10370,2025-02-17 11:26:35,0.0
-3900,-21740,-5404,32767,9221,-12479,2025-02-17 11:26:35,0.0
-8116,-25000,-228,32767,10023,-11670,2025-02-17 11:26:35,0.0
-4,-32132,-4764,32767,11656,-11936,2025-02-17 11:26:35,0.0
1732,-32768,-4884,29594,4311,-13057,2025-02-17 11:26:35,0.0
-36,-31404,-1392,25215,-4242,-10255,2025-02-17 11:26:35,0.0
1076,-25184,-2036,22748,-12029,-9405,2025-02-17 11:26:35,0.0
680,-17844,-1212,20897,-20046,-11023,2025-02-17 11:26:35,0.0
2148,-17000,-1188,19199,-22423,-14616,2025-02-17 11:26:35,0.0
-1180,-17356,-3052,15647,-22075,-16875,2025-02-17 11:26:35,0.0
-304,-18740,-3980,10345,-18403,-16667,2025-02-17 11:26:35,0.0
-444,-20704,-3464,3584,-15680,-16096,2025-02-17 11:26:35,0.0
-216,-21192,-3616,-1328,-14696,-14592,2025-02-17 11:26:35,0.0
-1148,-20628,-1760,-5047,-14655,-12400,2025-02-17 11:26:35,0.0
-608,-20164,-1136,-7233,-15223,-10286,2025-02-17 11:26:35,0.0
-1376,-19704,-1480,-10101,-15637,-7144,2025-02-17 11:26:35,0.0
-1004,-19760,-896,-13381,-15490,-3981,2025-02-17 11:26:35,0.0
-508,-21704,-608,-14834,-14991,-2343,2025-02-17 11:26:35,0.0
-1856,-22452,-436,-15752,-14064,123,2025-02-17 11:26:35,0.0
-3988,-21984,-320,-16615,-12002,4667,2025-02-17 11:26:35,0.0
-4852,-20792,-720,-16075,-8176,10226,2025-02-17 11:26:35,0.0
-4592,-20116,1536,-13726,-4163,15604,2025-02-17 11:26:35,0.0
-2868,-21616,1644,-10152,-2731,18944,2025-02-17 11:26:35,0.0
-3292,-22396,872,-8236,-1805,21047,2025-02-17 11:26:35,0.0
8,-23784,356,-6600,-1560,21682,2025-02-17 11:26:35,0.0
1844,-23904,80,-6661,-2142,19561,2025-02-17 11:26:35,0.0
2348,-21304,1368,-6413,-3267,16810,2025-02-17 11:26:35,0.0
668,-17592,2552,-4913,-4360,14974,2025-02-17 11:26:35,0.0
1940,-17824,2888,-2030,-4888,13227,2025-02-17 11:26:35,0.0
3876,-22240,568,-1145,-5914,10828,2025-02-17 11:26:35,0.0
3804,-20288,-264,-1084,-7191,8068,2025-02-17 11:26:35,0.0
3384,-15704,32,-719,-8443,5351,2025-02-17 11:26:35,0.0
1400,-17080,-1920,1378,-9784,-3999,2025-02-17 11:26:35,0.0
1908,-13152,-468,1377,-10219,-3445,2025-02-17 11:26:35,0.0
2336,-13420,300,2105,-10637,-5026,2025-02-17 11:26:35,0.0
820,-14800,84,2595,-10352,-5905,2025-02-17 11:26:35,0.0
-356,-14040,-1304,631,-9643,-4914,2025-02-17 11:26:35,0.0
-828,-11648,-680,-2032,-9302,-2607,2025-02-17 11:26:35,0.0
328,-11180,560,-3073,-9248,-957,2025-02-17 11:26:35,0.0
832,-12164,1444,-2056,-9074,-166,2025-02-17 11:26:35,0.0
600,-12468,1072,-415,-8689,389,2025-02-17 11:26:35,0.0
300,-11540,692,548,-8366,1159,2025-02-17 11:26:35,0.0
4996,-10416,-3616,-390,-8819,1426,2025-02-17 11:26:35,0.0
2960,-10504,-3352,-5646,-8198,-929,2025-02-17 11:26:35,0.0
212,-9344,-3460,-7077,-7683,604,2025-02-17 11:26:35,0.0
-6240,-8088,2468,-6826,787,4660,2025-02-17 11:26:35,0.0
-5324,-7796,5348,-4241,15005,7277,2025-02-17 11:26:35,0.0
-5268,-8932,2164,-3955,25134,9480,2025-02-17 11:26:35,0.0
-7404,-10796,284,-4335,25270,13709,2025-02-17 11:26:35,0.0
-1820,-8956,392,-4019,19367,14706,2025-02-17 11:26:35,0.0
-4668,-7788,-344,-3580,11462,15745,2025-02-17 11:26:35,0.0
-3564,-8776,-3544,-4465,3109,16464,2025-02-17 11:26:35,0.0
-5176,-9444,-5252,-6443,-3435,18647,2025-02-17 11:26:35,0.0
-5636,-9628,-4236,-7184,-8683,21803,2025-02-17 11:26:35,0.0
-6312,-9344,-1128,-5714,-12772,23672,2025-02-17 11:26:35,0.0
-4904,-9312,1016,-4085,-17525,23966,2025-02-17 11:26:35,0.0
-5636,-9840,1996,-2617,-21998,23774,2025-02-17 11:26:35,0.0
-6788,-10144,2552,-550,-24072,23817,2025-02-17 11:26:35,0.0
-8176,-10128,3016,2597,-23229,24068,2025-02-17 11:26:36,0.0
-8444,-10312,2320,4537,-19775,24052,2025-02-17 11:26:36,0.0
-9236,-10512,2424,5407,-14535,23037,2025-02-17 11:26:36,0.0
-11440,-9688,2828,6130,-7732,22016,2025-02-17 11:26:36,0.0
-13996,-8484,3196,6425,-507,22547,2025-02-17 11:26:36,0.0
-14280,-7500,2764,6936,8310,23906,2025-02-17 11:26:36,0.0
-11968,-7432,1520,6907,13568,22969,2025-02-17 11:26:36,0.0
-11304,-6448,-316,6178,16820,20377,2025-02-17 11:26:36,0.0
-11268,-4840,-2292,4309,17949,17854,2025-02-17 11:26:36,0.0
-12012,-4256,-2648,2412,17141,16456,2025-02-17 11:26:36,0.0
-11576,-5036,-2360,1372,14339,16212,2025-02-17 11:26:36,0.0
-10776,-4864,-2444,809,10527,15317,2025-02-17 11:26:36,0.0
-10280,-5184,-5556,112,6486,13619,2025-02-17 11:26:36,0.0
-13040,-2412,-3568,108,3445,12260,2025-02-17 11:26:36,0.0
-12852,-1556,-3576,-68,1120,10958,2025-02-17 11:26:36,0.0
-12224,-2232,-3136,-132,-2219,8577,2025-02-17 11:26:36,0.0
-12332,-2716,-2344,-576,-6429,6769,2025-02-17 11:26:36,0.0
-12608,-2960,-1348,-319,-10583,6343,2025-02-17 11:26:36,0.0
-13156,-2400,-32,1467,-14142,6664,2025-02-17 11:26:36,0.0
-12312,-1920,-68,2840,-14515,5915,2025-02-17 11:26:36,0.0
-12700,-1584,-460,3632,-13111,4492,2025-02-17 11:26:36,0.0
-12824,-1360,0,4160,-10152,3347,2025-02-17 11:26:36,0.0
-12016,-1292,-108,4083,-7044,1745,2025-02-17 11:26:36,0.0
-11136,-6124,13992,3815,10520,1364,2025-02-17 11:26:36,0.0
-12276,-3300,5544,4898,5008,569,2025-02-17 11:26:36,0.0
-17864,248,-5072,840,1676,3127,2025-02-17 11:26:36,0.0
-14408,576,-2484,-3486,-1737,3848,2025-02-17 11:26:36,0.0
-13728,-812,2056,-4121,-2060,3555,2025-02-17 11:26:36,0.0
-12688,-1080,1340,-2856,-340,4312,2025-02-17 11:26:36,0.0
-10744,-592,-184,-2923,1774,3072,2025-02-17 11:26:36,0.0
-10420,-296,708,-1931,4318,483,2025-02-17 11:26:36,0.0
-11584,452,-1080,-2165,7200,-210,2025-02-17 11:26:36,0.0
-10152,832,-3528,-4880,9619,-1592,2025-02-17 11:26:36,0.0
-10944,1172,-2824,-7470,11594,-3215,2025-02-17 11:26:36,0.0
-15640,372,-212,-7512,12856,-2577,2025-02-17 11:26:36,0.0
-16044,-800,132,-7509,11367,-1213,2025-02-17 11:26:36,0.0
-18180,416,-904,-7502,8077,-589,2025-02-17 11:26:36,0.0
-17236,1676,-2316,-7969,3005,815,2025-02-17 11:26:36,
-15376,2316,-1780,-8161,-2585,-28,2025-02-17 11:26:36,0.0
-14224,2316,-4344,-8951,-4234,-347,2025-02-17 11:26:36,0.0
-9692,1736,-3136,-10342,-2288,-1556,2025-02-17 11:26:36,0.0
-11328,1592,-2416,-11028,2150,-2282,2025-02-17 11:26:36,0.0
-11772,1112,-2428,-11413,4291,-2754,2025-02-17 11:26:36,0.0
-11860,944,-3064,-12298,3769,-3709,2025-02-17 11:26:36,0.0
-13816,548,-3248,-13537,2658,-4370,2025-02-17 11:26:36,0.0
-14360,-172,-2516,-14294,1759,-4278,2025-02-17 11:26:36,0.0
-14856,-1056,-1152,-14238,681,-3992,2025-02-17 11:26:36,0.0
-15556,-1064,-1944,-13472,355,-2401,2025-02-17 11:26:36,0.0
-14924,-1696,-2140,-12989,731,-905,2025-02-17 11:26:36,0.0
-13316,-1108,-932,-12475,-553,-515,2025-02-17 11:26:36,0.0
-12032,-1644,660,-11159,-987,-1044,2025-02-17 11:26:36,0.0
-11292,-996,-428,-10996,1167,-2286,2025-02-17 11:26:36,0.0
-12940,920,-6532,-12333,3301,-2251,2025-02-17 11:26:36,0.0
-13284,1364,-6040,-14457,3395,-3437,2025-02-17 11:26:36,0.0
-13472,1128,-4180,-15733,2601,-4451,2025-02-17 11:26:36,0.0
-13164,684,-3736,-16133,1278,-5271,2025-02-17 11:26:36,0.0
-13816,660,-3512,-16594,54,-5526,2025-02-17 11:26:36,0.0
-13640,112,-3340,-16739,-405,-5243,2025-02-17 11:26:36,0.0
-13756,-480,-2996,-16704,-989,-4805,2025-02-17 11:26:36,0.0
-13860,-128,-4044,-16915,-920,-4101,2025-02-17 11:26:37,0.0
-13124,-840,-2604,-17044,-508,-3534,2025-02-17 11:26:37,0.0
-13188,-972,-3376,-17277,-763,-3543,2025-02-17 11:26:37,0.0
-12888,-900,-3128,-17441,-301,-3444,2025-02-17 11:26:37,0.0
-12968,-860,-2824,-17451,365,-3342,2025-02-17 11:26:37,0.0
-12728,-732,-3000,-17216,533,-3557,2025-02-17 11:26:37,0.0
-12836,-1100,-2720,-17204,1059,-3610,2025-02-17 11:26:37,0.0
-12736,-752,-2828,-16738,1067,-3678,2025-02-17 11:26:37,0.0
-12892,-420,-3364,-16973,1202,-3731,2025-02-17 11:26:37,0.0
-13984,-416,-2700,-16972,912,-3480,2025-02-17 11:26:37,0.0
-13796,-1220,-1920,-16653,741,-3070,2025-02-17 11:26:37,0.0
-13340,-1636,-1436,-15592,885,-2676,2025-02-17 11:26:37,0.0
-12916,-1584,-1608,-14629,1082,-2478,2025-02-17 11:26:37,0.0
-12248,-1272,-1856,-13975,1958,-2502,2025-02-17 11:26:37,0.0
-11664,-1032,-2808,-13483,3231,-2912,2025-02-17 11:26:37,0.0
-12044,-764,-2768,-13358,5357,-3915,2025-02-17 11:26:37,0.0
-12184,-304,-2824,-12701,6799,-5122,2025-02-17 11:26:37,0.0
-13112,608,-1596,-12292,6784,-6103,2025-02-17 11:26:37,0.0
-14176,564,-2024,-10976,5340,-6964,2025-02-17 11:26:37,0.0
-14480,-332,-2212,-10123,3045,-6751,2025-02-17 11:26:37,0.0
-14208,-884,-3132,-9438,445,-6111,2025-02-17 11:26:37,0.0
-14104,-952,-2748,-9310,-1096,-5424,2025-02-17 11:26:37,0.0
-13372,-1172,-2456,-9338,-1142,-5245,2025-02-17 11:26:37,0.0
-13404,-1168,-2256,-9225,-575,-5221,2025-02-17 11:26:37,0.0
-14120,-980,-2220,-8965,-17,-4363,2025-02-17 11:26:37,0.0
-13836,-760,-1728,-8301,369,-2533,2025-02-17 11:26:37,0.0
-12992,-264,-2600,-7977,417,-2064,2025-02-17 11:26:37,0.0
-12740,-336,-2956,-8158,721,-1934,2025-02-17 11:26:37,0.0
-12368,-728,-2416,-8029,1282,-1999,2025-02-17 11:26:37,0.0
-13084,-980,-2020,-7514,2294,-1848,2025-02-17 11:26:37,0.0
-13060,-928,-1580,-7240,3008,-1924,2025-02-17 11:26:37,0.0
-13244,-872,-1336,-6367,2728,-2026,2025-02-17 11:26:37,0.0
-13600,-720,-1464,-5276,1721,-1895,2025-02-17 11:26:37,0.0
-13052,-484,-2140,-4622,1157,-1668,2025-02-17 11:26:37,0.0
-12668,-316,-2464,-3958,1313,-1496,2025-02-17 11:26:37,0.0
-13588,-204,-3000,-3634,1631,-1099,2025-02-17 11:26:37,0.0
-13660,224,-1964,-3409,2004,-1125,2025-02-17 11:26:37,0.0
-14368,492,-1348,-2922,1501,-1489,2025-02-17 11:26:37,0.0
-15368,476,-632,-2079,575,-1753,2025-02-17 11:26:37,0.0
-16300,128,-1476,-1532,-774,-1400,2025-02-17 11:26:37,0.0
-14272,-176,-3620,-1031,-2815,-1212,2025-02-17 11:26:37,0.0
-13584,-328,-4376,-583,-5021,-1530,2025-02-17 11:26:37,0.0
-11748,-752,-5168,-887,-5859,-2305,2025-02-17 11:26:37,0.0
-10612,-1404,-5232,-1649,-5116,-3525,2025-02-17 11:26:37,0.0
-10580,-2020,-4812,-2507,-3136,-4651,2025-02-17 11:26:37,0.0
-10964,-2732,-4656,-3364,-556,-5358,2025-02-17 11:26:37,0.0
-12508,-3104,-3908,-3680,1844,-5363,2025-02-17 11:26:37,0.0
-13932,-3648,-3768,-3745,3343,-4577,2025-02-17 11:26:37,0.0
-15228,-3440,-2448,-3359,3545,-3417,2025-02-17 11:26:37,0.0
-15208,-3208,-2000,-2707,2929,-2587,2025-02-17 11:26:37,0.0
-14420,-3036,-2360,-1781,2058,-2516,2025-02-17 11:26:37,0.0
-13848,-3032,-2692,-1199,1470,-2423,2025-02-17 11:26:37,0.0
-13100,-2852,-2588,-531,1377,-1997,2025-02-17 11:26:37,0.0
-12264,-2180,-1596,3,1339,-1859,2025-02-17 11:26:37,0.0
-11240,-2304,-1420,350,1759,-3060,2025-02-17 11:26:37,0.0
-12696,-2508,-2124,135,1657,-3812,2025-02-17 11:26:37,0.0
-13352,-3068,-2304,-1,103,-3561,2025-02-17 11:26:37,0.0
-13124,-3248,-2512,-375,-1470,-2988,2025-02-17 11:26:37,0.0
-12328,-2808,-2120,-672,-2342,-2534,2025-02-17 11:26:37,0.0
-11496,-2532,-1756,-723,-1210,-2187,2025-02-17 11:26:37,0.0
-10812,-2592,-1020,-480,-45,-2022,2025-02-17 11:26:37,0.0
-11864,-2784,-952,5,1353,-1467,2025-02-17 11:26:37,0.0
-12676,-3104,-1120,509,1553,-699,2025-02-17 11:26:37,0.0
-13392,-2980,-1100,1119,867,204,2025-02-17 11:26:38,0.0
-13312,-2376,-872,1167,-388,775,2025-02-17 11:26:38,0.0
-13156,-2064,-252,1239,-1875,965,2025-02-17 11:26:38,0.0
-13332,-2272,640,1832,-3266,1255,2025-02-17 11:26:38,0.0
-13152,-2600,156,2416,-4132,1620,2025-02-17 11:26:38,0.0
-12628,-2988,-368,2914,-4305,1683,2025-02-17 11:26:38,0.0
-12180,-2728,-1904,3368,-3130,1178,2025-02-17 11:26:38,0.0
-12556,-1692,-4896,1255,-499,744,2025-02-17 11:26:38,0.0
-12056,-1312,-3648,-529,1374,-916,2025-02-17 11:26:38,0.0
-12828,-2816,-3656,-2043,2699,-2659,2025-02-17 11:26:38,0.0
-16452,-4048,-992,-2679,3432,-3614,2025-02-17 11:26:38,0.0
-17624,-3888,1440,-2359,2844,-3078,2025-02-17 11:26:38,0.0
-18112,-3620,1836,-1322,-98,-2276,2025-02-17 11:26:38,0.0
-19160,-2596,-324,-429,-2291,-1945,2025-02-17 11:26:38,0.0
-16904,-2616,-4352,-1247,-2910,-2515,2025-02-17 11:26:38,0.0
-15152,-3920,-5928,-2308,-3172,-4386,2025-02-17 11:26:38,
-15172,-6692,-3480,-2116,-407,-5635,2025-02-17 11:26:38,0.0
-16596,-7464,-3248,138,5499,-4330,2025-02-17 11:26:38,0.0
-19772,-7172,-3472,-1004,8102,-1290,2025-02-17 11:26:38,0.0
-14136,-5172,-7056,-2254,10181,373,2025-02-17 11:26:38,0.0
-10460,-3248,-8516,-2509,4039,-305,2025-02-17 11:26:38,0.0
-10844,-2484,-8984,-3032,-1965,-1160,2025-02-17 11:26:38,0.0
-12032,-2828,-9068,-3914,-7383,-206,2025-02-17 11:26:38,0.0
-12520,-2484,-6036,-3734,-11734,1329,2025-02-17 11:26:38,0.0
-12132,-900,-3016,-2896,-11067,2471,2025-02-17 11:26:38,0.0
-10468,-1076,-3432,-1898,-5232,2804,2025-02-17 11:26:38,0.0
-10288,-1204,-4728,-1889,-44,2934,2025-02-17 11:26:38,0.0
-10976,-1732,-4636,-1927,2252,3254,2025-02-17 11:26:38,0.0
-11872,-2892,-4548,-1874,3604,3554,2025-02-17 11:26:38,0.0
-12936,-3320,-4596,-1910,5141,4072,2025-02-17 11:26:38,0.0
-13096,-2680,-4792,-2225,5948,4954,2025-02-17 11:26:38,0.0
-12660,-1708,-4584,-2348,5009,5005,2025-02-17 11:26:38,0.0
-12032,-824,-4412,-2334,2189,4342,2025-02-17 11:26:38,0.0
-11328,-28,-4344,-2253,-1480,3169,2025-02-17 11:26:38,0.0
-11680,-380,-3540,-2136,-4242,1795,2025-02-17 11:26:38,0.0
-11840,-740,-3092,-2009,-3398,1348,2025-02-17 11:26:38,0.0
-11876,-668,-2344,-1036,-1350,1272,2025-02-17 11:26:38,0.0
-11024,-780,-1940,-160,261,1536,2025-02-17 11:26:38,0.0
-11012,-488,-1952,713,330,1651,2025-02-17 11:26:38,0.0
-10636,-328,-2648,1095,85,1604,2025-02-17 11:26:38,0.0
-9940,-324,-3544,957,540,798,2025-02-17 11:26:38,0.0
-10048,-412,-2956,1049,1946,5,2025-02-17 11:26:38,0.0
-10804,-588,-2588,1518,3072,-644,2025-02-17 11:26:38,0.0
-11216,-728,-2068,1754,3929,-1189,2025-02-17 11:26:38,0.0
-11944,-864,-1664,1802,4001,-1689,2025-02-17 11:26:38,0.0
-12456,-556,-2072,1993,3738,-2023,2025-02-17 11:26:38,0.0
-13332,-132,-2040,1995,2684,-2317,2025-02-17 11:26:38,0.0
-13020,-120,-2452,1532,918,-3065,2025-02-17 11:26:38,0.0
-12936,-428,-2440,1062,-747,-3857,2025-02-17 11:26:38,0.0
-11700,-720,-3388,816,-1747,-4669,2025-02-17 11:26:38,0.0
-12992,-1044,-2564,902,-1914,-5113,2025-02-17 11:26:38,0.0
-13888,-1828,-1680,1307,-2642,-4497,2025-02-17 11:26:38,0.0
-13152,-3032,-3356,1550,-2985,-3267,2025-02-17 11:26:38,0.0
-12780,-2640,-3248,1758,-1759,-1907,2025-02-17 11:26:38,0.0
-12180,-1860,-3032,2175,-31,-914,2025-02-17 11:26:38,0.0
-12888,-1892,-2108,2869,1610,-272,2025-02-17 11:26:38,0.0
-14564,-2980,-536,4422,3550,647,2025-02-17 11:26:38,0.0
-16300,-3556,-864,5623,4178,1903,2025-02-17 11:26:38,0.0
-17600,-2596,-1560,6644,4320,3779,2025-02-17 11:26:39,0.0
-18080,-1320,-3756,6880,4321,5245,2025-02-17 11:26:39,0.0
-17224,-604,-6872,6921,5874,5951,2025-02-17 11:26:39,0.0
-29228,-408,-6268,6952,5367,6927,2025-02-17 11:26:39,0.0
-16048,652,-9476,6362,10748,5613,2025-02-17 11:26:39,0.0
-17612,392,-9584,5425,14466,5051,2025-02-17 11:26:39,0.0
-15160,-736,-10500,3921,18853,4561,2025-02-17 11:26:39,0.0
-11952,-2012,-9816,2944,18507,3875,2025-02-17 11:26:39,0.0
-9848,-3172,-9392,2933,14559,4046,2025-02-17 11:26:39,0.0
-10412,-4252,-8720,2718,9347,5869,2025-02-17 11:26:39,0.0
-8984,-4572,-9804,1460,4188,8065,2025-02-17 11:26:39,0.0
-6712,-3976,-10880,143,1205,7652,2025-02-17 11:26:39,0.0
-5476,-3152,-10784,-1395,-1657,5456,2025-02-17 11:26:39,0.0
-7052,-1932,-9760,-2660,-3787,2757,2025-02-17 11:26:39,0.0
-7576,-924,-8428,-3356,-4691,-270,2025-02-17 11:26:39,0.0
-7300,-760,-7644,-2724,-3581,-2763,2025-02-17 11:26:39,0.0
-7472,-556,-7328,-1745,-2275,-4424,2025-02-17 11:26:39,0.0
-7412,-1112,-8016,-1244,-1278,-5483,2025-02-17 11:26:39,0.0
-8152,-2244,-9024,-1468,-837,-6011,2025-02-17 11:26:39,0.0
-9692,-2708,-8772,-2017,-1463,-6039,2025-02-17 11:26:39,0.0
-10276,-2884,-8384,-2413,-2380,-5569,2025-02-17 11:26:39,0.0
-11012,-2552,-7644,-2512,-1616,-4904,2025-02-17 11:26:39,0.0
-11328,-2316,-6068,-2117,821,-4322,2025-02-17 11:26:39,0.0
-11124,-2312,-5232,-1514,3603,-3969,2025-02-17 11:26:39,0.0
-11068,-2224,-5868,-957,5955,-3812,2025-02-17 11:26:39,0.0
-11924,-1860,-6768,-638,7275,-3336,2025-02-17 11:26:39,0.0
-12196,-2164,-7596,-525,6474,-2633,2025-02-17 11:26:39,0.0
-11948,-1900,-7812,-757,4414,-2033,2025-02-17 11:26:39,0.0
-11484,-2316,-8012,-1145,2055,-1657,2025-02-17 11:26:39,0.0
-11188,-2672,-7744,-1317,-533,-1206,2025-02-17 11:26:39,0.0
-11332,-2656,-7956,-1999,-2845,-301,2025-02-17 11:26:39,0.0
-11756,-2952,-7720,-2772,-4599,829,2025-02-17 11:26:39,0.0
-12196,-3692,-8092,-3884,-6632,2797,2025-02-17 11:26:39,0.0
-11944,-5072,-8300,-4944,-9581,4760,2025-02-17 11:26:39,0.0
