acceleration_x,acceleration_y,acceleration_z,gyroscope_x,gyroscope_y,gyroscope_z,timestamp,label
-13832,440,-2280,-3390,454,-1390,2025-02-06 17:39:27,1
-13512,312,-1948,-3081,204,-1334,2025-02-06 17:39:27,1
-13248,392,-1992,-2804,476,-1114,2025-02-06 17:39:27,1
-12848,784,-2024,-2590,1090,-1066,2025-02-06 17:39:27,1
-12472,1204,-2016,-2431,1655,-1050,2025-02-06 17:39:27,1
-12352,1504,-2212,-2385,1609,-1460,2025-02-06 17:39:27,1
-12468,1840,-2400,-2380,1467,-1753,2025-02-06 17:39:27,1
-12548,1804,-2392,-2350,1331,-2026,2025-02-06 17:39:27,1
-12836,1928,-2480,-2446,1184,-2164,2025-02-06 17:39:27,1
-14028,1264,-4176,-450,-2434,-924,2025-02-06 17:39:27,1
-12272,1860,-4176,-902,-2239,-1045,2025-02-06 17:39:27,1
-11240,1980,-4848,-1246,-824,-1372,2025-02-06 17:39:27,1
-11104,1948,-4812,-1719,1333,-1970,2025-02-06 17:39:27,1
-11552,1880,-5472,-2206,2800,-2465,2025-02-06 17:39:27,1
-12368,1552,-5604,-2658,3135,-2715,2025-02-06 17:39:27,1
-12876,336,-6048,-3175,2963,-2809,2025-02-06 17:39:27,1
-12804,-652,-6160,-3324,2672,-2936,2025-02-06 17:39:27,1
-12616,-1228,-6256,-3249,2083,-3172,2025-02-06 17:39:27,1
-11536,-2656,-5576,-2622,981,-3278,2025-02-06 17:39:27,1
-11508,-2184,-6344,-2690,1113,-3469,2025-02-06 17:39:27,1
-11756,-2284,-4892,-2731,1704,-3344,2025-02-06 17:39:27,1
-12076,-1808,-5280,-3000,2365,-3168,2025-02-06 17:39:27,1
-12276,-1276,-5928,-3465,2387,-3273,2025-02-06 17:39:27,1
-12336,-1124,-5900,-4022,2001,-3592,2025-02-06 17:39:27,1
-12356,-1404,-5996,-4586,1412,-3771,2025-02-06 17:39:27,1
-11888,-1892,-5580,-4916,893,-3848,2025-02-06 17:39:27,1
-11508,-2936,-5148,-5129,469,-3735,2025-02-06 17:39:27,1
-11256,-3252,-5688,-5182,761,-3616,2025-02-06 17:39:27,1
-11488,-3052,-5432,-5377,1161,-3572,2025-02-06 17:39:27,1
-12000,-3100,-5616,-5620,1250,-3313,2025-02-06 17:39:27,1
-11564,-3220,-5444,-5730,757,-3093,2025-02-06 17:39:27,1
-12196,-3328,-5296,-6053,348,-3129,2025-02-06 17:39:27,1
-12108,-3124,-5672,-6209,147,-3344,2025-02-06 17:39:27,1
-12276,-3652,-6072,-6750,-104,-3668,2025-02-06 17:39:27,1
-12744,-3836,-5032,-6526,-517,-3749,2025-02-06 17:39:27,1
-12268,-3736,-5208,-6261,-635,-4163,2025-02-06 17:39:27,1
-12844,-3644,-4932,-6280,-1114,-4380,2025-02-06 17:39:27,1
-12764,-3220,-4808,-6285,-1866,-4097,2025-02-06 17:39:27,1
-12088,-2920,-4676,-6339,-2273,-3863,2025-02-06 17:39:27,1
-11612,-3288,-5356,-6604,-1822,-3789,2025-02-06 17:39:27,1
-11464,-3112,-4924,-6448,-1401,-3684,2025-02-06 17:39:27,1
-11516,-2832,-5080,-6505,-838,-3384,2025-02-06 17:39:27,1
-11648,-2796,-4580,-6206,-93,-3164,2025-02-06 17:39:27,1
-12064,-2532,-5000,-6247,384,-2816,2025-02-06 17:39:27,1
-12592,-2800,-4908,-6255,490,-2551,2025-02-06 17:39:27,1
-12468,-3272,-5176,-6235,307,-2584,2025-02-06 17:39:27,1
-12384,-3452,-5648,-6441,-21,-2891,2025-02-06 17:39:27,1
-12024,-3068,-5364,-6552,-462,-3328,2025-02-06 17:39:27,1
-11912,-3208,-4840,-6529,-244,-3316,2025-02-06 17:39:27,1
-12280,-3372,-5392,-6308,-237,-3267,2025-02-06 17:39:28,1
-12652,-3340,-5280,-6287,-152,-3143,2025-02-06 17:39:28,1
-12836,-3624,-5348,-6340,-462,-3019,2025-02-06 17:39:28,1
-12308,-3584,-5136,-6169,-870,-2979,2025-02-06 17:39:28,1
-11788,-3216,-5184,-6115,-562,-3042,2025-02-06 17:39:28,1
-11868,-3056,-4672,-6087,-283,-3126,2025-02-06 17:39:28,1
-12684,-3312,-4776,-6031,-303,-3013,2025-02-06 17:39:28,1
-13272,-3412,-4988,-5783,-733,-2708,2025-02-06 17:39:28,1
-13036,-3124,-5480,-5804,-1269,-2460,2025-02-06 17:39:28,1
-12720,-3340,-5456,-5988,-1556,-2316,2025-02-06 17:39:28,1
-12000,-3360,-5328,-5945,-2036,-2164,2025-02-06 17:39:28,1
-11756,-3640,-4940,-5892,-2333,-2082,2025-02-06 17:39:28,1
-11476,-3056,-4672,-5440,-1910,-1934,2025-02-06 17:39:28,1
-11328,-2080,-5060,-5756,-1331,-2028,2025-02-06 17:39:28,1
-12048,-1972,-4820,-5636,-520,-2063,2025-02-06 17:39:28,1
-12652,-2468,-5368,-5589,-351,-2076,2025-02-06 17:39:28,1
-12504,-3532,-5204,-5162,-908,-2154,2025-02-06 17:39:28,1
-12692,-3020,-5380,-5048,-1251,-1914,2025-02-06 17:39:28,1
-12208,-3504,-5300,-4940,-1253,-1917,2025-02-06 17:39:28,1
-11980,-3192,-5320,-4749,-978,-1937,2025-02-06 17:39:28,1
-12172,-3324,-4732,-4642,-1014,-1787,2025-02-06 17:39:28,1
-12108,-3056,-4516,-4413,-986,-1538,2025-02-06 17:39:28,1
-12004,-3368,-4744,-4210,-698,-1422,2025-02-06 17:39:28,1
-12172,-3132,-5076,-4066,-480,-1476,2025-02-06 17:39:28,1
-12436,-2824,-4712,-3929,-347,-1490,2025-02-06 17:39:28,1
-12696,-2752,-4756,-3875,-344,-1445,2025-02-06 17:39:28,1
-12616,-2552,-4620,-3769,-221,-1390,2025-02-06 17:39:28,1
-12540,-2452,-4692,-3803,65,-1394,2025-02-06 17:39:28,1
-12484,-2364,-4872,-3898,156,-1414,2025-02-06 17:39:28,1
-12696,-2588,-4724,-3989,152,-1303,2025-02-06 17:39:28,1
-12424,-2572,-4504,-3911,238,-1197,2025-02-06 17:39:28,1
-12332,-3024,-4144,-3913,59,-1118,2025-02-06 17:39:28,1
-12380,-3340,-4152,-3620,-59,-975,2025-02-06 17:39:28,1
-12152,-3532,-4376,-3439,207,-815,2025-02-06 17:39:28,1
-12180,-3452,-4096,-3136,340,-697,2025-02-06 17:39:28,1
-12512,-3096,-4136,-2879,262,-494,2025-02-06 17:39:28,1
-12640,-2564,-4280,-2734,49,-294,2025-02-06 17:39:28,1
-12892,-2796,-3932,-2623,-276,-223,2025-02-06 17:39:28,1
-13004,-3312,-3188,-1714,-628,112,2025-02-06 17:39:28,1
-12908,-3360,-3192,-996,-422,180,2025-02-06 17:39:28,1
-13180,-2740,-3416,-470,-421,97,2025-02-06 17:39:28,1
-13172,-2204,-3704,-378,-568,-164,2025-02-06 17:39:28,1
-13180,-1852,-3856,-696,-823,-331,2025-02-06 17:39:28,1
-13200,-1704,-3016,-816,-1287,-157,2025-02-06 17:39:28,1
-13188,-1272,-3004,-521,-1678,323,2025-02-06 17:39:28,1
-12904,-1108,-3372,-761,-1836,409,2025-02-06 17:39:28,1
-12720,-272,-3364,-1286,-2013,369,2025-02-06 17:39:28,1
-12748,-580,-3396,-1868,-2100,69,2025-02-06 17:39:28,1
-12696,-1252,-3220,-1997,-2215,-509,2025-02-06 17:39:28,1
-12860,-2520,-3236,-1765,-2182,-799,2025-02-06 17:39:28,1
-12896,-3508,-2852,-1095,-1555,-947,2025-02-06 17:39:28,1
-13360,-4816,-3208,-94,-1133,-1252,2025-02-06 17:39:28,1
-13780,-5464,-2952,742,-1743,-1314,2025-02-06 17:39:28,1
-14412,-5108,-2044,1436,-2855,-502,2025-02-06 17:39:28,1
-12988,-4032,-892,2643,-4035,360,2025-02-06 17:39:28,1
-12276,-2656,-1488,4277,-4817,616,2025-02-06 17:39:28,1
-12048,-1680,-3108,5358,-5122,484,2025-02-06 17:39:28,1
-12584,-388,-4664,4884,-4275,319,2025-02-06 17:39:28,1
-13464,740,-5960,3337,-2682,533,2025-02-06 17:39:28,1
-13924,1092,-7412,1347,-960,876,2025-02-06 17:39:28,1
-14032,932,-7868,-706,-662,836,2025-02-06 17:39:29,1
-14452,1544,-6768,-2381,-956,999,2025-02-06 17:39:29,1
-14480,1936,-5256,-3620,-1156,1658,2025-02-06 17:39:29,1
-13100,720,-4844,-4995,-1700,1994,2025-02-06 17:39:29,1
-12212,96,-3212,-5680,-2341,1762,2025-02-06 17:39:29,1
-11784,-204,-1344,-5422,-2394,1528,2025-02-06 17:39:29,1
-11728,-132,-2036,-4735,-2081,1481,2025-02-06 17:39:29,1
-12772,684,-2748,-4851,-1355,1089,2025-02-06 17:39:29,1
-13400,1092,-2960,-5439,-893,620,2025-02-06 17:39:29,1
-14108,708,-2848,-6053,-523,-192,2025-02-06 17:39:29,1
-14872,-620,-1888,-6452,4,-117,2025-02-06 17:39:29,1
-14368,-1616,-1160,-6089,105,108,2025-02-06 17:39:29,1
-14316,-1940,-1068,-5286,-574,344,2025-02-06 17:39:29,1
-13252,-1224,-1304,-4541,-1509,514,2025-02-06 17:39:29,1
-12280,-108,-1268,-4065,-2159,344,2025-02-06 17:39:29,1
-13284,1008,-456,-3813,610,-851,2025-02-06 17:39:29,1
-13380,1288,-628,-3640,-121,-977,2025-02-06 17:39:29,1
-13256,1624,-492,-3365,-730,-966,2025-02-06 17:39:29,1
-13340,1648,-544,-2942,-941,-959,2025-02-06 17:39:29,1
-12920,1504,-1056,-2635,-970,-868,2025-02-06 17:39:29,1
-12884,1232,-1008,-2688,-346,-1116,2025-02-06 17:39:29,1
-12968,988,-1036,-3046,283,-1561,2025-02-06 17:39:29,1
-13628,1224,92,-2805,486,-2193,2025-02-06 17:39:29,1
-14392,1304,68,-1830,129,-2299,2025-02-06 17:39:29,1
-15112,1244,-236,-730,-51,-2217,2025-02-06 17:39:29,1
-16276,1416,-1044,-256,612,-1622,2025-02-06 17:39:29,1
-16512,1116,-1744,-672,1204,-395,2025-02-06 17:39:29,1
-15500,860,-232,-742,570,355,2025-02-06 17:39:29,1
-15148,708,600,401,-379,356,2025-02-06 17:39:29,1
-15588,516,-1748,1329,-52,463,2025-02-06 17:39:29,1
-15484,1036,-3896,645,1347,794,2025-02-06 17:39:29,1
-14604,1976,-3456,-477,110,361,2025-02-06 17:39:29,1
-14632,2764,-2832,-533,-10,-219,2025-02-06 17:39:29,1
-15056,2284,-4792,282,985,-630,2025-02-06 17:39:29,1
-15920,1672,-6044,-22,541,-1183,2025-02-06 17:39:29,1
-16832,1204,-4832,-588,-429,-898,2025-02-06 17:39:29,1
-13920,-2988,-4644,-1837,-3993,-1023,2025-02-06 17:39:29,1
-12580,-3844,-3192,-2048,-6313,-1549,2025-02-06 17:39:29,1
-11332,-4868,-2540,-1173,-4832,-1433,2025-02-06 17:39:29,1
-10616,-5080,-4128,220,-1400,-1112,2025-02-06 17:39:29,1
-10100,-5076,-5308,-46,640,-1636,2025-02-06 17:39:29,1
-11172,-4248,-4864,-943,1628,-2562,2025-02-06 17:39:29,1
-12096,-3316,-4068,-1947,1474,-2882,2025-02-06 17:39:29,1
-12664,-2688,-2532,-2624,566,-3275,2025-02-06 17:39:29,1
-13220,-2492,-1556,-2567,-559,-3462,2025-02-06 17:39:29,1
-13496,-1896,-1108,-2006,-1008,-3397,2025-02-06 17:39:29,1
-12836,-2128,-1908,-1857,-1205,-3817,2025-02-06 17:39:29,1
-12972,-2280,-2152,-2091,-1463,-4260,2025-02-06 17:39:29,1
-13080,-2276,-2032,-2239,-1442,-4423,2025-02-06 17:39:29,1
-13072,-2656,-2044,-2538,-1423,-3889,2025-02-06 17:39:29,1
-12448,-3264,-1684,-2711,-1616,-3214,2025-02-06 17:39:29,1
-12104,-3964,-1504,-2635,-1144,-2694,2025-02-06 17:39:29,1
-10752,-5280,-888,-2261,-46,-3568,2025-02-06 17:39:29,1
-11076,-5080,-580,-1631,372,-3759,2025-02-06 17:39:29,1
-11248,-4784,-912,-801,561,-3770,2025-02-06 17:39:29,1
-12056,-4312,-1224,-283,968,-3908,2025-02-06 17:39:29,1
-12772,-3704,-1300,-322,1453,-3910,2025-02-06 17:39:29,1
-13084,-2980,-1544,-835,1303,-3747,2025-02-06 17:39:30,1
-13688,-3336,-1368,-1156,426,-3398,2025-02-06 17:39:30,1
-13992,-3048,-688,-987,-56,-2825,2025-02-06 17:39:30,1
-13656,-2508,-176,-892,-658,-2475,2025-02-06 17:39:30,1
-13520,-2392,-380,-854,-1038,-2284,2025-02-06 17:39:30,1
-13168,-2492,-1240,-1241,-1275,-1726,2025-02-06 17:39:30,1
-12524,-2716,-796,-1544,-847,-1230,2025-02-06 17:39:30,1
-12148,-3192,-1216,-1832,163,-620,2025-02-06 17:39:30,1
-12052,-4328,-2544,-2946,764,-207,2025-02-06 17:39:30,1
-11828,-4908,-1136,-3682,1141,265,2025-02-06 17:39:30,1
-11792,-5264,676,-3019,1203,228,2025-02-06 17:39:30,1
-12264,-5756,1256,-1966,2025,105,2025-02-06 17:39:30,1
-12976,-5484,1668,-652,2876,248,2025-02-06 17:39:30,1
-12900,-5212,1288,734,3146,471,2025-02-06 17:39:30,1
-13592,-4576,-280,1089,3537,538,2025-02-06 17:39:30,1
-14008,-3660,-696,858,4682,869,2025-02-06 17:39:30,1
-13696,-3112,-1276,466,6395,839,2025-02-06 17:39:30,1
-12808,-2380,320,837,7769,329,2025-02-06 17:39:30,1
-12344,-2484,-228,1436,8019,-555,2025-02-06 17:39:30,1
-13324,-2968,-1648,1757,8129,-1373,2025-02-06 17:39:30,1
-13252,-3392,-1676,1299,9916,-1827,2025-02-06 17:39:30,1
-12628,-3636,-1840,738,11954,-2682,2025-02-06 17:39:30,1
-13828,-3920,-3280,-345,14248,-3409,2025-02-06 17:39:30,1
-13848,-5544,-2436,-270,16020,-3961,2025-02-06 17:39:30,1
-14508,-6808,-4176,-60,17066,-4009,2025-02-06 17:39:30,1
-14980,-8292,-5904,-34,18664,-3475,2025-02-06 17:39:30,1
-14688,-9044,-5676,1381,16873,-3072,2025-02-06 17:39:30,1
-15108,-9344,-5280,3938,12098,-2619,2025-02-06 17:39:30,1
-16448,-9260,-8104,5530,6805,-1509,2025-02-06 17:39:30,1
-17684,-8548,-10316,5006,3383,1283,2025-02-06 17:39:30,1
-16380,-7588,-9208,4417,1004,4811,2025-02-06 17:39:30,1
-12940,-7320,-7024,5502,-2619,7373,2025-02-06 17:39:33,1
-10772,-6844,-8252,6305,-6474,9099,2025-02-06 17:39:33,0
-7460,-5912,-6108,7541,-7820,9735,2025-02-06 17:39:33,0
-5680,-5024,-6796,8691,-7515,8838,2025-02-06 17:39:33,0
-5164,-3800,-7232,9146,-5234,6574,2025-02-06 17:39:33,0
-5308,-2368,-8612,8852,-1150,3919,2025-02-06 17:39:33,0
-6644,-1772,-9884,7690,3480,2234,2025-02-06 17:39:33,0
-7428,-1544,-10692,6193,9312,1807,2025-02-06 17:39:33,0
-10556,-3976,-8232,1079,61,981,2025-02-06 17:39:33,0
-12364,240,-1512,-1231,2981,-3907,2025-02-06 17:39:33,0
-13456,-784,-992,-541,1665,-3786,2025-02-06 17:39:33,0
-14468,-2480,-2132,87,1131,-2828,2025-02-06 17:39:33,0
-14780,-4572,-3696,714,3172,-1742,2025-02-06 17:39:33,0
-15560,-5560,-4676,263,7014,-916,2025-02-06 17:39:33,0
-15636,-3904,-2796,-87,7811,254,2025-02-06 17:39:33,0
-14424,-3316,-884,413,4314,716,2025-02-06 17:39:33,0
-14244,-3488,-624,1384,-928,656,2025-02-06 17:39:34,0
-13504,-3068,-2480,2050,-5474,1488,2025-02-06 17:39:34,0
-12024,-2552,-2948,2128,-7630,1434,2025-02-06 17:39:34,0
-12060,-1656,-2528,628,-5723,729,2025-02-06 17:39:34,0
-9788,-2644,780,2112,2053,-44,2025-02-06 17:39:34,0
-12320,-3296,-2520,2455,4728,-33,2025-02-06 17:39:34,0
-13576,-4180,-1784,2509,4057,-202,2025-02-06 17:39:34,7
-14240,-5108,-872,3084,2570,-36,2025-02-06 17:39:34,7
-14528,-5888,-684,4143,1489,392,2025-02-06 17:39:34,7
-13968,-5768,-524,5551,1099,488,2025-02-06 17:39:34,7
-14008,-4992,-1524,6401,812,609,2025-02-06 17:39:34,7
-13420,-4056,-1052,6835,1002,983,2025-02-06 17:39:34,7
-12736,-3272,-716,7509,1474,1150,2025-02-06 17:39:34,7
-12704,-2836,-1176,8576,1605,1522,2025-02-06 17:39:34,7
-12324,-2680,-1108,10035,1207,1955,2025-02-06 17:39:34,7
-11404,-2692,-1284,11392,1005,1644,2025-02-06 17:39:34,7
-11240,-1952,-2400,11531,1713,641,2025-02-06 17:39:34,7
-11656,-1392,-3524,11387,2915,-184,2025-02-06 17:39:34,7
-13456,-408,-4084,11041,4720,-358,2025-02-06 17:39:34,7
-14644,608,-3260,10868,6103,-178,2025-02-06 17:39:34,7
-15524,336,-2624,10845,6680,-10,2025-02-06 17:39:34,7
-16436,-748,-1724,10947,6035,318,2025-02-06 17:39:34,7
-16928,-2536,-1308,11993,2377,1513,2025-02-06 17:39:34,7
-16072,-3416,-1352,13214,-1628,2184,2025-02-06 17:39:34,7
-15056,-3684,-1292,14664,-4984,2378,2025-02-06 17:39:34,7
-14168,-3688,-772,15848,-7418,2409,2025-02-06 17:39:34,7
-13044,-3620,-716,17016,-8765,2143,2025-02-06 17:39:34,7
-10920,-3752,88,17447,-6971,1399,2025-02-06 17:39:34,7
-8972,-4116,-1328,18611,-2820,195,2025-02-06 17:39:34,7
-9424,-3760,-3356,18800,546,-544,2025-02-06 17:39:34,7
-9720,-2948,-4148,18648,3359,-897,2025-02-06 17:39:34,7
-10916,-2960,-3692,18410,5871,-1225,2025-02-06 17:39:34,7
-12692,-2160,-3284,18444,7751,-812,2025-02-06 17:39:34,7
-13812,-1372,-2812,18455,9483,-173,2025-02-06 17:39:34,7
-14096,-956,-2472,18477,10776,207,2025-02-06 17:39:34,7
-14664,-528,-2424,18972,12717,317,2025-02-06 17:39:34,7
-14436,-1900,-3352,19414,14376,1001,2025-02-06 17:39:34,7
-13660,-4164,-4352,19371,15073,1925,2025-02-06 17:39:34,7
-12564,-4960,-4880,19010,13602,2720,2025-02-06 17:39:34,7
-11412,-6272,-6176,18166,10513,2981,2025-02-06 17:39:34,7
-11972,-5884,-6352,17390,7918,3292,2025-02-06 17:39:34,7
-12888,-4396,-5964,16754,5560,3894,2025-02-06 17:39:34,7
-13780,-3452,-5620,15702,4039,4621,2025-02-06 17:39:34,7
-14104,-3628,-4680,15022,3162,5069,2025-02-06 17:39:34,7
-13116,-6084,-2372,14752,568,3987,2025-02-06 17:39:34,7
-13900,-7576,-2156,15270,-1450,2643,2025-02-06 17:39:34,7
-14920,-7828,-2260,15579,-2808,2065,2025-02-06 17:39:34,7
-15064,-6844,-1804,15763,-4654,2070,2025-02-06 17:39:34,7
-14756,-5364,-1548,15945,-7319,2376,2025-02-06 17:39:34,7
-14448,-3856,-1572,16092,-10637,2769,2025-02-06 17:39:34,7
-13652,-3100,-844,15862,-13733,2656,2025-02-06 17:39:34,7
-8716,-4480,6348,16965,1533,3430,2025-02-06 17:39:34,7
-8936,-5144,664,18820,3507,1606,2025-02-06 17:39:35,7
-14432,-3832,-236,16794,4275,2882,2025-02-06 17:39:35,7
-13796,-3648,-940,16536,3243,3317,2025-02-06 17:39:35,7
-12180,-4040,-1080,15987,3024,3447,2025-02-06 17:39:35,7
-10880,-4416,-1088,15601,3594,3113,2025-02-06 17:39:35,7
-11036,-4644,-1692,14650,4765,2645,2025-02-06 17:39:35,7
-12396,-4420,-1512,13950,5791,2535,2025-02-06 17:39:35,7
-13936,-3940,-1264,13338,5891,2682,2025-02-06 17:39:35,7
-14708,-3356,-1008,12661,4763,2955,2025-02-06 17:39:35,7
-14548,-2908,-1376,11702,2534,3114,2025-02-06 17:39:35,7
-13804,-2892,-2108,10697,1746,2890,2025-02-06 17:39:35,7
-12676,-3068,-1952,9701,2817,1885,2025-02-06 17:39:35,7
-12368,-4116,-1704,8971,3678,889,2025-02-06 17:39:35,7
-13452,-4928,-1216,8507,3437,1122,2025-02-06 17:39:35,7
-13344,-5328,-740,8295,2901,1957,2025-02-06 17:39:35,7
-13268,-5080,40,7837,3265,2472,2025-02-06 17:39:35,7
-13680,-5108,112,7413,3741,2680,2025-02-06 17:39:35,7
-14680,-5624,-880,7470,3376,2836,2025-02-06 17:39:35,7
-12364,-2576,-368,11420,-6348,5008,2025-02-06 17:39:35,7
-10688,-2580,-340,11886,-1968,4797,2025-02-06 17:39:35,7
-10812,-2672,-2144,11949,-138,5051,2025-02-06 17:39:35,7
-10980,-1636,-1972,11515,292,5356,2025-02-06 17:39:35,7
-10948,-916,-1456,11371,849,5105,2025-02-06 17:39:35,7
-11300,-488,-1708,10937,1775,4318,2025-02-06 17:39:35,7
-12296,-36,-1616,10157,2743,3664,2025-02-06 17:39:35,7
-13076,-244,-1132,9672,3091,3322,2025-02-06 17:39:35,7
-13744,-416,-852,9371,2419,3259,2025-02-06 17:39:35,7
-14104,-256,-680,9018,1301,3417,2025-02-06 17:39:35,7
-13984,-380,-944,8566,152,3399,2025-02-06 17:39:35,7
-13320,-188,-1120,7931,-1118,3126,2025-02-06 17:39:35,7
-12620,204,-552,7219,-1691,2739,2025-02-06 17:39:35,7
-11924,508,552,6613,-1138,2153,2025-02-06 17:39:35,7
-11996,744,-72,6285,-18,1837,2025-02-06 17:39:35,7
-12128,904,-444,5701,901,1534,2025-02-06 17:39:35,7
-11956,1112,-356,4910,1333,904,2025-02-06 17:39:36,7
-12180,864,292,4155,1192,312,2025-02-06 17:39:36,7
-14344,-1192,2248,5022,1802,1077,2025-02-06 17:39:36,7
-15064,-736,2712,5558,2393,1698,2025-02-06 17:39:36,7
-15356,-464,2504,5950,2793,2062,2025-02-06 17:39:36,7
-16188,1184,436,6464,3212,2303,2025-02-06 17:39:36,7
-17744,1780,-1780,5978,4559,3210,2025-02-06 17:39:36,7
-18236,2384,-1804,4453,6401,3771,2025-02-06 17:39:36,7
-18984,2480,-1472,3500,8314,3987,2025-02-06 17:39:36,7
-13344,-3668,768,-2041,1266,-129,2025-02-06 17:39:36,7
-13796,-3668,-940,-1759,865,612,2025-02-06 17:39:36,7
-13348,-3380,-1916,-2240,767,1229,2025-02-06 17:39:36,7
-12876,-3300,-1300,-2843,553,945,2025-02-06 17:39:36,7
-13336,-3060,-1044,-3136,697,569,2025-02-06 17:39:36,7
-14148,-3084,-428,-3566,785,273,2025-02-06 17:39:36,0
-14792,-3040,-224,-3976,514,-332,2025-02-06 17:39:36,0
-16160,-2692,-824,-4013,203,-1112,2025-02-06 17:39:36,0
-16300,-2656,-1784,-4036,77,-1800,2025-02-06 17:39:36,0
-14072,-4160,-2124,-4607,-3206,-3885,2025-02-06 17:39:36,0
-14920,-4568,-684,-5319,-9185,-5968,2025-02-06 17:39:36,0
-16904,-4052,4680,-4473,-4809,-4182,2025-02-06 17:39:36,0
-15360,-2840,-780,-4585,-3376,-2077,2025-02-06 17:39:36,0
-14436,-3352,-4212,-5784,-2226,-2785,2025-02-06 17:39:36,0
-14040,-6684,-2512,-7513,665,-4766,2025-02-06 17:39:36,0
-15520,-9160,-348,-6630,2517,-7039,2025-02-06 17:39:36,0
-19380,-9912,564,-3968,1783,-6280,2025-02-06 17:39:36,0
-22140,-10036,400,-917,242,-2211,2025-02-06 17:39:36,0
-20700,-9016,-880,1387,-1586,2840,2025-02-06 17:39:36,0
-15852,-6508,-2436,3153,-5253,5138,2025-02-06 17:39:36,0
-13220,-5188,-5560,2830,-9351,6162,2025-02-06 17:39:36,0
-10248,-4716,-6576,2225,-10493,6686,2025-02-06 17:39:37,0
-7540,-3156,-5744,1938,-6848,5543,2025-02-06 17:39:37,0
-6308,-540,-6640,556,-2698,3367,2025-02-06 17:39:37,0
-7368,2340,-5260,-832,968,978,2025-02-06 17:39:37,0
-11548,4040,-3440,-1305,6626,-269,2025-02-06 17:39:37,0
-14640,1936,-1816,-1459,11269,425,2025-02-06 17:39:37,0
-15900,-1100,-484,-889,13108,1657,2025-02-06 17:39:37,0
-15856,-3496,-1540,197,12402,3250,2025-02-06 17:39:37,0
-14776,-5028,-3152,698,10466,4132,2025-02-06 17:39:37,0
-14048,-4932,-4308,994,5938,4638,2025-02-06 17:39:37,0
-13504,-4192,-3992,1084,2314,4884,2025-02-06 17:39:37,0
-12664,-2972,-2436,1742,-2334,4912,2025-02-06 17:39:37,0
-12360,-2072,-1520,2985,-6312,4788,2025-02-06 17:39:37,0
-12032,-1196,-1868,3938,-8944,4613,2025-02-06 17:39:37,0
-11388,-296,-1752,4063,-9965,4413,2025-02-06 17:39:37,0
-10752,244,-1452,4204,-9860,3952,2025-02-06 17:39:37,0
-10240,456,-1144,4217,-9264,3188,2025-02-06 17:39:37,0
-9676,276,-864,3926,-8027,2182,2025-02-06 17:39:37,0
-9700,504,-328,3540,-6410,1340,2025-02-06 17:39:37,0
-9628,628,2352,3241,-1815,729,2025-02-06 17:39:37,0
-12344,-1364,228,3717,-1597,1361,2025-02-06 17:39:37,0
-12016,-1220,-852,4314,158,1478,2025-02-06 17:39:37,0
-12392,-1196,-760,4181,3245,751,2025-02-06 17:39:37,0
-13824,-1196,96,4032,6496,114,2025-02-06 17:39:37,0
-15604,-992,872,3944,8748,523,2025-02-06 17:39:37,0
-17064,-244,1616,4306,9945,1545,2025-02-06 17:39:37,0
-17564,332,724,4951,10836,2801,2025-02-06 17:39:37,0
-17804,420,-1000,5137,12029,3668,2025-02-06 17:39:37,0
-18196,480,-3132,4788,13631,4211,2025-02-06 17:39:37,0
-18292,1312,-4568,4449,15451,4992,2025-02-06 17:39:37,0
-17392,1944,-6164,3471,16962,5307,2025-02-06 17:39:37,0
-14152,1480,-7788,1277,18924,4059,2025-02-06 17:39:37,0
-10984,660,-10108,185,19245,1153,2025-02-06 17:39:37,0
-10972,780,-11516,47,12272,-690,2025-02-06 17:39:37,0
-10076,-116,-13496,167,1937,-1890,2025-02-06 17:39:37,0
-9308,-2116,-13604,-173,-8029,-3263,2025-02-06 17:39:37,0
-9096,-4120,-11496,-57,-14785,-4413,2025-02-06 17:39:37,0
-9756,-5284,-9164,-786,-17914,-4888,2025-02-06 17:39:37,0
-11232,-5536,-6028,-1538,-18432,-4972,2025-02-06 17:39:37,0
-12688,-5000,-2944,-1064,-16269,-4431,2025-02-06 17:39:37,0
-13216,-3180,-1744,271,-12097,-3140,2025-02-06 17:39:37,0
-12528,-1816,-2188,999,-7853,-1672,2025-02-06 17:39:37,0
-10784,-1204,-3248,815,-3500,-1300,2025-02-06 17:39:37,0
-9980,-1000,-4248,244,1204,-2040,2025-02-06 17:39:37,0
-10120,-1212,-4944,-77,5360,-3121,2025-02-06 17:39:37,0
-10552,-1744,-5124,-308,7861,-4002,2025-02-06 17:39:37,0
-11144,-1988,-5180,-827,7899,-4506,2025-02-06 17:39:37,0
-11804,-2436,-4900,-1341,6117,-4633,2025-02-06 17:39:37,0
-12228,-2864,-4656,-1889,3298,-4641,2025-02-06 17:39:37,0
-12656,-3256,-4404,-2263,539,-4534,2025-02-06 17:39:37,0
-12784,-3416,-4196,-2417,-2143,-4126,2025-02-06 17:39:37,0
-12304,-3356,-4192,-2594,-4456,-3583,2025-02-06 17:39:37,0
-11564,-3084,-4256,-3223,-6398,-3107,2025-02-06 17:39:37,0
-11364,-3268,-4068,-3778,-6678,-2875,2025-02-06 17:39:38,0
-11744,-3320,-3468,-4184,-5591,-2434,2025-02-06 17:39:38,0
-11992,-3296,-2496,-4465,-3378,-1876,2025-02-06 17:39:38,0
-12252,-3312,-1580,-4563,-750,-1497,2025-02-06 17:39:38,0
-13096,-2672,-1172,-4417,1949,-956,2025-02-06 17:39:38,0
-13088,-2312,-1520,-4314,4337,-409,2025-02-06 17:39:38,0
-12972,-2212,-2332,-4165,5622,-215,2025-02-06 17:39:38,0
-13048,-2212,-2600,-4047,5277,-396,2025-02-06 17:39:38,0
-13116,-3120,-2976,-4009,3796,-660,2025-02-06 17:39:38,0
-13372,-3920,-3020,-3858,1722,-985,2025-02-06 17:39:38,0
-13908,-3952,-3244,-3514,-456,-746,2025-02-06 17:39:38,0
-13860,-3320,-3704,-3536,-1805,-376,2025-02-06 17:39:38,0
-13340,-2640,-3992,-3754,-2638,-443,2025-02-06 17:39:38,0
-12980,-2240,-3900,-4144,-3369,-594,2025-02-06 17:39:38,0
-12828,-1948,-3912,-4615,-3856,-423,2025-02-06 17:39:38,0
-12568,-1460,-3460,-5051,-4104,-485,2025-02-06 17:39:38,0
-12256,-1576,-3512,-5633,-3757,-775,2025-02-06 17:39:38,0
-12044,-2084,-3512,-6374,-3061,-1309,2025-02-06 17:39:38,0
-11980,-3072,-3388,-7103,-2685,-1446,2025-02-06 17:39:38,0
-12328,-3908,-3124,-7633,-2025,-1409,2025-02-06 17:39:38,0
-12716,-3796,-2888,-7728,4,-1310,2025-02-06 17:39:38,0
-13252,-3304,-2976,-7400,2649,-1015,2025-02-06 17:39:38,0
-13296,-3320,-3340,-7237,4649,-760,2025-02-06 17:39:38,0
-13628,-3560,-4064,-7148,6064,-584,2025-02-06 17:39:38,0
-12984,-5040,-5704,-6772,8978,-503,2025-02-06 17:39:38,0
-11992,-6280,-7692,-6684,13478,-719,2025-02-06 17:39:38,0
-11880,-4704,-7484,-6879,16760,-822,2025-02-06 17:39:38,0
-11144,-2300,-6880,-6869,17257,-468,2025-02-06 17:39:38,0
-10972,-748,-6864,-6778,16083,210,2025-02-06 17:39:38,0
-10112,-48,-6648,-5676,15317,208,2025-02-06 17:39:38,0
-9864,-148,-7400,-3859,14888,-850,2025-02-06 17:39:38,0
-10732,-812,-9220,-3519,13562,-1578,2025-02-06 17:39:38,0
-12720,-1236,-10584,-3705,9764,-1294,2025-02-06 17:39:38,0
-12780,-1044,-10472,-3799,4574,-812,2025-02-06 17:39:38,0
-12276,-700,-9900,-3590,-912,-690,2025-02-06 17:39:38,0
-11416,-360,-9644,-3315,-5156,-458,2025-02-06 17:39:38,0
-10188,-436,-9232,-3039,-7404,-355,2025-02-06 17:39:38,0
-10192,-464,-9668,-2545,-9377,-162,2025-02-06 17:39:38,0
-9700,-912,-9904,-2827,-11506,-178,2025-02-06 17:39:38,0
-9404,-444,-8872,-3015,-14238,-964,2025-02-06 17:39:38,0
-9776,-100,-8104,-3503,-16545,-2391,2025-02-06 17:39:38,0
-10704,-488,-7300,-3870,-17034,-3008,2025-02-06 17:39:38,0
-11536,-1092,-6388,-4322,-17612,-3126,2025-02-06 17:39:38,0
-12740,-1500,-5808,-4835,-17514,-2789,2025-02-06 17:39:38,0
-13008,-1724,-4736,-5646,-17571,-2287,2025-02-06 17:39:38,0
-13240,-1404,-3340,-5868,-18144,-2045,2025-02-06 17:39:38,0
-13184,-1620,-2616,-5514,-18449,-1792,2025-02-06 17:39:38,0
-13012,-2344,-1944,-5258,-18748,-1688,2025-02-06 17:39:38,0
-14872,-2004,15276,-4703,-6511,-622,2025-02-06 17:39:38,0
-9088,-3828,4820,426,200,-651,2025-02-06 17:39:38,0
-10084,-3436,-568,2778,1598,-1361,2025-02-06 17:39:38,0
-11816,-1968,-2956,3189,1877,-1760,2025-02-06 17:39:38,0
-13068,-1056,-3408,3105,2694,-2014,2025-02-06 17:39:38,0
-14904,-272,-6200,1328,3048,-2061,2025-02-06 17:39:38,0
-15636,-256,-4952,-577,2627,-1748,2025-02-06 17:39:38,0
-15124,-2148,-2824,-992,388,-1425,2025-02-06 17:39:38,0
-14192,-3244,-1112,-599,-356,-921,2025-02-06 17:39:38,0
-13128,-3100,-1068,476,10,-425,2025-02-06 17:39:38,0
-12396,-2184,-2776,837,-36,-159,2025-02-06 17:39:38,0
-11728,-900,-3604,596,370,-51,2025-02-06 17:39:38,0
-10840,-436,-3952,56,1494,-636,2025-02-06 17:39:38,0
-11860,-1276,-3580,-682,2643,-1467,2025-02-06 17:39:39,0
-13100,-2224,-2764,-811,2891,-1537,2025-02-06 17:39:39,2
-13776,-2952,-1792,-522,2173,-1400,2025-02-06 17:39:39,2
-14524,-3316,-1412,79,631,-798,2025-02-06 17:39:39,2
-13772,-2928,-1040,700,-830,-249,2025-02-06 17:39:39,2
-12960,-2760,-1980,1327,-2024,58,2025-02-06 17:39:39,2
-12148,-2736,-3032,1615,-2568,445,2025-02-06 17:39:39,2
-10876,-2472,-3708,1445,-2213,754,2025-02-06 17:39:39,2
-9816,-2316,-2408,943,-1206,754,2025-02-06 17:39:39,2
-9336,-2620,-664,1101,-64,538,2025-02-06 17:39:39,2
-9408,-2340,-1064,1953,235,450,2025-02-06 17:39:39,2
-10040,-1980,-1984,2144,-22,854,2025-02-06 17:39:39,2
-9344,-1696,-2016,1918,-379,1001,2025-02-06 17:39:39,2
-8852,-1468,-2088,1849,-931,1179,2025-02-06 17:39:39,2
-8140,-1112,-1868,1391,-1005,1618,2025-02-06 17:39:39,2
-6924,-1216,-1592,552,58,1100,2025-02-06 17:39:39,2
-6244,-1280,-200,13,1853,-329,2025-02-06 17:39:39,2
-7904,-1276,1588,485,1937,-1204,2025-02-06 17:39:39,2
-11200,-816,2700,1279,-1538,-271,2025-02-06 17:39:39,2
-11056,-1216,520,1686,-2786,461,2025-02-06 17:39:39,2
-10048,-1284,-204,1625,-3457,983,2025-02-06 17:39:39,2
-9476,-1716,-868,1634,-4394,1467,2025-02-06 17:39:39,2
-8456,-1640,-176,1352,-4169,1151,2025-02-06 17:39:39,2
-8260,-1956,2128,946,-3492,297,2025-02-06 17:39:39,2
-8508,-2280,2768,359,-3034,-655,2025-02-06 17:39:39,2
-9584,-1740,3412,-353,-2815,-1676,2025-02-06 17:39:39,2
-11924,-612,3232,-373,-3421,-1745,2025-02-06 17:39:39,2
-14308,-252,1136,168,-5104,-230,2025-02-06 17:39:39,2
-15112,-964,-1376,486,-7092,1666,2025-02-06 17:39:39,2
-14948,-2656,-2984,-14,-7919,2571,2025-02-06 17:39:39,2
-14588,-3804,-1748,-973,-8287,2603,2025-02-06 17:39:39,2
-6956,784,6392,-362,-16043,4555,2025-02-06 17:39:39,2
-5416,1400,6668,2004,-22561,-62,2025-02-06 17:39:39,2
-13544,768,2156,2030,-17534,-1091,2025-02-06 17:39:39,2
-15536,1168,1852,863,-8405,128,2025-02-06 17:39:39,2
-15600,412,4332,-15,-5434,53,2025-02-06 17:39:39,2
-17388,720,5848,-162,-6793,-592,2025-02-06 17:39:39,2
-17980,544,6936,-244,-9341,-1656,2025-02-06 17:39:39,2
-18840,-476,7928,380,-11046,-1912,2025-02-06 17:39:39,2
-19860,-1684,7476,1339,-10900,-852,2025-02-06 17:39:39,2
-20152,-2000,6164,2049,-9366,585,2025-02-06 17:39:39,2
-19140,-1500,5852,1145,-8882,1358,2025-02-06 17:39:39,2
-17204,-280,7992,549,-9393,1246,2025-02-06 17:39:39,2
-15200,124,8680,784,-8538,276,2025-02-06 17:39:39,2
-16176,572,7552,741,-7417,-250,2025-02-06 17:39:39,2
-15888,688,6288,-665,-6299,-696,2025-02-06 17:39:39,2
-16132,312,8460,-2447,-5511,-1967,2025-02-06 17:39:39,2
-17068,-1256,11256,-3134,-6318,-2484,2025-02-06 17:39:39,2
-16860,-2232,12296,-2986,-5653,-1466,2025-02-06 17:39:39,2
-14740,-1832,12068,-2601,-3691,-525,2025-02-06 17:39:39,2
-14764,-1428,10776,-2489,-2291,-354,2025-02-06 17:39:40,2
-16184,-916,12020,-1893,-3189,406,2025-02-06 17:39:40,2
-15300,-672,11076,-1572,-3309,854,2025-02-06 17:39:40,2
-15264,20,11332,-1055,-2973,969,2025-02-06 17:39:40,2
-14848,-576,10712,-628,-3469,1062,2025-02-06 17:39:40,2
-13780,-888,10812,-422,-3288,988,2025-02-06 17:39:40,2
-12688,-1232,10728,-171,-2141,678,2025-02-06 17:39:40,2
-12832,-1376,10184,-1,-834,379,2025-02-06 17:39:40,2
-13048,-1044,9592,-141,-144,25,2025-02-06 17:39:40,2
-12908,-628,9804,-274,124,-155,2025-02-06 17:39:40,2
-12728,-332,9436,-534,383,-13,2025-02-06 17:39:40,2
-12632,-672,9900,-812,195,49,2025-02-06 17:39:40,2
-12336,-1124,10024,-870,-14,30,2025-02-06 17:39:40,2
-11956,-1416,9944,-675,63,-133,2025-02-06 17:39:40,2
-11372,-1156,9784,-502,512,-270,2025-02-06 17:39:40,2
-10884,-548,9648,-482,932,-361,2025-02-06 17:39:40,2
-11176,-472,9528,-500,918,-183,2025-02-06 17:39:40,2
-11588,-244,9788,-522,599,440,2025-02-06 17:39:40,2
-11924,-156,9940,-491,8,1002,2025-02-06 17:39:40,2
-11740,12,9612,-547,-692,1360,2025-02-06 17:39:40,2
-10524,-752,9540,-745,-1085,1163,2025-02-06 17:39:40,2
-9620,-2076,9800,-557,-301,179,2025-02-06 17:39:40,2
-10320,-2344,10032,20,608,-196,2025-02-06 17:39:40,2
-11180,-1172,9700,397,1044,-217,2025-02-06 17:39:40,2
-12396,188,9328,128,979,-272,2025-02-06 17:39:40,2
-12868,340,9268,19,-33,2,2025-02-06 17:39:40,2
-12468,404,9260,-214,-730,-44,2025-02-06 17:39:40,2
-12648,436,9548,-619,-282,-125,2025-02-06 17:39:40,2
-12576,268,9728,-850,100,-164,2025-02-06 17:39:40,2
-12624,-488,10004,-870,-185,-208,2025-02-06 17:39:40,2
-12796,-1168,10340,-644,-515,-228,2025-02-06 17:39:40,2
-12772,-1104,10556,-335,-609,-26,2025-02-06 17:39:40,2
-12668,-324,10148,-69,-569,404,2025-02-06 17:39:40,2
-12792,556,9692,-192,-909,685,2025-02-06 17:39:40,2
-11768,288,9280,-406,-1207,613,2025-02-06 17:39:40,2
-22016,-684,12924,856,8092,-1528,2025-02-06 17:39:40,2
-22368,-1080,13544,1150,7769,-1413,2025-02-06 17:39:40,2
-21536,-1092,13484,1511,7555,-1001,2025-02-06 17:39:40,2
-20564,-560,12076,2137,6970,-372,2025-02-06 17:39:40,2
-18772,148,10304,2363,5914,81,2025-02-06 17:39:40,2
-16124,124,9216,2070,5405,60,2025-02-06 17:39:40,2
-14548,516,8480,1641,6171,-334,2025-02-06 17:39:40,2
-13520,992,8196,1102,7035,-362,2025-02-06 17:39:40,2
-12580,1012,7680,765,7522,-211,2025-02-06 17:39:40,2
-11608,828,7252,809,7964,-398,2025-02-06 17:39:40,2
-11640,-604,6040,933,8732,-799,2025-02-06 17:39:40,2
-11612,-1476,5496,1081,9041,-1180,2025-02-06 17:39:40,2
-12072,-1432,5504,1234,9054,-1457,2025-02-06 17:39:40,2
-12564,-1148,5508,1061,8732,-1561,2025-02-06 17:39:40,2
-12540,-344,5856,870,8075,-1672,2025-02-06 17:39:40,2
-17456,472,6656,791,7041,-1385,2025-02-06 17:39:40,2
-12564,648,3180,739,6756,-1051,2025-02-06 17:39:40,2
-11520,496,2388,515,4275,-1533,2025-02-06 17:39:40,2
-11816,-480,1924,-82,4930,-2959,2025-02-06 17:39:40,2
-11884,-1132,1568,-642,5836,-4095,2025-02-06 17:39:40,2
-12476,-1116,2440,-1322,5284,-4045,2025-02-06 17:39:40,2
-12424,-1000,1968,-1743,6586,-3693,2025-02-06 17:39:41,2
-11992,-552,1412,-1978,8265,-3362,2025-02-06 17:39:41,2
-10968,-500,556,-2417,8921,-3756,2025-02-06 17:39:41,2
-10816,-828,252,-3185,9263,-4751,2025-02-06 17:39:41,2
-10784,-1480,-368,-3442,9334,-5261,2025-02-06 17:39:41,2
-11616,-1992,-524,-3468,9421,-4863,2025-02-06 17:39:41,2
-12244,-2184,-364,-3185,9955,-3114,2025-02-06 17:39:41,2
-12644,-2064,-552,-2953,10972,-1665,2025-02-06 17:39:41,2
-11852,-2056,296,-3129,12292,-892,2025-02-06 17:39:41,2
-11376,-1872,1368,-3109,12664,-732,2025-02-06 17:39:41,2
-12192,-1964,1888,-2562,11994,-705,2025-02-06 17:39:41,2
-10692,-2064,2132,-1593,10151,-753,2025-02-06 17:39:41,2
-10440,-2252,1376,-444,6758,-677,2025-02-06 17:39:41,2
-10052,-2076,208,24,3481,-651,2025-02-06 17:39:41,2
-9800,-2188,-92,-174,1328,-779,2025-02-06 17:39:41,2
-9068,-2084,-112,-312,-110,-843,2025-02-06 17:39:41,2
-8952,-1784,120,-595,-1831,-729,2025-02-06 17:39:41,2
-8672,-1340,856,-755,-2791,-293,2025-02-06 17:39:41,2
-8292,-944,932,-710,-3295,288,2025-02-06 17:39:41,2
-7964,-996,868,-651,-3240,762,2025-02-06 17:39:41,2
-7256,-1604,168,-629,-3165,915,2025-02-06 17:39:41,2
-6600,-2420,-708,-914,-2903,529,2025-02-06 17:39:41,2
-6148,-2700,-1296,-1021,-2048,-188,2025-02-06 17:39:41,2
-6212,-2408,-1872,-1257,-1106,-897,2025-02-06 17:39:41,2
-7332,-1856,-3512,-1325,1092,-1578,2025-02-06 17:39:41,2
-9020,-1868,-5068,-1744,5265,-1821,2025-02-06 17:39:41,2
-10320,-2324,-5784,-3297,8684,-2427,2025-02-06 17:39:41,2
-12444,-2712,-4836,-4444,10466,-3288,2025-02-06 17:39:41,2
-21560,-3020,-728,-3998,12650,-3575,2025-02-06 17:39:41,2
-18648,-3688,-1988,-2885,15375,-2447,2025-02-06 17:39:41,2
-19920,-3788,-1464,-1858,15151,-163,2025-02-06 17:39:41,2
-19604,-3848,-1572,-503,13649,2396,2025-02-06 17:39:41,2
-16924,-4676,-3336,396,9903,3850,2025-02-06 17:39:41,2
-14672,-2484,-984,2888,-223,1380,2025-02-06 17:39:41,2
-14456,-2348,-2116,3125,2071,2164,2025-02-06 17:39:41,2
-13656,-3052,-2244,3038,3258,2193,2025-02-06 17:39:41,2
-13784,-2944,-1524,3125,3016,2011,2025-02-06 17:39:41,2
-14120,-2648,-308,3006,1412,1882,2025-02-06 17:39:41,2
-14380,-3108,200,3441,-1077,1949,2025-02-06 17:39:41,2
-14416,-3516,-608,4076,-3203,2323,2025-02-06 17:39:42,2
-13884,-3224,-1896,4279,-3659,2435,2025-02-06 17:39:42,2
-13476,-2444,-2336,4238,-3250,2308,2025-02-06 17:39:42,2
-13684,-2020,-1684,4230,-2812,2305,2025-02-06 17:39:42,2
-14048,-2096,-1440,4286,-2335,2775,2025-02-06 17:39:42,2
-13780,-2064,-1592,4433,-1875,3634,2025-02-06 17:39:42,2
-12452,-2112,-1628,4365,-2491,3550,2025-02-06 17:39:42,2
-12312,-1404,-1544,4164,-2842,3035,2025-02-06 17:39:42,2
-12456,-1064,-1736,3916,-1979,2588,2025-02-06 17:39:42,2
-10796,1100,-1396,2043,-2703,2567,2025-02-06 17:39:42,2
-10612,2576,-164,1111,-1933,2070,2025-02-06 17:39:42,2
-11412,3728,2604,853,2616,1082,2025-02-06 17:39:42,2
-12872,1304,696,1202,6173,33,2025-02-06 17:39:42,2
-15500,-480,-80,876,7883,512,2025-02-06 17:39:42,2
-17032,-1804,1004,1648,8145,1748,2025-02-06 17:39:42,2
-17116,-1544,1040,3203,7359,3080,2025-02-06 17:39:42,2
-16448,-1260,-856,3880,5964,4054,2025-02-06 17:39:42,1
-14740,-1512,-2408,3413,3530,3956,2025-02-06 17:39:42,1
-13800,-1232,-2488,2961,-18,3323,2025-02-06 17:39:42,1
-13656,-636,-1236,3207,-4117,2866,2025-02-06 17:39:42,1
-13600,280,-316,3533,-7854,2988,2025-02-06 17:39:42,1
-12608,1072,916,3578,-7988,2952,2025-02-06 17:39:42,1
-11444,1644,1152,3894,-6385,2625,2025-02-06 17:39:42,1
-10668,1908,1144,3830,-4316,2016,2025-02-06 17:39:42,1
-10056,1544,1348,3724,-2769,1095,2025-02-06 17:39:42,1
-10540,676,1344,3720,-1350,329,2025-02-06 17:39:42,1
-11556,-96,1964,3802,136,30,2025-02-06 17:39:42,1
-12352,-284,2772,4088,1383,-329,2025-02-06 17:39:42,1
-13268,-328,2352,4742,1917,-480,2025-02-06 17:39:42,1
-14156,-340,1172,5320,1969,-430,2025-02-06 17:39:42,1
-14704,128,-12,5634,2100,-150,2025-02-06 17:39:42,1
-15124,788,-248,5692,2388,431,2025-02-06 17:39:42,1
-15412,388,16,5402,2252,875,2025-02-06 17:39:42,1
-16716,192,564,4910,1995,1627,2025-02-06 17:39:42,1
-16908,676,2188,4805,2343,2460,2025-02-06 17:39:42,1
-17060,148,2736,5462,2266,2549,2025-02-06 17:39:42,1
-18028,-1280,1328,6221,2871,2697,2025-02-06 17:39:42,1
-17656,-2096,1404,6951,3122,2546,2025-02-06 17:39:42,1
-17256,-100,1772,7842,1359,2137,2025-02-06 17:39:42,1
-17008,2604,-432,7606,456,2170,2025-02-06 17:39:42,1
-16232,4344,-2792,5718,985,2355,2025-02-06 17:39:42,1
-15524,5100,-4204,3849,3306,2010,2025-02-06 17:39:42,1
-14444,5212,-4752,2526,6048,732,2025-02-06 17:39:42,1
-13188,3384,-5072,1598,6980,-1983,2025-02-06 17:39:42,1
-14964,1704,-5772,785,5769,-3183,2025-02-06 17:39:42,1
-14816,684,-5620,807,3345,-3034,2025-02-06 17:39:42,1
-13036,-448,-6376,970,-440,-2959,2025-02-06 17:39:42,1
-11040,-1616,-7672,503,-5201,-3522,2025-02-06 17:39:42,1
-10272,-2276,-6980,-366,-10020,-4261,2025-02-06 17:39:42,1
-10368,-2852,-6256,-1382,-12417,-4632,2025-02-06 17:39:42,1
-11072,-3464,-4728,-2750,-12173,-4691,2025-02-06 17:39:42,1
-11152,-3872,-1464,-3392,-9398,-4737,2025-02-06 17:39:42,1
-12144,-3460,1008,-1945,-4246,-4706,2025-02-06 17:39:42,1
-12340,-2944,1200,-219,2179,-3635,2025-02-06 17:39:42,1
-12008,-1864,-1760,1003,7535,-3188,2025-02-06 17:39:42,1
-11712,-996,-3208,714,9574,-3886,2025-02-06 17:39:42,1
-12244,-680,-4068,-99,9199,-4803,2025-02-06 17:39:42,1
-12992,-1092,-3728,-800,6833,-5217,2025-02-06 17:39:42,1
-13384,-2308,-3032,-974,2170,-5082,2025-02-06 17:39:42,1
-13460,-4116,-2104,-302,-3428,-4726,2025-02-06 17:39:42,1
-13228,-5124,-1780,-213,-8023,-4862,2025-02-06 17:39:42,1
-13120,-4916,-720,10,-10780,-4638,2025-02-06 17:39:42,1
-12260,-4784,-88,391,-12765,-4273,2025-02-06 17:39:42,1
-10276,-4364,5556,707,-6016,-3205,2025-02-06 17:39:42,1
-8576,-4084,1028,3639,-1735,-3040,2025-02-06 17:39:42,1
-9520,-2980,-3144,2743,923,-2867,2025-02-06 17:39:43,1
-10500,-3124,-1564,1614,3640,-2288,2025-02-06 17:39:43,1
-11676,-3720,-52,1679,5054,-1619,2025-02-06 17:39:43,1
-13280,-3656,540,1644,4840,-750,2025-02-06 17:39:43,1
-14056,-3540,1236,1635,3592,184,2025-02-06 17:39:43,1
-13896,-3352,1692,1816,1527,862,2025-02-06 17:39:43,1
-13264,-3176,1620,1913,-357,1381,2025-02-06 17:39:43,1
-12816,-2676,760,1637,-1670,1739,2025-02-06 17:39:43,1
-12352,-2288,516,1133,-1953,1916,2025-02-06 17:39:43,1
-12260,-2120,0,400,-1300,1788,2025-02-06 17:39:43,1
-12308,-2364,-988,-440,-453,1232,2025-02-06 17:39:43,1
-12860,-2372,-1880,-1071,23,794,2025-02-06 17:39:43,1
-12840,-3520,-1956,-1526,775,-161,2025-02-06 17:39:43,1
-12788,-4956,-240,-2384,1758,-2033,2025-02-06 17:39:43,1
-13996,-5532,1628,-3477,1749,-4179,2025-02-06 17:39:43,1
-15588,-5012,2760,-4205,-411,-5402,2025-02-06 17:39:43,1
-18304,-3452,3288,-3322,-2699,-4217,2025-02-06 17:39:43,1
-17788,-3672,268,-3244,-3037,-2461,2025-02-06 17:39:43,1
-16396,-4184,-1736,-4150,-2275,-2721,2025-02-06 17:39:43,1
-15688,-6988,-1092,-4362,-348,-4125,2025-02-06 17:39:43,1
-16016,-8752,440,-3125,26,-5069,2025-02-06 17:39:43,1
-18008,-9728,720,-97,-543,-4101,2025-02-06 17:39:43,1
-20640,-7968,-424,1978,-341,-1518,2025-02-06 17:39:43,1
-19404,-5048,-1056,2775,-1203,1459,2025-02-06 17:39:43,1
-17328,-3624,-2364,3624,-4064,3892,2025-02-06 17:39:43,1
-14192,-3620,-5204,4221,-6181,5713,2025-02-06 17:39:43,1
-10496,-2884,-7568,3613,-7228,5353,2025-02-06 17:39:43,1
-8588,-1168,-8892,1778,-7512,3567,2025-02-06 17:39:43,1
-8812,1296,-7340,-193,-6458,1569,2025-02-06 17:39:43,1
-10524,2984,-4772,-1166,-3223,341,2025-02-06 17:39:43,1
-11532,-144,-992,712,-6829,2939,2025-02-06 17:39:43,1
-11284,188,-840,30,-6672,2674,2025-02-06 17:39:43,1
-10200,-200,740,-447,-4980,2077,2025-02-06 17:39:43,1
-10344,-888,1168,-219,-2918,1070,2025-02-06 17:39:43,1
-11060,-1148,1628,-11,-651,688,2025-02-06 17:39:43,1
-11200,-740,1360,432,1174,337,2025-02-06 17:39:43,1
-11476,-176,404,715,1981,-334,2025-02-06 17:39:43,1
-11988,256,-340,567,1918,-1103,2025-02-06 17:39:43,1
-12476,428,-176,55,982,-1671,2025-02-06 17:39:43,1
-12944,456,136,-391,-1053,-2167,2025-02-06 17:39:43,1
-13228,-112,776,-472,-4508,-2425,2025-02-06 17:39:43,1
-12824,-1056,708,-273,-7093,-2288,2025-02-06 17:39:43,1
-12112,-1380,368,-111,-8062,-2039,2025-02-06 17:39:43,1
-11748,-1348,912,-88,-5631,-1621,2025-02-06 17:39:43,1
-10324,-1332,1084,882,-1101,-1463,2025-02-06 17:39:43,1
-11188,-1952,-176,1445,3292,-1551,2025-02-06 17:39:43,1
-13260,-2656,640,1833,6080,-1968,2025-02-06 17:39:43,1
-16064,-4308,1792,2393,8413,-2558,2025-02-06 17:39:43,1
-19524,-3232,2812,2844,9341,-1712,2025-02-06 17:39:43,1
-21464,-212,3704,4312,9449,1025,2025-02-06 17:39:43,1
-19904,1052,2096,5725,8201,3070,2025-02-06 17:39:43,1
-17916,996,-632,5558,5796,3448,2025-02-06 17:39:43,1
-16784,380,-2816,4615,3455,2912,2025-02-06 17:39:44,1
-16140,480,-5144,3341,2333,2708,2025-02-06 17:39:44,1
-15796,824,-6680,1730,3730,2326,2025-02-06 17:39:44,1
-14988,184,-6736,44,5648,1456,2025-02-06 17:39:44,1
-14488,-804,-6208,-726,6287,-69,2025-02-06 17:39:44,1
-14192,-1628,-6124,-617,5667,-1241,2025-02-06 17:39:44,1
-13040,-2584,-6376,-92,3238,-1922,2025-02-06 17:39:44,1
-12024,-3956,-6308,97,-996,-2718,2025-02-06 17:39:44,1
-11876,-5280,-5104,169,-5505,-3161,2025-02-06 17:39:44,1
-11368,-6428,-3728,526,-9359,-3137,2025-02-06 17:39:44,1
-11072,-7236,-2612,1137,-11701,-3209,2025-02-06 17:39:44,1
-11736,-6728,-1864,1897,-11902,-3124,2025-02-06 17:39:44,1
-12636,-5212,-852,2621,-9279,-2486,2025-02-06 17:39:44,1
-13348,-3000,752,2496,-3095,-1455,2025-02-06 17:39:44,1
-10412,-2028,-456,3346,2398,-1774,2025-02-06 17:39:44,1
-12156,-2232,-3656,1980,7065,-2170,2025-02-06 17:39:44,1
-12432,-2620,-3020,1574,6349,-2201,2025-02-06 17:39:44,1
-12968,-3192,-2948,1233,4498,-2129,2025-02-06 17:39:44,1
-13268,-3832,-2576,922,2540,-1967,2025-02-06 17:39:44,1
-12844,-4468,-2768,657,520,-2018,2025-02-06 17:39:44,1
-12648,-4560,-2424,264,-1264,-1981,2025-02-06 17:39:44,1
-12508,-4356,-2220,24,-2124,-1875,2025-02-06 17:39:44,1
-12272,-4192,-1388,-197,-2181,-1789,2025-02-06 17:39:44,1
-12448,-3944,-920,-380,-1381,-1660,2025-02-06 17:39:44,1
-12740,-3876,-364,-487,10,-1308,2025-02-06 17:39:44,1
-12736,-3824,-152,-431,1799,-847,2025-02-06 17:39:44,1
-12688,-3860,-916,-577,3012,-487,2025-02-06 17:39:44,1
-12888,-3656,-940,-869,3566,-212,2025-02-06 17:39:44,1
-13616,-3444,-1180,-1125,3870,241,2025-02-06 17:39:44,1
-13648,-3276,-1488,-1401,4113,529,2025-02-06 17:39:44,1
-13652,-3316,-1348,-1668,3973,563,2025-02-06 17:39:44,1
-13848,-3280,-1184,-1619,3030,572,2025-02-06 17:39:44,1
-13932,-3300,-1072,-1247,1691,715,2025-02-06 17:39:44,1
-14100,-3196,-1400,-737,-291,1307,2025-02-06 17:39:44,1
-13696,-3724,-1948,-540,-2141,1950,2025-02-06 17:39:44,1
-13112,-4000,-2340,-1103,-4105,2643,2025-02-06 17:39:44,1
-12760,-3380,-1284,-1647,-6142,3285,2025-02-06 17:39:44,1
-12444,-3152,-480,-1708,-7308,4036,2025-02-06 17:39:44,1
-12268,-3400,-1112,-1889,-6095,4460,2025-02-06 17:39:44,1
-11984,-4088,-2444,-2575,1396,3340,2025-02-06 17:39:44,1
-12696,-3860,-3320,-2668,9285,1241,2025-02-06 17:39:44,1
-14036,-2864,-2628,-2468,14700,-797,2025-02-06 17:39:44,1
-15048,-2520,-2392,-1164,15043,-1013,2025-02-06 17:39:44,1
-14444,-2052,-3920,193,11450,203,2025-02-06 17:39:44,1
-12076,-1248,-7008,-12,6843,622,2025-02-06 17:39:44,1
-10128,-1528,-9108,-1980,1366,-730,2025-02-06 17:39:44,1
-10456,-2388,-8576,-3894,-2329,-2001,2025-02-06 17:39:44,1
-11400,-2580,-6548,-4854,-4761,-2732,2025-02-06 17:39:44,7
-13308,-2372,-4128,-5403,-5660,-2421,2025-02-06 17:39:44,7
-14636,-1864,-2468,-5054,-4242,-1282,2025-02-06 17:39:44,7
-14228,-1652,-2784,-4615,-1704,-83,2025-02-06 17:39:44,7
-12812,-928,-4360,-4759,503,435,2025-02-06 17:39:44,7
-11620,-448,-5896,-5499,1600,24,2025-02-06 17:39:44,7
-11032,-384,-6748,-6992,1837,-1258,2025-02-06 17:39:44,7
-11728,-1332,-6000,-8349,1043,-2186,2025-02-06 17:39:44,7
-12680,-1764,-4652,-8852,-171,-2220,2025-02-06 17:39:44,7
-13188,-1160,-3628,-9050,-1359,-2090,2025-02-06 17:39:44,7
-13504,-568,-3192,-9331,-1917,-2091,2025-02-06 17:39:44,7
-13852,-420,-3288,-9661,-2009,-1873,2025-02-06 17:39:44,7
-13808,-140,-3720,-10128,-2083,-1414,2025-02-06 17:39:44,7
-12996,4,-4780,-10883,-2523,-1220,2025-02-06 17:39:44,7
-12376,-280,-4984,-11812,-2910,-1586,2025-02-06 17:39:45,7
-12104,-888,-3988,-12418,-3413,-2236,2025-02-06 17:39:45,7
-12472,-1384,-2900,-12613,-3462,-2871,2025-02-06 17:39:45,7
-13288,-1352,-2012,-12602,-2697,-3139,2025-02-06 17:39:45,7
-14372,-1176,-1064,-12485,-869,-2843,2025-02-06 17:39:45,7
-14372,-1384,-296,-12085,287,-2385,2025-02-06 17:39:45,7
-13964,-1556,-396,-11289,249,-2017,2025-02-06 17:39:45,7
-13428,-1532,-1396,-10823,-105,-1823,2025-02-06 17:39:45,7
-12616,-1384,-1664,-10660,-629,-2198,2025-02-06 17:39:45,7
-12508,-824,-972,-10497,-1517,-2804,2025-02-06 17:39:45,7
-12236,-172,-284,-10053,-3036,-3383,2025-02-06 17:39:45,7
-12064,48,-744,-9774,-3470,-3915,2025-02-06 17:39:45,7
-12376,216,-1736,-9556,-2435,-4181,2025-02-06 17:39:45,7
-12732,824,-3272,-9443,265,-4047,2025-02-06 17:39:45,7
-12352,608,-4696,-9650,3686,-3999,2025-02-06 17:39:45,7
-11992,-992,-4888,-10124,6348,-4671,2025-02-06 17:39:45,7
-13872,-2812,-4044,-10063,8781,-5402,2025-02-06 17:39:45,7
-16344,-2968,-3992,-9329,11582,-4639,2025-02-06 17:39:45,7
-16444,-1796,-4596,-8579,13269,-3288,2025-02-06 17:39:45,7
-14236,-480,-6648,-7947,12743,-2303,2025-02-06 17:39:45,7
-11120,100,-8760,-7998,9597,-2521,2025-02-06 17:39:45,7
-8748,-384,-11008,-9653,4885,-3960,2025-02-06 17:39:45,7
-8944,-1936,-9732,-12868,776,-6287,2025-02-06 17:39:45,7
-10800,-2784,-7192,-14181,637,-7411,2025-02-06 17:39:45,7
-12300,-3272,-5776,-14651,2979,-6979,2025-02-06 17:39:45,7
-13068,-3684,-5404,-14812,6211,-5348,2025-02-06 17:39:45,7
-12700,-3596,-5060,-14840,9978,-3687,2025-02-06 17:39:45,7
-11480,-3448,-6404,-14406,12887,-4031,2025-02-06 17:39:45,7
-9824,-2992,-6340,-13795,15184,-7487,2025-02-06 17:39:45,7
-11168,-2768,-7604,-12541,12128,-11394,2025-02-06 17:39:45,7
-12976,-3304,-10056,-12527,7304,-12622,2025-02-06 17:39:45,7
-13424,-4160,-10772,-13219,935,-12234,2025-02-06 17:39:46,7
-12556,-4292,-9824,-13783,-5656,-11664,2025-02-06 17:39:48,7
-11704,-3816,-8332,-14323,-10281,-11126,2025-02-06 17:39:48,7
-10536,-3604,-7444,-14956,-12653,-10501,2025-02-06 17:39:48,7
-9604,-3860,-6940,-15531,-13670,-9996,2025-02-06 17:39:48,7
-10448,-1288,-6288,-15897,-2145,-6537,2025-02-06 17:39:48,7
-11980,-956,-4484,-16111,-1823,-6815,2025-02-06 17:39:48,7
-12680,72,-3860,-15884,-1169,-6424,2025-02-06 17:39:48,7
-12588,752,-4216,-15796,-501,-6296,2025-02-06 17:39:48,7
-11876,48,-5888,-12487,-3891,-3533,2025-02-06 17:39:48,7
-14976,2308,-5448,3058,7576,-178,2025-02-06 17:39:48,7
-14292,960,-6308,1887,8316,-1108,2025-02-06 17:39:48,7
-13996,-1288,-5528,717,5672,-2230,2025-02-06 17:39:48,7
-14092,-3748,-3492,397,575,-2718,2025-02-06 17:39:48,7
-13744,-5212,-1932,471,-4669,-2435,2025-02-06 17:39:48,7
-14000,-6232,616,423,-5976,-1885,2025-02-06 17:39:48,7
-10752,-5912,1420,2244,-1446,-1503,2025-02-06 17:39:48,7
-11332,-4512,-2020,3064,1933,-795,2025-02-06 17:39:48,7
-12076,-3252,-4028,2083,3349,-1352,2025-02-06 17:39:48,7
-13524,-2528,-2940,1209,3419,-1799,2025-02-06 17:39:48,7
-14120,-2972,-1232,1385,3507,-2165,2025-02-06 17:39:48,7
-14952,-3132,-844,1989,3163,-2253,2025-02-06 17:39:48,2
-14968,-3868,-1248,2309,1286,-2180,2025-02-06 17:39:48,2
-14516,-4388,-2356,2396,-1403,-1963,2025-02-06 17:39:48,2
-13612,-4416,-2124,2309,-2701,-1596,2025-02-06 17:39:48,2
-11688,-4172,-1928,2363,-1848,-1549,2025-02-06 17:39:48,2
-10756,-3808,-2432,2058,-293,-1458,2025-02-06 17:39:48,2
-10240,-3292,-2420,1426,1410,-1687,2025-02-06 17:39:48,2
-10548,-3112,-2184,772,3036,-1905,2025-02-06 17:39:48,2
-11512,-3564,-1536,293,3905,-2202,2025-02-06 17:39:48,2
-14300,-4272,-68,-92,2548,-1423,2025-02-06 17:39:48,2
-14748,-4116,-676,-15,1317,-911,2025-02-06 17:39:48,2
-14688,-3860,-1204,-113,154,-387,2025-02-06 17:39:48,2
-14288,-3564,-1616,-373,-802,-25,2025-02-06 17:39:48,2
-13832,-3616,-1204,-690,-1302,138,2025-02-06 17:39:48,2
-13772,-3508,-416,-641,-1457,361,2025-02-06 17:39:48,2
-13708,-3320,272,-460,-1706,925,2025-02-06 17:39:48,2
-13468,-3164,120,-290,-1969,1611,2025-02-06 17:39:48,2
-13916,-1528,-4872,-1465,-777,567,2025-02-06 17:39:48,2
-12380,-1288,-4748,-2656,-3795,323,2025-02-06 17:39:48,2
-12792,-1888,-1436,-3783,-2639,281,2025-02-06 17:39:48,2
-10808,-2808,508,-2720,897,120,2025-02-06 17:39:48,2
-11876,-2400,-756,-2044,2336,77,2025-02-06 17:39:48,2
-13312,-1976,-2032,-2095,2221,-20,2025-02-06 17:39:48,2
-13820,-1528,-2092,-2164,1704,-77,2025-02-06 17:39:48,2
-14056,-1136,-2404,-1996,1257,-76,2025-02-06 17:39:48,2
-13548,-1124,-2544,-2019,830,-239,2025-02-06 17:39:48,2
-13196,-1468,-2316,-1993,412,-441,2025-02-06 17:39:48,2
-13052,-1624,-2284,-1837,642,-580,2025-02-06 17:39:49,2
-13172,-1552,-2240,-1865,1047,-656,2025-02-06 17:39:49,2
-13416,-1504,-1724,-1698,1129,-663,2025-02-06 17:39:49,2
-13600,-1668,-1528,-1327,869,-467,2025-02-06 17:39:49,2
-13504,-1700,-1736,-1197,531,-376,2025-02-06 17:39:49,2
-13364,-1792,-1684,-1239,278,-511,2025-02-06 17:39:49,2
-13352,-2052,-1444,-1126,388,-634,2025-02-06 17:39:49,2
-13436,-2256,-1368,-912,637,-699,2025-02-06 17:39:49,2
-13416,-2140,-1452,-700,838,-734,2025-02-06 17:39:49,2
-13504,-2012,-1588,-602,1092,-719,2025-02-06 17:39:49,2
-13952,-1960,-1408,-555,1002,-602,2025-02-06 17:39:49,2
-14036,-2048,-1044,-284,379,-435,2025-02-06 17:39:49,2
-13776,-2252,-1532,138,-314,-92,2025-02-06 17:39:49,2
-13312,-2324,-2104,325,-548,-24,2025-02-06 17:39:49,2
-12912,-2096,-2232,334,-455,-122,2025-02-06 17:39:49,2
-12808,-2032,-2688,341,-308,-63,2025-02-06 17:39:49,2
-12540,-1948,-2728,229,-324,217,2025-02-06 17:39:49,2
-12028,-1708,-2296,113,-228,407,2025-02-06 17:39:49,2
-11324,-1392,-2164,218,-68,637,2025-02-06 17:39:49,2
-10736,-1220,-2852,234,-60,961,2025-02-06 17:39:49,2
-9468,-972,-3212,-14,-35,1101,2025-02-06 17:39:49,2
-8460,-932,-2584,-391,196,875,2025-02-06 17:39:49,2
-7728,-788,-1436,-1033,945,432,2025-02-06 17:39:49,2
-8120,-468,-504,-1291,1666,-345,2025-02-06 17:39:49,2
-8976,-880,-284,-1080,2486,-690,2025-02-06 17:39:49,2
-9752,-1064,-264,-852,2744,-678,2025-02-06 17:39:49,2
-10136,-1068,-752,-866,2461,-489,2025-02-06 17:39:49,2
-9984,-1548,-320,-1334,1406,-317,2025-02-06 17:39:49,2
-10548,-1728,1656,-1262,-655,-477,2025-02-06 17:39:49,2
-12548,-1884,2452,-161,-4401,251,2025-02-06 17:39:49,2
-12052,-1620,836,278,-5250,899,2025-02-06 17:39:49,2
-10808,-752,164,232,-6207,1010,2025-02-06 17:39:49,2
-10100,-492,-64,75,-6993,1142,2025-02-06 17:39:49,2
-9604,-604,-152,-95,-7112,1139,2025-02-06 17:39:49,2
-9096,-1276,-164,-319,-6095,888,2025-02-06 17:39:49,2
-8836,-1924,-496,-1094,-5085,66,2025-02-06 17:39:49,2
-9708,-1792,376,-1462,-4738,-967,2025-02-06 17:39:49,2
-12288,-1200,780,-1177,-4855,-666,2025-02-06 17:39:49,2
-13340,-1372,788,-584,-4156,666,2025-02-06 17:39:49,2
-13404,-2100,-364,-445,-4797,1447,2025-02-06 17:39:49,2
-14184,-2092,-336,-1544,-5562,1524,2025-02-06 17:39:49,2
-15480,-812,1152,-2304,-5802,1764,2025-02-06 17:39:49,2
-16588,188,2292,-1708,-6617,2794,2025-02-06 17:39:49,2
-16068,320,1180,-1051,-6915,3915,2025-02-06 17:39:49,2
-15676,-168,-3436,-1015,-6074,4551,2025-02-06 17:39:49,2
-14336,-1096,452,-918,-5742,4358,2025-02-06 17:39:49,2
-12888,-1652,688,-586,-6726,3471,2025-02-06 17:39:49,2
-12216,-1148,804,-590,-7777,2500,2025-02-06 17:39:49,2
-12056,-528,1440,-580,-8323,2050,2025-02-06 17:39:49,2
-14252,-672,6492,1780,-12688,2020,2025-02-06 17:39:49,2
-13268,56,7012,1248,-11197,914,2025-02-06 17:39:49,2
-12956,1428,7584,655,-10019,-116,2025-02-06 17:39:49,2
-13024,1856,7228,404,-8814,-424,2025-02-06 17:39:49,2
-13544,344,6388,441,-6612,-257,2025-02-06 17:39:49,2
-15168,-888,6828,340,-4076,-251,2025-02-06 17:39:50,2
-16060,-1764,8440,744,-3902,-293,2025-02-06 17:39:50,2
-16484,-892,8184,601,-4772,-205,2025-02-06 17:39:50,2
-15404,20,8120,596,-5439,-260,2025-02-06 17:39:50,2
-15064,444,7552,403,-6222,-340,2025-02-06 17:39:50,2
-14836,-152,8652,385,-6833,-249,2025-02-06 17:39:50,2
-14108,-28,8836,399,-6790,-202,2025-02-06 17:39:50,2
-14588,824,9652,308,-6263,136,2025-02-06 17:39:50,2
-14380,832,8796,-57,-5811,-67,2025-02-06 17:39:50,2
-15056,712,8888,-401,-4926,-363,2025-02-06 17:39:50,2
-15684,204,10988,-270,-4131,-321,2025-02-06 17:39:50,2
-16764,-212,9680,-436,-3252,-71,2025-02-06 17:39:50,2
-17644,620,9928,-1203,-3482,272,2025-02-06 17:39:50,2
-16292,488,10420,-1516,-4839,486,2025-02-06 17:39:50,2
-14320,128,10844,-1987,-4477,341,2025-02-06 17:39:50,2
-14112,-660,11656,-2251,-3473,-150,2025-02-06 17:39:50,2
-14584,-1312,11896,-2366,-2818,-361,2025-02-06 17:39:50,2
-14780,-1716,12880,-1219,-2633,226,2025-02-06 17:39:50,2
-13636,-1388,11972,-516,-2599,-65,2025-02-06 17:39:50,2
-13092,-792,11684,-262,-2104,-449,2025-02-06 17:39:50,2
-12288,-20,11524,-91,-1307,-548,2025-02-06 17:39:50,2
-12220,568,11160,-136,-547,-499,2025-02-06 17:39:50,2
-12096,720,11072,-436,204,-474,2025-02-06 17:39:50,2
-12388,824,10748,-605,629,-402,2025-02-06 17:39:50,2
-12292,8,10036,-586,479,-132,2025-02-06 17:39:50,2
-11248,-1356,9748,-448,635,-275,2025-02-06 17:39:50,2
-10592,-2088,10260,-135,1126,-677,2025-02-06 17:39:50,2
-10752,-1528,10236,140,1243,-820,2025-02-06 17:39:50,2
-11032,-180,9284,157,905,-406,2025-02-06 17:39:50,2
-11396,736,9312,-148,77,-83,2025-02-06 17:39:50,2
-11184,696,9604,-392,-579,252,2025-02-06 17:39:50,2
-10180,164,9512,-716,-335,242,2025-02-06 17:39:50,2
-9992,-1176,9616,-814,394,-64,2025-02-06 17:39:50,2
-10748,-1600,9672,-686,536,-226,2025-02-06 17:39:50,2
-10960,-916,9912,-820,412,-436,2025-02-06 17:39:50,2
-11696,-196,10292,-997,258,-500,2025-02-06 17:39:50,2
-12580,-32,10160,-993,-232,-236,2025-02-06 17:39:50,2
-12588,-260,10060,-665,-1711,692,2025-02-06 17:39:50,2
-11316,-516,10664,-99,-2945,1545,2025-02-06 17:39:50,2
-9632,-536,10612,311,-1767,1755,2025-02-06 17:39:50,2
-9844,-596,11592,518,321,1604,2025-02-06 17:39:50,2
-10720,-540,11692,641,1887,1325,2025-02-06 17:39:50,2
-11528,-392,11688,687,2523,856,2025-02-06 17:39:50,2
-12620,-32,11276,602,2252,461,2025-02-06 17:39:50,2
-13260,204,10692,537,789,217,2025-02-06 17:39:50,2
-12972,200,10548,275,-831,-2,2025-02-06 17:39:50,2
-12172,240,10296,149,-1411,-51,2025-02-06 17:39:50,2
-11700,448,10124,46,-1436,-204,2025-02-06 17:39:50,2
-11332,684,9820,-211,-906,-498,2025-02-06 17:39:50,2
-11144,252,10476,-255,394,-928,2025-02-06 17:39:50,2
-11896,192,11212,-17,2291,-1060,2025-02-06 17:39:50,2
-13808,116,12080,211,4128,-1327,2025-02-06 17:39:50,2
-15968,456,13608,550,4706,-1351,2025-02-06 17:39:50,2
-17868,-436,14112,1058,5413,-930,2025-02-06 17:39:50,2
-18300,-2044,13572,1595,6420,-704,2025-02-06 17:39:50,2
-18640,-1988,12620,1574,6403,-709,2025-02-06 17:39:50,2
-18596,-660,12320,1355,6013,-535,2025-02-06 17:39:50,2
-18508,956,11788,633,5622,-415,2025-02-06 17:39:50,2
-18244,1268,11588,-212,5856,-85,2025-02-06 17:39:50,2
-17680,680,11000,-867,6508,-171,2025-02-06 17:39:50,2
-16784,16,10448,-1170,6983,-651,2025-02-06 17:39:50,2
-16416,-84,9640,-1018,7586,-1059,2025-02-06 17:39:50,2
-16532,372,9480,-787,7992,-853,2025-02-06 17:39:50,2
-14884,536,8776,-356,8090,-886,2025-02-06 17:39:51,2
-13980,420,8108,-52,7986,-1492,2025-02-06 17:39:51,2
-13764,360,7816,-81,8045,-1735,2025-02-06 17:39:51,2
-13796,536,8144,25,7999,-1345,2025-02-06 17:39:51,2
-13240,768,7872,245,8119,-1104,2025-02-06 17:39:51,2
-12836,896,7244,502,8164,-990,2025-02-06 17:39:51,2
-12852,568,6656,614,8084,-1321,2025-02-06 17:39:51,2
-12980,384,6868,510,7552,-1354,2025-02-06 17:39:51,2
-12988,168,6828,820,7010,-1165,2025-02-06 17:39:51,2
-12860,256,5928,969,7042,-1067,2025-02-06 17:39:51,2
-12736,268,5508,682,6908,-1106,2025-02-06 17:39:51,2
-13016,380,5656,541,6564,-1168,2025-02-06 17:39:51,2
-13620,380,5448,315,6452,-1079,2025-02-06 17:39:51,2
-13632,748,5572,240,6191,-827,2025-02-06 17:39:51,2
-13240,312,5376,752,5569,-611,2025-02-06 17:39:51,2
-13116,-176,4156,607,3925,-1122,2025-02-06 17:39:51,2
-14184,-216,3160,46,5622,-1691,2025-02-06 17:39:51,2
-13408,-212,2744,-658,7452,-2403,2025-02-06 17:39:51,2
-12664,-308,3308,-590,5912,-3347,2025-02-06 17:39:51,2
-14056,-620,4092,-202,5814,-3807,2025-02-06 17:39:51,2
-14872,-864,3920,-303,7541,-3548,2025-02-06 17:39:51,2
-15044,-824,3880,-532,8787,-3128,2025-02-06 17:39:51,2
-14644,-396,3232,-725,9049,-2655,2025-02-06 17:39:51,2
-14764,-188,2616,-788,9185,-1837,2025-02-06 17:39:51,2
-13988,-520,1280,-1089,9088,-1375,2025-02-06 17:39:51,2
-13296,-776,536,-1710,9319,-1417,2025-02-06 17:39:51,2
-12932,-1108,620,-2132,9120,-1487,2025-02-06 17:39:51,2
-12896,-1292,992,-2212,8400,-1451,2025-02-06 17:39:51,2
-7160,-1400,-448,-1914,6836,-986,2025-02-06 17:39:51,2
-11612,-1240,880,-1608,4660,-420,2025-02-06 17:39:51,2
-11064,-788,1068,-1049,1536,-211,2025-02-06 17:39:51,2
-10460,-820,932,-509,-942,-86,2025-02-06 17:39:51,2
-9496,-772,832,-55,-2141,130,2025-02-06 17:39:51,2
-8020,-1072,880,385,-3218,482,2025-02-06 17:39:51,2
-6604,-1212,1056,603,-3905,696,2025-02-06 17:39:51,2
-5892,-1240,888,771,-4221,1025,2025-02-06 17:39:51,2
-5084,-892,160,709,-3441,1187,2025-02-06 17:39:51,2
-4300,-644,-136,131,-1580,850,2025-02-06 17:39:51,2
-4108,-372,-488,-640,515,-80,2025-02-06 17:39:51,2
-4940,-256,-308,-498,2413,-695,2025-02-06 17:39:51,2
-6672,-1352,-1448,-860,5053,-665,2025-02-06 17:39:51,2
-7688,-1628,-732,-1569,7464,-571,2025-02-06 17:39:51,2
-8920,-1756,800,-1954,9352,-1470,2025-02-06 17:39:51,2
-10928,-1464,2380,-1384,9605,-2969,2025-02-06 17:39:51,2
-13720,-1860,2272,-285,8817,-4533,2025-02-06 17:39:51,2
-16240,-1708,1328,480,4544,-5346,2025-02-06 17:39:51,2
-19952,-992,-1544,885,761,-4150,2025-02-06 17:39:51,2
-20696,200,-3032,544,-2334,-1555,2025-02-06 17:39:51,2
-19344,984,-2420,-389,-3495,754,2025-02-06 17:39:51,2
-13544,-556,1584,-511,-4699,467,2025-02-06 17:39:51,2
-13432,-2076,400,-264,-4943,153,2025-02-06 17:39:51,2
-12272,-2152,-360,85,-3888,87,2025-02-06 17:39:51,2
-11020,-1652,-488,92,-2235,-550,2025-02-06 17:39:51,2
-10972,-1216,-292,-279,-653,-1322,2025-02-06 17:39:51,2
-11784,-672,-844,-722,1134,-1749,2025-02-06 17:39:51,2
-12784,-5008,64,642,3116,-2721,2025-02-06 17:39:52,2
-13944,-4156,900,581,4161,-2520,2025-02-06 17:39:52,2
-14516,-3952,1100,813,4123,-1943,2025-02-06 17:39:52,2
-14528,-3508,1072,930,3496,-2093,2025-02-06 17:39:52,2
-15176,-2456,1332,775,1917,-2723,2025-02-06 17:39:52,2
-15172,-1960,564,470,232,-2884,2025-02-06 17:39:52,2
-14500,-1536,0,-304,-205,-3609,2025-02-06 17:39:52,2
-14228,-836,-532,-1455,-566,-4319,2025-02-06 17:39:52,2
-13620,-1792,-636,-2674,-619,-4863,2025-02-06 17:39:52,2
-12996,-2968,-104,-3198,-714,-5030,2025-02-06 17:39:52,2
-12624,-3876,732,-3490,-1050,-4858,2025-02-06 17:39:52,2
-12336,-4396,1264,-3337,-696,-4508,2025-02-06 17:39:52,2
-12344,-4424,1188,-3400,-556,-4236,2025-02-06 17:39:52,2
-12516,-4316,1468,-3484,-771,-4073,2025-02-06 17:39:52,2
-12496,-4112,1840,-3317,-847,-3670,2025-02-06 17:39:52,2
-12568,-4084,1592,-3096,-981,-3304,2025-02-06 17:39:52,1
-12556,-3704,1020,-3044,-978,-3012,2025-02-06 17:39:52,1
-12784,-4032,792,-3020,-662,-2627,2025-02-06 17:39:52,1
-12724,-4812,1164,-2778,-69,-1837,2025-02-06 17:39:52,1
-12340,-5300,1720,-2563,439,-1271,2025-02-06 17:39:52,1
-12412,-5024,1648,-2362,593,-1161,2025-02-06 17:39:52,1
-12852,-5032,1268,-2268,594,-870,2025-02-06 17:39:52,1
-12936,-4996,712,-2239,751,-899,2025-02-06 17:39:52,1
-13576,-4408,824,-2608,850,-960,2025-02-06 17:39:52,1
-14396,-3764,1112,-2702,656,-725,2025-02-06 17:39:52,1
-14476,-3876,1072,-2686,103,-421,2025-02-06 17:39:52,1
-14072,-4276,1256,-2697,-524,15,2025-02-06 17:39:52,1
-13688,-4408,932,-2673,-887,250,2025-02-06 17:39:52,1
-13216,-5104,1016,-2681,-584,170,2025-02-06 17:39:52,1
-13308,-5172,1856,-2661,220,-9,2025-02-06 17:39:52,1
-13992,-5128,2576,-2571,791,161,2025-02-06 17:39:52,1
-14648,-5140,3040,-2557,999,496,2025-02-06 17:39:52,1
-14880,-4996,3580,-2823,782,473,2025-02-06 17:39:52,1
-14800,-5832,1856,-3206,482,-36,2025-02-06 17:39:52,1
-15716,-6184,-192,-4092,644,-1926,2025-02-06 17:39:52,1
-16952,-6144,1232,-3882,1680,-3282,2025-02-06 17:39:52,1
-17940,-7020,1256,-2479,738,-3766,2025-02-06 17:39:52,1
-19280,-7708,608,-895,-944,-2803,2025-02-06 17:39:52,1
-19444,-7600,356,61,-2823,-1229,2025-02-06 17:39:52,1
-17832,-7072,772,639,-4386,409,2025-02-06 17:39:52,1
-15844,-6844,-276,855,-5929,2372,2025-02-06 17:39:52,1
-13860,-7040,-1964,921,-7034,4258,2025-02-06 17:39:52,1
-12508,-6936,-3488,1058,-7049,5696,2025-02-06 17:39:52,1
-10936,-5304,-4928,1215,-6017,6240,2025-02-06 17:39:52,1
-10172,-2820,-5624,801,-4031,5052,2025-02-06 17:39:52,1
-10884,-864,-4904,271,-1802,3392,2025-02-06 17:39:52,1
-12476,704,-3152,-43,41,2664,2025-02-06 17:39:52,1
-13468,404,-1532,-267,1591,3048,2025-02-06 17:39:52,1
-14352,-1040,-1260,-321,1879,4150,2025-02-06 17:39:52,1
-14280,-2620,-1372,-11,612,5120,2025-02-06 17:39:52,1
-13916,-3500,-864,334,-320,5429,2025-02-06 17:39:52,1
-12628,-4216,-316,556,-508,4969,2025-02-06 17:39:52,1
-12668,-4164,180,1131,-315,4895,2025-02-06 17:39:52,1
-12972,-3628,-276,1622,-42,5228,2025-02-06 17:39:52,1
-12356,-2612,-68,1875,24,5589,2025-02-06 17:39:52,1
-11316,-1360,80,2199,-174,5278,2025-02-06 17:39:52,1
-11068,-340,124,2243,-152,4587,2025-02-06 17:39:52,1
-11616,496,244,2400,817,4031,2025-02-06 17:39:52,1
-11600,880,596,2804,1055,3719,2025-02-06 17:39:52,1
-11608,504,-244,2943,639,3441,2025-02-06 17:39:52,1
-11736,-64,-320,2819,-137,3016,2025-02-06 17:39:52,1
-11556,-492,116,2828,-341,2891,2025-02-06 17:39:52,1
-11440,-984,732,2680,34,2616,2025-02-06 17:39:53,1
-10724,-944,1524,3091,233,1846,2025-02-06 17:39:53,1
-11060,-528,1500,3758,423,1148,2025-02-06 17:39:53,1
-10924,-752,1336,4059,600,530,2025-02-06 17:39:53,1
-11396,-960,1496,4284,684,-129,2025-02-06 17:39:53,1
-11824,-1244,1636,4176,566,-313,2025-02-06 17:39:53,1
-12460,-864,1444,4196,1140,-422,2025-02-06 17:39:53,1
-13712,-28,920,4394,1908,-301,2025-02-06 17:39:53,1
-15136,328,204,4489,1878,133,2025-02-06 17:39:53,1
-16204,-56,-112,4413,484,884,2025-02-06 17:39:53,1
-15644,-920,160,4140,-1558,1285,2025-02-06 17:39:53,1
-14792,-320,932,4232,-1866,1848,2025-02-06 17:39:53,1
-13800,1124,-32,4775,-217,2106,2025-02-06 17:39:53,1
-13992,2416,-908,4369,1267,1901,2025-02-06 17:39:53,1
-13828,2048,520,3442,1263,983,2025-02-06 17:39:53,1
-15256,172,2788,3261,649,-51,2025-02-06 17:39:53,1
-17624,-1216,832,4503,2617,673,2025-02-06 17:39:53,1
-18104,-284,388,4255,4454,1275,2025-02-06 17:39:53,1
-18520,1272,208,4260,3218,1659,2025-02-06 17:39:53,1
-18744,2196,-1784,3714,-48,1715,2025-02-06 17:39:53,1
-18824,2828,-4772,2168,-1995,1484,2025-02-06 17:39:53,1
-18176,3184,-5996,830,-1649,1667,2025-02-06 17:39:53,1
-15132,1688,-5832,1,-3562,1441,2025-02-06 17:39:53,1
-12388,-1048,-5056,-376,-5908,728,2025-02-06 17:39:53,1
-10280,-2956,-4332,169,-5495,259,2025-02-06 17:39:53,1
-9036,-4564,-3812,435,-2241,-696,2025-02-06 17:39:53,1
-9988,-4916,-3004,180,2963,-2050,2025-02-06 17:39:53,1
-11516,-4940,-2256,-150,6249,-3500,2025-02-06 17:39:53,1
-13748,-4544,-2140,-248,6953,-4842,2025-02-06 17:39:53,1
-15916,-3420,-1412,-190,5496,-5271,2025-02-06 17:39:53,1
-15960,-1420,164,598,1726,-4607,2025-02-06 17:39:53,1
-15200,-60,-492,1093,-1130,-3803,2025-02-06 17:39:53,1
-13484,320,-1160,645,-2314,-3307,2025-02-06 17:39:53,1
-12640,-564,-980,586,-2711,-3785,2025-02-06 17:39:53,1
-11716,-1316,-832,213,-3204,-3870,2025-02-06 17:39:53,1
-11056,-2304,-1124,291,-2193,-4101,2025-02-06 17:39:53,1
-10816,-3048,-1344,-278,-1654,-4113,2025-02-06 17:39:53,1
-10860,-3180,-372,-832,-1429,-3911,2025-02-06 17:39:53,1
-11192,-3128,-736,-1204,-673,-3969,2025-02-06 17:39:53,1
-11028,-2968,-420,-1708,-296,-3983,2025-02-06 17:39:53,1
-10564,-3368,-204,-2268,-291,-4031,2025-02-06 17:39:53,1
-10740,-3848,-120,-2490,717,-4013,2025-02-06 17:39:53,1
-11208,-4320,488,-2527,2371,-3643,2025-02-06 17:39:53,1
-12316,-4564,636,-2161,3563,-3051,2025-02-06 17:39:53,1
-13268,-4256,616,-1727,3685,-2215,2025-02-06 17:39:53,1
-13672,-3404,816,-1392,2810,-1175,2025-02-06 17:39:53,1
-13516,-3016,1400,-1041,1616,-806,2025-02-06 17:39:53,1
-13400,-2536,1716,-869,680,-579,2025-02-06 17:39:53,1
-13080,-2412,2096,-525,-337,-252,2025-02-06 17:39:53,1
-12652,-2624,2104,137,-1165,46,2025-02-06 17:39:53,1
-12460,-3020,1736,297,-1696,328,2025-02-06 17:39:53,1
-12304,-3576,896,14,-1679,410,2025-02-06 17:39:53,1
-11948,-3996,176,-284,-1663,-73,2025-02-06 17:39:53,1
-12316,-4064,56,86,-1955,-811,2025-02-06 17:39:53,1
-15236,-3800,2328,-4211,-4223,-691,2025-02-06 17:39:53,1
-13156,-5188,1060,-4546,-2871,-1683,2025-02-06 17:39:53,1
-14020,-6660,716,-4363,180,-2698,2025-02-06 17:39:54,1
-15580,-7404,-116,-4781,2549,-3632,2025-02-06 17:39:54,1
-17784,-8240,-940,-5146,3197,-3142,2025-02-06 17:39:54,1
-19664,-8280,-6832,-10238,6651,891,2025-02-06 17:39:54,1
-16116,-7884,1220,-9079,11932,1483,2025-02-06 17:39:54,1
-15048,-6868,1648,-3043,14285,1548,2025-02-06 17:39:54,1
-14128,-6264,-3148,1471,13206,4096,2025-02-06 17:39:54,1
-11812,-4280,-7808,1933,10554,6224,2025-02-06 17:39:54,1
-10320,-324,-10096,-305,8006,6621,2025-02-06 17:39:54,1
-8264,2592,-7040,-2088,6075,4708,2025-02-06 17:39:54,1
-9724,4788,-3940,-1122,4511,2052,2025-02-06 17:39:54,1
-12292,1664,-4648,-452,5570,619,2025-02-06 17:39:54,1
-13348,-1068,-4200,-1058,8164,285,2025-02-06 17:39:54,1
-12804,-3232,-3356,-474,9502,273,2025-02-06 17:39:54,1
-12224,-3976,-4184,185,9205,84,2025-02-06 17:39:54,1
-14712,-3196,-5952,-447,7581,1926,2025-02-06 17:39:54,1
-14396,-3496,-6676,-3264,6116,6561,2025-02-06 17:39:54,1
-12728,-3268,-3856,-2366,5526,9123,2025-02-06 17:39:54,1
-10920,-1896,-3392,1691,4280,8820,2025-02-06 17:39:54,1
-10432,-40,-6120,4573,-1417,6362,2025-02-06 17:39:54,1
-11200,576,-7812,3937,-7449,4374,2025-02-06 17:39:54,1
-11964,708,-7592,1982,-15591,2406,2025-02-06 17:39:54,1
-13428,116,-5568,165,-25789,1089,2025-02-06 17:39:54,1
-14908,-900,-4864,260,-32768,1699,2025-02-06 17:39:54,1
-14148,-2064,-3156,529,-32768,2609,2025-02-06 17:39:54,1
-14020,-2104,-3220,-642,-32768,2953,2025-02-06 17:39:54,1
-5020,-976,4892,10633,-15986,1899,2025-02-06 17:39:54,1
-8452,-2956,-3644,4375,-5575,1834,2025-02-06 17:39:54,1
-6980,-3736,-6800,-2471,1613,442,2025-02-06 17:39:54,1
-8040,-1040,-364,-4616,7193,-1418,2025-02-06 17:39:54,1
-10112,2428,4588,-1990,8323,-1363,2025-02-06 17:39:54,1
-12392,4200,4700,836,4352,-883,2025-02-06 17:39:54,1
-14664,2776,2324,1379,1231,-1194,2025-02-06 17:39:54,1
-16156,1484,2024,255,-1349,-2383,2025-02-06 17:39:54,1
-16040,476,2880,868,-4242,-3993,2025-02-06 17:39:54,1
-16072,-100,2512,2836,-6249,-5196,2025-02-06 17:39:54,1
-16196,-168,64,3558,-6346,-5587,2025-02-06 17:39:54,1
-16756,604,724,2767,-5546,-4553,2025-02-06 17:39:54,1
-16816,1056,2440,3097,-4853,-2659,2025-02-06 17:39:54,1
-15320,-256,500,2932,-4557,-1114,2025-02-06 17:39:54,1
-14024,-1616,-1936,1275,-3540,-1572,2025-02-06 17:39:54,1
-14480,-1376,-2716,-652,-1861,-2629,2025-02-06 17:39:54,1
-15208,-720,-860,-1996,-981,-1883,2025-02-06 17:39:54,1
-14028,-1140,2332,-754,-570,-586,2025-02-06 17:39:54,1
-13456,-2660,2508,888,-419,533,2025-02-06 17:39:54,1
-12136,-3252,1936,386,-69,871,2025-02-06 17:39:54,1
-13788,-1932,1832,-710,-410,958,2025-02-06 17:39:54,1
-15692,-860,2144,-1178,-1287,902,2025-02-06 17:39:54,1
-16392,-1488,1624,-846,-2490,546,2025-02-06 17:39:54,1
-17232,-2632,2636,71,-4193,362,2025-02-06 17:39:54,1
-16840,-3528,3736,1386,-6816,653,2025-02-06 17:39:54,1
-15648,-4220,2792,1520,-8406,1166,2025-02-06 17:39:54,1
-12960,-4212,2516,1128,-8319,1511,2025-02-06 17:39:54,1
-11256,-4052,2064,1249,-7718,1810,2025-02-06 17:39:54,1
-10148,-3784,1100,1661,-5580,1570,2025-02-06 17:39:54,1
-9908,-3124,1044,1604,-2822,697,2025-02-06 17:39:54,1
-10876,-2380,972,1041,-310,-607,2025-02-06 17:39:54,1
-13040,-1932,2576,-108,301,-2092,2025-02-06 17:39:54,1
-13460,-2364,3456,-265,-992,-3244,2025-02-06 17:39:54,1
-14916,-2864,3180,42,-2756,-2946,2025-02-06 17:39:54,1
-13292,-3428,2988,624,-3687,-2329,2025-02-06 17:39:54,1
-12392,-3096,2480,1150,-2835,-2669,2025-02-06 17:39:55,1
-11088,-2416,2556,1602,-1021,-4658,2025-02-06 17:39:55,1
-14100,-2532,4008,2738,-475,-5098,2025-02-06 17:39:55,1
-14180,-3716,3568,3461,-1659,-2261,2025-02-06 17:39:55,1
-13072,-2944,3396,1269,-1043,891,2025-02-06 17:39:55,1
-11460,-2416,2656,-3517,4024,2083,2025-02-06 17:39:55,1
-12136,-2608,4192,-5610,6101,601,2025-02-06 17:39:55,1
-14604,-2616,5436,-3699,4044,-1557,2025-02-06 17:39:55,1
-16544,-3252,4284,-2334,419,-1444,2025-02-06 17:39:55,1
-14576,-3784,4404,-1837,-1639,-818,2025-02-06 17:39:55,1
-12556,-3092,3756,-1072,-2148,-1033,2025-02-06 17:39:55,1
-12384,-3620,2768,-1431,-1190,-555,2025-02-06 17:39:55,1
-11892,-3388,3108,-2171,935,657,2025-02-06 17:39:55,1
-12112,-3640,3104,-2589,2366,-177,2025-02-06 17:39:55,1
-13324,-3744,3840,-2286,2457,-1236,2025-02-06 17:39:55,1
-12768,-4596,4752,-265,2464,-2961,2025-02-06 17:39:55,1
-15036,-3780,4396,1457,1216,-3855,2025-02-06 17:39:55,1
-15100,-3980,4412,1068,82,-2835,2025-02-06 17:39:55,1
-13796,-4160,3480,281,-282,-2119,2025-02-06 17:39:55,1
-13552,-4204,2856,-395,506,-1373,2025-02-06 17:39:55,1
-12768,-4184,2920,34,1167,-716,2025-02-06 17:39:55,1
-13168,-3980,3188,784,2045,-607,2025-02-06 17:39:55,1
-13412,-3284,3416,1045,2476,-788,2025-02-06 17:39:55,1
-13848,-2812,3640,1265,2321,-673,2025-02-06 17:39:55,1
-14260,-2664,3044,577,1997,-627,2025-02-06 17:39:55,1
-13820,-2156,3052,-1436,2105,-228,2025-02-06 17:39:55,1
-13332,-2608,3676,-1987,1793,79,2025-02-06 17:39:55,1
-13232,-3772,3564,-719,980,-661,2025-02-06 17:39:55,1
-13944,-3488,3684,196,105,-1294,2025-02-06 17:39:55,1
-13724,-2988,3204,849,-377,-778,2025-02-06 17:39:55,1
-13012,-2264,2340,77,324,-306,2025-02-06 17:39:55,1
-12624,-2500,2708,-1295,1085,-623,2025-02-06 17:39:55,1
-13156,-2208,4232,-1098,1058,-943,2025-02-06 17:39:55,1
-13752,-1648,4220,808,460,-955,2025-02-06 17:39:55,1
-13812,-2144,3484,1920,430,36,2025-02-06 17:39:55,1
-13736,-1440,3300,2078,283,1300,2025-02-06 17:39:55,1
-13160,-2532,3112,2198,-106,1635,2025-02-06 17:39:55,1
-12088,-3996,3592,2689,305,863,2025-02-06 17:39:55,1
-12940,-4252,4320,4528,-129,-1342,2025-02-06 17:39:55,1
-13576,-2544,3532,1183,122,-580,2025-02-06 17:39:55,1
-13060,-2752,3208,741,1140,-90,2025-02-06 17:39:55,1
-13652,-4076,3628,1346,1813,1140,2025-02-06 17:39:55,1
-13120,-4584,4116,2277,1387,1332,2025-02-06 17:39:55,1
-13184,-5316,4076,2921,605,173,2025-02-06 17:39:55,1
-14248,-5276,4608,2501,458,86,2025-02-06 17:39:55,1
-13448,-2820,4576,3314,577,984,2025-02-06 17:39:55,1
-13196,-2568,3528,3696,888,627,2025-02-06 17:39:55,1
-13612,-2040,3036,3031,1520,613,2025-02-06 17:39:55,1
-14068,-1832,3632,2213,2176,1041,2025-02-06 17:39:55,1
-13312,-3228,4120,2308,1806,668,2025-02-06 17:39:55,1
-12808,-2044,2708,663,1741,-43,2025-02-06 17:39:55,1
-13036,-2284,2300,-1546,2924,-455,2025-02-06 17:39:55,1
-12388,-1620,2168,-4190,5130,-827,2025-02-06 17:39:55,1
-13376,-2356,3840,-3698,7012,-64,2025-02-06 17:39:55,1
-13296,-2940,3892,-1909,7021,1396,2025-02-06 17:39:55,1
-13396,-3988,3928,-760,6059,1357,2025-02-06 17:39:55,1
-13884,-4004,4184,586,4393,55,2025-02-06 17:39:55,1
-16392,-3120,3396,855,1346,-832,2025-02-06 17:39:55,1
-15676,-2620,3516,72,-1345,-96,2025-02-06 17:39:55,1
-13908,-2240,2604,-761,-1964,-365,2025-02-06 17:39:55,1
-12720,-2136,2508,-1534,-831,-238,2025-02-06 17:39:56,1
-12192,-2356,3284,-577,799,-409,2025-02-06 17:39:56,1
-13228,-3260,3712,1981,1040,-749,2025-02-06 17:39:56,1
-14684,-3452,4196,2919,-164,-165,2025-02-06 17:39:56,1
-15088,-2732,2972,2795,-1813,830,2025-02-06 17:39:56,1
-12552,-928,400,-1043,-391,1033,2025-02-06 17:39:56,1
-12632,-1408,1976,-3454,1124,-1683,2025-02-06 17:39:56,1
-13012,-2392,3676,-3268,1922,-1961,2025-02-06 17:39:56,1
-14512,-2628,2760,-4363,809,-1763,2025-02-06 17:39:56,1
-17756,-192,692,-10133,-1371,2412,2025-02-06 17:39:56,1
-15852,760,3396,-13067,-858,7120,2025-02-06 17:39:56,1
-12124,7312,10800,-3090,-11160,7382,2025-02-06 17:39:56,1
-14208,-2888,5088,7223,-5517,6403,2025-02-06 17:39:56,1
-9480,-4800,-120,705,-6744,5432,2025-02-06 17:39:56,1
-9256,-6300,24,-2049,-3344,193,2025-02-06 17:39:56,1
-12384,-7616,868,-3984,282,-3203,2025-02-06 17:39:56,1
-16028,-5960,4156,-3513,1317,-3163,2025-02-06 17:39:56,1
-17868,-2280,7884,51,-1367,-340,2025-02-06 17:39:56,1
-15140,-2604,5984,2629,-3770,188,2025-02-06 17:39:56,1
-13488,-2340,4600,4402,-4761,-377,2025-02-06 17:39:56,1
-12972,-2512,3604,5237,-4806,-627,2025-02-06 17:39:56,1
-12708,-1804,2844,4116,-3822,-351,2025-02-06 17:39:56,1
-12716,-1772,2764,2851,-1520,136,2025-02-06 17:39:56,1
-12088,-1356,2884,1872,1729,332,2025-02-06 17:39:56,1
-13992,-2092,1072,699,5069,466,2025-02-06 17:39:56,1
-13512,-872,3980,-1148,5382,974,2025-02-06 17:39:56,1
-14272,-1576,3172,-3421,4163,-57,2025-02-06 17:39:56,1
-14444,-1868,3452,-4825,3933,236,2025-02-06 17:39:56,1
-13840,-1616,2520,-6871,4408,441,2025-02-06 17:39:56,1
-15468,-2060,3436,-8212,6628,1498,2025-02-06 17:39:56,1
-15920,-2580,1892,-7565,11642,4419,2025-02-06 17:39:56,1
-13192,-2164,2952,-8311,9394,6854,2025-02-06 17:39:56,1
-12784,-1824,3236,-8750,11738,8207,2025-02-06 17:39:56,1
-14388,-1076,4508,-7437,11945,9839,2025-02-06 17:39:56,1
-12480,-1464,3236,-3464,10290,9680,2025-02-06 17:39:56,1
-16888,900,-3340,-1374,6802,6356,2025-02-06 17:39:56,1
-9980,324,3620,-1378,2777,2652,2025-02-06 17:39:56,1
-12444,-1576,2804,-1558,2866,1828,2025-02-06 17:39:56,1
-14036,-1084,1592,-1737,2552,767,2025-02-06 17:39:56,1
-15436,-328,2228,-2078,1177,626,2025-02-06 17:39:56,1
-17160,484,2476,-2168,-2542,931,2025-02-06 17:39:56,1
-17180,156,2120,-1625,-5496,1224,2025-02-06 17:39:56,1
-16840,-432,552,-290,-6227,1708,2025-02-06 17:39:56,1
-16336,-216,-880,-110,-5391,2596,2025-02-06 17:39:56,1
-15720,988,-424,-1130,-3741,3007,2025-02-06 17:39:56,1
-17092,2820,-2252,-3307,-1209,3801,2025-02-06 17:39:56,4
-15592,2576,-1424,-5618,5083,4191,2025-02-06 17:39:56,4
-4464,2904,3772,-9214,6820,-4465,2025-02-06 17:39:56,4
-9116,2244,3868,-5242,9106,-9860,2025-02-06 17:39:56,4
-15252,-388,2844,-1102,9060,-9997,2025-02-06 17:39:56,4
-14876,-1272,616,2092,2399,-7337,2025-02-06 17:39:56,4
-16616,-432,2756,6253,-1555,-2367,2025-02-06 17:39:56,4
-16216,-1736,1084,9399,-3340,1714,2025-02-06 17:39:56,4
-13452,-2776,-580,8483,-1912,2460,2025-02-06 17:39:56,4
-12068,-2684,-1064,4899,-2157,1803,2025-02-06 17:39:56,4
-11940,24,1104,4701,-1132,893,2025-02-06 17:39:56,4
-12860,-8,1044,5773,521,337,2025-02-06 17:39:56,4
-13604,-292,164,6292,1248,278,2025-02-06 17:39:56,4
-13516,-196,-1712,5228,1557,7,2025-02-06 17:39:56,4
-12976,-120,-352,3475,564,-949,2025-02-06 17:39:56,4
-13896,0,508,2281,295,-597,2025-02-06 17:39:56,4
-12348,12,-1044,173,1585,-945,2025-02-06 17:39:56,4
-15284,84,364,-1918,3233,-464,2025-02-06 17:39:57,4
-14368,460,504,-3027,3339,163,2025-02-06 17:39:57,4
-14196,452,1012,-2717,2986,379,2025-02-06 17:39:57,4
-13604,340,572,-1750,2618,444,2025-02-06 17:39:57,4
-12948,372,1088,-436,1900,-329,2025-02-06 17:39:57,4
-13416,672,-284,50,1553,-689,2025-02-06 17:39:57,4
-13928,728,-752,-326,1192,-1128,2025-02-06 17:39:57,4
-15116,1104,-628,-1310,804,-883,2025-02-06 17:39:57,4
-14452,704,-492,-2182,-241,-276,2025-02-06 17:39:57,4
-13616,248,-752,-2322,798,455,2025-02-06 17:39:57,4
-12456,-260,-1284,-2136,1589,449,2025-02-06 17:39:57,4
-11068,-276,-284,-1650,1848,-678,2025-02-06 17:39:57,4
-12144,-188,-836,-1183,2124,-1700,2025-02-06 17:39:57,4
-12956,-72,-2556,-1190,2249,-2037,2025-02-06 17:39:57,4
-13288,56,-2652,-1638,3082,-2065,2025-02-06 17:39:57,4
-12484,-208,-2944,-1525,3519,-1287,2025-02-06 17:39:57,4
-11068,-56,-3640,-1517,3932,-960,2025-02-06 17:39:57,4
-9516,-108,-3724,-1923,4355,-1237,2025-02-06 17:39:57,4
-8780,-544,-4192,-1809,4872,-1116,2025-02-06 17:39:57,4
-7632,-864,-2092,274,4994,-2078,2025-02-06 17:39:57,4
-8860,1108,-4232,1672,5560,-1312,2025-02-06 17:39:57,4
-6676,-28,-5412,-17,5862,-1018,2025-02-06 17:39:57,4
-6796,-576,-3888,-2818,5815,-465,2025-02-06 17:39:57,4
-5008,-668,-284,-4995,4067,-103,2025-02-06 17:39:57,4
-2336,-1224,3164,-4958,1780,-1043,2025-02-06 17:39:57,4
-2324,-1780,5056,-3395,-465,-2860,2025-02-06 17:39:57,4
-2276,-1492,5552,-892,-988,-4453,2025-02-06 17:39:57,4
-4792,-192,3604,1435,1403,-4521,2025-02-06 17:39:57,4
-7888,-116,2076,3057,1735,-2351,2025-02-06 17:39:57,4
-10140,-360,632,3153,2288,75,2025-02-06 17:39:57,4
-11968,-400,1632,1816,2755,888,2025-02-06 17:39:57,4
-14656,-984,2956,2078,3925,1289,2025-02-06 17:39:57,4
-16468,-1844,2152,1432,1058,2345,2025-02-06 17:39:57,4
-15472,-2892,-1240,-912,-2022,1844,2025-02-06 17:39:57,4
-17380,-788,-3724,-2341,-3707,463,2025-02-06 17:39:57,4
-20800,892,-3736,-2331,-2996,1008,2025-02-06 17:39:57,4
-21548,2408,-2664,-1260,-598,1752,2025-02-06 17:39:57,4
-21808,1208,-1312,-295,1474,2109,2025-02-06 17:39:57,4
-22028,-1644,-684,-427,1401,2549,2025-02-06 17:39:57,4
-22976,-4228,-984,-742,648,2251,2025-02-06 17:39:57,4
-23196,-3516,-3104,-1053,634,1396,2025-02-06 17:39:58,4
5372,-2796,9240,-6740,9138,-2410,2025-02-06 17:39:58,4
2304,-1164,14640,1718,6227,-3013,2025-02-06 17:39:58,4
1584,120,6056,4771,1303,-4703,2025-02-06 17:39:58,4
-4380,-1048,1388,1963,-1473,-5704,2025-02-06 17:39:58,4
-6160,-1248,856,522,-2503,-2284,2025-02-06 17:39:58,4
-4420,-1200,-228,-633,-1363,630,2025-02-06 17:39:58,4
748,-1712,1092,-1529,-1731,793,2025-02-06 17:39:58,4
3376,-2500,588,-1759,-2522,46,2025-02-06 17:39:58,4
5080,-2924,-228,-2119,-2775,-1711,2025-02-06 17:39:58,4
4756,-2492,-556,-2490,-2498,-3488,2025-02-06 17:39:58,4
3536,-1608,368,-2716,-1371,-4690,2025-02-06 17:39:58,4
2744,-704,1376,-2795,-666,-4588,2025-02-06 17:39:58,4
2404,140,3336,-1748,-117,-3712,2025-02-06 17:39:58,4
2020,520,4408,22,-244,-2719,2025-02-06 17:39:58,4
1748,16,4328,1433,-510,-1492,2025-02-06 17:39:58,4
1756,-396,2704,2173,-912,-419,2025-02-06 17:39:58,4
836,-48,676,1918,-826,572,2025-02-06 17:39:58,4
1012,288,-1060,1244,-880,2002,2025-02-06 17:39:58,4
1788,-12,-1976,639,-1460,2730,2025-02-06 17:39:58,4
2264,496,-2776,-41,-2700,2542,2025-02-06 17:39:58,4
276,1068,-5100,-505,-4019,2519,2025-02-06 17:39:58,4
-3528,1400,-6868,-1568,-5247,3935,2025-02-06 17:39:58,4
-7236,660,-7416,-1579,-7312,6296,2025-02-06 17:39:58,4
-8816,-1996,-7752,896,-10555,7573,2025-02-06 17:39:58,4
-6760,-2516,-7872,1413,-8178,6435,2025-02-06 17:39:58,4
-24104,-268,2880,9532,2694,2047,2025-02-06 17:39:58,4
-31252,-5372,-11700,-836,7821,-2614,2025-02-06 17:39:58,4
-32768,-7012,5908,-2762,2660,-1300,2025-02-06 17:39:58,4
-32768,-11140,-20152,-2463,4306,4863,2025-02-06 17:39:58,4
-32768,-7708,-8740,-6929,9820,1006,2025-02-06 17:39:58,4
-32768,-4948,15040,-7595,-759,-1132,2025-02-06 17:39:58,4
-32768,-3188,14176,-1749,-7459,3092,2025-02-06 17:39:58,4
-22288,-1396,10788,1772,-11799,4379,2025-02-06 17:39:58,4
-14584,-2812,7440,6317,-13067,4709,2025-02-06 17:39:58,4
-14992,-1604,1620,7417,-10750,3127,2025-02-06 17:39:58,4
-20384,228,-5028,6033,-7327,729,2025-02-06 17:39:58,4
-24292,1980,-8620,2385,-613,-949,2025-02-06 17:39:58,4
-27252,4596,-4236,-1116,5465,-2968,2025-02-06 17:39:58,4
-29104,3188,-684,-3388,7661,-2423,2025-02-06 17:39:58,4
-27564,916,428,-3886,7301,-1032,2025-02-06 17:39:58,4
-26512,-876,196,-4683,6081,206,2025-02-06 17:39:58,4
-24400,-1608,-140,-5187,3525,1173,2025-02-06 17:39:58,4
-21004,-2480,-772,-4385,1032,648,2025-02-06 17:39:58,4
-20160,-3520,-1316,-2992,1246,-417,2025-02-06 17:39:58,4
-18984,-3372,-244,-1059,1880,-1070,2025-02-06 17:39:58,4
-17684,-1860,-96,184,1796,165,2025-02-06 17:39:58,4
-15612,-1100,404,1309,1770,1686,2025-02-06 17:39:58,4
-13148,-664,-296,2791,1949,2581,2025-02-06 17:39:58,4
-11056,-16,-1320,2945,2318,3195,2025-02-06 17:39:58,4
-9956,-664,-1296,2718,2395,4697,2025-02-06 17:39:58,4
-8592,-60,-1312,2283,2413,5745,2025-02-06 17:39:58,4
-4284,1740,-1956,579,2986,5429,2025-02-06 17:39:58,4
-7088,-804,148,577,-535,5563,2025-02-06 17:39:58,4
-7532,-1756,-740,477,-1883,7462,2025-02-06 17:39:58,4
-7776,-2472,-748,-499,-2645,10272,2025-02-06 17:39:58,4
-4360,-1824,256,-1071,-2625,9406,2025-02-06 17:39:58,4
-1944,440,2516,177,-2224,4736,2025-02-06 17:39:58,4
-3592,1372,1736,1998,-2390,934,2025-02-06 17:39:58,4
-3680,1864,3180,3119,-3450,950,2025-02-06 17:39:59,4
-6568,2068,-2268,2129,-1351,-350,2025-02-06 17:39:59,4
-7472,892,-436,2351,-913,-206,2025-02-06 17:39:59,4
-9332,-368,-1292,2570,843,244,2025-02-06 17:39:59,4
-8112,-484,-3232,1867,2798,209,2025-02-06 17:39:59,4
-10544,-856,-1572,1749,3518,-455,2025-02-06 17:39:59,4
-11280,-396,-3068,1804,2207,-483,2025-02-06 17:39:59,4
-12540,1924,-3640,1069,2189,-913,2025-02-06 17:39:59,4
-17204,1396,-2412,3111,2343,1912,2025-02-06 17:39:59,4
-15028,1572,-4800,3412,3945,2083,2025-02-06 17:39:59,4
-18076,1456,-4544,4009,6939,2756,2025-02-06 17:39:59,4
-14360,1468,-4600,2725,6854,3124,2025-02-06 17:39:59,4
-13312,2408,-2440,2263,4976,2797,2025-02-06 17:39:59,4
-12016,4168,-3296,1374,-429,612,2025-02-06 17:39:59,4
-13280,4208,-2696,233,-4111,-733,2025-02-06 17:39:59,4
-14260,2152,-1200,696,-6030,-1778,2025-02-06 17:39:59,4
-15380,-320,-1692,897,-6266,-2228,2025-02-06 17:39:59,1
-16664,-556,-1676,603,-2885,-1496,2025-02-06 17:39:59,1
-15160,-520,-548,516,-70,-310,2025-02-06 17:39:59,1
-13196,372,92,654,-1231,306,2025-02-06 17:39:59,1
-10020,1036,-444,964,-1991,-401,2025-02-06 17:39:59,1
-8212,496,-2052,464,-2204,-3530,2025-02-06 17:39:59,1
-8536,-972,-3832,-1045,-1508,-8213,2025-02-06 17:39:59,1
-11588,-1976,-3292,-2213,4728,-12947,2025-02-06 17:39:59,1
-14060,-124,-2340,-1959,8927,-13886,2025-02-06 17:39:59,1
-18056,2496,-936,-1243,9597,-11204,2025-02-06 17:39:59,1
-20108,2912,-2152,-1137,9355,-5711,2025-02-06 17:39:59,1
-17980,-1544,-1744,-1763,5177,-1961,2025-02-06 17:39:59,1
-14852,652,-2388,-1575,1853,-1880,2025-02-06 17:39:59,1
-14620,1264,-3836,-3074,-1989,-2658,2025-02-06 17:39:59,1
-15280,236,-2440,-5325,-5320,-3334,2025-02-06 17:39:59,1
-14508,-2280,528,-5431,-3836,-2049,2025-02-06 17:39:59,1
-12156,-4104,-228,-2801,-1805,-139,2025-02-06 17:39:59,1
-11676,-176,-2200,-3380,-309,12,2025-02-06 17:39:59,1
-12104,588,-2728,-6355,27,529,2025-02-06 17:39:59,1
-11956,1036,-3136,-8908,-282,2089,2025-02-06 17:39:59,1
-13544,568,-504,-10633,-1926,3736,2025-02-06 17:39:59,1
-14044,-320,980,-6418,-5688,7184,2025-02-06 17:39:59,1
-14108,396,-3992,-5583,-4681,8532,2025-02-06 17:39:59,1
-11540,-1764,-2292,-7906,-1498,5955,2025-02-06 17:39:59,1
-13208,-1680,-512,-6869,3721,1798,2025-02-06 17:39:59,1
-15504,-144,1360,-4076,6531,-768,2025-02-06 17:39:59,1
-14932,1896,-1520,-3080,3935,-1406,2025-02-06 17:39:59,1
-14532,1652,-824,-6046,-205,-1361,2025-02-06 17:39:59,1
-14932,-904,-592,-3930,-5075,2247,2025-02-06 17:39:59,1
-14244,-1344,-2820,-827,-11852,7647,2025-02-06 17:39:59,1
-15568,552,5772,3084,-10887,9478,2025-02-06 17:39:59,1
-9796,1956,-1560,5418,3571,4290,2025-02-06 17:39:59,1
-13660,4976,-3116,1998,4087,1353,2025-02-06 17:39:59,1
-14400,2612,-796,-2146,2605,1146,2025-02-06 17:39:59,1
-15920,2104,-2824,-5575,863,1317,2025-02-06 17:40:00,1
-14340,1564,-856,-9905,-1633,3424,2025-02-06 17:40:00,1
-14220,1160,2488,-10633,-5463,6760,2025-02-06 17:40:00,1
-14764,404,248,-4643,-6848,7096,2025-02-06 17:40:00,1
-11892,2348,-1528,-1132,736,6135,2025-02-06 17:40:00,1
-11588,3816,-1208,644,4817,2940,2025-02-06 17:40:00,1
-14064,3164,-152,277,5171,502,2025-02-06 17:40:00,1
-15712,2232,540,830,1766,-5,2025-02-06 17:40:00,1
-13592,1792,712,2690,-2315,-324,2025-02-06 17:40:00,1
-13588,2372,-1432,4205,-2662,-3710,2025-02-06 17:40:00,1
-13796,2000,-1516,1027,409,-2813,2025-02-06 17:40:00,1
-12788,568,1304,808,2821,-2402,2025-02-06 17:40:00,1
-12756,200,2080,3403,1580,-2974,2025-02-06 17:40:00,1
-14084,484,1232,4453,569,-3308,2025-02-06 17:40:00,1
-13944,832,412,2655,1103,-2212,2025-02-06 17:40:00,1
-13396,1232,204,2643,835,-2351,2025-02-06 17:40:00,1
-13484,1344,460,2767,1343,-2176,2025-02-06 17:40:00,1
-14380,1728,188,2650,2175,-1379,2025-02-06 17:40:00,1
-13912,1484,476,2250,2525,-898,2025-02-06 17:40:00,1
-14264,1176,672,2578,1594,-1047,2025-02-06 17:40:00,1
-14372,1356,504,2357,947,-874,2025-02-06 17:40:00,1
-13864,1436,324,1845,718,-701,2025-02-06 17:40:00,1
-13660,1220,332,1454,585,-843,2025-02-06 17:40:00,1
-13780,1724,104,1112,408,-865,2025-02-06 17:40:00,1
-13520,2360,-608,-380,715,-827,2025-02-06 17:40:00,1
-13540,1688,-596,-563,915,-1084,2025-02-06 17:40:00,1
-13028,1228,-676,-1411,1627,-1229,2025-02-06 17:40:00,1
-12196,-168,36,-1101,2469,-2146,2025-02-06 17:40:00,1
-12440,-1468,48,310,2976,-3108,2025-02-06 17:40:00,1
-13532,-1296,-700,871,3591,-3242,2025-02-06 17:40:00,1
-13696,-1024,-936,444,4610,-3400,2025-02-06 17:40:00,1
-13784,-1048,-380,-123,5282,-4124,2025-02-06 17:40:00,1
-14536,-1200,-464,-911,4799,-4445,2025-02-06 17:40:00,1
-15040,-1456,0,-1335,4007,-4802,2025-02-06 17:40:00,1
-15832,-2012,636,-1289,2477,-4531,2025-02-06 17:40:00,1
-15480,-2128,1160,-902,984,-4028,2025-02-06 17:40:00,1
-14644,-1348,964,-713,218,-3816,2025-02-06 17:40:00,1
-13764,-940,764,-1068,-186,-3745,2025-02-06 17:40:00,1
-12896,-1692,212,-970,-48,-3930,2025-02-06 17:40:00,1
-12416,-2680,-316,-947,371,-4517,2025-02-06 17:40:00,1
-13204,-2316,-1060,-1168,1227,-4782,2025-02-06 17:40:00,1
-13564,-2464,-556,-1411,1531,-4607,2025-02-06 17:40:00,1
-13452,-2820,128,-1354,1485,-4450,2025-02-06 17:40:00,1
-13036,-3144,432,-1124,1064,-4406,2025-02-06 17:40:00,7
-12992,-3148,-304,-1499,838,-4249,2025-02-06 17:40:00,7
-12620,-3248,-440,-1937,919,-4114,2025-02-06 17:40:00,7
-12792,-3388,-600,-1472,983,-3857,2025-02-06 17:40:00,7
-13080,-2972,-132,-933,1008,-3396,2025-02-06 17:40:00,7
-13356,-2352,152,-648,597,-2939,2025-02-06 17:40:00,7
-13616,-2352,116,-769,-173,-2358,2025-02-06 17:40:00,7
-13024,-2540,24,-728,-925,-1719,2025-02-06 17:40:00,7
-12764,-3024,388,-398,-919,-1138,2025-02-06 17:40:00,7
-12888,-3444,-168,-267,-318,-405,2025-02-06 17:40:00,7
-12708,-3504,-196,-222,350,517,2025-02-06 17:40:00,7
-12672,-4012,88,-337,958,1000,2025-02-06 17:40:00,7
-12756,-4248,844,-527,1384,1256,2025-02-06 17:40:00,7
-13392,-3852,876,-387,1652,1256,2025-02-06 17:40:00,7
-14516,-3568,900,-161,1636,1413,2025-02-06 17:40:00,7
-15020,-3116,1216,53,1136,1395,2025-02-06 17:40:00,7
-14948,-2428,692,104,-9,1281,2025-02-06 17:40:00,7
-15044,-2244,552,-146,-899,1130,2025-02-06 17:40:00,7
-15216,-2012,868,-335,-798,1224,2025-02-06 17:40:00,7
-14692,-2136,792,-692,-514,1237,2025-02-06 17:40:01,7
-14580,-2640,324,-1108,-410,1032,2025-02-06 17:40:01,7
-14596,-2892,-296,-1418,-448,809,2025-02-06 17:40:01,7
-14804,-3432,-1848,-1989,80,108,2025-02-06 17:40:01,7
-15720,-3612,-420,-2047,998,-777,2025-02-06 17:40:01,7
-16240,-4464,288,-1104,1229,-1334,2025-02-06 17:40:01,7
-16988,-6256,-1764,-291,177,-1625,2025-02-06 17:40:01,7
-17648,-7256,-3236,201,-460,-1400,2025-02-06 17:40:01,7
-17496,-8188,-3624,790,-761,-976,2025-02-06 17:40:01,7
-17048,-7840,-2612,2312,-2565,1369,2025-02-06 17:40:01,7
-14180,-5012,-1836,4903,-5311,5119,2025-02-06 17:40:01,7
-10468,-2536,-3724,5214,-6907,6201,2025-02-06 17:40:01,7
-8892,232,-4596,4782,-5836,5178,2025-02-06 17:40:01,7
-8908,2064,-4496,4411,-2867,3178,2025-02-06 17:40:01,7
-10440,2068,-3688,4868,671,1115,2025-02-06 17:40:01,7
-12948,-188,-4092,4951,3107,905,2025-02-06 17:40:01,7
-13828,-2352,-2984,4962,4153,1302,2025-02-06 17:40:01,7
-13788,-3444,-1904,5560,2719,1729,2025-02-06 17:40:01,7
-14116,-4140,-1880,6425,1773,2526,2025-02-06 17:40:01,7
-13968,-4176,-2152,7518,1921,3270,2025-02-06 17:40:01,7
-12748,-3432,-2784,8560,2894,3741,2025-02-06 17:40:01,7
-11580,-2672,-2668,9655,3210,3479,2025-02-06 17:40:01,7
-11148,-1568,-3520,10530,2584,3033,2025-02-06 17:40:01,7
-11180,-1144,-3868,11228,2425,2759,2025-02-06 17:40:01,7
-11756,-988,-4256,12039,3564,2690,2025-02-06 17:40:01,7
-11660,-736,-4104,12548,4897,2666,2025-02-06 17:40:01,7
-11636,-740,-3416,13085,5753,2539,2025-02-06 17:40:01,7
-12120,-876,-3572,13784,6019,2532,2025-02-06 17:40:01,7
-12540,-932,-3636,14315,6156,2593,2025-02-06 17:40:01,7
-12992,-1172,-4104,14464,6016,2595,2025-02-06 17:40:01,7
-13552,-1176,-3536,14647,4885,2625,2025-02-06 17:40:01,7
-14016,-992,-2760,14761,3044,2687,2025-02-06 17:40:01,7
-13928,-1096,-2864,15382,468,2662,2025-02-06 17:40:01,7
-13524,-1524,-3008,15881,-1552,2680,2025-02-06 17:40:01,7
-12692,-2252,-2720,16260,-2956,2420,2025-02-06 17:40:01,7
-12400,-2412,-2388,16883,-3588,1804,2025-02-06 17:40:01,7
-13044,-3124,-2240,17416,-2534,1203,2025-02-06 17:40:01,7
-14004,-2944,-2820,18022,71,1247,2025-02-06 17:40:01,7
-15160,-840,-3600,18740,3088,2366,2025-02-06 17:40:01,7
-13080,-448,-4768,18944,4215,3293,2025-02-06 17:40:01,7
-12268,-664,-7340,18330,4263,3752,2025-02-06 17:40:01,7
-10760,-848,-8572,17266,5474,3768,2025-02-06 17:40:01,7
-10364,-824,-8228,16214,7500,3158,2025-02-06 17:40:01,7
-10796,-1148,-6032,15220,9345,2061,2025-02-06 17:40:01,7
-13040,-460,-3332,15375,9459,1465,2025-02-06 17:40:01,7
-14356,-2900,-2656,15606,9464,1950,2025-02-06 17:40:01,7
-14340,-7076,-1612,16412,7148,2095,2025-02-06 17:40:01,7
-14412,-8036,-2508,17525,3488,3248,2025-02-06 17:40:01,7
-13044,-7348,-3440,17954,-224,4096,2025-02-06 17:40:01,7
-12888,-6008,-4596,17891,-1953,4969,2025-02-06 17:40:01,7
-12444,-4700,-5372,17319,-1472,6041,2025-02-06 17:40:01,7
-11980,-3772,-4532,16811,482,6638,2025-02-06 17:40:01,7
-12124,-3768,-3248,16484,2331,6525,2025-02-06 17:40:01,7
-12624,-3856,-2068,16679,3872,6001,2025-02-06 17:40:01,7
-13372,-4352,-1388,17210,4590,5588,2025-02-06 17:40:01,7
-13956,-4796,-1020,17477,3953,5447,2025-02-06 17:40:01,7
-14540,-4840,-772,17640,2622,5452,2025-02-06 17:40:01,7
-14748,-4660,-900,17813,786,5547,2025-02-06 17:40:02,7
-14728,-4476,-892,18195,-765,5749,2025-02-06 17:40:02,7
-13384,-4516,-584,18787,-1007,5720,2025-02-06 17:40:02,7
-12276,-4156,-1864,18840,-776,5580,2025-02-06 17:40:02,7
-11472,-3836,-2496,18394,-298,5209,2025-02-06 17:40:02,7
-10908,-4056,-2984,17642,930,4729,2025-02-06 17:40:02,7
-11184,-4180,-3028,16906,2128,4654,2025-02-06 17:40:02,7
-11444,-4276,-2556,16604,2881,4851,2025-02-06 17:40:02,7
-13616,-4116,-2476,15829,3275,6408,2025-02-06 17:40:02,7
-14548,-3936,-2308,15744,2495,6636,2025-02-06 17:40:02,7
-14748,-3748,-2044,16172,968,7238,2025-02-06 17:40:02,7
-14144,-4388,-2496,16726,-69,7156,2025-02-06 17:40:02,7
-13548,-3380,-2936,17301,-1118,6687,2025-02-06 17:40:02,7
-13020,-1840,-3956,17559,-1753,6124,2025-02-06 17:40:02,7
-12048,-660,-5004,17200,-1228,4696,2025-02-06 17:40:02,7
-11704,-452,-6808,16915,952,2792,2025-02-06 17:40:02,7
-12420,340,-7352,16480,2803,2561,2025-02-06 17:40:02,7
-12448,1256,-6572,14644,959,4114,2025-02-06 17:40:02,7
-12052,1620,-4180,13767,-1398,4251,2025-02-06 17:40:02,7
-13060,576,-3376,13153,-521,3189,2025-02-06 17:40:02,7
-14536,-464,-3368,12816,1905,3226,2025-02-06 17:40:02,7
-14880,-1192,-3284,12551,3873,4169,2025-02-06 17:40:02,7
-14180,-1080,-2540,12292,4110,4622,2025-02-06 17:40:02,7
-14500,-644,-2324,12319,3415,4744,2025-02-06 17:40:02,7
-14340,-816,-2740,12382,2392,5001,2025-02-06 17:40:02,7
-13408,-508,-4416,12451,1433,5192,2025-02-06 17:40:02,7
-12504,-48,-5848,12030,1019,5005,2025-02-06 17:40:02,7
-11640,528,-6116,11329,1303,4297,2025-02-06 17:40:02,7
-12296,932,-4584,11191,1947,3220,2025-02-06 17:40:02,7
-13132,860,-4096,10974,2296,3453,2025-02-06 17:40:02,7
-13124,632,-3720,10663,2889,3708,2025-02-06 17:40:02,7
-12728,288,-3780,10395,3269,3700,2025-02-06 17:40:02,7
-12364,220,-4300,9934,3387,3571,2025-02-06 17:40:02,7
-12044,152,-4556,9426,3484,3257,2025-02-06 17:40:02,7
-12256,564,-4324,9140,3719,3053,2025-02-06 17:40:02,7
-12196,360,-4444,8848,3913,2944,2025-02-06 17:40:02,7
-12324,104,-4008,8654,3928,2789,2025-02-06 17:40:02,7
-12316,188,-4108,8433,3533,2644,2025-02-06 17:40:02,7
-12372,92,-3616,8016,2786,2396,2025-02-06 17:40:02,7
-12644,272,-3276,7937,1891,2001,2025-02-06 17:40:02,7
-12856,748,-3512,7765,1386,1832,2025-02-06 17:40:02,7
-12568,660,-3704,7462,934,1546,2025-02-06 17:40:02,7
-11936,712,-3820,7412,657,738,2025-02-06 17:40:02,7
-12340,900,-4328,7213,718,-60,2025-02-06 17:40:02,7
-12700,384,-4180,6492,940,-517,2025-02-06 17:40:02,7
-12896,-44,-3416,6086,446,-968,2025-02-06 17:40:02,7
-13160,-28,-3608,5810,-150,-1326,2025-02-06 17:40:02,7
-13216,-368,-4128,5326,157,-1758,2025-02-06 17:40:02,7
-14048,-332,-5028,4838,1696,-1612,2025-02-06 17:40:02,7
-14792,-104,-5984,4169,3810,-480,2025-02-06 17:40:02,7
-14328,-332,-4944,3712,5079,571,2025-02-06 17:40:02,7
-13484,-1016,-3968,3771,4178,574,2025-02-06 17:40:02,7
-12780,-760,-3984,3957,525,186,2025-02-06 17:40:02,7
-11820,-664,-4792,4276,-4191,-630,2025-02-06 17:40:02,7
-11820,-876,-5312,4083,-7911,-1374,2025-02-06 17:40:02,7
-12608,-1592,-5252,3380,-10213,-1893,2025-02-06 17:40:02,7
-13272,-2580,-4584,2551,-10909,-1939,2025-02-06 17:40:02,7
-13792,-2924,-3308,1890,-10706,-1607,2025-02-06 17:40:02,7
-13104,-2820,-2476,1701,-10384,-1286,2025-02-06 17:40:02,7
-12860,-2120,-1680,1659,-9875,-1071,2025-02-06 17:40:02,7
-12424,-1708,-1508,1272,-9035,-1130,2025-02-06 17:40:02,7
-12596,-1840,496,841,-6939,-1415,2025-02-06 17:40:03,7
-11716,-2468,-1056,1175,546,-980,2025-02-06 17:40:03,7
-12384,-2272,-1732,778,1892,-1390,2025-02-06 17:40:03,7
-13544,-2144,-1532,366,1778,-1835,2025-02-06 17:40:03,7
-14332,-2512,-560,102,1177,-1964,2025-02-06 17:40:03,7
-14964,-2744,-840,-143,-77,-1836,2025-02-06 17:40:03,7
-14936,-2552,-1368,-351,-1736,-1563,2025-02-06 17:40:03,7
-14568,-2440,-1152,-542,-3269,-1161,2025-02-06 17:40:03,7
-13412,-2560,-652,-623,-3522,-881,2025-02-06 17:40:03,7
-12276,-2768,-1748,-1249,-2700,-1116,2025-02-06 17:40:03,7
-12308,-2960,-1852,-1998,-1289,-1601,2025-02-06 17:40:03,7
-12520,-3280,-1420,-2509,79,-1808,2025-02-06 17:40:03,1
-13048,-3476,-588,-2776,597,-1933,2025-02-06 17:40:03,1
-13484,-3876,-324,-2790,479,-2038,2025-02-06 17:40:03,1
-13740,-4032,32,-2474,17,-1926,2025-02-06 17:40:03,1
-13360,-4048,-224,-2090,-472,-1871,2025-02-06 17:40:03,1
-12844,-3812,-572,-1921,-420,-1959,2025-02-06 17:40:03,1
-12644,-3644,-580,-2112,-227,-2154,2025-02-06 17:40:03,1
-12564,-3488,-856,-2455,256,-2436,2025-02-06 17:40:03,1
-12868,-3308,-580,-2749,691,-2639,2025-02-06 17:40:03,1
-13104,-3472,-284,-2825,733,-2678,2025-02-06 17:40:03,1
-13324,-3456,-124,-2733,593,-2432,2025-02-06 17:40:03,1
-13384,-3736,824,-2423,559,-1928,2025-02-06 17:40:03,1
-12920,-3484,824,-2089,1291,-1708,2025-02-06 17:40:03,1
-13104,-3196,-1912,-2559,297,-2106,2025-02-06 17:40:03,1
-13624,-3008,-1868,-2684,-707,-2380,2025-02-06 17:40:03,1
-13328,-3488,-940,-2105,-947,-2242,2025-02-06 17:40:03,1
-13184,-3788,-888,-2089,-1368,-1992,2025-02-06 17:40:03,1
-12816,-4268,-444,-2554,-1099,-2091,2025-02-06 17:40:03,1
-12632,-4680,280,-2625,-309,-2006,2025-02-06 17:40:03,1
-12084,-4788,528,-2307,499,-1782,2025-02-06 17:40:03,1
-11844,-4460,336,-2149,1217,-1752,2025-02-06 17:40:03,1
-12408,-4696,508,-2227,1894,-1735,2025-02-06 17:40:03,1
-13184,-5008,880,-1986,2093,-1219,2025-02-06 17:40:03,1
-13112,-5160,968,-1414,1932,-584,2025-02-06 17:40:03,1
-12996,-4720,1252,-1022,1766,-261,2025-02-06 17:40:03,1
-12908,-4400,1276,-833,2274,89,2025-02-06 17:40:03,1
-12924,-4332,-504,-1151,2000,19,2025-02-06 17:40:03,1
-13236,-4104,-1092,-1465,1705,-222,2025-02-06 17:40:03,1
-13104,-3952,-476,-1478,2248,-174,2025-02-06 17:40:03,1
-13168,-3948,-316,-1758,2479,-146,2025-02-06 17:40:03,1
-13600,-4028,-484,-2211,2428,-457,2025-02-06 17:40:03,1
-14228,-4448,-416,-2579,2075,-869,2025-02-06 17:40:03,1
-15004,-4740,556,-2711,1754,-652,2025-02-06 17:40:03,1
-15156,-4800,1864,-2421,1622,-55,2025-02-06 17:40:03,1
-14340,-5020,1672,-2079,1547,359,2025-02-06 17:40:03,1
-14032,-6236,-1008,-2803,1812,-815,2025-02-06 17:40:03,1
-15596,-6584,-820,-3480,2951,-2357,2025-02-06 17:40:03,1
-17956,-6936,568,-2737,3239,-2915,2025-02-06 17:40:03,1
-19916,-7420,228,-993,1382,-2052,2025-02-06 17:40:03,1
-20540,-7052,-860,1381,-1586,-64,2025-02-06 17:40:03,1
-18260,-6872,-2260,3022,-5067,1206,2025-02-06 17:40:03,1
-15984,-7088,-2392,4199,-8378,2499,2025-02-06 17:40:03,1
-12520,-7252,-1532,5795,-8421,4477,2025-02-06 17:40:03,1
-9348,-6104,-4172,5929,-6935,5806,2025-02-06 17:40:03,1
-7884,-4248,-5996,5362,-4542,5927,2025-02-06 17:40:03,1
-7216,-1936,-6844,4258,-1739,4615,2025-02-06 17:40:03,1
-8532,544,-6356,2847,1698,2126,2025-02-06 17:40:03,1
-13364,1416,-3852,1603,5511,1290,2025-02-06 17:40:03,1
-16768,168,-1284,1891,9366,2871,2025-02-06 17:40:04,1
-16332,-2044,-496,2894,10055,4556,2025-02-06 17:40:04,1
-14144,-3308,-2232,3551,7793,5490,2025-02-06 17:40:04,1
-13332,-4172,-4228,3255,5150,5641,2025-02-06 17:40:04,1
-13000,-4528,-5272,2155,2662,5577,2025-02-06 17:40:04,1
-13376,-4080,-4184,1391,1391,5610,2025-02-06 17:40:04,1
-14140,-3284,-2396,1740,1330,6221,2025-02-06 17:40:04,1
-13996,-2468,-1500,2616,1251,7150,2025-02-06 17:40:04,1
-13604,-1508,-908,3391,474,7873,2025-02-06 17:40:04,1
-9548,1000,4512,4713,-2428,2054,2025-02-06 17:40:04,1
-9316,1108,-824,3158,683,1218,2025-02-06 17:40:04,1
-9680,908,260,2341,2006,-39,2025-02-06 17:40:04,1
-11368,516,1452,2225,1917,-647,2025-02-06 17:40:04,1
-13292,-312,2392,2057,1442,-568,2025-02-06 17:40:04,1
-14752,-396,2020,1773,754,125,2025-02-06 17:40:04,1
-16092,-188,1800,1468,-653,1334,2025-02-06 17:40:04,1
-16080,472,824,1287,-2038,2451,2025-02-06 17:40:04,1
-15456,1468,48,1643,-2860,3228,2025-02-06 17:40:04,1
-14616,1136,-1996,1480,-2494,3529,2025-02-06 17:40:04,1
-14384,548,-1936,599,-1495,3268,2025-02-06 17:40:04,1
-15760,1140,260,503,-1475,4141,2025-02-06 17:40:04,1
-16252,460,1808,1077,-2268,5030,2025-02-06 17:40:04,1
-15868,-928,1940,1752,-3351,4946,2025-02-06 17:40:04,1
-15764,-1580,920,2471,-2617,4047,2025-02-06 17:40:04,1
-16700,336,256,3597,-200,3431,2025-02-06 17:40:04,1
-18004,3492,-1456,4412,4364,4469,2025-02-06 17:40:04,1
-17284,5504,-3392,3497,9165,5219,2025-02-06 17:40:04,1
-14616,8036,-5144,1778,14510,3581,2025-02-06 17:40:04,1
-12724,9540,-5784,505,16743,24,2025-02-06 17:40:04,1
-11152,7404,-6824,-366,14315,-3495,2025-02-06 17:40:04,1
-10452,3388,-7432,-1021,7653,-6156,2025-02-06 17:40:04,1
-10416,64,-6524,-731,-1536,-8306,2025-02-06 17:40:04,1
-11632,-2600,-6904,-910,-9193,-9601,2025-02-06 17:40:04,1
-13564,-4296,-7220,-3169,-12918,-9675,2025-02-06 17:40:04,1
-16144,-3920,-4816,-6255,-12617,-7436,2025-02-06 17:40:04,1
-15248,-2064,-468,-6409,-9524,-4828,2025-02-06 17:40:04,1
-12308,-1588,7988,-2718,-2783,-3961,2025-02-06 17:40:04,1
-10312,-340,-2636,-2614,-449,-3760,2025-02-06 17:40:04,1
-9996,-184,-3344,-3507,115,-5394,2025-02-06 17:40:04,1
-10804,-244,-3828,-4331,334,-6687,2025-02-06 17:40:04,1
-11080,-724,-2680,-4893,830,-6794,2025-02-06 17:40:04,1
-11452,-1072,-392,-4723,1594,-6542,2025-02-06 17:40:04,1
-11492,-1340,80,-4015,708,-6106,2025-02-06 17:40:04,1
-11260,-1336,-1096,-3954,-212,-5995,2025-02-06 17:40:04,1
-11484,-1696,-1536,-4365,-394,-5821,2025-02-06 17:40:04,1
-11440,-2508,-772,-4526,-550,-5510,2025-02-06 17:40:04,1
-11756,-3796,120,-3921,231,-4705,2025-02-06 17:40:04,1
-11848,-4396,584,-2670,1299,-3468,2025-02-06 17:40:04,1
-12204,-4048,-44,-1993,1916,-2579,2025-02-06 17:40:04,1
-12832,-3656,-768,-2167,2292,-2073,2025-02-06 17:40:04,1
-13424,-3260,-608,-1876,2531,-1154,2025-02-06 17:40:04,1
-13404,-3188,-600,-1585,2219,83,2025-02-06 17:40:04,1
-12520,-2676,-1116,-1727,948,643,2025-02-06 17:40:04,1
-11912,-2828,-1088,-1683,-243,506,2025-02-06 17:40:04,1
-12516,-3376,772,-873,-1217,390,2025-02-06 17:40:04,1
-11312,-4144,588,174,888,473,2025-02-06 17:40:04,1
-11152,-3660,-992,45,2230,-196,2025-02-06 17:40:04,1
-12800,-2716,-1684,-980,2684,-1337,2025-02-06 17:40:04,1
-14128,-2236,-1244,-1968,2457,-2344,2025-02-06 17:40:05,1
-14688,-1656,-828,-2600,643,-3309,2025-02-06 17:40:05,1
-14680,-1336,-468,-2729,-3069,-4110,2025-02-06 17:40:05,1
-16072,-1720,-496,-2660,-5607,-3703,2025-02-06 17:40:05,1
-15856,-2852,500,-3198,-4428,-3043,2025-02-06 17:40:05,1
-14868,-2804,-452,-4737,-2732,-2595,2025-02-06 17:40:05,1
-14044,-2916,16,-6060,-1943,-2293,2025-02-06 17:40:05,1
-13432,-3676,1672,-7182,-501,-2211,2025-02-06 17:40:05,1
-14012,-4800,-760,-7943,1227,-2725,2025-02-06 17:40:05,1
-15828,-5192,-1288,-8167,3226,-4096,2025-02-06 17:40:05,1
-17800,-5900,296,-7733,4325,-5581,2025-02-06 17:40:05,1
-19480,-6956,848,-5868,3547,-6351,2025-02-06 17:40:05,1
-21264,-7824,-1852,-2964,4174,-4545,2025-02-06 17:40:05,1
-20052,-7660,-4996,-1621,4778,-1331,2025-02-06 17:40:05,1
-17188,-5248,-5880,-1427,2611,1577,2025-02-06 17:40:05,1
-14252,-4344,-6928,-1606,-1414,3759,2025-02-06 17:40:05,1
-11268,-3112,-7780,-2063,-4358,4277,2025-02-06 17:40:05,1
-10368,-608,-7232,-2866,-4962,3175,2025-02-06 17:40:05,1
-10868,1280,-5492,-3242,-3818,2392,2025-02-06 17:40:05,1
-12288,1732,-3740,-2801,-1308,2443,2025-02-06 17:40:05,1
-13216,624,-2588,-2028,1766,3130,2025-02-06 17:40:05,1
-12608,-1116,-2068,-1331,3068,3873,2025-02-06 17:40:05,1
-12756,-2256,-2924,-828,3252,4493,2025-02-06 17:40:05,1
-10996,-3604,-4344,-1367,2430,4320,2025-02-06 17:40:05,1
-10980,-3360,-3892,-1519,1185,3699,2025-02-06 17:40:05,1
-12080,-3288,-3452,-1370,1377,3477,2025-02-06 17:40:05,1
-12940,-2828,-2452,-1227,2363,3939,2025-02-06 17:40:05,1
-13068,-1196,-1544,-674,2563,5058,2025-02-06 17:40:05,1
-12176,-424,-1864,-463,1815,5733,2025-02-06 17:40:05,1
-11744,924,-1764,-126,682,5966,2025-02-06 17:40:05,1
-11084,1760,-2448,171,-350,5707,2025-02-06 17:40:05,1
-10772,2172,-2640,152,-1387,4962,2025-02-06 17:40:05,1
-10844,2340,-2532,-106,-2471,3958,2025-02-06 17:40:05,1
-10920,1984,-1668,-288,-4133,2823,2025-02-06 17:40:05,1
-11456,1208,-836,-279,-6231,2134,2025-02-06 17:40:05,1
-11820,328,-820,-66,-8032,1951,2025-02-06 17:40:05,1
-11088,236,-552,-62,-9251,1384,2025-02-06 17:40:05,1
-10552,652,-488,-608,-10193,475,2025-02-06 17:40:05,1
-10816,1040,1036,-1318,-10071,-496,2025-02-06 17:40:05,1
-9620,836,4256,-580,-2608,-943,2025-02-06 17:40:05,1
-10796,116,732,-192,-982,-927,2025-02-06 17:40:05,1
-11624,24,-832,-162,-61,-1169,2025-02-06 17:40:05,1
-12848,208,-868,-241,1220,-1128,2025-02-06 17:40:05,1
-14628,48,452,240,3493,-638,2025-02-06 17:40:05,1
-16192,-700,1660,1615,5619,257,2025-02-06 17:40:05,1
-17140,-2272,2148,2903,6590,1240,2025-02-06 17:40:05,1
-17308,-3392,1648,3688,5920,1989,2025-02-06 17:40:05,1
-18056,-1144,2328,5209,4025,3574,2025-02-06 17:40:05,1
-16968,1040,1692,6965,843,4959,2025-02-06 17:40:05,1
-15192,2052,376,7022,-2975,4655,2025-02-06 17:40:05,1
-14456,3332,-548,6837,-4838,2948,2025-02-06 17:40:05,1
-15700,4320,-1256,6513,-3131,1513,2025-02-06 17:40:05,1
-17108,5792,-1100,6360,-790,2652,2025-02-06 17:40:05,1
-17104,6076,-2520,6030,1766,3469,2025-02-06 17:40:05,1
-17052,5748,-5244,4591,5705,3016,2025-02-06 17:40:05,1
-16592,4276,-7516,2026,8805,2252,2025-02-06 17:40:05,1
-14740,2164,-8336,42,9432,1390,2025-02-06 17:40:05,1
-11436,-736,-8320,-345,5631,-174,2025-02-06 17:40:05,1
-9660,-3100,-9036,-704,-1426,-2224,2025-02-06 17:40:05,1
-9352,-3608,-8668,-2002,-8478,-3629,2025-02-06 17:40:05,7
-10004,-3456,-7096,-3449,-13635,-4398,2025-02-06 17:40:06,7
-12736,-1680,-1420,-2213,8445,-3260,2025-02-06 17:40:06,7
-14252,-1432,-3428,-1279,11932,-2433,2025-02-06 17:40:06,7
-13948,-596,-4288,-1750,13503,-2592,2025-02-06 17:40:06,7
-13212,-204,-3884,-1441,13325,-3874,2025-02-06 17:40:06,7
-13324,-692,-4292,-156,11857,-4605,2025-02-06 17:40:06,7
-12892,-1192,-4748,629,9356,-4973,2025-02-06 17:40:06,7
-12332,-1692,-5120,617,5876,-5054,2025-02-06 17:40:06,7
-11956,-2248,-5584,218,1956,-5026,2025-02-06 17:40:08,7
-11816,-2700,-5320,-437,-1240,-5036,2025-02-06 17:40:08,7
-11452,-2564,-4488,-1181,-3515,-5124,2025-02-06 17:40:08,7
-11140,-2632,-3768,-1701,-5542,-5167,2025-02-06 17:40:08,7
-12572,-1180,784,-3691,2181,905,2025-02-06 17:40:08,7
-13256,-924,712,-3707,2585,1063,2025-02-06 17:40:08,7
-13968,-1588,-40,-3652,2712,1359,2025-02-06 17:40:08,7
-14596,-2528,-132,-3897,3001,1026,2025-02-06 17:40:08,7
-14828,-1756,-2112,-3001,3540,-1701,2025-02-06 17:40:08,7
-14160,136,-1828,-12485,-6024,1133,2025-02-06 17:40:08,7
-11744,344,-2308,-11787,-5313,1142,2025-02-06 17:40:08,7
-10152,440,-2888,-11612,-2838,558,2025-02-06 17:40:08,7
-9516,148,-2200,-11943,104,-516,2025-02-06 17:40:08,7
-11028,-312,-1448,-11909,2816,-1638,2025-02-06 17:40:08,7
-12696,-416,-364,-11104,3544,-1567,2025-02-06 17:40:08,7
-13912,76,-20,-10082,2774,-1552,2025-02-06 17:40:08,7
-14988,984,-640,-9414,990,-1429,2025-02-06 17:40:08,7
-15088,2196,-1420,-8990,-697,-1097,2025-02-06 17:40:08,7
-13992,2680,-1612,-8680,-1752,-1141,2025-02-06 17:40:08,7
-13284,3200,-2756,-8745,-2140,-1136,2025-02-06 17:40:08,7
-12060,3140,-2972,-9248,-1717,-1471,2025-02-06 17:40:08,7
-11096,2264,-2824,-9924,-1062,-2095,2025-02-06 17:40:08,7
-11156,1612,-2100,-10438,81,-2467,2025-02-06 17:40:08,7
-11232,1296,-1844,-10587,1402,-2697,2025-02-06 17:40:08,7
-11768,988,-1732,-10603,1770,-3390,2025-02-06 17:40:08,7
-12624,1548,-1436,-10408,1520,-3956,2025-02-06 17:40:08,7
-13224,1832,-1464,-10000,1086,-4067,2025-02-06 17:40:08,7
-13504,1564,-1968,-9669,614,-4062,2025-02-06 17:40:08,7
-13872,1176,-2236,-9351,303,-4026,2025-02-06 17:40:08,7
-13928,976,-2360,-8880,14,-3854,2025-02-06 17:40:08,7
-13544,524,-2196,-8153,-140,-3596,2025-02-06 17:40:08,7
-13068,464,-2996,-7575,-230,-3351,2025-02-06 17:40:08,7
-12752,-156,-2552,-7271,372,-3409,2025-02-06 17:40:08,7
-12340,-900,-1800,-6583,1572,-3387,2025-02-06 17:40:08,7
-12628,-860,-1628,-5803,2876,-3274,2025-02-06 17:40:08,7
-12968,-280,-2100,-5214,3588,-3280,2025-02-06 17:40:08,7
-13896,208,-2968,-4825,3670,-3438,2025-02-06 17:40:08,7
-14516,216,-3900,-4734,3253,-3339,2025-02-06 17:40:08,7
-15344,-592,-4128,-4834,3051,-2907,2025-02-06 17:40:08,7
-15568,-2160,-2644,-4530,3163,-2079,2025-02-06 17:40:08,7
-14324,-3680,-2224,-3553,1454,-1769,2025-02-06 17:40:08,7
-13432,-2808,-2824,-2701,-1051,-2145,2025-02-06 17:40:08,7
-13704,-692,-4044,-2207,-815,-2044,2025-02-06 17:40:08,7
-12516,-404,-2968,-1838,752,-2228,2025-02-06 17:40:08,7
-12168,-1728,-1860,-1860,1310,-2765,2025-02-06 17:40:09,7
-12600,-2460,-1640,-1803,1155,-3257,2025-02-06 17:40:09,7
-13968,-2776,-2512,-1831,1561,-2965,2025-02-06 17:40:09,2
-14532,-2884,-2216,-1900,1500,-2114,2025-02-06 17:40:09,2
-14248,-1692,-1444,-1736,348,-1382,2025-02-06 17:40:09,2
-13824,-1360,-1064,-1547,-558,-955,2025-02-06 17:40:09,2
-13312,-1884,-936,-1452,-1032,-612,2025-02-06 17:40:09,2
-12916,-2764,-1060,-1613,-942,-188,2025-02-06 17:40:09,2
-13080,-3400,-1620,-2056,-699,-43,2025-02-06 17:40:09,2
-13520,-3360,-1396,-2471,-724,-17,2025-02-06 17:40:09,2
-13932,-2852,-468,-2300,-1269,132,2025-02-06 17:40:09,2
-13652,-2572,-104,-1881,-2169,415,2025-02-06 17:40:09,2
-13716,-2540,-600,-1690,-3106,942,2025-02-06 17:40:09,2
-13420,-2544,-1148,-1200,-3324,1485,2025-02-06 17:40:09,2
-13200,-3036,-2664,-922,-2999,1803,2025-02-06 17:40:09,2
-12840,-3100,-3244,-768,-2105,1890,2025-02-06 17:40:09,2
-12744,-2004,-2848,-427,924,1408,2025-02-06 17:40:09,2
-13400,-1980,-3020,-653,1231,952,2025-02-06 17:40:09,2
-13976,-1240,-3184,-60,1491,104,2025-02-06 17:40:09,2
-14856,-1044,-3848,299,1044,-620,2025-02-06 17:40:09,2
-14800,-1112,-3236,680,-50,-495,2025-02-06 17:40:09,2
-13276,-1484,-3604,1348,-818,-48,2025-02-06 17:40:09,2
-12104,-1376,-4276,1036,-698,267,2025-02-06 17:40:09,2
-11704,-1120,-4624,198,12,219,2025-02-06 17:40:09,2
-12060,-1176,-4424,-218,369,144,2025-02-06 17:40:09,2
-12548,-1360,-4452,-323,344,-18,2025-02-06 17:40:09,2
-12780,-1056,-4372,-449,170,-158,2025-02-06 17:40:09,2
-12600,-976,-3940,-635,28,-206,2025-02-06 17:40:09,2
-12256,-804,-3588,-529,-205,-139,2025-02-06 17:40:09,2
-11824,-276,-3892,-273,-574,-83,2025-02-06 17:40:09,2
-11304,-12,-4304,-384,-404,-40,2025-02-06 17:40:09,2
-10368,-428,-3888,-535,410,-112,2025-02-06 17:40:09,2
-9732,-1012,-4420,-827,1269,-514,2025-02-06 17:40:09,2
-9680,-1592,-4776,-1094,1926,-1082,2025-02-06 17:40:09,2
-9728,-1780,-3916,-1109,2932,-1557,2025-02-06 17:40:09,2
-10184,-1996,-3372,-841,4604,-1612,2025-02-06 17:40:09,2
-10780,-2112,-2848,-512,5819,-1495,2025-02-06 17:40:09,2
-10804,-2244,-2776,-250,5715,-1745,2025-02-06 17:40:09,2
-10900,-2432,-2792,383,4021,-2108,2025-02-06 17:40:09,2
-12568,-2564,-1380,1174,176,-2110,2025-02-06 17:40:09,2
-14368,-1736,-48,2476,-2200,-1296,2025-02-06 17:40:09,2
-13556,-1324,360,3500,-3447,69,2025-02-06 17:40:09,2
-11532,-1252,-856,4192,-4360,869,2025-02-06 17:40:09,2
-10256,-1472,-252,4636,-5022,1307,2025-02-06 17:40:09,2
-10212,-808,-112,4648,-5913,1387,2025-02-06 17:40:09,2
-9760,-80,108,4329,-7326,1244,2025-02-06 17:40:09,2
-9884,928,896,3375,-7302,1498,2025-02-06 17:40:09,2
-9028,1028,3732,2875,-6398,2293,2025-02-06 17:40:09,2
-7624,-252,5168,4638,-6587,3319,2025-02-06 17:40:09,2
-7084,-2740,2804,5985,-8232,2796,2025-02-06 17:40:09,2
-9224,-3524,-44,5636,-7848,1038,2025-02-06 17:40:09,2
-13752,-544,-320,4494,-6314,100,2025-02-06 17:40:09,2
-16728,2980,1032,4082,-7102,1240,2025-02-06 17:40:09,2
-16664,3752,640,4249,-10572,2640,2025-02-06 17:40:09,2
-15924,2524,-1456,3751,-13152,3517,2025-02-06 17:40:09,2
-14144,1376,-2248,2910,-13109,3551,2025-02-06 17:40:09,2
-13024,-96,-964,1833,-13780,2490,2025-02-06 17:40:09,2
-1252,1824,-1716,1609,-12921,921,2025-02-06 17:40:09,2
-6228,196,2892,2335,-18703,-1337,2025-02-06 17:40:09,2
-11492,-328,236,1383,-14303,-2795,2025-02-06 17:40:09,2
-15248,444,956,828,-9891,-2733,2025-02-06 17:40:10,2
-17940,576,1944,-43,-7439,-2499,2025-02-06 17:40:10,2
-19592,-140,4064,-111,-8460,-2338,2025-02-06 17:40:10,2
-18408,-692,4852,-244,-10746,-1222,2025-02-06 17:40:10,2
-16412,-876,6020,-156,-13524,-947,2025-02-06 17:40:10,2
-15888,-532,6204,-111,-14462,-640,2025-02-06 17:40:10,2
-15840,-352,5864,280,-13201,-652,2025-02-06 17:40:10,2
-15964,-688,5908,397,-10584,-952,2025-02-06 17:40:10,2
-16208,-1240,6552,653,-7028,-624,2025-02-06 17:40:10,2
-16688,-1224,8168,561,-5661,-593,2025-02-06 17:40:10,2
-18020,-900,9056,741,-6423,-269,2025-02-06 17:40:10,2
-17832,240,9312,1165,-8499,1352,2025-02-06 17:40:10,2
-15572,304,9780,1011,-8662,916,2025-02-06 17:40:10,2
-15504,668,12424,802,-8196,261,2025-02-06 17:40:10,2
-16544,-576,13280,1604,-8040,70,2025-02-06 17:40:10,2
-15656,-1092,13028,2241,-9192,-66,2025-02-06 17:40:10,2
-14048,396,12756,2458,-10695,249,2025-02-06 17:40:10,2
-12500,-248,12808,3060,-10491,1015,2025-02-06 17:40:10,2
-10776,-1548,12724,3813,-9985,1799,2025-02-06 17:40:10,2
-10356,-1720,11688,3684,-8785,1420,2025-02-06 17:40:10,2
-10504,-964,12356,3261,-8308,1143,2025-02-06 17:40:10,2
-11364,-508,12504,3114,-7719,1198,2025-02-06 17:40:10,2
-10920,528,12192,2723,-7015,1051,2025-02-06 17:40:10,2
-9780,756,12552,2145,-6385,419,2025-02-06 17:40:10,2
-12156,1316,12656,1481,-4194,835,2025-02-06 17:40:10,2
-9432,2036,12612,-866,-4081,-3,2025-02-06 17:40:10,2
-10160,2260,12648,-677,-3635,33,2025-02-06 17:40:10,2
-10132,2168,13084,-668,-4371,333,2025-02-06 17:40:10,2
-9424,1440,14128,-609,-5266,342,2025-02-06 17:40:10,2
-9964,896,14504,-318,-5208,559,2025-02-06 17:40:10,2
-9248,108,13840,-154,-4528,825,2025-02-06 17:40:10,2
-8544,-376,13760,39,-4544,666,2025-02-06 17:40:10,2
-8012,-700,13680,-96,-4637,233,2025-02-06 17:40:10,2
-7488,-1196,14180,72,-4163,-295,2025-02-06 17:40:10,2
-7976,-904,14360,358,-3856,-609,2025-02-06 17:40:10,2
-8792,-616,14304,609,-3644,-523,2025-02-06 17:40:10,2
-9412,184,14040,565,-3279,-32,2025-02-06 17:40:10,2
-7980,696,13548,359,-2564,509,2025-02-06 17:40:10,2
-7664,916,14156,-265,-1776,121,2025-02-06 17:40:10,2
-8612,656,14116,-288,-1811,-298,2025-02-06 17:40:10,2
-9508,532,14576,142,-2521,-492,2025-02-06 17:40:10,2
-10040,252,14564,670,-2679,-112,2025-02-06 17:40:10,2
-9324,616,14280,730,-2797,380,2025-02-06 17:40:10,2
-8416,880,14176,618,-2774,626,2025-02-06 17:40:10,2
-7460,1508,13556,307,-2520,676,2025-02-06 17:40:10,2
-7216,1188,13668,-81,-1866,324,2025-02-06 17:40:10,2
-7292,1016,13844,-315,-734,-229,2025-02-06 17:40:10,2
-8300,900,14304,-189,-533,-575,2025-02-06 17:40:10,2
-8992,844,14292,-348,-858,-485,2025-02-06 17:40:10,2
-8828,520,14596,-469,-1283,-281,2025-02-06 17:40:10,2
-8620,720,14440,-483,-1071,162,2025-02-06 17:40:10,2
-7632,1352,15336,-410,-915,220,2025-02-06 17:40:10,2
-7580,1108,15176,-155,-866,493,2025-02-06 17:40:10,2
-7532,1068,15472,303,-675,727,2025-02-06 17:40:10,2
-6744,344,15092,468,254,1158,2025-02-06 17:40:10,2
-6616,668,15028,365,790,1106,2025-02-06 17:40:11,2
-6088,1080,15108,324,1643,843,2025-02-06 17:40:11,2
-6792,1420,15348,107,2610,832,2025-02-06 17:40:11,2
-7244,1268,15856,169,3187,1214,2025-02-06 17:40:11,2
-6388,652,16556,511,3077,1259,2025-02-06 17:40:11,2
-7784,760,15620,620,2337,1158,2025-02-06 17:40:11,2
-7496,548,15572,841,2823,1220,2025-02-06 17:40:11,2
-7152,856,15860,682,2413,1604,2025-02-06 17:40:11,2
-6992,560,15860,1049,2236,1607,2025-02-06 17:40:11,2
-7256,1140,14424,583,2334,1782,2025-02-06 17:40:11,2
-7236,588,14204,97,3864,1539,2025-02-06 17:40:11,2
-7856,652,13576,31,4728,1363,2025-02-06 17:40:11,2
-8332,1520,14416,-362,4718,1260,2025-02-06 17:40:11,2
-8404,2412,15188,-271,3503,1349,2025-02-06 17:40:11,2
-8288,2164,14164,-288,2145,390,2025-02-06 17:40:11,2
-8920,2404,13684,-292,1885,-471,2025-02-06 17:40:11,2
-10304,2600,14144,-284,1745,-427,2025-02-06 17:40:11,2
-10048,2392,14040,51,1133,160,2025-02-06 17:40:11,2
-9472,2440,13656,766,-10,770,2025-02-06 17:40:11,2
-8228,1960,12184,875,-246,947,2025-02-06 17:40:11,2
-7524,1700,11560,740,1067,659,2025-02-06 17:40:11,2
-7796,1632,12504,450,1431,-77,2025-02-06 17:40:11,2
-9076,2036,12812,222,1487,-712,2025-02-06 17:40:11,2
-9936,1684,12648,-83,1170,-981,2025-02-06 17:40:11,2
-10344,1372,12908,-300,764,-856,2025-02-06 17:40:11,2
-10048,1208,12876,-311,319,-632,2025-02-06 17:40:11,2
-9968,1180,12692,-362,151,-404,2025-02-06 17:40:11,2
-9048,1352,12824,-159,123,-386,2025-02-06 17:40:11,2
-9744,1972,12480,137,95,-331,2025-02-06 17:40:11,2
-9124,2088,13332,-190,531,-540,2025-02-06 17:40:11,2
-9224,1932,14008,1,-129,-674,2025-02-06 17:40:11,2
-9656,2124,13644,-226,66,-360,2025-02-06 17:40:11,2
-9232,1784,14068,131,-256,-220,2025-02-06 17:40:11,2
-9160,2048,12936,122,83,-66,2025-02-06 17:40:11,2
-8540,1688,13768,143,449,-195,2025-02-06 17:40:11,2
-8756,1872,13496,197,651,-264,2025-02-06 17:40:11,2
-8748,2008,13436,-85,688,-385,2025-02-06 17:40:11,2
-9020,2096,13276,-40,439,-407,2025-02-06 17:40:11,2
-9032,1976,13396,-237,383,-335,2025-02-06 17:40:11,2
-8816,1916,13700,-210,431,-233,2025-02-06 17:40:11,2
-8904,1764,13688,-206,606,-180,2025-02-06 17:40:11,2
-9012,1568,13752,-190,732,-147,2025-02-06 17:40:11,2
-9264,1736,13496,-210,757,-163,2025-02-06 17:40:11,2
-9468,1592,13524,-234,716,-142,2025-02-06 17:40:11,2
-9268,1704,13352,-279,573,-94,2025-02-06 17:40:11,2
-9284,1668,13168,-294,556,-96,2025-02-06 17:40:11,2
-9388,1704,13204,-308,635,-71,2025-02-06 17:40:11,2
-9448,1716,12868,-319,574,-31,2025-02-06 17:40:11,2
-9392,1552,13104,-304,433,-21,2025-02-06 17:40:11,2
-9408,1504,12988,-297,265,-4,2025-02-06 17:40:11,2
-9284,1548,13212,-268,136,-24,2025-02-06 17:40:11,2
-9000,1600,13536,-92,86,-126,2025-02-06 17:40:11,2
-9068,1676,13356,-288,255,-126,2025-02-06 17:40:11,2
-9432,1668,13328,-267,291,-123,2025-02-06 17:40:11,2
-9312,1712,13368,-259,82,-144,2025-02-06 17:40:11,2
-9140,1676,13376,-152,-33,-135,2025-02-06 17:40:11,2
-9044,1540,13284,-114,-29,-173,2025-02-06 17:40:11,2
-9060,1592,13284,-123,16,-209,2025-02-06 17:40:11,2
-9016,1528,13364,-122,110,-201,2025-02-06 17:40:11,2
-8980,1572,13476,-144,147,-209,2025-02-06 17:40:11,2
-9152,1704,13364,-124,161,-202,2025-02-06 17:40:11,2
-9352,1612,13344,-110,82,-206,2025-02-06 17:40:12,2
-9312,1764,13196,-118,-54,-205,2025-02-06 17:40:12,2
-9204,1764,13292,-173,-83,-187,2025-02-06 17:40:12,2
-9132,1688,13280,-140,0,-205,2025-02-06 17:40:12,2
-9108,1848,13244,-129,25,-197,2025-02-06 17:40:12,2
-9144,1844,13308,-146,123,-195,2025-02-06 17:40:12,2
-9184,1796,13272,-166,95,-219,2025-02-06 17:40:12,2
-9204,1824,13412,-115,78,-214,2025-02-06 17:40:12,2
-9040,1752,13344,-174,125,-205,2025-02-06 17:40:12,2
-9004,1668,13364,-157,186,-212,2025-02-06 17:40:12,2
-9236,1716,13340,-149,172,-201,2025-02-06 17:40:12,2
-9164,1736,13340,-166,212,-185,2025-02-06 17:40:12,2
-9200,1568,13168,-208,217,-189,2025-02-06 17:40:12,2
-9276,1588,13344,-173,151,-127,2025-02-06 17:40:12,2
-9048,1620,13352,-182,110,-125,2025-02-06 17:40:12,2
-9168,1748,13232,-157,167,-198,2025-02-06 17:40:12,2
-9252,1760,13480,-187,227,-197,2025-02-06 17:40:12,2
-9172,1752,13444,-134,260,-196,2025-02-06 17:40:12,2
-9204,1708,13552,-128,324,-133,2025-02-06 17:40:12,2
-9276,1540,13424,-99,348,-122,2025-02-06 17:40:12,2
-9256,1496,13256,-84,353,-61,2025-02-06 17:40:12,2
-9204,1520,13480,-55,349,-35,2025-02-06 17:40:12,2
-9176,1492,13268,21,548,-73,2025-02-06 17:40:12,2
-9336,1656,13376,-3,729,-95,2025-02-06 17:40:12,2
-9380,1792,13496,58,883,-109,2025-02-06 17:40:12,2
-9344,1740,13296,154,1102,-90,2025-02-06 17:40:12,2
-9316,1612,13072,180,1251,-54,2025-02-06 17:40:12,2
-9240,1664,12940,192,1396,-24,2025-02-06 17:40:12,2
-8704,1560,12976,188,1454,-291,2025-02-06 17:40:12,2
-8756,1720,12536,-9,2012,-764,2025-02-06 17:40:12,2
-9428,1680,12648,-227,2388,-955,2025-02-06 17:40:12,2
-9684,2124,12660,-124,1878,-976,2025-02-06 17:40:12,2
-10744,1672,12408,-1918,-672,-625,2025-02-06 17:40:12,2
-10412,1616,12652,-2135,-1528,-445,2025-02-06 17:40:12,2
-9680,1524,13132,-2389,-1666,-289,2025-02-06 17:40:12,2
-8656,1308,13644,-2425,-1467,-403,2025-02-06 17:40:12,2
-8096,860,13928,-2335,-1184,-614,2025-02-06 17:40:12,2
-8048,408,13920,-2282,-499,-770,2025-02-06 17:40:12,2
-8560,420,13852,-2209,-6,-853,2025-02-06 17:40:12,2
-8640,588,14092,-2236,228,-978,2025-02-06 17:40:12,2
-8592,516,14124,-2087,458,-1127,2025-02-06 17:40:12,2
-8548,432,14212,-1814,562,-1268,2025-02-06 17:40:12,2
-8408,320,14396,-1678,959,-1451,2025-02-06 17:40:12,2
-8468,196,14672,-1467,1263,-1656,2025-02-06 17:40:12,2
-8672,272,13800,-1294,1759,-1717,2025-02-06 17:40:12,2
-9176,168,13616,-1322,1887,-1678,2025-02-06 17:40:12,2
-9948,-112,13636,-1235,1981,-1510,2025-02-06 17:40:12,2
-10904,-140,13472,-1076,1477,-1200,2025-02-06 17:40:12,2
-10856,88,13336,-985,129,-964,2025-02-06 17:40:12,2
-9932,352,13500,-978,-911,-1053,2025-02-06 17:40:12,2
-8368,588,14420,-637,-512,-1262,2025-02-06 17:40:12,2
-6884,376,14856,-424,36,-1855,2025-02-06 17:40:12,2
-7128,216,13536,-290,682,-2252,2025-02-06 17:40:12,2
-8472,48,12328,-626,2328,-2430,2025-02-06 17:40:12,2
-10004,52,12136,-977,3664,-2241,2025-02-06 17:40:12,2
-10824,-256,13272,-896,3735,-1856,2025-02-06 17:40:12,2
-11116,-376,12724,-886,2874,-1545,2025-02-06 17:40:13,2
-10268,-372,12944,-816,2158,-1362,2025-02-06 17:40:13,2
-9428,-200,12204,-1059,1669,-1459,2025-02-06 17:40:13,2
-9252,140,12108,-1374,2115,-1716,2025-02-06 17:40:13,2
-9608,160,12252,-1646,2799,-1904,2025-02-06 17:40:13,2
-9988,184,12936,-1731,3039,-2077,2025-02-06 17:40:13,2
-10056,120,12924,-1724,2972,-1976,2025-02-06 17:40:13,2
-9892,-52,12888,-1562,2943,-1762,2025-02-06 17:40:13,2
-10232,-264,12104,-1403,3788,-1767,2025-02-06 17:40:13,2
-10812,-332,11980,-1533,4376,-1715,2025-02-06 17:40:13,2
-10104,636,11900,-1864,4193,-1615,2025-02-06 17:40:13,2
-9516,1224,12448,-2291,3733,-1675,2025-02-06 17:40:13,2
-8508,1136,13120,-2787,3705,-1905,2025-02-06 17:40:13,2
-8952,-44,13616,-3644,4789,-1823,2025-02-06 17:40:13,2
-8828,-56,14184,-4384,4978,-2400,2025-02-06 17:40:13,2
-9176,168,15156,-4793,4746,-3208,2025-02-06 17:40:13,2
-10860,-376,15340,-4725,4625,-3680,2025-02-06 17:40:13,2
-12104,-860,15284,-4556,4849,-3435,2025-02-06 17:40:13,2
-13120,-1560,15064,-3948,5772,-2354,2025-02-06 17:40:13,2
-13752,-2284,13756,-3043,8265,-1011,2025-02-06 17:40:13,2
-14308,-2972,14216,-2001,10208,-432,2025-02-06 17:40:13,2
-13876,-3576,13488,-1444,10885,-426,2025-02-06 17:40:13,2
-13820,-2860,12528,-1745,11297,-978,2025-02-06 17:40:13,2
-15204,-2336,12216,-1820,10739,-1201,2025-02-06 17:40:13,2
-16664,-1728,11992,-2137,9582,-770,2025-02-06 17:40:13,2
-15800,-2060,10440,-2458,8020,-39,2025-02-06 17:40:13,2
-14492,-3256,9432,-2773,7388,906,2025-02-06 17:40:13,2
-14456,-3648,9672,-2675,6901,1471,2025-02-06 17:40:13,2
-13732,-3200,9128,-2621,5271,1699,2025-02-06 17:40:13,2
-12884,-2464,8592,-2507,4632,1906,2025-02-06 17:40:13,2
-12944,-2292,8224,-2339,5503,1805,2025-02-06 17:40:13,2
-13616,-2284,7892,-2294,6534,1813,2025-02-06 17:40:13,2
-14644,-1724,7652,-2252,7107,2103,2025-02-06 17:40:13,2
-14572,-1888,7472,-2078,7258,2230,2025-02-06 17:40:13,2
-14276,-2196,6540,-2142,7925,2150,2025-02-06 17:40:13,2
-14608,-2396,6608,-2212,8560,2166,2025-02-06 17:40:13,2
-15396,-2192,6708,-2034,8934,2246,2025-02-06 17:40:13,2
-15308,-2360,6208,-1851,9757,2374,2025-02-06 17:40:13,2
-15496,-2604,4748,-1833,9873,2249,2025-02-06 17:40:13,2
-15640,-2460,3676,-1712,9241,2114,2025-02-06 17:40:13,2
-15808,-2252,2264,-1855,7683,2019,2025-02-06 17:40:13,2
-16164,-1340,2776,-2297,7277,2392,2025-02-06 17:40:13,2
-16152,-912,2800,-2754,8644,3225,2025-02-06 17:40:13,2
-15468,-580,2880,-3416,9991,3726,2025-02-06 17:40:13,2
-14560,116,3944,-2975,8890,3646,2025-02-06 17:40:13,2
-13960,268,3116,-2284,6111,3309,2025-02-06 17:40:13,2
-14148,-56,1704,-2996,5046,3144,2025-02-06 17:40:13,2
-13932,-556,1676,-3479,5273,2961,2025-02-06 17:40:13,2
-13964,-940,1916,-3500,4996,2736,2025-02-06 17:40:13,2
-14052,-816,908,-3958,4455,2713,2025-02-06 17:40:13,2
-14280,-108,1500,-3848,3829,2841,2025-02-06 17:40:13,2
-15384,-432,1744,-3322,3018,2737,2025-02-06 17:40:13,2
-13656,-444,1936,-3356,3923,2229,2025-02-06 17:40:13,2
-12904,-684,1416,-3515,3578,2133,2025-02-06 17:40:13,2
-12272,-496,1212,-3685,3429,2266,2025-02-06 17:40:13,2
-11672,-292,1264,-3840,3558,2532,2025-02-06 17:40:13,2
-10412,60,2140,-3516,2850,2308,2025-02-06 17:40:13,2
-10072,584,1928,-3060,2038,1973,2025-02-06 17:40:13,2
-10176,632,1444,-2916,1392,1578,2025-02-06 17:40:13,2
