acceleration_x,acceleration_y,acceleration_z,gyroscope_x,gyroscope_y,gyroscope_z,timestamp,label
-9472,-2564,-9572,-223,221,-199,2025-02-17 10:20:20,0.0
-9500,-2532,-9396,-264,77,-273,2025-02-17 10:20:20,0.0
-9600,-2560,-9228,-247,-31,-254,2025-02-17 10:20:21,0.0
-9680,-2560,-9280,-181,77,-207,2025-02-17 10:20:21,0.0
-9468,-2392,-9440,-194,382,-171,2025-02-17 10:20:21,0.0
-9476,-2440,-9500,-253,511,-204,2025-02-17 10:20:21,0.0
-9600,-2436,-9628,-288,394,-235,2025-02-17 10:20:21,0.0
-9676,-2476,-9552,-284,141,-213,2025-02-17 10:20:21,0.0
-9496,-2476,-9636,-300,-26,-258,2025-02-17 10:20:21,0.0
-9644,-2544,-9356,-247,-30,-241,2025-02-17 10:20:21,0.0
-9588,-2504,-9220,-222,48,-222,2025-02-17 10:20:21,0.0
-9480,-2524,-9372,-249,170,-274,2025-02-17 10:20:21,0.0
-9652,-2568,-9296,-261,240,-248,2025-02-17 10:20:21,0.0
-9748,-2504,-9200,-194,330,-190,2025-02-17 10:20:21,0.0
-9624,-2400,-9352,-190,340,-186,2025-02-17 10:20:21,0.0
-9696,-2484,-9424,-262,221,-266,2025-02-17 10:20:21,0.0
-9644,-2540,-9128,-230,180,-223,2025-02-17 10:20:21,0.0
-9568,-2520,-9500,-156,186,-161,2025-02-17 10:20:21,0.0
-9556,-2444,-9296,-163,210,-141,2025-02-17 10:20:21,0.0
-9744,-2344,-9556,-163,249,-182,2025-02-17 10:20:21,0.0
-9632,-2640,-9316,-130,175,-160,2025-02-17 10:20:21,0.0
-9552,-2604,-9380,-165,19,-179,2025-02-17 10:20:21,0.0
-9632,-2628,-9268,-174,50,-190,2025-02-17 10:20:21,0.0
-9636,-2492,-9120,-110,232,-160,2025-02-17 10:20:21,0.0
-9556,-2388,-9196,-156,441,-164,2025-02-17 10:20:21,0.0
-9660,-2416,-9236,-151,552,-194,2025-02-17 10:20:21,0.0
-9592,-2428,-9372,-221,471,-247,2025-02-17 10:20:21,0.0
-9668,-2500,-9584,-209,312,-261,2025-02-17 10:20:21,0.0
-9620,-2368,-9604,-267,195,-263,2025-02-17 10:20:21,0.0
-9564,-2500,-9332,-309,209,-300,2025-02-17 10:20:21,0.0
-9628,-2360,-9444,-291,198,-246,2025-02-17 10:20:21,0.0
-9528,-2308,-9536,-361,113,-335,2025-02-17 10:20:21,0.0
-9544,-2448,-9424,-346,40,-373,2025-02-17 10:20:21,0.0
-9620,-2476,-9348,-352,-8,-368,2025-02-17 10:20:21,0.0
-9600,-2476,-9512,-356,37,-375,2025-02-17 10:20:21,0.0
-9608,-2544,-9440,-357,159,-370,2025-02-17 10:20:21,0.0
-9640,-2484,-9296,-323,170,-363,2025-02-17 10:20:21,0.0
-9576,-2524,-9352,-264,205,-332,2025-02-17 10:20:21,0.0
-9676,-2548,-9252,-193,253,-250,2025-02-17 10:20:21,0.0
-9724,-2704,-9272,-157,311,-166,2025-02-17 10:20:21,0.0
-9760,-2644,-9372,-87,387,-71,2025-02-17 10:20:21,0.0
-9760,-2680,-9388,10,304,-59,2025-02-17 10:20:21,0.0
-9588,-2576,-9368,34,-10,-90,2025-02-17 10:20:21,0.0
-9512,-2304,-9252,19,-123,-111,2025-02-17 10:20:21,0.0
-9520,-2252,-9228,-22,106,-166,2025-02-17 10:20:21,0.0
-9648,-2268,-9252,15,424,-180,2025-02-17 10:20:21,0.0
-9548,-2372,-9124,21,579,-156,2025-02-17 10:20:21,0.0
-9636,-2344,-9276,26,600,-156,2025-02-17 10:20:21,0.0
-9588,-2380,-9500,20,515,-207,2025-02-17 10:20:21,0.0
-9532,-2432,-9332,44,475,-198,2025-02-17 10:20:21,0.0
-9672,-2344,-9332,17,578,-237,2025-02-17 10:20:21,0.0
-9576,-2320,-9552,20,640,-244,2025-02-17 10:20:21,0.0
-9612,-2432,-9508,54,633,-189,2025-02-17 10:20:21,0.0
-9644,-2448,-9568,45,445,-204,2025-02-17 10:20:21,0.0
-9684,-2416,-9428,-1,334,-231,2025-02-17 10:20:21,0.0
-9812,-2444,-9460,8,364,-187,2025-02-17 10:20:21,0.0
-9660,-2384,-9392,-27,342,-169,2025-02-17 10:20:21,0.0
-9816,-2448,-9220,-46,354,-232,2025-02-17 10:20:21,0.0
-9872,-2284,-9096,-84,414,-226,2025-02-17 10:20:21,0.0
-9996,-2016,-9404,-117,720,-220,2025-02-17 10:20:21,0.0
-9788,-2044,-9720,-224,959,-286,2025-02-17 10:20:22,0.0
-9812,-1960,-10156,-324,828,-408,2025-02-17 10:20:22,0.0
-9896,-1668,-10448,-439,316,-521,2025-02-17 10:20:22,0.0
-9972,-1256,-10500,-775,-772,-835,2025-02-17 10:20:22,0.0
-10300,-1660,-9804,-968,-1779,-994,2025-02-17 10:20:22,0.0
-10436,-1984,-9292,-915,-2580,-1067,2025-02-17 10:20:22,0.0
-10144,-2088,-8812,-852,-3010,-1281,2025-02-17 10:20:22,0.0
-9904,-2260,-8208,-772,-3143,-1642,2025-02-17 10:20:22,0.0
-9840,-2396,-7940,-556,-3117,-1734,2025-02-17 10:20:22,0.0
-9708,-2288,-7620,-307,-2644,-1818,2025-02-17 10:20:22,0.0
-9592,-2440,-7844,-154,-1516,-1921,2025-02-17 10:20:22,0.0
-9396,-2676,-7904,25,-294,-1984,2025-02-17 10:20:22,0.0
-9388,-2964,-8296,245,956,-2190,2025-02-17 10:20:22,0.0
-9288,-3144,-8540,573,1643,-2480,2025-02-17 10:20:22,0.0
-9200,-3384,-9288,954,1402,-2830,2025-02-17 10:20:22,0.0
-8908,-3280,-10132,1145,622,-3148,2025-02-17 10:20:22,0.0
-9124,-3180,-10096,1288,-371,-3294,2025-02-17 10:20:22,0.0
-9520,-3208,-10164,1253,-849,-3177,2025-02-17 10:20:22,0.0
-9756,-3740,-9312,1049,-1539,-2761,2025-02-17 10:20:22,0.0
-9840,-4032,-8736,883,-2447,-2275,2025-02-17 10:20:22,0.0
-10176,-4404,-7504,604,-3318,-1810,2025-02-17 10:20:22,0.0
-10352,-4864,-7136,497,-3259,-1644,2025-02-17 10:20:22,0.0
-10528,-4704,-6884,453,-1705,-1454,2025-02-17 10:20:22,0.0
-10796,-4096,-6968,421,481,-1468,2025-02-17 10:20:22,0.0
-10624,-3468,-7124,233,2434,-1973,2025-02-17 10:20:22,0.0
-11212,-3236,-7824,-53,3730,-2602,2025-02-17 10:20:22,0.0
-11628,-3612,-8596,-248,3586,-2984,2025-02-17 10:20:22,0.0
-11632,-4096,-9420,-461,783,-3115,2025-02-17 10:20:22,0.0
-11704,-4388,-8944,-455,-3488,-2871,2025-02-17 10:20:22,0.0
-10844,-4764,-8048,-456,-6943,-2685,2025-02-17 10:20:22,0.0
-10204,-4908,-7016,-388,-9389,-2707,2025-02-17 10:20:22,0.0
-10484,-4836,-6840,-454,-10795,-2481,2025-02-17 10:20:22,0.0
-10668,-4868,-6092,-709,-11450,-1834,2025-02-17 10:20:22,0.0
-10524,-4992,-5236,-776,-12018,-1354,2025-02-17 10:20:22,0.0
-10740,-4964,-4464,-548,-12357,-1200,2025-02-17 10:20:22,0.0
-10868,-5000,-3952,-356,-12142,-1178,2025-02-17 10:20:22,0.0
-12124,-4704,-1984,-1024,-6376,-143,2025-02-17 10:20:22,0.0
-9504,-4808,-3428,312,496,934,2025-02-17 10:20:22,0.0
-8572,-3404,-5764,396,3175,-44,2025-02-17 10:20:22,0.0
-10052,-2540,-6412,-918,4610,-1229,2025-02-17 10:20:22,
-11664,-2664,-4976,-1805,5413,-2126,2025-02-17 10:20:22,0.0
-13152,-3716,-4420,-1792,5370,-2897,2025-02-17 10:20:22,0.0
-14020,-4296,-5600,-2055,4763,-2678,2025-02-17 10:20:22,0.0
-13380,-4640,-6708,-2703,2863,-1795,2025-02-17 10:20:22,0.0
-12148,-4712,-6640,-3027,-198,-1558,2025-02-17 10:20:22,0.0
-11756,-4932,-6320,-3195,-3548,-1862,2025-02-17 10:20:22,0.0
-12124,-5440,-5532,-3350,-5665,-2082,2025-02-17 10:20:22,0.0
-12704,-5864,-4432,-3428,-6498,-1974,2025-02-17 10:20:22,0.0
-13304,-5816,-2568,-3423,-3286,-1335,2025-02-17 10:20:22,0.0
-11948,-5844,-3304,-2814,-85,-638,2025-02-17 10:20:22,0.0
-11468,-5584,-4552,-3105,1094,-680,2025-02-17 10:20:22,0.0
-12168,-5772,-4048,-3367,1433,-824,2025-02-17 10:20:22,0.0
-12368,-7112,-4776,-3240,2127,-1100,2025-02-17 10:20:22,0.0
-12612,-7236,-5636,-2465,4278,-1698,2025-02-17 10:20:22,0.0
-13528,-6868,-5832,-1637,7334,-2489,2025-02-17 10:20:22,0.0
-14756,-6764,-6604,-1052,9310,-2394,2025-02-17 10:20:22,0.0
-15200,-7140,-7516,-576,9366,-1020,2025-02-17 10:20:22,0.0
-14696,-7740,-8184,-260,7183,587,2025-02-17 10:20:22,0.0
-13900,-7760,-9088,57,2176,1942,2025-02-17 10:20:22,0.0
-13100,-6856,-9116,60,-3472,3030,2025-02-17 10:20:22,0.0
-12648,-6212,-8524,-412,-6544,3728,2025-02-17 10:20:22,0.0
-12216,-5816,-8332,-424,-7269,4441,2025-02-17 10:20:22,0.0
-11120,-5100,-9424,-324,-6934,5260,2025-02-17 10:20:22,0.0
-9420,-4328,-10092,-373,-5935,5541,2025-02-17 10:20:22,0.0
-7856,-2532,-9804,-461,-5052,5091,2025-02-17 10:20:23,0.0
-7608,-948,-8728,-807,-5616,4110,2025-02-17 10:20:23,0.0
-8164,-72,-7604,-1301,-6439,3366,2025-02-17 10:20:23,0.0
-8700,84,-7212,-1659,-6319,3209,2025-02-17 10:20:23,0.0
-9004,-672,-6916,-1817,-4460,3084,2025-02-17 10:20:23,0.0
-9236,-1500,-6180,-1825,-1382,2845,2025-02-17 10:20:23,0.0
-9928,-2948,-5924,-1424,2331,2603,2025-02-17 10:20:23,0.0
-11692,-3732,-5892,-1091,5141,3410,2025-02-17 10:20:23,0.0
-11592,-4812,-6812,-953,6582,4681,2025-02-17 10:20:23,0.0
-12392,-3568,-5680,-327,6420,5377,2025-02-17 10:20:23,0.0
-11544,-1552,-7284,1018,1545,5225,2025-02-17 10:20:23,0.0
-10580,-584,-7788,1229,-2282,4750,2025-02-17 10:20:23,0.0
-9844,-312,-7704,1014,-5513,4110,2025-02-17 10:20:23,0.0
-9524,-196,-6708,1019,-7258,3588,2025-02-17 10:20:23,0.0
-9320,-412,-5988,1203,-7764,3189,2025-02-17 10:20:23,0.0
-9828,-564,-5300,1267,-6846,2946,2025-02-17 10:20:23,0.0
-10428,-700,-4692,1045,-4652,2907,2025-02-17 10:20:23,0.0
-10324,-124,-3768,871,-851,2395,2025-02-17 10:20:23,0.0
-10112,68,-4204,984,1424,1691,2025-02-17 10:20:23,0.0
-10368,488,-4808,938,2391,1075,2025-02-17 10:20:23,0.0
-10544,232,-5020,928,2497,485,2025-02-17 10:20:23,0.0
-10960,-536,-5084,662,1434,73,2025-02-17 10:20:23,0.0
-11148,-952,-4688,538,340,-205,2025-02-17 10:20:23,0.0
-11308,-928,-4468,675,-442,-247,2025-02-17 10:20:23,0.0
-11296,-488,-4480,931,-464,-210,2025-02-17 10:20:23,0.0
-11376,-108,-4564,1051,418,-299,2025-02-17 10:20:23,0.0
-12152,12,-4992,1263,3234,-229,2025-02-17 10:20:23,0.0
-12184,-592,-5960,1259,6033,-2,2025-02-17 10:20:23,0.0
-12628,-1692,-6628,983,8407,205,2025-02-17 10:20:23,0.0
-13612,-2076,-6820,622,10316,917,2025-02-17 10:20:23,0.0
-14636,-1136,-6864,672,11522,2261,2025-02-17 10:20:23,0.0
-15012,-508,-7328,811,10609,3340,2025-02-17 10:20:23,0.0
-14856,-332,-7152,1087,7043,3447,2025-02-17 10:20:23,0.0
-14728,-364,-7568,1875,859,3178,2025-02-17 10:20:23,0.0
-13908,-288,-8464,2162,-3066,3394,2025-02-17 10:20:23,0.0
-12320,592,-9056,1555,-4707,3065,2025-02-17 10:20:23,0.0
-12160,2188,-8516,780,-3997,2126,2025-02-17 10:20:23,0.0
-13376,3192,-8120,-341,-893,863,2025-02-17 10:20:23,0.0
-13188,2712,-7764,-893,913,-218,2025-02-17 10:20:23,0.0
-13216,792,-9180,-1016,1962,-1447,2025-02-17 10:20:23,0.0
-13116,-904,-10796,-1227,2194,-1604,2025-02-17 10:20:23,0.0
-11772,-2060,-10588,-1303,692,-2084,2025-02-17 10:20:23,0.0
-9664,-2084,-9872,-1005,-3299,-3563,2025-02-17 10:20:23,0.0
-8560,-2856,-10360,-665,-8022,-4906,2025-02-17 10:20:23,0.0
-8596,-4108,-9892,-581,-8932,-5294,2025-02-17 10:20:23,0.0
-9224,-4420,-8104,-390,-7758,-5459,2025-02-17 10:20:23,0.0
-9588,-4172,-7168,-249,-6140,-5562,2025-02-17 10:20:23,0.0
-9988,-4136,-6232,22,-4321,-5599,2025-02-17 10:20:23,0.0
-10764,-3660,-5884,712,-1663,-5018,2025-02-17 10:20:23,0.0
-11176,-3036,-5812,1004,-100,-4092,2025-02-17 10:20:23,0.0
-10520,-2964,-6156,960,162,-3499,2025-02-17 10:20:23,0.0
-9980,-2424,-6408,1151,304,-3644,2025-02-17 10:20:23,0.0
-9840,-2748,-6996,1077,808,-4068,2025-02-17 10:20:23,0.0
-9956,-2892,-7452,991,1712,-4195,2025-02-17 10:20:23,0.0
-9228,-2668,-6596,681,979,-3844,2025-02-17 10:20:23,0.0
-9448,-2936,-6884,558,118,-4115,2025-02-17 10:20:23,0.0
-9900,-3340,-6644,88,-745,-4366,2025-02-17 10:20:23,0.0
-10628,-3656,-6184,-222,-1674,-4276,2025-02-17 10:20:23,0.0
-11232,-3944,-5304,-478,-3023,-3724,2025-02-17 10:20:23,0.0
-11176,-4040,-5016,-877,-2720,-2378,2025-02-17 10:20:23,0.0
-9988,-4244,-4808,-962,-1159,-1571,2025-02-17 10:20:24,0.0
-9784,-4484,-5276,-1134,855,-1417,2025-02-17 10:20:24,0.0
-10756,-4340,-4460,-1216,2275,-1121,2025-02-17 10:20:24,0.0
-11428,-3816,-4628,-1110,2569,-319,2025-02-17 10:20:24,0.0
-11264,-3872,-4824,-1211,2341,320,2025-02-17 10:20:24,0.0
-11432,-3716,-4936,-1248,2054,559,2025-02-17 10:20:24,0.0
-11312,-3680,-4908,-1367,1724,613,2025-02-17 10:20:24,0.0
-11400,-3872,-5220,-1416,1258,545,2025-02-17 10:20:24,0.0
-11712,-4040,-5528,-1542,1265,274,2025-02-17 10:20:24,0.0
-12548,-3408,-5296,-1813,1865,-90,2025-02-17 10:20:24,0.0
-12932,-2588,-5156,-1944,1855,-91,2025-02-17 10:20:24,0.0
-12352,-2720,-5368,-1837,891,-170,2025-02-17 10:20:24,0.0
-11928,-3408,-6200,-1931,-817,-520,2025-02-17 10:20:24,0.0
-11892,-4932,-6700,-2224,-2689,-969,2025-02-17 10:20:24,0.0
-13032,-4328,-6320,-2426,-3604,-1080,2025-02-17 10:20:24,0.0
-13828,-4140,-5812,-2943,-3427,-975,2025-02-17 10:20:24,
-13680,-3100,-4580,-3510,-2465,-902,2025-02-17 10:20:24,0.0
-12944,-3132,-4756,-4054,-2052,-1319,2025-02-17 10:20:24,0.0
-12656,-4868,-6452,-4441,-877,-2127,2025-02-17 10:20:24,0.0
-13268,-6360,-7300,-3949,2056,-2830,2025-02-17 10:20:24,0.0
-14256,-7736,-7148,-2872,6006,-3364,2025-02-17 10:20:24,0.0
-15560,-8844,-6804,-1158,9516,-2924,2025-02-17 10:20:24,0.0
-15224,-8928,-7660,616,10470,-1067,2025-02-17 10:20:24,0.0
-14108,-7420,-9468,1893,7472,1223,2025-02-17 10:20:24,0.0
-12604,-5052,-12292,1559,344,2921,2025-02-17 10:20:24,0.0
-10788,-2520,-13072,-135,-7380,3683,2025-02-17 10:20:24,0.0
-8332,-784,-10552,-1392,-14507,3856,2025-02-17 10:20:24,0.0
-7576,148,-9372,-2020,-17067,3110,2025-02-17 10:20:24,0.0
-8412,848,-7064,-3084,-15350,924,2025-02-17 10:20:24,0.0
-11560,900,-4008,-3457,-3121,477,2025-02-17 10:20:24,0.0
-11196,-1316,-4348,-1447,4254,1688,2025-02-17 10:20:24,0.0
-11776,-2176,-6512,-937,6583,2819,2025-02-17 10:20:24,0.0
-12444,-2636,-7408,-1279,6550,3230,2025-02-17 10:20:24,0.0
-12880,-3992,-8668,-1527,4401,3714,2025-02-17 10:20:24,0.0
-12044,-4200,-8924,-1462,1017,3985,2025-02-17 10:20:24,0.0
-11016,-3400,-8068,-1610,-2557,3910,2025-02-17 10:20:24,0.0
-10700,-2468,-7224,-1438,-5161,3762,2025-02-17 10:20:24,0.0
-10152,-1372,-5816,-908,-6774,3401,2025-02-17 10:20:24,0.0
-10384,-708,-5120,-491,-7111,3128,2025-02-17 10:20:24,0.0
-10424,-112,-4440,-181,-6257,2885,2025-02-17 10:20:24,0.0
-10656,272,-3868,6,-2630,3083,2025-02-17 10:20:24,0.0
-9644,296,-5068,306,829,3329,2025-02-17 10:20:24,0.0
-9072,588,-5592,182,2128,3045,2025-02-17 10:20:24,0.0
-9316,376,-5204,169,2287,2140,2025-02-17 10:20:24,0.0
-9992,-136,-4792,421,2225,1023,2025-02-17 10:20:24,0.0
-10604,-512,-5228,587,2298,291,2025-02-17 10:20:24,0.0
-10944,-704,-4860,712,2084,-81,2025-02-17 10:20:24,0.0
-11252,-828,-4912,895,1656,-288,2025-02-17 10:20:24,0.0
-11440,-968,-4752,984,1379,-465,2025-02-17 10:20:24,0.0
-11832,-732,-4232,1021,809,-440,2025-02-17 10:20:24,0.0
-11632,-608,-4156,1032,723,-585,2025-02-17 10:20:24,0.0
-11536,-596,-4376,1016,1260,-872,2025-02-17 10:20:24,0.0
-12028,-612,-3912,1468,2091,-864,2025-02-17 10:20:24,0.0
-12688,-596,-3996,2154,3025,-351,2025-02-17 10:20:24,0.0
-12688,-592,-4320,2474,3303,124,2025-02-17 10:20:24,0.0
-12736,-1056,-4940,2523,3034,376,2025-02-17 10:20:24,0.0
-12808,-1700,-5772,2429,2729,856,2025-02-17 10:20:24,0.0
-13000,-1864,-6208,2382,2555,1468,2025-02-17 10:20:24,0.0
-13048,-1252,-6192,2417,2712,1888,2025-02-17 10:20:24,0.0
-13216,-752,-5708,2542,2353,1798,2025-02-17 10:20:24,0.0
-13864,-1052,-5352,2783,1362,1643,2025-02-17 10:20:24,0.0
-14280,-984,-4932,3229,-178,1560,2025-02-17 10:20:25,0.0
-14432,-700,-6356,3446,-504,1883,2025-02-17 10:20:25,0.0
-14132,-984,-6788,3291,1342,1970,2025-02-17 10:20:25,0.0
-14888,-80,-7852,2777,4513,2039,2025-02-17 10:20:25,0.0
-14744,1144,-8064,2193,6749,2276,2025-02-17 10:20:25,0.0
-13344,1748,-8736,1825,6321,1579,2025-02-17 10:20:25,0.0
-13072,1540,-10196,1423,3215,140,2025-02-17 10:20:25,0.0
-13228,636,-11720,874,357,-631,2025-02-17 10:20:25,0.0
-11884,-664,-11332,540,-2836,-1053,2025-02-17 10:20:25,0.0
-9780,-996,-9140,991,-7212,-2335,2025-02-17 10:20:25,0.0
-8836,-1024,-8316,1042,-11611,-3589,2025-02-17 10:20:25,0.0
-8064,-2812,-8204,525,-14121,-4349,2025-02-17 10:20:25,0.0
-9044,-4732,-7200,57,-13197,-4600,2025-02-17 10:20:25,0.0
-11140,-5140,-4448,-813,-6118,-3771,2025-02-17 10:20:25,0.0
-9736,-5012,-4236,1076,3525,-2194,2025-02-17 10:20:25,0.0
-9776,-3448,-6840,1734,7215,-1790,2025-02-17 10:20:25,0.0
-11468,-2116,-6224,1593,6319,-2394,2025-02-17 10:20:25,0.0
-12636,-1952,-6972,1772,4668,-3306,2025-02-17 10:20:25,0.0
-13052,-1640,-7568,1533,3425,-3576,2025-02-17 10:20:25,0.0
-12412,-2228,-8564,1118,1291,-3508,2025-02-17 10:20:25,0.0
-11284,-2804,-8504,796,-1696,-3202,2025-02-17 10:20:25,0.0
-10260,-3144,-7700,422,-4447,-2902,2025-02-17 10:20:25,0.0
-9616,-3400,-6700,-226,-6027,-3255,2025-02-17 10:20:25,0.0
-9644,-3336,-4668,-763,-2431,-3243,2025-02-17 10:20:25,0.0
-9356,-3812,-4924,-313,1433,-2576,2025-02-17 10:20:25,0.0
-8904,-3816,-6192,-552,3218,-2391,2025-02-17 10:20:25,0.0
-9884,-4092,-5808,-639,3813,-2578,2025-02-17 10:20:25,0.0
-10772,-4664,-5776,-407,3980,-2510,2025-02-17 10:20:25,0.0
-11900,-4992,-5880,-389,3503,-1927,2025-02-17 10:20:25,0.0
-12160,-4840,-5872,-540,2675,-1080,2025-02-17 10:20:25,0.0
-11484,-4396,-6076,-759,1928,-432,2025-02-17 10:20:25,0.0
-11896,-3220,-5912,-880,1376,-103,2025-02-17 10:20:25,0.0
-11120,-2340,-6220,-1263,782,-18,2025-02-17 10:20:25,0.0
-10912,-1920,-5688,-1832,420,-77,2025-02-17 10:20:25,0.0
-10796,-2432,-5288,-2349,251,-288,2025-02-17 10:20:25,0.0
-11060,-3156,-4780,-2601,601,-331,2025-02-17 10:20:25,0.0
-11588,-3372,-4432,-2609,1451,-352,2025-02-17 10:20:25,0.0
-11832,-3864,-4784,-2535,2084,-441,2025-02-17 10:20:25,0.0
-12032,-4100,-5740,-2529,2189,-318,2025-02-17 10:20:25,0.0
-11492,-4420,-6244,-2454,2010,-290,2025-02-17 10:20:25,0.0
-11416,-4360,-6496,-2234,1816,-404,2025-02-17 10:20:25,0.0
-11556,-4044,-6372,-2078,1785,-674,2025-02-17 10:20:25,0.0
-11788,-3464,-6240,-2092,1350,-1059,2025-02-17 10:20:25,0.0
-12172,-3232,-6452,-2261,780,-1378,2025-02-17 10:20:25,0.0
-12448,-2760,-6620,-2721,512,-1582,2025-02-17 10:20:25,0.0
-12268,-2764,-6852,-3438,-453,-1800,2025-02-17 10:20:25,0.0
-12536,-2892,-6652,-3902,-954,-2190,2025-02-17 10:20:25,0.0
-12408,-3300,-6760,-3955,-758,-2427,2025-02-17 10:20:25,0.0
-11880,-4708,-6964,-3713,-628,-2806,2025-02-17 10:20:25,0.0
-13496,-5468,-6772,-3151,-932,-2172,2025-02-17 10:20:25,0.0
-14524,-5376,-7544,-2599,1015,-679,2025-02-17 10:20:25,0.0
-14144,-5584,-9036,-2459,4952,268,2025-02-17 10:20:25,0.0
-12788,-5648,-9836,-2279,8603,712,2025-02-17 10:20:25,0.0
-11564,-4652,-10544,-1817,9282,1348,2025-02-17 10:20:25,0.0
-10560,-3060,-11524,-2048,4410,2000,2025-02-17 10:20:25,
-10240,-748,-10776,-3031,-4673,2092,2025-02-17 10:20:25,0.0
-9336,608,-8068,-3284,-13216,1458,2025-02-17 10:20:25,0.0
-9104,896,-6644,-3408,-16050,611,2025-02-17 10:20:25,0.0
-9512,220,-5628,-3193,-15925,-165,2025-02-17 10:20:25,0.0
-11372,-1432,-3888,-3133,-11879,-353,2025-02-17 10:20:25,0.0
-11112,-2724,-2364,-1973,-296,1145,2025-02-17 10:20:26,0.0
-9664,-2952,-6016,-644,5979,1217,2025-02-17 10:20:26,0.0
-10896,-1816,-7240,-1517,8343,998,2025-02-17 10:20:26,0.0
-11444,-1160,-6580,-1817,9795,627,2025-02-17 10:20:26,0.0
-11856,-808,-6776,-1674,10061,580,2025-02-17 10:20:26,0.0
-11784,-944,-7572,-1671,8247,730,2025-02-17 10:20:26,0.0
-10624,-672,-8548,-1310,3506,375,2025-02-17 10:20:26,0.0
-9876,-596,-9528,-1582,-853,-520,2025-02-17 10:20:26,0.0
-10692,-976,-8112,-1791,-2800,-884,2025-02-17 10:20:26,0.0
-11896,-1472,-6768,-1570,-2856,-589,2025-02-17 10:20:26,0.0
-12328,-1816,-6048,-1140,-2024,-98,2025-02-17 10:20:26,0.0
-11864,-2028,-6132,-666,-1034,296,2025-02-17 10:20:26,0.0
-11196,-1872,-6496,-347,-402,410,2025-02-17 10:20:26,0.0
-11148,-1456,-7576,-237,458,477,2025-02-17 10:20:26,0.0
-11280,-2172,-8052,-539,1354,653,2025-02-17 10:20:26,0.0
-11484,-2492,-6620,-564,1676,731,2025-02-17 10:20:26,0.0
-12036,-2300,-5112,14,55,539,2025-02-17 10:20:26,0.0
-11516,-2240,-4420,866,-2299,318,2025-02-17 10:20:26,5
-10848,-1516,-4816,1668,-4605,-279,2025-02-17 10:20:26,5
-10560,-816,-6080,1971,-5502,-602,2025-02-17 10:20:26,5
-10516,-528,-6952,2039,-4992,-630,2025-02-17 10:20:26,5
-10940,-396,-6488,1974,-2787,-619,2025-02-17 10:20:26,5
-11472,-1420,-5188,2165,1520,-812,2025-02-17 10:20:26,5
-11532,-2212,-5104,2184,8018,-991,2025-02-17 10:20:26,5
-10632,-1380,-7752,-2294,18180,-1210,2025-02-17 10:20:26,5
-7128,-1560,-3232,-6659,32677,-2682,2025-02-17 10:20:26,5
-5420,-1712,-1924,-8683,32767,-4496,2025-02-17 10:20:26,5
-7252,-1888,-360,-9037,32767,-4295,2025-02-17 10:20:26,5
-5748,-1564,-28,-9106,32767,-4174,2025-02-17 10:20:26,5
-1332,-884,348,-9191,32767,-5307,2025-02-17 10:20:26,5
-28,-900,4,-9964,32767,-5472,2025-02-17 10:20:26,5
3124,-508,2252,-10098,32767,-6038,2025-02-17 10:20:26,5
2220,-444,2744,-9127,32767,-6483,2025-02-17 10:20:26,5
2480,-316,2584,-8179,32767,-6709,2025-02-17 10:20:26,5
2796,-288,2404,-7305,32767,-7375,2025-02-17 10:20:26,5
2768,-300,2192,-6519,32767,-7984,2025-02-17 10:20:26,5
2876,-332,1872,-5778,32767,-8563,2025-02-17 10:20:26,5
2884,-252,2096,-4955,32767,-9181,2025-02-17 10:20:26,5
2568,-268,2172,-3920,32767,-9507,2025-02-17 10:20:26,5
2464,-272,2188,-2833,32767,-9578,2025-02-17 10:20:26,5
2764,-184,2004,-1752,32767,-9669,2025-02-17 10:20:26,5
2868,-164,1904,-829,32767,-9790,2025-02-17 10:20:26,5
2860,-360,2232,24,32767,-9844,2025-02-17 10:20:26,5
3280,8,2300,1201,32767,-10517,2025-02-17 10:20:26,5
3528,40,2584,2724,32767,-11018,2025-02-17 10:20:26,5
3600,-16,2456,4748,32767,-11734,2025-02-17 10:20:26,5
3456,224,2952,6522,32767,-12043,2025-02-17 10:20:26,5
3652,152,3204,8452,32767,-12294,2025-02-17 10:20:26,5
3596,116,3292,10585,32767,-12425,2025-02-17 10:20:26,5
3620,88,3400,12634,32767,-12350,2025-02-17 10:20:26,5
-2832,1944,7344,15323,32767,-6507,2025-02-17 10:20:26,5
32767,32767,32767,4634,-32768,32767,2025-02-17 10:20:26,5
32767,8516,-21260,-21017,-32768,32767,2025-02-17 10:20:26,5
32767,-26132,-12476,-20093,-14599,-1462,2025-02-17 10:20:26,5
12460,-12600,-4180,-23759,-5353,-14120,2025-02-17 10:20:26,5
3060,-4816,-380,-24795,-2734,-13128,2025-02-17 10:20:26,5
3260,-1896,1264,-25824,-632,-13451,2025-02-17 10:20:26,5
4736,-1096,3224,-25658,1966,-15649,2025-02-17 10:20:26,5
5336,72,4416,-23583,4316,-17904,2025-02-17 10:20:26,5
5600,920,5480,-20329,6794,-21795,2025-02-17 10:20:26,5
4748,2420,8124,-13493,8320,-23641,2025-02-17 10:20:26,5
-1884,7912,12028,-1149,7054,-18173,2025-02-17 10:20:26,5
-7280,13412,11028,12125,8624,5062,2025-02-17 10:20:27,5
16,13356,3124,16813,10222,23576,2025-02-17 10:20:27,5
12936,10540,-5116,14819,8619,32351,2025-02-17 10:20:27,5
32767,7980,-20140,2891,1743,17887,2025-02-17 10:20:27,5
32767,-5440,-12760,-2747,7694,3009,2025-02-17 10:20:27,5
29860,-6072,-4588,-1232,13857,76,2025-02-17 10:20:27,5
19312,1088,-2480,-2240,13940,-2165,2025-02-17 10:20:27,5
11796,3424,580,-3155,15417,-1923,2025-02-17 10:20:27,5
10456,4888,2760,-3589,15362,1966,2025-02-17 10:20:27,5
14924,4844,4604,-2745,13786,4352,2025-02-17 10:20:27,5
20768,3028,5712,-1757,11789,4357,2025-02-17 10:20:27,5
23376,696,5900,-904,9237,2781,2025-02-17 10:20:27,5
23108,-8,6048,-179,5473,806,2025-02-17 10:20:27,5
19712,1204,5460,-288,1181,-833,2025-02-17 10:20:27,5
17100,2776,4764,-65,-2398,-751,2025-02-17 10:20:27,5
18656,2424,3124,20,-3441,-256,2025-02-17 10:20:27,5
19656,1556,2008,-29,-3175,-634,2025-02-17 10:20:27,5
18704,2048,1544,-90,-1930,-810,2025-02-17 10:20:27,5
17820,2720,1368,-172,103,-267,2025-02-17 10:20:27,5
18448,2368,2064,-163,1562,141,2025-02-17 10:20:27,5
19260,2004,3080,-201,1569,46,2025-02-17 10:20:27,5
18972,2172,3552,-190,328,-230,2025-02-17 10:20:27,5
18624,2268,3008,-141,-393,-214,2025-02-17 10:20:27,5
18760,2068,2512,-95,-400,-215,2025-02-17 10:20:27,5
18864,2156,2180,-171,43,-241,2025-02-17 10:20:27,5
18560,2308,2480,-193,442,-141,2025-02-17 10:20:27,5
18748,2080,2612,-182,560,-98,2025-02-17 10:20:27,5
18880,2244,3036,-149,284,-224,2025-02-17 10:20:27,5
18848,2092,2892,-120,-184,-192,2025-02-17 10:20:27,5
18772,2104,2556,-165,-155,-250,2025-02-17 10:20:27,5
18716,2348,2476,-169,197,-196,2025-02-17 10:20:27,5
18684,2072,2656,-175,518,-122,2025-02-17 10:20:27,5
18764,2052,2788,-168,407,-186,2025-02-17 10:20:27,5
18788,2200,2956,-161,42,-209,2025-02-17 10:20:27,5
18712,2176,2524,-153,-26,-201,2025-02-17 10:20:27,5
18560,2104,2624,-150,201,-180,2025-02-17 10:20:27,5
18800,2132,2528,-162,291,-180,2025-02-17 10:20:27,5
18752,2224,2812,-142,175,-195,2025-02-17 10:20:27,5
18748,2208,2692,-164,166,-178,2025-02-17 10:20:27,5
18784,2196,2692,-141,214,-177,2025-02-17 10:20:27,5
18816,2196,2632,-173,143,-195,2025-02-17 10:20:27,5
18784,2244,2684,-141,90,-163,2025-02-17 10:20:27,5
18668,2136,2568,-159,185,-174,2025-02-17 10:20:27,5
18776,2188,2624,-146,280,-165,2025-02-17 10:20:27,5
18696,2132,2668,-153,191,-205,2025-02-17 10:20:27,5
18856,2136,2880,-163,126,-193,2025-02-17 10:20:27,5
18856,2144,2684,-169,129,-171,2025-02-17 10:20:27,5
18716,2188,2692,-155,210,-162,2025-02-17 10:20:27,5
18808,2200,2716,-148,239,-170,2025-02-17 10:20:27,5
18700,2140,2692,-154,186,-180,2025-02-17 10:20:27,5
18716,2220,2692,-170,146,-193,2025-02-17 10:20:27,5
18784,2244,2756,-164,163,-166,2025-02-17 10:20:27,5
18696,2172,2544,-149,185,-163,2025-02-17 10:20:27,5
18720,2152,2708,-170,213,-171,2025-02-17 10:20:27,5
18700,2132,2736,-158,162,-184,2025-02-17 10:20:27,5
18764,2184,2680,-153,176,-158,2025-02-17 10:20:27,5
18840,2132,2768,-153,141,-168,2025-02-17 10:20:27,5
18748,2136,2816,-143,163,-185,2025-02-17 10:20:27,5
18824,2160,2692,-155,192,-176,2025-02-17 10:20:27,5
18704,2116,2756,-165,189,-192,2025-02-17 10:20:27,5
18740,2184,2744,-155,188,-169,2025-02-17 10:20:27,5
18760,2124,2820,-153,183,-185,2025-02-17 10:20:28,5
18740,2104,2608,-169,163,-181,2025-02-17 10:20:28,5
18800,2244,2696,-145,186,-168,2025-02-17 10:20:28,5
18756,2140,2724,-149,177,-175,2025-02-17 10:20:28,5
18824,2168,2612,-165,191,-172,2025-02-17 10:20:28,5
18756,2088,2712,-150,166,-169,2025-02-17 10:20:28,5
18732,2100,2768,-162,178,-179,2025-02-17 10:20:28,5
18804,2180,2748,-199,159,-195,2025-02-17 10:20:28,5
18688,2108,2680,-153,183,-200,2025-02-17 10:20:28,5
18724,2216,2752,-172,158,-178,2025-02-17 10:20:28,5
18744,2192,2736,-145,191,-178,2025-02-17 10:20:28,5
18804,2144,2788,-159,165,-184,2025-02-17 10:20:28,5
18736,2208,2724,-159,167,-178,2025-02-17 10:20:28,5
18752,2244,2716,-198,184,-172,2025-02-17 10:20:28,5
18716,2200,2712,-171,172,-170,2025-02-17 10:20:28,5
18724,2096,2584,-175,191,-171,2025-02-17 10:20:28,5
18816,2200,2708,-152,174,-197,2025-02-17 10:20:28,5
18776,2084,2692,-170,179,-171,2025-02-17 10:20:28,5
18840,2128,2672,-174,172,-173,2025-02-17 10:20:28,5
18784,2252,2560,-151,185,-172,2025-02-17 10:20:28,5
18772,2196,2836,-146,156,-152,2025-02-17 10:20:28,5
18728,2204,2680,-162,186,-183,2025-02-17 10:20:28,5
18712,2168,2728,-168,182,-203,2025-02-17 10:20:28,5
18676,2140,2616,-149,174,-173,2025-02-17 10:20:28,5
18708,2240,2728,-154,164,-183,2025-02-17 10:20:28,5
18728,2172,2780,-159,174,-151,2025-02-17 10:20:28,5
18752,2140,2684,-146,178,-202,2025-02-17 10:20:28,5
18680,2144,2712,-163,187,-178,2025-02-17 10:20:28,5
18784,2144,2824,-172,196,-177,2025-02-17 10:20:28,0.0
18724,2212,2744,-149,185,-177,2025-02-17 10:20:28,0.0
18676,2192,2648,-176,168,-191,2025-02-17 10:20:28,0.0
18620,2240,2692,-165,177,-179,2025-02-17 10:20:28,0.0
18728,2204,2832,-156,172,-195,2025-02-17 10:20:28,0.0
18760,2216,2668,-147,180,-187,2025-02-17 10:20:28,0.0
18800,2172,2796,-167,186,-178,2025-02-17 10:20:28,0.0
18704,2132,2712,-150,193,-194,2025-02-17 10:20:28,0.0
18784,2164,2792,-117,182,-181,2025-02-17 10:20:28,0.0
18792,2160,2836,-162,173,-179,2025-02-17 10:20:28,0.0
18700,2300,2832,-171,203,-196,2025-02-17 10:20:28,0.0
18780,2056,2600,-160,175,-177,2025-02-17 10:20:28,0.0
18848,2132,2632,-159,185,-168,2025-02-17 10:20:28,0.0
18752,2180,2724,-144,154,-190,2025-02-17 10:20:28,0.0
18604,2224,2724,-172,178,-185,2025-02-17 10:20:28,0.0
18628,2140,2600,-164,178,-182,2025-02-17 10:20:28,0.0
18692,2172,2844,-149,181,-168,2025-02-17 10:20:28,0.0
18716,2124,2660,-164,182,-178,2025-02-17 10:20:28,0.0
18696,2136,2692,-155,187,-175,2025-02-17 10:20:28,0.0
18700,2224,2684,-169,200,-184,2025-02-17 10:20:28,0.0
18804,2188,2724,-161,184,-175,2025-02-17 10:20:28,0.0
18740,2124,2768,-124,179,-192,2025-02-17 10:20:28,0.0
18792,2244,2740,-168,161,-182,2025-02-17 10:20:28,0.0
18760,2240,2692,-163,193,-203,2025-02-17 10:20:28,0.0
18752,2176,2724,-166,169,-182,2025-02-17 10:20:28,0.0
18696,2208,2696,-155,168,-191,2025-02-17 10:20:28,0.0
18812,2176,2664,-162,164,-151,2025-02-17 10:20:28,0.0
18736,2224,2784,-171,180,-179,2025-02-17 10:20:28,0.0
18796,2176,2752,-157,170,-178,2025-02-17 10:20:28,0.0
18796,2196,2704,-128,169,-179,2025-02-17 10:20:28,0.0
18780,2176,2704,-140,156,-191,2025-02-17 10:20:28,0.0
18684,2056,2752,-153,171,-170,2025-02-17 10:20:29,0.0
18772,2120,2732,-169,188,-158,2025-02-17 10:20:29,0.0
18692,2080,2728,-159,174,-185,2025-02-17 10:20:29,0.0
18768,2120,2668,-148,182,-167,2025-02-17 10:20:29,0.0
18740,2168,2724,-137,164,-187,2025-02-17 10:20:29,0.0
18668,2196,2844,-175,181,-194,2025-02-17 10:20:29,0.0
18752,2144,2796,-183,151,-161,2025-02-17 10:20:29,0.0
18796,2176,2668,-147,190,-172,2025-02-17 10:20:29,0.0
18780,2160,2732,-170,189,-167,2025-02-17 10:20:29,0.0
18724,2120,2752,-151,181,-170,2025-02-17 10:20:29,0.0
18680,2156,2648,-148,187,-200,2025-02-17 10:20:29,0.0
18744,2136,2704,-165,188,-219,2025-02-17 10:20:29,0.0
18760,2164,2676,-134,157,-183,2025-02-17 10:20:29,
18764,2168,2672,-158,192,-163,2025-02-17 10:20:29,0.0
18824,2224,2676,-162,176,-160,2025-02-17 10:20:29,0.0
18768,2124,2672,-158,156,-174,2025-02-17 10:20:29,0.0
18776,2228,2700,-154,148,-170,2025-02-17 10:20:29,0.0
18688,2220,2768,-166,168,-185,2025-02-17 10:20:29,0.0
18848,2088,2608,-152,178,-178,2025-02-17 10:20:29,0.0
18764,2076,2776,-146,192,-166,2025-02-17 10:20:29,0.0
18752,2212,2776,-134,176,-170,2025-02-17 10:20:29,0.0
18840,2216,2732,-159,177,-174,2025-02-17 10:20:29,0.0
18780,2224,2608,-151,159,-161,2025-02-17 10:20:29,0.0
18744,2208,2756,-178,170,-167,2025-02-17 10:20:29,0.0
18760,2124,2848,-160,174,-172,2025-02-17 10:20:29,0.0
18716,2144,2700,-172,192,-174,2025-02-17 10:20:29,0.0
18580,2080,2788,-158,187,-190,2025-02-17 10:20:29,0.0
18720,2120,2764,-131,158,-178,2025-02-17 10:20:29,0.0
18752,2192,2764,-139,177,-169,2025-02-17 10:20:29,0.0
18680,2180,2784,-154,169,-184,2025-02-17 10:20:29,0.0
18768,2080,2740,-163,180,-165,2025-02-17 10:20:29,0.0
18796,2180,2700,-152,181,-176,2025-02-17 10:20:29,0.0
18776,2208,2772,-143,178,-193,2025-02-17 10:20:29,0.0
18768,2112,2656,-151,164,-188,2025-02-17 10:20:29,0.0
18720,2192,2772,-165,167,-192,2025-02-17 10:20:29,0.0
18796,2156,2796,-152,184,-170,2025-02-17 10:20:29,0.0
18712,2248,2792,-132,172,-175,2025-02-17 10:20:29,0.0
18776,2144,2552,-175,168,-172,2025-02-17 10:20:29,0.0
18864,2148,2760,-163,173,-172,2025-02-17 10:20:29,0.0
18676,2192,2824,-160,160,-185,2025-02-17 10:20:29,0.0
18716,2160,2744,-162,153,-168,2025-02-17 10:20:29,0.0
18676,2100,2700,-142,178,-183,2025-02-17 10:20:29,0.0
18708,2160,2636,-174,136,-193,2025-02-17 10:20:29,0.0
18748,2092,2720,-156,159,-194,2025-02-17 10:20:29,0.0
18752,2116,2752,-174,170,-184,2025-02-17 10:20:29,0.0
18744,2168,2584,-157,174,-184,2025-02-17 10:20:29,0.0
18772,2108,2820,-168,175,-167,2025-02-17 10:20:29,0.0
18720,2192,2688,-145,186,-172,2025-02-17 10:20:29,0.0
18752,2208,2656,-149,186,-181,2025-02-17 10:20:29,0.0
18744,2180,2856,-168,174,-189,2025-02-17 10:20:29,0.0
18700,2220,2640,-146,159,-164,2025-02-17 10:20:29,0.0
18808,2152,2816,-164,178,-179,2025-02-17 10:20:29,0.0
18784,2136,2672,-141,170,-159,2025-02-17 10:20:29,0.0
18828,2240,2712,-181,160,-170,2025-02-17 10:20:29,0.0
18764,2156,2724,-155,167,-178,2025-02-17 10:20:29,0.0
18720,2176,2580,-155,196,-173,2025-02-17 10:20:29,0.0
18756,2164,2680,-161,165,-184,2025-02-17 10:20:29,0.0
18720,2100,2792,-188,181,-170,2025-02-17 10:20:29,0.0
18748,2160,2720,-164,164,-172,2025-02-17 10:20:29,0.0
18732,2288,2716,-122,231,-198,2025-02-17 10:20:29,0.0
18564,2120,2904,-201,164,-69,2025-02-17 10:20:29,0.0
19000,1988,2448,-194,186,-225,2025-02-17 10:20:29,0.0
18460,2292,2728,-169,53,-165,2025-02-17 10:20:29,0.0
18768,2012,2512,-185,187,-100,2025-02-17 10:20:29,0.0
18760,2152,2448,-208,380,-166,2025-02-17 10:20:30,0.0
18744,2192,3048,-125,543,-152,2025-02-17 10:20:30,0.0
18956,2156,3364,-181,146,-225,2025-02-17 10:20:30,0.0
18964,2044,3104,-27,-311,-297,2025-02-17 10:20:30,0.0
18888,2252,2788,-52,-671,-440,2025-02-17 10:20:30,0.0
18896,2340,1764,-94,-771,-368,2025-02-17 10:20:30,0.0
19248,2084,2636,7,-191,-545,2025-02-17 10:20:30,0.0
18820,2364,2344,-160,401,-352,2025-02-17 10:20:30,0.0
18568,2312,2832,-129,342,-52,2025-02-17 10:20:30,0.0
19192,1956,3264,-52,-712,-175,2025-02-17 10:20:30,0.0
19124,2316,2176,-37,-934,-537,2025-02-17 10:20:30,0.0
18184,2504,1912,-213,-81,-248,2025-02-17 10:20:30,0.0
18420,2304,2144,-144,628,4,2025-02-17 10:20:30,0.0
18900,2020,2376,-216,967,-70,2025-02-17 10:20:30,0.0
18472,2196,2852,-283,1021,50,2025-02-17 10:20:30,0.0
18520,2196,2764,-267,645,130,2025-02-17 10:20:30,0.0
18868,2840,3752,-96,652,50,2025-02-17 10:20:30,0.0
19380,2220,2836,-282,648,66,2025-02-17 10:20:30,0.0
19036,1720,2820,-77,735,-125,2025-02-17 10:20:30,0.0
18552,2172,3132,-226,465,-187,2025-02-17 10:20:30,0.0
19044,2040,2984,-75,-280,-259,2025-02-17 10:20:30,0.0
18908,2056,3048,-94,-760,-478,2025-02-17 10:20:30,0.0
18532,2640,2600,-53,-760,-300,2025-02-17 10:20:30,0.0
17928,2308,2324,-83,39,82,2025-02-17 10:20:30,0.0
18748,2140,2376,-148,793,261,2025-02-17 10:20:30,0.0
19072,2064,2588,-95,864,141,2025-02-17 10:20:30,0.0
18580,2260,2796,-173,786,219,2025-02-17 10:20:30,0.0
18776,2000,2908,-149,955,250,2025-02-17 10:20:30,0.0
18984,1984,3028,-128,838,62,2025-02-17 10:20:30,0.0
18764,2008,3044,-89,255,-34,2025-02-17 10:20:30,0.0
18808,1928,2728,-170,-208,-137,2025-02-17 10:20:30,0.0
19028,1996,2872,-114,-45,-252,2025-02-17 10:20:30,0.0
19132,2224,2764,-186,63,-439,2025-02-17 10:20:30,0.0
18504,2220,2956,-159,92,-138,2025-02-17 10:20:30,0.0
19276,2156,2396,-284,-357,-225,2025-02-17 10:20:30,0.0
19092,1804,3184,-4,-568,-455,2025-02-17 10:20:30,0.0
18120,2308,2756,-349,-238,-439,2025-02-17 10:20:30,0.0
18416,2360,2584,-135,47,-167,2025-02-17 10:20:30,0.0
18952,2084,2688,-128,152,-226,2025-02-17 10:20:30,0.0
19328,1732,2452,-153,53,-755,2025-02-17 10:20:30,0.0
18828,2164,2920,-178,-106,-760,2025-02-17 10:20:30,0.0
18592,2404,2840,-155,-338,-681,2025-02-17 10:20:30,0.0
18784,2208,2736,-152,-514,-642,2025-02-17 10:20:30,0.0
18840,2320,2552,-128,-507,-556,2025-02-17 10:20:30,0.0
18884,2356,2572,-117,-350,-502,2025-02-17 10:20:30,0.0
18816,2448,2528,-104,28,-330,2025-02-17 10:20:30,0.0
17380,2100,2384,-163,513,28,2025-02-17 10:20:30,0.0
18092,2492,2428,-111,755,128,2025-02-17 10:20:30,0.0
19360,2348,2880,-103,853,445,2025-02-17 10:20:30,
19100,2156,2624,-195,1026,309,2025-02-17 10:20:30,0.0
19132,1956,2712,-223,779,81,2025-02-17 10:20:30,0.0
18624,1936,3232,-124,242,-45,2025-02-17 10:20:30,0.0
18384,2452,3032,-101,-131,35,2025-02-17 10:20:30,0.0
18476,2596,2548,-86,-264,544,2025-02-17 10:20:30,0.0
18640,2156,2180,-239,364,931,2025-02-17 10:20:30,0.0
19632,1688,2312,-144,1100,196,2025-02-17 10:20:30,0.0
18372,2532,2516,-363,1800,533,2025-02-17 10:20:30,0.0
19388,2416,3260,-416,1654,766,2025-02-17 10:20:30,0.0
18916,2488,3224,-344,976,750,2025-02-17 10:20:30,0.0
18800,2316,2960,-502,444,1290,2025-02-17 10:20:30,0.0
18908,1928,3276,-637,-132,1344,2025-02-17 10:20:30,0.0
18648,1660,2940,-757,-305,1336,2025-02-17 10:20:31,0.0
18856,1404,2940,-616,-348,1126,2025-02-17 10:20:31,0.0
18828,1136,2752,-357,-579,616,2025-02-17 10:20:31,0.0
18772,1352,2452,-476,-545,418,2025-02-17 10:20:31,0.0
19036,1804,2780,-378,-204,13,2025-02-17 10:20:31,0.0
18760,1996,2472,-202,98,72,2025-02-17 10:20:31,0.0
19120,2212,2368,-416,121,1055,2025-02-17 10:20:31,0.0
18780,2236,2840,-740,-95,2457,2025-02-17 10:20:31,0.0
19320,2168,2716,-1059,-191,4242,2025-02-17 10:20:31,0.0
18792,1820,2900,-1605,-807,6363,2025-02-17 10:20:31,0.0
19840,1172,2296,-2540,-609,7696,2025-02-17 10:20:31,0.0
19024,524,1712,-3917,263,8295,2025-02-17 10:20:31,0.0
18068,40,1560,-5295,1651,8777,2025-02-17 10:20:31,0.0
18164,156,1596,-6556,2985,9475,2025-02-17 10:20:31,0.0
19368,272,2372,-7362,5096,10487,2025-02-17 10:20:31,0.0
19832,116,3952,-7439,5351,10962,2025-02-17 10:20:31,0.0
20408,-108,3332,-6998,4073,11384,2025-02-17 10:20:31,0.0
19840,-476,4060,-6440,2110,12146,2025-02-17 10:20:31,0.0
20040,-976,4632,-5348,977,12407,2025-02-17 10:20:31,0.0
21120,-1784,2888,-4946,253,11616,2025-02-17 10:20:31,0.0
20932,-1604,2364,-5227,-837,10375,2025-02-17 10:20:31,0.0
22292,-1648,2940,-4864,-3065,9907,2025-02-17 10:20:31,0.0
23720,-2124,4616,-3184,-6541,9669,2025-02-17 10:20:31,0.0
25080,-3588,6196,801,-11181,9180,2025-02-17 10:20:31,0.0
27644,-5732,5484,6684,-16427,6765,2025-02-17 10:20:31,0.0
28956,-7336,3380,10541,-21276,3192,2025-02-17 10:20:31,0.0
27828,-9124,-1136,10849,-28196,-1278,2025-02-17 10:20:31,0.0
26068,-9900,-4256,6886,-32768,-2874,2025-02-17 10:20:31,0.0
24204,-10336,-6520,751,-32768,-2099,2025-02-17 10:20:31,0.0
23484,-10036,-8364,-7153,-32768,1775,2025-02-17 10:20:31,0.0
23888,-9780,-8160,-12513,-32768,5521,2025-02-17 10:20:31,0.0
25576,-10664,-7700,-15057,-32768,7483,2025-02-17 10:20:31,0.0
23788,-8456,-7668,-14920,-32768,8268,2025-02-17 10:20:31,0.0
23216,-7708,-7508,-12541,-32768,6503,2025-02-17 10:20:31,0.0
20984,-7048,-7592,-8362,-32768,2507,2025-02-17 10:20:31,0.0
18112,-6476,-8932,-4557,-32768,-3932,2025-02-17 10:20:31,0.0
10940,-6168,-11920,-4364,-32768,-13480,2025-02-17 10:20:31,0.0
2832,-6132,-15536,-9282,-32768,-19499,2025-02-17 10:20:31,0.0
-6540,-5280,-17080,-16322,-32768,-20701,2025-02-17 10:20:31,0.0
-15300,-3748,-14768,-22121,-32768,-15358,2025-02-17 10:20:31,0.0
-19328,-2228,-11136,-21319,-29321,-7871,2025-02-17 10:20:31,0.0
-19420,-816,-7880,-16238,3533,-570,2025-02-17 10:20:31,0.0
-16356,-300,-6364,-9792,32767,5717,2025-02-17 10:20:31,0.0
-13104,-108,-5568,-5053,32767,9354,2025-02-17 10:20:31,0.0
-8588,-352,-4324,-634,32767,11519,2025-02-17 10:20:31,0.0
-3592,-408,-4264,4452,32767,11989,2025-02-17 10:20:31,0.0
1080,-908,-6112,7749,32767,12045,2025-02-17 10:20:31,0.0
5884,-1168,-8944,8604,32767,11444,2025-02-17 10:20:31,0.0
9712,-1428,-10904,7433,32767,10081,2025-02-17 10:20:31,0.0
12836,-1524,-11876,5893,32767,7922,2025-02-17 10:20:31,0.0
15172,-1800,-12688,4018,32767,4544,2025-02-17 10:20:31,0.0
16728,-2168,-13056,1372,25244,-847,2025-02-17 10:20:31,0.0
15288,-2700,-11052,-445,8927,-5696,2025-02-17 10:20:31,0.0
12368,-4352,-9844,-330,-6174,-7793,2025-02-17 10:20:31,0.0
9984,-4956,-9880,313,-19745,-6608,2025-02-17 10:20:31,0.0
7272,-4976,-8968,1415,-30440,-3702,2025-02-17 10:20:31,0.0
5900,-5004,-11256,977,-32768,70,2025-02-17 10:20:31,0.0
4464,-4400,-12920,-872,-32768,3522,2025-02-17 10:20:31,0.0
3488,-3808,-14716,-4834,-32768,7080,2025-02-17 10:20:31,0.0
1788,-3324,-13864,-8167,-32768,9081,2025-02-17 10:20:31,0.0
1388,-3016,-13000,-10414,-32768,9515,2025-02-17 10:20:31,0.0
756,-2664,-11856,-11905,-32768,8056,2025-02-17 10:20:31,0.0
736,-2184,-10648,-12261,-27688,4951,2025-02-17 10:20:32,0.0
476,-1652,-10064,-11972,-15767,791,2025-02-17 10:20:32,0.0
-964,-488,-9348,-11712,-3169,-2906,2025-02-17 10:20:32,0.0
-2424,844,-9224,-11449,7792,-4308,2025-02-17 10:20:32,0.0
-3544,1832,-7952,-10663,17259,-3605,2025-02-17 10:20:32,0.0
-3192,2788,-7152,-8235,23780,-1273,2025-02-17 10:20:32,0.0
-2908,3164,-5200,-3998,27555,1985,2025-02-17 10:20:32,0.0
-1540,3332,-5308,350,28563,5440,2025-02-17 10:20:32,0.0
240,3160,-6080,4599,27308,8540,2025-02-17 10:20:32,0.0
2624,2512,-7636,7362,24395,10569,2025-02-17 10:20:32,0.0
5936,2180,-10396,9165,19588,10722,2025-02-17 10:20:32,0.0
8808,2336,-13292,7852,13911,8190,2025-02-17 10:20:32,0.0
11136,2060,-15440,4485,7114,2168,2025-02-17 10:20:32,0.0
11268,1088,-15348,1935,999,-4220,2025-02-17 10:20:32,0.0
9524,212,-14424,1987,-4107,-9151,2025-02-17 10:20:32,0.0
6232,-240,-14324,3415,-8757,-12088,2025-02-17 10:20:32,0.0
2916,-792,-14508,5353,-13152,-11881,2025-02-17 10:20:32,0.0
160,-848,-15204,7487,-15460,-9737,2025-02-17 10:20:32,0.0
-2000,-676,-17276,8055,-16822,-5845,2025-02-17 10:20:32,0.0
-3040,-644,-18136,6815,-16949,-1106,2025-02-17 10:20:32,0.0
-3032,-1284,-17628,5055,-16262,3355,2025-02-17 10:20:32,0.0
-1316,-1984,-15908,3898,-14136,7018,2025-02-17 10:20:32,0.0
792,-2540,-14696,4218,-11788,6499,2025-02-17 10:20:32,0.0
2460,-2792,-14036,5238,-9047,3384,2025-02-17 10:20:32,0.0
3780,-3224,-14720,5736,-6538,-1315,2025-02-17 10:20:32,0.0
2260,-3504,-14768,5101,-4341,-5628,2025-02-17 10:20:32,
928,-3656,-16260,2842,-3041,-8073,2025-02-17 10:20:32,0.0
-988,-3760,-16748,162,-2328,-7606,2025-02-17 10:20:32,0.0
-2464,-3668,-16452,-1679,-2103,-5251,2025-02-17 10:20:32,0.0
-3160,-3520,-15288,-2544,-2195,-1951,2025-02-17 10:20:32,0.0
-2416,-3408,-15580,-2362,-2833,1637,2025-02-17 10:20:32,0.0
-1256,-3480,-15580,-1579,-3962,4683,2025-02-17 10:20:32,0.0
1924,-3108,-18008,-737,-5987,6892,2025-02-17 10:20:32,0.0
2140,-2988,-16828,-1361,-7357,6082,2025-02-17 10:20:32,0.0
3848,-2656,-17308,-2595,-8351,3325,2025-02-17 10:20:32,0.0
3448,-2500,-15680,-3873,-12745,-858,2025-02-17 10:20:32,0.0
2200,-2016,-14772,-4344,-18792,-4452,2025-02-17 10:20:32,0.0
72,-1836,-14564,-4657,-21378,-6530,2025-02-17 10:20:32,0.0
-1784,-1736,-14064,-4506,-20167,-5905,2025-02-17 10:20:32,0.0
-3300,-1416,-13100,-3998,-17938,-3615,2025-02-17 10:20:32,0.0
-3864,-1504,-11780,-3396,-18791,-1458,2025-02-17 10:20:32,0.0
-22108,-2120,17268,-11702,-32126,-7252,2025-02-17 10:20:32,0.0
-11192,-1772,-436,-13746,-32702,-7356,2025-02-17 10:20:32,0.0
-8764,-1752,-4220,-6375,-28688,-4366,2025-02-17 10:20:32,0.0
-9312,-1780,-5936,6027,-24895,535,2025-02-17 10:20:32,0.0
-6668,-5028,-11732,9721,-30071,2398,2025-02-17 10:20:32,0.0
-7052,-4308,-18488,4668,-31334,2353,2025-02-17 10:20:32,0.0
-10404,-252,-16396,-805,-29644,3836,2025-02-17 10:20:32,0.0
-10232,384,-14012,-5429,-29198,5093,2025-02-17 10:20:32,0.0
-6492,-404,-8556,-7838,-32768,4336,2025-02-17 10:20:32,0.0
-6304,-836,-4568,-4708,-32768,2713,2025-02-17 10:20:32,0.0
-7780,-908,-2348,1076,-32768,1114,2025-02-17 10:20:32,0.0
-10344,-1096,-360,5312,-32768,152,2025-02-17 10:20:32,0.0
-14852,-1412,3452,7100,-32768,-111,2025-02-17 10:20:32,0.0
-24344,-772,2812,4011,-32768,1045,2025-02-17 10:20:32,0.0
-10772,1336,1412,-895,-3606,3144,2025-02-17 10:20:32,0.0
-6736,-452,-1032,-2605,1060,4556,2025-02-17 10:20:32,0.0
-6848,-1516,2492,-878,8105,2376,2025-02-17 10:20:32,0.0
-8988,-1396,5552,2657,14336,-759,2025-02-17 10:20:32,0.0
-10356,-2496,1748,4596,15617,-2040,2025-02-17 10:20:33,0.0
-11304,-2860,-4856,54,5391,-1937,2025-02-17 10:20:33,0.0
-13316,-1948,-1364,-2176,738,-1437,2025-02-17 10:20:33,0.0
-14932,-536,2996,-495,5747,-670,2025-02-17 10:20:33,0.0
-13200,-708,148,402,10003,-21,2025-02-17 10:20:33,0.0
-12096,-824,-1804,-1006,10738,47,2025-02-17 10:20:33,0.0
-12304,76,-1084,-2458,11622,-958,2025-02-17 10:20:33,0.0
-11908,592,-2088,-3191,13936,-2578,2025-02-17 10:20:33,0.0
-13416,1616,-2636,-2850,19159,-4497,2025-02-17 10:20:33,0.0
-14376,1068,-3624,-3137,21537,-6239,2025-02-17 10:20:33,0.0
-14836,-460,-3564,-3371,18974,-7060,2025-02-17 10:20:33,0.0
-16420,-2020,-2588,-2440,14720,-6943,2025-02-17 10:20:33,0.0
-19012,-2524,-1572,-218,9101,-4823,2025-02-17 10:20:33,0.0
-19188,-3112,-2444,1397,4364,-1750,2025-02-17 10:20:33,0.0
-16880,-1944,-3888,1701,-650,426,2025-02-17 10:20:33,0.0
-13496,-1256,-5164,590,-4292,227,2025-02-17 10:20:33,0.0
-11912,-1476,-4960,-914,-5810,-504,2025-02-17 10:20:33,0.0
-11156,-1912,-3272,-1456,-4799,-780,2025-02-17 10:20:33,0.0
-11432,-1696,-1820,-698,-1055,-772,2025-02-17 10:20:33,0.0
-11680,-1556,-2568,266,3059,-735,2025-02-17 10:20:33,0.0
-12048,-1036,-3808,381,3672,-860,2025-02-17 10:20:33,0.0
-12752,-532,-4588,-134,3704,-827,2025-02-17 10:20:33,0.0
-13040,272,-5052,-573,3052,-653,2025-02-17 10:20:33,0.0
-12852,-1060,-5408,-1327,1989,-824,2025-02-17 10:20:33,0.0
-13440,-340,-4872,-1300,1556,-1000,2025-02-17 10:20:33,0.0
-13276,-600,-6268,-2137,989,-1033,2025-02-17 10:20:33,0.0
-12728,-640,-5640,-2800,-232,-1398,2025-02-17 10:20:33,0.0
-12612,-1000,-5228,-3177,-684,-1506,2025-02-17 10:20:33,0.0
-12020,-708,-4836,-3547,-891,-1512,2025-02-17 10:20:33,0.0
-11248,-824,-5420,-4027,-546,-1756,2025-02-17 10:20:33,0.0
-11464,-1272,-5192,-4463,216,-2075,2025-02-17 10:20:33,0.0
-11872,-1284,-4932,-4505,1460,-2288,2025-02-17 10:20:33,0.0
-12556,-1420,-4812,-4725,2202,-2445,2025-02-17 10:20:33,0.0
-13020,-944,-4952,-4855,2375,-2464,2025-02-17 10:20:33,0.0
-13036,-848,-6040,-5520,1512,-2708,2025-02-17 10:20:33,0.0
-13340,-704,-5560,-6841,-38,-3098,2025-02-17 10:20:33,0.0
-13304,-996,-4856,-7938,-1248,-3176,2025-02-17 10:20:33,0.0
-12980,-1128,-4432,-8588,-1494,-2955,2025-02-17 10:20:33,0.0
-12224,-1176,-5060,-9117,-1197,-2924,2025-02-17 10:20:33,0.0
-11564,-1488,-5832,-9859,-719,-3137,2025-02-17 10:20:33,0.0
-11320,-2344,-6492,-10521,6,-3758,2025-02-17 10:20:33,0.0
-11688,-2944,-6592,-11077,821,-3976,2025-02-17 10:20:33,0.0
-11664,-3008,-7176,-11579,1733,-4099,2025-02-17 10:20:33,0.0
-12052,-3148,-6528,-12278,1652,-4237,2025-02-17 10:20:33,0.0
-12708,-3076,-5996,-12922,1289,-4600,2025-02-17 10:20:33,0.0
-12772,-2628,-6016,-13419,156,-4936,2025-02-17 10:20:33,0.0
-13068,-2132,-6308,-13822,-1144,-5076,2025-02-17 10:20:33,0.0
-12956,-2032,-6832,-14293,-2747,-5019,2025-02-17 10:20:33,0.0
-12352,-2312,-7140,-14710,-3956,-4897,2025-02-17 10:20:33,0.0
-12052,-2168,-6752,-15239,-4162,-4718,2025-02-17 10:20:33,0.0
-11212,-2076,-6560,-15410,-3535,-4842,2025-02-17 10:20:33,0.0
-10968,-2080,-6880,-15846,-2528,-4640,2025-02-17 10:20:33,0.0
-10376,-2848,-7636,-16161,-1331,-4655,2025-02-17 10:20:33,0.0
-10256,-3692,-8004,-16043,-310,-4510,2025-02-17 10:20:33,0.0
-10584,-4016,-6904,-15988,297,-4133,2025-02-17 10:20:33,0.0
-10740,-3428,-4788,-15685,901,-3646,2025-02-17 10:20:33,0.0
-11656,-2452,-4088,-15151,1744,-3180,2025-02-17 10:20:33,0.0
-12692,-1804,-3364,-15109,1810,-3008,2025-02-17 10:20:33,0.0
-13748,-2468,-2248,-15197,918,-3494,2025-02-17 10:20:33,0.0
-14300,-4392,-2816,-14820,-989,-4138,2025-02-17 10:20:33,0.0
-14856,-6100,-3032,-14083,-2194,-3626,2025-02-17 10:20:33,0.0
-14200,-7136,-4660,-12938,-1761,-2928,2025-02-17 10:20:33,0.0
-14496,-4316,-6200,-10949,677,-2017,2025-02-17 10:20:33,0.0
-13972,-708,-6756,-10540,2332,-1393,2025-02-17 10:20:34,0.0
-12700,2448,-5132,-11049,2995,-1502,2025-02-17 10:20:34,0.0
-11668,3048,-4180,-11935,1874,-2602,2025-02-17 10:20:34,0.0
-12952,2316,-3964,-13138,200,-3013,2025-02-17 10:20:34,
-12544,1908,-3316,-13821,-744,-2840,2025-02-17 10:20:34,0.0
-11476,1448,-4300,-14083,-53,-3472,2025-02-17 10:20:34,0.0
-12220,368,-4068,-14279,1153,-4100,2025-02-17 10:20:34,0.0
-12728,-376,-4764,-14066,2260,-4151,2025-02-17 10:20:34,0.0
-13464,-1556,-4332,-13980,2231,-4577,2025-02-17 10:20:34,0.0
-12952,-2332,-3872,-13713,1491,-4993,2025-02-17 10:20:34,0.0
-12712,-1576,-3424,-13081,118,-5367,2025-02-17 10:20:34,0.0
-12232,-220,-4396,-12925,-618,-5251,2025-02-17 10:20:34,0.0
-11564,616,-4288,-12785,-471,-5391,2025-02-17 10:20:34,0.0
-11588,972,-4492,-12617,477,-5478,2025-02-17 10:20:34,0.0
-12080,696,-4144,-12402,1352,-5446,2025-02-17 10:20:34,0.0
-12340,88,-4324,-12024,2288,-5342,2025-02-17 10:20:34,0.0
-12276,-384,-5256,-11710,2620,-5302,2025-02-17 10:20:34,0.0
-12520,-564,-4368,-11404,1654,-5668,2025-02-17 10:20:34,0.0
-12976,-120,-3904,-11056,346,-5924,2025-02-17 10:20:34,0.0
-12920,248,-4304,-11020,-787,-5714,2025-02-17 10:20:34,0.0
-12384,16,-4180,-10959,-1122,-5654,2025-02-17 10:20:34,0.0
-11944,164,-5256,-10998,-872,-5734,2025-02-17 10:20:34,0.0
-11524,324,-6256,-11295,-188,-6081,2025-02-17 10:20:34,0.0
-11936,68,-5632,-11696,284,-6505,2025-02-17 10:20:34,0.0
-12236,-132,-4832,-11582,387,-6634,2025-02-17 10:20:34,0.0
-12308,-140,-4604,-11257,364,-6746,2025-02-17 10:20:34,0.0
-12588,-8,-4584,-11085,-227,-6871,2025-02-17 10:20:34,0.0
-12504,0,-5088,-11227,-648,-6984,2025-02-17 10:20:34,0.0
-11828,-48,-4900,-11348,-1388,-7566,2025-02-17 10:20:34,0.0
-11460,432,-5380,-10954,-2100,-7788,2025-02-17 10:20:34,0.0
-12064,128,-6884,-10694,-1173,-7320,2025-02-17 10:20:34,0.0
-13180,-1956,-7944,-11092,2237,-6533,2025-02-17 10:20:34,0.0
-14740,-3084,-6500,-10723,4573,-5253,2025-02-17 10:20:34,0.0
-13120,-1840,-7280,-9510,2281,-4225,2025-02-17 10:20:34,0.0
-12116,-400,-6264,-9306,-2458,-4355,2025-02-17 10:20:34,0.0
-11060,-1832,-4712,-9905,-5336,-5068,2025-02-17 10:20:34,0.0
-10416,-2764,-3228,-9704,-5196,-5519,2025-02-17 10:20:34,0.0
-10464,-3412,-3676,-8570,-2709,-5999,2025-02-17 10:20:34,0.0
-11076,-3500,-5912,-8083,1104,-5875,2025-02-17 10:20:34,0.0
-11964,-3300,-6648,-8400,4443,-5430,2025-02-17 10:20:34,0.0
-13036,-2684,-5736,-8573,6376,-5599,2025-02-17 10:20:34,0.0
-14628,-1812,-4860,-8753,6719,-5752,2025-02-17 10:20:34,0.0
-15004,-1208,-5000,-8981,4411,-6067,2025-02-17 10:20:34,0.0
-14316,-2148,-4576,-10209,-4754,-6954,2025-02-17 10:20:34,0.0
-12816,-2828,-4588,-10509,-4723,-6724,2025-02-17 10:20:34,0.0
-11784,-3612,-4704,-10528,-3286,-6282,2025-02-17 10:20:34,0.0
-10720,-3720,-4660,-10205,-1978,-5889,2025-02-17 10:20:34,0.0
-10276,-3328,-5132,-9995,-746,-5758,2025-02-17 10:20:34,0.0
-10628,-3704,-5136,-10002,330,-5728,2025-02-17 10:20:34,0.0
-11704,-4000,-5008,-9813,1331,-5368,2025-02-17 10:20:34,0.0
-12784,-3280,-4992,-9434,2039,-4445,2025-02-17 10:20:34,0.0
-13204,-2680,-5264,-9399,1567,-4044,2025-02-17 10:20:34,0.0
-13344,-2724,-5732,-9745,366,-3864,2025-02-17 10:20:34,0.0
-13512,-2356,-5496,-9427,-389,-3860,2025-02-17 10:20:34,0.0
-13604,-2008,-5760,-8481,-449,-3596,2025-02-17 10:20:34,0.0
-13832,-2448,-4208,-8740,-1939,-3098,2025-02-17 10:20:34,0.0
-12824,-2428,-2040,-8981,-2917,-1911,2025-02-17 10:20:34,0.0
-11776,-2580,-2716,-9128,-3325,-1237,2025-02-17 10:20:34,0.0
-11104,-3480,-4552,-9097,-2487,-809,2025-02-17 10:20:34,0.0
-11436,-4340,-5488,-7799,658,-899,2025-02-17 10:20:34,0.0
-12288,-3512,-6672,-6258,3041,-1563,2025-02-17 10:20:34,0.0
-13332,-1348,-6400,-5655,2806,-1816,2025-02-17 10:20:35,0.0
-12700,60,-5376,-6020,-462,-1738,2025-02-17 10:20:35,0.0
-11620,24,-4104,-6458,-3606,-1926,2025-02-17 10:20:35,0.0
-10904,-544,-3536,-6481,-3679,-1795,2025-02-17 10:20:35,0.0
-10760,-212,-2928,-5923,-735,-1704,2025-02-17 10:20:35,0.0
-11728,236,-3100,-5536,3507,-2125,2025-02-17 10:20:35,0.0
-14524,268,-3884,-5296,6221,-2228,2025-02-17 10:20:35,0.0
-16120,-364,-4856,-5302,5694,-1684,2025-02-17 10:20:35,0.0
-15720,-1200,-6060,-5378,2839,-1219,2025-02-17 10:20:35,0.0
-16076,-1476,-5672,-5419,-812,-717,2025-02-17 10:20:35,0.0
-15380,-1648,-4252,-5526,-3075,-19,2025-02-17 10:20:35,0.0
-13304,-1788,-4140,-5178,-3838,711,2025-02-17 10:20:35,0.0
-12072,-1624,-3888,-4909,-3545,1198,2025-02-17 10:20:35,0.0
-10984,-1280,-3308,-4512,-2988,1429,2025-02-17 10:20:35,0.0
-11164,500,-3420,-3246,1706,590,2025-02-17 10:20:35,0.0
-12084,416,-3328,-3249,1639,-13,2025-02-17 10:20:35,0.0
-12968,-144,-3028,-3170,1018,-388,2025-02-17 10:20:35,0.0
-13428,-236,-2812,-2933,14,-382,2025-02-17 10:20:35,0.0
-13016,80,-2964,-2713,-896,-150,2025-02-17 10:20:35,0.0
-12124,228,-2976,-2425,-1057,32,2025-02-17 10:20:35,0.0
-11572,328,-2788,-2074,-193,4,2025-02-17 10:20:35,0.0
-11668,104,-2416,-1519,1454,-215,2025-02-17 10:20:35,0.0
-12164,-44,-3120,-1169,2267,-365,2025-02-17 10:20:35,0.0
-12496,-560,-3304,-767,2015,-527,2025-02-17 10:20:35,0.0
-13568,-728,-3184,-375,1701,-190,2025-02-17 10:20:35,0.0
-13332,-744,-2944,369,1614,210,2025-02-17 10:20:35,0.0
-12916,-484,-3488,861,1538,525,2025-02-17 10:20:35,0.0
-12812,-292,-3368,1290,1774,775,2025-02-17 10:20:35,0.0
-13168,-192,-3052,1809,2150,1144,2025-02-17 10:20:35,0.0
-13380,-204,-3276,2354,2489,1631,2025-02-17 10:20:35,0.0
-13512,-20,-3804,2618,2376,1938,2025-02-17 10:20:35,0.0
-13436,440,-3672,2765,2050,2162,2025-02-17 10:20:35,0.0
-13036,744,-3892,2884,1786,2289,2025-02-17 10:20:35,0.0
-13396,912,-3604,3095,1563,2429,2025-02-17 10:20:35,0.0
-13168,1124,-3704,3318,1620,2420,2025-02-17 10:20:35,0.0
-12308,1396,-3640,3404,1611,2158,2025-02-17 10:20:35,0.0
-12416,2120,-4120,3766,2429,1618,2025-02-17 10:20:35,0.0
-13340,2380,-5052,3906,4370,1142,2025-02-17 10:20:35,0.0
-14508,2572,-6728,3294,6463,941,2025-02-17 10:20:35,0.0
-14780,3708,-8512,2601,7712,703,2025-02-17 10:20:35,0.0
-14804,4916,-10404,1421,7400,-437,2025-02-17 10:20:35,0.0
-15704,5252,-10832,-439,5679,-2251,2025-02-17 10:20:35,0.0
-15972,3792,-10244,-2014,673,-3634,2025-02-17 10:20:35,
-14036,2956,-9188,-2344,-6250,-4523,2025-02-17 10:20:35,0.0
-12644,2332,-7624,-3287,-10704,-5289,2025-02-17 10:20:35,0.0
-9972,1820,-6444,-4051,-10801,-5587,2025-02-17 10:20:35,0.0
-7988,904,-6912,-4185,-8919,-5660,2025-02-17 10:20:35,0.0
-7132,-424,-6768,-4019,-6342,-5860,2025-02-17 10:20:35,0.0
-7788,-1948,-7304,-3967,-3294,-5525,2025-02-17 10:20:35,0.0
-8760,-3452,-6232,-3760,998,-4785,2025-02-17 10:20:35,0.0
-10060,-3684,-5324,-2975,4329,-4202,2025-02-17 10:20:35,0.0
-11240,-3384,-6048,-1934,5861,-3970,2025-02-17 10:20:35,0.0
-12380,-2968,-6220,-1717,4606,-4239,2025-02-17 10:20:35,0.0
-13160,-2552,-6204,-1634,2355,-4512,2025-02-17 10:20:35,0.0
-13576,-1816,-6244,-1440,95,-4810,2025-02-17 10:20:35,0.0
-13548,-936,-7036,-1643,-2178,-4956,2025-02-17 10:20:35,0.0
-12524,-268,-7156,-2396,-4046,-4963,2025-02-17 10:20:35,0.0
-11420,-580,-6604,-2947,-5127,-4901,2025-02-17 10:20:35,0.0
-10080,-856,-6428,-3460,-5938,-4922,2025-02-17 10:20:35,0.0
-9220,-1388,-5940,-4181,-6125,-4972,2025-02-17 10:20:36,0.0
-8820,-2168,-5428,-4742,-5075,-5072,2025-02-17 10:20:36,0.0
-8716,-3000,-5116,-5051,-2716,-5287,2025-02-17 10:20:36,0.0
-9524,-4084,-4628,-4781,271,-5121,2025-02-17 10:20:36,0.0
-10428,-4432,-3916,-4011,1447,-4587,2025-02-17 10:20:36,0.0
-11408,-4052,-4780,-3428,2559,-3914,2025-02-17 10:20:36,0.0
-12072,-3620,-5312,-3333,3287,-3415,2025-02-17 10:20:36,0.0
-12924,-2948,-5164,-3256,3112,-3045,2025-02-17 10:20:36,0.0
-13196,-2376,-4632,-3034,1867,-2619,2025-02-17 10:20:36,0.0
-13044,-2152,-4364,-2712,-204,-2119,2025-02-17 10:20:36,0.0
-12428,-2456,-4000,-2505,-1874,-1696,2025-02-17 10:20:36,0.0
-11412,-3124,-3936,-2469,-2856,-1357,2025-02-17 10:20:36,0.0
-11328,-3536,-3572,-2331,-2666,-1098,2025-02-17 10:20:36,0.0
-11280,-3532,-3624,-2133,-1825,-757,2025-02-17 10:20:36,0.0
-10872,-3164,-3644,-1839,-415,-486,2025-02-17 10:20:36,0.0
-10908,-2788,-4148,-1882,1137,-479,2025-02-17 10:20:36,0.0
-11856,-2872,-4152,-2182,2524,-696,2025-02-17 10:20:36,0.0
-12896,-3100,-4172,-2312,2914,-946,2025-02-17 10:20:36,0.0
-13852,-3156,-4748,-2429,2264,-1292,2025-02-17 10:20:36,0.0
-14424,-2476,-4996,-2445,843,-1524,2025-02-17 10:20:36,0.0
-14688,-1152,-5528,-2523,-571,-1505,2025-02-17 10:20:36,0.0
-14284,-1556,-5736,-3372,-626,-1571,2025-02-17 10:20:36,0.0
-13948,-3564,-5160,-4072,-219,-1927,2025-02-17 10:20:36,0.0
-14280,-4884,-3688,-3969,-242,-2098,2025-02-17 10:20:36,0.0
-15156,-5240,-2508,-3388,-536,-1709,2025-02-17 10:20:36,0.0
-14592,-5120,-4840,-3315,95,-1477,2025-02-17 10:20:36,0.0
-15148,-5072,-4540,-2998,1112,-2250,2025-02-17 10:20:36,0.0
-15664,-5060,-4368,-2144,628,-2963,2025-02-17 10:20:36,0.0
-17480,-5476,-5052,-1433,-1042,-2233,2025-02-17 10:20:36,0.0
-17876,-4840,-6940,-998,-3440,-19,2025-02-17 10:20:36,0.0
-16172,-4004,-8668,-975,-5151,1817,2025-02-17 10:20:36,0.0
-12652,-3144,-9500,-1034,-5656,1866,2025-02-17 10:20:36,0.0
-10356,-3144,-9208,-1361,-5724,1076,2025-02-17 10:20:36,0.0
-9172,-3056,-7420,-1479,-5691,932,2025-02-17 10:20:36,0.0
-7776,-1688,-5776,-1357,-3854,1177,2025-02-17 10:20:36,0.0
-7740,180,-5172,-1171,-555,1194,2025-02-17 10:20:36,0.0
-8676,2004,-5656,-802,3704,1232,2025-02-17 10:20:36,0.0
-9820,1856,-6960,-1193,7119,688,2025-02-17 10:20:36,0.0
-11880,92,-7432,-1812,8060,-323,2025-02-17 10:20:36,0.0
-14168,-1388,-6900,-1836,6251,-138,2025-02-17 10:20:36,0.0
-15444,-3072,-6996,-1609,2908,1122,2025-02-17 10:20:36,0.0
-14812,-3536,-6364,-1174,-669,2553,2025-02-17 10:20:36,0.0
-13308,-3860,-6188,-646,-2721,3260,2025-02-17 10:20:36,0.0
-12052,-3556,-5896,-227,-3759,3660,2025-02-17 10:20:36,0.0
-10828,-2660,-5692,82,-4187,4189,2025-02-17 10:20:36,0.0
-10168,-1464,-4644,477,-3236,4667,2025-02-17 10:20:36,0.0
-9744,-112,-4180,857,-1914,4632,2025-02-17 10:20:36,0.0
-9492,1108,-4720,808,304,4030,2025-02-17 10:20:36,0.0
-9672,1228,-4136,742,888,2990,2025-02-17 10:20:36,0.0
-10360,1016,-3776,650,335,2277,2025-02-17 10:20:36,0.0
-10388,176,-3816,367,371,2140,2025-02-17 10:20:36,0.0
-9952,-44,-3664,204,1092,1891,2025-02-17 10:20:36,0.0
-9632,260,-3780,409,1801,1111,2025-02-17 10:20:36,0.0
-10448,696,-4632,393,1833,301,2025-02-17 10:20:36,0.0
-10972,476,-4356,320,1315,-84,2025-02-17 10:20:36,0.0
-11556,-228,-3888,177,505,-511,2025-02-17 10:20:36,0.0
-11848,-792,-2980,145,-165,-784,2025-02-17 10:20:36,0.0
-12232,-968,-2304,532,25,-868,2025-02-17 10:20:36,0.0
-12752,-540,-2764,1293,779,-431,2025-02-17 10:20:36,0.0
-13188,-212,-3356,1957,1426,454,2025-02-17 10:20:36,0.0
-13088,-108,-3568,2423,1969,1055,2025-02-17 10:20:36,0.0
-13660,-168,-3888,2741,2419,1735,2025-02-17 10:20:37,0.0
-13260,-1212,-4516,3054,2833,2119,2025-02-17 10:20:37,0.0
-14000,-2140,-5440,3068,3193,2121,2025-02-17 10:20:37,0.0
-16316,260,-5800,3009,4889,2731,2025-02-17 10:20:37,0.0
-17444,1688,-5028,3108,3840,3662,2025-02-17 10:20:37,0.0
-16972,1524,-4868,2798,121,3741,2025-02-17 10:20:37,0.0
-16024,64,-3864,2968,-2592,3375,2025-02-17 10:20:37,0.0
-14812,-732,-4364,3343,-1785,3008,2025-02-17 10:20:37,0.0
-14748,1260,-5792,3823,-213,3254,2025-02-17 10:20:37,0.0
-13928,3196,-7712,3412,1101,3067,2025-02-17 10:20:37,0.0
-15280,2988,-10288,86,641,-347,2025-02-17 10:20:37,0.0
-15488,1704,-10412,-557,-1512,-291,2025-02-17 10:20:37,0.0
-12372,108,-9400,-895,-5869,-843,2025-02-17 10:20:37,0.0
-9788,-1144,-7836,-1621,-9635,-1661,2025-02-17 10:20:37,0.0
-8388,-2604,-6548,-1672,-9050,-1310,2025-02-17 10:20:37,0.0
-7360,-3340,-5556,-744,-4726,-1384,2025-02-17 10:20:37,0.0
-7400,-2964,-5400,546,2608,-2524,2025-02-17 10:20:37,0.0
-8872,-2024,-7332,977,6152,-3391,2025-02-17 10:20:37,0.0
-10940,-1360,-7476,938,7374,-3420,2025-02-17 10:20:37,0.0
-12736,-1584,-7508,778,6357,-2716,2025-02-17 10:20:37,0.0
-13248,-1124,-7056,478,3149,-2372,2025-02-17 10:20:37,0.0
-12020,-944,-7192,348,-336,-3257,2025-02-17 10:20:37,0.0
-11492,-844,-7552,216,-3125,-4273,2025-02-17 10:20:37,
-11172,-820,-7120,-313,-4893,-4492,2025-02-17 10:20:37,0.0
-9920,-1300,-6156,-1109,-5456,-4011,2025-02-17 10:20:37,0.0
-8800,-1896,-5576,-1375,-4240,-3665,2025-02-17 10:20:37,0.0
-8308,-2396,-5420,-1405,-1547,-3746,2025-02-17 10:20:37,0.0
-8960,-2920,-5520,-1338,1380,-3690,2025-02-17 10:20:37,0.0
-9932,-3312,-5452,-1302,3181,-3347,2025-02-17 10:20:37,0.0
-10768,-3632,-5092,-1189,3382,-2952,2025-02-17 10:20:37,0.0
-11372,-3468,-4964,-910,2386,-2646,2025-02-17 10:20:37,0.0
-12476,-3600,-4604,-724,1595,-2216,2025-02-17 10:20:37,0.0
-12772,-3304,-4928,-686,688,-1530,2025-02-17 10:20:37,0.0
-12160,-2556,-5228,-837,34,-757,2025-02-17 10:20:37,0.0
-11840,-2120,-4776,-1040,-362,-438,2025-02-17 10:20:37,0.0
-11748,-2000,-4896,-1216,-52,53,2025-02-17 10:20:37,0.0
-11344,-1920,-3936,-1401,-27,592,2025-02-17 10:20:37,0.0
-11100,-1888,-3856,-1547,219,866,2025-02-17 10:20:37,0.0
-11180,-1836,-4160,-1697,682,808,2025-02-17 10:20:37,0.0
-11976,-2236,-4336,-1940,1531,728,2025-02-17 10:20:37,0.0
-12896,-2288,-4388,-2156,2016,638,2025-02-17 10:20:37,0.0
-14052,-1916,-4508,-2368,1261,679,2025-02-17 10:20:37,0.0
-14176,-1336,-5392,-2509,-975,661,2025-02-17 10:20:37,0.0
-12868,-1400,-5568,-2723,-2627,116,2025-02-17 10:20:37,0.0
-12100,-2148,-4700,-2959,-2922,-1004,2025-02-17 10:20:37,0.0
-12800,-2088,-3860,-3042,-1992,-1835,2025-02-17 10:20:37,0.0
-14132,-1868,-4052,-3620,-152,-1928,2025-02-17 10:20:37,0.0
-14048,-2296,-4748,-4244,739,-2373,2025-02-17 10:20:37,0.0
-14792,-2964,-5304,-4025,1692,-3326,2025-02-17 10:20:37,0.0
-15468,-4076,-5204,-3268,1871,-4259,2025-02-17 10:20:37,0.0
-16416,-5716,-5132,-2447,811,-4818,2025-02-17 10:20:37,0.0
-17452,-7044,-5532,-1400,-798,-4265,2025-02-17 10:20:37,0.0
-18460,-7132,-6280,-49,-2620,-2172,2025-02-17 10:20:37,0.0
-16700,-6444,-8148,938,-4536,249,2025-02-17 10:20:37,0.0
-13316,-3900,-9036,1096,-7288,1258,2025-02-17 10:20:37,0.0
-11024,-2264,-7616,366,-7692,1493,2025-02-17 10:20:37,0.0
-9088,-1244,-7740,4,-6255,1989,2025-02-17 10:20:37,0.0
-7572,564,-7528,407,-3126,2283,2025-02-17 10:20:37,0.0
-7620,2776,-6952,229,1276,1979,2025-02-17 10:20:37,0.0
-9564,3116,-7652,-213,5087,1219,2025-02-17 10:20:38,0.0
-11512,1696,-7488,-827,6019,116,2025-02-17 10:20:38,0.0
-14604,688,-6968,-1485,5301,-41,2025-02-17 10:20:38,0.0
-15872,-1156,-7068,-2333,4107,1288,2025-02-17 10:20:38,0.0
-13652,-3424,-7264,-2933,669,2504,2025-02-17 10:20:38,0.0
-12824,-3368,-6428,-2484,-3467,2674,2025-02-17 10:20:38,0.0
-12416,-2708,-5848,-1524,-6970,2763,2025-02-17 10:20:38,0.0
-12452,-1180,-4876,-946,-9075,2725,2025-02-17 10:20:38,0.0
-10804,216,-4000,-763,-4890,3053,2025-02-17 10:20:38,0.0
-8656,444,-4152,-63,-1421,2608,2025-02-17 10:20:38,0.0
-8376,848,-5032,357,1233,1959,2025-02-17 10:20:38,0.0
-9516,504,-4728,419,3419,1671,2025-02-17 10:20:38,0.0
-10596,448,-4876,490,4313,1838,2025-02-17 10:20:38,0.0
-11108,520,-4688,438,4328,2044,2025-02-17 10:20:38,0.0
-11196,804,-4580,500,3496,1851,2025-02-17 10:20:38,0.0
-10988,520,-4452,609,2376,1200,2025-02-17 10:20:38,0.0
-10992,-212,-4408,923,1532,456,2025-02-17 10:20:38,0.0
-11188,-392,-4080,1244,1531,-20,2025-02-17 10:20:38,0.0
-11584,-416,-4396,1600,1772,-303,2025-02-17 10:20:38,0.0
-12556,-476,-4728,1839,2114,-445,2025-02-17 10:20:38,0.0
-13736,-152,-4716,1926,1904,-112,2025-02-17 10:20:38,0.0
-14436,-12,-4752,1889,932,329,2025-02-17 10:20:38,0.0
-13832,512,-5440,1923,-774,625,2025-02-17 10:20:38,0.0
-13140,1132,-6068,1650,-2561,672,2025-02-17 10:20:38,0.0
-12324,1440,-6264,1290,-3409,507,2025-02-17 10:20:38,0.0
-11516,1080,-5920,1041,-3197,200,2025-02-17 10:20:38,0.0
-11424,16,-4468,1018,-1743,-108,2025-02-17 10:20:38,0.0
-11464,-616,-3304,1530,-884,-329,2025-02-17 10:20:38,0.0
-11544,-1468,-2584,2545,-463,-698,2025-02-17 10:20:38,0.0
-11848,-1572,-3572,3675,77,-1316,2025-02-17 10:20:38,0.0
-12716,-788,-6068,4386,1053,-1515,2025-02-17 10:20:38,0.0
-14472,-124,-9456,3830,3539,-1249,2025-02-17 10:20:38,0.0
-15964,-28,-10112,2284,7840,87,2025-02-17 10:20:38,0.0
-14240,-1164,-9024,1038,9205,1135,2025-02-17 10:20:38,0.0
-12492,-1888,-7076,1111,5612,1215,2025-02-17 10:20:38,0.0
-11416,-1428,-6308,1859,-994,805,2025-02-17 10:20:38,0.0
-11188,-792,-7140,1874,-6631,40,2025-02-17 10:20:38,0.0
-11376,-972,-7036,1860,-9704,-904,2025-02-17 10:20:38,0.0
-12656,-1664,-4280,1166,-5938,-896,2025-02-17 10:20:38,0.0
-10552,-3132,-4188,2213,1647,-123,2025-02-17 10:20:38,0.0
-9708,-3428,-6492,3556,3876,81,2025-02-17 10:20:38,0.0
-10128,-3508,-7028,3680,4491,147,2025-02-17 10:20:38,0.0
-11048,-3956,-6092,4308,4543,181,2025-02-17 10:20:38,0.0
-11480,-4376,-6688,5081,4072,504,2025-02-17 10:20:38,0.0
-11376,-4168,-7096,5931,3004,1006,2025-02-17 10:20:38,0.0
-11332,-4316,-6996,6421,2530,1359,2025-02-17 10:20:38,0.0
-11112,-4324,-6704,6823,2466,1625,2025-02-17 10:20:38,0.0
-11296,-4244,-5764,7481,2782,1989,2025-02-17 10:20:38,0.0
-11520,-4316,-5612,8117,3149,2456,2025-02-17 10:20:38,0.0
-11480,-3952,-6060,8903,3228,2873,2025-02-17 10:20:38,0.0
-11312,-3452,-6940,9403,3223,3147,2025-02-17 10:20:38,0.0
-11200,-2828,-7868,9273,3532,3293,2025-02-17 10:20:38,0.0
-11176,-2496,-7644,8681,3911,3257,2025-02-17 10:20:38,0.0
-11476,-2632,-5904,8807,4427,2953,2025-02-17 10:20:38,0.0
-12016,-2968,-6212,9171,4299,2862,2025-02-17 10:20:38,0.0
-12188,-3188,-6416,9290,3486,2904,2025-02-17 10:20:38,0.0
-12104,-3720,-6400,9483,2176,2954,2025-02-17 10:20:38,0.0
-12056,-4436,-6236,9740,1271,3111,2025-02-17 10:20:38,0.0
-12196,-5132,-5784,10295,924,3634,2025-02-17 10:20:38,0.0
-11912,-5124,-5616,10906,945,4270,2025-02-17 10:20:38,0.0
-11704,-4344,-5572,11408,1263,4825,2025-02-17 10:20:38,0.0
-11920,-3648,-5588,11648,1676,5198,2025-02-17 10:20:38,0.0
-12084,-3268,-5464,11682,1912,5545,2025-02-17 10:20:38,0.0
-12492,-2888,-5468,11637,1903,6085,2025-02-17 10:20:39,
-12188,-2952,-5900,11448,1259,6804,2025-02-17 10:20:39,0.0
-11976,-3236,-6188,11165,674,7260,2025-02-17 10:20:39,0.0
-11860,-3448,-6244,10973,753,7709,2025-02-17 10:20:39,0.0
-11476,-3336,-6048,10881,1319,7979,2025-02-17 10:20:39,0.0
-11308,-2940,-6400,10982,1835,7992,2025-02-17 10:20:39,0.0
-11512,-2140,-6848,10784,2347,8161,2025-02-17 10:20:39,0.0
-11244,-1856,-7212,10248,2622,8390,2025-02-17 10:20:39,0.0
-10484,-1784,-7040,10016,2197,8113,2025-02-17 10:20:39,0.0
-10572,-1752,-7676,9917,1952,7176,2025-02-17 10:20:39,0.0
-11164,-2376,-7304,9926,2030,6551,2025-02-17 10:20:39,0.0
-11972,-3380,-6516,10248,1768,6346,2025-02-17 10:20:39,0.0
-11368,-4484,-6796,11050,1221,6113,2025-02-17 10:20:39,0.0
-11208,-5256,-7292,11695,418,5724,2025-02-17 10:20:39,0.0
-11768,-4668,-6744,11949,607,5983,2025-02-17 10:20:39,0.0
-11884,-3676,-6436,12157,1241,6374,2025-02-17 10:20:39,0.0
-12612,-2624,-6976,12170,1690,6791,2025-02-17 10:20:39,0.0
-13084,-1728,-7452,12134,2448,7445,2025-02-17 10:20:39,0.0
-12364,-1248,-8156,12352,2815,8121,2025-02-17 10:20:39,0.0
-10616,-1052,-9840,12473,1323,8385,2025-02-17 10:20:39,0.0
-9148,-920,-9720,12165,-1677,7784,2025-02-17 10:20:39,0.0
-9268,-764,-8064,12203,-4557,6756,2025-02-17 10:20:39,0.0
-10716,-200,-4992,11775,-3185,6067,2025-02-17 10:20:39,0.0
-10832,-240,-4416,12775,2316,6428,2025-02-17 10:20:39,0.0
-11672,-4,-6952,13377,3755,6993,2025-02-17 10:20:39,0.0
-12684,380,-8208,13000,3897,7140,2025-02-17 10:20:39,0.0
-13112,184,-8004,12709,3155,6720,2025-02-17 10:20:39,0.0
-13920,-304,-7728,12402,1753,6288,2025-02-17 10:20:39,0.0
-13820,-1100,-7228,12551,-790,6325,2025-02-17 10:20:39,0.0
-12612,-1904,-6960,12923,-2730,6483,2025-02-17 10:20:39,0.0
-11012,-2124,-6492,13426,-2915,6373,2025-02-17 10:20:39,0.0
-10040,-2060,-6080,13967,-1794,6175,2025-02-17 10:20:39,0.0
-9768,-1908,-5964,14397,-167,5872,2025-02-17 10:20:39,0.0
-10460,-1492,-6040,14816,1418,5820,2025-02-17 10:20:39,0.0
-11600,-1976,-6180,15042,2843,6023,2025-02-17 10:20:39,0.0
-12208,-1896,-6028,15327,3468,6368,2025-02-17 10:20:39,0.0
-12812,-1040,-6336,15454,4339,7127,2025-02-17 10:20:39,0.0
-11920,40,-7084,15478,4859,7735,2025-02-17 10:20:39,0.0
-10796,384,-7744,15471,4126,7549,2025-02-17 10:20:39,0.0
-10784,-584,-8884,15127,3106,7202,2025-02-17 10:20:39,0.0
-11988,-664,-9084,14782,2863,7733,2025-02-17 10:20:39,0.0
-10572,-716,-8784,14721,1462,7978,2025-02-17 10:20:39,0.0
-8764,-1004,-8280,14742,-2008,6484,2025-02-17 10:20:39,0.0
-9252,-1772,-8160,14735,-5157,5265,2025-02-17 10:20:39,0.0
-9816,-1904,-7404,15025,-6476,4935,2025-02-17 10:20:39,0.0
-10792,-1692,-6776,15155,-4873,5089,2025-02-17 10:20:39,0.0
-10396,-16,-6692,14894,2660,5774,2025-02-17 10:20:39,0.0
-9752,-596,-10320,13942,8566,5945,2025-02-17 10:20:39,0.0
-10660,-1036,-10220,11622,10659,5617,2025-02-17 10:20:39,0.0
-11868,-1960,-7972,10236,9784,5044,2025-02-17 10:20:39,0.0
-13636,-3160,-5704,10890,5113,5053,2025-02-17 10:20:39,0.0
-12828,-3756,-6896,11400,-292,5949,2025-02-17 10:20:39,0.0
-10900,-4496,-7296,11446,-3388,5674,2025-02-17 10:20:39,0.0
-11040,-5244,-5924,11868,-3797,4820,2025-02-17 10:20:39,0.0
-10660,-5380,-4920,12402,356,4864,2025-02-17 10:20:39,0.0
-10532,-5084,-5968,13572,3638,5155,2025-02-17 10:20:39,0.0
-11756,-4392,-6488,13440,4604,5609,2025-02-17 10:20:39,0.0
-12488,-3816,-6288,13381,3720,6281,2025-02-17 10:20:39,0.0
-12600,-2764,-6484,13246,2165,7208,2025-02-17 10:20:40,0.0
-11764,-2332,-6940,13092,708,8060,2025-02-17 10:20:40,0.0
-10720,-2996,-7220,12534,375,8266,2025-02-17 10:20:40,0.0
-10216,-3688,-5768,12163,912,7901,2025-02-17 10:20:40,0.0
-11164,-4380,-5664,12129,2189,7461,2025-02-17 10:20:40,0.0
-12440,-3716,-6584,11978,2922,7934,2025-02-17 10:20:40,0.0
-12616,-2860,-6900,11817,2851,8040,2025-02-17 10:20:40,0.0
-12328,-2448,-7320,11283,1955,7517,2025-02-17 10:20:40,0.0
-12412,-2436,-7072,10618,904,6964,2025-02-17 10:20:40,0.0
-12164,-2556,-6648,10127,219,6707,2025-02-17 10:20:40,0.0
-11716,-2544,-6308,9768,-125,6538,2025-02-17 10:20:40,0.0
-11156,-2308,-6472,9303,-385,6308,2025-02-17 10:20:40,0.0
-10628,-2296,-6828,8834,-278,5897,2025-02-17 10:20:40,0.0
-10572,-2332,-7220,8427,332,5570,2025-02-17 10:20:40,0.0
-11200,-2808,-6840,8102,1303,5632,2025-02-17 10:20:40,0.0
-11696,-2852,-6568,8033,2264,6198,2025-02-17 10:20:40,0.0
-11632,-3264,-6516,8093,2953,6706,2025-02-17 10:20:40,0.0
-11440,-3072,-6916,8343,2925,6961,2025-02-17 10:20:40,0.0
-10824,-2420,-7396,8456,2782,6728,2025-02-17 10:20:40,0.0
-10188,-1044,-7700,8636,2292,6076,2025-02-17 10:20:40,0.0
-10540,-8,-8148,8533,2506,5281,2025-02-17 10:20:40,0.0
-10932,816,-8360,8339,4062,4472,2025-02-17 10:20:40,0.0
-11292,916,-9172,7498,5180,4067,2025-02-17 10:20:40,0.0
-11448,872,-8492,6563,4813,4439,2025-02-17 10:20:40,0.0
-11512,468,-6584,6039,3381,4843,2025-02-17 10:20:40,0.0
-10968,-60,-6200,5804,1564,4676,2025-02-17 10:20:40,0.0
-11476,-464,-5928,5933,1094,4446,2025-02-17 10:20:40,0.0
-11520,-688,-6956,6013,2458,4101,2025-02-17 10:20:40,0.0
-11664,-800,-7336,6034,4795,3740,2025-02-17 10:20:40,0.0
-12140,-484,-7368,5824,5933,3783,2025-02-17 10:20:40,0.0
-12300,188,-7212,5514,5896,4067,2025-02-17 10:20:40,0.0
-11764,812,-7664,4975,3746,3881,2025-02-17 10:20:40,0.0
-11092,760,-8672,4441,872,3398,2025-02-17 10:20:40,0.0
-10960,608,-8620,4116,-804,2974,2025-02-17 10:20:40,0.0
-11156,836,-8108,3895,-1598,2596,2025-02-17 10:20:40,0.0
-11216,720,-7712,3611,-1693,2247,2025-02-17 10:20:40,0.0
-10900,356,-7320,3333,-1895,1821,2025-02-17 10:20:40,0.0
-10656,-112,-7440,3161,-2121,1339,2025-02-17 10:20:40,0.0
-10748,-688,-7028,3102,-2226,1069,2025-02-17 10:20:40,0.0
-10852,-960,-6664,3030,-2090,806,2025-02-17 10:20:40,0.0
-11160,-916,-6328,3057,-1760,685,2025-02-17 10:20:40,0.0
-11692,-508,-6012,3138,-1124,924,2025-02-17 10:20:40,0.0
-11368,116,-6796,2899,-276,1080,2025-02-17 10:20:40,
-11044,464,-7520,2479,569,925,2025-02-17 10:20:40,0.0
-10896,580,-8032,2134,1336,846,2025-02-17 10:20:40,0.0
-10720,596,-7928,1715,1818,541,2025-02-17 10:20:40,0.0
-10892,648,-7648,1337,1733,72,2025-02-17 10:20:40,0.0
-11788,88,-6908,924,1140,-287,2025-02-17 10:20:40,0.0
-11420,-892,-6740,66,814,-987,2025-02-17 10:20:40,0.0
-11136,-1020,-7204,50,1353,-1097,2025-02-17 10:20:40,0.0
-10680,-1184,-7600,-150,1418,-1367,2025-02-17 10:20:40,0.0
-10876,-988,-7724,-331,1127,-1637,2025-02-17 10:20:40,0.0
-10888,-932,-7980,-604,947,-1777,2025-02-17 10:20:40,0.0
-11148,-1076,-7216,-854,704,-1965,2025-02-17 10:20:40,0.0
-11748,-1352,-6588,-953,757,-2132,2025-02-17 10:20:40,0.0
-12180,-968,-6736,-794,1495,-2081,2025-02-17 10:20:40,0.0
-11980,-672,-7776,-806,2270,-1994,2025-02-17 10:20:40,0.0
-10580,-1084,-9352,-1165,2102,-1747,2025-02-17 10:20:41,0.0
-9588,-1148,-10112,-1377,965,-1694,2025-02-17 10:20:41,0.0
-9480,-840,-9924,-1924,-197,-2008,2025-02-17 10:20:41,0.0
-10552,-1440,-7468,-2313,-1415,-2689,2025-02-17 10:20:41,0.0
-12036,-2368,-6072,-2336,-2532,-2630,2025-02-17 10:20:41,0.0
-12724,-3064,-6136,-2111,-3173,-1707,2025-02-17 10:20:41,0.0
-11796,-3464,-6992,-1863,-2861,-1060,2025-02-17 10:20:41,0.0
-10716,-3532,-7376,-1747,-2050,-1382,2025-02-17 10:20:41,0.0
-10972,-3644,-7104,-1417,-989,-2272,2025-02-17 10:20:41,0.0
-12188,-3652,-6156,-1069,-685,-2620,2025-02-17 10:20:41,0.0
-12700,-3636,-5788,-756,-1151,-2607,2025-02-17 10:20:41,0.0
-12428,-3516,-6372,-532,-1966,-2686,2025-02-17 10:20:41,0.0
-11944,-3148,-6636,-598,-2999,-2928,2025-02-17 10:20:41,0.0
-11452,-2736,-6616,-626,-3862,-3225,2025-02-17 10:20:41,0.0
-11236,-2664,-6652,-779,-4484,-3497,2025-02-17 10:20:41,0.0
-11244,-2904,-6240,-975,-5038,-3588,2025-02-17 10:20:41,0.0
-12096,-3808,-4016,-950,-5911,-2794,2025-02-17 10:20:41,0.0
-12312,-3428,-3720,-834,-5511,-2473,2025-02-17 10:20:41,0.0
-12448,-3228,-2956,-983,-4287,-2015,2025-02-17 10:20:41,0.0
-11700,-3164,-2704,-969,-966,-1586,2025-02-17 10:20:41,0.0
-11204,-3432,-3168,-674,911,-1352,2025-02-17 10:20:41,0.0
-11372,-3456,-3324,-632,1284,-1082,2025-02-17 10:20:41,0.0
-11732,-3896,-3044,-562,1227,-780,2025-02-17 10:20:41,0.0
-11960,-3936,-2888,-491,1514,-627,2025-02-17 10:20:41,0.0
-12208,-3352,-2632,-608,2250,-529,2025-02-17 10:20:41,0.0
-12396,-2740,-2796,-658,2973,-518,2025-02-17 10:20:41,0.0
-12544,-2500,-3908,-893,3115,-787,2025-02-17 10:20:41,0.0
-12928,-2184,-4332,-1263,2284,-989,2025-02-17 10:20:41,0.0
-13368,-2744,-4328,-1644,1148,-1192,2025-02-17 10:20:41,0.0
-13652,-3204,-4380,-1777,-20,-1236,2025-02-17 10:20:41,0.0
-13400,-3276,-4508,-1832,-1184,-1096,2025-02-17 10:20:41,0.0
-12724,-3440,-4832,-2025,-1985,-1167,2025-02-17 10:20:41,0.0
-12320,-3936,-4308,-2738,-352,-1535,2025-02-17 10:20:41,0.0
-12376,-4008,-4072,-2804,277,-1580,2025-02-17 10:20:41,0.0
-12756,-3880,-4020,-2883,631,-1862,2025-02-17 10:20:41,0.0
-13084,-5020,-4652,-2968,1075,-2176,2025-02-17 10:20:41,0.0
-14244,-6304,-5032,-2512,2736,-2411,2025-02-17 10:20:41,0.0
-14924,-6232,-5308,-1659,5974,-2578,2025-02-17 10:20:41,0.0
-15152,-5980,-5548,-835,7244,-2321,2025-02-17 10:20:41,0.0
-15068,-5960,-6148,-14,6251,-1487,2025-02-17 10:20:41,0.0
-15108,-5664,-7584,705,3528,-211,2025-02-17 10:20:41,0.0
-14856,-5004,-8576,799,349,863,2025-02-17 10:20:41,0.0
-14236,-4752,-8580,359,-2624,1380,2025-02-17 10:20:41,0.0
-13852,-4876,-8076,227,-5144,2209,2025-02-17 10:20:41,0.0
-12680,-5004,-8140,298,-6849,3019,2025-02-17 10:20:41,0.0
-10892,-4396,-8632,691,-8004,3524,2025-02-17 10:20:41,0.0
-10144,-3248,-8640,1153,-8425,3675,2025-02-17 10:20:41,0.0
-9164,-1972,-8884,1455,-8619,3712,2025-02-17 10:20:41,0.0
-8976,-328,-7160,815,-6937,3530,2025-02-17 10:20:41,0.0
-7584,384,-6568,273,-1737,3206,2025-02-17 10:20:41,0.0
-7888,628,-6500,104,1879,2566,2025-02-17 10:20:41,0.0
-10256,292,-7136,-540,6401,2324,2025-02-17 10:20:41,0.0
-11588,-240,-6876,-1320,8845,2280,2025-02-17 10:20:41,0.0
-13088,-1508,-7480,-1243,9420,2557,2025-02-17 10:20:41,0.0
-13368,-2608,-8368,-1199,7473,3058,2025-02-17 10:20:41,0.0
-13156,-2928,-8692,-1140,3816,3558,2025-02-17 10:20:41,0.0
-13416,-2848,-8272,-1002,-360,4012,2025-02-17 10:20:41,0.0
-13244,-2668,-7424,-784,-4823,4596,2025-02-17 10:20:41,0.0
-12404,-2316,-6008,-655,-8355,5245,2025-02-17 10:20:41,0.0
-11248,-1180,-4812,-65,-11326,5638,2025-02-17 10:20:42,0.0
-10736,124,-3460,-481,-10774,5653,2025-02-17 10:20:42,0.0
-8848,992,-3368,-649,-4167,5690,2025-02-17 10:20:42,0.0
-6924,1284,-3880,9,368,4874,2025-02-17 10:20:42,0.0
-7024,1516,-4192,428,1958,3471,2025-02-17 10:20:42,0.0
-9212,828,-3936,578,2632,1496,2025-02-17 10:20:42,0.0
-11616,44,-3616,679,2616,749,2025-02-17 10:20:42,0.0
-11916,-48,-3496,972,1657,333,2025-02-17 10:20:42,0.0
-11880,112,-3860,978,565,-201,2025-02-17 10:20:42,0.0
-12064,-136,-3600,1120,-114,-512,2025-02-17 10:20:42,0.0
-12404,-448,-3320,1362,-234,-670,2025-02-17 10:20:42,0.0
-12700,-352,-3628,1534,-111,-687,2025-02-17 10:20:42,0.0
-12864,-188,-3944,1499,-33,-659,2025-02-17 10:20:42,0.0
-13012,-144,-4196,1385,11,-563,2025-02-17 10:20:42,0.0
-13052,-224,-3508,1362,-394,-398,2025-02-17 10:20:42,0.0
-13272,-436,-3188,1528,-1387,-105,2025-02-17 10:20:42,0.0
-13004,-376,-3900,1652,-1922,156,2025-02-17 10:20:42,0.0
-12800,184,-4612,1629,-1632,455,2025-02-17 10:20:42,0.0
-12580,836,-5128,1999,-477,971,2025-02-17 10:20:42,0.0
-12324,612,-5968,2075,1299,864,2025-02-17 10:20:42,0.0
-13036,-844,-5204,1651,2565,281,2025-02-17 10:20:42,0.0
-15276,-2556,-2784,1919,2637,304,2025-02-17 10:20:42,0.0
-16648,-2528,-1716,3055,1730,1331,2025-02-17 10:20:42,0.0
-16168,-888,-3860,4032,2081,2782,2025-02-17 10:20:42,0.0
-15328,104,-6120,3844,4150,3283,2025-02-17 10:20:42,0.0
-16200,1936,-7124,3106,7296,3810,2025-02-17 10:20:42,0.0
-16212,3568,-7904,2166,9536,4285,2025-02-17 10:20:42,
-14832,4272,-9596,993,9185,4146,2025-02-17 10:20:42,0.0
-13324,3600,-10588,362,6313,2705,2025-02-17 10:20:42,0.0
-12072,1964,-11808,311,1971,643,2025-02-17 10:20:42,0.0
-9892,-44,-11644,-188,-5211,-1856,2025-02-17 10:20:42,0.0
-8200,-372,-9736,-57,-11781,-3684,2025-02-17 10:20:42,0.0
-8156,-1768,-8884,-229,-13795,-4207,2025-02-17 10:20:42,0.0
-9828,-2968,-7332,-472,-10785,-3994,2025-02-17 10:20:42,0.0
-11352,-3528,-5948,-977,-4729,-3333,2025-02-17 10:20:42,0.0
-10544,-2116,-4464,-346,3731,-2286,2025-02-17 10:20:42,0.0
-10108,-648,-5452,593,6997,-2073,2025-02-17 10:20:42,0.0
-10092,676,-6140,294,7930,-2180,2025-02-17 10:20:42,0.0
-9936,272,-6100,-131,7858,-2792,2025-02-17 10:20:42,0.0
-10428,-1004,-6528,-176,6680,-3755,2025-02-17 10:20:42,0.0
-11252,-2012,-7268,-144,4326,-4323,2025-02-17 10:20:42,0.0
-10952,-2488,-8180,-88,1839,-4287,2025-02-17 10:20:42,0.0
-10444,-2628,-7896,-117,-1579,-4329,2025-02-17 10:20:42,0.0
-10424,-2320,-7112,260,-5769,-4296,2025-02-17 10:20:42,0.0
-10896,-2168,-6864,-143,-8305,-4072,2025-02-17 10:20:42,0.0
-11516,-2356,-5728,-930,-8787,-3703,2025-02-17 10:20:42,0.0
-11340,-2956,-4344,-1241,-8451,-3311,2025-02-17 10:20:42,0.0
-11092,-3376,-2652,-1477,-5436,-2740,2025-02-17 10:20:42,0.0
-9752,-4080,-3660,-745,-2361,-2169,2025-02-17 10:20:42,0.0
-9368,-3924,-4892,-525,52,-1835,2025-02-17 10:20:42,0.0
-10076,-3416,-5092,-610,2108,-1485,2025-02-17 10:20:42,0.0
-10708,-2748,-4508,-647,2884,-1176,2025-02-17 10:20:42,0.0
-11424,-2156,-4496,-842,3027,-919,2025-02-17 10:20:42,0.0
-12308,-1988,-4104,-1183,2139,-542,2025-02-17 10:20:42,0.0
-12716,-1876,-3920,-1423,1061,99,2025-02-17 10:20:42,0.0
-12316,-2008,-3928,-1795,206,664,2025-02-17 10:20:42,0.0
-11448,-2444,-4444,-2293,172,604,2025-02-17 10:20:42,0.0
-11524,-3228,-4416,-2618,666,113,2025-02-17 10:20:42,0.0
-12064,-3472,-4604,-2590,1869,-450,2025-02-17 10:20:42,0.0
-13224,-2668,-4312,-2499,3242,-735,2025-02-17 10:20:42,0.0
-13668,-1312,-4348,-2440,4445,-687,2025-02-17 10:20:42,0.0
-12620,-1300,-5404,-2714,5553,-1232,2025-02-17 10:20:43,0.0
-12372,-2808,-6124,-3289,6178,-2412,2025-02-17 10:20:43,0.0
-13176,-4048,-5416,-3565,6257,-3539,2025-02-17 10:20:43,0.0
-14472,-3772,-4028,-3045,4540,-3675,2025-02-17 10:20:43,0.0
-15392,-2832,-4552,-2797,1932,-3156,2025-02-17 10:20:43,0.0
-15272,-2372,-6484,-3569,837,-3106,2025-02-17 10:20:43,0.0
-14364,-3628,-8708,-3989,2866,-3675,2025-02-17 10:20:43,0.0
-14020,-5976,-8388,-3481,4156,-4165,2025-02-17 10:20:43,0.0
-14800,-7700,-7820,-2116,3342,-3930,2025-02-17 10:20:43,0.0
-15928,-7908,-8828,-896,851,-2177,2025-02-17 10:20:43,0.0
-14348,-6368,-10664,-90,-2919,967,2025-02-17 10:20:43,0.0
-11396,-4052,-11324,-175,-6690,1259,2025-02-17 10:20:43,0.0
-9552,-1964,-10832,-720,-10215,1122,2025-02-17 10:20:43,0.0
-8712,-528,-9632,-804,-12222,1441,2025-02-17 10:20:43,0.0
-8788,524,-8656,-732,-11961,1257,2025-02-17 10:20:43,0.0
-10008,840,-7024,-894,-9680,821,2025-02-17 10:20:43,0.0
-11476,-68,-6076,-1269,-5437,777,2025-02-17 10:20:43,0.0
-11580,-2020,-4772,-473,2647,1660,2025-02-17 10:20:43,0.0
-11348,-2868,-6000,404,6116,2757,2025-02-17 10:20:43,0.0
-11188,-2832,-6884,292,7417,3542,2025-02-17 10:20:43,0.0
-11220,-2484,-7288,194,6798,3708,2025-02-17 10:20:43,0.0
-11528,-2312,-7652,314,4989,3731,2025-02-17 10:20:43,0.0
-11424,-1888,-7780,373,2103,3886,2025-02-17 10:20:43,0.0
-11264,-744,-6996,253,-1192,4172,2025-02-17 10:20:43,0.0
-10824,68,-6544,323,-3597,4205,2025-02-17 10:20:43,0.0
-10752,632,-5956,395,-4974,3901,2025-02-17 10:20:43,0.0
-10572,832,-5228,443,-5630,3516,2025-02-17 10:20:43,0.0
-10308,600,-4780,383,-6017,2873,2025-02-17 10:20:43,0.0
-10656,320,-4032,-22,-5241,2536,2025-02-17 10:20:43,0.0
-9984,404,-3152,-226,-1257,2675,2025-02-17 10:20:43,0.0
-8572,324,-3848,263,691,2293,2025-02-17 10:20:43,0.0
-8556,772,-4772,428,1429,1320,2025-02-17 10:20:43,0.0
-9448,1232,-4432,246,2348,111,2025-02-17 10:20:43,0.0
-10704,744,-4140,71,2749,-608,2025-02-17 10:20:43,0.0
-11464,204,-4160,-70,2331,-989,2025-02-17 10:20:43,0.0
-11888,-680,-4120,-67,1701,-1322,2025-02-17 10:20:43,0.0
-12532,-1332,-4024,162,1248,-1353,2025-02-17 10:20:43,0.0
-13280,-1304,-4012,437,1367,-976,2025-02-17 10:20:43,0.0
-13724,-660,-3644,944,1964,-331,2025-02-17 10:20:43,0.0
-13676,-568,-3660,1454,2336,128,2025-02-17 10:20:43,0.0
-13828,-940,-3904,1810,2338,454,2025-02-17 10:20:43,0.0
-13980,-1340,-4440,2305,1904,1245,2025-02-17 10:20:43,0.0
-13464,-1628,-5420,2727,1507,1972,2025-02-17 10:20:43,0.0
-12948,-1140,-6096,2826,1024,2403,2025-02-17 10:20:43,0.0
-13288,-392,-5504,2745,796,2089,2025-02-17 10:20:43,0.0
-14400,-464,-4156,2907,-16,1548,2025-02-17 10:20:43,0.0
-16092,-416,-3436,3726,-1797,1857,2025-02-17 10:20:43,0.0
-16168,68,-4360,4392,-2403,2972,2025-02-17 10:20:43,0.0
-15080,700,-5452,4407,-1317,3575,2025-02-17 10:20:43,0.0
-13796,2064,-7052,3674,895,3689,2025-02-17 10:20:43,0.0
-11452,2316,-8380,2185,2935,2249,2025-02-17 10:20:43,0.0
-12172,2896,-9332,1032,5163,425,2025-02-17 10:20:43,0.0
-13444,3076,-10744,320,8014,64,2025-02-17 10:20:43,0.0
-12728,2392,-10468,-19,7948,-357,2025-02-17 10:20:43,0.0
-11236,1880,-9996,145,2952,-1723,2025-02-17 10:20:43,0.0
-10036,96,-10532,-323,-5362,-3244,2025-02-17 10:20:43,0.0
-8908,-2852,-8748,-911,-9527,-4258,2025-02-17 10:20:43,0.0
-9588,-4152,-7244,-835,-9451,-4418,2025-02-17 10:20:43,0.0
-10740,-4440,-6936,-669,-6851,-3721,2025-02-17 10:20:43,0.0
-11896,-3232,-5780,-138,-3165,-2370,2025-02-17 10:20:43,0.0
-11856,-2116,-4580,381,736,-1003,2025-02-17 10:20:43,0.0
-10744,-1440,-5216,586,4438,-967,2025-02-17 10:20:44,0.0
-10228,-1252,-5784,596,6357,-1846,2025-02-17 10:20:44,0.0
-10548,-1712,-6588,715,7035,-2447,2025-02-17 10:20:44,0.0
-10972,-1944,-7908,648,6030,-2608,2025-02-17 10:20:44,0.0
-11344,-2080,-8192,433,3485,-2640,2025-02-17 10:20:44,
-11816,-1848,-7880,207,-329,-2513,2025-02-17 10:20:44,0.0
-11036,-1708,-7168,63,-4500,-2443,2025-02-17 10:20:44,0.0
-10528,-1724,-6824,-287,-7244,-2868,2025-02-17 10:20:44,0.0
-10492,-2080,-6216,-790,-8207,-3040,2025-02-17 10:20:44,0.0
-10704,-2808,-5156,-1240,-8899,-2873,2025-02-17 10:20:44,0.0
-11392,-3316,-3604,-1672,-8537,-2121,2025-02-17 10:20:44,0.0
-10036,-3480,-3060,-1514,-2050,-1083,2025-02-17 10:20:44,0.0
-9256,-3524,-4516,-684,2781,-653,2025-02-17 10:20:44,0.0
-10492,-2864,-4740,-768,4923,-328,2025-02-17 10:20:44,0.0
-11676,-2708,-4292,-760,5457,-32,2025-02-17 10:20:44,0.0
-12648,-2424,-4096,-823,5222,257,2025-02-17 10:20:44,0.0
-12648,-2384,-4624,-1001,4747,534,2025-02-17 10:20:44,0.0
-12396,-2372,-4944,-1141,4133,699,2025-02-17 10:20:44,0.0
-12396,-2292,-4940,-1278,3497,801,2025-02-17 10:20:44,0.0
-12788,-2248,-4976,-1403,3270,667,2025-02-17 10:20:44,0.0
-12912,-2168,-5188,-1729,3926,318,2025-02-17 10:20:44,0.0
-12644,-1644,-5868,-2238,5084,-383,2025-02-17 10:20:44,0.0
-12168,-1228,-5696,-2555,4329,-1049,2025-02-17 10:20:44,0.0
-12052,-1080,-6268,-2798,2852,-1401,2025-02-17 10:20:44,0.0
-11936,-1504,-6936,-3263,1078,-1797,2025-02-17 10:20:44,0.0
-12484,-2004,-6220,-3609,-469,-2323,2025-02-17 10:20:44,0.0
-13556,-2160,-5056,-3772,-1983,-2570,2025-02-17 10:20:44,0.0
-13592,-2528,-5028,-4063,-3858,-2636,2025-02-17 10:20:44,0.0
-13072,-3612,-5416,-4460,-5585,-2842,2025-02-17 10:20:44,0.0
-13256,-3848,-5700,-4172,-5865,-2687,2025-02-17 10:20:44,0.0
-13048,-4220,-6488,-3534,-4359,-2282,2025-02-17 10:20:44,0.0
-13028,-5412,-6772,-2836,-1626,-2264,2025-02-17 10:20:44,0.0
-14048,-6328,-6492,-1716,2099,-1574,2025-02-17 10:20:44,0.0
-13408,-5680,-7516,-430,5858,-424,2025-02-17 10:20:44,0.0
-11908,-3908,-9072,650,7602,-171,2025-02-17 10:20:44,0.0
-11172,-2044,-10680,689,6252,109,2025-02-17 10:20:44,0.0
-10924,-588,-11176,-399,1050,379,2025-02-17 10:20:44,0.0
-10760,492,-9948,-1236,-4529,807,2025-02-17 10:20:44,0.0
-10780,1116,-8608,-1620,-6508,1053,2025-02-17 10:20:44,0.0
-11092,1112,-7104,-2038,-5086,963,2025-02-17 10:20:44,0.0
-10904,880,-6816,-2225,-2615,824,2025-02-17 10:20:44,0.0
-10604,120,-7592,-2408,414,816,2025-02-17 10:20:44,0.0
-10188,-276,-7892,-2474,2988,784,2025-02-17 10:20:44,0.0
-10024,-508,-8020,-2635,4661,606,2025-02-17 10:20:44,0.0
-10412,-604,-8520,-2888,5648,471,2025-02-17 10:20:44,0.0
-11520,-1080,-8208,-3089,4811,498,2025-02-17 10:20:44,0.0
-12068,-1040,-7796,-3040,2951,808,2025-02-17 10:20:44,0.0
-11840,-940,-7740,-2952,1006,1062,2025-02-17 10:20:44,0.0
-11396,-532,-7644,-2841,-403,1051,2025-02-17 10:20:44,0.0
-11124,-452,-7092,-2697,-762,758,2025-02-17 10:20:44,0.0
-10684,-176,-6892,-2428,-935,519,2025-02-17 10:20:44,0.0
-10564,-228,-6524,-2257,-1096,287,2025-02-17 10:20:44,0.0
-10516,-84,-6300,-2019,-1006,286,2025-02-17 10:20:44,0.0
-10744,104,-5844,-1892,-578,427,2025-02-17 10:20:44,0.0
-10688,0,-5724,-1745,227,413,2025-02-17 10:20:44,0.0
-10900,-92,-5800,-1577,1508,358,2025-02-17 10:20:44,0.0
-11196,-256,-6088,-1433,3048,217,2025-02-17 10:20:45,0.0
-11396,-356,-6656,-1237,4150,200,2025-02-17 10:20:45,0.0
-11448,-584,-7036,-1045,4154,218,2025-02-17 10:20:45,0.0
-11296,-580,-7044,-832,3289,90,2025-02-17 10:20:45,0.0
-11120,-416,-7124,-606,1904,-136,2025-02-17 10:20:45,0.0
-11528,-356,-7028,-523,753,-280,2025-02-17 10:20:45,0.0
-11720,-284,-6504,-396,323,-285,2025-02-17 10:20:45,0.0
-11744,-268,-6236,-175,342,-120,2025-02-17 10:20:45,0.0
-11652,124,-6192,38,890,-26,2025-02-17 10:20:45,0.0
-11356,48,-7076,-159,2235,-28,2025-02-17 10:20:45,0.0
-11412,-372,-6324,-436,3558,-200,2025-02-17 10:20:45,0.0
-11440,-556,-5716,-523,4504,-355,2025-02-17 10:20:45,0.0
-11800,-1116,-5412,417,4465,-158,2025-02-17 10:20:45,0.0
-11584,-1316,-6300,1470,3493,315,2025-02-17 10:20:45,0.0
-11228,-1104,-6532,2213,1682,286,2025-02-17 10:20:45,5
-11032,-792,-6912,2445,490,-56,2025-02-17 10:20:45,5
-11460,-184,-6924,2669,147,-123,2025-02-17 10:20:45,5
-11424,-156,-7448,2624,929,260,2025-02-17 10:20:45,5
-11276,-12,-8188,2300,2533,620,2025-02-17 10:20:45,5
-11116,-128,-8360,1950,4361,845,2025-02-17 10:20:45,5
-11672,-440,-7832,2013,5826,1221,2025-02-17 10:20:45,5
-11640,-600,-8208,2338,5800,1758,2025-02-17 10:20:45,5
-10708,-604,-9036,2295,5058,1953,2025-02-17 10:20:45,5
-9464,-288,-9748,1978,4302,1677,2025-02-17 10:20:45,5
-8372,-76,-9960,1329,3663,850,2025-02-17 10:20:45,5
-8244,-308,-9520,796,3618,-118,2025-02-17 10:20:45,5
-8788,-488,-8808,552,5075,-383,2025-02-17 10:20:45,5
-8804,-512,-8508,324,7932,-269,2025-02-17 10:20:45,5
-7432,-592,-8344,-280,12031,-444,2025-02-17 10:20:45,5
-10268,-460,-3028,-2433,19752,-1147,2025-02-17 10:20:45,5
-13528,-1448,4724,2872,32767,1686,2025-02-17 10:20:45,5
-2656,-1084,-2748,4214,32767,2417,2025-02-17 10:20:45,5
-2092,-524,-588,3312,32767,40,2025-02-17 10:20:45,5
-4,-380,844,3070,32767,-1502,2025-02-17 10:20:45,5
1700,-316,1864,3045,32767,-1819,2025-02-17 10:20:45,5
2272,-220,2596,3233,32767,-1468,2025-02-17 10:20:45,5
2532,-336,2552,3543,32767,-1070,2025-02-17 10:20:45,5
2340,-320,2620,3867,32767,-532,2025-02-17 10:20:45,5
2496,-268,2264,3950,32767,-20,2025-02-17 10:20:45,5
2592,-256,2312,3797,32767,334,2025-02-17 10:20:45,5
2708,-324,2240,3660,32767,653,2025-02-17 10:20:45,5
2452,-340,2336,3624,32767,1155,2025-02-17 10:20:45,5
2540,-340,2280,3589,32767,1816,2025-02-17 10:20:45,5
2548,-424,2368,3469,32767,2344,2025-02-17 10:20:45,5
2636,-464,2164,3380,32767,2744,2025-02-17 10:20:45,5
2672,-416,2472,3253,32767,3119,2025-02-17 10:20:45,5
2856,-540,2536,3203,32767,3239,2025-02-17 10:20:45,5
3404,-388,2680,3439,32767,2641,2025-02-17 10:20:45,5
3296,-432,2772,3591,32767,2267,2025-02-17 10:20:45,5
3236,-348,2772,3834,32767,2004,2025-02-17 10:20:45,5
3272,-308,2756,3999,32767,1867,2025-02-17 10:20:45,5
3280,-296,2880,4175,32767,1771,2025-02-17 10:20:45,5
3296,-296,3016,4385,32767,1815,2025-02-17 10:20:45,5
9720,-2324,-2420,957,32767,-399,2025-02-17 10:20:45,5
32767,-26800,26920,12258,32767,-32768,2025-02-17 10:20:45,5
32767,-32768,27272,32767,32767,-32768,2025-02-17 10:20:45,5
32767,32767,32767,-32768,32767,-32768,2025-02-17 10:20:45,5
-31404,28420,32767,1797,31939,-3752,2025-02-17 10:20:45,5
1044,3420,12584,16437,29116,5234,2025-02-17 10:20:45,5
3168,-116,3564,17655,29348,3164,2025-02-17 10:20:45,5
4044,-1592,1144,17400,32767,-1864,2025-02-17 10:20:45,5
5004,-2908,-736,14621,32767,-7504,2025-02-17 10:20:45,5
4808,-1972,-180,10566,32767,-12739,2025-02-17 10:20:45,5
1032,212,636,5257,28369,-13246,2025-02-17 10:20:45,5
-980,2560,2444,-207,16313,-9304,2025-02-17 10:20:45,5
-1684,7052,2616,-6824,1061,-4764,2025-02-17 10:20:45,5
-856,9680,4260,-15667,-13392,-2180,2025-02-17 10:20:46,5
-1308,11268,9724,-24794,-29988,-241,2025-02-17 10:20:46,5
96,10296,18108,-27969,-32768,3063,2025-02-17 10:20:46,5
-1660,5808,32767,-15333,-32768,7677,2025-02-17 10:20:46,5
17664,-1824,32767,-2891,-25655,5761,2025-02-17 10:20:46,5
21800,-2488,26624,2374,-26933,-343,2025-02-17 10:20:46,5
14992,888,16236,3932,-21099,-1587,2025-02-17 10:20:46,5
11744,4480,10584,3950,-12840,-1102,2025-02-17 10:20:46,5
10048,5732,8196,2762,-5128,-878,2025-02-17 10:20:46,5
9596,6216,8048,486,1777,-259,2025-02-17 10:20:46,5
11204,4512,13848,-1654,8020,515,2025-02-17 10:20:46,5
11748,3016,17944,-1208,10216,-195,2025-02-17 10:20:46,5
9540,3148,18736,-354,9120,-609,2025-02-17 10:20:46,5
7900,4192,17892,-406,6029,-889,2025-02-17 10:20:46,5
6852,4296,17956,-135,1706,-244,2025-02-17 10:20:46,5
7792,4128,17176,-262,-1700,-37,2025-02-17 10:20:46,5
9680,3668,16780,-74,-2481,23,2025-02-17 10:20:46,5
10360,4004,15764,47,-772,-217,2025-02-17 10:20:46,5
9952,4180,15528,-125,821,-198,2025-02-17 10:20:46,5
9440,3920,16440,-279,1125,-198,2025-02-17 10:20:46,5
8956,3952,16840,-196,429,-195,2025-02-17 10:20:46,5
9108,3888,16796,-139,-97,-154,2025-02-17 10:20:46,5
9604,3892,16440,-55,-112,-205,2025-02-17 10:20:46,5
9532,3968,16216,-124,79,-194,2025-02-17 10:20:46,5
9376,4040,16248,-179,348,-161,2025-02-17 10:20:46,5
9340,3908,16404,-206,312,-162,2025-02-17 10:20:46,5
9260,3936,16500,-194,203,-180,2025-02-17 10:20:46,5
9384,3944,16648,-105,185,-195,2025-02-17 10:20:46,5
9408,4004,16420,-129,41,-161,2025-02-17 10:20:46,5
9496,3956,16332,-113,124,-147,2025-02-17 10:20:46,5
9428,4004,16284,-193,309,-158,2025-02-17 10:20:46,5
9384,3836,16584,-165,308,-199,2025-02-17 10:20:46,5
9248,3968,16520,-137,148,-157,2025-02-17 10:20:46,5
9300,3940,16312,-166,42,-164,2025-02-17 10:20:46,5
9440,3972,16404,-147,114,-177,2025-02-17 10:20:46,5
9464,3972,16452,-164,257,-175,2025-02-17 10:20:46,5
9312,3944,16388,-171,236,-176,2025-02-17 10:20:46,5
9248,3968,16520,-186,161,-183,2025-02-17 10:20:46,5
9392,4000,16492,-146,133,-162,2025-02-17 10:20:46,5
9456,3940,16316,-135,123,-159,2025-02-17 10:20:46,5
9480,4000,16392,-173,174,-195,2025-02-17 10:20:46,5
9424,3984,16296,-191,256,-166,2025-02-17 10:20:46,5
9336,3984,16492,-145,213,-168,2025-02-17 10:20:46,5
9308,4000,16444,-144,140,-198,2025-02-17 10:20:46,5
9452,4036,16448,-142,132,-169,2025-02-17 10:20:46,5
9564,3940,16260,-155,188,-179,2025-02-17 10:20:46,5
9392,3992,16456,-162,209,-191,2025-02-17 10:20:46,5
9472,3944,16356,-177,179,-178,2025-02-17 10:20:46,5
9376,3984,16392,-145,173,-181,2025-02-17 10:20:46,5
9372,3936,16440,-136,153,-191,2025-02-17 10:20:46,5
9308,3976,16296,-159,161,-169,2025-02-17 10:20:46,5
9308,3932,16388,-166,202,-169,2025-02-17 10:20:46,5
9304,4008,16468,-167,181,-177,2025-02-17 10:20:46,5
9268,3980,16544,-151,175,-183,2025-02-17 10:20:46,5
9364,3840,16356,-175,152,-161,2025-02-17 10:20:46,5
9320,3896,16400,-159,165,-186,2025-02-17 10:20:46,5
9304,3764,16424,-157,215,-182,2025-02-17 10:20:46,5
9404,4028,16452,-180,201,-197,2025-02-17 10:20:46,5
9236,3964,16516,-153,161,-175,2025-02-17 10:20:47,5
9320,4060,16424,-178,150,-170,2025-02-17 10:20:47,5
9296,3852,16320,-166,201,-177,2025-02-17 10:20:47,5
9408,3904,16408,-142,164,-173,2025-02-17 10:20:47,5
9392,3884,16356,-154,173,-166,2025-02-17 10:20:47,5
9268,3984,16368,-167,163,-184,2025-02-17 10:20:47,5
9268,4000,16524,-139,188,-174,2025-02-17 10:20:47,5
9328,3968,16384,-162,155,-176,2025-02-17 10:20:47,5
9364,3964,16472,-145,172,-166,2025-02-17 10:20:47,5
9384,3964,16532,-168,161,-187,2025-02-17 10:20:47,5
9256,3852,16416,-165,197,-165,2025-02-17 10:20:47,5
9332,3984,16436,-165,168,-154,2025-02-17 10:20:47,5
9400,3964,16244,-139,166,-157,2025-02-17 10:20:47,5
9324,3936,16312,-172,181,-185,2025-02-17 10:20:47,5
9412,3972,16444,-147,189,-168,2025-02-17 10:20:47,5
9384,3872,16436,-166,169,-182,2025-02-17 10:20:47,5
9308,3892,16416,-155,170,-170,2025-02-17 10:20:47,5
9364,3948,16532,-177,177,-181,2025-02-17 10:20:47,5
9324,3976,16300,-175,157,-158,2025-02-17 10:20:47,5
9348,3892,16416,-162,182,-182,2025-02-17 10:20:47,5
9260,4004,16428,-148,177,-185,2025-02-17 10:20:47,5
9296,3936,16340,-146,180,-187,2025-02-17 10:20:47,5
9372,3964,16516,-152,158,-171,2025-02-17 10:20:47,5
9412,3988,16240,-166,169,-164,2025-02-17 10:20:47,5
9444,3924,16480,-178,186,-169,2025-02-17 10:20:47,5
9372,3960,16264,-173,176,-175,2025-02-17 10:20:47,5
9308,4020,16368,-146,184,-170,2025-02-17 10:20:47,5
9372,4020,16444,-185,189,-174,2025-02-17 10:20:47,5
9264,4044,16320,-178,180,-166,2025-02-17 10:20:47,5
9404,3932,16392,-161,171,-181,2025-02-17 10:20:47,5
9392,4012,16484,-144,189,-163,2025-02-17 10:20:47,5
9420,3984,16308,-167,190,-187,2025-02-17 10:20:47,5
9356,3936,16468,-156,179,-179,2025-02-17 10:20:47,5
9340,3980,16408,-150,178,-176,2025-02-17 10:20:47,5
9372,3888,16448,-124,171,-178,2025-02-17 10:20:47,5
9268,3916,16516,-159,159,-160,2025-02-17 10:20:47,5
9360,4040,16472,-136,197,-164,2025-02-17 10:20:47,5
9352,4016,16500,-147,168,-165,2025-02-17 10:20:47,5
9392,3908,16384,-162,190,-199,2025-02-17 10:20:47,5
9376,3940,16408,-162,159,-184,2025-02-17 10:20:47,5
9304,3944,16428,-170,178,-180,2025-02-17 10:20:47,5
9376,3936,16404,-153,166,-189,2025-02-17 10:20:47,5
9316,4000,16500,-156,170,-192,2025-02-17 10:20:47,5
9436,3920,16468,-163,177,-160,2025-02-17 10:20:47,5
9316,3940,16448,-159,179,-189,2025-02-17 10:20:47,5
9328,3900,16400,-142,170,-158,2025-02-17 10:20:47,5
9324,3920,16348,-144,178,-180,2025-02-17 10:20:47,5
9416,3936,16392,-148,177,-183,2025-02-17 10:20:47,5
9384,3976,16464,-157,171,-175,2025-02-17 10:20:47,5
9332,4008,16484,-163,179,-163,2025-02-17 10:20:47,5
9304,3856,16280,-157,184,-170,2025-02-17 10:20:47,5
9384,3936,16340,-141,184,-193,2025-02-17 10:20:47,5
9444,3968,16556,-158,181,-171,2025-02-17 10:20:47,5
9340,3900,16412,-145,189,-170,2025-02-17 10:20:47,5
9336,3988,16416,-172,178,-189,2025-02-17 10:20:47,5
9424,4040,16516,-150,183,-171,2025-02-17 10:20:47,5
9296,3892,16468,-159,177,-178,2025-02-17 10:20:47,5
9356,4076,16352,-164,176,-171,2025-02-17 10:20:47,5
9312,3856,16400,-157,165,-182,2025-02-17 10:20:47,5
9432,4000,16436,-161,171,-168,2025-02-17 10:20:47,5
9376,3948,16352,-140,141,-172,2025-02-17 10:20:47,5
9376,3984,16480,-151,188,-202,2025-02-17 10:20:48,5
9312,3888,16452,-160,170,-175,2025-02-17 10:20:48,5
9288,3944,16428,-143,169,-185,2025-02-17 10:20:48,5
9336,3916,16436,-148,173,-168,2025-02-17 10:20:48,0.0
9340,3924,16388,-154,162,-179,2025-02-17 10:20:48,0.0
9320,3932,16360,-154,202,-162,2025-02-17 10:20:48,0.0
9348,3980,16448,-160,177,-174,2025-02-17 10:20:48,0.0
9400,3936,16392,-159,180,-180,2025-02-17 10:20:48,0.0
9328,4008,16324,-146,186,-182,2025-02-17 10:20:48,0.0
9392,3956,16436,-147,174,-160,2025-02-17 10:20:48,0.0
9288,4008,16392,-146,163,-193,2025-02-17 10:20:48,0.0
9260,3932,16376,-134,196,-189,2025-02-17 10:20:48,0.0
9328,3972,16356,-166,171,-183,2025-02-17 10:20:48,0.0
9372,4016,16388,-155,174,-188,2025-02-17 10:20:48,0.0
9304,3976,16420,-147,157,-183,2025-02-17 10:20:48,0.0
9400,4000,16392,-165,172,-178,2025-02-17 10:20:48,0.0
9264,4036,16276,-173,195,-179,2025-02-17 10:20:48,0.0
9400,3924,16360,-154,161,-167,2025-02-17 10:20:48,0.0
9456,3972,16388,-156,159,-191,2025-02-17 10:20:48,0.0
9376,4040,16532,-175,185,-170,2025-02-17 10:20:48,0.0
9392,3896,16436,-160,148,-172,2025-02-17 10:20:48,0.0
9380,3912,16440,-181,169,-172,2025-02-17 10:20:48,0.0
9376,3980,16388,-183,172,-170,2025-02-17 10:20:48,0.0
9336,4032,16400,-166,177,-174,2025-02-17 10:20:48,0.0
9364,3956,16372,-156,176,-188,2025-02-17 10:20:48,0.0
9348,3844,16360,-149,191,-155,2025-02-17 10:20:48,0.0
9376,3924,16532,-178,161,-199,2025-02-17 10:20:48,0.0
9436,3948,16372,-180,162,-169,2025-02-17 10:20:48,0.0
9368,3988,16324,-158,181,-190,2025-02-17 10:20:48,0.0
9464,3912,16368,-181,177,-181,2025-02-17 10:20:48,0.0
9312,3832,16500,-156,190,-179,2025-02-17 10:20:48,0.0
9368,3892,16484,-151,177,-180,2025-02-17 10:20:48,0.0
9340,3960,16548,-160,166,-203,2025-02-17 10:20:48,0.0
9388,3900,16536,-168,180,-178,2025-02-17 10:20:48,0.0
9332,3964,16396,-160,165,-189,2025-02-17 10:20:48,0.0
9404,4000,16300,-156,193,-179,2025-02-17 10:20:48,0.0
9452,4016,16532,-172,181,-161,2025-02-17 10:20:48,0.0
9444,4060,16424,-149,183,-181,2025-02-17 10:20:48,0.0
9352,3920,16348,-153,178,-168,2025-02-17 10:20:48,0.0
9284,3900,16424,-150,155,-179,2025-02-17 10:20:48,0.0
9416,3932,16416,-163,181,-177,2025-02-17 10:20:48,0.0
9288,3956,16316,-159,181,-177,2025-02-17 10:20:48,0.0
9308,4000,16332,-150,173,-178,2025-02-17 10:20:48,0.0
9288,3932,16548,-138,174,-190,2025-02-17 10:20:48,0.0
9348,4004,16480,-153,180,-173,2025-02-17 10:20:48,0.0
9352,3980,16436,-130,164,-183,2025-02-17 10:20:48,0.0
9440,3992,16472,-154,181,-177,2025-02-17 10:20:48,0.0
9332,4048,16420,-162,173,-160,2025-02-17 10:20:48,0.0
9412,3936,16388,-151,176,-154,2025-02-17 10:20:48,0.0
9328,4016,16392,-161,164,-178,2025-02-17 10:20:48,0.0
9264,4028,16396,-157,178,-182,2025-02-17 10:20:48,0.0
9396,3976,16480,-161,175,-185,2025-02-17 10:20:48,0.0
9384,3944,16372,-191,179,-182,2025-02-17 10:20:48,0.0
9336,3916,16424,-170,171,-181,2025-02-17 10:20:48,0.0
9300,3948,16408,-164,172,-178,2025-02-17 10:20:48,0.0
9296,3768,16500,-168,173,-175,2025-02-17 10:20:48,0.0
9352,3964,16320,-157,187,-182,2025-02-17 10:20:48,0.0
9356,3936,16364,-156,180,-168,2025-02-17 10:20:48,0.0
9392,3972,16496,-154,176,-160,2025-02-17 10:20:48,0.0
9348,3896,16392,-158,147,-172,2025-02-17 10:20:48,0.0
9352,3956,16460,-153,151,-154,2025-02-17 10:20:49,0.0
9336,3912,16296,-134,180,-198,2025-02-17 10:20:49,0.0
9372,3888,16368,-151,162,-193,2025-02-17 10:20:49,0.0
9288,3896,16448,-167,193,-191,2025-02-17 10:20:49,
9388,4004,16544,-142,172,-192,2025-02-17 10:20:49,0.0
9372,3900,16448,-143,176,-195,2025-02-17 10:20:49,0.0
9380,3980,16488,-153,191,-172,2025-02-17 10:20:49,0.0
9280,4012,16444,-160,168,-177,2025-02-17 10:20:49,0.0
9336,3924,16400,-165,170,-181,2025-02-17 10:20:49,0.0
9372,3852,16428,-171,165,-183,2025-02-17 10:20:49,0.0
9332,4004,16404,-157,181,-193,2025-02-17 10:20:49,0.0
9288,3944,16412,-159,172,-175,2025-02-17 10:20:49,0.0
9492,3896,16524,-167,171,-175,2025-02-17 10:20:49,0.0
9348,4032,16412,-165,169,-193,2025-02-17 10:20:49,0.0
9320,3984,16388,-146,179,-168,2025-02-17 10:20:49,0.0
9416,4092,16564,-163,287,-183,2025-02-17 10:20:49,0.0
9292,3928,16348,-200,211,-175,2025-02-17 10:20:49,0.0
9236,4100,16412,-188,182,-161,2025-02-17 10:20:49,0.0
9636,4224,15888,-421,-35,-97,2025-02-17 10:20:49,0.0
9596,3984,16104,-544,468,-79,2025-02-17 10:20:49,0.0
9504,3596,16844,-443,1016,-168,2025-02-17 10:20:49,0.0
8860,3648,17332,-196,1101,-246,2025-02-17 10:20:49,0.0
8948,3824,17172,114,-11,-242,2025-02-17 10:20:49,0.0
9316,4156,16048,-49,-890,-206,2025-02-17 10:20:49,0.0
9664,3996,15832,-164,-378,-270,2025-02-17 10:20:49,0.0
9700,4112,16232,-274,631,-249,2025-02-17 10:20:49,0.0
9208,3816,16256,-280,813,-150,2025-02-17 10:20:49,0.0
9024,3812,16636,-164,86,-157,2025-02-17 10:20:49,0.0
9408,3912,16308,-175,-612,-220,2025-02-17 10:20:49,0.0
9556,4044,16436,-178,-323,-222,2025-02-17 10:20:49,0.0
9332,3876,16144,-289,-93,-199,2025-02-17 10:20:49,0.0
9400,3948,16284,-210,111,-168,2025-02-17 10:20:49,0.0
9492,3852,16468,-200,324,-165,2025-02-17 10:20:49,0.0
9404,3912,16564,-141,373,-166,2025-02-17 10:20:49,0.0
9336,3896,16588,-163,140,-179,2025-02-17 10:20:49,0.0
9472,3800,16348,-65,148,-150,2025-02-17 10:20:49,0.0
9392,3932,16620,-24,151,-212,2025-02-17 10:20:49,0.0
9340,3988,16128,-101,86,-210,2025-02-17 10:20:49,0.0
9292,4076,16528,-113,72,-107,2025-02-17 10:20:49,0.0
9400,3880,16276,-65,-118,-189,2025-02-17 10:20:49,0.0
9376,3952,16576,-61,-101,-150,2025-02-17 10:20:49,0.0
9080,3904,16572,-51,-117,-169,2025-02-17 10:20:49,0.0
9500,3952,16152,-139,-176,-187,2025-02-17 10:20:49,0.0
9612,3900,16044,-249,101,-195,2025-02-17 10:20:49,0.0
9480,3960,16436,-226,353,-180,2025-02-17 10:20:49,0.0
9208,3864,16488,-255,472,-147,2025-02-17 10:20:49,0.0
9380,3864,16616,-155,167,-197,2025-02-17 10:20:49,0.0
9304,4032,16200,-216,83,-216,2025-02-17 10:20:49,0.0
9728,3536,15924,131,302,-174,2025-02-17 10:20:49,0.0
9152,4364,16564,-331,542,-225,2025-02-17 10:20:49,0.0
9568,4004,15992,-627,383,-270,2025-02-17 10:20:49,0.0
8772,4192,17364,-549,136,-146,2025-02-17 10:20:49,0.0
9856,3780,16728,-398,-569,-166,2025-02-17 10:20:49,0.0
8956,4092,16984,-706,-1214,-178,2025-02-17 10:20:49,0.0
8720,4124,17400,-920,-2654,117,2025-02-17 10:20:49,0.0
9740,3536,16812,-972,-3827,-85,2025-02-17 10:20:49,0.0
9424,4048,17456,-1241,-4865,24,2025-02-17 10:20:49,0.0
9324,4008,18852,501,-6509,577,2025-02-17 10:20:49,0.0
10204,3580,17736,2507,-7168,786,2025-02-17 10:20:49,0.0
10168,3752,17276,3094,-6573,615,2025-02-17 10:20:49,0.0
11032,1628,5908,613,-3781,161,2025-02-17 10:20:50,0.0
12112,3488,10888,523,-2025,-507,2025-02-17 10:20:50,0.0
10796,3920,10032,-1452,3181,-426,2025-02-17 10:20:50,0.0
11768,4324,11840,-2103,9590,-647,2025-02-17 10:20:50,0.0
12320,4092,16808,-1269,15650,-1514,2025-02-17 10:20:50,0.0
11612,3396,19688,645,16555,-1763,2025-02-17 10:20:50,0.0
7708,4424,20456,356,11755,-1076,2025-02-17 10:20:50,0.0
5596,4548,19512,-99,5416,-730,2025-02-17 10:20:50,0.0
4360,3980,17608,-206,-1190,-75,2025-02-17 10:20:50,0.0
6908,3944,17324,10,-5391,632,2025-02-17 10:20:50,0.0
10272,4008,16532,-249,-5678,565,2025-02-17 10:20:50,0.0
10984,3872,15808,-206,-3251,164,2025-02-17 10:20:50,0.0
10696,3920,15400,-11,280,-256,2025-02-17 10:20:50,0.0
9616,3980,15816,-105,2154,-296,2025-02-17 10:20:50,0.0
8544,4124,16840,-328,2147,-232,2025-02-17 10:20:50,0.0
8608,3952,17428,-210,795,-177,2025-02-17 10:20:50,0.0
8748,3908,16928,-138,-422,-183,2025-02-17 10:20:50,0.0
9504,3836,16416,-122,-139,-293,2025-02-17 10:20:50,0.0
9332,4216,16312,-84,475,-197,2025-02-17 10:20:50,0.0
8984,3960,16432,-315,669,-170,2025-02-17 10:20:50,0.0
9140,3788,16520,-254,540,-290,2025-02-17 10:20:50,0.0
8884,4020,16764,-205,441,-183,2025-02-17 10:20:50,0.0
9220,3992,16924,-100,105,-193,2025-02-17 10:20:50,0.0
9200,3852,16392,-64,-153,-232,2025-02-17 10:20:50,0.0
9196,4132,15988,-222,39,-136,2025-02-17 10:20:50,0.0
9288,4060,17052,-109,362,-146,2025-02-17 10:20:50,0.0
8804,3984,16644,-75,156,-129,2025-02-17 10:20:50,0.0
8888,3940,16268,-309,-250,49,2025-02-17 10:20:50,0.0
9180,4320,16764,-772,-367,260,2025-02-17 10:20:50,0.0
8696,4288,16508,-1191,-785,442,2025-02-17 10:20:50,0.0
8896,4344,15940,-2707,-1094,1245,2025-02-17 10:20:50,0.0
9028,4360,16720,-4538,-1335,2239,2025-02-17 10:20:50,0.0
8736,4640,17132,-7118,-1729,3460,2025-02-17 10:20:50,0.0
9784,4100,18048,-11237,-2773,4862,2025-02-17 10:20:50,0.0
10384,3808,20168,-14490,-4070,5814,2025-02-17 10:20:50,0.0
10808,2568,20928,-16202,-5536,6891,2025-02-17 10:20:50,0.0
9332,2172,21616,-16767,-6266,8655,2025-02-17 10:20:50,0.0
9228,2060,24588,-14338,-5689,11084,2025-02-17 10:20:50,0.0
7848,2172,28148,-9254,-2359,13503,2025-02-17 10:20:50,0.0
9252,1620,29060,-3916,2443,16001,2025-02-17 10:20:50,0.0
10044,864,29308,473,7626,17744,2025-02-17 10:20:50,0.0
11128,-500,28800,2832,13020,18536,2025-02-17 10:20:50,0.0
11628,-1724,28124,3313,19824,17917,2025-02-17 10:20:50,0.0
13108,-3064,25584,1153,25714,15154,2025-02-17 10:20:50,
13576,-3692,24832,-2454,29861,9836,2025-02-17 10:20:50,0.0
12600,-3696,24980,-4662,32408,1432,2025-02-17 10:20:50,0.0
10564,-3664,24704,-4036,32767,-5676,2025-02-17 10:20:50,0.0
7480,-3488,23624,-2018,32767,-11269,2025-02-17 10:20:50,0.0
4452,-3952,21264,-120,32767,-14822,2025-02-17 10:20:50,0.0
1624,-4216,19008,564,31789,-15699,2025-02-17 10:20:50,0.0
-1720,-4496,17672,-196,29382,-13628,2025-02-17 10:20:50,0.0
-4092,-4408,17944,-1408,26784,-9675,2025-02-17 10:20:50,0.0
-6196,-4248,18996,-2526,23586,-3857,2025-02-17 10:20:50,0.0
-7316,-4244,20272,-3457,20265,2553,2025-02-17 10:20:50,0.0
-7576,-4288,20920,-4122,16990,8563,2025-02-17 10:20:50,0.0
-6740,-4592,21644,-4523,13760,13637,2025-02-17 10:20:50,0.0
-4416,-4580,21236,-4545,10772,16283,2025-02-17 10:20:50,0.0
-1972,-4480,20988,-4212,9133,15412,2025-02-17 10:20:50,0.0
-528,-3828,20684,-3590,7842,11187,2025-02-17 10:20:50,0.0
392,-2980,20628,-2215,7137,5320,2025-02-17 10:20:50,0.0
-104,-1988,20544,595,6765,-1126,2025-02-17 10:20:50,0.0
-1520,-1296,19468,3569,6566,-5404,2025-02-17 10:20:50,0.0
-2980,-916,17556,6158,6402,-7953,2025-02-17 10:20:50,0.0
-4424,-676,15412,7411,6315,-8231,2025-02-17 10:20:51,0.0
-5120,-388,13624,7097,6323,-7225,2025-02-17 10:20:51,0.0
-5608,-284,11792,5473,6329,-5802,2025-02-17 10:20:51,0.0
-6080,216,11200,2983,6284,-3949,2025-02-17 10:20:51,0.0
-6700,1000,11352,670,6267,-1776,2025-02-17 10:20:51,0.0
-6976,1332,11592,-1182,6327,629,2025-02-17 10:20:51,0.0
-6376,1400,11572,-3079,6534,3061,2025-02-17 10:20:51,0.0
-5236,928,11128,-5164,6915,4307,2025-02-17 10:20:51,0.0
-4368,592,11464,-6916,7508,4064,2025-02-17 10:20:51,0.0
-4136,380,12332,-7635,8343,3150,2025-02-17 10:20:51,0.0
-4172,-276,12808,-7420,9415,1838,2025-02-17 10:20:51,0.0
-4296,-812,13188,-6686,10640,488,2025-02-17 10:20:51,0.0
-4516,-1544,13212,-5309,12463,-1132,2025-02-17 10:20:51,0.0
-5052,-2244,13164,-3968,14295,-2385,2025-02-17 10:20:51,0.0
-5604,-2820,12324,-2547,16439,-3149,2025-02-17 10:20:51,0.0
-6388,-2924,12192,-1210,18348,-3077,2025-02-17 10:20:51,0.0
-6896,-3276,11676,-70,20146,-2409,2025-02-17 10:20:51,0.0
-7544,-3368,10848,1184,22349,-1103,2025-02-17 10:20:51,0.0
-8212,-3560,10424,1991,24584,498,2025-02-17 10:20:51,0.0
-8316,-3348,9756,2594,26852,2149,2025-02-17 10:20:51,0.0
-8336,-2904,9236,3043,29013,3633,2025-02-17 10:20:51,0.0
-8768,-2464,9140,3569,31295,4908,2025-02-17 10:20:51,0.0
-8476,-1812,7984,4105,32767,6005,2025-02-17 10:20:51,0.0
-8220,-1156,6796,4564,32767,6742,2025-02-17 10:20:51,0.0
-8416,-504,6120,4886,32767,6771,2025-02-17 10:20:51,0.0
-8384,-104,4852,5008,32767,6277,2025-02-17 10:20:51,0.0
-8328,232,3540,4805,32767,5290,2025-02-17 10:20:51,0.0
-8272,732,1976,4443,32767,4135,2025-02-17 10:20:51,0.0
-8596,1120,436,3803,32767,3042,2025-02-17 10:20:51,0.0
-8640,1260,-1216,3062,32767,2106,2025-02-17 10:20:51,0.0
-8252,1136,-2500,2328,32767,1302,2025-02-17 10:20:51,0.0
-6884,680,-4212,1880,32767,363,2025-02-17 10:20:51,0.0
-588,-572,-7584,3804,32767,-1240,2025-02-17 10:20:51,0.0
1192,-868,-8536,4327,32767,-269,2025-02-17 10:20:51,0.0
3204,-1220,-10132,3826,32767,1252,2025-02-17 10:20:51,0.0
5720,-1688,-11020,2331,30644,2272,2025-02-17 10:20:51,0.0
6760,-2492,-11600,879,15102,2787,2025-02-17 10:20:51,0.0
5560,-3120,-11408,-116,459,1906,2025-02-17 10:20:51,0.0
-20644,-6840,-13468,-612,32767,-6301,2025-02-17 10:20:51,0.0
-6652,-2048,-14696,-1082,25140,-8414,2025-02-17 10:20:51,0.0
1220,-1048,-16416,-626,19573,-4505,2025-02-17 10:20:51,0.0
7512,-1812,-17900,-138,11786,293,2025-02-17 10:20:51,0.0
10784,-2584,-18968,763,8286,3484,2025-02-17 10:20:51,0.0
12952,-2256,-19500,543,5207,2809,2025-02-17 10:20:51,0.0
11280,-508,-21556,-2201,-6549,-608,2025-02-17 10:20:51,0.0
6892,312,-20920,-4149,-13188,-4129,2025-02-17 10:20:51,0.0
2296,128,-17460,-3968,-18092,-6000,2025-02-17 10:20:51,0.0
-13100,-792,-13552,-1704,-16086,-3794,2025-02-17 10:20:51,0.0
532,-2700,-11604,-736,-11406,1849,2025-02-17 10:20:51,0.0
4352,-2068,-12876,-1985,-7570,4715,2025-02-17 10:20:51,0.0
7352,-284,-11276,-2235,990,3419,2025-02-17 10:20:51,0.0
7264,796,-9984,-374,7569,-1703,2025-02-17 10:20:51,0.0
4536,104,-12760,906,10438,-4547,2025-02-17 10:20:51,0.0
2452,-604,-14992,1408,12460,-4586,2025-02-17 10:20:51,0.0
1888,-960,-15632,1847,14215,-3862,2025-02-17 10:20:51,0.0
2420,-1084,-15944,2095,15082,-2857,2025-02-17 10:20:51,0.0
4024,-1148,-15500,2056,15116,-1819,2025-02-17 10:20:51,0.0
5652,-1404,-14536,1902,15733,-1096,2025-02-17 10:20:51,0.0
6120,-1532,-13744,1829,17754,-748,2025-02-17 10:20:51,0.0
6372,-1488,-12760,1822,22438,-489,2025-02-17 10:20:52,0.0
6232,-1580,-12004,1939,27320,-7,2025-02-17 10:20:52,0.0
6388,-1580,-10972,2007,32670,762,2025-02-17 10:20:52,0.0
7552,-1612,-10064,2281,32767,1549,2025-02-17 10:20:52,0.0
9416,-1252,-9364,2601,32767,1811,2025-02-17 10:20:52,0.0
12160,-1284,-8348,3029,32767,1448,2025-02-17 10:20:52,0.0
14704,-1476,-7236,3630,32767,892,2025-02-17 10:20:52,0.0
16836,-1604,-5980,4196,32767,393,2025-02-17 10:20:52,0.0
18628,-1784,-6604,4615,32767,20,2025-02-17 10:20:52,0.0
21780,-2144,-9736,4567,32767,-393,2025-02-17 10:20:52,0.0
24940,-2116,-11704,3552,31410,-982,2025-02-17 10:20:52,0.0
26076,-2312,-11440,1875,16727,-1513,2025-02-17 10:20:52,0.0
24256,-2540,-7604,417,-2231,-1467,2025-02-17 10:20:52,0.0
21052,-2220,-4156,-502,-27121,-719,2025-02-17 10:20:52,0.0
19144,-2040,-3856,-726,-32768,-644,2025-02-17 10:20:52,0.0
16948,-1744,-7992,-570,-32768,-1332,2025-02-17 10:20:52,0.0
13076,-1504,-13440,-46,-32768,-2427,2025-02-17 10:20:52,0.0
10620,-1424,-15268,-48,-32768,-3257,2025-02-17 10:20:52,0.0
10544,-1648,-12672,-1136,-32768,-3757,2025-02-17 10:20:52,0.0
9116,-1672,-10260,-2885,-32768,-3580,2025-02-17 10:20:52,0.0
7180,-1744,-8724,-3866,-32768,-2619,2025-02-17 10:20:52,0.0
5208,-1648,-8752,-3659,-32768,-1466,2025-02-17 10:20:52,
2828,-1356,-9536,-2536,-32768,-136,2025-02-17 10:20:52,0.0
368,-1044,-9900,-1584,-32768,368,2025-02-17 10:20:52,0.0
-1592,-1960,-11092,-1042,-32768,-16,2025-02-17 10:20:52,0.0
-3888,-892,-12104,-1179,-32768,21,2025-02-17 10:20:52,0.0
-5328,-920,-12376,-1366,-32768,-353,2025-02-17 10:20:52,0.0
-7036,-764,-12604,-1260,-32768,-812,2025-02-17 10:20:52,0.0
-8436,-796,-13224,-1128,-32768,-1129,2025-02-17 10:20:52,0.0
-10020,-820,-13436,-868,-30532,-1232,2025-02-17 10:20:52,0.0
-10800,-816,-14420,-642,-19518,-1098,2025-02-17 10:20:52,0.0
-11276,-816,-15140,-246,-8441,-806,2025-02-17 10:20:52,0.0
-11276,-956,-15892,206,3017,-281,2025-02-17 10:20:52,0.0
-10816,-1212,-16736,723,14379,259,2025-02-17 10:20:52,0.0
-9292,-1352,-17820,1200,24086,533,2025-02-17 10:20:52,0.0
-7368,-1492,-18936,1487,31039,511,2025-02-17 10:20:52,0.0
-5380,-1640,-19728,1207,32767,296,2025-02-17 10:20:52,0.0
-3372,-1652,-19928,471,32767,-46,2025-02-17 10:20:52,0.0
-1344,-1764,-19220,-306,32767,-675,2025-02-17 10:20:52,0.0
184,-1708,-17888,-711,31646,-1474,2025-02-17 10:20:52,0.0
1036,-1440,-16612,-696,27200,-2187,2025-02-17 10:20:52,0.0
-7492,1056,-5116,-2026,-10231,-2598,2025-02-17 10:20:52,0.0
-11768,-1816,-2824,-3180,-32768,-3286,2025-02-17 10:20:52,0.0
-32768,-5036,8192,-1849,-32768,-5600,2025-02-17 10:20:52,0.0
-25624,-2180,-1980,-822,-32768,-1579,2025-02-17 10:20:52,0.0
-12344,-1432,-8728,-1683,-32768,488,2025-02-17 10:20:52,0.0
-8088,-1196,-12360,-1151,-32768,1975,2025-02-17 10:20:52,0.0
-7520,-1092,-13392,1517,-27585,3343,2025-02-17 10:20:52,0.0
-6556,-1608,-14672,3791,-21961,3829,2025-02-17 10:20:52,0.0
-5956,-2020,-16900,3868,-17160,3186,2025-02-17 10:20:52,0.0
-3792,-1920,-15184,369,-17267,1638,2025-02-17 10:20:52,0.0
-6048,3324,12000,564,-32768,-625,2025-02-17 10:20:52,0.0
-16356,-2492,7584,5486,-32074,-754,2025-02-17 10:20:52,0.0
-14852,-1916,-5640,5319,-17116,1168,2025-02-17 10:20:52,0.0
-10900,-864,-10624,2020,-11660,2764,2025-02-17 10:20:52,0.0
-10804,880,-5308,-10,-7927,4745,2025-02-17 10:20:52,0.0
-12236,-296,-312,126,-288,5544,2025-02-17 10:20:52,0.0
-10944,-984,-560,721,9564,5237,2025-02-17 10:20:53,0.0
-8736,-520,-4284,-844,15082,3103,2025-02-17 10:20:53,0.0
-8044,-72,-5876,-3220,16735,251,2025-02-17 10:20:53,0.0
-10044,892,-2400,-3319,18040,-2522,2025-02-17 10:20:53,0.0
-10616,676,-3912,-2915,17887,-4174,2025-02-17 10:20:53,0.0
-11944,404,-4780,-2970,16747,-4775,2025-02-17 10:20:53,0.0
-13624,236,-5672,-3311,15171,-4195,2025-02-17 10:20:53,0.0
-14940,284,-7184,-3246,13437,-2748,2025-02-17 10:20:53,0.0
-15960,-268,-7192,-3366,11442,-811,2025-02-17 10:20:53,0.0
-15072,-136,-6248,-3066,6351,874,2025-02-17 10:20:53,0.0
-12928,228,-6488,-2350,1799,464,2025-02-17 10:20:53,0.0
-12940,484,-6328,-1840,-779,-536,2025-02-17 10:20:53,0.0
-11424,376,-7344,-2189,-1885,-1866,2025-02-17 10:20:53,0.0
-11432,360,-7948,-3393,-1700,-2327,2025-02-17 10:20:53,0.0
-11408,272,-6936,-3898,201,-1959,2025-02-17 10:20:53,0.0
-10572,8,-6736,-3529,1589,-1743,2025-02-17 10:20:53,0.0
-11084,196,-6900,-3393,2173,-1940,2025-02-17 10:20:53,0.0
-11428,228,-6992,-3809,2089,-1923,2025-02-17 10:20:53,0.0
-11592,196,-6720,-4180,1266,-1854,2025-02-17 10:20:53,0.0
-11692,260,-6308,-4391,77,-1716,2025-02-17 10:20:53,0.0
-11140,616,-6252,-4616,-441,-1777,2025-02-17 10:20:53,0.0
-11032,1032,-6540,-5317,-268,-1912,2025-02-17 10:20:53,0.0
-10764,832,-7360,-6001,722,-2458,2025-02-17 10:20:53,0.0
-10748,416,-8016,-6902,1583,-3053,2025-02-17 10:20:53,0.0
-11204,-272,-8804,-7790,2284,-3519,2025-02-17 10:20:53,0.0
-11384,-872,-9816,-8471,2568,-4027,2025-02-17 10:20:53,0.0
-11288,-1564,-10448,-8992,1744,-4649,2025-02-17 10:20:53,0.0
-11524,-2204,-9844,-9264,269,-4888,2025-02-17 10:20:53,0.0
-11340,-2064,-9056,-9098,-500,-4936,2025-02-17 10:20:53,0.0
-10520,-868,-8924,-9361,-248,-5606,2025-02-17 10:20:53,0.0
-10524,196,-9676,-10276,-583,-6318,2025-02-17 10:20:53,0.0
-10152,112,-8636,-11115,-898,-6855,2025-02-17 10:20:53,0.0
-10744,-640,-7752,-11539,-833,-6261,2025-02-17 10:20:53,0.0
-9672,-4152,-7956,-11833,-679,-5364,2025-02-17 10:20:53,0.0
-9752,-6040,-7376,-11026,455,-4723,2025-02-17 10:20:53,0.0
-10136,-5848,-6808,-10049,2468,-4231,2025-02-17 10:20:53,0.0
-11556,-3872,-6052,-9726,2723,-3680,2025-02-17 10:20:53,0.0
-13400,-1404,-4672,-9529,2446,-2432,2025-02-17 10:20:53,0.0
-13460,1952,-6512,-8829,3527,-1142,2025-02-17 10:20:53,0.0
-13396,3556,-7440,-9168,4800,-2234,2025-02-17 10:20:53,0.0
-13576,3968,-6716,-9110,4001,-4222,2025-02-17 10:20:53,0.0
-14652,3028,-6740,-9741,376,-4847,2025-02-17 10:20:53,0.0
-13260,1424,-5636,-10371,-3071,-4553,2025-02-17 10:20:53,0.0
-11104,1328,-5588,-10274,-3411,-4243,2025-02-17 10:20:53,0.0
-9584,1420,-6116,-10909,-1051,-4489,2025-02-17 10:20:53,0.0
-9628,1572,-6004,-11288,1536,-5007,2025-02-17 10:20:53,0.0
-10644,1432,-6052,-11319,2011,-5229,2025-02-17 10:20:53,0.0
-11628,1268,-5584,-11360,1464,-5381,2025-02-17 10:20:53,0.0
-11796,1168,-5192,-11409,1082,-5531,2025-02-17 10:20:53,0.0
-11760,1168,-5292,-11284,1175,-6053,2025-02-17 10:20:53,0.0
-11856,1480,-5356,-11120,962,-6477,2025-02-17 10:20:53,0.0
-11476,1288,-5416,-10868,518,-6525,2025-02-17 10:20:53,0.0
-11068,1300,-5660,-10754,381,-6591,2025-02-17 10:20:53,0.0
-10608,1288,-5412,-10546,569,-7149,2025-02-17 10:20:53,0.0
-11432,1744,-5628,-10382,941,-7511,2025-02-17 10:20:53,0.0
-11524,1988,-6344,-10460,1401,-7633,2025-02-17 10:20:53,0.0
-11388,2024,-7024,-10549,1777,-7884,2025-02-17 10:20:53,0.0
-11448,1960,-7272,-10628,1619,-8042,2025-02-17 10:20:53,0.0
-11408,1988,-7324,-10727,1495,-8103,2025-02-17 10:20:53,0.0
-11376,1628,-7504,-10941,1986,-8206,2025-02-17 10:20:53,0.0
-11764,1216,-7144,-11196,2552,-8181,2025-02-17 10:20:53,0.0
-11800,316,-6876,-11147,2818,-8114,2025-02-17 10:20:53,0.0
-12032,316,-7296,-11028,2725,-7778,2025-02-17 10:20:53,0.0
-11792,460,-7476,-10726,1777,-7455,2025-02-17 10:20:54,0.0
-11740,956,-7304,-10533,1105,-7248,2025-02-17 10:20:54,
-11496,1200,-7380,-9907,653,-7105,2025-02-17 10:20:54,0.0
-10988,1552,-7396,-9895,-12,-7277,2025-02-17 10:20:54,0.0
-10308,1608,-7572,-9995,-690,-7853,2025-02-17 10:20:54,0.0
-9768,1820,-7868,-10124,-1249,-8452,2025-02-17 10:20:54,0.0
-9620,1940,-9296,-10296,-559,-8753,2025-02-17 10:20:54,0.0
-10504,436,-8836,-10669,1337,-8648,2025-02-17 10:20:54,0.0
-11944,-1304,-8280,-10992,2001,-8273,2025-02-17 10:20:54,0.0
-13144,-896,-8864,-10890,1322,-7397,2025-02-17 10:20:54,0.0
-12416,-984,-10252,-11225,380,-6581,2025-02-17 10:20:54,0.0
-11444,-1896,-9300,-11479,-28,-6629,2025-02-17 10:20:54,0.0
-10148,-2524,-8080,-10915,-490,-7805,2025-02-17 10:20:54,0.0
-10264,-2212,-8700,-10927,-474,-8745,2025-02-17 10:20:54,0.0
-11180,-1172,-8952,-11536,710,-9057,2025-02-17 10:20:54,0.0
-12424,-948,-7612,-11815,1878,-8991,2025-02-17 10:20:54,0.0
-12124,-1392,-7280,-12068,1509,-9320,2025-02-17 10:20:54,0.0
-11808,-1756,-7668,-12442,153,-9871,2025-02-17 10:20:54,0.0
-11680,-1992,-8028,-12654,-973,-10110,2025-02-17 10:20:54,0.0
-10728,-2332,-8176,-12909,-1397,-9997,2025-02-17 10:20:54,0.0
-9900,-2956,-7360,-13013,-604,-9864,2025-02-17 10:20:54,0.0
-9440,-3444,-7272,-13008,283,-9655,2025-02-17 10:20:54,0.0
-9592,-3416,-7380,-12986,1119,-9468,2025-02-17 10:20:54,0.0
-9892,-3216,-7708,-12838,1762,-9104,2025-02-17 10:20:54,0.0
-10144,-3060,-7444,-12707,2032,-8601,2025-02-17 10:20:54,0.0
-10352,-2468,-7964,-12454,1620,-8262,2025-02-17 10:20:54,0.0
-10412,-2296,-8112,-12558,1667,-8162,2025-02-17 10:20:54,0.0
-10800,-2476,-8144,-12738,1944,-8032,2025-02-17 10:20:54,0.0
-10784,-2700,-8376,-12810,2201,-8163,2025-02-17 10:20:54,0.0
-11260,-3348,-8340,-12799,1952,-8400,2025-02-17 10:20:54,0.0
-11516,-4064,-8352,-12500,689,-8344,2025-02-17 10:20:54,0.0
-12092,-3796,-7704,-11851,-891,-7594,2025-02-17 10:20:54,0.0
-11932,-3468,-7264,-11449,-1456,-6751,2025-02-17 10:20:54,0.0
-11528,-3088,-7104,-11279,-1601,-5977,2025-02-17 10:20:54,0.0
-11252,-3028,-6904,-11244,-838,-5557,2025-02-17 10:20:54,0.0
-11336,-2868,-7020,-11358,-306,-5209,2025-02-17 10:20:54,0.0
-11120,-2956,-8144,-11712,-532,-5072,2025-02-17 10:20:54,0.0
-11168,-3288,-8260,-11194,-274,-4922,2025-02-17 10:20:54,0.0
-11052,-3684,-8036,-9992,17,-4866,2025-02-17 10:20:54,0.0
-10680,-3688,-7340,-9308,-306,-4813,2025-02-17 10:20:54,0.0
-10548,-3144,-7036,-8593,204,-4188,2025-02-17 10:20:54,0.0
-9596,-1676,-7832,-8194,1186,-3129,2025-02-17 10:20:54,0.0
-9176,-168,-8264,-8083,2843,-2777,2025-02-17 10:20:54,0.0
-9672,1336,-8368,-8512,5065,-3440,2025-02-17 10:20:54,0.0
-10104,1256,-8348,-8612,6195,-4503,2025-02-17 10:20:54,0.0
-11164,1528,-8640,-8355,6138,-5092,2025-02-17 10:20:54,0.0
-11452,1904,-8500,-8414,4293,-5141,2025-02-17 10:20:54,0.0
-11960,2320,-8152,-8837,1827,-5164,2025-02-17 10:20:54,0.0
-11312,2452,-8788,-9522,-435,-5323,2025-02-17 10:20:54,0.0
-11696,1952,-8192,-9963,-1226,-5463,2025-02-17 10:20:54,0.0
-11804,1444,-7932,-10095,454,-5329,2025-02-17 10:20:54,0.0
-10888,1060,-8572,-10141,1370,-5504,2025-02-17 10:20:54,0.0
-10896,764,-7892,-10012,707,-5836,2025-02-17 10:20:54,0.0
-10984,848,-7044,-9567,-406,-5819,2025-02-17 10:20:54,0.0
-10692,992,-6688,-9175,-639,-5739,2025-02-17 10:20:54,0.0
-10500,616,-6504,-8841,31,-5598,2025-02-17 10:20:54,0.0
-10524,156,-6652,-8365,930,-5374,2025-02-17 10:20:54,0.0
-10552,-356,-6508,-7782,1381,-5202,2025-02-17 10:20:54,0.0
-10772,-436,-6340,-7141,1261,-5088,2025-02-17 10:20:54,0.0
-10716,4,-6468,-6532,1039,-4996,2025-02-17 10:20:54,0.0
-10748,656,-6324,-5713,980,-4961,2025-02-17 10:20:54,0.0
-10716,740,-6688,-5117,1268,-4936,2025-02-17 10:20:54,0.0
-11540,-64,-7240,-3941,1857,-5004,2025-02-17 10:20:54,0.0
-11760,-348,-7392,-3681,1778,-4926,2025-02-17 10:20:55,0.0
-12624,-336,-8064,-3438,2171,-4284,2025-02-17 10:20:55,0.0
-13248,-720,-8688,-3623,3100,-3428,2025-02-17 10:20:55,0.0
-13428,44,-8388,-3995,3861,-2415,2025-02-17 10:20:55,0.0
-12200,720,-7840,-3818,3377,-2344,2025-02-17 10:20:55,0.0
-11320,620,-7472,-3857,575,-2825,2025-02-17 10:20:55,0.0
-12572,-516,-5844,-3409,-2870,-2973,2025-02-17 10:20:55,0.0
-13188,-888,-4332,-2477,-4248,-2592,2025-02-17 10:20:55,0.0
-11540,-188,-6384,-1827,-3388,-2268,2025-02-17 10:20:55,0.0
-10588,-104,-7912,-1510,-3493,-2507,2025-02-17 10:20:55,0.0
-10700,-1236,-8716,-944,-2318,-3022,2025-02-17 10:20:55,0.0
-10616,-1420,-9340,-871,-2027,-2938,2025-02-17 10:20:55,0.0
-9840,-828,-8928,-221,-2017,-2388,2025-02-17 10:20:55,0.0
-9288,-424,-8460,467,-1335,-2124,2025-02-17 10:20:55,0.0
-8976,-464,-7624,609,783,-2600,2025-02-17 10:20:55,0.0
-9452,-1220,-7492,721,2303,-3734,2025-02-17 10:20:55,0.0
-11440,-2252,-8516,788,2483,-4286,2025-02-17 10:20:55,0.0
-12776,-3204,-9040,789,1751,-3686,2025-02-17 10:20:55,0.0
-12668,-3384,-8632,977,195,-2563,2025-02-17 10:20:55,0.0
-11196,-2476,-8328,1627,-2975,-1806,2025-02-17 10:20:55,0.0
-10532,-772,-6040,1943,-4012,-1246,2025-02-17 10:20:55,0.0
-8724,-312,-6496,1347,-1510,-1024,2025-02-17 10:20:55,0.0
-8080,-552,-7296,365,2760,-1706,2025-02-17 10:20:55,0.0
-9756,-1252,-7016,228,5480,-2411,2025-02-17 10:20:55,0.0
-10980,-1780,-7396,157,6084,-3066,2025-02-17 10:20:55,0.0
-12252,-1784,-7580,26,4559,-3825,2025-02-17 10:20:55,0.0
-12584,-1572,-8176,-33,1826,-3926,2025-02-17 10:20:55,0.0
-12296,-1576,-8208,-162,-893,-3561,2025-02-17 10:20:55,0.0
-12008,-1060,-6456,-54,-2879,-3116,2025-02-17 10:20:55,0.0
-10828,-932,-6264,-108,-2832,-3079,2025-02-17 10:20:55,0.0
-10268,-1240,-6672,-716,-2080,-3154,2025-02-17 10:20:55,0.0
-10484,-2292,-5696,-1284,-832,-2852,2025-02-17 10:20:55,0.0
-11324,-2628,-4764,-1059,717,-2155,2025-02-17 10:20:55,0.0
-11492,-2392,-5080,-1121,2060,-1594,2025-02-17 10:20:55,0.0
-11396,-2116,-5516,-1256,2318,-1701,2025-02-17 10:20:55,0.0
-12320,-2108,-5584,-1316,1857,-1786,2025-02-17 10:20:55,0.0
-12612,-2344,-5624,-1365,803,-1503,2025-02-17 10:20:55,0.0
-12572,-2652,-5736,-1489,-233,-1278,2025-02-17 10:20:55,0.0
-12208,-2256,-5740,-1686,-979,-1284,2025-02-17 10:20:55,
-12136,-1964,-5944,-1993,-1178,-1453,2025-02-17 10:20:55,0.0
-11700,-1924,-6504,-2549,-968,-1875,2025-02-17 10:20:55,0.0
-11652,-1600,-7064,-3165,-460,-2377,2025-02-17 10:20:55,0.0
-11588,-1156,-6284,-3394,-506,-2814,2025-02-17 10:20:55,0.0
-11624,-1216,-6320,-3502,-472,-3180,2025-02-17 10:20:55,0.0
-11832,-2088,-7436,-4358,581,-3556,2025-02-17 10:20:55,0.0
-11856,-3380,-7572,-5109,1397,-4128,2025-02-17 10:20:55,0.0
-12380,-4284,-6584,-5010,660,-4617,2025-02-17 10:20:55,0.0
-14264,-4332,-3756,-4042,-1607,-3960,2025-02-17 10:20:55,0.0
