acceleration_x,acceleration_y,acceleration_z,gyroscope_x,gyroscope_y,gyroscope_z,timestamp,label
-13348,-1692,892,359,1201,-869,2025-02-17 11:30:50,0.0
-14384,-1756,264,3203,-1168,-235,2025-02-17 11:30:50,0.0
-14304,-1404,40,4862,-3273,109,2025-02-17 11:30:50,0.0
-13816,-1548,-92,6079,-6314,-403,2025-02-17 11:30:50,0.0
-13464,-1416,-1164,6344,-8485,-1311,2025-02-17 11:30:50,0.0
-13628,-452,-2968,4429,-8194,-1568,2025-02-17 11:30:50,0.0
-13108,672,-4220,1070,-4685,-952,2025-02-17 11:30:50,0.0
-12256,52,-3740,-1592,-176,-493,2025-02-17 11:30:50,0.0
-11376,-804,-1692,-2732,4704,-264,2025-02-17 11:30:50,0.0
-12256,-1976,472,-1165,6157,-642,2025-02-17 11:30:50,0.0
-14080,-1724,460,978,4240,-1406,2025-02-17 11:30:50,0.0
-15776,-1272,-780,1301,1773,-1563,2025-02-17 11:30:50,0.0
-16564,-920,-1484,572,-317,-859,2025-02-17 11:30:50,0.0
-14768,-1448,28,432,-1883,-15,2025-02-17 11:30:50,0.0
-13812,-1132,-1444,536,-2316,122,2025-02-17 11:30:50,0.0
-11928,-1764,-848,483,-870,-56,2025-02-17 11:30:50,0.0
-11964,-1692,-2244,466,394,-241,2025-02-17 11:30:50,0.0
-12916,-992,-2372,14,1810,-435,2025-02-17 11:30:50,0.0
-13752,-664,-1944,-764,2457,-722,2025-02-17 11:30:50,0.0
-14144,-924,-492,-897,2197,-908,2025-02-17 11:30:50,0.0
-14496,-1240,-848,-599,1222,-844,2025-02-17 11:30:50,0.0
-14200,-1120,-1400,-966,323,-521,2025-02-17 11:30:50,0.0
-14000,-892,-1796,-1751,460,-48,2025-02-17 11:30:50,0.0
-12844,-1628,-664,-2086,2087,89,2025-02-17 11:30:50,0.0
-13384,-2448,-124,-190,1918,-263,2025-02-17 11:30:50,0.0
-14340,-1428,-944,388,1238,117,2025-02-17 11:30:50,0.0
-13464,-1532,160,871,-452,-495,2025-02-17 11:30:50,0.0
-14640,-1304,-1752,730,-1928,-235,2025-02-17 11:30:50,0.0
-13004,-1424,-1096,485,-1822,-228,2025-02-17 11:30:50,0.0
-12844,-1560,-1348,669,-1006,-380,2025-02-17 11:30:50,0.0
-13148,-1208,-2000,334,363,-177,2025-02-17 11:30:50,0.0
-12944,-800,-2076,-1227,2131,248,2025-02-17 11:30:50,0.0
-13052,-1668,-688,-463,1930,-412,2025-02-17 11:30:50,0.0
-14364,-908,-1468,-520,1468,22,2025-02-17 11:30:50,0.0
-13456,-1132,-1168,-861,1476,93,2025-02-17 11:30:50,0.0
-13396,-1652,-384,-19,898,-261,2025-02-17 11:30:50,0.0
-14344,-1324,-1144,1194,-67,123,2025-02-17 11:30:50,0.0
-13660,-780,-2356,373,1,316,2025-02-17 11:30:50,0.0
-13280,-1084,-1220,-104,322,117,2025-02-17 11:30:50,0.0
-13396,-1160,-740,313,443,98,2025-02-17 11:30:51,0.0
-13484,-1132,-1272,441,286,131,2025-02-17 11:30:51,0.0
-13400,-1056,-1576,121,300,-13,2025-02-17 11:30:51,0.0
-13500,-1200,-1156,67,541,-13,2025-02-17 11:30:51,0.0
-13812,-1284,-1112,308,687,23,2025-02-17 11:30:51,0.0
-13536,-1164,-1304,423,538,5,2025-02-17 11:30:51,0.0
-13908,-1176,-1328,555,308,-3,2025-02-17 11:30:51,0.0
-13744,-924,-1468,467,234,189,2025-02-17 11:30:51,0.0
-13384,-888,-1644,293,299,81,2025-02-17 11:30:51,0.0
-13416,-1044,-1756,194,466,72,2025-02-17 11:30:51,0.0
-13464,-1128,-1628,217,757,99,2025-02-17 11:30:51,0.0
-13472,-1096,-1768,70,1117,167,2025-02-17 11:30:51,0.0
-13312,-1104,-1612,45,1429,144,2025-02-17 11:30:51,0.0
-13456,-932,-1776,-86,1536,165,2025-02-17 11:30:51,0.0
-13192,-988,-1576,-34,1630,58,2025-02-17 11:30:51,0.0
-13328,-880,-1724,125,1851,38,2025-02-17 11:30:51,0.0
-13132,-828,-1992,160,2116,75,2025-02-17 11:30:51,0.0
-13204,-768,-2052,193,2354,89,2025-02-17 11:30:51,0.0
-13564,-616,-1648,225,2722,125,2025-02-17 11:30:51,0.0
-13376,-504,-1808,183,2395,80,2025-02-17 11:30:51,0.0
-13444,-728,-2164,324,2110,123,2025-02-17 11:30:51,0.0
-13648,-608,-2976,160,2448,411,2025-02-17 11:30:51,0.0
-14116,-388,-2468,-20,2849,575,2025-02-17 11:30:51,0.0
-13860,-496,-2916,185,3261,712,2025-02-17 11:30:51,0.0
-13844,-468,-2928,173,3487,920,2025-02-17 11:30:51,0.0
-13644,-348,-2528,-155,3553,819,2025-02-17 11:30:51,0.0
-13068,-556,-2420,-310,2287,664,2025-02-17 11:30:51,0.0
-12276,-708,-2332,-149,856,273,2025-02-17 11:30:51,0.0
-12304,-760,-1924,-342,1324,30,2025-02-17 11:30:51,0.0
-12536,-740,-1112,-807,3772,35,2025-02-17 11:30:51,0.0
-12408,24,-2112,-871,5387,124,2025-02-17 11:30:51,0.0
-12740,816,-3572,-608,5785,138,2025-02-17 11:30:51,0.0
-13628,988,-4096,-762,5425,-222,2025-02-17 11:30:51,0.0
-13676,796,-3844,-1100,4312,-753,2025-02-17 11:30:51,0.0
-13932,792,-3068,-1165,2908,-1105,2025-02-17 11:30:51,0.0
-13760,800,-2760,-1278,1082,-1254,2025-02-17 11:30:51,0.0
-13724,508,-2180,-1231,-734,-1505,2025-02-17 11:30:51,0.0
-13808,-32,-2996,-1556,-2259,-1960,2025-02-17 11:30:51,0.0
-14064,-788,-2900,-2316,-2521,-2328,2025-02-17 11:30:51,0.0
-14208,-1060,-2544,-2698,-2569,-2443,2025-02-17 11:30:51,0.0
-14560,-964,-2052,-2493,-2661,-2189,2025-02-17 11:30:51,0.0
-14216,-816,-1764,-1800,-3231,-1993,2025-02-17 11:30:51,0.0
-13460,-876,-2548,-932,-4227,-1912,2025-02-17 11:30:51,0.0
-12540,-1128,-2632,-609,-4600,-1970,2025-02-17 11:30:51,0.0
-11516,-2632,-1900,-1034,-3984,-1960,2025-02-17 11:30:51,0.0
-11064,-4204,-816,-1364,-2468,-1704,2025-02-17 11:30:51,0.0
-11188,-4320,-600,-757,236,-1513,2025-02-17 11:30:51,0.0
-11956,-2932,-1428,-199,2878,-1462,2025-02-17 11:30:51,0.0
-12980,-1660,-2124,-576,4670,-2014,2025-02-17 11:30:51,0.0
-14324,-1312,-1412,-1422,5259,-3035,2025-02-17 11:30:51,0.0
-16044,-2236,-420,-1765,4102,-3355,2025-02-17 11:30:51,0.0
-16160,-3012,684,-998,1309,-3007,2025-02-17 11:30:51,0.0
-14504,-2940,28,44,-2240,-2283,2025-02-17 11:30:51,0.0
-12432,-2252,-1868,42,-2574,-2190,2025-02-17 11:30:51,0.0
-11712,-1728,-2132,-589,-1750,-2000,2025-02-17 11:30:51,0.0
-11764,-1740,-1652,-978,-295,-1871,2025-02-17 11:30:51,0.0
-12176,-1720,-944,-1036,860,-1692,2025-02-17 11:30:51,0.0
-12704,-1852,-884,-1147,1104,-1594,2025-02-17 11:30:51,0.0
-13112,-2164,-108,-1358,619,-1701,2025-02-17 11:30:51,0.0
-13348,-3016,168,-1228,-328,-1764,2025-02-17 11:30:51,0.0
-13772,-3424,724,-626,-890,-1579,2025-02-17 11:30:52,
-13940,-3012,252,-525,-765,-761,2025-02-17 11:30:52,0.0
-13436,-2804,-48,-778,-732,-408,2025-02-17 11:30:52,0.0
-13540,-2052,176,-992,-1057,-462,2025-02-17 11:30:52,0.0
-13280,-1540,288,-1274,-1593,-616,2025-02-17 11:30:52,0.0
-13000,-1676,420,-1649,-1937,-659,2025-02-17 11:30:52,0.0
-12988,-2272,308,-1952,-1796,-556,2025-02-17 11:30:52,0.0
-12812,-2696,264,-2145,-1319,-431,2025-02-17 11:30:52,0.0
-12764,-3072,80,-2241,-501,-214,2025-02-17 11:30:52,0.0
-12588,-3440,168,-2280,220,9,2025-02-17 11:30:52,0.0
-12080,-3772,-40,-2193,315,78,2025-02-17 11:30:52,0.0
-12492,-3636,-560,-2633,1202,299,2025-02-17 11:30:52,0.0
-12352,-3620,-1316,-3423,2613,170,2025-02-17 11:30:52,0.0
-14288,-3780,-368,-4109,4215,-48,2025-02-17 11:30:52,0.0
-15244,-3768,536,-4251,4841,-163,2025-02-17 11:30:52,0.0
-17080,-3980,280,-4388,4421,153,2025-02-17 11:30:52,0.0
-17680,-3748,224,-4190,2321,529,2025-02-17 11:30:52,0.0
-16564,-4476,-1032,-3730,172,514,2025-02-17 11:30:52,0.0
-16480,-3668,-3376,-3141,-147,-600,2025-02-17 11:30:52,0.0
-16728,-4020,-3428,-1797,1855,-2151,2025-02-17 11:30:52,0.0
-18044,-5372,-5196,-1349,2629,-3112,2025-02-17 11:30:52,0.0
-18336,-6544,-5300,-749,705,-3105,2025-02-17 11:30:52,0.0
-17508,-6544,-5168,309,-3176,-2720,2025-02-17 11:30:52,0.0
-16192,-5172,-5624,616,-4727,-1813,2025-02-17 11:30:52,0.0
-14668,-3040,-5952,587,-5203,-192,2025-02-17 11:30:52,0.0
-13856,-1452,-5360,422,-6210,1788,2025-02-17 11:30:52,0.0
-12044,-616,-4876,939,-6662,3303,2025-02-17 11:30:52,0.0
-11260,816,-5016,1738,-6017,3787,2025-02-17 11:30:52,0.0
-10924,1496,-5604,2080,-3880,3367,2025-02-17 11:30:52,0.0
-11608,1684,-5236,2115,-2116,2648,2025-02-17 11:30:52,0.0
-12880,1192,-4684,1829,-1256,2285,2025-02-17 11:30:52,0.0
-14708,-536,-3876,1325,-971,3080,2025-02-17 11:30:52,0.0
-14744,-1404,-4144,928,-644,4252,2025-02-17 11:30:52,0.0
-13188,-2304,-3820,786,-602,4461,2025-02-17 11:30:52,0.0
-12440,-1624,-2880,825,-1149,4199,2025-02-17 11:30:52,0.0
-11144,-1288,-2464,848,-1709,3847,2025-02-17 11:30:52,0.0
-10704,-560,-2584,694,-1741,3619,2025-02-17 11:30:52,0.0
-10728,-44,-3084,114,-532,3847,2025-02-17 11:30:52,0.0
-10092,640,-2128,-284,802,3829,2025-02-17 11:30:52,0.0
-10976,268,-1480,139,1804,3793,2025-02-17 11:30:52,0.0
-7580,2856,2344,2387,-727,6049,2025-02-17 11:30:52,0.0
-9720,1300,-1092,3310,-2137,4202,2025-02-17 11:30:52,0.0
-9824,2628,-2752,2424,-1261,2790,2025-02-17 11:30:52,0.0
-10252,2548,-2404,1207,1975,2553,2025-02-17 11:30:52,0.0
-10576,1060,-2448,1386,3853,2741,2025-02-17 11:30:52,0.0
-11352,712,-1848,3056,3881,2547,2025-02-17 11:30:52,0.0
-12128,740,-2440,3416,3325,2210,2025-02-17 11:30:52,0.0
-13044,1348,-3204,2400,3505,1614,2025-02-17 11:30:52,0.0
-13248,1452,-2652,2078,2187,786,2025-02-17 11:30:52,0.0
-12796,1148,-1868,1790,126,-219,2025-02-17 11:30:52,0.0
-13204,996,-2304,1426,-1656,-1022,2025-02-17 11:30:52,0.0
-11516,1412,-1088,1637,-2061,-1372,2025-02-17 11:30:52,0.0
-11756,1220,-1380,2396,-2305,-1394,2025-02-17 11:30:52,0.0
-12080,1044,-1708,2598,-1271,-1014,2025-02-17 11:30:52,0.0
-12544,344,-2044,1760,-163,-1064,2025-02-17 11:30:52,0.0
-14624,-572,-1492,1104,-490,-818,2025-02-17 11:30:52,0.0
-16664,-804,-508,1631,-2190,41,2025-02-17 11:30:52,0.0
-17964,-680,-416,2471,-4592,1168,2025-02-17 11:30:52,0.0
-17100,-336,948,3748,-7356,2217,2025-02-17 11:30:52,0.0
-12416,56,2360,5833,-11795,1019,2025-02-17 11:30:52,0.0
-15364,-1136,48,5363,-9818,-52,2025-02-17 11:30:52,0.0
-14824,-1680,1812,5659,-3945,2403,2025-02-17 11:30:52,0.0
-13076,-1352,2640,6928,-1858,2773,2025-02-17 11:30:52,0.0
-11656,-512,1960,7934,-1603,1436,2025-02-17 11:30:52,0.0
-13436,1052,628,9285,79,-200,2025-02-17 11:30:53,0.0
-18036,1576,-3216,10090,520,-355,2025-02-17 11:30:53,0.0
-18980,3508,-6688,8172,1723,52,2025-02-17 11:30:53,0.0
-16524,4000,-6732,5507,2350,-546,2025-02-17 11:30:53,0.0
-16344,4068,-5956,4385,1592,-1125,2025-02-17 11:30:53,0.0
-16632,2684,-4900,3767,1509,-333,2025-02-17 11:30:53,0.0
-14840,652,-4156,3883,1321,-177,2025-02-17 11:30:53,0.0
-11064,-1760,-4536,3482,589,-1470,2025-02-17 11:30:53,0.0
-10344,-3100,-3432,2775,872,-2878,2025-02-17 11:30:53,0.0
-10416,-3228,-2464,1938,2207,-2581,2025-02-17 11:30:53,0.0
-11076,-3176,-3132,1414,3519,-2038,2025-02-17 11:30:53,0.0
-11816,-2004,-3952,780,4965,-2494,2025-02-17 11:30:53,0.0
-13696,-340,-5160,239,5674,-2953,2025-02-17 11:30:53,0.0
-14380,80,-5604,-715,4921,-3110,2025-02-17 11:30:53,0.0
-14276,136,-4908,-1077,2990,-3149,2025-02-17 11:30:53,0.0
-13480,-688,-3952,-1303,1080,-2740,2025-02-17 11:30:53,0.0
-12340,-1024,-3076,-907,358,-2446,2025-02-17 11:30:53,0.0
-12056,-1116,-3572,-486,65,-2357,2025-02-17 11:30:53,0.0
-12064,-1596,-3588,-506,-816,-2367,2025-02-17 11:30:53,0.0
-12112,-2360,-3516,-644,-1798,-2512,2025-02-17 11:30:53,0.0
-12712,-2760,-2644,-593,-2473,-2278,2025-02-17 11:30:53,0.0
-12240,-2668,-2108,-425,-2150,-2030,2025-02-17 11:30:53,0.0
-12756,-2328,-1548,-291,-1279,-1522,2025-02-17 11:30:53,0.0
-11976,-2712,-1480,-185,-89,-1057,2025-02-17 11:30:53,0.0
-12940,-3604,-956,569,593,-437,2025-02-17 11:30:53,0.0
-13324,-4288,-3344,1468,1366,771,2025-02-17 11:30:53,0.0
-13684,-4072,-4536,998,2279,1316,2025-02-17 11:30:53,0.0
-14012,-3580,-4200,448,3659,1816,2025-02-17 11:30:53,0.0
-13740,-3036,-2384,482,4166,2368,2025-02-17 11:30:53,0.0
-13244,-2192,-948,1315,3254,2834,2025-02-17 11:30:53,0.0
-13036,-1952,-28,2762,1619,3261,2025-02-17 11:30:53,0.0
-13656,-2360,448,4427,754,3920,2025-02-17 11:30:53,0.0
-14328,-3112,-360,5600,609,4812,2025-02-17 11:30:53,0.0
-14384,-3792,-2524,6443,-178,5464,2025-02-17 11:30:53,0.0
-13952,-4088,-4372,7277,-1868,5893,2025-02-17 11:30:53,0.0
-13024,-5920,-4784,8820,-1863,6136,2025-02-17 11:30:53,0.0
-12668,-4968,-3496,9611,-835,6482,2025-02-17 11:30:53,
-12012,-3068,-2052,10285,-474,6143,2025-02-17 11:30:53,0.0
-12488,-1332,-1620,11778,-283,4923,2025-02-17 11:30:53,0.0
-12636,492,-3016,13369,213,2798,2025-02-17 11:30:53,0.0
-13676,896,-3552,14451,1417,-559,2025-02-17 11:30:53,0.0
-14052,-1752,-3168,14637,933,-1624,2025-02-17 11:30:53,0.0
-13152,-4968,-2664,14734,-893,-791,2025-02-17 11:30:53,0.0
-13284,-5464,-2772,14672,-1273,892,2025-02-17 11:30:53,0.0
-13088,-3404,-2656,14046,-95,2380,2025-02-17 11:30:53,0.0
-13156,-2544,-2716,12965,729,2694,2025-02-17 11:30:53,0.0
-13616,-1816,-1792,13227,-85,1920,2025-02-17 11:30:53,0.0
-14104,-840,-1864,14194,-862,1701,2025-02-17 11:30:53,0.0
-13424,-1356,-1748,14898,-1053,2111,2025-02-17 11:30:53,0.0
-12000,-2060,-2564,15965,-627,2458,2025-02-17 11:30:53,0.0
-10484,-2664,-3344,16423,449,2367,2025-02-17 11:30:53,0.0
-10516,-2584,-4748,16397,2194,2056,2025-02-17 11:30:53,0.0
-11676,-1668,-4712,15991,4381,2129,2025-02-17 11:30:53,0.0
-12784,-956,-3856,16213,5434,1997,2025-02-17 11:30:53,0.0
-14624,-500,-3984,16144,4537,2099,2025-02-17 11:30:53,0.0
-15420,-800,-2860,16294,1839,2301,2025-02-17 11:30:53,0.0
-15212,-1380,-2088,17229,-1273,2541,2025-02-17 11:30:53,0.0
-14384,-1848,-2836,17689,-3217,2706,2025-02-17 11:30:53,0.0
-12576,-1984,-3140,17823,-3657,2439,2025-02-17 11:30:53,0.0
-12416,-2048,-3412,17604,-2395,2325,2025-02-17 11:30:53,0.0
-12048,-2076,-3752,17053,-527,1971,2025-02-17 11:30:53,0.0
-12824,-1108,-2704,16513,1045,1850,2025-02-17 11:30:54,0.0
-13448,-640,-1688,16251,1435,1878,2025-02-17 11:30:54,0.0
-13816,-528,-1216,16532,592,1715,2025-02-17 11:30:54,0.0
-14320,-568,-2684,16375,-162,1832,2025-02-17 11:30:54,0.0
-13800,-544,-3628,15956,-675,1856,2025-02-17 11:30:54,0.0
-13616,-12,-4088,15305,-878,1892,2025-02-17 11:30:54,0.0
-12804,276,-4252,14171,-669,1985,2025-02-17 11:30:54,5
-12484,896,-4540,12847,171,2024,2025-02-17 11:30:54,5
-12896,1200,-4820,10696,2111,2005,2025-02-17 11:30:54,5
-12828,1108,-4520,8356,4876,1947,2025-02-17 11:30:54,5
-13376,808,-2056,7074,9050,1936,2025-02-17 11:30:54,5
-12668,336,-172,7285,15689,2436,2025-02-17 11:30:54,5
-13440,740,288,7980,27428,4499,2025-02-17 11:30:54,5
-13844,588,476,8497,32767,7703,2025-02-17 11:30:54,5
-13300,284,-1268,8856,32767,13052,2025-02-17 11:30:54,5
-11040,-296,-3164,7724,32767,16768,2025-02-17 11:30:54,5
-8700,-864,-4796,5289,32767,17335,2025-02-17 11:30:54,5
-6908,444,-7096,2557,32767,15232,2025-02-17 11:30:54,5
-2504,988,-8632,86,32767,12802,2025-02-17 11:30:54,5
3068,56,-7876,-1345,32767,10348,2025-02-17 11:30:54,5
6824,-644,-1856,1203,32767,6571,2025-02-17 11:30:54,5
5436,-1280,2088,6010,27997,4125,2025-02-17 11:30:54,5
2440,-876,3620,11272,17528,4423,2025-02-17 11:30:54,5
2472,-620,2152,12367,13580,6010,2025-02-17 11:30:54,5
2584,-740,1880,12095,12777,6500,2025-02-17 11:30:54,5
2432,-740,2024,11968,12614,6941,2025-02-17 11:30:54,5
2560,-892,1488,11602,12330,7327,2025-02-17 11:30:54,5
2736,-972,1740,11182,12107,7606,2025-02-17 11:30:54,5
2644,-824,1296,10463,11882,7813,2025-02-17 11:30:54,5
2640,-744,1304,9607,11582,7902,2025-02-17 11:30:54,5
2912,-848,792,8515,11156,7891,2025-02-17 11:30:54,5
2940,-772,780,7539,10760,7785,2025-02-17 11:30:54,5
2880,-684,812,6519,10202,7675,2025-02-17 11:30:54,5
2896,-728,792,5460,9505,7646,2025-02-17 11:30:54,5
2868,-680,724,4433,8812,7656,2025-02-17 11:30:54,5
2836,-760,688,3450,8101,7723,2025-02-17 11:30:54,5
2828,-672,608,2542,7260,7769,2025-02-17 11:30:54,5
2928,-652,836,1607,6286,7736,2025-02-17 11:30:54,5
2896,-652,612,749,5356,7667,2025-02-17 11:30:54,5
2784,-624,348,-473,4077,7511,2025-02-17 11:30:54,5
2572,-512,584,-1313,3334,7582,2025-02-17 11:30:54,5
2880,-600,1180,-1967,2360,7644,2025-02-17 11:30:54,5
2644,-2244,-7440,-4718,1741,8420,2025-02-17 11:30:54,5
32767,-32768,-32768,-32768,32767,-4862,2025-02-17 11:30:54,5
32767,-21576,-32768,-32768,32767,1150,2025-02-17 11:30:54,5
32767,26584,-24812,-11259,298,9676,2025-02-17 11:30:54,5
15676,6536,-5000,10537,-13206,7468,2025-02-17 11:30:54,5
6752,3584,228,11551,-23110,5010,2025-02-17 11:30:54,5
3708,1360,408,9925,-27312,3479,2025-02-17 11:30:54,5
2952,-228,240,6740,-29733,3622,2025-02-17 11:30:54,5
3280,-924,1692,6152,-32677,3982,2025-02-17 11:30:54,5
3032,-1360,-648,5178,-32768,3555,2025-02-17 11:30:54,5
2068,-2076,-6300,1181,-27751,2626,2025-02-17 11:30:54,5
356,-2740,-13508,-6207,-12668,2672,2025-02-17 11:30:54,5
-952,-4616,-19416,-17105,11877,3044,2025-02-17 11:30:54,5
1424,-4072,-13368,-21107,32767,1682,2025-02-17 11:30:54,5
3744,2456,-9544,-8803,32767,2283,2025-02-17 11:30:54,5
8364,4676,-14548,4926,28631,6258,2025-02-17 11:30:54,5
14544,3228,-26040,9170,7401,7753,2025-02-17 11:30:54,5
16404,100,-24992,3063,-881,4263,2025-02-17 11:30:54,5
13404,-1772,-14712,-288,-1003,1368,2025-02-17 11:30:54,5
10656,-1776,-9444,113,-805,-275,2025-02-17 11:30:55,5
7924,96,-12900,-377,-1519,-150,2025-02-17 11:30:55,5
7336,332,-15048,-485,-860,-288,2025-02-17 11:30:55,5
7576,280,-15276,52,327,-160,2025-02-17 11:30:55,5
8292,-108,-13840,19,878,-156,2025-02-17 11:30:55,5
8608,-160,-13592,-213,32,-173,2025-02-17 11:30:55,5
8020,20,-14004,-202,-167,-176,2025-02-17 11:30:55,5
7816,4,-14464,-176,149,-186,2025-02-17 11:30:55,5
8060,84,-14040,-106,275,-168,2025-02-17 11:30:55,5
8256,-152,-14012,-112,150,-190,2025-02-17 11:30:55,5
8076,-76,-14140,-213,61,-209,2025-02-17 11:30:55,5
8116,68,-14364,-169,155,-176,2025-02-17 11:30:55,5
8128,84,-14128,-121,190,-193,2025-02-17 11:30:55,5
7988,0,-14060,-123,191,-173,2025-02-17 11:30:55,5
8204,-144,-14244,-106,237,-179,2025-02-17 11:30:55,5
8232,-140,-14032,-190,94,-201,2025-02-17 11:30:55,5
7968,16,-14096,-171,70,-149,2025-02-17 11:30:55,5
8096,76,-14200,-133,168,-186,2025-02-17 11:30:55,5
8220,24,-14068,-142,117,-181,2025-02-17 11:30:55,5
7952,-28,-14136,-183,97,-194,2025-02-17 11:30:55,5
8032,40,-14160,-166,279,-164,2025-02-17 11:30:55,5
8216,-36,-14188,-106,124,-195,2025-02-17 11:30:55,5
8088,-116,-13996,-181,130,-175,2025-02-17 11:30:55,5
8136,-96,-14076,-215,62,-195,2025-02-17 11:30:55,5
7968,-24,-14020,-162,58,-182,2025-02-17 11:30:55,5
8024,28,-14144,-188,113,-177,2025-02-17 11:30:55,5
8040,48,-14268,-175,103,-183,2025-02-17 11:30:55,5
7956,100,-14008,-115,198,-132,2025-02-17 11:30:55,5
8128,-144,-14148,-172,186,-173,2025-02-17 11:30:55,5
8148,-96,-14104,-178,140,-147,2025-02-17 11:30:55,5
8168,40,-14156,-184,108,-192,2025-02-17 11:30:55,5
8096,80,-14068,-169,170,-169,2025-02-17 11:30:55,5
8092,-16,-14212,-107,301,-159,2025-02-17 11:30:55,5
8076,-36,-14152,-98,198,-175,2025-02-17 11:30:55,5
8152,0,-14120,-135,269,-168,2025-02-17 11:30:55,5
8176,-52,-14116,-104,177,-195,2025-02-17 11:30:55,5
8076,-48,-14040,-168,140,-174,2025-02-17 11:30:55,0.0
7916,116,-14020,-201,127,-191,2025-02-17 11:30:55,0.0
8224,-60,-14068,-163,168,-177,2025-02-17 11:30:55,0.0
8140,-12,-13896,-247,-23,-201,2025-02-17 11:30:55,0.0
7948,56,-14220,-243,66,-210,2025-02-17 11:30:55,0.0
8148,108,-14104,-155,124,-169,2025-02-17 11:30:55,0.0
8048,-36,-14260,-156,159,-176,2025-02-17 11:30:55,0.0
8152,96,-14028,-136,170,-171,2025-02-17 11:30:55,0.0
8104,84,-14140,-140,129,-169,2025-02-17 11:30:55,0.0
7940,72,-14128,-194,161,-143,2025-02-17 11:30:55,0.0
8160,-60,-14132,-167,194,-170,2025-02-17 11:30:55,0.0
8232,32,-14096,-172,194,-160,2025-02-17 11:30:55,0.0
7984,-4,-14040,-165,85,-166,2025-02-17 11:30:55,0.0
8036,124,-14180,-217,263,-169,2025-02-17 11:30:57,0.0
8160,64,-14088,-106,155,-161,2025-02-17 11:30:57,0.0
8048,12,-14036,-131,283,-188,2025-02-17 11:30:57,0.0
8184,-64,-14020,-89,314,-199,2025-02-17 11:30:57,0.0
8232,0,-14060,-92,164,-200,2025-02-17 11:30:57,0.0
8240,-124,-14128,-101,176,-202,2025-02-17 11:30:57,0.0
8248,-116,-13932,-166,-30,-248,2025-02-17 11:30:57,0.0
7924,128,-13976,-246,-162,-173,2025-02-17 11:30:57,0.0
7596,224,-14300,-173,143,-196,2025-02-17 11:30:57,0.0
-10776,-228,-5736,4273,-15447,3114,2025-02-17 11:30:57,0.0
-11216,-1044,-5396,3564,-14728,4912,2025-02-17 11:30:57,0.0
-10564,-1552,-4460,3663,-13012,5955,2025-02-17 11:30:57,0.0
-9560,-1712,-4528,3889,-10825,5792,2025-02-17 11:30:57,0.0
-9144,-1512,-5192,3162,-8258,5206,2025-02-17 11:30:57,0.0
-8696,-1796,-5396,1930,-5687,4707,2025-02-17 11:30:57,0.0
-7720,-2356,-4692,1210,-3362,3803,2025-02-17 11:30:57,0.0
-8124,-2132,-4520,1229,-790,2650,2025-02-17 11:30:57,0.0
-6120,936,3268,1435,-1978,2068,2025-02-17 11:30:57,0.0
-10472,-44,1940,3601,-24001,1854,2025-02-17 11:30:57,0.0
-11892,-1228,-9252,-557,-28223,461,2025-02-17 11:30:57,0.0
-11536,-960,-7716,-3969,-30812,-553,2025-02-17 11:30:57,0.0
-11528,1476,3708,2519,-32768,-451,2025-02-17 11:30:57,0.0
-16640,920,5376,6730,-32768,-62,2025-02-17 11:30:57,0.0
-21576,-800,6448,3040,-12496,1638,2025-02-17 11:30:57,0.0
-6388,-3236,7472,1200,4846,-212,2025-02-17 11:30:57,0.0
-10716,-2112,4152,5000,5795,-338,2025-02-17 11:30:57,0.0
-11824,-2952,2120,7893,5221,643,2025-02-17 11:30:57,0.0
-12764,-2900,1944,7177,6416,139,2025-02-17 11:30:57,0.0
-13220,-1776,3464,6430,8320,-1438,2025-02-17 11:30:57,0.0
-14028,-500,1500,6618,9199,-1875,2025-02-17 11:30:57,0.0
-13924,-700,760,6126,9321,-1063,2025-02-17 11:30:57,0.0
-13492,-776,1324,6869,9946,-988,2025-02-17 11:30:57,0.0
-13508,-892,720,7385,10101,-777,2025-02-17 11:30:57,0.0
-13936,-1664,24,7718,10416,-170,2025-02-17 11:30:57,0.0
-13752,-1648,-948,7778,10791,459,2025-02-17 11:30:57,0.0
-13428,-880,-1552,6608,11067,23,2025-02-17 11:30:57,0.0
-13400,-736,-808,5642,11506,-897,2025-02-17 11:30:57,0.0
-13868,-924,-1348,5216,11496,-999,2025-02-17 11:30:57,0.0
-13908,-868,-1464,4618,11278,-856,2025-02-17 11:30:57,0.0
-13032,-1576,-80,6090,10404,-969,2025-02-17 11:30:57,0.0
-12668,-1676,-720,8397,8339,-1416,2025-02-17 11:30:57,0.0
-13712,-976,-3064,8185,8044,-1370,2025-02-17 11:30:57,0.0
-13840,-252,-1448,6553,9260,-936,2025-02-17 11:30:57,0.0
-12788,-128,-3140,6492,8119,-1985,2025-02-17 11:30:57,0.0
-15268,-680,-3196,6145,6391,-1793,2025-02-17 11:30:58,0.0
-16552,-1996,-2756,5673,3505,606,2025-02-17 11:30:58,0.0
-14796,-1764,-2220,5704,-80,2187,2025-02-17 11:30:58,0.0
-12528,-1336,-3028,5485,-3430,1662,2025-02-17 11:30:58,0.0
-12304,-1128,-2740,4030,-4028,190,2025-02-17 11:30:58,0.0
-13244,-1724,-1580,2885,-3134,171,2025-02-17 11:30:58,0.0
-12252,-1884,-964,2485,-2349,888,2025-02-17 11:30:58,0.0
-12016,-1636,-768,1943,-273,895,2025-02-17 11:30:58,0.0
-12148,-1920,-640,1626,1351,1217,2025-02-17 11:30:58,0.0
-12396,-2172,-836,1466,2910,1258,2025-02-17 11:30:58,0.0
-12784,-2428,-1300,1246,3428,1190,2025-02-17 11:30:58,0.0
-13188,-2928,-1596,780,3173,811,2025-02-17 11:30:58,0.0
-14040,-3660,-1312,676,2706,747,2025-02-17 11:30:58,0.0
-14568,-4404,-868,1052,1576,1177,2025-02-17 11:30:58,0.0
-14532,-4704,-1276,1411,411,1586,2025-02-17 11:30:58,0.0
-14396,-4408,-1560,822,-93,1513,2025-02-17 11:30:58,0.0
-14128,-4844,-2896,322,509,988,2025-02-17 11:30:58,0.0
-14284,-4456,-4192,114,1191,238,2025-02-17 11:30:58,0.0
-14984,-3848,-1752,1129,2180,-288,2025-02-17 11:30:58,0.0
-15320,-4272,-1972,2231,3478,-825,2025-02-17 11:30:58,0.0
-16208,-5088,-3092,2912,4043,-1144,2025-02-17 11:30:58,0.0
-17236,-4556,-4864,3761,3625,-386,2025-02-17 11:30:58,
-18152,-2716,-7356,3780,4008,535,2025-02-17 11:30:58,0.0
-17808,-568,-8644,3009,2457,1658,2025-02-17 11:30:58,0.0
-16572,-1536,-8104,2223,-1576,2309,2025-02-17 11:30:58,0.0
-14968,-2620,-7548,2732,-5233,3109,2025-02-17 11:30:58,0.0
-12944,-2544,-7680,3112,-6663,3757,2025-02-17 11:30:58,0.0
-11580,-1460,-6592,3450,-6397,4031,2025-02-17 11:30:58,0.0
-11380,376,-6408,3819,-5027,4429,2025-02-17 11:30:58,0.0
-11208,1568,-6260,3725,-3676,5366,2025-02-17 11:30:58,0.0
-10748,2584,-6036,3287,-2006,6091,2025-02-17 11:30:58,0.0
-10472,2780,-5732,3148,436,6556,2025-02-17 11:30:58,0.0
-10160,2000,-5312,3295,2346,6693,2025-02-17 11:30:58,0.0
-10252,1740,-5200,3931,3577,5895,2025-02-17 11:30:58,0.0
-10616,1684,-4776,4218,3203,4806,2025-02-17 11:30:58,0.0
-10888,1756,-4400,4433,2297,3898,2025-02-17 11:30:58,0.0
-11396,1412,-4240,3991,908,3157,2025-02-17 11:30:58,0.0
-11788,1216,-3812,3400,-224,2602,2025-02-17 11:30:58,0.0
-12456,720,-4280,3028,-1237,2310,2025-02-17 11:30:58,0.0
-12188,952,-3160,2894,-2094,2141,2025-02-17 11:30:58,0.0
-12748,880,-3584,3145,-3297,1839,2025-02-17 11:30:58,0.0
-13236,1044,-3348,3396,-3832,2609,2025-02-17 11:30:58,0.0
-12924,1136,-3164,4031,-3791,3865,2025-02-17 11:30:58,0.0
-15424,-56,-2412,4398,-4105,5439,2025-02-17 11:30:58,0.0
-10000,1744,-2164,4793,-6850,4152,2025-02-17 11:30:58,0.0
-10524,1440,-2816,3948,-8718,2670,2025-02-17 11:30:58,0.0
-10220,1372,-2708,3281,-8289,2115,2025-02-17 11:30:58,0.0
-10256,984,-872,3285,-5151,2016,2025-02-17 11:30:58,0.0
-9604,836,-324,3877,-1288,1167,2025-02-17 11:30:58,0.0
-9784,1800,-492,4139,1080,329,2025-02-17 11:30:58,0.0
-10424,2216,-768,4275,702,-201,2025-02-17 11:30:58,0.0
-10620,2376,-1140,4248,-468,-906,2025-02-17 11:30:58,0.0
-11236,2560,-1612,4196,-1406,-1650,2025-02-17 11:30:58,0.0
-11892,2840,-2676,3264,-1501,-2054,2025-02-17 11:30:58,0.0
-12128,2608,-2008,2716,-548,-2365,2025-02-17 11:30:58,0.0
-13208,1620,-1656,2513,1609,-1977,2025-02-17 11:30:58,0.0
-13676,24,-1364,2404,3494,-1479,2025-02-17 11:30:58,0.0
-14220,-720,-920,2568,4608,-993,2025-02-17 11:30:58,0.0
-15516,-1348,-1840,2595,4744,-92,2025-02-17 11:30:58,0.0
-16004,-484,-1656,2520,4001,938,2025-02-17 11:30:59,0.0
-16496,220,-1076,2821,2224,1395,2025-02-17 11:30:59,0.0
-17308,740,-440,3143,668,1367,2025-02-17 11:30:59,0.0
-17756,464,904,3980,-151,1422,2025-02-17 11:30:59,0.0
-17948,1412,308,5116,-646,2125,2025-02-17 11:30:59,0.0
-16448,2212,-3244,5392,-678,3158,2025-02-17 11:30:59,0.0
-15980,2988,-5888,4858,369,3051,2025-02-17 11:30:59,0.0
-15840,3204,-7040,3978,2445,2117,2025-02-17 11:30:59,0.0
-16936,3796,-6568,3225,4189,1043,2025-02-17 11:30:59,0.0
-17240,4772,-6572,3096,4906,1206,2025-02-17 11:30:59,0.0
-15332,4608,-9360,2513,4942,1462,2025-02-17 11:30:59,0.0
-12044,1996,-9620,2040,2156,1018,2025-02-17 11:30:59,0.0
-10124,-1864,-7636,1302,-1523,-133,2025-02-17 11:30:59,0.0
-11048,-3680,-3192,1638,-4054,712,2025-02-17 11:30:59,0.0
-11688,-3580,-1208,3158,-3353,2240,2025-02-17 11:30:59,0.0
-11424,-3192,-3848,3496,-617,2640,2025-02-17 11:30:59,0.0
-12840,-1932,-5556,2830,1167,3006,2025-02-17 11:30:59,0.0
-14728,752,-5108,1651,-250,4043,2025-02-17 11:30:59,0.0
-12640,2236,-6428,669,-3028,4208,2025-02-17 11:30:59,0.0
-11392,1676,-7568,-1100,-3293,2765,2025-02-17 11:30:59,0.0
-11600,1916,-4304,-1458,-2366,1051,2025-02-17 11:30:59,0.0
-11044,2012,-4004,-426,-1628,205,2025-02-17 11:30:59,0.0
-8648,1576,-4888,-597,-3875,-2027,2025-02-17 11:30:59,0.0
-8116,916,-4932,-911,-6135,-5187,2025-02-17 11:30:59,0.0
-10496,184,-4056,-1069,-5631,-5887,2025-02-17 11:30:59,0.0
-10580,-1132,-3704,-1131,-4599,-5688,2025-02-17 11:30:59,0.0
-10552,-1756,-3312,-1319,-3582,-5693,2025-02-17 11:30:59,0.0
-11096,-1948,-2396,-1427,-2679,-5385,2025-02-17 11:30:59,0.0
-11440,-1632,-2372,-896,-1822,-4575,2025-02-17 11:30:59,0.0
-12156,-936,-2728,-847,-354,-3402,2025-02-17 11:30:59,0.0
-12188,-80,-2308,-1085,1989,-2834,2025-02-17 11:30:59,0.0
-12072,232,-2292,-1355,3404,-2932,2025-02-17 11:30:59,0.0
-12304,436,-1784,-1622,3581,-3219,2025-02-17 11:30:59,0.0
-12320,116,-2300,-1791,2954,-3341,2025-02-17 11:30:59,0.0
-14572,-248,-1168,-2054,2573,-3128,2025-02-17 11:30:59,0.0
-14660,-720,-1456,-1862,2401,-2305,2025-02-17 11:30:59,0.0
-15148,-1148,-996,-1336,1324,-1306,2025-02-17 11:30:59,0.0
-15244,-1032,-1552,-949,-227,-677,2025-02-17 11:30:59,0.0
-15004,-948,-1996,-724,-1838,-149,2025-02-17 11:30:59,0.0
-14508,-300,-2356,-1087,-3561,204,2025-02-17 11:30:59,0.0
-13628,-168,-1720,-1509,-4838,322,2025-02-17 11:30:59,0.0
-13084,120,-1328,-1746,-5541,148,2025-02-17 11:30:59,0.0
-13060,464,-1564,-1878,-5203,186,2025-02-17 11:30:59,0.0
-13084,360,-1728,-2522,-3929,378,2025-02-17 11:30:59,0.0
-13268,-556,-2420,-3374,-2406,487,2025-02-17 11:30:59,0.0
-13424,-1624,-3816,-4401,-72,404,2025-02-17 11:30:59,0.0
-13508,-1964,-4384,-5020,2043,-291,2025-02-17 11:30:59,0.0
-14224,-1804,-4556,-5413,4003,-1432,2025-02-17 11:30:59,0.0
-15392,-2536,-5516,-5821,5446,-1529,2025-02-17 11:30:59,0.0
-15228,-3156,-6388,-5779,6797,-898,2025-02-17 11:30:59,0.0
-13976,-3860,-7960,-6268,7319,-896,2025-02-17 11:30:59,0.0
-13956,-3156,-7296,-7467,5210,-1238,2025-02-17 11:30:59,0.0
-14028,-1100,-4092,-7931,1080,-619,2025-02-17 11:30:59,0.0
-12964,1052,-2904,-6599,-1722,860,2025-02-17 11:30:59,0.0
-11796,2128,-4172,-5628,-1839,1690,2025-02-17 11:30:59,0.0
-11004,2840,-4900,-4182,1188,1579,2025-02-17 11:30:59,0.0
-11564,2708,-5444,-3392,5245,1047,2025-02-17 11:30:59,0.0
-12600,1288,-5244,-2732,8881,0,2025-02-17 11:30:59,0.0
-16096,32,-4308,-2336,9314,-262,2025-02-17 11:30:59,0.0
-17540,-1004,-5956,-2184,6131,784,2025-02-17 11:30:59,0.0
-16804,-1204,-5240,-1745,1271,1827,2025-02-17 11:30:59,0.0
-14184,-596,-3972,-515,-4061,1787,2025-02-17 11:30:59,0.0
-11280,-152,-3864,-156,-5240,946,2025-02-17 11:30:59,
-8472,904,-4144,417,-5132,-311,2025-02-17 11:30:59,0.0
-8108,1516,-3504,1003,-4013,-1377,2025-02-17 11:30:59,0.0
-8840,1200,-2804,1961,-1709,-1690,2025-02-17 11:31:00,0.0
-9872,288,-3044,2578,1062,-1412,2025-02-17 11:31:00,0.0
-11128,-632,-2852,3036,4227,-721,2025-02-17 11:31:00,0.0
-12728,-1140,-3096,3452,5355,-17,2025-02-17 11:31:00,0.0
-13424,-920,-3412,3633,4818,450,2025-02-17 11:31:00,0.0
-13608,-500,-3188,4135,3872,592,2025-02-17 11:31:00,0.0
-13492,-624,-3320,4866,3038,516,2025-02-17 11:31:00,0.0
-13224,-884,-4192,5931,1993,745,2025-02-17 11:31:00,0.0
-12584,-1648,-5044,6800,1412,927,2025-02-17 11:31:00,0.0
-12616,-2004,-4956,7234,1368,923,2025-02-17 11:31:00,0.0
-13128,-1672,-4304,7655,1746,1113,2025-02-17 11:31:00,0.0
-13660,-640,-3716,8302,1821,1300,2025-02-17 11:31:00,0.0
-14080,-68,-3492,9296,816,1534,2025-02-17 11:31:00,0.0
-14444,-352,-3640,10680,-827,1661,2025-02-17 11:31:00,0.0
-15980,-1260,-2916,12577,-2646,3384,2025-02-17 11:31:00,0.0
-13664,-860,-2456,14174,-3805,4441,2025-02-17 11:31:00,0.0
-11996,-1100,-2448,15247,-3528,4441,2025-02-17 11:31:00,0.0
-12192,-1796,-2964,16340,-1959,4663,2025-02-17 11:31:00,0.0
-11344,-1584,-2348,17317,-723,4382,2025-02-17 11:31:00,0.0
-11908,-1392,-3088,17875,-378,3614,2025-02-17 11:31:00,0.0
-12996,-1248,-4080,17766,-747,3532,2025-02-17 11:31:00,0.0
-12908,-1488,-3780,17913,-1236,3189,2025-02-17 11:31:00,0.0
-13008,-1636,-3988,18542,-1321,2970,2025-02-17 11:31:00,0.0
-12964,-1388,-4984,19302,-398,3134,2025-02-17 11:31:00,0.0
-11796,-1276,-5976,19785,932,3279,2025-02-17 11:31:00,0.0
-11396,-1052,-5856,20871,3209,3514,2025-02-17 11:31:00,0.0
-10444,-1532,-8284,20669,5830,3123,2025-02-17 11:31:00,0.0
-11080,-1844,-9488,18565,7239,2896,2025-02-17 11:31:00,0.0
-11072,-2672,-8752,16339,6905,2915,2025-02-17 11:31:00,0.0
-11452,-3248,-8104,14511,5679,2523,2025-02-17 11:31:00,0.0
-12880,-2900,-5548,14374,4651,2552,2025-02-17 11:31:00,0.0
-13664,-3572,-4408,15419,3232,3380,2025-02-17 11:31:00,0.0
-14500,-3936,-5284,16017,2599,4636,2025-02-17 11:31:00,0.0
-13656,-3896,-6100,15791,2066,6016,2025-02-17 11:31:00,0.0
-12364,-3728,-4964,15967,767,6722,2025-02-17 11:31:00,0.0
-11088,-3432,-4812,17401,354,6541,2025-02-17 11:31:00,0.0
-11280,-2792,-5868,18300,795,6748,2025-02-17 11:31:00,0.0
-11420,-2752,-5612,18949,2422,7251,2025-02-17 11:31:00,0.0
-11880,-2908,-4924,19759,3580,7603,2025-02-17 11:31:00,0.0
-12884,-2612,-5064,19718,3720,8025,2025-02-17 11:31:00,0.0
-13820,-3160,-4396,19540,2552,8549,2025-02-17 11:31:00,0.0
-14000,-2836,-4932,19617,836,8919,2025-02-17 11:31:00,0.0
-13636,-2544,-4796,19735,-730,9117,2025-02-17 11:31:00,0.0
-13392,-2496,-4752,19679,-1941,9057,2025-02-17 11:31:00,0.0
-12912,-2548,-4736,19320,-2508,9028,2025-02-17 11:31:00,0.0
-12304,-2732,-3856,19069,-2614,8529,2025-02-17 11:31:00,0.0
-12284,-2796,-3716,18735,-2456,8230,2025-02-17 11:31:00,0.0
-12060,-3416,-4008,18324,-2362,8120,2025-02-17 11:31:00,0.0
-11600,-3660,-3868,18127,-2395,8029,2025-02-17 11:31:00,0.0
-11784,-3620,-4196,17782,-2039,8046,2025-02-17 11:31:00,0.0
-11328,-3300,-4496,17331,-1261,7902,2025-02-17 11:31:00,0.0
-11116,-2220,-4160,16793,-227,7336,2025-02-17 11:31:00,0.0
-11536,-1792,-4072,16419,529,6928,2025-02-17 11:31:00,0.0
-11868,-1460,-4048,15980,1426,6536,2025-02-17 11:31:00,0.0
-12560,-1196,-4896,15394,2076,6225,2025-02-17 11:31:00,0.0
-13296,-1032,-4620,14617,2285,6178,2025-02-17 11:31:00,0.0
-13756,-2048,-4696,14704,1521,6384,2025-02-17 11:31:00,0.0
-13496,-3052,-4780,14795,866,6660,2025-02-17 11:31:00,0.0
-12960,-2516,-7032,15028,1621,6003,2025-02-17 11:31:00,0.0
-13216,-1972,-7044,14698,4188,4891,2025-02-17 11:31:00,0.0
-13356,-2004,-6408,14708,4065,4512,2025-02-17 11:31:00,0.0
-13104,-476,-5284,14677,425,5130,2025-02-17 11:31:01,0.0
-12496,828,-5480,13757,-2275,6229,2025-02-17 11:31:01,0.0
-11288,1592,-4516,13300,-2653,7219,2025-02-17 11:31:01,0.0
-9648,632,-4596,13038,-1524,6811,2025-02-17 11:31:01,0.0
-10092,116,-4276,13242,1213,6204,2025-02-17 11:31:01,0.0
-11680,-832,-5136,13818,5948,6290,2025-02-17 11:31:01,0.0
-13036,120,-5348,14352,9729,6431,2025-02-17 11:31:01,0.0
-14796,1988,-5584,14685,10150,6604,2025-02-17 11:31:01,0.0
-15376,2312,-6500,14016,8272,7224,2025-02-17 11:31:01,0.0
-15204,1944,-6816,13676,4298,7476,2025-02-17 11:31:01,0.0
-14756,948,-6640,13674,-65,7482,2025-02-17 11:31:01,0.0
-13808,384,-6308,13591,-2742,7650,2025-02-17 11:31:01,0.0
-12112,884,-6228,12900,-3759,7712,2025-02-17 11:31:01,0.0
-11416,1512,-5332,12894,-4235,7707,2025-02-17 11:31:01,0.0
-10164,1916,-5508,13573,-4339,7510,2025-02-17 11:31:01,0.0
-9124,2340,-4996,14667,-4253,6591,2025-02-17 11:31:01,0.0
-9040,2728,-5416,14709,-3821,5549,2025-02-17 11:31:01,0.0
-8672,2480,-5108,14619,-1901,4254,2025-02-17 11:31:01,0.0
-9336,2184,-4552,13654,549,2975,2025-02-17 11:31:01,0.0
-10156,2252,-4200,12876,2654,2156,2025-02-17 11:31:01,0.0
-11120,2428,-5448,12205,3008,917,2025-02-17 11:31:01,0.0
-12792,812,-7208,11263,3136,-193,2025-02-17 11:31:01,0.0
-14444,-124,-7448,10452,4181,-388,2025-02-17 11:31:01,0.0
-14456,48,-7720,10359,2703,697,2025-02-17 11:31:01,0.0
-13108,-900,-6856,9709,261,1501,2025-02-17 11:31:01,0.0
-12924,-2400,-3804,9730,-640,2012,2025-02-17 11:31:01,0.0
-13088,-2200,-5168,9783,883,3552,2025-02-17 11:31:01,0.0
-11760,-2004,-5564,9625,1719,4808,2025-02-17 11:31:01,0.0
-11468,-1328,-5028,9243,1585,5150,2025-02-17 11:31:01,0.0
-12212,-660,-4228,8973,1628,5069,2025-02-17 11:31:01,0.0
-12220,-164,-4196,8843,1135,4428,2025-02-17 11:31:01,0.0
-12496,220,-4860,8576,261,3376,2025-02-17 11:31:01,0.0
-13200,848,-5440,7727,-261,2155,2025-02-17 11:31:01,0.0
-13428,1412,-4932,6687,-574,1761,2025-02-17 11:31:01,0.0
-12736,1004,-4828,5584,-1206,1034,2025-02-17 11:31:01,0.0
-12192,348,-4856,5002,-1404,151,2025-02-17 11:31:01,0.0
-12392,92,-5064,4539,-1113,-464,2025-02-17 11:31:01,
-12720,-180,-4744,4366,-756,-619,2025-02-17 11:31:01,0.0
-13276,-200,-4864,4022,-795,-528,2025-02-17 11:31:01,0.0
-12876,-652,-4020,3443,-3721,-727,2025-02-17 11:31:01,0.0
-12500,-568,-3812,3558,-4255,-431,2025-02-17 11:31:01,0.0
-11952,-900,-4104,3190,-3858,148,2025-02-17 11:31:01,0.0
-11304,-1468,-4020,2588,-2243,234,2025-02-17 11:31:01,0.0
-11688,-2024,-3648,2251,842,129,2025-02-17 11:31:01,0.0
-12328,-1756,-3468,1726,2857,-107,2025-02-17 11:31:01,0.0
-13056,-2076,-3288,1131,3165,-883,2025-02-17 11:31:01,0.0
-13864,-2520,-2300,961,2304,-1261,2025-02-17 11:31:01,0.0
-14116,-2264,-3196,1154,1455,-1979,2025-02-17 11:31:01,0.0
-13944,-1588,-2868,1217,-276,-2648,2025-02-17 11:31:01,0.0
-13920,-1732,-2712,1040,-1520,-2669,2025-02-17 11:31:01,0.0
-13076,-1852,-1980,1032,-2360,-2338,2025-02-17 11:31:01,0.0
-12196,-1644,-2084,903,-2689,-2039,2025-02-17 11:31:01,0.0
-11488,-1492,-2164,788,-2597,-1900,2025-02-17 11:31:01,0.0
-11412,-1536,-2080,606,-1533,-1663,2025-02-17 11:31:01,0.0
-11468,-1640,-2176,340,-253,-1504,2025-02-17 11:31:01,0.0
-11824,-1348,-1392,-50,347,-1558,2025-02-17 11:31:01,0.0
-12084,-1524,-1184,-285,450,-1723,2025-02-17 11:31:01,0.0
-12184,-1812,-1108,-295,298,-1608,2025-02-17 11:31:01,0.0
-12480,-2132,-1388,-298,338,-1328,2025-02-17 11:31:02,0.0
-12956,-2124,-2256,-729,1341,-891,2025-02-17 11:31:02,0.0
-12660,-1748,-2112,-1248,2310,-560,2025-02-17 11:31:02,0.0
-13036,-2200,-2168,-1704,3631,-460,2025-02-17 11:31:02,0.0
-13936,-2828,-2816,-2213,4934,-509,2025-02-17 11:31:02,0.0
-14800,-3076,-3228,-3014,5927,-492,2025-02-17 11:31:02,0.0
-15640,-2776,-3408,-3764,5600,-616,2025-02-17 11:31:02,0.0
-16732,-2736,-2772,-4209,4039,-660,2025-02-17 11:31:02,0.0
-17756,-3152,-2024,-4191,2069,-63,2025-02-17 11:31:02,0.0
-17700,-3340,-1900,-4258,326,955,2025-02-17 11:31:02,0.0
-15872,-4432,-2880,-4194,-740,1270,2025-02-17 11:31:02,0.0
-15356,-4728,-5296,-4356,656,627,2025-02-17 11:31:02,0.0
-15928,-3656,-4400,-3427,4137,-212,2025-02-17 11:31:02,0.0
-16280,-3448,-5636,-2715,5361,-1666,2025-02-17 11:31:02,0.0
-17064,-4164,-6536,-2766,2250,-2191,2025-02-17 11:31:02,0.0
-17892,-4908,-6556,-2226,-1623,-868,2025-02-17 11:31:02,0.0
-17020,-4440,-6728,-1319,-4216,709,2025-02-17 11:31:02,0.0
-13608,64,-3340,753,-3191,2747,2025-02-17 11:31:02,0.0
-14500,-684,-3688,1190,-4275,3931,2025-02-17 11:31:02,0.0
-10800,2232,-1488,2043,-6044,5766,2025-02-17 11:31:02,0.0
-9376,1680,-3448,2173,-6431,3699,2025-02-17 11:31:02,0.0
-7760,2224,-1928,2088,-5631,2635,2025-02-17 11:31:02,0.0
-6756,1988,-1760,1851,-3183,1294,2025-02-17 11:31:02,0.0
-7684,1344,-1960,1716,952,349,2025-02-17 11:31:02,0.0
-8776,1084,-2140,1606,4159,-152,2025-02-17 11:31:02,0.0
-10108,748,-2328,1528,5364,-1188,2025-02-17 11:31:02,0.0
-12160,560,-2856,1599,4548,-1795,2025-02-17 11:31:02,0.0
-13312,832,-3244,1358,3159,-1852,2025-02-17 11:31:02,0.0
-13932,1408,-3444,1174,1851,-1670,2025-02-17 11:31:02,0.0
-14340,1256,-3208,938,1137,-1595,2025-02-17 11:31:02,0.0
-14948,608,-2380,1032,483,-1267,2025-02-17 11:31:02,0.0
-15480,-296,-2244,1315,-964,-446,2025-02-17 11:31:02,0.0
-15112,-680,-2956,1704,-2101,675,2025-02-17 11:31:02,0.0
-14468,880,-3552,2357,-3974,1521,2025-02-17 11:31:02,0.0
-13840,2448,-4128,2881,-4832,1880,2025-02-17 11:31:02,0.0
-13476,2796,-3448,3216,-4819,2439,2025-02-17 11:31:02,0.0
-12536,1464,-1052,3517,-5168,2213,2025-02-17 11:31:02,0.0
-13584,140,-1064,4176,-4150,1676,2025-02-17 11:31:02,0.0
-14476,-808,-3628,4820,-22,1968,2025-02-17 11:31:02,0.0
-15320,1332,-5648,5815,823,2261,2025-02-17 11:31:02,0.0
-16460,3632,-6704,4992,761,2542,2025-02-17 11:31:02,0.0
-17092,3564,-9284,3482,592,2154,2025-02-17 11:31:02,0.0
-19308,2616,-9964,2127,434,3044,2025-02-17 11:31:02,0.0
-17388,2352,-7368,2305,-2986,3410,2025-02-17 11:31:03,0.0
-10912,3496,-5328,3349,-6150,356,2025-02-17 11:31:03,0.0
-10848,204,-5572,2776,-4622,-946,2025-02-17 11:31:03,0.0
-9648,-2680,-4552,3418,-1495,-504,2025-02-17 11:31:03,0.0
-8212,-3060,-5588,3440,469,-1042,2025-02-17 11:31:03,0.0
-9756,-2524,-5400,2980,1291,-1611,2025-02-17 11:31:03,0.0
-11380,-1560,-5908,2606,3109,-1525,2025-02-17 11:31:03,0.0
-12256,212,-5980,2402,3770,-1408,2025-02-17 11:31:03,0.0
-12488,1452,-6012,1908,2451,-1546,2025-02-17 11:31:03,0.0
-12564,-1636,-4952,622,-758,-3077,2025-02-17 11:31:03,0.0
-11820,-2344,-5256,693,-1112,-2221,2025-02-17 11:31:03,0.0
-11124,-2076,-4948,707,-1197,-1405,2025-02-17 11:31:03,0.0
-10716,-1312,-4832,535,-560,-1041,2025-02-17 11:31:03,0.0
-11032,-736,-4808,229,406,-868,2025-02-17 11:31:03,0.0
-11376,-396,-4896,-49,1167,-850,2025-02-17 11:31:03,0.0
-11632,-572,-4700,-347,1579,-906,2025-02-17 11:31:03,0.0
-11616,-1072,-4340,-762,1618,-1205,2025-02-17 11:31:03,0.0
-12032,-1580,-4376,-1297,1637,-1579,2025-02-17 11:31:03,0.0
-12560,-1600,-4040,-1852,1532,-1891,2025-02-17 11:31:03,0.0
-12852,-1348,-4192,-2047,1197,-1967,2025-02-17 11:31:03,0.0
-12760,-1428,-3912,-2184,654,-2050,2025-02-17 11:31:03,0.0
-12404,-1192,-4292,-2434,511,-2167,2025-02-17 11:31:03,0.0
-12508,-1376,-4368,-2541,446,-2268,2025-02-17 11:31:03,0.0
-12644,-1828,-3948,-2381,428,-2102,2025-02-17 11:31:03,0.0
-13064,-1404,-3968,-2183,463,-1450,2025-02-17 11:31:03,0.0
-12872,-936,-4224,-2386,794,-841,2025-02-17 11:31:03,0.0
-12592,-456,-4196,-2988,1082,-806,2025-02-17 11:31:03,0.0
-12480,-584,-4192,-3593,1037,-863,2025-02-17 11:31:03,0.0
-12492,-1064,-4008,-3822,994,-787,2025-02-17 11:31:03,0.0
-11952,-1812,-3420,-4237,853,-377,2025-02-17 11:31:03,0.0
-11692,-1920,-2428,-4145,922,-558,2025-02-17 11:31:03,0.0
-12392,-2168,-1468,-3865,555,-448,2025-02-17 11:31:03,0.0
-12448,-2864,-208,-3066,385,87,2025-02-17 11:31:03,0.0
-12176,-3812,248,-1458,-163,309,2025-02-17 11:31:03,0.0
-12400,-4372,-200,206,-1473,961,2025-02-17 11:31:03,0.0
-12336,-4136,-2656,1284,-3464,1809,2025-02-17 11:31:03,
-11972,-2760,-4516,1309,-3826,1833,2025-02-17 11:31:03,0.0
-12720,-2136,-7948,1670,57,901,2025-02-17 11:31:03,0.0
-13932,-1080,-11956,2252,6497,-389,2025-02-17 11:31:03,0.0
-14888,-872,-10928,3772,13388,-2123,2025-02-17 11:31:03,0.0
-14568,-900,-10196,1955,11644,-3725,2025-02-17 11:31:03,0.0
-14928,-2200,-6440,-694,3460,-2294,2025-02-17 11:31:03,0.0
-14320,-4476,-1944,901,-2747,-639,2025-02-17 11:31:03,0.0
-14320,-5116,-2288,4892,-4701,1536,2025-02-17 11:31:03,0.0
-12368,-5556,-3008,8380,-4832,3148,2025-02-17 11:31:03,0.0
-11460,-528,-5128,7848,-168,4726,2025-02-17 11:31:03,0.0
-13208,-2348,-5736,9525,-1115,3417,2025-02-17 11:31:03,0.0
-14384,-2384,-4828,11172,-91,4438,2025-02-17 11:31:03,0.0
-14144,-1308,-3732,12319,350,5417,2025-02-17 11:31:03,0.0
-14532,-2028,-4420,13170,474,6302,2025-02-17 11:31:03,0.0
-13060,-2608,-4716,14096,-973,6586,2025-02-17 11:31:03,0.0
-12296,-3692,-4572,15605,-2642,6687,2025-02-17 11:31:03,0.0
-11576,-3084,-5024,16649,-3904,6773,2025-02-17 11:31:03,0.0
-11492,-2104,-5388,17662,-3957,6983,2025-02-17 11:31:03,0.0
-10832,-1228,-5952,18030,-2701,6953,2025-02-17 11:31:03,0.0
-10684,-756,-6860,17980,-1027,6846,2025-02-17 11:31:03,0.0
-11116,-656,-6700,17832,-131,6642,2025-02-17 11:31:03,0.0
-11404,-796,-6372,17749,303,6591,2025-02-17 11:31:03,0.0
-11936,-1104,-5360,18036,470,6650,2025-02-17 11:31:03,0.0
-12496,-1428,-4788,18569,645,6857,2025-02-17 11:31:03,0.0
-13264,-1116,-5212,18902,479,7065,2025-02-17 11:31:03,0.0
-13252,-156,-5752,18843,48,7191,2025-02-17 11:31:04,0.0
-12944,912,-6356,18564,-976,7019,2025-02-17 11:31:04,0.0
-12456,1492,-6504,17893,-2315,6729,2025-02-17 11:31:04,0.0
-11788,1176,-5636,17737,-2563,6287,2025-02-17 11:31:04,0.0
-11460,852,-5108,17852,-2516,6125,2025-02-17 11:31:04,0.0
-11444,860,-5484,17976,-1615,5831,2025-02-17 11:31:04,0.0
-11636,1480,-5736,16707,-124,5636,2025-02-17 11:31:04,0.0
-11656,1840,-4984,15679,626,5136,2025-02-17 11:31:04,0.0
-12232,1668,-4232,14979,1065,4678,2025-02-17 11:31:04,0.0
-12952,1084,-3444,15431,988,4634,2025-02-17 11:31:04,0.0
-13200,96,-3524,15883,1029,4737,2025-02-17 11:31:04,0.0
-13032,156,-4768,15676,886,4765,2025-02-17 11:31:04,0.0
-12608,208,-4268,15188,-131,4400,2025-02-17 11:31:04,0.0
-13328,56,-3200,14954,453,4427,2025-02-17 11:31:04,0.0
-12968,-28,-1480,15149,875,4494,2025-02-17 11:31:04,0.0
-15104,-600,-5396,15612,1877,6570,2025-02-17 11:31:04,0.0
-12056,1548,-7280,10937,4619,5841,2025-02-17 11:31:04,5
-11224,2868,-8092,6204,8771,3381,2025-02-17 11:31:04,5
-12268,2796,-7276,3143,14423,1742,2025-02-17 11:31:04,5
-13648,1840,-6192,2594,23849,1988,2025-02-17 11:31:04,5
-12688,960,-6016,2684,32708,4265,2025-02-17 11:31:04,5
-8132,-2484,-1936,2980,32767,5838,2025-02-17 11:31:04,5
-5804,-3252,-700,4365,31551,4742,2025-02-17 11:31:04,5
-7568,-140,-3448,2479,27075,5492,2025-02-17 11:31:04,5
-5316,864,-3904,-59,23142,6645,2025-02-17 11:31:04,5
-3300,1136,-3280,-1385,18149,8277,2025-02-17 11:31:04,5
792,216,-920,-1143,12764,8960,2025-02-17 11:31:04,5
2228,156,2160,-485,10896,8005,2025-02-17 11:31:04,5
3552,-352,2220,491,10866,6370,2025-02-17 11:31:04,5
2592,-504,1696,689,10446,5654,2025-02-17 11:31:04,5
2372,-720,2232,1303,9625,6039,2025-02-17 11:31:04,5
2400,-520,1908,2045,8881,6366,2025-02-17 11:31:04,5
2380,-452,1728,2034,8809,6404,2025-02-17 11:31:04,5
2704,-460,1692,1994,8647,6471,2025-02-17 11:31:04,5
2580,-468,1644,1949,8657,6383,2025-02-17 11:31:04,5
2764,-564,1328,1911,8727,6279,2025-02-17 11:31:04,5
2524,-132,1856,1994,8920,6230,2025-02-17 11:31:04,5
2344,-392,1616,2070,9094,6282,2025-02-17 11:31:04,5
2392,-444,1780,2148,9307,6349,2025-02-17 11:31:04,5
2092,-480,2168,2215,9616,6489,2025-02-17 11:31:04,5
2340,-496,1488,2266,9884,6630,2025-02-17 11:31:04,5
2256,-420,1392,2312,10270,6757,2025-02-17 11:31:04,5
2200,-428,1380,2309,10662,6962,2025-02-17 11:31:04,5
2116,-544,1244,2434,11173,7475,2025-02-17 11:31:04,5
1948,-508,1472,2574,11599,8145,2025-02-17 11:31:04,5
1432,-524,1432,2861,12206,9147,2025-02-17 11:31:04,5
2156,-504,1372,3348,12820,10442,2025-02-17 11:31:04,5
1936,-904,1208,3532,12592,11217,2025-02-17 11:31:04,5
-6156,-3932,11320,12009,8030,17080,2025-02-17 11:31:04,5
-32768,-22236,-32768,-32768,32767,32767,2025-02-17 11:31:04,5
32767,32767,-32768,32767,-32768,32692,2025-02-17 11:31:04,5
-32768,-12688,-32768,-1897,-23961,11331,2025-02-17 11:31:04,5
-2068,-2068,-3076,-11355,-11492,7488,2025-02-17 11:31:04,5
1204,-1224,1344,-9436,-14970,5523,2025-02-17 11:31:04,5
2348,-916,2800,-7599,-17686,4077,2025-02-17 11:31:04,5
1652,-168,2400,-6370,-19108,3967,2025-02-17 11:31:04,5
1692,-32,2724,-4747,-19087,5503,2025-02-17 11:31:04,5
1388,236,2620,-2046,-18208,6674,2025-02-17 11:31:04,5
764,752,2380,1261,-14107,7432,2025-02-17 11:31:04,5
-1596,2700,160,6281,-4153,7925,2025-02-17 11:31:05,5
-10252,5332,-8156,12344,26342,10087,2025-02-17 11:31:05,5
-11880,7460,-22976,10642,32767,12886,2025-02-17 11:31:05,5
3220,9032,-22824,7983,32767,8564,2025-02-17 11:31:05,5
21576,6744,-32768,8491,30066,2752,2025-02-17 11:31:05,5
23344,2356,-29244,5161,3911,-1255,2025-02-17 11:31:05,5
10008,-500,-12876,1434,-3989,-1490,2025-02-17 11:31:05,5
5344,-252,-9516,-1050,-10043,-90,2025-02-17 11:31:05,5
2156,1376,-11284,-3052,-9499,900,2025-02-17 11:31:05,5
140,3460,-14460,-2662,-2226,992,2025-02-17 11:31:05,5
2492,3872,-16308,164,1396,-383,2025-02-17 11:31:05,5
3628,2320,-15436,859,2450,-454,2025-02-17 11:31:05,5
5164,1556,-13996,-118,1315,-153,2025-02-17 11:31:05,5
5416,2324,-14352,-436,-613,-132,2025-02-17 11:31:05,5
3384,2560,-15140,-138,-797,-155,2025-02-17 11:31:05,5
2828,2304,-14900,-113,354,-151,2025-02-17 11:31:05,5
4200,2632,-14580,-106,638,-206,2025-02-17 11:31:05,5
4324,2316,-14516,-73,72,-125,2025-02-17 11:31:05,5
3516,2428,-14848,-146,-36,-114,2025-02-17 11:31:05,5
3740,2512,-14880,-45,411,-157,2025-02-17 11:31:05,5
3972,2400,-14748,-69,239,-167,2025-02-17 11:31:05,5
4044,2424,-14748,-127,139,-138,2025-02-17 11:31:05,5
3808,2360,-14924,-99,164,-161,2025-02-17 11:31:05,5
3804,2452,-14856,-140,210,-147,2025-02-17 11:31:05,5
3968,2428,-14628,-112,216,-160,2025-02-17 11:31:05,5
3896,2388,-14808,-119,213,-174,2025-02-17 11:31:05,5
3952,2420,-14828,-134,181,-159,2025-02-17 11:31:05,5
4016,2368,-14624,-161,167,-192,2025-02-17 11:31:05,5
3924,2412,-14872,-219,150,-155,2025-02-17 11:31:05,5
3892,2448,-14720,-141,171,-163,2025-02-17 11:31:05,5
3892,2476,-14868,-131,186,-168,2025-02-17 11:31:05,5
3772,2496,-14980,-107,168,-142,2025-02-17 11:31:05,5
3936,2396,-14676,-50,296,-150,2025-02-17 11:31:05,5
4260,2216,-14908,-103,338,-207,2025-02-17 11:31:05,5
4240,2112,-14756,-273,-3,-211,2025-02-17 11:31:05,5
3656,2736,-14644,-376,-159,-143,2025-02-17 11:31:05,5
3504,2832,-14644,12,262,-160,2025-02-17 11:31:05,5
3876,2324,-14964,40,521,-173,2025-02-17 11:31:05,5
4152,2168,-14748,-203,141,-176,2025-02-17 11:31:05,5
3948,2492,-14832,-286,-78,-176,2025-02-17 11:31:05,5
3592,2648,-14700,-144,184,-196,2025-02-17 11:31:05,5
3972,2348,-14924,-101,269,-187,2025-02-17 11:31:05,5
4072,2412,-14752,-158,175,-169,2025-02-17 11:31:05,5
3828,2388,-14724,-198,106,-174,2025-02-17 11:31:05,5
3844,2468,-14664,-190,210,-188,2025-02-17 11:31:05,5
3984,2332,-14804,-148,201,-178,2025-02-17 11:31:05,5
3920,2360,-14876,-145,184,-173,2025-02-17 11:31:05,5
3972,2304,-14984,-128,204,-181,2025-02-17 11:31:05,5
3980,2336,-14680,-247,106,-174,2025-02-17 11:31:05,5
3820,2564,-14696,-175,123,-188,2025-02-17 11:31:05,5
3852,2332,-14776,-134,255,-191,2025-02-17 11:31:05,5
3992,2436,-14820,-189,159,-181,2025-02-17 11:31:05,0.0
3780,2420,-14816,-143,115,-160,2025-02-17 11:31:05,0.0
3840,2412,-14780,-121,219,-167,2025-02-17 11:31:05,0.0
3992,2328,-14832,-146,205,-158,2025-02-17 11:31:05,0.0
3928,2440,-15008,-167,148,-165,2025-02-17 11:31:05,0.0
3816,2528,-14756,-175,128,-170,2025-02-17 11:31:05,0.0
3852,2448,-14828,-107,215,-193,2025-02-17 11:31:05,0.0
4036,2448,-14932,-133,214,-166,2025-02-17 11:31:05,0.0
3932,2460,-14856,-158,54,-144,2025-02-17 11:31:05,0.0
4016,2420,-14884,-126,228,-166,2025-02-17 11:31:06,0.0
4044,2352,-14868,-189,127,-166,2025-02-17 11:31:06,0.0
3836,2392,-14904,-146,129,-172,2025-02-17 11:31:06,0.0
3960,2384,-14760,-127,185,-176,2025-02-17 11:31:06,0.0
4012,2396,-14976,-170,168,-150,2025-02-17 11:31:06,0.0
3940,2312,-14740,-147,206,-200,2025-02-17 11:31:06,0.0
3972,2348,-14804,-240,136,-206,2025-02-17 11:31:06,0.0
3836,2444,-14776,-226,94,-185,2025-02-17 11:31:06,0.0
3932,2476,-14800,-117,231,-203,2025-02-17 11:31:06,0.0
3996,2280,-14760,-219,93,-195,2025-02-17 11:31:06,0.0
3800,2596,-14680,-151,210,-164,2025-02-17 11:31:06,0.0
3944,2464,-14780,-75,309,-189,2025-02-17 11:31:06,0.0
4180,2312,-14792,-249,174,-156,2025-02-17 11:31:06,0.0
3920,2576,-14712,-201,21,-187,2025-02-17 11:31:06,0.0
3632,2468,-14832,-159,228,-176,2025-02-17 11:31:06,0.0
3716,2544,-14704,-142,160,-143,2025-02-17 11:31:06,0.0
4036,2352,-14616,-61,253,-216,2025-02-17 11:31:06,0.0
4220,2172,-14844,-127,221,-297,2025-02-17 11:31:06,0.0
3692,2420,-14828,-301,121,-131,2025-02-17 11:31:06,0.0
3740,2820,-14572,-163,57,-163,2025-02-17 11:31:06,0.0
3884,2220,-14928,41,417,-227,2025-02-17 11:31:06,0.0
3860,2152,-15168,-381,-44,-195,2025-02-17 11:31:06,0.0
3844,2912,-14384,-144,130,-177,2025-02-17 11:31:06,0.0
3996,2096,-15064,54,419,-214,2025-02-17 11:31:06,0.0
4236,2244,-14968,-336,43,-136,2025-02-17 11:31:06,0.0
3688,2560,-14560,-134,76,-199,2025-02-17 11:31:06,0.0
3756,2408,-14992,-163,292,-165,2025-02-17 11:31:06,0.0
4084,2480,-14852,-169,182,-175,2025-02-17 11:31:06,0.0
3824,2340,-14820,-123,143,-169,2025-02-17 11:31:06,0.0
3872,2468,-14940,-202,117,-178,2025-02-17 11:31:06,0.0
3812,2456,-14744,-127,179,-166,2025-02-17 11:31:06,0.0
3904,2352,-14816,-118,191,-191,2025-02-17 11:31:06,0.0
3952,2396,-14824,-185,146,-169,2025-02-17 11:31:06,0.0
3908,2376,-14936,-204,150,-208,2025-02-17 11:31:06,0.0
3808,2556,-14812,-185,184,-164,2025-02-17 11:31:06,0.0
4000,2476,-14788,-107,51,-224,2025-02-17 11:31:06,0.0
3644,2240,-14492,-184,197,-127,2025-02-17 11:31:06,0.0
7792,4628,-4740,3234,2269,-1946,2025-02-17 11:31:06,0.0
5224,1740,-16572,2183,1419,-1574,2025-02-17 11:31:06,0.0
4060,724,-19556,145,-1842,-1375,2025-02-17 11:31:06,0.0
2496,696,-16276,-2218,-2247,156,2025-02-17 11:31:06,0.0
376,2708,-12672,-2861,-27,1511,2025-02-17 11:31:06,0.0
3196,4516,-11672,2531,2159,-2663,2025-02-17 11:31:06,0.0
3204,2452,-16208,2050,-168,-333,2025-02-17 11:31:06,0.0
4376,772,-16708,763,699,-972,2025-02-17 11:31:06,0.0
3048,2292,-14360,344,1554,-629,2025-02-17 11:31:06,0.0
4128,2856,-13912,931,1597,-698,2025-02-17 11:31:06,0.0
2888,3720,-11100,2732,1338,-215,2025-02-17 11:31:06,0.0
2456,1532,-16592,3342,1405,958,2025-02-17 11:31:06,0.0
5264,524,-17856,955,1285,1136,2025-02-17 11:31:06,0.0
7872,1048,-16876,-1018,-178,75,2025-02-17 11:31:06,0.0
4876,1424,-14284,-1549,-2731,177,2025-02-17 11:31:06,0.0
3528,2016,-13636,-1379,-2417,208,2025-02-17 11:31:06,0.0
2608,2528,-14572,-492,-593,-474,2025-02-17 11:31:06,0.0
3756,2596,-15104,773,-235,415,2025-02-17 11:31:06,0.0
3936,1324,-15800,142,-47,479,2025-02-17 11:31:06,
4016,1228,-15292,-1056,-2259,427,2025-02-17 11:31:06,0.0
6900,1032,-17164,-2197,-5415,189,2025-02-17 11:31:06,0.0
2520,1180,-17960,-3413,-8141,2945,2025-02-17 11:31:06,0.0
5880,1492,-17224,-4426,-12891,2873,2025-02-17 11:31:06,0.0
4848,3276,-17312,-4456,-17928,2046,2025-02-17 11:31:07,0.0
5284,4168,-17804,-3416,-24116,1192,2025-02-17 11:31:07,0.0
3380,4884,-20276,-2859,-31201,-295,2025-02-17 11:31:07,0.0
968,5668,-21236,-2444,-32768,-957,2025-02-17 11:31:07,0.0
-3912,7552,-20472,-864,-32768,-466,2025-02-17 11:31:07,0.0
-6544,7728,-22556,1428,-32768,271,2025-02-17 11:31:07,0.0
-6800,6536,-25724,2596,-16871,-907,2025-02-17 11:31:07,0.0
-5512,4548,-26060,3111,9314,-6179,2025-02-17 11:31:07,0.0
-4632,2184,-25376,2878,23958,-8787,2025-02-17 11:31:07,0.0
-1804,-280,-23808,1832,29655,-9802,2025-02-17 11:31:07,0.0
1772,-2484,-22968,479,25816,-11450,2025-02-17 11:31:07,0.0
2444,-3256,-22460,-609,17476,-12884,2025-02-17 11:31:07,0.0
-5664,-1456,-21408,-2094,10226,-9869,2025-02-17 11:31:07,0.0
-8580,836,-16004,-162,8685,-3009,2025-02-17 11:31:07,0.0
-6432,1348,-16320,3638,8432,930,2025-02-17 11:31:07,0.0
-3788,1104,-20404,3164,7182,1705,2025-02-17 11:31:07,0.0
-1320,464,-20248,-1378,3010,-600,2025-02-17 11:31:07,0.0
336,-80,-18108,-3598,-5498,-1806,2025-02-17 11:31:07,0.0
832,-228,-17524,-3255,-17585,-2533,2025-02-17 11:31:07,0.0
-772,540,-19224,-3247,-28382,-1241,2025-02-17 11:31:07,0.0
720,1348,-19184,-3705,-32768,-631,2025-02-17 11:31:07,0.0
-888,1592,-19760,-4067,-32768,-1822,2025-02-17 11:31:07,0.0
-2700,1584,-19652,-4890,-32768,-4049,2025-02-17 11:31:07,0.0
-6088,1900,-18204,-5831,-32768,-5167,2025-02-17 11:31:07,0.0
-8112,2516,-15440,-6508,-26492,-4710,2025-02-17 11:31:07,0.0
-9236,3260,-12932,-5904,-16075,-3666,2025-02-17 11:31:07,0.0
-8072,3792,-10760,-5070,-2778,-2696,2025-02-17 11:31:07,0.0
-6304,3800,-9932,-4312,5498,-3348,2025-02-17 11:31:07,0.0
-4416,3552,-9720,-3704,9829,-4801,2025-02-17 11:31:07,0.0
-3308,3376,-9676,-3195,10709,-6695,2025-02-17 11:31:07,0.0
-2812,2896,-10056,-3022,9028,-8400,2025-02-17 11:31:07,0.0
-3380,2052,-9340,-2944,5972,-10089,2025-02-17 11:31:07,0.0
-4960,1920,-8124,-2111,2335,-10581,2025-02-17 11:31:07,0.0
-6216,2244,-7484,-1140,-1594,-10207,2025-02-17 11:31:07,0.0
-7028,2560,-7272,-556,-4795,-9241,2025-02-17 11:31:07,0.0
-6304,2340,-7392,-316,-9056,-7708,2025-02-17 11:31:07,0.0
-4736,936,-8476,-1093,-14285,-6882,2025-02-17 11:31:07,0.0
-4512,104,-7492,-2257,-19108,-6765,2025-02-17 11:31:07,0.0
-6112,1204,-4628,-2193,-20551,-6079,2025-02-17 11:31:07,0.0
-6856,2000,-3368,-2056,-18318,-5440,2025-02-17 11:31:07,0.0
-7112,2508,-2668,-1390,-15015,-5474,2025-02-17 11:31:07,0.0
-6336,2404,-2700,-476,-12334,-5709,2025-02-17 11:31:07,0.0
-5312,1524,-3264,795,-11613,-5723,2025-02-17 11:31:07,0.0
-5600,1252,-4640,1322,-12521,-5025,2025-02-17 11:31:07,0.0
-4496,228,-4868,1042,-14137,-4606,2025-02-17 11:31:07,0.0
-4644,192,-2960,956,-14479,-4583,2025-02-17 11:31:07,0.0
-4864,224,-1816,1384,-13224,-4496,2025-02-17 11:31:07,0.0
-6196,436,-1860,2073,-11426,-4014,2025-02-17 11:31:07,0.0
-7064,536,-3116,2883,-9932,-3007,2025-02-17 11:31:07,0.0
-7472,340,-5460,2954,-9177,-2522,2025-02-17 11:31:07,0.0
-8436,268,-5516,2235,-8632,-2143,2025-02-17 11:31:07,0.0
-9580,-60,-4300,1741,-7106,-826,2025-02-17 11:31:07,0.0
-10100,376,-2472,2088,-4520,721,2025-02-17 11:31:07,0.0
-9952,1028,-2404,3211,-1242,2186,2025-02-17 11:31:07,0.0
-9020,944,-3056,4052,1244,2752,2025-02-17 11:31:07,0.0
-7848,-8,-4304,4351,2264,2193,2025-02-17 11:31:07,0.0
-8352,-756,-5260,4035,1972,2006,2025-02-17 11:31:07,0.0
-9144,-752,-5064,3686,881,2434,2025-02-17 11:31:07,0.0
-9824,-340,-4680,3692,-387,3292,2025-02-17 11:31:07,0.0
-11508,-420,-4104,3768,298,3754,2025-02-17 11:31:07,0.0
-11996,-836,-3760,3591,2657,3394,2025-02-17 11:31:07,0.0
-12768,-1748,-5328,2841,5791,2454,2025-02-17 11:31:08,0.0
-12540,-2824,-6056,1232,7573,1928,2025-02-17 11:31:08,0.0
-12652,-1880,-5840,104,6151,3159,2025-02-17 11:31:08,0.0
-9576,-288,-4856,394,1232,4215,2025-02-17 11:31:08,0.0
-8420,1668,-4104,1119,-4762,3146,2025-02-17 11:31:08,0.0
-9732,1356,-3448,2376,-8018,1951,2025-02-17 11:31:08,0.0
-9744,-404,-3888,3419,-8998,649,2025-02-17 11:31:08,0.0
-10660,-1312,-5168,3599,-7860,-1358,2025-02-17 11:31:08,0.0
-14028,-712,-2528,2299,-5295,-3319,2025-02-17 11:31:08,0.0
-15984,1728,3072,4633,-8649,-4122,2025-02-17 11:31:08,0.0
-17576,-1412,-2532,6443,-12256,-3270,2025-02-17 11:31:08,0.0
-17092,-2168,-4484,6019,-15991,-789,2025-02-17 11:31:08,0.0
-14836,-2328,-1548,7311,-20130,1993,2025-02-17 11:31:08,0.0
-12596,-2152,-2700,8557,-23775,3404,2025-02-17 11:31:08,0.0
-10712,-144,-5228,5956,-26085,2881,2025-02-17 11:31:08,0.0
-10736,668,-2304,2812,-22169,813,2025-02-17 11:31:08,0.0
-13196,-684,816,3613,-7917,-1118,2025-02-17 11:31:08,0.0
-12416,-3128,1220,7348,6733,-1169,2025-02-17 11:31:08,0.0
-12092,-2664,-644,9167,10342,546,2025-02-17 11:31:08,0.0
-11896,-1964,-592,11197,11102,861,2025-02-17 11:31:08,0.0
-12848,-2040,-2392,12500,10112,1107,2025-02-17 11:31:08,0.0
-13812,-1484,-2540,12283,7647,753,2025-02-17 11:31:08,0.0
-14748,-1056,-2556,11534,5304,616,2025-02-17 11:31:08,0.0
-14920,-976,-1488,11007,3511,1037,2025-02-17 11:31:08,0.0
-14776,-1396,-1080,11385,2382,1559,2025-02-17 11:31:08,0.0
-13840,-2376,-688,12801,1238,1712,2025-02-17 11:31:08,0.0
-13384,-2944,-1600,14176,-582,1515,2025-02-17 11:31:08,0.0
-13108,-2660,-1736,14710,-1036,1258,2025-02-17 11:31:08,0.0
-13164,-1760,-3532,12960,-149,578,2025-02-17 11:31:08,0.0
-13240,-2052,-2040,11812,2027,445,2025-02-17 11:31:08,0.0
-13016,-2836,-448,12363,3613,439,2025-02-17 11:31:08,0.0
-13944,-3276,-520,14288,3901,867,2025-02-17 11:31:08,0.0
-14940,-2624,-1480,14741,3163,1702,2025-02-17 11:31:08,0.0
-14504,-1760,-2096,14523,2031,2277,2025-02-17 11:31:08,0.0
-13052,-2408,-1032,14980,957,2096,2025-02-17 11:31:08,
-13204,-2388,-2908,14697,763,2250,2025-02-17 11:31:08,0.0
-11464,-2028,-2316,13740,1492,2121,2025-02-17 11:31:08,0.0
-11692,-2100,-1012,13650,2873,1327,2025-02-17 11:31:08,0.0
-12712,-1884,-1280,13249,3902,1208,2025-02-17 11:31:08,0.0
-13724,-644,-1680,12615,3653,1587,2025-02-17 11:31:08,0.0
-13964,436,-1776,11676,3664,1799,2025-02-17 11:31:08,0.0
-14220,900,-2796,10163,4040,1508,2025-02-17 11:31:08,0.0
-13824,496,-2032,8870,3965,910,2025-02-17 11:31:08,0.0
-13840,-380,-1500,8065,3621,222,2025-02-17 11:31:08,0.0
-12876,-600,-1724,8420,1608,-190,2025-02-17 11:31:08,0.0
-13556,-644,-1068,8897,-415,-918,2025-02-17 11:31:08,0.0
-13392,-548,-2252,8042,-1381,-1642,2025-02-17 11:31:08,0.0
-13716,-808,-2140,6465,-737,-1832,2025-02-17 11:31:08,0.0
-13652,-1748,-1792,5108,664,-1646,2025-02-17 11:31:08,0.0
-13968,-2620,-1132,4236,2068,-1285,2025-02-17 11:31:08,0.0
-13528,-2824,-756,3792,2375,-869,2025-02-17 11:31:08,0.0
-14048,-2540,-748,3542,2068,-610,2025-02-17 11:31:08,0.0
-13772,-2132,-652,2793,1789,-339,2025-02-17 11:31:08,0.0
-13448,-2472,-596,1976,1690,-169,2025-02-17 11:31:08,0.0
-13348,-2484,-64,1612,1576,131,2025-02-17 11:31:08,0.0
-12876,-2708,256,1382,1162,504,2025-02-17 11:31:08,0.0
-13016,-2668,724,1022,645,511,2025-02-17 11:31:08,0.0
-12584,-2308,836,885,146,465,2025-02-17 11:31:08,0.0
-12812,-2228,1828,1016,-260,553,2025-02-17 11:31:08,0.0
-12588,-2348,1092,1139,-297,745,2025-02-17 11:31:08,0.0
-12320,-2808,380,922,40,702,2025-02-17 11:31:08,0.0
-13376,-3724,816,851,895,901,2025-02-17 11:31:09,0.0
-14432,-4100,-340,202,2188,1456,2025-02-17 11:31:09,0.0
-15064,-4220,-316,-1057,3061,1464,2025-02-17 11:31:09,0.0
-15772,-5108,-1268,-1954,3241,1496,2025-02-17 11:31:09,0.0
-16356,-4716,-2592,-2367,3207,352,2025-02-17 11:31:09,0.0
-16928,-4436,-1684,-2730,4375,-718,2025-02-17 11:31:09,0.0
-16716,-4824,-1632,-2897,4143,-1752,2025-02-17 11:31:09,0.0
-17312,-4200,-1724,-2781,2062,-1874,2025-02-17 11:31:09,0.0
-17012,-2980,-3188,-2497,51,-1248,2025-02-17 11:31:09,0.0
-16252,-1888,-4488,-2427,-1437,-985,2025-02-17 11:31:09,0.0
-15900,-1108,-4468,-2274,-3136,-225,2025-02-17 11:31:09,0.0
-14492,-2836,-3608,-1550,-5089,916,2025-02-17 11:31:09,0.0
-13504,-3240,-4316,-51,-7005,1983,2025-02-17 11:31:09,0.0
-12828,-2496,-5336,623,-7501,2883,2025-02-17 11:31:09,0.0
-11640,-1052,-6180,313,-5708,2873,2025-02-17 11:31:09,0.0
-12096,516,-5500,64,-2531,2578,2025-02-17 11:31:09,0.0
-13260,796,-3896,148,-524,2979,2025-02-17 11:31:09,0.0
-14160,608,-2476,816,251,3708,2025-02-17 11:31:09,0.0
-14184,548,-2648,1801,139,4565,2025-02-17 11:31:09,0.0
-13164,208,-4120,2419,-784,4958,2025-02-17 11:31:09,0.0
-12036,36,-4092,1812,-2013,4357,2025-02-17 11:31:09,0.0
-10856,132,-4220,973,-1959,3265,2025-02-17 11:31:09,0.0
-11004,416,-3056,431,-1707,2155,2025-02-17 11:31:09,0.0
-11632,488,-2316,71,-961,1747,2025-02-17 11:31:09,0.0
-11860,856,-1348,236,-896,1835,2025-02-17 11:31:09,0.0
-12152,964,-976,897,-1331,2023,2025-02-17 11:31:09,0.0
-12052,652,-824,1537,-1953,2041,2025-02-17 11:31:09,0.0
-12504,484,-864,2118,-2383,2111,2025-02-17 11:31:09,0.0
-22240,-5680,572,2375,-4516,7452,2025-02-17 11:31:09,0.0
-9080,1020,-1532,4263,-8136,2477,2025-02-17 11:31:09,0.0
-11276,-360,-1904,2937,-6189,2198,2025-02-17 11:31:09,0.0
-11060,-1704,-360,3299,-2064,3033,2025-02-17 11:31:09,0.0
-10692,-1048,-188,3674,-16,3255,2025-02-17 11:31:09,0.0
-10816,-552,216,4151,1269,2485,2025-02-17 11:31:09,0.0
-10156,588,616,4459,2048,1550,2025-02-17 11:31:09,0.0
-10736,1836,-424,4062,2504,440,2025-02-17 11:31:09,0.0
-11016,1972,-396,3488,3087,312,2025-02-17 11:31:09,0.0
-11320,1092,636,3420,2982,-215,2025-02-17 11:31:09,0.0
-12896,820,1264,3757,1984,-447,2025-02-17 11:31:09,0.0
-13828,1260,1096,3798,805,-628,2025-02-17 11:31:09,0.0
-14744,2048,384,3126,-533,-1038,2025-02-17 11:31:09,0.0
-15364,1972,552,2789,-2701,-1170,2025-02-17 11:31:09,0.0
-14900,124,672,4236,-5241,-1012,2025-02-17 11:31:09,0.0
-14708,-1416,-252,4783,-4608,-721,2025-02-17 11:31:09,0.0
-14748,-1196,-572,4438,-663,-464,2025-02-17 11:31:09,0.0
-15284,-172,1656,4550,2606,-134,2025-02-17 11:31:09,0.0
-16676,-296,2692,5371,3504,450,2025-02-17 11:31:09,0.0
-17180,-1348,1256,5711,3206,759,2025-02-17 11:31:09,0.0
-18904,-88,-2800,5348,3310,830,2025-02-17 11:31:09,0.0
-19552,2120,-5616,3933,5287,1547,2025-02-17 11:31:09,0.0
-19696,3716,-5592,3768,7154,1778,2025-02-17 11:31:09,0.0
-18428,4516,-7056,4115,7508,1808,2025-02-17 11:31:09,0.0
-15512,4928,-6856,4037,3803,1218,2025-02-17 11:31:09,0.0
-11896,3000,-6132,4523,-1522,-974,2025-02-17 11:31:09,0.0
-9364,-124,-3608,5423,-6659,-3382,2025-02-17 11:31:09,0.0
-8676,-2504,-1836,6965,-8999,-4616,2025-02-17 11:31:09,0.0
-8860,-4476,-3320,6774,-8712,-4650,2025-02-17 11:31:09,0.0
-10000,-4600,-4520,5216,-5693,-3769,2025-02-17 11:31:09,0.0
-10952,-2140,-3956,4638,-1502,-2056,2025-02-17 11:31:09,0.0
-10984,-1692,-5016,3717,2020,-816,2025-02-17 11:31:09,0.0
-11368,-80,-4868,1841,6447,-1836,2025-02-17 11:31:09,0.0
-12452,-52,-3088,916,7038,-2939,2025-02-17 11:31:09,0.0
-14376,-276,-836,1290,6942,-3502,2025-02-17 11:31:10,0.0
-15796,-1776,-1052,2626,4997,-2964,2025-02-17 11:31:10,0.0
-15688,-2248,-3016,3457,240,-1709,2025-02-17 11:31:10,0.0
-14208,-1336,-3700,3077,-3954,-776,2025-02-17 11:31:10,0.0
-12208,-1648,-3284,2637,-6255,-298,2025-02-17 11:31:10,0.0
-10916,-1948,-3824,1805,-5301,-839,2025-02-17 11:31:10,0.0
-10876,-1984,-3172,638,-3357,-1642,2025-02-17 11:31:10,0.0
-11760,-2364,-2120,-241,-1175,-1450,2025-02-17 11:31:10,0.0
-12064,-2436,-2784,-1063,796,-281,2025-02-17 11:31:10,0.0
-11600,-2156,-3712,-2523,1712,182,2025-02-17 11:31:10,0.0
-10520,-1312,-2072,-3601,1350,-653,2025-02-17 11:31:10,0.0
-10992,-684,-892,-3237,1343,-1625,2025-02-17 11:31:10,
-13508,-900,-728,-2910,2506,-1355,2025-02-17 11:31:10,0.0
-13300,-2364,-1476,-3431,2432,-372,2025-02-17 11:31:10,0.0
-13312,-1964,-812,-3229,1295,63,2025-02-17 11:31:10,0.0
-13052,-1320,-752,-3320,305,234,2025-02-17 11:31:10,0.0
-12860,-1004,-268,-3484,134,111,2025-02-17 11:31:10,0.0
-12712,-936,-76,-3719,94,-295,2025-02-17 11:31:10,0.0
-13328,-1768,8,-3884,135,-466,2025-02-17 11:31:10,0.0
-13496,-2036,-4,-3705,-161,-333,2025-02-17 11:31:10,0.0
-13756,-2236,-740,-3488,-629,11,2025-02-17 11:31:10,0.0
-13976,-1112,-1396,-3251,-558,310,2025-02-17 11:31:10,0.0
-13668,-672,-1768,-3333,-196,167,2025-02-17 11:31:10,0.0
-13776,-1376,-1532,-4280,294,-901,2025-02-17 11:31:10,0.0
-14316,-1768,-820,-5457,-35,-2008,2025-02-17 11:31:10,0.0
-15516,-1408,216,-5879,-1250,-2534,2025-02-17 11:31:10,0.0
-15696,-2196,-612,-6088,-2501,-2377,2025-02-17 11:31:10,0.0
-14848,-3804,-2208,-6125,-3674,-2432,2025-02-17 11:31:10,0.0
-13852,-4960,-2148,-5950,-4939,-3163,2025-02-17 11:31:10,0.0
-14884,-5512,-1112,-5192,-4015,-3375,2025-02-17 11:31:10,0.0
-16348,-7084,-2256,-4458,154,-2100,2025-02-17 11:31:10,0.0
-16692,-7344,-5044,-4130,4375,-1031,2025-02-17 11:31:10,0.0
-15868,-6184,-7136,-4730,6543,-583,2025-02-17 11:31:10,0.0
-14680,-3948,-6940,-5723,5104,-717,2025-02-17 11:31:10,0.0
-15008,-1628,-5668,-6103,1127,-11,2025-02-17 11:31:10,0.0
-14172,128,-2992,-5191,-2475,1322,2025-02-17 11:31:10,0.0
-12972,1264,-2216,-2877,-3388,2079,2025-02-17 11:31:10,0.0
-11480,2008,-1144,-1285,-2291,1828,2025-02-17 11:31:10,0.0
-10944,1752,-1084,690,-701,1418,2025-02-17 11:31:10,0.0
-11028,-300,-3928,1833,2191,577,2025-02-17 11:31:10,0.0
-12984,-2008,-5008,1364,5017,827,2025-02-17 11:31:10,0.0
-13812,-1664,-3864,555,7251,2086,2025-02-17 11:31:10,0.0
-14088,-2052,-3144,466,7493,2628,2025-02-17 11:31:10,0.0
-14288,-1632,-3884,838,5710,2792,2025-02-17 11:31:10,0.0
-13624,-976,-4876,688,2851,2603,2025-02-17 11:31:10,0.0
-12024,-692,-4468,627,747,1704,2025-02-17 11:31:10,0.0
-11216,-600,-3516,845,-305,717,2025-02-17 11:31:10,0.0
-10624,-592,-2508,1709,334,571,2025-02-17 11:31:10,0.0
-10088,-780,-2920,2322,1245,529,2025-02-17 11:31:10,0.0
-10048,-1128,-3368,1948,2513,354,2025-02-17 11:31:10,0.0
-10816,-1156,-2688,997,4413,-208,2025-02-17 11:31:10,0.0
-12192,-992,-3464,561,5943,-625,2025-02-17 11:31:10,0.0
-13868,-732,-3628,559,6236,-722,2025-02-17 11:31:10,0.0
-14472,-376,-3780,1029,4541,-657,2025-02-17 11:31:10,0.0
-14288,196,-4388,1122,1520,-809,2025-02-17 11:31:10,0.0
-13880,388,-4936,1145,-2041,-909,2025-02-17 11:31:10,0.0
-12640,236,-4740,861,-5412,-1075,2025-02-17 11:31:10,0.0
-11144,-392,-3444,654,-6677,-1712,2025-02-17 11:31:10,0.0
-10792,-468,-2696,868,-5457,-2446,2025-02-17 11:31:10,0.0
-11140,-564,-3908,1149,-2194,-2519,2025-02-17 11:31:10,0.0
-11680,-1540,-6004,652,2077,-2137,2025-02-17 11:31:10,0.0
-12228,-1660,-4548,-8,5289,-1917,2025-02-17 11:31:11,0.0
-14276,-1664,-4180,-124,6177,-1770,2025-02-17 11:31:11,0.0
-15404,-1164,-4512,-436,5188,-999,2025-02-17 11:31:11,0.0
-15648,-212,-4744,-415,2830,-196,2025-02-17 11:31:11,0.0
-14412,1108,-5084,-412,-682,368,2025-02-17 11:31:11,0.0
-13160,1752,-5460,-888,-2893,514,2025-02-17 11:31:11,0.0
-11656,1600,-4900,-1674,-2007,206,2025-02-17 11:31:11,0.0
-11048,1212,-4744,-2318,-232,-730,2025-02-17 11:31:11,0.0
-11724,744,-4776,-3483,1536,-1737,2025-02-17 11:31:11,0.0
-12728,640,-4068,-4543,1752,-2099,2025-02-17 11:31:11,0.0
-13768,484,-3344,-5060,486,-2382,2025-02-17 11:31:11,0.0
-14240,1156,-4636,-5552,-1510,-2182,2025-02-17 11:31:11,0.0
-13672,1940,-4900,-6362,-2738,-2129,2025-02-17 11:31:11,0.0
-13660,2092,-3520,-7287,-2731,-2514,2025-02-17 11:31:11,0.0
-13984,1440,-1992,-7750,-2385,-2597,2025-02-17 11:31:11,0.0
-14228,1092,-2408,-7850,-2953,-2441,2025-02-17 11:31:11,0.0
-14048,436,-2700,-7933,-4961,-2228,2025-02-17 11:31:11,0.0
-15068,-300,-4740,-8386,-6146,-1271,2025-02-17 11:31:11,0.0
-15048,-588,-5504,-9996,-5757,463,2025-02-17 11:31:11,0.0
-14272,-344,-4796,-11146,-4406,1662,2025-02-17 11:31:11,0.0
-10780,748,-3976,-11295,-4164,793,2025-02-17 11:31:11,0.0
-9820,2024,-5040,-11437,-3580,-1759,2025-02-17 11:31:11,0.0
-10528,2056,-5800,-12679,-1809,-3744,2025-02-17 11:31:11,0.0
-11844,904,-5616,-13354,393,-4131,2025-02-17 11:31:11,0.0
-12340,-448,-5500,-14387,658,-3964,2025-02-17 11:31:11,0.0
-12664,-1024,-4996,-14777,-781,-3882,2025-02-17 11:31:11,0.0
-12868,-1408,-5268,-15133,-2096,-3423,2025-02-17 11:31:11,0.0
-12312,-1524,-6092,-15728,-3597,-3340,2025-02-17 11:31:11,0.0
-11312,-2304,-6404,-16688,-4151,-3587,2025-02-17 11:31:11,0.0
-10612,-3140,-6504,-17241,-3506,-3966,2025-02-17 11:31:11,0.0
-9920,-3324,-6080,-17594,-1527,-4470,2025-02-17 11:31:11,0.0
-10588,-3152,-5480,-18151,1386,-5066,2025-02-17 11:31:11,0.0
-11832,-2376,-4312,-18696,4401,-5461,2025-02-17 11:31:11,0.0
-13984,-3036,-3592,-19944,6598,-6476,2025-02-17 11:31:11,0.0
-16088,-3204,-4420,-20510,6391,-7269,2025-02-17 11:31:11,0.0
-17284,-3360,-5980,-20927,3610,-7428,2025-02-17 11:31:11,0.0
-17072,-3080,-6588,-21456,-2247,-7175,2025-02-17 11:31:11,0.0
-15444,-2304,-6048,-22018,-6209,-6524,2025-02-17 11:31:11,0.0
-12140,-1796,-5360,-22297,-8852,-6223,2025-02-17 11:31:11,0.0
-10536,-2124,-5168,-22662,-9497,-5989,2025-02-17 11:31:11,0.0
-9264,-3244,-4976,-23166,-8250,-6664,2025-02-17 11:31:11,0.0
-9796,-4264,-4276,-23482,-6153,-6692,2025-02-17 11:31:11,0.0
-10856,-5752,-3528,-23724,-2791,-6629,2025-02-17 11:31:11,0.0
-11452,-6700,-3416,-23570,993,-5894,2025-02-17 11:31:11,0.0
-12000,-6720,-3824,-23145,2682,-5792,2025-02-17 11:31:11,0.0
-13268,-6032,-3960,-22446,2005,-5210,2025-02-17 11:31:11,0.0
-12824,-4684,-4208,-22269,1517,-4741,2025-02-17 11:31:11,0.0
-12196,-3660,-4332,-22419,1861,-4930,2025-02-17 11:31:11,0.0
-12312,-3616,-3140,-22408,1769,-5132,2025-02-17 11:31:11,0.0
-13192,-4412,-1764,-21667,1202,-5031,2025-02-17 11:31:11,0.0
-13756,-4836,-1556,-20798,-47,-4680,2025-02-17 11:31:11,
-14008,-4612,-1964,-20521,-1664,-4104,2025-02-17 11:31:11,0.0
-13420,-4688,-3036,-20853,-3654,-3703,2025-02-17 11:31:11,0.0
-13236,-4944,-2636,-21330,-5237,-3129,2025-02-17 11:31:11,0.0
-12712,-4968,-2604,-21477,-6400,-2318,2025-02-17 11:31:11,0.0
-12320,-5492,-2848,-21221,-7288,-1085,2025-02-17 11:31:11,0.0
-12600,-5640,-4632,-19908,-5819,667,2025-02-17 11:31:11,0.0
-12216,-4036,-7688,-19048,-1213,731,2025-02-17 11:31:11,0.0
-12288,-2220,-5336,-18617,4952,-1060,2025-02-17 11:31:11,0.0
-11852,-2416,-2576,-17476,7332,-3824,2025-02-17 11:31:11,0.0
-14356,-2464,-1184,-16916,5169,-4974,2025-02-17 11:31:11,0.0
-16132,-1312,-228,-15156,1233,-2398,2025-02-17 11:31:12,0.0
-13616,-152,-1588,-13911,940,-724,2025-02-17 11:31:12,0.0
-12028,1008,-3896,-14495,2535,-1235,2025-02-17 11:31:12,0.0
-13132,1484,-4528,-15313,4708,-1984,2025-02-17 11:31:12,0.0
-15584,884,-4432,-16304,5313,-1772,2025-02-17 11:31:12,0.0
-16444,668,-2904,-16132,2989,-670,2025-02-17 11:31:12,0.0
-12392,1328,-2624,-15117,320,-2717,2025-02-17 11:31:12,0.0
-13348,188,-3232,-15348,1253,-3533,2025-02-17 11:31:12,0.0
-12216,-252,-1872,-15171,3001,-3224,2025-02-17 11:31:12,0.0
-11196,8,-1260,-14807,3290,-4000,2025-02-17 11:31:12,0.0
-12272,492,-1960,-15172,3206,-5038,2025-02-17 11:31:12,0.0
-13356,672,-1888,-15699,2369,-5911,2025-02-17 11:31:12,0.0
-13860,500,-2184,-16015,893,-6207,2025-02-17 11:31:12,0.0
-14360,188,-2668,-16253,-753,-5620,2025-02-17 11:31:12,0.0
-13444,8,-1944,-16121,-2081,-4606,2025-02-17 11:31:12,0.0
-11680,-8,-1696,-15500,-2401,-4722,2025-02-17 11:31:12,0.0
-10912,340,-2600,-15514,-1515,-5395,2025-02-17 11:31:12,0.0
-10520,768,-2404,-15736,-180,-6080,2025-02-17 11:31:12,0.0
-11340,1408,-3692,-15500,1396,-6640,2025-02-17 11:31:12,0.0
-12188,1612,-4820,-15749,2453,-7188,2025-02-17 11:31:12,0.0
-13384,1232,-5808,-16000,3131,-7728,2025-02-17 11:31:12,0.0
-13684,900,-4472,-15696,3381,-8242,2025-02-17 11:31:12,0.0
-13884,-340,-5136,-15080,3247,-8404,2025-02-17 11:31:12,0.0
-13584,-1488,-5580,-15314,2416,-7721,2025-02-17 11:31:12,0.0
-13132,-2780,-4060,-14684,999,-6843,2025-02-17 11:31:12,0.0
-12816,-3236,-3540,-13797,449,-5961,2025-02-17 11:31:12,0.0
-12444,-3548,-2956,-13223,398,-4956,2025-02-17 11:31:12,0.0
-12300,-1332,-1872,-11624,1643,-3641,2025-02-17 11:31:12,0.0
-11628,480,-3496,-10237,1964,-3118,2025-02-17 11:31:12,0.0
-11164,668,-4632,-10222,976,-3317,2025-02-17 11:31:12,0.0
-10456,-612,-2372,-10446,-903,-3949,2025-02-17 11:31:12,0.0
-10768,-2156,2580,-7839,-1394,-4853,2025-02-17 11:31:12,0.0
-14012,-2960,-1832,-3995,2910,-4062,2025-02-17 11:31:12,0.0
-16196,-2456,-7560,-4079,6576,-1870,2025-02-17 11:31:12,0.0
-16016,-2508,-7264,-5610,8093,-751,2025-02-17 11:31:12,0.0
-15688,-1600,-3692,-5285,7024,-530,2025-02-17 11:31:12,0.0
-15448,-200,-1216,-3755,4080,-526,2025-02-17 11:31:12,0.0
-15368,1856,-640,-2294,760,-680,2025-02-17 11:31:12,0.0
-14020,2792,-2772,-1907,-1501,-1673,2025-02-17 11:31:12,0.0
-14228,2216,-4756,-3389,-1834,-3829,2025-02-17 11:31:12,0.0
-14940,1152,-4644,-4311,-1631,-3554,2025-02-17 11:31:12,0.0
-13960,408,-4016,-4538,-2111,-3515,2025-02-17 11:31:12,0.0
-13332,-136,-3268,-4718,-3947,-3834,2025-02-17 11:31:12,0.0
-13148,-680,-2348,-4730,-4968,-3584,2025-02-17 11:31:12,0.0
-12308,-980,-2328,-4368,-5280,-3193,2025-02-17 11:31:12,0.0
-11540,-1620,-3344,-4347,-4823,-3104,2025-02-17 11:31:12,0.0
-11372,-2160,-4492,-4801,-2953,-3278,2025-02-17 11:31:12,0.0
-11676,-1932,-4236,-5117,-949,-3467,2025-02-17 11:31:12,0.0
-12204,-1960,-3844,-5010,21,-3536,2025-02-17 11:31:12,0.0
-13204,-2420,-3252,-4952,81,-3551,2025-02-17 11:31:12,0.0
-13660,-3020,-2176,-4827,-570,-3604,2025-02-17 11:31:12,0.0
-13720,-3456,-2652,-4700,-1472,-4013,2025-02-17 11:31:12,0.0
-13976,-3460,-2764,-4457,-2543,-4265,2025-02-17 11:31:12,0.0
-13828,-3036,-2672,-4428,-2297,-4061,2025-02-17 11:31:12,0.0
-13056,-2432,-2488,-4040,-1345,-3955,2025-02-17 11:31:12,0.0
-12072,-2556,-3148,-3540,-1009,-3980,2025-02-17 11:31:12,0.0
-11580,-2752,-2852,-2820,-800,-4040,2025-02-17 11:31:12,0.0
-11284,-2924,-3636,-2455,-748,-3705,2025-02-17 11:31:12,0.0
-11096,-3072,-4104,-2555,211,-3577,2025-02-17 11:31:12,0.0
-11540,-3500,-3748,-2639,1456,-3476,2025-02-17 11:31:12,0.0
-12528,-3164,-3024,-2914,2806,-3044,2025-02-17 11:31:12,0.0
-13092,-2488,-2980,-3147,2969,-2965,2025-02-17 11:31:13,0.0
-13620,-1928,-1932,-2938,2065,-3206,2025-02-17 11:31:13,0.0
-13944,-1688,-1748,-2541,343,-3126,2025-02-17 11:31:13,0.0
-12972,-2008,-1340,-2288,-1027,-3277,2025-02-17 11:31:13,0.0
-12504,-2528,-1452,-1901,-1936,-3663,2025-02-17 11:31:13,0.0
-12360,-2780,-1636,-1841,-2215,-3536,2025-02-17 11:31:13,0.0
-12412,-2996,-1400,-1965,-1806,-2802,2025-02-17 11:31:13,0.0
-12092,-2896,-1340,-2443,-773,-1911,2025-02-17 11:31:13,0.0
-11624,-2616,-1092,-2999,819,-1204,2025-02-17 11:31:13,0.0
-11180,-2480,-1120,-3698,2231,-1192,2025-02-17 11:31:13,0.0
-11248,-2616,-1620,-4961,3954,-1649,2025-02-17 11:31:13,0.0
-12352,-2508,-2280,-6368,5004,-1817,2025-02-17 11:31:13,0.0
-12568,-2892,-2228,-7350,5626,-1565,2025-02-17 11:31:13,0.0
-12824,-3164,-804,-6320,5479,-1370,2025-02-17 11:31:13,0.0
-14152,-3372,-1828,-4116,4392,-752,2025-02-17 11:31:13,0.0
-15176,-3200,-2872,-3793,3261,458,2025-02-17 11:31:13,0.0
-15060,-3904,-2216,-4362,3228,-518,2025-02-17 11:31:13,0.0
-15836,-4968,-1976,-4485,2646,-1880,2025-02-17 11:31:13,0.0
-16748,-6228,-2332,-4290,823,-2302,2025-02-17 11:31:13,0.0
-17616,-6416,-580,-3841,-850,-1574,2025-02-17 11:31:13,0.0
-17148,-6260,940,-2943,-636,-620,2025-02-17 11:31:13,0.0
-16376,-5752,632,-2529,356,-5,2025-02-17 11:31:13,0.0
-15516,-7108,-3024,-2625,892,541,2025-02-17 11:31:13,0.0
-16448,-7568,-5796,-3041,2414,670,2025-02-17 11:31:13,0.0
-17392,-7200,-1652,842,4356,300,2025-02-17 11:31:13,0.0
-18224,-8280,-8128,2645,4018,-198,2025-02-17 11:31:13,0.0
-18284,-7636,-10520,2536,-997,1152,2025-02-17 11:31:13,0.0
-17340,-5304,-11260,2569,-6051,4362,2025-02-17 11:31:13,0.0
-12380,-3124,-9520,3563,-6652,5474,2025-02-17 11:31:13,
-8692,-1452,-10120,4561,-7326,4265,2025-02-17 11:31:13,0.0
-8696,-140,-9608,5114,-7791,3971,2025-02-17 11:31:13,0.0
-9552,968,-9336,5226,-6322,5299,2025-02-17 11:31:13,0.0
-9960,1216,-8492,5266,-3696,6763,2025-02-17 11:31:13,0.0
-10172,1052,-7596,4939,-1348,7197,2025-02-17 11:31:13,0.0
-10468,620,-7020,4213,1373,5868,2025-02-17 11:31:13,0.0
-11024,-1052,-6440,3322,2181,4213,2025-02-17 11:31:13,0.0
-11948,-2728,-5344,3338,1666,4121,2025-02-17 11:31:13,0.0
-11540,-3564,-5016,4029,1667,4597,2025-02-17 11:31:13,0.0
-11060,-3424,-5172,4449,1219,4915,2025-02-17 11:31:13,0.0
-11108,-2880,-4304,4339,-5,4716,2025-02-17 11:31:13,0.0
-11904,-1500,-3640,4687,-921,4718,2025-02-17 11:31:13,0.0
-11704,-484,-3908,4842,-1533,4991,2025-02-17 11:31:13,0.0
-11120,568,-3952,5102,-2508,4958,2025-02-17 11:31:13,0.0
-11872,728,-3460,5823,-3636,4967,2025-02-17 11:31:13,0.0
-12420,404,-2776,7216,-4524,5518,2025-02-17 11:31:13,0.0
-9000,2116,-2548,7935,-3538,4583,2025-02-17 11:31:13,0.0
-8224,2284,-3844,6894,-869,3144,2025-02-17 11:31:13,0.0
-9796,2080,-4072,5828,456,2428,2025-02-17 11:31:13,0.0
-11756,2100,-4072,4973,1086,3085,2025-02-17 11:31:13,0.0
-12260,2380,-4064,4846,1154,4063,2025-02-17 11:31:13,0.0
-11692,2476,-2636,5197,-326,3923,2025-02-17 11:31:13,0.0
-10468,2416,-4876,4641,-2520,2110,2025-02-17 11:31:13,0.0
-10952,668,-5364,2266,-912,845,2025-02-17 11:31:13,0.0
-10012,488,-3632,659,1448,84,2025-02-17 11:31:13,0.0
-11056,668,-2064,170,2516,-123,2025-02-17 11:31:13,0.0
-11440,1460,-180,955,1853,-953,2025-02-17 11:31:13,0.0
-13112,1000,-1036,556,633,-1281,2025-02-17 11:31:13,0.0
-13636,1004,-808,589,-984,-1579,2025-02-17 11:31:14,0.0
-14004,308,-2208,527,-2703,-1669,2025-02-17 11:31:14,0.0
-13884,-1608,-3028,585,-3520,-1601,2025-02-17 11:31:14,0.0
-13552,-2768,-3432,1078,-2974,-1633,2025-02-17 11:31:14,0.0
-14484,-436,-2848,1736,-1333,-844,2025-02-17 11:31:14,0.0
-16724,-188,-2512,1872,927,726,2025-02-17 11:31:14,0.0
-15612,-500,-156,3502,-3036,4024,2025-02-17 11:31:14,0.0
-12432,1404,-1988,3265,-3869,1971,2025-02-17 11:31:14,0.0
-16212,-1292,-2160,4188,-1201,2244,2025-02-17 11:31:14,0.0
-18044,2716,-6856,5271,1683,3128,2025-02-17 11:31:14,0.0
-18500,2668,-9612,3196,2498,3061,2025-02-17 11:31:14,0.0
-17340,3248,-10420,1194,2151,2160,2025-02-17 11:31:14,0.0
-14936,3308,-7952,1054,-713,1390,2025-02-17 11:31:14,0.0
-12548,1780,-6220,1762,-3966,-45,2025-02-17 11:31:14,0.0
-10552,-548,-6428,895,-4739,-258,2025-02-17 11:31:14,0.0
-7440,-1848,-4492,597,-2039,-387,2025-02-17 11:31:14,0.0
-6724,-3712,-3004,2277,832,-750,2025-02-17 11:31:14,0.0
-8288,-3816,-5468,1917,2856,-597,2025-02-17 11:31:14,0.0
-10336,-2704,-5552,955,4899,-149,2025-02-17 11:31:14,0.0
-11904,-580,-6880,-73,6464,-381,2025-02-17 11:31:14,0.0
-13432,1272,-6852,-1290,5475,-1836,2025-02-17 11:31:14,0.0
-14008,1612,-6560,-1476,3119,-3451,2025-02-17 11:31:14,0.0
-14368,520,-6336,-1648,723,-4368,2025-02-17 11:31:14,0.0
-13460,-280,-6152,-1670,-1556,-4802,2025-02-17 11:31:14,0.0
-11744,-848,-5244,-1284,-2798,-5048,2025-02-17 11:31:14,0.0
-10740,-1320,-5236,-776,-3182,-5187,2025-02-17 11:31:14,0.0
-10360,-1484,-5084,-738,-2468,-5142,2025-02-17 11:31:14,0.0
-9704,-1464,-5160,-1692,-1068,-5140,2025-02-17 11:31:14,0.0
-9212,-1512,-5184,-2651,66,-5621,2025-02-17 11:31:14,0.0
-9568,-1624,-5776,-3465,1679,-6337,2025-02-17 11:31:14,0.0
-11632,-2176,-5688,-4319,3599,-6089,2025-02-17 11:31:14,0.0
-13212,-3668,-4952,-4924,4190,-4751,2025-02-17 11:31:14,0.0
-14456,-4228,-3944,-4520,3555,-3315,2025-02-17 11:31:14,0.0
-14480,-3804,-3984,-3470,2274,-1925,2025-02-17 11:31:14,0.0
-13524,-2388,-4312,-3343,1237,-1675,2025-02-17 11:31:14,0.0
-13496,-1864,-4064,-3550,306,-1722,2025-02-17 11:31:14,0.0
-12996,-2028,-3248,-2963,4,-1389,2025-02-17 11:31:14,0.0
-12708,-2336,-3716,-2592,222,-1279,2025-02-17 11:31:14,0.0
-12312,-2520,-4468,-2617,90,-959,2025-02-17 11:31:14,0.0
-12380,-2504,-4740,-2726,314,-623,2025-02-17 11:31:14,0.0
-11728,-2132,-4956,-3209,483,-634,2025-02-17 11:31:14,0.0
-11852,-1552,-3788,-3553,501,-835,2025-02-17 11:31:14,0.0
-12320,-1504,-3792,-3650,839,-772,2025-02-17 11:31:14,0.0
-12228,-1196,-3736,-4123,1160,-680,2025-02-17 11:31:14,0.0
-12940,-1492,-3084,-4587,1546,-405,2025-02-17 11:31:14,0.0
-13360,-1468,-2224,-4277,890,251,2025-02-17 11:31:14,0.0
-13364,-964,-2160,-3932,-262,1170,2025-02-17 11:31:14,0.0
-12956,-1628,-1088,-3423,-1523,2076,2025-02-17 11:31:14,0.0
-12880,-2728,-608,-2889,-2371,3295,2025-02-17 11:31:14,0.0
-12528,-4148,-1012,-1951,-3228,4613,2025-02-17 11:31:14,0.0
-11672,-6004,-6600,-1292,-2827,4661,2025-02-17 11:31:14,0.0
-12324,-5924,-12044,-58,-356,3670,2025-02-17 11:31:14,0.0
-12668,-3500,-11272,1969,7009,333,2025-02-17 11:31:14,0.0
-14384,-3728,-5488,2700,9117,-3456,2025-02-17 11:31:14,0.0
-18320,-3140,-2496,3057,3023,-1146,2025-02-17 11:31:14,0.0
-15432,-3884,-1820,4626,-3053,1892,2025-02-17 11:31:14,0.0
-13576,-3228,-3496,6444,-4793,2340,2025-02-17 11:31:14,0.0
-12248,-3108,-3176,7211,-4800,2710,2025-02-17 11:31:14,0.0
-11404,-2384,-2812,8494,-3742,3008,2025-02-17 11:31:14,0.0
-12208,-2848,-3936,9053,-1943,4139,2025-02-17 11:31:14,0.0
-11528,-4460,-5124,10520,-1341,4795,2025-02-17 11:31:14,0.0
-11568,-4364,-6364,11368,-741,4196,2025-02-17 11:31:14,0.0
-11312,-2920,-6088,11001,-271,3266,2025-02-17 11:31:14,0.0
-11404,-1208,-4328,11348,-297,1729,2025-02-17 11:31:14,0.0
-12576,-288,-3660,12625,-504,2311,2025-02-17 11:31:14,0.0
-12712,-1196,-3780,14562,-112,3659,2025-02-17 11:31:15,0.0
-12296,-2440,-5168,15285,1107,4406,2025-02-17 11:31:15,0.0
-12780,-3424,-4588,16166,1783,4850,2025-02-17 11:31:15,0.0
-13968,-4004,-4236,17118,1201,5655,2025-02-17 11:31:15,0.0
-14960,-4384,-4672,18252,-104,6958,2025-02-17 11:31:15,0.0
-13052,-4032,-5140,19418,-1581,7459,2025-02-17 11:31:15,0.0
-11832,-3388,-5132,20243,-1951,6622,2025-02-17 11:31:15,
-10972,-3376,-4496,20974,-1600,5846,2025-02-17 11:31:15,0.0
-10496,-3552,-4664,21552,-1691,5122,2025-02-17 11:31:15,0.0
-11204,-3752,-4472,21964,-1690,4762,2025-02-17 11:31:15,0.0
-10836,-3840,-3648,22716,-1838,4311,2025-02-17 11:31:15,5
-10360,-3992,-3360,24032,-2290,2834,2025-02-17 11:31:15,5
-10720,-3492,-4444,24792,-2520,206,2025-02-17 11:31:15,5
-12220,-3312,-5048,24481,-2532,-1493,2025-02-17 11:31:15,5
-14536,-3540,-5624,23207,-2163,-1149,2025-02-17 11:31:15,5
-15604,-3952,-4840,21868,-1943,1005,2025-02-17 11:31:15,5
-14580,-4364,-3964,21776,-2132,3011,2025-02-17 11:31:15,5
-12820,-4448,-4344,22071,-2327,3100,2025-02-17 11:31:15,5
-12100,-4580,-5684,21817,-919,1561,2025-02-17 11:31:15,5
-12044,-3768,-6744,19998,2329,-711,2025-02-17 11:31:15,5
-12612,-3140,-8056,17086,6400,-2293,2025-02-17 11:31:15,5
-13644,-2384,-7108,14538,11474,-2517,2025-02-17 11:31:15,5
-11616,-2336,-5408,12759,15149,-63,2025-02-17 11:31:15,5
-9260,-1664,-3740,10559,17960,4062,2025-02-17 11:31:15,5
-7268,-1308,-872,8353,20325,7725,2025-02-17 11:31:15,5
-6864,-1896,1644,9225,25008,13803,2025-02-17 11:31:15,5
-3204,-2336,1572,7799,32767,19152,2025-02-17 11:31:15,5
-1504,-784,3108,6329,32767,20588,2025-02-17 11:31:15,5
220,-1568,3224,5524,32767,23511,2025-02-17 11:31:15,5
2612,-2144,3776,4808,32767,24551,2025-02-17 11:31:15,5
3408,-2244,2536,3281,32767,24344,2025-02-17 11:31:15,5
2632,-1868,2380,1032,32767,23965,2025-02-17 11:31:15,5
2388,-1840,2184,-1453,32767,23675,2025-02-17 11:31:15,5
2688,-1804,2176,-3441,32767,23209,2025-02-17 11:31:15,5
2500,-1748,2524,-5224,32767,22610,2025-02-17 11:31:15,5
2136,-1792,2644,-6791,32767,22276,2025-02-17 11:31:15,5
2200,-1780,2744,-8145,32767,21978,2025-02-17 11:31:15,5
2500,-1532,3000,-9414,32767,21344,2025-02-17 11:31:15,5
2388,-1356,3408,-10264,32767,20715,2025-02-17 11:31:15,5
2560,-1324,3464,-10670,32767,19910,2025-02-17 11:31:15,5
2844,-1268,3576,-10825,32767,18862,2025-02-17 11:31:15,5
2664,-1220,3556,-10980,32767,17862,2025-02-17 11:31:15,5
2696,-1444,2968,-11282,32767,17021,2025-02-17 11:31:15,5
2420,-1476,3176,-11480,32767,16005,2025-02-17 11:31:15,5
2600,-916,4332,-10887,32767,14997,2025-02-17 11:31:15,5
2820,-1244,3160,-10475,32767,14052,2025-02-17 11:31:15,5
3024,-1356,2640,-10779,32767,13064,2025-02-17 11:31:15,5
3592,-1144,2508,-11110,32767,12139,2025-02-17 11:31:15,5
28296,1448,-10524,-962,-19901,32767,2025-02-17 11:31:15,5
-25480,-26548,27016,32767,-32768,32767,2025-02-17 11:31:15,5
32767,-32768,-32768,-32768,-32768,-18324,2025-02-17 11:31:15,5
-32768,-32768,8076,-32768,-32768,-32768,2025-02-17 11:31:15,5
-32768,-3312,9680,-32768,-32768,-8517,2025-02-17 11:31:15,5
-26284,540,12764,8346,-16514,773,2025-02-17 11:31:15,5
-7776,-1288,3708,19647,-10400,2101,2025-02-17 11:31:15,5
-4424,-620,-1696,20260,-2100,2716,2025-02-17 11:31:15,5
-2952,172,-2684,17319,5201,4083,2025-02-17 11:31:16,5
-3176,1072,-3764,14178,11342,5096,2025-02-17 11:31:16,5
-4892,2172,-8528,9311,20380,5007,2025-02-17 11:31:16,5
-7828,2840,-13084,3270,32767,3863,2025-02-17 11:31:16,5
-7176,2076,-14244,-227,32767,475,2025-02-17 11:31:16,5
-4632,-240,-17460,-1552,32767,-2625,2025-02-17 11:31:16,5
-196,-1468,-23984,-3494,32767,-2601,2025-02-17 11:31:16,5
7204,-1620,-24920,-6073,17353,-2110,2025-02-17 11:31:16,5
8868,1008,-15012,-4016,4831,-1619,2025-02-17 11:31:16,5
4228,2508,-9620,557,-6487,-409,2025-02-17 11:31:16,5
-1652,960,-14084,743,-7049,-851,2025-02-17 11:31:16,5
-5684,336,-15688,-435,-714,-837,2025-02-17 11:31:16,5
-2804,-644,-15560,-78,2173,154,2025-02-17 11:31:16,5
1068,1124,-14708,-352,1776,-126,2025-02-17 11:31:16,5
1232,624,-14256,-165,-556,-171,2025-02-17 11:31:16,5
-1296,656,-15032,-162,-745,-202,2025-02-17 11:31:16,5
-1544,560,-14896,-32,717,-206,2025-02-17 11:31:16,5
-420,536,-14592,-195,976,-191,2025-02-17 11:31:16,5
432,904,-14816,-146,24,-166,2025-02-17 11:31:16,5
-1308,444,-14864,-98,259,-199,2025-02-17 11:31:16,5
-1132,972,-14420,-70,1204,-357,2025-02-17 11:31:16,5
-604,328,-15188,-210,1820,-390,2025-02-17 11:31:16,5
240,792,-15344,-8,748,-257,2025-02-17 11:31:16,5
-516,372,-14352,37,202,-222,2025-02-17 11:31:16,5
-772,728,-14244,-9,828,-445,2025-02-17 11:31:16,5
128,404,-15136,-153,384,-176,2025-02-17 11:31:16,5
-172,924,-14460,-235,-322,-168,2025-02-17 11:31:16,5
-644,396,-15244,-134,85,-238,2025-02-17 11:31:16,5
-552,784,-14816,-182,342,-128,2025-02-17 11:31:16,5
-240,600,-14636,-92,223,-189,2025-02-17 11:31:16,5
-236,508,-15080,-239,1,-150,2025-02-17 11:31:16,5
-392,668,-14744,-136,42,-165,2025-02-17 11:31:16,5
-472,624,-14788,-172,162,-156,2025-02-17 11:31:16,5
-456,660,-14668,-158,190,-185,2025-02-17 11:31:16,5
-384,616,-14852,-146,163,-160,2025-02-17 11:31:16,5
-468,632,-14836,-159,151,-166,2025-02-17 11:31:16,5
-420,612,-14916,-129,208,-193,2025-02-17 11:31:16,5
-496,548,-14920,-146,210,-182,2025-02-17 11:31:16,5
-356,556,-14812,-159,173,-164,2025-02-17 11:31:16,5
-360,672,-14692,-147,169,-166,2025-02-17 11:31:16,5
-408,716,-14872,-143,190,-188,2025-02-17 11:31:16,5
-268,596,-14896,-144,174,-169,2025-02-17 11:31:16,5
-808,832,-14812,-124,156,-128,2025-02-17 11:31:16,5
-396,716,-14752,-45,273,-216,2025-02-17 11:31:16,5
-196,188,-15296,-130,324,-196,2025-02-17 11:31:16,5
-312,584,-14616,-285,81,-131,2025-02-17 11:31:16,5
-468,660,-14680,-256,-36,-180,2025-02-17 11:31:16,5
-756,764,-14984,-188,224,-179,2025-02-17 11:31:16,5
-384,724,-14644,-119,311,-178,2025-02-17 11:31:16,5
-184,484,-15104,-156,158,-183,2025-02-17 11:31:16,5
-496,524,-14792,-202,87,-154,2025-02-17 11:31:16,5
-532,684,-14852,-177,173,-193,2025-02-17 11:31:16,5
-420,620,-14844,-56,230,-161,2025-02-17 11:31:16,5
-372,548,-14736,-182,123,-198,2025-02-17 11:31:16,5
-484,764,-14792,-166,155,-178,2025-02-17 11:31:16,5
-508,672,-14864,-169,157,-165,2025-02-17 11:31:16,0.0
-340,612,-14864,-127,210,-173,2025-02-17 11:31:16,0.0
-396,604,-14800,-159,193,-177,2025-02-17 11:31:16,0.0
-420,648,-14896,-161,163,-172,2025-02-17 11:31:16,0.0
-416,740,-14856,-142,198,-181,2025-02-17 11:31:16,0.0
-364,576,-14864,-158,179,-189,2025-02-17 11:31:16,0.0
-384,580,-14820,-180,148,-166,2025-02-17 11:31:16,0.0
-392,644,-14840,-157,171,-169,2025-02-17 11:31:16,0.0
-384,576,-14916,-160,164,-157,2025-02-17 11:31:16,0.0
-328,700,-14856,-149,176,-188,2025-02-17 11:31:17,0.0
-280,600,-14768,-154,192,-181,2025-02-17 11:31:17,0.0
-444,584,-14876,-165,169,-179,2025-02-17 11:31:17,0.0
-352,612,-14880,-163,175,-187,2025-02-17 11:31:17,0.0
-372,592,-14936,-171,192,-190,2025-02-17 11:31:17,0.0
-324,644,-14816,-197,190,-195,2025-02-17 11:31:17,0.0
-340,684,-14880,-168,193,-166,2025-02-17 11:31:17,0.0
-428,596,-14860,-164,165,-182,2025-02-17 11:31:17,0.0
-360,680,-14920,-146,149,-172,2025-02-17 11:31:17,0.0
-428,764,-14752,-177,175,-166,2025-02-17 11:31:17,0.0
-360,632,-14860,-168,161,-177,2025-02-17 11:31:17,0.0
-376,664,-14820,-169,167,-190,2025-02-17 11:31:17,0.0
-380,644,-14816,-176,181,-170,2025-02-17 11:31:17,0.0
-404,688,-14804,-167,176,-163,2025-02-17 11:31:17,0.0
-452,668,-14912,-170,162,-197,2025-02-17 11:31:17,0.0
-536,608,-14688,-171,170,-159,2025-02-17 11:31:17,0.0
-436,712,-14836,-158,183,-181,2025-02-17 11:31:17,0.0
-408,776,-14820,-173,184,-186,2025-02-17 11:31:17,0.0
-304,568,-14900,-146,186,-159,2025-02-17 11:31:17,0.0
-1896,1408,-14824,-111,187,135,2025-02-17 11:31:17,0.0
-2024,1048,-13320,70,-388,819,2025-02-17 11:31:17,0.0
-2684,256,-15124,178,-138,1126,2025-02-17 11:31:17,0.0
1488,864,-14928,171,1771,626,2025-02-17 11:31:17,0.0
1380,1008,-14808,33,523,680,2025-02-17 11:31:17,0.0
40,736,-14840,285,-458,1066,2025-02-17 11:31:17,0.0
-372,-56,-15356,296,466,519,2025-02-17 11:31:17,0.0
764,-1072,-15692,-146,719,107,2025-02-17 11:31:17,0.0
972,-564,-14692,-531,-153,-544,2025-02-17 11:31:17,0.0
-996,1340,-14980,-938,-589,124,2025-02-17 11:31:17,0.0
-1288,1824,-14456,-215,395,-247,2025-02-17 11:31:17,0.0
-260,512,-14900,43,297,-234,2025-02-17 11:31:17,0.0
-852,548,-14820,-272,207,-149,2025-02-17 11:31:17,0.0
112,776,-15124,-112,394,-219,2025-02-17 11:31:17,0.0
-196,420,-14760,-194,41,-137,2025-02-17 11:31:17,0.0
-560,852,-14776,-166,143,-170,2025-02-17 11:31:17,0.0
-552,596,-14944,-83,319,-191,2025-02-17 11:31:17,0.0
-88,528,-14648,-166,171,-176,2025-02-17 11:31:17,0.0
-420,708,-14820,-177,23,-189,2025-02-17 11:31:17,0.0
-408,668,-14812,-168,268,-170,2025-02-17 11:31:17,0.0
-368,700,-14696,-133,163,-176,2025-02-17 11:31:17,0.0
-344,608,-14948,-173,154,-192,2025-02-17 11:31:17,0.0
-276,700,-14760,-172,153,-168,2025-02-17 11:31:17,0.0
-492,696,-14868,-119,128,-182,2025-02-17 11:31:17,0.0
-388,560,-14836,-124,216,-184,2025-02-17 11:31:17,0.0
-324,612,-14824,-133,187,-176,2025-02-17 11:31:17,0.0
-272,524,-14888,-166,154,-164,2025-02-17 11:31:17,0.0
-340,680,-14768,-193,122,-170,2025-02-17 11:31:17,0.0
-108,432,-14660,-162,159,-210,2025-02-17 11:31:17,0.0
68,604,-14984,-197,-32,-316,2025-02-17 11:31:17,0.0
-360,832,-14548,17,38,-365,2025-02-17 11:31:17,0.0
-296,436,-15356,-42,603,-465,2025-02-17 11:31:17,0.0
-560,672,-14580,-282,1250,-674,2025-02-17 11:31:17,0.0
-548,656,-15220,-146,2835,-1246,2025-02-17 11:31:17,0.0
-244,288,-15436,-153,3357,-1782,2025-02-17 11:31:17,0.0
1276,8,-15672,-183,4611,-2895,2025-02-17 11:31:17,0.0
-8,1440,-14548,-469,4203,-3651,2025-02-17 11:31:17,0.0
-816,1300,-13280,354,-210,-1430,2025-02-17 11:31:17,0.0
1924,-1476,-16028,1295,-1921,573,2025-02-17 11:31:17,0.0
2776,1112,-12516,2006,-3396,484,2025-02-17 11:31:17,0.0
-1352,864,-16068,5347,-4122,228,2025-02-17 11:31:17,0.0
920,-676,-16856,4585,-2867,1053,2025-02-17 11:31:17,0.0
-2076,-984,-16520,783,-1974,439,2025-02-17 11:31:17,0.0
112,-148,-12344,-2337,-2019,3,2025-02-17 11:31:18,0.0
-484,3592,-15712,2804,-3370,289,2025-02-17 11:31:18,0.0
-968,48,-19492,1205,-5666,-110,2025-02-17 11:31:18,0.0
-2116,-2268,-17136,-2750,-6912,138,2025-02-17 11:31:18,0.0
-2428,-980,-14756,-3615,-3341,189,2025-02-17 11:31:18,0.0
-1496,1560,-15084,-3760,-4327,1463,2025-02-17 11:31:18,0.0
-572,2348,-19316,-3385,-7282,1392,2025-02-17 11:31:18,0.0
840,4772,-17368,-2395,-7989,-769,2025-02-17 11:31:18,0.0
-468,4532,-20372,-324,-9483,-1513,2025-02-17 11:31:18,0.0
-1456,3296,-23164,-2483,-9154,-1602,2025-02-17 11:31:18,0.0
-5108,2464,-20696,-2798,-7519,1019,2025-02-17 11:31:18,0.0
-6440,1980,-19640,-1199,-3367,4904,2025-02-17 11:31:18,0.0
-3964,2516,-18672,1914,925,8157,2025-02-17 11:31:18,0.0
-1428,2376,-21384,5383,3369,7559,2025-02-17 11:31:18,0.0
-1708,2192,-23884,4518,7137,6019,2025-02-17 11:31:18,0.0
-2244,2848,-20144,3179,10973,5011,2025-02-17 11:31:18,0.0
-2376,2308,-16168,4739,12452,5571,2025-02-17 11:31:18,0.0
-1988,896,-18072,6280,16782,3880,2025-02-17 11:31:18,0.0
-2288,-364,-21976,4560,21964,887,2025-02-17 11:31:18,0.0
-988,-1696,-21352,2055,22526,-974,2025-02-17 11:31:18,0.0
980,-3000,-18404,751,15188,-2391,2025-02-17 11:31:18,0.0
2628,-3188,-17776,109,2368,-2204,2025-02-17 11:31:18,0.0
2960,-2624,-18672,-8,-9151,-2503,2025-02-17 11:31:18,0.0
1940,-2744,-22020,1032,-16264,-3106,2025-02-17 11:31:18,0.0
-1332,-3276,-22888,354,-20947,-2037,2025-02-17 11:31:18,
-3772,-4176,-22428,-454,-23320,1074,2025-02-17 11:31:18,0.0
-4024,-4244,-21984,-1554,-23178,4278,2025-02-17 11:31:18,0.0
-3332,-3372,-19924,-2562,-20668,4812,2025-02-17 11:31:18,0.0
-3780,-2340,-17552,-1184,-14895,3170,2025-02-17 11:31:18,0.0
-3704,-820,-17888,1330,-6307,-17,2025-02-17 11:31:18,0.0
-5616,232,-19924,1170,3520,-2396,2025-02-17 11:31:18,0.0
-3244,1312,-13280,-1689,11629,-2602,2025-02-17 11:31:18,0.0
-2736,3184,-10732,4687,7564,-1397,2025-02-17 11:31:18,0.0
-744,2044,-14564,9817,-2363,2011,2025-02-17 11:31:18,0.0
956,-1404,-16996,10151,-13536,4204,2025-02-17 11:31:18,0.0
-512,-7868,-14748,8041,-21960,4584,2025-02-17 11:31:18,0.0
-748,-7608,-12216,5208,-24717,4138,2025-02-17 11:31:18,0.0
-1576,-6352,-8872,3363,-23155,2873,2025-02-17 11:31:18,0.0
-2548,-4516,-7304,3717,-18626,2020,2025-02-17 11:31:18,0.0
-2876,-2904,-8072,4528,-13653,2012,2025-02-17 11:31:18,0.0
-3032,-2076,-7472,5210,-8798,2293,2025-02-17 11:31:18,0.0
-3688,-1408,-5820,7376,-3500,3763,2025-02-17 11:31:18,0.0
-3512,-2076,-5576,8723,669,4710,2025-02-17 11:31:18,0.0
-2796,-2788,-3792,9627,3530,5255,2025-02-17 11:31:18,0.0
-1264,-1888,-5184,10504,3333,5710,2025-02-17 11:31:18,0.0
-1012,-1492,-8364,9915,705,5767,2025-02-17 11:31:18,0.0
-4308,-1580,-14392,7221,-1744,5838,2025-02-17 11:31:18,0.0
-7148,-1384,-18284,2945,-783,7774,2025-02-17 11:31:18,0.0
-4744,-2048,-17288,-1083,2014,6495,2025-02-17 11:31:18,0.0
-7196,-1044,-16644,-2647,5533,4117,2025-02-17 11:31:18,0.0
-10448,-88,-14840,-5207,7880,5795,2025-02-17 11:31:18,0.0
-7672,-304,-9164,-4756,8867,7159,2025-02-17 11:31:18,0.0
-4928,-68,-7296,-3649,7583,6584,2025-02-17 11:31:18,0.0
-3064,-320,-6392,-3684,3782,4598,2025-02-17 11:31:18,0.0
-4520,-1192,-8296,-3877,-3262,2756,2025-02-17 11:31:18,0.0
-5124,-2000,-9700,-4186,-9420,2210,2025-02-17 11:31:18,0.0
-6216,-1908,-9716,-4765,-15187,2559,2025-02-17 11:31:18,0.0
-4128,-1144,-8688,-4904,-22050,2144,2025-02-17 11:31:18,0.0
-3292,168,-6972,-4567,-29798,1265,2025-02-17 11:31:18,0.0
-2888,444,-5588,-3254,-32768,365,2025-02-17 11:31:18,0.0
-3572,-80,-5532,-2171,-32768,-627,2025-02-17 11:31:19,0.0
-5392,-244,-5964,-1570,-32768,-954,2025-02-17 11:31:19,0.0
-6984,152,-5856,-1470,-32768,-143,2025-02-17 11:31:19,0.0
-7264,1424,-5452,-906,-32768,606,2025-02-17 11:31:19,0.0
-7772,2664,-5764,-828,-32768,632,2025-02-17 11:31:19,0.0
-7620,3540,-5132,-222,-32768,-488,2025-02-17 11:31:19,0.0
-7732,3596,-5448,-120,-32436,-2194,2025-02-17 11:31:19,0.0
-8584,3808,-5156,-1010,-22092,-3746,2025-02-17 11:31:19,0.0
-10816,4140,-1748,-580,-9109,-4079,2025-02-17 11:31:19,0.0
-12452,4012,840,1575,5093,-3127,2025-02-17 11:31:19,0.0
-12980,3892,3248,4483,18284,-1810,2025-02-17 11:31:19,0.0
-12572,3072,3544,7707,28622,-286,2025-02-17 11:31:19,0.0
-10996,1636,2280,9661,32767,643,2025-02-17 11:31:19,0.0
-10144,848,888,11055,32767,1004,2025-02-17 11:31:19,0.0
6208,-7892,32767,21753,15601,-858,2025-02-17 11:31:19,0.0
-14980,-3012,-996,21477,3946,-1633,2025-02-17 11:31:19,0.0
-15372,-6500,-11572,14276,1029,-2793,2025-02-17 11:31:19,0.0
-17240,-6716,-7508,9804,-4443,-2686,2025-02-17 11:31:19,0.0
-18428,-3460,-3368,8567,-10146,-1139,2025-02-17 11:31:19,0.0
-15548,-2308,-5788,6680,-17000,53,2025-02-17 11:31:19,0.0
-13356,-2776,-2464,6390,-19258,103,2025-02-17 11:31:19,0.0
-14652,-3128,-3084,6022,-15376,1888,2025-02-17 11:31:19,0.0
-12164,-2868,-1992,5936,-9054,2735,2025-02-17 11:31:19,0.0
-12704,-2288,-2644,5823,-3371,3994,2025-02-17 11:31:19,0.0
-11504,-2472,-1764,5363,997,4824,2025-02-17 11:31:19,0.0
-10708,-2488,-1312,5590,2243,3921,2025-02-17 11:31:19,0.0
-11488,-2232,-1068,5788,2000,2998,2025-02-17 11:31:19,0.0
-11768,-2480,-1280,5801,2332,1975,2025-02-17 11:31:19,0.0
-11764,-2164,-1220,5976,2414,1153,2025-02-17 11:31:19,0.0
-11976,-2044,-1804,5835,2604,284,2025-02-17 11:31:19,0.0
-12152,-1840,-1212,5736,2454,-274,2025-02-17 11:31:19,0.0
-12716,-1676,-1300,5684,2647,-301,2025-02-17 11:31:19,0.0
-13100,-1644,-1360,5459,3443,123,2025-02-17 11:31:19,0.0
-15028,-1248,-1492,2039,6296,-2162,2025-02-17 11:31:19,0.0
-14376,-1372,-1352,1105,4841,-2393,2025-02-17 11:31:19,0.0
-13944,-1896,-1548,362,3598,-2466,2025-02-17 11:31:19,0.0
-13468,-2208,-1132,307,3013,-2173,2025-02-17 11:31:19,0.0
-13508,-1764,-676,845,3312,-1823,2025-02-17 11:31:19,0.0
-12836,-1872,-1952,1124,3461,-1823,2025-02-17 11:31:19,0.0
-13376,-1476,-2172,659,3457,-1605,2025-02-17 11:31:19,0.0
-13988,-1392,-1860,-112,4276,-1058,2025-02-17 11:31:19,0.0
-13280,-2008,-1824,-336,5299,-489,2025-02-17 11:31:19,0.0
-13008,-2240,-1732,-70,4929,-253,2025-02-17 11:31:19,0.0
-12888,-2688,-2636,-59,3716,-10,2025-02-17 11:31:19,0.0
-12924,-2272,-3260,-847,2618,59,2025-02-17 11:31:19,0.0
-12680,-2236,-2068,-802,1576,-625,2025-02-17 11:31:19,0.0
-14724,-1708,-2352,-1852,-1859,-1280,2025-02-17 11:31:19,0.0
-15368,-2300,-2536,-2701,-3349,-1036,2025-02-17 11:31:19,0.0
-15104,-2824,-2600,-3961,-4193,-344,2025-02-17 11:31:19,0.0
-13516,-3676,-828,-4968,-3509,-37,2025-02-17 11:31:19,0.0
-12844,-4584,-720,-4775,-1994,-308,2025-02-17 11:31:19,0.0
-13780,-4964,-2536,-6023,416,-433,2025-02-17 11:31:19,0.0
-14580,-5420,-2492,-6285,3445,-217,2025-02-17 11:31:19,0.0
-15476,-6136,-4156,-6173,6338,-189,2025-02-17 11:31:19,0.0
-15848,-5924,-4924,-6466,8116,-884,2025-02-17 11:31:19,0.0
-17372,-5292,-6440,-6823,9274,-1845,2025-02-17 11:31:19,0.0
-17956,-3452,-5464,-6532,6639,-552,2025-02-17 11:31:19,0.0
-17168,-3520,-5512,-5510,2347,1111,2025-02-17 11:31:20,0.0
-15044,-3072,-6952,-4353,-4341,2198,2025-02-17 11:31:20,0.0
-11744,-2196,-9048,-4362,-7627,2543,2025-02-17 11:31:20,0.0
-9680,-1496,-8960,-4356,-7923,2082,2025-02-17 11:31:20,0.0
-10788,-1244,-7332,-3906,-6553,1439,2025-02-17 11:31:20,0.0
-11332,-640,-5496,-3337,-4339,1650,2025-02-17 11:31:20,0.0
-12688,-80,-3752,-1841,-2335,3043,2025-02-17 11:31:20,0.0
-13508,1224,-3712,-518,-1597,5068,2025-02-17 11:31:20,
-13380,2012,-5484,-926,-2314,6151,2025-02-17 11:31:20,0.0
-12336,1668,-6192,-2605,-2740,6777,2025-02-17 11:31:20,0.0
-10680,1100,-4504,-3316,-2337,6568,2025-02-17 11:31:20,0.0
-9836,396,-4152,-2531,-1658,5497,2025-02-17 11:31:20,0.0
-9212,376,-2280,-1086,-751,4536,2025-02-17 11:31:20,0.0
-10836,-424,-2424,2142,-46,4088,2025-02-17 11:31:20,0.0
-11304,-460,-3608,3013,-233,4011,2025-02-17 11:31:20,0.0
-12320,884,-1748,2382,-1516,3208,2025-02-17 11:31:20,0.0
-13448,1924,-1568,2718,-3473,3530,2025-02-17 11:31:20,0.0
-11612,2972,-2864,3275,-5729,3921,2025-02-17 11:31:20,0.0
-10296,3552,-3032,3605,-7174,3384,2025-02-17 11:31:20,0.0
-10208,3612,-2500,3796,-7056,2712,2025-02-17 11:31:20,0.0
-11200,2644,-2000,3818,-5804,2924,2025-02-17 11:31:20,0.0
-9800,2008,-1976,3917,-4528,2668,2025-02-17 11:31:20,0.0
-10484,1076,-3136,2816,-1098,1578,2025-02-17 11:31:20,0.0
-11376,1112,-2656,-1636,2843,507,2025-02-17 11:31:20,0.0
-11512,812,-1264,-1641,2245,-1042,2025-02-17 11:31:20,0.0
-11748,816,-2312,-1719,1770,-976,2025-02-17 11:31:20,0.0
-10892,708,-1336,-1459,2166,-1001,2025-02-17 11:31:20,0.0
-10028,764,-1420,-821,2381,-1866,2025-02-17 11:31:20,0.0
-10900,1772,-1328,-454,1790,-2669,2025-02-17 11:31:20,0.0
-12052,2532,-1572,-450,1811,-2989,2025-02-17 11:31:20,0.0
-13588,3536,-1252,49,2860,-2688,2025-02-17 11:31:20,0.0
-14544,3712,-1884,427,3874,-1977,2025-02-17 11:31:20,0.0
-14808,2268,-1940,895,4432,-1763,2025-02-17 11:31:20,0.0
-9512,3436,-8096,3177,-7289,-1678,2025-02-17 11:31:20,0.0
-6948,-164,-5156,4808,-10926,-4046,2025-02-17 11:31:20,0.0
-6480,-2168,-5156,5318,-11108,-5588,2025-02-17 11:31:20,0.0
-8380,-2648,-5356,4035,-8021,-5311,2025-02-17 11:31:20,0.0
-9828,-956,-5024,2742,-4090,-3067,2025-02-17 11:31:20,0.0
-8828,840,-6432,1659,241,-1554,2025-02-17 11:31:20,0.0
-9960,1844,-7016,372,4933,-1899,2025-02-17 11:31:20,0.0
-11204,1464,-4340,-294,7460,-2438,2025-02-17 11:31:20,0.0
-12404,228,-3568,-154,6624,-3344,2025-02-17 11:31:20,0.0
-13092,-800,-4248,-270,4156,-4378,2025-02-17 11:31:20,0.0
-13328,-1076,-5072,-307,90,-5026,2025-02-17 11:31:20,0.0
-11808,-712,-4932,136,-3980,-4015,2025-02-17 11:31:20,0.0
-10052,-208,-5088,116,-3285,-3677,2025-02-17 11:31:20,0.0
-9496,-736,-5088,-739,-1100,-3978,2025-02-17 11:31:20,0.0
-10672,-1648,-4464,-1333,1545,-3852,2025-02-17 11:31:21,0.0
-11692,-2256,-3948,-1128,2209,-2773,2025-02-17 11:31:21,0.0
-12196,-2216,-3968,-954,2100,-1654,2025-02-17 11:31:21,0.0
-12332,-1840,-4068,-858,2269,-1104,2025-02-17 11:31:21,0.0
-12200,-1896,-4244,-1048,1779,-887,2025-02-17 11:31:21,0.0
-12452,-1536,-4008,-1073,1488,-849,2025-02-17 11:31:21,0.0
-11600,-1632,-3692,-369,551,-794,2025-02-17 11:31:21,0.0
-11580,-1780,-4848,-562,12,-1134,2025-02-17 11:31:21,0.0
-11868,-1360,-3404,-313,-161,-912,2025-02-17 11:31:21,0.0
-11688,-1560,-4788,-443,1503,-492,2025-02-17 11:31:21,0.0
-12196,-1444,-5240,-1191,2832,243,2025-02-17 11:31:21,0.0
-12132,-1208,-5448,-2048,3170,277,2025-02-17 11:31:21,0.0
-12092,-700,-4816,-2923,2513,-533,2025-02-17 11:31:21,0.0
-13012,368,-4052,-3413,1644,-1441,2025-02-17 11:31:21,0.0
-13252,536,-4112,-3787,244,-1925,2025-02-17 11:31:21,0.0
-13556,4,-4704,-4272,-1122,-2167,2025-02-17 11:31:21,0.0
-13716,-620,-4348,-4585,-1914,-2133,2025-02-17 11:31:21,0.0
-13468,-1560,-4248,-5271,-2800,-2238,2025-02-17 11:31:21,0.0
-13256,-1856,-3812,-6071,-2646,-2641,2025-02-17 11:31:21,0.0
-13680,-1468,-3456,-6636,-1477,-2859,2025-02-17 11:31:21,0.0
-13832,-1724,-2744,-6758,-656,-2600,2025-02-17 11:31:21,0.0
-13972,-3340,-1552,-6446,-789,-2466,2025-02-17 11:31:21,0.0
-14280,-4664,-3148,-6437,-884,-2503,2025-02-17 11:31:21,0.0
-14816,-5172,-4352,-6404,-29,-2636,2025-02-17 11:31:21,0.0
-15116,-5604,-4836,-5343,1583,-3101,2025-02-17 11:31:21,0.0
-15572,-6132,-7128,-5298,2062,-3423,2025-02-17 11:31:21,0.0
-15156,-5628,-7064,-5191,1559,-3081,2025-02-17 11:31:21,0.0
-15268,-4644,-7084,-3637,1164,-2262,2025-02-17 11:31:21,0.0
-14812,-3296,-7696,-2165,1490,-1187,2025-02-17 11:31:21,0.0
-13648,-1424,-8036,-1254,984,548,2025-02-17 11:31:21,0.0
-11256,288,-8432,-1479,-804,1001,2025-02-17 11:31:21,0.0
-9928,972,-8676,-1582,-2617,1019,2025-02-17 11:31:21,0.0
-9352,2072,-7644,-1242,-2565,472,2025-02-17 11:31:21,0.0
-9284,3028,-6624,-501,-195,-49,2025-02-17 11:31:21,0.0
-9784,3052,-7328,-272,2621,-491,2025-02-17 11:31:21,0.0
-10888,1836,-8564,-306,5126,-859,2025-02-17 11:31:21,0.0
-11656,112,-9020,-540,6852,-1111,2025-02-17 11:31:21,0.0
-14488,-1148,-10984,-1234,7254,-459,2025-02-17 11:31:21,0.0
-16212,-2200,-6408,-3707,5000,1966,2025-02-17 11:31:21,0.0
-10788,-104,-5304,-1860,-3716,2799,2025-02-17 11:31:21,0.0
-9276,352,-5968,-1593,-1535,2669,2025-02-17 11:31:21,0.0
-8792,680,-5788,-1158,58,2763,2025-02-17 11:31:21,0.0
-9708,704,-5304,-381,1553,2992,2025-02-17 11:31:21,0.0
-14396,-532,-5232,133,2201,4067,2025-02-17 11:31:21,0.0
-9600,2292,-1500,2007,29,4886,2025-02-17 11:31:21,0.0
-11300,1536,-4976,1151,611,2307,2025-02-17 11:31:21,0.0
-11892,480,-4412,1461,597,1603,2025-02-17 11:31:21,0.0
-11892,-460,-4668,1341,880,1494,2025-02-17 11:31:21,0.0
-11544,-1280,-3868,1610,319,1354,2025-02-17 11:31:21,0.0
-11804,-1036,-3316,2069,-649,1313,2025-02-17 11:31:21,0.0
-10064,76,-4056,2346,-1747,559,2025-02-17 11:31:21,0.0
-8784,556,-4844,2395,-2470,-1157,2025-02-17 11:31:21,0.0
-8300,1600,-4936,2409,-1485,-2935,2025-02-17 11:31:21,0.0
-8580,1624,-5796,2322,-192,-3950,2025-02-17 11:31:21,0.0
-9900,2052,-5808,2695,1306,-4669,2025-02-17 11:31:21,0.0
-11836,1072,-6408,2692,2712,-5026,2025-02-17 11:31:21,0.0
-13408,-484,-8288,2520,4030,-4670,2025-02-17 11:31:21,0.0
-15048,-2680,-10124,1153,5996,-3292,2025-02-17 11:31:21,0.0
-15748,-3740,-8680,382,7363,-771,2025-02-17 11:31:21,0.0
-12744,-1976,-8236,283,5563,950,2025-02-17 11:31:21,0.0
-10776,-344,-8000,263,1266,811,2025-02-17 11:31:21,
-10516,-532,-7404,939,-4566,63,2025-02-17 11:31:22,0.0
-11368,-1032,-6932,1830,-7557,5,2025-02-17 11:31:22,0.0
-12540,-532,-3624,2994,-7126,662,2025-02-17 11:31:22,0.0
-9600,-68,-6644,2960,-452,920,2025-02-17 11:31:22,0.0
-8904,-752,-8156,2327,2265,367,2025-02-17 11:31:22,0.0
-10036,-1448,-7672,2315,4003,586,2025-02-17 11:31:22,0.0
-10728,-1784,-7084,1910,4586,1006,2025-02-17 11:31:22,0.0
-11768,-1956,-6536,1460,4953,1276,2025-02-17 11:31:22,0.0
-12580,-952,-6484,1240,4775,1549,2025-02-17 11:31:22,0.0
-13192,284,-7000,681,3717,1447,2025-02-17 11:31:22,0.0
-12208,1304,-7736,0,1878,814,2025-02-17 11:31:22,0.0
-12144,1456,-7720,-769,-256,-455,2025-02-17 11:31:22,0.0
-12352,1336,-7024,-1420,-857,-826,2025-02-17 11:31:22,0.0
-11544,1256,-6788,-2004,-388,-1352,2025-02-17 11:31:22,0.0
-11112,1464,-6964,-2813,-3,-2171,2025-02-17 11:31:22,0.0
-11448,1124,-6620,-3598,194,-2853,2025-02-17 11:31:22,0.0
-12016,552,-6644,-4362,44,-3183,2025-02-17 11:31:22,0.0
-12096,328,-7272,-5124,-707,-3302,2025-02-17 11:31:22,0.0
-11908,144,-7264,-6020,-1882,-3388,2025-02-17 11:31:22,0.0
-11156,-532,-7416,-6943,-2357,-3493,2025-02-17 11:31:22,0.0
-10532,-956,-7640,-7936,-2371,-3566,2025-02-17 11:31:22,0.0
-10132,-1324,-6996,-8357,-1841,-3598,2025-02-17 11:31:22,0.0
-10284,-1512,-7136,-8887,-226,-3702,2025-02-17 11:31:22,0.0
-11084,-1368,-7216,-9770,1636,-4165,2025-02-17 11:31:22,0.0
-12452,-1408,-7288,-10453,2350,-4784,2025-02-17 11:31:22,0.0
-13412,-1444,-6604,-11079,1867,-5179,2025-02-17 11:31:22,0.0
-13292,-1088,-7636,-11847,577,-5450,2025-02-17 11:31:22,0.0
-12296,-996,-8176,-12498,-615,-6056,2025-02-17 11:31:22,0.0
-11824,-1620,-8256,-13525,-2580,-6814,2025-02-17 11:31:22,0.0
-11548,-1912,-7108,-14455,-3075,-7023,2025-02-17 11:31:22,0.0
-10864,-1840,-7088,-14981,-1643,-6965,2025-02-17 11:31:22,0.0
-10336,-1752,-7360,-15417,-376,-6990,2025-02-17 11:31:22,0.0
-10348,-1808,-7596,-15890,613,-7481,2025-02-17 11:31:22,0.0
-10888,-2220,-7128,-16317,1022,-7779,2025-02-17 11:31:22,0.0
-11420,-2420,-7728,-16622,269,-7633,2025-02-17 11:31:22,0.0
-10844,-2836,-7800,-17152,-440,-7799,2025-02-17 11:31:22,0.0
-11036,-2820,-7420,-17464,-1245,-7608,2025-02-17 11:31:22,0.0
-10868,-2892,-6788,-17494,-1427,-7341,2025-02-17 11:31:22,0.0
-10872,-2808,-6724,-17672,-718,-7283,2025-02-17 11:31:22,0.0
-10760,-2496,-6664,-17863,-173,-7226,2025-02-17 11:31:22,0.0
-10848,-3680,-6864,-17798,-79,-7358,2025-02-17 11:31:22,0.0
-11312,-3996,-7128,-17436,-167,-6903,2025-02-17 11:31:22,0.0
-11704,-3420,-7372,-17462,82,-6337,2025-02-17 11:31:22,0.0
-11716,-3336,-7180,-17471,763,-6229,2025-02-17 11:31:22,0.0
-11972,-3728,-6348,-17199,1336,-6233,2025-02-17 11:31:22,0.0
-11220,-3888,-7976,-16581,1872,-5793,2025-02-17 11:31:22,0.0
-10676,-1940,-10976,-15902,3557,-4640,2025-02-17 11:31:22,0.0
-10276,-72,-9680,-15924,4683,-4147,2025-02-17 11:31:22,0.0
-10816,1688,-7912,-16000,4168,-4948,2025-02-17 11:31:22,0.0
-11112,2692,-7904,-16349,3150,-6562,2025-02-17 11:31:22,0.0
-12772,3420,-7384,-16602,1210,-8065,2025-02-17 11:31:22,0.0
-11312,3152,-4972,-16591,-3256,-8947,2025-02-17 11:31:22,0.0
-12784,2360,-1772,-15141,-4190,-10106,2025-02-17 11:31:22,0.0
-12264,804,-6696,-16175,328,-8673,2025-02-17 11:31:22,0.0
-10856,-36,-7500,-17429,2813,-8523,2025-02-17 11:31:22,0.0
-12580,-664,-7444,-18250,2846,-8820,2025-02-17 11:31:22,0.0
-13204,-1520,-6060,-18616,930,-8886,2025-02-17 11:31:22,0.0
-12504,-672,-4952,-18235,-603,-9234,2025-02-17 11:31:22,0.0
-10240,-620,-5164,-18786,4,-10051,2025-02-17 11:31:22,0.0
-10120,-488,-4552,-18772,83,-11136,2025-02-17 11:31:22,0.0
-11576,-220,-4288,-18441,910,-10581,2025-02-17 11:31:22,0.0
-11676,-876,-3728,-17628,993,-9719,2025-02-17 11:31:23,0.0
-12456,-76,-4024,-16106,-105,-9066,2025-02-17 11:31:23,0.0
-12872,1184,-5424,-15246,-824,-8249,2025-02-17 11:31:23,0.0
-12464,2484,-6104,-15279,-1083,-8200,2025-02-17 11:31:23,0.0
-12128,2156,-6168,-15193,-2221,-8675,2025-02-17 11:31:23,0.0
-11912,1084,-6828,-15284,-2442,-9328,2025-02-17 11:31:23,0.0
-11328,-168,-7492,-15450,-1909,-9535,2025-02-17 11:31:23,0.0
-11300,-740,-6716,-15157,-1176,-9220,2025-02-17 11:31:23,0.0
-11064,-844,-6376,-14868,-225,-8605,2025-02-17 11:31:23,0.0
-10928,-496,-6264,-14817,687,-8346,2025-02-17 11:31:23,0.0
-11156,12,-6620,-14652,1002,-8410,2025-02-17 11:31:23,0.0
-11752,464,-6628,-14294,801,-8619,2025-02-17 11:31:23,0.0
-12148,200,-6996,-14370,-4,-8993,2025-02-17 11:31:23,0.0
-11988,-52,-6928,-14485,-1463,-9797,2025-02-17 11:31:23,0.0
-12372,112,-6016,-13950,-2775,-10040,2025-02-17 11:31:23,0.0
-12036,304,-6400,-12824,-3080,-9568,2025-02-17 11:31:23,0.0
-12212,324,-10984,-13520,-1835,-8548,2025-02-17 11:31:23,0.0
-13784,-1508,-8300,-13689,878,-6792,2025-02-17 11:31:23,0.0
-13840,-3092,-5336,-12626,890,-4767,2025-02-17 11:31:23,0.0
-11876,-3960,-2332,-11696,-1585,-4160,2025-02-17 11:31:23,0.0
-10768,-3444,-4176,-11635,-1268,-5428,2025-02-17 11:31:23,0.0
-10980,-4216,-6472,-12520,2002,-7037,2025-02-17 11:31:23,0.0
-12636,-4176,-7832,-12637,4871,-7673,2025-02-17 11:31:23,0.0
-14200,-3048,-8136,-12499,5916,-7454,2025-02-17 11:31:23,0.0
-14776,-2016,-6104,-12267,4661,-7204,2025-02-17 11:31:23,0.0
-14328,-2060,-5696,-12057,1191,-7699,2025-02-17 11:31:23,0.0
-13148,-2456,-5732,-12253,-2493,-7994,2025-02-17 11:31:23,0.0
-11612,-3108,-5312,-12068,-4977,-7871,2025-02-17 11:31:23,0.0
-9752,-3540,-5664,-11651,-5378,-7315,2025-02-17 11:31:23,0.0
-8784,-3664,-5768,-11424,-3804,-6645,2025-02-17 11:31:23,0.0
-8772,-3472,-5728,-11730,-1233,-5708,2025-02-17 11:31:23,0.0
-9580,-2828,-5912,-11962,626,-4588,2025-02-17 11:31:23,0.0
-10588,-2824,-5444,-11738,1343,-3215,2025-02-17 11:31:23,0.0
-11232,-4460,-6000,-11131,1914,-2326,2025-02-17 11:31:23,0.0
-12244,-5244,-6796,-9943,2689,-1754,2025-02-17 11:31:23,0.0
-12852,-4688,-5272,-9074,4497,-2136,2025-02-17 11:31:23,0.0
-14028,-2468,-5060,-8994,4078,-2064,2025-02-17 11:31:23,0.0
-12596,-716,-6440,-9382,3645,-2012,2025-02-17 11:31:23,0.0
-11556,800,-5684,-8769,4560,-3400,2025-02-17 11:31:23,
-11252,1296,-6852,-7920,4922,-5276,2025-02-17 11:31:23,0.0
-13660,1812,-7340,-7983,3155,-4888,2025-02-17 11:31:23,0.0
-13364,1188,-7320,-7633,-920,-3687,2025-02-17 11:31:23,0.0
-13348,884,-7432,-7300,-6320,-2946,2025-02-17 11:31:23,0.0
-13104,-300,-6464,-8081,-12793,-2548,2025-02-17 11:31:23,0.0
-12796,-1688,-2540,-6911,-5461,-2733,2025-02-17 11:31:23,0.0
-10156,-1308,-4036,-7749,71,-2145,2025-02-17 11:31:23,0.0
-10204,-460,-4804,-7797,2054,-2612,2025-02-17 11:31:23,0.0
-11756,-36,-4952,-7843,3269,-2887,2025-02-17 11:31:23,0.0
-13480,304,-3428,-7428,3491,-2727,2025-02-17 11:31:23,0.0
-14192,744,-3732,-6321,2092,-2221,2025-02-17 11:31:23,0.0
-13296,1220,-4480,-5719,504,-2100,2025-02-17 11:31:23,0.0
-12244,1080,-4736,-5370,-155,-2354,2025-02-17 11:31:23,0.0
-11868,840,-4864,-4919,510,-2634,2025-02-17 11:31:23,0.0
-11928,684,-4416,-4490,1443,-2451,2025-02-17 11:31:23,0.0
-12068,688,-4592,-4123,1975,-2033,2025-02-17 11:31:23,0.0
-11912,900,-5080,-3867,2013,-1726,2025-02-17 11:31:23,0.0
-11560,964,-5260,-3815,1928,-1689,2025-02-17 11:31:24,0.0
-11672,572,-5176,-3685,2162,-1990,2025-02-17 11:31:24,0.0
-12188,548,-4920,-3606,2397,-1913,2025-02-17 11:31:24,0.0
-12652,296,-4452,-3423,2365,-1785,2025-02-17 11:31:24,0.0
-12760,380,-4772,-3203,1868,-1662,2025-02-17 11:31:24,0.0
-12804,420,-4516,-2957,1029,-1493,2025-02-17 11:31:24,0.0
-12792,528,-4356,-2719,132,-1465,2025-02-17 11:31:24,0.0
-12944,632,-4492,-2612,-402,-1385,2025-02-17 11:31:24,0.0
-13052,1096,-4652,-2620,-610,-1363,2025-02-17 11:31:24,0.0
-13964,856,-3924,-1478,-2419,-1182,2025-02-17 11:31:24,0.0
-13272,588,-4448,-921,-3010,-1074,2025-02-17 11:31:24,0.0
-11668,372,-6048,-495,-4151,-1175,2025-02-17 11:31:24,0.0
-10536,44,-7564,-76,-4446,-1066,2025-02-17 11:31:24,0.0
-9808,-936,-7296,287,-2378,-752,2025-02-17 11:31:24,0.0
-10184,-1560,-7256,-131,386,-698,2025-02-17 11:31:24,0.0
-11416,-1448,-6556,-437,2808,-1341,2025-02-17 11:31:24,0.0
-13620,-576,-6156,-435,2805,-2042,2025-02-17 11:31:24,0.0
-14540,-868,-5572,-464,987,-2591,2025-02-17 11:31:24,0.0
-14084,-1072,-4312,-395,-1223,-3320,2025-02-17 11:31:24,0.0
-13068,-1352,-5008,-421,-1783,-4211,2025-02-17 11:31:24,0.0
-12064,-1624,-5548,-902,-725,-4642,2025-02-17 11:31:24,0.0
-11668,-2380,-5292,-1240,1072,-4767,2025-02-17 11:31:24,0.0
-11392,-2644,-5052,-1212,2242,-4747,2025-02-17 11:31:24,0.0
-11544,-3060,-4616,-984,1865,-4687,2025-02-17 11:31:24,0.0
-11844,-3712,-4312,-688,962,-4385,2025-02-17 11:31:24,0.0
-12100,-3940,-4596,-270,216,-3872,2025-02-17 11:31:24,0.0
-12052,-3160,-4824,-376,115,-3374,2025-02-17 11:31:24,0.0
-12240,-1808,-4972,-539,316,-3168,2025-02-17 11:31:24,0.0
-12132,-1004,-4384,-338,355,-2894,2025-02-17 11:31:24,0.0
-11648,-272,-3888,416,-458,-2556,2025-02-17 11:31:24,0.0
-10656,-756,-3464,350,-178,-2841,2025-02-17 11:31:24,0.0
-11240,-1444,-3384,810,65,-2685,2025-02-17 11:31:24,0.0
-11532,-2304,-2836,1217,986,-1735,2025-02-17 11:31:24,0.0
-11200,-2748,-4092,1362,1682,-1128,2025-02-17 11:31:24,0.0
-12156,-2848,-3320,1116,2550,-488,2025-02-17 11:31:24,0.0
-13080,-3056,-3308,764,2745,51,2025-02-17 11:31:24,0.0
-13752,-3192,-3360,564,2263,622,2025-02-17 11:31:24,0.0
-13988,-3116,-3792,565,587,1560,2025-02-17 11:31:24,0.0
-12784,-2204,-3472,742,-556,1899,2025-02-17 11:31:24,0.0
-12044,-1492,-4576,249,-579,1687,2025-02-17 11:31:24,0.0
-11736,-824,-4520,-569,607,995,2025-02-17 11:31:24,0.0
-12444,-616,-4468,-1203,1486,371,2025-02-17 11:31:24,0.0
-13164,-1360,-4900,-2031,2438,-24,2025-02-17 11:31:24,0.0
-13916,-2040,-4984,-2661,2381,-505,2025-02-17 11:31:24,0.0
-14500,-2392,-4988,-3008,1737,-882,2025-02-17 11:31:24,0.0
-15384,-2844,-4508,-3134,1195,-685,2025-02-17 11:31:24,0.0
-14896,-2896,-3308,-3080,878,-657,2025-02-17 11:31:24,0.0
-15256,-3024,-2916,-2954,1038,-898,2025-02-17 11:31:24,0.0
-15248,-3504,-3216,-3001,1033,-1082,2025-02-17 11:31:24,0.0
-14252,-5488,-5728,-3164,907,-1373,2025-02-17 11:31:24,0.0
-15988,-4740,-5184,-2587,1752,-1634,2025-02-17 11:31:24,0.0
-16364,-4592,-6376,-1226,2918,-1283,2025-02-17 11:31:24,0.0
-15912,-5420,-9388,-1252,2469,-1571,2025-02-17 11:31:24,0.0
-15436,-5592,-11352,-1186,-2179,-526,2025-02-17 11:31:24,0.0
-13304,-5704,-11092,-530,-5196,415,2025-02-17 11:31:24,0.0
-10824,-4472,-10300,188,-5192,560,2025-02-17 11:31:24,0.0
-9220,-1900,-9892,965,-4430,1085,2025-02-17 11:31:24,0.0
-8560,-488,-8052,1520,-3759,2094,2025-02-17 11:31:24,0.0
-9020,716,-7264,1571,-1867,2930,2025-02-17 11:31:24,0.0
-10336,1824,-6628,1893,212,3931,2025-02-17 11:31:24,0.0
-11172,1332,-6668,2592,1650,4189,2025-02-17 11:31:24,0.0
-11796,156,-7076,2698,1626,3596,2025-02-17 11:31:24,0.0
-13348,-1480,-6928,2493,-830,3230,2025-02-17 11:31:24,0.0
-13516,-2888,-7124,2513,-2566,4111,2025-02-17 11:31:25,0.0
-11684,-2820,-7132,2473,-2118,4683,2025-02-17 11:31:25,0.0
-10680,-2148,-7004,2456,-1447,4747,2025-02-17 11:31:25,0.0
-10256,-2340,-7132,2599,-996,4733,2025-02-17 11:31:25,0.0
-10204,-1668,-6036,3002,-781,4951,2025-02-17 11:31:25,0.0
-14892,-2624,-9372,2780,-447,6181,2025-02-17 11:31:25,0.0
-5896,2728,1572,4507,-3283,9487,2025-02-17 11:31:25,0.0
-7700,1628,-5380,4917,-3268,7542,2025-02-17 11:31:25,0.0
-9900,1464,-5392,3867,-1985,7045,2025-02-17 11:31:25,0.0
-8856,1516,-4808,3375,-542,6975,2025-02-17 11:31:25,0.0
-15660,-1460,-4796,1679,-2062,226,2025-02-17 11:31:25,0.0
-16392,-1784,-6020,1764,-3289,1827,2025-02-17 11:31:25,0.0
-17584,-1316,-6424,2185,-5232,3020,2025-02-17 11:31:25,0.0
-16428,-780,-5292,2393,-7608,4029,2025-02-17 11:31:25,0.0
-14296,228,-932,4198,-10176,3610,2025-02-17 11:31:25,0.0
-12396,-676,-3796,4975,-7985,3813,2025-02-17 11:31:25,0.0
-12728,-952,-5520,5724,-2104,4073,2025-02-17 11:31:25,0.0
-13704,3092,-7584,6708,-224,3864,2025-02-17 11:31:25,0.0
-14644,5856,-10860,4556,1631,2759,2025-02-17 11:31:25,0.0
-16440,6348,-11124,2778,2027,1862,2025-02-17 11:31:25,
-16708,5668,-9488,2029,1159,1885,2025-02-17 11:31:25,0.0
-10380,4208,-6992,3058,-2529,-1613,2025-02-17 11:31:25,0.0
-8144,1884,-6344,3683,-3865,-4601,2025-02-17 11:31:25,0.0
-8804,-1372,-8524,3297,-1713,-5909,2025-02-17 11:31:25,0.0
-9248,-4368,-7968,1620,1811,-4668,2025-02-17 11:31:25,0.0
-8808,-4564,-8068,717,3774,-2440,2025-02-17 11:31:25,0.0
-8408,-3268,-7692,-432,5658,-1587,2025-02-17 11:31:25,0.0
-10160,-1292,-7892,-948,7924,-1864,2025-02-17 11:31:25,0.0
-13232,684,-6724,-316,7537,-2814,2025-02-17 11:31:25,0.0
-14104,792,-7412,54,3472,-3901,2025-02-17 11:31:25,0.0
-14804,76,-7396,-142,-1104,-4495,2025-02-17 11:31:25,0.0
-12816,-832,-7168,-270,-3693,-4848,2025-02-17 11:31:25,0.0
-11136,-1768,-6220,11,-4410,-4478,2025-02-17 11:31:25,0.0
-9876,-2272,-5576,661,-3039,-3489,2025-02-17 11:31:25,0.0
-8996,-2608,-6296,830,-344,-2776,2025-02-17 11:31:25,0.0
-9456,-2568,-6280,424,2127,-2009,2025-02-17 11:31:25,0.0
-9928,-2408,-5816,56,3346,-1353,2025-02-17 11:31:25,0.0
-10388,-2312,-5584,-326,3287,-1157,2025-02-17 11:31:25,0.0
-10816,-2024,-5448,-470,2743,-1165,2025-02-17 11:31:25,0.0
-11164,-1716,-5452,-678,1930,-1155,2025-02-17 11:31:25,0.0
-11148,-1620,-5416,-925,1541,-1163,2025-02-17 11:31:25,0.0
-10860,-1836,-5760,-1353,1619,-997,2025-02-17 11:31:25,0.0
-10828,-1668,-5916,-1811,2126,-1050,2025-02-17 11:31:25,0.0
-11352,-1332,-5776,-2147,2547,-744,2025-02-17 11:31:25,0.0
-11960,-1372,-5136,-1969,2053,-362,2025-02-17 11:31:25,0.0
-12216,-1672,-4520,-1458,1130,140,2025-02-17 11:31:25,0.0
-12316,-1716,-4788,-1409,308,389,2025-02-17 11:31:25,0.0
-12364,-1396,-4956,-1650,-195,335,2025-02-17 11:31:25,0.0
-12656,-1344,-5320,-1942,-919,247,2025-02-17 11:31:25,0.0
-12484,-1432,-5896,-2656,-976,74,2025-02-17 11:31:25,0.0
-12028,-1520,-6384,-3544,-1305,-246,2025-02-17 11:31:26,0.0
-11596,-1752,-6136,-3991,-1375,-481,2025-02-17 11:31:26,0.0
-11432,-2088,-5936,-4253,-702,-609,2025-02-17 11:31:26,0.0
-11528,-1912,-5464,-4668,467,-410,2025-02-17 11:31:26,0.0
-11868,-652,-4964,-5034,1066,-154,2025-02-17 11:31:26,0.0
-12060,196,-5036,-5350,1279,-333,2025-02-17 11:31:26,0.0
-12924,-240,-4084,-5520,974,-590,2025-02-17 11:31:26,0.0
-13564,-1440,-4260,-5242,-49,-454,2025-02-17 11:31:26,0.0
-13124,-2772,-5636,-5221,-2097,-150,2025-02-17 11:31:26,0.0
-12600,-3128,-8396,-5273,-3312,-370,2025-02-17 11:31:26,0.0
-10460,-3660,-12984,-5387,-870,-2349,2025-02-17 11:31:26,0.0
-9732,-2376,-14696,-4429,5039,-5317,2025-02-17 11:31:26,0.0
-12164,-1680,-11096,-3335,8636,-7531,2025-02-17 11:31:26,0.0
-15172,-972,-8284,-3289,6580,-5495,2025-02-17 11:31:26,0.0
-13236,24,-8608,-3393,1830,-1742,2025-02-17 11:31:26,0.0
-10956,1576,-8984,-3532,-1711,-648,2025-02-17 11:31:26,0.0
-11780,1388,-5808,-3232,-4029,-266,2025-02-17 11:31:26,0.0
-10924,1252,-5708,-2662,-2148,535,2025-02-17 11:31:26,0.0
-9416,1796,-6212,-2286,-304,132,2025-02-17 11:31:26,0.0
-11740,1052,-5676,-1336,1085,-313,2025-02-17 11:31:26,0.0
-13132,-216,-6564,-864,1977,236,2025-02-17 11:31:26,0.0
-12328,16,-8540,-1222,1646,-410,2025-02-17 11:31:26,0.0
-11476,1036,-9524,-1987,-873,-1028,2025-02-17 11:31:26,0.0
-9596,948,-8996,-2042,-2436,-1793,2025-02-17 11:31:26,0.0
-9500,740,-8440,-1288,-2156,-1811,2025-02-17 11:31:26,0.0
-9136,-20,-7636,-468,-803,-1492,2025-02-17 11:31:26,0.0
-9348,-268,-7856,-426,865,-1653,2025-02-17 11:31:26,0.0
-10728,-724,-7420,-844,1500,-1857,2025-02-17 11:31:26,0.0
-12568,704,-7092,-423,-62,-801,2025-02-17 11:31:26,0.0
-11548,1192,-6772,-39,-1480,-140,2025-02-17 11:31:26,0.0
-10500,1196,-6572,-40,-2174,-89,2025-02-17 11:31:26,0.0
-9596,348,-7084,-230,-1432,-47,2025-02-17 11:31:26,0.0
-9112,-568,-7588,-633,1593,-431,2025-02-17 11:31:26,0.0
-9760,-1652,-7484,-715,4260,-743,2025-02-17 11:31:26,0.0
-11288,-2540,-6464,-72,5332,-733,2025-02-17 11:31:26,0.0
-12340,-2520,-6428,1150,4989,-406,2025-02-17 11:31:26,0.0
-12904,-2980,-5800,2569,2983,-112,2025-02-17 11:31:26,0.0
-13284,-3876,-5692,3941,330,570,2025-02-17 11:31:26,0.0
-12896,-4348,-5588,4982,-713,867,2025-02-17 11:31:26,0.0
-12120,-4492,-6404,5764,-1160,1269,2025-02-17 11:31:26,0.0
-11428,-4280,-4844,6648,-1776,1448,2025-02-17 11:31:26,0.0
-11540,-3396,-5284,7456,-2515,2051,2025-02-17 11:31:26,0.0
-12048,-3656,-4996,7548,-1690,3387,2025-02-17 11:31:26,0.0
-12708,-3272,-4416,7427,-1172,5380,2025-02-17 11:31:26,0.0
-12920,-2948,-5204,8023,-2418,7569,2025-02-17 11:31:26,0.0
-11420,-1652,-7016,8853,-3899,8181,2025-02-17 11:31:26,0.0
-11032,-352,-8024,9767,-4348,7024,2025-02-17 11:31:26,0.0
-11368,212,-7472,9778,-1305,3681,2025-02-17 11:31:26,0.0
-12352,-2556,-5808,9987,377,2096,2025-02-17 11:31:26,0.0
-12024,-2508,-6040,10998,-1197,1945,2025-02-17 11:31:26,0.0
-11960,-1484,-5128,10856,-2467,2992,2025-02-17 11:31:26,0.0
-12540,-1528,-5908,10111,-1310,4366,2025-02-17 11:31:26,0.0
-13588,-1836,-6896,9830,2271,6149,2025-02-17 11:31:26,0.0
-13452,-2872,-7456,11080,5433,6727,2025-02-17 11:31:26,0.0
-14652,-2868,-7260,11366,5113,6859,2025-02-17 11:31:26,0.0
-15680,-3244,-5408,12490,2182,7968,2025-02-17 11:31:26,0.0
-15452,-3080,-5360,13525,-1549,8911,2025-02-17 11:31:26,0.0
-13684,-2216,-5748,14108,-4181,8870,2025-02-17 11:31:26,0.0
-11816,-1852,-5488,14224,-5471,8088,2025-02-17 11:31:26,0.0
-10744,-1632,-5288,14798,-6041,7426,2025-02-17 11:31:26,0.0
-9648,-1196,-4828,16493,-5627,6978,2025-02-17 11:31:26,0.0
-9392,-1132,-5156,18550,-4786,6713,2025-02-17 11:31:27,0.0
-10292,-688,-6188,18819,-2906,7109,2025-02-17 11:31:27,0.0
-10728,-580,-8024,16893,422,7640,2025-02-17 11:31:27,0.0
-9588,-948,-7276,15107,2948,7105,2025-02-17 11:31:27,0.0
-11524,-1928,-6504,14129,3606,5416,2025-02-17 11:31:27,0.0
-12360,-2832,-6608,14083,2579,5962,2025-02-17 11:31:27,0.0
