acceleration_x,acceleration_y,acceleration_z,gyroscope_x,gyroscope_y,gyroscope_z,timestamp,label
-11048,508,11280,-117,-126,47,2025-02-17 10:55:49,0.0
-10756,520,11352,-167,-71,16,2025-02-17 10:55:49,0.0
-10688,508,11276,-215,53,-47,2025-02-17 10:55:49,0.0
-10788,428,11236,-210,122,-156,2025-02-17 10:55:49,0.0
-10880,360,11528,-191,143,-199,2025-02-17 10:55:49,0.0
-10824,388,11220,-144,76,-197,2025-02-17 10:55:49,0.0
-10884,420,11332,-159,75,-137,2025-02-17 10:55:49,0.0
-10820,388,11248,-131,157,-168,2025-02-17 10:55:49,0.0
-10652,464,11524,-166,283,-198,2025-02-17 10:55:49,0.0
-10812,576,11364,-157,409,-236,2025-02-17 10:55:49,0.0
-11024,584,11376,-109,461,-238,2025-02-17 10:55:49,0.0
-11132,508,11156,-153,401,-170,2025-02-17 10:55:49,0.0
-11120,524,11176,-107,321,-131,2025-02-17 10:55:49,0.0
-10936,428,11156,-106,304,-193,2025-02-17 10:55:49,0.0
-10752,440,11204,-169,298,-237,2025-02-17 10:55:49,0.0
-10804,408,11260,-182,447,-227,2025-02-17 10:55:49,0.0
-10968,492,11232,-176,493,-206,2025-02-17 10:55:49,0.0
-11068,452,11164,-193,388,-205,2025-02-17 10:55:49,0.0
-11040,576,11120,-188,288,-198,2025-02-17 10:55:49,0.0
-11040,552,11216,-186,356,-168,2025-02-17 10:55:49,0.0
-11000,476,11076,-196,280,-147,2025-02-17 10:55:49,0.0
-10992,448,11092,-194,175,-148,2025-02-17 10:55:49,0.0
-10788,544,11168,-168,170,-129,2025-02-17 10:55:49,0.0
-10960,488,11148,-147,346,-162,2025-02-17 10:55:49,0.0
-11036,420,11148,-173,281,-181,2025-02-17 10:55:49,0.0
-11116,372,11288,-212,205,-182,2025-02-17 10:55:49,0.0
-11088,412,11108,-234,161,-171,2025-02-17 10:55:49,0.0
-11008,416,11324,-197,172,-133,2025-02-17 10:55:49,0.0
-11028,456,11224,-126,219,-112,2025-02-17 10:55:49,0.0
-10780,452,11040,-111,236,-109,2025-02-17 10:55:49,0.0
-10988,484,11196,-148,215,-136,2025-02-17 10:55:49,0.0
-10976,424,11088,-132,210,-169,2025-02-17 10:55:49,0.0
-11004,392,11180,-163,256,-162,2025-02-17 10:55:49,0.0
-11012,404,11216,-165,293,-152,2025-02-17 10:55:49,0.0
-11036,556,11160,-181,326,-185,2025-02-17 10:55:49,0.0
-11072,568,11220,-162,360,-156,2025-02-17 10:55:49,0.0
-11056,492,11180,-193,290,-147,2025-02-17 10:55:49,0.0
-10976,520,11260,-200,231,-155,2025-02-17 10:55:49,0.0
-10944,472,11124,-178,234,-160,2025-02-17 10:55:49,0.0
-10908,440,11168,-205,303,-183,2025-02-17 10:55:49,0.0
-11036,464,11284,-173,362,-221,2025-02-17 10:55:49,0.0
-11008,464,11116,-211,367,-196,2025-02-17 10:55:49,0.0
-11080,528,11240,-160,422,-211,2025-02-17 10:55:49,0.0
-11108,520,11028,-202,414,-148,2025-02-17 10:55:49,0.0
-11040,640,11048,-154,345,-138,2025-02-17 10:55:49,0.0
-11056,524,11112,-173,279,-164,2025-02-17 10:55:49,0.0
-10908,524,11056,-168,240,-180,2025-02-17 10:55:49,0.0
-11068,472,11204,-198,291,-144,2025-02-17 10:55:49,0.0
-11076,464,11164,-160,305,-134,2025-02-17 10:55:49,0.0
-10964,500,11192,-178,314,-151,2025-02-17 10:55:50,0.0
-11180,456,11060,-174,311,-158,2025-02-17 10:55:50,0.0
-10976,468,11108,-129,241,-126,2025-02-17 10:55:50,0.0
-10940,328,11124,-132,245,-148,2025-02-17 10:55:50,0.0
-10872,488,11084,-162,203,-174,2025-02-17 10:55:50,0.0
-10944,540,11352,-106,314,-211,2025-02-17 10:55:50,0.0
-11164,540,11032,-118,570,-168,2025-02-17 10:55:50,0.0
-11408,572,10956,-180,562,-68,2025-02-17 10:55:50,0.0
-11436,476,11112,-166,214,-67,2025-02-17 10:55:50,0.0
-11108,636,11136,-150,179,-166,2025-02-17 10:55:50,0.0
-11252,824,11576,64,111,-353,2025-02-17 10:55:50,0.0
-11132,900,10152,-118,35,-471,2025-02-17 10:55:50,0.0
-11032,948,10096,-221,-322,-593,2025-02-17 10:55:50,0.0
-10848,632,10864,-319,-505,-537,2025-02-17 10:55:50,0.0
-10788,320,10744,-182,-229,-234,2025-02-17 10:55:50,0.0
-10752,452,10784,-23,-98,112,2025-02-17 10:55:50,0.0
-10584,376,11280,102,-404,17,2025-02-17 10:55:50,0.0
-11088,-60,11104,236,-532,187,2025-02-17 10:55:50,0.0
-10976,-36,11340,519,-947,422,2025-02-17 10:55:50,0.0
-10660,0,11432,858,-875,1050,2025-02-17 10:55:50,0.0
-10280,268,11600,1135,265,1342,2025-02-17 10:55:50,0.0
-11348,176,11864,1132,1115,1297,2025-02-17 10:55:50,0.0
-11556,492,10536,801,709,1070,2025-02-17 10:55:50,0.0
-11488,964,11020,548,-97,959,2025-02-17 10:55:50,0.0
-10900,724,10804,599,-166,1086,2025-02-17 10:55:50,0.0
-10900,600,11172,789,-33,1170,2025-02-17 10:55:50,0.0
-10896,292,11132,1185,367,1415,2025-02-17 10:55:50,0.0
-11144,412,11376,1409,1100,1566,2025-02-17 10:55:50,0.0
-11016,924,9916,1041,1386,1181,2025-02-17 10:55:50,0.0
-11104,1560,10376,719,1209,405,2025-02-17 10:55:50,0.0
-11132,1464,10404,772,379,-247,2025-02-17 10:55:50,0.0
-10788,1408,9200,617,250,-90,2025-02-17 10:55:50,0.0
-10816,1616,11392,894,651,218,2025-02-17 10:55:50,0.0
-10468,1900,11548,593,1278,265,2025-02-17 10:55:50,0.0
-10924,2036,11920,316,1452,337,2025-02-17 10:55:50,0.0
-10764,1800,11760,-197,1496,373,2025-02-17 10:55:50,0.0
-10540,1552,12028,-564,1552,256,2025-02-17 10:55:50,0.0
-10192,1256,12256,-747,1774,173,2025-02-17 10:55:50,0.0
-10320,1072,12288,-912,2487,19,2025-02-17 10:55:50,0.0
-10112,1004,12284,-656,3124,9,2025-02-17 10:55:50,0.0
-9668,1108,11460,-469,3365,-154,2025-02-17 10:55:50,0.0
-10636,1316,11680,-362,3381,5,2025-02-17 10:55:50,0.0
-11040,1420,11068,-375,3379,112,2025-02-17 10:55:50,0.0
-11156,1404,11212,-585,3582,360,2025-02-17 10:55:50,0.0
-11240,1384,10876,-700,3953,334,2025-02-17 10:55:50,0.0
-11900,1236,10560,-1174,4001,484,2025-02-17 10:55:50,0.0
-12032,1104,10492,-1805,3759,418,2025-02-17 10:55:50,0.0
-11464,1392,10940,-2009,3297,-121,2025-02-17 10:55:50,0.0
-11352,1068,7496,-1479,2143,-1654,2025-02-17 10:55:50,0.0
-11204,676,9624,-2013,1672,-2371,2025-02-17 10:55:50,0.0
-10976,-576,10340,-1853,1593,-2223,2025-02-17 10:55:50,
-11640,212,9584,-1856,2367,-1251,2025-02-17 10:55:50,0.0
-10600,2412,11912,-1464,2793,-516,2025-02-17 10:55:50,0.0
-10940,2992,10108,-1300,4284,439,2025-02-17 10:55:50,0.0
-11456,2204,10184,-1011,6106,1055,2025-02-17 10:55:50,0.0
-10364,1704,10588,130,6024,875,2025-02-17 10:55:50,0.0
-12548,812,9448,506,6839,1002,2025-02-17 10:55:50,0.0
-9488,1172,8684,1102,4494,269,2025-02-17 10:55:50,0.0
-11120,860,8660,906,4523,-243,2025-02-17 10:55:50,0.0
-11944,180,10724,568,5872,-302,2025-02-17 10:55:50,0.0
-10088,464,11648,918,7764,-322,2025-02-17 10:55:50,0.0
-18308,2024,9944,304,11848,391,2025-02-17 10:55:51,0.0
-13736,1012,14028,638,14702,815,2025-02-17 10:55:51,0.0
-15604,-460,11704,1438,15303,-412,2025-02-17 10:55:51,0.0
-14068,-1028,12384,3870,15450,-2520,2025-02-17 10:55:51,0.0
-15136,-964,8076,6000,15254,-3100,2025-02-17 10:55:51,0.0
-14252,-184,5992,6391,15659,-2031,2025-02-17 10:55:51,0.0
-16388,2068,1772,4208,13445,-422,2025-02-17 10:55:51,0.0
-16816,2092,3048,1988,9215,293,2025-02-17 10:55:51,0.0
-16916,1472,5388,1440,5823,-192,2025-02-17 10:55:51,0.0
-15960,1520,5548,1002,5534,-798,2025-02-17 10:55:51,0.0
-16948,2208,5048,733,6756,-680,2025-02-17 10:55:51,0.0
-16264,1360,4160,140,6528,-104,2025-02-17 10:55:51,0.0
-14912,596,3940,-71,5309,543,2025-02-17 10:55:51,0.0
-15588,696,3700,-187,4400,617,2025-02-17 10:55:51,0.0
-15088,2268,3672,148,4735,567,2025-02-17 10:55:51,0.0
-15716,1976,2880,686,4679,882,2025-02-17 10:55:51,0.0
-14304,1944,5172,1090,4411,658,2025-02-17 10:55:51,0.0
-13416,1288,5580,1388,3668,267,2025-02-17 10:55:51,0.0
-15080,1260,3552,1530,4477,227,2025-02-17 10:55:51,0.0
-14104,1396,2320,1660,6077,97,2025-02-17 10:55:51,0.0
-16164,1920,3836,1364,6463,-19,2025-02-17 10:55:51,0.0
-15944,1808,1644,1482,6006,200,2025-02-17 10:55:51,0.0
-15988,2080,872,1121,4931,450,2025-02-17 10:55:51,0.0
-16112,2268,332,396,4626,399,2025-02-17 10:55:51,0.0
-14400,2260,-592,-512,4243,609,2025-02-17 10:55:51,0.0
-12228,2148,-1128,-1009,2636,-74,2025-02-17 10:55:51,0.0
-12232,2632,748,487,3018,-2297,2025-02-17 10:55:51,0.0
-13704,1548,1504,695,2269,-3633,2025-02-17 10:55:51,0.0
-12988,1220,992,1569,3329,-5120,2025-02-17 10:55:51,0.0
-13480,724,504,1106,3695,-4683,2025-02-17 10:55:51,0.0
-13216,1200,-412,15,1455,-4014,2025-02-17 10:55:51,0.0
-12316,936,-92,-477,-173,-3800,2025-02-17 10:55:51,0.0
-11580,608,700,-384,-527,-4367,2025-02-17 10:55:51,0.0
-12636,600,824,-286,-16,-4623,2025-02-17 10:55:51,0.0
-12560,284,1040,-390,1393,-4648,2025-02-17 10:55:51,0.0
-13128,372,1852,-64,1533,-4854,2025-02-17 10:55:51,0.0
-12768,128,992,314,1047,-4984,2025-02-17 10:55:51,0.0
-12960,88,408,351,490,-5090,2025-02-17 10:55:51,0.0
-12796,40,-328,91,565,-5287,2025-02-17 10:55:51,0.0
-11928,-236,40,-101,493,-5762,2025-02-17 10:55:51,0.0
-12584,-980,-376,-15,-582,-5583,2025-02-17 10:55:51,0.0
-14548,-1852,20,-138,573,-4684,2025-02-17 10:55:51,0.0
-12500,-3508,-1324,-271,2318,-3844,2025-02-17 10:55:51,0.0
-14072,-2856,-1216,-888,5276,-3395,2025-02-17 10:55:51,0.0
-14296,-2164,-240,-1202,5768,-3152,2025-02-17 10:55:51,0.0
-14856,-1416,-1312,-1369,4767,-2783,2025-02-17 10:55:51,0.0
-13688,-1456,-2376,-2094,2887,-2505,2025-02-17 10:55:51,0.0
-12968,-1684,-1340,-2236,694,-1864,2025-02-17 10:55:51,0.0
-13500,-2092,-952,-2179,-1149,-912,2025-02-17 10:55:51,0.0
-12632,-2316,-636,-1874,-1744,-252,2025-02-17 10:55:51,0.0
-12052,-2324,-480,-1240,-2231,0,2025-02-17 10:55:51,0.0
-12104,-1628,-212,-928,-2790,411,2025-02-17 10:55:51,0.0
-11556,-1816,-88,-529,-3218,771,2025-02-17 10:55:51,0.0
-11380,-1984,-524,-1085,-4027,1153,2025-02-17 10:55:51,0.0
-11336,-2368,200,-1400,-4382,1628,2025-02-17 10:55:51,0.0
-11252,-2324,516,-711,-3997,1948,2025-02-17 10:55:51,0.0
-10720,-2376,400,36,-3262,2138,2025-02-17 10:55:51,0.0
-9980,-2140,568,705,-2594,1643,2025-02-17 10:55:51,0.0
-11848,-2344,1096,1863,-1221,1933,2025-02-17 10:55:51,0.0
-12508,-2156,-344,1331,-60,3163,2025-02-17 10:55:51,0.0
-12276,-2172,-572,319,1401,3846,2025-02-17 10:55:52,0.0
-12036,-1976,52,78,3188,3936,2025-02-17 10:55:52,0.0
-12048,-2272,-304,-288,5457,3872,2025-02-17 10:55:52,0.0
-11396,-2584,-332,-743,7776,3203,2025-02-17 10:55:52,0.0
-12016,-2960,-668,-1180,11460,2437,2025-02-17 10:55:52,0.0
-12828,-2940,-984,-1250,17120,2760,2025-02-17 10:55:52,0.0
-12456,-3224,-1172,-865,23978,3169,2025-02-17 10:55:52,0.0
-12100,-3256,-2576,-833,32017,2875,2025-02-17 10:55:52,0.0
-12656,-3604,-4500,-1538,32767,2505,2025-02-17 10:55:52,0.0
-13316,-3908,-6720,-3184,32767,2762,2025-02-17 10:55:52,5
-13684,-3872,-7836,-4740,32767,4168,2025-02-17 10:55:52,5
-12068,-3268,-9188,-5890,32767,6049,2025-02-17 10:55:52,5
-9660,-2520,-10444,-7147,32767,6947,2025-02-17 10:55:52,5
-7384,-2088,-11468,-8811,32767,6961,2025-02-17 10:55:52,5
-5672,-1980,-11200,-10061,30478,6044,2025-02-17 10:55:52,5
-5600,-2408,-10692,-10294,17537,4953,2025-02-17 10:55:52,5
-6748,-2932,-10532,-10316,5082,5141,2025-02-17 10:55:52,5
-8344,-3104,-11284,-10913,-4566,6618,2025-02-17 10:55:52,5
-9200,-2376,-11240,-11357,-11181,8908,2025-02-17 10:55:52,5
-9136,-1364,-11024,-11308,-15714,10830,2025-02-17 10:55:52,5
-8484,-148,-10276,-10435,-18860,11870,2025-02-17 10:55:52,5
-8008,412,-9472,-9135,-19839,12192,2025-02-17 10:55:52,5
-8304,360,-9196,-8083,-19127,12305,2025-02-17 10:55:52,5
-8548,220,-9332,-8431,-18164,13360,2025-02-17 10:55:52,5
-8864,-536,-11104,-10481,-18948,16703,2025-02-17 10:55:52,5
-7216,-2248,-11960,-16453,-22112,23774,2025-02-17 10:55:52,5
-3548,-2652,-10844,-24677,-23611,30028,2025-02-17 10:55:52,5
-820,-3156,-2816,-29785,-23145,32767,2025-02-17 10:55:52,5
5936,-3364,1752,-29264,-25499,32767,2025-02-17 10:55:52,5
3680,-3460,2112,-27540,-25672,32767,2025-02-17 10:55:52,5
3932,-3100,1900,-25635,-25107,32767,2025-02-17 10:55:52,5
3568,-3028,2040,-23354,-24170,32767,2025-02-17 10:55:52,5
3568,-2872,2304,-21216,-23079,32767,2025-02-17 10:55:52,5
3776,-2824,2088,-19354,-21973,32767,2025-02-17 10:55:52,5
3676,-2616,2532,-17427,-20925,32767,2025-02-17 10:55:52,5
3764,-2424,2720,-15391,-20001,32651,2025-02-17 10:55:52,5
3672,-2216,2888,-13133,-19125,31970,2025-02-17 10:55:52,5
3636,-2052,2404,-11026,-18336,31220,2025-02-17 10:55:52,5
3428,-1992,2532,-9053,-17754,30621,2025-02-17 10:55:52,5
3264,-1884,2636,-6954,-17343,30028,2025-02-17 10:55:52,5
3300,-1720,2372,-4961,-16956,29478,2025-02-17 10:55:52,5
3172,-1664,2484,-3278,-16475,28899,2025-02-17 10:55:52,5
3196,-1612,2408,-1393,-15718,28107,2025-02-17 10:55:52,5
3044,-1344,2116,29,-14690,27435,2025-02-17 10:55:52,5
2968,-1440,2344,1458,-13487,26768,2025-02-17 10:55:52,5
3268,-1188,2896,3169,-11453,25653,2025-02-17 10:55:52,5
3516,-1080,2868,5323,-8594,24410,2025-02-17 10:55:52,5
4420,-1960,1904,6390,-5209,21902,2025-02-17 10:55:52,5
1096,-864,-32,8392,-8610,23039,2025-02-17 10:55:52,5
32767,32767,-32768,7691,-6549,28372,2025-02-17 10:55:52,5
32767,-14444,25972,13320,32767,1678,2025-02-17 10:55:52,5
17912,-6572,11872,18048,22618,-8496,2025-02-17 10:55:52,5
6264,-3320,4516,22156,18093,-7006,2025-02-17 10:55:52,5
-2040,-1912,5688,22806,17266,-4596,2025-02-17 10:55:52,5
-4740,-3220,19184,31562,15610,2186,2025-02-17 10:55:52,5
2412,-3740,1376,32767,13794,6170,2025-02-17 10:55:52,5
2884,-2812,576,32767,16212,5510,2025-02-17 10:55:52,5
2452,-2084,504,30738,18266,5282,2025-02-17 10:55:52,5
3380,-1764,-536,26270,21510,4864,2025-02-17 10:55:52,5
2948,-388,288,23009,24085,4690,2025-02-17 10:55:52,5
2000,1060,1480,20547,23350,6687,2025-02-17 10:55:52,5
696,2412,896,18011,21255,9967,2025-02-17 10:55:52,5
-1224,7192,3920,18655,16231,15033,2025-02-17 10:55:52,5
-6196,16296,4720,18329,4112,30078,2025-02-17 10:55:52,5
-404,23640,6512,22137,-12037,32767,2025-02-17 10:55:53,5
30144,23476,13676,27572,-32275,32767,2025-02-17 10:55:53,5
32767,6480,-9320,27738,-32768,32767,2025-02-17 10:55:53,5
32767,-5076,-22740,16683,-32768,11393,2025-02-17 10:55:53,5
32767,-6884,-27060,10975,-32768,-6085,2025-02-17 10:55:53,5
21580,-2920,-24304,5510,-32768,-13643,2025-02-17 10:55:53,5
6648,1832,-18316,2833,-32768,-13210,2025-02-17 10:55:53,5
384,3264,-9332,3665,-32768,-11166,2025-02-17 10:55:53,5
204,2440,-9688,5711,-32768,-9541,2025-02-17 10:55:53,5
-3144,2000,-9576,4755,-25240,-6474,2025-02-17 10:55:53,5
-3628,1236,-13032,2820,-14357,-3215,2025-02-17 10:55:53,5
-1864,2032,-15024,960,-1251,737,2025-02-17 10:55:53,5
3612,3268,-17352,807,9390,1462,2025-02-17 10:55:53,5
8528,3316,-17300,-919,11313,545,2025-02-17 10:55:53,5
9540,4092,-15560,-1154,7814,-276,2025-02-17 10:55:53,5
9568,4808,-13084,-1060,1777,-316,2025-02-17 10:55:53,5
8156,4644,-12256,-293,-1287,-457,2025-02-17 10:55:53,5
6244,3800,-12948,198,-1504,-419,2025-02-17 10:55:53,5
5556,3096,-14212,120,-44,-105,2025-02-17 10:55:53,5
6804,3360,-14652,-149,900,68,2025-02-17 10:55:53,5
7592,3936,-14256,-237,669,-83,2025-02-17 10:55:53,5
7192,4068,-13636,-244,131,-231,2025-02-17 10:55:53,5
6788,4020,-13484,-79,-69,-178,2025-02-17 10:55:53,5
6768,3724,-13896,-13,90,-128,2025-02-17 10:55:53,5
7024,3620,-14304,-101,250,-163,2025-02-17 10:55:53,5
6988,3724,-14116,-195,248,-173,2025-02-17 10:55:53,5
6856,3800,-13724,-185,273,-152,2025-02-17 10:55:53,5
6908,3908,-13704,-133,224,-142,2025-02-17 10:55:53,5
6948,3844,-13864,-54,119,-135,2025-02-17 10:55:53,5
6912,3720,-13944,-88,161,-136,2025-02-17 10:55:53,5
6920,3668,-14068,-149,197,-151,2025-02-17 10:55:53,5
6888,3756,-13804,-154,207,-158,2025-02-17 10:55:53,5
6852,3720,-13792,-156,223,-153,2025-02-17 10:55:53,5
6960,3808,-13828,-126,217,-171,2025-02-17 10:55:53,5
7004,3656,-14036,-122,167,-148,2025-02-17 10:55:53,5
6916,3784,-14020,-141,193,-159,2025-02-17 10:55:53,5
6816,3732,-14056,-150,238,-147,2025-02-17 10:55:53,5
6872,3692,-13792,-145,242,-161,2025-02-17 10:55:53,5
7000,3792,-13884,-112,194,-156,2025-02-17 10:55:53,5
6996,3692,-14004,-124,191,-160,2025-02-17 10:55:53,5
7004,3724,-13960,-176,178,-169,2025-02-17 10:55:53,5
6888,3772,-13896,-147,201,-155,2025-02-17 10:55:53,5
6996,3692,-13984,-124,185,-144,2025-02-17 10:55:53,5
6904,3864,-13976,-124,182,-159,2025-02-17 10:55:53,5
6952,3652,-13928,-118,164,-150,2025-02-17 10:55:53,5
6892,3692,-13904,-139,198,-152,2025-02-17 10:55:53,5
6932,3840,-13996,-128,220,-169,2025-02-17 10:55:53,5
6932,3848,-13944,-136,190,-147,2025-02-17 10:55:53,5
6960,3756,-13944,-139,191,-162,2025-02-17 10:55:53,5
6992,3748,-13940,-160,180,-160,2025-02-17 10:55:53,5
6976,3740,-13908,-138,170,-180,2025-02-17 10:55:53,5
6876,3780,-13916,-130,191,-164,2025-02-17 10:55:53,5
6892,3764,-14020,-165,186,-171,2025-02-17 10:55:53,5
6912,3816,-13904,-133,191,-167,2025-02-17 10:55:53,5
6876,3724,-13956,-127,157,-151,2025-02-17 10:55:53,5
6844,3700,-14040,-157,183,-173,2025-02-17 10:55:53,5
6884,3804,-13768,-161,192,-177,2025-02-17 10:55:53,5
6884,3760,-13908,-117,194,-176,2025-02-17 10:55:53,5
6980,3688,-13832,-120,167,-158,2025-02-17 10:55:53,5
6816,3800,-13908,-148,188,-161,2025-02-17 10:55:53,5
6860,3760,-13976,-156,196,-151,2025-02-17 10:55:53,5
6960,3796,-13820,-168,192,-154,2025-02-17 10:55:54,5
6808,3784,-13980,-149,200,-152,2025-02-17 10:55:54,5
6956,3704,-14008,-145,156,-173,2025-02-17 10:55:54,5
6828,3760,-13936,-136,180,-182,2025-02-17 10:55:54,5
6940,3792,-13896,-136,162,-148,2025-02-17 10:55:54,5
7000,3776,-13984,-137,184,-182,2025-02-17 10:55:54,5
6972,3692,-13828,-127,204,-161,2025-02-17 10:55:54,5
6920,3732,-13996,-153,164,-148,2025-02-17 10:55:54,5
6852,3648,-13896,-116,200,-169,2025-02-17 10:55:54,5
7032,3732,-13976,-144,185,-166,2025-02-17 10:55:54,5
6940,3800,-14032,-148,196,-166,2025-02-17 10:55:54,5
7164,3744,-13624,-13,157,-183,2025-02-17 10:55:54,5
6644,3440,-14236,-234,130,-149,2025-02-17 10:55:54,5
7000,3632,-13932,-203,294,-124,2025-02-17 10:55:54,5
7152,3888,-13704,-115,264,-170,2025-02-17 10:55:54,5
6896,3688,-14084,-122,80,-186,2025-02-17 10:55:54,5
6952,3740,-14016,-192,208,-160,2025-02-17 10:55:54,5
6928,3768,-13832,-118,145,-157,2025-02-17 10:55:54,5
6856,3596,-13924,-148,239,-161,2025-02-17 10:55:54,5
6920,3720,-13916,-134,192,-154,2025-02-17 10:55:54,5
6900,3680,-13884,-162,203,-170,2025-02-17 10:55:54,5
6820,3768,-13824,-141,166,-180,2025-02-17 10:55:54,5
6904,3716,-13888,-113,165,-189,2025-02-17 10:55:54,5
6856,3708,-14004,-162,166,-158,2025-02-17 10:55:54,5
6840,3784,-13960,-162,251,-156,2025-02-17 10:55:54,5
6936,3612,-13996,-132,181,-170,2025-02-17 10:55:54,5
6956,3620,-13904,-141,161,-170,2025-02-17 10:55:54,5
6928,3744,-13956,-136,184,-193,2025-02-17 10:55:54,5
6976,3648,-13908,-154,192,-173,2025-02-17 10:55:54,5
7028,3720,-13884,-151,194,-170,2025-02-17 10:55:54,5
6932,3756,-13840,-148,209,-167,2025-02-17 10:55:54,5
6936,3736,-13872,-127,193,-156,2025-02-17 10:55:54,0.0
6932,3600,-13952,-124,182,-174,2025-02-17 10:55:54,0.0
6868,3768,-14004,-140,203,-152,2025-02-17 10:55:54,0.0
6900,3712,-13928,-145,176,-166,2025-02-17 10:55:54,0.0
6956,3704,-13984,-123,202,-166,2025-02-17 10:55:54,0.0
6908,3768,-13964,-162,175,-164,2025-02-17 10:55:54,0.0
6928,3708,-13888,-149,214,-163,2025-02-17 10:55:54,0.0
6860,3672,-13920,-148,192,-169,2025-02-17 10:55:54,0.0
6940,3780,-13920,-161,201,-159,2025-02-17 10:55:54,0.0
6988,3708,-14012,-174,178,-164,2025-02-17 10:55:54,0.0
7052,3740,-13908,-176,194,-175,2025-02-17 10:55:54,0.0
6916,3636,-13888,-123,180,-157,2025-02-17 10:55:54,0.0
6824,3632,-13836,-162,205,-168,2025-02-17 10:55:54,0.0
6848,3720,-13968,-167,212,-148,2025-02-17 10:55:54,0.0
6960,3680,-14080,-131,200,-188,2025-02-17 10:55:54,0.0
6944,3724,-14000,-140,169,-163,2025-02-17 10:55:54,0.0
6928,3768,-13932,-132,170,-164,2025-02-17 10:55:54,0.0
6972,3696,-13892,-154,195,-168,2025-02-17 10:55:54,0.0
6936,3720,-13876,-135,175,-175,2025-02-17 10:55:54,0.0
7040,3660,-13860,-145,224,-166,2025-02-17 10:55:54,0.0
6968,3776,-13996,-154,179,-177,2025-02-17 10:55:54,0.0
6900,3604,-13968,-142,192,-162,2025-02-17 10:55:54,0.0
6912,3728,-13848,-165,195,-206,2025-02-17 10:55:54,0.0
6892,3728,-13920,-157,185,-167,2025-02-17 10:55:54,0.0
6948,3672,-13916,-157,205,-141,2025-02-17 10:55:54,0.0
6968,3584,-13880,-152,175,-160,2025-02-17 10:55:54,0.0
6920,3696,-13980,-146,181,-190,2025-02-17 10:55:54,0.0
6832,3720,-14036,-159,194,-182,2025-02-17 10:55:54,0.0
6952,3656,-13808,-134,177,-177,2025-02-17 10:55:54,0.0
6980,3756,-13900,-152,212,-188,2025-02-17 10:55:54,0.0
6952,3704,-13848,-164,193,-161,2025-02-17 10:55:55,0.0
6892,3772,-13916,-117,171,-160,2025-02-17 10:55:55,0.0
6852,3548,-14028,-140,170,-185,2025-02-17 10:55:55,0.0
6820,3648,-13944,-195,210,-146,2025-02-17 10:55:55,0.0
6976,3692,-13880,-148,201,-149,2025-02-17 10:55:55,0.0
6956,3728,-13728,-140,187,-161,2025-02-17 10:55:55,0.0
7012,3656,-13860,-116,156,-174,2025-02-17 10:55:55,0.0
6912,3652,-13892,-141,167,-168,2025-02-17 10:55:55,0.0
6864,3648,-13904,-168,236,-156,2025-02-17 10:55:55,0.0
6864,3788,-13984,-145,230,-136,2025-02-17 10:55:55,0.0
6908,3692,-13948,-143,156,-164,2025-02-17 10:55:55,0.0
6872,3752,-13896,-154,188,-176,2025-02-17 10:55:55,0.0
6968,3648,-14008,-124,223,-178,2025-02-17 10:55:55,0.0
6940,3612,-14116,-137,187,-163,2025-02-17 10:55:55,0.0
6876,3668,-13944,-178,162,-162,2025-02-17 10:55:55,0.0
7032,3676,-14108,-158,178,-170,2025-02-17 10:55:55,0.0
6928,3600,-13888,-154,193,-178,2025-02-17 10:55:55,0.0
6868,3676,-13996,-128,202,-168,2025-02-17 10:55:55,0.0
6908,3760,-13872,-166,173,-159,2025-02-17 10:55:55,0.0
7004,3624,-13912,-140,198,-165,2025-02-17 10:55:55,0.0
6828,3652,-14032,-162,160,-135,2025-02-17 10:55:55,0.0
6956,3872,-13840,-125,137,-158,2025-02-17 10:55:55,0.0
6840,3532,-14020,-74,76,-201,2025-02-17 10:55:55,0.0
6816,3536,-13952,-163,190,-171,2025-02-17 10:55:55,0.0
6948,3816,-13952,-158,306,-163,2025-02-17 10:55:55,0.0
6908,3668,-14000,-145,175,-170,2025-02-17 10:55:55,0.0
6860,3644,-13968,-140,208,-202,2025-02-17 10:55:55,0.0
6912,3644,-14040,-174,215,-168,2025-02-17 10:55:55,0.0
7088,3660,-13884,-163,196,-157,2025-02-17 10:55:55,0.0
6888,3852,-13944,-144,169,-185,2025-02-17 10:55:55,0.0
6968,3680,-13912,-140,163,-178,2025-02-17 10:55:55,0.0
7028,3640,-13860,-151,159,-155,2025-02-17 10:55:55,0.0
6940,3672,-13920,-177,191,-160,2025-02-17 10:55:55,0.0
6928,3628,-14052,-180,168,-154,2025-02-17 10:55:55,0.0
6956,3664,-14044,-157,211,-154,2025-02-17 10:55:55,0.0
7044,3732,-13876,-159,194,-163,2025-02-17 10:55:55,0.0
6960,3768,-13976,-135,155,-163,2025-02-17 10:55:55,0.0
6888,3676,-14068,-139,187,-185,2025-02-17 10:55:55,0.0
6884,3664,-13984,-148,216,-171,2025-02-17 10:55:55,0.0
6972,3564,-13964,-135,197,-167,2025-02-17 10:55:55,0.0
6916,3784,-13884,-147,181,-175,2025-02-17 10:55:55,0.0
6884,3740,-13888,-165,192,-162,2025-02-17 10:55:55,0.0
6968,3660,-13916,-160,161,-186,2025-02-17 10:55:55,0.0
6960,3768,-13884,-123,217,-205,2025-02-17 10:55:55,
6948,3752,-13916,-146,189,-150,2025-02-17 10:55:55,0.0
6984,3644,-13792,-164,209,-174,2025-02-17 10:55:55,0.0
6984,3656,-13944,-116,176,-179,2025-02-17 10:55:55,0.0
7004,3716,-13872,-178,176,-170,2025-02-17 10:55:55,0.0
6964,3764,-13948,-177,210,-182,2025-02-17 10:55:55,0.0
6960,3748,-13860,-164,206,-166,2025-02-17 10:55:55,0.0
6964,3688,-13880,-151,179,-175,2025-02-17 10:55:55,0.0
6912,3696,-13996,-154,175,-167,2025-02-17 10:55:55,0.0
6960,3700,-13964,-144,194,-164,2025-02-17 10:55:55,0.0
6992,3604,-14016,-138,194,-198,2025-02-17 10:55:55,0.0
6940,3680,-13984,-155,178,-176,2025-02-17 10:55:55,0.0
6860,3648,-13708,-148,165,-174,2025-02-17 10:55:55,0.0
6956,3692,-13948,-144,172,-164,2025-02-17 10:55:55,0.0
6976,3676,-13976,-147,195,-167,2025-02-17 10:55:55,0.0
6972,3676,-13864,-144,213,-166,2025-02-17 10:55:55,0.0
6904,3644,-13920,-140,188,-172,2025-02-17 10:55:56,0.0
6980,3652,-13908,-180,200,-195,2025-02-17 10:55:56,0.0
6960,3680,-13884,-170,170,-166,2025-02-17 10:55:56,0.0
6840,3600,-14060,-164,168,-172,2025-02-17 10:55:56,0.0
7012,3672,-14020,-150,193,-172,2025-02-17 10:55:56,0.0
6856,3704,-13944,-118,186,-175,2025-02-17 10:55:56,0.0
6968,3564,-13976,-178,173,-161,2025-02-17 10:55:56,0.0
6848,3620,-13872,-158,200,-171,2025-02-17 10:55:56,0.0
6980,3644,-13748,-139,171,-168,2025-02-17 10:55:56,0.0
7020,3596,-13996,-148,159,-171,2025-02-17 10:55:56,0.0
6920,3760,-13904,-139,180,-195,2025-02-17 10:55:56,0.0
6908,3584,-13848,-145,192,-175,2025-02-17 10:55:56,0.0
6912,3616,-13928,-159,160,-179,2025-02-17 10:55:56,0.0
6896,3628,-13976,-169,236,-208,2025-02-17 10:55:56,0.0
6972,3652,-14024,-125,233,-129,2025-02-17 10:55:56,0.0
7600,3532,-14132,-183,-30,-277,2025-02-17 10:55:56,0.0
7028,3892,-13608,-162,-533,-318,2025-02-17 10:55:56,0.0
6812,3656,-13912,-56,-450,-308,2025-02-17 10:55:56,0.0
6892,3532,-13960,-267,91,-259,2025-02-17 10:55:56,0.0
8212,4196,-11960,219,-30,-583,2025-02-17 10:55:56,0.0
7712,4064,-12948,863,-833,-946,2025-02-17 10:55:56,0.0
6024,3084,-14480,931,-610,-1029,2025-02-17 10:55:56,0.0
6204,3132,-14712,602,-25,-746,2025-02-17 10:55:56,0.0
5784,3380,-15812,156,-589,-294,2025-02-17 10:55:56,0.0
7860,3624,-15104,-248,-196,-532,2025-02-17 10:55:56,0.0
6276,3520,-13580,-508,31,-435,2025-02-17 10:55:56,0.0
5584,3968,-12636,259,-225,90,2025-02-17 10:55:56,0.0
6604,3284,-14208,157,681,57,2025-02-17 10:55:56,0.0
7136,3108,-14556,-114,721,-7,2025-02-17 10:55:56,0.0
6772,3032,-14432,-474,459,-199,2025-02-17 10:55:56,0.0
6952,3524,-14016,-642,554,-229,2025-02-17 10:55:56,0.0
7452,3880,-13608,-550,-282,-490,2025-02-17 10:55:56,0.0
7256,3836,-13864,51,-2391,-712,2025-02-17 10:55:56,0.0
6348,3184,-15104,-252,-1728,-525,2025-02-17 10:55:56,0.0
5580,3268,-14856,-1129,1161,-934,2025-02-17 10:55:56,0.0
6928,4248,-12668,-658,1455,-1289,2025-02-17 10:55:56,0.0
9436,4420,-12764,155,-2298,-2863,2025-02-17 10:55:56,0.0
6940,4164,-13512,939,-9545,-3188,2025-02-17 10:55:56,0.0
7332,3648,-14748,1752,-10734,-971,2025-02-17 10:55:56,0.0
5372,4372,-15912,-607,-4261,-1904,2025-02-17 10:55:56,0.0
4840,4712,-9848,216,2531,-5345,2025-02-17 10:55:56,0.0
4500,2680,-12572,2022,-2099,-4891,2025-02-17 10:55:56,0.0
3832,1028,-17192,699,-7190,-3582,2025-02-17 10:55:56,0.0
3848,1952,-19116,-1781,-358,-4392,2025-02-17 10:55:56,0.0
6192,3564,-17496,-4504,13199,-6609,2025-02-17 10:55:56,0.0
5928,4880,-11632,-4136,20039,-8772,2025-02-17 10:55:56,0.0
6828,5064,-12844,-727,9872,-3800,2025-02-17 10:55:56,0.0
11056,4628,-15328,421,-6672,-3532,2025-02-17 10:55:56,0.0
9540,4244,-13020,2008,-19829,-4102,2025-02-17 10:55:56,0.0
9680,2228,-13600,4448,-25104,-7955,2025-02-17 10:55:56,0.0
11160,3380,-16588,3518,-30550,-12197,2025-02-17 10:55:56,0.0
4336,5180,-18248,-1049,-32768,-13340,2025-02-17 10:55:56,0.0
912,4780,-18900,-3120,-32768,-13387,2025-02-17 10:55:56,0.0
-3680,4904,-18368,-4674,-32768,-14156,2025-02-17 10:55:56,0.0
-6672,4028,-20140,-6619,-32768,-14094,2025-02-17 10:55:56,0.0
-6476,5040,-18044,-7455,-32768,-13197,2025-02-17 10:55:56,0.0
-7400,6212,-18788,-8496,-32768,-12187,2025-02-17 10:55:56,0.0
712,5420,-21096,-6759,-32768,-14470,2025-02-17 10:55:56,0.0
-11620,6820,-21804,-5864,-32196,-14329,2025-02-17 10:55:56,0.0
-15836,5448,-22444,-8073,-20488,-10543,2025-02-17 10:55:56,0.0
-10664,3324,-15896,-7531,-7117,-10701,2025-02-17 10:55:57,0.0
-13324,2864,-15028,-4977,3194,-12592,2025-02-17 10:55:57,0.0
-15968,2376,-14856,-5641,12248,-9352,2025-02-17 10:55:57,0.0
-9388,2524,-11880,-6127,19508,-7595,2025-02-17 10:55:57,0.0
-9376,3724,-10876,-3714,22714,-9435,2025-02-17 10:55:57,0.0
-9244,5712,-15236,-2613,22504,-9876,2025-02-17 10:55:57,0.0
-3748,5728,-17524,-3172,17244,-12776,2025-02-17 10:55:57,0.0
-2540,5224,-19036,-4224,7317,-16818,2025-02-17 10:55:57,0.0
-6228,4168,-20012,-6163,-1915,-18030,2025-02-17 10:55:57,0.0
-9152,2416,-17776,-6518,-9441,-17119,2025-02-17 10:55:57,0.0
-10752,-52,-22080,-8037,-15699,-15543,2025-02-17 10:55:57,0.0
-10084,-1456,-22080,-11131,-19548,-13422,2025-02-17 10:55:57,0.0
-8264,-1516,-17588,-11986,-21308,-14266,2025-02-17 10:55:57,0.0
-9192,804,-15288,-13631,-20560,-12899,2025-02-17 10:55:57,0.0
-9056,3584,-11672,-13141,-17574,-12839,2025-02-17 10:55:57,0.0
-9328,4960,-11060,-12697,-13890,-13573,2025-02-17 10:55:57,0.0
-8320,3300,-6032,-11282,-9303,-14932,2025-02-17 10:55:57,0.0
-9920,2320,-3492,-8048,-6978,-14503,2025-02-17 10:55:57,0.0
-8624,872,-5996,-7345,-4525,-12985,2025-02-17 10:55:57,0.0
-11428,-428,-10188,-8400,-1324,-12189,2025-02-17 10:55:57,0.0
-11056,-1212,-11336,-9933,1046,-11534,2025-02-17 10:55:57,0.0
-9592,-776,-11116,-11076,1938,-11946,2025-02-17 10:55:57,0.0
-10100,-872,-9116,-12370,1589,-12002,2025-02-17 10:55:57,0.0
-10988,-520,-5164,-11857,-156,-9727,2025-02-17 10:55:57,0.0
-9868,-732,-4644,-11708,-2628,-7711,2025-02-17 10:55:57,
-8848,-732,-4760,-12314,-5485,-6955,2025-02-17 10:55:57,0.0
-8048,-596,-4892,-13180,-8624,-6856,2025-02-17 10:55:57,0.0
-7296,-428,-4256,-13556,-12438,-6405,2025-02-17 10:55:57,0.0
-7900,-156,-3604,-13412,-17058,-5746,2025-02-17 10:55:57,0.0
-7764,-820,-2488,-13090,-19483,-4967,2025-02-17 10:55:57,0.0
-7780,-1768,-3828,-13628,-20317,-4986,2025-02-17 10:55:57,0.0
-9204,-2396,-4096,-14622,-19336,-4480,2025-02-17 10:55:57,0.0
-9808,-3292,-3660,-15666,-16619,-3518,2025-02-17 10:55:57,0.0
-10984,-2388,-2468,-16145,-12449,-2527,2025-02-17 10:55:57,0.0
-9972,-1076,-916,-15703,-7540,-1600,2025-02-17 10:55:57,0.0
-7672,220,-360,-14703,-2606,-2665,2025-02-17 10:55:57,0.0
-8396,732,1192,-13812,1383,-3879,2025-02-17 10:55:57,0.0
-9484,-68,1284,-11604,4626,-4721,2025-02-17 10:55:57,0.0
-10048,-1344,-1068,-11030,4944,-4586,2025-02-17 10:55:57,0.0
-9464,-1448,-1440,-10680,2839,-3987,2025-02-17 10:55:57,0.0
-7712,-1220,-2892,-10672,-1391,-3191,2025-02-17 10:55:57,0.0
-3200,-2472,-3568,-12523,-7391,-4637,2025-02-17 10:55:57,0.0
-7388,-1304,-196,-11973,-11485,-4063,2025-02-17 10:55:57,0.0
-6300,12,1896,-10055,-14167,-2868,2025-02-17 10:55:57,0.0
-5900,-52,148,-9675,-14722,-3372,2025-02-17 10:55:57,0.0
-7312,-32,500,-9668,-13234,-4268,2025-02-17 10:55:57,0.0
-10300,40,64,-9356,-9074,-4210,2025-02-17 10:55:57,0.0
-12056,204,1488,-8519,-3030,-3664,2025-02-17 10:55:57,0.0
-12668,-240,2456,-7341,3399,-3196,2025-02-17 10:55:57,0.0
-12752,-1072,2012,-7062,8099,-3321,2025-02-17 10:55:57,0.0
-12840,-1932,1520,-7442,10948,-3021,2025-02-17 10:55:57,0.0
-12908,-1932,2352,-6879,12486,-2257,2025-02-17 10:55:57,0.0
-13116,-1068,2788,-5822,12931,-1817,2025-02-17 10:55:57,0.0
-13092,-716,1840,-5139,12275,-1318,2025-02-17 10:55:57,0.0
-12292,-1420,-504,-4903,9378,-1430,2025-02-17 10:55:57,0.0
-11312,-2360,-1040,-5075,5540,-1881,2025-02-17 10:55:57,0.0
-12756,-2720,-1440,-5438,1637,-1432,2025-02-17 10:55:57,0.0
-12788,-2544,-420,-5104,-3011,-375,2025-02-17 10:55:57,0.0
-12912,-1872,-436,-4589,-6185,469,2025-02-17 10:55:57,0.0
-12564,-1400,44,-3632,-7830,661,2025-02-17 10:55:57,0.0
-12000,-1332,-500,-2890,-8037,-290,2025-02-17 10:55:57,0.0
-12204,-1880,-520,-2504,-6820,-849,2025-02-17 10:55:57,0.0
-13872,-3824,12560,944,-21579,-73,2025-02-17 10:55:58,0.0
-15972,-1844,1032,-2942,-29435,2914,2025-02-17 10:55:58,0.0
-16888,-52,7356,-404,-28944,2837,2025-02-17 10:55:58,0.0
-19728,-1384,1340,5321,-13151,2116,2025-02-17 10:55:58,0.0
-8344,-56,888,1641,1946,1393,2025-02-17 10:55:58,0.0
-10628,-464,3268,2538,6378,683,2025-02-17 10:55:58,0.0
-12668,-400,3160,4631,9042,830,2025-02-17 10:55:58,0.0
-13948,-628,2472,5011,6662,907,2025-02-17 10:55:58,0.0
-15580,-944,1368,5001,3219,665,2025-02-17 10:55:58,0.0
-13996,-864,1404,4651,-803,-270,2025-02-17 10:55:58,0.0
-13076,-1116,2140,5044,-2278,-1489,2025-02-17 10:55:58,0.0
-13288,-984,-428,4211,-1516,-1773,2025-02-17 10:55:58,0.0
-13600,256,12,3604,419,-1324,2025-02-17 10:55:58,0.0
-14064,1184,164,2995,1908,-1630,2025-02-17 10:55:58,0.0
-13968,-36,-1068,510,1935,-1879,2025-02-17 10:55:58,0.0
-14476,-212,80,-1226,-62,-2930,2025-02-17 10:55:58,0.0
-13200,-836,1552,-1473,-2134,-4029,2025-02-17 10:55:58,0.0
-13280,-1344,1084,-208,-2958,-4858,2025-02-17 10:55:58,0.0
-13788,-104,1764,528,-1050,-3728,2025-02-17 10:55:58,0.0
-12792,-128,-1120,534,1584,-2979,2025-02-17 10:55:58,0.0
-13776,52,808,69,3621,-2777,2025-02-17 10:55:58,0.0
-14808,-332,-268,240,4065,-1881,2025-02-17 10:55:58,0.0
-14304,-360,-416,-739,3665,-1591,2025-02-17 10:55:58,0.0
-13772,-420,-432,-2351,2672,-2352,2025-02-17 10:55:58,0.0
-14484,-848,132,-2670,1716,-2448,2025-02-17 10:55:58,0.0
-14060,-828,112,-2655,1271,-2320,2025-02-17 10:55:58,0.0
-13904,-700,-68,-2826,1327,-2277,2025-02-17 10:55:58,0.0
-14368,-1100,52,-2658,1513,-879,2025-02-17 10:55:58,0.0
-13920,-996,-1076,-2646,2530,-154,2025-02-17 10:55:58,0.0
-13324,-964,-836,-3044,3993,270,2025-02-17 10:55:58,0.0
-13160,-1144,-572,-2228,4701,651,2025-02-17 10:55:58,0.0
-13580,-588,-1112,-1440,4821,1195,2025-02-17 10:55:58,0.0
-13392,-436,-2496,-1628,5484,1514,2025-02-17 10:55:58,0.0
-12368,492,-2036,-2684,5762,188,2025-02-17 10:55:58,0.0
-12536,24,-2152,-2853,4565,-1095,2025-02-17 10:55:58,0.0
-12896,-368,-2508,-2673,2613,-1806,2025-02-17 10:55:58,0.0
-13012,-756,-2596,-2292,544,-1918,2025-02-17 10:55:58,0.0
-12248,-912,-2196,-1945,-1195,-2195,2025-02-17 10:55:58,0.0
-11268,-864,-2576,-1995,-2337,-2559,2025-02-17 10:55:58,0.0
-10684,-1224,-2072,-1638,-2677,-2717,2025-02-17 10:55:58,0.0
-10920,-1060,-2364,-1375,-2050,-2115,2025-02-17 10:55:58,0.0
-9476,-1200,-1712,-1067,-589,-1652,2025-02-17 10:55:58,0.0
-9292,-1148,-752,-605,668,-1963,2025-02-17 10:55:58,0.0
-9512,-1312,192,186,1493,-1710,2025-02-17 10:55:58,0.0
-9836,-1256,420,1008,2031,-1202,2025-02-17 10:55:58,0.0
-10040,-1328,360,1569,2888,-822,2025-02-17 10:55:58,0.0
-11044,-1356,-52,2089,3181,-574,2025-02-17 10:55:58,0.0
-10564,-1276,1092,2922,2403,-132,2025-02-17 10:55:58,0.0
-12104,-696,504,2924,1638,315,2025-02-17 10:55:58,0.0
-12376,-196,-1548,1794,3159,1247,2025-02-17 10:55:58,0.0
-11320,-524,-1164,3,4281,1218,2025-02-17 10:55:58,0.0
-10996,-640,-356,-1031,4174,269,2025-02-17 10:55:58,0.0
-11000,-680,-1544,-2146,2957,-591,2025-02-17 10:55:58,0.0
-13368,-276,-1020,-3230,2811,-62,2025-02-17 10:55:58,0.0
-14336,-2716,956,182,682,3778,2025-02-17 10:55:58,0.0
-14028,-2600,-180,1108,-895,5567,2025-02-17 10:55:58,0.0
-12520,-988,296,1082,-1165,6176,2025-02-17 10:55:58,0.0
-13356,224,72,724,-598,6410,2025-02-17 10:55:58,0.0
-12996,992,-1124,-205,15,6459,2025-02-17 10:55:58,0.0
-12480,1416,-692,-125,-1233,5453,2025-02-17 10:55:59,0.0
-12708,1400,-1124,309,-2821,4439,2025-02-17 10:55:59,0.0
-13800,1256,-380,-71,-2476,4417,2025-02-17 10:55:59,0.0
-14236,976,-196,49,-2432,4375,2025-02-17 10:55:59,
-14652,1100,-1624,-306,-1749,4186,2025-02-17 10:55:59,0.0
-17048,3204,-2128,-449,-2082,4391,2025-02-17 10:55:59,0.0
-14324,1272,-2032,-567,-3428,4105,2025-02-17 10:55:59,0.0
-13188,1676,-1120,-844,-5727,3628,2025-02-17 10:55:59,0.0
-13308,1328,456,-696,-5637,3251,2025-02-17 10:55:59,0.0
-13632,1140,-100,-1061,-4105,1361,2025-02-17 10:55:59,0.0
-14976,1420,-452,-853,-5305,949,2025-02-17 10:55:59,0.0
-13416,560,-292,-493,-6717,793,2025-02-17 10:55:59,0.0
-11008,300,-1000,-219,-7158,444,2025-02-17 10:55:59,0.0
-12804,1156,784,306,-6313,-429,2025-02-17 10:55:59,0.0
-18264,576,2132,45,-6043,-429,2025-02-17 10:55:59,0.0
-16484,1744,3136,709,-9469,-655,2025-02-17 10:55:59,0.0
-15184,208,5264,1738,-10209,-833,2025-02-17 10:55:59,0.0
-13944,-576,6868,2615,-7143,-1310,2025-02-17 10:55:59,0.0
-13640,-336,4732,3122,-1293,-1237,2025-02-17 10:55:59,0.0
-20328,716,1788,2648,-1256,236,2025-02-17 10:55:59,0.0
-18604,1788,-8,2713,-10775,137,2025-02-17 10:55:59,0.0
-14052,2616,996,2372,-14151,-275,2025-02-17 10:55:59,0.0
-12972,2780,1976,1679,-11658,-657,2025-02-17 10:55:59,0.0
-13532,3108,2624,960,-9467,-510,2025-02-17 10:55:59,0.0
-14812,3032,3140,219,-8348,-92,2025-02-17 10:55:59,0.0
-14824,2784,4844,-303,-7764,135,2025-02-17 10:55:59,0.0
-21720,3632,9052,-807,-7787,-76,2025-02-17 10:55:59,0.0
-23692,4832,12092,-1040,-12932,257,2025-02-17 10:55:59,0.0
-20236,4764,11896,-1357,-15083,115,2025-02-17 10:55:59,0.0
-19732,3288,16104,-1458,-10795,635,2025-02-17 10:55:59,0.0
-15004,2688,8100,-1303,-6707,1582,2025-02-17 10:55:59,0.0
-9788,3404,3384,-1866,-3611,-141,2025-02-17 10:55:59,0.0
-10328,1700,3284,-2414,-3747,-1295,2025-02-17 10:55:59,0.0
-13708,1360,6688,-2912,-5246,-946,2025-02-17 10:55:59,0.0
-13128,1652,9988,-2900,-5417,-1190,2025-02-17 10:55:59,0.0
-12076,640,10136,-3052,-4582,-1602,2025-02-17 10:55:59,0.0
-11840,428,10452,-2971,-2820,-2335,2025-02-17 10:55:59,0.0
-13036,316,10572,-2563,-1964,-2694,2025-02-17 10:55:59,0.0
-13852,164,8588,-1908,-3124,-2484,2025-02-17 10:55:59,0.0
-13772,-152,8736,-1300,-4901,-1831,2025-02-17 10:55:59,0.0
-12676,-500,9404,-1025,-5334,-1233,2025-02-17 10:55:59,0.0
-11672,-716,10164,-912,-4572,-935,2025-02-17 10:55:59,0.0
-11284,-400,10532,-773,-3826,-969,2025-02-17 10:55:59,0.0
-10892,-348,10816,-461,-3698,-1407,2025-02-17 10:55:59,0.0
-11296,108,10596,-58,-3864,-1622,2025-02-17 10:55:59,0.0
-11740,380,10596,356,-3736,-1511,2025-02-17 10:55:59,0.0
-11592,304,9984,596,-3057,-1236,2025-02-17 10:55:59,0.0
-11180,4,10988,652,-2664,-947,2025-02-17 10:55:59,0.0
-11364,556,9484,535,-2431,-926,2025-02-17 10:55:59,0.0
-12180,476,9788,274,-1853,-918,2025-02-17 10:55:59,0.0
-12128,244,9236,63,-1311,-637,2025-02-17 10:55:59,0.0
-12740,324,9224,12,-987,-621,2025-02-17 10:55:59,0.0
-12272,276,8472,-274,-1776,-769,2025-02-17 10:55:59,0.0
-12276,220,8684,-442,-2658,-714,2025-02-17 10:55:59,0.0
-11928,-124,8580,-952,-3264,-507,2025-02-17 10:55:59,0.0
-12024,856,9872,-972,-2468,-211,2025-02-17 10:55:59,0.0
-11460,224,10212,-842,-2696,-654,2025-02-17 10:55:59,0.0
-12012,1284,10344,-741,-4386,-1155,2025-02-17 10:55:59,0.0
-10688,868,11248,-826,-3670,-1970,2025-02-17 10:55:59,0.0
-10356,1332,11180,-427,-3357,-2290,2025-02-17 10:55:59,0.0
-10808,1584,11300,-101,-3175,-2277,2025-02-17 10:55:59,0.0
-11472,1840,11376,-154,-3331,-2267,2025-02-17 10:56:00,0.0
-11248,1448,11224,-108,-3149,-2066,2025-02-17 10:56:00,0.0
-10784,436,11280,-101,-3086,-2281,2025-02-17 10:56:00,0.0
-10564,-372,11344,38,-3230,-2619,2025-02-17 10:56:00,0.0
-9780,-1048,10548,-21,-3246,-2932,2025-02-17 10:56:00,0.0
-10972,-568,11072,-199,-2402,-2512,2025-02-17 10:56:00,0.0
-11164,-344,11100,-280,-1189,-1919,2025-02-17 10:56:00,0.0
-11108,-140,11204,-520,-330,-1435,2025-02-17 10:56:00,0.0
-11092,-192,11220,-704,34,-1368,2025-02-17 10:56:00,0.0
-10660,-260,11048,-808,-59,-1568,2025-02-17 10:56:00,0.0
-11004,-128,10928,-944,393,-1870,2025-02-17 10:56:00,0.0
-11076,-304,10680,-982,152,-2135,2025-02-17 10:56:00,0.0
-11036,-388,10540,-976,128,-2174,2025-02-17 10:56:00,0.0
-11364,-400,10328,-1124,240,-2089,2025-02-17 10:56:00,0.0
-11860,-444,10616,-1267,245,-1821,2025-02-17 10:56:00,0.0
-12120,-656,10328,-1340,416,-1355,2025-02-17 10:56:00,0.0
-12060,-908,10332,-1240,454,-968,2025-02-17 10:56:00,0.0
-11912,-1236,10492,-1119,307,-587,2025-02-17 10:56:00,0.0
-11580,-1420,10712,-1045,333,-427,2025-02-17 10:56:00,0.0
-11288,-1744,10620,-1122,323,-365,2025-02-17 10:56:00,0.0
-11124,-1720,10668,-1065,206,-397,2025-02-17 10:56:00,0.0
-11008,-1736,10796,-915,99,-307,2025-02-17 10:56:00,0.0
-10880,-1744,10972,-750,109,-151,2025-02-17 10:56:00,0.0
-10672,-1768,11136,-555,254,17,2025-02-17 10:56:00,0.0
-10876,-1672,11280,-483,319,2,2025-02-17 10:56:00,0.0
-11144,-1620,11552,-321,236,-31,2025-02-17 10:56:00,0.0
-11024,-1864,11480,-162,269,-18,2025-02-17 10:56:00,0.0
-11096,-1824,11528,55,326,138,2025-02-17 10:56:00,0.0
-10508,-1568,11168,125,340,167,2025-02-17 10:56:00,0.0
-10212,-1244,10964,107,433,46,2025-02-17 10:56:00,0.0
-10364,-1216,11148,71,778,-128,2025-02-17 10:56:00,0.0
-10740,-996,11204,82,910,-243,2025-02-17 10:56:00,0.0
-11084,-1056,11128,137,936,-104,2025-02-17 10:56:00,0.0
-11516,-1004,10968,250,916,-128,2025-02-17 10:56:00,0.0
-11544,-1016,10888,263,916,-174,2025-02-17 10:56:00,0.0
-11364,-988,10816,309,934,-209,2025-02-17 10:56:00,0.0
-11468,-984,10584,369,831,-92,2025-02-17 10:56:00,0.0
-11676,-760,10208,325,753,66,2025-02-17 10:56:00,0.0
-11648,-744,10172,227,696,143,2025-02-17 10:56:00,0.0
-11588,-620,10188,100,573,258,2025-02-17 10:56:00,0.0
-11488,-496,10124,-110,530,216,2025-02-17 10:56:00,0.0
-11388,-620,10084,-208,299,-5,2025-02-17 10:56:00,0.0
-11316,-496,10244,-308,67,-263,2025-02-17 10:56:00,
-11384,-460,10672,-322,166,-317,2025-02-17 10:56:00,0.0
-11532,-644,10868,-267,141,-324,2025-02-17 10:56:00,0.0
-11516,-872,10992,-193,149,-257,2025-02-17 10:56:00,0.0
-11388,-1048,11112,-170,97,-213,2025-02-17 10:56:00,0.0
-11116,-1188,11240,-153,102,-270,2025-02-17 10:56:00,0.0
-11008,-1156,11228,-138,227,-268,2025-02-17 10:56:00,0.0
-10928,-1152,10952,-178,524,-234,2025-02-17 10:56:00,0.0
-10772,-1188,10860,-176,694,-304,2025-02-17 10:56:00,0.0
-11256,-1148,10648,-95,704,-246,2025-02-17 10:56:00,0.0
-11168,-860,10636,-173,633,-285,2025-02-17 10:56:00,0.0
-11276,-868,10468,-285,607,-337,2025-02-17 10:56:00,0.0
-11472,-1032,10368,-219,526,-296,2025-02-17 10:56:00,0.0
-11320,-996,10492,-213,266,-165,2025-02-17 10:56:00,0.0
-11232,-972,10652,-225,300,-253,2025-02-17 10:56:00,0.0
-11484,-916,10716,-129,441,-273,2025-02-17 10:56:00,0.0
-11600,-920,10544,-82,390,-231,2025-02-17 10:56:00,0.0
-11456,-956,10532,-90,249,-201,2025-02-17 10:56:00,0.0
-11512,-880,10672,-108,147,-179,2025-02-17 10:56:01,0.0
-11476,-916,10780,-106,76,-141,2025-02-17 10:56:01,0.0
-11224,-1012,10608,-136,165,-100,2025-02-17 10:56:01,0.0
-11316,-864,10732,-162,323,-96,2025-02-17 10:56:01,0.0
-11336,-820,10536,-151,175,-78,2025-02-17 10:56:01,0.0
-11156,-836,10612,-208,148,-171,2025-02-17 10:56:01,0.0
-11364,-836,10468,-232,84,-241,2025-02-17 10:56:01,0.0
-11352,-884,10672,-222,46,-188,2025-02-17 10:56:01,0.0
-11388,-1004,10676,-258,12,-213,2025-02-17 10:56:01,0.0
-11320,-1028,10548,-248,-9,-216,2025-02-17 10:56:01,0.0
-11468,-1012,10452,-255,79,-185,2025-02-17 10:56:01,0.0
-11356,-1012,10452,-229,43,-200,2025-02-17 10:56:01,0.0
-11452,-892,10392,-272,4,-264,2025-02-17 10:56:01,0.0
-11316,-820,10536,-338,101,-352,2025-02-17 10:56:01,0.0
-11400,-772,10636,-345,136,-334,2025-02-17 10:56:01,0.0
-11488,-996,10900,-164,168,-190,2025-02-17 10:56:01,0.0
-10848,-1180,10824,-134,281,-63,2025-02-17 10:56:01,0.0
-10884,-1372,10224,-236,387,169,2025-02-17 10:56:01,0.0
-10660,-1636,10488,-160,806,434,2025-02-17 10:56:01,0.0
-11284,-1484,10348,-174,1494,529,2025-02-17 10:56:01,0.0
-11744,-1368,10496,-214,1851,425,2025-02-17 10:56:01,0.0
-12228,-1296,10572,-24,1175,130,2025-02-17 10:56:01,0.0
-11976,-1292,10184,-129,-23,270,2025-02-17 10:56:01,0.0
-11264,-1260,9864,-89,-287,475,2025-02-17 10:56:01,0.0
-11184,-1152,10508,42,209,665,2025-02-17 10:56:01,0.0
-11624,-996,10344,225,903,883,2025-02-17 10:56:01,0.0
-11884,-928,10064,541,689,1062,2025-02-17 10:56:01,0.0
-11440,-1032,10248,689,174,1081,2025-02-17 10:56:01,0.0
-11808,-1132,10224,1147,187,1245,2025-02-17 10:56:01,0.0
-11240,-392,9496,986,595,1138,2025-02-17 10:56:01,0.0
-11584,-192,9628,648,106,747,2025-02-17 10:56:01,0.0
-12220,-568,9096,355,-532,568,2025-02-17 10:56:01,0.0
-12788,-364,8884,485,-1585,250,2025-02-17 10:56:01,0.0
-11360,-612,7544,321,-3996,-247,2025-02-17 10:56:01,0.0
-11496,-1092,9724,-341,-5256,-453,2025-02-17 10:56:01,0.0
-10108,-864,12304,-620,-5146,-519,2025-02-17 10:56:01,0.0
-10024,-252,12792,-1117,-3133,-325,2025-02-17 10:56:01,0.0
-9424,-408,13676,-1450,-660,-242,2025-02-17 10:56:01,0.0
-9536,-352,13352,-892,1652,-255,2025-02-17 10:56:01,0.0
-10140,-448,12924,-154,2358,-466,2025-02-17 10:56:01,0.0
-10752,-588,11508,-65,2584,-512,2025-02-17 10:56:01,0.0
-11884,-712,11908,-166,2189,-662,2025-02-17 10:56:01,0.0
-11488,-396,11452,336,884,265,2025-02-17 10:56:01,0.0
-10500,12,11652,402,310,231,2025-02-17 10:56:01,0.0
-10008,112,12152,373,745,118,2025-02-17 10:56:01,0.0
-9636,-48,12056,404,1875,-114,2025-02-17 10:56:01,0.0
-10080,76,11084,136,2584,-437,2025-02-17 10:56:01,0.0
-11040,-124,10796,-253,2634,-477,2025-02-17 10:56:01,0.0
-12112,-256,11080,-271,2251,-192,2025-02-17 10:56:01,0.0
-11688,-172,11448,-169,2176,183,2025-02-17 10:56:01,0.0
-11512,-424,10888,-74,2415,580,2025-02-17 10:56:01,0.0
-10824,-728,10204,-397,2678,705,2025-02-17 10:56:01,0.0
-10876,-1256,10524,-761,3186,558,2025-02-17 10:56:01,0.0
-10748,-1372,10120,-997,3279,318,2025-02-17 10:56:01,0.0
-11276,-1200,10148,-1089,3437,23,2025-02-17 10:56:01,0.0
-11672,-656,10480,-961,3331,-148,2025-02-17 10:56:01,0.0
-11956,-352,10720,-946,2899,-216,2025-02-17 10:56:01,0.0
-11188,-736,10104,-929,2941,-247,2025-02-17 10:56:01,0.0
-10944,-364,9988,-757,3166,-468,2025-02-17 10:56:01,0.0
-11388,-752,9456,-654,3603,-494,2025-02-17 10:56:01,0.0
-11820,-636,9440,-532,3662,-428,2025-02-17 10:56:01,0.0
-12504,-424,9768,-626,3904,-8,2025-02-17 10:56:01,0.0
-12276,-532,9476,-731,4547,427,2025-02-17 10:56:01,0.0
-12692,-320,8900,-778,5795,417,2025-02-17 10:56:02,0.0
-13952,316,8416,-1388,5986,163,2025-02-17 10:56:02,0.0
-15352,108,9256,-1676,3681,1099,2025-02-17 10:56:02,0.0
-12444,140,11612,-2810,3460,2259,2025-02-17 10:56:02,0.0
-12300,336,14432,-3487,7697,2679,2025-02-17 10:56:02,0.0
-14704,-388,15012,-3437,12984,3032,2025-02-17 10:56:02,0.0
-16884,-948,14200,-2859,17367,3354,2025-02-17 10:56:02,0.0
-20900,-404,11568,-1973,18329,3963,2025-02-17 10:56:02,0.0
-16144,-1396,11068,-907,15310,2623,2025-02-17 10:56:02,0.0
-15536,-1828,8628,-814,13617,2382,2025-02-17 10:56:02,0.0
-14444,-1228,8712,-224,9378,2122,2025-02-17 10:56:02,0.0
-14628,-1656,8968,375,7881,2009,2025-02-17 10:56:02,0.0
-14808,-1480,8764,986,6550,1683,2025-02-17 10:56:02,0.0
-15708,-720,7632,1252,5851,1470,2025-02-17 10:56:02,0.0
-15360,548,6968,1338,6383,1230,2025-02-17 10:56:02,0.0
-15104,1004,6364,1636,6136,1008,2025-02-17 10:56:02,0.0
-14268,976,5872,2181,5680,1178,2025-02-17 10:56:02,0.0
-13228,1044,5116,2216,6187,535,2025-02-17 10:56:02,0.0
-13616,1280,4576,2028,7651,-238,2025-02-17 10:56:02,0.0
-15660,956,3680,1811,8564,-381,2025-02-17 10:56:02,
-15684,776,2784,1597,8275,-331,2025-02-17 10:56:02,0.0
-15976,624,2280,1108,8378,-73,2025-02-17 10:56:02,0.0
-15556,180,1644,532,8524,542,2025-02-17 10:56:02,0.0
-14568,384,1256,-159,8428,611,2025-02-17 10:56:02,0.0
-15268,1004,2288,-669,8520,429,2025-02-17 10:56:02,0.0
-15420,1132,2796,-837,8251,-29,2025-02-17 10:56:02,0.0
-14148,608,2888,-824,7093,-672,2025-02-17 10:56:02,0.0
-13140,476,2712,-293,6493,-1845,2025-02-17 10:56:02,0.0
-13608,268,676,-407,6195,-2641,2025-02-17 10:56:02,0.0
-13964,276,1260,-1087,6382,-2797,2025-02-17 10:56:02,0.0
-14444,220,532,-1320,6577,-2701,2025-02-17 10:56:02,0.0
-15168,32,-528,-951,6471,-2474,2025-02-17 10:56:02,0.0
-15684,-24,-692,-800,5312,-2091,2025-02-17 10:56:02,0.0
-14992,224,-2356,-850,3615,-1850,2025-02-17 10:56:02,0.0
-13880,428,-1636,-549,2261,-2346,2025-02-17 10:56:02,0.0
-16132,1256,-624,-126,1516,-2281,2025-02-17 10:56:02,0.0
-13360,300,540,467,1844,-2424,2025-02-17 10:56:02,0.0
-13844,580,276,1433,1263,-2247,2025-02-17 10:56:02,0.0
-13536,420,-728,1796,1270,-1580,2025-02-17 10:56:02,0.0
-13056,-392,8,2057,733,-831,2025-02-17 10:56:02,0.0
-13524,-784,-304,2506,72,-125,2025-02-17 10:56:02,0.0
-13268,-832,-280,2672,229,830,2025-02-17 10:56:02,0.0
-12132,-600,-1264,2877,-124,1396,2025-02-17 10:56:02,0.0
-11600,-56,-1100,2725,-572,1142,2025-02-17 10:56:02,0.0
-23648,5308,-1900,1782,-2767,1396,2025-02-17 10:56:02,0.0
-12784,-316,-1636,1764,630,668,2025-02-17 10:56:02,0.0
-11312,-392,-1380,2178,-959,992,2025-02-17 10:56:02,0.0
-12440,-448,-1528,2472,-1894,1505,2025-02-17 10:56:02,0.0
-11620,-420,-376,2349,-2617,2308,2025-02-17 10:56:02,0.0
-10496,-400,-1180,1801,-2580,1879,2025-02-17 10:56:02,0.0
-10340,-44,-304,1486,-2424,996,2025-02-17 10:56:02,0.0
-11108,40,-324,1656,-2105,702,2025-02-17 10:56:02,0.0
-11288,100,-804,1642,-2343,700,2025-02-17 10:56:02,0.0
-10972,460,-1828,1546,-2395,895,2025-02-17 10:56:02,0.0
-10852,660,-1908,1017,-2320,1130,2025-02-17 10:56:02,0.0
-9452,1044,-1084,592,-3034,356,2025-02-17 10:56:02,0.0
-9556,472,-1944,483,-3112,-9,2025-02-17 10:56:02,0.0
-9508,312,-1544,433,-2324,-451,2025-02-17 10:56:02,0.0
-10368,120,-644,508,-992,-670,2025-02-17 10:56:02,0.0
-10916,-804,-884,446,141,-1010,2025-02-17 10:56:02,0.0
-12384,-116,52,-53,441,-933,2025-02-17 10:56:03,0.0
-13344,136,492,-303,150,-618,2025-02-17 10:56:03,0.0
-12500,564,472,-398,-704,-411,2025-02-17 10:56:03,0.0
-12872,12,-436,-317,-1547,-315,2025-02-17 10:56:03,0.0
-11736,-560,-752,141,-1675,99,2025-02-17 10:56:03,0.0
-12412,-892,-772,136,-285,304,2025-02-17 10:56:03,0.0
-12712,-1368,-708,162,2137,398,2025-02-17 10:56:03,0.0
-13524,-552,-64,174,4879,880,2025-02-17 10:56:03,0.0
-14320,-220,-564,283,5851,1430,2025-02-17 10:56:03,0.0
-14592,52,-220,488,5308,1742,2025-02-17 10:56:03,0.0
-14136,156,-784,494,4179,1407,2025-02-17 10:56:03,0.0
-14568,56,-1624,453,2705,1279,2025-02-17 10:56:03,0.0
-14316,24,-920,353,1569,1401,2025-02-17 10:56:03,0.0
-14420,-32,-240,296,1388,1833,2025-02-17 10:56:03,0.0
-14924,-140,-132,749,1568,3010,2025-02-17 10:56:03,0.0
-14880,116,-1240,644,1951,4609,2025-02-17 10:56:03,0.0
-14296,148,-1000,473,2493,6038,2025-02-17 10:56:03,0.0
-14124,-192,-424,348,5136,7266,2025-02-17 10:56:03,0.0
-13620,-200,1828,874,9706,8160,2025-02-17 10:56:03,0.0
-13436,0,2660,2286,15902,8678,2025-02-17 10:56:03,5
-13112,-832,744,2850,24173,9381,2025-02-17 10:56:03,5
-11660,-1968,-2844,1461,31478,9874,2025-02-17 10:56:03,5
-10284,-3000,-6060,-1587,32767,9295,2025-02-17 10:56:03,5
-10748,-2732,-8504,-5149,32767,8057,2025-02-17 10:56:03,5
-12904,-1016,-9828,-8280,32767,8115,2025-02-17 10:56:03,5
-13872,632,-9812,-9925,32767,9467,2025-02-17 10:56:03,5
-13088,2456,-9784,-10813,32767,11066,2025-02-17 10:56:03,5
-10220,3900,-9624,-11320,32767,11769,2025-02-17 10:56:03,5
-7356,4700,-10436,-12138,32767,11283,2025-02-17 10:56:03,5
-5540,4864,-11876,-13532,30018,9859,2025-02-17 10:56:03,5
-4384,4236,-11964,-14019,14388,8349,2025-02-17 10:56:03,5
-5564,3504,-12432,-14180,601,7768,2025-02-17 10:56:03,5
-6980,2968,-12684,-14791,-9685,8450,2025-02-17 10:56:03,5
-8228,2732,-11924,-15829,-18814,10741,2025-02-17 10:56:03,5
-7296,3344,-10704,-15190,-24767,12772,2025-02-17 10:56:03,5
-5780,4604,-10216,-13631,-28610,13062,2025-02-17 10:56:03,5
-5004,5844,-9764,-12271,-29849,12197,2025-02-17 10:56:03,5
-5704,6696,-9764,-11396,-28346,11145,2025-02-17 10:56:03,5
-7784,7452,-10068,-11119,-24040,10957,2025-02-17 10:56:03,5
-8904,8060,-10120,-10927,-17939,11350,2025-02-17 10:56:03,5
-9008,8388,-9752,-10867,-11308,12271,2025-02-17 10:56:03,5
-8300,8628,-8204,-10593,-5114,13380,2025-02-17 10:56:03,5
-5516,7952,-6328,-10147,-2860,14265,2025-02-17 10:56:03,5
-2044,7024,-4080,-9767,-4671,14217,2025-02-17 10:56:03,5
2420,3808,-2236,-9716,-10516,13443,2025-02-17 10:56:03,5
3928,676,-2696,-11448,-17485,13555,2025-02-17 10:56:03,5
3884,132,464,-13003,-20387,13437,2025-02-17 10:56:03,5
2860,-1356,1844,-13044,-20000,12839,2025-02-17 10:56:03,5
3628,-700,1856,-12520,-19476,12260,2025-02-17 10:56:03,5
3224,-620,1744,-11863,-18566,11720,2025-02-17 10:56:03,5
2916,-592,1920,-11182,-17697,11571,2025-02-17 10:56:03,5
2984,-664,1760,-10716,-16909,11306,2025-02-17 10:56:03,5
2880,-612,1828,-10328,-16126,11127,2025-02-17 10:56:03,5
3036,-620,1560,-8870,-17036,11927,2025-02-17 10:56:03,5
2892,-528,1652,-8347,-17334,12241,2025-02-17 10:56:03,5
2940,-492,1592,-7817,-16908,12190,2025-02-17 10:56:03,5
2808,-532,1832,-7214,-16466,11772,2025-02-17 10:56:03,5
2904,-508,1712,-6690,-15779,11603,2025-02-17 10:56:03,5
2820,-440,1976,-6141,-15440,11496,2025-02-17 10:56:03,5
2748,-488,1676,-5624,-15333,11390,2025-02-17 10:56:03,5
2864,-548,1968,-4849,-14651,11035,2025-02-17 10:56:04,5
3012,-476,2084,-4309,-14663,11030,2025-02-17 10:56:04,5
2644,-208,2804,-3539,-15482,11290,2025-02-17 10:56:04,5
2164,-704,1316,-3407,-15275,11440,2025-02-17 10:56:04,5
1892,-876,232,-3525,-15756,12502,2025-02-17 10:56:04,5
3540,23164,4060,-6043,-17649,18321,2025-02-17 10:56:04,5
32767,32767,32767,32767,32767,20813,2025-02-17 10:56:04,5
32767,32767,-32768,-18222,-3186,32767,2025-02-17 10:56:04,5
32767,11756,9048,-10033,3702,14096,2025-02-17 10:56:04,5
32767,-17148,-2348,-12412,530,847,2025-02-17 10:56:04,5
21336,-17560,1208,-7050,106,-8889,2025-02-17 10:56:04,5
10956,-8856,-4496,-4416,-3081,-15536,2025-02-17 10:56:04,5
12,5324,-820,-4741,2541,-17295,2025-02-17 10:56:04,5
2916,18072,3984,-5640,2421,-15057,2025-02-17 10:56:04,5
1204,22680,3976,-6493,1352,-12313,2025-02-17 10:56:04,5
1504,23728,8512,-6158,4604,-10460,2025-02-17 10:56:04,5
-824,14180,7180,-4311,2757,-7315,2025-02-17 10:56:04,5
-476,12456,8236,-3212,1064,-4877,2025-02-17 10:56:04,5
-716,14140,8056,-1638,637,-1865,2025-02-17 10:56:04,5
424,16952,7932,-473,-140,680,2025-02-17 10:56:04,5
2784,15896,7376,446,-588,2245,2025-02-17 10:56:04,5
5236,14760,5984,981,-990,2668,2025-02-17 10:56:04,5
7388,15328,4588,1016,-850,2026,2025-02-17 10:56:04,5
8748,15384,3588,457,-255,740,2025-02-17 10:56:04,5
8272,14964,3252,-341,315,-587,2025-02-17 10:56:04,5
6924,16308,6112,-293,492,-1216,2025-02-17 10:56:04,5
4084,15056,5500,-311,558,-840,2025-02-17 10:56:04,5
3836,15436,5736,-27,-27,-42,2025-02-17 10:56:04,5
5140,15624,5272,108,50,397,2025-02-17 10:56:04,5
6304,15204,4508,-29,-1,228,2025-02-17 10:56:04,5
6680,15488,4588,-159,256,-166,2025-02-17 10:56:04,5
5988,15372,5092,-261,339,-524,2025-02-17 10:56:04,5
5144,15556,5304,-281,282,-457,2025-02-17 10:56:04,5
5144,15400,5252,-198,167,-263,2025-02-17 10:56:04,5
5488,15376,5216,-182,162,-167,2025-02-17 10:56:04,5
5708,15416,5160,-165,160,-158,2025-02-17 10:56:04,5
5676,15456,5160,-157,191,-223,2025-02-17 10:56:04,5
5416,15444,5148,-130,203,-215,2025-02-17 10:56:04,5
5560,15440,5292,-125,137,-134,2025-02-17 10:56:04,5
5616,15504,4992,-147,165,-129,2025-02-17 10:56:04,5
5676,15388,5136,-179,192,-221,2025-02-17 10:56:04,5
5556,15452,5168,-164,161,-217,2025-02-17 10:56:04,5
5436,15424,5180,-209,198,-213,2025-02-17 10:56:04,5
5476,15492,5160,-183,183,-160,2025-02-17 10:56:04,5
5484,15492,5084,-131,161,-164,2025-02-17 10:56:04,5
5580,15420,5232,-168,172,-179,2025-02-17 10:56:04,5
5576,15384,5152,-160,199,-197,2025-02-17 10:56:04,5
5540,15420,5272,-178,182,-166,2025-02-17 10:56:04,5
5544,15472,5184,-161,177,-168,2025-02-17 10:56:04,5
5576,15432,5200,-170,200,-165,2025-02-17 10:56:04,5
5688,15480,5184,-173,194,-170,2025-02-17 10:56:04,5
5552,15400,5212,-165,190,-165,2025-02-17 10:56:04,5
5628,15424,5252,-164,192,-190,2025-02-17 10:56:04,5
5556,15420,5024,-138,191,-182,2025-02-17 10:56:04,5
5584,15416,5132,-139,208,-158,2025-02-17 10:56:04,5
5692,15380,5216,-160,179,-170,2025-02-17 10:56:04,5
5616,15360,5228,-152,178,-191,2025-02-17 10:56:04,5
5604,15420,5160,-170,170,-173,2025-02-17 10:56:04,5
5508,15408,5152,-162,192,-179,2025-02-17 10:56:04,5
5568,15460,5256,-129,193,-175,2025-02-17 10:56:04,5
5640,15468,5112,-188,169,-162,2025-02-17 10:56:05,5
5736,15444,5128,-166,180,-158,2025-02-17 10:56:05,5
5532,15428,5048,-131,190,-182,2025-02-17 10:56:05,5
5596,15512,5180,-174,152,-163,2025-02-17 10:56:05,5
5544,15412,5220,-161,165,-165,2025-02-17 10:56:05,5
5600,15492,5068,-176,195,-211,2025-02-17 10:56:05,5
5664,15412,5172,-178,175,-177,2025-02-17 10:56:05,5
5624,15432,5152,-187,166,-180,2025-02-17 10:56:05,5
5596,15400,5156,-166,187,-171,2025-02-17 10:56:05,5
5608,15440,5292,-171,181,-201,2025-02-17 10:56:05,5
5696,15436,5228,-193,176,-188,2025-02-17 10:56:05,5
5548,15492,5176,-174,167,-188,2025-02-17 10:56:05,5
5616,15504,5104,-144,192,-190,2025-02-17 10:56:05,5
5392,15392,5088,-157,183,-157,2025-02-17 10:56:05,5
5600,15472,5188,-144,185,-184,2025-02-17 10:56:05,5
5560,15356,5192,-169,184,-160,2025-02-17 10:56:05,5
5504,15440,5216,-146,175,-145,2025-02-17 10:56:05,5
5512,15368,5116,-146,188,-162,2025-02-17 10:56:05,5
5540,15440,5148,-165,186,-183,2025-02-17 10:56:05,5
5472,15460,5088,-178,189,-187,2025-02-17 10:56:05,5
5628,15480,5272,-158,178,-155,2025-02-17 10:56:05,5
5552,15408,5276,-162,171,-142,2025-02-17 10:56:05,5
5548,15404,5176,-162,185,-175,2025-02-17 10:56:05,5
5552,15492,5184,-164,193,-194,2025-02-17 10:56:05,5
5500,15424,4992,-165,170,-166,2025-02-17 10:56:05,5
5604,15460,5136,-191,181,-158,2025-02-17 10:56:05,5
5504,15460,5316,-187,187,-165,2025-02-17 10:56:05,5
5604,15380,5144,-149,174,-157,2025-02-17 10:56:05,5
5684,15436,5220,-203,179,-176,2025-02-17 10:56:05,5
5524,15448,5148,-184,180,-161,2025-02-17 10:56:05,5
5668,15368,5336,-164,168,-164,2025-02-17 10:56:05,5
5544,15384,5148,-155,176,-190,2025-02-17 10:56:05,5
5588,15356,5220,-147,168,-184,2025-02-17 10:56:05,5
5660,15488,5096,-146,172,-169,2025-02-17 10:56:05,5
5592,15460,5144,-171,168,-175,2025-02-17 10:56:05,5
5604,15396,5236,-154,188,-183,2025-02-17 10:56:05,5
5676,15420,5212,-148,192,-174,2025-02-17 10:56:05,5
5568,15524,5168,-147,176,-187,2025-02-17 10:56:05,0.0
5596,15452,5124,-181,173,-174,2025-02-17 10:56:05,0.0
5560,15368,5180,-169,162,-172,2025-02-17 10:56:05,
5628,15496,5260,-161,185,-178,2025-02-17 10:56:05,0.0
5624,15424,5280,-150,185,-172,2025-02-17 10:56:05,0.0
5672,15484,5252,-158,191,-177,2025-02-17 10:56:05,0.0
5528,15364,5188,-155,167,-170,2025-02-17 10:56:05,0.0
5612,15444,5120,-184,178,-147,2025-02-17 10:56:05,0.0
5528,15420,5200,-162,190,-159,2025-02-17 10:56:05,0.0
5544,15404,5084,-151,154,-174,2025-02-17 10:56:05,0.0
5628,15500,5180,-171,189,-175,2025-02-17 10:56:05,0.0
5672,15380,5184,-160,153,-149,2025-02-17 10:56:05,0.0
5700,15412,5152,-158,152,-196,2025-02-17 10:56:05,0.0
5652,15452,5204,-129,160,-163,2025-02-17 10:56:05,0.0
5564,15460,5108,-190,158,-178,2025-02-17 10:56:05,0.0
5632,15368,5148,-134,170,-170,2025-02-17 10:56:05,0.0
5444,15512,5128,-162,180,-169,2025-02-17 10:56:05,0.0
5552,15580,5264,-166,187,-171,2025-02-17 10:56:05,0.0
5544,15404,5232,-167,160,-159,2025-02-17 10:56:05,0.0
5568,15508,5208,-157,186,-189,2025-02-17 10:56:06,0.0
5740,15444,5080,-174,184,-151,2025-02-17 10:56:06,0.0
5596,15492,5260,-155,188,-186,2025-02-17 10:56:06,0.0
5576,15416,5196,-151,176,-171,2025-02-17 10:56:06,0.0
5508,15408,5068,-172,170,-181,2025-02-17 10:56:06,0.0
5596,15500,5180,-147,169,-199,2025-02-17 10:56:06,0.0
5576,15376,5192,-165,182,-171,2025-02-17 10:56:06,0.0
5556,15468,5196,-166,182,-175,2025-02-17 10:56:06,0.0
5648,15488,5176,-183,155,-167,2025-02-17 10:56:06,0.0
5536,15548,5052,-184,195,-166,2025-02-17 10:56:06,0.0
5628,15432,5176,-160,171,-169,2025-02-17 10:56:06,0.0
5532,15396,5132,-180,180,-143,2025-02-17 10:56:06,0.0
5508,15420,5180,-155,164,-191,2025-02-17 10:56:06,0.0
5572,15444,5200,-158,207,-186,2025-02-17 10:56:06,0.0
5620,15396,5272,-197,193,-188,2025-02-17 10:56:06,0.0
5596,15412,5200,-171,178,-174,2025-02-17 10:56:06,0.0
5540,15428,5200,-192,187,-166,2025-02-17 10:56:06,0.0
5564,15372,5140,-171,185,-174,2025-02-17 10:56:06,0.0
5608,15408,5276,-151,207,-178,2025-02-17 10:56:06,0.0
5644,15428,5080,-168,199,-175,2025-02-17 10:56:06,0.0
5600,15436,5124,-156,156,-165,2025-02-17 10:56:06,0.0
5660,15412,5252,-190,189,-174,2025-02-17 10:56:06,0.0
5668,15412,5260,-160,163,-160,2025-02-17 10:56:06,0.0
5548,15404,5132,-193,166,-175,2025-02-17 10:56:06,0.0
5592,15392,5112,-172,167,-157,2025-02-17 10:56:06,0.0
5536,15408,5124,-162,199,-179,2025-02-17 10:56:06,0.0
5488,15440,5248,-171,192,-164,2025-02-17 10:56:06,0.0
5692,15412,4988,-143,166,-191,2025-02-17 10:56:06,0.0
5532,15424,5236,-179,169,-179,2025-02-17 10:56:06,0.0
5556,15416,5196,-161,191,-165,2025-02-17 10:56:06,0.0
5604,15484,5000,-159,204,-172,2025-02-17 10:56:06,0.0
5600,15376,5236,-170,173,-171,2025-02-17 10:56:06,0.0
5580,15400,5168,-175,193,-161,2025-02-17 10:56:06,0.0
5596,15380,5232,-163,181,-158,2025-02-17 10:56:06,0.0
5648,15472,4944,-146,162,-171,2025-02-17 10:56:06,0.0
5532,15468,5264,-144,176,-201,2025-02-17 10:56:06,0.0
5592,15464,5368,-157,186,-165,2025-02-17 10:56:06,0.0
5644,15488,5152,-162,201,-153,2025-02-17 10:56:06,0.0
5516,15408,5136,-163,187,-172,2025-02-17 10:56:06,0.0
5568,15500,5248,-179,177,-191,2025-02-17 10:56:06,0.0
5572,15436,5108,-178,197,-173,2025-02-17 10:56:06,0.0
5588,15464,5184,-161,192,-164,2025-02-17 10:56:06,0.0
5632,15436,5152,-169,177,-167,2025-02-17 10:56:06,0.0
5584,15412,5260,-139,173,-179,2025-02-17 10:56:06,0.0
5560,15472,5220,-175,180,-163,2025-02-17 10:56:06,0.0
5648,15460,5220,-151,158,-184,2025-02-17 10:56:06,0.0
5528,15456,5252,-180,181,-172,2025-02-17 10:56:06,0.0
5580,15368,5220,-135,166,-171,2025-02-17 10:56:06,0.0
5604,15432,5236,-138,207,-182,2025-02-17 10:56:06,0.0
5692,15328,5116,-156,191,-169,2025-02-17 10:56:06,0.0
5760,15460,5648,-150,204,-246,2025-02-17 10:56:06,0.0
5756,15336,4736,-185,227,-343,2025-02-17 10:56:06,0.0
4172,15484,5644,23,108,21,2025-02-17 10:56:06,0.0
5380,15260,5252,182,162,329,2025-02-17 10:56:06,0.0
7380,15180,4416,1,157,-270,2025-02-17 10:56:06,0.0
6912,15368,4636,-254,475,-873,2025-02-17 10:56:06,0.0
5956,15392,4296,-621,505,-1312,2025-02-17 10:56:06,0.0
2944,15576,3232,-1361,361,-833,2025-02-17 10:56:06,0.0
4100,14540,2720,-2336,33,283,2025-02-17 10:56:06,0.0
6992,14524,4460,-3095,414,59,2025-02-17 10:56:06,0.0
7072,16600,7724,-2713,116,-862,2025-02-17 10:56:06,0.0
4852,16960,8940,-984,805,-931,2025-02-17 10:56:06,0.0
4000,15108,7716,-38,95,-339,2025-02-17 10:56:06,0.0
4608,14756,7296,767,-145,106,2025-02-17 10:56:06,0.0
5464,15620,7180,1652,-239,263,2025-02-17 10:56:06,0.0
5900,15276,6308,2255,-409,187,2025-02-17 10:56:06,0.0
5652,15196,4968,2262,-47,140,2025-02-17 10:56:07,0.0
5784,15204,5100,2211,-208,82,2025-02-17 10:56:07,0.0
6260,15292,5188,2265,-364,-160,2025-02-17 10:56:07,0.0
5176,15744,2584,1247,48,-148,2025-02-17 10:56:07,0.0
5232,15424,2800,227,133,-38,2025-02-17 10:56:07,0.0
4756,15104,4504,-372,437,108,2025-02-17 10:56:07,0.0
5396,15752,4384,-597,281,206,2025-02-17 10:56:07,0.0
7212,15664,3236,-1088,255,-246,2025-02-17 10:56:07,0.0
7852,15024,3348,-1956,415,-1127,2025-02-17 10:56:07,0.0
5928,15376,4728,-2435,911,-1768,2025-02-17 10:56:07,0.0
4428,15384,8680,-1276,498,-1448,2025-02-17 10:56:07,0.0
5000,15544,8300,363,276,-1089,2025-02-17 10:56:07,0.0
6464,15644,5788,1138,147,-1452,2025-02-17 10:56:07,0.0
7292,15888,4528,1146,370,-2258,2025-02-17 10:56:07,0.0
7232,15440,4196,835,177,-3060,2025-02-17 10:56:07,0.0
7152,15188,4120,482,-5,-3977,2025-02-17 10:56:07,0.0
7248,15400,3876,131,-15,-4971,2025-02-17 10:56:07,0.0
5280,15312,3324,-629,-205,-5508,2025-02-17 10:56:07,
2896,15600,2420,-1641,390,-4983,2025-02-17 10:56:07,0.0
1896,15724,2292,-2917,730,-3925,2025-02-17 10:56:07,0.0
3976,15560,3896,-3625,-339,-3633,2025-02-17 10:56:07,0.0
4812,15100,6456,-3564,-901,-3812,2025-02-17 10:56:07,0.0
3860,15136,7428,-2881,-436,-3829,2025-02-17 10:56:07,0.0
1976,15224,7784,-2024,426,-3152,2025-02-17 10:56:07,0.0
1316,15856,7188,-1136,516,-1720,2025-02-17 10:56:07,0.0
-1164,14956,7832,-262,428,-43,2025-02-17 10:56:07,0.0
172,16524,7452,676,-517,1873,2025-02-17 10:56:07,0.0
5288,15816,8044,1741,-541,2206,2025-02-17 10:56:07,0.0
7508,15120,7768,2751,-378,1061,2025-02-17 10:56:07,0.0
8460,15556,6816,3450,-40,-661,2025-02-17 10:56:07,0.0
10092,15340,2196,2133,787,-3038,2025-02-17 10:56:07,0.0
9572,16400,4656,1687,250,-5931,2025-02-17 10:56:07,0.0
9248,15864,6684,1900,-1285,-9051,2025-02-17 10:56:07,0.0
7348,15896,7384,2690,-2314,-11631,2025-02-17 10:56:07,0.0
5676,15880,6172,2941,-2578,-12974,2025-02-17 10:56:07,0.0
3424,18064,10300,6223,-2989,-14137,2025-02-17 10:56:07,0.0
-592,18328,6284,6359,-3905,-12755,2025-02-17 10:56:07,0.0
-2596,18400,3212,6912,-4012,-10518,2025-02-17 10:56:07,0.0
-3884,19276,184,6043,-4310,-7568,2025-02-17 10:56:07,0.0
-1324,20376,-696,3806,-4772,-6095,2025-02-17 10:56:07,0.0
1368,21620,-1348,1076,-5150,-6989,2025-02-17 10:56:07,0.0
2856,22832,-1816,-2655,-6669,-8534,2025-02-17 10:56:07,0.0
2412,24312,1052,-5402,-8730,-8751,2025-02-17 10:56:07,0.0
-1436,26512,9268,-2919,-8969,-6940,2025-02-17 10:56:07,0.0
-3300,25856,12760,3929,-8990,-3274,2025-02-17 10:56:07,0.0
-2116,22984,9304,9688,-9127,105,2025-02-17 10:56:07,0.0
-308,19992,3384,11455,-9243,1409,2025-02-17 10:56:07,0.0
-272,18456,400,10090,-9104,1910,2025-02-17 10:56:07,0.0
568,17484,-2020,7476,-8663,2087,2025-02-17 10:56:07,0.0
-1268,17460,-368,5137,-7658,2913,2025-02-17 10:56:07,0.0
-1360,18284,1068,4220,-5931,5381,2025-02-17 10:56:07,0.0
-532,19352,1692,4616,-4279,7485,2025-02-17 10:56:07,0.0
2128,19780,1464,5071,-3076,7893,2025-02-17 10:56:07,0.0
5060,20116,1444,5356,-2375,5849,2025-02-17 10:56:07,0.0
5540,20528,1444,5769,-1901,2938,2025-02-17 10:56:07,0.0
3708,20120,744,5748,-1513,879,2025-02-17 10:56:07,0.0
1548,19176,-752,4803,-1396,500,2025-02-17 10:56:07,0.0
-632,17192,-3372,1534,-1281,2085,2025-02-17 10:56:07,0.0
2156,16728,-2404,-1743,-1855,3638,2025-02-17 10:56:07,0.0
5752,17944,2244,-2517,-3156,2016,2025-02-17 10:56:07,0.0
7372,19444,6360,384,-4242,-1998,2025-02-17 10:56:07,0.0
3936,19432,5144,4418,-5456,-4743,2025-02-17 10:56:08,0.0
-808,19396,-1964,3683,-6009,-4443,2025-02-17 10:56:08,0.0
3084,19372,-9616,-1723,-5502,-643,2025-02-17 10:56:08,0.0
-2232,19532,-1284,-6877,-4137,3176,2025-02-17 10:56:08,0.0
9724,19648,6356,-5999,646,809,2025-02-17 10:56:08,0.0
4152,18848,5024,-2733,2129,-4893,2025-02-17 10:56:08,0.0
-2492,14824,400,-3617,3877,-918,2025-02-17 10:56:08,0.0
-880,17420,892,-5521,4832,2487,2025-02-17 10:56:08,0.0
1680,18516,2220,-4732,4666,3375,2025-02-17 10:56:08,0.0
1508,15924,1096,-4410,4408,3507,2025-02-17 10:56:08,0.0
1916,12332,1252,-5700,4594,4711,2025-02-17 10:56:08,0.0
6684,14844,5508,-4170,4577,1263,2025-02-17 10:56:08,0.0
2008,16624,4148,-1636,3970,-642,2025-02-17 10:56:08,0.0
-1960,17096,3064,160,3617,676,2025-02-17 10:56:08,0.0
-2728,16028,2744,1595,3679,3706,2025-02-17 10:56:08,0.0
-76,15220,2324,2531,3634,5134,2025-02-17 10:56:08,0.0
2644,14964,1952,3350,2991,4719,2025-02-17 10:56:08,0.0
3484,14344,1228,3716,2105,3227,2025-02-17 10:56:08,0.0
2088,14156,2756,4435,1489,2006,2025-02-17 10:56:08,0.0
1440,13788,4136,6193,1350,1575,2025-02-17 10:56:08,0.0
1780,12604,4668,8827,1443,1107,2025-02-17 10:56:08,0.0
2928,11252,3920,10672,1749,-40,2025-02-17 10:56:08,0.0
3208,9944,3268,11660,2234,-1604,2025-02-17 10:56:08,0.0
3152,9648,2656,12270,2634,-3105,2025-02-17 10:56:08,0.0
3732,10436,1496,12572,2273,-4340,2025-02-17 10:56:08,0.0
2540,10648,-2684,11007,1638,-5129,2025-02-17 10:56:08,0.0
3928,9964,-6568,-20260,9979,11607,2025-02-17 10:56:08,0.0
17196,15340,20328,-17013,15242,4269,2025-02-17 10:56:08,0.0
8804,13072,16812,-8287,14127,115,2025-02-17 10:56:08,0.0
3140,10348,6108,-2630,14747,-1869,2025-02-17 10:56:08,0.0
2172,8744,-2396,-3528,13914,-1939,2025-02-17 10:56:08,0.0
4908,8228,-4188,-7681,12067,-3203,2025-02-17 10:56:08,0.0
6760,13168,5328,822,7916,-1372,2025-02-17 10:56:08,0.0
10956,13148,-4412,6394,-1257,-5642,2025-02-17 10:56:08,0.0
3452,12156,-4268,3820,3214,-8919,2025-02-17 10:56:08,0.0
1428,12380,-480,3849,8425,-8613,2025-02-17 10:56:08,0.0
1956,11528,2192,5628,9255,-9892,2025-02-17 10:56:08,0.0
2708,10200,1128,6613,3676,-9930,2025-02-17 10:56:08,0.0
2872,9844,680,5405,-3596,-11004,2025-02-17 10:56:08,0.0
1664,11080,3140,5171,-11294,-11803,2025-02-17 10:56:08,0.0
-428,13176,3864,7625,-16421,-12679,2025-02-17 10:56:08,0.0
-3608,14504,88,9192,-17603,-12368,2025-02-17 10:56:08,0.0
-8384,16336,-6200,7199,-13629,-9602,2025-02-17 10:56:08,0.0
-7288,15476,-8056,634,-6162,-2248,2025-02-17 10:56:08,0.0
-1856,15224,-2252,-2021,-2070,1293,2025-02-17 10:56:08,0.0
1636,14816,1428,1035,569,1041,2025-02-17 10:56:08,0.0
-160,13304,1912,3243,2627,-1862,2025-02-17 10:56:08,0.0
-5332,14144,604,4613,7277,-2495,2025-02-17 10:56:08,0.0
-7664,15880,-644,4152,11186,238,2025-02-17 10:56:08,0.0
-5792,15948,-1388,1742,13777,3342,2025-02-17 10:56:08,0.0
-1980,14892,708,-455,15320,2744,2025-02-17 10:56:08,0.0
-1072,12924,2744,-699,19526,-438,2025-02-17 10:56:08,0.0
-964,13248,2776,-954,19813,-3258,2025-02-17 10:56:08,0.0
-476,14200,3900,-1324,14166,-5209,2025-02-17 10:56:08,0.0
-56,14664,2288,-2483,4568,-7477,2025-02-17 10:56:08,0.0
-1396,14816,3848,-3554,-4569,-9029,2025-02-17 10:56:08,0.0
-1568,13152,3928,-4270,-10493,-9087,2025-02-17 10:56:08,
700,9964,3336,-6128,-11266,-13287,2025-02-17 10:56:08,0.0
-1580,9156,3016,-7949,-7150,-18083,2025-02-17 10:56:08,0.0
-5032,9968,4108,-8545,-2376,-21417,2025-02-17 10:56:08,0.0
-4476,11288,2940,-7401,100,-22833,2025-02-17 10:56:08,0.0
-2252,10400,496,-6407,464,-25502,2025-02-17 10:56:08,0.0
-2304,8876,-3264,-7167,-877,-28732,2025-02-17 10:56:09,0.0
-4640,8092,-4512,-10989,-2077,-30707,2025-02-17 10:56:09,0.0
-5304,6772,-1392,-13790,-3061,-31965,2025-02-17 10:56:09,0.0
-6052,6420,2176,-14998,-3600,-32768,2025-02-17 10:56:09,0.0
-7192,5004,5984,-13465,-5460,-32768,2025-02-17 10:56:09,0.0
-7188,4172,5264,-11979,-8516,-31511,2025-02-17 10:56:09,0.0
-6960,4144,3824,-12061,-10710,-30106,2025-02-17 10:56:09,0.0
-8088,5280,3700,-12334,-10824,-29050,2025-02-17 10:56:09,0.0
-10796,7120,4092,-11509,-7226,-26482,2025-02-17 10:56:09,0.0
-14608,10740,3188,-6368,3028,-21258,2025-02-17 10:56:09,0.0
-14548,10512,-2736,-8120,8830,-15675,2025-02-17 10:56:09,0.0
-12244,7440,-1564,-10516,15122,-12386,2025-02-17 10:56:09,0.0
-9116,3340,3100,-10072,24446,-11470,2025-02-17 10:56:09,0.0
-8908,1196,6508,-5101,32767,-13419,2025-02-17 10:56:09,0.0
-13568,876,4456,832,32767,-12056,2025-02-17 10:56:09,0.0
-16520,1600,-1276,2356,32767,-10216,2025-02-17 10:56:09,0.0
-14628,3576,-3532,2915,32767,-11885,2025-02-17 10:56:09,0.0
-12608,4360,-4328,7625,32767,-19112,2025-02-17 10:56:09,0.0
-22116,3764,-7032,13018,32767,-22931,2025-02-17 10:56:09,0.0
-30600,2608,-11056,8922,32767,-21557,2025-02-17 10:56:09,0.0
-22720,-1200,-7532,3006,32767,-19635,2025-02-17 10:56:09,0.0
-23356,-3800,-752,2790,9825,-15062,2025-02-17 10:56:09,0.0
-28452,-4152,-12552,2844,-2334,-8573,2025-02-17 10:56:09,0.0
-18448,-1208,-16076,250,-12745,-1623,2025-02-17 10:56:09,0.0
-10556,2748,-14684,-339,-18813,-2012,2025-02-17 10:56:09,0.0
-9532,3388,-10820,-1054,-21770,-3511,2025-02-17 10:56:09,0.0
-9004,2648,-4108,-409,-20582,-5393,2025-02-17 10:56:09,0.0
-11132,5244,7284,6112,-13416,-5448,2025-02-17 10:56:09,0.0
-13112,-2944,-9396,10603,-4445,-5673,2025-02-17 10:56:09,0.0
-14976,-3364,-13936,-1570,2815,-1804,2025-02-17 10:56:09,0.0
-9724,-1160,-1768,-2258,9699,-806,2025-02-17 10:56:09,0.0
-10224,-1320,-2604,5935,10431,-2952,2025-02-17 10:56:09,0.0
-14200,-1244,-10952,5349,6216,-2947,2025-02-17 10:56:09,0.0
-12504,-2712,-12348,1278,-242,-2465,2025-02-17 10:56:09,0.0
-11988,-2392,-7600,-118,-8605,-2257,2025-02-17 10:56:09,0.0
-11520,-1080,-5600,-316,-17831,-3399,2025-02-17 10:56:09,0.0
-12656,-564,-1316,-1008,-30740,-2680,2025-02-17 10:56:09,0.0
-14072,292,2352,-261,-32768,848,2025-02-17 10:56:09,0.0
-12104,-184,5352,1663,-32768,2813,2025-02-17 10:56:09,0.0
-8576,-1928,5724,4597,-32768,1910,2025-02-17 10:56:09,0.0
-9428,-3128,3668,5749,-32768,-98,2025-02-17 10:56:09,0.0
-10528,-3560,772,5652,-32768,-1731,2025-02-17 10:56:09,0.0
-14312,-3100,-4048,3744,-32768,-2655,2025-02-17 10:56:09,0.0
-17660,-2916,-6684,61,-28184,-2208,2025-02-17 10:56:09,0.0
-17848,-3344,-6072,-2815,-10466,-1294,2025-02-17 10:56:09,0.0
-15676,-3664,-4636,-4888,5898,-775,2025-02-17 10:56:09,0.0
-12400,-3280,-1640,-6667,18054,-292,2025-02-17 10:56:09,0.0
-9508,-3172,468,-6910,25985,-1290,2025-02-17 10:56:09,0.0
-9412,-2852,1108,-6949,30334,-2615,2025-02-17 10:56:09,0.0
-11432,-2576,2108,-6635,31048,-3179,2025-02-17 10:56:09,0.0
-11276,-1976,2304,-5478,28571,-3976,2025-02-17 10:56:09,0.0
-21720,-8540,32767,-2036,-10689,-3896,2025-02-17 10:56:09,0.0
-16864,-1704,16708,6156,-32768,-5662,2025-02-17 10:56:09,0.0
-28896,-2228,2484,656,-32768,-2104,2025-02-17 10:56:09,0.0
-22660,-4028,1548,-4272,-17635,630,2025-02-17 10:56:09,0.0
-11292,-752,5316,-7404,-9811,-1270,2025-02-17 10:56:09,0.0
-8080,1292,5352,-9040,-11708,-1177,2025-02-17 10:56:09,0.0
-7556,-140,5968,-8786,-13054,-1430,2025-02-17 10:56:09,0.0
-5868,-768,5144,-9504,-14301,-1236,2025-02-17 10:56:09,0.0
-2992,-1028,9252,-9121,-14333,-1958,2025-02-17 10:56:09,0.0
-1872,-2188,13004,-7353,-12057,-4118,2025-02-17 10:56:09,0.0
-8260,-3964,11748,-4901,-3371,-5214,2025-02-17 10:56:10,0.0
-14676,-6152,4080,-4458,11217,-3524,2025-02-17 10:56:10,0.0
-16264,-8700,-196,-6604,26395,-1452,2025-02-17 10:56:10,0.0
-13740,-10552,-1556,-9311,30974,-976,2025-02-17 10:56:10,0.0
-9936,-9748,-2832,-12607,25424,-3208,2025-02-17 10:56:10,0.0
-10168,-8064,-1152,-15010,16073,-7663,2025-02-17 10:56:10,0.0
-18920,-7896,6540,-15031,6820,-10535,2025-02-17 10:56:10,0.0
-23780,-7172,7364,-11566,5072,-9435,2025-02-17 10:56:10,0.0
-19984,-5892,5984,-7134,-593,-8149,2025-02-17 10:56:10,0.0
-16960,-5308,4120,-3726,-11579,-5923,2025-02-17 10:56:10,0.0
-14372,-9176,4904,-2376,-13943,-4316,2025-02-17 10:56:10,0.0
-14144,-10304,3944,-1726,-3986,-3110,2025-02-17 10:56:10,0.0
-14744,-8396,3588,-1156,10468,-2073,2025-02-17 10:56:10,0.0
-14780,-5852,5508,264,19683,-345,2025-02-17 10:56:10,0.0
-15916,-4600,2364,2489,19445,1853,2025-02-17 10:56:10,0.0
-16820,-4816,1156,3113,16239,1807,2025-02-17 10:56:10,0.0
-17468,-6636,1016,2040,11728,329,2025-02-17 10:56:10,0.0
-18812,-7836,-108,1044,9698,-1,2025-02-17 10:56:10,0.0
-17676,-7856,-1840,370,8722,325,2025-02-17 10:56:10,0.0
-16220,-6584,-576,169,7671,1144,2025-02-17 10:56:10,0.0
-16416,-5392,1012,200,7310,2970,2025-02-17 10:56:10,0.0
-15320,-5784,1856,1121,7766,3522,2025-02-17 10:56:10,0.0
-15020,-6468,-220,1318,7396,2939,2025-02-17 10:56:10,0.0
-13988,-6672,-2040,754,5111,2231,2025-02-17 10:56:10,0.0
-13368,-5788,-2292,68,1309,1632,2025-02-17 10:56:10,0.0
-13900,-5020,-1108,-124,-2873,1640,2025-02-17 10:56:10,0.0
-13976,-5780,-64,41,-6067,1860,2025-02-17 10:56:10,0.0
-14324,-6332,448,7,-6775,2108,2025-02-17 10:56:10,0.0
-14160,-5972,244,8,-6019,2771,2025-02-17 10:56:10,0.0
-12864,-5232,-332,-187,-6394,3697,2025-02-17 10:56:10,0.0
-12860,-5084,432,-81,-6976,4228,2025-02-17 10:56:10,0.0
-12144,-5152,180,-396,-5267,4429,2025-02-17 10:56:10,0.0
-11996,-5560,-124,-850,-1994,4348,2025-02-17 10:56:10,0.0
-11760,-5916,36,-1653,1103,4266,2025-02-17 10:56:10,
-11424,-4940,604,-2116,3058,3993,2025-02-17 10:56:10,0.0
-11712,-3256,888,-1969,3795,3391,2025-02-17 10:56:10,0.0
-11948,-2480,732,-1345,3193,2720,2025-02-17 10:56:10,0.0
-12708,-3868,760,-829,2187,2210,2025-02-17 10:56:10,0.0
-12248,-4768,856,-410,1559,1844,2025-02-17 10:56:10,0.0
-11836,-5192,984,-767,1172,1153,2025-02-17 10:56:10,0.0
-12780,-4844,1844,-795,1146,830,2025-02-17 10:56:10,0.0
-13700,-4496,2564,-96,807,1427,2025-02-17 10:56:10,0.0
-13640,-4244,2156,777,6,2455,2025-02-17 10:56:10,0.0
-13172,-4304,1780,1434,-351,3137,2025-02-17 10:56:10,0.0
-12692,-4768,440,1601,74,3083,2025-02-17 10:56:10,0.0
-13172,-5332,404,1145,1171,2931,2025-02-17 10:56:10,0.0
-13680,-4056,552,1314,1583,3065,2025-02-17 10:56:10,0.0
-13620,-2716,1244,1855,634,3452,2025-02-17 10:56:10,0.0
-12780,-1964,432,2672,-1728,3444,2025-02-17 10:56:10,0.0
-12360,-2528,1124,3255,-4115,2718,2025-02-17 10:56:10,0.0
-11588,-3672,628,3438,-5255,1304,2025-02-17 10:56:10,0.0
-11724,-4196,824,3271,-5473,-46,2025-02-17 10:56:10,0.0
-11440,-4000,912,3233,-5409,-783,2025-02-17 10:56:10,0.0
-11792,-3772,584,2913,-3784,-1212,2025-02-17 10:56:10,0.0
-11668,-3796,944,2624,-1077,-1498,2025-02-17 10:56:10,0.0
-11868,-3812,1072,2278,1183,-1727,2025-02-17 10:56:10,0.0
-12788,-3820,1476,1914,2667,-1603,2025-02-17 10:56:10,0.0
-13032,-3804,1832,1692,2996,-1179,2025-02-17 10:56:10,0.0
-13520,-3676,2136,1710,2344,-503,2025-02-17 10:56:10,0.0
-13436,-3744,1052,1659,1374,83,2025-02-17 10:56:10,0.0
-13492,-3620,200,968,965,452,2025-02-17 10:56:11,0.0
-13908,-3352,1304,884,405,958,2025-02-17 10:56:11,0.0
-14536,-3080,2576,1156,-725,1581,2025-02-17 10:56:11,0.0
-14072,-3600,1084,1470,-2604,2233,2025-02-17 10:56:11,0.0
-13088,-3616,-380,325,-2984,2623,2025-02-17 10:56:11,0.0
-12852,-3404,416,-493,-1878,1563,2025-02-17 10:56:11,0.0
-13404,-3036,652,-1078,-443,1415,2025-02-17 10:56:11,0.0
-13468,-2624,2372,-1007,26,1919,2025-02-17 10:56:11,0.0
-13240,-2496,2964,-405,-157,2494,2025-02-17 10:56:11,0.0
-13080,-2896,3264,119,-307,2707,2025-02-17 10:56:11,0.0
-12088,-2716,1060,478,134,2351,2025-02-17 10:56:11,0.0
-13088,-2772,192,291,1709,1871,2025-02-17 10:56:11,0.0
-12728,-2496,488,239,3169,1794,2025-02-17 10:56:11,0.0
-12348,-2892,84,0,3498,1284,2025-02-17 10:56:11,0.0
-12740,-3216,-360,-868,3212,765,2025-02-17 10:56:11,0.0
-13240,-3184,124,-1634,3672,875,2025-02-17 10:56:11,0.0
-13212,-2840,1240,-1822,4993,1280,2025-02-17 10:56:11,0.0
-12956,-2628,1520,-1518,7113,1723,2025-02-17 10:56:11,0.0
-15156,-952,1732,-1082,9105,2458,2025-02-17 10:56:11,0.0
-14452,-856,640,-1241,10539,2985,2025-02-17 10:56:11,0.0
-15088,-1952,120,-1055,9061,1457,2025-02-17 10:56:11,0.0
-17380,-1304,-744,-1580,4409,1155,2025-02-17 10:56:11,0.0
-16860,-1480,-132,-1357,-497,1592,2025-02-17 10:56:11,0.0
-14404,-1892,-1084,-1017,-6309,963,2025-02-17 10:56:11,0.0
-14080,-2012,-728,-775,-8860,483,2025-02-17 10:56:11,0.0
-13112,-1820,-628,-1231,-9026,360,2025-02-17 10:56:11,0.0
-13540,-1492,-436,-1756,-5264,373,2025-02-17 10:56:11,0.0
-13048,-376,-448,-2469,-1455,433,2025-02-17 10:56:11,0.0
-12764,-140,-376,-2730,696,-125,2025-02-17 10:56:11,0.0
-13116,-664,-412,-3785,2040,-233,2025-02-17 10:56:11,0.0
-13324,-1812,300,-3876,3144,-225,2025-02-17 10:56:11,0.0
-14020,-2204,1000,-3254,3442,-19,2025-02-17 10:56:11,0.0
-13832,-2276,864,-2459,2734,372,2025-02-17 10:56:11,0.0
-13532,-2068,636,-1782,1894,299,2025-02-17 10:56:11,0.0
-14472,-1676,636,-1045,996,263,2025-02-17 10:56:11,0.0
-13600,-1760,-180,-802,487,201,2025-02-17 10:56:11,0.0
-13316,-1856,-348,-783,848,-21,2025-02-17 10:56:11,0.0
-14480,-2268,540,-284,1565,806,2025-02-17 10:56:11,0.0
-14248,-2780,144,982,1700,2603,2025-02-17 10:56:11,0.0
-14360,-1460,-512,302,1525,2579,2025-02-17 10:56:11,0.0
-14084,-1156,-208,-14,342,2356,2025-02-17 10:56:11,0.0
-13648,-1388,-744,98,-1270,1691,2025-02-17 10:56:11,0.0
-14340,-1340,-296,-227,-2865,1366,2025-02-17 10:56:11,0.0
-13900,-1256,0,140,-4117,1618,2025-02-17 10:56:11,0.0
-13452,-1084,296,912,-5613,2036,2025-02-17 10:56:11,0.0
-12708,-1104,-916,1292,-6470,1935,2025-02-17 10:56:11,0.0
-13232,-1396,-424,1142,-5764,1780,2025-02-17 10:56:11,0.0
-13396,-1484,512,1007,-4499,1431,2025-02-17 10:56:11,0.0
-13576,-1436,1764,1172,-4581,1215,2025-02-17 10:56:11,0.0
-14036,-1480,1964,1639,-5076,1791,2025-02-17 10:56:11,0.0
-13356,-1524,1492,2106,-5505,2279,2025-02-17 10:56:11,0.0
-12432,-1592,2028,2844,-5092,2007,2025-02-17 10:56:11,0.0
-12432,-1496,-940,2236,-2597,1497,2025-02-17 10:56:11,0.0
-11948,-1268,-1192,905,-108,920,2025-02-17 10:56:11,0.0
-11856,-1508,-2392,-85,1320,884,2025-02-17 10:56:11,0.0
-10936,-2392,-2748,-733,1849,933,2025-02-17 10:56:11,0.0
-10168,-2568,-4772,-1028,3491,872,2025-02-17 10:56:11,0.0
-9268,-1784,-8608,-1708,7262,-62,2025-02-17 10:56:11,0.0
-8364,-184,-6868,-2849,11934,-697,2025-02-17 10:56:11,0.0
-9076,2876,-176,-3259,16856,-1705,2025-02-17 10:56:11,0.0
-12804,4504,3744,-1721,18134,-1110,2025-02-17 10:56:11,0.0
-16592,3924,984,323,13677,923,2025-02-17 10:56:12,0.0
-19832,2576,-704,1129,6630,3181,2025-02-17 10:56:12,0.0
-19364,1272,752,1037,-309,3931,2025-02-17 10:56:12,0.0
-15096,-976,1080,827,-1036,3750,2025-02-17 10:56:12,0.0
-9316,-932,-296,347,-893,1273,2025-02-17 10:56:12,0.0
-11764,-1348,2480,818,-634,45,2025-02-17 10:56:12,0.0
-13612,-108,1252,773,-1230,233,2025-02-17 10:56:12,0.0
-11924,1444,1520,760,-2007,112,2025-02-17 10:56:12,0.0
-11532,3456,2132,1350,-2247,329,2025-02-17 10:56:12,0.0
-8808,3148,1836,2916,-2292,861,2025-02-17 10:56:12,0.0
-7080,2112,1904,4194,-1012,327,2025-02-17 10:56:12,0.0
-7444,540,20,4746,131,-53,2025-02-17 10:56:12,0.0
-8664,732,-440,4077,801,570,2025-02-17 10:56:12,
-12184,1264,-3196,4945,1010,1115,2025-02-17 10:56:12,0.0
-16228,1668,-4312,4955,1111,2298,2025-02-17 10:56:12,0.0
-21628,-196,-2976,4901,1705,5432,2025-02-17 10:56:12,0.0
-17460,-948,-888,3926,-301,8403,2025-02-17 10:56:12,0.0
-8432,2492,2052,4048,-7122,5704,2025-02-17 10:56:12,0.0
-8572,4,920,3875,-8589,2650,2025-02-17 10:56:12,0.0
-9676,-1368,560,4378,-5513,977,2025-02-17 10:56:12,0.0
-14572,-300,-2424,3014,-3626,2503,2025-02-17 10:56:12,0.0
-14932,760,140,2828,-3553,3266,2025-02-17 10:56:12,0.0
-13096,740,1152,3374,-4013,3235,2025-02-17 10:56:12,0.0
-11852,1060,4,3494,-4558,1784,2025-02-17 10:56:12,0.0
-13552,1632,-780,3614,-4625,779,2025-02-17 10:56:12,0.0
-14668,1580,-1760,3170,-5060,167,2025-02-17 10:56:12,0.0
-17172,1468,-2572,2990,-6113,-308,2025-02-17 10:56:12,0.0
-12144,308,180,2791,-7301,-255,2025-02-17 10:56:12,0.0
-14428,2896,-376,2435,-7520,384,2025-02-17 10:56:12,0.0
-13976,1068,6588,498,-5028,-1268,2025-02-17 10:56:12,0.0
-13064,828,8648,-473,-4626,-611,2025-02-17 10:56:12,0.0
-11384,120,10912,-1503,-3195,-521,2025-02-17 10:56:12,0.0
-11424,-584,11240,-1356,-2805,-830,2025-02-17 10:56:12,0.0
-11556,-496,10220,-924,-3806,-914,2025-02-17 10:56:12,0.0
-11392,-392,11752,-268,-4729,-872,2025-02-17 10:56:12,0.0
-11164,-336,10540,12,-4472,-420,2025-02-17 10:56:12,0.0
-11296,-180,10592,-4,-3938,-312,2025-02-17 10:56:13,0.0
-9968,240,12448,-610,-4834,-1238,2025-02-17 10:56:13,0.0
-10620,-380,11572,-234,-3621,-1188,2025-02-17 10:56:13,0.0
-10808,152,9968,-265,-2251,-1013,2025-02-17 10:56:13,0.0
-11736,216,11296,-363,-1472,-526,2025-02-17 10:56:13,0.0
-11656,-108,10976,150,-1571,-161,2025-02-17 10:56:13,0.0
-11012,20,9276,78,-1718,-476,2025-02-17 10:56:13,0.0
-11608,136,10332,290,-2233,-577,2025-02-17 10:56:13,0.0
-11576,612,10108,328,-2718,-507,2025-02-17 10:56:13,0.0
-11348,768,10636,146,-2663,-389,2025-02-17 10:56:13,0.0
-11060,460,11168,125,-2259,-224,2025-02-17 10:56:13,0.0
-10752,276,10624,102,-1543,-95,2025-02-17 10:56:13,0.0
-10656,368,10932,-40,-633,-299,2025-02-17 10:56:13,0.0
-11108,624,11404,-212,-920,-74,2025-02-17 10:56:13,0.0
-10872,820,12208,67,-922,167,2025-02-17 10:56:13,0.0
-11208,896,12520,321,-523,268,2025-02-17 10:56:13,0.0
-10852,896,11524,529,-451,315,2025-02-17 10:56:13,0.0
-10552,764,11492,489,-560,251,2025-02-17 10:56:13,0.0
-9892,368,10688,232,-621,-122,2025-02-17 10:56:13,0.0
-10224,796,11052,-162,-641,-761,2025-02-17 10:56:13,0.0
-11288,684,12476,-164,-471,-625,2025-02-17 10:56:13,0.0
-10732,260,11548,-46,-299,-61,2025-02-17 10:56:13,0.0
-11088,124,11320,103,557,146,2025-02-17 10:56:13,0.0
-9484,-268,11548,-102,518,-5,2025-02-17 10:56:13,0.0
-11272,876,10896,-213,795,-319,2025-02-17 10:56:13,0.0
-12532,1264,10988,-571,378,-749,2025-02-17 10:56:13,0.0
-12556,704,10904,-452,-814,-238,2025-02-17 10:56:13,0.0
-11460,636,10812,-328,-1698,85,2025-02-17 10:56:13,0.0
-10788,408,10476,105,-1795,360,2025-02-17 10:56:13,0.0
-10352,764,10308,93,-1502,160,2025-02-17 10:56:13,0.0
-10084,1064,10200,-56,-892,-156,2025-02-17 10:56:13,0.0
-10372,1196,10204,-349,-105,-406,2025-02-17 10:56:13,0.0
-10948,1128,10240,-713,168,-628,2025-02-17 10:56:13,0.0
-11364,728,10588,-789,-123,-635,2025-02-17 10:56:13,0.0
-10896,-92,9656,-412,-660,-589,2025-02-17 10:56:13,0.0
-11548,20,11112,-287,-702,-242,2025-02-17 10:56:13,0.0
-10860,156,10988,-206,-633,79,2025-02-17 10:56:13,0.0
-10632,572,11116,-277,-198,42,2025-02-17 10:56:13,0.0
-10732,668,11448,-415,87,-136,2025-02-17 10:56:13,0.0
-11016,560,11364,-429,180,-264,2025-02-17 10:56:13,0.0
-11012,212,11400,-82,178,-313,2025-02-17 10:56:13,0.0
-11256,260,11336,-114,148,-289,2025-02-17 10:56:13,0.0
-11032,208,11452,45,-19,-327,2025-02-17 10:56:13,0.0
-11048,164,11256,75,2,-246,2025-02-17 10:56:13,0.0
-10812,300,11120,-46,39,-300,2025-02-17 10:56:13,0.0
-11024,388,11212,-68,48,-320,2025-02-17 10:56:13,0.0
-11212,432,11068,-65,45,-278,2025-02-17 10:56:13,0.0
-11056,508,11680,-11,9,-302,2025-02-17 10:56:13,0.0
-10896,476,11248,44,-16,-270,2025-02-17 10:56:13,0.0
-11108,416,11380,128,-89,-191,2025-02-17 10:56:13,0.0
-11228,424,11572,153,98,54,2025-02-17 10:56:13,0.0
-11912,364,13128,387,225,260,2025-02-17 10:56:13,0.0
-10664,376,10816,504,-70,292,2025-02-17 10:56:13,0.0
-11052,452,10952,670,-55,438,2025-02-17 10:56:14,0.0
-12172,496,12248,723,309,574,2025-02-17 10:56:14,0.0
-11200,384,13684,660,-781,562,2025-02-17 10:56:14,0.0
-10212,704,9548,477,-1067,548,2025-02-17 10:56:14,0.0
-12648,828,12812,1935,-832,1868,2025-02-17 10:56:14,0.0
-9196,796,9320,1076,-1950,1226,2025-02-17 10:56:14,0.0
-8720,776,11032,-88,-1684,514,2025-02-17 10:56:14,0.0
-8068,760,11336,-1166,156,-59,2025-02-17 10:56:14,0.0
-9148,940,12068,-1678,1892,-566,2025-02-17 10:56:14,0.0
-10400,676,11128,-1186,2252,-224,2025-02-17 10:56:14,0.0
-12636,1136,11800,-902,1726,10,2025-02-17 10:56:14,0.0
-12416,720,11432,350,470,1113,2025-02-17 10:56:14,0.0
-11108,776,10768,525,-425,735,2025-02-17 10:56:14,0.0
-10232,552,9996,511,-688,149,2025-02-17 10:56:14,0.0
-10356,408,10364,399,-244,-238,2025-02-17 10:56:14,0.0
-10460,504,10648,453,490,-200,2025-02-17 10:56:14,0.0
-11004,560,10564,458,964,-274,2025-02-17 10:56:14,0.0
-11668,668,11168,487,874,-119,2025-02-17 10:56:14,0.0
-11844,916,11316,492,518,-91,2025-02-17 10:56:14,0.0
-11408,1168,10912,299,-8,-88,2025-02-17 10:56:14,0.0
-11160,1032,10736,-1307,5925,-467,2025-02-17 10:56:14,0.0
-12512,600,9728,-1200,6074,347,2025-02-17 10:56:14,0.0
-12532,364,9044,-1369,4458,407,2025-02-17 10:56:14,0.0
-12108,-620,8912,-1485,3035,-111,2025-02-17 10:56:14,
-11972,-364,9232,-1393,2678,-566,2025-02-17 10:56:14,0.0
-11876,140,9312,-1008,2961,-668,2025-02-17 10:56:14,0.0
-12332,856,9888,-909,3514,-729,2025-02-17 10:56:14,0.0
-12792,1312,10944,-656,3137,-275,2025-02-17 10:56:14,0.0
-13196,1112,11248,-564,1931,693,2025-02-17 10:56:14,0.0
-11000,752,11364,-460,1500,1422,2025-02-17 10:56:14,0.0
-9640,780,11928,-86,2246,1475,2025-02-17 10:56:14,0.0
-11000,1104,9596,-274,5080,1214,2025-02-17 10:56:14,0.0
-10028,340,15192,440,7897,787,2025-02-17 10:56:14,0.0
-3696,884,24768,1720,11228,-896,2025-02-17 10:56:14,0.0
-19112,2568,12532,33,16275,-446,2025-02-17 10:56:14,0.0
-15156,2244,17216,373,17622,-431,2025-02-17 10:56:14,0.0
-21628,4108,12136,-754,16597,-190,2025-02-17 10:56:14,0.0
-16284,696,10184,-1326,15168,1227,2025-02-17 10:56:14,0.0
-16556,1040,10604,-383,13197,912,2025-02-17 10:56:14,0.0
-18596,1208,7136,122,10866,355,2025-02-17 10:56:14,0.0
-15076,-116,8996,1047,8337,889,2025-02-17 10:56:14,0.0
-15552,396,7236,1106,6256,599,2025-02-17 10:56:14,0.0
-17256,1552,6636,987,6760,850,2025-02-17 10:56:14,0.0
-15280,2448,5072,508,5580,426,2025-02-17 10:56:14,0.0
-13716,2104,4464,154,5169,-118,2025-02-17 10:56:14,0.0
-13148,1884,4424,0,6277,-570,2025-02-17 10:56:14,0.0
-14236,1980,3252,-192,8567,-713,2025-02-17 10:56:14,0.0
-15096,2040,2744,-607,10325,-522,2025-02-17 10:56:14,0.0
-14872,1696,1896,-685,10927,-649,2025-02-17 10:56:14,0.0
-14152,1480,1752,-883,10520,-1246,2025-02-17 10:56:14,0.0
-14584,1020,2068,-1071,10034,-1488,2025-02-17 10:56:15,0.0
-15132,1076,2628,-1073,9296,-1639,2025-02-17 10:56:15,0.0
-15332,900,2268,-902,8746,-1669,2025-02-17 10:56:15,0.0
-15512,1272,1780,-899,7704,-1610,2025-02-17 10:56:15,0.0
-14596,1416,1452,-753,7490,-1231,2025-02-17 10:56:15,0.0
-13628,988,600,-16,7228,-1104,2025-02-17 10:56:15,0.0
-13484,992,1068,453,6632,-1036,2025-02-17 10:56:15,0.0
-12916,1052,552,598,6149,-1339,2025-02-17 10:56:15,0.0
-13084,1072,584,1007,6379,-1811,2025-02-17 10:56:15,0.0
-12632,1080,180,1050,6062,-2329,2025-02-17 10:56:15,0.0
-13348,760,32,777,6660,-2505,2025-02-17 10:56:15,0.0
-13448,576,260,293,6261,-2262,2025-02-17 10:56:15,0.0
-13368,364,-568,163,5516,-1911,2025-02-17 10:56:15,0.0
-13544,460,-1360,-225,4520,-1579,2025-02-17 10:56:15,0.0
-13168,332,-548,-823,4022,-1368,2025-02-17 10:56:15,0.0
-12404,16,92,-752,2882,-1843,2025-02-17 10:56:15,0.0
-12732,-12,20,-32,1691,-2622,2025-02-17 10:56:15,0.0
-12916,4,-908,465,-125,-2955,2025-02-17 10:56:15,0.0
-12144,-144,-1288,366,-2396,-2933,2025-02-17 10:56:15,0.0
-11568,-528,-2108,-50,-3954,-2881,2025-02-17 10:56:15,0.0
-14448,-380,-1408,-1094,-1623,-1743,2025-02-17 10:56:15,0.0
-11156,-620,12,-891,-667,-1327,2025-02-17 10:56:15,0.0
-10352,1032,-608,-561,-2942,-2345,2025-02-17 10:56:15,0.0
-11032,-852,56,30,-1520,-2367,2025-02-17 10:56:15,0.0
-13220,-1488,-756,1326,-809,-1320,2025-02-17 10:56:15,0.0
-12876,-968,-364,1299,96,-1514,2025-02-17 10:56:15,0.0
-12356,-892,-600,1087,158,-2006,2025-02-17 10:56:15,0.0
-12148,-1016,-496,530,784,-3274,2025-02-17 10:56:15,0.0
-12076,-1188,-1308,141,2637,-5000,2025-02-17 10:56:15,0.0
-12800,-900,-2584,-421,5881,-6361,2025-02-17 10:56:15,0.0
-13908,-1188,-1776,-1325,9752,-6818,2025-02-17 10:56:15,0.0
-13280,-2260,-68,-256,12738,-6855,2025-02-17 10:56:15,0.0
-13904,-2588,-1104,1152,15792,-6676,2025-02-17 10:56:15,0.0
-14968,-1684,-3560,265,20875,-6980,2025-02-17 10:56:15,0.0
-13820,12,-4508,-3508,28409,-6347,2025-02-17 10:56:15,0.0
-14792,2544,-636,-2642,30196,-7064,2025-02-17 10:56:15,5
-12712,2512,-1900,-832,28890,-5696,2025-02-17 10:56:15,5
-10128,1208,356,2186,25305,-6419,2025-02-17 10:56:15,5
-10288,-40,-2748,4767,20130,-7500,2025-02-17 10:56:15,5
-10920,-1268,-5504,5488,13333,-8491,2025-02-17 10:56:15,5
-11468,-1984,-6664,5399,6131,-8839,2025-02-17 10:56:15,5
-11664,-1804,-6892,5810,-1429,-8892,2025-02-17 10:56:16,5
-12280,-1944,-7048,6034,-7628,-8903,2025-02-17 10:56:16,5
-12148,-1568,-6260,6087,-10992,-9165,2025-02-17 10:56:16,5
-11400,-2420,-6236,6239,-12508,-9518,2025-02-17 10:56:16,5
-10800,-2368,-5452,6126,-12741,-10231,2025-02-17 10:56:16,5
-11204,-1960,-5668,5890,-11394,-10466,2025-02-17 10:56:16,5
-10952,-2020,-5256,5787,-8033,-10520,2025-02-17 10:56:16,5
-9772,-2016,-4984,5942,-4057,-11296,2025-02-17 10:56:16,5
-1228,-4644,-3700,5479,-5570,-18078,2025-02-17 10:56:16,5
6396,-5488,3856,6216,-12466,-24627,2025-02-17 10:56:16,5
3332,-5700,2832,6965,-18857,-29605,2025-02-17 10:56:16,5
1176,-4188,1648,5324,-20445,-29400,2025-02-17 10:56:16,5
2612,-3004,1848,3255,-22028,-29920,2025-02-17 10:56:16,5
1608,-2220,2724,2249,-22120,-29534,2025-02-17 10:56:16,5
2196,-2256,2312,1668,-21774,-29131,2025-02-17 10:56:16,5
2048,-2140,2376,1024,-21207,-28922,2025-02-17 10:56:16,5
2108,-2212,2092,222,-20682,-28695,2025-02-17 10:56:16,5
2056,-2332,2336,-670,-20211,-28359,2025-02-17 10:56:16,5
2904,-1920,2216,-6329,-15552,-25576,2025-02-17 10:56:16,5
2936,-2000,2064,-6725,-14634,-25796,2025-02-17 10:56:16,5
2980,-2064,2068,-6993,-13634,-26022,2025-02-17 10:56:16,5
3224,-2116,2208,-7081,-12438,-26283,2025-02-17 10:56:16,5
3984,-2116,1748,-7200,-10776,-26786,2025-02-17 10:56:16,5
2776,-2440,3048,-6781,-8948,-27515,2025-02-17 10:56:16,5
20536,-8408,-1460,-6640,-7519,-31874,2025-02-17 10:56:16,5
32767,-13228,9076,665,-6026,-32768,2025-02-17 10:56:16,5
32767,-32768,-32768,-26121,-32768,-32768,2025-02-17 10:56:16,5
32767,-32768,32767,-32768,-32768,-32768,2025-02-17 10:56:16,5
32767,7996,-8104,13382,-32768,5418,2025-02-17 10:56:16,5
-124,-1380,-23488,11211,-28598,23131,2025-02-17 10:56:16,5
-3764,-6280,-6332,8053,-25284,29028,2025-02-17 10:56:16,5
1696,-8268,-3032,6788,-21442,30847,2025-02-17 10:56:16,5
6556,-8512,-2076,5748,-14270,26500,2025-02-17 10:56:16,5
6284,-9696,-6320,2448,-5903,20787,2025-02-17 10:56:16,5
6472,-12764,-9812,-6275,2376,12888,2025-02-17 10:56:16,5
4984,-14244,-10444,-12927,932,6942,2025-02-17 10:56:16,5
6492,-14636,-11700,-19830,-1318,1126,2025-02-17 10:56:16,5
6328,-13300,-16216,-23262,-1784,-4353,2025-02-17 10:56:16,5
7784,-9528,-8588,-24584,-5130,-8107,2025-02-17 10:56:16,5
-2812,-6996,-13968,-22739,-11408,-8225,2025-02-17 10:56:16,5
6680,-6232,-7300,-16050,-16082,-4561,2025-02-17 10:56:16,5
7260,-5608,-12580,-8721,-9753,386,2025-02-17 10:56:16,5
15768,-5964,-12844,-358,-4374,2501,2025-02-17 10:56:16,5
6272,-8152,-12564,3664,802,1919,2025-02-17 10:56:16,5
7208,-9160,-13140,2081,2576,987,2025-02-17 10:56:16,5
8156,-10256,-12492,31,1193,-674,2025-02-17 10:56:16,5
7548,-8992,-12752,-1343,-419,-804,2025-02-17 10:56:16,5
6764,-7692,-12332,-723,-595,-94,2025-02-17 10:56:16,5
6488,-8368,-12172,232,77,87,2025-02-17 10:56:16,5
6588,-8592,-12184,-13,280,-111,2025-02-17 10:56:16,5
6816,-8508,-12400,-378,161,-299,2025-02-17 10:56:16,5
6924,-8416,-12244,-175,195,-224,2025-02-17 10:56:16,5
6828,-8384,-12296,-54,128,-73,2025-02-17 10:56:17,5
6812,-8628,-12352,-165,205,-183,2025-02-17 10:56:17,5
6776,-8424,-12196,-242,223,-260,2025-02-17 10:56:17,5
6848,-8436,-12356,-121,177,-134,2025-02-17 10:56:17,5
6796,-8416,-12356,-140,147,-146,2025-02-17 10:56:17,5
6752,-8440,-12232,-191,174,-208,2025-02-17 10:56:17,5
6704,-8352,-12156,-118,235,-205,2025-02-17 10:56:17,5
6812,-8476,-12208,-186,186,-153,2025-02-17 10:56:17,5
6740,-8496,-12296,-211,166,-186,2025-02-17 10:56:17,5
6744,-8388,-12224,-161,168,-177,2025-02-17 10:56:17,5
6704,-8528,-12300,-168,162,-177,2025-02-17 10:56:17,5
6796,-8504,-12372,-168,143,-176,2025-02-17 10:56:17,5
6796,-8444,-12216,-169,173,-176,2025-02-17 10:56:17,5
6764,-8496,-12264,-174,184,-189,2025-02-17 10:56:17,5
6740,-8428,-12192,-191,179,-162,2025-02-17 10:56:17,5
6748,-8440,-12192,-185,175,-176,2025-02-17 10:56:17,5
6864,-8464,-12200,-169,199,-172,2025-02-17 10:56:17,5
6792,-8356,-12232,-180,179,-152,2025-02-17 10:56:17,5
6800,-8424,-12288,-181,165,-184,2025-02-17 10:56:17,5
6820,-8472,-12180,-178,171,-172,2025-02-17 10:56:17,5
6780,-8416,-12260,-154,178,-166,2025-02-17 10:56:17,5
6724,-8396,-12244,-193,163,-189,2025-02-17 10:56:17,5
6888,-8444,-12204,-158,184,-178,2025-02-17 10:56:17,5
6808,-8424,-12388,-149,167,-156,2025-02-17 10:56:17,5
6720,-8512,-12328,-169,164,-171,2025-02-17 10:56:17,5
6848,-8412,-12268,-138,161,-182,2025-02-17 10:56:17,5
6804,-8456,-12208,-177,195,-181,2025-02-17 10:56:17,5
6796,-8384,-12228,-197,163,-173,2025-02-17 10:56:17,5
6856,-8428,-12340,-173,170,-188,2025-02-17 10:56:17,5
6808,-8428,-12200,-162,182,-162,2025-02-17 10:56:17,5
6752,-8416,-12288,-129,173,-179,2025-02-17 10:56:17,5
6748,-8472,-12280,-163,188,-174,2025-02-17 10:56:17,5
6764,-8460,-12416,-167,188,-164,2025-02-17 10:56:17,5
6764,-8368,-12320,-169,156,-187,2025-02-17 10:56:17,5
6832,-8496,-12264,-178,170,-187,2025-02-17 10:56:17,5
6708,-8432,-12244,-176,168,-164,2025-02-17 10:56:17,5
6852,-8436,-12280,-160,170,-182,2025-02-17 10:56:17,5
6828,-8520,-12252,-184,185,-175,2025-02-17 10:56:17,5
6740,-8480,-12404,-205,180,-175,2025-02-17 10:56:17,5
6896,-8448,-12372,-185,203,-169,2025-02-17 10:56:17,5
6736,-8512,-12272,-182,202,-180,2025-02-17 10:56:17,5
6732,-8432,-12460,-152,134,-162,2025-02-17 10:56:17,5
6744,-8528,-12160,-168,196,-178,2025-02-17 10:56:17,5
6744,-8512,-12296,-146,160,-167,2025-02-17 10:56:17,5
6856,-8432,-12260,-181,170,-185,2025-02-17 10:56:17,5
6676,-8492,-12144,-164,176,-185,2025-02-17 10:56:17,5
6736,-8392,-12236,-160,192,-162,2025-02-17 10:56:17,5
6732,-8504,-12304,-154,181,-181,2025-02-17 10:56:17,5
6868,-8416,-12308,-159,168,-203,2025-02-17 10:56:17,5
6812,-8380,-12124,-178,195,-167,2025-02-17 10:56:17,5
6796,-8464,-12276,-156,140,-161,2025-02-17 10:56:17,5
6804,-8480,-12372,-149,173,-183,2025-02-17 10:56:17,5
6808,-8408,-12300,-178,180,-192,2025-02-17 10:56:17,5
6840,-8436,-12384,-157,177,-179,2025-02-17 10:56:17,5
6816,-8428,-12292,-169,166,-160,2025-02-17 10:56:17,5
6720,-8512,-12412,-151,167,-163,2025-02-17 10:56:17,5
6808,-8416,-12260,-168,171,-170,2025-02-17 10:56:17,5
6712,-8496,-12324,-164,183,-156,2025-02-17 10:56:17,5
6764,-8452,-12236,-174,198,-182,2025-02-17 10:56:17,5
6756,-8432,-12324,-180,172,-163,2025-02-17 10:56:17,5
6688,-8472,-12204,-184,163,-174,2025-02-17 10:56:17,5
6716,-8468,-12224,-190,185,-179,2025-02-17 10:56:17,5
6752,-8500,-12220,-179,202,-172,2025-02-17 10:56:17,5
6788,-8392,-12184,-174,171,-178,2025-02-17 10:56:18,0.0
6752,-8448,-12288,-163,217,-175,2025-02-17 10:56:18,0.0
6764,-8440,-12192,-190,157,-186,2025-02-17 10:56:18,0.0
6764,-8436,-12228,-188,184,-172,2025-02-17 10:56:18,0.0
6752,-8512,-12304,-163,195,-176,2025-02-17 10:56:18,0.0
6740,-8508,-12320,-154,187,-177,2025-02-17 10:56:18,0.0
6752,-8440,-12216,-195,174,-179,2025-02-17 10:56:18,0.0
6904,-8452,-12268,-145,169,-189,2025-02-17 10:56:18,0.0
6720,-8436,-12200,-178,157,-185,2025-02-17 10:56:18,0.0
6764,-8516,-12272,-163,173,-174,2025-02-17 10:56:18,0.0
6880,-8476,-12300,-172,171,-196,2025-02-17 10:56:18,0.0
6812,-8504,-12316,-165,174,-165,2025-02-17 10:56:18,0.0
6704,-8508,-12356,-184,158,-166,2025-02-17 10:56:18,0.0
6820,-8448,-12272,-159,185,-175,2025-02-17 10:56:18,0.0
6864,-8484,-12300,-165,167,-156,2025-02-17 10:56:18,0.0
6704,-8376,-12304,-163,190,-172,2025-02-17 10:56:18,0.0
6780,-8440,-12268,-157,161,-181,2025-02-17 10:56:18,0.0
6772,-8480,-12120,-184,178,-165,2025-02-17 10:56:18,
6824,-8428,-12284,-160,185,-166,2025-02-17 10:56:18,0.0
6784,-8424,-12272,-166,170,-150,2025-02-17 10:56:18,0.0
6780,-8504,-12324,-173,186,-196,2025-02-17 10:56:18,0.0
6756,-8480,-12228,-157,179,-170,2025-02-17 10:56:18,0.0
6716,-8492,-12376,-161,180,-172,2025-02-17 10:56:18,0.0
6740,-8452,-12348,-165,194,-187,2025-02-17 10:56:18,0.0
6732,-8504,-12384,-158,186,-174,2025-02-17 10:56:18,0.0
6816,-8488,-12352,-160,186,-184,2025-02-17 10:56:18,0.0
6724,-8476,-12232,-140,151,-170,2025-02-17 10:56:18,0.0
6812,-8448,-12288,-170,149,-159,2025-02-17 10:56:18,0.0
6748,-8460,-12328,-180,171,-178,2025-02-17 10:56:18,0.0
6728,-8528,-12184,-171,174,-149,2025-02-17 10:56:18,0.0
6816,-8480,-12148,-153,183,-190,2025-02-17 10:56:18,0.0
6784,-8452,-12260,-177,162,-168,2025-02-17 10:56:18,0.0
6740,-8372,-12260,-161,193,-180,2025-02-17 10:56:18,0.0
6700,-8452,-12292,-172,170,-164,2025-02-17 10:56:18,0.0
6772,-8448,-12344,-130,175,-173,2025-02-17 10:56:18,0.0
6792,-8416,-12304,-162,187,-158,2025-02-17 10:56:18,0.0
6708,-8492,-12288,-172,159,-177,2025-02-17 10:56:18,0.0
6816,-8456,-12400,-164,176,-160,2025-02-17 10:56:18,0.0
6744,-8456,-12256,-127,151,-172,2025-02-17 10:56:18,0.0
6760,-8500,-12124,-176,190,-190,2025-02-17 10:56:18,0.0
6776,-8424,-12180,-176,172,-167,2025-02-17 10:56:18,0.0
6708,-8448,-12276,-176,176,-166,2025-02-17 10:56:18,0.0
6652,-8444,-12384,-190,194,-170,2025-02-17 10:56:18,0.0
6884,-8492,-12268,-151,179,-180,2025-02-17 10:56:18,0.0
6776,-8432,-12128,-172,152,-193,2025-02-17 10:56:18,0.0
6744,-8436,-12324,-165,191,-193,2025-02-17 10:56:18,0.0
6744,-8380,-12236,-158,170,-174,2025-02-17 10:56:18,0.0
6672,-8380,-12388,-178,183,-185,2025-02-17 10:56:18,0.0
6764,-8484,-12272,-179,180,-176,2025-02-17 10:56:18,0.0
6764,-8432,-12260,-199,184,-173,2025-02-17 10:56:18,0.0
6720,-8500,-12352,-148,163,-163,2025-02-17 10:56:18,0.0
6760,-8476,-12224,-162,199,-184,2025-02-17 10:56:18,0.0
6788,-8456,-12200,-151,150,-170,2025-02-17 10:56:18,0.0
6824,-8364,-12428,-162,174,-167,2025-02-17 10:56:18,0.0
6780,-8504,-12332,-176,154,-148,2025-02-17 10:56:18,0.0
6796,-8360,-12360,-160,178,-167,2025-02-17 10:56:18,0.0
6688,-8464,-12324,-150,189,-172,2025-02-17 10:56:18,0.0
6676,-8456,-12312,-182,148,-180,2025-02-17 10:56:18,0.0
6780,-8484,-12208,-154,174,-158,2025-02-17 10:56:18,0.0
6828,-8492,-12228,-164,187,-190,2025-02-17 10:56:18,0.0
6696,-8404,-12140,-163,184,-178,2025-02-17 10:56:18,0.0
6856,-8448,-12216,-190,203,-187,2025-02-17 10:56:19,0.0
6712,-8472,-12204,-194,77,-120,2025-02-17 10:56:19,0.0
6372,-8496,-12256,-22,323,-107,2025-02-17 10:56:19,0.0
6516,-8360,-12272,453,973,-45,2025-02-17 10:56:19,0.0
7452,-8824,-12640,13,433,-178,2025-02-17 10:56:19,0.0
6868,-8028,-11944,-189,261,-299,2025-02-17 10:56:19,0.0
6532,-8508,-11584,318,357,45,2025-02-17 10:56:19,0.0
6752,-8476,-12552,225,307,184,2025-02-17 10:56:19,0.0
6352,-8500,-13204,1058,561,624,2025-02-17 10:56:19,0.0
6724,-7860,-11880,1985,493,1195,2025-02-17 10:56:19,0.0
6020,-8416,-11548,3810,1836,1992,2025-02-17 10:56:19,0.0
5700,-8248,-11148,7370,3649,3362,2025-02-17 10:56:19,0.0
5256,-9052,-10772,12041,5641,5674,2025-02-17 10:56:19,0.0
6008,-10168,-11744,17045,7217,8925,2025-02-17 10:56:19,0.0
9032,-10920,-13036,18386,6705,10244,2025-02-17 10:56:19,0.0
8940,-11560,-11020,17885,5015,9886,2025-02-17 10:56:19,0.0
6308,-12108,-8900,18658,4683,10334,2025-02-17 10:56:19,0.0
5392,-13252,-9644,19381,6681,11446,2025-02-17 10:56:19,0.0
5588,-13788,-9600,20153,7658,12306,2025-02-17 10:56:19,0.0
5476,-14348,-7872,20607,8522,13893,2025-02-17 10:56:19,0.0
6500,-15068,-8016,21841,9274,14604,2025-02-17 10:56:19,0.0
6984,-16316,-7964,22587,11014,14025,2025-02-17 10:56:19,0.0
5936,-17212,-6212,23106,10524,13498,2025-02-17 10:56:19,0.0
5320,-18704,-5440,24202,11415,12599,2025-02-17 10:56:19,0.0
5488,-19672,-5880,23492,14274,10654,2025-02-17 10:56:19,0.0
3740,-20504,-6732,20460,16088,9564,2025-02-17 10:56:19,0.0
4352,-21440,-2748,16880,19870,9762,2025-02-17 10:56:19,0.0
6708,-22848,-2664,14423,25587,9913,2025-02-17 10:56:19,0.0
2452,-23236,2052,14918,31803,10403,2025-02-17 10:56:19,0.0
1192,-25288,-2928,14811,32767,11902,2025-02-17 10:56:19,0.0
3132,-25324,876,14530,32767,12252,2025-02-17 10:56:19,0.0
856,-25300,3084,12168,32767,13190,2025-02-17 10:56:19,0.0
2796,-23868,11208,12037,32767,14877,2025-02-17 10:56:19,0.0
1428,-23736,3372,12694,32767,16772,2025-02-17 10:56:19,0.0
1068,-23240,3744,11620,32767,19163,2025-02-17 10:56:19,0.0
1968,-22908,3376,8715,32767,20278,2025-02-17 10:56:19,0.0
2680,-22376,3292,5045,32767,19509,2025-02-17 10:56:19,0.0
3532,-21320,3460,679,32767,16615,2025-02-17 10:56:19,0.0
3608,-20428,3756,-2927,32767,12216,2025-02-17 10:56:19,0.0
3560,-19528,4396,-5117,32767,7267,2025-02-17 10:56:19,0.0
3132,-18660,5052,-5461,32767,2225,2025-02-17 10:56:19,0.0
2368,-17852,5424,-4209,32767,-1071,2025-02-17 10:56:19,0.0
1432,-17036,5660,-1323,32767,-2557,2025-02-17 10:56:19,0.0
492,-16284,6184,1609,32767,-1611,2025-02-17 10:56:19,0.0
-2360,-14604,6376,5036,32767,1658,2025-02-17 10:56:19,0.0
-924,-15460,5928,6209,32767,5957,2025-02-17 10:56:19,0.0
-2424,-13840,6764,7181,32767,8857,2025-02-17 10:56:19,0.0
-212,-13544,4492,7226,32767,10898,2025-02-17 10:56:19,0.0
2644,-13628,2924,5830,32767,9810,2025-02-17 10:56:19,0.0
3728,-13908,4596,6495,32767,7366,2025-02-17 10:56:19,0.0
5036,-15128,4224,9301,32767,5898,2025-02-17 10:56:19,0.0
4368,-14512,2184,11085,32767,5861,2025-02-17 10:56:19,0.0
6672,-14476,284,10352,32767,4596,2025-02-17 10:56:19,0.0
6632,-14856,-1384,7635,32767,1703,2025-02-17 10:56:19,0.0
2480,-16244,-524,4970,32767,2216,2025-02-17 10:56:19,0.0
1484,-17528,-4,2370,26335,4365,2025-02-17 10:56:19,0.0
1328,-18932,-3116,-1914,18662,6762,2025-02-17 10:56:19,
1732,-16832,8428,-8532,12397,7815,2025-02-17 10:56:19,0.0
3644,-16744,92,-10659,7193,6520,2025-02-17 10:56:19,0.0
5144,-16536,1992,-11096,3070,3861,2025-02-17 10:56:19,0.0
4296,-16120,4196,-8989,-704,1233,2025-02-17 10:56:20,0.0
2512,-15960,3804,-5294,-4684,951,2025-02-17 10:56:20,0.0
1912,-15152,-552,-6392,-4187,1951,2025-02-17 10:56:20,0.0
1252,-13704,-3708,-12363,2016,2282,2025-02-17 10:56:20,0.0
712,-11028,-524,-17742,7244,4598,2025-02-17 10:56:20,0.0
3032,-10216,6300,-16195,9736,6043,2025-02-17 10:56:20,0.0
3888,-11144,9076,-6630,7860,4984,2025-02-17 10:56:20,0.0
4164,-11892,10952,6410,3528,3971,2025-02-17 10:56:20,0.0
2732,-16532,164,8341,6903,3155,2025-02-17 10:56:20,0.0
5392,-17680,2464,6213,13457,300,2025-02-17 10:56:20,0.0
5288,-20508,-600,4582,15560,-3337,2025-02-17 10:56:20,0.0
1904,-24184,-1344,-771,14729,-3506,2025-02-17 10:56:20,0.0
3084,-23628,3116,-1528,10085,-2945,2025-02-17 10:56:20,0.0
3324,-19524,5952,2061,980,-2352,2025-02-17 10:56:20,0.0
3264,-16164,3604,6073,-12925,-1092,2025-02-17 10:56:20,0.0
5108,-17208,928,1745,-27751,-1490,2025-02-17 10:56:20,0.0
4660,-16720,5220,2985,-32768,-3125,2025-02-17 10:56:20,0.0
4248,-17336,4204,5820,-32768,-5158,2025-02-17 10:56:20,0.0
3996,-18504,1676,2356,-32768,-6977,2025-02-17 10:56:20,0.0
4324,-18456,3700,-316,-32768,-8883,2025-02-17 10:56:20,0.0
3328,-17804,4948,-678,-32768,-10164,2025-02-17 10:56:20,0.0
2016,-17004,3824,-1613,-32768,-9114,2025-02-17 10:56:20,0.0
752,-16416,4140,-2291,-32768,-6870,2025-02-17 10:56:20,0.0
1044,-16024,4452,-826,-32768,-4462,2025-02-17 10:56:20,0.0
1116,-15292,5448,2533,-32768,-3046,2025-02-17 10:56:20,0.0
-672,-13880,3936,8299,-24349,-732,2025-02-17 10:56:20,0.0
-32,-12760,1764,10316,-8283,5687,2025-02-17 10:56:20,0.0
2256,-13340,2612,13010,-3388,8495,2025-02-17 10:56:20,0.0
5300,-14944,872,13701,-4257,8753,2025-02-17 10:56:20,0.0
5228,-15648,496,11360,-6646,7127,2025-02-17 10:56:20,0.0
5240,-15800,712,9202,-10505,5843,2025-02-17 10:56:20,0.0
5048,-16284,1212,7772,-15886,5325,2025-02-17 10:56:20,0.0
5648,-15872,1804,6644,-23313,4018,2025-02-17 10:56:20,0.0
6396,-14500,1628,5087,-32536,2481,2025-02-17 10:56:20,0.0
6144,-13100,2644,4174,-32768,1165,2025-02-17 10:56:20,0.0
6668,-14004,380,1616,-32768,-809,2025-02-17 10:56:20,0.0
4568,-14612,-96,-5087,-32768,-1087,2025-02-17 10:56:20,0.0
4852,-14396,2216,-6513,-32768,-501,2025-02-17 10:56:20,0.0
2960,-14660,448,-8262,-32768,937,2025-02-17 10:56:20,0.0
2916,-15644,-172,-9534,-32768,1072,2025-02-17 10:56:20,0.0
1848,-14620,416,-10513,-32768,2570,2025-02-17 10:56:20,0.0
4572,-14116,5968,-8996,-32768,3578,2025-02-17 10:56:20,0.0
3060,-14924,4852,-6909,-32768,4504,2025-02-17 10:56:20,0.0
2840,-15516,13140,1994,-32768,1841,2025-02-17 10:56:20,0.0
1696,-15364,1800,4094,-32768,389,2025-02-17 10:56:20,0.0
4568,-14972,-4460,441,-29952,-2263,2025-02-17 10:56:20,0.0
1384,-14636,-8568,-5689,-26632,-3408,2025-02-17 10:56:20,0.0
-1920,-16044,-7984,-8051,-13552,6201,2025-02-17 10:56:20,0.0
-1732,-15784,-9044,-14220,-12890,8537,2025-02-17 10:56:20,0.0
432,-14988,-3636,-16824,-9668,9135,2025-02-17 10:56:20,0.0
3976,-14028,-5428,-17987,-8598,8998,2025-02-17 10:56:20,0.0
3972,-13580,-6476,-22130,-12512,6840,2025-02-17 10:56:20,0.0
-60,-15568,-6912,-25987,-19583,7660,2025-02-17 10:56:20,0.0
1516,-17608,-11652,-29367,-24225,13551,2025-02-17 10:56:20,0.0
-3920,-15992,-6068,-31453,-29433,18456,2025-02-17 10:56:20,0.0
-2532,-13028,-5044,-29635,-30065,22632,2025-02-17 10:56:20,0.0
-1964,-11500,-4928,-25610,-29458,24433,2025-02-17 10:56:20,0.0
-2412,-12864,-6260,-22796,-32768,25402,2025-02-17 10:56:20,0.0
-1988,-14160,-9428,-22206,-32768,25178,2025-02-17 10:56:20,0.0
-3004,-14204,-11996,-22319,-30572,25399,2025-02-17 10:56:21,0.0
-2912,-13272,-8228,-19963,-26542,24885,2025-02-17 10:56:21,0.0
-3548,-11240,-5488,-14507,-23817,23731,2025-02-17 10:56:21,0.0
-4240,-9088,-4904,-8567,-21646,22434,2025-02-17 10:56:21,0.0
-6200,-8308,-6152,-4471,-19065,19716,2025-02-17 10:56:21,0.0
-9656,-10712,-9436,-4851,-11707,19138,2025-02-17 10:56:21,0.0
-10476,-12356,-7576,-7586,-2904,19227,2025-02-17 10:56:21,0.0
-10420,-12380,-6424,-7977,1819,19196,2025-02-17 10:56:21,0.0
-8276,-9536,-6260,-9601,3181,18005,2025-02-17 10:56:21,0.0
-9412,-8236,-1904,-11020,-223,17470,2025-02-17 10:56:21,0.0
-4108,-7584,-1580,-10914,-6932,13963,2025-02-17 10:56:21,0.0
-6000,-5176,144,-9442,-16201,9547,2025-02-17 10:56:21,0.0
-15240,-1000,3836,-10413,-29744,7221,2025-02-17 10:56:21,0.0
-14756,-972,-2432,-12292,-32768,4949,2025-02-17 10:56:21,0.0
-11512,-896,-2636,-8357,-32768,855,2025-02-17 10:56:21,0.0
-16996,-688,-1396,-5509,-32768,9,2025-02-17 10:56:21,0.0
-19208,704,2852,-1237,-20881,2138,2025-02-17 10:56:21,0.0
-14228,-1148,9284,769,-20970,2196,2025-02-17 10:56:21,0.0
-17656,-2228,5080,-152,-6167,-604,2025-02-17 10:56:21,0.0
-12480,-2580,1572,-2166,3871,124,2025-02-17 10:56:21,0.0
-11768,-2988,1752,-1163,3274,-1295,2025-02-17 10:56:21,0.0
-11840,-4144,-236,-2656,2409,-1854,2025-02-17 10:56:21,0.0
-12644,-5292,5756,1158,712,-3949,2025-02-17 10:56:21,0.0
-14652,-4664,2160,3022,-54,-2978,2025-02-17 10:56:21,0.0
-15232,-3524,456,1974,922,-2031,2025-02-17 10:56:21,0.0
-15440,-1664,912,1336,2512,-671,2025-02-17 10:56:21,0.0
-15364,-1456,764,979,2273,26,2025-02-17 10:56:21,0.0
-16640,-2932,-2916,-1496,-1738,1267,2025-02-17 10:56:21,0.0
-18340,-1144,-1380,-3338,-9122,4667,2025-02-17 10:56:21,0.0
-19952,-1928,-2508,-5311,-10715,7757,2025-02-17 10:56:21,0.0
-10952,-1884,6196,-7460,-7646,7881,2025-02-17 10:56:21,0.0
-6956,-3544,3912,-605,-3300,3971,2025-02-17 10:56:21,0.0
-11740,-4320,-608,-625,-339,3327,2025-02-17 10:56:21,0.0
-11956,-1032,1244,-2118,2395,2335,2025-02-17 10:56:21,0.0
-14704,-1264,1104,-2279,3160,2282,2025-02-17 10:56:21,0.0
-16220,-1508,2312,-950,1523,3742,2025-02-17 10:56:21,0.0
-16088,-2160,1124,-54,-2506,5231,2025-02-17 10:56:21,0.0
-13564,-1796,-344,-776,-5044,5276,2025-02-17 10:56:21,
-12088,-1148,-28,-2177,-3620,4077,2025-02-17 10:56:21,0.0
-11852,-632,176,-2512,-1234,3621,2025-02-17 10:56:21,0.0
-11768,-300,124,-3178,1970,3601,2025-02-17 10:56:21,0.0
-11140,-232,-132,-3175,4264,3502,2025-02-17 10:56:21,0.0
-9848,-256,408,-2288,5229,3053,2025-02-17 10:56:21,0.0
-10684,-456,-1196,-1770,5820,1330,2025-02-17 10:56:21,0.0
-10912,272,-468,-1956,6022,766,2025-02-17 10:56:21,0.0
-10808,1224,28,-2226,5993,-180,2025-02-17 10:56:21,0.0
-10400,1276,-636,-2448,6137,-990,2025-02-17 10:56:21,0.0
-11180,1616,824,-2423,6434,-1462,2025-02-17 10:56:21,0.0
-10712,1032,-324,-2631,5512,-1388,2025-02-17 10:56:21,0.0
-10584,-136,-188,-3673,4928,-794,2025-02-17 10:56:21,0.0
-8112,-1060,96,-4025,4368,-1312,2025-02-17 10:56:21,0.0
-9464,-1340,-88,-4158,4859,-1097,2025-02-17 10:56:21,0.0
-11072,-2092,1160,-3114,5708,1254,2025-02-17 10:56:21,0.0
-10536,-2420,1732,-1906,6349,2806,2025-02-17 10:56:21,0.0
-9836,-2332,964,-1437,7137,2692,2025-02-17 10:56:21,0.0
-11628,-2420,1656,-1174,6793,2431,2025-02-17 10:56:21,0.0
-12156,-2416,1248,-430,4090,2013,2025-02-17 10:56:21,0.0
-12032,-2432,584,66,1080,1538,2025-02-17 10:56:21,0.0
-14420,-2756,1680,809,-1109,2495,2025-02-17 10:56:21,0.0
-11876,-1704,1608,1173,-1980,3073,2025-02-17 10:56:21,0.0
-10460,384,2596,889,-1644,1354,2025-02-17 10:56:22,0.0
-12180,1476,2380,1344,-816,324,2025-02-17 10:56:22,0.0
-11868,3392,2072,1952,309,639,2025-02-17 10:56:22,0.0
-14316,340,-704,1249,-849,1163,2025-02-17 10:56:22,0.0
-13336,-632,-1716,544,-2811,1120,2025-02-17 10:56:22,0.0
-13992,-1904,-776,-535,-4362,1001,2025-02-17 10:56:22,0.0
-15808,-2636,1888,-141,-4321,500,2025-02-17 10:56:22,0.0
-15124,-620,3236,421,-4683,690,2025-02-17 10:56:22,0.0
-14844,1856,3760,940,-4770,534,2025-02-17 10:56:22,0.0
-16756,2664,3272,1735,-4941,898,2025-02-17 10:56:22,0.0
-13848,2388,-1076,607,-5490,1470,2025-02-17 10:56:22,0.0
-13620,952,-1076,-433,-6328,846,2025-02-17 10:56:22,0.0
-14152,1492,2200,-68,-6357,1054,2025-02-17 10:56:22,0.0
-16900,2948,1164,-373,-7474,-403,2025-02-17 10:56:22,0.0
-14528,3088,1652,-1632,-8073,-845,2025-02-17 10:56:22,0.0
-16016,1624,2080,-2277,-9481,-243,2025-02-17 10:56:22,0.0
-14892,-352,4344,-1407,-9645,791,2025-02-17 10:56:22,0.0
-14344,-2120,3964,-166,-7434,1363,2025-02-17 10:56:22,0.0
-13356,-1536,3668,763,-5792,474,2025-02-17 10:56:22,0.0
-14516,2112,2724,1549,-5471,-218,2025-02-17 10:56:22,0.0
-14784,3120,2804,980,-6534,-267,2025-02-17 10:56:22,0.0
-16536,2016,4020,293,-8644,5,2025-02-17 10:56:22,0.0
-14708,336,5080,170,-9102,-117,2025-02-17 10:56:22,0.0
-15308,-324,5596,184,-7644,-247,2025-02-17 10:56:22,0.0
-16492,-8,5736,552,-7325,-259,2025-02-17 10:56:22,0.0
-15204,932,5568,879,-8427,-475,2025-02-17 10:56:22,0.0
-15116,1084,6448,559,-10501,-673,2025-02-17 10:56:22,0.0
-14488,944,7616,433,-10725,-431,2025-02-17 10:56:22,0.0
-15368,1132,9128,237,-9398,-138,2025-02-17 10:56:22,0.0
-17968,728,10832,85,-8363,81,2025-02-17 10:56:22,0.0
-20736,1408,14500,373,-7859,619,2025-02-17 10:56:22,0.0
-19676,2756,14788,368,-8108,1187,2025-02-17 10:56:22,0.0
-19488,1204,18056,1272,-8930,1835,2025-02-17 10:56:22,0.0
-18736,2432,17088,2005,-5892,2548,2025-02-17 10:56:22,0.0
-15080,1172,11964,1146,-1983,2434,2025-02-17 10:56:22,0.0
-12504,1772,6116,124,1006,2396,2025-02-17 10:56:22,0.0
-11064,1824,3776,-484,1450,1533,2025-02-17 10:56:22,0.0
-12736,1292,8384,-817,-3550,-120,2025-02-17 10:56:22,0.0
-12108,1004,9252,-1352,-2424,-81,2025-02-17 10:56:22,0.0
-12000,996,9184,-1783,-2711,-632,2025-02-17 10:56:22,0.0
-11840,1424,9496,-1880,-3605,-1180,2025-02-17 10:56:22,0.0
-11668,996,9436,-1675,-4127,-1802,2025-02-17 10:56:22,0.0
-11536,808,9804,-1444,-3453,-1621,2025-02-17 10:56:22,0.0
-11680,1040,10588,-977,-2472,-1123,2025-02-17 10:56:22,0.0
-11892,972,8960,-895,-2569,-815,2025-02-17 10:56:22,0.0
-11740,716,9212,-1107,-3198,-864,2025-02-17 10:56:22,0.0
-11440,36,10508,-832,-3556,-973,2025-02-17 10:56:22,0.0
-10196,-616,10032,-195,-3180,-1330,2025-02-17 10:56:22,0.0
-10840,-196,10836,31,-1945,-2058,2025-02-17 10:56:22,0.0
-11576,368,10844,287,-1283,-2822,2025-02-17 10:56:22,0.0
-12592,792,10224,70,-1216,-3098,2025-02-17 10:56:22,0.0
-12888,1016,9468,154,-1532,-3175,2025-02-17 10:56:22,0.0
-13080,956,9008,-144,-1728,-3012,2025-02-17 10:56:22,0.0
-13520,324,8940,132,-2540,-2339,2025-02-17 10:56:22,0.0
-12368,312,9376,-77,-3260,-2115,2025-02-17 10:56:22,0.0
-11528,124,9900,-267,-3513,-2347,2025-02-17 10:56:22,0.0
-11348,168,9760,-498,-2842,-1992,2025-02-17 10:56:22,0.0
-10836,92,9676,-677,-2517,-2207,2025-02-17 10:56:22,0.0
-11808,-404,10724,-613,-2127,-2365,2025-02-17 10:56:22,0.0
-11424,-964,9524,-582,-2018,-2252,2025-02-17 10:56:22,0.0
-11288,-792,10856,-466,-2544,-2267,2025-02-17 10:56:23,0.0
-10868,-348,10412,-578,-2539,-2500,2025-02-17 10:56:23,0.0
-10280,-292,11016,-773,-2250,-2954,2025-02-17 10:56:23,0.0
-9832,-184,10596,-882,-1928,-3552,2025-02-17 10:56:23,0.0
-11852,-380,11832,-925,-1304,-3334,2025-02-17 10:56:23,0.0
-11828,-1228,13048,-693,-1143,-2362,2025-02-17 10:56:23,0.0
-11888,-1008,12288,-529,-614,-1151,2025-02-17 10:56:23,0.0
-10420,-1108,12312,-704,792,-557,2025-02-17 10:56:23,0.0
-10616,-352,10892,-591,1683,-362,2025-02-17 10:56:23,0.0
-10816,-676,10936,-875,1432,-372,2025-02-17 10:56:23,0.0
-11728,-688,12308,-376,580,-285,2025-02-17 10:56:23,0.0
-10840,-600,11192,-281,-596,-409,2025-02-17 10:56:23,0.0
-11356,-940,11248,-168,-1302,-186,2025-02-17 10:56:23,0.0
-11360,-1068,11244,-131,-1123,407,2025-02-17 10:56:23,0.0
-11092,-1196,11896,81,-454,1037,2025-02-17 10:56:23,0.0
-11164,-1044,11036,539,-262,1075,2025-02-17 10:56:23,0.0
-10752,-872,10448,318,-476,428,2025-02-17 10:56:23,0.0
-10828,-960,9956,28,-697,-261,2025-02-17 10:56:23,
-12536,-1012,11144,132,-1031,-219,2025-02-17 10:56:23,0.0
-11268,-1236,10516,604,-1926,-157,2025-02-17 10:56:23,0.0
-11128,-1232,10656,705,-2036,-97,2025-02-17 10:56:23,0.0
-11432,-988,11168,952,-1183,-176,2025-02-17 10:56:23,0.0
-11144,-900,10108,782,-298,32,2025-02-17 10:56:23,0.0
-12164,-612,10968,657,-133,301,2025-02-17 10:56:23,0.0
-11724,-840,11636,1569,-277,615,2025-02-17 10:56:23,0.0
-11448,-544,10656,2061,-862,703,2025-02-17 10:56:23,0.0
-6456,-4276,11072,1461,-2786,767,2025-02-17 10:56:23,0.0
-9980,92,9876,1870,-1416,551,2025-02-17 10:56:23,0.0
-10184,-168,10040,859,-1020,119,2025-02-17 10:56:23,0.0
-10044,24,10272,5,-351,-207,2025-02-17 10:56:23,0.0
-10388,-144,11412,-299,37,-391,2025-02-17 10:56:23,0.0
-10892,-156,11624,-231,433,-271,2025-02-17 10:56:23,0.0
-10876,-84,11416,-244,569,-225,2025-02-17 10:56:23,0.0
-11084,-60,11532,31,596,-112,2025-02-17 10:56:23,0.0
-10748,72,11560,1,583,-189,2025-02-17 10:56:23,0.0
-10728,32,11384,34,452,-264,2025-02-17 10:56:23,0.0
-10596,60,11112,-37,285,-102,2025-02-17 10:56:23,0.0
-10912,128,11056,-210,209,-203,2025-02-17 10:56:23,0.0
-11236,-148,11364,-208,266,-135,2025-02-17 10:56:23,0.0
-11252,-316,11324,-149,157,-39,2025-02-17 10:56:23,0.0
-11232,-252,11368,-3,87,50,2025-02-17 10:56:23,0.0
-10920,-44,10972,-131,211,-56,2025-02-17 10:56:23,0.0
-10964,-144,11028,-227,94,-197,2025-02-17 10:56:23,0.0
-10976,-304,11092,-235,26,-161,2025-02-17 10:56:23,0.0
-10732,-376,11332,-252,103,-137,2025-02-17 10:56:23,0.0
-10860,-500,11124,-237,249,-169,2025-02-17 10:56:23,0.0
-10440,-180,11648,-153,253,-307,2025-02-17 10:56:23,0.0
-11096,-520,11316,-269,472,-347,2025-02-17 10:56:23,0.0
-11084,-296,11308,-278,306,-266,2025-02-17 10:56:23,0.0
-11156,-288,11440,-292,-101,-232,2025-02-17 10:56:23,0.0
-11340,8,12100,-268,127,-301,2025-02-17 10:56:23,0.0
-10772,-336,11064,-267,470,-218,2025-02-17 10:56:23,0.0
-11048,-424,11312,-134,423,53,2025-02-17 10:56:23,0.0
-10500,-404,11156,-133,494,-50,2025-02-17 10:56:23,0.0
-10964,-412,11260,-201,433,-106,2025-02-17 10:56:23,0.0
-10868,-568,11292,-233,235,-292,2025-02-17 10:56:23,0.0
-10936,-392,11328,-231,389,-264,2025-02-17 10:56:23,0.0
-11088,-352,11500,-213,476,-190,2025-02-17 10:56:23,0.0
-11328,-200,11636,-140,837,-192,2025-02-17 10:56:23,0.0
-11040,-208,11264,-4,889,-55,2025-02-17 10:56:24,0.0
-10972,-236,11052,16,649,-62,2025-02-17 10:56:24,0.0
-10672,-364,11280,121,245,-43,2025-02-17 10:56:24,0.0
-10776,-244,10984,24,-9,-184,2025-02-17 10:56:24,0.0
-10800,-228,11092,-190,87,-248,2025-02-17 10:56:24,0.0
-11172,-208,10700,-505,-13,-324,2025-02-17 10:56:24,0.0
-11208,-180,11104,-587,-381,-272,2025-02-17 10:56:24,0.0
-11424,-244,10816,-738,-1146,82,2025-02-17 10:56:24,0.0
-11040,-456,10964,-1039,-2093,143,2025-02-17 10:56:24,0.0
-10812,-220,11540,-1041,-2353,123,2025-02-17 10:56:24,0.0
-10860,-192,11888,-653,-1878,31,2025-02-17 10:56:24,0.0
-10620,172,11372,-531,-1105,-16,2025-02-17 10:56:24,0.0
-10816,268,10840,-972,-847,-186,2025-02-17 10:56:24,0.0
-10960,320,10328,-1679,-1144,236,2025-02-17 10:56:24,0.0
-11412,-248,11192,-1938,-1224,739,2025-02-17 10:56:24,0.0
-10700,-812,11956,-1451,-745,1059,2025-02-17 10:56:24,0.0
-9568,-1056,11396,-718,-737,851,2025-02-17 10:56:24,0.0
-9512,-700,11464,-628,-309,170,2025-02-17 10:56:24,0.0
-10076,-316,11704,-951,412,-205,2025-02-17 10:56:24,0.0
-10608,-444,11416,-1175,919,-276,2025-02-17 10:56:24,0.0
-10596,-700,11308,-1108,633,-89,2025-02-17 10:56:24,0.0
-10540,-852,11512,-813,396,12,2025-02-17 10:56:24,0.0
-10588,-764,12160,-322,574,32,2025-02-17 10:56:24,0.0
-10816,-356,11168,-359,497,-19,2025-02-17 10:56:24,0.0
-11028,-80,11724,-368,14,69,2025-02-17 10:56:24,0.0
-10832,-420,11768,-41,-359,-66,2025-02-17 10:56:24,0.0
-10380,-500,11452,54,-474,19,2025-02-17 10:56:24,0.0
-10396,-572,11512,147,188,184,2025-02-17 10:56:24,0.0
-10516,-500,11120,-21,840,157,2025-02-17 10:56:24,0.0
-11140,-604,11244,-186,923,320,2025-02-17 10:56:24,0.0
-11012,-756,11736,-246,841,291,2025-02-17 10:56:24,0.0
-10580,-744,11620,-384,750,71,2025-02-17 10:56:24,0.0
-10580,-468,11892,-304,749,-89,2025-02-17 10:56:24,0.0
-11044,-376,12236,-124,1067,3,2025-02-17 10:56:24,0.0
-10596,-192,12568,287,1224,149,2025-02-17 10:56:24,0.0
-10172,-220,11952,265,1258,94,2025-02-17 10:56:24,0.0
-9856,-132,12144,66,1409,-83,2025-02-17 10:56:24,0.0
-9872,-224,11872,-27,2003,55,2025-02-17 10:56:24,0.0
-10268,-188,12096,-121,2694,174,2025-02-17 10:56:24,0.0
-10976,-168,12104,-169,2889,203,2025-02-17 10:56:24,0.0
-10988,-144,11840,-344,2614,154,2025-02-17 10:56:24,0.0
-10852,-180,11768,-313,2307,115,2025-02-17 10:56:24,0.0
-10776,-460,11528,-182,2214,49,2025-02-17 10:56:24,0.0
-10396,-332,11668,52,2229,-72,2025-02-17 10:56:24,0.0
-10780,-120,11248,66,2927,-69,2025-02-17 10:56:24,0.0
-11228,12,11224,-62,3653,226,2025-02-17 10:56:24,0.0
-10996,32,10544,-152,3890,471,2025-02-17 10:56:24,0.0
-11100,-112,11336,-69,3978,362,2025-02-17 10:56:24,0.0
-10224,-220,13028,364,4372,-244,2025-02-17 10:56:24,0.0
-10032,-876,12468,678,6407,-691,2025-02-17 10:56:24,0.0
-10564,-948,10360,485,8082,-822,2025-02-17 10:56:24,0.0
-17088,-56,9916,99,7175,-850,2025-02-17 10:56:24,0.0
-13300,248,8652,255,5878,-1035,2025-02-17 10:56:24,0.0
-12692,804,8348,655,4398,-1138,2025-02-17 10:56:24,0.0
-11772,1200,7596,214,3124,-1461,2025-02-17 10:56:24,0.0
-13728,1408,5644,-445,2904,-1518,2025-02-17 10:56:24,0.0
-12772,432,7528,-978,1898,-830,2025-02-17 10:56:24,0.0
-12832,-356,8716,-1109,1143,-377,2025-02-17 10:56:24,0.0
-10408,-1456,11620,-496,47,-588,2025-02-17 10:56:24,
-10920,-1576,9084,-1721,1100,168,2025-02-17 10:56:24,0.0
-13396,-1012,12140,-1251,2111,453,2025-02-17 10:56:24,0.0
-15420,-316,10988,-465,2561,883,2025-02-17 10:56:24,0.0
-14440,-980,13156,-1408,4348,2061,2025-02-17 10:56:25,0.0
-14048,-816,16092,-108,5088,2315,2025-02-17 10:56:25,0.0
-16452,-608,12736,-610,7993,2713,2025-02-17 10:56:25,0.0
-14848,-2388,12756,163,12116,2855,2025-02-17 10:56:25,0.0
-10404,936,16416,1681,9633,-558,2025-02-17 10:56:25,0.0
-22064,-1208,11372,693,12947,368,2025-02-17 10:56:25,0.0
-17176,-84,11204,707,9499,829,2025-02-17 10:56:25,0.0
-18016,148,7264,-534,5564,1279,2025-02-17 10:56:25,0.0
-13208,-756,9844,-1453,2511,1810,2025-02-17 10:56:25,0.0
-16396,1180,9120,-2279,777,408,2025-02-17 10:56:25,0.0
-16752,1596,9236,-2536,3629,1064,2025-02-17 10:56:25,0.0
-15888,2048,7808,-2458,5010,1111,2025-02-17 10:56:25,0.0
-15024,1744,7152,-2089,5743,1164,2025-02-17 10:56:25,0.0
-12944,1644,5408,-1637,6960,730,2025-02-17 10:56:25,0.0
-13492,1020,4268,-1258,10051,252,2025-02-17 10:56:25,0.0
-14500,552,3640,-1039,12203,227,2025-02-17 10:56:25,0.0
-15740,240,2048,-918,12422,413,2025-02-17 10:56:25,0.0
-16252,292,2112,-971,10674,668,2025-02-17 10:56:25,0.0
-16184,400,1980,-1369,8718,774,2025-02-17 10:56:25,0.0
-13980,988,2096,-1685,5251,-1690,2025-02-17 10:56:25,0.0
-13388,952,1768,-2056,4075,-1574,2025-02-17 10:56:25,0.0
-12820,612,-492,-3324,5051,-1508,2025-02-17 10:56:25,0.0
-11504,228,2496,-3595,6219,-2383,2025-02-17 10:56:25,0.0
-11076,-588,3024,-2131,6092,-3196,2025-02-17 10:56:25,0.0
-11084,-648,3652,-592,5796,-4117,2025-02-17 10:56:25,0.0
-12364,-448,2664,638,5686,-5113,2025-02-17 10:56:25,0.0
-12464,-824,1344,1141,5485,-5312,2025-02-17 10:56:25,0.0
-14320,-1340,-252,1185,4416,-4022,2025-02-17 10:56:25,0.0
-14356,-1160,860,1277,1475,-2294,2025-02-17 10:56:25,0.0
-12812,-808,1136,1756,-785,-1503,2025-02-17 10:56:25,0.0
-12128,-320,988,2271,-1975,-1537,2025-02-17 10:56:25,0.0
-12376,-456,256,2550,-3038,-1569,2025-02-17 10:56:25,0.0
-12964,-800,-216,2711,-4066,-1102,2025-02-17 10:56:25,0.0
-12600,-932,-1176,1955,-4412,-223,2025-02-17 10:56:25,0.0
