acceleration_x,acceleration_y,acceleration_z,gyroscope_x,gyroscope_y,gyroscope_z,timestamp,label
181.20000000000073,-31.600000000000023,146.79999999999927,-66.3,122.80000000000001,-16.19999999999999,2025-01-29 10:35:44,0.0
1.2000000000007276,-99.60000000000002,82.79999999999927,17.700000000000003,141.8,-20.19999999999999,2025-01-29 10:35:44,0.0
-86.79999999999927,-15.600000000000023,114.79999999999927,0.7000000000000028,93.80000000000001,-37.19999999999999,2025-01-29 10:35:44,0.0
-78.79999999999927,-11.600000000000023,-25.200000000000728,65.7,-25.19999999999999,-4.199999999999989,2025-01-29 10:35:44,0.0
-74.79999999999927,-95.60000000000002,-57.20000000000073,27.700000000000003,-107.19999999999999,8.800000000000011,2025-01-29 10:35:44,0.0
5.200000000000728,60.39999999999998,-1.2000000000007276,-29.299999999999997,-111.19999999999999,29.80000000000001,2025-01-29 10:35:44,0.0
145.20000000000073,-3.6000000000000227,-57.20000000000073,-29.299999999999997,-44.19999999999999,23.80000000000001,2025-01-29 10:35:44,0.0
137.20000000000073,84.39999999999998,6.799999999999272,10.700000000000003,44.80000000000001,9.800000000000011,2025-01-29 10:35:44,0.0
-42.79999999999927,128.39999999999998,2.7999999999992724,-17.299999999999997,92.80000000000001,2.8000000000000114,2025-01-29 10:35:44,0.0
-186.79999999999927,-15.600000000000023,-213.20000000000073,19.700000000000003,-208.2,2.8000000000000114,2025-01-29 10:35:44,0.0
-22.799999999999272,-143.60000000000002,134.79999999999927,-0.29999999999999716,-312.2,-9.199999999999989,2025-01-29 10:35:44,0.0
-70.79999999999927,-103.60000000000002,82.79999999999927,56.7,-300.2,52.80000000000001,2025-01-29 10:35:44,0.0
57.20000000000073,48.39999999999998,-21.200000000000728,32.7,-189.2,62.80000000000001,2025-01-29 10:35:44,0.0
33.20000000000073,216.39999999999998,-105.20000000000073,21.700000000000003,-81.19999999999999,61.80000000000001,2025-01-29 10:35:44,0.0
-2.7999999999992724,144.39999999999998,102.79999999999927,-37.3,-43.19999999999999,26.80000000000001,2025-01-29 10:35:44,0.0
-38.79999999999927,16.399999999999977,138.79999999999927,-17.299999999999997,-69.19999999999999,44.80000000000001,2025-01-29 10:35:44,0.0
-66.79999999999927,-51.60000000000002,-25.200000000000728,-46.3,-97.19999999999999,0.8000000000000114,2025-01-29 10:35:44,0.0
-50.79999999999927,-79.60000000000002,-49.20000000000073,-54.3,-155.2,20.80000000000001,2025-01-29 10:35:44,0.0
53.20000000000073,32.39999999999998,-77.20000000000073,-72.3,-177.2,-14.199999999999989,2025-01-29 10:35:44,0.0
-38.79999999999927,108.39999999999998,10.799999999999272,-101.3,-190.2,-1.1999999999999886,2025-01-29 10:35:44,0.0
17.200000000000728,-27.600000000000023,-33.20000000000073,-103.3,-174.2,28.80000000000001,2025-01-29 10:35:44,0.0
33.20000000000073,-27.600000000000023,-49.20000000000073,-108.3,-97.19999999999999,1.8000000000000114,2025-01-29 10:35:44,0.0
109.20000000000073,0.39999999999997726,26.799999999999272,-115.3,-85.19999999999999,-0.19999999999998863,2025-01-29 10:35:44,0.0
13.200000000000728,4.399999999999977,150.79999999999927,-131.3,-166.2,-24.19999999999999,2025-01-29 10:35:44,0.0
-118.79999999999927,-15.600000000000023,266.7999999999993,-116.3,-160.2,-46.19999999999999,2025-01-29 10:35:44,0.0
97.20000000000073,28.399999999999977,118.79999999999927,-121.3,-108.19999999999999,-53.19999999999999,2025-01-29 10:35:44,0.0
5.200000000000728,224.39999999999998,2.7999999999992724,-145.3,-73.19999999999999,-85.19999999999999,2025-01-29 10:35:44,0.0
-74.79999999999927,172.39999999999998,-29.200000000000728,-173.3,18.80000000000001,-44.19999999999999,2025-01-29 10:35:45,0.0
-38.79999999999927,144.39999999999998,18.799999999999272,-202.3,54.80000000000001,-78.19999999999999,2025-01-29 10:35:45,0.0
-66.79999999999927,120.39999999999998,202.79999999999927,-209.3,28.80000000000001,-59.19999999999999,2025-01-29 10:35:45,0.0
-34.79999999999927,76.39999999999998,-17.200000000000728,-220.3,-10.199999999999989,-40.19999999999999,2025-01-29 10:35:45,0.0
33.20000000000073,160.39999999999998,214.79999999999927,-214.3,7.800000000000011,-50.19999999999999,2025-01-29 10:35:45,0.0
-2.7999999999992724,180.39999999999998,138.79999999999927,-172.3,52.80000000000001,-83.19999999999999,2025-01-29 10:35:45,0.0
-18.799999999999272,108.39999999999998,70.79999999999927,-184.3,56.80000000000001,-106.19999999999999,2025-01-29 10:35:45,0.0
-22.799999999999272,108.39999999999998,-73.20000000000073,-186.3,73.80000000000001,-74.19999999999999,2025-01-29 10:35:45,0.0
-186.79999999999927,124.39999999999998,-109.20000000000073,-192.3,35.80000000000001,-85.19999999999999,2025-01-29 10:35:45,0.0
-30.799999999999272,172.39999999999998,-17.200000000000728,-153.3,-41.19999999999999,-81.19999999999999,2025-01-29 10:35:45,0.0
-194.79999999999927,44.39999999999998,70.79999999999927,-132.3,-117.19999999999999,-59.19999999999999,2025-01-29 10:35:45,0.0
-34.79999999999927,128.39999999999998,142.79999999999927,-115.3,-199.2,-3.1999999999999886,2025-01-29 10:35:45,0.0
69.20000000000073,144.39999999999998,34.79999999999927,-146.3,-154.2,-42.19999999999999,2025-01-29 10:35:45,0.0
45.20000000000073,4.399999999999977,226.79999999999927,-110.3,-112.19999999999999,-29.19999999999999,2025-01-29 10:35:45,0.0
85.20000000000073,40.39999999999998,114.79999999999927,-73.3,-54.19999999999999,-4.199999999999989,2025-01-29 10:35:45,0.0
37.20000000000073,44.39999999999998,174.79999999999927,-95.3,-1.1999999999999886,-20.19999999999999,2025-01-29 10:35:45,0.0
-90.79999999999927,180.39999999999998,-1.2000000000007276,-70.3,8.800000000000011,-4.199999999999989,2025-01-29 10:35:45,0.0
-82.79999999999927,48.39999999999998,146.79999999999927,-53.3,-67.19999999999999,6.800000000000011,2025-01-29 10:35:45,0.0
-54.79999999999927,-27.600000000000023,26.799999999999272,-53.3,-134.2,27.80000000000001,2025-01-29 10:35:45,0.0
-166.79999999999927,-111.60000000000002,102.79999999999927,-14.299999999999997,-161.2,79.80000000000001,2025-01-29 10:35:45,0.0
-38.79999999999927,12.399999999999977,170.79999999999927,54.7,-188.2,138.8,2025-01-29 10:35:45,0.0
69.20000000000073,16.399999999999977,-13.200000000000728,97.7,-164.2,130.8,2025-01-29 10:35:45,0.0
-86.79999999999927,-123.60000000000002,-113.20000000000073,181.7,-97.19999999999999,155.8,2025-01-29 10:35:45,0.0
13.200000000000728,-115.60000000000002,22.799999999999272,328.7,-151.2,195.8,2025-01-29 10:35:45,0.0
5.200000000000728,-175.60000000000002,-41.20000000000073,460.7,-96.19999999999999,153.8,2025-01-29 10:35:45,0.0
-54.79999999999927,-203.60000000000002,370.7999999999993,638.7,57.80000000000001,164.8,2025-01-29 10:35:45,0.0
-366.7999999999993,36.39999999999998,58.79999999999927,730.7,76.80000000000001,166.8,2025-01-29 10:35:45,0.0
-326.7999999999993,68.39999999999998,-57.20000000000073,745.7,-121.19999999999999,187.8,2025-01-29 10:35:45,0.0
-382.7999999999993,216.39999999999998,-65.20000000000073,698.7,-385.2,313.8,2025-01-29 10:35:45,0.0
-126.79999999999927,512.4,46.79999999999927,574.7,-524.2,253.8,2025-01-29 10:35:45,0.0
-34.79999999999927,664.4,202.79999999999927,519.7,-540.2,127.80000000000001,2025-01-29 10:35:45,0.0
-42.79999999999927,732.4,282.7999999999993,569.7,-460.2,-29.19999999999999,2025-01-29 10:35:45,0.0
-174.79999999999927,540.4,670.7999999999993,641.7,-256.2,-178.2,2025-01-29 10:35:45,0.0
-194.79999999999927,412.4,754.7999999999993,750.7,-221.2,-286.2,2025-01-29 10:35:45,0.0
-382.7999999999993,96.39999999999998,722.7999999999993,889.7,-200.2,-211.2,2025-01-29 10:35:45,0.0
-362.7999999999993,-223.60000000000002,662.7999999999993,1061.7,-73.19999999999999,-160.2,2025-01-29 10:35:45,0.0
-442.7999999999993,-511.6,770.7999999999993,1297.7,-114.19999999999999,-43.19999999999999,2025-01-29 10:35:45,0.0
-518.7999999999993,-803.6,914.7999999999993,1659.7,-282.2,7.800000000000011,2025-01-29 10:35:45,0.0
-718.7999999999993,-731.6,1086.7999999999993,2097.7,-598.2,85.80000000000001,2025-01-29 10:35:45,0.0
-598.7999999999993,-471.6,634.7999999999993,2692.7,-1047.2,219.8,2025-01-29 10:35:45,0.0
-266.7999999999993,-295.6,454.7999999999993,2878.7,-1101.2,139.8,2025-01-29 10:35:45,0.0
-266.7999999999993,8.399999999999977,574.7999999999993,3043.7,-1011.2,60.80000000000001,2025-01-29 10:35:45,0.0
-54.79999999999927,164.39999999999998,554.7999999999993,3245.7,-950.2,133.8,2025-01-29 10:35:45,0.0
125.20000000000073,216.39999999999998,194.79999999999927,3144.7,-718.2,208.8,2025-01-29 10:35:45,0.0
345.2000000000007,64.39999999999998,78.79999999999927,3035.7,-450.2,324.8,2025-01-29 10:35:45,0.0
285.2000000000007,-143.60000000000002,126.79999999999927,2856.7,-183.2,279.8,2025-01-29 10:35:45,0.0
25.200000000000728,-115.60000000000002,162.79999999999927,2897.7,209.8,113.80000000000001,2025-01-29 10:35:45,0.0
-334.7999999999993,68.39999999999998,298.7999999999993,3143.7,543.8,-30.19999999999999,2025-01-29 10:35:45,0.0
-498.7999999999993,384.4,70.79999999999927,3305.7,263.8,19.80000000000001,2025-01-29 10:35:45,0.0
-454.7999999999993,308.4,-125.20000000000073,3375.7,-460.2,248.8,2025-01-29 10:35:45,0.0
281.2000000000007,-475.6,126.79999999999927,3307.7,-813.2,627.8,2025-01-29 10:35:45,0.0
641.2000000000007,-1471.6,710.7999999999993,3309.7,-290.2,804.8,2025-01-29 10:35:45,0.0
793.2000000000007,-2103.6,690.7999999999993,3299.7,263.8,894.8,2025-01-29 10:35:45,0.0
145.20000000000073,-1475.6,1070.7999999999993,3116.7,972.8,1087.8,2025-01-29 10:35:45,0.0
-638.7999999999993,-771.6,1614.7999999999993,2843.7,1564.8,1065.8,2025-01-29 10:35:45,0.0
-1422.7999999999993,-251.60000000000002,1758.7999999999993,2281.7,1377.8,568.8,2025-01-29 10:35:45,0.0
-1802.7999999999993,-79.60000000000002,1930.7999999999993,1704.7,713.8,-182.2,2025-01-29 10:35:45,0.0
-1974.7999999999993,-51.60000000000002,2018.7999999999993,1201.7,2.8000000000000114,-1071.2,2025-01-29 10:35:45,0.0
-1450.7999999999993,-291.6,2138.7999999999993,658.7,-444.2,-1777.2,2025-01-29 10:35:45,0.0
-930.7999999999993,-763.6,2278.7999999999993,281.7,-603.2,-2097.2,2025-01-29 10:35:45,0.0
-42.79999999999927,-1395.6,2078.7999999999993,-102.3,-371.2,-2160.2,2025-01-29 10:35:46,0.0
493.2000000000007,-2015.6,1914.7999999999993,-388.3,508.8,-2167.2,2025-01-29 10:35:46,0.0
425.2000000000007,-2555.6,1586.7999999999993,-553.3,1725.8,-2169.2,2025-01-29 10:35:46,0.0
-386.7999999999993,-2747.6,1534.7999999999993,-575.3,2313.8,-2013.2,2025-01-29 10:35:46,0.0
-1210.7999999999993,-2691.6,1738.7999999999993,-488.3,1971.8,-1771.2,2025-01-29 10:35:46,0.0
-1778.7999999999993,-2627.6,2242.7999999999993,-299.3,1050.8,-1422.2,2025-01-29 10:35:46,0.0
-1698.7999999999993,-2651.6,2614.7999999999993,-157.3,67.80000000000001,-1128.2,2025-01-29 10:35:46,0.0
-1390.7999999999993,-2747.6,2754.7999999999993,-16.299999999999997,-531.2,-882.2,2025-01-29 10:35:46,0.0
-1030.7999999999993,-2579.6,2698.7999999999993,-64.3,-718.2,-634.2,2025-01-29 10:35:46,0.0
-694.7999999999993,-2199.6,2462.7999999999993,-185.3,-500.2,-386.2,2025-01-29 10:35:46,0.0
-398.7999999999993,-1395.6,2306.7999999999993,-532.3,-86.19999999999999,-215.2,2025-01-29 10:35:46,0.0
-398.7999999999993,-963.6,2018.7999999999993,-1082.3,291.8,-70.19999999999999,2025-01-29 10:35:46,0.0
-370.7999999999993,-891.6,2070.7999999999993,-1597.3,627.8,-93.19999999999999,2025-01-29 10:35:46,
-590.7999999999993,-1075.6,2406.7999999999993,-2126.3,697.8,-201.2,2025-01-29 10:35:46,0.0
-570.7999999999993,-1519.6,2282.7999999999993,-2467.3,603.8,-428.2,2025-01-29 10:35:46,0.0
-550.7999999999993,-1879.6,2378.7999999999993,-2616.3,556.8,-664.2,2025-01-29 10:35:46,0.0
-526.7999999999993,-1879.6,1742.7999999999993,-2644.3,272.8,-910.2,2025-01-29 10:35:46,0.0
-318.7999999999993,-1279.6,1026.7999999999993,-2822.3,359.8,-1074.2,2025-01-29 10:35:46,0.0
-366.7999999999993,-1235.6,766.7999999999993,-3384.3,1038.8,-1264.2,2025-01-29 10:35:46,0.0
-826.7999999999993,-2031.6,1250.7999999999993,-3857.3,1534.8,-1680.2,2025-01-29 10:35:46,0.0
-1922.7999999999993,-2463.6,1190.7999999999993,-4194.3,986.8,-2044.2,2025-01-29 10:35:46,0.0
-2602.7999999999993,-2351.6,1826.7999999999993,-4276.3,93.80000000000001,-2167.2,2025-01-29 10:35:46,0.0
-2190.7999999999993,-3099.6,1542.7999999999993,-4079.3,-758.2,-2342.2,2025-01-29 10:35:46,0.0
-1186.7999999999993,-3739.6,-293.2000000000007,-3310.3,-974.2,-3013.2,2025-01-29 10:35:46,0.0
-1886.7999999999993,-4239.6,6.799999999999272,-2560.3,-331.2,-3979.2,2025-01-29 10:35:46,0.0
-2874.7999999999993,-5083.6,1610.7999999999993,-1215.3,-429.2,-4249.2,2025-01-29 10:35:46,0.0
-3838.7999999999993,-5631.6,1510.7999999999993,-38.3,-1418.2,-3854.2,2025-01-29 10:35:46,0.0
-4858.799999999999,-4959.6,566.7999999999993,64.7,-2403.2,-2311.2,2025-01-29 10:35:46,0.0
-4186.799999999999,-3643.6,-729.2000000000007,-784.3,-2646.2,-449.2,2025-01-29 10:35:46,0.0
-2550.7999999999993,-2031.6,-1097.2000000000007,-1569.3,-2252.2,504.8,2025-01-29 10:35:46,0.0
-1922.7999999999993,-1311.6,-1521.2000000000007,-2435.3,-1554.2,773.8,2025-01-29 10:35:46,0.0
-1426.7999999999993,-1815.6,-2037.2000000000007,-3014.3,-846.2,1107.8,2025-01-29 10:35:46,0.0
-1478.7999999999993,-2527.6,-1685.2000000000007,-3140.3,-356.2,1182.8,2025-01-29 10:35:46,0.0
-1990.7999999999993,-2723.6,-1149.2000000000007,-2891.3,-900.2,1653.8,2025-01-29 10:35:46,0.0
-1178.7999999999993,-2403.6,-1437.2000000000007,-2372.3,-2172.2,2254.8,2025-01-29 10:35:46,0.0
113.20000000000073,-1723.6,-1189.2000000000007,-1896.3,-3886.2,2598.8,2025-01-29 10:35:46,0.0
1517.2000000000007,-499.6,-637.2000000000007,-1495.3,-4777.2,2745.8,2025-01-29 10:35:46,0.0
3125.2000000000007,880.4,-401.2000000000007,-1406.3,-4819.2,2407.8,2025-01-29 10:35:46,0.0
4029.2000000000007,1556.4,-117.20000000000073,-1658.3,-3610.2,1509.8,2025-01-29 10:35:46,0.0
3557.2000000000007,1392.4,382.7999999999993,-1770.3,-1333.2,628.8,2025-01-29 10:35:46,0.0
2373.2000000000007,696.4,254.79999999999927,-1476.3,359.8,535.8,2025-01-29 10:35:46,0.0
1253.2000000000007,-71.60000000000002,282.7999999999993,-1015.3,754.8,835.8,2025-01-29 10:35:46,0.0
145.20000000000073,-1055.6,326.7999999999993,-364.3,249.8,1206.8,2025-01-29 10:35:46,0.0
-590.7999999999993,-1435.6,474.7999999999993,359.7,-658.2,1973.8,2025-01-29 10:35:46,0.0
-446.7999999999993,-983.6,1150.7999999999993,791.7,-1051.2,2680.8,2025-01-29 10:35:46,0.0
-138.79999999999927,-211.60000000000002,1002.7999999999993,1069.7,-1177.2,3061.8,2025-01-29 10:35:46,0.0
65.20000000000073,692.4,290.7999999999993,1156.7,-1091.2,3267.8,2025-01-29 10:35:46,0.0
-74.79999999999927,1492.4,-177.20000000000073,931.7,-829.2,3598.8,2025-01-29 10:35:46,0.0
-154.79999999999927,2204.4,-269.2000000000007,675.7,-633.2,3905.8,2025-01-29 10:35:46,0.0
-2.7999999999992724,2776.4,-121.20000000000073,390.7,-786.2,4064.8,2025-01-29 10:35:46,0.0
501.2000000000007,2648.4,530.7999999999993,69.7,-811.2,3818.8,2025-01-29 10:35:46,0.0
629.2000000000007,2152.4,1010.7999999999993,-259.3,-700.2,3374.8,2025-01-29 10:35:46,0.0
625.2000000000007,1680.4,1166.7999999999993,-392.3,-501.2,2938.8,2025-01-29 10:35:46,0.0
565.2000000000007,1060.4,1586.7999999999993,-320.3,-748.2,2609.8,2025-01-29 10:35:46,0.0
241.20000000000073,732.4,1726.7999999999993,-85.3,-859.2,2540.8,2025-01-29 10:35:46,0.0
257.2000000000007,572.4,1766.7999999999993,69.7,-687.2,2461.8,2025-01-29 10:35:46,0.0
-206.79999999999927,632.4,2202.7999999999993,380.7,-749.2,2409.8,2025-01-29 10:35:46,0.0
-606.7999999999993,500.4,2338.7999999999993,775.7,-958.2,2276.8,2025-01-29 10:35:46,0.0
-1178.7999999999993,328.4,2554.7999999999993,1147.7,-1247.2,2076.8,2025-01-29 10:35:46,0.0
-1514.7999999999993,216.39999999999998,2802.7999999999993,1601.7,-2047.2,1813.8,2025-01-29 10:35:46,0.0
-866.7999999999993,740.4,2378.7999999999993,1813.7,-4389.2,1119.8,2025-01-29 10:35:46,0.0
-18.799999999999272,1308.4,2634.7999999999993,1978.7,-6262.2,589.8,2025-01-29 10:35:46,0.0
753.2000000000007,1680.4,3570.7999999999993,2217.7,-7108.2,36.80000000000001,2025-01-29 10:35:47,0.0
1525.2000000000007,2116.4,3934.7999999999993,2385.7,-6677.2,-350.2,2025-01-29 10:35:47,0.0
1893.2000000000007,1864.4,4158.799999999999,2262.7,-4994.2,-383.2,2025-01-29 10:35:47,0.0
1945.2000000000007,1756.4,4126.799999999999,2043.7,-1964.2,-355.2,2025-01-29 10:35:47,0.0
1193.2000000000007,2108.4,3350.7999999999993,1724.7,1491.8,-584.2,2025-01-29 10:35:47,0.0
-914.7999999999993,2600.4,2330.7999999999993,1357.7,3893.8,-740.2,2025-01-29 10:35:47,0.0
-2722.7999999999993,2356.4,1746.7999999999993,988.7,4037.8,-691.2,2025-01-29 10:35:47,0.0
-4366.799999999999,1784.4,2122.7999999999993,710.7,3003.8,-436.2,2025-01-29 10:35:47,0.0
-5306.799999999999,780.4,2378.7999999999993,721.7,1386.8,-134.2,2025-01-29 10:35:47,0.0
-5310.799999999999,-151.60000000000002,2410.7999999999993,1052.7,-143.2,127.80000000000001,2025-01-29 10:35:47,0.0
-4618.799999999999,-519.6,2362.7999999999993,1571.7,-1318.2,330.8,2025-01-29 10:35:47,0.0
-3850.7999999999993,108.39999999999998,3074.7999999999993,2418.7,-1797.2,540.8,2025-01-29 10:35:47,0.0
-4174.799999999999,592.4,3666.7999999999993,3038.7,-1655.2,938.8,2025-01-29 10:35:47,0.0
-4666.799999999999,336.4,3386.7999999999993,3372.7,-903.2,1484.8,2025-01-29 10:35:47,0.0
-4906.799999999999,-215.60000000000002,3290.7999999999993,3538.7,-492.2,2147.8,2025-01-29 10:35:47,0.0
-4198.799999999999,4.399999999999977,2338.7999999999993,3795.7,-551.2,2538.8,2025-01-29 10:35:47,0.0
-3882.7999999999993,1856.4,546.7999999999993,3764.7,69.80000000000001,3021.8,2025-01-29 10:35:47,0.0
-3762.7999999999993,4188.4,-505.2000000000007,2860.7,823.8,3498.8,2025-01-29 10:35:47,0.0
-2606.7999999999993,5092.4,-1181.2000000000007,1509.7,650.8,2887.8,2025-01-29 10:35:47,0.0
-2382.7999999999993,5624.4,-929.2000000000007,98.7,1.8000000000000114,1265.8,2025-01-29 10:35:47,0.0
-2158.7999999999993,5424.4,-1121.2000000000007,-1775.3,-1740.2,-467.2,2025-01-29 10:35:47,0.0
-122.79999999999927,3588.4,-265.2000000000007,-2728.3,-3105.2,-1330.2,2025-01-29 10:35:47,0.0
1185.2000000000007,1460.4,2222.7999999999993,-2574.3,-3835.2,-2083.2,2025-01-29 10:35:47,0.0
2633.2000000000007,-703.6,3278.7999999999993,-1721.3,-3469.2,-2425.2,2025-01-29 10:35:47,0.0
3245.2000000000007,-2599.6,2862.7999999999993,-820.3,-1884.2,-2628.2,2025-01-29 10:35:47,0.0
2793.2000000000007,-3527.6,1874.7999999999993,-116.3,1200.8,-2412.2,2025-01-29 10:35:47,0.0
1617.2000000000007,-3143.6,870.7999999999993,809.7,4485.8,-1864.2,2025-01-29 10:35:47,0.0
365.2000000000007,-2683.6,338.7999999999993,1288.7,5512.8,-1389.2,2025-01-29 10:35:47,0.0
-1046.7999999999993,-1447.6,222.79999999999927,1345.7,4031.8,-1368.2,2025-01-29 10:35:47,0.0
-2346.7999999999993,-27.600000000000023,-109.20000000000073,991.7,1412.8,-1838.2,2025-01-29 10:35:47,0.0
-2230.7999999999993,688.4,-401.2000000000007,683.7,-922.2,-2324.2,2025-01-29 10:35:47,0.0
-1122.7999999999993,372.4,-653.2000000000007,349.7,-3204.2,-2764.2,2025-01-29 10:35:47,0.0
5.200000000000728,-215.60000000000002,-409.2000000000007,43.7,-4494.2,-2886.2,2025-01-29 10:35:47,0.0
1745.2000000000007,-603.6,686.7999999999993,-357.3,-4698.2,-3107.2,2025-01-29 10:35:47,0.0
2705.2000000000007,-1131.6,918.7999999999993,-785.3,-3739.2,-3390.2,2025-01-29 10:35:47,0.0
2409.2000000000007,-1227.6,1462.7999999999993,-942.3,-1436.2,-3307.2,2025-01-29 10:35:47,0.0
2145.2000000000007,-1127.6,1674.7999999999993,-1045.3,754.8,-3186.2,2025-01-29 10:35:47,0.0
1493.2000000000007,-1047.6,1842.7999999999993,-1344.3,2285.8,-3353.2,2025-01-29 10:35:47,0.0
561.2000000000007,-1171.6,2114.7999999999993,-1577.3,2816.8,-3674.2,2025-01-29 10:35:47,0.0
-642.7999999999993,-1315.6,1842.7999999999993,-1669.3,2684.8,-3793.2,2025-01-29 10:35:47,0.0
-1726.7999999999993,-1467.6,2346.7999999999993,-1761.3,1873.8,-3402.2,2025-01-29 10:35:47,0.0
-1678.7999999999993,-1807.6,2470.7999999999993,-1818.3,936.8,-2807.2,2025-01-29 10:35:47,0.0
-1114.7999999999993,-2187.6,3058.7999999999993,-1749.3,347.8,-2473.2,2025-01-29 10:35:47,0.0
45.20000000000073,-2175.6,2830.7999999999993,-1572.3,166.8,-2383.2,2025-01-29 10:35:47,0.0
405.2000000000007,-1583.6,2114.7999999999993,-1625.3,931.8,-2188.2,2025-01-29 10:35:47,0.0
197.20000000000073,-775.6,1834.7999999999993,-1927.3,2147.8,-1899.2,2025-01-29 10:35:47,0.0
221.20000000000073,-491.6,1738.7999999999993,-2526.3,3251.8,-1804.2,2025-01-29 10:35:47,0.0
-486.7999999999993,-683.6,2466.7999999999993,-3059.3,3497.8,-1982.2,2025-01-29 10:35:47,0.0
-954.7999999999993,-871.6,2090.7999999999993,-3514.3,2792.8,-2088.2,2025-01-29 10:35:47,0.0
-1482.7999999999993,-1207.6,2518.7999999999993,-3928.3,1985.8,-2119.2,2025-01-29 10:35:47,0.0
-1562.7999999999993,-1239.6,2534.7999999999993,-4170.3,1416.8,-1841.2,2025-01-29 10:35:47,
-1058.7999999999993,-839.6,2182.7999999999993,-4504.3,966.8,-1605.2,2025-01-29 10:35:47,0.0
-398.7999999999993,-763.6,2282.7999999999993,-4831.3,771.8,-1644.2,2025-01-29 10:35:47,0.0
49.20000000000073,-911.6,2182.7999999999993,-5166.3,1008.8,-1900.2,2025-01-29 10:35:47,0.0
-514.7999999999993,-1211.6,2318.7999999999993,-5396.3,1354.8,-2080.2,2025-01-29 10:35:47,0.0
-1450.7999999999993,-1763.6,3090.7999999999993,-5354.3,1779.8,-2098.2,2025-01-29 10:35:47,0.0
-2286.7999999999993,-2343.6,3146.7999999999993,-5130.3,1644.8,-2389.2,2025-01-29 10:35:47,0.0
-2998.7999999999993,-2299.6,3166.7999999999993,-4799.3,657.8,-2520.2,2025-01-29 10:35:48,0.0
-3258.7999999999993,-2027.6,3342.7999999999993,-4553.3,-518.2,-2497.2,2025-01-29 10:35:48,0.0
-3370.7999999999993,-1383.6,3150.7999999999993,-4650.3,-1105.2,-2290.2,2025-01-29 10:35:48,0.0
-2602.7999999999993,-1147.6,2878.7999999999993,-4946.3,-889.2,-2166.2,2025-01-29 10:35:48,0.0
-1934.7999999999993,-1207.6,1086.7999999999993,-4490.3,435.8,-2579.2,2025-01-29 10:35:48,0.0
-1914.7999999999993,-1251.6,-1185.2000000000007,-3873.3,2704.8,-3656.2,2025-01-29 10:35:48,0.0
-2598.7999999999993,-3759.6,-1765.2000000000007,-2815.3,5753.8,-5627.2,2025-01-29 10:35:48,0.0
-4410.799999999999,-6907.6,-1029.2000000000007,-818.3,6429.8,-7551.2,2025-01-29 10:35:48,0.0
-8074.799999999999,-8615.6,-281.2000000000007,1802.7,2695.8,-6541.2,2025-01-29 10:35:48,0.0
-9990.8,-8227.6,-1825.2000000000007,2935.7,-2720.2,-2245.2,2025-01-29 10:35:48,0.0
-7158.799999999999,-4915.6,-2933.2000000000007,3028.7,-5339.2,2090.8,2025-01-29 10:35:48,0.0
-3118.7999999999993,-1219.6,-3265.2000000000007,1865.7,-7122.2,3378.8,2025-01-29 10:35:48,0.0
-710.7999999999993,492.4,-3145.2000000000007,-242.3,-9272.2,4415.8,2025-01-29 10:35:48,0.0
2013.2000000000007,720.4,-1533.2000000000007,-1514.3,-9805.2,5795.8,2025-01-29 10:35:48,0.0
4653.200000000001,500.4,-285.2000000000007,-1912.3,-8904.2,6379.8,2025-01-29 10:35:48,0.0
7457.200000000001,-427.6,1202.7999999999993,-2012.3,-4967.2,5193.8,2025-01-29 10:35:48,0.0
8405.2,-503.6,2106.7999999999993,-1493.3,364.8,2601.8,2025-01-29 10:35:48,0.0
5797.200000000001,208.39999999999998,1502.7999999999993,-1083.3,5166.8,-17.19999999999999,2025-01-29 10:35:48,0.0
1573.2000000000007,1408.4,546.7999999999993,-1503.3,7051.8,-366.2,2025-01-29 10:35:48,0.0
-1482.7999999999993,2496.4,-889.2000000000007,-2380.3,7346.8,544.8,2025-01-29 10:35:48,0.0
-3114.7999999999993,2384.4,-2141.2000000000007,-3518.3,6240.8,1368.8,2025-01-29 10:35:48,0.0
-3818.7999999999993,1428.4,-2333.2000000000007,-4310.3,3139.8,1951.8,2025-01-29 10:35:48,0.0
-3342.7999999999993,-339.6,-961.2000000000007,-4132.3,-1298.2,2166.8,2025-01-29 10:35:48,0.0
-2002.7999999999993,-1995.6,1458.7999999999993,-2926.3,-5508.2,2518.8,2025-01-29 10:35:48,0.0
653.2000000000007,-2595.6,1958.7999999999993,-1692.3,-6794.2,2674.8,2025-01-29 10:35:48,0.0
2005.2000000000007,-2507.6,2534.7999999999993,-607.3,-6149.2,2765.8,2025-01-29 10:35:48,0.0
2773.2000000000007,-1627.6,2782.7999999999993,440.7,-3816.2,3039.8,2025-01-29 10:35:48,0.0
3053.2000000000007,-195.60000000000002,2398.7999999999993,1293.7,-781.2,3212.8,2025-01-29 10:35:48,0.0
1957.2000000000007,1128.4,1918.7999999999993,1842.7,1619.8,3280.8,2025-01-29 10:35:48,0.0
637.2000000000007,1456.4,1338.7999999999993,2015.7,2221.8,3324.8,2025-01-29 10:35:48,0.0
-434.7999999999993,1008.4,1498.7999999999993,2184.7,1644.8,3312.8,2025-01-29 10:35:48,0.0
-662.7999999999993,364.4,2098.7999999999993,2672.7,525.8,3006.8,2025-01-29 10:35:48,0.0
-822.7999999999993,184.39999999999998,2550.7999999999993,3275.7,-456.2,2841.8,2025-01-29 10:35:48,0.0
-590.7999999999993,432.4,2214.7999999999993,3663.7,-1030.2,2866.8,2025-01-29 10:35:48,0.0
-106.79999999999927,484.4,2294.7999999999993,3906.7,-1129.2,2735.8,2025-01-29 10:35:48,0.0
89.20000000000073,604.4,2142.7999999999993,3951.7,-959.2,2459.8,2025-01-29 10:35:48,0.0
-278.7999999999993,500.4,2298.7999999999993,4050.7,-830.2,2274.8,2025-01-29 10:35:48,0.0
-638.7999999999993,436.4,2414.7999999999993,4151.7,-1000.2,2075.8,2025-01-29 10:35:48,0.0
-890.7999999999993,476.4,2594.7999999999993,4225.7,-1631.2,1848.8,2025-01-29 10:35:48,0.0
-658.7999999999993,664.4,2510.7999999999993,4151.7,-2416.2,1526.8,2025-01-29 10:35:48,0.0
-402.7999999999993,1104.4,2578.7999999999993,3872.7,-3482.2,1133.8,2025-01-29 10:35:48,0.0
-54.79999999999927,2616.4,2706.7999999999993,3620.7,-4322.2,1042.8,2025-01-29 10:35:48,0.0
925.2000000000007,3480.4,2646.7999999999993,2969.7,-4099.2,1017.8,2025-01-29 10:35:48,0.0
1597.2000000000007,3548.4,2814.7999999999993,2321.7,-2723.2,662.8,2025-01-29 10:35:48,0.0
1441.2000000000007,2972.4,2206.7999999999993,1780.7,-141.2,137.8,2025-01-29 10:35:48,0.0
-234.79999999999927,2244.4,1902.7999999999993,1473.7,2790.8,-147.2,2025-01-29 10:35:48,0.0
-3294.7999999999993,1564.4,162.79999999999927,5084.7,3373.8,5133.8,2025-01-29 10:35:48,0.0
-3590.7999999999993,4192.4,-1981.2000000000007,3956.7,4065.8,5558.8,2025-01-29 10:35:48,0.0
-2598.7999999999993,5400.4,-1913.2000000000007,2296.7,3306.8,5158.8,2025-01-29 10:35:48,0.0
-1754.7999999999993,6200.4,-801.2000000000007,1314.7,1572.8,3370.8,2025-01-29 10:35:48,0.0
-874.7999999999993,5692.4,-865.2000000000007,884.7,-635.2,1091.8,2025-01-29 10:35:48,0.0
-470.7999999999993,2944.4,-517.2000000000007,447.7,-2259.2,-878.2,2025-01-29 10:35:48,0.0
265.2000000000007,776.4,-449.2000000000007,532.7,-3633.2,-1216.2,2025-01-29 10:35:48,0.0
1953.2000000000007,-323.6,390.7999999999993,844.7,-4349.2,-1117.2,2025-01-29 10:35:48,0.0
2845.2000000000007,-739.6,878.7999999999993,1191.7,-3238.2,-1338.2,2025-01-29 10:35:49,0.0
2589.2000000000007,-1611.6,1174.7999999999993,1326.7,-765.2,-1123.2,2025-01-29 10:35:49,0.0
2445.2000000000007,-2495.6,594.7999999999993,1304.7,2135.8,-730.2,2025-01-29 10:35:49,0.0
1697.2000000000007,-3127.6,-13.200000000000728,1895.7,4002.8,-486.2,2025-01-29 10:35:49,0.0
825.2000000000007,-2631.6,-225.20000000000073,2806.7,4176.8,-538.2,2025-01-29 10:35:49,0.0
-474.7999999999993,-1275.6,378.7999999999993,3312.7,3255.8,-789.2,2025-01-29 10:35:49,0.0
-886.7999999999993,348.4,-137.20000000000073,3231.7,1833.8,-1265.2,2025-01-29 10:35:49,0.0
-774.7999999999993,1264.4,-589.2000000000007,2577.7,797.8,-1893.2,2025-01-29 10:35:49,0.0
-826.7999999999993,1656.4,-837.2000000000007,1717.7,-409.2,-2541.2,2025-01-29 10:35:49,0.0
-626.7999999999993,1624.4,-817.2000000000007,999.7,-1566.2,-2953.2,2025-01-29 10:35:49,0.0
237.20000000000073,1172.4,-309.2000000000007,99.7,-2159.2,-3224.2,2025-01-29 10:35:49,0.0
901.2000000000007,748.4,518.7999999999993,-603.3,-2215.2,-3509.2,2025-01-29 10:35:49,0.0
1425.2000000000007,232.39999999999998,1286.7999999999993,-1115.3,-2047.2,-3684.2,2025-01-29 10:35:49,0.0
1617.2000000000007,-287.6,1634.7999999999993,-1486.3,-1349.2,-3871.2,2025-01-29 10:35:49,0.0
1161.2000000000007,-1259.6,2326.7999999999993,-1680.3,-231.2,-3982.2,2025-01-29 10:35:49,0.0
853.2000000000007,-1983.6,2330.7999999999993,-1717.3,638.8,-3839.2,2025-01-29 10:35:49,0.0
737.2000000000007,-2579.6,2366.7999999999993,-1635.3,1165.8,-3581.2,2025-01-29 10:35:49,0.0
-466.7999999999993,-2559.6,2554.7999999999993,-1440.3,1553.8,-3048.2,2025-01-29 10:35:49,0.0
-718.7999999999993,-2419.6,2294.7999999999993,-1069.3,1812.8,-2570.2,2025-01-29 10:35:49,0.0
-838.7999999999993,-2299.6,2122.7999999999993,-839.3,1348.8,-2234.2,2025-01-29 10:35:49,0.0
-970.7999999999993,-2399.6,2370.7999999999993,-750.3,863.8,-1761.2,2025-01-29 10:35:49,0.0
-562.7999999999993,-2423.6,1998.7999999999993,-622.3,533.8,-1262.2,2025-01-29 10:35:49,0.0
-370.7999999999993,-2047.6,2138.7999999999993,-524.3,510.8,-807.2,2025-01-29 10:35:49,0.0
33.20000000000073,-1387.6,2098.7999999999993,-667.3,659.8,-425.2,2025-01-29 10:35:49,0.0
189.20000000000073,-595.6,1990.7999999999993,-1082.3,1011.8,-193.2,2025-01-29 10:35:49,0.0
713.2000000000007,-35.60000000000002,2050.7999999999993,-1545.3,1578.8,-6.199999999999989,2025-01-29 10:35:49,0.0
1093.2000000000007,-139.60000000000002,1842.7999999999993,-2029.3,2491.8,268.8,2025-01-29 10:35:49,0.0
889.2000000000007,-379.6,1730.7999999999993,-2518.3,3558.8,354.8,2025-01-29 10:35:49,0.0
309.2000000000007,-1019.6,2158.7999999999993,-2964.3,4527.8,192.8,2025-01-29 10:35:49,0.0
-346.7999999999993,-1115.6,1806.7999999999993,-3158.3,4947.8,-311.2,2025-01-29 10:35:49,0.0
-1418.7999999999993,-1171.6,966.7999999999993,-3454.3,4410.8,-626.2,2025-01-29 10:35:49,0.0
-2202.7999999999993,-1127.6,1202.7999999999993,-3618.3,3279.8,-804.2,2025-01-29 10:35:49,0.0
-2426.7999999999993,-831.6,746.7999999999993,-3848.3,2104.8,-1051.2,2025-01-29 10:35:49,0.0
-2082.7999999999993,-827.6,814.7999999999993,-4137.3,1008.8,-1278.2,2025-01-29 10:35:49,0.0
-2022.7999999999993,-1331.6,1114.7999999999993,-4193.3,371.8,-1695.2,2025-01-29 10:35:49,0.0
-1430.7999999999993,-2479.6,1042.7999999999993,-4034.3,74.80000000000001,-2539.2,2025-01-29 10:35:49,0.0
-1726.7999999999993,-3147.6,1698.7999999999993,-3696.3,-135.2,-3643.2,2025-01-29 10:35:49,0.0
-2262.7999999999993,-2891.6,1614.7999999999993,-3253.3,-813.2,-4001.2,2025-01-29 10:35:49,0.0
-1586.7999999999993,-791.6,142.79999999999927,-2525.3,-782.2,-4020.2,2025-01-29 10:35:49,0.0
-1650.7999999999993,-879.6,-1153.2000000000007,-2486.3,663.8,-4531.2,2025-01-29 10:35:49,
-1570.7999999999993,-2967.6,-361.2000000000007,-2153.3,1958.8,-5230.2,2025-01-29 10:35:49,0.0
-2954.7999999999993,-5567.6,-241.20000000000073,-1021.3,2470.8,-5876.2,2025-01-29 10:35:49,0.0
-4858.799999999999,-7339.6,-1225.2000000000007,309.7,1653.8,-4462.2,2025-01-29 10:35:49,0.0
-6454.799999999999,-6999.6,-2097.2000000000007,967.7,148.8,-959.2,2025-01-29 10:35:49,0.0
-4726.799999999999,-4707.6,-1737.2000000000007,1327.7,-1175.2,2148.8,2025-01-29 10:35:49,0.0
-2862.7999999999993,-1883.6,-2597.2000000000007,1047.7,-2715.2,3105.8,2025-01-29 10:35:49,0.0
-2474.7999999999993,188.39999999999998,-3245.2000000000007,-416.3,-4914.2,4358.8,2025-01-29 10:35:49,0.0
-686.7999999999993,328.4,-2265.2000000000007,-1066.3,-6481.2,5664.8,2025-01-29 10:35:49,0.0
2673.2000000000007,408.4,-1925.2000000000007,-799.3,-6685.2,5777.8,2025-01-29 10:35:49,0.0
4929.200000000001,772.4,-333.2000000000007,-361.3,-5810.2,4404.8,2025-01-29 10:35:49,0.0
5997.200000000001,900.4,1478.7999999999993,494.7,-3986.2,2403.8,2025-01-29 10:35:49,0.0
5229.200000000001,1016.4,1410.7999999999993,1091.7,-1213.2,923.8,2025-01-29 10:35:49,0.0
3493.2000000000007,1548.4,-405.2000000000007,824.7,1489.8,882.8,2025-01-29 10:35:49,0.0
2661.2000000000007,2192.4,-1185.2000000000007,51.7,3387.8,1247.8,2025-01-29 10:35:49,0.0
1701.2000000000007,2292.4,-1461.2000000000007,-960.3,4494.8,1224.8,2025-01-29 10:35:49,0.0
181.20000000000073,1712.4,-1305.2000000000007,-1909.3,4390.8,994.8,2025-01-29 10:35:49,0.0
-1594.7999999999993,640.4,-1049.2000000000007,-2393.3,2891.8,1054.8,2025-01-29 10:35:49,0.0
-2382.7999999999993,-15.600000000000023,-921.2000000000007,-2339.3,793.8,1446.8,2025-01-29 10:35:49,0.0
-1978.7999999999993,-331.6,-369.2000000000007,-2152.3,-1790.2,1743.8,2025-01-29 10:35:49,0.0
-942.7999999999993,-315.6,338.7999999999993,-1767.3,-3924.2,1912.8,2025-01-29 10:35:49,0.0
617.2000000000007,-11.600000000000023,970.7999999999993,-1200.3,-4860.2,2039.8,2025-01-29 10:35:49,0.0
1953.2000000000007,748.4,1582.7999999999993,-694.3,-4355.2,1945.8,2025-01-29 10:35:49,0.0
2705.2000000000007,1316.4,2142.7999999999993,-296.3,-2913.2,1715.8,2025-01-29 10:35:49,0.0
2957.2000000000007,1620.4,2238.7999999999993,-63.3,-951.2,1372.8,2025-01-29 10:35:49,0.0
2545.2000000000007,1208.4,1950.7999999999993,94.7,1234.8,871.8,2025-01-29 10:35:50,0.0
857.2000000000007,800.4,1962.7999999999993,289.7,2408.8,699.8,2025-01-29 10:35:50,0.0
417.2000000000007,672.4,1258.7999999999993,549.7,2642.8,741.8,2025-01-29 10:35:50,0.0
-354.7999999999993,624.4,986.7999999999993,777.7,2296.8,648.8,2025-01-29 10:35:50,0.0
-1050.7999999999993,976.4,878.7999999999993,838.7,1213.8,543.8,2025-01-29 10:35:50,0.0
-1682.7999999999993,1264.4,822.7999999999993,783.7,-209.2,475.8,2025-01-29 10:35:50,0.0
-1814.7999999999993,1412.4,890.7999999999993,654.7,-1325.2,495.8,2025-01-29 10:35:50,0.0
-1098.7999999999993,1396.4,1158.7999999999993,580.7,-2305.2,438.8,2025-01-29 10:35:50,0.0
-394.7999999999993,1020.4,1758.7999999999993,485.7,-2764.2,196.8,2025-01-29 10:35:50,0.0
801.2000000000007,864.4,2382.7999999999993,603.7,-2628.2,-96.19999999999999,2025-01-29 10:35:50,0.0
1257.2000000000007,720.4,2662.7999999999993,672.7,-1806.2,-361.2,2025-01-29 10:35:50,0.0
1641.2000000000007,1040.4,2318.7999999999993,723.7,-739.2,-683.2,2025-01-29 10:35:50,0.0
965.2000000000007,1368.4,1526.7999999999993,645.7,651.8,-927.2,2025-01-29 10:35:50,0.0
133.20000000000073,1964.4,1590.7999999999993,582.7,1364.8,-1022.2,2025-01-29 10:35:50,0.0
-994.7999999999993,2540.4,918.7999999999993,364.7,967.8,-1029.2,2025-01-29 10:35:50,0.0
-1966.7999999999993,2104.4,1742.7999999999993,141.7,70.80000000000001,-1081.2,2025-01-29 10:35:50,0.0
-2946.7999999999993,400.4,3178.7999999999993,213.7,-960.2,-1076.2,2025-01-29 10:35:50,0.0
-3118.7999999999993,-599.6,3298.7999999999993,713.7,-2219.2,-776.2,2025-01-29 10:35:50,0.0
-2538.7999999999993,-947.6,2766.7999999999993,1164.7,-3131.2,-537.2,2025-01-29 10:35:50,0.0
-1898.7999999999993,-811.6,2954.7999999999993,1711.7,-3458.2,-168.2,2025-01-29 10:35:50,0.0
-898.7999999999993,-63.60000000000002,3026.7999999999993,2122.7,-3108.2,166.8,2025-01-29 10:35:50,0.0
-302.7999999999993,624.4,3378.7999999999993,2307.7,-1530.2,584.8,2025-01-29 10:35:50,0.0
-46.79999999999927,644.4,3150.7999999999993,2428.7,519.8,855.8,2025-01-29 10:35:50,0.0
21.200000000000728,644.4,2422.7999999999993,2719.7,2461.8,729.8,2025-01-29 10:35:50,0.0
-850.7999999999993,528.4,1558.7999999999993,3037.7,3857.8,132.8,2025-01-29 10:35:50,0.0
-3330.7999999999993,684.4,2114.7999999999993,3403.7,4649.8,-16.19999999999999,2025-01-29 10:35:50,0.0
-5034.799999999999,940.4,-153.20000000000073,3264.7,4840.8,878.8,2025-01-29 10:35:50,0.0
-5314.799999999999,1264.4,-2349.2000000000007,2383.7,4666.8,1730.8,2025-01-29 10:35:50,0.0
-5402.799999999999,2940.4,-4329.200000000001,511.7,3974.8,2209.8,2025-01-29 10:35:50,0.0
-5090.799999999999,4640.4,-4089.2000000000007,-1594.3,2433.8,2477.8,2025-01-29 10:35:50,0.0
-3406.7999999999993,5828.4,-3053.2000000000007,-3022.3,146.8,1998.8,2025-01-29 10:35:50,0.0
-2070.7999999999993,6328.4,-2025.2000000000007,-3699.3,-1969.2,774.8,2025-01-29 10:35:50,0.0
-838.7999999999993,5144.4,-249.20000000000073,-3695.3,-3138.2,-1294.2,2025-01-29 10:35:50,0.0
621.2000000000007,2896.4,1270.7999999999993,-3224.3,-4146.2,-3307.2,2025-01-29 10:35:50,0.0
2381.2000000000007,412.4,1602.7999999999993,-2287.3,-5310.2,-4460.2,2025-01-29 10:35:50,0.0
3413.2000000000007,-1207.6,1302.7999999999993,-1714.3,-4949.2,-4518.2,2025-01-29 10:35:50,0.0
3633.2000000000007,-1591.6,-237.20000000000073,-1412.3,-1354.2,-3586.2,2025-01-29 10:35:50,0.0
3905.2000000000007,-1215.6,-1261.2000000000007,-1480.3,2554.8,-2825.2,2025-01-29 10:35:50,0.0
3049.2000000000007,-523.6,-1621.2000000000007,-1767.3,4735.8,-2840.2,2025-01-29 10:35:50,0.0
997.2000000000007,-527.6,-1749.2000000000007,-2294.3,4582.8,-2765.2,2025-01-29 10:35:50,0.0
-534.7999999999993,-935.6,-913.2000000000007,-2258.3,2259.8,-2529.2,2025-01-29 10:35:50,0.0
-358.7999999999993,-779.6,-957.2000000000007,-2096.3,-300.2,-2776.2,2025-01-29 10:35:50,0.0
-134.79999999999927,-331.6,-1769.2000000000007,-2527.3,-1615.2,-3206.2,2025-01-29 10:35:50,0.0
385.2000000000007,244.39999999999998,-2121.2000000000007,-3220.3,-2249.2,-3532.2,2025-01-29 10:35:50,0.0
1293.2000000000007,696.4,-2189.2000000000007,-4184.3,-2412.2,-3957.2,2025-01-29 10:35:50,0.0
1681.2000000000007,688.4,-2053.2000000000007,-5159.3,-2000.2,-4542.2,2025-01-29 10:35:50,0.0
1581.2000000000007,552.4,-1033.2000000000007,-5771.3,-1413.2,-4905.2,2025-01-29 10:35:50,0.0
1849.2000000000007,28.399999999999977,-745.2000000000007,-6156.3,-1152.2,-5516.2,2025-01-29 10:35:50,0.0
1613.2000000000007,-603.6,-829.2000000000007,-6276.3,-1203.2,-6137.2,2025-01-29 10:35:50,0.0
865.2000000000007,-1267.6,-757.2000000000007,-6407.3,-1089.2,-6515.2,2025-01-29 10:35:50,0.0
645.2000000000007,-1651.6,-745.2000000000007,-6631.3,-859.2,-6665.2,2025-01-29 10:35:50,0.0
541.2000000000007,-1699.6,-653.2000000000007,-6899.3,-702.2,-6428.2,2025-01-29 10:35:50,0.0
697.2000000000007,-1731.6,-49.20000000000073,-6975.3,-500.2,-6176.2,2025-01-29 10:35:50,0.0
893.2000000000007,-1843.6,814.7999999999993,-6774.3,-181.2,-6062.2,2025-01-29 10:35:50,0.0
1297.2000000000007,-2015.6,698.7999999999993,-6567.3,115.80000000000001,-6046.2,2025-01-29 10:35:50,0.0
1301.2000000000007,-2035.6,482.7999999999993,-6359.3,395.8,-5921.2,2025-01-29 10:35:50,0.0
1049.2000000000007,-1775.6,-17.200000000000728,-6252.3,839.8,-5604.2,2025-01-29 10:35:50,0.0
681.2000000000007,-1295.6,-289.2000000000007,-6411.3,1364.8,-5174.2,2025-01-29 10:35:50,0.0
505.2000000000007,-915.6,58.79999999999927,-6699.3,1829.8,-4804.2,2025-01-29 10:35:50,0.0
-10.799999999999272,-147.60000000000002,-861.2000000000007,-7265.3,1825.8,-5041.2,2025-01-29 10:35:50,0.0
-1206.7999999999993,172.39999999999998,-797.2000000000007,-7862.3,439.8,-5232.2,2025-01-29 10:35:50,0.0
-1526.7999999999993,288.4,-593.2000000000007,-8394.3,-1350.2,-4928.2,2025-01-29 10:35:51,0.0
-930.7999999999993,552.4,-329.2000000000007,-9053.3,-2935.2,-4901.2,2025-01-29 10:35:51,0.0
-270.7999999999993,436.4,-189.20000000000073,-9661.3,-4281.2,-5365.2,2025-01-29 10:35:51,0.0
41.20000000000073,96.39999999999998,102.79999999999927,-10030.3,-5012.2,-5540.2,2025-01-29 10:35:51,0.0
889.2000000000007,-719.6,194.79999999999927,-10229.3,-4299.2,-5377.2,2025-01-29 10:35:51,0.0
1933.2000000000007,-1727.6,230.79999999999927,-10260.3,-2927.2,-5210.2,2025-01-29 10:35:51,0.0
3189.2000000000007,-2711.6,226.79999999999927,-10348.3,-866.2,-5574.2,2025-01-29 10:35:51,0.0
2277.2000000000007,-1943.6,34.79999999999927,-10533.3,1972.8,-6093.2,2025-01-29 10:35:51,0.0
573.2000000000007,-711.6,566.7999999999993,-10933.3,3188.8,-6351.2,2025-01-29 10:35:51,0.0
-794.7999999999993,-303.6,190.79999999999927,-11423.3,2713.8,-6604.2,2025-01-29 10:35:51,0.0
-1866.7999999999993,-11.600000000000023,162.79999999999927,-12045.3,670.8,-6907.2,2025-01-29 10:35:51,0.0
-1918.7999999999993,-323.6,130.79999999999927,-12420.3,-1794.2,-7225.2,2025-01-29 10:35:51,0.0
-1542.7999999999993,-503.6,-141.20000000000073,-12711.3,-3756.2,-7625.2,2025-01-29 10:35:51,0.0
-1506.7999999999993,176.39999999999998,-217.20000000000073,-12948.3,-4391.2,-7529.2,2025-01-29 10:35:51,0.0
-418.7999999999993,240.39999999999998,-165.20000000000073,-13352.3,-4413.2,-7016.2,2025-01-29 10:35:51,
1785.2000000000007,-755.6,70.79999999999927,-13978.3,-4264.2,-7049.2,2025-01-29 10:35:51,0.0
2189.2000000000007,-735.6,650.7999999999993,-13850.3,-3412.2,-7251.2,2025-01-29 10:35:51,0.0
2285.2000000000007,-1271.6,462.7999999999993,-13661.3,-1610.2,-7571.2,2025-01-29 10:35:51,0.0
1577.2000000000007,-2271.6,602.7999999999993,-13378.3,607.8,-8290.2,2025-01-29 10:35:51,0.0
-454.7999999999993,-2655.6,334.7999999999993,-12874.3,1977.8,-8709.2,2025-01-29 10:35:51,0.0
-2514.7999999999993,-2939.6,-105.20000000000073,-12638.3,1921.8,-8451.2,2025-01-29 10:35:51,0.0
-3606.7999999999993,-2863.6,194.79999999999927,-12675.3,413.8,-8094.2,2025-01-29 10:35:51,0.0
-3746.7999999999993,-2843.6,1170.7999999999993,-12583.3,-1475.2,-7550.2,2025-01-29 10:35:51,0.0
-2554.7999999999993,-2279.6,1078.7999999999993,-12589.3,-2551.2,-6795.2,2025-01-29 10:35:51,0.0
-698.7999999999993,-1639.6,874.7999999999993,-12598.3,-2569.2,-6666.2,2025-01-29 10:35:51,0.0
321.2000000000007,-2075.6,-37.20000000000073,-12411.3,-1216.2,-7021.2,2025-01-29 10:35:51,0.0
1057.2000000000007,-2667.6,-857.2000000000007,-11602.3,343.8,-7674.2,2025-01-29 10:35:51,0.0
785.2000000000007,-3907.6,-1293.2000000000007,-10327.3,1941.8,-8477.2,2025-01-29 10:35:51,0.0
-286.7999999999993,-4155.6,-981.2000000000007,-9010.3,2530.8,-8539.2,2025-01-29 10:35:51,0.0
-630.7999999999993,-3451.6,-481.2000000000007,-8584.3,1906.8,-8305.2,2025-01-29 10:35:51,0.0
-838.7999999999993,-1499.6,-205.20000000000073,-9020.3,616.8,-8002.2,2025-01-29 10:35:51,0.0
-1566.7999999999993,520.4,158.79999999999927,-9956.3,-507.2,-7491.2,2025-01-29 10:35:51,0.0
-838.7999999999993,1820.4,-509.2000000000007,-11289.3,-1345.2,-6813.2,2025-01-29 10:35:51,0.0
481.2000000000007,2096.4,-1669.2000000000007,-13026.3,-1801.2,-6179.2,2025-01-29 10:35:51,0.0
1021.2000000000007,1304.4,-1469.2000000000007,-13933.3,-1496.2,-5961.2,2025-01-29 10:35:51,0.0
2541.2000000000007,-251.60000000000002,-845.2000000000007,-14230.3,-45.19999999999999,-6614.2,2025-01-29 10:35:51,0.0
1989.2000000000007,-711.6,154.79999999999927,-13710.3,836.8,-7477.2,2025-01-29 10:35:51,0.0
1257.2000000000007,-235.60000000000002,-257.2000000000007,-13373.3,1330.8,-7397.2,2025-01-29 10:35:51,0.0
857.2000000000007,1120.4,-1333.2000000000007,-13336.3,1951.8,-6873.2,2025-01-29 10:35:51,0.0
1089.2000000000007,1888.4,-2453.2000000000007,-13741.3,2576.8,-6736.2,2025-01-29 10:35:51,0.0
1101.2000000000007,2100.4,-2497.2000000000007,-14174.3,2860.8,-7098.2,2025-01-29 10:35:51,0.0
769.2000000000007,1416.4,-1909.2000000000007,-14530.3,2520.8,-7591.2,2025-01-29 10:35:51,0.0
397.2000000000007,300.4,-881.2000000000007,-14379.3,1206.8,-7857.2,2025-01-29 10:35:51,0.0
361.2000000000007,12.399999999999977,-93.20000000000073,-13864.3,383.8,-7838.2,2025-01-29 10:35:51,0.0
505.2000000000007,-183.60000000000002,30.799999999999272,-13292.3,-98.19999999999999,-7892.2,2025-01-29 10:35:51,0.0
413.2000000000007,128.39999999999998,378.7999999999993,-12582.3,-144.2,-7749.2,2025-01-29 10:35:51,0.0
713.2000000000007,988.4,-1173.2000000000007,-12390.3,-450.2,-7608.2,2025-01-29 10:35:51,0.0
901.2000000000007,1724.4,-1077.2000000000007,-12752.3,-785.2,-7651.2,2025-01-29 10:35:51,0.0
1313.2000000000007,1768.4,-1189.2000000000007,-13208.3,-1246.2,-7775.2,2025-01-29 10:35:51,0.0
1509.2000000000007,2180.4,-1441.2000000000007,-13750.3,-1262.2,-7929.2,2025-01-29 10:35:51,0.0
2097.2000000000007,2036.4,-1625.2000000000007,-14415.3,-1037.2,-8262.2,2025-01-29 10:35:51,0.0
1725.2000000000007,1708.4,-1181.2000000000007,-14638.3,-538.2,-8606.2,2025-01-29 10:35:51,0.0
1373.2000000000007,1044.4,-1293.2000000000007,-14455.3,-165.2,-8790.2,2025-01-29 10:35:51,0.0
1093.2000000000007,148.39999999999998,-1369.2000000000007,-14124.3,89.80000000000001,-8934.2,2025-01-29 10:35:51,0.0
817.2000000000007,-527.6,-645.2000000000007,-13699.3,-33.19999999999999,-9079.2,2025-01-29 10:35:51,0.0
461.2000000000007,-1391.6,-89.20000000000073,-13290.3,-343.2,-9183.2,2025-01-29 10:35:51,0.0
5.200000000000728,-1723.6,610.7999999999993,-12665.3,-542.2,-9034.2,2025-01-29 10:35:51,0.0
-238.79999999999927,-1619.6,526.7999999999993,-11735.3,-604.2,-8596.2,2025-01-29 10:35:51,0.0
-222.79999999999927,-1199.6,482.7999999999993,-10869.3,-759.2,-8135.2,2025-01-29 10:35:51,0.0
409.2000000000007,-303.6,82.79999999999927,-9954.3,-1298.2,-7833.2,2025-01-29 10:35:51,0.0
1197.2000000000007,1108.4,-1009.2000000000007,-9616.3,-1657.2,-7798.2,2025-01-29 10:35:52,0.0
1605.2000000000007,2136.4,-965.2000000000007,-9615.3,-1498.2,-7795.2,2025-01-29 10:35:52,0.0
2365.2000000000007,2976.4,-1617.2000000000007,-9898.3,-1146.2,-7940.2,2025-01-29 10:35:52,0.0
2565.2000000000007,3212.4,-1741.2000000000007,-10444.3,-507.2,-8280.2,2025-01-29 10:35:52,0.0
2385.2000000000007,3048.4,-1581.2000000000007,-10763.3,190.8,-8571.2,2025-01-29 10:35:52,0.0
2069.2000000000007,1972.4,-1373.2000000000007,-10975.3,576.8,-8630.2,2025-01-29 10:35:52,0.0
1437.2000000000007,756.4,-569.2000000000007,-10777.3,767.8,-8653.2,2025-01-29 10:35:52,0.0
837.2000000000007,-403.6,154.79999999999927,-10306.3,992.8,-8485.2,2025-01-29 10:35:52,0.0
309.2000000000007,-659.6,666.7999999999993,-9319.3,481.8,-8225.2,2025-01-29 10:35:52,0.0
657.2000000000007,-379.6,-353.2000000000007,-8564.3,-598.2,-7769.2,2025-01-29 10:35:52,0.0
1381.2000000000007,-275.6,-609.2000000000007,-7889.3,-1150.2,-7384.2,2025-01-29 10:35:52,0.0
2085.2000000000007,-299.6,-537.2000000000007,-7477.3,-1117.2,-7304.2,2025-01-29 10:35:52,0.0
1849.2000000000007,-503.6,206.79999999999927,-7058.3,-222.2,-6985.2,2025-01-29 10:35:52,0.0
1773.2000000000007,-803.6,106.79999999999927,-6561.3,1235.8,-6356.2,2025-01-29 10:35:52,0.0
2017.2000000000007,-1075.6,-1641.2000000000007,-6478.3,2676.8,-5730.2,2025-01-29 10:35:52,0.0
1625.2000000000007,-903.6,-2301.2000000000007,-6532.3,4131.8,-5499.2,2025-01-29 10:35:52,0.0
1145.2000000000007,-1023.6,-3305.2000000000007,-6742.3,4902.8,-5362.2,2025-01-29 10:35:52,0.0
781.2000000000007,-1267.6,-2989.2000000000007,-6737.3,4829.8,-5077.2,2025-01-29 10:35:52,0.0
1017.2000000000007,-1487.6,-2501.2000000000007,-6425.3,4405.8,-4791.2,2025-01-29 10:35:52,0.0
1681.2000000000007,-1895.6,-2409.2000000000007,-6027.3,4440.8,-4960.2,2025-01-29 10:35:52,0.0
1561.2000000000007,-2311.6,-2577.2000000000007,-5834.3,4766.8,-5211.2,2025-01-29 10:35:52,0.0
1133.2000000000007,-3087.6,-1829.2000000000007,-5550.3,5028.8,-5290.2,2025-01-29 10:35:52,0.0
1365.2000000000007,-3587.6,-1441.2000000000007,-4989.3,4716.8,-5393.2,2025-01-29 10:35:52,0.0
1437.2000000000007,-3599.6,-1193.2000000000007,-4072.3,3926.8,-5722.2,2025-01-29 10:35:52,0.0
1509.2000000000007,-2983.6,-837.2000000000007,-3333.3,3053.8,-6302.2,2025-01-29 10:35:52,0.0
1689.2000000000007,-603.6,1066.7999999999993,-3002.3,-347.2,-6780.2,2025-01-29 10:35:52,0.0
2053.2000000000007,-303.6,750.7999999999993,-3498.3,-622.2,-6577.2,2025-01-29 10:35:52,0.0
2633.2000000000007,-719.6,-337.2000000000007,-4453.3,-478.2,-5807.2,2025-01-29 10:35:52,0.0
2989.2000000000007,-1795.6,-1373.2000000000007,-5445.3,118.80000000000001,-4804.2,2025-01-29 10:35:52,0.0
3497.2000000000007,-3447.6,-1773.2000000000007,-6213.3,1270.8,-3738.2,2025-01-29 10:35:52,0.0
3249.2000000000007,-4379.6,-1097.2000000000007,-6451.3,2325.8,-3228.2,2025-01-29 10:35:52,0.0
2261.2000000000007,-4675.6,-65.20000000000073,-6105.3,2428.8,-3106.2,2025-01-29 10:35:52,0.0
1049.2000000000007,-4435.6,738.7999999999993,-5297.3,1268.8,-2599.2,2025-01-29 10:35:52,0.0
869.2000000000007,-4279.6,1606.7999999999993,-4247.3,-25.19999999999999,-1944.2,2025-01-29 10:35:52,0.0
2133.2000000000007,-4055.6,1710.7999999999993,-3298.3,-1395.2,-1587.2,2025-01-29 10:35:52,0.0
4093.2000000000007,-3735.6,22.799999999999272,-2564.3,-2475.2,-1710.2,2025-01-29 10:35:52,0.0
5573.200000000001,-3567.6,-2725.2000000000007,-2397.3,-2490.2,-1763.2,2025-01-29 10:35:52,0.0
4637.200000000001,-3191.6,-2609.2000000000007,-2171.3,-795.2,-1427.2,2025-01-29 10:35:52,0.0
2969.2000000000007,-2507.6,-693.2000000000007,-2114.3,871.8,-979.2,2025-01-29 10:35:52,0.0
1693.2000000000007,-1103.6,826.7999999999993,-2221.3,1438.8,-598.2,2025-01-29 10:35:52,0.0
413.2000000000007,-95.60000000000002,62.79999999999927,-2670.3,2243.8,18.80000000000001,2025-01-29 10:35:52,0.0
409.2000000000007,928.4,-817.2000000000007,-3664.3,2717.8,882.8,2025-01-29 10:35:52,0.0
1205.2000000000007,1540.4,-681.2000000000007,-3565.3,514.8,684.8,2025-01-29 10:35:52,0.0
737.2000000000007,1240.4,-1245.2000000000007,-3173.3,-1985.2,-191.2,2025-01-29 10:35:52,0.0
2177.2000000000007,472.4,-1065.2000000000007,-2395.3,-4469.2,-802.2,2025-01-29 10:35:52,0.0
1005.2000000000007,-739.6,-2585.2000000000007,-2444.3,-3857.2,-842.2,2025-01-29 10:35:52,0.0
2313.2000000000007,-1179.6,-3325.2000000000007,-2904.3,-2928.2,-480.2,2025-01-29 10:35:52,0.0
1785.2000000000007,-1243.6,-1825.2000000000007,-2874.3,-4140.2,-121.19999999999999,2025-01-29 10:35:52,0.0
285.2000000000007,-315.6,-1205.2000000000007,-2788.3,-5382.2,-329.2,2025-01-29 10:35:52,0.0
-1966.7999999999993,1068.4,-1513.2000000000007,-2694.3,-6381.2,-968.2,2025-01-29 10:35:52,0.0
-2194.7999999999993,748.4,-1449.2000000000007,-3074.3,-7479.2,-866.2,2025-01-29 10:35:52,0.0
-794.7999999999993,840.4,-1121.2000000000007,-3246.3,-12126.2,-32.19999999999999,2025-01-29 10:35:52,0.0
-318.7999999999993,848.4,558.7999999999993,-3111.3,-13921.2,847.8,2025-01-29 10:35:52,0.0
857.2000000000007,776.4,758.7999999999993,-3014.3,-11884.2,1113.8,2025-01-29 10:35:52,0.0
749.2000000000007,1732.4,1062.7999999999993,-3978.3,-8951.2,871.8,2025-01-29 10:35:52,
-606.7999999999993,1916.4,774.7999999999993,-4074.3,-5783.2,32.80000000000001,2025-01-29 10:35:52,0.0
-1170.7999999999993,1024.4,1658.7999999999993,-4029.3,-4176.2,-347.2,2025-01-29 10:35:52,0.0
-1430.7999999999993,92.39999999999998,1590.7999999999993,-3486.3,-4291.2,-463.2,2025-01-29 10:35:52,0.0
-878.7999999999993,-199.60000000000002,1382.7999999999993,-3150.3,-3939.2,-492.2,2025-01-29 10:35:52,0.0
-118.79999999999927,704.4,950.7999999999993,-2706.3,-4011.2,-797.2,2025-01-29 10:35:52,0.0
-1178.7999999999993,1764.4,1626.7999999999993,-3201.3,-4865.2,-576.2,2025-01-29 10:35:53,0.0
-1510.7999999999993,1952.4,3190.7999999999993,-3094.3,-5884.2,-592.2,2025-01-29 10:35:53,0.0
-2174.7999999999993,1772.4,3434.7999999999993,-2594.3,-6898.2,-642.2,2025-01-29 10:35:53,0.0
-2070.7999999999993,1276.4,3634.7999999999993,-2399.3,-7514.2,-269.2,2025-01-29 10:35:53,0.0
-1534.7999999999993,820.4,4374.799999999999,-2120.3,-7338.2,-217.2,2025-01-29 10:35:53,0.0
-1666.7999999999993,1604.4,4610.799999999999,-1699.3,-6918.2,-777.2,2025-01-29 10:35:53,0.0
-2978.7999999999993,1824.4,4074.7999999999993,-1618.3,-7148.2,-818.2,2025-01-29 10:35:53,0.0
-3934.7999999999993,1812.4,4110.799999999999,-1560.3,-7618.2,-227.2,2025-01-29 10:35:53,0.0
-3510.7999999999993,1572.4,4534.799999999999,-1413.3,-7413.2,247.8,2025-01-29 10:35:53,0.0
-2930.7999999999993,1048.4,5150.799999999999,-1163.3,-6832.2,617.8,2025-01-29 10:35:53,0.0
-2650.7999999999993,356.4,7302.799999999999,-755.3,-6690.2,840.8,2025-01-29 10:35:53,0.0
-3038.7999999999993,-147.60000000000002,8066.799999999999,-524.3,-5031.2,472.8,2025-01-29 10:35:53,0.0
-4246.799999999999,1072.4,5698.799999999999,-942.3,-2793.2,24.80000000000001,2025-01-29 10:35:53,0.0
-5138.799999999999,1884.4,3274.7999999999993,-1397.3,-2070.2,-456.2,2025-01-29 10:35:53,0.0
-4218.799999999999,1424.4,3906.7999999999993,-1241.3,-4092.2,-641.2,2025-01-29 10:35:53,0.0
-2486.7999999999993,956.4,4322.799999999999,-876.3,-6859.2,-414.2,2025-01-29 10:35:53,0.0
-486.7999999999993,536.4,4090.7999999999993,-734.3,-7038.2,-166.2,2025-01-29 10:35:53,0.0
-2194.7999999999993,940.4,5038.799999999999,-1233.3,-4056.2,-1.1999999999999886,2025-01-29 10:35:53,0.0
-4294.799999999999,1120.4,5662.799999999999,-1255.3,-2008.2,363.8,2025-01-29 10:35:53,0.0
-6426.799999999999,1092.4,4926.799999999999,-1192.3,-3053.2,4.800000000000011,2025-01-29 10:35:53,0.0
-6970.799999999999,12.399999999999977,5446.799999999999,-927.3,-5281.2,-444.2,2025-01-29 10:35:53,0.0
-6302.799999999999,-367.6,5362.799999999999,-652.3,-6721.2,-453.2,2025-01-29 10:35:53,0.0
-5094.799999999999,560.4,7242.799999999999,66.7,-6610.2,-432.2,2025-01-29 10:35:53,0.0
-4530.799999999999,2336.4,7422.799999999999,451.7,-5829.2,-295.2,2025-01-29 10:35:53,0.0
-3486.7999999999993,2412.4,7322.799999999999,713.7,-4592.2,-616.2,2025-01-29 10:35:53,0.0
-4430.799999999999,1560.4,6714.799999999999,869.7,-3611.2,-1056.2,2025-01-29 10:35:53,0.0
-5882.799999999999,668.4,6642.799999999999,804.7,-3739.2,-583.2,2025-01-29 10:35:53,0.0
-5654.799999999999,736.4,7370.799999999999,1085.7,-4011.2,-41.19999999999999,2025-01-29 10:35:53,0.0
-4642.799999999999,1516.4,7594.799999999999,1408.7,-3828.2,-188.2,2025-01-29 10:35:53,0.0
-3522.7999999999993,1880.4,7390.799999999999,1827.7,-3846.2,-785.2,2025-01-29 10:35:53,0.0
-3098.7999999999993,2016.4,7734.799999999999,2347.7,-3779.2,-1075.2,2025-01-29 10:35:53,0.0
-3442.7999999999993,1796.4,7638.799999999999,2608.7,-3374.2,-873.2,2025-01-29 10:35:53,0.0
-4238.799999999999,1380.4,7134.799999999999,2513.7,-2334.2,-355.2,2025-01-29 10:35:53,0.0
-4234.799999999999,1396.4,6030.799999999999,2311.7,-1994.2,350.8,2025-01-29 10:35:53,0.0
-3118.7999999999993,1832.4,5662.799999999999,2080.7,-2917.2,690.8,2025-01-29 10:35:53,0.0
-1726.7999999999993,1976.4,6038.799999999999,1883.7,-3971.2,323.8,2025-01-29 10:35:53,0.0
-1034.7999999999993,1672.4,6758.799999999999,1810.7,-4058.2,-81.19999999999999,2025-01-29 10:35:53,0.0
-1546.7999999999993,1196.4,7102.799999999999,1657.7,-3552.2,-345.2,2025-01-29 10:35:53,0.0
-4178.799999999999,880.4,7642.799999999999,1397.7,-3536.2,-133.2,2025-01-29 10:35:53,0.0
-3522.7999999999993,264.4,6714.799999999999,1224.7,-3270.2,491.8,2025-01-29 10:35:53,0.0
-3246.7999999999993,268.4,6954.799999999999,1025.7,-3839.2,700.8,2025-01-29 10:35:53,0.0
-3294.7999999999993,8.399999999999977,8902.8,1161.7,-4502.2,421.8,2025-01-29 10:35:53,0.0
-2030.7999999999993,-111.60000000000002,9942.8,1593.7,-4664.2,-333.2,2025-01-29 10:35:53,0.0
-2238.7999999999993,124.39999999999998,9566.8,1676.7,-3670.2,-812.2,2025-01-29 10:35:53,0.0
-3150.7999999999993,656.4,9014.8,1643.7,-2699.2,-824.2,2025-01-29 10:35:53,0.0
-3990.7999999999993,972.4,8474.8,1503.7,-2310.2,-734.2,2025-01-29 10:35:53,0.0
-4766.799999999999,1096.4,8642.8,1320.7,-2214.2,-431.2,2025-01-29 10:35:53,0.0
-5510.799999999999,840.4,9238.8,1173.7,-2439.2,31.80000000000001,2025-01-29 10:35:53,0.0
-5518.799999999999,536.4,9614.8,1103.7,-2776.2,517.8,2025-01-29 10:35:53,0.0
-4330.799999999999,892.4,9578.8,919.7,-3124.2,538.8,2025-01-29 10:35:53,0.0
-3662.7999999999993,752.4,9938.8,873.7,-3457.2,308.8,2025-01-29 10:35:53,0.0
-3550.7999999999993,696.4,10414.8,844.7,-2991.2,287.8,2025-01-29 10:35:53,0.0
-3322.7999999999993,692.4,10402.8,884.7,-2456.2,579.8,2025-01-29 10:35:53,0.0
-2990.7999999999993,868.4,10282.8,799.7,-1549.2,741.8,2025-01-29 10:35:53,0.0
-3098.7999999999993,1068.4,10570.8,808.7,-1038.2,785.8,2025-01-29 10:35:53,0.0
-3010.7999999999993,972.4,10342.8,780.7,-846.2,681.8,2025-01-29 10:35:53,0.0
-3082.7999999999993,1012.4,10110.8,816.7,-890.2,473.8,2025-01-29 10:35:53,0.0
-2842.7999999999993,984.4,9726.8,829.7,-1159.2,259.8,2025-01-29 10:35:53,0.0
-2634.7999999999993,1120.4,9914.8,665.7,-1650.2,195.8,2025-01-29 10:35:53,0.0
-2390.7999999999993,1276.4,9994.8,559.7,-1742.2,99.80000000000001,2025-01-29 10:35:53,0.0
-2086.7999999999993,1172.4,10170.8,603.7,-1574.2,-234.2,2025-01-29 10:35:53,0.0
-1714.7999999999993,688.4,9814.8,657.7,-746.2,-334.2,2025-01-29 10:35:54,0.0
-2034.7999999999993,656.4,9378.8,589.7,-397.2,-423.2,2025-01-29 10:35:54,0.0
-2902.7999999999993,588.4,9474.8,590.7,-410.2,-343.2,2025-01-29 10:35:54,0.0
-3242.7999999999993,768.4,8942.8,461.7,-396.2,-65.19999999999999,2025-01-29 10:35:54,0.0
-3322.7999999999993,800.4,9162.8,300.7,-644.2,67.80000000000001,2025-01-29 10:35:54,0.0
-3362.7999999999993,940.4,9534.8,182.7,-646.2,165.8,2025-01-29 10:35:54,0.0
-3294.7999999999993,1012.4,9658.8,66.7,-344.2,153.8,2025-01-29 10:35:54,0.0
-3710.7999999999993,708.4,9714.8,37.7,-48.19999999999999,158.8,2025-01-29 10:35:54,0.0
-3538.7999999999993,804.4,9866.8,73.7,-145.2,140.8,2025-01-29 10:35:54,0.0
-3258.7999999999993,908.4,9846.8,134.7,-252.2,4.800000000000011,2025-01-29 10:35:54,0.0
-3254.7999999999993,1036.4,9962.8,224.7,-364.2,-116.19999999999999,2025-01-29 10:35:54,0.0
-3250.7999999999993,1036.4,10298.8,295.7,-344.2,-208.2,2025-01-29 10:35:54,0.0
-3138.7999999999993,1084.4,10106.8,318.7,-246.2,-228.2,2025-01-29 10:35:54,0.0
-3142.7999999999993,1080.4,10234.8,392.7,-189.2,-263.2,2025-01-29 10:35:54,0.0
-2974.7999999999993,1180.4,10226.8,345.7,-75.19999999999999,-301.2,2025-01-29 10:35:54,0.0
-3010.7999999999993,1196.4,10038.8,292.7,8.800000000000011,-362.2,2025-01-29 10:35:54,0.0
-3078.7999999999993,1280.4,10126.8,198.7,65.80000000000001,-382.2,2025-01-29 10:35:54,0.0
-3206.7999999999993,1220.4,9846.8,78.7,181.8,-350.2,2025-01-29 10:35:54,0.0
-3274.7999999999993,1200.4,9698.8,-26.299999999999997,177.8,-264.2,2025-01-29 10:35:54,0.0
-3246.7999999999993,1040.4,9618.8,-136.3,128.8,-179.2,2025-01-29 10:35:54,0.0
-3234.7999999999993,932.4,9482.8,-256.3,130.8,-121.19999999999999,2025-01-29 10:35:54,0.0
-3182.7999999999993,792.4,9518.8,-337.3,4.800000000000011,-26.19999999999999,2025-01-29 10:35:54,0.0
-3174.7999999999993,880.4,9682.8,-343.3,-78.19999999999999,0.8000000000000114,2025-01-29 10:35:54,0.0
-3174.7999999999993,800.4,9854.8,-374.3,-36.19999999999999,-22.19999999999999,2025-01-29 10:35:54,0.0
-3122.7999999999993,892.4,9770.8,-375.3,17.80000000000001,-75.19999999999999,2025-01-29 10:35:54,0.0
-3214.7999999999993,776.4,9706.8,-356.3,77.80000000000001,-157.2,2025-01-29 10:35:54,0.0
-3194.7999999999993,776.4,9746.8,-363.3,82.80000000000001,-200.2,2025-01-29 10:35:54,0.0
-3318.7999999999993,668.4,9822.8,-387.3,182.8,-224.2,2025-01-29 10:35:54,0.0
-3450.7999999999993,696.4,9650.8,-355.3,162.8,-234.2,2025-01-29 10:35:54,0.0
-3290.7999999999993,712.4,9474.8,-351.3,-29.19999999999999,-157.2,2025-01-29 10:35:54,0.0
-3178.7999999999993,540.4,9570.8,-334.3,-261.2,-79.19999999999999,2025-01-29 10:35:54,0.0
-3266.7999999999993,732.4,9846.8,-336.3,-250.2,-41.19999999999999,2025-01-29 10:35:54,0.0
-3170.7999999999993,596.4,9758.8,-333.3,-301.2,-89.19999999999999,2025-01-29 10:35:54,0.0
-3146.7999999999993,736.4,9822.8,-338.3,-379.2,-114.19999999999999,2025-01-29 10:35:54,
-3138.7999999999993,736.4,9846.8,-329.3,-367.2,-187.2,2025-01-29 10:35:54,0.0
-3198.7999999999993,756.4,9854.8,-296.3,-302.2,-194.2,2025-01-29 10:35:54,0.0
-3198.7999999999993,732.4,9686.8,-323.3,-281.2,-174.2,2025-01-29 10:35:54,0.0
-3294.7999999999993,656.4,9950.8,-358.3,-250.2,-108.19999999999999,2025-01-29 10:35:54,0.0
-3198.7999999999993,636.4,9810.8,-375.3,-296.2,-40.19999999999999,2025-01-29 10:35:54,0.0
-3286.7999999999993,624.4,9698.8,-415.3,-295.2,-9.199999999999989,2025-01-29 10:35:54,0.0
-3154.7999999999993,668.4,10078.8,-425.3,-307.2,-13.199999999999989,2025-01-29 10:35:54,0.0
-3162.7999999999993,848.4,10062.8,-404.3,-255.2,-53.19999999999999,2025-01-29 10:35:54,0.0
-3218.7999999999993,820.4,9998.8,-368.3,-170.2,-62.19999999999999,2025-01-29 10:35:54,0.0
-3110.7999999999993,904.4,10002.8,-422.3,-131.2,-63.19999999999999,2025-01-29 10:35:54,0.0
-3138.7999999999993,792.4,10022.8,-431.3,-60.19999999999999,-51.19999999999999,2025-01-29 10:35:54,0.0
-3190.7999999999993,840.4,10034.8,-438.3,4.800000000000011,-59.19999999999999,2025-01-29 10:35:54,0.0
-3210.7999999999993,768.4,10018.8,-443.3,13.800000000000011,-56.19999999999999,2025-01-29 10:35:54,0.0
-3322.7999999999993,844.4,9954.8,-441.3,39.80000000000001,-47.19999999999999,2025-01-29 10:35:54,0.0
-3178.7999999999993,740.4,10018.8,-436.3,-10.199999999999989,-16.19999999999999,2025-01-29 10:35:54,0.0
-3354.7999999999993,768.4,9930.8,-445.3,-15.199999999999989,-11.199999999999989,2025-01-29 10:35:54,0.0
-3198.7999999999993,700.4,9982.8,-446.3,7.800000000000011,14.800000000000011,2025-01-29 10:35:54,0.0
-3194.7999999999993,716.4,10006.8,-468.3,74.80000000000001,34.80000000000001,2025-01-29 10:35:54,0.0
-3194.7999999999993,720.4,9922.8,-480.3,105.80000000000001,45.80000000000001,2025-01-29 10:35:54,0.0
-3294.7999999999993,780.4,9702.8,-469.3,70.80000000000001,8.800000000000011,2025-01-29 10:35:54,0.0
-3198.7999999999993,856.4,9826.8,-438.3,33.80000000000001,-6.199999999999989,2025-01-29 10:35:54,0.0
-3110.7999999999993,812.4,9930.8,-421.3,-13.199999999999989,18.80000000000001,2025-01-29 10:35:54,0.0
-3170.7999999999993,800.4,9530.8,-401.3,9.800000000000011,-13.199999999999989,2025-01-29 10:35:54,0.0
-3214.7999999999993,840.4,9834.8,-373.3,-17.19999999999999,-24.19999999999999,2025-01-29 10:35:55,0.0
-3186.7999999999993,712.4,9826.8,-394.3,-16.19999999999999,-14.199999999999989,2025-01-29 10:35:55,0.0
-3286.7999999999993,688.4,9778.8,-382.3,-75.19999999999999,9.800000000000011,2025-01-29 10:35:55,0.0
-3202.7999999999993,820.4,9866.8,-371.3,-76.19999999999999,15.800000000000011,2025-01-29 10:35:55,0.0
-3114.7999999999993,784.4,9754.8,-364.3,-97.19999999999999,35.80000000000001,2025-01-29 10:35:55,0.0
-3122.7999999999993,792.4,9698.8,-369.3,-109.19999999999999,11.800000000000011,2025-01-29 10:35:55,0.0
-3210.7999999999993,720.4,10050.8,-396.3,-95.19999999999999,-3.1999999999999886,2025-01-29 10:35:55,0.0
-3286.7999999999993,764.4,9862.8,-362.3,-95.19999999999999,-13.199999999999989,2025-01-29 10:35:55,0.0
-3206.7999999999993,724.4,9906.8,-358.3,-75.19999999999999,-3.1999999999999886,2025-01-29 10:35:55,0.0
-3238.7999999999993,580.4,9858.8,-345.3,-86.19999999999999,59.80000000000001,2025-01-29 10:35:55,0.0
-3242.7999999999993,708.4,9698.8,-341.3,-113.19999999999999,121.80000000000001,2025-01-29 10:35:55,0.0
-3078.7999999999993,692.4,9870.8,-327.3,-100.19999999999999,134.8,2025-01-29 10:35:55,0.0
-3098.7999999999993,700.4,9906.8,-318.3,-165.2,136.8,2025-01-29 10:35:55,0.0
-3270.7999999999993,720.4,9918.8,-337.3,-122.19999999999999,106.80000000000001,2025-01-29 10:35:55,0.0
-3194.7999999999993,792.4,10130.8,-334.3,-53.19999999999999,54.80000000000001,2025-01-29 10:35:55,0.0
-3214.7999999999993,788.4,10006.8,-311.3,123.80000000000001,-49.19999999999999,2025-01-29 10:35:55,0.0
-3110.7999999999993,844.4,9866.8,-263.3,77.80000000000001,-114.19999999999999,2025-01-29 10:35:55,0.0
-3250.7999999999993,908.4,9642.8,-247.3,-9.199999999999989,-94.19999999999999,2025-01-29 10:35:55,0.0
-3250.7999999999993,960.4,9866.8,-245.3,-57.19999999999999,-74.19999999999999,2025-01-29 10:35:55,0.0
-3190.7999999999993,860.4,9806.8,-195.3,-132.2,-56.19999999999999,2025-01-29 10:35:55,0.0
-3066.7999999999993,916.4,9866.8,-236.3,-105.19999999999999,-67.19999999999999,2025-01-29 10:35:55,0.0
-3118.7999999999993,984.4,9910.8,-245.3,-94.19999999999999,-73.19999999999999,2025-01-29 10:35:55,0.0
-3166.7999999999993,932.4,9826.8,-275.3,-53.19999999999999,-91.19999999999999,2025-01-29 10:35:55,0.0
-3066.7999999999993,796.4,9874.8,-250.3,32.80000000000001,-101.19999999999999,2025-01-29 10:35:55,0.0
-3270.7999999999993,844.4,9882.8,-285.3,7.800000000000011,-64.19999999999999,2025-01-29 10:35:55,0.0
-3170.7999999999993,820.4,9882.8,-262.3,23.80000000000001,-87.19999999999999,2025-01-29 10:35:55,0.0
-3162.7999999999993,780.4,9786.8,-246.3,33.80000000000001,-84.19999999999999,2025-01-29 10:35:55,0.0
-3214.7999999999993,788.4,9722.8,-230.3,20.80000000000001,-87.19999999999999,2025-01-29 10:35:55,0.0
-3218.7999999999993,724.4,9866.8,-189.3,-37.19999999999999,-46.19999999999999,2025-01-29 10:35:55,0.0
-3158.7999999999993,812.4,9854.8,-212.3,-35.19999999999999,-49.19999999999999,2025-01-29 10:35:55,0.0
-3086.7999999999993,812.4,9810.8,-180.3,1.8000000000000114,-82.19999999999999,2025-01-29 10:35:55,0.0
-3218.7999999999993,804.4,9790.8,-173.3,8.800000000000011,-88.19999999999999,2025-01-29 10:35:55,0.0
-3270.7999999999993,836.4,9722.8,-139.3,-12.199999999999989,-94.19999999999999,2025-01-29 10:35:55,0.0
-3190.7999999999993,780.4,9846.8,-136.3,-33.19999999999999,-87.19999999999999,2025-01-29 10:35:55,0.0
-3226.7999999999993,832.4,9742.8,-150.3,-67.19999999999999,-32.19999999999999,2025-01-29 10:35:55,0.0
-3202.7999999999993,896.4,9890.8,-142.3,-63.19999999999999,-56.19999999999999,2025-01-29 10:35:55,0.0
-3206.7999999999993,804.4,9970.8,-109.3,-88.19999999999999,-62.19999999999999,2025-01-29 10:35:55,0.0
-3182.7999999999993,692.4,9898.8,-125.3,-89.19999999999999,-33.19999999999999,2025-01-29 10:35:55,0.0
-3170.7999999999993,644.4,9926.8,-84.3,-49.19999999999999,-13.199999999999989,2025-01-29 10:35:55,0.0
-3226.7999999999993,724.4,9846.8,-83.3,-21.19999999999999,-30.19999999999999,2025-01-29 10:35:55,0.0
-3274.7999999999993,700.4,9678.8,-102.3,-3.1999999999999886,-30.19999999999999,2025-01-29 10:35:55,0.0
-3234.7999999999993,804.4,9558.8,-66.3,-17.19999999999999,-55.19999999999999,2025-01-29 10:35:55,0.0
-3258.7999999999993,812.4,9670.8,-66.3,-31.19999999999999,-42.19999999999999,2025-01-29 10:35:55,0.0
-3270.7999999999993,764.4,9910.8,-72.3,-48.19999999999999,-34.19999999999999,2025-01-29 10:35:55,0.0
-3094.7999999999993,692.4,9894.8,-94.3,-49.19999999999999,-2.1999999999999886,2025-01-29 10:35:55,0.0
-3178.7999999999993,664.4,9814.8,-63.3,-18.19999999999999,-16.19999999999999,2025-01-29 10:35:55,0.0
-3166.7999999999993,692.4,9930.8,-82.3,-66.19999999999999,-15.199999999999989,2025-01-29 10:35:55,0.0
-3094.7999999999993,764.4,9834.8,-85.3,-60.19999999999999,-18.19999999999999,2025-01-29 10:35:55,0.0
-3102.7999999999993,768.4,9906.8,-65.3,-69.19999999999999,1.8000000000000114,2025-01-29 10:35:55,0.0
-3118.7999999999993,860.4,9822.8,-76.3,-111.19999999999999,-3.1999999999999886,2025-01-29 10:35:55,0.0
-3102.7999999999993,788.4,9826.8,-84.3,-70.19999999999999,-25.19999999999999,2025-01-29 10:35:55,0.0
-3186.7999999999993,780.4,9802.8,-43.3,-17.19999999999999,-57.19999999999999,2025-01-29 10:35:55,0.0
-3178.7999999999993,796.4,9626.8,-74.3,-8.199999999999989,-45.19999999999999,2025-01-29 10:35:55,0.0
-3346.7999999999993,748.4,9730.8,-97.3,-22.19999999999999,-5.199999999999989,2025-01-29 10:35:55,0.0
-3238.7999999999993,640.4,9782.8,-96.3,-58.19999999999999,13.800000000000011,2025-01-29 10:35:55,0.0
-3190.7999999999993,748.4,9774.8,-101.3,-32.19999999999999,5.800000000000011,2025-01-29 10:35:55,0.0
-3234.7999999999993,768.4,10006.8,-114.3,41.80000000000001,-4.199999999999989,2025-01-29 10:35:55,0.0
-3310.7999999999993,768.4,9682.8,-84.3,27.80000000000001,-52.19999999999999,2025-01-29 10:35:55,0.0
-3210.7999999999993,828.4,9666.8,-84.3,-150.2,7.800000000000011,2025-01-29 10:35:55,0.0
-3278.7999999999993,828.4,9822.8,-86.3,-189.2,12.800000000000011,2025-01-29 10:35:55,0.0
-3222.7999999999993,776.4,9826.8,-100.3,-183.2,30.80000000000001,2025-01-29 10:35:55,0.0
-3162.7999999999993,816.4,9974.8,-101.3,-176.2,10.800000000000011,2025-01-29 10:35:55,0.0
-3090.7999999999993,760.4,10058.8,-89.3,-86.19999999999999,-42.19999999999999,2025-01-29 10:35:55,0.0
-3138.7999999999993,760.4,9834.8,-87.3,-60.19999999999999,-31.19999999999999,2025-01-29 10:35:56,0.0
-3186.7999999999993,616.4,9902.8,-102.3,-47.19999999999999,-10.199999999999989,2025-01-29 10:35:56,0.0
-3250.7999999999993,768.4,9770.8,-111.3,-50.19999999999999,-3.1999999999999886,2025-01-29 10:35:56,0.0
-3186.7999999999993,756.4,9758.8,-123.3,-77.19999999999999,-6.199999999999989,2025-01-29 10:35:56,0.0
-3346.7999999999993,672.4,9798.8,-108.3,-95.19999999999999,-6.199999999999989,2025-01-29 10:35:56,0.0
-3218.7999999999993,684.4,9898.8,-130.3,-92.19999999999999,-36.19999999999999,2025-01-29 10:35:56,0.0
-3162.7999999999993,720.4,9774.8,-112.3,-150.2,-16.19999999999999,2025-01-29 10:35:56,0.0
-3234.7999999999993,656.4,9826.8,-91.3,-113.19999999999999,-6.199999999999989,2025-01-29 10:35:56,0.0
-3130.7999999999993,772.4,9834.8,-117.3,-100.19999999999999,-4.199999999999989,2025-01-29 10:35:56,0.0
-3190.7999999999993,712.4,9766.8,-102.3,-83.19999999999999,1.8000000000000114,2025-01-29 10:35:56,0.0
-3234.7999999999993,696.4,9794.8,-116.3,-99.19999999999999,-22.19999999999999,2025-01-29 10:35:56,0.0
-3214.7999999999993,844.4,9750.8,-120.3,-106.19999999999999,1.8000000000000114,2025-01-29 10:35:56,0.0
-3142.7999999999993,876.4,9950.8,-122.3,-142.2,14.800000000000011,2025-01-29 10:35:56,0.0
-3078.7999999999993,776.4,9866.8,-123.3,-107.19999999999999,-0.19999999999998863,2025-01-29 10:35:56,
-3206.7999999999993,752.4,9870.8,-125.3,-78.19999999999999,-12.199999999999989,2025-01-29 10:35:56,0.0
-3170.7999999999993,808.4,9914.8,-120.3,-66.19999999999999,-37.19999999999999,2025-01-29 10:35:56,0.0
-3138.7999999999993,852.4,9670.8,-125.3,-50.19999999999999,-15.199999999999989,2025-01-29 10:35:56,0.0
-3170.7999999999993,768.4,9826.8,-84.3,-52.19999999999999,-14.199999999999989,2025-01-29 10:35:56,0.0
-3158.7999999999993,732.4,9794.8,-104.3,-19.19999999999999,-39.19999999999999,2025-01-29 10:35:56,0.0
-3210.7999999999993,796.4,9858.8,-131.3,-20.19999999999999,-16.19999999999999,2025-01-29 10:35:56,0.0
-3154.7999999999993,772.4,9850.8,-103.3,-22.19999999999999,-42.19999999999999,2025-01-29 10:35:56,0.0
-3138.7999999999993,848.4,9670.8,-114.3,-5.199999999999989,-32.19999999999999,2025-01-29 10:35:56,0.0
-3134.7999999999993,740.4,9758.8,-136.3,-6.199999999999989,-9.199999999999989,2025-01-29 10:35:56,0.0
-3162.7999999999993,780.4,9734.8,-128.3,-54.19999999999999,0.8000000000000114,2025-01-29 10:35:56,0.0
-3242.7999999999993,768.4,9830.8,-137.3,-47.19999999999999,-23.19999999999999,2025-01-29 10:35:56,0.0
-3210.7999999999993,732.4,9762.8,-146.3,-58.19999999999999,-1.1999999999999886,2025-01-29 10:35:56,0.0
-3254.7999999999993,804.4,9930.8,-132.3,-56.19999999999999,12.800000000000011,2025-01-29 10:35:56,0.0
-3254.7999999999993,728.4,9798.8,-129.3,-28.19999999999999,3.8000000000000114,2025-01-29 10:35:56,0.0
-3178.7999999999993,712.4,9738.8,-136.3,-47.19999999999999,-3.1999999999999886,2025-01-29 10:35:56,0.0
-3150.7999999999993,676.4,9782.8,-125.3,-32.19999999999999,-16.19999999999999,2025-01-29 10:35:56,0.0
-3178.7999999999993,776.4,9814.8,-124.3,-24.19999999999999,-50.19999999999999,2025-01-29 10:35:56,0.0
-3214.7999999999993,752.4,9890.8,-94.3,-13.199999999999989,-33.19999999999999,2025-01-29 10:35:56,0.0
-3226.7999999999993,780.4,9666.8,-118.3,-49.19999999999999,-4.199999999999989,2025-01-29 10:35:56,0.0
-3142.7999999999993,736.4,9746.8,-104.3,-63.19999999999999,-19.19999999999999,2025-01-29 10:35:56,0.0
-3226.7999999999993,740.4,9754.8,-105.3,13.800000000000011,-26.19999999999999,2025-01-29 10:35:56,0.0
-3362.7999999999993,824.4,9674.8,-105.3,87.80000000000001,-19.19999999999999,2025-01-29 10:35:56,0.0
-3158.7999999999993,788.4,9682.8,-64.3,-55.19999999999999,-3.1999999999999886,2025-01-29 10:35:56,0.0
-3146.7999999999993,836.4,9638.8,-71.3,-143.2,5.800000000000011,2025-01-29 10:35:56,0.0
-3278.7999999999993,796.4,9878.8,-54.3,-155.2,11.800000000000011,2025-01-29 10:35:56,0.0
-3086.7999999999993,936.4,9718.8,-70.3,-200.2,-26.19999999999999,2025-01-29 10:35:56,0.0
-3186.7999999999993,860.4,9810.8,-60.3,-155.2,-44.19999999999999,2025-01-29 10:35:56,0.0
-3150.7999999999993,812.4,9818.8,-98.3,-93.19999999999999,-64.19999999999999,2025-01-29 10:35:56,0.0
-3206.7999999999993,688.4,9694.8,-96.3,-73.19999999999999,-27.19999999999999,2025-01-29 10:35:56,0.0
-3106.7999999999993,804.4,9626.8,-110.3,-56.19999999999999,-27.19999999999999,2025-01-29 10:35:56,0.0
-3210.7999999999993,736.4,9778.8,-130.3,-74.19999999999999,9.800000000000011,2025-01-29 10:35:56,0.0
-3186.7999999999993,744.4,9610.8,-115.3,-95.19999999999999,-47.19999999999999,2025-01-29 10:35:56,0.0
-3218.7999999999993,776.4,9802.8,-132.3,-110.19999999999999,-45.19999999999999,2025-01-29 10:35:56,0.0
-3150.7999999999993,664.4,9846.8,-115.3,-133.2,-33.19999999999999,2025-01-29 10:35:56,0.0
-3222.7999999999993,708.4,9810.8,-117.3,-136.2,-30.19999999999999,2025-01-29 10:35:56,0.0
-3154.7999999999993,812.4,9818.8,-131.3,-105.19999999999999,-19.19999999999999,2025-01-29 10:35:56,0.0
-3190.7999999999993,748.4,9710.8,-125.3,-75.19999999999999,-23.19999999999999,2025-01-29 10:35:56,0.0
-3194.7999999999993,700.4,9782.8,-109.3,-71.19999999999999,-26.19999999999999,2025-01-29 10:35:56,0.0
-3054.7999999999993,836.4,9774.8,-87.3,-69.19999999999999,-12.199999999999989,2025-01-29 10:35:56,0.0
-3226.7999999999993,756.4,9726.8,-89.3,-90.19999999999999,-21.19999999999999,2025-01-29 10:35:56,0.0
-3194.7999999999993,820.4,9854.8,-97.3,-105.19999999999999,-31.19999999999999,2025-01-29 10:35:56,0.0
-3194.7999999999993,780.4,9670.8,-107.3,-99.19999999999999,-36.19999999999999,2025-01-29 10:35:56,0.0
-3146.7999999999993,756.4,9822.8,-81.3,-92.19999999999999,-25.19999999999999,2025-01-29 10:35:56,0.0
-3110.7999999999993,752.4,9786.8,-113.3,-81.19999999999999,-36.19999999999999,2025-01-29 10:35:56,0.0
-3166.7999999999993,700.4,9846.8,-115.3,-54.19999999999999,-15.199999999999989,2025-01-29 10:35:56,0.0
-3234.7999999999993,712.4,9706.8,-98.3,-75.19999999999999,-8.199999999999989,2025-01-29 10:35:56,0.0
-3226.7999999999993,752.4,9946.8,-125.3,-84.19999999999999,-13.199999999999989,2025-01-29 10:35:56,0.0
-3234.7999999999993,816.4,9730.8,-113.3,-75.19999999999999,-29.19999999999999,2025-01-29 10:35:56,0.0
-3226.7999999999993,836.4,9794.8,-125.3,-77.19999999999999,-33.19999999999999,2025-01-29 10:35:57,0.0
-3246.7999999999993,788.4,9746.8,-107.3,-39.19999999999999,-48.19999999999999,2025-01-29 10:35:57,0.0
-3198.7999999999993,708.4,9898.8,-116.3,-38.19999999999999,-31.19999999999999,2025-01-29 10:35:57,0.0
-3198.7999999999993,716.4,9722.8,-113.3,-26.19999999999999,-30.19999999999999,2025-01-29 10:35:57,0.0
-3210.7999999999993,652.4,9822.8,-146.3,-38.19999999999999,-33.19999999999999,2025-01-29 10:35:57,0.0
-3170.7999999999993,748.4,9790.8,-143.3,-45.19999999999999,-21.19999999999999,2025-01-29 10:35:57,0.0
-3178.7999999999993,792.4,9822.8,-113.3,-49.19999999999999,-27.19999999999999,2025-01-29 10:35:57,0.0
-3270.7999999999993,764.4,9762.8,-93.3,-71.19999999999999,-20.19999999999999,2025-01-29 10:35:57,0.0
-3198.7999999999993,788.4,9826.8,-94.3,-90.19999999999999,-18.19999999999999,2025-01-29 10:35:57,0.0
-3266.7999999999993,780.4,9802.8,-121.3,-97.19999999999999,-4.199999999999989,2025-01-29 10:35:57,0.0
-3038.7999999999993,880.4,9670.8,-117.3,-72.19999999999999,-23.19999999999999,2025-01-29 10:35:57,0.0
-3118.7999999999993,756.4,9798.8,-110.3,-81.19999999999999,-25.19999999999999,2025-01-29 10:35:57,0.0
-3070.7999999999993,684.4,9794.8,-98.3,58.80000000000001,-77.19999999999999,2025-01-29 10:35:57,0.0
-3226.7999999999993,716.4,9666.8,10.700000000000003,61.80000000000001,-130.2,2025-01-29 10:35:57,0.0
-3166.7999999999993,668.4,9594.8,27.700000000000003,-63.19999999999999,-37.19999999999999,2025-01-29 10:35:57,0.0
-3254.7999999999993,540.4,9550.8,30.700000000000003,-124.19999999999999,34.80000000000001,2025-01-29 10:35:57,0.0
-3370.7999999999993,668.4,9750.8,27.700000000000003,-54.19999999999999,-13.199999999999989,2025-01-29 10:35:57,0.0
-3294.7999999999993,720.4,9638.8,96.7,8.800000000000011,-112.19999999999999,2025-01-29 10:35:57,0.0
-3158.7999999999993,928.4,9630.8,179.7,-62.19999999999999,-132.2,2025-01-29 10:35:57,0.0
-3150.7999999999993,860.4,9486.8,232.7,-25.19999999999999,-148.2,2025-01-29 10:35:57,0.0
-2926.7999999999993,960.4,9526.8,286.7,-63.19999999999999,-147.2,2025-01-29 10:35:57,0.0
-2918.7999999999993,884.4,9530.8,315.7,-159.2,-60.19999999999999,2025-01-29 10:35:57,0.0
-2762.7999999999993,784.4,9598.8,276.7,-214.2,-47.19999999999999,2025-01-29 10:35:57,0.0
-3178.7999999999993,688.4,10030.8,230.7,-424.2,-81.19999999999999,2025-01-29 10:35:57,0.0
-3442.7999999999993,480.4,10018.8,190.7,-401.2,-94.19999999999999,2025-01-29 10:35:57,0.0
-3482.7999999999993,248.39999999999998,10214.8,227.7,-391.2,-48.19999999999999,2025-01-29 10:35:57,0.0
-3378.7999999999993,188.39999999999998,10302.8,261.7,-349.2,42.80000000000001,2025-01-29 10:35:57,0.0
-3130.7999999999993,260.4,10370.8,364.7,-159.2,45.80000000000001,2025-01-29 10:35:57,0.0
-3102.7999999999993,576.4,10174.8,428.7,-79.19999999999999,78.80000000000001,2025-01-29 10:35:57,0.0
-3210.7999999999993,768.4,9754.8,360.7,-103.19999999999999,188.8,2025-01-29 10:35:57,0.0
-3166.7999999999993,888.4,9898.8,211.7,-163.2,209.8,2025-01-29 10:35:57,0.0
-3110.7999999999993,944.4,9754.8,64.7,-53.19999999999999,195.8,2025-01-29 10:35:57,0.0
-3102.7999999999993,664.4,9910.8,-42.3,80.80000000000001,222.8,2025-01-29 10:35:57,0.0
-3162.7999999999993,656.4,9898.8,-34.3,88.80000000000001,189.8,2025-01-29 10:35:57,0.0
-3034.7999999999993,620.4,9850.8,-11.299999999999997,25.80000000000001,205.8,2025-01-29 10:35:57,0.0
-3010.7999999999993,772.4,9734.8,75.7,-45.19999999999999,185.8,2025-01-29 10:35:57,0.0
-2918.7999999999993,896.4,9814.8,24.700000000000003,-93.19999999999999,251.8,2025-01-29 10:35:57,0.0
-2746.7999999999993,1000.4,9566.8,-89.3,4.800000000000011,329.8,2025-01-29 10:35:57,0.0
-3170.7999999999993,956.4,9690.8,-198.3,39.80000000000001,434.8,2025-01-29 10:35:57,0.0
-3326.7999999999993,1060.4,9750.8,-287.3,87.80000000000001,464.8,2025-01-29 10:35:57,0.0
-3354.7999999999993,1036.4,9642.8,-289.3,170.8,383.8,2025-01-29 10:35:57,0.0
-3314.7999999999993,1000.4,9490.8,-290.3,124.80000000000001,232.8,2025-01-29 10:35:57,0.0
-3330.7999999999993,1060.4,9646.8,-257.3,-81.19999999999999,146.8,2025-01-29 10:35:57,0.0
-2830.7999999999993,1052.4,9534.8,-280.3,-88.19999999999999,178.8,2025-01-29 10:35:57,0.0
-2594.7999999999993,980.4,9694.8,-333.3,162.8,264.8,2025-01-29 10:35:57,0.0
-2774.7999999999993,640.4,10086.8,-360.3,407.8,461.8,2025-01-29 10:35:57,0.0
-3034.7999999999993,752.4,10050.8,-312.3,834.8,568.8,2025-01-29 10:35:57,0.0
-3182.7999999999993,984.4,9746.8,-374.3,1281.8,502.8,2025-01-29 10:35:57,0.0
-3458.7999999999993,1100.4,9738.8,-303.3,1348.8,316.8,2025-01-29 10:35:57,0.0
-3126.7999999999993,920.4,9642.8,-246.3,957.8,174.8,2025-01-29 10:35:57,0.0
-2058.7999999999993,972.4,10098.8,-288.3,1070.8,124.80000000000001,2025-01-29 10:35:57,0.0
-1730.7999999999993,760.4,10202.8,-269.3,1714.8,107.80000000000001,2025-01-29 10:35:57,
-2354.7999999999993,804.4,10238.8,-320.3,2788.8,295.8,2025-01-29 10:35:57,0.0
-3506.7999999999993,1020.4,9986.8,-208.3,3738.8,358.8,2025-01-29 10:35:57,0.0
-4150.799999999999,1264.4,9442.8,-244.3,3784.8,232.8,2025-01-29 10:35:57,0.0
-3870.7999999999993,1040.4,9342.8,-316.3,3199.8,-96.19999999999999,2025-01-29 10:35:57,0.0
-3142.7999999999993,972.4,9146.8,-413.3,3017.8,-320.2,2025-01-29 10:35:57,0.0
-2754.7999999999993,1300.4,9546.8,-445.3,2835.8,-302.2,2025-01-29 10:35:57,0.0
-3270.7999999999993,1288.4,9486.8,-374.3,3498.8,-167.2,2025-01-29 10:35:57,0.0
-4442.799999999999,940.4,9294.8,-296.3,3912.8,123.80000000000001,2025-01-29 10:35:57,0.0
-5258.799999999999,1184.4,9214.8,-353.3,4209.8,242.8,2025-01-29 10:35:58,0.0
-4958.799999999999,996.4,8706.8,-414.3,4863.8,10.800000000000011,2025-01-29 10:35:58,0.0
-4186.799999999999,1120.4,9198.8,-439.3,5182.8,-568.2,2025-01-29 10:35:58,0.0
-3702.7999999999993,920.4,8914.8,-363.3,5250.8,-616.2,2025-01-29 10:35:58,0.0
-3958.7999999999993,368.4,8630.8,63.7,5212.8,-246.2,2025-01-29 10:35:58,0.0
-3826.7999999999993,304.4,8754.8,333.7,5319.8,459.8,2025-01-29 10:35:58,0.0
-3546.7999999999993,-103.60000000000002,8682.8,421.7,6846.8,494.8,2025-01-29 10:35:58,0.0
-3542.7999999999993,232.39999999999998,8638.8,129.7,8334.8,-395.2,2025-01-29 10:35:58,0.0
-4154.799999999999,1248.4,7586.799999999999,-44.3,8349.8,-975.2,2025-01-29 10:35:58,0.0
-4450.799999999999,2260.4,6650.799999999999,-369.3,8507.8,-1212.2,2025-01-29 10:35:58,0.0
-5770.799999999999,2656.4,5530.799999999999,-804.3,9469.8,-1085.2,2025-01-29 10:35:58,0.0
-7022.799999999999,-175.60000000000002,5562.799999999999,-1009.3,11359.8,1015.8,2025-01-29 10:35:58,0.0
-5010.799999999999,704.4,4782.799999999999,-706.3,7480.8,329.8,2025-01-29 10:35:58,0.0
-4406.799999999999,760.4,5006.799999999999,-366.3,6602.8,178.8,2025-01-29 10:35:58,0.0
-3874.7999999999993,1032.4,4774.799999999999,-317.3,7095.8,-64.19999999999999,2025-01-29 10:35:58,0.0
-4018.7999999999993,1304.4,4674.799999999999,-127.3,7654.8,-44.19999999999999,2025-01-29 10:35:58,0.0
-3954.7999999999993,1064.4,4058.7999999999993,33.7,7905.8,289.8,2025-01-29 10:35:58,0.0
-3990.7999999999993,1048.4,4378.799999999999,233.7,7867.8,422.8,2025-01-29 10:35:58,0.0
-3870.7999999999993,1088.4,4202.799999999999,396.7,7420.8,384.8,2025-01-29 10:35:58,0.0
-3490.7999999999993,772.4,3866.7999999999993,663.7,6481.8,218.8,2025-01-29 10:35:58,0.0
-2858.7999999999993,880.4,4234.799999999999,896.7,5936.8,-87.19999999999999,2025-01-29 10:35:58,0.0
-2570.7999999999993,1240.4,4330.799999999999,1021.7,6442.8,-417.2,2025-01-29 10:35:58,0.0
-2826.7999999999993,1268.4,3426.7999999999993,954.7,7441.8,-379.2,2025-01-29 10:35:58,0.0
-2918.7999999999993,1036.4,3050.7999999999993,759.7,8210.8,-117.19999999999999,2025-01-29 10:35:58,0.0
-2738.7999999999993,872.4,2518.7999999999993,786.7,8119.8,-147.2,2025-01-29 10:35:58,0.0
-2822.7999999999993,1040.4,1926.7999999999993,815.7,7435.8,-280.2,2025-01-29 10:35:58,0.0
-3450.7999999999993,1172.4,894.7999999999993,874.7,6290.8,-179.2,2025-01-29 10:35:58,0.0
-3410.7999999999993,1432.4,414.7999999999993,735.7,4621.8,91.80000000000001,2025-01-29 10:35:58,0.0
-2786.7999999999993,1348.4,1238.7999999999993,619.7,3110.8,447.8,2025-01-29 10:35:58,0.0
-1254.7999999999993,752.4,966.7999999999993,738.7,2392.8,580.8,2025-01-29 10:35:58,0.0
-514.7999999999993,604.4,1654.7999999999993,750.7,2574.8,499.8,2025-01-29 10:35:58,0.0
-838.7999999999993,408.4,986.7999999999993,564.7,3428.8,410.8,2025-01-29 10:35:58,0.0
-1106.7999999999993,480.4,1422.7999999999993,482.7,3921.8,246.8,2025-01-29 10:35:58,0.0
-866.7999999999993,596.4,1562.7999999999993,555.7,4155.8,199.8,2025-01-29 10:35:58,0.0
-858.7999999999993,952.4,1650.7999999999993,684.7,4187.8,9.800000000000011,2025-01-29 10:35:58,0.0
-814.7999999999993,716.4,1226.7999999999993,704.7,4019.8,93.80000000000001,2025-01-29 10:35:58,0.0
-562.7999999999993,800.4,1330.7999999999993,771.7,3645.8,96.80000000000001,2025-01-29 10:35:58,0.0
-386.7999999999993,712.4,458.7999999999993,624.7,3325.8,-96.19999999999999,2025-01-29 10:35:58,0.0
-146.79999999999927,492.4,314.7999999999993,509.7,2695.8,-146.2,2025-01-29 10:35:58,0.0
365.2000000000007,248.39999999999998,386.7999999999993,473.7,2201.8,-179.2,2025-01-29 10:35:58,0.0
693.2000000000007,332.4,938.7999999999993,765.7,1804.8,-374.2,2025-01-29 10:35:58,0.0
577.2000000000007,584.4,1126.7999999999993,988.7,1781.8,-691.2,2025-01-29 10:35:58,0.0
449.2000000000007,780.4,966.7999999999993,1071.7,1780.8,-948.2,2025-01-29 10:35:58,0.0
-1206.7999999999993,1564.4,-665.2000000000007,712.7,-688.2,-1768.2,2025-01-29 10:35:58,0.0
413.2000000000007,576.4,414.7999999999993,167.7,950.8,-886.2,2025-01-29 10:35:58,0.0
389.2000000000007,740.4,-169.20000000000073,246.7,-332.2,-705.2,2025-01-29 10:35:58,0.0
561.2000000000007,564.4,-701.2000000000007,98.7,-968.2,-527.2,2025-01-29 10:35:58,0.0
453.2000000000007,460.4,-485.2000000000007,-149.3,-1133.2,-446.2,2025-01-29 10:35:58,0.0
161.20000000000073,552.4,182.79999999999927,-119.3,-811.2,-544.2,2025-01-29 10:35:58,0.0
137.20000000000073,704.4,886.7999999999993,-38.3,-53.19999999999999,-667.2,2025-01-29 10:35:58,0.0
169.20000000000073,740.4,834.7999999999993,-100.3,850.8,-743.2,2025-01-29 10:35:58,0.0
193.20000000000073,840.4,750.7999999999993,-177.3,1173.8,-850.2,2025-01-29 10:35:58,0.0
253.20000000000073,880.4,414.7999999999993,-223.3,1756.8,-1105.2,2025-01-29 10:35:58,0.0
177.20000000000073,700.4,-17.200000000000728,-421.3,1440.8,-1349.2,2025-01-29 10:35:58,0.0
81.20000000000073,600.4,414.7999999999993,-240.3,1181.8,-1518.2,2025-01-29 10:35:58,0.0
-874.7999999999993,472.4,402.7999999999993,70.7,1854.8,-1612.2,2025-01-29 10:35:58,0.0
-394.7999999999993,360.4,262.7999999999993,19.700000000000003,1214.8,-1478.2,2025-01-29 10:35:58,0.0
-614.7999999999993,428.4,302.7999999999993,-12.299999999999997,-356.2,-986.2,2025-01-29 10:35:58,0.0
-586.7999999999993,364.4,302.7999999999993,24.700000000000003,-1791.2,-206.2,2025-01-29 10:35:58,0.0
-290.7999999999993,492.4,434.7999999999993,97.7,-3097.2,532.8,2025-01-29 10:35:58,0.0
617.2000000000007,384.4,810.7999999999993,132.7,-3935.2,780.8,2025-01-29 10:35:59,0.0
645.2000000000007,472.4,822.7999999999993,345.7,-4063.2,795.8,2025-01-29 10:35:59,0.0
461.2000000000007,324.4,1110.7999999999993,537.7,-3918.2,919.8,2025-01-29 10:35:59,0.0
565.2000000000007,260.4,1154.7999999999993,761.7,-3965.2,1063.8,2025-01-29 10:35:59,0.0
1165.2000000000007,104.39999999999998,954.7999999999993,978.7,-4066.2,1088.8,2025-01-29 10:35:59,0.0
1069.2000000000007,-79.60000000000002,606.7999999999993,1252.7,-4178.2,845.8,2025-01-29 10:35:59,0.0
1117.2000000000007,-43.60000000000002,758.7999999999993,1837.7,-4329.2,549.8,2025-01-29 10:35:59,0.0
877.2000000000007,424.4,1138.7999999999993,2365.7,-4632.2,497.8,2025-01-29 10:35:59,0.0
437.2000000000007,720.4,1474.7999999999993,2570.7,-5222.2,883.8,2025-01-29 10:35:59,0.0
533.2000000000007,824.4,1882.7999999999993,3006.7,-5759.2,1419.8,2025-01-29 10:35:59,0.0
645.2000000000007,396.4,1526.7999999999993,3341.7,-5749.2,2017.8,2025-01-29 10:35:59,0.0
1777.2000000000007,-495.6,1438.7999999999993,3716.7,-5054.2,1786.8,2025-01-29 10:35:59,0.0
2113.2000000000007,-455.6,806.7999999999993,4528.7,-4146.2,790.8,2025-01-29 10:35:59,0.0
1869.2000000000007,64.39999999999998,698.7999999999993,4895.7,-3669.2,-75.19999999999999,2025-01-29 10:35:59,0.0
1125.2000000000007,960.4,930.7999999999993,5082.7,-3447.2,-465.2,2025-01-29 10:35:59,0.0
561.2000000000007,1416.4,1106.7999999999993,4880.7,-3106.2,-513.2,2025-01-29 10:35:59,0.0
405.2000000000007,1620.4,1090.7999999999993,4380.7,-2532.2,-397.2,2025-01-29 10:35:59,0.0
445.2000000000007,1116.4,1106.7999999999993,3746.7,-2105.2,-400.2,2025-01-29 10:35:59,0.0
165.20000000000073,732.4,1462.7999999999993,3426.7,-1917.2,-343.2,2025-01-29 10:35:59,0.0
37.20000000000073,164.39999999999998,1310.7999999999993,3305.7,-1825.2,-209.2,2025-01-29 10:35:59,0.0
145.20000000000073,44.39999999999998,702.7999999999993,3188.7,-1379.2,-15.199999999999989,2025-01-29 10:35:59,0.0
185.20000000000073,28.399999999999977,834.7999999999993,3130.7,-1207.2,-91.19999999999999,2025-01-29 10:35:59,0.0
-194.79999999999927,192.39999999999998,1854.7999999999993,3039.7,-1042.2,-479.2,2025-01-29 10:35:59,0.0
-698.7999999999993,132.39999999999998,2726.7999999999993,3022.7,-1041.2,-891.2,2025-01-29 10:35:59,0.0
-1378.7999999999993,176.39999999999998,2678.7999999999993,3001.7,-1101.2,-1008.2,2025-01-29 10:35:59,0.0
957.2000000000007,-7.600000000000023,1790.7999999999993,2985.7,-1319.2,-773.2,2025-01-29 10:35:59,0.0
-1134.7999999999993,-163.60000000000002,2114.7999999999993,3090.7,-1788.2,-564.2,2025-01-29 10:35:59,0.0
-622.7999999999993,-243.60000000000002,2630.7999999999993,3381.7,-1875.2,-644.2,2025-01-29 10:35:59,0.0
313.2000000000007,-671.6,2082.7999999999993,3402.7,-1715.2,-1021.2,2025-01-29 10:35:59,0.0
709.2000000000007,-1247.6,1986.7999999999993,3108.7,-1448.2,-1312.2,2025-01-29 10:35:59,0.0
789.2000000000007,-1755.6,2778.7999999999993,3115.7,-625.2,-1443.2,2025-01-29 10:35:59,0.0
633.2000000000007,-2323.6,3046.7999999999993,3300.7,875.8,-1428.2,2025-01-29 10:35:59,
153.20000000000073,-2359.6,3326.7999999999993,3311.7,2321.8,-1298.2,2025-01-29 10:35:59,0.0
-302.7999999999993,-1927.6,3354.7999999999993,3283.7,4142.8,-1169.2,2025-01-29 10:35:59,0.0
-862.7999999999993,-1751.6,3606.7999999999993,3126.7,5490.8,-1221.2,2025-01-29 10:35:59,0.0
-1054.7999999999993,-1839.6,3450.7999999999993,2786.7,6102.8,-1505.2,2025-01-29 10:35:59,0.0
-1538.7999999999993,-2559.6,3226.7999999999993,2339.7,5713.8,-1922.2,2025-01-29 10:35:59,0.0
-2578.7999999999993,-2739.6,3774.7999999999993,2192.7,4533.8,-1960.2,2025-01-29 10:35:59,0.0
-3450.7999999999993,-2487.6,3998.7999999999993,1979.7,3300.8,-1390.2,2025-01-29 10:35:59,0.0
-2950.7999999999993,-1895.6,2874.7999999999993,1422.7,1586.8,-721.2,2025-01-29 10:35:59,0.0
-2034.7999999999993,-1575.6,2978.7999999999993,973.7,678.8,-762.2,2025-01-29 10:35:59,0.0
-1482.7999999999993,-1723.6,3118.7999999999993,628.7,831.8,-1305.2,2025-01-29 10:35:59,0.0
-1346.7999999999993,-2167.6,3402.7999999999993,316.7,824.8,-1568.2,2025-01-29 10:35:59,0.0
-1318.7999999999993,-2467.6,3582.7999999999993,74.7,676.8,-1398.2,2025-01-29 10:35:59,0.0
-734.7999999999993,-2603.6,3466.7999999999993,-281.3,586.8,-1273.2,2025-01-29 10:35:59,0.0
-626.7999999999993,-2319.6,3394.7999999999993,-771.3,691.8,-1249.2,2025-01-29 10:35:59,0.0
-602.7999999999993,-2331.6,3246.7999999999993,-1293.3,706.8,-1231.2,2025-01-29 10:35:59,0.0
-782.7999999999993,-2323.6,3362.7999999999993,-1870.3,738.8,-1065.2,2025-01-29 10:35:59,0.0
-430.7999999999993,-2599.6,3358.7999999999993,-2489.3,1098.8,-823.2,2025-01-29 10:35:59,0.0
-174.79999999999927,-2807.6,3090.7999999999993,-3023.3,1633.8,-754.2,2025-01-29 10:35:59,0.0
-398.7999999999993,-2539.6,3026.7999999999993,-3513.3,2298.8,-726.2,2025-01-29 10:35:59,0.0
-798.7999999999993,-2347.6,3010.7999999999993,-3853.3,2761.8,-838.2,2025-01-29 10:35:59,0.0
-1450.7999999999993,-2527.6,2814.7999999999993,-4071.3,2996.8,-1032.2,2025-01-29 10:35:59,0.0
-1782.7999999999993,-2659.6,2282.7999999999993,-4219.3,2701.8,-1270.2,2025-01-29 10:35:59,0.0
-2058.7999999999993,-2787.6,2186.7999999999993,-4116.3,1982.8,-1585.2,2025-01-29 10:35:59,0.0
-1926.7999999999993,-3007.6,1730.7999999999993,-4029.3,1167.8,-1810.2,2025-01-29 10:35:59,0.0
-1778.7999999999993,-3379.6,2070.7999999999993,-4024.3,877.8,-2153.2,2025-01-29 10:35:59,0.0
-2102.7999999999993,-3467.6,2438.7999999999993,-3977.3,855.8,-2332.2,2025-01-29 10:35:59,0.0
-2370.7999999999993,-3291.6,2578.7999999999993,-4026.3,430.8,-2312.2,2025-01-29 10:35:59,0.0
-2458.7999999999993,-2767.6,2718.7999999999993,-4254.3,-178.2,-2238.2,2025-01-29 10:35:59,0.0
-2214.7999999999993,-1995.6,2686.7999999999993,-4802.3,-732.2,-2282.2,2025-01-29 10:35:59,0.0
-2306.7999999999993,-1495.6,2570.7999999999993,-5524.3,-998.2,-2107.2,2025-01-29 10:35:59,0.0
-2330.7999999999993,-1815.6,2858.7999999999993,-6368.3,-886.2,-1852.2,2025-01-29 10:36:00,0.0
-2026.7999999999993,-2719.6,3026.7999999999993,-6882.3,-811.2,-1804.2,2025-01-29 10:36:00,0.0
-2174.7999999999993,-3655.6,3750.7999999999993,-7137.3,-669.2,-1415.2,2025-01-29 10:36:00,0.0
-1650.7999999999993,-4311.6,3838.7999999999993,-6632.3,-243.2,-1437.2,2025-01-29 10:36:00,0.0
-2142.7999999999993,-4287.6,2174.7999999999993,-5651.3,608.8,-1833.2,2025-01-29 10:36:00,0.0
-2942.7999999999993,-5019.6,2142.7999999999993,-4635.3,1470.8,-1978.2,2025-01-29 10:36:00,0.0
-3390.7999999999993,-5683.6,2174.7999999999993,-3452.3,1134.8,-2322.2,2025-01-29 10:36:00,0.0
-3846.7999999999993,-5855.6,2034.7999999999993,-2347.3,-108.19999999999999,-2317.2,2025-01-29 10:36:00,0.0
-4474.799999999999,-5487.6,1318.7999999999993,-1394.3,-1979.2,-1309.2,2025-01-29 10:36:00,0.0
-4678.799999999999,-4443.6,926.7999999999993,-1202.3,-2682.2,841.8,2025-01-29 10:36:00,0.0
-2686.7999999999993,-2827.6,322.7999999999993,-1685.3,-1951.2,2239.8,2025-01-29 10:36:00,0.0
-1334.7999999999993,-1863.6,-1397.2000000000007,-2532.3,-1632.2,2355.8,2025-01-29 10:36:00,0.0
-1246.7999999999993,-895.6,-2293.2000000000007,-3138.3,-1649.2,2541.8,2025-01-29 10:36:00,0.0
-962.7999999999993,-91.60000000000002,-3057.2000000000007,-3234.3,-1908.2,2949.8,2025-01-29 10:36:00,0.0
-522.7999999999993,488.4,-2741.2000000000007,-3122.3,-2178.2,3153.8,2025-01-29 10:36:00,0.0
85.20000000000073,988.4,-1673.2000000000007,-2829.3,-2702.2,3101.8,2025-01-29 10:36:00,0.0
361.2000000000007,992.4,-277.2000000000007,-2681.3,-3170.2,2886.8,2025-01-29 10:36:00,0.0
1237.2000000000007,312.4,894.7999999999993,-2521.3,-3829.2,2575.8,2025-01-29 10:36:00,0.0
2069.2000000000007,-127.60000000000002,1562.7999999999993,-2117.3,-3863.2,2481.8,2025-01-29 10:36:00,0.0
2285.2000000000007,152.39999999999998,1702.7999999999993,-1609.3,-2421.2,2491.8,2025-01-29 10:36:00,0.0
2321.2000000000007,332.4,1250.7999999999993,-1250.3,-287.2,2490.8,2025-01-29 10:36:00,0.0
2033.2000000000007,308.4,1246.7999999999993,-767.3,1337.8,2353.8,2025-01-29 10:36:00,0.0
1161.2000000000007,320.4,706.7999999999993,-235.3,2021.8,2412.8,2025-01-29 10:36:00,0.0
-26.799999999999272,592.4,658.7999999999993,217.7,2162.8,2538.8,2025-01-29 10:36:00,0.0
-794.7999999999993,796.4,1050.7999999999993,396.7,1447.8,2790.8,2025-01-29 10:36:00,0.0
-1110.7999999999993,1328.4,1002.7999999999993,583.7,257.8,2953.8,2025-01-29 10:36:00,0.0
-874.7999999999993,1844.4,750.7999999999993,566.7,-993.2,3078.8,2025-01-29 10:36:00,0.0
-150.79999999999927,1916.4,606.7999999999993,480.7,-2096.2,2993.8,2025-01-29 10:36:00,0.0
321.2000000000007,1804.4,762.7999999999993,328.7,-2580.2,2761.8,2025-01-29 10:36:00,0.0
737.2000000000007,1736.4,1106.7999999999993,132.7,-2494.2,2431.8,2025-01-29 10:36:00,0.0
893.2000000000007,2020.4,1302.7999999999993,159.7,-1935.2,2224.8,2025-01-29 10:36:00,0.0
1093.2000000000007,2392.4,1314.7999999999993,9.700000000000003,-1081.2,1919.8,2025-01-29 10:36:00,0.0
1025.2000000000007,2628.4,1486.7999999999993,-139.3,-511.2,1433.8,2025-01-29 10:36:00,0.0
569.2000000000007,2536.4,1614.7999999999993,-139.3,-211.2,1099.8,2025-01-29 10:36:00,0.0
369.2000000000007,1980.4,1546.7999999999993,-224.3,-162.2,864.8,2025-01-29 10:36:00,0.0
289.2000000000007,1500.4,1894.7999999999993,-138.3,-118.19999999999999,615.8,2025-01-29 10:36:00,0.0
-2.7999999999992724,1172.4,2190.7999999999993,294.7,-266.2,392.8,2025-01-29 10:36:00,0.0
-178.79999999999927,1164.4,2302.7999999999993,604.7,-333.2,191.8,2025-01-29 10:36:00,0.0
-186.79999999999927,1384.4,2294.7999999999993,760.7,-343.2,59.80000000000001,2025-01-29 10:36:00,0.0
-634.7999999999993,1508.4,2474.7999999999993,926.7,-362.2,30.80000000000001,2025-01-29 10:36:00,0.0
-1066.7999999999993,1328.4,2670.7999999999993,1130.7,-259.2,37.80000000000001,2025-01-29 10:36:00,0.0
-1274.7999999999993,964.4,2902.7999999999993,1275.7,-443.2,32.80000000000001,2025-01-29 10:36:00,0.0
-1558.7999999999993,860.4,3022.7999999999993,1593.7,-1055.2,16.80000000000001,2025-01-29 10:36:00,0.0
-1518.7999999999993,916.4,3082.7999999999993,2059.7,-1844.2,35.80000000000001,2025-01-29 10:36:00,0.0
-1206.7999999999993,944.4,3262.7999999999993,2477.7,-2485.2,32.80000000000001,2025-01-29 10:36:00,0.0
-1022.7999999999993,880.4,3346.7999999999993,2646.7,-2714.2,83.80000000000001,2025-01-29 10:36:00,0.0
-1110.7999999999993,1120.4,3798.7999999999993,2716.7,-2480.2,387.8,2025-01-29 10:36:00,0.0
-1458.7999999999993,1284.4,3770.7999999999993,2784.7,-1879.2,681.8,2025-01-29 10:36:00,0.0
-1954.7999999999993,1220.4,3850.7999999999993,2705.7,-814.2,894.8,2025-01-29 10:36:00,0.0
-2674.7999999999993,1268.4,3994.7999999999993,2852.7,-135.2,1002.8,2025-01-29 10:36:00,0.0
-3606.7999999999993,1484.4,4022.7999999999993,2907.7,-117.19999999999999,1216.8,2025-01-29 10:36:00,0.0
-3854.7999999999993,1924.4,3270.7999999999993,2903.7,-31.19999999999999,1465.8,2025-01-29 10:36:00,0.0
-3410.7999999999993,2040.4,3414.7999999999993,2978.7,-414.2,1418.8,2025-01-29 10:36:00,0.0
-2674.7999999999993,2060.4,4394.799999999999,3331.7,-1076.2,1014.8,2025-01-29 10:36:00,0.0
-1770.7999999999993,2252.4,4590.799999999999,3742.7,-1401.2,654.8,2025-01-29 10:36:00,0.0
-1866.7999999999993,928.4,3026.7999999999993,3699.7,633.8,692.8,2025-01-29 10:36:00,0.0
-1562.7999999999993,204.39999999999998,1742.7999999999993,3811.7,3176.8,567.8,2025-01-29 10:36:00,0.0
-3610.7999999999993,1796.4,454.7999999999993,3372.7,4597.8,307.8,2025-01-29 10:36:00,0.0
-4846.799999999999,3532.4,-1513.2000000000007,2284.7,4809.8,915.8,2025-01-29 10:36:00,0.0
-5026.799999999999,4428.4,-1437.2000000000007,610.7,3289.8,1081.8,2025-01-29 10:36:01,0.0
-4398.799999999999,4664.4,-1393.2000000000007,-591.3,972.8,615.8,2025-01-29 10:36:01,0.0
-3314.7999999999993,3940.4,-1313.2000000000007,-1435.3,-1123.2,-434.2,2025-01-29 10:36:01,0.0
-2622.7999999999993,2280.4,-673.2000000000007,-1940.3,-2611.2,-1175.2,2025-01-29 10:36:01,0.0
-834.7999999999993,360.4,442.7999999999993,-1707.3,-3702.2,-1081.2,2025-01-29 10:36:01,0.0
1073.2000000000007,-979.6,1506.7999999999993,-926.3,-3536.2,-1313.2,2025-01-29 10:36:01,0.0
1893.2000000000007,-1687.6,2082.7999999999993,249.7,-2991.2,-1722.2,2025-01-29 10:36:01,0.0
2165.2000000000007,-2219.6,410.7999999999993,1031.7,-2064.2,-1713.2,2025-01-29 10:36:01,0.0
2313.2000000000007,-2623.6,-213.20000000000073,1160.7,-754.2,-1390.2,2025-01-29 10:36:01,0.0
1953.2000000000007,-2843.6,174.79999999999927,1355.7,413.8,-947.2,2025-01-29 10:36:01,0.0
1657.2000000000007,-2911.6,798.7999999999993,1644.7,1070.8,-518.2,2025-01-29 10:36:01,
653.2000000000007,-2519.6,1446.7999999999993,2005.7,1490.8,-5.199999999999989,2025-01-29 10:36:01,0.0
309.2000000000007,-1959.6,1226.7999999999993,2162.7,1557.8,326.8,2025-01-29 10:36:01,0.0
129.20000000000073,-1195.6,994.7999999999993,1960.7,1439.8,294.8,2025-01-29 10:36:01,0.0
-466.7999999999993,-547.6,562.7999999999993,1501.7,1166.8,-45.19999999999999,2025-01-29 10:36:01,0.0
-850.7999999999993,-331.6,622.7999999999993,1187.7,793.8,-454.2,2025-01-29 10:36:01,0.0
-810.7999999999993,-359.6,498.7999999999993,1221.7,305.8,-824.2,2025-01-29 10:36:01,0.0
-718.7999999999993,-415.6,930.7999999999993,1066.7,-392.2,-1223.2,2025-01-29 10:36:01,0.0
-430.7999999999993,-479.6,1234.7999999999993,780.7,-545.2,-1587.2,2025-01-29 10:36:01,0.0
-122.79999999999927,-487.6,1038.7999999999993,550.7,-579.2,-1784.2,2025-01-29 10:36:01,0.0
93.20000000000073,-279.6,1238.7999999999993,-1.2999999999999972,-173.2,-2044.2,2025-01-29 10:36:01,0.0
441.2000000000007,-83.60000000000002,1742.7999999999993,-638.3,148.8,-2455.2,2025-01-29 10:36:01,0.0
177.20000000000073,-167.60000000000002,2250.7999999999993,-1144.3,486.8,-2763.2,2025-01-29 10:36:01,0.0
-90.79999999999927,-619.6,2574.7999999999993,-1528.3,828.8,-2953.2,2025-01-29 10:36:01,0.0
-262.7999999999993,-1127.6,2746.7999999999993,-1843.3,1147.8,-3037.2,2025-01-29 10:36:01,0.0
-674.7999999999993,-1611.6,2822.7999999999993,-2013.3,1515.8,-2916.2,2025-01-29 10:36:01,0.0
-1258.7999999999993,-1751.6,3254.7999999999993,-2123.3,1591.8,-2570.2,2025-01-29 10:36:01,0.0
-1330.7999999999993,-1755.6,3026.7999999999993,-2217.3,1610.8,-2203.2,2025-01-29 10:36:01,0.0
-1142.7999999999993,-1471.6,3126.7999999999993,-2335.3,1610.8,-1858.2,2025-01-29 10:36:01,0.0
-1046.7999999999993,-1067.6,3410.7999999999993,-2453.3,1671.8,-1529.2,2025-01-29 10:36:01,0.0
-902.7999999999993,-879.6,3478.7999999999993,-2622.3,1696.8,-1326.2,2025-01-29 10:36:01,0.0
-1010.7999999999993,-767.6,3642.7999999999993,-2766.3,1825.8,-991.2,2025-01-29 10:36:01,0.0
-762.7999999999993,-1055.6,3542.7999999999993,-2930.3,1870.8,-703.2,2025-01-29 10:36:01,0.0
-734.7999999999993,-1959.6,3470.7999999999993,-2926.3,1927.8,-384.2,2025-01-29 10:36:01,0.0
-770.7999999999993,-2231.6,3394.7999999999993,-2669.3,1918.8,-130.2,2025-01-29 10:36:01,0.0
-510.7999999999993,-1903.6,3094.7999999999993,-2705.3,2099.8,70.80000000000001,2025-01-29 10:36:01,0.0
-290.7999999999993,-1443.6,2690.7999999999993,-2891.3,2545.8,48.80000000000001,2025-01-29 10:36:01,0.0
-210.79999999999927,-807.6,2202.7999999999993,-2993.3,2960.8,-285.2,2025-01-29 10:36:01,0.0
-630.7999999999993,-375.6,1206.7999999999993,-3259.3,3411.8,-855.2,2025-01-29 10:36:01,0.0
-1498.7999999999993,72.39999999999998,1138.7999999999993,-3715.3,3531.8,-1478.2,2025-01-29 10:36:01,0.0
-2474.7999999999993,-235.60000000000002,1230.7999999999993,-3986.3,2912.8,-2224.2,2025-01-29 10:36:01,0.0
-3090.7999999999993,-907.6,1118.7999999999993,-4067.3,1481.8,-2992.2,2025-01-29 10:36:01,0.0
-3682.7999999999993,-1143.6,1950.7999999999993,-4230.3,-618.2,-3666.2,2025-01-29 10:36:01,0.0
-3242.7999999999993,-991.6,1938.7999999999993,-4536.3,-2370.2,-4173.2,2025-01-29 10:36:01,0.0
-2646.7999999999993,-511.6,926.7999999999993,-4473.3,-3261.2,-4649.2,2025-01-29 10:36:01,0.0
-1230.7999999999993,-235.60000000000002,-393.2000000000007,-4227.3,-2837.2,-5247.2,2025-01-29 10:36:01,0.0
-966.7999999999993,-1923.6,470.7999999999993,-3772.3,-1401.2,-6025.2,2025-01-29 10:36:01,0.0
-602.7999999999993,-4983.6,1570.7999999999993,-2381.3,-19.19999999999999,-6942.2,2025-01-29 10:36:01,0.0
-2050.7999999999993,-6711.6,1066.7999999999993,-1056.3,1587.8,-7113.2,2025-01-29 10:36:01,0.0
-4302.799999999999,-7047.6,-777.2000000000007,-473.3,2853.8,-5853.2,2025-01-29 10:36:01,0.0
-6270.799999999999,-6119.6,-2561.2000000000007,-567.3,3587.8,-3191.2,2025-01-29 10:36:01,0.0
-5982.799999999999,-4399.6,-2753.2000000000007,-430.3,2452.8,-383.2,2025-01-29 10:36:01,0.0
-4018.7999999999993,-2267.6,-3349.2000000000007,-370.3,-1170.2,1629.8,2025-01-29 10:36:01,0.0
-1858.7999999999993,-1359.6,-3581.2000000000007,-931.3,-4439.2,2227.8,2025-01-29 10:36:01,0.0
413.2000000000007,-407.6,-2841.2000000000007,-1058.3,-6833.2,2601.8,2025-01-29 10:36:01,0.0
2525.2000000000007,460.4,-2561.2000000000007,-1072.3,-7929.2,3091.8,2025-01-29 10:36:01,0.0
4937.200000000001,1208.4,-1649.2000000000007,-1317.3,-7915.2,3213.8,2025-01-29 10:36:01,0.0
6237.200000000001,1416.4,-281.2000000000007,-1611.3,-6496.2,2494.8,2025-01-29 10:36:01,0.0
5961.200000000001,1852.4,786.7999999999993,-1583.3,-2761.2,1250.8,2025-01-29 10:36:01,0.0
4165.200000000001,1964.4,574.7999999999993,-1760.3,2727.8,102.80000000000001,2025-01-29 10:36:01,0.0
1577.2000000000007,1408.4,410.7999999999993,-2236.3,5785.8,-85.19999999999999,2025-01-29 10:36:01,0.0
-1178.7999999999993,352.4,258.7999999999993,-2354.3,6940.8,291.8,2025-01-29 10:36:01,0.0
-2526.7999999999993,-127.60000000000002,294.7999999999993,-2239.3,6210.8,527.8,2025-01-29 10:36:01,0.0
-4010.7999999999993,-595.6,322.7999999999993,-1996.3,2983.8,1115.8,2025-01-29 10:36:02,0.0
-3954.7999999999993,-587.6,1146.7999999999993,-1222.3,-2637.2,2463.8,2025-01-29 10:36:02,0.0
-1394.7999999999993,-235.60000000000002,-13.200000000000728,-863.3,-4899.2,3262.8,2025-01-29 10:36:02,0.0
541.2000000000007,-203.60000000000002,750.7999999999993,-732.3,-4970.2,3416.8,2025-01-29 10:36:02,0.0
2725.2000000000007,-199.60000000000002,1890.7999999999993,-35.3,-4057.2,3296.8,2025-01-29 10:36:02,0.0
3929.2000000000007,-287.6,1998.7999999999993,583.7,-2019.2,2876.8,2025-01-29 10:36:02,0.0
3673.2000000000007,20.399999999999977,2538.7999999999993,1271.7,1139.8,2419.8,2025-01-29 10:36:02,0.0
2365.2000000000007,652.4,1878.7999999999993,1693.7,3994.8,2021.8,2025-01-29 10:36:02,0.0
397.2000000000007,1488.4,1514.7999999999993,1660.7,4947.8,1897.8,2025-01-29 10:36:02,0.0
-1074.7999999999993,1964.4,942.7999999999993,1428.7,4565.8,1903.8,2025-01-29 10:36:02,0.0
-1894.7999999999993,2444.4,498.7999999999993,983.7,2683.8,1548.8,2025-01-29 10:36:02,0.0
-1838.7999999999993,2480.4,594.7999999999993,628.7,-163.2,974.8,2025-01-29 10:36:02,0.0
-1354.7999999999993,2300.4,258.7999999999993,320.7,-2313.2,555.8,2025-01-29 10:36:02,0.0
-162.79999999999927,2012.4,190.79999999999927,-253.3,-3250.2,234.8,2025-01-29 10:36:02,0.0
641.2000000000007,1576.4,1254.7999999999993,-385.3,-2782.2,133.8,2025-01-29 10:36:02,0.0
545.2000000000007,604.4,2786.7999999999993,-210.3,-1324.2,97.80000000000001,2025-01-29 10:36:02,0.0
461.2000000000007,356.4,3070.7999999999993,317.7,-155.2,-28.19999999999999,2025-01-29 10:36:02,0.0
-226.79999999999927,660.4,2350.7999999999993,675.7,351.8,-291.2,2025-01-29 10:36:02,0.0
-1074.7999999999993,1132.4,2146.7999999999993,793.7,-42.19999999999999,-455.2,2025-01-29 10:36:02,0.0
-1754.7999999999993,1348.4,2062.7999999999993,912.7,-891.2,-435.2,2025-01-29 10:36:02,0.0
-1906.7999999999993,1260.4,2330.7999999999993,977.7,-1864.2,-263.2,2025-01-29 10:36:02,0.0
-1566.7999999999993,952.4,2890.7999999999993,1217.7,-2449.2,-124.19999999999999,2025-01-29 10:36:02,0.0
-1238.7999999999993,736.4,3718.7999999999993,1641.7,-2565.2,-11.199999999999989,2025-01-29 10:36:02,0.0
-474.7999999999993,812.4,3382.7999999999993,2043.7,-1611.2,174.8,2025-01-29 10:36:02,0.0
-510.7999999999993,1472.4,3194.7999999999993,2351.7,-80.19999999999999,376.8,2025-01-29 10:36:02,0.0
-1114.7999999999993,1644.4,3142.7999999999993,2445.7,1448.8,698.8,2025-01-29 10:36:02,0.0
-1966.7999999999993,1028.4,2862.7999999999993,2525.7,2266.8,1058.8,2025-01-29 10:36:02,0.0
-2958.7999999999993,-379.6,2782.7999999999993,2525.7,2319.8,1558.8,2025-01-29 10:36:02,0.0
-2362.7999999999993,-983.6,2566.7999999999993,3000.7,1243.8,1957.8,2025-01-29 10:36:02,0.0
-2286.7999999999993,744.4,1310.7999999999993,3244.7,15.800000000000011,2046.8,2025-01-29 10:36:02,0.0
-2074.7999999999993,2820.4,1710.7999999999993,2943.7,-39.19999999999999,2114.8,2025-01-29 10:36:02,0.0
-2254.7999999999993,2792.4,1638.7999999999993,2824.7,899.8,1747.8,2025-01-29 10:36:02,0.0
-2994.7999999999993,1516.4,810.7999999999993,2639.7,2429.8,1134.8,2025-01-29 10:36:02,0.0
-4002.7999999999993,1784.4,-753.2000000000007,2241.7,3054.8,1089.8,2025-01-29 10:36:02,0.0
-4514.799999999999,2608.4,-2629.2000000000007,1431.7,2850.8,1568.8,2025-01-29 10:36:02,0.0
-4610.799999999999,3532.4,-3801.2000000000007,47.7,2309.8,1874.8,2025-01-29 10:36:02,0.0
-4334.799999999999,4044.4,-4009.2000000000007,-1410.3,1568.8,1621.8,2025-01-29 10:36:02,0.0
-3782.7999999999993,4388.4,-3345.2000000000007,-2623.3,42.80000000000001,850.8,2025-01-29 10:36:02,0.0
-2434.7999999999993,4452.4,-2861.2000000000007,-3576.3,-2776.2,-279.2,2025-01-29 10:36:02,0.0
9.200000000000728,2560.4,-945.2000000000007,-3737.3,-6270.2,-2018.2,2025-01-29 10:36:02,0.0
1509.2000000000007,944.4,-157.20000000000073,-3193.3,-7776.2,-2634.2,2025-01-29 10:36:02,0.0
3785.2000000000007,-675.6,870.7999999999993,-2670.3,-8249.2,-3059.2,2025-01-29 10:36:02,0.0
4901.200000000001,-2647.6,2130.7999999999993,-1704.3,-7611.2,-3304.2,2025-01-29 10:36:02,0.0
4961.200000000001,-4043.6,2478.7999999999993,-552.3,-5331.2,-2907.2,2025-01-29 10:36:02,0.0
4393.200000000001,-5087.6,1682.7999999999993,258.7,-932.2,-1968.2,2025-01-29 10:36:02,0.0
3481.2000000000007,-4975.6,766.7999999999993,781.7,4696.8,-845.2,2025-01-29 10:36:02,0.0
2089.2000000000007,-3247.6,750.7999999999993,1341.7,7765.8,-421.2,2025-01-29 10:36:02,0.0
441.2000000000007,-1499.6,582.7999999999993,1624.7,8375.8,-729.2,2025-01-29 10:36:02,
-1582.7999999999993,-195.60000000000002,10.799999999999272,1434.7,7114.8,-1213.2,2025-01-29 10:36:02,0.0
-2434.7999999999993,220.39999999999998,22.799999999999272,1133.7,4155.8,-1882.2,2025-01-29 10:36:02,0.0
-2702.7999999999993,-3.6000000000000227,-229.20000000000073,818.7,497.8,-2462.2,2025-01-29 10:36:02,0.0
-2014.7999999999993,-363.6,-989.2000000000007,457.7,-2210.2,-2538.2,2025-01-29 10:36:02,0.0
-794.7999999999993,-427.6,-585.2000000000007,141.7,-3259.2,-2587.2,2025-01-29 10:36:02,0.0
933.2000000000007,-143.60000000000002,2.7999999999992724,-415.3,-3284.2,-2838.2,2025-01-29 10:36:02,0.0
2121.2000000000007,-103.60000000000002,182.79999999999927,-980.3,-2494.2,-2790.2,2025-01-29 10:36:02,0.0
2801.2000000000007,-423.6,558.7999999999993,-1585.3,-411.2,-2895.2,2025-01-29 10:36:02,0.0
2577.2000000000007,-1075.6,1862.7999999999993,-1897.3,2331.8,-3048.2,2025-01-29 10:36:03,0.0
1953.2000000000007,-1947.6,1874.7999999999993,-1807.3,4163.8,-3220.2,2025-01-29 10:36:03,0.0
929.2000000000007,-2203.6,1670.7999999999993,-1720.3,5071.8,-3644.2,2025-01-29 10:36:03,0.0
-970.7999999999993,-2527.6,1526.7999999999993,-1572.3,4934.8,-3541.2,2025-01-29 10:36:03,0.0
-2030.7999999999993,-2439.6,930.7999999999993,-1351.3,3906.8,-2993.2,2025-01-29 10:36:03,0.0
-2846.7999999999993,-1883.6,998.7999999999993,-1285.3,2152.8,-2088.2,2025-01-29 10:36:03,0.0
-1738.7999999999993,-1131.6,550.7999999999993,-1366.3,151.8,-1509.2,2025-01-29 10:36:03,0.0
-734.7999999999993,-831.6,866.7999999999993,-1661.3,-1031.2,-1573.2,2025-01-29 10:36:03,0.0
-30.799999999999272,-851.6,1534.7999999999993,-1745.3,-1173.2,-1614.2,2025-01-29 10:36:03,0.0
821.2000000000007,-943.6,1566.7999999999993,-2359.3,1760.8,-1390.2,2025-01-29 10:36:03,0.0
145.20000000000073,-459.6,1422.7999999999993,-2738.3,2134.8,-1326.2,2025-01-29 10:36:03,0.0
-742.7999999999993,-131.60000000000002,1462.7999999999993,-3187.3,1608.8,-1103.2,2025-01-29 10:36:03,0.0
-510.7999999999993,-227.60000000000002,1090.7999999999993,-3726.3,955.8,-830.2,2025-01-29 10:36:03,0.0
-394.7999999999993,-583.6,862.7999999999993,-4028.3,551.8,-708.2,2025-01-29 10:36:03,0.0
-258.7999999999993,-1395.6,778.7999999999993,-4453.3,238.8,-695.2,2025-01-29 10:36:03,0.0
-446.7999999999993,-1975.6,514.7999999999993,-4616.3,168.8,-606.2,2025-01-29 10:36:03,0.0
-782.7999999999993,-1883.6,930.7999999999993,-4632.3,92.80000000000001,-516.2,2025-01-29 10:36:03,0.0
-994.7999999999993,-1291.6,1014.7999999999993,-4701.3,-268.2,-566.2,2025-01-29 10:36:03,0.0
-746.7999999999993,20.399999999999977,638.7999999999993,-4943.3,-582.2,-751.2,2025-01-29 10:36:03,0.0
-634.7999999999993,1560.4,390.7999999999993,-5322.3,-749.2,-1316.2,2025-01-29 10:36:03,0.0
-1150.7999999999993,1312.4,758.7999999999993,-5943.3,-550.2,-1656.2,2025-01-29 10:36:03,0.0
-1694.7999999999993,-491.6,1862.7999999999993,-5991.3,-145.2,-1724.2,2025-01-29 10:36:03,0.0
-2474.7999999999993,-1799.6,1866.7999999999993,-5974.3,-48.19999999999999,-1711.2,2025-01-29 10:36:03,0.0
-2858.7999999999993,-1611.6,1886.7999999999993,-6053.3,-293.2,-1834.2,2025-01-29 10:36:03,0.0
-2882.7999999999993,-1179.6,1754.7999999999993,-6123.3,-791.2,-2161.2,2025-01-29 10:36:03,0.0
-2190.7999999999993,-623.6,246.79999999999927,-5445.3,-838.2,-2590.2,2025-01-29 10:36:03,0.0
-1890.7999999999993,-1055.6,-985.2000000000007,-4857.3,465.8,-3313.2,2025-01-29 10:36:03,0.0
-2514.7999999999993,-2103.6,-1017.2000000000007,-4193.3,1729.8,-3887.2,2025-01-29 10:36:03,0.0
-3958.7999999999993,-3911.6,-285.2000000000007,-2992.3,1746.8,-3822.2,2025-01-29 10:36:03,0.0
-5062.799999999999,-5855.6,386.7999999999993,-1521.3,896.8,-2972.2,2025-01-29 10:36:03,0.0
-6070.799999999999,-6915.6,162.79999999999927,48.7,-1436.2,-901.2,2025-01-29 10:36:03,0.0
-5426.799999999999,-6555.6,-505.2000000000007,1243.7,-3423.2,1732.8,2025-01-29 10:36:03,0.0
-1702.7999999999993,-4827.6,-1089.2000000000007,2236.7,-4500.2,2649.8,2025-01-29 10:36:03,0.0
433.2000000000007,-2871.6,-1157.2000000000007,2688.7,-5288.2,2452.8,2025-01-29 10:36:03,0.0
2133.2000000000007,-779.6,-1201.2000000000007,2596.7,-5974.2,2493.8,2025-01-29 10:36:03,0.0
3793.2000000000007,1000.4,-1677.2000000000007,2000.7,-6167.2,2653.8,2025-01-29 10:36:03,0.0
5493.200000000001,2436.4,-1685.2000000000007,1067.7,-4990.2,2382.8,2025-01-29 10:36:03,0.0
6009.200000000001,2444.4,-1457.2000000000007,354.7,-1957.2,1590.8,2025-01-29 10:36:03,0.0
4937.200000000001,1104.4,-661.2000000000007,18.700000000000003,2085.8,632.8,2025-01-29 10:36:03,0.0
2597.2000000000007,-111.60000000000002,-53.20000000000073,234.7,4497.8,592.8,2025-01-29 10:36:03,0.0
49.20000000000073,-555.6,-129.20000000000073,464.7,4969.8,1136.8,2025-01-29 10:36:03,0.0
-1198.7999999999993,-423.6,-849.2000000000007,619.7,3410.8,1814.8,2025-01-29 10:36:03,0.0
-1902.7999999999993,-315.6,-517.2000000000007,834.7,702.8,2379.8,2025-01-29 10:36:03,0.0
-1958.7999999999993,-639.6,-117.20000000000073,1345.7,-1909.2,2907.8,2025-01-29 10:36:03,0.0
-1262.7999999999993,-979.6,-85.20000000000073,1966.7,-3019.2,3359.8,2025-01-29 10:36:03,0.0
-202.79999999999927,-875.6,-185.20000000000073,2607.7,-3578.2,3827.8,2025-01-29 10:36:03,0.0
925.2000000000007,-379.6,138.79999999999927,3056.7,-3477.2,4251.8,2025-01-29 10:36:03,0.0
1637.2000000000007,388.4,46.79999999999927,3260.7,-2606.2,4575.8,2025-01-29 10:36:03,0.0
2113.2000000000007,1064.4,442.7999999999993,3389.7,-1022.2,4710.8,2025-01-29 10:36:03,0.0
1589.2000000000007,1540.4,566.7999999999993,3486.7,681.8,4572.8,2025-01-29 10:36:03,0.0
1181.2000000000007,1392.4,314.7999999999993,3462.7,1683.8,4302.8,2025-01-29 10:36:03,0.0
61.20000000000073,996.4,238.79999999999927,3475.7,1898.8,4279.8,2025-01-29 10:36:03,0.0
-438.7999999999993,636.4,274.7999999999993,3594.7,1402.8,4452.8,2025-01-29 10:36:03,0.0
-518.7999999999993,456.4,462.7999999999993,3798.7,512.8,4566.8,2025-01-29 10:36:03,0.0
-238.79999999999927,776.4,682.7999999999993,3933.7,-580.2,4573.8,2025-01-29 10:36:03,0.0
409.2000000000007,1460.4,618.7999999999993,3907.7,-1340.2,4384.8,2025-01-29 10:36:03,0.0
1145.2000000000007,2136.4,854.7999999999993,3804.7,-1418.2,4039.8,2025-01-29 10:36:03,0.0
1933.2000000000007,2384.4,294.7999999999993,3597.7,-775.2,3335.8,2025-01-29 10:36:03,0.0
1681.2000000000007,2256.4,454.7999999999993,3307.7,320.8,2674.8,2025-01-29 10:36:03,0.0
1117.2000000000007,1420.4,898.7999999999993,3210.7,1273.8,2190.8,2025-01-29 10:36:03,0.0
649.2000000000007,968.4,614.7999999999993,3272.7,1305.8,1749.8,2025-01-29 10:36:03,0.0
113.20000000000073,1132.4,618.7999999999993,3333.7,917.8,1248.8,2025-01-29 10:36:03,0.0
-846.7999999999993,1508.4,934.7999999999993,3442.7,228.8,850.8,2025-01-29 10:36:04,0.0
-1390.7999999999993,1884.4,1426.7999999999993,3392.7,-472.2,966.8,2025-01-29 10:36:04,0.0
-866.7999999999993,1932.4,1250.7999999999993,3185.7,-1239.2,1090.8,2025-01-29 10:36:04,0.0
-78.79999999999927,1624.4,1574.7999999999993,3069.7,-1586.2,873.8,2025-01-29 10:36:04,0.0
385.2000000000007,1180.4,1986.7999999999993,3156.7,-1404.2,642.8,2025-01-29 10:36:04,0.0
437.2000000000007,936.4,2090.7999999999993,3407.7,-980.2,302.8,2025-01-29 10:36:04,0.0
241.20000000000073,1112.4,1742.7999999999993,3576.7,-532.2,-69.19999999999999,2025-01-29 10:36:04,0.0
-494.7999999999993,908.4,1790.7999999999993,3573.7,-239.2,-308.2,2025-01-29 10:36:04,0.0
-1062.7999999999993,960.4,2522.7999999999993,3726.7,-377.2,-203.2,2025-01-29 10:36:04,0.0
-890.7999999999993,1044.4,2198.7999999999993,3805.7,-789.2,-134.2,2025-01-29 10:36:04,0.0
-778.7999999999993,968.4,1550.7999999999993,3739.7,-674.2,-182.2,2025-01-29 10:36:04,0.0
-1422.7999999999993,488.4,2170.7999999999993,3731.7,-275.2,-56.19999999999999,2025-01-29 10:36:04,0.0
-1582.7999999999993,296.4,2246.7999999999993,3983.7,66.80000000000001,208.8,2025-01-29 10:36:04,0.0
-1742.7999999999993,424.4,1810.7999999999993,4222.7,310.8,328.8,2025-01-29 10:36:04,0.0
-2250.7999999999993,424.4,1986.7999999999993,4481.7,597.8,554.8,2025-01-29 10:36:04,0.0
-2590.7999999999993,852.4,2202.7999999999993,4683.7,491.8,841.8,2025-01-29 10:36:04,0.0
-2870.7999999999993,656.4,2150.7999999999993,4871.7,268.8,1052.8,2025-01-29 10:36:04,0.0
-3470.7999999999993,-255.60000000000002,1286.7999999999993,4820.7,861.8,1757.8,2025-01-29 10:36:04,0.0
-2958.7999999999993,-315.6,194.79999999999927,4833.7,1865.8,2451.8,2025-01-29 10:36:04,0.0
-2998.7999999999993,864.4,-1101.2000000000007,4603.7,2340.8,2610.8,2025-01-29 10:36:04,0.0
-3646.7999999999993,1804.4,-1889.2000000000007,3976.7,2145.8,2678.8,2025-01-29 10:36:04,0.0
-3410.7999999999993,2304.4,-1793.2000000000007,3193.7,937.8,2752.8,2025-01-29 10:36:04,0.0
-3054.7999999999993,2448.4,-1581.2000000000007,2554.7,-852.2,2364.8,2025-01-29 10:36:04,0.0
-2346.7999999999993,2372.4,-1597.2000000000007,1797.7,-2121.2,1799.8,2025-01-29 10:36:04,0.0
-1794.7999999999993,1684.4,-817.2000000000007,1308.7,-2604.2,1410.8,2025-01-29 10:36:04,0.0
-1194.7999999999993,716.4,190.79999999999927,1052.7,-2959.2,1229.8,2025-01-29 10:36:04,0.0
-138.79999999999927,-27.600000000000023,1126.7999999999993,1171.7,-3732.2,1109.8,2025-01-29 10:36:04,0.0
797.2000000000007,-347.6,1050.7999999999993,1281.7,-4395.2,1051.8,2025-01-29 10:36:04,0.0
1921.2000000000007,-475.6,938.7999999999993,1232.7,-4444.2,959.8,2025-01-29 10:36:04,0.0
2853.2000000000007,-1011.6,902.7999999999993,1261.7,-4006.2,816.8,2025-01-29 10:36:04,
3565.2000000000007,-1771.6,514.7999999999993,1568.7,-2592.2,655.8,2025-01-29 10:36:04,0.0
3461.2000000000007,-2347.6,150.79999999999927,2064.7,73.80000000000001,341.8,2025-01-29 10:36:04,0.0
2533.2000000000007,-2147.6,170.79999999999927,2194.7,2231.8,75.80000000000001,2025-01-29 10:36:04,0.0
1129.2000000000007,-1811.6,66.79999999999927,2215.7,3029.8,192.8,2025-01-29 10:36:04,0.0
345.2000000000007,-1847.6,-401.2000000000007,2188.7,2907.8,450.8,2025-01-29 10:36:04,0.0
-254.79999999999927,-1871.6,-789.2000000000007,2011.7,2206.8,547.8,2025-01-29 10:36:04,0.0
-994.7999999999993,-1967.6,-69.20000000000073,1883.7,1126.8,536.8,2025-01-29 10:36:04,0.0
-1226.7999999999993,-2103.6,178.79999999999927,1875.7,-17.19999999999999,495.8,2025-01-29 10:36:04,0.0
-1170.7999999999993,-1883.6,602.7999999999993,1862.7,-1129.2,315.8,2025-01-29 10:36:04,0.0
-702.7999999999993,-1291.6,542.7999999999993,1942.7,-2219.2,-15.199999999999989,2025-01-29 10:36:04,0.0
-166.79999999999927,-699.6,406.7999999999993,1676.7,-2411.2,-736.2,2025-01-29 10:36:04,0.0
-22.799999999999272,-403.6,-73.20000000000073,1429.7,-2369.2,-1191.2,2025-01-29 10:36:04,0.0
93.20000000000073,-443.6,-401.2000000000007,916.7,-2199.2,-1499.2,2025-01-29 10:36:04,0.0
329.2000000000007,-679.6,150.79999999999927,268.7,-1738.2,-1652.2,2025-01-29 10:36:04,0.0
373.2000000000007,-1175.6,1074.7999999999993,-136.3,-1178.2,-1782.2,2025-01-29 10:36:04,0.0
285.2000000000007,-1727.6,1686.7999999999993,-506.3,-592.2,-2062.2,2025-01-29 10:36:04,0.0
61.20000000000073,-2243.6,2118.7999999999993,-548.3,-82.19999999999999,-2318.2,2025-01-29 10:36:04,0.0
-238.79999999999927,-2579.6,2542.7999999999993,-457.3,146.8,-2387.2,2025-01-29 10:36:04,0.0
-526.7999999999993,-2579.6,2322.7999999999993,-201.3,109.80000000000001,-2140.2,2025-01-29 10:36:04,0.0
-178.79999999999927,-2283.6,2050.7999999999993,-72.3,167.8,-1883.2,2025-01-29 10:36:04,0.0
81.20000000000073,-2103.6,1846.7999999999993,-41.3,633.8,-1659.2,2025-01-29 10:36:04,0.0
-42.79999999999927,-2111.6,1734.7999999999993,-137.3,1240.8,-1524.2,2025-01-29 10:36:04,0.0
-550.7999999999993,-2087.6,1690.7999999999993,-187.3,1541.8,-1218.2,2025-01-29 10:36:04,0.0
-970.7999999999993,-1563.6,2074.7999999999993,-196.3,1360.8,-702.2,2025-01-29 10:36:04,0.0
-894.7999999999993,-1323.6,1886.7999999999993,-337.3,1023.8,-438.2,2025-01-29 10:36:04,0.0
-970.7999999999993,-899.6,2018.7999999999993,-467.3,789.8,-201.2,2025-01-29 10:36:04,0.0
-894.7999999999993,-903.6,1870.7999999999993,-737.3,731.8,52.80000000000001,2025-01-29 10:36:04,0.0
-666.7999999999993,-1027.6,1482.7999999999993,-988.3,889.8,229.8,2025-01-29 10:36:04,0.0
-558.7999999999993,-1179.6,1210.7999999999993,-1354.3,1086.8,351.8,2025-01-29 10:36:04,0.0
-562.7999999999993,-1359.6,1502.7999999999993,-1749.3,1106.8,392.8,2025-01-29 10:36:04,0.0
-938.7999999999993,-1387.6,1466.7999999999993,-2264.3,835.8,252.8,2025-01-29 10:36:04,0.0
-1286.7999999999993,-1335.6,1698.7999999999993,-2552.3,382.8,160.8,2025-01-29 10:36:04,0.0
-1262.7999999999993,-1443.6,1810.7999999999993,-2574.3,-70.19999999999999,-30.19999999999999,2025-01-29 10:36:05,0.0
-906.7999999999993,-1155.6,1842.7999999999993,-2581.3,-235.2,-406.2,2025-01-29 10:36:05,0.0
-982.7999999999993,-1119.6,1934.7999999999993,-2730.3,-97.19999999999999,-763.2,2025-01-29 10:36:05,0.0
-1106.7999999999993,-871.6,1682.7999999999993,-2879.3,80.80000000000001,-744.2,2025-01-29 10:36:05,0.0
-970.7999999999993,-367.6,1466.7999999999993,-3155.3,361.8,-700.2,2025-01-29 10:36:05,0.0
-1110.7999999999993,-343.6,1698.7999999999993,-3633.3,630.8,-861.2,2025-01-29 10:36:05,0.0
-1250.7999999999993,-327.6,1966.7999999999993,-4070.3,544.8,-1266.2,2025-01-29 10:36:05,0.0
-1374.7999999999993,-415.6,2222.7999999999993,-4436.3,41.80000000000001,-1601.2,2025-01-29 10:36:05,0.0
-1338.7999999999993,-451.6,2358.7999999999993,-4718.3,-38.19999999999999,-1927.2,2025-01-29 10:36:05,0.0
-1514.7999999999993,-415.6,1446.7999999999993,-4922.3,296.8,-2178.2,2025-01-29 10:36:05,0.0
-1950.7999999999993,-923.6,642.7999999999993,-4876.3,472.8,-2313.2,2025-01-29 10:36:05,0.0
-2274.7999999999993,-2327.6,-173.20000000000073,-4626.3,-86.19999999999999,-2208.2,2025-01-29 10:36:05,0.0
-1978.7999999999993,-3819.6,498.7999999999993,-3779.3,-1120.2,-1776.2,2025-01-29 10:36:05,0.0
-2286.7999999999993,-4371.6,210.79999999999927,-2711.3,-1769.2,-957.2,2025-01-29 10:36:05,0.0
-1874.7999999999993,-3259.6,-749.2000000000007,-2020.3,-1486.2,216.8,2025-01-29 10:36:05,0.0
-1286.7999999999993,-1855.6,-1909.2000000000007,-1799.3,-1003.2,619.8,2025-01-29 10:36:05,0.0
-386.7999999999993,-391.6,-2925.2000000000007,-1882.3,-911.2,664.8,2025-01-29 10:36:05,0.0
561.2000000000007,756.4,-2725.2000000000007,-2363.3,-1515.2,473.8,2025-01-29 10:36:05,0.0
1489.2000000000007,1704.4,-1273.2000000000007,-2916.3,-2046.2,-16.19999999999999,2025-01-29 10:36:05,0.0
1937.2000000000007,2520.4,930.7999999999993,-3331.3,-2124.2,-516.2,2025-01-29 10:36:05,0.0
2053.2000000000007,2080.4,3146.7999999999993,-3524.3,-891.2,-963.2,2025-01-29 10:36:05,0.0
821.2000000000007,376.4,4466.799999999999,-3103.3,991.8,-1375.2,2025-01-29 10:36:05,0.0
-2090.7999999999993,-979.6,2666.7999999999993,-1660.3,3775.8,-551.2,2025-01-29 10:36:05,0.0
-3538.7999999999993,-1559.6,-297.2000000000007,-1030.3,6060.8,1266.8,2025-01-29 10:36:05,0.0
-4110.799999999999,-895.6,-929.2000000000007,-1007.3,5301.8,2176.8,2025-01-29 10:36:05,0.0
-2258.7999999999993,1040.4,-2241.2000000000007,-1329.3,-94.19999999999999,2707.8,2025-01-29 10:36:05,0.0
-54.79999999999927,2440.4,-1881.2000000000007,-1935.3,-3264.2,2411.8,2025-01-29 10:36:05,0.0
2141.2000000000007,2748.4,-21.200000000000728,-2008.3,-4013.2,1529.8,2025-01-29 10:36:05,0.0
3157.2000000000007,2336.4,562.7999999999993,-1914.3,-2700.2,495.8,2025-01-29 10:36:05,0.0
2957.2000000000007,1632.4,978.7999999999993,-1875.3,-451.2,-61.19999999999999,2025-01-29 10:36:05,0.0
