acceleration_x,acceleration_y,acceleration_z,gyroscope_x,gyroscope_y,gyroscope_z,timestamp,label
59.600000000000364,-36.0,37.59999999999991,209.9,-5.5,-9.0,2025-01-29 15:13:21,0.0
-0.3999999999996362,64.0,-94.40000000000009,202.9,7.5,-25.0,2025-01-29 15:13:21,0.0
27.600000000000364,-48.0,17.59999999999991,167.9,37.5,-6.0,2025-01-29 15:13:21,0.0
-100.39999999999964,112.0,-26.40000000000009,65.9,61.5,-5.0,2025-01-29 15:13:21,0.0
-76.39999999999964,4.0,-46.40000000000009,-10.099999999999994,48.5,31.0,2025-01-29 15:13:21,0.0
39.600000000000364,108.0,-2.400000000000091,-105.1,29.5,-3.0,2025-01-29 15:13:21,0.0
-36.399999999999636,36.0,125.59999999999991,-131.1,35.5,12.0,2025-01-29 15:13:21,0.0
-32.399999999999636,-100.0,93.59999999999991,-119.1,-16.5,4.0,2025-01-29 15:13:21,0.0
55.600000000000364,20.0,-22.40000000000009,-150.1,-116.5,20.0,2025-01-29 15:13:21,0.0
63.600000000000364,-160.0,-82.40000000000009,-131.1,-81.5,-19.0,2025-01-29 15:13:21,0.0
59.600000000000364,-152.0,93.59999999999991,-140.1,6.5,-24.0,2025-01-29 15:13:21,0.0
115.60000000000036,-124.0,173.5999999999999,-148.1,88.5,-23.0,2025-01-29 15:13:21,0.0
99.60000000000036,-148.0,105.59999999999991,-135.1,107.5,-44.0,2025-01-29 15:13:21,0.0
35.600000000000364,-80.0,-30.40000000000009,-124.1,55.5,-12.0,2025-01-29 15:13:21,0.0
51.600000000000364,-136.0,-6.400000000000091,-99.1,44.5,-22.0,2025-01-29 15:13:21,0.0
-88.39999999999964,-36.0,125.59999999999991,-80.1,21.5,36.0,2025-01-29 15:13:21,0.0
15.600000000000364,-56.0,181.5999999999999,-73.1,39.5,33.0,2025-01-29 15:13:22,0.0
91.60000000000036,-156.0,145.5999999999999,-52.099999999999994,18.5,4.0,2025-01-29 15:13:22,0.0
123.60000000000036,-20.0,125.59999999999991,-41.099999999999994,34.5,45.0,2025-01-29 15:13:22,0.0
-60.399999999999636,-56.0,25.59999999999991,14.900000000000006,66.5,-8.0,2025-01-29 15:13:22,0.0
63.600000000000364,-20.0,125.59999999999991,51.900000000000006,21.5,42.0,2025-01-29 15:13:22,0.0
75.60000000000036,24.0,213.5999999999999,15.900000000000006,8.5,9.0,2025-01-29 15:13:22,0.0
51.600000000000364,56.0,317.5999999999999,-20.099999999999994,-88.5,-7.0,2025-01-29 15:13:22,0.0
79.60000000000036,116.0,125.59999999999991,7.900000000000006,-80.5,-25.0,2025-01-29 15:13:22,0.0
43.600000000000364,116.0,5.599999999999909,-7.099999999999994,0.5,-19.0,2025-01-29 15:13:22,0.0
207.60000000000036,48.0,69.59999999999991,7.900000000000006,43.5,-29.0,2025-01-29 15:13:22,0.0
131.60000000000036,32.0,25.59999999999991,-67.1,138.5,-71.0,2025-01-29 15:13:22,0.0
31.600000000000364,156.0,85.59999999999991,-60.099999999999994,248.5,-88.0,2025-01-29 15:13:22,0.0
-8.399999999999636,344.0,73.59999999999991,-121.1,365.5,-89.0,2025-01-29 15:13:22,0.0
-60.399999999999636,264.0,53.59999999999991,-129.1,318.5,-67.0,2025-01-29 15:13:22,0.0
-180.39999999999964,80.0,101.59999999999991,-126.1,225.5,2.0,2025-01-29 15:13:22,0.0
-188.39999999999964,-84.0,333.5999999999999,-74.1,190.5,13.0,2025-01-29 15:13:22,0.0
-60.399999999999636,-156.0,429.5999999999999,122.9,82.5,-6.0,2025-01-29 15:13:22,0.0
-20.399999999999636,-28.0,437.5999999999999,224.9,-126.5,-15.0,2025-01-29 15:13:22,0.0
163.60000000000036,52.0,361.5999999999999,238.9,-226.5,-49.0,2025-01-29 15:13:22,0.0
335.60000000000036,256.0,325.5999999999999,215.9,-58.5,-131.0,2025-01-29 15:13:22,0.0
291.60000000000036,252.0,61.59999999999991,158.9,250.5,-201.0,2025-01-29 15:13:22,0.0
215.60000000000036,108.0,-66.40000000000009,146.9,436.5,-178.0,2025-01-29 15:13:22,0.0
-32.399999999999636,188.0,-94.40000000000009,145.9,568.5,-182.0,2025-01-29 15:13:22,0.0
-112.39999999999964,156.0,-66.40000000000009,81.9,501.5,-142.0,2025-01-29 15:13:22,0.0
-236.39999999999964,24.0,101.59999999999991,13.900000000000006,159.5,-121.0,2025-01-29 15:13:22,0.0
-232.39999999999964,104.0,29.59999999999991,-26.099999999999994,-148.5,-133.0,2025-01-29 15:13:22,0.0
-48.399999999999636,216.0,-54.40000000000009,-1.0999999999999943,-264.5,-94.0,2025-01-29 15:13:22,0.0
119.60000000000036,140.0,-182.4000000000001,18.900000000000006,-220.5,-97.0,2025-01-29 15:13:22,0.0
151.60000000000036,48.0,-282.4000000000001,-8.099999999999994,-74.5,-166.0,2025-01-29 15:13:22,0.0
31.600000000000364,-188.0,-154.4000000000001,-50.099999999999994,-51.5,-163.0,2025-01-29 15:13:22,0.0
55.600000000000364,-524.0,53.59999999999991,5.900000000000006,74.5,-157.0,2025-01-29 15:13:22,0.0
-68.39999999999964,-808.0,-22.40000000000009,58.900000000000006,99.5,-246.0,2025-01-29 15:13:22,0.0
-80.39999999999964,-152.0,317.5999999999999,26.900000000000006,-176.5,-281.0,2025-01-29 15:13:22,0.0
-12.399999999999636,420.0,269.5999999999999,-101.1,-344.5,-223.0,2025-01-29 15:13:22,0.0
227.60000000000036,656.0,33.59999999999991,-210.1,-398.5,-340.0,2025-01-29 15:13:22,0.0
143.60000000000036,608.0,-474.4000000000001,-327.1,-456.5,-352.0,2025-01-29 15:13:22,0.0
139.60000000000036,660.0,-606.4000000000001,-558.1,-322.5,-394.0,2025-01-29 15:13:22,0.0
103.60000000000036,540.0,-362.4000000000001,-661.1,-76.5,-426.0,2025-01-29 15:13:22,0.0
139.60000000000036,396.0,-10.400000000000091,-744.1,142.5,-505.0,2025-01-29 15:13:22,0.0
-12.399999999999636,408.0,161.5999999999999,-735.1,186.5,-518.0,2025-01-29 15:13:22,0.0
15.600000000000364,288.0,713.5999999999999,-625.1,216.5,-558.0,2025-01-29 15:13:22,0.0
3.600000000000364,472.0,881.5999999999999,-469.1,180.5,-572.0,2025-01-29 15:13:22,0.0
55.600000000000364,736.0,917.5999999999999,-390.1,154.5,-658.0,2025-01-29 15:13:22,0.0
-84.39999999999964,888.0,773.5999999999999,-329.1,84.5,-696.0,2025-01-29 15:13:22,0.0
-220.39999999999964,936.0,969.5999999999999,-256.1,-186.5,-723.0,2025-01-29 15:13:22,0.0
-188.39999999999964,972.0,989.5999999999999,-273.1,-411.5,-735.0,2025-01-29 15:13:22,0.0
-208.39999999999964,1120.0,653.5999999999999,-340.1,-675.5,-627.0,2025-01-29 15:13:22,0.0
-400.39999999999964,1096.0,605.5999999999999,-508.1,-1118.5,-563.0,2025-01-29 15:13:22,0.0
-108.39999999999964,1048.0,753.5999999999999,-582.1,-1443.5,-467.0,2025-01-29 15:13:22,0.0
-92.39999999999964,1048.0,833.5999999999999,-697.1,-1415.5,-431.0,2025-01-29 15:13:22,0.0
-200.39999999999964,1012.0,573.5999999999999,-845.1,-1314.5,-549.0,2025-01-29 15:13:22,0.0
-180.39999999999964,944.0,361.5999999999999,-951.1,-1309.5,-912.0,2025-01-29 15:13:22,0.0
-160.39999999999964,480.0,-314.4000000000001,-971.1,-1195.5,-1495.0,2025-01-29 15:13:22,0.0
455.60000000000036,-552.0,-250.4000000000001,-968.1,-1066.5,-2155.0,2025-01-29 15:13:22,0.0
791.6000000000004,-1552.0,-266.4000000000001,-770.1,-957.5,-2827.0,2025-01-29 15:13:22,0.0
915.6000000000004,-2340.0,165.5999999999999,-576.1,-880.5,-3203.0,2025-01-29 15:13:22,0.0
743.6000000000004,-2968.0,817.5999999999999,-163.1,-301.5,-3414.0,2025-01-29 15:13:22,0.0
199.60000000000036,-2976.0,1861.6,236.9,637.5,-3187.0,2025-01-29 15:13:22,0.0
-320.39999999999964,-2124.0,2893.6,542.9,976.5,-2581.0,2025-01-29 15:13:23,0.0
-696.3999999999996,-908.0,2457.6,477.9,359.5,-1854.0,2025-01-29 15:13:23,0.0
-640.3999999999996,56.0,1881.6,-414.1,-767.5,-1381.0,2025-01-29 15:13:23,0.0
-456.39999999999964,252.0,1761.6,-1453.1,-1187.5,-1494.0,2025-01-29 15:13:23,0.0
-180.39999999999964,104.0,1733.6,-2627.1,-990.5,-1877.0,2025-01-29 15:13:23,0.0
71.60000000000036,-484.0,1925.6,-3571.1,-826.5,-2075.0,2025-01-29 15:13:23,0.0
387.60000000000036,-1324.0,2197.6,-4035.1,-874.5,-2075.0,2025-01-29 15:13:23,0.0
435.60000000000036,-2196.0,2413.6,-4018.1,-903.5,-2007.0,2025-01-29 15:13:23,0.0
615.6000000000004,-2928.0,2601.6,-3697.1,-912.5,-1885.0,2025-01-29 15:13:23,0.0
855.6000000000004,-3244.0,2657.6,-3152.1,-404.5,-1788.0,2025-01-29 15:13:23,0.0
763.6000000000004,-3224.0,2857.6,-2516.1,476.5,-1672.0,2025-01-29 15:13:23,0.0
751.6000000000004,-3024.0,2925.6,-2115.1,916.5,-1414.0,2025-01-29 15:13:23,0.0
603.6000000000004,-3000.0,3093.6,-1823.1,827.5,-1060.0,2025-01-29 15:13:23,0.0
639.6000000000004,-3000.0,3313.6,-1400.1,408.5,-709.0,2025-01-29 15:13:23,0.0
695.6000000000004,-3180.0,3465.6,-1062.1,-13.5,-400.0,2025-01-29 15:13:23,0.0
715.6000000000004,-2920.0,3433.6,-683.1,-208.5,-73.0,2025-01-29 15:13:23,0.0
475.60000000000036,-2396.0,3569.6,-472.1,-308.5,16.0,2025-01-29 15:13:23,0.0
223.60000000000036,-2048.0,3285.6,-483.1,-676.5,138.0,2025-01-29 15:13:23,0.0
-80.39999999999964,-1676.0,3349.6,-544.1,-1234.5,372.0,2025-01-29 15:13:23,0.0
-252.39999999999964,-1424.0,3165.6,-691.1,-1592.5,579.0,2025-01-29 15:13:23,0.0
19.600000000000364,-964.0,2797.6,-1099.1,-1746.5,507.0,2025-01-29 15:13:23,0.0
-16.399999999999636,-788.0,2473.6,-1645.1,-1510.5,432.0,2025-01-29 15:13:23,0.0
35.600000000000364,-1220.0,2281.6,-2137.1,-1117.5,493.0,2025-01-29 15:13:23,0.0
683.6000000000004,-1712.0,1981.6,-2852.1,-343.5,222.0,2025-01-29 15:13:23,0.0
111.60000000000036,-1572.0,2093.6,-3645.1,249.5,-261.0,2025-01-29 15:13:23,0.0
-636.3999999999996,-1176.0,2317.6,-4299.1,556.5,-534.0,2025-01-29 15:13:23,
-952.3999999999996,-1144.0,2173.6,-4701.1,439.5,-630.0,2025-01-29 15:13:23,0.0
-752.3999999999996,-1224.0,2309.6,-5130.1,201.5,-757.0,2025-01-29 15:13:23,0.0
-556.3999999999996,-1680.0,2609.6,-5499.1,180.5,-900.0,2025-01-29 15:13:23,0.0
-320.39999999999964,-2748.0,3537.6,-5835.1,102.5,-878.0,2025-01-29 15:13:23,0.0
-584.3999999999996,-3692.0,4673.6,-5947.1,-275.5,-996.0,2025-01-29 15:13:23,0.0
-1060.3999999999996,-4616.0,5057.6,-5811.1,-759.5,-1141.0,2025-01-29 15:13:23,0.0
-1248.3999999999996,-5036.0,5573.6,-5415.1,-698.5,-833.0,2025-01-29 15:13:23,0.0
-1180.3999999999996,-5004.0,5393.6,-4079.1,-279.5,-247.0,2025-01-29 15:13:23,0.0
-2292.3999999999996,-4708.0,2189.6,-2829.1,817.5,-147.0,2025-01-29 15:13:23,0.0
-2544.3999999999996,-5028.0,1561.6,-2837.1,1960.5,-694.0,2025-01-29 15:13:23,0.0
-3000.3999999999996,-4924.0,3717.6,-2294.1,1150.5,-1747.0,2025-01-29 15:13:23,0.0
-4596.4,-5096.0,4109.6,-1204.1,-1286.5,-1597.0,2025-01-29 15:13:23,0.0
-5580.4,-4860.0,3941.6,65.9,-4048.5,99.0,2025-01-29 15:13:23,0.0
-5008.4,-3284.0,2569.6,1377.9,-5818.5,2115.0,2025-01-29 15:13:23,0.0
-2628.3999999999996,-1568.0,553.5999999999999,2084.9,-5987.5,3539.0,2025-01-29 15:13:23,0.0
139.60000000000036,-676.0,-1886.4,1686.9,-4903.5,4424.0,2025-01-29 15:13:23,0.0
2463.6000000000004,-348.0,-3186.4,474.9,-3418.5,4031.0,2025-01-29 15:13:23,0.0
3307.6000000000004,-8.0,-3494.4,-615.1,-2237.5,2870.0,2025-01-29 15:13:23,0.0
3483.6000000000004,460.0,-2438.4,-1133.1,-843.5,1701.0,2025-01-29 15:13:23,0.0
3367.6000000000004,748.0,-1250.4,-1395.1,845.5,826.0,2025-01-29 15:13:23,0.0
1939.6000000000004,468.0,349.5999999999999,-1595.1,2209.5,402.0,2025-01-29 15:13:23,0.0
-216.39999999999964,144.0,1709.6,-890.1,2861.5,887.0,2025-01-29 15:13:23,0.0
-1240.3999999999996,-308.0,1661.6,-266.1,2767.5,1892.0,2025-01-29 15:13:23,0.0
-1632.3999999999996,-892.0,1641.6,339.9,2032.5,2660.0,2025-01-29 15:13:23,0.0
-1488.3999999999996,-1512.0,1053.6,1046.9,702.5,3021.0,2025-01-29 15:13:23,0.0
-632.3999999999996,-1576.0,717.5999999999999,1686.9,-715.5,2872.0,2025-01-29 15:13:23,0.0
-448.39999999999964,-888.0,861.5999999999999,2446.9,-1634.5,2618.0,2025-01-29 15:13:23,0.0
-200.39999999999964,80.0,617.5999999999999,3157.9,-1734.5,2866.0,2025-01-29 15:13:23,0.0
475.60000000000036,592.0,497.5999999999999,3626.9,-1744.5,3314.0,2025-01-29 15:13:23,0.0
1531.6000000000004,1008.0,245.5999999999999,3861.9,-1900.5,3417.0,2025-01-29 15:13:23,0.0
1831.6000000000004,1264.0,729.5999999999999,3774.9,-1395.5,3288.0,2025-01-29 15:13:23,0.0
1811.6000000000004,1604.0,517.5999999999999,3632.9,-517.5,3264.0,2025-01-29 15:13:23,0.0
1743.6000000000004,1996.0,773.5999999999999,3577.9,288.5,3438.0,2025-01-29 15:13:23,0.0
1103.6000000000004,2128.0,689.5999999999999,3687.9,842.5,3637.0,2025-01-29 15:13:23,0.0
1495.6000000000004,1912.0,713.5999999999999,3645.9,957.5,3609.0,2025-01-29 15:13:23,0.0
1875.6000000000004,1828.0,949.5999999999999,3477.9,697.5,3010.0,2025-01-29 15:13:23,0.0
2203.6000000000004,1364.0,1025.6,3238.9,480.5,2069.0,2025-01-29 15:13:23,0.0
1975.6000000000004,920.0,2009.6,3159.9,438.5,1137.0,2025-01-29 15:13:24,0.0
1959.6000000000004,748.0,2645.6,3480.9,544.5,585.0,2025-01-29 15:13:24,0.0
1667.6000000000004,728.0,2701.6,3653.9,562.5,106.0,2025-01-29 15:13:24,0.0
1419.6000000000004,808.0,2777.6,3866.9,269.5,-287.0,2025-01-29 15:13:24,0.0
1227.6000000000004,852.0,2833.6,4140.9,18.5,-493.0,2025-01-29 15:13:24,0.0
1247.6000000000004,608.0,2633.6,4170.9,45.5,-722.0,2025-01-29 15:13:24,0.0
1435.6000000000004,572.0,2825.6,4277.9,301.5,-1131.0,2025-01-29 15:13:24,0.0
1339.6000000000004,404.0,3069.6,4533.9,653.5,-1566.0,2025-01-29 15:13:24,0.0
751.6000000000004,532.0,3109.6,4891.9,885.5,-1743.0,2025-01-29 15:13:24,0.0
287.60000000000036,1180.0,2889.6,5457.9,1009.5,-1658.0,2025-01-29 15:13:24,0.0
-268.39999999999964,2000.0,2257.6,6057.9,1266.5,-1193.0,2025-01-29 15:13:24,0.0
-1184.3999999999996,2496.0,1233.6,6040.9,1810.5,-589.0,2025-01-29 15:13:24,0.0
-2396.3999999999996,2496.0,917.5999999999999,5613.9,2328.5,107.0,2025-01-29 15:13:24,0.0
-3784.3999999999996,3208.0,1409.6,4740.9,3079.5,1182.0,2025-01-29 15:13:24,0.0
-4432.4,3816.0,3425.6,4167.9,3094.5,2236.0,2025-01-29 15:13:24,0.0
-3660.3999999999996,3256.0,5145.6,3850.9,1275.5,2879.0,2025-01-29 15:13:24,0.0
-2128.3999999999996,1824.0,5165.6,3506.9,-1180.5,2229.0,2025-01-29 15:13:24,0.0
-2048.3999999999996,1016.0,2929.6,3185.9,-2143.5,1438.0,2025-01-29 15:13:24,0.0
-1700.3999999999996,460.0,2057.6,3494.9,-992.5,1142.0,2025-01-29 15:13:24,0.0
-2140.3999999999996,552.0,2061.6,4391.9,1492.5,1110.0,2025-01-29 15:13:24,0.0
-3184.3999999999996,2260.0,785.5999999999999,4523.9,3308.5,1102.0,2025-01-29 15:13:24,0.0
-4836.4,3568.0,-1618.4,3236.9,3696.5,1724.0,2025-01-29 15:13:24,0.0
-4860.4,4784.0,-4618.4,1059.9,2664.5,2564.0,2025-01-29 15:13:24,0.0
-3256.3999999999996,4932.0,-5510.4,-1299.1,-479.5,3074.0,2025-01-29 15:13:24,0.0
679.6000000000004,3412.0,-3838.4,-2699.1,-5057.5,1777.0,2025-01-29 15:13:24,0.0
2691.6000000000004,-316.0,-3542.4,-4147.1,-10075.5,-533.0,2025-01-29 15:13:24,0.0
2815.6000000000004,-3264.0,-1630.4,-4984.1,-10260.5,-1602.0,2025-01-29 15:13:24,0.0
2787.6000000000004,-5136.0,101.59999999999991,-3290.1,-5049.5,-2405.0,2025-01-29 15:13:24,0.0
747.6000000000004,-5372.0,-1598.4,81.9,2797.5,-2319.0,2025-01-29 15:13:24,0.0
699.6000000000004,-3352.0,-2206.4,1452.9,6467.5,-2311.0,2025-01-29 15:13:24,0.0
587.6000000000004,-644.0,-974.4000000000001,1727.9,8233.5,-2688.0,2025-01-29 15:13:24,0.0
183.60000000000036,1804.0,301.5999999999999,1011.9,7835.5,-3018.0,2025-01-29 15:13:24,0.0
-428.39999999999964,3020.0,229.5999999999999,-381.1,5486.5,-3147.0,2025-01-29 15:13:24,0.0
-904.3999999999996,2284.0,-554.4000000000001,-1815.1,1695.5,-3507.0,2025-01-29 15:13:24,0.0
-792.3999999999996,968.0,-950.4000000000001,-2972.1,-2873.5,-3656.0,2025-01-29 15:13:24,0.0
567.6000000000004,-292.0,-854.4000000000001,-3554.1,-6072.5,-3553.0,2025-01-29 15:13:24,0.0
1567.6000000000004,-1576.0,-574.4000000000001,-4045.1,-7809.5,-3235.0,2025-01-29 15:13:24,0.0
3071.6000000000004,-2476.0,625.5999999999999,-4536.1,-6473.5,-2947.0,2025-01-29 15:13:24,0.0
3879.6000000000004,-2404.0,1141.6,-4011.1,-2946.5,-2770.0,2025-01-29 15:13:24,0.0
3403.6000000000004,-1960.0,937.5999999999999,-3125.1,772.5,-2531.0,2025-01-29 15:13:24,0.0
2711.6000000000004,-1088.0,225.5999999999999,-2949.1,2801.5,-2264.0,2025-01-29 15:13:24,0.0
2063.6000000000004,-768.0,501.5999999999999,-3375.1,3454.5,-2371.0,2025-01-29 15:13:24,0.0
743.6000000000004,-692.0,1929.6,-3491.1,3009.5,-2414.0,2025-01-29 15:13:24,0.0
-60.399999999999636,-996.0,2293.6,-3263.1,2188.5,-1812.0,2025-01-29 15:13:24,0.0
-304.39999999999964,-1532.0,2017.6,-2805.1,1304.5,-847.0,2025-01-29 15:13:24,0.0
-236.39999999999964,-2144.0,1885.6,-2412.1,341.5,83.0,2025-01-29 15:13:24,0.0
887.6000000000004,-2272.0,1705.6,-2065.1,-466.5,449.0,2025-01-29 15:13:24,0.0
659.6000000000004,-1632.0,2017.6,-1721.1,-678.5,818.0,2025-01-29 15:13:24,0.0
707.6000000000004,-708.0,1861.6,-1669.1,-642.5,1183.0,2025-01-29 15:13:24,0.0
263.60000000000036,144.0,2161.6,-1761.1,-307.5,1620.0,2025-01-29 15:13:24,0.0
551.6000000000004,300.0,1849.6,-2002.1,23.5,2031.0,2025-01-29 15:13:24,0.0
651.6000000000004,-424.0,2349.6,-2306.1,240.5,2221.0,2025-01-29 15:13:24,0.0
1235.6000000000004,-1224.0,2049.6,-2420.1,231.5,2068.0,2025-01-29 15:13:24,0.0
1107.6000000000004,-1940.0,1813.6,-2665.1,224.5,1760.0,2025-01-29 15:13:24,0.0
979.6000000000004,-1944.0,1781.6,-2869.1,403.5,1203.0,2025-01-29 15:13:24,0.0
103.60000000000036,-848.0,1865.6,-2793.1,839.5,955.0,2025-01-29 15:13:24,0.0
-268.39999999999964,64.0,1677.6,-2791.1,1430.5,1039.0,2025-01-29 15:13:24,0.0
-488.39999999999964,-632.0,1557.6,-3022.1,1709.5,671.0,2025-01-29 15:13:24,0.0
-896.3999999999996,-1364.0,1537.6,-3484.1,1279.5,-32.0,2025-01-29 15:13:24,0.0
-1572.3999999999996,-1260.0,2565.6,-3995.1,627.5,-529.0,2025-01-29 15:13:24,0.0
-2084.3999999999996,-536.0,3333.6,-4420.1,181.5,-1005.0,2025-01-29 15:13:24,0.0
-2500.3999999999996,348.0,4321.6,-4761.1,-409.5,-1364.0,2025-01-29 15:13:25,0.0
-2160.3999999999996,-48.0,3577.6,-5049.1,-366.5,-1353.0,2025-01-29 15:13:25,
-1732.3999999999996,-1352.0,1261.6,-5234.1,1063.5,-2187.0,2025-01-29 15:13:25,0.0
-2172.3999999999996,-2932.0,325.5999999999999,-5873.1,2602.5,-3412.0,2025-01-29 15:13:25,0.0
-3332.3999999999996,-4568.0,2441.6,-4977.1,3443.5,-5047.0,2025-01-29 15:13:25,0.0
-5356.4,-5504.0,3389.6,-2988.1,2206.5,-5522.0,2025-01-29 15:13:25,0.0
-7792.4,-5520.0,3073.6,-387.1,-894.5,-4100.0,2025-01-29 15:13:25,0.0
-9428.4,-4264.0,1117.6,1952.9,-4596.5,-474.0,2025-01-29 15:13:25,0.0
-5612.4,-1620.0,-422.4000000000001,3571.9,-8632.5,3616.0,2025-01-29 15:13:25,0.0
-1964.3999999999996,-952.0,-2538.4,3449.9,-11479.5,5136.0,2025-01-29 15:13:25,0.0
2067.6000000000004,-72.0,-3254.4,2477.9,-13021.5,5589.0,2025-01-29 15:13:25,0.0
6519.6,1268.0,-3646.4,1140.9,-10265.5,4492.0,2025-01-29 15:13:25,0.0
8835.6,2424.0,-5338.4,-389.1,-6017.5,2288.0,2025-01-29 15:13:25,0.0
8363.6,3244.0,-5582.4,-1748.1,-952.5,-104.0,2025-01-29 15:13:25,0.0
5379.6,2504.0,-4670.4,-2370.1,5137.5,-1638.0,2025-01-29 15:13:25,0.0
2743.6000000000004,1300.0,-3006.4,-2356.1,10542.5,-2003.0,2025-01-29 15:13:25,0.0
-744.3999999999996,244.0,125.59999999999991,-1924.1,14248.5,-1562.0,2025-01-29 15:13:25,0.0
-4264.4,-16.0,2733.6,-1253.1,13862.5,-87.0,2025-01-29 15:13:25,0.0
-5468.4,-380.0,2277.6,-863.1,9429.5,1314.0,2025-01-29 15:13:25,0.0
-4860.4,-480.0,981.5999999999999,-251.1,1996.5,2078.0,2025-01-29 15:13:25,0.0
-3572.3999999999996,-32.0,297.5999999999999,416.9,-6594.5,2499.0,2025-01-29 15:13:25,0.0
-1112.3999999999996,424.0,-438.4000000000001,466.9,-11589.5,2840.0,2025-01-29 15:13:25,0.0
1439.6000000000004,992.0,45.59999999999991,383.9,-13468.5,3172.0,2025-01-29 15:13:25,0.0
3995.6000000000004,1248.0,81.59999999999991,375.9,-10110.5,2981.0,2025-01-29 15:13:25,0.0
5459.6,732.0,-1130.4,401.9,-5278.5,2369.0,2025-01-29 15:13:25,0.0
5799.6,492.0,-546.4000000000001,613.9,366.5,1396.0,2025-01-29 15:13:25,0.0
4691.6,344.0,253.5999999999999,798.9,4672.5,579.0,2025-01-29 15:13:25,0.0
2783.6000000000004,768.0,1381.6,937.9,6776.5,307.0,2025-01-29 15:13:25,0.0
671.6000000000004,1012.0,2505.6,1106.9,6808.5,416.0,2025-01-29 15:13:25,0.0
-528.3999999999996,1268.0,3193.6,1234.9,4678.5,396.0,2025-01-29 15:13:25,0.0
-992.3999999999996,1288.0,3041.6,1308.9,1244.5,52.0,2025-01-29 15:13:25,0.0
-508.39999999999964,1168.0,2081.6,1157.9,-2450.5,-391.0,2025-01-29 15:13:25,0.0
507.60000000000036,996.0,2369.6,1185.9,-4518.5,-785.0,2025-01-29 15:13:25,0.0
1519.6000000000004,432.0,2661.6,1148.9,-4403.5,-986.0,2025-01-29 15:13:25,0.0
2619.6000000000004,-136.0,2357.6,1374.9,-2746.5,-1256.0,2025-01-29 15:13:25,0.0
2267.6000000000004,528.0,1789.6,1574.9,-925.5,-1497.0,2025-01-29 15:13:25,0.0
1455.6000000000004,1432.0,1577.6,1397.9,126.5,-1654.0,2025-01-29 15:13:25,0.0
383.60000000000036,2108.0,1637.6,1121.9,880.5,-1671.0,2025-01-29 15:13:25,0.0
-1020.3999999999996,2172.0,1665.6,804.9,1374.5,-1337.0,2025-01-29 15:13:25,0.0
-1688.3999999999996,1612.0,1693.6,826.9,813.5,-799.0,2025-01-29 15:13:25,0.0
-1852.3999999999996,140.0,2697.6,1575.9,-482.5,-391.0,2025-01-29 15:13:25,0.0
-1452.3999999999996,-1520.0,4001.6,2862.9,-1379.5,60.0,2025-01-29 15:13:25,0.0
-1012.3999999999996,-1892.0,4305.6,4163.9,-1237.5,287.0,2025-01-29 15:13:25,0.0
-960.3999999999996,-1152.0,4329.6,5277.9,-929.5,538.0,2025-01-29 15:13:25,0.0
-504.39999999999964,-304.0,4457.6,6378.9,-836.5,861.0,2025-01-29 15:13:25,0.0
399.60000000000036,224.0,5025.6,7212.9,-777.5,997.0,2025-01-29 15:13:25,0.0
1203.6000000000004,596.0,4437.6,7711.9,-218.5,627.0,2025-01-29 15:13:25,0.0
707.6000000000004,388.0,2105.6,7401.9,1308.5,-134.0,2025-01-29 15:13:25,0.0
-1328.3999999999996,1940.0,89.59999999999991,7214.9,3805.5,-1019.0,2025-01-29 15:13:25,0.0
-3932.3999999999996,3692.0,-2082.4,6421.9,6120.5,-915.0,2025-01-29 15:13:25,0.0
-5708.4,5384.0,-4666.4,4325.9,7450.5,25.0,2025-01-29 15:13:25,0.0
-6060.4,6060.0,-6398.4,561.9,6987.5,996.0,2025-01-29 15:13:25,0.0
-5368.4,4932.0,-6738.4,-2666.1,4178.5,1280.0,2025-01-29 15:13:25,0.0
-2672.3999999999996,2584.0,-3722.4,-4328.1,-995.5,886.0,2025-01-29 15:13:25,0.0
179.60000000000036,-540.0,-966.4000000000001,-4738.1,-5732.5,-174.0,2025-01-29 15:13:25,0.0
3195.6000000000004,-3068.0,705.5999999999999,-4484.1,-9259.5,-1661.0,2025-01-29 15:13:25,0.0
4455.6,-5244.0,2545.6,-3571.1,-9697.5,-3218.0,2025-01-29 15:13:25,0.0
4343.6,-6208.0,2529.6,-1645.1,-6411.5,-3704.0,2025-01-29 15:13:25,0.0
2839.6000000000004,-5688.0,237.5999999999999,1006.9,-2160.5,-3190.0,2025-01-29 15:13:25,0.0
1995.6000000000004,-4012.0,-1682.4,2935.9,2687.5,-2125.0,2025-01-29 15:13:25,0.0
2223.6000000000004,-2480.0,-2370.4,3538.9,7629.5,-1746.0,2025-01-29 15:13:25,0.0
-4.399999999999636,-1228.0,-494.4000000000001,3179.9,10624.5,-2025.0,2025-01-29 15:13:26,0.0
-2036.3999999999996,-684.0,1117.6,2835.9,10979.5,-2186.0,2025-01-29 15:13:26,0.0
-2804.3999999999996,-1244.0,809.5999999999999,2445.9,6269.5,-2451.0,2025-01-29 15:13:26,0.0
-2376.3999999999996,-1820.0,-182.4000000000001,2097.9,-321.5,-2670.0,2025-01-29 15:13:26,0.0
-1436.3999999999996,-2364.0,-142.4000000000001,2222.9,-4942.5,-2341.0,2025-01-29 15:13:26,0.0
15.600000000000364,-2908.0,25.59999999999991,2716.9,-6631.5,-1820.0,2025-01-29 15:13:26,0.0
1723.6000000000004,-2484.0,-358.4000000000001,2811.9,-5646.5,-1594.0,2025-01-29 15:13:26,0.0
2915.6000000000004,-1568.0,-1106.4,2498.9,-2580.5,-1664.0,2025-01-29 15:13:26,0.0
3355.6000000000004,-1040.0,-2186.4,1947.9,571.5,-1847.0,2025-01-29 15:13:26,0.0
2527.6000000000004,-1016.0,-1638.4,1195.9,3382.5,-1789.0,2025-01-29 15:13:26,0.0
1011.6000000000004,-1568.0,-326.4000000000001,648.9,4597.5,-1454.0,2025-01-29 15:13:26,0.0
-264.39999999999964,-2236.0,473.5999999999999,530.9,4622.5,-970.0,2025-01-29 15:13:26,0.0
-1260.3999999999996,-2884.0,781.5999999999999,734.9,3503.5,-287.0,2025-01-29 15:13:26,0.0
-1052.3999999999996,-3072.0,225.5999999999999,915.9,1557.5,166.0,2025-01-29 15:13:26,0.0
-668.3999999999996,-3024.0,-102.40000000000009,1013.9,-617.5,516.0,2025-01-29 15:13:26,0.0
27.600000000000364,-2520.0,-266.4000000000001,1006.9,-1824.5,714.0,2025-01-29 15:13:26,0.0
947.6000000000004,-2196.0,-534.4000000000001,872.9,-1748.5,694.0,2025-01-29 15:13:26,0.0
1303.6000000000004,-1948.0,-790.4000000000001,678.9,-899.5,521.0,2025-01-29 15:13:26,0.0
1323.6000000000004,-1644.0,-702.4000000000001,441.9,517.5,368.0,2025-01-29 15:13:26,0.0
1059.6000000000004,-1348.0,-614.4000000000001,364.9,1317.5,320.0,2025-01-29 15:13:26,0.0
499.60000000000036,-1460.0,-302.4000000000001,26.900000000000006,1620.5,299.0,2025-01-29 15:13:26,0.0
35.600000000000364,-1412.0,233.5999999999999,-525.1,1426.5,352.0,2025-01-29 15:13:26,0.0
-452.39999999999964,-1392.0,573.5999999999999,-1054.1,1046.5,490.0,2025-01-29 15:13:26,0.0
-476.39999999999964,-1408.0,813.5999999999999,-1658.1,265.5,655.0,2025-01-29 15:13:26,0.0
-480.39999999999964,-1536.0,893.5999999999999,-2265.1,-580.5,814.0,2025-01-29 15:13:26,0.0
-312.39999999999964,-1764.0,917.5999999999999,-2604.1,-860.5,1040.0,2025-01-29 15:13:26,0.0
483.60000000000036,-1908.0,489.5999999999999,-2893.1,-404.5,1247.0,2025-01-29 15:13:26,0.0
547.6000000000004,-2112.0,225.5999999999999,-3171.1,309.5,1257.0,2025-01-29 15:13:26,0.0
491.60000000000036,-2288.0,-14.400000000000091,-3527.1,719.5,1283.0,2025-01-29 15:13:26,0.0
451.60000000000036,-2388.0,517.5999999999999,-3392.1,1016.5,1200.0,2025-01-29 15:13:26,0.0
243.60000000000036,-2180.0,341.5999999999999,-3028.1,998.5,1477.0,2025-01-29 15:13:26,0.0
135.60000000000036,-2268.0,685.5999999999999,-2553.1,679.5,1828.0,2025-01-29 15:13:26,0.0
131.60000000000036,-2380.0,337.5999999999999,-2016.1,376.5,1968.0,2025-01-29 15:13:26,0.0
-180.39999999999964,-2700.0,-158.4000000000001,-1564.1,216.5,2060.0,2025-01-29 15:13:26,0.0
-332.39999999999964,-2296.0,-634.4000000000001,-1022.1,-26.5,2218.0,2025-01-29 15:13:26,0.0
-228.39999999999964,-1672.0,-650.4000000000001,-534.1,-182.5,2498.0,2025-01-29 15:13:26,0.0
-4.399999999999636,-708.0,-1054.4,-223.1,139.5,2407.0,2025-01-29 15:13:26,0.0
363.60000000000036,-8.0,-1522.4,-46.099999999999994,604.5,1599.0,2025-01-29 15:13:26,0.0
183.60000000000036,392.0,-1822.4,-204.1,453.5,628.0,2025-01-29 15:13:26,0.0
-364.39999999999964,492.0,-1622.4,-694.1,-505.5,277.0,2025-01-29 15:13:26,0.0
-164.39999999999964,556.0,-1514.4,-1337.1,-1691.5,516.0,2025-01-29 15:13:26,
163.60000000000036,676.0,-1270.4,-1729.1,-1715.5,914.0,2025-01-29 15:13:26,0.0
791.6000000000004,408.0,-1546.4,-2198.1,-1151.5,1205.0,2025-01-29 15:13:26,0.0
831.6000000000004,40.0,-1478.4,-2628.1,103.5,1295.0,2025-01-29 15:13:26,0.0
863.6000000000004,-4.0,-910.4000000000001,-2712.1,1360.5,1230.0,2025-01-29 15:13:26,0.0
731.6000000000004,12.0,-226.4000000000001,-2770.1,2228.5,1097.0,2025-01-29 15:13:26,0.0
567.6000000000004,136.0,521.5999999999999,-2718.1,2526.5,734.0,2025-01-29 15:13:26,0.0
219.60000000000036,-64.0,793.5999999999999,-2515.1,2379.5,374.0,2025-01-29 15:13:26,0.0
-32.399999999999636,-352.0,1005.5999999999999,-2318.1,2119.5,153.0,2025-01-29 15:13:26,0.0
-332.39999999999964,-244.0,937.5999999999999,-2017.1,1815.5,66.0,2025-01-29 15:13:26,0.0
-140.39999999999964,-556.0,981.5999999999999,-1732.1,1334.5,19.0,2025-01-29 15:13:26,0.0
-64.39999999999964,-424.0,845.5999999999999,-1432.1,967.5,-81.0,2025-01-29 15:13:26,0.0
19.600000000000364,-80.0,885.5999999999999,-1148.1,710.5,-198.0,2025-01-29 15:13:26,0.0
151.60000000000036,204.0,781.5999999999999,-915.1,381.5,-283.0,2025-01-29 15:13:26,0.0
167.60000000000036,316.0,581.5999999999999,-652.1,58.5,-304.0,2025-01-29 15:13:26,0.0
315.60000000000036,424.0,-174.4000000000001,-558.1,-85.5,-415.0,2025-01-29 15:13:26,0.0
383.60000000000036,572.0,-762.4000000000001,-578.1,24.5,-485.0,2025-01-29 15:13:26,0.0
247.60000000000036,492.0,-1038.4,-649.1,244.5,-459.0,2025-01-29 15:13:26,0.0
699.6000000000004,400.0,-1410.4,-643.1,459.5,-449.0,2025-01-29 15:13:26,0.0
775.6000000000004,348.0,-1498.4,-622.1,543.5,-532.0,2025-01-29 15:13:26,0.0
927.6000000000004,364.0,-1558.4,-659.1,397.5,-616.0,2025-01-29 15:13:26,0.0
1183.6000000000004,296.0,-1742.4,-682.1,-36.5,-652.0,2025-01-29 15:13:27,0.0
1683.6000000000004,184.0,-1998.4,-658.1,-681.5,-729.0,2025-01-29 15:13:27,0.0
2403.6000000000004,232.0,-1742.4,-646.1,-1460.5,-944.0,2025-01-29 15:13:27,0.0
2895.6000000000004,252.0,-1354.4,-658.1,-2121.5,-1204.0,2025-01-29 15:13:27,0.0
3751.6000000000004,240.0,-1090.4,-596.1,-2305.5,-1512.0,2025-01-29 15:13:27,0.0
4655.6,-128.0,-902.4000000000001,-414.1,-1618.5,-2114.0,2025-01-29 15:13:27,0.0
5163.6,-216.0,-394.4000000000001,-268.1,-279.5,-2768.0,2025-01-29 15:13:27,0.0
5247.6,-280.0,81.59999999999991,130.9,229.5,-3313.0,2025-01-29 15:13:27,0.0
4871.6,-224.0,-210.4000000000001,718.9,-830.5,-3078.0,2025-01-29 15:13:27,0.0
4799.6,-196.0,1109.6,1428.9,-2547.5,-2420.0,2025-01-29 15:13:27,0.0
5531.6,-604.0,2537.6,1422.9,-4426.5,-1857.0,2025-01-29 15:13:27,0.0
6403.6,-444.0,4829.6,1036.9,-4318.5,-1677.0,2025-01-29 15:13:27,0.0
6207.6,-44.0,5009.6,2289.9,-2811.5,-1656.0,2025-01-29 15:13:27,0.0
4523.6,132.0,1925.6,3102.9,-1104.5,-177.0,2025-01-29 15:13:27,0.0
4963.6,1220.0,1485.6,3132.9,-416.5,876.0,2025-01-29 15:13:27,0.0
4815.6,2252.0,1793.6,3194.9,-1382.5,1946.0,2025-01-29 15:13:27,0.0
4999.6,2132.0,1049.6,2398.9,-2686.5,2915.0,2025-01-29 15:13:27,0.0
-1420.3999999999996,1476.0,1233.6,1552.9,-3086.5,2454.0,2025-01-29 15:13:27,0.0
4667.6,652.0,1309.6,1274.9,-2001.5,1651.0,2025-01-29 15:13:27,0.0
2315.6000000000004,168.0,1137.6,796.9,-2203.5,1752.0,2025-01-29 15:13:27,0.0
-880.3999999999996,8.0,3577.6,383.9,-2708.5,2012.0,2025-01-29 15:13:27,0.0
827.6000000000004,-468.0,3441.6,382.9,-5442.5,3107.0,2025-01-29 15:13:27,0.0
1915.6000000000004,-1524.0,3617.6,444.9,-6305.5,2649.0,2025-01-29 15:13:27,0.0
1383.6000000000004,-1440.0,1977.6,32.900000000000006,-7347.5,1186.0,2025-01-29 15:13:27,0.0
-800.3999999999996,120.0,1165.6,-274.1,-7785.5,689.0,2025-01-29 15:13:27,0.0
-1828.3999999999996,956.0,397.5999999999999,-801.1,-8120.5,708.0,2025-01-29 15:13:27,0.0
-2264.3999999999996,1616.0,1581.6,-1572.1,-9696.5,1416.0,2025-01-29 15:13:27,0.0
-9712.4,1060.0,3849.6,-1858.1,-12852.5,1988.0,2025-01-29 15:13:27,0.0
-1376.3999999999996,-292.0,4333.6,-1949.1,-14853.5,2066.0,2025-01-29 15:13:27,0.0
-2436.3999999999996,-796.0,4697.6,-1880.1,-14688.5,2405.0,2025-01-29 15:13:27,0.0
-2400.3999999999996,-1052.0,5841.6,-1679.1,-13846.5,2422.0,2025-01-29 15:13:27,0.0
-2184.3999999999996,-1124.0,6657.6,-1406.1,-13441.5,2164.0,2025-01-29 15:13:27,0.0
-2032.3999999999996,-468.0,8077.6,-779.1,-14558.5,2004.0,2025-01-29 15:13:27,0.0
-564.3999999999996,-112.0,8289.6,-445.1,-15948.5,1828.0,2025-01-29 15:13:27,0.0
95.60000000000036,-324.0,8037.6,-135.1,-14873.5,1560.0,2025-01-29 15:13:27,0.0
-80.39999999999964,284.0,7861.6,-485.1,-12989.5,1008.0,2025-01-29 15:13:27,0.0
-368.39999999999964,788.0,10249.6,-651.1,-12381.5,411.0,2025-01-29 15:13:27,0.0
-1644.3999999999996,1604.0,11053.6,-571.1,-12919.5,260.0,2025-01-29 15:13:27,0.0
-2164.3999999999996,952.0,11053.6,-692.1,-13810.5,584.0,2025-01-29 15:13:27,0.0
-840.3999999999996,-228.0,10137.6,-634.1,-13912.5,914.0,2025-01-29 15:13:27,0.0
267.60000000000036,-980.0,9877.6,-987.1,-12298.5,982.0,2025-01-29 15:13:27,0.0
491.60000000000036,-1128.0,11321.6,-1139.1,-11053.5,440.0,2025-01-29 15:13:27,0.0
279.60000000000036,-184.0,12197.6,-1275.1,-10794.5,-208.0,2025-01-29 15:13:27,0.0
-1036.3999999999996,364.0,12297.6,-1270.1,-10698.5,-100.0,2025-01-29 15:13:27,0.0
-1620.3999999999996,440.0,11849.6,-1329.1,-9797.5,185.0,2025-01-29 15:13:27,0.0
-1548.3999999999996,756.0,13681.6,-1120.1,-9699.5,610.0,2025-01-29 15:13:27,0.0
-664.3999999999996,840.0,14021.6,-1159.1,-10645.5,1004.0,2025-01-29 15:13:27,0.0
403.60000000000036,392.0,14221.6,-869.1,-12362.5,1504.0,2025-01-29 15:13:27,0.0
1243.6000000000004,744.0,15489.6,-342.1,-13700.5,2037.0,2025-01-29 15:13:27,0.0
2099.6000000000004,844.0,15141.6,-299.1,-13753.5,2068.0,2025-01-29 15:13:27,0.0
967.6000000000004,788.0,15717.6,-820.1,-12491.5,1753.0,2025-01-29 15:13:27,0.0
-476.39999999999964,436.0,17493.6,-711.1,-11044.5,1789.0,2025-01-29 15:13:27,0.0
-20.399999999999636,480.0,18701.6,-492.1,-11008.5,1564.0,2025-01-29 15:13:27,0.0
887.6000000000004,740.0,19089.6,-386.1,-12146.5,1113.0,2025-01-29 15:13:27,0.0
2087.6000000000004,1336.0,17421.6,-623.1,-12177.5,956.0,2025-01-29 15:13:27,0.0
2407.6000000000004,1496.0,15481.6,-1262.1,-8348.5,574.0,2025-01-29 15:13:27,0.0
3231.6000000000004,1140.0,16137.6,-1500.1,-4213.5,79.0,2025-01-29 15:13:27,0.0
3231.6000000000004,1016.0,17009.6,-1355.1,-1333.5,-66.0,2025-01-29 15:13:27,0.0
2991.6000000000004,348.0,16773.6,-982.1,125.5,197.0,2025-01-29 15:13:27,0.0
2875.6000000000004,-352.0,17301.6,-450.1,1313.5,134.0,2025-01-29 15:13:27,0.0
3367.6000000000004,-136.0,17545.6,122.9,1751.5,-24.0,2025-01-29 15:13:27,0.0
2759.6000000000004,460.0,17425.6,456.9,1143.5,-411.0,2025-01-29 15:13:28,0.0
1899.6000000000004,1040.0,17209.6,477.9,172.5,-570.0,2025-01-29 15:13:28,0.0
3539.6000000000004,1632.0,15813.6,402.9,231.5,-458.0,2025-01-29 15:13:28,0.0
4463.6,2088.0,15265.6,429.9,338.5,-73.0,2025-01-29 15:13:28,0.0
5455.6,1748.0,14797.6,615.9,468.5,252.0,2025-01-29 15:13:28,0.0
6471.6,1140.0,14053.6,800.9,875.5,412.0,2025-01-29 15:13:28,0.0
6931.6,688.0,13053.6,676.9,1582.5,357.0,2025-01-29 15:13:28,0.0
7427.6,304.0,12585.6,331.9,2535.5,28.0,2025-01-29 15:13:28,0.0
6947.6,380.0,12889.6,63.900000000000006,3145.5,-326.0,2025-01-29 15:13:28,0.0
6367.6,592.0,13561.6,120.9,2865.5,-373.0,2025-01-29 15:13:28,0.0
5895.6,480.0,13745.6,394.9,2329.5,-309.0,2025-01-29 15:13:28,0.0
5887.6,48.0,13917.6,485.9,1843.5,-295.0,2025-01-29 15:13:28,0.0
5619.6,-20.0,14369.6,475.9,1119.5,-420.0,2025-01-29 15:13:28,0.0
4935.6,140.0,14793.6,348.9,-158.5,-479.0,2025-01-29 15:13:28,0.0
4903.6,552.0,15389.6,162.9,-1496.5,-471.0,2025-01-29 15:13:28,0.0
5223.6,976.0,15153.6,-40.099999999999994,-2197.5,-335.0,2025-01-29 15:13:28,0.0
5327.6,1076.0,14893.6,-106.1,-1836.5,-180.0,2025-01-29 15:13:28,0.0
5103.6,852.0,15169.6,-25.099999999999994,-1478.5,-118.0,2025-01-29 15:13:28,0.0
5095.6,460.0,14993.6,131.9,-1513.5,-14.0,2025-01-29 15:13:28,
5039.6,512.0,14873.6,299.9,-1436.5,-8.0,2025-01-29 15:13:28,0.0
5139.6,376.0,14541.6,351.9,-827.5,-165.0,2025-01-29 15:13:28,0.0
5011.6,488.0,14325.6,149.9,107.5,-337.0,2025-01-29 15:13:28,0.0
4539.6,548.0,14989.6,12.900000000000006,449.5,-375.0,2025-01-29 15:13:28,0.0
4551.6,740.0,15525.6,-66.1,306.5,-342.0,2025-01-29 15:13:28,0.0
4591.6,780.0,15625.6,-40.099999999999994,109.5,-245.0,2025-01-29 15:13:28,0.0
4379.6,692.0,15473.6,-99.1,82.5,-116.0,2025-01-29 15:13:28,0.0
4559.6,344.0,15589.6,-90.1,125.5,-66.0,2025-01-29 15:13:28,0.0
4631.6,84.0,15697.6,-70.1,90.5,-191.0,2025-01-29 15:13:28,0.0
4643.6,412.0,15553.6,-63.099999999999994,-178.5,-236.0,2025-01-29 15:13:28,0.0
4831.6,608.0,15349.6,12.900000000000006,-396.5,-200.0,2025-01-29 15:13:28,0.0
4955.6,640.0,15205.6,99.9,-459.5,-107.0,2025-01-29 15:13:28,0.0
5011.6,452.0,15357.6,242.9,-564.5,-76.0,2025-01-29 15:13:28,0.0
5103.6,432.0,15213.6,422.9,-647.5,-122.0,2025-01-29 15:13:28,0.0
5179.6,460.0,15049.6,551.9,-428.5,-223.0,2025-01-29 15:13:28,0.0
4991.6,476.0,15217.6,686.9,-254.5,-310.0,2025-01-29 15:13:28,0.0
4911.6,788.0,15105.6,675.9,-363.5,-302.0,2025-01-29 15:13:28,0.0
4967.6,1056.0,14573.6,599.9,-431.5,-271.0,2025-01-29 15:13:28,0.0
4859.6,1280.0,14581.6,441.9,-427.5,-170.0,2025-01-29 15:13:28,0.0
5103.6,1012.0,14517.6,238.9,-248.5,-51.0,2025-01-29 15:13:28,0.0
5167.6,716.0,14641.6,125.9,40.5,-91.0,2025-01-29 15:13:28,0.0
5539.6,348.0,14961.6,142.9,188.5,-299.0,2025-01-29 15:13:28,0.0
5131.6,12.0,14945.6,151.9,204.5,-403.0,2025-01-29 15:13:28,0.0
4983.6,108.0,15269.6,233.9,95.5,-490.0,2025-01-29 15:13:28,0.0
4875.6,504.0,15321.6,280.9,-61.5,-459.0,2025-01-29 15:13:28,0.0
4615.6,916.0,15221.6,237.9,-181.5,-331.0,2025-01-29 15:13:28,0.0
4831.6,1128.0,15025.6,156.9,-157.5,-79.0,2025-01-29 15:13:28,0.0
5147.6,1112.0,14893.6,40.900000000000006,11.5,72.0,2025-01-29 15:13:28,0.0
5223.6,700.0,14985.6,49.900000000000006,309.5,90.0,2025-01-29 15:13:28,0.0
5195.6,184.0,15129.6,132.9,317.5,85.0,2025-01-29 15:13:28,0.0
5067.6,304.0,15189.6,280.9,176.5,49.0,2025-01-29 15:13:28,0.0
4951.6,404.0,15161.6,260.9,-9.5,-22.0,2025-01-29 15:13:28,0.0
5047.6,556.0,14973.6,245.9,-51.5,-82.0,2025-01-29 15:13:28,0.0
4867.6,840.0,15093.6,166.9,-50.5,-114.0,2025-01-29 15:13:28,0.0
4747.6,824.0,15141.6,49.900000000000006,-20.5,-103.0,2025-01-29 15:13:28,0.0
4755.6,1012.0,14845.6,3.9000000000000057,-111.5,-14.0,2025-01-29 15:13:28,0.0
4759.6,880.0,14801.6,-51.099999999999994,-200.5,66.0,2025-01-29 15:13:28,0.0
5007.6,808.0,14917.6,-114.1,-270.5,209.0,2025-01-29 15:13:28,0.0
5211.6,848.0,14797.6,-158.1,-258.5,260.0,2025-01-29 15:13:28,0.0
5167.6,892.0,14557.6,-229.1,-197.5,333.0,2025-01-29 15:13:28,0.0
5183.6,556.0,14933.6,-316.1,-255.5,294.0,2025-01-29 15:13:28,0.0
4899.6,384.0,15229.6,-188.1,-517.5,222.0,2025-01-29 15:13:29,0.0
4823.6,324.0,15425.6,-53.099999999999994,-913.5,208.0,2025-01-29 15:13:29,0.0
4967.6,364.0,15377.6,93.9,-1077.5,197.0,2025-01-29 15:13:29,0.0
5259.6,708.0,15205.6,88.9,-1062.5,171.0,2025-01-29 15:13:29,0.0
5435.6,884.0,14981.6,125.9,-813.5,179.0,2025-01-29 15:13:29,0.0
5527.6,816.0,14653.6,141.9,-296.5,163.0,2025-01-29 15:13:29,0.0
5407.6,1084.0,14673.6,4.900000000000006,87.5,133.0,2025-01-29 15:13:29,0.0
5415.6,936.0,14853.6,-125.1,278.5,138.0,2025-01-29 15:13:29,0.0
5423.6,580.0,14905.6,-171.1,340.5,129.0,2025-01-29 15:13:29,0.0
5315.6,260.0,15185.6,-144.1,150.5,58.0,2025-01-29 15:13:29,0.0
5147.6,68.0,15221.6,-10.099999999999994,-155.5,-32.0,2025-01-29 15:13:29,0.0
5175.6,556.0,15473.6,15.900000000000006,-478.5,-106.0,2025-01-29 15:13:29,0.0
5179.6,988.0,15069.6,-47.099999999999994,-613.5,-73.0,2025-01-29 15:13:29,0.0
5251.6,1184.0,15085.6,-213.1,-416.5,41.0,2025-01-29 15:13:29,0.0
5351.6,1020.0,15105.6,-230.1,-337.5,161.0,2025-01-29 15:13:29,0.0
5327.6,860.0,15201.6,-207.1,-284.5,189.0,2025-01-29 15:13:29,0.0
5419.6,572.0,15341.6,-154.1,-234.5,146.0,2025-01-29 15:13:29,0.0
5263.6,424.0,15517.6,-62.099999999999994,-271.5,62.0,2025-01-29 15:13:29,0.0
5119.6,196.0,15613.6,84.9,-504.5,-81.0,2025-01-29 15:13:29,0.0
5147.6,728.0,15717.6,146.9,-775.5,-199.0,2025-01-29 15:13:29,0.0
5163.6,792.0,15597.6,93.9,-930.5,-248.0,2025-01-29 15:13:29,0.0
5235.6,880.0,15313.6,56.900000000000006,-787.5,-203.0,2025-01-29 15:13:29,0.0
5411.6,1008.0,15253.6,20.900000000000006,-528.5,-137.0,2025-01-29 15:13:29,0.0
5155.6,928.0,15249.6,27.900000000000006,-293.5,19.0,2025-01-29 15:13:29,0.0
5175.6,740.0,15373.6,63.900000000000006,-166.5,34.0,2025-01-29 15:13:29,0.0
5363.6,508.0,15561.6,176.9,-79.5,67.0,2025-01-29 15:13:29,0.0
5667.6,636.0,15777.6,238.9,-67.5,-10.0,2025-01-29 15:13:29,0.0
5675.6,700.0,15505.6,229.9,-143.5,-78.0,2025-01-29 15:13:29,0.0
5563.6,768.0,15445.6,67.9,-272.5,-182.0,2025-01-29 15:13:29,0.0
5527.6,940.0,15581.6,23.900000000000006,-309.5,-203.0,2025-01-29 15:13:29,0.0
5499.6,888.0,15629.6,48.900000000000006,-269.5,-153.0,2025-01-29 15:13:29,0.0
5451.6,700.0,15313.6,143.9,-169.5,-145.0,2025-01-29 15:13:29,0.0
5315.6,576.0,15421.6,200.9,-81.5,-157.0,2025-01-29 15:13:29,0.0
5263.6,528.0,15169.6,225.9,-69.5,-160.0,2025-01-29 15:13:29,0.0
5335.6,760.0,15177.6,204.9,-41.5,-160.0,2025-01-29 15:13:29,0.0
5347.6,836.0,15341.6,153.9,-138.5,-146.0,2025-01-29 15:13:29,0.0
5311.6,748.0,15389.6,123.9,-146.5,-66.0,2025-01-29 15:13:29,0.0
5215.6,692.0,15465.6,107.9,-218.5,-68.0,2025-01-29 15:13:29,0.0
5359.6,428.0,15613.6,132.9,-282.5,-90.0,2025-01-29 15:13:29,0.0
5499.6,476.0,15549.6,83.9,-250.5,-172.0,2025-01-29 15:13:29,0.0
5591.6,428.0,15409.6,77.9,-174.5,-236.0,2025-01-29 15:13:29,0.0
5631.6,676.0,15417.6,43.900000000000006,-38.5,-254.0,2025-01-29 15:13:29,0.0
5555.6,744.0,15313.6,58.900000000000006,131.5,-196.0,2025-01-29 15:13:29,0.0
5735.6,612.0,15533.6,121.9,108.5,-125.0,2025-01-29 15:13:29,0.0
5779.6,524.0,15637.6,153.9,-145.5,-93.0,2025-01-29 15:13:29,0.0
5431.6,752.0,15477.6,121.9,-267.5,-92.0,2025-01-29 15:13:29,0.0
5431.6,740.0,15793.6,93.9,-418.5,-60.0,2025-01-29 15:13:29,0.0
5503.6,732.0,15569.6,-14.099999999999994,-554.5,-37.0,2025-01-29 15:13:29,0.0
5615.6,636.0,15669.6,-13.099999999999994,-556.5,23.0,2025-01-29 15:13:29,0.0
5567.6,616.0,15605.6,-40.099999999999994,-261.5,-18.0,2025-01-29 15:13:29,0.0
5339.6,632.0,15349.6,-23.099999999999994,-128.5,-12.0,2025-01-29 15:13:29,0.0
5447.6,676.0,15305.6,72.9,-102.5,55.0,2025-01-29 15:13:29,0.0
5347.6,644.0,15397.6,114.9,-167.5,121.0,2025-01-29 15:13:29,0.0
5363.6,892.0,15437.6,164.9,-289.5,195.0,2025-01-29 15:13:29,0.0
5435.6,972.0,15305.6,105.9,-351.5,303.0,2025-01-29 15:13:29,0.0
5551.6,900.0,15269.6,-16.099999999999994,-386.5,336.0,2025-01-29 15:13:29,0.0
5683.6,764.0,15421.6,-70.1,-293.5,325.0,2025-01-29 15:13:29,0.0
5691.6,632.0,15669.6,-66.1,-143.5,270.0,2025-01-29 15:13:29,0.0
5743.6,724.0,15441.6,-89.1,-33.5,157.0,2025-01-29 15:13:30,
5675.6,732.0,15513.6,-88.1,-23.5,85.0,2025-01-29 15:13:30,0.0
5751.6,908.0,15525.6,-137.1,98.5,118.0,2025-01-29 15:13:30,0.0
5767.6,948.0,15441.6,-145.1,275.5,134.0,2025-01-29 15:13:30,0.0
5839.6,752.0,15581.6,-140.1,315.5,163.0,2025-01-29 15:13:30,0.0
5711.6,568.0,15645.6,-72.1,313.5,118.0,2025-01-29 15:13:30,0.0
5727.6,452.0,15913.6,-0.09999999999999432,333.5,-21.0,2025-01-29 15:13:30,0.0
5619.6,516.0,15789.6,128.9,370.5,-75.0,2025-01-29 15:13:30,0.0
5627.6,644.0,15785.6,249.9,431.5,-117.0,2025-01-29 15:13:30,0.0
5631.6,652.0,15665.6,369.9,384.5,-182.0,2025-01-29 15:13:30,0.0
5499.6,792.0,15605.6,374.9,347.5,-210.0,2025-01-29 15:13:30,0.0
5335.6,1000.0,15445.6,316.9,372.5,-294.0,2025-01-29 15:13:30,0.0
5299.6,880.0,15169.6,224.9,285.5,-308.0,2025-01-29 15:13:30,0.0
5303.6,644.0,15333.6,130.9,-99.5,-244.0,2025-01-29 15:13:30,0.0
5599.6,640.0,15513.6,77.9,-569.5,-249.0,2025-01-29 15:13:30,0.0
5671.6,640.0,15725.6,45.900000000000006,-675.5,-288.0,2025-01-29 15:13:30,0.0
5563.6,760.0,15729.6,81.9,-438.5,-378.0,2025-01-29 15:13:30,0.0
5695.6,820.0,15701.6,90.9,-241.5,-399.0,2025-01-29 15:13:30,0.0
5491.6,792.0,15909.6,69.9,-252.5,-413.0,2025-01-29 15:13:30,0.0
5563.6,824.0,15841.6,73.9,-254.5,-349.0,2025-01-29 15:13:30,0.0
5619.6,1020.0,15457.6,32.900000000000006,-207.5,-299.0,2025-01-29 15:13:30,0.0
5763.6,1108.0,15681.6,-15.099999999999994,-198.5,-206.0,2025-01-29 15:13:30,0.0
5747.6,948.0,15501.6,2.9000000000000057,-149.5,-144.0,2025-01-29 15:13:30,0.0
5743.6,812.0,15541.6,82.9,-167.5,-114.0,2025-01-29 15:13:30,0.0
5555.6,548.0,15553.6,152.9,-160.5,-89.0,2025-01-29 15:13:30,0.0
5663.6,556.0,15393.6,117.9,-186.5,-109.0,2025-01-29 15:13:30,0.0
5667.6,708.0,15557.6,95.9,-241.5,-133.0,2025-01-29 15:13:30,0.0
5751.6,856.0,15365.6,54.900000000000006,-235.5,-170.0,2025-01-29 15:13:30,0.0
5739.6,860.0,15421.6,87.9,-157.5,-155.0,2025-01-29 15:13:30,0.0
5735.6,748.0,15445.6,103.9,-24.5,-157.0,2025-01-29 15:13:30,0.0
5587.6,816.0,15513.6,109.9,126.5,-47.0,2025-01-29 15:13:30,0.0
5487.6,840.0,15653.6,75.9,117.5,-7.0,2025-01-29 15:13:30,0.0
5667.6,764.0,15489.6,8.900000000000006,100.5,61.0,2025-01-29 15:13:30,0.0
5531.6,796.0,15549.6,-20.099999999999994,51.5,79.0,2025-01-29 15:13:30,0.0
5783.6,744.0,15377.6,-32.099999999999994,42.5,87.0,2025-01-29 15:13:30,0.0
5767.6,648.0,15605.6,-2.0999999999999943,83.5,32.0,2025-01-29 15:13:30,0.0
5679.6,676.0,15797.6,15.900000000000006,44.5,20.0,2025-01-29 15:13:30,0.0
5699.6,704.0,15681.6,0.9000000000000057,34.5,-19.0,2025-01-29 15:13:30,0.0
5815.6,708.0,15665.6,-1.0999999999999943,11.5,-11.0,2025-01-29 15:13:30,0.0
5731.6,680.0,15561.6,-62.099999999999994,67.5,19.0,2025-01-29 15:13:30,0.0
5671.6,748.0,15549.6,-74.1,135.5,-42.0,2025-01-29 15:13:30,0.0
5583.6,632.0,15477.6,-71.1,94.5,-30.0,2025-01-29 15:13:30,0.0
5595.6,692.0,15625.6,-61.099999999999994,6.5,-26.0,2025-01-29 15:13:30,0.0
5619.6,688.0,15529.6,-51.099999999999994,66.5,-26.0,2025-01-29 15:13:30,0.0
5615.6,644.0,15693.6,-25.099999999999994,261.5,-46.0,2025-01-29 15:13:30,0.0
5431.6,676.0,15665.6,-41.099999999999994,372.5,-51.0,2025-01-29 15:13:30,0.0
5683.6,616.0,15549.6,-4.099999999999994,271.5,-72.0,2025-01-29 15:13:30,0.0
5555.6,676.0,15633.6,22.900000000000006,123.5,-79.0,2025-01-29 15:13:30,0.0
5579.6,700.0,15573.6,34.900000000000006,38.5,-108.0,2025-01-29 15:13:30,0.0
5643.6,724.0,15637.6,15.900000000000006,96.5,-136.0,2025-01-29 15:13:30,0.0
5527.6,720.0,15629.6,-4.099999999999994,150.5,-115.0,2025-01-29 15:13:30,0.0
5607.6,668.0,15625.6,-10.099999999999994,148.5,-57.0,2025-01-29 15:13:30,0.0
5707.6,732.0,15521.6,-41.099999999999994,147.5,-81.0,2025-01-29 15:13:30,0.0
5735.6,612.0,15585.6,-59.099999999999994,195.5,-131.0,2025-01-29 15:13:30,0.0
5591.6,612.0,15549.6,-48.099999999999994,222.5,-129.0,2025-01-29 15:13:30,0.0
5567.6,696.0,15477.6,-18.099999999999994,247.5,-132.0,2025-01-29 15:13:30,0.0
5775.6,600.0,15489.6,-38.099999999999994,262.5,-119.0,2025-01-29 15:13:30,0.0
5671.6,564.0,15669.6,-15.099999999999994,241.5,-112.0,2025-01-29 15:13:30,0.0
5747.6,608.0,15453.6,-34.099999999999994,170.5,-152.0,2025-01-29 15:13:30,0.0
5555.6,568.0,15701.6,-86.1,167.5,-152.0,2025-01-29 15:13:30,0.0
5607.6,548.0,15725.6,-44.099999999999994,103.5,-146.0,2025-01-29 15:13:30,0.0
5599.6,596.0,15761.6,-13.099999999999994,1.5,-111.0,2025-01-29 15:13:30,0.0
5551.6,616.0,15573.6,-0.09999999999999432,7.5,-106.0,2025-01-29 15:13:30,0.0
5471.6,628.0,15469.6,-23.099999999999994,1.5,-56.0,2025-01-29 15:13:30,0.0
5459.6,652.0,15437.6,-76.1,95.5,-23.0,2025-01-29 15:13:31,0.0
5447.6,636.0,15501.6,-30.099999999999994,87.5,-30.0,2025-01-29 15:13:31,0.0
5571.6,748.0,15653.6,-23.099999999999994,135.5,-14.0,2025-01-29 15:13:31,0.0
5959.6,572.0,15525.6,29.900000000000006,126.5,-68.0,2025-01-29 15:13:31,0.0
5483.6,596.0,15621.6,38.900000000000006,246.5,-117.0,2025-01-29 15:13:31,0.0
5395.6,588.0,15489.6,-80.1,450.5,-269.0,2025-01-29 15:13:31,0.0
5239.6,652.0,15901.6,-138.1,838.5,-397.0,2025-01-29 15:13:31,0.0
5047.6,628.0,15617.6,-221.1,1394.5,-389.0,2025-01-29 15:13:31,0.0
4743.6,864.0,15757.6,-434.1,2097.5,-366.0,2025-01-29 15:13:31,0.0
3847.6000000000004,960.0,16853.6,-598.1,2738.5,-398.0,2025-01-29 15:13:31,0.0
2763.6000000000004,588.0,18057.6,-465.1,3201.5,-367.0,2025-01-29 15:13:31,0.0
1671.6000000000004,596.0,18685.6,-363.1,3778.5,-402.0,2025-01-29 15:13:31,0.0
1183.6000000000004,628.0,19217.6,-317.1,4604.5,-483.0,2025-01-29 15:13:31,0.0
823.6000000000004,676.0,19417.6,-32.099999999999994,6161.5,-520.0,2025-01-29 15:13:31,0.0
-320.39999999999964,104.0,19373.6,261.9,7611.5,-727.0,2025-01-29 15:13:31,0.0
-1352.3999999999996,-88.0,19229.6,402.9,8829.5,-747.0,2025-01-29 15:13:31,0.0
-2116.3999999999996,460.0,19389.6,327.9,9442.5,-519.0,2025-01-29 15:13:31,0.0
-1792.3999999999996,828.0,19237.6,109.9,9765.5,-392.0,2025-01-29 15:13:31,0.0
-1280.3999999999996,1032.0,18669.6,-65.1,10155.5,-379.0,2025-01-29 15:13:31,0.0
-1396.3999999999996,1024.0,17953.6,193.9,10635.5,-149.0,2025-01-29 15:13:31,0.0
-756.3999999999996,492.0,16289.6,593.9,11036.5,123.0,2025-01-29 15:13:31,0.0
-48.399999999999636,32.0,15161.6,827.9,11484.5,211.0,2025-01-29 15:13:31,0.0
1111.6000000000004,336.0,14173.6,670.9,11838.5,210.0,2025-01-29 15:13:31,0.0
1759.6000000000004,868.0,13785.6,377.9,11782.5,240.0,2025-01-29 15:13:31,0.0
2171.6000000000004,1224.0,13001.6,248.9,11463.5,373.0,2025-01-29 15:13:31,0.0
2875.6000000000004,1112.0,12573.6,313.9,11141.5,364.0,2025-01-29 15:13:31,0.0
2763.6000000000004,680.0,12157.6,545.9,11067.5,347.0,2025-01-29 15:13:31,0.0
2535.6000000000004,420.0,11801.6,408.9,10653.5,318.0,2025-01-29 15:13:31,0.0
2487.6000000000004,704.0,11597.6,-14.099999999999994,10380.5,242.0,2025-01-29 15:13:31,0.0
2559.6000000000004,860.0,10873.6,-462.1,10062.5,107.0,2025-01-29 15:13:31,0.0
1655.6000000000004,632.0,10641.6,-648.1,9566.5,234.0,2025-01-29 15:13:31,0.0
1335.6000000000004,728.0,10125.6,-924.1,8983.5,211.0,2025-01-29 15:13:31,0.0
1047.6000000000004,980.0,10097.6,-971.1,8215.5,255.0,2025-01-29 15:13:31,0.0
651.6000000000004,1112.0,9113.6,-868.1,7469.5,136.0,2025-01-29 15:13:31,0.0
919.6000000000004,1032.0,8133.6,-950.1,7354.5,235.0,2025-01-29 15:13:31,0.0
835.6000000000004,952.0,8177.6,-1107.1,7986.5,-24.0,2025-01-29 15:13:31,0.0
675.6000000000004,1444.0,8269.6,-1138.1,8891.5,-321.0,2025-01-29 15:13:31,
623.6000000000004,1620.0,7493.6,-1239.1,8265.5,-294.0,2025-01-29 15:13:31,0.0
87.60000000000036,1684.0,6645.6,-1219.1,6966.5,146.0,2025-01-29 15:13:31,0.0
819.6000000000004,1304.0,5681.6,-1281.1,6071.5,411.0,2025-01-29 15:13:31,0.0
1167.6000000000004,848.0,5361.6,-1395.1,6371.5,744.0,2025-01-29 15:13:31,0.0
2255.6000000000004,356.0,5621.6,-1386.1,7053.5,766.0,2025-01-29 15:13:31,0.0
3143.6000000000004,56.0,6677.6,-1156.1,7846.5,506.0,2025-01-29 15:13:31,0.0
3099.6000000000004,120.0,7233.6,-918.1,7991.5,454.0,2025-01-29 15:13:31,0.0
3299.6000000000004,356.0,6881.6,-555.1,7430.5,276.0,2025-01-29 15:13:31,0.0
2535.6000000000004,892.0,5961.6,-240.1,6882.5,402.0,2025-01-29 15:13:31,0.0
2387.6000000000004,948.0,5189.6,-10.099999999999994,6841.5,443.0,2025-01-29 15:13:31,0.0
2551.6000000000004,904.0,4433.6,-91.1,6765.5,519.0,2025-01-29 15:13:31,0.0
2819.6000000000004,964.0,4469.6,37.900000000000006,5958.5,456.0,2025-01-29 15:13:31,0.0
2947.6000000000004,912.0,4561.6,106.9,4863.5,601.0,2025-01-29 15:13:31,0.0
3555.6000000000004,472.0,4877.6,76.9,4117.5,484.0,2025-01-29 15:13:31,0.0
3675.6000000000004,-8.0,5257.6,122.9,3833.5,95.0,2025-01-29 15:13:31,0.0
3791.6000000000004,-776.0,5261.6,235.9,3332.5,-613.0,2025-01-29 15:13:31,0.0
3483.6000000000004,-1660.0,4449.6,525.9,2336.5,-1435.0,2025-01-29 15:13:31,0.0
3123.6000000000004,-1552.0,3945.6,741.9,1454.5,-1877.0,2025-01-29 15:13:31,0.0
2639.6000000000004,-584.0,3517.6,1257.9,1026.5,-1998.0,2025-01-29 15:13:31,0.0
2631.6000000000004,912.0,3157.6,1655.9,1321.5,-1752.0,2025-01-29 15:13:31,0.0
2367.6000000000004,2116.0,2833.6,1664.9,2260.5,-1192.0,2025-01-29 15:13:31,0.0
2363.6000000000004,2544.0,3077.6,1255.9,3586.5,-682.0,2025-01-29 15:13:31,0.0
2527.6000000000004,1892.0,3397.6,816.9,4471.5,-620.0,2025-01-29 15:13:31,0.0
2135.6000000000004,1020.0,3337.6,553.9,4519.5,-618.0,2025-01-29 15:13:31,0.0
2015.6000000000004,132.0,3425.6,649.9,3315.5,-580.0,2025-01-29 15:13:32,0.0
1927.6000000000004,-684.0,3945.6,1075.9,1682.5,-516.0,2025-01-29 15:13:32,0.0
2099.6000000000004,-1252.0,4597.6,1640.9,818.5,-563.0,2025-01-29 15:13:32,0.0
1955.6000000000004,-1448.0,4529.6,2193.9,955.5,-912.0,2025-01-29 15:13:32,0.0
1631.6000000000004,-1248.0,4289.6,2614.9,1194.5,-1157.0,2025-01-29 15:13:32,0.0
1767.6000000000004,-636.0,4441.6,3092.9,893.5,-1382.0,2025-01-29 15:13:32,0.0
2179.6000000000004,28.0,4817.6,3413.9,-79.5,-1313.0,2025-01-29 15:13:32,0.0
3127.6000000000004,1028.0,4189.6,3506.9,-1317.5,-1318.0,2025-01-29 15:13:32,0.0
3979.6000000000004,1044.0,2205.6,3310.9,-2544.5,-1484.0,2025-01-29 15:13:32,0.0
4403.6,636.0,277.5999999999999,2916.9,-3083.5,-1481.0,2025-01-29 15:13:32,0.0
4711.6,-56.0,-674.4000000000001,2614.9,-2048.5,-1511.0,2025-01-29 15:13:32,0.0
4571.6,-792.0,-1942.4,2342.9,659.5,-1665.0,2025-01-29 15:13:32,0.0
3575.6000000000004,-1384.0,-4246.4,1851.9,4446.5,-2002.0,2025-01-29 15:13:32,0.0
1803.6000000000004,-552.0,-4814.4,927.9,9728.5,-2821.0,2025-01-29 15:13:32,0.0
-1172.3999999999996,164.0,-3430.4,354.9,15337.5,-3307.0,2025-01-29 15:13:32,0.0
-4116.4,652.0,-1858.4,-212.1,21303.5,-2715.0,2025-01-29 15:13:32,0.0
-6052.4,896.0,2357.6,-511.1,25422.5,-1127.0,2025-01-29 15:13:32,0.0
-4392.4,-1072.0,5457.6,-68.1,22187.5,164.0,2025-01-29 15:13:32,0.0
-2864.3999999999996,-1268.0,4529.6,1339.9,10582.5,-39.0,2025-01-29 15:13:32,0.0
-4004.3999999999996,-620.0,249.5999999999999,2362.9,-3216.5,-103.0,2025-01-29 15:13:32,0.0
-3300.3999999999996,332.0,-2850.4,1547.9,-11350.5,748.0,2025-01-29 15:13:32,0.0
-1408.3999999999996,200.0,-1458.4,325.9,-14108.5,943.0,2025-01-29 15:13:32,0.0
747.6000000000004,-52.0,709.5999999999999,-321.1,-13845.5,821.0,2025-01-29 15:13:32,0.0
1639.6000000000004,-284.0,2377.6,-242.1,-11674.5,718.0,2025-01-29 15:13:32,0.0
2683.6000000000004,-332.0,2937.6,260.9,-7631.5,676.0,2025-01-29 15:13:32,0.0
2747.6000000000004,-72.0,829.5999999999999,1027.9,-2103.5,644.0,2025-01-29 15:13:32,0.0
2707.6000000000004,-380.0,-1018.4000000000001,823.9,1152.5,283.0,2025-01-29 15:13:32,0.0
2131.6000000000004,-684.0,-1118.4,127.9,3427.5,-821.0,2025-01-29 15:13:32,0.0
151.60000000000036,-592.0,145.5999999999999,-196.1,5374.5,-1690.0,2025-01-29 15:13:32,0.0
-1548.3999999999996,-556.0,1273.6,3.9000000000000057,6372.5,-1562.0,2025-01-29 15:13:32,0.0
-2224.3999999999996,-660.0,2517.6,423.9,5450.5,-938.0,2025-01-29 15:13:32,0.0
-2668.3999999999996,-492.0,2833.6,807.9,2694.5,-258.0,2025-01-29 15:13:32,0.0
-2196.3999999999996,-728.0,2097.6,861.9,-1477.5,193.0,2025-01-29 15:13:32,0.0
-1776.3999999999996,-496.0,1793.6,612.9,-4558.5,76.0,2025-01-29 15:13:32,0.0
-684.3999999999996,-268.0,745.5999999999999,250.9,-6122.5,-161.0,2025-01-29 15:13:32,0.0
227.60000000000036,-192.0,249.5999999999999,122.9,-6437.5,-450.0,2025-01-29 15:13:32,0.0
827.6000000000004,-164.0,697.5999999999999,-38.099999999999994,-5666.5,-703.0,2025-01-29 15:13:32,0.0
1475.6000000000004,-388.0,1837.6,52.900000000000006,-3547.5,-840.0,2025-01-29 15:13:32,0.0
1399.6000000000004,-600.0,2673.6,409.9,-1106.5,-1093.0,2025-01-29 15:13:32,0.0
631.6000000000004,-720.0,2629.6,667.9,724.5,-1193.0,2025-01-29 15:13:32,0.0
-396.39999999999964,-540.0,2893.6,736.9,1828.5,-1181.0,2025-01-29 15:13:32,0.0
-1152.3999999999996,156.0,3089.6,856.9,2290.5,-1173.0,2025-01-29 15:13:32,0.0
-1612.3999999999996,1028.0,2373.6,771.9,1709.5,-1002.0,2025-01-29 15:13:32,0.0
-940.3999999999996,1052.0,-134.4000000000001,544.9,-663.5,-818.0,2025-01-29 15:13:32,0.0
-688.3999999999996,296.0,85.59999999999991,-199.1,-3705.5,-873.0,2025-01-29 15:13:32,0.0
615.6000000000004,-920.0,1009.5999999999999,-552.1,-5573.5,-1173.0,2025-01-29 15:13:32,0.0
1463.6000000000004,-2156.0,1737.6,-398.1,-5417.5,-1578.0,2025-01-29 15:13:32,0.0
1871.6000000000004,-3096.0,1909.6,135.9,-4273.5,-1905.0,2025-01-29 15:13:32,0.0
1331.6000000000004,-3304.0,2653.6,892.9,-1879.5,-1861.0,2025-01-29 15:13:32,0.0
911.6000000000004,-2628.0,3585.6,1625.9,1575.5,-1435.0,2025-01-29 15:13:32,0.0
307.60000000000036,-1676.0,3657.6,2018.9,4687.5,-982.0,2025-01-29 15:13:32,0.0
391.60000000000036,-460.0,3161.6,1366.9,5798.5,-897.0,2025-01-29 15:13:32,0.0
139.60000000000036,64.0,2673.6,158.9,5130.5,-1480.0,2025-01-29 15:13:32,0.0
-748.3999999999996,336.0,2765.6,-1319.1,3926.5,-1945.0,2025-01-29 15:13:32,0.0
-964.3999999999996,40.0,3545.6,-2650.1,2905.5,-2267.0,2025-01-29 15:13:33,0.0
-1096.3999999999996,-852.0,3669.6,-3129.1,1954.5,-2771.0,2025-01-29 15:13:33,0.0
-872.3999999999996,-2016.0,3313.6,-3178.1,497.5,-3137.0,2025-01-29 15:13:33,0.0
-716.3999999999996,-2804.0,3769.6,-2945.1,-1672.5,-2876.0,2025-01-29 15:13:33,0.0
-220.39999999999964,-2996.0,4689.6,-2636.1,-3364.5,-2258.0,2025-01-29 15:13:33,0.0
531.6000000000004,-2492.0,5457.6,-2186.1,-4490.5,-1491.0,2025-01-29 15:13:33,0.0
1211.6000000000004,-1864.0,5001.6,-1860.1,-4377.5,-779.0,2025-01-29 15:13:33,0.0
2015.6000000000004,-1388.0,3921.6,-1856.1,-3365.5,-253.0,2025-01-29 15:13:33,0.0
2667.6000000000004,-1236.0,3185.6,-2390.1,-1579.5,131.0,2025-01-29 15:13:33,0.0
2435.6000000000004,-1240.0,3269.6,-2854.1,780.5,369.0,2025-01-29 15:13:33,0.0
1607.6000000000004,-1632.0,3765.6,-2932.1,3111.5,921.0,2025-01-29 15:13:33,0.0
903.6000000000004,-2164.0,3909.6,-2654.1,3850.5,1496.0,2025-01-29 15:13:33,0.0
127.60000000000036,-2684.0,3461.6,-2357.1,3698.5,2069.0,2025-01-29 15:13:33,0.0
-616.3999999999996,-2708.0,2881.6,-2398.1,3891.5,2312.0,2025-01-29 15:13:33,0.0
-1332.3999999999996,-2360.0,3237.6,-2744.1,4200.5,2280.0,2025-01-29 15:13:33,0.0
-1944.3999999999996,-1660.0,4401.6,-2980.1,3763.5,2369.0,2025-01-29 15:13:33,0.0
-1872.3999999999996,-1008.0,4965.6,-3232.1,2135.5,2528.0,2025-01-29 15:13:33,0.0
-1684.3999999999996,-1060.0,5233.6,-3627.1,-67.5,2424.0,2025-01-29 15:13:33,0.0
-1272.3999999999996,-1624.0,4457.6,-4036.1,-2350.5,2063.0,2025-01-29 15:13:33,0.0
-1024.3999999999996,-2420.0,3777.6,-4591.1,-3282.5,1574.0,2025-01-29 15:13:33,0.0
-416.39999999999964,-3368.0,3409.6,-5276.1,-2359.5,728.0,2025-01-29 15:13:33,0.0
-764.3999999999996,-4180.0,2061.6,-5303.1,-508.5,-636.0,2025-01-29 15:13:33,
-1464.3999999999996,-4276.0,2197.6,-4515.1,571.5,-1534.0,2025-01-29 15:13:33,0.0
-1388.3999999999996,-4700.0,4489.6,-3620.1,592.5,-1986.0,2025-01-29 15:13:33,0.0
-2004.3999999999996,-4996.0,5041.6,-2614.1,509.5,-1938.0,2025-01-29 15:13:33,0.0
-2808.3999999999996,-5412.0,4169.6,-1574.1,399.5,-1413.0,2025-01-29 15:13:33,0.0
-2792.3999999999996,-5852.0,3617.6,-534.1,-92.5,-982.0,2025-01-29 15:13:33,0.0
-2292.3999999999996,-6192.0,3757.6,678.9,-1695.5,-1089.0,2025-01-29 15:13:33,0.0
-2672.3999999999996,-5520.0,4229.6,1824.9,-3133.5,-841.0,2025-01-29 15:13:33,0.0
-3364.3999999999996,-3608.0,4389.6,2930.9,-3658.5,366.0,2025-01-29 15:13:33,0.0
-3092.3999999999996,-1644.0,3201.6,3592.9,-3001.5,2013.0,2025-01-29 15:13:33,0.0
-2680.3999999999996,-932.0,377.5999999999999,3508.9,-1456.5,3109.0,2025-01-29 15:13:33,0.0
-2952.3999999999996,-1176.0,-1522.4,3039.9,-1249.5,4089.0,2025-01-29 15:13:33,0.0
-1920.3999999999996,-984.0,133.5999999999999,3096.9,-2264.5,4574.0,2025-01-29 15:13:33,0.0
-288.39999999999964,-588.0,825.5999999999999,4075.9,-4081.5,4830.0,2025-01-29 15:13:33,0.0
1895.6000000000004,532.0,317.5999999999999,5097.9,-5564.5,4815.0,2025-01-29 15:13:33,0.0
3795.6000000000004,1536.0,-998.4000000000001,5410.9,-5150.5,4120.0,2025-01-29 15:13:33,0.0
4487.6,1432.0,-2590.4,4957.9,-2988.5,2768.0,2025-01-29 15:13:33,0.0
3903.6000000000004,816.0,-2998.4,3761.9,750.5,1653.0,2025-01-29 15:13:33,0.0
1975.6000000000004,600.0,-1310.4,3023.9,4214.5,1478.0,2025-01-29 15:13:33,0.0
215.60000000000036,880.0,397.5999999999999,3020.9,6067.5,1994.0,2025-01-29 15:13:33,0.0
-1204.3999999999996,1048.0,1513.6,3262.9,6350.5,2761.0,2025-01-29 15:13:33,0.0
-2180.3999999999996,1168.0,2053.6,3530.9,4918.5,3177.0,2025-01-29 15:13:33,0.0
-2488.3999999999996,876.0,1653.6,3585.9,2471.5,3297.0,2025-01-29 15:13:33,0.0
-2152.3999999999996,972.0,1213.6,3341.9,-731.5,3616.0,2025-01-29 15:13:33,0.0
-1060.3999999999996,1392.0,1313.6,2959.9,-3919.5,3527.0,2025-01-29 15:13:33,0.0
603.6000000000004,1776.0,1261.6,2542.9,-6209.5,3056.0,2025-01-29 15:13:33,0.0
1875.6000000000004,1700.0,1685.6,2455.9,-7172.5,2566.0,2025-01-29 15:13:33,0.0
2911.6000000000004,1360.0,1533.6,2504.9,-6431.5,2289.0,2025-01-29 15:13:33,0.0
3623.6000000000004,1544.0,1049.6,2496.9,-4021.5,2018.0,2025-01-29 15:13:33,0.0
3499.6000000000004,1872.0,1045.6,2579.9,-1118.5,1761.0,2025-01-29 15:13:33,0.0
2971.6000000000004,2124.0,1181.6,2717.9,1382.5,1513.0,2025-01-29 15:13:33,0.0
1751.6000000000004,2052.0,2085.6,2732.9,2228.5,1433.0,2025-01-29 15:13:33,0.0
1035.6000000000004,2016.0,2661.6,2548.9,1244.5,1203.0,2025-01-29 15:13:33,0.0
1131.6000000000004,1864.0,3065.6,2204.9,-264.5,580.0,2025-01-29 15:13:33,0.0
1011.6000000000004,1912.0,3685.6,1936.9,-1433.5,-322.0,2025-01-29 15:13:33,0.0
1495.6000000000004,1720.0,3065.6,1747.9,-2335.5,-1074.0,2025-01-29 15:13:33,0.0
1687.6000000000004,1384.0,3441.6,1676.9,-2797.5,-1669.0,2025-01-29 15:13:33,0.0
1871.6000000000004,988.0,3641.6,1806.9,-2597.5,-1985.0,2025-01-29 15:13:33,0.0
1691.6000000000004,612.0,4069.6,2180.9,-1693.5,-2086.0,2025-01-29 15:13:33,0.0
1427.6000000000004,404.0,4121.6,2514.9,-292.5,-1928.0,2025-01-29 15:13:33,0.0
1027.6000000000004,1272.0,4505.6,2828.9,754.5,-1805.0,2025-01-29 15:13:33,0.0
-320.39999999999964,2060.0,4229.6,3152.9,1229.5,-1481.0,2025-01-29 15:13:33,0.0
-1216.3999999999996,2164.0,3325.6,3133.9,1322.5,-1068.0,2025-01-29 15:13:33,0.0
-1608.3999999999996,2340.0,3757.6,3228.9,911.5,-486.0,2025-01-29 15:13:33,0.0
-1324.3999999999996,2060.0,3765.6,3162.9,-209.5,59.0,2025-01-29 15:13:33,0.0
-816.3999999999996,980.0,3273.6,2848.9,-1318.5,336.0,2025-01-29 15:13:33,0.0
-356.39999999999964,948.0,3165.6,2744.9,-1340.5,333.0,2025-01-29 15:13:34,0.0
-380.39999999999964,1868.0,4117.6,3168.9,-623.5,388.0,2025-01-29 15:13:34,0.0
-544.3999999999996,2140.0,4897.6,3742.9,-19.5,703.0,2025-01-29 15:13:34,0.0
-880.3999999999996,1416.0,5937.6,3893.9,908.5,754.0,2025-01-29 15:13:34,0.0
-688.3999999999996,448.0,7109.6,4513.9,2198.5,325.0,2025-01-29 15:13:34,0.0
-388.39999999999964,1316.0,5705.6,5777.9,3486.5,-458.0,2025-01-29 15:13:34,0.0
-1272.3999999999996,2592.0,3141.6,6122.9,4888.5,-160.0,2025-01-29 15:13:34,0.0
-2928.3999999999996,3948.0,1737.6,6113.9,7390.5,583.0,2025-01-29 15:13:34,0.0
-4964.4,5640.0,789.5999999999999,5596.9,9895.5,1972.0,2025-01-29 15:13:34,0.0
-5396.4,5932.0,-1038.4,3625.9,10778.5,3091.0,2025-01-29 15:13:34,0.0
-5608.4,5520.0,-2478.4,339.9,9352.5,3364.0,2025-01-29 15:13:34,0.0
-5956.4,4800.0,-3326.4,-2798.1,4247.5,3834.0,2025-01-29 15:13:34,0.0
-4196.4,3912.0,-2798.4,-4019.1,-1824.5,3928.0,2025-01-29 15:13:34,0.0
1131.6000000000004,1760.0,-478.4000000000001,-3223.1,-7128.5,1269.0,2025-01-29 15:13:34,0.0
2623.6000000000004,-1032.0,-1718.4,-3287.1,-13490.5,-3192.0,2025-01-29 15:13:34,0.0
1871.6000000000004,-1824.0,-2010.4,-4017.1,-16696.5,-4558.0,2025-01-29 15:13:34,0.0
1363.6000000000004,-3048.0,-1670.4,-3712.1,-15937.5,-4131.0,2025-01-29 15:13:34,0.0
2211.6000000000004,-3872.0,-90.40000000000009,-1828.1,-8337.5,-2410.0,2025-01-29 15:13:34,0.0
3535.6000000000004,-2632.0,373.5999999999999,943.9,-153.5,-941.0,2025-01-29 15:13:34,0.0
3987.6000000000004,-760.0,-638.4000000000001,2624.9,6128.5,-362.0,2025-01-29 15:13:34,0.0
3679.6000000000004,1096.0,-570.4000000000001,2576.9,10133.5,-458.0,2025-01-29 15:13:34,0.0
2019.6000000000004,1556.0,493.5999999999999,1240.9,12223.5,-1435.0,2025-01-29 15:13:34,0.0
-48.399999999999636,1056.0,1505.6,-72.1,12813.5,-2794.0,2025-01-29 15:13:34,0.0
-2380.3999999999996,164.0,2081.6,-692.1,11612.5,-3773.0,2025-01-29 15:13:34,0.0
-3468.3999999999996,-556.0,981.5999999999999,-1054.1,7499.5,-3995.0,2025-01-29 15:13:34,0.0
-3052.3999999999996,-812.0,-242.4000000000001,-1494.1,824.5,-3539.0,2025-01-29 15:13:34,0.0
-2616.3999999999996,-616.0,749.5999999999999,-1736.1,-6277.5,-2770.0,2025-01-29 15:13:34,0.0
-1136.3999999999996,-272.0,2097.6,-1825.1,-10578.5,-2119.0,2025-01-29 15:13:34,0.0
359.60000000000036,-340.0,1941.6,-1841.1,-11361.5,-1693.0,2025-01-29 15:13:34,0.0
1475.6000000000004,-704.0,1437.6,-1997.1,-9475.5,-1448.0,2025-01-29 15:13:34,0.0
2279.6000000000004,-1352.0,1321.6,-2081.1,-5057.5,-1399.0,2025-01-29 15:13:34,0.0
2751.6000000000004,-1488.0,1285.6,-1743.1,-885.5,-1510.0,2025-01-29 15:13:34,0.0
2255.6000000000004,-1332.0,1397.6,-1461.1,1326.5,-1306.0,2025-01-29 15:13:34,0.0
1907.6000000000004,-612.0,1545.6,-1384.1,2312.5,-1115.0,2025-01-29 15:13:34,0.0
1227.6000000000004,-232.0,1557.6,-1708.1,2992.5,-1114.0,2025-01-29 15:13:34,0.0
639.6000000000004,-152.0,1981.6,-2009.1,3088.5,-1102.0,2025-01-29 15:13:34,0.0
-268.39999999999964,-8.0,2269.6,-2252.1,2238.5,-801.0,2025-01-29 15:13:34,0.0
-828.3999999999996,100.0,2225.6,-2267.1,573.5,-88.0,2025-01-29 15:13:34,0.0
-376.39999999999964,480.0,2237.6,-2375.1,-1245.5,753.0,2025-01-29 15:13:34,0.0
-48.399999999999636,812.0,2277.6,-2817.1,-1743.5,1364.0,2025-01-29 15:13:34,0.0
619.6000000000004,996.0,2133.6,-3497.1,-2010.5,1824.0,2025-01-29 15:13:34,0.0
827.6000000000004,1220.0,1449.6,-4277.1,-2141.5,2171.0,2025-01-29 15:13:34,0.0
991.6000000000004,1188.0,1177.6,-5119.1,-2017.5,2706.0,2025-01-29 15:13:34,0.0
1391.6000000000004,760.0,709.5999999999999,-5795.1,-1240.5,2903.0,2025-01-29 15:13:34,0.0
1707.6000000000004,324.0,477.5999999999999,-6658.1,147.5,2720.0,2025-01-29 15:13:34,0.0
1295.6000000000004,352.0,553.5999999999999,-7459.1,1813.5,2255.0,2025-01-29 15:13:34,0.0
35.600000000000364,1004.0,1073.6,-8038.1,3228.5,2037.0,2025-01-29 15:13:34,0.0
-656.3999999999996,1912.0,1377.6,-8751.1,4185.5,1807.0,2025-01-29 15:13:34,0.0
-1564.3999999999996,2124.0,1921.6,-9723.1,4448.5,1381.0,2025-01-29 15:13:34,0.0
-1956.3999999999996,1596.0,1441.6,-11035.1,3065.5,508.0,2025-01-29 15:13:34,0.0
-1484.3999999999996,876.0,-138.4000000000001,-12113.1,551.5,-271.0,2025-01-29 15:13:34,0.0
-728.3999999999996,136.0,77.59999999999991,-13132.1,-1417.5,-864.0,2025-01-29 15:13:34,0.0
-512.3999999999996,-84.0,2025.6,-13921.1,-2104.5,-1120.0,2025-01-29 15:13:34,0.0
-240.39999999999964,8.0,3533.6,-14552.1,-1699.5,-1071.0,2025-01-29 15:13:34,0.0
-696.3999999999996,100.0,4205.6,-15177.1,-875.5,-1025.0,2025-01-29 15:13:34,
-1108.3999999999996,-144.0,4053.6,-16155.1,-470.5,-923.0,2025-01-29 15:13:34,0.0
-2316.3999999999996,-624.0,2573.6,-17026.1,-538.5,-770.0,2025-01-29 15:13:34,0.0
-2812.3999999999996,-136.0,-454.4000000000001,-17555.1,-166.5,-848.0,2025-01-29 15:13:34,0.0
-2616.3999999999996,-900.0,-614.4000000000001,-17894.1,-763.5,-1457.0,2025-01-29 15:13:34,0.0
-2212.3999999999996,-1424.0,645.5999999999999,-17317.1,-2698.5,-2122.0,2025-01-29 15:13:34,0.0
-3580.3999999999996,-1552.0,1761.6,-14935.1,-4699.5,-1718.0,2025-01-29 15:13:34,0.0
-3256.3999999999996,-3480.0,301.5999999999999,-11836.1,-3265.5,-348.0,2025-01-29 15:13:35,0.0
-252.39999999999964,-3356.0,-1334.4,-10878.1,-533.5,244.0,2025-01-29 15:13:35,0.0
1971.6000000000004,-1856.0,-706.4000000000001,-11655.1,1570.5,-331.0,2025-01-29 15:13:35,0.0
1607.6000000000004,-1152.0,2101.6,-12101.1,3905.5,-697.0,2025-01-29 15:13:35,0.0
455.60000000000036,-964.0,2401.6,-10737.1,5337.5,-245.0,2025-01-29 15:13:35,0.0
-592.3999999999996,-812.0,797.5999999999999,-9509.1,5720.5,576.0,2025-01-29 15:13:35,0.0
419.60000000000036,-528.0,-926.4000000000001,-9678.1,5561.5,553.0,2025-01-29 15:13:35,0.0
647.6000000000004,172.0,-870.4000000000001,-10299.1,4423.5,-58.0,2025-01-29 15:13:35,0.0
763.6000000000004,1136.0,-354.4000000000001,-10700.1,2618.5,-350.0,2025-01-29 15:13:35,0.0
771.6000000000004,2476.0,-462.4000000000001,-10589.1,1313.5,-71.0,2025-01-29 15:13:35,0.0
1291.6000000000004,4064.0,-1506.4,-10615.1,1914.5,335.0,2025-01-29 15:13:35,0.0
1879.6000000000004,4524.0,-2678.4,-11510.1,3808.5,58.0,2025-01-29 15:13:35,0.0
875.6000000000004,3692.0,-2086.4,-13056.1,6017.5,-821.0,2025-01-29 15:13:35,0.0
-960.3999999999996,948.0,1181.6,-13884.1,7096.5,-1206.0,2025-01-29 15:13:35,0.0
-1912.3999999999996,-1404.0,2489.6,-12974.1,5802.5,-511.0,2025-01-29 15:13:35,0.0
-1524.3999999999996,-2220.0,1921.6,-11308.1,1963.5,625.0,2025-01-29 15:13:35,0.0
-260.39999999999964,-1072.0,1237.6,-10108.1,-2224.5,902.0,2025-01-29 15:13:35,0.0
335.60000000000036,1960.0,-390.4000000000001,-10222.1,-4694.5,550.0,2025-01-29 15:13:35,0.0
871.6000000000004,5520.0,-1390.4,-11477.1,-4433.5,465.0,2025-01-29 15:13:35,0.0
1811.6000000000004,7972.0,-3362.4,-13403.1,-1849.5,412.0,2025-01-29 15:13:35,0.0
2263.6000000000004,8396.0,-4918.4,-15148.1,-275.5,214.0,2025-01-29 15:13:35,0.0
3355.6000000000004,6456.0,-5990.4,-17338.1,845.5,-651.0,2025-01-29 15:13:35,0.0
3047.6000000000004,3700.0,-4834.4,-19777.1,2316.5,-1889.0,2025-01-29 15:13:35,0.0
2247.6000000000004,1072.0,-3070.4,-21293.1,3899.5,-2861.0,2025-01-29 15:13:35,0.0
1011.6000000000004,-1124.0,-1298.4,-22006.1,4906.5,-3498.0,2025-01-29 15:13:35,0.0
-848.3999999999996,-1684.0,469.5999999999999,-21825.1,4755.5,-3499.0,2025-01-29 15:13:35,0.0
-860.3999999999996,-336.0,261.5999999999999,-21085.1,3365.5,-3013.0,2025-01-29 15:13:35,0.0
-184.39999999999964,1540.0,-1206.4,-20974.1,1144.5,-2963.0,2025-01-29 15:13:35,0.0
387.60000000000036,2892.0,-3546.4,-22202.1,-1027.5,-3441.0,2025-01-29 15:13:35,0.0
255.60000000000036,2768.0,-4062.4,-23587.1,-2049.5,-3724.0,2025-01-29 15:13:35,0.0
819.6000000000004,2036.0,-3962.4,-24693.1,-1938.5,-3710.0,2025-01-29 15:13:35,0.0
835.6000000000004,908.0,-3182.4,-25574.1,-268.5,-3633.0,2025-01-29 15:13:35,0.0
1439.6000000000004,-260.0,-3210.4,-26277.1,1828.5,-3757.0,2025-01-29 15:13:35,0.0
1311.6000000000004,-724.0,-3122.4,-26756.1,2494.5,-4159.0,2025-01-29 15:13:35,0.0
891.6000000000004,-476.0,-2658.4,-27029.1,1762.5,-4574.0,2025-01-29 15:13:35,0.0
483.60000000000036,292.0,-2402.4,-27282.1,1215.5,-4735.0,2025-01-29 15:13:35,0.0
71.60000000000036,444.0,-2666.4,-27853.1,937.5,-4850.0,2025-01-29 15:13:35,0.0
-8.399999999999636,144.0,-2606.4,-28396.1,344.5,-4919.0,2025-01-29 15:13:35,0.0
107.60000000000036,244.0,-2090.4,-28500.1,-366.5,-4992.0,2025-01-29 15:13:35,0.0
755.6000000000004,-60.0,-1690.4,-27892.1,-900.5,-5518.0,2025-01-29 15:13:35,0.0
931.6000000000004,-1584.0,-778.4000000000001,-26456.1,-1440.5,-6130.0,2025-01-29 15:13:35,0.0
1259.6000000000004,-3676.0,-1210.4,-24929.1,-1676.5,-6592.0,2025-01-29 15:13:35,0.0
1155.6000000000004,-5832.0,-1102.4,-23259.1,-1684.5,-6882.0,2025-01-29 15:13:35,0.0
535.6000000000004,-6428.0,-78.40000000000009,-20997.1,-1126.5,-6628.0,2025-01-29 15:13:35,0.0
-964.3999999999996,-5368.0,549.5999999999999,-18231.1,674.5,-5532.0,2025-01-29 15:13:35,0.0
-584.3999999999996,-3548.0,-590.4000000000001,-16007.1,2991.5,-4380.0,2025-01-29 15:13:35,0.0
-2904.3999999999996,-1432.0,549.5999999999999,-14378.1,4525.5,-3869.0,2025-01-29 15:13:35,0.0
-4588.4,-664.0,689.5999999999999,-13395.1,4474.5,-3085.0,2025-01-29 15:13:35,0.0
-5812.4,-2492.0,1193.6,-12790.1,3307.5,-1459.0,2025-01-29 15:13:35,0.0
-3680.3999999999996,-3492.0,3657.6,-11371.1,-880.5,591.0,2025-01-29 15:13:35,0.0
-36.399999999999636,-2200.0,3485.6,-9159.1,-6830.5,909.0,2025-01-29 15:13:35,0.0
2179.6000000000004,424.0,1721.6,-7650.1,-11196.5,351.0,2025-01-29 15:13:35,0.0
2259.6000000000004,2992.0,793.5999999999999,-7710.1,-12045.5,-319.0,2025-01-29 15:13:35,0.0
4131.6,4208.0,-886.4000000000001,-9025.1,-6860.5,-1521.0,2025-01-29 15:13:35,0.0
3291.6000000000004,2960.0,-2650.4,-11804.1,898.5,-3026.0,2025-01-29 15:13:35,0.0
139.60000000000036,388.0,729.5999999999999,-14015.1,6015.5,-4063.0,2025-01-29 15:13:35,0.0
-1660.3999999999996,-1464.0,2297.6,-14339.1,6342.5,-3980.0,2025-01-29 15:13:35,0.0
-1812.3999999999996,-2532.0,2409.6,-13674.1,2774.5,-3464.0,2025-01-29 15:13:35,0.0
-1260.3999999999996,-3248.0,2457.6,-12912.1,-1839.5,-3401.0,2025-01-29 15:13:35,0.0
-308.39999999999964,-3220.0,2129.6,-12741.1,-4444.5,-3365.0,2025-01-29 15:13:35,0.0
643.6000000000004,-2800.0,1285.6,-12668.1,-4801.5,-3351.0,2025-01-29 15:13:36,0.0
871.6000000000004,-2000.0,1001.5999999999999,-12391.1,-3577.5,-3114.0,2025-01-29 15:13:36,0.0
843.6000000000004,-1200.0,1297.6,-12069.1,-940.5,-2514.0,2025-01-29 15:13:36,0.0
1095.6000000000004,-1528.0,1817.6,-12039.1,1311.5,-2107.0,2025-01-29 15:13:36,0.0
283.60000000000036,-2704.0,1933.6,-12087.1,1644.5,-1948.0,2025-01-29 15:13:36,0.0
-744.3999999999996,-4080.0,1929.6,-11570.1,1493.5,-2037.0,2025-01-29 15:13:36,0.0
-1584.3999999999996,-4740.0,2589.6,-10503.1,783.5,-2057.0,2025-01-29 15:13:36,0.0
-1448.3999999999996,-4448.0,2837.6,-8972.1,-921.5,-1707.0,2025-01-29 15:13:36,0.0
-1356.3999999999996,-3356.0,3533.6,-7570.1,-3144.5,-1141.0,2025-01-29 15:13:36,0.0
-276.39999999999964,-2268.0,2445.6,-7353.1,-4234.5,-780.0,2025-01-29 15:13:36,0.0
335.60000000000036,-1592.0,2365.6,-7556.1,-5092.5,-414.0,2025-01-29 15:13:36,0.0
575.6000000000004,-2072.0,2137.6,-7609.1,-5065.5,-115.0,2025-01-29 15:13:36,0.0
595.6000000000004,-2860.0,1665.6,-7081.1,-4528.5,208.0,2025-01-29 15:13:36,0.0
1067.6000000000004,-3364.0,1813.6,-6484.1,-3599.5,403.0,2025-01-29 15:13:36,0.0
1291.6000000000004,-2360.0,3049.6,-5926.1,-2318.5,544.0,2025-01-29 15:13:36,0.0
1235.6000000000004,-2112.0,3293.6,-5724.1,-1079.5,878.0,2025-01-29 15:13:36,0.0
515.6000000000004,-2372.0,2957.6,-5470.1,-334.5,1137.0,2025-01-29 15:13:36,0.0
-112.39999999999964,-2504.0,2893.6,-4830.1,-193.5,1451.0,2025-01-29 15:13:36,0.0
7.600000000000364,-2200.0,2793.6,-4268.1,-402.5,1882.0,2025-01-29 15:13:36,0.0
-8.399999999999636,-2432.0,3285.6,-3881.1,-487.5,2436.0,2025-01-29 15:13:36,0.0
-640.3999999999996,-1988.0,3553.6,-3295.1,-457.5,2811.0,2025-01-29 15:13:36,0.0
-328.39999999999964,-1532.0,2141.6,-2901.1,-237.5,3151.0,2025-01-29 15:13:36,0.0
163.60000000000036,-2232.0,1665.6,-2655.1,379.5,2672.0,2025-01-29 15:13:36,0.0
-480.39999999999964,-2220.0,2065.6,-2568.1,866.5,1764.0,2025-01-29 15:13:36,0.0
-1340.3999999999996,-1436.0,2173.6,-2503.1,1005.5,1454.0,2025-01-29 15:13:36,0.0
-1496.3999999999996,-768.0,2521.6,-2300.1,17.5,1668.0,2025-01-29 15:13:36,0.0
-1172.3999999999996,256.0,2449.6,-1939.1,-2218.5,2211.0,2025-01-29 15:13:36,0.0
-272.39999999999964,996.0,1509.6,-1974.1,-3340.5,2571.0,2025-01-29 15:13:36,0.0
359.60000000000036,1340.0,1097.6,-2251.1,-2435.5,2513.0,2025-01-29 15:13:36,0.0
735.6000000000004,700.0,365.5999999999999,-2503.1,-593.5,2198.0,2025-01-29 15:13:36,0.0
539.6000000000004,-248.0,421.5999999999999,-2345.1,878.5,1994.0,2025-01-29 15:13:36,0.0
171.60000000000036,-516.0,825.5999999999999,-1809.1,1761.5,1843.0,2025-01-29 15:13:36,0.0
-332.39999999999964,-248.0,1145.6,-1185.1,2443.5,1797.0,2025-01-29 15:13:36,0.0
-704.3999999999996,408.0,1541.6,-881.1,2635.5,1808.0,2025-01-29 15:13:36,
-500.39999999999964,744.0,1833.6,-880.1,1807.5,1634.0,2025-01-29 15:13:36,0.0
-344.39999999999964,780.0,2089.6,-880.1,-276.5,1125.0,2025-01-29 15:13:36,0.0
539.6000000000004,680.0,1849.6,-846.1,-2571.5,391.0,2025-01-29 15:13:36,0.0
1283.6000000000004,864.0,1773.6,-773.1,-3226.5,-104.0,2025-01-29 15:13:36,0.0
1671.6000000000004,1024.0,1309.6,-780.1,-2548.5,-464.0,2025-01-29 15:13:36,0.0
1951.6000000000004,1152.0,773.5999999999999,-1176.1,-856.5,-831.0,2025-01-29 15:13:36,0.0
919.6000000000004,1020.0,653.5999999999999,-1611.1,887.5,-992.0,2025-01-29 15:13:36,0.0
-616.3999999999996,508.0,1133.6,-1736.1,2215.5,-670.0,2025-01-29 15:13:36,0.0
-1408.3999999999996,284.0,1845.6,-1508.1,2566.5,-68.0,2025-01-29 15:13:36,0.0
-1272.3999999999996,492.0,2345.6,-1050.1,1382.5,334.0,2025-01-29 15:13:36,0.0
-244.39999999999964,996.0,2217.6,-867.1,-915.5,122.0,2025-01-29 15:13:36,0.0
375.60000000000036,924.0,2341.6,-1003.1,-2068.5,-386.0,2025-01-29 15:13:36,0.0
579.6000000000004,820.0,2213.6,-793.1,-1746.5,-816.0,2025-01-29 15:13:36,0.0
347.60000000000036,700.0,1385.6,-515.1,-361.5,-855.0,2025-01-29 15:13:36,0.0
23.600000000000364,372.0,609.5999999999999,-335.1,1087.5,-717.0,2025-01-29 15:13:36,0.0
-304.39999999999964,88.0,653.5999999999999,-165.1,1902.5,-494.0,2025-01-29 15:13:36,0.0
-528.3999999999996,28.0,1013.5999999999999,-2.0999999999999943,1948.5,-262.0,2025-01-29 15:13:36,0.0
-356.39999999999964,348.0,1325.6,78.9,1349.5,-59.0,2025-01-29 15:13:36,0.0
-380.39999999999964,908.0,1525.6,50.900000000000006,924.5,115.0,2025-01-29 15:13:36,0.0
-212.39999999999964,1160.0,1381.6,58.900000000000006,717.5,215.0,2025-01-29 15:13:36,0.0
-172.39999999999964,1084.0,1469.6,-13.099999999999994,879.5,114.0,2025-01-29 15:13:36,0.0
-636.3999999999996,932.0,1893.6,25.900000000000006,1004.5,71.0,2025-01-29 15:13:36,0.0
-780.3999999999996,552.0,2057.6,96.9,486.5,148.0,2025-01-29 15:13:36,0.0
-624.3999999999996,368.0,2245.6,129.9,-536.5,162.0,2025-01-29 15:13:36,0.0
-328.39999999999964,304.0,2137.6,210.9,-1435.5,163.0,2025-01-29 15:13:36,0.0
63.600000000000364,292.0,1761.6,225.9,-1598.5,130.0,2025-01-29 15:13:36,0.0
383.60000000000036,580.0,1421.6,243.9,-1121.5,89.0,2025-01-29 15:13:36,0.0
391.60000000000036,936.0,1293.6,184.9,-126.5,113.0,2025-01-29 15:13:37,0.0
387.60000000000036,1072.0,1005.5999999999999,-50.099999999999994,740.5,108.0,2025-01-29 15:13:37,0.0
227.60000000000036,848.0,1557.6,-213.1,1172.5,48.0,2025-01-29 15:13:37,0.0
-240.39999999999964,612.0,2053.6,-162.1,1059.5,52.0,2025-01-29 15:13:37,0.0
-380.39999999999964,568.0,1961.6,-113.1,528.5,11.0,2025-01-29 15:13:37,0.0
-536.3999999999996,436.0,1741.6,-133.1,-2.5,-56.0,2025-01-29 15:13:37,0.0
-604.3999999999996,548.0,1593.6,-122.1,-371.5,-3.0,2025-01-29 15:13:37,0.0
-300.39999999999964,584.0,1557.6,-61.099999999999994,-411.5,101.0,2025-01-29 15:13:37,0.0
71.60000000000036,596.0,1309.6,-153.1,-146.5,124.0,2025-01-29 15:13:37,0.0
-4.399999999999636,564.0,1333.6,-210.1,231.5,65.0,2025-01-29 15:13:37,0.0
43.600000000000364,624.0,1469.6,-157.1,306.5,69.0,2025-01-29 15:13:37,0.0
-84.39999999999964,544.0,1693.6,-103.1,273.5,24.0,2025-01-29 15:13:37,0.0
-60.399999999999636,416.0,1577.6,-122.1,121.5,-10.0,2025-01-29 15:13:37,0.0
-88.39999999999964,480.0,1533.6,-74.1,-75.5,-27.0,2025-01-29 15:13:37,0.0
-156.39999999999964,476.0,1625.6,-36.099999999999994,-85.5,28.0,2025-01-29 15:13:37,0.0
183.60000000000036,744.0,1397.6,-44.099999999999994,227.5,16.0,2025-01-29 15:13:37,0.0
403.60000000000036,792.0,1321.6,-49.099999999999994,647.5,-80.0,2025-01-29 15:13:37,0.0
-12.399999999999636,812.0,913.5999999999999,-147.1,806.5,-63.0,2025-01-29 15:13:37,0.0
-16.399999999999636,476.0,1117.6,-113.1,1053.5,-10.0,2025-01-29 15:13:37,0.0
-636.3999999999996,500.0,1369.6,14.900000000000006,1662.5,254.0,2025-01-29 15:13:37,0.0
-960.3999999999996,788.0,1673.6,143.9,1865.5,578.0,2025-01-29 15:13:37,0.0
-800.3999999999996,1296.0,1525.6,117.9,1357.5,850.0,2025-01-29 15:13:37,0.0
-516.3999999999996,1632.0,1193.6,-168.1,667.5,889.0,2025-01-29 15:13:37,0.0
491.60000000000036,1608.0,1293.6,-378.1,239.5,730.0,2025-01-29 15:13:37,0.0
1219.6000000000004,1228.0,909.5999999999999,-600.1,288.5,349.0,2025-01-29 15:13:37,0.0
1231.6000000000004,672.0,1153.6,-708.1,945.5,-193.0,2025-01-29 15:13:37,0.0
539.6000000000004,556.0,1493.6,-345.1,2235.5,-346.0,2025-01-29 15:13:37,0.0
-216.39999999999964,1056.0,2085.6,297.9,4073.5,-223.0,2025-01-29 15:13:37,0.0
-364.39999999999964,1316.0,1773.6,465.9,4149.5,-155.0,2025-01-29 15:13:37,0.0
-652.3999999999996,1488.0,1565.6,298.9,2756.5,-287.0,2025-01-29 15:13:37,0.0
-896.3999999999996,1576.0,1405.6,184.9,892.5,-381.0,2025-01-29 15:13:37,0.0
-1188.3999999999996,1660.0,1305.6,224.9,-380.5,-343.0,2025-01-29 15:13:37,0.0
-956.3999999999996,1620.0,1481.6,345.9,-1033.5,-317.0,2025-01-29 15:13:37,0.0
-532.3999999999996,1556.0,1301.6,401.9,-1634.5,-301.0,2025-01-29 15:13:37,0.0
-92.39999999999964,1692.0,1321.6,509.9,-2155.5,-404.0,2025-01-29 15:13:37,0.0
143.60000000000036,2116.0,773.5999999999999,425.9,-2393.5,-373.0,2025-01-29 15:13:37,0.0
511.60000000000036,2376.0,909.5999999999999,106.9,-2302.5,-372.0,2025-01-29 15:13:37,0.0
519.6000000000004,2420.0,785.5999999999999,-156.1,-2023.5,-394.0,2025-01-29 15:13:37,0.0
483.60000000000036,2440.0,653.5999999999999,-494.1,-1617.5,-415.0,2025-01-29 15:13:37,0.0
819.6000000000004,2088.0,637.5999999999999,-858.1,-1162.5,-560.0,2025-01-29 15:13:37,0.0
815.6000000000004,1732.0,989.5999999999999,-1093.1,-513.5,-841.0,2025-01-29 15:13:37,0.0
991.6000000000004,1412.0,1033.6,-1087.1,93.5,-1119.0,2025-01-29 15:13:37,0.0
1087.6000000000004,1144.0,741.5999999999999,-890.1,980.5,-1664.0,2025-01-29 15:13:37,0.0
947.6000000000004,312.0,285.5999999999999,-723.1,1739.5,-2277.0,2025-01-29 15:13:37,0.0
1283.6000000000004,-588.0,309.5999999999999,-365.1,2125.5,-2836.0,2025-01-29 15:13:37,0.0
1055.6000000000004,-1296.0,949.5999999999999,117.9,2494.5,-3027.0,2025-01-29 15:13:37,0.0
675.6000000000004,-1776.0,1817.6,807.9,3689.5,-2576.0,2025-01-29 15:13:37,0.0
-48.399999999999636,-1868.0,2541.6,1396.9,5380.5,-1882.0,2025-01-29 15:13:37,0.0
-956.3999999999996,-1300.0,2341.6,1923.9,6883.5,-1249.0,2025-01-29 15:13:37,0.0
-1436.3999999999996,-644.0,1685.6,1560.9,7183.5,-1036.0,2025-01-29 15:13:37,0.0
-1688.3999999999996,208.0,1841.6,554.9,5634.5,-1554.0,2025-01-29 15:13:37,0.0
-2044.3999999999996,444.0,2541.6,-578.1,2124.5,-2208.0,2025-01-29 15:13:37,0.0
-1996.3999999999996,-248.0,3617.6,-1390.1,-1279.5,-2475.0,2025-01-29 15:13:37,0.0
-1584.3999999999996,-1000.0,3541.6,-1720.1,-3091.5,-2531.0,2025-01-29 15:13:37,0.0
-748.3999999999996,-1604.0,3297.6,-1594.1,-3841.5,-2331.0,2025-01-29 15:13:37,0.0
367.60000000000036,-2108.0,2161.6,-1149.1,-4103.5,-2059.0,2025-01-29 15:13:37,0.0
1375.6000000000004,-2308.0,1529.6,-942.1,-3627.5,-2230.0,2025-01-29 15:13:37,0.0
1759.6000000000004,-2088.0,2077.6,-1073.1,-2339.5,-2641.0,2025-01-29 15:13:37,0.0
1607.6000000000004,-1744.0,3025.6,-1169.1,-679.5,-2776.0,2025-01-29 15:13:37,0.0
1139.6000000000004,-1516.0,3161.6,-892.1,268.5,-2405.0,2025-01-29 15:13:37,0.0
551.6000000000004,-1400.0,2961.6,-711.1,-21.5,-1671.0,2025-01-29 15:13:38,0.0
711.6000000000004,-1312.0,2977.6,-814.1,-333.5,-1112.0,2025-01-29 15:13:38,0.0
135.60000000000036,-1124.0,3653.6,-1184.1,-244.5,-764.0,2025-01-29 15:13:38,0.0
-224.39999999999964,-1052.0,4257.6,-1307.1,-406.5,-279.0,2025-01-29 15:13:38,0.0
-504.39999999999964,-1064.0,4149.6,-1168.1,-1046.5,453.0,2025-01-29 15:13:38,0.0
-156.39999999999964,-1440.0,4013.6,-920.1,-2057.5,1155.0,2025-01-29 15:13:38,0.0
303.60000000000036,-1780.0,3617.6,-794.1,-2591.5,1591.0,2025-01-29 15:13:38,0.0
959.6000000000004,-2324.0,3117.6,-732.1,-2356.5,1917.0,2025-01-29 15:13:38,0.0
1447.6000000000004,-2812.0,2529.6,-715.1,-1775.5,1876.0,2025-01-29 15:13:38,0.0
1623.6000000000004,-2808.0,2173.6,-637.1,-785.5,1456.0,2025-01-29 15:13:38,0.0
919.6000000000004,-2204.0,1961.6,-811.1,807.5,913.0,2025-01-29 15:13:38,0.0
-188.39999999999964,-1508.0,2437.6,-1138.1,2046.5,385.0,2025-01-29 15:13:38,0.0
-1120.3999999999996,-1184.0,2909.6,-1470.1,2260.5,-220.0,2025-01-29 15:13:38,
-2208.3999999999996,-768.0,3061.6,-1814.1,1446.5,-441.0,2025-01-29 15:13:38,0.0
-2528.3999999999996,-240.0,2785.6,-2306.1,-402.5,-202.0,2025-01-29 15:13:38,0.0
-2240.3999999999996,100.0,3009.6,-3297.1,-1717.5,-23.0,2025-01-29 15:13:38,0.0
-1384.3999999999996,-640.0,3489.6,-4606.1,-1959.5,-305.0,2025-01-29 15:13:38,0.0
-920.3999999999996,-2248.0,2369.6,-4948.1,-799.5,-1123.0,2025-01-29 15:13:38,0.0
-1156.3999999999996,-2992.0,889.5999999999999,-5125.1,1074.5,-2165.0,2025-01-29 15:13:38,0.0
-1764.3999999999996,-3856.0,2549.6,-5252.1,2801.5,-3240.0,2025-01-29 15:13:38,0.0
-2776.3999999999996,-4808.0,3969.6,-4544.1,3655.5,-3715.0,2025-01-29 15:13:38,0.0
-3492.3999999999996,-5612.0,4673.6,-3030.1,2999.5,-3770.0,2025-01-29 15:13:38,0.0
-3784.3999999999996,-5732.0,4293.6,-1342.1,-345.5,-3340.0,2025-01-29 15:13:38,0.0
-4292.4,-5412.0,3741.6,183.9,-5294.5,-2660.0,2025-01-29 15:13:38,0.0
-4812.4,-3976.0,3449.6,1069.9,-8844.5,-1161.0,2025-01-29 15:13:38,0.0
-4156.4,-1248.0,3669.6,1955.9,-10268.5,1254.0,2025-01-29 15:13:38,0.0
-2840.3999999999996,-36.0,1573.6,2600.9,-9717.5,3727.0,2025-01-29 15:13:38,0.0
155.60000000000036,-728.0,-2430.4,1687.9,-6681.5,4979.0,2025-01-29 15:13:38,0.0
2367.6000000000004,-960.0,-4006.4,168.9,-2926.5,3749.0,2025-01-29 15:13:38,0.0
1823.6000000000004,-876.0,-3754.4,-468.1,-37.5,2369.0,2025-01-29 15:13:38,0.0
1223.6000000000004,-916.0,-2266.4,145.9,1682.5,1712.0,2025-01-29 15:13:38,0.0
787.6000000000004,4.0,-1126.4,947.9,1744.5,1688.0,2025-01-29 15:13:38,0.0
1835.6000000000004,1520.0,-870.4000000000001,1091.9,1557.5,1780.0,2025-01-29 15:13:38,0.0
1319.6000000000004,2840.0,-398.4000000000001,614.9,763.5,1697.0,2025-01-29 15:13:38,0.0
1019.6000000000004,2916.0,1.599999999999909,258.9,624.5,1759.0,2025-01-29 15:13:38,0.0
331.60000000000036,1584.0,-298.4000000000001,243.9,1375.5,1883.0,2025-01-29 15:13:38,0.0
-108.39999999999964,-296.0,553.5999999999999,556.9,2509.5,2119.0,2025-01-29 15:13:38,0.0
43.600000000000364,-1736.0,1665.6,1427.9,2804.5,2059.0,2025-01-29 15:13:38,0.0
-84.39999999999964,-2116.0,2281.6,2476.9,1992.5,2305.0,2025-01-29 15:13:38,0.0
447.60000000000036,-1908.0,2717.6,3740.9,876.5,2385.0,2025-01-29 15:13:38,0.0
791.6000000000004,-1152.0,2069.6,4730.9,-20.5,2332.0,2025-01-29 15:13:38,0.0
951.6000000000004,-212.0,1389.6,5223.9,-463.5,2444.0,2025-01-29 15:13:38,0.0
1199.6000000000004,740.0,1301.6,5526.9,-522.5,2576.0,2025-01-29 15:13:38,0.0
1363.6000000000004,1688.0,1013.5999999999999,5787.9,-139.5,2758.0,2025-01-29 15:13:38,0.0
1099.6000000000004,2096.0,681.5999999999999,5796.9,667.5,3004.0,2025-01-29 15:13:38,0.0
863.6000000000004,2640.0,813.5999999999999,5463.9,1617.5,3278.0,2025-01-29 15:13:38,0.0
547.6000000000004,2552.0,1217.6,5225.9,1974.5,3194.0,2025-01-29 15:13:38,0.0
423.60000000000036,1668.0,1669.6,5024.9,1159.5,2889.0,2025-01-29 15:13:38,0.0
-32.399999999999636,928.0,2609.6,5050.9,-829.5,2495.0,2025-01-29 15:13:38,0.0
335.60000000000036,588.0,2729.6,5213.9,-2612.5,1987.0,2025-01-29 15:13:38,0.0
1179.6000000000004,940.0,2657.6,5319.9,-3515.5,1411.0,2025-01-29 15:13:38,0.0
2059.6000000000004,1360.0,2553.6,5285.9,-4004.5,677.0,2025-01-29 15:13:38,0.0
2611.6000000000004,2132.0,2229.6,5054.9,-3739.5,-196.0,2025-01-29 15:13:38,0.0
3003.6000000000004,2016.0,2073.6,4575.9,-3036.5,-900.0,2025-01-29 15:13:38,0.0
2647.6000000000004,1704.0,3077.6,4183.9,-1638.5,-1446.0,2025-01-29 15:13:38,0.0
2279.6000000000004,1704.0,3437.6,3934.9,-318.5,-1677.0,2025-01-29 15:13:38,0.0
1883.6000000000004,1928.0,3693.6,3567.9,230.5,-1947.0,2025-01-29 15:13:38,0.0
1147.6000000000004,2156.0,3429.6,3127.9,-205.5,-2197.0,2025-01-29 15:13:38,0.0
807.6000000000004,2600.0,2817.6,2825.9,-998.5,-2459.0,2025-01-29 15:13:38,0.0
539.6000000000004,2436.0,2093.6,2110.9,-1325.5,-2538.0,2025-01-29 15:13:38,0.0
575.6000000000004,1384.0,2241.6,1160.9,-531.5,-2377.0,2025-01-29 15:13:39,0.0
-36.399999999999636,512.0,2709.6,1021.9,1225.5,-1907.0,2025-01-29 15:13:39,0.0
-1384.3999999999996,424.0,2485.6,1351.9,3256.5,-906.0,2025-01-29 15:13:39,0.0
-2212.3999999999996,1084.0,1645.6,1865.9,4641.5,496.0,2025-01-29 15:13:39,0.0
-2348.3999999999996,1720.0,1545.6,1957.9,4948.5,1130.0,2025-01-29 15:13:39,0.0
-2964.3999999999996,1348.0,2509.6,1393.9,5231.5,1325.0,2025-01-29 15:13:39,0.0
-5196.4,760.0,4041.6,917.9,5914.5,1607.0,2025-01-29 15:13:39,0.0
-6552.4,100.0,5013.6,1473.9,5428.5,2397.0,2025-01-29 15:13:39,0.0
-7388.4,996.0,3589.6,2373.9,3183.5,3656.0,2025-01-29 15:13:39,0.0
-6164.4,1832.0,237.5999999999999,2207.9,-391.5,4924.0,2025-01-29 15:13:39,0.0
-2956.3999999999996,2932.0,-3582.4,96.9,-3654.5,4597.0,2025-01-29 15:13:39,0.0
-840.3999999999996,3848.0,-3958.4,-2161.1,-4239.5,2728.0,2025-01-29 15:13:39,0.0
811.6000000000004,4496.0,-1902.4,-3238.1,-2793.5,189.0,2025-01-29 15:13:39,0.0
915.6000000000004,4112.0,-902.4000000000001,-3653.1,-1236.5,-1324.0,2025-01-29 15:13:39,0.0
1699.6000000000004,1908.0,-450.4000000000001,-3739.1,-1957.5,-1714.0,2025-01-29 15:13:39,0.0
2635.6000000000004,-760.0,-354.4000000000001,-3262.1,-4118.5,-2226.0,2025-01-29 15:13:39,0.0
2599.6000000000004,-2992.0,-1190.4,-2789.1,-5322.5,-2787.0,2025-01-29 15:13:39,0.0
1663.6000000000004,-3864.0,-2566.4,-2765.1,-3966.5,-2849.0,2025-01-29 15:13:39,0.0
775.6000000000004,-2628.0,-2362.4,-2200.1,-517.5,-2329.0,2025-01-29 15:13:39,0.0
783.6000000000004,-76.0,-1094.4,-539.1,4543.5,-1664.0,2025-01-29 15:13:39,0.0
1123.6000000000004,1200.0,-402.4000000000001,87.9,6953.5,-1489.0,2025-01-29 15:13:39,0.0
687.6000000000004,2084.0,373.5999999999999,-910.1,6798.5,-1814.0,2025-01-29 15:13:39,0.0
323.60000000000036,2088.0,-94.40000000000009,-2503.1,4996.5,-2323.0,2025-01-29 15:13:39,0.0
-956.3999999999996,1216.0,429.5999999999999,-3626.1,2518.5,-2658.0,2025-01-29 15:13:39,0.0
-1684.3999999999996,-152.0,-158.4000000000001,-4263.1,-207.5,-2523.0,2025-01-29 15:13:39,0.0
-1200.3999999999996,-1444.0,-90.40000000000009,-4633.1,-2967.5,-2639.0,2025-01-29 15:13:39,0.0
163.60000000000036,-2232.0,193.5999999999999,-5019.1,-5680.5,-2269.0,2025-01-29 15:13:39,0.0
1991.6000000000004,-2092.0,489.5999999999999,-4971.1,-6715.5,-2109.0,2025-01-29 15:13:39,0.0
2987.6000000000004,-1416.0,873.5999999999999,-4643.1,-4448.5,-2043.0,2025-01-29 15:13:39,0.0
3243.6000000000004,-1092.0,-54.40000000000009,-4150.1,-332.5,-2133.0,2025-01-29 15:13:39,0.0
3215.6000000000004,-996.0,-150.4000000000001,-3990.1,3186.5,-2299.0,2025-01-29 15:13:39,0.0
2207.6000000000004,-1108.0,501.5999999999999,-3949.1,4650.5,-2578.0,2025-01-29 15:13:39,0.0
707.6000000000004,-1148.0,1241.6,-3974.1,4331.5,-2394.0,2025-01-29 15:13:39,0.0
-548.3999999999996,-1112.0,1733.6,-3652.1,3023.5,-1725.0,2025-01-29 15:13:39,0.0
-896.3999999999996,-1168.0,1817.6,-3229.1,1469.5,-850.0,2025-01-29 15:13:39,0.0
-700.3999999999996,-908.0,1649.6,-2706.1,-224.5,-45.0,2025-01-29 15:13:39,0.0
147.60000000000036,-624.0,1537.6,-2603.1,-1256.5,464.0,2025-01-29 15:13:39,0.0
1079.6000000000004,-168.0,1321.6,-2947.1,-1327.5,556.0,2025-01-29 15:13:39,0.0
1279.6000000000004,120.0,1581.6,-3327.1,-861.5,514.0,2025-01-29 15:13:39,0.0
1191.6000000000004,260.0,1145.6,-3790.1,-983.5,686.0,2025-01-29 15:13:39,0.0
1079.6000000000004,216.0,1541.6,-4189.1,-1457.5,889.0,2025-01-29 15:13:39,0.0
935.6000000000004,312.0,1597.6,-4599.1,-2066.5,1057.0,2025-01-29 15:13:39,0.0
887.6000000000004,284.0,2517.6,-4847.1,-2488.5,1199.0,2025-01-29 15:13:39,0.0
827.6000000000004,-132.0,3129.6,-5031.1,-2828.5,1292.0,2025-01-29 15:13:39,0.0
715.6000000000004,-612.0,3637.6,-4999.1,-2898.5,1581.0,2025-01-29 15:13:39,0.0
259.60000000000036,-1620.0,3373.6,-4618.1,-2449.5,2228.0,2025-01-29 15:13:39,0.0
303.60000000000036,-2464.0,2265.6,-4097.1,-1486.5,2716.0,2025-01-29 15:13:39,0.0
1007.6000000000004,-2016.0,1761.6,-3791.1,-216.5,2527.0,2025-01-29 15:13:39,0.0
1199.6000000000004,-580.0,1621.6,-4211.1,1515.5,1669.0,2025-01-29 15:13:39,0.0
1027.6000000000004,764.0,1905.6,-4862.1,2587.5,319.0,2025-01-29 15:13:39,0.0
-380.39999999999964,1736.0,2181.6,-5501.1,3287.5,-867.0,2025-01-29 15:13:39,0.0
-1860.3999999999996,840.0,2905.6,-6218.1,3578.5,-1487.0,2025-01-29 15:13:39,0.0
-3120.3999999999996,-896.0,3913.6,-6409.1,3516.5,-1458.0,2025-01-29 15:13:39,
-3924.3999999999996,-2788.0,5025.6,-5572.1,2900.5,-764.0,2025-01-29 15:13:39,0.0
-3432.3999999999996,-3388.0,5029.6,-4510.1,743.5,-208.0,2025-01-29 15:13:39,0.0
-2236.3999999999996,-3748.0,4409.6,-3787.1,-1959.5,35.0,2025-01-29 15:13:40,0.0
-1340.3999999999996,-3228.0,3229.6,-3030.1,-1030.5,-877.0,2025-01-29 15:13:40,0.0
-1248.3999999999996,-3132.0,1865.6,-2313.1,773.5,-1997.0,2025-01-29 15:13:40,0.0
-1456.3999999999996,-4572.0,1437.6,-1001.1,2183.5,-3016.0,2025-01-29 15:13:40,0.0
-2268.3999999999996,-5204.0,1341.6,1043.9,3300.5,-3816.0,2025-01-29 15:13:40,0.0
-3980.3999999999996,-5284.0,869.5999999999999,3016.9,3892.5,-3848.0,2025-01-29 15:13:40,0.0
-5636.4,-4696.0,613.5999999999999,4590.9,2775.5,-3097.0,2025-01-29 15:13:40,0.0
-7216.4,-2252.0,929.5999999999999,5477.9,-412.5,-1225.0,2025-01-29 15:13:40,0.0
-6432.4,872.0,789.5999999999999,5744.9,-4951.5,1720.0,2025-01-29 15:13:40,0.0
-1784.3999999999996,3228.0,-2314.4,5387.9,-11560.5,4827.0,2025-01-29 15:13:40,0.0
1423.6000000000004,3108.0,-4542.4,4006.9,-13670.5,5740.0,2025-01-29 15:13:40,0.0
4151.6,3112.0,-5090.4,2407.9,-12063.5,4740.0,2025-01-29 15:13:40,0.0
6527.6,3416.0,-5726.4,833.9,-5216.5,2208.0,2025-01-29 15:13:40,0.0
5315.6,2732.0,-6346.4,-786.1,1993.5,-105.0,2025-01-29 15:13:40,0.0
3999.6000000000004,1920.0,-4254.4,-1472.1,6729.5,-1341.0,2025-01-29 15:13:40,0.0
1319.6000000000004,1388.0,-1818.4,-1266.1,8686.5,-1696.0,2025-01-29 15:13:40,0.0
-828.3999999999996,704.0,561.5999999999999,-674.1,8513.5,-662.0,2025-01-29 15:13:40,0.0
-1548.3999999999996,240.0,349.5999999999999,-159.1,7090.5,406.0,2025-01-29 15:13:40,0.0
-2656.3999999999996,-56.0,-434.4000000000001,-101.1,4551.5,1335.0,2025-01-29 15:13:40,0.0
-2940.3999999999996,520.0,-1026.4,21.900000000000006,1778.5,1943.0,2025-01-29 15:13:40,0.0
-2992.3999999999996,1436.0,-486.4000000000001,392.9,-867.5,2657.0,2025-01-29 15:13:40,0.0
-864.3999999999996,1660.0,-754.4000000000001,614.9,-3098.5,3054.0,2025-01-29 15:13:40,0.0
515.6000000000004,1520.0,-314.4000000000001,707.9,-4306.5,2727.0,2025-01-29 15:13:40,0.0
1407.6000000000004,1156.0,-86.40000000000009,594.9,-4235.5,2360.0,2025-01-29 15:13:40,0.0
2187.6000000000004,1120.0,85.59999999999991,698.9,-2107.5,1976.0,2025-01-29 15:13:40,0.0
2443.6000000000004,1212.0,-478.4000000000001,797.9,567.5,1732.0,2025-01-29 15:13:40,0.0
1999.6000000000004,1320.0,-402.4000000000001,1068.9,2521.5,1615.0,2025-01-29 15:13:40,0.0
1491.6000000000004,1536.0,-54.40000000000009,1373.9,3192.5,1471.0,2025-01-29 15:13:40,0.0
51.600000000000364,1664.0,829.5999999999999,1479.9,3118.5,1576.0,2025-01-29 15:13:40,0.0
-624.3999999999996,1804.0,1145.6,1709.9,2231.5,1732.0,2025-01-29 15:13:40,0.0
-584.3999999999996,1800.0,1093.6,2077.9,825.5,1909.0,2025-01-29 15:13:40,0.0
-256.39999999999964,1436.0,377.5999999999999,2328.9,-670.5,1804.0,2025-01-29 15:13:40,0.0
-132.39999999999964,732.0,-90.40000000000009,2808.9,-1174.5,1749.0,2025-01-29 15:13:40,0.0
343.60000000000036,496.0,-462.4000000000001,3662.9,-1079.5,1770.0,2025-01-29 15:13:40,0.0
1203.6000000000004,628.0,-1214.4,4321.9,-1447.5,1740.0,2025-01-29 15:13:40,0.0
2039.6000000000004,764.0,-2094.4,4650.9,-2411.5,1573.0,2025-01-29 15:13:40,0.0
3143.6000000000004,1184.0,-2686.4,4687.9,-3561.5,1290.0,2025-01-29 15:13:40,0.0
4319.6,1704.0,-3222.4,4667.9,-4321.5,1081.0,2025-01-29 15:13:40,0.0
5199.6,2560.0,-3450.4,4506.9,-3921.5,1181.0,2025-01-29 15:13:40,0.0
6287.6,3296.0,-2634.4,4115.9,-2677.5,1331.0,2025-01-29 15:13:40,0.0
7927.6,3432.0,-1506.4,3480.9,-1464.5,1286.0,2025-01-29 15:13:40,0.0
9051.6,3020.0,-270.4000000000001,2840.9,131.5,832.0,2025-01-29 15:13:40,0.0
8615.6,1644.0,-282.4000000000001,2422.9,2422.5,-167.0,2025-01-29 15:13:40,0.0
6871.6,368.0,-1434.4,2051.9,5584.5,-1007.0,2025-01-29 15:13:40,0.0
4715.6,16.0,-1134.4,1682.9,6755.5,-1861.0,2025-01-29 15:13:40,0.0
2515.6000000000004,880.0,-842.4000000000001,627.9,6070.5,-2740.0,2025-01-29 15:13:40,0.0
1191.6000000000004,2296.0,381.5999999999999,-643.1,4277.5,-2901.0,2025-01-29 15:13:40,0.0
1123.6000000000004,2708.0,1321.6,-1186.1,1747.5,-2650.0,2025-01-29 15:13:40,0.0
1279.6000000000004,1908.0,817.5999999999999,-710.1,-767.5,-2165.0,2025-01-29 15:13:40,0.0
1359.6000000000004,1240.0,1273.6,-362.1,-2662.5,-1307.0,2025-01-29 15:13:40,0.0
1855.6000000000004,776.0,2901.6,134.9,-3849.5,-559.0,2025-01-29 15:13:40,0.0
2327.6000000000004,324.0,3389.6,816.9,-4896.5,165.0,2025-01-29 15:13:40,0.0
3391.6000000000004,-12.0,3793.6,992.9,-4389.5,311.0,2025-01-29 15:13:40,0.0
4519.6,-688.0,5129.6,1179.9,-2774.5,-239.0,2025-01-29 15:13:40,0.0
4303.6,-1988.0,5785.6,1751.9,-1644.5,-160.0,2025-01-29 15:13:40,0.0
5259.6,-3652.0,4845.6,2310.9,-3105.5,342.0,2025-01-29 15:13:40,0.0
3747.6000000000004,-2180.0,965.5999999999999,1935.9,-3717.5,-335.0,2025-01-29 15:13:40,0.0
2991.6000000000004,144.0,-1242.4,1398.9,-3418.5,-1162.0,2025-01-29 15:13:40,0.0
443.60000000000036,2620.0,-1970.4,18.900000000000006,-2135.5,-2076.0,2025-01-29 15:13:40,0.0
-1872.3999999999996,3860.0,-6.400000000000091,-1265.1,-2120.5,-2415.0,2025-01-29 15:13:40,0.0
-4684.4,3404.0,1589.6,-1436.1,-4283.5,-1153.0,2025-01-29 15:13:40,0.0
-5160.4,1996.0,3185.6,-1345.1,-7238.5,362.0,2025-01-29 15:13:40,0.0
-4248.4,732.0,4097.6,-1321.1,-11239.5,1766.0,2025-01-29 15:13:40,0.0
-2520.3999999999996,500.0,3817.6,-1062.1,-12990.5,1948.0,2025-01-29 15:13:41,0.0
-1320.3999999999996,576.0,4621.6,-1120.1,-13170.5,1057.0,2025-01-29 15:13:41,0.0
-1136.3999999999996,864.0,3917.6,-1352.1,-13442.5,317.0,2025-01-29 15:13:41,0.0
-1844.3999999999996,1556.0,4769.6,-2088.1,-13305.5,-1.0,2025-01-29 15:13:41,0.0
-1428.3999999999996,2036.0,3333.6,-2622.1,-13594.5,328.0,2025-01-29 15:13:41,0.0
-356.39999999999964,1400.0,4617.6,-2648.1,-13773.5,770.0,2025-01-29 15:13:41,0.0
-732.3999999999996,628.0,4177.6,-2527.1,-11790.5,1067.0,2025-01-29 15:13:41,0.0
-1336.3999999999996,-920.0,5617.6,-2142.1,-8614.5,987.0,2025-01-29 15:13:41,0.0
-2400.3999999999996,-1088.0,8225.6,-1665.1,-7221.5,591.0,2025-01-29 15:13:41,0.0
-3776.3999999999996,104.0,9273.6,-1186.1,-9745.5,665.0,2025-01-29 15:13:41,0.0
-2380.3999999999996,712.0,9385.6,-854.1,-12421.5,1345.0,2025-01-29 15:13:41,0.0
-1064.3999999999996,656.0,9245.6,-618.1,-13413.5,1572.0,2025-01-29 15:13:41,0.0
47.600000000000364,816.0,7865.6,-1201.1,-12777.5,1481.0,2025-01-29 15:13:41,0.0
407.60000000000036,1320.0,8841.6,-1931.1,-10658.5,875.0,2025-01-29 15:13:41,0.0
-112.39999999999964,2252.0,10153.6,-2157.1,-10170.5,492.0,2025-01-29 15:13:41,0.0
-592.3999999999996,2456.0,10697.6,-2639.1,-11219.5,338.0,2025-01-29 15:13:41,0.0
-808.3999999999996,2124.0,11121.6,-2327.1,-12516.5,805.0,2025-01-29 15:13:41,0.0
-212.39999999999964,656.0,10869.6,-1937.1,-12774.5,1248.0,2025-01-29 15:13:41,0.0
419.60000000000036,-12.0,11921.6,-1557.1,-12006.5,1572.0,2025-01-29 15:13:41,0.0
623.6000000000004,-220.0,11029.6,-1208.1,-10825.5,1581.0,2025-01-29 15:13:41,0.0
-284.39999999999964,424.0,11441.6,-1286.1,-9912.5,1204.0,2025-01-29 15:13:41,0.0
-1036.3999999999996,1548.0,13393.6,-1482.1,-9966.5,784.0,2025-01-29 15:13:41,0.0
-576.3999999999996,1736.0,13645.6,-1027.1,-10658.5,930.0,2025-01-29 15:13:41,0.0
-448.39999999999964,2004.0,13357.6,-978.1,-11878.5,1050.0,2025-01-29 15:13:41,0.0
679.6000000000004,1228.0,14085.6,-819.1,-13295.5,930.0,2025-01-29 15:13:41,0.0
1503.6000000000004,1044.0,14117.6,-645.1,-13905.5,527.0,2025-01-29 15:13:41,0.0
2363.6000000000004,1760.0,14045.6,-850.1,-14421.5,128.0,2025-01-29 15:13:41,0.0
2095.6000000000004,2532.0,15041.6,-688.1,-14790.5,230.0,2025-01-29 15:13:41,0.0
3803.6000000000004,2012.0,14929.6,237.9,-13894.5,625.0,2025-01-29 15:13:41,0.0
4011.6000000000004,968.0,13605.6,721.9,-11931.5,1216.0,2025-01-29 15:13:41,0.0
3839.6000000000004,120.0,14801.6,820.9,-10208.5,1365.0,2025-01-29 15:13:41,0.0
3559.6000000000004,628.0,15773.6,224.9,-9377.5,937.0,2025-01-29 15:13:41,0.0
3899.6000000000004,2136.0,15693.6,-1053.1,-8864.5,151.0,2025-01-29 15:13:41,0.0
4787.6,3440.0,16173.6,-2203.1,-7457.5,-348.0,2025-01-29 15:13:41,0.0
5411.6,2724.0,16821.6,-2474.1,-5092.5,-258.0,2025-01-29 15:13:41,
5699.6,368.0,17661.6,-1670.1,-2420.5,174.0,2025-01-29 15:13:41,0.0
5319.6,-1944.0,18077.6,-835.1,-85.5,15.0,2025-01-29 15:13:41,0.0
4335.6,-2472.0,19689.6,-32.099999999999994,878.5,-518.0,2025-01-29 15:13:41,0.0
3631.6000000000004,-1308.0,19521.6,120.9,692.5,-1129.0,2025-01-29 15:13:41,0.0
3583.6000000000004,404.0,18597.6,-299.1,744.5,-1452.0,2025-01-29 15:13:41,0.0
3999.6000000000004,2048.0,18053.6,-637.1,1246.5,-1350.0,2025-01-29 15:13:41,0.0
4855.6,2416.0,17285.6,-448.1,2103.5,-961.0,2025-01-29 15:13:41,0.0
5987.6,1348.0,16693.6,-285.1,2861.5,-824.0,2025-01-29 15:13:41,0.0
6407.6,164.0,16261.6,-293.1,3233.5,-1032.0,2025-01-29 15:13:41,0.0
7079.6,60.0,15885.6,-576.1,3363.5,-1307.0,2025-01-29 15:13:41,0.0
6811.6,424.0,15373.6,-845.1,3853.5,-1361.0,2025-01-29 15:13:41,0.0
6911.6,512.0,15637.6,-777.1,3848.5,-1284.0,2025-01-29 15:13:41,0.0
7183.6,196.0,15617.6,-505.1,2554.5,-997.0,2025-01-29 15:13:41,0.0
7107.6,80.0,14817.6,-435.1,1314.5,-843.0,2025-01-29 15:13:41,0.0
5847.6,612.0,14365.6,-562.1,1105.5,-461.0,2025-01-29 15:13:41,0.0
5659.6,668.0,15361.6,-527.1,557.5,-267.0,2025-01-29 15:13:41,0.0
6095.6,40.0,15105.6,-500.1,-338.5,-314.0,2025-01-29 15:13:41,0.0
6415.6,-572.0,14849.6,-212.1,-703.5,-554.0,2025-01-29 15:13:41,0.0
6127.6,-956.0,14669.6,149.9,-921.5,-747.0,2025-01-29 15:13:41,0.0
5839.6,-944.0,14825.6,630.9,-894.5,-911.0,2025-01-29 15:13:41,0.0
5103.6,164.0,14893.6,816.9,-1171.5,-870.0,2025-01-29 15:13:41,0.0
4631.6,1400.0,15005.6,758.9,-1541.5,-673.0,2025-01-29 15:13:41,0.0
4839.6,1224.0,14897.6,296.9,-1825.5,-293.0,2025-01-29 15:13:41,0.0
5447.6,960.0,15085.6,-34.099999999999994,-1856.5,-55.0,2025-01-29 15:13:41,0.0
5755.6,664.0,15013.6,-137.1,-1841.5,142.0,2025-01-29 15:13:41,0.0
5751.6,276.0,15681.6,-133.1,-1797.5,320.0,2025-01-29 15:13:41,0.0
5287.6,288.0,16261.6,-82.1,-1905.5,432.0,2025-01-29 15:13:41,0.0
5111.6,512.0,16357.6,-63.099999999999994,-2239.5,572.0,2025-01-29 15:13:41,0.0
5231.6,484.0,16389.6,21.900000000000006,-2238.5,594.0,2025-01-29 15:13:41,0.0
5703.6,-100.0,16393.6,133.9,-1924.5,539.0,2025-01-29 15:13:41,0.0
6155.6,-324.0,15949.6,232.9,-1388.5,339.0,2025-01-29 15:13:41,0.0
5743.6,144.0,15881.6,269.9,-745.5,-39.0,2025-01-29 15:13:42,0.0
919.6000000000004,656.0,17505.6,195.9,-932.5,-102.0,2025-01-29 15:13:42,0.0
5123.6,908.0,15577.6,1.9000000000000057,-371.5,-98.0,2025-01-29 15:13:42,0.0
5371.6,1132.0,15585.6,-260.1,-53.5,-104.0,2025-01-29 15:13:42,0.0
5935.6,860.0,16173.6,-313.1,189.5,-40.0,2025-01-29 15:13:42,0.0
6443.6,148.0,16557.6,-115.1,473.5,4.0,2025-01-29 15:13:42,0.0
6587.6,-344.0,16513.6,55.900000000000006,664.5,-95.0,2025-01-29 15:13:42,0.0
6339.6,-488.0,16449.6,142.9,556.5,-273.0,2025-01-29 15:13:42,0.0
5967.6,-60.0,16733.6,176.9,43.5,-310.0,2025-01-29 15:13:42,0.0
6043.6,448.0,16177.6,145.9,-308.5,-276.0,2025-01-29 15:13:42,0.0
6223.6,940.0,15609.6,11.900000000000006,-130.5,-135.0,2025-01-29 15:13:42,0.0
6367.6,820.0,15645.6,-69.1,127.5,12.0,2025-01-29 15:13:42,0.0
6383.6,576.0,15541.6,-185.1,358.5,71.0,2025-01-29 15:13:42,0.0
6283.6,-48.0,15941.6,-215.1,347.5,33.0,2025-01-29 15:13:42,0.0
6539.6,-460.0,16113.6,-165.1,48.5,-157.0,2025-01-29 15:13:42,0.0
6539.6,-468.0,16105.6,-118.1,-174.5,-357.0,2025-01-29 15:13:42,0.0
6163.6,-128.0,16105.6,30.900000000000006,-349.5,-529.0,2025-01-29 15:13:42,0.0
6115.6,280.0,16145.6,240.9,-557.5,-527.0,2025-01-29 15:13:42,0.0
6019.6,496.0,15593.6,453.9,-702.5,-454.0,2025-01-29 15:13:42,0.0
6083.6,580.0,15469.6,487.9,-660.5,-394.0,2025-01-29 15:13:42,0.0
5851.6,904.0,15393.6,308.9,-456.5,-307.0,2025-01-29 15:13:42,0.0
5707.6,980.0,15449.6,73.9,-210.5,-110.0,2025-01-29 15:13:42,0.0
5799.6,624.0,15573.6,-120.1,1.5,41.0,2025-01-29 15:13:42,0.0
6035.6,208.0,16089.6,-170.1,286.5,76.0,2025-01-29 15:13:42,0.0
5759.6,0.0,16325.6,-199.1,659.5,50.0,2025-01-29 15:13:42,0.0
5907.6,36.0,16333.6,-74.1,644.5,-8.0,2025-01-29 15:13:42,0.0
5799.6,180.0,16365.6,34.900000000000006,540.5,-15.0,2025-01-29 15:13:42,0.0
5819.6,104.0,16229.6,178.9,481.5,-11.0,2025-01-29 15:13:42,0.0
5855.6,200.0,16285.6,221.9,443.5,-41.0,2025-01-29 15:13:42,0.0
5927.6,320.0,15969.6,159.9,351.5,-12.0,2025-01-29 15:13:42,0.0
6095.6,576.0,15861.6,79.9,376.5,26.0,2025-01-29 15:13:42,0.0
5895.6,764.0,15689.6,-38.099999999999994,646.5,114.0,2025-01-29 15:13:42,0.0
5811.6,812.0,15681.6,-105.1,929.5,305.0,2025-01-29 15:13:42,0.0
5707.6,684.0,15837.6,-31.099999999999994,1014.5,471.0,2025-01-29 15:13:42,0.0
5823.6,560.0,15701.6,10.900000000000006,843.5,548.0,2025-01-29 15:13:42,0.0
5871.6,308.0,15853.6,100.9,221.5,581.0,2025-01-29 15:13:42,0.0
5887.6,208.0,15913.6,193.9,-334.5,510.0,2025-01-29 15:13:42,0.0
5939.6,228.0,16005.6,251.9,-661.5,447.0,2025-01-29 15:13:42,0.0
6039.6,520.0,15693.6,239.9,-561.5,401.0,2025-01-29 15:13:42,0.0
5983.6,676.0,15549.6,232.9,-273.5,426.0,2025-01-29 15:13:42,0.0
6043.6,592.0,15465.6,209.9,18.5,407.0,2025-01-29 15:13:42,0.0
6019.6,220.0,15553.6,205.9,125.5,367.0,2025-01-29 15:13:42,0.0
6059.6,-56.0,15777.6,199.9,101.5,202.0,2025-01-29 15:13:42,0.0
6091.6,-40.0,15853.6,227.9,-9.5,64.0,2025-01-29 15:13:42,0.0
5939.6,352.0,15913.6,263.9,-69.5,-6.0,2025-01-29 15:13:42,0.0
5803.6,672.0,15789.6,181.9,-4.5,23.0,2025-01-29 15:13:42,0.0
5807.6,960.0,15397.6,57.900000000000006,188.5,87.0,2025-01-29 15:13:42,0.0
5675.6,1112.0,15525.6,-63.099999999999994,502.5,173.0,2025-01-29 15:13:42,0.0
5711.6,1028.0,15549.6,-189.1,570.5,290.0,2025-01-29 15:13:42,0.0
5759.6,824.0,15753.6,-169.1,558.5,353.0,2025-01-29 15:13:42,0.0
5975.6,584.0,15789.6,-97.1,550.5,402.0,2025-01-29 15:13:42,0.0
6127.6,592.0,15765.6,2.9000000000000057,431.5,398.0,2025-01-29 15:13:42,0.0
6171.6,276.0,15921.6,124.9,301.5,388.0,2025-01-29 15:13:42,0.0
5827.6,24.0,15937.6,248.9,-37.5,218.0,2025-01-29 15:13:42,0.0
5695.6,628.0,16053.6,281.9,-303.5,126.0,2025-01-29 15:13:42,0.0
5859.6,1080.0,15841.6,174.9,-247.5,98.0,2025-01-29 15:13:42,0.0
5799.6,860.0,15741.6,68.9,-152.5,192.0,2025-01-29 15:13:42,0.0
5763.6,684.0,15677.6,15.900000000000006,90.5,208.0,2025-01-29 15:13:42,0.0
5523.6,564.0,15821.6,-0.09999999999999432,173.5,136.0,2025-01-29 15:13:42,0.0
5531.6,612.0,15733.6,-36.099999999999994,120.5,81.0,2025-01-29 15:13:43,0.0
5567.6,528.0,15517.6,-3.0999999999999943,121.5,59.0,2025-01-29 15:13:43,0.0
5687.6,740.0,15425.6,43.900000000000006,140.5,45.0,2025-01-29 15:13:43,0.0
5715.6,792.0,15661.6,60.900000000000006,185.5,120.0,2025-01-29 15:13:43,0.0
5771.6,524.0,15729.6,62.900000000000006,100.5,111.0,2025-01-29 15:13:43,0.0
5767.6,568.0,15825.6,71.9,-65.5,107.0,2025-01-29 15:13:43,0.0
5763.6,820.0,15833.6,30.900000000000006,-165.5,65.0,2025-01-29 15:13:43,0.0
5907.6,1024.0,15705.6,18.900000000000006,-104.5,58.0,2025-01-29 15:13:43,0.0
6043.6,968.0,15665.6,37.900000000000006,51.5,139.0,2025-01-29 15:13:43,0.0
5927.6,816.0,15501.6,87.9,131.5,147.0,2025-01-29 15:13:43,
6047.6,732.0,15641.6,107.9,114.5,123.0,2025-01-29 15:13:43,0.0
5883.6,460.0,15665.6,130.9,52.5,99.0,2025-01-29 15:13:43,0.0
5939.6,544.0,15753.6,163.9,-47.5,22.0,2025-01-29 15:13:43,0.0
5915.6,792.0,15737.6,180.9,-89.5,32.0,2025-01-29 15:13:43,0.0
5811.6,872.0,15801.6,150.9,-185.5,21.0,2025-01-29 15:13:43,0.0
5803.6,760.0,15513.6,103.9,-209.5,-4.0,2025-01-29 15:13:43,0.0
5967.6,768.0,15769.6,73.9,-156.5,-5.0,2025-01-29 15:13:43,0.0
5807.6,704.0,15805.6,27.900000000000006,-99.5,-38.0,2025-01-29 15:13:43,0.0
5863.6,732.0,15857.6,45.900000000000006,-97.5,-80.0,2025-01-29 15:13:43,0.0
7123.6,524.0,15297.6,82.9,-92.5,-62.0,2025-01-29 15:13:43,0.0
5791.6,688.0,15709.6,36.900000000000006,-26.5,-66.0,2025-01-29 15:13:43,0.0
5823.6,724.0,15993.6,48.900000000000006,-84.5,-76.0,2025-01-29 15:13:43,0.0
5643.6,720.0,15833.6,77.9,-54.5,-101.0,2025-01-29 15:13:43,0.0
5563.6,832.0,15949.6,33.900000000000006,-40.5,-101.0,2025-01-29 15:13:43,0.0
5767.6,888.0,15725.6,21.900000000000006,-40.5,-85.0,2025-01-29 15:13:43,0.0
5815.6,856.0,15681.6,45.900000000000006,-61.5,-40.0,2025-01-29 15:13:43,0.0
5703.6,716.0,15837.6,109.9,-101.5,-6.0,2025-01-29 15:13:43,0.0
5895.6,752.0,15865.6,143.9,-119.5,-32.0,2025-01-29 15:13:43,0.0
5975.6,624.0,15657.6,149.9,-96.5,-63.0,2025-01-29 15:13:43,0.0
5931.6,748.0,15649.6,171.9,-16.5,-117.0,2025-01-29 15:13:43,0.0
5811.6,676.0,15713.6,163.9,-7.5,-112.0,2025-01-29 15:13:43,0.0
5827.6,856.0,15689.6,170.9,-86.5,-95.0,2025-01-29 15:13:43,0.0
5939.6,720.0,15581.6,121.9,-62.5,-81.0,2025-01-29 15:13:43,0.0
5699.6,700.0,15845.6,49.900000000000006,-1.5,-56.0,2025-01-29 15:13:43,0.0
5851.6,664.0,15777.6,38.900000000000006,-96.5,-92.0,2025-01-29 15:13:43,0.0
5847.6,644.0,15641.6,38.900000000000006,-269.5,-56.0,2025-01-29 15:13:43,0.0
5939.6,616.0,15885.6,50.900000000000006,-341.5,-74.0,2025-01-29 15:13:43,0.0
6015.6,712.0,15797.6,22.900000000000006,-356.5,-39.0,2025-01-29 15:13:43,0.0
5947.6,868.0,15789.6,-10.099999999999994,-316.5,-13.0,2025-01-29 15:13:43,0.0
5999.6,832.0,15837.6,-13.099999999999994,-235.5,-16.0,2025-01-29 15:13:43,0.0
6035.6,784.0,15901.6,25.900000000000006,-117.5,-3.0,2025-01-29 15:13:43,0.0
6091.6,692.0,15865.6,20.900000000000006,-16.5,-30.0,2025-01-29 15:13:43,0.0
5835.6,800.0,15897.6,38.900000000000006,35.5,-63.0,2025-01-29 15:13:43,0.0
5871.6,912.0,15961.6,47.900000000000006,79.5,-96.0,2025-01-29 15:13:43,0.0
5691.6,780.0,15917.6,41.900000000000006,22.5,-54.0,2025-01-29 15:13:43,0.0
5915.6,756.0,15965.6,19.900000000000006,7.5,-10.0,2025-01-29 15:13:43,0.0
5959.6,860.0,15633.6,-13.099999999999994,378.5,66.0,2025-01-29 15:13:43,0.0
5595.6,736.0,16037.6,-174.1,1145.5,61.0,2025-01-29 15:13:43,0.0
5251.6,680.0,17421.6,-125.1,1928.5,-26.0,2025-01-29 15:13:43,0.0
4163.6,284.0,18913.6,103.9,2328.5,-191.0,2025-01-29 15:13:43,0.0
3151.6000000000004,-808.0,20317.6,439.9,2961.5,-546.0,2025-01-29 15:13:43,0.0
1899.6000000000004,-1380.0,22221.6,752.9,3579.5,-1146.0,2025-01-29 15:13:43,0.0
571.6000000000004,-1108.0,22817.6,787.9,3520.5,-1677.0,2025-01-29 15:13:43,0.0
-216.39999999999964,328.0,21417.6,765.9,2917.5,-1581.0,2025-01-29 15:13:43,0.0
-664.3999999999996,1884.0,20393.6,376.9,2464.5,-849.0,2025-01-29 15:13:43,0.0
-16.399999999999636,2620.0,18425.6,10.900000000000006,2976.5,131.0,2025-01-29 15:13:43,0.0
1007.6000000000004,2756.0,17925.6,-556.1,4729.5,905.0,2025-01-29 15:13:43,0.0
1019.6000000000004,2356.0,18213.6,-810.1,6443.5,1339.0,2025-01-29 15:13:43,0.0
919.6000000000004,1692.0,18281.6,-684.1,6669.5,1363.0,2025-01-29 15:13:43,0.0
1491.6000000000004,904.0,17925.6,-505.1,6422.5,1194.0,2025-01-29 15:13:43,0.0
2319.6000000000004,392.0,16677.6,-421.1,6634.5,882.0,2025-01-29 15:13:43,0.0
2859.6000000000004,736.0,15853.6,-296.1,7467.5,708.0,2025-01-29 15:13:43,0.0
3303.6000000000004,1284.0,15109.6,-22.099999999999994,8966.5,478.0,2025-01-29 15:13:44,0.0
3363.6000000000004,1240.0,15153.6,374.9,10122.5,440.0,2025-01-29 15:13:44,0.0
4103.6,320.0,14465.6,550.9,10536.5,235.0,2025-01-29 15:13:44,0.0
4327.6,-72.0,14333.6,723.9,10674.5,32.0,2025-01-29 15:13:44,0.0
4263.6,128.0,13705.6,802.9,10819.5,-228.0,2025-01-29 15:13:44,0.0
3443.6000000000004,240.0,13521.6,766.9,10911.5,-513.0,2025-01-29 15:13:44,0.0
3507.6000000000004,476.0,13429.6,537.9,10905.5,-852.0,2025-01-29 15:13:44,0.0
3099.6000000000004,616.0,14221.6,704.9,10622.5,-1102.0,2025-01-29 15:13:44,0.0
3299.6000000000004,400.0,13273.6,899.9,10003.5,-1100.0,2025-01-29 15:13:44,0.0
3811.6000000000004,792.0,11761.6,679.9,9309.5,-1145.0,2025-01-29 15:13:44,0.0
4395.6,1096.0,10373.6,128.9,9430.5,-1315.0,2025-01-29 15:13:44,0.0
4015.6000000000004,1088.0,9717.6,-434.1,10605.5,-1761.0,2025-01-29 15:13:44,0.0
2387.6000000000004,424.0,9401.6,-681.1,12016.5,-1823.0,2025-01-29 15:13:44,0.0
67.60000000000036,544.0,9765.6,-788.1,12168.5,-1608.0,2025-01-29 15:13:44,0.0
-972.3999999999996,764.0,10893.6,-1080.1,9860.5,-1455.0,2025-01-29 15:13:44,0.0
-364.39999999999964,764.0,11345.6,-844.1,6599.5,-509.0,2025-01-29 15:13:44,0.0
907.6000000000004,76.0,10261.6,-516.1,4541.5,-58.0,2025-01-29 15:13:44,0.0
1499.6000000000004,-348.0,8841.6,-267.1,4859.5,301.0,2025-01-29 15:13:44,0.0
2775.6000000000004,-1016.0,8249.6,-67.1,6112.5,140.0,2025-01-29 15:13:44,0.0
2871.6000000000004,-648.0,8505.6,248.9,7017.5,-82.0,2025-01-29 15:13:44,0.0
2903.6000000000004,160.0,8677.6,598.9,6832.5,-238.0,2025-01-29 15:13:44,0.0
2867.6000000000004,980.0,8257.6,879.9,6505.5,-302.0,2025-01-29 15:13:44,0.0
2235.6000000000004,1764.0,7089.6,837.9,6863.5,-30.0,2025-01-29 15:13:44,0.0
1727.6000000000004,1736.0,6329.6,562.9,7820.5,215.0,2025-01-29 15:13:44,0.0
1767.6000000000004,1452.0,6001.6,221.9,8675.5,428.0,2025-01-29 15:13:44,0.0
1647.6000000000004,1068.0,6073.6,35.900000000000006,8760.5,493.0,2025-01-29 15:13:44,0.0
1771.6000000000004,780.0,6021.6,128.9,7908.5,508.0,2025-01-29 15:13:44,0.0
1395.6000000000004,624.0,5969.6,332.9,6651.5,589.0,2025-01-29 15:13:44,0.0
1455.6000000000004,556.0,5501.6,567.9,5446.5,595.0,2025-01-29 15:13:44,0.0
1391.6000000000004,1012.0,4625.6,705.9,4375.5,676.0,2025-01-29 15:13:44,0.0
1523.6000000000004,1644.0,4021.6,383.9,3793.5,678.0,2025-01-29 15:13:44,0.0
1759.6000000000004,1992.0,4377.6,39.900000000000006,3608.5,555.0,2025-01-29 15:13:44,0.0
2011.6000000000004,1484.0,4825.6,-45.099999999999994,3536.5,384.0,2025-01-29 15:13:44,0.0
2395.6000000000004,700.0,5069.6,-120.1,3373.5,106.0,2025-01-29 15:13:44,0.0
2739.6000000000004,-264.0,5021.6,-24.099999999999994,2846.5,-277.0,2025-01-29 15:13:44,0.0
3059.6000000000004,-972.0,4933.6,247.9,2406.5,-694.0,2025-01-29 15:13:44,0.0
3107.6000000000004,-1156.0,4553.6,592.9,2606.5,-1120.0,2025-01-29 15:13:44,0.0
2767.6000000000004,-856.0,4305.6,991.9,3197.5,-1422.0,2025-01-29 15:13:44,0.0
2451.6000000000004,-164.0,4213.6,1365.9,3922.5,-1498.0,2025-01-29 15:13:44,0.0
1971.6000000000004,-96.0,3873.6,1708.9,4596.5,-1522.0,2025-01-29 15:13:44,0.0
1735.6000000000004,-184.0,3561.6,1954.9,5033.5,-1518.0,2025-01-29 15:13:44,0.0
1419.6000000000004,36.0,3869.6,2171.9,4679.5,-1496.0,2025-01-29 15:13:44,0.0
1247.6000000000004,732.0,4517.6,2450.9,3534.5,-1317.0,2025-01-29 15:13:44,0.0
1443.6000000000004,1584.0,4673.6,2517.9,1543.5,-974.0,2025-01-29 15:13:44,0.0
1479.6000000000004,2356.0,3949.6,1920.9,-339.5,-461.0,2025-01-29 15:13:44,0.0
1627.6000000000004,1556.0,3173.6,1154.9,-1001.5,-291.0,2025-01-29 15:13:44,0.0
2027.6000000000004,352.0,3449.6,571.9,-949.5,-486.0,2025-01-29 15:13:44,0.0
2123.6000000000004,476.0,4029.6,768.9,-800.5,-394.0,2025-01-29 15:13:44,
2139.6000000000004,1028.0,4177.6,1061.9,-248.5,-105.0,2025-01-29 15:13:44,0.0
2067.6000000000004,1344.0,3721.6,1265.9,919.5,192.0,2025-01-29 15:13:44,0.0
1567.6000000000004,1080.0,3497.6,1231.9,2445.5,258.0,2025-01-29 15:13:44,0.0
1039.6000000000004,332.0,3181.6,802.9,3549.5,138.0,2025-01-29 15:13:44,0.0
675.6000000000004,-176.0,3661.6,555.9,3671.5,-122.0,2025-01-29 15:13:44,0.0
327.60000000000036,236.0,4433.6,766.9,2447.5,-310.0,2025-01-29 15:13:44,0.0
-52.399999999999636,816.0,4197.6,1077.9,804.5,1.0,2025-01-29 15:13:44,0.0
127.60000000000036,1132.0,3689.6,1097.9,-15.5,82.0,2025-01-29 15:13:44,0.0
571.6000000000004,992.0,3069.6,756.9,-267.5,-119.0,2025-01-29 15:13:44,0.0
755.6000000000004,668.0,3517.6,576.9,-394.5,-306.0,2025-01-29 15:13:44,0.0
1027.6000000000004,444.0,3925.6,772.9,-484.5,-321.0,2025-01-29 15:13:44,0.0
1515.6000000000004,-212.0,3977.6,1054.9,-433.5,-226.0,2025-01-29 15:13:44,0.0
1859.6000000000004,-608.0,3889.6,1435.9,-6.5,-346.0,2025-01-29 15:13:44,0.0
1603.6000000000004,-936.0,3617.6,1852.9,1003.5,-494.0,2025-01-29 15:13:45,0.0
1063.6000000000004,-500.0,3269.6,2336.9,2613.5,-470.0,2025-01-29 15:13:45,0.0
407.60000000000036,-212.0,3669.6,2627.9,3698.5,-323.0,2025-01-29 15:13:45,0.0
-268.39999999999964,44.0,3641.6,2870.9,4313.5,-287.0,2025-01-29 15:13:45,0.0
-1096.3999999999996,192.0,3173.6,3133.9,4363.5,-294.0,2025-01-29 15:13:45,0.0
-1440.3999999999996,356.0,2977.6,3035.9,3989.5,-383.0,2025-01-29 15:13:45,0.0
-1356.3999999999996,1100.0,3461.6,2877.9,2088.5,-484.0,2025-01-29 15:13:45,0.0
-940.3999999999996,1696.0,2989.6,2299.9,-861.5,-486.0,2025-01-29 15:13:45,0.0
-228.39999999999964,2020.0,2249.6,1225.9,-2928.5,-603.0,2025-01-29 15:13:45,0.0
203.60000000000036,2060.0,1597.6,262.9,-3329.5,-722.0,2025-01-29 15:13:45,0.0
323.60000000000036,1172.0,1141.6,-579.1,-1922.5,-608.0,2025-01-29 15:13:45,0.0
727.6000000000004,-116.0,2149.6,-908.1,-65.5,-597.0,2025-01-29 15:13:45,0.0
583.6000000000004,-572.0,3473.6,-452.1,1163.5,-726.0,2025-01-29 15:13:45,0.0
131.60000000000036,-32.0,3829.6,179.9,1984.5,-575.0,2025-01-29 15:13:45,0.0
-32.399999999999636,504.0,3705.6,144.9,2350.5,-546.0,2025-01-29 15:13:45,0.0
47.600000000000364,472.0,3665.6,-179.1,1959.5,-841.0,2025-01-29 15:13:45,0.0
-452.39999999999964,540.0,4141.6,-356.1,1368.5,-964.0,2025-01-29 15:13:45,0.0
-116.39999999999964,596.0,4365.6,-205.1,791.5,-925.0,2025-01-29 15:13:45,0.0
-148.39999999999964,524.0,3885.6,-157.1,204.5,-924.0,2025-01-29 15:13:45,0.0
39.600000000000364,512.0,3277.6,-386.1,102.5,-919.0,2025-01-29 15:13:45,0.0
583.6000000000004,512.0,3377.6,-654.1,463.5,-1064.0,2025-01-29 15:13:45,0.0
787.6000000000004,732.0,3353.6,-845.1,1404.5,-1136.0,2025-01-29 15:13:45,0.0
903.6000000000004,296.0,3025.6,-1151.1,2510.5,-1271.0,2025-01-29 15:13:45,0.0
695.6000000000004,-72.0,3337.6,-1121.1,3140.5,-1485.0,2025-01-29 15:13:45,0.0
295.60000000000036,-672.0,3265.6,-1082.1,3797.5,-1506.0,2025-01-29 15:13:45,0.0
-216.39999999999964,-1240.0,3133.6,-883.1,5044.5,-1320.0,2025-01-29 15:13:45,0.0
-720.3999999999996,-1376.0,3841.6,-364.1,6725.5,-831.0,2025-01-29 15:13:45,0.0
-452.39999999999964,-1504.0,3557.6,380.9,7016.5,-462.0,2025-01-29 15:13:45,0.0
-860.3999999999996,-1240.0,2845.6,787.9,6462.5,-333.0,2025-01-29 15:13:45,0.0
-1028.3999999999996,-972.0,2009.6,694.9,5029.5,-300.0,2025-01-29 15:13:45,0.0
-932.3999999999996,-652.0,1881.6,212.9,2626.5,-480.0,2025-01-29 15:13:45,0.0
-728.3999999999996,64.0,2917.6,-405.1,325.5,-781.0,2025-01-29 15:13:45,0.0
-640.3999999999996,392.0,3409.6,-987.1,-175.5,-994.0,2025-01-29 15:13:45,0.0
3.600000000000364,152.0,2837.6,-2096.1,133.5,-1074.0,2025-01-29 15:13:45,0.0
499.60000000000036,-168.0,2433.6,-2755.1,602.5,-1512.0,2025-01-29 15:13:45,0.0
211.60000000000036,-628.0,2885.6,-3073.1,1162.5,-1804.0,2025-01-29 15:13:45,0.0
263.60000000000036,-1108.0,3401.6,-3115.1,1458.5,-1885.0,2025-01-29 15:13:45,0.0
-52.399999999999636,-1596.0,3865.6,-2940.1,940.5,-1688.0,2025-01-29 15:13:45,0.0
247.60000000000036,-1964.0,4501.6,-2581.1,-29.5,-1312.0,2025-01-29 15:13:45,0.0
399.60000000000036,-1916.0,4625.6,-2144.1,-358.5,-886.0,2025-01-29 15:13:45,0.0
383.60000000000036,-1556.0,4341.6,-1750.1,25.5,-474.0,2025-01-29 15:13:45,0.0
559.6000000000004,-1000.0,3933.6,-1644.1,495.5,-200.0,2025-01-29 15:13:45,0.0
619.6000000000004,-572.0,3685.6,-1703.1,708.5,85.0,2025-01-29 15:13:45,0.0
783.6000000000004,-664.0,3681.6,-1655.1,674.5,331.0,2025-01-29 15:13:45,0.0
783.6000000000004,-1224.0,3713.6,-1748.1,651.5,490.0,2025-01-29 15:13:45,0.0
311.60000000000036,-1608.0,3457.6,-1835.1,850.5,444.0,2025-01-29 15:13:45,0.0
-304.39999999999964,-1348.0,3705.6,-1828.1,1005.5,497.0,2025-01-29 15:13:45,0.0
-580.3999999999996,-212.0,4125.6,-1877.1,970.5,754.0,2025-01-29 15:13:45,0.0
-296.39999999999964,184.0,4041.6,-2299.1,612.5,967.0,2025-01-29 15:13:45,0.0
-56.399999999999636,280.0,3769.6,-2818.1,-84.5,1284.0,2025-01-29 15:13:45,0.0
679.6000000000004,308.0,3369.6,-3255.1,-413.5,1491.0,2025-01-29 15:13:45,0.0
1471.6000000000004,-20.0,2953.6,-3926.1,402.5,1313.0,2025-01-29 15:13:45,0.0
1023.6000000000004,-532.0,3345.6,-4994.1,2302.5,585.0,2025-01-29 15:13:45,0.0
-32.399999999999636,-1372.0,4213.6,-5438.1,3076.5,-123.0,2025-01-29 15:13:45,0.0
-1272.3999999999996,-2048.0,4781.6,-5702.1,2576.5,-673.0,2025-01-29 15:13:45,0.0
-1752.3999999999996,-2540.0,4513.6,-5901.1,1601.5,-1207.0,2025-01-29 15:13:45,0.0
-2228.3999999999996,-2988.0,2317.6,-5788.1,1174.5,-2263.0,2025-01-29 15:13:45,0.0
-2464.3999999999996,-3404.0,1289.6,-5780.1,571.5,-3382.0,2025-01-29 15:13:45,0.0
-2164.3999999999996,-4028.0,2553.6,-5194.1,-946.5,-4839.0,2025-01-29 15:13:45,0.0
-2292.3999999999996,-4680.0,4053.6,-4071.1,-3001.5,-5470.0,2025-01-29 15:13:45,0.0
-2144.3999999999996,-5188.0,5317.6,-2617.1,-4877.5,-5297.0,2025-01-29 15:13:46,0.0
-2488.3999999999996,-5424.0,5789.6,-763.1,-5744.5,-4502.0,2025-01-29 15:13:46,0.0
-3376.3999999999996,-5052.0,4333.6,812.9,-4205.5,-3126.0,2025-01-29 15:13:46,0.0
-4016.3999999999996,-4156.0,2209.6,2046.9,-2145.5,-1320.0,2025-01-29 15:13:46,0.0
-3464.3999999999996,-2972.0,1377.6,3038.9,-1983.5,381.0,2025-01-29 15:13:46,0.0
-1948.3999999999996,-2308.0,1161.6,3315.9,-2498.5,1196.0,2025-01-29 15:13:46,0.0
-1748.3999999999996,-1956.0,589.5999999999999,3019.9,-2209.5,1472.0,2025-01-29 15:13:46,0.0
-1848.3999999999996,-2396.0,-22.40000000000009,3753.9,-2059.5,2346.0,2025-01-29 15:13:46,0.0
-1084.3999999999996,-1832.0,-1058.4,4455.9,-2622.5,3050.0,2025-01-29 15:13:46,0.0
-32.399999999999636,-564.0,-1946.4,4406.9,-3344.5,3409.0,2025-01-29 15:13:46,0.0
1051.6000000000004,1100.0,-2058.4,4055.9,-3783.5,3346.0,2025-01-29 15:13:46,0.0
1847.6000000000004,2260.0,-2174.4,3759.9,-3638.5,3203.0,2025-01-29 15:13:46,0.0
3079.6000000000004,2252.0,-2606.4,2876.9,-2089.5,2542.0,2025-01-29 15:13:46,0.0
2967.6000000000004,1700.0,-2150.4,1567.9,460.5,1751.0,2025-01-29 15:13:46,0.0
2247.6000000000004,536.0,-1354.4,767.9,3067.5,1454.0,2025-01-29 15:13:46,0.0
1011.6000000000004,-448.0,797.5999999999999,1086.9,4794.5,1552.0,2025-01-29 15:13:46,0.0
27.600000000000364,-600.0,1717.6,1641.9,5277.5,1947.0,2025-01-29 15:13:46,0.0
-924.3999999999996,-576.0,2057.6,2089.9,5040.5,2444.0,2025-01-29 15:13:46,0.0
-1468.3999999999996,0.0,2413.6,2412.9,3803.5,3039.0,2025-01-29 15:13:46,0.0
-1008.3999999999996,860.0,1845.6,2637.9,1853.5,3375.0,2025-01-29 15:13:46,0.0
243.60000000000036,2028.0,1673.6,2623.9,-666.5,3364.0,2025-01-29 15:13:46,0.0
1867.6000000000004,2220.0,1537.6,2056.9,-1236.5,2658.0,2025-01-29 15:13:46,0.0
2047.6000000000004,2072.0,1589.6,1078.9,135.5,1998.0,2025-01-29 15:13:46,0.0
1871.6000000000004,1652.0,1865.6,669.9,1898.5,1778.0,2025-01-29 15:13:46,0.0
1171.6000000000004,1376.0,2021.6,957.9,3126.5,1856.0,2025-01-29 15:13:46,0.0
235.60000000000036,1044.0,2217.6,1274.9,3707.5,2045.0,2025-01-29 15:13:46,0.0
-404.39999999999964,712.0,2413.6,1588.9,3330.5,2167.0,2025-01-29 15:13:46,
-272.39999999999964,108.0,2909.6,2047.9,1800.5,2129.0,2025-01-29 15:13:46,0.0
131.60000000000036,-388.0,3281.6,2644.9,-469.5,1801.0,2025-01-29 15:13:46,0.0
747.6000000000004,-232.0,3317.6,3153.9,-1997.5,1368.0,2025-01-29 15:13:46,0.0
1439.6000000000004,-56.0,3357.6,3598.9,-2655.5,790.0,2025-01-29 15:13:46,0.0
1931.6000000000004,-4.0,3317.6,4042.9,-2784.5,133.0,2025-01-29 15:13:46,0.0
1627.6000000000004,68.0,3341.6,4348.9,-2584.5,-436.0,2025-01-29 15:13:46,0.0
1323.6000000000004,360.0,2917.6,4595.9,-2544.5,-840.0,2025-01-29 15:13:46,0.0
1079.6000000000004,708.0,2709.6,4782.9,-2739.5,-936.0,2025-01-29 15:13:46,0.0
707.6000000000004,928.0,2893.6,5036.9,-2371.5,-825.0,2025-01-29 15:13:46,0.0
739.6000000000004,1404.0,3553.6,5173.9,-1834.5,-741.0,2025-01-29 15:13:46,0.0
451.60000000000036,1808.0,3405.6,5084.9,-1423.5,-723.0,2025-01-29 15:13:46,0.0
387.60000000000036,2008.0,2457.6,4830.9,-1409.5,-498.0,2025-01-29 15:13:46,0.0
459.60000000000036,2380.0,1653.6,4636.9,-1228.5,-146.0,2025-01-29 15:13:46,0.0
575.6000000000004,2172.0,1513.6,4194.9,238.5,334.0,2025-01-29 15:13:46,0.0
-192.39999999999964,1796.0,2065.6,3931.9,2541.5,759.0,2025-01-29 15:13:46,0.0
-1164.3999999999996,2036.0,2965.6,4047.9,4041.5,1006.0,2025-01-29 15:13:46,0.0
-2208.3999999999996,1440.0,4133.6,4385.9,4401.5,963.0,2025-01-29 15:13:46,0.0
-2820.3999999999996,652.0,5573.6,4627.9,3366.5,860.0,2025-01-29 15:13:46,0.0
-2984.3999999999996,780.0,5813.6,5180.9,687.5,757.0,2025-01-29 15:13:46,0.0
-3160.3999999999996,2744.0,3817.6,5537.9,-323.5,1141.0,2025-01-29 15:13:46,0.0
-2628.3999999999996,3856.0,1005.5999999999999,5809.9,504.5,1698.0,2025-01-29 15:13:46,0.0
-3828.3999999999996,3964.0,-634.4000000000001,5078.9,2710.5,2279.0,2025-01-29 15:13:46,0.0
-4748.4,3964.0,-1158.4,3524.9,5205.5,3104.0,2025-01-29 15:13:46,0.0
-4448.4,3748.0,-18.40000000000009,1575.9,5872.5,3777.0,2025-01-29 15:13:46,0.0
-4376.4,3564.0,-234.4000000000001,172.9,3156.5,3674.0,2025-01-29 15:13:46,0.0
-3328.3999999999996,2684.0,-950.4000000000001,-917.1,-2285.5,2938.0,2025-01-29 15:13:46,0.0
1115.6000000000004,640.0,-1402.4,-1590.1,-8331.5,183.0,2025-01-29 15:13:46,0.0
