acceleration_x,acceleration_y,acceleration_z,gyroscope_x,gyroscope_y,gyroscope_z,timestamp,label
-42.399999999999636,3.6000000000000227,-47.60000000000002,-55.900000000000006,31.900000000000006,-9.400000000000006,2025-01-29 15:14:53,0.0
57.600000000000364,23.600000000000023,120.39999999999998,-61.900000000000006,-16.099999999999994,0.5999999999999943,2025-01-29 15:14:53,0.0
-110.39999999999964,-4.399999999999977,-43.60000000000002,-8.900000000000006,-43.099999999999994,-4.400000000000006,2025-01-29 15:14:53,0.0
-18.399999999999636,35.60000000000002,24.399999999999977,7.099999999999994,-103.1,12.599999999999994,2025-01-29 15:14:53,0.0
-6.399999999999636,-40.39999999999998,16.399999999999977,2.0999999999999943,-84.1,3.5999999999999943,2025-01-29 15:14:53,0.0
165.60000000000036,31.600000000000023,72.39999999999998,12.099999999999994,-39.099999999999994,-4.400000000000006,2025-01-29 15:14:53,0.0
101.60000000000036,-24.399999999999977,16.399999999999977,25.099999999999994,93.9,-16.400000000000006,2025-01-29 15:14:53,0.0
-30.399999999999636,67.60000000000002,4.399999999999977,-1.9000000000000057,118.9,-7.400000000000006,2025-01-29 15:14:53,0.0
-134.39999999999964,-8.399999999999977,-99.60000000000002,30.099999999999994,29.900000000000006,-15.400000000000006,2025-01-29 15:14:53,0.0
17.600000000000364,-84.39999999999998,-63.60000000000002,52.099999999999994,10.900000000000006,40.599999999999994,2025-01-29 15:14:53,0.0
129.60000000000036,123.60000000000002,72.39999999999998,35.099999999999994,130.9,27.599999999999994,2025-01-29 15:14:53,0.0
21.600000000000364,-36.39999999999998,-307.6,-3.9000000000000057,-73.1,-19.400000000000006,2025-01-29 15:14:53,0.0
-66.39999999999964,-88.39999999999998,-215.60000000000002,16.099999999999994,-253.1,-23.400000000000006,2025-01-29 15:14:53,0.0
13.600000000000364,-92.39999999999998,-99.60000000000002,23.099999999999994,-163.1,-8.400000000000006,2025-01-29 15:14:53,0.0
73.60000000000036,135.60000000000002,-43.60000000000002,52.099999999999994,-84.1,1.5999999999999943,2025-01-29 15:14:53,0.0
29.600000000000364,103.60000000000002,36.39999999999998,-7.900000000000006,-25.099999999999994,13.599999999999994,2025-01-29 15:14:53,0.0
-42.399999999999636,135.60000000000002,180.39999999999998,-6.900000000000006,-8.099999999999994,20.599999999999994,2025-01-29 15:14:53,0.0
13.600000000000364,103.60000000000002,-135.60000000000002,-6.900000000000006,10.900000000000006,42.599999999999994,2025-01-29 15:14:53,0.0
-26.399999999999636,147.60000000000002,-111.60000000000002,-53.900000000000006,-15.099999999999994,58.599999999999994,2025-01-29 15:14:53,0.0
5.600000000000364,111.60000000000002,-235.60000000000002,-42.900000000000006,-34.099999999999994,5.599999999999994,2025-01-29 15:14:53,0.0
185.60000000000036,35.60000000000002,-55.60000000000002,-54.900000000000006,-26.099999999999994,20.599999999999994,2025-01-29 15:14:53,0.0
65.60000000000036,127.60000000000002,-187.60000000000002,-53.900000000000006,39.900000000000006,9.599999999999994,2025-01-29 15:14:53,0.0
101.60000000000036,191.60000000000002,-91.60000000000002,-86.9,132.9,-7.400000000000006,2025-01-29 15:14:53,0.0
-70.39999999999964,119.60000000000002,-95.60000000000002,-57.900000000000006,167.9,-4.400000000000006,2025-01-29 15:14:53,0.0
-18.399999999999636,127.60000000000002,-139.60000000000002,-84.9,119.9,-30.400000000000006,2025-01-29 15:14:53,0.0
-98.39999999999964,235.60000000000002,-155.60000000000002,-141.9,8.900000000000006,21.599999999999994,2025-01-29 15:14:53,0.0
-102.39999999999964,59.60000000000002,32.39999999999998,-141.9,-77.1,-17.400000000000006,2025-01-29 15:14:53,0.0
-26.399999999999636,31.600000000000023,-39.60000000000002,-113.9,-123.1,6.599999999999994,2025-01-29 15:14:53,0.0
25.600000000000364,75.60000000000002,-103.60000000000002,-96.9,-90.1,35.599999999999994,2025-01-29 15:14:53,0.0
145.60000000000036,15.600000000000023,32.39999999999998,-118.9,-64.1,21.599999999999994,2025-01-29 15:14:53,0.0
-66.39999999999964,143.60000000000002,128.39999999999998,-101.9,-44.099999999999994,4.599999999999994,2025-01-29 15:14:53,0.0
81.60000000000036,-60.39999999999998,-79.60000000000002,-104.9,-69.1,-32.400000000000006,2025-01-29 15:14:53,0.0
-42.399999999999636,3.6000000000000227,-175.60000000000002,-107.9,-33.099999999999994,14.599999999999994,2025-01-29 15:14:53,0.0
49.600000000000364,-120.39999999999998,-43.60000000000002,-45.900000000000006,47.900000000000006,-16.400000000000006,2025-01-29 15:14:53,0.0
77.60000000000036,-72.39999999999998,-35.60000000000002,-25.900000000000006,73.9,-42.400000000000006,2025-01-29 15:14:53,0.0
73.60000000000036,-148.39999999999998,60.39999999999998,56.099999999999994,111.9,-57.400000000000006,2025-01-29 15:14:53,0.0
1.6000000000003638,-176.39999999999998,-83.60000000000002,107.1,97.9,-96.4,2025-01-29 15:14:53,0.0
-42.399999999999636,-80.39999999999998,84.39999999999998,157.1,170.9,-79.4,2025-01-29 15:14:53,0.0
-18.399999999999636,-188.39999999999998,-135.60000000000002,224.1,269.9,-47.400000000000006,2025-01-29 15:14:53,0.0
-6.399999999999636,-140.39999999999998,28.399999999999977,241.1,263.9,-13.400000000000006,2025-01-29 15:14:53,0.0
33.600000000000364,23.600000000000023,-15.600000000000023,197.1,190.9,-5.400000000000006,2025-01-29 15:14:53,0.0
-22.399999999999636,99.60000000000002,4.399999999999977,225.1,308.9,-8.400000000000006,2025-01-29 15:14:53,0.0
-46.399999999999636,11.600000000000023,-107.60000000000002,180.1,-19.099999999999994,-17.400000000000006,2025-01-29 15:14:53,0.0
-102.39999999999964,39.60000000000002,-47.60000000000002,228.1,-224.1,26.599999999999994,2025-01-29 15:14:54,0.0
5.600000000000364,-60.39999999999998,-187.60000000000002,258.1,-125.1,22.599999999999994,2025-01-29 15:14:54,0.0
137.60000000000036,163.60000000000002,-171.60000000000002,183.1,-12.099999999999994,28.599999999999994,2025-01-29 15:14:54,0.0
-2.399999999999636,183.60000000000002,-187.60000000000002,128.1,8.900000000000006,26.599999999999994,2025-01-29 15:14:54,0.0
-34.399999999999636,315.6,-179.60000000000002,10.099999999999994,120.9,-9.400000000000006,2025-01-29 15:14:54,0.0
-10.399999999999636,251.60000000000002,-279.6,-83.9,224.9,-10.400000000000006,2025-01-29 15:14:54,0.0
101.60000000000036,251.60000000000002,-147.60000000000002,-141.9,156.9,-1.4000000000000057,2025-01-29 15:14:54,0.0
45.600000000000364,159.60000000000002,-83.60000000000002,-236.9,106.9,4.599999999999994,2025-01-29 15:14:54,0.0
41.600000000000364,191.60000000000002,-291.6,-288.9,61.900000000000006,3.5999999999999943,2025-01-29 15:14:54,0.0
61.600000000000364,139.60000000000002,-507.6,-340.9,83.9,2.5999999999999943,2025-01-29 15:14:54,0.0
-98.39999999999964,31.600000000000023,-447.6,-353.9,59.900000000000006,-14.400000000000006,2025-01-29 15:14:54,0.0
-198.39999999999964,123.60000000000002,-107.60000000000002,-364.9,-24.099999999999994,58.599999999999994,2025-01-29 15:14:54,0.0
-106.39999999999964,171.60000000000002,-227.60000000000002,-371.9,-70.1,55.599999999999994,2025-01-29 15:14:54,0.0
-134.39999999999964,55.60000000000002,-211.60000000000002,-363.9,-262.1,71.6,2025-01-29 15:14:54,0.0
-118.39999999999964,59.60000000000002,-231.60000000000002,-343.9,-464.1,119.6,2025-01-29 15:14:54,0.0
25.600000000000364,-52.39999999999998,-439.6,-269.9,-419.1,179.6,2025-01-29 15:14:54,0.0
129.60000000000036,15.600000000000023,-403.6,-196.9,-269.1,161.6,2025-01-29 15:14:54,0.0
93.60000000000036,35.60000000000002,-355.6,-130.9,-102.1,160.6,2025-01-29 15:14:54,0.0
-46.399999999999636,131.60000000000002,-463.6,-51.900000000000006,-53.099999999999994,215.6,2025-01-29 15:14:54,0.0
45.600000000000364,179.60000000000002,-499.6,2.0999999999999943,-165.1,174.6,2025-01-29 15:14:54,0.0
49.600000000000364,195.60000000000002,-363.6,5.099999999999994,-191.1,147.6,2025-01-29 15:14:54,0.0
129.60000000000036,335.6,-371.6,3.0999999999999943,-205.1,228.6,2025-01-29 15:14:54,0.0
217.60000000000036,443.6,-471.6,3.0999999999999943,-84.1,224.6,2025-01-29 15:14:54,0.0
373.60000000000036,583.6,-607.6,-4.900000000000006,251.9,257.6,2025-01-29 15:14:54,0.0
353.60000000000036,667.6,-539.6,-63.900000000000006,722.9,216.6,2025-01-29 15:14:54,0.0
325.60000000000036,547.6,-439.6,-70.9,1143.9,165.6,2025-01-29 15:14:54,0.0
189.60000000000036,643.6,-327.6,-56.900000000000006,1435.9,106.6,2025-01-29 15:14:54,0.0
-178.39999999999964,663.6,-331.6,1.0999999999999943,1540.9,145.6,2025-01-29 15:14:54,0.0
-326.39999999999964,879.6,-243.60000000000002,47.099999999999994,1380.9,153.6,2025-01-29 15:14:54,0.0
-598.3999999999996,811.6,116.39999999999998,-49.900000000000006,644.9,226.6,2025-01-29 15:14:54,0.0
-602.3999999999996,1003.6,256.4,-5.900000000000006,55.900000000000006,314.6,2025-01-29 15:14:54,0.0
-370.39999999999964,1071.6,112.39999999999998,-27.900000000000006,-509.1,388.6,2025-01-29 15:14:54,0.0
65.60000000000036,1163.6,56.39999999999998,-65.9,-863.1,321.6,2025-01-29 15:14:54,0.0
393.60000000000036,1255.6,112.39999999999998,-211.9,-864.1,131.6,2025-01-29 15:14:54,0.0
405.60000000000036,1187.6,68.39999999999998,-422.9,-589.1,-60.400000000000006,2025-01-29 15:14:54,0.0
293.60000000000036,1283.6,196.39999999999998,-464.9,-139.1,-222.4,2025-01-29 15:14:54,0.0
89.60000000000036,1147.6,524.4,-423.9,89.9,-350.4,2025-01-29 15:14:54,0.0
25.600000000000364,1115.6,892.4,-431.9,145.9,-604.4,2025-01-29 15:14:54,0.0
-30.399999999999636,875.6,588.4,-508.9,-240.1,-809.4,2025-01-29 15:14:54,0.0
-146.39999999999964,907.6,524.4,-548.9,-961.1,-905.4,2025-01-29 15:14:54,0.0
-46.399999999999636,955.6,320.4,-692.9,-1197.1,-903.4,2025-01-29 15:14:54,0.0
-70.39999999999964,1223.6,76.39999999999998,-815.9,-1011.1,-960.4,2025-01-29 15:14:54,0.0
-118.39999999999964,1303.6,-227.60000000000002,-1019.9,-702.1,-1103.4,2025-01-29 15:14:54,0.0
-414.39999999999964,1019.6,-527.6,-1248.9,-534.1,-1274.4,2025-01-29 15:14:54,0.0
-762.3999999999996,827.6,-427.6,-1364.9,-807.1,-1363.4,2025-01-29 15:14:54,0.0
-878.3999999999996,395.6,-435.6,-1373.9,-1323.1,-1413.4,2025-01-29 15:14:54,0.0
-830.3999999999996,-76.39999999999998,-367.6,-1285.9,-2038.1,-1457.4,2025-01-29 15:14:54,0.0
-570.3999999999996,-276.4,-311.6,-1078.9,-2817.1,-1466.4,2025-01-29 15:14:54,0.0
-2.399999999999636,-672.4,-19.600000000000023,-767.9,-3316.1,-1447.4,2025-01-29 15:14:54,0.0
645.6000000000004,-1140.4,16.399999999999977,-400.9,-3636.1,-1552.4,2025-01-29 15:14:54,0.0
1141.6000000000004,-1872.4,200.39999999999998,-3.9000000000000057,-3425.1,-1808.4,2025-01-29 15:14:54,0.0
1329.6000000000004,-2688.4,716.4,327.1,-2751.1,-2135.4,2025-01-29 15:14:54,0.0
1065.6000000000004,-3136.4,1828.4,979.1,-1360.1,-2233.4,2025-01-29 15:14:54,0.0
589.6000000000004,-2644.4,2428.4,1733.1,106.9,-1780.4,2025-01-29 15:14:54,0.0
441.60000000000036,-2068.4,2588.4,2239.1,1556.9,-1233.4,2025-01-29 15:14:54,0.0
769.6000000000004,-1092.4,2716.4,2168.1,2276.9,-1132.4,2025-01-29 15:14:54,0.0
65.60000000000036,87.60000000000002,2448.4,1242.1,2131.9,-1413.4,2025-01-29 15:14:54,
-650.3999999999996,1467.6,2372.4,94.1,1510.9,-1529.4,2025-01-29 15:14:54,0.0
-1074.3999999999996,1815.6,1796.4,-1022.9,598.9,-1711.4,2025-01-29 15:14:54,0.0
-626.3999999999996,1491.6,1228.4,-2320.9,-140.1,-1851.4,2025-01-29 15:14:54,0.0
333.60000000000036,-156.39999999999998,1168.4,-3683.9,-270.1,-2594.4,2025-01-29 15:14:54,0.0
309.60000000000036,-1992.4,2068.4,-4073.9,-293.1,-3125.4,2025-01-29 15:14:54,0.0
49.600000000000364,-2668.4,2680.4,-3685.9,-461.1,-2885.4,2025-01-29 15:14:54,0.0
-166.39999999999964,-2692.4,3004.4,-3098.9,-687.1,-2368.4,2025-01-29 15:14:54,0.0
1.6000000000003638,-1972.4,3276.4,-2857.9,-937.1,-1974.4,2025-01-29 15:14:55,0.0
53.600000000000364,-1596.4,3472.4,-2823.9,-1583.1,-1859.4,2025-01-29 15:14:55,0.0
-314.39999999999964,-1456.4,4092.4,-2750.9,-2850.1,-1568.4,2025-01-29 15:14:55,0.0
401.60000000000036,-1776.4,3732.4,-2378.9,-4137.1,-950.4,2025-01-29 15:14:55,0.0
1009.6000000000004,-1892.4,3456.4,-2225.9,-4262.1,-513.4,2025-01-29 15:14:55,0.0
917.6000000000004,-1888.4,3152.4,-2061.9,-2941.1,-117.4,2025-01-29 15:14:55,0.0
1065.6000000000004,-2024.4,2792.4,-1827.9,-1138.1,482.6,2025-01-29 15:14:55,0.0
1225.6000000000004,-1976.4,2736.4,-1648.9,151.9,830.6,2025-01-29 15:14:55,0.0
777.6000000000004,-1684.4,2792.4,-1396.9,991.9,1143.6,2025-01-29 15:14:55,0.0
385.60000000000036,-1764.4,2700.4,-1212.9,1409.9,1428.6,2025-01-29 15:14:55,0.0
401.60000000000036,-2224.4,2640.4,-1276.9,1799.9,1415.6,2025-01-29 15:14:55,0.0
169.60000000000036,-2472.4,2696.4,-1740.9,1662.9,816.6,2025-01-29 15:14:55,0.0
-502.39999999999964,-1796.4,3512.4,-2199.9,799.9,158.6,2025-01-29 15:14:55,0.0
-1382.3999999999996,-852.4,3852.4,-2274.9,-553.1,154.6,2025-01-29 15:14:55,0.0
-954.3999999999996,-272.4,3016.4,-2237.9,-1820.1,674.6,2025-01-29 15:14:55,0.0
173.60000000000036,187.60000000000002,2152.4,-2650.9,-2137.1,967.6,2025-01-29 15:14:55,0.0
893.6000000000004,-276.4,2144.4,-3762.9,-859.1,756.6,2025-01-29 15:14:55,0.0
1037.6000000000004,-1372.4,2964.4,-4726.9,1270.9,296.6,2025-01-29 15:14:55,0.0
561.6000000000004,-2460.4,3328.4,-5359.9,2249.9,-211.4,2025-01-29 15:14:55,0.0
-222.39999999999964,-2572.4,3648.4,-6018.9,2477.9,-784.4,2025-01-29 15:14:55,0.0
-1434.3999999999996,-2380.4,4156.4,-6178.9,2315.9,-496.4,2025-01-29 15:14:55,0.0
-1330.3999999999996,-3584.4,1476.4,-5684.9,3140.9,-478.4,2025-01-29 15:14:55,0.0
-2070.3999999999996,-4216.4,-503.6,-5908.9,4408.9,-1425.4,2025-01-29 15:14:55,0.0
-2858.3999999999996,-4924.4,2172.4,-5379.9,5273.9,-2484.4,2025-01-29 15:14:55,0.0
-3846.3999999999996,-5768.4,3140.4,-3605.9,4709.9,-2982.4,2025-01-29 15:14:55,0.0
-5550.4,-6280.4,2460.4,-1868.9,2039.9,-1903.4,2025-01-29 15:14:55,0.0
-5778.4,-5364.4,1532.4,-503.9,-1205.1,-294.4,2025-01-29 15:14:55,0.0
-4290.4,-3288.4,980.4,625.1,-3697.1,158.6,2025-01-29 15:14:55,0.0
-3998.3999999999996,-1724.4,320.4,1049.1,-4962.1,512.6,2025-01-29 15:14:55,0.0
-3746.3999999999996,-540.4,144.39999999999998,1275.1,-6150.1,2287.6,2025-01-29 15:14:55,0.0
-1522.3999999999996,-704.4,-967.6,1290.1,-7227.1,5187.6,2025-01-29 15:14:55,0.0
1005.6000000000004,-1092.4,-2111.6,1243.1,-6697.1,6386.6,2025-01-29 15:14:55,0.0
3053.6000000000004,-1024.4,-3259.6,934.1,-4057.1,5948.6,2025-01-29 15:14:55,0.0
4313.6,-716.4,-3967.6,158.1,-1246.1,4459.6,2025-01-29 15:14:55,0.0
4361.6,639.6,-2883.6,-408.9,130.9,2860.6,2025-01-29 15:14:55,0.0
3589.6000000000004,2259.6,-1655.6,-489.9,759.9,1469.6,2025-01-29 15:14:55,0.0
1117.6000000000004,2763.6,-979.6,-51.900000000000006,1393.9,746.6,2025-01-29 15:14:55,0.0
-250.39999999999964,1675.6,-499.6,368.1,1936.9,1440.6,2025-01-29 15:14:55,0.0
-354.39999999999964,215.60000000000002,-463.6,380.1,2528.9,1983.6,2025-01-29 15:14:55,0.0
-850.3999999999996,-672.4,1012.4,617.1,2704.9,2417.6,2025-01-29 15:14:55,0.0
-830.3999999999996,-872.4,1232.4,1331.1,2201.9,2581.6,2025-01-29 15:14:55,0.0
-778.3999999999996,-488.4,1108.4,2145.1,1086.9,2718.6,2025-01-29 15:14:55,0.0
-186.39999999999964,79.60000000000002,892.4,2877.1,-415.1,2644.6,2025-01-29 15:14:55,0.0
-150.39999999999964,991.6,556.4,3266.1,-1771.1,2652.6,2025-01-29 15:14:55,0.0
553.6000000000004,1891.6,568.4,3206.1,-1807.1,2879.6,2025-01-29 15:14:55,0.0
1689.6000000000004,1839.6,828.4,3042.1,-879.1,2595.6,2025-01-29 15:14:55,0.0
2073.6000000000004,1771.6,836.4,2855.1,283.9,1959.6,2025-01-29 15:14:55,0.0
1705.6000000000004,1727.6,548.4,2738.1,1180.9,1734.6,2025-01-29 15:14:55,0.0
1565.6000000000004,1727.6,872.4,2750.1,1471.9,1720.6,2025-01-29 15:14:55,0.0
1157.6000000000004,1799.6,936.4,2673.1,1499.9,1766.6,2025-01-29 15:14:55,0.0
901.6000000000004,1755.6,948.4,2686.1,1190.9,1825.6,2025-01-29 15:14:55,0.0
565.6000000000004,1547.6,1188.4,2720.1,534.9,1809.6,2025-01-29 15:14:55,0.0
413.60000000000036,1275.6,1644.4,2758.1,-300.1,1620.6,2025-01-29 15:14:55,0.0
653.6000000000004,1387.6,2012.4,2540.1,-1445.1,1210.6,2025-01-29 15:14:55,0.0
1129.6000000000004,1331.6,2520.4,2482.1,-2325.1,684.6,2025-01-29 15:14:55,0.0
1505.6000000000004,1507.6,2504.4,2618.1,-2825.1,257.6,2025-01-29 15:14:55,0.0
1737.6000000000004,1443.6,2780.4,2965.1,-2633.1,-20.400000000000006,2025-01-29 15:14:55,0.0
1325.6000000000004,887.6,3456.4,3348.1,-1914.1,-156.4,2025-01-29 15:14:55,0.0
737.6000000000004,375.6,3644.4,3676.1,-1612.1,-429.4,2025-01-29 15:14:55,0.0
37.600000000000364,591.6,3804.4,3983.1,-1788.1,-674.4,2025-01-29 15:14:55,0.0
-526.3999999999996,1527.6,4020.4,4419.1,-2291.1,-612.4,2025-01-29 15:14:55,0.0
-782.3999999999996,2623.6,3104.4,4951.1,-3496.1,-102.4,2025-01-29 15:14:56,0.0
-170.39999999999964,3059.6,900.4,4844.1,-4254.1,274.6,2025-01-29 15:14:56,0.0
485.60000000000036,2567.6,-259.6,3988.1,-3737.1,486.6,2025-01-29 15:14:56,0.0
1157.6000000000004,2171.6,796.4,3530.1,-1791.1,599.6,2025-01-29 15:14:56,0.0
921.6000000000004,1555.6,2532.4,3924.1,1434.9,745.6,2025-01-29 15:14:56,0.0
-382.39999999999964,1271.6,4332.4,4879.1,3335.9,874.6,2025-01-29 15:14:56,0.0
-3018.3999999999996,1267.6,3936.4,6298.1,5368.9,1091.6,2025-01-29 15:14:56,0.0
-5282.4,787.6,1704.4,6781.1,7576.9,1612.6,2025-01-29 15:14:56,0.0
-5486.4,2743.6,784.4,6186.1,7549.9,2409.6,2025-01-29 15:14:56,0.0
-4710.4,5527.6,-1951.6,4472.1,4687.9,3194.6,2025-01-29 15:14:56,0.0
-4486.4,7251.6,-3515.6,2003.1,2292.9,3205.6,2025-01-29 15:14:56,0.0
-4190.4,7191.6,-3199.6,-114.9,1294.9,2489.6,2025-01-29 15:14:56,0.0
-2558.3999999999996,5787.6,-2359.6,-2225.9,-289.1,1309.6,2025-01-29 15:14:56,0.0
-126.39999999999964,3967.6,-1579.6,-3452.9,-3456.1,-206.4,2025-01-29 15:14:56,0.0
1557.6000000000004,1431.6,-2019.6,-4039.9,-8089.1,-1854.4,2025-01-29 15:14:56,0.0
2833.6000000000004,-1176.4,-1939.6,-4097.9,-12272.1,-3177.4,2025-01-29 15:14:56,0.0
2533.6000000000004,-3564.4,-2087.6,-3870.9,-13672.1,-3719.4,2025-01-29 15:14:56,0.0
1885.6000000000004,-4948.4,-1191.6,-3098.9,-9400.1,-2815.4,2025-01-29 15:14:56,0.0
1709.6000000000004,-3956.4,292.4,-600.9,-500.1,-1249.4,2025-01-29 15:14:56,0.0
1881.6000000000004,-2220.4,-495.6,2132.1,5904.9,-481.4,2025-01-29 15:14:56,0.0
2121.6000000000004,-236.39999999999998,-659.6,2681.1,9130.9,-589.4,2025-01-29 15:14:56,0.0
1613.6000000000004,1223.6,468.4,2287.1,10555.9,-1519.4,2025-01-29 15:14:56,0.0
-238.39999999999964,1651.6,624.4,1131.1,10875.9,-2467.4,2025-01-29 15:14:56,0.0
-1990.3999999999996,1003.6,252.39999999999998,114.1,9271.9,-3019.4,2025-01-29 15:14:56,0.0
-2894.3999999999996,-200.39999999999998,-211.60000000000002,-626.9,4883.9,-3192.4,2025-01-29 15:14:56,0.0
-2550.3999999999996,-1380.4,212.39999999999998,-602.9,-1674.1,-2672.4,2025-01-29 15:14:56,0.0
-1458.3999999999996,-1792.4,840.4,-241.9,-7049.1,-1850.4,2025-01-29 15:14:56,0.0
569.6000000000004,-1612.4,756.4,-339.9,-9405.1,-1433.4,2025-01-29 15:14:56,0.0
1829.6000000000004,-1148.4,640.4,-534.9,-9542.1,-1682.4,2025-01-29 15:14:56,0.0
3145.6000000000004,-528.4,-91.60000000000002,-698.9,-7433.1,-2006.4,2025-01-29 15:14:56,0.0
3309.6000000000004,143.60000000000002,-223.60000000000002,-899.9,-3323.1,-2279.4,2025-01-29 15:14:56,0.0
3025.6000000000004,-164.39999999999998,60.39999999999998,-1185.9,997.9,-2285.4,2025-01-29 15:14:56,
2433.6000000000004,-764.4,644.4,-1224.9,3750.9,-2014.4,2025-01-29 15:14:56,0.0
1553.6000000000004,-960.4,844.4,-1229.9,4452.9,-1722.4,2025-01-29 15:14:56,0.0
617.6000000000004,-1216.4,1184.4,-1304.9,4462.9,-1345.4,2025-01-29 15:14:56,0.0
-382.39999999999964,-960.4,1968.4,-1368.9,3754.9,-907.4,2025-01-29 15:14:56,0.0
-1050.3999999999996,-684.4,2068.4,-1164.9,1982.9,38.599999999999994,2025-01-29 15:14:56,0.0
-1010.3999999999996,-512.4,2044.4,-869.9,-87.1,1139.6,2025-01-29 15:14:56,0.0
-210.39999999999964,-252.39999999999998,2040.4,-836.9,-1935.1,2117.6,2025-01-29 15:14:56,0.0
437.60000000000036,-224.39999999999998,1952.4,-909.9,-2903.1,2703.6,2025-01-29 15:14:56,0.0
1089.6000000000004,-324.4,1768.4,-932.9,-3229.1,3141.6,2025-01-29 15:14:56,0.0
1705.6000000000004,-440.4,2004.4,-1001.9,-3152.1,3404.6,2025-01-29 15:14:56,0.0
1953.6000000000004,-608.4,2136.4,-1140.9,-2509.1,3518.6,2025-01-29 15:14:56,0.0
1985.6000000000004,-852.4,2156.4,-1303.9,-1578.1,3414.6,2025-01-29 15:14:56,0.0
1441.6000000000004,-668.4,1996.4,-1469.9,-441.1,3347.6,2025-01-29 15:14:56,0.0
1105.6000000000004,-416.4,1368.4,-1597.9,632.9,3223.6,2025-01-29 15:14:56,0.0
605.6000000000004,759.6,1128.4,-2216.9,1804.9,2794.6,2025-01-29 15:14:56,0.0
881.6000000000004,2079.6,916.4,-3337.9,2888.9,1727.6,2025-01-29 15:14:56,0.0
-58.399999999999636,1983.6,1072.4,-4731.9,3626.9,110.6,2025-01-29 15:14:56,0.0
-1934.3999999999996,363.6,2176.4,-5609.9,3389.9,-1095.4,2025-01-29 15:14:56,0.0
-3050.3999999999996,-932.4,3256.4,-5837.9,2173.9,-1300.4,2025-01-29 15:14:56,0.0
-3282.3999999999996,-948.4,4124.4,-5964.9,694.9,-1104.4,2025-01-29 15:14:56,0.0
-3046.3999999999996,-500.4,4380.4,-6066.9,-537.1,-794.4,2025-01-29 15:14:56,0.0
-2730.3999999999996,-432.4,2716.4,-5909.9,-383.1,-606.4,2025-01-29 15:14:56,0.0
-2622.3999999999996,-600.4,280.4,-5995.9,1083.9,-1318.4,2025-01-29 15:14:56,0.0
-2534.3999999999996,-2872.4,1028.4,-6390.9,1828.9,-2764.4,2025-01-29 15:14:56,0.0
-2834.3999999999996,-5220.4,2040.4,-5229.9,2022.9,-4133.4,2025-01-29 15:14:56,0.0
-4010.3999999999996,-6208.4,2696.4,-2675.9,1120.9,-4083.4,2025-01-29 15:14:56,0.0
-4882.4,-5120.4,3116.4,1048.1,-873.1,-2231.4,2025-01-29 15:14:56,0.0
-3970.3999999999996,-1348.4,1256.4,2848.1,-2816.1,-749.4,2025-01-29 15:14:56,0.0
-3006.3999999999996,1855.6,-887.6,2493.1,-4713.1,287.6,2025-01-29 15:14:57,0.0
-1978.3999999999996,3419.6,-2363.6,1772.1,-6502.1,1821.6,2025-01-29 15:14:57,0.0
741.6000000000004,2731.6,-3287.6,1159.1,-7493.1,3309.6,2025-01-29 15:14:57,0.0
3437.6000000000004,1995.6,-3991.6,376.1,-6563.1,3045.6,2025-01-29 15:14:57,0.0
4805.6,2235.6,-4391.6,-1231.9,-3280.1,1637.6,2025-01-29 15:14:57,0.0
4233.6,2739.6,-4507.6,-2673.9,1959.9,-58.400000000000006,2025-01-29 15:14:57,0.0
1873.6000000000004,3199.6,-3983.6,-3396.9,6384.9,-846.4,2025-01-29 15:14:57,0.0
577.6000000000004,3495.6,-2727.6,-3193.9,7815.9,-871.4,2025-01-29 15:14:57,0.0
-1518.3999999999996,3227.6,-2091.6,-3037.9,7642.9,-406.4,2025-01-29 15:14:57,0.0
-1798.3999999999996,2195.6,-2251.6,-3293.9,5698.9,304.6,2025-01-29 15:14:57,0.0
-2262.3999999999996,1259.6,-759.6,-3192.9,3189.9,1207.6,2025-01-29 15:14:57,0.0
-1950.3999999999996,411.6,-147.60000000000002,-2716.9,925.9,1923.6,2025-01-29 15:14:57,0.0
-1570.3999999999996,263.6,-359.6,-2282.9,-320.1,2355.6,2025-01-29 15:14:57,0.0
-794.3999999999996,419.6,200.39999999999998,-1427.9,-1070.1,2743.6,2025-01-29 15:14:57,0.0
665.6000000000004,399.6,76.39999999999998,-605.9,-1664.1,2691.6,2025-01-29 15:14:57,0.0
1929.6000000000004,795.6,-623.6,80.1,-2093.1,2505.6,2025-01-29 15:14:57,0.0
2505.6000000000004,1459.6,-983.6,493.1,-1808.1,2229.6,2025-01-29 15:14:57,0.0
2317.6000000000004,1991.6,-851.6,569.1,-546.1,1904.6,2025-01-29 15:14:57,0.0
2457.6000000000004,2711.6,-1075.6,474.1,1850.9,1532.6,2025-01-29 15:14:57,0.0
2093.6000000000004,2811.6,-1467.6,237.1,3992.9,1338.6,2025-01-29 15:14:57,0.0
1405.6000000000004,2983.6,-1175.6,25.099999999999994,4880.9,1135.6,2025-01-29 15:14:57,0.0
1237.6000000000004,2875.6,-1131.6,-198.9,4866.9,913.6,2025-01-29 15:14:57,0.0
609.6000000000004,2939.6,-739.6,-182.9,4522.9,786.6,2025-01-29 15:14:57,0.0
-54.399999999999636,2735.6,-927.6,94.1,4291.9,1083.6,2025-01-29 15:14:57,0.0
-370.39999999999964,2283.6,-1243.6,519.1,4084.9,1344.6,2025-01-29 15:14:57,0.0
-598.3999999999996,1655.6,-935.6,846.1,3612.9,1521.6,2025-01-29 15:14:57,0.0
-682.3999999999996,1067.6,-431.6,1181.1,2977.9,1591.6,2025-01-29 15:14:57,0.0
-302.39999999999964,1023.6,-147.60000000000002,1509.1,2151.9,1483.6,2025-01-29 15:14:57,0.0
389.60000000000036,1267.6,-43.60000000000002,1835.1,928.9,1137.6,2025-01-29 15:14:57,0.0
945.6000000000004,1571.6,-947.6,2114.1,-677.1,808.6,2025-01-29 15:14:57,0.0
1653.6000000000004,1879.6,-1519.6,2327.1,-1792.1,349.6,2025-01-29 15:14:57,0.0
2725.6000000000004,2139.6,-1959.6,2594.1,-2151.1,-324.4,2025-01-29 15:14:57,0.0
3113.6000000000004,2159.6,-1843.6,2901.1,-1200.1,-946.4,2025-01-29 15:14:57,0.0
3305.6000000000004,1971.6,-2091.6,3042.1,415.9,-1433.4,2025-01-29 15:14:57,0.0
3105.6000000000004,1743.6,-2219.6,3170.1,1597.9,-2015.4,2025-01-29 15:14:57,0.0
2237.6000000000004,1423.6,-1999.6,3170.1,1799.9,-2514.4,2025-01-29 15:14:57,0.0
1777.6000000000004,1023.6,-2091.6,3402.1,868.9,-2701.4,2025-01-29 15:14:57,0.0
1793.6000000000004,955.6,-2679.6,3540.1,-530.1,-2498.4,2025-01-29 15:14:57,0.0
2533.6000000000004,747.6,-3059.6,3287.1,-2110.1,-2001.4,2025-01-29 15:14:57,0.0
3549.6000000000004,1127.6,-2891.6,3020.1,-2894.1,-1613.4,2025-01-29 15:14:57,0.0
4301.6,1371.6,-3079.6,2867.1,-3237.1,-1139.4,2025-01-29 15:14:57,0.0
4953.6,1743.6,-3567.6,2335.1,-3192.1,-598.4,2025-01-29 15:14:57,0.0
5865.6,2363.6,-3947.6,1031.1,-3202.1,-450.4,2025-01-29 15:14:57,0.0
6241.6,3187.6,-3767.6,-545.9,-3966.1,-429.4,2025-01-29 15:14:57,0.0
6229.6,3143.6,-2655.6,-2211.9,-4015.1,-283.4,2025-01-29 15:14:57,0.0
5549.6,1967.6,1312.4,-3817.9,60.900000000000006,-504.4,2025-01-29 15:14:57,0.0
61.600000000000364,351.6,9492.4,-3576.9,5982.9,-867.4,2025-01-29 15:14:57,0.0
105.60000000000036,-896.4,4968.4,-2128.9,6718.9,-691.4,2025-01-29 15:14:57,0.0
-1522.3999999999996,-932.4,3912.4,-1237.9,3124.9,-462.4,2025-01-29 15:14:57,0.0
-998.3999999999996,-80.39999999999998,3140.4,-588.9,-762.1,-156.4,2025-01-29 15:14:57,0.0
1097.6000000000004,219.60000000000002,2980.4,294.1,-3135.1,614.6,2025-01-29 15:14:57,0.0
3789.6000000000004,-520.4,1556.4,497.1,-4778.1,580.6,2025-01-29 15:14:57,0.0
4009.6000000000004,-368.4,-127.60000000000002,-76.9,-5822.1,-141.4,2025-01-29 15:14:57,0.0
3293.6000000000004,331.6,-167.60000000000002,-701.9,-5312.1,-483.4,2025-01-29 15:14:57,0.0
2905.6000000000004,451.6,1112.4,-835.9,-4000.1,-847.4,2025-01-29 15:14:57,0.0
2505.6000000000004,527.6,1292.4,-991.9,-2546.1,-1246.4,2025-01-29 15:14:57,0.0
1753.6000000000004,419.6,1348.4,-1430.9,-2310.1,-1630.4,2025-01-29 15:14:57,0.0
-82.39999999999964,1267.6,1104.4,-1525.9,-3581.1,-1550.4,2025-01-29 15:14:57,0.0
-1138.3999999999996,2107.6,1444.4,-1632.9,-6728.1,-828.4,2025-01-29 15:14:57,0.0
-598.3999999999996,2055.6,2524.4,-1196.9,-7985.1,-78.4,2025-01-29 15:14:57,0.0
-442.39999999999964,659.6,2844.4,-1015.9,-10902.1,190.6,2025-01-29 15:14:57,0.0
569.6000000000004,-232.39999999999998,1524.4,-1165.9,-11394.1,219.6,2025-01-29 15:14:58,0.0
357.60000000000036,-684.4,704.4,-1299.9,-11916.1,497.6,2025-01-29 15:14:58,0.0
965.6000000000004,-680.4,948.4,-1269.9,-9437.1,62.599999999999994,2025-01-29 15:14:58,0.0
-770.3999999999996,-312.4,1684.4,-1202.9,-8047.1,-8.400000000000006,2025-01-29 15:14:58,0.0
-1254.3999999999996,159.60000000000002,2268.4,-1075.9,-6745.1,237.6,2025-01-29 15:14:58,0.0
-1906.3999999999996,11.600000000000023,3208.4,-811.9,-6489.1,464.6,2025-01-29 15:14:58,0.0
-2794.3999999999996,315.6,3948.4,-367.9,-7248.1,491.6,2025-01-29 15:14:58,0.0
-2418.3999999999996,-148.39999999999998,4980.4,-69.9,-8466.1,267.6,2025-01-29 15:14:58,0.0
-406.39999999999964,-404.4,4804.4,150.1,-9502.1,-185.4,2025-01-29 15:14:58,0.0
-2130.3999999999996,1075.6,5528.4,589.1,-11848.1,111.6,2025-01-29 15:14:58,0.0
-2358.3999999999996,1355.6,4508.4,400.1,-12100.1,695.6,2025-01-29 15:14:58,
-1138.3999999999996,803.6,5432.4,630.1,-11588.1,1059.6,2025-01-29 15:14:58,0.0
-402.39999999999964,-180.39999999999998,6032.4,823.1,-11715.1,852.6,2025-01-29 15:14:58,0.0
877.6000000000004,-8.399999999999977,6312.4,389.1,-11657.1,178.6,2025-01-29 15:14:58,0.0
1517.6000000000004,911.6,5868.4,-65.9,-9594.1,-239.4,2025-01-29 15:14:58,0.0
585.6000000000004,2151.6,7460.4,259.1,-10836.1,-169.4,2025-01-29 15:14:58,0.0
341.60000000000036,1611.6,7124.4,166.1,-10001.1,40.599999999999994,2025-01-29 15:14:58,0.0
305.60000000000036,295.6,8388.4,346.1,-9486.1,-186.4,2025-01-29 15:14:58,0.0
297.60000000000036,-564.4,8976.4,142.1,-9913.1,-668.4,2025-01-29 15:14:58,0.0
-26.399999999999636,223.60000000000002,9200.4,188.1,-10272.1,-877.4,2025-01-29 15:14:58,0.0
-134.39999999999964,1163.6,9484.4,217.1,-9797.1,-599.4,2025-01-29 15:14:58,0.0
-206.39999999999964,1251.6,10016.4,558.1,-9153.1,9.599999999999994,2025-01-29 15:14:58,0.0
-674.3999999999996,1135.6,10416.4,738.1,-8641.1,293.6,2025-01-29 15:14:58,0.0
-170.39999999999964,511.6,11088.4,728.1,-8763.1,389.6,2025-01-29 15:14:58,0.0
617.6000000000004,531.6,11676.4,232.1,-8856.1,-353.4,2025-01-29 15:14:58,0.0
1061.6000000000004,1235.6,11900.4,-537.9,-9458.1,-1084.4,2025-01-29 15:14:58,0.0
1213.6000000000004,1431.6,10120.4,-714.9,-7427.1,-1297.4,2025-01-29 15:14:58,0.0
49.600000000000364,1187.6,10488.4,-835.9,-5076.1,-1295.4,2025-01-29 15:14:58,0.0
-1474.3999999999996,599.6,12944.4,-807.9,-3765.1,-659.4,2025-01-29 15:14:58,0.0
-1762.3999999999996,-76.39999999999998,14976.4,-704.9,-5497.1,-231.4,2025-01-29 15:14:58,0.0
-626.3999999999996,615.6,14640.4,-770.9,-8351.1,-186.4,2025-01-29 15:14:58,0.0
193.60000000000036,1319.6,13052.4,-1164.9,-8943.1,136.6,2025-01-29 15:14:58,0.0
1185.6000000000004,1439.6,12700.4,-1472.9,-7903.1,183.6,2025-01-29 15:14:58,0.0
1161.6000000000004,1059.6,13292.4,-1495.9,-6567.1,212.6,2025-01-29 15:14:58,0.0
929.6000000000004,783.6,14224.4,-1260.9,-6837.1,228.6,2025-01-29 15:14:58,0.0
1057.6000000000004,651.6,14620.4,-833.9,-8140.1,380.6,2025-01-29 15:14:58,0.0
829.6000000000004,-8.399999999999977,14816.4,-255.9,-10068.1,719.6,2025-01-29 15:14:58,0.0
2137.6000000000004,-204.39999999999998,14048.4,358.1,-12658.1,1165.6,2025-01-29 15:14:58,0.0
3737.6000000000004,-188.39999999999998,13540.4,395.1,-13927.1,959.6,2025-01-29 15:14:58,0.0
4473.6,459.6,13104.4,271.1,-12849.1,469.6,2025-01-29 15:14:58,0.0
5281.6,819.6,12920.4,265.1,-10223.1,231.6,2025-01-29 15:14:58,0.0
4505.6,799.6,14220.4,409.1,-7091.1,260.6,2025-01-29 15:14:58,0.0
4245.6,3.6000000000000227,14336.4,667.1,-4247.1,194.6,2025-01-29 15:14:58,0.0
3601.6000000000004,-236.39999999999998,15172.4,913.1,-2412.1,132.6,2025-01-29 15:14:58,0.0
3253.6000000000004,-92.39999999999998,15888.4,862.1,-2041.1,-41.400000000000006,2025-01-29 15:14:58,0.0
2693.6000000000004,231.60000000000002,16188.4,509.1,-2284.1,-165.4,2025-01-29 15:14:58,0.0
3005.6000000000004,519.6,15916.4,93.1,-2505.1,-208.4,2025-01-29 15:14:58,0.0
3605.6000000000004,579.6,16216.4,-275.9,-2426.1,-169.4,2025-01-29 15:14:58,0.0
4481.6,399.6,15920.4,-530.9,-2122.1,-145.4,2025-01-29 15:14:58,0.0
4789.6,443.6,15292.4,-763.9,-1250.1,-143.4,2025-01-29 15:14:58,0.0
5333.6,495.6,15096.4,-879.9,259.9,-118.4,2025-01-29 15:14:58,0.0
5481.6,591.6,15200.4,-981.9,1428.9,-101.4,2025-01-29 15:14:58,0.0
5645.6,579.6,15516.4,-1043.9,1900.9,-17.400000000000006,2025-01-29 15:14:58,0.0
5697.6,759.6,15464.4,-771.9,1857.9,198.6,2025-01-29 15:14:58,0.0
5557.6,651.6,15488.4,-432.9,1351.9,459.6,2025-01-29 15:14:58,0.0
5601.6,587.6,15216.4,-182.9,674.9,519.6,2025-01-29 15:14:58,0.0
5657.6,507.6,14828.4,-114.9,-9.099999999999994,546.6,2025-01-29 15:14:58,0.0
5949.6,539.6,14572.4,-26.900000000000006,-444.1,436.6,2025-01-29 15:14:58,0.0
6365.6,547.6,14068.4,93.1,-482.1,287.6,2025-01-29 15:14:58,0.0
6445.6,439.6,14000.4,137.1,-319.1,166.6,2025-01-29 15:14:59,0.0
6273.6,663.6,14100.4,82.1,-110.1,56.599999999999994,2025-01-29 15:14:59,0.0
5777.6,787.6,14248.4,42.099999999999994,-118.1,65.6,2025-01-29 15:14:59,0.0
5501.6,831.6,14548.4,-206.9,-410.1,71.6,2025-01-29 15:14:59,0.0
5341.6,539.6,14804.4,-372.9,-460.1,50.599999999999994,2025-01-29 15:14:59,0.0
5061.6,563.6,14788.4,-436.9,-638.1,86.6,2025-01-29 15:14:59,0.0
5045.6,251.60000000000002,15084.4,-334.9,-829.1,149.6,2025-01-29 15:14:59,0.0
5441.6,151.60000000000002,15172.4,-215.9,-937.1,173.6,2025-01-29 15:14:59,0.0
5645.6,159.60000000000002,15464.4,-107.9,-927.1,89.6,2025-01-29 15:14:59,0.0
5573.6,423.6,15536.4,-133.9,-759.1,70.6,2025-01-29 15:14:59,0.0
5141.6,579.6,15340.4,-175.9,-387.1,63.599999999999994,2025-01-29 15:14:59,0.0
4461.6,1167.6,15340.4,-333.9,-83.1,195.6,2025-01-29 15:14:59,0.0
4593.6,1135.6,16168.4,40.099999999999994,231.9,692.6,2025-01-29 15:14:59,0.0
5169.6,875.6,16128.4,230.1,-57.099999999999994,1040.6,2025-01-29 15:14:59,0.0
6017.6,543.6,15492.4,253.1,-48.099999999999994,1059.6,2025-01-29 15:14:59,0.0
6413.6,383.6,14992.4,83.1,41.900000000000006,806.6,2025-01-29 15:14:59,0.0
6393.6,243.60000000000002,15436.4,147.1,-8.099999999999994,522.6,2025-01-29 15:14:59,0.0
6141.6,255.60000000000002,15216.4,170.1,-316.1,227.6,2025-01-29 15:14:59,0.0
5885.6,375.6,15084.4,145.1,-854.1,-180.4,2025-01-29 15:14:59,0.0
5829.6,515.6,14860.4,-53.900000000000006,-1269.1,-427.4,2025-01-29 15:14:59,0.0
5717.6,807.6,14768.4,-447.9,-1482.1,-523.4,2025-01-29 15:14:59,0.0
5609.6,1019.6,14692.4,-685.9,-1356.1,-440.4,2025-01-29 15:14:59,0.0
5429.6,503.6,14808.4,-709.9,-1004.1,-362.4,2025-01-29 15:14:59,0.0
5281.6,-128.39999999999998,14900.4,-667.9,-568.1,-443.4,2025-01-29 15:14:59,0.0
5261.6,-124.39999999999998,15092.4,-635.9,-130.1,-509.4,2025-01-29 15:14:59,0.0
5133.6,379.6,14988.4,-536.9,-35.099999999999994,-431.4,2025-01-29 15:14:59,0.0
5261.6,615.6,15092.4,-428.9,-66.1,-296.4,2025-01-29 15:14:59,0.0
5265.6,567.6,15008.4,-391.9,-227.1,-176.4,2025-01-29 15:14:59,0.0
5177.6,455.6,15128.4,-303.9,-300.1,-43.400000000000006,2025-01-29 15:14:59,0.0
5661.6,-252.39999999999998,15360.4,-139.9,-326.1,-198.4,2025-01-29 15:14:59,0.0
5869.6,195.60000000000002,15104.4,-179.9,-249.1,-309.4,2025-01-29 15:14:59,0.0
5829.6,839.6,14952.4,-299.9,-67.1,-304.4,2025-01-29 15:14:59,0.0
5785.6,1087.6,14760.4,-314.9,68.9,-156.4,2025-01-29 15:14:59,0.0
5593.6,875.6,15148.4,-275.9,-4.099999999999994,-58.400000000000006,2025-01-29 15:14:59,0.0
5389.6,563.6,15204.4,-264.9,-195.1,32.599999999999994,2025-01-29 15:14:59,0.0
5485.6,443.6,15064.4,-221.9,-456.1,98.6,2025-01-29 15:14:59,0.0
5673.6,443.6,14984.4,-165.9,-500.1,124.6,2025-01-29 15:14:59,0.0
5937.6,447.6,15152.4,-92.9,-514.1,104.6,2025-01-29 15:14:59,0.0
6001.6,227.60000000000002,15144.4,55.099999999999994,-253.1,4.599999999999994,2025-01-29 15:14:59,0.0
5877.6,163.60000000000002,15260.4,102.1,198.9,-85.4,2025-01-29 15:14:59,0.0
5945.6,439.6,15252.4,172.1,509.9,-75.4,2025-01-29 15:14:59,0.0
5957.6,539.6,15488.4,157.1,733.9,-56.400000000000006,2025-01-29 15:14:59,0.0
5265.6,635.6,15592.4,187.1,675.9,-24.400000000000006,2025-01-29 15:14:59,0.0
5109.6,711.6,15568.4,157.1,34.900000000000006,50.599999999999994,2025-01-29 15:14:59,0.0
5465.6,659.6,15392.4,96.1,-569.1,113.6,2025-01-29 15:14:59,0.0
5601.6,599.6,15360.4,-26.900000000000006,-784.1,105.6,2025-01-29 15:14:59,0.0
5681.6,671.6,15196.4,-106.9,-680.1,99.6,2025-01-29 15:14:59,0.0
5809.6,639.6,15404.4,-174.9,-460.1,121.6,2025-01-29 15:14:59,0.0
5709.6,251.60000000000002,15432.4,-101.9,-331.1,95.6,2025-01-29 15:14:59,0.0
5833.6,-0.39999999999997726,15556.4,42.099999999999994,-344.1,-14.400000000000006,2025-01-29 15:14:59,0.0
5825.6,-24.399999999999977,15584.4,163.1,-331.1,-137.4,2025-01-29 15:14:59,0.0
5697.6,131.60000000000002,15376.4,221.1,-317.1,-249.4,2025-01-29 15:14:59,
5657.6,395.6,15136.4,197.1,-296.1,-261.4,2025-01-29 15:14:59,0.0
5737.6,723.6,15152.4,134.1,-135.1,-202.4,2025-01-29 15:14:59,0.0
5845.6,755.6,14848.4,-20.900000000000006,-28.099999999999994,-122.4,2025-01-29 15:14:59,0.0
5885.6,695.6,14868.4,-153.9,26.900000000000006,-48.400000000000006,2025-01-29 15:14:59,0.0
5837.6,455.6,15104.4,-199.9,-22.099999999999994,-20.400000000000006,2025-01-29 15:14:59,0.0
5845.6,95.60000000000002,15232.4,-143.9,-183.1,-45.400000000000006,2025-01-29 15:14:59,0.0
5753.6,-12.399999999999977,15332.4,-34.900000000000006,-330.1,-118.4,2025-01-29 15:14:59,0.0
5765.6,227.60000000000002,15368.4,43.099999999999994,-404.1,-175.4,2025-01-29 15:14:59,0.0
5977.6,611.6,15192.4,15.099999999999994,-457.1,-160.4,2025-01-29 15:14:59,0.0
5845.6,519.6,15184.4,-90.9,-371.1,-164.4,2025-01-29 15:14:59,0.0
5937.6,499.6,15360.4,-136.9,-291.1,-143.4,2025-01-29 15:15:00,0.0
5853.6,379.6,15432.4,-159.9,-307.1,-109.4,2025-01-29 15:15:00,0.0
5885.6,315.6,15440.4,-95.9,-277.1,-98.4,2025-01-29 15:15:00,0.0
5949.6,335.6,15564.4,-107.9,-274.1,-106.4,2025-01-29 15:15:00,0.0
5757.6,291.6,15536.4,-67.9,-117.1,-126.4,2025-01-29 15:15:00,0.0
5809.6,447.6,15472.4,-53.900000000000006,-16.099999999999994,-165.4,2025-01-29 15:15:00,0.0
5861.6,559.6,15416.4,-115.9,49.900000000000006,-97.4,2025-01-29 15:15:00,0.0
5929.6,563.6,15388.4,-144.9,73.9,-41.400000000000006,2025-01-29 15:15:00,0.0
6021.6,363.6,15492.4,-141.9,119.9,22.599999999999994,2025-01-29 15:15:00,0.0
6069.6,399.6,15396.4,-152.9,92.9,-1.4000000000000057,2025-01-29 15:15:00,0.0
6053.6,343.6,15524.4,-129.9,13.900000000000006,3.5999999999999943,2025-01-29 15:15:00,0.0
5953.6,363.6,15440.4,-88.9,-40.099999999999994,32.599999999999994,2025-01-29 15:15:00,0.0
5961.6,215.60000000000002,15492.4,-34.900000000000006,-135.1,40.599999999999994,2025-01-29 15:15:00,0.0
6001.6,71.60000000000002,15376.4,-1.9000000000000057,-334.1,11.599999999999994,2025-01-29 15:15:00,0.0
5905.6,63.60000000000002,15212.4,15.099999999999994,-471.1,-84.4,2025-01-29 15:15:00,0.0
5989.6,171.60000000000002,15340.4,-32.900000000000006,-498.1,-145.4,2025-01-29 15:15:00,0.0
5965.6,371.6,15280.4,-39.900000000000006,-402.1,-121.4,2025-01-29 15:15:00,0.0
5801.6,395.6,15316.4,-44.900000000000006,-281.1,-123.4,2025-01-29 15:15:00,0.0
5785.6,435.6,15284.4,-80.9,-178.1,-21.400000000000006,2025-01-29 15:15:00,0.0
5801.6,395.6,15404.4,-71.9,-118.1,56.599999999999994,2025-01-29 15:15:00,0.0
5733.6,403.6,15528.4,-137.9,-13.099999999999994,76.6,2025-01-29 15:15:00,0.0
5813.6,419.6,15432.4,-116.9,-54.099999999999994,81.6,2025-01-29 15:15:00,0.0
5913.6,323.6,15440.4,-118.9,-167.1,95.6,2025-01-29 15:15:00,0.0
5957.6,407.6,15536.4,-56.900000000000006,-177.1,63.599999999999994,2025-01-29 15:15:00,0.0
5921.6,387.6,15488.4,-44.900000000000006,-96.1,60.599999999999994,2025-01-29 15:15:00,0.0
5913.6,435.6,15420.4,-53.900000000000006,-16.099999999999994,29.599999999999994,2025-01-29 15:15:00,0.0
6109.6,471.6,15360.4,-86.9,9.900000000000006,40.599999999999994,2025-01-29 15:15:00,0.0
5893.6,455.6,15572.4,-110.9,217.9,15.599999999999994,2025-01-29 15:15:00,0.0
5741.6,283.6,15452.4,-71.9,155.9,20.599999999999994,2025-01-29 15:15:00,0.0
5917.6,279.6,15312.4,9.099999999999994,-50.099999999999994,-31.400000000000006,2025-01-29 15:15:00,0.0
5989.6,339.6,15496.4,89.1,-249.1,-23.400000000000006,2025-01-29 15:15:00,0.0
6009.6,319.6,15448.4,119.1,-342.1,-26.400000000000006,2025-01-29 15:15:00,0.0
6197.6,319.6,15592.4,72.1,-295.1,-59.400000000000006,2025-01-29 15:15:00,0.0
6113.6,367.6,15364.4,63.099999999999994,-103.1,-100.4,2025-01-29 15:15:00,0.0
6129.6,351.6,15604.4,52.099999999999994,-2.0999999999999943,-115.4,2025-01-29 15:15:00,0.0
5965.6,419.6,15544.4,38.099999999999994,6.900000000000006,-151.4,2025-01-29 15:15:00,0.0
5917.6,411.6,15508.4,94.1,19.900000000000006,-154.4,2025-01-29 15:15:00,0.0
5985.6,211.60000000000002,15532.4,75.1,-39.099999999999994,-151.4,2025-01-29 15:15:00,0.0
5941.6,275.6,15512.4,129.1,-84.1,-169.4,2025-01-29 15:15:00,0.0
5901.6,299.6,15212.4,102.1,-169.1,-167.4,2025-01-29 15:15:00,0.0
6045.6,427.6,15464.4,68.1,-288.1,-166.4,2025-01-29 15:15:00,0.0
5953.6,339.6,15464.4,47.099999999999994,-351.1,-167.4,2025-01-29 15:15:00,0.0
5969.6,423.6,15512.4,18.099999999999994,-356.1,-156.4,2025-01-29 15:15:00,0.0
5785.6,287.6,15588.4,2.0999999999999943,-298.1,-156.4,2025-01-29 15:15:00,0.0
6049.6,359.6,15496.4,-11.900000000000006,-231.1,-149.4,2025-01-29 15:15:00,0.0
6105.6,339.6,15436.4,25.099999999999994,-103.1,-138.4,2025-01-29 15:15:00,0.0
6049.6,323.6,15448.4,20.099999999999994,14.900000000000006,-154.4,2025-01-29 15:15:00,0.0
6189.6,419.6,15536.4,-22.900000000000006,128.9,-186.4,2025-01-29 15:15:00,0.0
6045.6,287.6,15628.4,-20.900000000000006,153.9,-187.4,2025-01-29 15:15:00,0.0
5877.6,367.6,15660.4,7.099999999999994,169.9,-160.4,2025-01-29 15:15:00,0.0
5997.6,595.6,15140.4,-104.9,563.9,-179.4,2025-01-29 15:15:00,0.0
5733.6,651.6,15340.4,-268.9,1387.9,-210.4,2025-01-29 15:15:00,0.0
4637.6,415.6,17324.4,-22.900000000000006,1653.9,8.599999999999994,2025-01-29 15:15:00,0.0
5245.6,139.60000000000002,18260.4,12.099999999999994,1766.9,-238.4,2025-01-29 15:15:00,0.0
4121.6,347.6,18636.4,-115.9,2371.9,-351.4,2025-01-29 15:15:00,0.0
3033.6000000000004,499.6,18340.4,-280.9,4607.9,-516.4,2025-01-29 15:15:00,0.0
881.6000000000004,227.60000000000002,19228.4,-406.9,7229.9,-457.4,2025-01-29 15:15:00,0.0
33.600000000000364,75.60000000000002,20124.4,-186.9,9011.9,-296.4,2025-01-29 15:15:00,0.0
-506.39999999999964,95.60000000000002,19832.4,12.099999999999994,9632.9,-130.4,2025-01-29 15:15:01,0.0
-1246.3999999999996,-632.4,20048.4,111.1,9913.9,9.599999999999994,2025-01-29 15:15:01,0.0
-1666.3999999999996,-728.4,19632.4,113.1,10096.9,238.6,2025-01-29 15:15:01,0.0
-2014.3999999999996,-76.39999999999998,19036.4,-144.9,10396.9,509.6,2025-01-29 15:15:01,0.0
-1662.3999999999996,815.6,18536.4,-281.9,10292.9,801.6,2025-01-29 15:15:01,0.0
77.60000000000036,1119.6,16968.4,-218.9,9748.9,1161.6,2025-01-29 15:15:01,0.0
889.6000000000004,1135.6,15216.4,-197.9,10159.9,1488.6,2025-01-29 15:15:01,0.0
1537.6000000000004,1095.6,13996.4,-234.9,10836.9,1671.6,2025-01-29 15:15:01,0.0
2549.6000000000004,999.6,13552.4,-632.9,10945.9,1557.6,2025-01-29 15:15:01,0.0
3321.6000000000004,411.6,13772.4,-801.9,11177.9,1185.6,2025-01-29 15:15:01,0.0
3301.6000000000004,231.60000000000002,13764.4,-457.9,11121.9,938.6,2025-01-29 15:15:01,0.0
3041.6000000000004,663.6,13200.4,-68.9,10938.9,830.6,2025-01-29 15:15:01,0.0
3325.6000000000004,635.6,12288.4,450.1,10883.9,822.6,2025-01-29 15:15:01,0.0
3453.6000000000004,387.6,12048.4,1178.1,11224.9,880.6,2025-01-29 15:15:01,0.0
3569.6000000000004,95.60000000000002,10416.4,1405.1,11328.9,630.6,2025-01-29 15:15:01,0.0
3161.6000000000004,415.6,9340.4,1113.1,11579.9,234.6,2025-01-29 15:15:01,0.0
2081.6000000000004,819.6,9064.4,922.1,11595.9,-127.4,2025-01-29 15:15:01,0.0
1489.6000000000004,403.6,8908.4,824.1,10905.9,-489.4,2025-01-29 15:15:01,0.0
1217.6000000000004,495.6,8348.4,536.1,10096.9,-761.4,2025-01-29 15:15:01,0.0
401.60000000000036,1007.6,8088.4,425.1,9362.9,-732.4,2025-01-29 15:15:01,0.0
305.60000000000036,1075.6,7452.4,161.1,8572.9,-466.4,2025-01-29 15:15:01,0.0
45.600000000000364,735.6,7364.4,-24.900000000000006,8165.9,-173.4,2025-01-29 15:15:01,0.0
-362.39999999999964,531.6,7148.4,-243.9,7730.9,47.599999999999994,2025-01-29 15:15:01,0.0
317.60000000000036,195.60000000000002,7360.4,-496.9,6725.9,36.599999999999994,2025-01-29 15:15:01,0.0
709.6000000000004,303.6,7796.4,-580.9,5384.9,119.6,2025-01-29 15:15:01,0.0
1361.6000000000004,219.60000000000002,7256.4,-445.9,4324.9,54.599999999999994,2025-01-29 15:15:01,0.0
1913.6000000000004,135.60000000000002,6768.4,-90.9,4538.9,164.6,2025-01-29 15:15:01,0.0
1725.6000000000004,143.60000000000002,5756.4,189.1,5638.9,115.6,2025-01-29 15:15:01,0.0
1005.6000000000004,383.6,5544.4,246.1,7146.9,288.6,2025-01-29 15:15:01,0.0
901.6000000000004,571.6,5768.4,42.099999999999994,7504.9,365.6,2025-01-29 15:15:01,0.0
989.6000000000004,775.6,6492.4,-88.9,7164.9,344.6,2025-01-29 15:15:01,0.0
1105.6000000000004,1207.6,6888.4,98.1,6238.9,268.6,2025-01-29 15:15:01,
1093.6000000000004,1443.6,5752.4,555.1,5420.9,687.6,2025-01-29 15:15:01,0.0
965.6000000000004,1303.6,4604.4,935.1,5861.9,1066.6,2025-01-29 15:15:01,0.0
1169.6000000000004,783.6,4140.4,1175.1,6755.9,1367.6,2025-01-29 15:15:01,0.0
1609.6000000000004,627.6,3884.4,1376.1,7330.9,1469.6,2025-01-29 15:15:01,0.0
1669.6000000000004,555.6,4108.4,1462.1,6798.9,1416.6,2025-01-29 15:15:01,0.0
1821.6000000000004,867.6,4668.4,1585.1,5875.9,1200.6,2025-01-29 15:15:01,0.0
2257.6000000000004,1219.6,5076.4,1847.1,4360.9,803.6,2025-01-29 15:15:01,0.0
1929.6000000000004,1563.6,4560.4,2167.1,3283.9,491.6,2025-01-29 15:15:01,0.0
2237.6000000000004,1607.6,3688.4,2240.1,2632.9,288.6,2025-01-29 15:15:01,0.0
2601.6000000000004,1319.6,3288.4,2079.1,2415.9,107.6,2025-01-29 15:15:01,0.0
2829.6000000000004,1055.6,3468.4,1616.1,2122.9,28.599999999999994,2025-01-29 15:15:01,0.0
3353.6000000000004,627.6,3624.4,1300.1,1850.9,-182.4,2025-01-29 15:15:01,0.0
4301.6,295.6,4108.4,1201.1,1236.9,-708.4,2025-01-29 15:15:01,0.0
4309.6,303.6,3544.4,1227.1,920.9,-1166.4,2025-01-29 15:15:01,0.0
3917.6000000000004,419.6,3124.4,1238.1,1329.9,-1501.4,2025-01-29 15:15:01,0.0
3989.6000000000004,975.6,3004.4,1421.1,1628.9,-1702.4,2025-01-29 15:15:01,0.0
3721.6000000000004,1403.6,2840.4,1804.1,1495.9,-1529.4,2025-01-29 15:15:01,0.0
3609.6000000000004,1859.6,2348.4,1693.1,1077.9,-1077.4,2025-01-29 15:15:01,0.0
3873.6000000000004,1523.6,2164.4,1138.1,942.9,-798.4,2025-01-29 15:15:01,0.0
4101.6,483.6,2160.4,304.1,1106.9,-851.4,2025-01-29 15:15:01,0.0
4445.6,115.60000000000002,2172.4,43.099999999999994,1199.9,-1359.4,2025-01-29 15:15:01,0.0
4273.6,239.60000000000002,1412.4,-22.900000000000006,673.9,-1738.4,2025-01-29 15:15:01,0.0
4017.6000000000004,567.6,888.4,-175.9,442.9,-1758.4,2025-01-29 15:15:01,0.0
3613.6000000000004,1443.6,648.4,-133.9,1255.9,-1800.4,2025-01-29 15:15:01,0.0
2273.6000000000004,1855.6,216.39999999999998,-3.9000000000000057,3352.9,-1638.4,2025-01-29 15:15:01,0.0
1345.6000000000004,-136.39999999999998,556.4,176.1,6156.9,-1338.4,2025-01-29 15:15:01,0.0
769.6000000000004,-2216.4,1224.4,476.1,8363.9,-1736.4,2025-01-29 15:15:01,0.0
-806.3999999999996,-3212.4,2404.4,709.1,9969.9,-2162.4,2025-01-29 15:15:01,0.0
-2594.3999999999996,-2080.4,3056.4,1998.1,10134.9,-2107.4,2025-01-29 15:15:01,0.0
-3470.3999999999996,-192.39999999999998,2528.4,3519.1,8530.9,-1226.4,2025-01-29 15:15:01,0.0
-4234.4,1299.6,488.4,4076.1,5220.9,354.6,2025-01-29 15:15:01,0.0
-2810.3999999999996,2055.6,-739.6,3214.1,1303.9,1217.6,2025-01-29 15:15:02,0.0
-386.39999999999964,1551.6,-363.6,1492.1,-2048.1,472.6,2025-01-29 15:15:02,0.0
165.60000000000036,1119.6,1100.4,386.1,-4037.1,-400.4,2025-01-29 15:15:02,0.0
-66.39999999999964,683.6,2124.4,345.1,-4466.1,-500.4,2025-01-29 15:15:02,0.0
153.60000000000036,819.6,2208.4,759.1,-3835.1,-57.400000000000006,2025-01-29 15:15:02,0.0
833.6000000000004,1063.6,1880.4,988.1,-2353.1,268.6,2025-01-29 15:15:02,0.0
1193.6000000000004,1103.6,1444.4,706.1,-417.1,90.6,2025-01-29 15:15:02,0.0
777.6000000000004,839.6,1420.4,302.1,1214.9,-245.4,2025-01-29 15:15:02,0.0
177.60000000000036,383.6,1468.4,-45.900000000000006,1916.9,-411.4,2025-01-29 15:15:02,0.0
-338.39999999999964,271.6,1860.4,-171.9,1766.9,-490.4,2025-01-29 15:15:02,0.0
-858.3999999999996,491.6,1524.4,-227.9,503.9,-274.4,2025-01-29 15:15:02,0.0
-750.3999999999996,591.6,700.4,-425.9,-820.1,37.599999999999994,2025-01-29 15:15:02,0.0
-498.39999999999964,543.6,284.4,-691.9,-1380.1,145.6,2025-01-29 15:15:02,0.0
137.60000000000036,343.6,620.4,-886.9,-777.1,54.599999999999994,2025-01-29 15:15:02,0.0
413.60000000000036,63.60000000000002,1364.4,-824.9,322.9,-123.4,2025-01-29 15:15:02,0.0
-106.39999999999964,-136.39999999999998,1732.4,-566.9,807.9,-162.4,2025-01-29 15:15:02,0.0
-422.39999999999964,-84.39999999999998,2056.4,-384.9,721.9,-75.4,2025-01-29 15:15:02,0.0
-462.39999999999964,183.60000000000002,2656.4,-114.9,248.9,122.6,2025-01-29 15:15:02,0.0
-222.39999999999964,-80.39999999999998,2460.4,208.1,-660.1,262.6,2025-01-29 15:15:02,0.0
-10.399999999999636,183.60000000000002,1864.4,350.1,-1270.1,196.6,2025-01-29 15:15:02,0.0
-170.39999999999964,815.6,1276.4,341.1,-1013.1,317.6,2025-01-29 15:15:02,0.0
-58.399999999999636,1279.6,920.4,165.1,-147.1,469.6,2025-01-29 15:15:02,0.0
21.600000000000364,1671.6,880.4,-137.9,525.9,492.6,2025-01-29 15:15:02,0.0
-78.39999999999964,1839.6,1012.4,-473.9,852.9,259.6,2025-01-29 15:15:02,0.0
-130.39999999999964,1687.6,1316.4,-1044.9,759.9,-52.400000000000006,2025-01-29 15:15:02,0.0
-274.39999999999964,1455.6,2228.4,-1335.9,176.9,-339.4,2025-01-29 15:15:02,0.0
-542.3999999999996,1643.6,2144.4,-1341.9,-1004.1,-545.4,2025-01-29 15:15:02,0.0
-490.39999999999964,1731.6,1732.4,-1553.9,-1658.1,-613.4,2025-01-29 15:15:02,0.0
-94.39999999999964,1699.6,1464.4,-1719.9,-1574.1,-849.4,2025-01-29 15:15:02,0.0
317.60000000000036,899.6,1220.4,-1753.9,-1020.1,-1161.4,2025-01-29 15:15:02,0.0
533.6000000000004,-84.39999999999998,1212.4,-1436.9,-88.1,-1625.4,2025-01-29 15:15:02,0.0
501.60000000000036,-836.4,1280.4,-778.9,1219.9,-2143.4,2025-01-29 15:15:02,0.0
577.6000000000004,-2096.4,1236.4,-143.9,2012.9,-2280.4,2025-01-29 15:15:02,0.0
765.6000000000004,-3140.4,1656.4,115.1,1223.9,-1944.4,2025-01-29 15:15:02,0.0
337.60000000000036,-2844.4,3364.4,916.1,670.9,-1216.4,2025-01-29 15:15:02,0.0
-242.39999999999964,-640.4,4500.4,2499.1,1706.9,-352.4,2025-01-29 15:15:02,0.0
-606.3999999999996,971.6,3464.4,3005.1,2700.9,525.6,2025-01-29 15:15:02,0.0
617.6000000000004,1527.6,2228.4,1679.1,3178.9,410.6,2025-01-29 15:15:02,0.0
813.6000000000004,1115.6,1880.4,-1153.9,2886.9,-1084.4,2025-01-29 15:15:02,0.0
-170.39999999999964,487.6,2852.4,-2992.9,2951.9,-2533.4,2025-01-29 15:15:02,0.0
-1162.3999999999996,-372.4,3436.4,-3214.9,2929.9,-2979.4,2025-01-29 15:15:02,0.0
-1426.3999999999996,-1228.4,3812.4,-2936.9,2147.9,-2811.4,2025-01-29 15:15:02,0.0
-1126.3999999999996,-1864.4,4208.4,-2457.9,298.9,-2773.4,2025-01-29 15:15:02,0.0
-666.3999999999996,-2128.4,4324.4,-2086.9,-1457.1,-2720.4,2025-01-29 15:15:02,0.0
-270.39999999999964,-2040.4,4576.4,-1749.9,-2714.1,-2448.4,2025-01-29 15:15:02,0.0
261.60000000000036,-1992.4,4536.4,-1255.9,-3548.1,-1729.4,2025-01-29 15:15:02,0.0
1329.6000000000004,-1824.4,4392.4,-879.9,-3611.1,-1151.4,2025-01-29 15:15:02,0.0
1937.6000000000004,-1368.4,4092.4,-682.9,-3098.1,-722.4,2025-01-29 15:15:02,0.0
2213.6000000000004,-872.4,3716.4,-673.9,-1924.1,-289.4,2025-01-29 15:15:02,0.0
2213.6000000000004,-656.4,3316.4,-869.9,-464.1,56.599999999999994,2025-01-29 15:15:02,0.0
1845.6000000000004,-1048.4,3880.4,-897.9,732.9,358.6,2025-01-29 15:15:02,0.0
1153.6000000000004,-1640.4,3736.4,-684.9,1370.9,784.6,2025-01-29 15:15:02,0.0
585.6000000000004,-1848.4,3252.4,-534.9,1820.9,1312.6,2025-01-29 15:15:02,0.0
665.6000000000004,-1692.4,2924.4,-661.9,2241.9,1566.6,2025-01-29 15:15:02,0.0
-206.39999999999964,-956.4,2612.4,-1201.9,2541.9,1613.6,2025-01-29 15:15:02,0.0
-1234.3999999999996,-112.39999999999998,2964.4,-1865.9,2358.9,1581.6,2025-01-29 15:15:02,0.0
-1586.3999999999996,295.6,4452.4,-2281.9,1286.9,1393.6,2025-01-29 15:15:02,0.0
-1602.3999999999996,-244.39999999999998,5304.4,-2626.9,-1078.1,1078.6,2025-01-29 15:15:02,0.0
-1450.3999999999996,-1088.4,4608.4,-3078.9,-2285.1,665.6,2025-01-29 15:15:02,0.0
-1242.3999999999996,-1504.4,3680.4,-3564.9,-2226.1,406.6,2025-01-29 15:15:02,0.0
-222.39999999999964,-2328.4,2380.4,-3958.9,-1985.1,-320.4,2025-01-29 15:15:02,0.0
-934.3999999999996,-2508.4,200.39999999999998,-4847.9,-494.1,-1731.4,2025-01-29 15:15:03,0.0
-1846.3999999999996,-2776.4,1644.4,-5705.9,1335.9,-3002.4,2025-01-29 15:15:03,0.0
-2042.3999999999996,-3032.4,4192.4,-5429.9,1175.9,-4116.4,2025-01-29 15:15:03,0.0
-2622.3999999999996,-4564.4,6180.4,-4176.9,-779.1,-4737.4,2025-01-29 15:15:03,0.0
-3514.3999999999996,-6100.4,6940.4,-2692.9,-1359.1,-4759.4,2025-01-29 15:15:03,0.0
-4466.4,-7404.4,6388.4,-1509.9,-1016.1,-4477.4,2025-01-29 15:15:03,0.0
-5470.4,-6536.4,5584.4,-597.9,-1816.1,-3909.4,2025-01-29 15:15:03,0.0
-6986.4,-4356.4,4340.4,529.1,-4750.1,-1362.4,2025-01-29 15:15:03,
-7050.4,-2512.4,3388.4,2285.1,-7869.1,3261.6,2025-01-29 15:15:03,0.0
-2022.3999999999996,-2508.4,-439.6,4162.1,-8641.1,6561.6,2025-01-29 15:15:03,0.0
325.60000000000036,-1780.4,-2711.6,3604.1,-5861.1,5981.6,2025-01-29 15:15:03,0.0
1353.6000000000004,-512.4,-4071.6,2438.1,-2438.1,4248.6,2025-01-29 15:15:03,0.0
1101.6000000000004,531.6,-3287.6,1568.1,-508.1,3351.6,2025-01-29 15:15:03,0.0
2009.6000000000004,1059.6,-563.6,2293.1,-185.1,2951.6,2025-01-29 15:15:03,0.0
2353.6000000000004,1743.6,224.39999999999998,3453.1,-354.1,2803.6,2025-01-29 15:15:03,0.0
2833.6000000000004,2267.6,-603.6,3379.1,-86.1,2837.6,2025-01-29 15:15:03,0.0
2337.6000000000004,2515.6,-1303.6,2265.1,1004.9,2933.6,2025-01-29 15:15:03,0.0
1205.6000000000004,1603.6,-467.6,1373.1,2616.9,3097.6,2025-01-29 15:15:03,0.0
361.60000000000036,575.6,692.4,1741.1,3783.9,3144.6,2025-01-29 15:15:03,0.0
-102.39999999999964,27.600000000000023,1728.4,2507.1,3906.9,3149.6,2025-01-29 15:15:03,0.0
-238.39999999999964,-80.39999999999998,1936.4,3148.1,3245.9,3279.6,2025-01-29 15:15:03,0.0
73.60000000000036,-140.39999999999998,1608.4,3410.1,2108.9,3397.6,2025-01-29 15:15:03,0.0
669.6000000000004,399.6,1440.4,3695.1,176.9,2913.6,2025-01-29 15:15:03,0.0
1205.6000000000004,1087.6,1180.4,3965.1,-1192.1,2417.6,2025-01-29 15:15:03,0.0
1321.6000000000004,1627.6,1480.4,4240.1,-1514.1,2289.6,2025-01-29 15:15:03,0.0
1829.6000000000004,1915.6,1616.4,4348.1,-823.1,2235.6,2025-01-29 15:15:03,0.0
1917.6000000000004,1847.6,1608.4,4089.1,-119.1,2135.6,2025-01-29 15:15:03,0.0
1745.6000000000004,1835.6,1908.4,3972.1,405.9,2019.6,2025-01-29 15:15:03,0.0
1221.6000000000004,2259.6,2036.4,4148.1,766.9,2083.6,2025-01-29 15:15:03,0.0
841.6000000000004,2771.6,2004.4,4131.1,804.9,2177.6,2025-01-29 15:15:03,0.0
1045.6000000000004,2979.6,1744.4,3972.1,502.9,1944.6,2025-01-29 15:15:03,0.0
1501.6000000000004,2851.6,2144.4,3424.1,-243.1,1359.6,2025-01-29 15:15:03,0.0
1473.6000000000004,2587.6,2864.4,2745.1,-1334.1,466.6,2025-01-29 15:15:03,0.0
1649.6000000000004,1803.6,4108.4,2471.1,-2109.1,-292.4,2025-01-29 15:15:03,0.0
1365.6000000000004,1335.6,4740.4,2845.1,-2685.1,-870.4,2025-01-29 15:15:03,0.0
1705.6000000000004,911.6,4004.4,3194.1,-3569.1,-1603.4,2025-01-29 15:15:03,0.0
1689.6000000000004,1127.6,3516.4,3199.1,-4436.1,-2331.4,2025-01-29 15:15:03,0.0
1357.6000000000004,1759.6,3312.4,3139.1,-5010.1,-2651.4,2025-01-29 15:15:03,0.0
865.6000000000004,2355.6,2848.4,3113.1,-4833.1,-2418.4,2025-01-29 15:15:03,0.0
1257.6000000000004,2371.6,2032.4,2814.1,-3647.1,-2120.4,2025-01-29 15:15:03,0.0
973.6000000000004,2003.6,1604.4,2374.1,-1578.1,-1805.4,2025-01-29 15:15:03,0.0
361.60000000000036,743.6,3064.4,2474.1,715.9,-1091.4,2025-01-29 15:15:03,0.0
-650.3999999999996,947.6,4848.4,3607.1,3199.9,6.599999999999994,2025-01-29 15:15:03,0.0
-1994.3999999999996,2447.6,5220.4,5027.1,5085.9,1060.6,2025-01-29 15:15:03,0.0
-3058.3999999999996,2163.6,5536.4,5442.1,5280.9,1840.6,2025-01-29 15:15:03,0.0
-2618.3999999999996,559.6,7260.4,5505.1,4277.9,1890.6,2025-01-29 15:15:03,0.0
-3082.3999999999996,-116.39999999999998,6960.4,5936.1,2645.9,787.6,2025-01-29 15:15:03,0.0
-3470.3999999999996,1023.6,3736.4,6130.1,2087.9,386.6,2025-01-29 15:15:03,0.0
-4346.4,3435.6,2264.4,6425.1,3030.9,599.6,2025-01-29 15:15:03,0.0
-5614.4,6059.6,492.4,6243.1,5476.9,2267.6,2025-01-29 15:15:03,0.0
-5918.4,7159.6,-2203.6,4618.1,7464.9,4174.6,2025-01-29 15:15:03,0.0
-5406.4,7467.6,-4023.6,1304.1,7689.9,5471.6,2025-01-29 15:15:03,0.0
-4546.4,7235.6,-3091.6,-1992.9,5943.9,5712.6,2025-01-29 15:15:03,0.0
-2902.3999999999996,5579.6,132.39999999999998,-3342.9,2180.9,4359.6,2025-01-29 15:15:04,0.0
-3074.3999999999996,503.6,36.39999999999998,-4405.9,2346.9,-4123.4,2025-01-29 15:15:04,0.0
-3710.3999999999996,-340.4,732.4,-4314.9,-3915.1,-3289.4,2025-01-29 15:15:04,0.0
-1914.3999999999996,-592.4,620.4,-4149.9,-9505.1,-1796.4,2025-01-29 15:15:04,0.0
2045.6000000000004,-480.4,-247.60000000000002,-4400.9,-12668.1,-938.4,2025-01-29 15:15:04,0.0
3093.6000000000004,-456.4,328.4,-4859.9,-12341.1,-1013.4,2025-01-29 15:15:04,0.0
3841.6000000000004,-448.4,432.4,-5383.9,-9021.1,-1384.4,2025-01-29 15:15:04,0.0
4573.6,-304.4,248.39999999999998,-5578.9,-1302.1,-1816.4,2025-01-29 15:15:04,0.0
3029.6000000000004,-84.39999999999998,700.4,-5230.9,4942.9,-1770.4,2025-01-29 15:15:04,0.0
1137.6000000000004,-48.39999999999998,1388.4,-5409.9,6367.9,-1289.4,2025-01-29 15:15:04,0.0
-126.39999999999964,-68.39999999999998,2520.4,-5785.9,5495.9,-643.4,2025-01-29 15:15:04,0.0
-1034.3999999999996,-124.39999999999998,3264.4,-6065.9,2538.9,-30.400000000000006,2025-01-29 15:15:04,0.0
-2086.3999999999996,295.6,3144.4,-5859.9,-1071.1,712.6,2025-01-29 15:15:04,0.0
-1426.3999999999996,699.6,1844.4,-5585.9,-4499.1,1686.6,2025-01-29 15:15:04,0.0
-606.3999999999996,1279.6,1480.4,-5925.9,-6204.1,2584.6,2025-01-29 15:15:04,0.0
1441.6000000000004,1711.6,908.4,-6583.9,-5986.1,3036.6,2025-01-29 15:15:04,0.0
1853.6000000000004,2155.6,1376.4,-7517.9,-3776.1,3255.6,2025-01-29 15:15:04,0.0
2253.6000000000004,2003.6,1036.4,-8421.9,-1304.1,3419.6,2025-01-29 15:15:04,0.0
2373.6000000000004,1383.6,1116.4,-9142.9,40.900000000000006,3464.6,2025-01-29 15:15:04,0.0
1901.6000000000004,787.6,1544.4,-9761.9,457.9,3358.6,2025-01-29 15:15:04,0.0
1237.6000000000004,487.6,1940.4,-10406.9,930.9,3101.6,2025-01-29 15:15:04,0.0
517.6000000000004,603.6,2364.4,-10639.9,1415.9,2959.6,2025-01-29 15:15:04,0.0
-210.39999999999964,887.6,2336.4,-11068.9,2188.9,2821.6,2025-01-29 15:15:04,0.0
-1138.3999999999996,1095.6,2492.4,-11385.9,2862.9,2693.6,2025-01-29 15:15:04,0.0
-1590.3999999999996,963.6,2240.4,-11590.9,2644.9,2493.6,2025-01-29 15:15:04,0.0
-1422.3999999999996,415.6,1988.4,-12020.9,1700.9,1860.6,2025-01-29 15:15:04,0.0
-1426.3999999999996,83.60000000000002,2268.4,-12448.9,901.9,1156.6,2025-01-29 15:15:04,0.0
-994.3999999999996,535.6,3460.4,-12819.9,572.9,513.6,2025-01-29 15:15:04,0.0
-950.3999999999996,863.6,4152.4,-13285.9,669.9,63.599999999999994,2025-01-29 15:15:04,0.0
-1782.3999999999996,827.6,4088.4,-13750.9,1100.9,287.6,2025-01-29 15:15:04,0.0
-2782.3999999999996,1511.6,960.4,-14311.9,2689.9,100.6,2025-01-29 15:15:04,0.0
-2582.3999999999996,-140.39999999999998,-1091.6,-15512.9,4214.9,-1678.4,2025-01-29 15:15:04,0.0
-1698.3999999999996,-3524.4,1080.4,-15981.9,3450.9,-4893.4,2025-01-29 15:15:04,0.0
-3242.3999999999996,-4844.4,2736.4,-14493.9,-135.1,-6861.4,2025-01-29 15:15:04,0.0
-5542.4,-4596.4,3988.4,-12156.9,-3563.1,-6129.4,2025-01-29 15:15:04,0.0
-6550.4,-2196.4,3708.4,-10102.9,-5097.1,-2654.4,2025-01-29 15:15:04,0.0
-3006.3999999999996,1931.6,3532.4,-8489.9,-5739.1,664.6,2025-01-29 15:15:04,0.0
1909.6000000000004,3631.6,-1035.6,-9265.9,-4200.1,2755.6,2025-01-29 15:15:04,0.0
5917.6,2251.6,-3007.6,-11780.9,-1451.1,2876.6,2025-01-29 15:15:04,0.0
6725.6,1259.6,-3767.6,-13422.9,3550.9,748.6,2025-01-29 15:15:04,0.0
3773.6000000000004,51.60000000000002,-5131.6,-14851.9,11320.9,-2061.4,2025-01-29 15:15:04,0.0
657.6000000000004,-424.4,-3339.6,-15751.9,17306.9,-4334.4,2025-01-29 15:15:04,0.0
-1658.3999999999996,467.6,-35.60000000000002,-15477.9,19199.9,-5773.4,2025-01-29 15:15:04,0.0
-4094.3999999999996,1987.6,2360.4,-13869.9,15734.9,-5343.4,2025-01-29 15:15:04,0.0
-5302.4,3139.6,796.4,-12005.9,7829.9,-2745.4,2025-01-29 15:15:04,0.0
-3174.3999999999996,3395.6,-2423.6,-12116.9,203.9,-717.4,2025-01-29 15:15:04,0.0
9.600000000000364,2879.6,-4207.6,-13928.9,-5168.1,-159.4,2025-01-29 15:15:04,0.0
2153.6000000000004,1595.6,-3703.6,-15237.9,-6610.1,-413.4,2025-01-29 15:15:04,0.0
2977.6000000000004,751.6,-3463.6,-16069.9,-5081.1,-687.4,2025-01-29 15:15:04,0.0
3457.6000000000004,683.6,-2371.6,-16508.9,-1223.1,-958.4,2025-01-29 15:15:04,0.0
3569.6000000000004,1315.6,-1883.6,-15963.9,4054.9,-1322.4,2025-01-29 15:15:04,0.0
2697.6000000000004,1559.6,-2407.6,-15789.9,6111.9,-1664.4,2025-01-29 15:15:04,0.0
1745.6000000000004,1923.6,-2119.6,-15880.9,6354.9,-2377.4,2025-01-29 15:15:04,0.0
497.60000000000036,2327.6,-1991.6,-16057.9,5574.9,-2761.4,2025-01-29 15:15:04,0.0
-534.3999999999996,2291.6,-2191.6,-16389.9,4090.9,-2717.4,2025-01-29 15:15:04,
-554.3999999999996,1859.6,-2447.6,-16913.9,1436.9,-2461.4,2025-01-29 15:15:05,0.0
-158.39999999999964,1335.6,-2411.6,-17305.9,-824.1,-2235.4,2025-01-29 15:15:05,0.0
385.60000000000036,1187.6,-2683.6,-17436.9,-1343.1,-2211.4,2025-01-29 15:15:05,0.0
513.6000000000004,1151.6,-2415.6,-17599.9,-1198.1,-2289.4,2025-01-29 15:15:05,0.0
1245.6000000000004,959.6,-2527.6,-17753.9,-895.1,-2611.4,2025-01-29 15:15:05,0.0
1081.6000000000004,927.6,-2351.6,-17883.9,-566.1,-3076.4,2025-01-29 15:15:05,0.0
949.6000000000004,719.6,-1999.6,-18184.9,-263.1,-3602.4,2025-01-29 15:15:05,0.0
525.6000000000004,191.60000000000002,-1387.6,-18408.9,-114.1,-4127.4,2025-01-29 15:15:05,0.0
65.60000000000036,-176.39999999999998,-683.6,-18279.9,-290.1,-4525.4,2025-01-29 15:15:05,0.0
-386.39999999999964,-284.4,-363.6,-17954.9,-644.1,-4533.4,2025-01-29 15:15:05,0.0
-614.3999999999996,-216.39999999999998,-999.6,-17670.9,-1352.1,-4506.4,2025-01-29 15:15:05,0.0
-750.3999999999996,247.60000000000002,-1391.6,-17527.9,-2118.1,-4404.4,2025-01-29 15:15:05,0.0
-574.3999999999996,463.6,-1739.6,-17591.9,-2495.1,-4244.4,2025-01-29 15:15:05,0.0
117.60000000000036,715.6,-1927.6,-17821.9,-2476.1,-4258.4,2025-01-29 15:15:05,0.0
317.60000000000036,843.6,-2727.6,-18238.9,-2578.1,-4331.4,2025-01-29 15:15:05,0.0
457.60000000000036,1267.6,-3707.6,-18786.9,-2955.1,-4201.4,2025-01-29 15:15:05,0.0
473.60000000000036,1511.6,-4787.6,-19758.9,-3326.1,-3901.4,2025-01-29 15:15:05,0.0
813.6000000000004,2023.6,-4871.6,-20767.9,-3084.1,-3750.4,2025-01-29 15:15:05,0.0
925.6000000000004,2527.6,-4103.6,-21471.9,-2172.1,-3737.4,2025-01-29 15:15:05,0.0
649.6000000000004,2243.6,-3919.6,-21874.9,-697.1,-3749.4,2025-01-29 15:15:05,0.0
285.60000000000036,1155.6,-3795.6,-22203.9,594.9,-3756.4,2025-01-29 15:15:05,0.0
-250.39999999999964,-976.4,-2355.6,-22096.9,957.9,-3832.4,2025-01-29 15:15:05,0.0
-1026.3999999999996,-3108.4,-1123.6,-21118.9,501.9,-3507.4,2025-01-29 15:15:05,0.0
-1158.3999999999996,-4476.4,-571.6,-19806.9,-351.1,-2819.4,2025-01-29 15:15:05,0.0
-706.3999999999996,-3208.4,-167.60000000000002,-18503.9,-1439.1,-2220.4,2025-01-29 15:15:05,0.0
61.600000000000364,-724.4,-51.60000000000002,-17590.9,-1974.1,-2040.4,2025-01-29 15:15:05,0.0
689.6000000000004,1607.6,-119.60000000000002,-17283.9,-974.1,-2442.4,2025-01-29 15:15:05,0.0
517.6000000000004,1803.6,-891.6,-17803.9,1350.9,-3246.4,2025-01-29 15:15:05,0.0
-834.3999999999996,691.6,-635.6,-18213.9,2763.9,-3439.4,2025-01-29 15:15:05,0.0
-1742.3999999999996,-528.4,-99.60000000000002,-17626.9,2868.9,-3231.4,2025-01-29 15:15:05,0.0
-2842.3999999999996,-1072.4,380.4,-16789.9,1803.9,-2661.4,2025-01-29 15:15:05,0.0
-2946.3999999999996,-900.4,164.39999999999998,-15794.9,-498.1,-1895.4,2025-01-29 15:15:05,0.0
-2222.3999999999996,75.60000000000002,-303.6,-14803.9,-4148.1,-1077.4,2025-01-29 15:15:05,0.0
-890.3999999999996,991.6,8.399999999999977,-14369.9,-6601.1,-529.4,2025-01-29 15:15:05,0.0
625.6000000000004,911.6,120.39999999999998,-14064.9,-7274.1,-444.4,2025-01-29 15:15:05,0.0
1133.6000000000004,343.6,-231.60000000000002,-13730.9,-6351.1,-626.4,2025-01-29 15:15:05,0.0
1701.6000000000004,-224.39999999999998,-527.6,-13520.9,-4804.1,-1111.4,2025-01-29 15:15:05,0.0
2245.6000000000004,-64.39999999999998,-715.6,-13173.9,-3607.1,-1610.4,2025-01-29 15:15:05,0.0
2357.6000000000004,359.6,-379.6,-12865.9,-2424.1,-2153.4,2025-01-29 15:15:05,0.0
2393.6000000000004,635.6,-399.6,-12618.9,-1521.1,-2661.4,2025-01-29 15:15:05,0.0
1497.6000000000004,499.6,-835.6,-12544.9,-834.1,-2782.4,2025-01-29 15:15:05,0.0
1037.6000000000004,347.6,-679.6,-12567.9,-650.1,-2676.4,2025-01-29 15:15:05,0.0
741.6000000000004,-484.4,-279.6,-12539.9,-592.1,-2450.4,2025-01-29 15:15:05,0.0
697.6000000000004,-1432.4,-99.60000000000002,-12363.9,-442.1,-2418.4,2025-01-29 15:15:05,0.0
529.6000000000004,-2240.4,-323.6,-12050.9,-253.1,-2416.4,2025-01-29 15:15:05,0.0
445.60000000000036,-2664.4,-1135.6,-11557.9,-348.1,-2590.4,2025-01-29 15:15:05,0.0
677.6000000000004,-3124.4,-1007.6,-11129.9,-554.1,-2798.4,2025-01-29 15:15:05,0.0
601.6000000000004,-3044.4,32.39999999999998,-10481.9,-347.1,-2876.4,2025-01-29 15:15:05,0.0
-82.39999999999964,-2988.4,480.4,-9661.9,1096.9,-2670.4,2025-01-29 15:15:05,0.0
-962.3999999999996,-3036.4,560.4,-8942.9,2825.9,-2239.4,2025-01-29 15:15:05,0.0
-1362.3999999999996,-3500.4,872.4,-8165.9,3660.9,-1801.4,2025-01-29 15:15:05,0.0
-810.3999999999996,-4456.4,2416.4,-6954.9,2116.9,-1679.4,2025-01-29 15:15:05,0.0
-286.39999999999964,-4852.4,3276.4,-5645.9,-932.1,-1606.4,2025-01-29 15:15:05,0.0
37.600000000000364,-4748.4,3224.4,-4354.9,-3690.1,-1310.4,2025-01-29 15:15:05,0.0
901.6000000000004,-4700.4,2808.4,-3506.9,-4365.1,-1217.4,2025-01-29 15:15:05,0.0
1481.6000000000004,-4372.4,2284.4,-2870.9,-2656.1,-1407.4,2025-01-29 15:15:05,0.0
897.6000000000004,-3504.4,1608.4,-2363.9,299.9,-1503.4,2025-01-29 15:15:05,0.0
593.6000000000004,-2088.4,168.39999999999998,-2009.9,2307.9,-1100.4,2025-01-29 15:15:05,0.0
-118.39999999999964,-1236.4,624.4,-2121.9,2490.9,-882.4,2025-01-29 15:15:05,0.0
-738.3999999999996,-732.4,556.4,-2564.9,2007.9,-823.4,2025-01-29 15:15:05,0.0
-1014.3999999999996,-248.39999999999998,632.4,-2938.9,686.9,-620.4,2025-01-29 15:15:05,0.0
-938.3999999999996,-396.4,968.4,-3421.9,-1199.1,-276.4,2025-01-29 15:15:06,0.0
-354.39999999999964,-1004.4,928.4,-3696.9,-2385.1,56.599999999999994,2025-01-29 15:15:06,0.0
137.60000000000036,-1572.4,384.4,-3602.9,-2452.1,350.6,2025-01-29 15:15:06,0.0
393.60000000000036,-1592.4,376.4,-3406.9,-1644.1,577.6,2025-01-29 15:15:06,0.0
845.6000000000004,-1792.4,996.4,-3125.9,-531.1,741.6,2025-01-29 15:15:06,0.0
925.6000000000004,-1920.4,1752.4,-2807.9,599.9,723.6,2025-01-29 15:15:06,0.0
621.6000000000004,-1776.4,1768.4,-2422.9,1078.9,944.6,2025-01-29 15:15:06,0.0
277.60000000000036,-1304.4,1856.4,-1900.9,858.9,1286.6,2025-01-29 15:15:06,0.0
-18.399999999999636,-800.4,1548.4,-1492.9,709.9,1883.6,2025-01-29 15:15:06,0.0
125.60000000000036,-812.4,1672.4,-1084.9,282.9,2585.6,2025-01-29 15:15:06,0.0
49.600000000000364,-1468.4,1156.4,-929.9,26.900000000000006,3215.6,2025-01-29 15:15:06,0.0
37.600000000000364,-1792.4,308.4,-788.9,423.9,3406.6,2025-01-29 15:15:06,0.0
-402.39999999999964,-1428.4,-23.600000000000023,-674.9,1764.9,3238.6,2025-01-29 15:15:06,0.0
-1158.3999999999996,-1032.4,-283.6,-574.9,3804.9,2671.6,2025-01-29 15:15:06,0.0
-1450.3999999999996,-136.39999999999998,-491.6,-480.9,4879.9,1933.6,2025-01-29 15:15:06,0.0
-1926.3999999999996,743.6,-19.600000000000023,-542.9,3290.9,1480.6,2025-01-29 15:15:06,0.0
-1970.3999999999996,1163.6,56.39999999999998,-930.9,-640.1,1707.6,2025-01-29 15:15:06,0.0
-1250.3999999999996,971.6,-35.60000000000002,-1504.9,-4338.1,2171.6,2025-01-29 15:15:06,0.0
-374.39999999999964,387.6,-483.6,-1708.9,-6055.1,2435.6,2025-01-29 15:15:06,0.0
729.6000000000004,-252.39999999999998,-1251.6,-1772.9,-5943.1,2477.6,2025-01-29 15:15:06,0.0
1513.6000000000004,-384.4,-1399.6,-1808.9,-4835.1,2232.6,2025-01-29 15:15:06,0.0
1557.6000000000004,-264.4,-1323.6,-1720.9,-2316.1,1966.6,2025-01-29 15:15:06,0.0
1345.6000000000004,315.6,-331.6,-1325.9,862.9,1851.6,2025-01-29 15:15:06,0.0
1109.6000000000004,883.6,108.39999999999998,-1026.9,3341.9,1622.6,2025-01-29 15:15:06,0.0
741.6000000000004,879.6,880.4,-855.9,3998.9,1280.6,2025-01-29 15:15:06,0.0
317.60000000000036,715.6,900.4,-596.9,2868.9,925.6,2025-01-29 15:15:06,0.0
73.60000000000036,339.6,724.4,-258.9,286.9,547.6,2025-01-29 15:15:06,0.0
373.60000000000036,223.60000000000002,308.4,-72.9,-1617.1,129.6,2025-01-29 15:15:06,0.0
753.6000000000004,519.6,0.39999999999997726,-198.9,-1974.1,-317.4,2025-01-29 15:15:06,0.0
1089.6000000000004,895.6,-447.6,-352.9,-1440.1,-736.4,2025-01-29 15:15:06,0.0
933.6000000000004,1303.6,-703.6,-524.9,-392.1,-1062.4,2025-01-29 15:15:06,0.0
405.60000000000036,1591.6,-1211.6,-875.9,1048.9,-1133.4,2025-01-29 15:15:06,0.0
-506.39999999999964,1267.6,-1239.6,-1316.9,2478.9,-765.4,2025-01-29 15:15:06,0.0
-1282.3999999999996,803.6,-19.600000000000023,-1427.9,3392.9,25.599999999999994,2025-01-29 15:15:06,0.0
-942.3999999999996,703.6,756.4,-1084.9,2804.9,406.6,2025-01-29 15:15:06,0.0
-594.3999999999996,807.6,512.4,-830.9,567.9,228.6,2025-01-29 15:15:06,0.0
-218.39999999999964,1027.6,396.4,-708.9,-1720.1,-180.4,2025-01-29 15:15:06,0.0
-262.39999999999964,1063.6,68.39999999999998,-582.9,-2547.1,-390.4,2025-01-29 15:15:06,0.0
-238.39999999999964,927.6,-315.6,-382.9,-2160.1,-353.4,2025-01-29 15:15:06,
13.600000000000364,691.6,-915.6,-204.9,-1088.1,-156.4,2025-01-29 15:15:06,0.0
197.60000000000036,587.6,-855.6,-58.900000000000006,-83.1,-14.400000000000006,2025-01-29 15:15:06,0.0
261.60000000000036,219.60000000000002,-559.6,-22.900000000000006,664.9,40.599999999999994,2025-01-29 15:15:06,0.0
193.60000000000036,79.60000000000002,12.399999999999977,147.1,1059.9,-48.400000000000006,2025-01-29 15:15:06,0.0
81.60000000000036,83.60000000000002,408.4,455.1,970.9,-101.4,2025-01-29 15:15:06,0.0
25.600000000000364,483.6,764.4,717.1,559.9,-162.4,2025-01-29 15:15:06,0.0
-74.39999999999964,843.6,728.4,916.1,54.900000000000006,-209.4,2025-01-29 15:15:06,0.0
-94.39999999999964,1055.6,640.4,1042.1,-255.1,-192.4,2025-01-29 15:15:06,0.0
-10.399999999999636,943.6,320.4,1011.1,-373.1,-82.4,2025-01-29 15:15:06,0.0
49.600000000000364,707.6,272.4,963.1,-201.1,-75.4,2025-01-29 15:15:06,0.0
61.600000000000364,531.6,144.39999999999998,983.1,98.9,-103.4,2025-01-29 15:15:06,0.0
101.60000000000036,723.6,-123.60000000000002,983.1,247.9,-73.4,2025-01-29 15:15:06,0.0
157.60000000000036,991.6,-495.6,869.1,292.9,-9.400000000000006,2025-01-29 15:15:06,0.0
133.60000000000036,1351.6,-551.6,662.1,445.9,84.6,2025-01-29 15:15:06,0.0
165.60000000000036,1335.6,-459.6,439.1,762.9,140.6,2025-01-29 15:15:06,0.0
-26.399999999999636,1091.6,-263.6,236.1,964.9,60.599999999999994,2025-01-29 15:15:06,0.0
-210.39999999999964,751.6,272.4,183.1,973.9,6.599999999999994,2025-01-29 15:15:06,0.0
-526.3999999999996,683.6,384.4,312.1,743.9,-82.4,2025-01-29 15:15:06,0.0
-482.39999999999964,699.6,-7.600000000000023,324.1,87.9,-51.400000000000006,2025-01-29 15:15:06,0.0
-134.39999999999964,879.6,-323.6,268.1,-577.1,-40.400000000000006,2025-01-29 15:15:06,0.0
49.600000000000364,935.6,-355.6,84.1,-695.1,-54.400000000000006,2025-01-29 15:15:06,0.0
317.60000000000036,959.6,-467.6,-43.900000000000006,-395.1,-38.400000000000006,2025-01-29 15:15:06,0.0
409.60000000000036,1051.6,-171.60000000000002,-95.9,288.9,-66.4,2025-01-29 15:15:07,0.0
469.60000000000036,867.6,-347.6,-159.9,718.9,-132.4,2025-01-29 15:15:07,0.0
173.60000000000036,711.6,-151.60000000000002,-235.9,636.9,-148.4,2025-01-29 15:15:07,0.0
-234.39999999999964,839.6,100.39999999999998,-197.9,549.9,-114.4,2025-01-29 15:15:07,0.0
-410.39999999999964,811.6,-23.600000000000023,-224.9,247.9,13.599999999999994,2025-01-29 15:15:07,0.0
-334.39999999999964,995.6,-43.60000000000002,-329.9,-198.1,78.6,2025-01-29 15:15:07,0.0
9.600000000000364,1011.6,4.399999999999977,-380.9,-391.1,114.6,2025-01-29 15:15:07,0.0
313.60000000000036,943.6,-351.6,-389.9,-249.1,111.6,2025-01-29 15:15:07,0.0
349.60000000000036,1063.6,-471.6,-484.9,65.9,36.599999999999994,2025-01-29 15:15:07,0.0
313.60000000000036,1015.6,-475.6,-607.9,478.9,-65.4,2025-01-29 15:15:07,0.0
69.60000000000036,931.6,-403.6,-608.9,581.9,-29.400000000000006,2025-01-29 15:15:07,0.0
-50.399999999999636,759.6,-251.60000000000002,-643.9,516.9,-96.4,2025-01-29 15:15:07,0.0
-74.39999999999964,811.6,-311.6,-592.9,313.9,-34.400000000000006,2025-01-29 15:15:07,0.0
-38.399999999999636,1031.6,-483.6,-629.9,462.9,-62.400000000000006,2025-01-29 15:15:07,0.0
-154.39999999999964,1167.6,-347.6,-621.9,400.9,4.599999999999994,2025-01-29 15:15:07,0.0
-190.39999999999964,1019.6,-87.60000000000002,-574.9,426.9,78.6,2025-01-29 15:15:07,0.0
1.6000000000003638,959.6,-135.60000000000002,-444.9,404.9,170.6,2025-01-29 15:15:07,0.0
-66.39999999999964,803.6,-255.60000000000002,-358.9,583.9,240.6,2025-01-29 15:15:07,0.0
-134.39999999999964,663.6,-35.60000000000002,-197.9,1244.9,256.6,2025-01-29 15:15:07,0.0
-226.39999999999964,443.6,248.39999999999998,11.099999999999994,1646.9,215.6,2025-01-29 15:15:07,0.0
-362.39999999999964,167.60000000000002,536.4,311.1,1396.9,164.6,2025-01-29 15:15:07,0.0
-318.39999999999964,59.60000000000002,1356.4,864.1,663.9,114.6,2025-01-29 15:15:07,0.0
37.600000000000364,95.60000000000002,1740.4,1426.1,29.900000000000006,21.599999999999994,2025-01-29 15:15:07,0.0
77.60000000000036,735.6,1512.4,1802.1,92.9,-114.4,2025-01-29 15:15:07,0.0
205.60000000000036,1283.6,532.4,1794.1,435.9,-447.4,2025-01-29 15:15:07,0.0
-22.399999999999636,1719.6,-263.6,1631.1,146.9,-679.4,2025-01-29 15:15:07,0.0
-258.39999999999964,1823.6,-187.60000000000002,1487.1,-399.1,-792.4,2025-01-29 15:15:07,0.0
-302.39999999999964,1675.6,-119.60000000000002,1207.1,-713.1,-864.4,2025-01-29 15:15:07,0.0
-378.39999999999964,1511.6,40.39999999999998,1061.1,-1053.1,-785.4,2025-01-29 15:15:07,0.0
-38.399999999999636,1439.6,-83.60000000000002,1002.1,-1608.1,-761.4,2025-01-29 15:15:07,0.0
101.60000000000036,1363.6,-203.60000000000002,833.1,-1949.1,-760.4,2025-01-29 15:15:07,0.0
173.60000000000036,1803.6,-583.6,630.1,-1865.1,-823.4,2025-01-29 15:15:07,0.0
217.60000000000036,2027.6,-691.6,370.1,-1432.1,-1054.4,2025-01-29 15:15:07,0.0
225.60000000000036,2043.6,-975.6,95.1,-1184.1,-1291.4,2025-01-29 15:15:07,0.0
221.60000000000036,1671.6,-1231.6,-297.9,-1058.1,-1570.4,2025-01-29 15:15:07,0.0
-2.399999999999636,987.6,-823.6,-519.9,-1150.1,-1798.4,2025-01-29 15:15:07,0.0
-226.39999999999964,563.6,-323.6,-558.9,-1408.1,-1855.4,2025-01-29 15:15:07,0.0
-210.39999999999964,283.6,80.39999999999998,-543.9,-1708.1,-1816.4,2025-01-29 15:15:07,0.0
305.60000000000036,83.60000000000002,-235.60000000000002,-643.9,-1470.1,-2201.4,2025-01-29 15:15:07,0.0
253.60000000000036,-320.4,-27.600000000000023,-1017.9,-1039.1,-2862.4,2025-01-29 15:15:07,0.0
-430.39999999999964,339.6,348.4,-1136.9,-418.1,-3480.4,2025-01-29 15:15:07,0.0
-734.3999999999996,855.6,196.39999999999998,-1225.9,-1117.1,-3161.4,2025-01-29 15:15:07,0.0
-254.39999999999964,435.6,276.4,-1655.9,-2522.1,-2603.4,2025-01-29 15:15:07,0.0
481.60000000000036,-588.4,1136.4,-2301.9,-3158.1,-2460.4,2025-01-29 15:15:07,0.0
949.6000000000004,-1292.4,2136.4,-2915.9,-2806.1,-2528.4,2025-01-29 15:15:07,0.0
901.6000000000004,-1784.4,2580.4,-2919.9,-1945.1,-2519.4,2025-01-29 15:15:07,0.0
413.60000000000036,-1844.4,2784.4,-2610.9,-860.1,-2105.4,2025-01-29 15:15:07,0.0
501.60000000000036,-1800.4,2480.4,-2014.9,445.9,-1729.4,2025-01-29 15:15:07,0.0
573.6000000000004,-1416.4,2380.4,-1772.9,1367.9,-1525.4,2025-01-29 15:15:07,0.0
505.60000000000036,-1228.4,2092.4,-1794.9,1910.9,-1608.4,2025-01-29 15:15:07,0.0
113.60000000000036,-1240.4,2120.4,-1967.9,1928.9,-1692.4,2025-01-29 15:15:07,0.0
-442.39999999999964,-1368.4,2000.4,-2130.9,1552.9,-1778.4,2025-01-29 15:15:07,0.0
-718.3999999999996,-1508.4,2240.4,-2216.9,796.9,-2032.4,2025-01-29 15:15:07,0.0
-622.3999999999996,-1288.4,2468.4,-2186.9,-612.1,-2061.4,2025-01-29 15:15:07,0.0
-542.3999999999996,-1136.4,2408.4,-2033.9,-2035.1,-1776.4,2025-01-29 15:15:07,0.0
-310.39999999999964,-968.4,2288.4,-2049.9,-3091.1,-1317.4,2025-01-29 15:15:07,0.0
-202.39999999999964,-812.4,1928.4,-2224.9,-3661.1,-648.4,2025-01-29 15:15:08,0.0
513.6000000000004,-496.4,1688.4,-2499.9,-3383.1,66.6,2025-01-29 15:15:08,0.0
1041.6000000000004,-448.4,1860.4,-2752.9,-2355.1,650.6,2025-01-29 15:15:08,0.0
1929.6000000000004,-1152.4,1816.4,-3160.9,-730.1,872.6,2025-01-29 15:15:08,0.0
1825.6000000000004,-1860.4,2344.4,-3489.9,498.9,664.6,2025-01-29 15:15:08,0.0
1081.6000000000004,-2620.4,3620.4,-3384.9,919.9,606.6,2025-01-29 15:15:08,0.0
297.60000000000036,-2764.4,4996.4,-2647.9,586.9,929.6,2025-01-29 15:15:08,0.0
-154.39999999999964,-2556.4,4960.4,-1628.9,-371.1,1499.6,2025-01-29 15:15:08,0.0
-22.399999999999636,-2200.4,3660.4,-741.9,-1425.1,1907.6,2025-01-29 15:15:08,0.0
101.60000000000036,-1644.4,2884.4,-538.9,-1597.1,1848.6,2025-01-29 15:15:08,0.0
241.60000000000036,-1040.4,2684.4,-579.9,-1389.1,1752.6,2025-01-29 15:15:08,0.0
305.60000000000036,-844.4,2200.4,-756.9,-804.1,1633.6,2025-01-29 15:15:08,0.0
273.60000000000036,-1040.4,1428.4,-1376.9,149.9,1164.6,2025-01-29 15:15:08,0.0
29.600000000000364,-1616.4,1460.4,-2211.9,722.9,485.6,2025-01-29 15:15:08,0.0
85.60000000000036,-1952.4,1952.4,-2669.9,703.9,-152.4,2025-01-29 15:15:08,0.0
-118.39999999999964,-1212.4,2752.4,-3205.9,387.9,-510.4,2025-01-29 15:15:08,0.0
-102.39999999999964,-320.4,3780.4,-3827.9,588.9,-410.4,2025-01-29 15:15:08,0.0
-466.39999999999964,-232.39999999999998,3844.4,-4093.9,1562.9,-243.4,2025-01-29 15:15:08,0.0
-1158.3999999999996,-1060.4,2908.4,-4644.9,2444.9,-379.4,2025-01-29 15:15:08,0.0
-2282.3999999999996,-2308.4,1840.4,-5402.9,3590.9,-952.4,2025-01-29 15:15:08,0.0
-2726.3999999999996,-3636.4,1992.4,-5697.9,4653.9,-2170.4,2025-01-29 15:15:08,0.0
-3546.3999999999996,-4952.4,2604.4,-4876.9,4560.9,-3651.4,2025-01-29 15:15:08,
-4606.4,-6092.4,3904.4,-2617.9,2071.9,-4345.4,2025-01-29 15:15:08,0.0
-5366.4,-6164.4,3796.4,-2.9000000000000057,-1773.1,-3789.4,2025-01-29 15:15:08,0.0
-6406.4,-5400.4,3204.4,1802.1,-5611.1,-2135.4,2025-01-29 15:15:08,0.0
-5710.4,-3524.4,2884.4,2511.1,-8522.1,259.6,2025-01-29 15:15:08,0.0
-3762.3999999999996,-1556.4,2644.4,3082.1,-10320.1,1897.6,2025-01-29 15:15:08,0.0
-2662.3999999999996,-336.4,596.4,3183.1,-10166.1,4171.6,2025-01-29 15:15:08,0.0
341.60000000000036,-744.4,-2531.6,2579.1,-6968.1,5402.6,2025-01-29 15:15:08,0.0
2589.6000000000004,-596.4,-3439.6,1885.1,-3676.1,4913.6,2025-01-29 15:15:08,0.0
3505.6000000000004,-296.4,-3831.6,1506.1,-1151.1,3637.6,2025-01-29 15:15:08,0.0
4285.6,411.6,-3275.6,901.1,529.9,2081.6,2025-01-29 15:15:08,0.0
3521.6000000000004,1583.6,-1711.6,212.1,1542.9,735.6,2025-01-29 15:15:08,0.0
2269.6000000000004,2299.6,-507.6,-311.9,2635.9,20.599999999999994,2025-01-29 15:15:08,0.0
-562.3999999999996,1863.6,928.4,-124.9,4115.9,680.6,2025-01-29 15:15:08,0.0
-1750.3999999999996,675.6,984.4,983.1,4471.9,2210.6,2025-01-29 15:15:08,0.0
-1058.3999999999996,-544.4,360.4,1747.1,3091.9,3079.6,2025-01-29 15:15:08,0.0
-506.39999999999964,-1268.4,736.4,2123.1,1190.9,3093.6,2025-01-29 15:15:08,0.0
133.60000000000036,-1524.4,1468.4,2497.1,-546.1,2822.6,2025-01-29 15:15:08,0.0
301.60000000000036,-1088.4,1888.4,3222.1,-1391.1,2836.6,2025-01-29 15:15:08,0.0
129.60000000000036,-384.4,2248.4,4170.1,-1457.1,3156.6,2025-01-29 15:15:08,0.0
741.6000000000004,435.6,2144.4,4727.1,-1050.1,3452.6,2025-01-29 15:15:08,0.0
1157.6000000000004,931.6,2260.4,5075.1,-688.1,3470.6,2025-01-29 15:15:08,0.0
1657.6000000000004,1111.6,2196.4,5391.1,-594.1,3236.6,2025-01-29 15:15:08,0.0
1377.6000000000004,1551.6,1800.4,5794.1,-473.1,2885.6,2025-01-29 15:15:08,0.0
1081.6000000000004,1723.6,1660.4,5902.1,-13.099999999999994,2841.6,2025-01-29 15:15:08,0.0
1165.6000000000004,1859.6,2332.4,5876.1,406.9,2586.6,2025-01-29 15:15:08,0.0
1077.6000000000004,1667.6,2400.4,5884.1,386.9,2293.6,2025-01-29 15:15:08,0.0
1173.6000000000004,1515.6,2324.4,5674.1,-36.099999999999994,1919.6,2025-01-29 15:15:08,0.0
1377.6000000000004,1415.6,2456.4,5374.1,-571.1,1336.6,2025-01-29 15:15:08,0.0
1697.6000000000004,1607.6,2808.4,5073.1,-904.1,657.6,2025-01-29 15:15:08,0.0
1869.6000000000004,2271.6,2500.4,4847.1,-1194.1,8.599999999999994,2025-01-29 15:15:08,0.0
1545.6000000000004,2619.6,2196.4,4395.1,-1826.1,-382.4,2025-01-29 15:15:08,0.0
1465.6000000000004,2475.6,2820.4,3882.1,-2505.1,-968.4,2025-01-29 15:15:08,0.0
1473.6000000000004,1995.6,3552.4,3484.1,-2687.1,-1263.4,2025-01-29 15:15:08,0.0
1833.6000000000004,1519.6,3604.4,3338.1,-2645.1,-1622.4,2025-01-29 15:15:08,0.0
1989.6000000000004,1403.6,3272.4,3169.1,-2253.1,-1864.4,2025-01-29 15:15:08,0.0
2013.6000000000004,1723.6,2632.4,3189.1,-1512.1,-1797.4,2025-01-29 15:15:08,0.0
1713.6000000000004,1943.6,1932.4,3476.1,-203.1,-1624.4,2025-01-29 15:15:08,0.0
1477.6000000000004,1727.6,1456.4,3652.1,1538.9,-1473.4,2025-01-29 15:15:08,0.0
273.60000000000036,1055.6,1412.4,3716.1,2919.9,-1271.4,2025-01-29 15:15:08,0.0
-1166.3999999999996,907.6,1932.4,3978.1,4337.9,-772.4,2025-01-29 15:15:08,0.0
-2294.3999999999996,1687.6,2532.4,4476.1,5191.9,82.6,2025-01-29 15:15:08,0.0
-2950.3999999999996,3047.6,3184.4,5091.1,4492.9,1503.6,2025-01-29 15:15:08,0.0
-3294.3999999999996,2895.6,3588.4,4919.1,3180.9,2500.6,2025-01-29 15:15:08,0.0
-3886.3999999999996,1875.6,4044.4,4798.1,2921.9,3204.6,2025-01-29 15:15:09,0.0
-4726.4,863.6,2964.4,5216.1,4003.9,3748.6,2025-01-29 15:15:09,0.0
-5070.4,663.6,896.4,5714.1,5289.9,4222.6,2025-01-29 15:15:09,0.0
-5010.4,2571.6,176.39999999999998,5764.1,4809.9,4751.6,2025-01-29 15:15:09,0.0
-4854.4,4951.6,-1279.6,5011.1,3128.9,5283.6,2025-01-29 15:15:09,0.0
-4574.4,6771.6,-2343.6,3036.1,1031.9,5532.6,2025-01-29 15:15:09,0.0
-3302.3999999999996,7807.6,-1819.6,63.099999999999994,-1452.1,4939.6,2025-01-29 15:15:09,0.0
157.60000000000036,6219.6,-539.6,-2599.9,-4329.1,1683.6,2025-01-29 15:15:09,0.0
1885.6000000000004,2839.6,-1383.6,-4046.9,-7036.1,-2579.4,2025-01-29 15:15:09,0.0
889.6000000000004,687.6,-1959.6,-4663.9,-9315.1,-4649.4,2025-01-29 15:15:09,0.0
-90.39999999999964,-1356.4,-1651.6,-4048.9,-11360.1,-4165.4,2025-01-29 15:15:09,0.0
309.60000000000036,-2960.4,-1663.6,-3484.9,-11208.1,-2423.4,2025-01-29 15:15:09,0.0
1801.6000000000004,-3188.4,-1759.6,-3198.9,-7356.1,-793.4,2025-01-29 15:15:09,0.0
3593.6000000000004,-2084.4,-1679.6,-2178.9,-424.1,-431.4,2025-01-29 15:15:09,0.0
3589.6000000000004,-1148.4,-919.6,-962.9,5535.9,-1192.4,2025-01-29 15:15:09,0.0
3089.6000000000004,247.60000000000002,-1075.6,-355.9,9025.9,-1704.4,2025-01-29 15:15:09,0.0
1929.6000000000004,1111.6,372.4,-46.900000000000006,10971.9,-2220.4,2025-01-29 15:15:09,0.0
1037.6000000000004,1647.6,428.4,-231.9,11578.9,-2820.4,2025-01-29 15:15:09,0.0
-578.3999999999996,1491.6,4.399999999999977,-1013.9,10579.9,-3133.4,2025-01-29 15:15:09,0.0
-1850.3999999999996,467.6,-67.60000000000002,-2148.9,7744.9,-3612.4,2025-01-29 15:15:09,0.0
-2478.3999999999996,-872.4,-151.60000000000002,-2751.9,3535.9,-4121.4,2025-01-29 15:15:09,0.0
-2418.3999999999996,-1620.4,-39.60000000000002,-2819.9,-1392.1,-4011.4,2025-01-29 15:15:09,0.0
-1330.3999999999996,-1580.4,-111.60000000000002,-2607.9,-6201.1,-3038.4,2025-01-29 15:15:09,0.0
225.60000000000036,-796.4,832.4,-2292.9,-8721.1,-2175.4,2025-01-29 15:15:09,0.0
2105.6000000000004,-148.39999999999998,828.4,-2075.9,-9363.1,-1815.4,2025-01-29 15:15:09,0.0
3257.6000000000004,151.60000000000002,352.4,-2084.9,-8041.1,-1932.4,2025-01-29 15:15:09,0.0
3837.6000000000004,-284.4,376.4,-2477.9,-4504.1,-2411.4,2025-01-29 15:15:09,0.0
3637.6000000000004,-832.4,708.4,-2735.9,-1030.1,-2761.4,2025-01-29 15:15:09,0.0
3161.6000000000004,-1308.4,860.4,-2636.9,1680.9,-2721.4,2025-01-29 15:15:09,0.0
2269.6000000000004,-1012.4,1128.4,-2296.9,3107.9,-2041.4,2025-01-29 15:15:09,0.0
1373.6000000000004,-388.4,1456.4,-2065.9,3491.9,-1355.4,2025-01-29 15:15:09,0.0
525.6000000000004,219.60000000000002,1580.4,-2086.9,3523.9,-571.4,2025-01-29 15:15:09,0.0
-102.39999999999964,483.6,1516.4,-2434.9,3238.9,253.6,2025-01-29 15:15:09,0.0
-90.39999999999964,499.6,2212.4,-2709.9,2337.9,1100.6,2025-01-29 15:15:09,0.0
93.60000000000036,435.6,2592.4,-2657.9,1044.9,1702.6,2025-01-29 15:15:09,0.0
77.60000000000036,107.60000000000002,2352.4,-2545.9,18.900000000000006,2257.6,2025-01-29 15:15:09,0.0
353.60000000000036,-200.39999999999998,2108.4,-2650.9,-231.1,2449.6,2025-01-29 15:15:09,0.0
809.6000000000004,-616.4,2208.4,-2928.9,257.9,2237.6,2025-01-29 15:15:09,0.0
545.6000000000004,-864.4,2524.4,-3266.9,863.9,1869.6,2025-01-29 15:15:09,0.0
185.60000000000036,-1024.4,2120.4,-3483.9,1163.9,1601.6,2025-01-29 15:15:09,0.0
265.60000000000036,-784.4,1400.4,-3737.9,994.9,1137.6,2025-01-29 15:15:09,0.0
205.60000000000036,-216.39999999999998,1036.4,-4217.9,534.9,549.6,2025-01-29 15:15:09,0.0
-150.39999999999964,259.6,1824.4,-4810.9,311.9,-81.4,2025-01-29 15:15:09,0.0
-850.3999999999996,-60.39999999999998,2632.4,-5245.9,793.9,-437.4,2025-01-29 15:15:09,0.0
-1742.3999999999996,-812.4,3464.4,-5820.9,1397.9,-825.4,2025-01-29 15:15:09,0.0
-2638.3999999999996,-1044.4,4044.4,-6334.9,1035.9,-1448.4,2025-01-29 15:15:09,0.0
-3410.3999999999996,-1644.4,4312.4,-6109.9,-296.1,-1524.4,2025-01-29 15:15:09,0.0
-4078.3999999999996,-1508.4,2936.4,-5306.9,-779.1,-1438.4,2025-01-29 15:15:09,0.0
-3118.3999999999996,-1268.4,588.4,-5021.9,-1293.1,-2024.4,2025-01-29 15:15:09,0.0
-1842.3999999999996,-2872.4,1464.4,-4572.9,-1224.1,-3968.4,2025-01-29 15:15:09,0.0
-2318.3999999999996,-4716.4,2356.4,-3024.9,-1093.1,-6160.4,2025-01-29 15:15:09,0.0
-3986.3999999999996,-5968.4,2564.4,-369.9,-1750.1,-6729.4,2025-01-29 15:15:09,0.0
-6918.4,-5520.4,2492.4,2185.1,-3137.1,-4302.4,2025-01-29 15:15:09,0.0
-6342.4,-1784.4,1476.4,3835.1,-5727.1,312.6,2025-01-29 15:15:09,0.0
-3602.3999999999996,739.6,-1643.6,3967.1,-8801.1,2773.6,2025-01-29 15:15:09,0.0
-870.3999999999996,2239.6,-4363.6,2826.1,-12042.1,4661.6,2025-01-29 15:15:09,0.0
2701.6000000000004,3075.6,-5635.6,929.1,-13954.1,4732.6,2025-01-29 15:15:09,
4925.6,4067.6,-5443.6,-1325.9,-11890.1,2904.6,2025-01-29 15:15:09,0.0
5361.6,4579.6,-4035.6,-3227.9,-4390.1,697.6,2025-01-29 15:15:09,0.0
2873.6000000000004,3263.6,-3287.6,-4061.9,5280.9,-613.4,2025-01-29 15:15:09,0.0
761.6000000000004,1291.6,-1267.6,-3311.9,10783.9,-626.4,2025-01-29 15:15:09,0.0
-1190.3999999999996,-348.4,1324.4,-2134.9,13595.9,-110.4,2025-01-29 15:15:10,0.0
-1886.3999999999996,-1244.4,2136.4,-1169.9,11411.9,858.6,2025-01-29 15:15:10,0.0
-2534.3999999999996,-1624.4,2136.4,-46.900000000000006,6613.9,1700.6,2025-01-29 15:15:10,0.0
-2734.3999999999996,-1384.4,1900.4,1077.1,1437.9,2449.6,2025-01-29 15:15:10,0.0
-2058.3999999999996,-652.4,1412.4,1781.1,-2687.1,3115.6,2025-01-29 15:15:10,0.0
-510.39999999999964,35.60000000000002,1444.4,2385.1,-5018.1,3477.6,2025-01-29 15:15:10,0.0
1029.6000000000004,963.6,1240.4,2905.1,-6105.1,3548.6,2025-01-29 15:15:10,0.0
2221.6000000000004,1875.6,1068.4,3228.1,-6122.1,3366.6,2025-01-29 15:15:10,0.0
3237.6000000000004,2751.6,492.4,3162.1,-4699.1,2930.6,2025-01-29 15:15:10,0.0
3389.6000000000004,2991.6,272.4,2593.1,-1466.1,2297.6,2025-01-29 15:15:10,0.0
3193.6000000000004,2655.6,808.4,2126.1,1728.9,1562.6,2025-01-29 15:15:10,0.0
2817.6000000000004,2095.6,964.4,1931.1,3654.9,1087.6,2025-01-29 15:15:10,0.0
1585.6000000000004,1711.6,2000.4,2045.1,3885.9,886.6,2025-01-29 15:15:10,0.0
673.6000000000004,1523.6,2828.4,2201.1,2776.9,882.6,2025-01-29 15:15:10,0.0
565.6000000000004,1595.6,2860.4,2306.1,1000.9,623.6,2025-01-29 15:15:10,0.0
945.6000000000004,1771.6,2492.4,2220.1,-505.1,102.6,2025-01-29 15:15:10,0.0
1237.6000000000004,1987.6,2548.4,2087.1,-1421.1,-552.4,2025-01-29 15:15:10,0.0
1029.6000000000004,1831.6,2664.4,2177.1,-1687.1,-980.4,2025-01-29 15:15:10,0.0
901.6000000000004,1455.6,2808.4,2195.1,-1570.1,-1057.4,2025-01-29 15:15:10,0.0
541.6000000000004,1343.6,2552.4,2218.1,-1539.1,-1041.4,2025-01-29 15:15:10,0.0
821.6000000000004,1167.6,2108.4,2139.1,-1690.1,-1076.4,2025-01-29 15:15:10,0.0
1017.6000000000004,1271.6,2084.4,2110.1,-1689.1,-1228.4,2025-01-29 15:15:10,0.0
713.6000000000004,1395.6,1944.4,2170.1,-1230.1,-1222.4,2025-01-29 15:15:10,0.0
1049.6000000000004,1387.6,1960.4,2335.1,-761.1,-1038.4,2025-01-29 15:15:10,0.0
1225.6000000000004,1635.6,1956.4,2699.1,-236.1,-1001.4,2025-01-29 15:15:10,0.0
1065.6000000000004,1883.6,2284.4,2908.1,554.9,-911.4,2025-01-29 15:15:10,0.0
985.6000000000004,1687.6,2924.4,3159.1,1735.9,-944.4,2025-01-29 15:15:10,0.0
-246.39999999999964,1471.6,2908.4,3451.1,3177.9,-792.4,2025-01-29 15:15:10,0.0
-830.3999999999996,1567.6,2508.4,3737.1,3745.9,-204.4,2025-01-29 15:15:10,0.0
-782.3999999999996,1907.6,2144.4,3919.1,3271.9,308.6,2025-01-29 15:15:10,0.0
-774.3999999999996,2599.6,2120.4,3824.1,2438.9,644.6,2025-01-29 15:15:10,0.0
-466.39999999999964,3279.6,2592.4,3688.1,2196.9,878.6,2025-01-29 15:15:10,0.0
-1014.3999999999996,3599.6,2392.4,3588.1,3410.9,995.6,2025-01-29 15:15:10,0.0
-2290.3999999999996,2803.6,1740.4,3397.1,6133.9,1143.6,2025-01-29 15:15:10,0.0
-4518.4,1903.6,1488.4,3218.1,8546.9,1678.6,2025-01-29 15:15:10,0.0
-6138.4,2595.6,1612.4,3419.1,8758.9,2641.6,2025-01-29 15:15:10,0.0
-6918.4,4215.6,-771.6,3050.1,6461.9,4290.6,2025-01-29 15:15:10,0.0
-5946.4,4767.6,-3415.6,1158.1,2725.9,5097.6,2025-01-29 15:15:10,0.0
-4366.4,5151.6,-3775.6,-1480.9,-1594.1,4797.6,2025-01-29 15:15:10,0.0
-906.3999999999996,3767.6,-1323.6,-3182.9,-4968.1,2581.6,2025-01-29 15:15:10,0.0
749.6000000000004,1663.6,84.39999999999998,-3707.9,-6866.1,-775.4,2025-01-29 15:15:10,0.0
1273.6000000000004,207.60000000000002,-775.6,-3490.9,-8593.1,-3231.4,2025-01-29 15:15:10,0.0
1053.6000000000004,-560.4,-2215.6,-2709.9,-10564.1,-3657.4,2025-01-29 15:15:10,0.0
1533.6000000000004,-1824.4,-2987.6,-2172.9,-11673.1,-2861.4,2025-01-29 15:15:10,0.0
2381.6000000000004,-2772.4,-2399.6,-1991.9,-10400.1,-1698.4,2025-01-29 15:15:10,0.0
3017.6000000000004,-2288.4,-1499.6,-1676.9,-4447.1,-309.4,2025-01-29 15:15:10,0.0
3601.6000000000004,-984.4,-1227.6,-315.9,3958.9,167.6,2025-01-29 15:15:10,0.0
2885.6000000000004,167.60000000000002,-1595.6,334.1,9058.9,69.6,2025-01-29 15:15:10,0.0
1749.6000000000004,1143.6,360.4,352.1,12060.9,-312.4,2025-01-29 15:15:10,0.0
385.60000000000036,1515.6,1032.4,-62.900000000000006,13809.9,-1248.4,2025-01-29 15:15:10,0.0
-1982.3999999999996,1259.6,892.4,-856.9,12993.9,-1840.4,2025-01-29 15:15:10,0.0
-2786.3999999999996,715.6,-615.6,-1680.9,9719.9,-2225.4,2025-01-29 15:15:10,0.0
-3642.3999999999996,299.6,-803.6,-2585.9,3667.9,-2522.4,2025-01-29 15:15:10,0.0
-3218.3999999999996,-732.4,1112.4,-3012.9,-2938.1,-2507.4,2025-01-29 15:15:10,0.0
-414.39999999999964,-1092.4,-83.60000000000002,-3233.9,-7595.1,-2309.4,2025-01-29 15:15:10,0.0
429.60000000000036,-1152.4,708.4,-3072.9,-8881.1,-2078.4,2025-01-29 15:15:10,0.0
1745.6000000000004,-1056.4,512.4,-2956.9,-8252.1,-1894.4,2025-01-29 15:15:10,0.0
2933.6000000000004,-808.4,336.4,-2752.9,-6105.1,-2026.4,2025-01-29 15:15:10,0.0
3385.6000000000004,-584.4,32.39999999999998,-2669.9,-1492.1,-2440.4,2025-01-29 15:15:10,0.0
3085.6000000000004,-720.4,-95.60000000000002,-2651.9,1784.9,-2655.4,2025-01-29 15:15:10,0.0
1953.6000000000004,-768.4,400.4,-2850.9,3514.9,-2662.4,2025-01-29 15:15:10,0.0
421.60000000000036,-516.4,1120.4,-2922.9,4196.9,-2334.4,2025-01-29 15:15:11,0.0
-606.3999999999996,31.600000000000023,1504.4,-2847.9,3995.9,-1683.4,2025-01-29 15:15:11,0.0
-1022.3999999999996,435.6,1640.4,-2854.9,2913.9,-888.4,2025-01-29 15:15:11,0.0
-778.3999999999996,475.6,1896.4,-2960.9,494.9,-2.4000000000000057,2025-01-29 15:15:11,0.0
-414.39999999999964,375.6,2272.4,-2914.9,-1777.1,779.6,2025-01-29 15:15:11,0.0
325.60000000000036,-72.39999999999998,1888.4,-2794.9,-2503.1,1362.6,2025-01-29 15:15:11,0.0
1021.6000000000004,-40.39999999999998,1608.4,-2612.9,-2544.1,1795.6,2025-01-29 15:15:11,0.0
1213.6000000000004,-404.4,1624.4,-2561.9,-2376.1,2165.6,2025-01-29 15:15:11,0.0
941.6000000000004,-476.4,1656.4,-2327.9,-2177.1,2610.6,2025-01-29 15:15:11,0.0
857.6000000000004,-556.4,1888.4,-2151.9,-1950.1,2993.6,2025-01-29 15:15:11,0.0
901.6000000000004,-548.4,1720.4,-2158.9,-1637.1,3198.6,2025-01-29 15:15:11,0.0
841.6000000000004,-472.4,1384.4,-2082.9,-1672.1,3269.6,2025-01-29 15:15:11,0.0
1101.6000000000004,-376.4,828.4,-2182.9,-1915.1,3096.6,2025-01-29 15:15:11,0.0
1249.6000000000004,411.6,732.4,-2574.9,-1689.1,2667.6,2025-01-29 15:15:11,0.0
881.6000000000004,1479.6,1476.4,-3144.9,-305.1,2067.6,2025-01-29 15:15:11,0.0
-214.39999999999964,2759.6,1856.4,-3801.9,1484.9,1684.6,2025-01-29 15:15:11,0.0
-982.3999999999996,2043.6,1796.4,-4700.9,2231.9,1020.6,2025-01-29 15:15:11,0.0
-1538.3999999999996,275.6,1936.4,-5408.9,987.9,334.6,2025-01-29 15:15:11,0.0
-1726.3999999999996,-1116.4,2792.4,-5874.9,-1554.1,-256.4,2025-01-29 15:15:11,0.0
-1690.3999999999996,-1420.4,4396.4,-5709.9,-3615.1,-581.4,2025-01-29 15:15:11,0.0
21.600000000000364,-1092.4,4268.4,-5540.9,-3534.1,-958.4,2025-01-29 15:15:11,0.0
481.60000000000036,-848.4,4400.4,-5402.9,-868.1,-1444.4,2025-01-29 15:15:11,0.0
-926.3999999999996,-1244.4,2384.4,-4935.9,3435.9,-1624.4,2025-01-29 15:15:11,0.0
-2178.3999999999996,-1644.4,-75.60000000000002,-5103.9,5648.9,-2154.4,2025-01-29 15:15:11,0.0
-2710.3999999999996,-3436.4,1284.4,-4843.9,6457.9,-3437.4,2025-01-29 15:15:11,0.0
-3702.3999999999996,-4688.4,2488.4,-3117.9,6072.9,-4998.4,2025-01-29 15:15:11,0.0
-5970.4,-4708.4,2852.4,-290.9,3941.9,-5197.4,2025-01-29 15:15:11,0.0
-7122.4,-3172.4,1360.4,2461.1,231.9,-3911.4,2025-01-29 15:15:11,0.0
-6834.4,79.60000000000002,232.39999999999998,3528.1,-5465.1,-1145.4,2025-01-29 15:15:11,0.0
-3886.3999999999996,2815.6,20.399999999999977,3682.1,-9924.1,1231.6,2025-01-29 15:15:11,0.0
-794.3999999999996,3743.6,-2455.6,2734.1,-12653.1,3772.6,2025-01-29 15:15:11,0.0
3129.6000000000004,3339.6,-4775.6,1344.1,-12126.1,4704.6,2025-01-29 15:15:11,0.0
4765.6,3047.6,-5287.6,-298.9,-8771.1,3733.6,2025-01-29 15:15:11,0.0
6617.6,2659.6,-4659.6,-1805.9,-3472.1,1574.6,2025-01-29 15:15:11,0.0
5713.6,1931.6,-5031.6,-2560.9,5203.9,-881.4,2025-01-29 15:15:11,
4425.6,1711.6,-3439.6,-2296.9,9294.9,-1793.4,2025-01-29 15:15:11,0.0
3689.6000000000004,1831.6,-2995.6,-1672.9,10708.9,-2510.4,2025-01-29 15:15:11,0.0
837.6000000000004,1875.6,-2099.6,-1764.9,11348.9,-2844.4,2025-01-29 15:15:11,0.0
-106.39999999999964,1107.6,-1759.6,-2093.9,10949.9,-2931.4,2025-01-29 15:15:11,0.0
-1930.3999999999996,639.6,-1103.6,-1939.9,10089.9,-2318.4,2025-01-29 15:15:11,0.0
-3214.3999999999996,599.6,-807.6,-1252.9,8629.9,-1160.4,2025-01-29 15:15:11,0.0
-4554.4,1139.6,-1839.6,-557.9,5677.9,707.6,2025-01-29 15:15:11,0.0
-3994.3999999999996,1683.6,-1383.6,-256.9,1992.9,1907.6,2025-01-29 15:15:11,0.0
-2038.3999999999996,1363.6,-1583.6,157.1,-1501.1,2352.6,2025-01-29 15:15:11,0.0
-474.39999999999964,1255.6,-1767.6,262.1,-3165.1,2427.6,2025-01-29 15:15:11,0.0
1817.6000000000004,1375.6,-2771.6,173.1,-2762.1,2320.6,2025-01-29 15:15:11,0.0
2049.6000000000004,1435.6,-2107.6,-16.900000000000006,-774.1,1974.6,2025-01-29 15:15:11,0.0
2425.6000000000004,1555.6,-2091.6,-419.9,1804.9,1499.6,2025-01-29 15:15:11,0.0
1505.6000000000004,1751.6,-1459.6,-728.9,3819.9,1060.6,2025-01-29 15:15:11,0.0
833.6000000000004,1911.6,-1099.6,-846.9,4064.9,793.6,2025-01-29 15:15:11,0.0
169.60000000000036,2023.6,-471.6,-805.9,3271.9,659.6,2025-01-29 15:15:11,0.0
77.60000000000036,1851.6,-331.6,-581.9,2149.9,597.6,2025-01-29 15:15:11,0.0
373.60000000000036,1475.6,-367.6,-237.9,1725.9,494.6,2025-01-29 15:15:11,0.0
361.60000000000036,1311.6,-711.6,122.1,1908.9,421.6,2025-01-29 15:15:11,0.0
413.60000000000036,1243.6,-739.6,478.1,2219.9,426.6,2025-01-29 15:15:11,0.0
405.60000000000036,1043.6,-819.6,860.1,2226.9,418.6,2025-01-29 15:15:11,0.0
377.60000000000036,659.6,-1115.6,1380.1,1967.9,419.6,2025-01-29 15:15:11,0.0
241.60000000000036,659.6,-1447.6,1828.1,1487.9,325.6,2025-01-29 15:15:11,0.0
489.60000000000036,711.6,-1583.6,2250.1,713.9,221.6,2025-01-29 15:15:12,0.0
681.6000000000004,1099.6,-1647.6,2806.1,58.900000000000006,238.6,2025-01-29 15:15:12,0.0
449.60000000000036,1255.6,-2243.6,3228.1,-129.1,347.6,2025-01-29 15:15:12,0.0
821.6000000000004,1167.6,-2439.6,3483.1,-247.1,508.6,2025-01-29 15:15:12,0.0
1293.6000000000004,875.6,-2383.6,3593.1,-891.1,436.6,2025-01-29 15:15:12,0.0
1737.6000000000004,643.6,-2383.6,3784.1,-2036.1,392.6,2025-01-29 15:15:12,0.0
2157.6000000000004,895.6,-2191.6,4036.1,-3125.1,273.6,2025-01-29 15:15:12,0.0
2693.6000000000004,1339.6,-2143.6,4431.1,-3914.1,-115.4,2025-01-29 15:15:12,0.0
3153.6000000000004,1863.6,-2579.6,4685.1,-5417.1,-219.4,2025-01-29 15:15:12,0.0
3945.6000000000004,1927.6,-2639.6,4538.1,-7492.1,-19.400000000000006,2025-01-29 15:15:12,0.0
5173.6,1959.6,-1867.6,3932.1,-8773.1,203.6,2025-01-29 15:15:12,0.0
6797.6,2371.6,-695.6,3017.1,-9320.1,548.6,2025-01-29 15:15:12,0.0
7245.6,2979.6,-831.6,1948.1,-7694.1,564.6,2025-01-29 15:15:12,0.0
6985.6,3695.6,-731.6,454.1,-3945.1,-47.400000000000006,2025-01-29 15:15:12,0.0
6189.6,3047.6,424.4,-970.9,-695.1,-744.4,2025-01-29 15:15:12,0.0
4637.6,1507.6,2328.4,-1404.9,1040.9,-1090.4,2025-01-29 15:15:12,0.0
2629.6000000000004,-356.4,4148.4,-431.9,1552.9,-453.4,2025-01-29 15:15:12,0.0
1525.6000000000004,-404.4,3652.4,435.1,1274.9,664.6,2025-01-29 15:15:12,0.0
1945.6000000000004,419.6,3176.4,267.1,105.9,884.6,2025-01-29 15:15:12,0.0
2433.6000000000004,39.60000000000002,3400.4,736.1,-2490.1,466.6,2025-01-29 15:15:12,0.0
2753.6000000000004,-636.4,884.4,900.1,-5266.1,-74.4,2025-01-29 15:15:12,0.0
2361.6000000000004,-656.4,-687.6,248.1,-6853.1,-340.4,2025-01-29 15:15:12,0.0
2753.6000000000004,-144.39999999999998,-163.60000000000002,-168.9,-6507.1,-53.400000000000006,2025-01-29 15:15:12,0.0
3653.6000000000004,-216.39999999999998,812.4,150.1,-5015.1,-425.4,2025-01-29 15:15:12,0.0
3369.6000000000004,-288.4,1364.4,112.1,-3151.1,-933.4,2025-01-29 15:15:12,0.0
2497.6000000000004,-640.4,1456.4,-303.9,-1373.1,-1291.4,2025-01-29 15:15:12,0.0
1197.6000000000004,-1088.4,788.4,-864.9,70.9,-1887.4,2025-01-29 15:15:12,0.0
-402.39999999999964,-452.4,596.4,-1055.9,464.9,-1932.4,2025-01-29 15:15:12,0.0
-614.3999999999996,543.6,1156.4,-194.9,-3538.1,-383.4,2025-01-29 15:15:12,0.0
-510.39999999999964,767.6,488.4,-451.9,-4957.1,-41.400000000000006,2025-01-29 15:15:12,0.0
-2046.3999999999996,1039.6,2620.4,-743.9,-3994.1,342.6,2025-01-29 15:15:12,0.0
-2382.3999999999996,455.6,3700.4,-467.9,-2661.1,617.6,2025-01-29 15:15:12,0.0
-2210.3999999999996,-8.399999999999977,3340.4,-431.9,-3987.1,1150.6,2025-01-29 15:15:12,0.0
-642.3999999999996,-796.4,1724.4,-392.9,-7147.1,1373.6,2025-01-29 15:15:12,0.0
117.60000000000036,-408.4,616.4,-687.9,-9087.1,1787.6,2025-01-29 15:15:12,0.0
-562.3999999999996,-276.4,1432.4,-770.9,-8063.1,1609.6,2025-01-29 15:15:12,0.0
-1966.3999999999996,-396.4,3060.4,-266.9,-6258.1,1545.6,2025-01-29 15:15:12,0.0
-1922.3999999999996,-196.39999999999998,4244.4,-127.9,-5068.1,1077.6,2025-01-29 15:15:12,0.0
-2278.3999999999996,295.6,3992.4,-367.9,-6899.1,89.6,2025-01-29 15:15:12,0.0
-2246.3999999999996,1311.6,4916.4,-384.9,-9184.1,-426.4,2025-01-29 15:15:12,0.0
-2206.3999999999996,1803.6,4244.4,-937.9,-11148.1,-324.4,2025-01-29 15:15:12,0.0
-1174.3999999999996,1819.6,5060.4,-916.9,-12464.1,406.6,2025-01-29 15:15:12,0.0
-782.3999999999996,1135.6,5916.4,-776.9,-12700.1,765.6,2025-01-29 15:15:12,0.0
-62.399999999999636,931.6,5812.4,-154.9,-12840.1,578.6,2025-01-29 15:15:12,0.0
225.60000000000036,563.6,6320.4,-340.9,-12459.1,83.6,2025-01-29 15:15:12,0.0
-966.3999999999996,1079.6,6024.4,-646.9,-11713.1,-290.4,2025-01-29 15:15:12,0.0
-1234.3999999999996,1871.6,8040.4,-1159.9,-10606.1,-165.4,2025-01-29 15:15:12,0.0
-1358.3999999999996,1683.6,7728.4,-788.9,-9391.1,31.599999999999994,2025-01-29 15:15:12,0.0
-902.3999999999996,1159.6,7908.4,-541.9,-8514.1,625.6,2025-01-29 15:15:12,0.0
-710.3999999999996,-84.39999999999998,8504.4,-41.900000000000006,-7657.1,1004.6,2025-01-29 15:15:12,0.0
-526.3999999999996,-1060.4,8140.4,326.1,-6803.1,822.6,2025-01-29 15:15:12,0.0
-1598.3999999999996,-8.399999999999977,9188.4,399.1,-7001.1,391.6,2025-01-29 15:15:12,0.0
-1726.3999999999996,1319.6,10532.4,569.1,-7683.1,478.6,2025-01-29 15:15:12,0.0
-870.3999999999996,1383.6,10352.4,778.1,-8705.1,585.6,2025-01-29 15:15:12,0.0
-1034.3999999999996,915.6,9900.4,717.1,-9307.1,325.6,2025-01-29 15:15:12,0.0
-1962.3999999999996,775.6,11388.4,407.1,-10036.1,86.6,2025-01-29 15:15:12,0.0
-1314.3999999999996,1283.6,11316.4,-12.900000000000006,-10339.1,-294.4,2025-01-29 15:15:12,0.0
-1806.3999999999996,1859.6,12088.4,-384.9,-11777.1,-290.4,2025-01-29 15:15:12,0.0
41.600000000000364,1423.6,12724.4,-591.9,-13882.1,404.6,2025-01-29 15:15:12,0.0
1085.6000000000004,907.6,12848.4,-490.9,-16082.1,1024.6,2025-01-29 15:15:12,0.0
1801.6000000000004,727.6,12512.4,-295.9,-17104.1,1086.6,2025-01-29 15:15:12,0.0
2501.6000000000004,1087.6,11476.4,-653.9,-15999.1,833.6,2025-01-29 15:15:12,0.0
2533.6000000000004,523.6,12904.4,-875.9,-13795.1,633.6,2025-01-29 15:15:12,0.0
1933.6000000000004,419.6,13660.4,-1228.9,-12604.1,107.6,2025-01-29 15:15:12,0.0
1997.6000000000004,663.6,15568.4,-738.9,-13302.1,186.6,2025-01-29 15:15:13,0.0
2821.6000000000004,119.60000000000002,15020.4,-247.9,-13193.1,482.6,2025-01-29 15:15:13,0.0
3565.6000000000004,-44.39999999999998,15608.4,123.1,-11846.1,282.6,2025-01-29 15:15:13,0.0
3385.6000000000004,179.60000000000002,15768.4,94.1,-9556.1,-240.4,2025-01-29 15:15:13,0.0
3309.6000000000004,923.6,16268.4,-8.900000000000006,-6675.1,-794.4,2025-01-29 15:15:13,0.0
3837.6000000000004,1223.6,16220.4,63.099999999999994,-3605.1,-1092.4,2025-01-29 15:15:13,0.0
3825.6000000000004,1187.6,16912.4,358.1,-1762.1,-1086.4,2025-01-29 15:15:13,0.0
3621.6000000000004,1331.6,16948.4,656.1,-492.1,-885.4,2025-01-29 15:15:13,0.0
3225.6000000000004,1231.6,16880.4,671.1,-322.1,-567.4,2025-01-29 15:15:13,0.0
3129.6000000000004,1003.6,16828.4,541.1,-413.1,-389.4,2025-01-29 15:15:13,0.0
3713.6000000000004,1027.6,16288.4,259.1,-294.1,-267.4,2025-01-29 15:15:13,0.0
4421.6,839.6,15664.4,9.099999999999994,-182.1,-91.4,2025-01-29 15:15:13,0.0
5157.6,311.6,15240.4,-123.9,32.900000000000006,-94.4,2025-01-29 15:15:13,
5377.6,203.60000000000002,14792.4,-110.9,396.9,-110.4,2025-01-29 15:15:13,0.0
5793.6,95.60000000000002,14532.4,-121.9,1047.9,-183.4,2025-01-29 15:15:13,0.0
6189.6,19.600000000000023,13892.4,-239.9,1899.9,-416.4,2025-01-29 15:15:13,0.0
6609.6,531.6,13224.4,-613.9,3171.9,-697.4,2025-01-29 15:15:13,0.0
6085.6,1127.6,14152.4,-631.9,3584.9,-452.4,2025-01-29 15:15:13,0.0
5909.6,1295.6,14340.4,-593.9,2862.9,-147.4,2025-01-29 15:15:13,0.0
5629.6,899.6,14640.4,-515.9,2016.9,11.599999999999994,2025-01-29 15:15:13,0.0
5401.6,799.6,14836.4,-439.9,1079.9,104.6,2025-01-29 15:15:13,0.0
5513.6,719.6,14980.4,-388.9,169.9,130.6,2025-01-29 15:15:13,0.0
5521.6,967.6,14472.4,-348.9,-277.1,187.6,2025-01-29 15:15:13,0.0
5781.6,1067.6,13772.4,-267.9,-219.1,260.6,2025-01-29 15:15:13,0.0
5637.6,863.6,14376.4,-121.9,91.9,361.6,2025-01-29 15:15:13,0.0
5309.6,167.60000000000002,14932.4,28.099999999999994,-266.1,184.6,2025-01-29 15:15:13,0.0
5089.6,-56.39999999999998,15192.4,262.1,-895.1,-13.400000000000006,2025-01-29 15:15:13,0.0
4813.6,263.6,14892.4,435.1,-1371.1,-108.4,2025-01-29 15:15:13,0.0
4989.6,535.6,14712.4,441.1,-1401.1,-107.4,2025-01-29 15:15:13,0.0
5433.6,1211.6,14076.4,276.1,-931.1,-93.4,2025-01-29 15:15:13,0.0
5665.6,1611.6,14160.4,22.099999999999994,-2.0999999999999943,13.599999999999994,2025-01-29 15:15:13,0.0
5257.6,1391.6,14692.4,-161.9,295.9,221.6,2025-01-29 15:15:13,0.0
4921.6,583.6,15492.4,-203.9,-270.1,354.6,2025-01-29 15:15:13,0.0
5101.6,267.6,15232.4,-202.9,-942.1,349.6,2025-01-29 15:15:13,0.0
4997.6,343.6,14988.4,-170.9,-1081.1,262.6,2025-01-29 15:15:13,0.0
4669.6,671.6,15028.4,-113.9,-1205.1,277.6,2025-01-29 15:15:13,0.0
4917.6,-4.399999999999977,15000.4,236.1,-892.1,229.6,2025-01-29 15:15:13,0.0
5353.6,371.6,14808.4,465.1,-356.1,187.6,2025-01-29 15:15:13,0.0
5381.6,967.6,14664.4,452.1,132.9,183.6,2025-01-29 15:15:13,0.0
4913.6,1711.6,14892.4,259.1,577.9,343.6,2025-01-29 15:15:13,0.0
4829.6,1707.6,15176.4,193.1,737.9,561.6,2025-01-29 15:15:13,0.0
4665.6,1287.6,15236.4,212.1,428.9,737.6,2025-01-29 15:15:13,0.0
5269.6,915.6,14952.4,143.1,21.900000000000006,753.6,2025-01-29 15:15:13,0.0
5485.6,667.6,14960.4,79.1,53.900000000000006,624.6,2025-01-29 15:15:13,0.0
5645.6,815.6,14816.4,115.1,308.9,532.6,2025-01-29 15:15:13,0.0
5593.6,1015.6,14716.4,66.1,546.9,428.6,2025-01-29 15:15:13,0.0
5249.6,1371.6,14620.4,-94.9,526.9,450.6,2025-01-29 15:15:13,0.0
5117.6,1595.6,14652.4,-254.9,309.9,526.6,2025-01-29 15:15:13,0.0
5061.6,1319.6,14992.4,-304.9,45.900000000000006,593.6,2025-01-29 15:15:13,0.0
5317.6,787.6,14980.4,-280.9,-213.1,561.6,2025-01-29 15:15:13,0.0
5329.6,635.6,15004.4,-190.9,-412.1,411.6,2025-01-29 15:15:13,0.0
5341.6,531.6,14772.4,-50.900000000000006,-451.1,313.6,2025-01-29 15:15:13,0.0
5361.6,967.6,14792.4,119.1,-325.1,326.6,2025-01-29 15:15:13,0.0
5445.6,1195.6,14664.4,230.1,-5.099999999999994,369.6,2025-01-29 15:15:13,0.0
5113.6,1443.6,14604.4,205.1,298.9,419.6,2025-01-29 15:15:13,0.0
5173.6,1679.6,14804.4,64.1,338.9,486.6,2025-01-29 15:15:13,0.0
5141.6,1603.6,14948.4,-104.9,165.9,497.6,2025-01-29 15:15:13,0.0
5133.6,1283.6,15196.4,-232.9,-81.1,419.6,2025-01-29 15:15:13,0.0
4917.6,959.6,15368.4,-287.9,-357.1,348.6,2025-01-29 15:15:13,0.0
4993.6,683.6,15204.4,-335.9,-691.1,191.6,2025-01-29 15:15:13,0.0
4897.6,799.6,15240.4,-297.9,-1053.1,106.6,2025-01-29 15:15:14,0.0
5025.6,867.6,15068.4,-209.9,-1440.1,66.6,2025-01-29 15:15:14,0.0
5261.6,911.6,14936.4,-240.9,-1500.1,-37.400000000000006,2025-01-29 15:15:14,0.0
5221.6,719.6,14616.4,-171.9,-1057.1,-152.4,2025-01-29 15:15:14,0.0
5197.6,695.6,14152.4,-1.9000000000000057,-456.1,-306.4,2025-01-29 15:15:14,0.0
5065.6,839.6,14404.4,12.099999999999994,-211.1,-332.4,2025-01-29 15:15:14,0.0
5093.6,1279.6,14320.4,-24.900000000000006,-198.1,-236.4,2025-01-29 15:15:14,0.0
5153.6,1539.6,14852.4,-81.9,-408.1,-138.4,2025-01-29 15:15:14,0.0
5329.6,1911.6,14732.4,-209.9,-785.1,32.599999999999994,2025-01-29 15:15:14,0.0
5201.6,1643.6,14732.4,-359.9,-824.1,143.6,2025-01-29 15:15:14,0.0
5385.6,1447.6,15068.4,-410.9,-586.1,270.6,2025-01-29 15:15:14,0.0
5505.6,1343.6,14780.4,-373.9,-238.1,280.6,2025-01-29 15:15:14,0.0
5729.6,1359.6,14524.4,-300.9,48.900000000000006,317.6,2025-01-29 15:15:14,0.0
5837.6,1163.6,14424.4,-248.9,635.9,399.6,2025-01-29 15:15:14,0.0
5625.6,1015.6,14176.4,-140.9,1163.9,340.6,2025-01-29 15:15:14,0.0
5501.6,803.6,14704.4,-12.900000000000006,1214.9,328.6,2025-01-29 15:15:14,0.0
5785.6,383.6,14896.4,237.1,777.9,227.6,2025-01-29 15:15:14,0.0
5825.6,475.6,14720.4,390.1,242.9,-47.400000000000006,2025-01-29 15:15:14,0.0
5653.6,1123.6,15084.4,281.1,-14.099999999999994,-255.4,2025-01-29 15:15:14,0.0
5301.6,1647.6,15204.4,108.1,-220.1,-299.4,2025-01-29 15:15:14,0.0
5097.6,1723.6,15392.4,18.099999999999994,-515.1,-228.4,2025-01-29 15:15:14,0.0
4833.6,1499.6,15520.4,-37.900000000000006,-694.1,-102.4,2025-01-29 15:15:14,0.0
4941.6,1043.6,15308.4,-88.9,-721.1,4.599999999999994,2025-01-29 15:15:14,0.0
4965.6,635.6,15180.4,-130.9,-783.1,33.599999999999994,2025-01-29 15:15:14,0.0
5033.6,607.6,15232.4,-161.9,-933.1,-26.400000000000006,2025-01-29 15:15:14,0.0
5017.6,971.6,15212.4,-174.9,-1087.1,1.5999999999999943,2025-01-29 15:15:14,0.0
5385.6,1099.6,15104.4,-125.9,-784.1,8.599999999999994,2025-01-29 15:15:14,0.0
5605.6,751.6,15076.4,-40.900000000000006,-84.1,-92.4,2025-01-29 15:15:14,0.0
5709.6,679.6,14940.4,-35.900000000000006,475.9,-284.4,2025-01-29 15:15:14,0.0
5661.6,1051.6,15008.4,-78.9,620.9,-369.4,2025-01-29 15:15:14,0.0
5389.6,1347.6,15088.4,-139.9,451.9,-256.4,2025-01-29 15:15:14,0.0
5077.6,1555.6,15164.4,-205.9,124.9,-26.400000000000006,2025-01-29 15:15:14,0.0
5421.6,1267.6,14944.4,-293.9,-38.099999999999994,166.6,2025-01-29 15:15:14,0.0
5765.6,931.6,14740.4,-315.9,26.900000000000006,174.6,2025-01-29 15:15:14,0.0
5809.6,679.6,14788.4,-320.9,133.9,110.6,2025-01-29 15:15:14,0.0
5637.6,639.6,14856.4,-259.9,112.9,39.599999999999994,2025-01-29 15:15:14,0.0
5581.6,723.6,15200.4,-173.9,-98.1,20.599999999999994,2025-01-29 15:15:14,0.0
5497.6,935.6,15256.4,-121.9,-327.1,-14.400000000000006,2025-01-29 15:15:14,0.0
5429.6,1291.6,15016.4,-105.9,-459.1,23.599999999999994,2025-01-29 15:15:14,0.0
5321.6,1147.6,14792.4,-223.9,-483.1,31.599999999999994,2025-01-29 15:15:14,0.0
5413.6,975.6,14888.4,-262.9,-370.1,46.599999999999994,2025-01-29 15:15:14,0.0
5421.6,867.6,15020.4,-260.9,-293.1,25.599999999999994,2025-01-29 15:15:14,0.0
5361.6,651.6,15052.4,-156.9,-193.1,-3.4000000000000057,2025-01-29 15:15:14,0.0
5301.6,675.6,14936.4,-99.9,-98.1,-106.4,2025-01-29 15:15:14,0.0
5193.6,987.6,15072.4,-69.9,-67.1,-165.4,2025-01-29 15:15:14,0.0
5085.6,1143.6,15248.4,-108.9,-107.1,-146.4,2025-01-29 15:15:14,0.0
5349.6,1119.6,15212.4,-46.900000000000006,-99.1,-73.4,2025-01-29 15:15:14,0.0
5445.6,863.6,15264.4,14.099999999999994,-121.1,-51.400000000000006,2025-01-29 15:15:14,0.0
5949.6,715.6,14892.4,77.1,-108.1,-35.400000000000006,2025-01-29 15:15:14,0.0
5601.6,787.6,15208.4,165.1,-38.099999999999994,-29.400000000000006,2025-01-29 15:15:14,0.0
5409.6,979.6,15152.4,213.1,-57.099999999999994,-26.400000000000006,2025-01-29 15:15:14,0.0
5245.6,1103.6,14996.4,200.1,-115.1,2.5999999999999943,2025-01-29 15:15:14,0.0
5397.6,1243.6,14828.4,136.1,-195.1,5.599999999999994,2025-01-29 15:15:14,
5497.6,1115.6,14660.4,-5.900000000000006,-287.1,118.6,2025-01-29 15:15:14,0.0
5517.6,1223.6,14896.4,-157.9,-398.1,156.6,2025-01-29 15:15:14,0.0
5649.6,995.6,14776.4,-278.9,-435.1,198.6,2025-01-29 15:15:14,0.0
5609.6,951.6,14808.4,-383.9,-308.1,216.6,2025-01-29 15:15:14,0.0
5641.6,863.6,14960.4,-374.9,-128.1,190.6,2025-01-29 15:15:14,0.0
5549.6,1007.6,14692.4,-325.9,7.900000000000006,173.6,2025-01-29 15:15:14,0.0
5553.6,887.6,14844.4,-228.9,143.9,183.6,2025-01-29 15:15:15,0.0
5489.6,843.6,15120.4,-143.9,65.9,193.6,2025-01-29 15:15:15,0.0
5557.6,955.6,15116.4,-70.9,-176.1,207.6,2025-01-29 15:15:15,0.0
5329.6,1171.6,15140.4,-50.900000000000006,-407.1,229.6,2025-01-29 15:15:15,0.0
5285.6,1231.6,15044.4,-44.900000000000006,-433.1,251.6,2025-01-29 15:15:15,0.0
5441.6,1371.6,15148.4,-110.9,-349.1,287.6,2025-01-29 15:15:15,0.0
5557.6,1223.6,15120.4,-137.9,-209.1,259.6,2025-01-29 15:15:15,0.0
5461.6,871.6,15204.4,-126.9,-164.1,190.6,2025-01-29 15:15:15,0.0
5573.6,803.6,15312.4,-87.9,-202.1,150.6,2025-01-29 15:15:15,0.0
5477.6,847.6,15312.4,-23.900000000000006,-261.1,79.6,2025-01-29 15:15:15,0.0
5497.6,979.6,15216.4,-5.900000000000006,-291.1,68.6,2025-01-29 15:15:15,0.0
5497.6,1119.6,15108.4,-49.900000000000006,-262.1,105.6,2025-01-29 15:15:15,0.0
5629.6,1063.6,15128.4,-87.9,-232.1,100.6,2025-01-29 15:15:15,0.0
5493.6,1103.6,15108.4,-85.9,-209.1,92.6,2025-01-29 15:15:15,0.0
5557.6,895.6,15148.4,-61.900000000000006,-203.1,71.6,2025-01-29 15:15:15,0.0
5561.6,935.6,15176.4,-37.900000000000006,-242.1,32.599999999999994,2025-01-29 15:15:15,0.0
5625.6,1035.6,15044.4,17.099999999999994,-232.1,19.599999999999994,2025-01-29 15:15:15,0.0
5653.6,1051.6,15128.4,28.099999999999994,-194.1,4.599999999999994,2025-01-29 15:15:15,0.0
5769.6,975.6,15084.4,75.1,-199.1,-4.400000000000006,2025-01-29 15:15:15,0.0
5625.6,1091.6,15264.4,27.099999999999994,-219.1,-28.400000000000006,2025-01-29 15:15:15,0.0
5645.6,1059.6,15196.4,22.099999999999994,-241.1,-65.4,2025-01-29 15:15:15,0.0
5757.6,1055.6,15168.4,52.099999999999994,-298.1,-74.4,2025-01-29 15:15:15,0.0
5785.6,1103.6,15368.4,60.099999999999994,-317.1,-73.4,2025-01-29 15:15:15,0.0
5785.6,1015.6,15116.4,64.1,-353.1,-97.4,2025-01-29 15:15:15,0.0
5745.6,1023.6,15316.4,90.1,-409.1,-101.4,2025-01-29 15:15:15,0.0
5805.6,1003.6,15284.4,64.1,-407.1,-129.4,2025-01-29 15:15:15,0.0
5681.6,999.6,15180.4,25.099999999999994,-336.1,-140.4,2025-01-29 15:15:15,0.0
5533.6,1015.6,15228.4,46.099999999999994,-325.1,-141.4,2025-01-29 15:15:15,0.0
5693.6,999.6,15144.4,87.1,-308.1,-141.4,2025-01-29 15:15:15,0.0
5653.6,1015.6,15324.4,89.1,-228.1,-165.4,2025-01-29 15:15:15,0.0
5365.6,1015.6,15412.4,22.099999999999994,-58.099999999999994,-170.4,2025-01-29 15:15:15,0.0
5345.6,979.6,15280.4,87.1,-136.1,-157.4,2025-01-29 15:15:15,0.0
5465.6,979.6,15104.4,85.1,-270.1,-111.4,2025-01-29 15:15:15,0.0
5601.6,1035.6,15288.4,90.1,-428.1,-106.4,2025-01-29 15:15:15,0.0
5801.6,1063.6,15344.4,43.099999999999994,-454.1,-101.4,2025-01-29 15:15:15,0.0
5841.6,1099.6,15272.4,-16.900000000000006,-346.1,-82.4,2025-01-29 15:15:15,0.0
5833.6,1047.6,15344.4,-16.900000000000006,-144.1,-107.4,2025-01-29 15:15:15,0.0
5817.6,943.6,15424.4,68.1,-56.099999999999994,-129.4,2025-01-29 15:15:15,0.0
5825.6,907.6,15540.4,97.1,-114.1,-154.4,2025-01-29 15:15:15,0.0
5725.6,963.6,15316.4,93.1,-250.1,-187.4,2025-01-29 15:15:15,0.0
5669.6,1051.6,15368.4,82.1,-336.1,-152.4,2025-01-29 15:15:15,0.0
5773.6,1135.6,15152.4,51.099999999999994,-363.1,-112.4,2025-01-29 15:15:15,0.0
5765.6,1103.6,15200.4,37.099999999999994,-302.1,-22.400000000000006,2025-01-29 15:15:15,0.0
5957.6,1003.6,15228.4,70.1,-233.1,-7.400000000000006,2025-01-29 15:15:15,0.0
6017.6,1007.6,15380.4,96.1,-169.1,-22.400000000000006,2025-01-29 15:15:15,0.0
5985.6,951.6,15224.4,84.1,-109.1,-54.400000000000006,2025-01-29 15:15:15,0.0
6009.6,1091.6,15028.4,40.099999999999994,-9.099999999999994,-98.4,2025-01-29 15:15:15,0.0
5685.6,1195.6,15100.4,-125.9,417.9,-221.4,2025-01-29 15:15:15,0.0
5713.6,1339.6,14960.4,-3.9000000000000057,1137.9,-101.4,2025-01-29 15:15:15,0.0
5561.6,1267.6,15800.4,226.1,1451.9,70.6,2025-01-29 15:15:15,0.0
5189.6,1043.6,16320.4,330.1,1754.9,27.599999999999994,2025-01-29 15:15:15,0.0
5133.6,951.6,16772.4,175.1,2223.9,-114.4,2025-01-29 15:15:15,0.0
5025.6,1063.6,17236.4,100.1,2903.9,-269.4,2025-01-29 15:15:15,0.0
4385.6,771.6,17572.4,134.1,3699.9,-488.4,2025-01-29 15:15:15,0.0
3385.6000000000004,687.6,18452.4,325.1,4508.9,-724.4,2025-01-29 15:15:15,0.0
2309.6000000000004,1215.6,18608.4,336.1,4961.9,-885.4,2025-01-29 15:15:15,0.0
1661.6000000000004,1523.6,18884.4,399.1,5565.9,-909.4,2025-01-29 15:15:15,0.0
621.6000000000004,1339.6,19284.4,525.1,5916.9,-790.4,2025-01-29 15:15:15,0.0
521.6000000000004,1063.6,18652.4,572.1,5883.9,-791.4,2025-01-29 15:15:15,0.0
273.60000000000036,535.6,17776.4,688.1,6520.9,-918.4,2025-01-29 15:15:15,0.0
177.60000000000036,403.6,16816.4,744.1,7469.9,-1053.4,2025-01-29 15:15:15,0.0
65.60000000000036,931.6,16204.4,574.1,8167.9,-1021.4,2025-01-29 15:15:15,0.0
237.60000000000036,1287.6,15700.4,380.1,8432.9,-1023.4,2025-01-29 15:15:16,0.0
345.60000000000036,1323.6,15524.4,337.1,8702.9,-1069.4,2025-01-29 15:15:16,0.0
369.60000000000036,1443.6,14920.4,266.1,8866.9,-982.4,2025-01-29 15:15:16,0.0
733.6000000000004,1115.6,14024.4,216.1,9104.9,-858.4,2025-01-29 15:15:16,0.0
1233.6000000000004,1075.6,13328.4,75.1,9594.9,-780.4,2025-01-29 15:15:16,0.0
1801.6000000000004,1663.6,13056.4,46.099999999999994,10534.9,-367.4,2025-01-29 15:15:16,0.0
2973.6000000000004,1811.6,12396.4,325.1,11429.9,-243.4,2025-01-29 15:15:16,0.0
3929.6000000000004,1123.6,11548.4,555.1,11586.9,-693.4,2025-01-29 15:15:16,0.0
3985.6000000000004,75.60000000000002,10612.4,547.1,11437.9,-1148.4,2025-01-29 15:15:16,0.0
3701.6000000000004,-116.39999999999998,10004.4,148.1,11471.9,-1636.4,2025-01-29 15:15:16,0.0
2945.6000000000004,763.6,10700.4,302.1,11644.9,-1566.4,2025-01-29 15:15:16,0.0
2373.6000000000004,1327.6,10892.4,542.1,11402.9,-1209.4,2025-01-29 15:15:16,0.0
1641.6000000000004,667.6,10596.4,767.1,10796.9,-1105.4,2025-01-29 15:15:16,0.0
805.6000000000004,131.60000000000002,10236.4,1079.1,10271.9,-1121.4,2025-01-29 15:15:16,0.0
9.600000000000364,519.6,9876.4,1185.1,9881.9,-1060.4,2025-01-29 15:15:16,0.0
-198.39999999999964,891.6,10172.4,1213.1,9239.9,-919.4,2025-01-29 15:15:16,0.0
-238.39999999999964,1243.6,9980.4,1099.1,8392.9,-838.4,2025-01-29 15:15:16,0.0
93.60000000000036,1403.6,8944.4,930.1,7349.9,-667.4,2025-01-29 15:15:16,0.0
365.60000000000036,1627.6,7520.4,660.1,6841.9,-379.4,2025-01-29 15:15:16,0.0
669.6000000000004,1347.6,6572.4,594.1,6425.9,71.6,2025-01-29 15:15:16,0.0
633.6000000000004,1095.6,5888.4,-23.900000000000006,6083.9,179.6,2025-01-29 15:15:16,0.0
725.6000000000004,1051.6,6248.4,-567.9,6033.9,257.6,2025-01-29 15:15:16,0.0
617.6000000000004,767.6,6496.4,-939.9,6136.9,212.6,2025-01-29 15:15:16,0.0
-38.399999999999636,691.6,6804.4,-1034.9,6235.9,236.6,2025-01-29 15:15:16,0.0
-510.39999999999964,1047.6,7004.4,-973.9,6185.9,194.6,2025-01-29 15:15:16,0.0
-310.39999999999964,1483.6,7236.4,-966.9,5719.9,495.6,2025-01-29 15:15:16,0.0
189.60000000000036,1667.6,7592.4,-934.9,4674.9,713.6,2025-01-29 15:15:16,0.0
509.60000000000036,1443.6,6416.4,-843.9,3826.9,908.6,2025-01-29 15:15:16,0.0
977.6000000000004,1171.6,4852.4,-942.9,3990.9,906.6,2025-01-29 15:15:16,0.0
753.6000000000004,1059.6,3728.4,-1178.9,5149.9,1015.6,2025-01-29 15:15:16,0.0
1433.6000000000004,767.6,4116.4,-1384.9,6485.9,961.6,2025-01-29 15:15:16,0.0
1501.6000000000004,815.6,5364.4,-1250.9,7193.9,729.6,2025-01-29 15:15:16,
1297.6000000000004,775.6,6060.4,-771.9,7078.9,684.6,2025-01-29 15:15:16,0.0
1165.6000000000004,695.6,5588.4,-445.9,6357.9,775.6,2025-01-29 15:15:16,0.0
993.6000000000004,479.6,4600.4,-219.9,5283.9,883.6,2025-01-29 15:15:16,0.0
1237.6000000000004,431.6,3740.4,136.1,4255.9,499.6,2025-01-29 15:15:16,0.0
717.6000000000004,607.6,3200.4,30.099999999999994,3743.9,356.6,2025-01-29 15:15:16,0.0
1165.6000000000004,1143.6,4036.4,-487.9,3834.9,179.6,2025-01-29 15:15:16,0.0
1725.6000000000004,1595.6,5588.4,-455.9,3150.9,-24.400000000000006,2025-01-29 15:15:16,0.0
1829.6000000000004,1423.6,5108.4,-67.9,1278.9,405.6,2025-01-29 15:15:16,0.0
2301.6000000000004,1255.6,3492.4,-252.9,77.9,917.6,2025-01-29 15:15:16,0.0
2517.6000000000004,971.6,2876.4,-607.9,396.9,1008.6,2025-01-29 15:15:16,0.0
2469.6000000000004,879.6,3500.4,-622.9,1729.9,892.6,2025-01-29 15:15:16,0.0
2213.6000000000004,1011.6,3892.4,-333.9,2673.9,954.6,2025-01-29 15:15:16,0.0
2057.6000000000004,1047.6,3736.4,-183.9,2854.9,1030.6,2025-01-29 15:15:16,0.0
2481.6000000000004,1043.6,4104.4,-145.9,2689.9,728.6,2025-01-29 15:15:16,0.0
2537.6000000000004,615.6,4368.4,-74.9,2217.9,32.599999999999994,2025-01-29 15:15:16,0.0
2177.6000000000004,279.6,3916.4,-23.900000000000006,1861.9,-723.4,2025-01-29 15:15:16,0.0
1825.6000000000004,327.6,3720.4,127.1,1505.9,-1096.4,2025-01-29 15:15:16,0.0
1641.6000000000004,763.6,3808.4,420.1,575.9,-915.4,2025-01-29 15:15:16,0.0
2081.6000000000004,1807.6,3920.4,872.1,-367.1,-369.4,2025-01-29 15:15:16,0.0
2445.6000000000004,2363.6,2836.4,564.1,-630.1,231.6,2025-01-29 15:15:16,0.0
3253.6000000000004,2067.6,2184.4,-70.9,96.9,106.6,2025-01-29 15:15:16,0.0
3401.6000000000004,1423.6,1880.4,-803.9,874.9,-556.4,2025-01-29 15:15:16,0.0
2861.6000000000004,787.6,2404.4,-1239.9,1267.9,-1098.4,2025-01-29 15:15:16,0.0
2121.6000000000004,327.6,3252.4,-1024.9,1175.9,-984.4,2025-01-29 15:15:16,0.0
1801.6000000000004,-100.39999999999998,3784.4,-338.9,552.9,-498.4,2025-01-29 15:15:16,0.0
2081.6000000000004,-124.39999999999998,3976.4,363.1,42.900000000000006,-365.4,2025-01-29 15:15:16,0.0
1925.6000000000004,331.6,3488.4,686.1,-233.1,-575.4,2025-01-29 15:15:16,0.0
1669.6000000000004,1035.6,3452.4,831.1,-430.1,-794.4,2025-01-29 15:15:16,0.0
1517.6000000000004,1555.6,3140.4,659.1,-834.1,-724.4,2025-01-29 15:15:16,0.0
1457.6000000000004,1547.6,3208.4,627.1,-750.1,-686.4,2025-01-29 15:15:17,0.0
1385.6000000000004,883.6,2588.4,786.1,-29.099999999999994,-856.4,2025-01-29 15:15:17,0.0
761.6000000000004,395.6,2092.4,771.1,1000.9,-679.4,2025-01-29 15:15:17,0.0
621.6000000000004,655.6,2124.4,1284.1,1527.9,-464.4,2025-01-29 15:15:17,0.0
513.6000000000004,1115.6,1980.4,1782.1,2049.9,-171.4,2025-01-29 15:15:17,0.0
677.6000000000004,1319.6,1676.4,1907.1,2821.9,-197.4,2025-01-29 15:15:17,0.0
333.60000000000036,1399.6,1300.4,1881.1,3569.9,-428.4,2025-01-29 15:15:17,0.0
-378.39999999999964,1475.6,748.4,1765.1,3627.9,-522.4,2025-01-29 15:15:17,0.0
-862.3999999999996,1455.6,288.4,1559.1,3521.9,-500.4,2025-01-29 15:15:17,0.0
-1358.3999999999996,1459.6,576.4,1410.1,3702.9,-424.4,2025-01-29 15:15:17,0.0
-1330.3999999999996,1351.6,1568.4,1323.1,3705.9,-405.4,2025-01-29 15:15:17,0.0
-1102.3999999999996,1167.6,3288.4,1299.1,2820.9,-562.4,2025-01-29 15:15:17,0.0
-1358.3999999999996,1491.6,3664.4,1274.1,1187.9,-676.4,2025-01-29 15:15:17,0.0
-1294.3999999999996,1591.6,3264.4,871.1,-815.1,-713.4,2025-01-29 15:15:17,0.0
-934.3999999999996,1535.6,3260.4,303.1,-2687.1,-868.4,2025-01-29 15:15:17,0.0
-522.3999999999996,1223.6,3504.4,-121.9,-3688.1,-848.4,2025-01-29 15:15:17,0.0
249.60000000000036,675.6,3356.4,-432.9,-4016.1,-842.4,2025-01-29 15:15:17,0.0
1245.6000000000004,-96.39999999999998,3116.4,-355.9,-3394.1,-1292.4,2025-01-29 15:15:17,0.0
1569.6000000000004,-628.4,2156.4,-229.9,-2173.1,-1809.4,2025-01-29 15:15:17,0.0
1605.6000000000004,-1140.4,2320.4,177.1,-940.1,-2095.4,2025-01-29 15:15:17,0.0
1309.6000000000004,-1296.4,3560.4,1036.1,190.9,-1786.4,2025-01-29 15:15:17,0.0
1025.6000000000004,-1340.4,4524.4,2093.1,1746.9,-1252.4,2025-01-29 15:15:17,0.0
265.60000000000036,-1280.4,4076.4,2895.1,3365.9,-804.4,2025-01-29 15:15:17,0.0
-1006.3999999999996,-912.4,2968.4,2925.1,4990.9,-629.4,2025-01-29 15:15:17,0.0
-1782.3999999999996,-508.4,2408.4,2645.1,6615.9,-990.4,2025-01-29 15:15:17,0.0
-1834.3999999999996,179.60000000000002,2536.4,2565.1,6971.9,-1561.4,2025-01-29 15:15:17,0.0
-1450.3999999999996,251.60000000000002,2740.4,2468.1,5187.9,-2179.4,2025-01-29 15:15:17,0.0
-1290.3999999999996,307.6,3016.4,1885.1,1727.9,-2335.4,2025-01-29 15:15:17,0.0
-1274.3999999999996,611.6,3300.4,1205.1,-1115.1,-2161.4,2025-01-29 15:15:17,0.0
-574.3999999999996,927.6,2768.4,557.1,-2218.1,-1924.4,2025-01-29 15:15:17,0.0
149.60000000000036,1187.6,1948.4,-68.9,-1855.1,-1961.4,2025-01-29 15:15:17,0.0
1021.6000000000004,947.6,1592.4,-953.9,-1401.1,-2007.4,2025-01-29 15:15:17,0.0
1269.6000000000004,327.6,1744.4,-1828.9,-783.1,-2218.4,2025-01-29 15:15:17,0.0
1073.6000000000004,-936.4,2476.4,-2368.9,211.9,-2384.4,2025-01-29 15:15:17,0.0
565.6000000000004,-1640.4,2968.4,-2256.9,1029.9,-2185.4,2025-01-29 15:15:17,0.0
85.60000000000036,-1976.4,3928.4,-1686.9,1231.9,-1816.4,2025-01-29 15:15:17,0.0
97.60000000000036,-2000.4,4024.4,-984.9,725.9,-1264.4,2025-01-29 15:15:17,0.0
