acceleration_x,acceleration_y,acceleration_z,gyroscope_x,gyroscope_y,gyroscope_z,timestamp,label
101.60000000000036,22.40000000000009,73.20000000000005,62.69999999999999,-50.69999999999999,24.19999999999999,2025-01-29 15:18:33,0.0
77.60000000000036,-77.59999999999991,41.200000000000045,37.69999999999999,-36.69999999999999,23.19999999999999,2025-01-29 15:18:33,0.0
17.600000000000364,70.40000000000009,53.200000000000045,49.69999999999999,40.30000000000001,-4.800000000000011,2025-01-29 15:18:33,0.0
81.60000000000036,70.40000000000009,-62.799999999999955,-33.30000000000001,82.30000000000001,-27.80000000000001,2025-01-29 15:18:33,0.0
85.60000000000036,34.40000000000009,-46.799999999999955,-45.30000000000001,65.30000000000001,-28.80000000000001,2025-01-29 15:18:34,0.0
-78.39999999999964,-33.59999999999991,9.200000000000045,-57.30000000000001,96.30000000000001,-23.80000000000001,2025-01-29 15:18:34,0.0
-82.39999999999964,-45.59999999999991,49.200000000000045,-40.30000000000001,69.30000000000001,4.199999999999989,2025-01-29 15:18:34,0.0
-134.39999999999964,-1.599999999999909,-118.79999999999995,6.699999999999989,-43.69999999999999,3.1999999999999886,2025-01-29 15:18:34,0.0
-26.399999999999636,-49.59999999999991,21.200000000000045,-21.30000000000001,-87.69999999999999,24.19999999999999,2025-01-29 15:18:34,0.0
-42.399999999999636,10.400000000000091,-18.799999999999955,40.69999999999999,-134.7,6.199999999999989,2025-01-29 15:18:34,0.0
-6.399999999999636,-49.59999999999991,-26.799999999999955,49.69999999999999,-85.69999999999999,26.19999999999999,2025-01-29 15:18:34,0.0
49.600000000000364,-121.59999999999991,57.200000000000045,29.69999999999999,-15.699999999999989,-8.800000000000011,2025-01-29 15:18:34,0.0
25.600000000000364,-65.59999999999991,57.200000000000045,83.69999999999999,45.30000000000001,1.1999999999999886,2025-01-29 15:18:34,0.0
-42.399999999999636,-29.59999999999991,21.200000000000045,92.69999999999999,60.30000000000001,13.199999999999989,2025-01-29 15:18:34,0.0
-46.399999999999636,-105.59999999999991,-46.799999999999955,71.69999999999999,44.30000000000001,-3.8000000000000114,2025-01-29 15:18:34,0.0
1.6000000000003638,-81.59999999999991,-26.799999999999955,91.69999999999999,-59.69999999999999,11.199999999999989,2025-01-29 15:18:34,0.0
-90.39999999999964,-21.59999999999991,-94.79999999999995,77.69999999999999,-132.7,24.19999999999999,2025-01-29 15:18:34,0.0
25.600000000000364,-133.5999999999999,-190.79999999999995,43.69999999999999,-153.7,12.199999999999989,2025-01-29 15:18:34,0.0
17.600000000000364,-1.599999999999909,5.2000000000000455,74.69999999999999,-135.7,-14.800000000000011,2025-01-29 15:18:34,0.0
53.600000000000364,-97.59999999999991,25.200000000000045,81.69999999999999,-97.69999999999999,5.199999999999989,2025-01-29 15:18:34,0.0
77.60000000000036,-113.59999999999991,-46.799999999999955,53.69999999999999,-56.69999999999999,6.199999999999989,2025-01-29 15:18:34,0.0
97.60000000000036,18.40000000000009,-78.79999999999995,70.69999999999999,20.30000000000001,9.199999999999989,2025-01-29 15:18:34,0.0
-58.399999999999636,26.40000000000009,-70.79999999999995,58.69999999999999,67.30000000000001,24.19999999999999,2025-01-29 15:18:34,0.0
-70.39999999999964,86.40000000000009,-110.79999999999995,18.69999999999999,76.30000000000001,-22.80000000000001,2025-01-29 15:18:34,0.0
25.600000000000364,-21.59999999999991,-42.799999999999955,4.699999999999989,-27.69999999999999,-10.800000000000011,2025-01-29 15:18:34,0.0
105.60000000000036,82.40000000000009,69.20000000000005,-44.30000000000001,-122.69999999999999,8.199999999999989,2025-01-29 15:18:34,0.0
45.600000000000364,158.4000000000001,-22.799999999999955,-19.30000000000001,-50.69999999999999,34.19999999999999,2025-01-29 15:18:34,0.0
77.60000000000036,30.40000000000009,-66.79999999999995,-59.30000000000001,120.30000000000001,-23.80000000000001,2025-01-29 15:18:34,0.0
-62.399999999999636,-113.59999999999991,-214.79999999999995,-56.30000000000001,-91.69999999999999,-28.80000000000001,2025-01-29 15:18:34,0.0
-110.39999999999964,-105.59999999999991,-94.79999999999995,50.69999999999999,-166.7,19.19999999999999,2025-01-29 15:18:34,0.0
41.600000000000364,-105.59999999999991,-10.799999999999955,54.69999999999999,-64.69999999999999,3.1999999999999886,2025-01-29 15:18:34,0.0
25.600000000000364,46.40000000000009,-62.799999999999955,68.69999999999999,-101.69999999999999,38.19999999999999,2025-01-29 15:18:34,0.0
-70.39999999999964,-9.599999999999909,65.20000000000005,95.69999999999999,-121.69999999999999,19.19999999999999,2025-01-29 15:18:34,0.0
165.60000000000036,222.4000000000001,85.20000000000005,73.69999999999999,2.3000000000000114,18.19999999999999,2025-01-29 15:18:34,0.0
185.60000000000036,222.4000000000001,129.20000000000005,48.69999999999999,138.3,8.199999999999989,2025-01-29 15:18:34,0.0
125.60000000000036,126.40000000000009,-22.799999999999955,13.699999999999989,251.3,-32.80000000000001,2025-01-29 15:18:34,0.0
9.600000000000364,86.40000000000009,-150.79999999999995,1.6999999999999886,264.3,-2.8000000000000114,2025-01-29 15:18:34,0.0
5.600000000000364,182.4000000000001,-246.79999999999995,-72.30000000000001,208.3,9.199999999999989,2025-01-29 15:18:34,0.0
-110.39999999999964,242.4000000000001,-190.79999999999995,-121.30000000000001,65.30000000000001,22.19999999999999,2025-01-29 15:18:34,0.0
-2.399999999999636,-5.599999999999909,-214.79999999999995,-130.3,-110.69999999999999,6.199999999999989,2025-01-29 15:18:34,0.0
-86.39999999999964,50.40000000000009,-198.79999999999995,-95.30000000000001,-83.69999999999999,87.19999999999999,2025-01-29 15:18:34,0.0
-18.399999999999636,26.40000000000009,45.200000000000045,-18.30000000000001,27.30000000000001,80.19999999999999,2025-01-29 15:18:34,0.0
-14.399999999999636,-21.59999999999991,13.200000000000045,-8.300000000000011,82.30000000000001,65.19999999999999,2025-01-29 15:18:34,0.0
-74.39999999999964,22.40000000000009,49.200000000000045,76.69999999999999,175.3,142.2,2025-01-29 15:18:34,0.0
-130.39999999999964,98.40000000000009,-46.799999999999955,160.7,239.3,213.2,2025-01-29 15:18:34,0.0
-166.39999999999964,282.4000000000001,-78.79999999999995,186.7,320.3,274.2,2025-01-29 15:18:34,0.0
-262.39999999999964,382.4000000000001,-314.79999999999995,77.69999999999999,367.3,349.2,2025-01-29 15:18:34,0.0
-294.39999999999964,418.4000000000001,201.20000000000005,49.69999999999999,291.3,457.2,2025-01-29 15:18:34,0.0
-238.39999999999964,298.4000000000001,229.20000000000005,127.69999999999999,-28.69999999999999,535.2,2025-01-29 15:18:34,0.0
-178.39999999999964,118.40000000000009,29.200000000000045,121.69999999999999,-376.7,517.2,2025-01-29 15:18:34,0.0
-138.39999999999964,290.4000000000001,-126.79999999999995,117.69999999999999,-316.7,563.2,2025-01-29 15:18:34,0.0
25.600000000000364,250.4000000000001,-82.79999999999995,285.7,-226.7,526.2,2025-01-29 15:18:34,0.0
221.60000000000036,478.4000000000001,-126.79999999999995,298.7,-323.7,392.2,2025-01-29 15:18:34,0.0
169.60000000000036,594.4000000000001,-38.799999999999955,238.7,-395.7,283.2,2025-01-29 15:18:34,0.0
261.60000000000036,822.4000000000001,105.20000000000005,243.7,-349.7,238.2,2025-01-29 15:18:34,0.0
253.60000000000036,1058.4,361.20000000000005,145.7,-187.7,129.2,2025-01-29 15:18:34,0.0
41.600000000000364,1042.4,529.2,76.69999999999999,-122.69999999999999,40.19999999999999,2025-01-29 15:18:34,0.0
-146.39999999999964,798.4000000000001,617.2,70.69999999999999,-234.7,-34.80000000000001,2025-01-29 15:18:34,0.0
-150.39999999999964,802.4000000000001,753.2,94.69999999999999,-648.7,-106.80000000000001,2025-01-29 15:18:34,0.0
-222.39999999999964,778.4000000000001,537.2,98.69999999999999,-1149.7,-208.8,2025-01-29 15:18:34,0.0
-30.399999999999636,918.4000000000001,393.20000000000005,160.7,-1360.7,-254.8,2025-01-29 15:18:34,0.0
17.600000000000364,1266.4,585.2,131.7,-1199.7,-309.8,2025-01-29 15:18:34,0.0
313.60000000000036,1202.4,245.20000000000005,-7.300000000000011,-1041.7,-404.8,2025-01-29 15:18:34,0.0
305.60000000000036,1110.4,365.20000000000005,-95.30000000000001,-1041.7,-538.8,2025-01-29 15:18:34,0.0
-62.399999999999636,954.4000000000001,709.2,-58.30000000000001,-961.7,-622.8,2025-01-29 15:18:35,0.0
-190.39999999999964,690.4000000000001,921.2,26.69999999999999,-1043.7,-681.8,2025-01-29 15:18:35,0.0
-246.39999999999964,878.4000000000001,549.2,-35.30000000000001,-1399.7,-795.8,2025-01-29 15:18:35,0.0
-374.39999999999964,858.4000000000001,225.20000000000005,-185.3,-1786.7,-847.8,2025-01-29 15:18:35,0.0
-46.399999999999636,698.4000000000001,589.2,-284.3,-2024.7,-945.8,2025-01-29 15:18:35,0.0
-58.399999999999636,626.4000000000001,493.20000000000005,-370.3,-2060.7,-1034.8,2025-01-29 15:18:35,0.0
77.60000000000036,278.4000000000001,53.200000000000045,-579.3,-2039.7,-1177.8,2025-01-29 15:18:35,0.0
441.60000000000036,134.4000000000001,225.20000000000005,-591.3,-1918.7,-1375.8,2025-01-29 15:18:35,0.0
593.6000000000004,142.4000000000001,533.2,-430.3,-1427.7,-1537.8,2025-01-29 15:18:35,0.0
529.6000000000004,-13.599999999999909,217.20000000000005,-263.3,-817.7,-1534.8,2025-01-29 15:18:35,0.0
717.6000000000004,-725.5999999999999,333.20000000000005,-229.3,-85.69999999999999,-1615.8,2025-01-29 15:18:35,0.0
321.60000000000036,-1065.6,1205.2,-56.30000000000001,727.3,-1593.8,2025-01-29 15:18:35,0.0
-130.39999999999964,-1369.6,1329.2,151.7,1285.3,-1424.8,2025-01-29 15:18:35,0.0
-458.39999999999964,-1433.6,1333.2,337.7,1425.3,-1306.8,2025-01-29 15:18:35,0.0
-706.3999999999996,-1389.6,1105.2,277.7,1001.3,-1194.8,2025-01-29 15:18:35,0.0
-818.3999999999996,-1141.6,1593.2,160.7,95.30000000000001,-1115.8,2025-01-29 15:18:35,0.0
-462.39999999999964,-841.5999999999999,1989.2,52.69999999999999,-689.7,-1081.8,2025-01-29 15:18:35,0.0
-258.39999999999964,-569.5999999999999,2029.2,-257.3,-904.7,-1164.8,2025-01-29 15:18:35,0.0
421.60000000000036,-509.5999999999999,1581.2,-736.3,-802.7,-1414.8,2025-01-29 15:18:35,0.0
425.60000000000036,-441.5999999999999,1749.2,-1244.3,-504.7,-1499.8,2025-01-29 15:18:35,0.0
705.6000000000004,-341.5999999999999,1649.2,-1737.3,370.3,-1521.8,2025-01-29 15:18:35,0.0
753.6000000000004,-573.5999999999999,1273.2,-2225.3,1571.3,-1723.8,2025-01-29 15:18:35,0.0
701.6000000000004,-1161.6,1385.2,-2637.3,2404.3,-2095.8,2025-01-29 15:18:35,0.0
193.60000000000036,-1885.6,2033.2,-2739.3,2526.3,-2413.8,2025-01-29 15:18:35,0.0
-470.39999999999964,-2341.6,2633.2,-2617.3,1985.3,-2532.8,2025-01-29 15:18:35,0.0
-874.3999999999996,-2265.6,2917.2,-2189.3,803.3,-2329.8,2025-01-29 15:18:35,0.0
-886.3999999999996,-2093.6,2717.2,-1800.3,-644.7,-2050.8,2025-01-29 15:18:35,0.0
-318.39999999999964,-1941.6,2645.2,-1589.3,-1943.7,-1777.8,2025-01-29 15:18:35,0.0
285.60000000000036,-1877.6,2209.2,-1571.3,-3095.7,-1488.8,2025-01-29 15:18:35,0.0
657.6000000000004,-1977.6,2357.2,-1624.3,-3256.7,-1345.8,2025-01-29 15:18:35,0.0
933.6000000000004,-1653.6,2393.2,-1666.3,-2609.7,-1244.8,2025-01-29 15:18:35,0.0
1149.6000000000004,-1729.6,2341.2,-1628.3,-2041.7,-1049.8,2025-01-29 15:18:35,0.0
769.6000000000004,-1757.6,2409.2,-1705.3,-1629.7,-975.8,2025-01-29 15:18:35,0.0
345.60000000000036,-1905.6,2837.2,-1739.3,-1168.7,-804.8,2025-01-29 15:18:35,0.0
25.600000000000364,-2205.6,3157.2,-1711.3,-932.7,-415.8,2025-01-29 15:18:35,0.0
209.60000000000036,-2233.6,3253.2,-1513.3,-1140.7,-75.80000000000001,2025-01-29 15:18:35,
217.60000000000036,-1937.6,3293.2,-1253.3,-1652.7,206.2,2025-01-29 15:18:35,0.0
477.60000000000036,-2069.6,2813.2,-1038.3,-1791.7,413.2,2025-01-29 15:18:35,0.0
733.6000000000004,-1985.6,2469.2,-1156.3,-1323.7,333.2,2025-01-29 15:18:35,0.0
417.60000000000036,-1841.6,2933.2,-1520.3,-371.7,15.199999999999989,2025-01-29 15:18:35,0.0
-170.39999999999964,-2193.6,3145.2,-1730.3,421.3,-208.8,2025-01-29 15:18:35,0.0
-410.39999999999964,-2429.6,3349.2,-1802.3,613.3,-392.8,2025-01-29 15:18:35,0.0
-286.39999999999964,-2309.6,3689.2,-1780.3,79.30000000000001,-371.8,2025-01-29 15:18:35,0.0
-238.39999999999964,-1569.6,3681.2,-1868.3,-515.7,-280.8,2025-01-29 15:18:35,0.0
-70.39999999999964,-1057.6,3209.2,-2256.3,-429.7,-299.8,2025-01-29 15:18:35,0.0
-30.399999999999636,-989.5999999999999,2789.2,-2942.3,303.3,-263.8,2025-01-29 15:18:35,0.0
53.600000000000364,-1597.6,3289.2,-3725.3,912.3,-300.8,2025-01-29 15:18:35,0.0
-86.39999999999964,-2593.6,4169.2,-4192.3,1509.3,-406.8,2025-01-29 15:18:35,0.0
-1002.3999999999996,-3693.6,3713.2,-4312.3,2285.3,-897.8,2025-01-29 15:18:35,0.0
-2214.3999999999996,-4289.6,2821.2,-4308.3,3153.3,-1648.8,2025-01-29 15:18:35,0.0
-3230.3999999999996,-4793.6,2805.2,-3666.3,3239.3,-2325.8,2025-01-29 15:18:35,0.0
-4194.4,-5621.6,3773.2,-1871.3,1728.3,-2529.8,2025-01-29 15:18:35,0.0
-5098.4,-5925.6,3801.2,-189.3,-862.7,-1721.8,2025-01-29 15:18:35,0.0
-5650.4,-5405.6,3033.2,1115.7,-4444.7,84.19999999999999,2025-01-29 15:18:35,0.0
-4422.4,-2781.6,3009.2,2015.7,-7245.7,1902.2,2025-01-29 15:18:35,0.0
-2966.3999999999996,-1489.6,1677.2,2485.7,-8489.7,2956.2,2025-01-29 15:18:35,0.0
-1234.3999999999996,-1161.6,-306.79999999999995,2192.7,-7956.7,4226.2,2025-01-29 15:18:35,0.0
749.6000000000004,-1337.6,-1346.8,1985.7,-6412.7,4858.2,2025-01-29 15:18:35,0.0
2481.6000000000004,-1597.6,-2310.8,1927.7,-4745.7,4394.2,2025-01-29 15:18:35,0.0
3413.6000000000004,-1109.6,-3070.8,1613.7,-3040.7,3242.2,2025-01-29 15:18:35,0.0
3177.6000000000004,-301.5999999999999,-2422.8,913.7,-955.7,2088.2,2025-01-29 15:18:35,0.0
2253.6000000000004,1194.4,-714.8,500.7,2114.3,1061.2,2025-01-29 15:18:36,0.0
177.60000000000036,1470.4,685.2,1026.7,3761.3,1176.2,2025-01-29 15:18:36,0.0
-1618.3999999999996,922.4000000000001,885.2,1786.7,4088.3,2156.2,2025-01-29 15:18:36,0.0
-1750.3999999999996,-513.5999999999999,665.2,2321.7,3491.3,3214.2,2025-01-29 15:18:36,0.0
-1006.3999999999996,-1777.6,1249.2,2727.7,2226.3,3545.2,2025-01-29 15:18:36,0.0
-122.39999999999964,-2069.6,1793.2,3265.7,691.3,3183.2,2025-01-29 15:18:36,0.0
161.60000000000036,-1317.6,1981.2,3897.7,-452.7,3049.2,2025-01-29 15:18:36,0.0
505.60000000000036,-89.59999999999991,1741.2,4659.7,-1443.7,3180.2,2025-01-29 15:18:36,0.0
345.60000000000036,1154.4,1397.2,4953.7,-1771.7,3354.2,2025-01-29 15:18:36,0.0
1469.6000000000004,1926.4,253.20000000000005,4719.7,-2098.7,3210.2,2025-01-29 15:18:36,0.0
1909.6000000000004,2186.4,417.20000000000005,4232.7,-1928.7,2771.2,2025-01-29 15:18:36,0.0
2261.6000000000004,2314.4,565.2,3756.7,-1310.7,2357.2,2025-01-29 15:18:36,0.0
2325.6000000000004,2402.4,273.20000000000005,3324.7,-118.69999999999999,2339.2,2025-01-29 15:18:36,0.0
2149.6000000000004,2250.4,341.20000000000005,2958.7,1416.3,2166.2,2025-01-29 15:18:36,0.0
1757.6000000000004,2042.4,521.2,2397.7,2781.3,1943.2,2025-01-29 15:18:36,0.0
533.6000000000004,1662.4,1929.2,2022.7,3198.3,1838.2,2025-01-29 15:18:36,0.0
205.60000000000036,1094.4,2797.2,2069.7,2561.3,1875.2,2025-01-29 15:18:36,0.0
105.60000000000036,538.4000000000001,2789.2,2185.7,1202.3,1838.2,2025-01-29 15:18:36,0.0
409.60000000000036,398.4000000000001,2665.2,2254.7,-284.7,1627.2,2025-01-29 15:18:36,0.0
425.60000000000036,870.4000000000001,2969.2,2143.7,-1530.7,1222.2,2025-01-29 15:18:36,0.0
1365.6000000000004,1290.4,2705.2,2071.7,-1950.7,736.2,2025-01-29 15:18:36,0.0
1273.6000000000004,1702.4,2741.2,2290.7,-1865.7,217.2,2025-01-29 15:18:36,0.0
1289.6000000000004,1866.4,2177.2,2472.7,-1408.7,-69.80000000000001,2025-01-29 15:18:36,0.0
1217.6000000000004,1494.4,2853.2,2525.7,-822.7,-97.80000000000001,2025-01-29 15:18:36,0.0
1341.6000000000004,1018.4000000000001,3393.2,2512.7,-670.7,-252.8,2025-01-29 15:18:36,0.0
1393.6000000000004,954.4000000000001,3513.2,2713.7,-548.7,-512.8,2025-01-29 15:18:36,0.0
661.6000000000004,1382.4,3141.2,3094.7,-17.69999999999999,-608.8,2025-01-29 15:18:36,0.0
-410.39999999999964,1758.4,2533.2,3554.7,812.3,-403.8,2025-01-29 15:18:36,0.0
-994.3999999999996,1782.4,2493.2,3742.7,1429.3,66.19999999999999,2025-01-29 15:18:36,0.0
-1742.3999999999996,1790.4,2245.2,3761.7,1583.3,710.2,2025-01-29 15:18:36,0.0
-2334.3999999999996,1342.4,3009.2,3851.7,1776.3,1553.2,2025-01-29 15:18:36,0.0
-2454.3999999999996,734.4000000000001,3781.2,4014.7,2251.3,2024.2,2025-01-29 15:18:36,0.0
-1974.3999999999996,1586.4,4113.2,4369.7,2190.3,1830.2,2025-01-29 15:18:36,0.0
-1858.3999999999996,2934.4,3337.2,4584.7,1050.3,1161.2,2025-01-29 15:18:36,0.0
-2258.3999999999996,3374.4,2425.2,4209.7,-984.7,831.2,2025-01-29 15:18:36,0.0
-2930.3999999999996,3510.4,1153.2,3339.7,-1623.7,726.2,2025-01-29 15:18:36,0.0
-3878.3999999999996,3734.4,-6.7999999999999545,1963.7,107.30000000000001,1085.2,2025-01-29 15:18:36,0.0
-4434.4,4646.4,-562.8,608.7,2170.3,2104.2,2025-01-29 15:18:36,0.0
-4358.4,5074.4,-1142.8,-503.3,3093.3,3115.2,2025-01-29 15:18:36,0.0
-3498.3999999999996,4986.4,-514.8,-1431.3,3133.3,3286.2,2025-01-29 15:18:36,0.0
-2422.3999999999996,3874.4,-134.79999999999995,-2628.3,1730.3,2268.2,2025-01-29 15:18:36,0.0
-850.3999999999996,2406.4,-646.8,-3424.3,-1230.7,648.2,2025-01-29 15:18:36,0.0
1373.6000000000004,-33.59999999999991,-1778.8,-3819.3,-5416.7,-1440.8,2025-01-29 15:18:36,0.0
1945.6000000000004,-1693.6,-1618.8,-3587.3,-8151.7,-2701.8,2025-01-29 15:18:36,0.0
1853.6000000000004,-2745.6,-2006.8,-3094.3,-8452.7,-2907.8,2025-01-29 15:18:36,0.0
1849.6000000000004,-3429.6,-2498.8,-2645.3,-5623.7,-2258.8,2025-01-29 15:18:36,0.0
2361.6000000000004,-3161.6,-2146.8,-2062.3,-559.7,-1772.8,2025-01-29 15:18:36,0.0
2217.6000000000004,-1237.6,-1710.8,-974.3,5561.3,-1656.8,2025-01-29 15:18:36,0.0
1425.6000000000004,662.4000000000001,-1190.8,-330.3,9113.3,-1803.8,2025-01-29 15:18:36,0.0
505.60000000000036,2202.4,-102.79999999999995,-463.3,9827.3,-2109.8,2025-01-29 15:18:36,0.0
-690.3999999999996,2834.4,661.2,-1352.3,7825.3,-2490.8,2025-01-29 15:18:36,0.0
-1254.3999999999996,2234.4,297.20000000000005,-2631.3,4626.3,-2812.8,2025-01-29 15:18:36,0.0
-1482.3999999999996,918.4000000000001,-46.799999999999955,-3827.3,802.3,-3176.8,2025-01-29 15:18:36,0.0
-1154.3999999999996,-385.5999999999999,-854.8,-4256.3,-2313.7,-3240.8,2025-01-29 15:18:36,0.0
-694.3999999999996,-1629.6,-550.8,-4436.3,-4071.7,-2756.8,2025-01-29 15:18:36,0.0
1869.6000000000004,-1793.6,293.20000000000005,-4393.3,-4880.7,-2446.8,2025-01-29 15:18:36,0.0
2957.6000000000004,-1389.6,801.2,-3855.3,-3607.7,-2589.8,2025-01-29 15:18:36,0.0
2849.6000000000004,-629.5999999999999,949.2,-3603.3,-1396.7,-2592.8,2025-01-29 15:18:36,0.0
3297.6000000000004,-465.5999999999999,213.20000000000005,-3433.3,990.3,-2593.8,2025-01-29 15:18:36,0.0
3017.6000000000004,-817.5999999999999,277.20000000000005,-3354.3,2305.3,-2746.8,2025-01-29 15:18:36,0.0
1741.6000000000004,-1617.6,1113.2,-3430.3,2595.3,-2908.8,2025-01-29 15:18:37,0.0
833.6000000000004,-1965.6,1305.2,-3326.3,2634.3,-2689.8,2025-01-29 15:18:37,0.0
249.60000000000036,-1361.6,837.2,-3051.3,2426.3,-2137.8,2025-01-29 15:18:37,0.0
-366.39999999999964,-945.5999999999999,1109.2,-2668.3,1895.3,-1429.8,2025-01-29 15:18:37,0.0
1405.6000000000004,-821.5999999999999,-590.8,-2264.3,917.3,-791.8,2025-01-29 15:18:37,0.0
129.60000000000036,-653.5999999999999,1505.2,-2034.3,-317.7,-220.8,2025-01-29 15:18:37,0.0
269.60000000000036,-713.5999999999999,2189.2,-1904.3,-817.7,187.2,2025-01-29 15:18:37,0.0
569.6000000000004,-577.5999999999999,1977.2,-1840.3,-1238.7,579.2,2025-01-29 15:18:37,0.0
889.6000000000004,-537.5999999999999,1713.2,-1862.3,-1748.7,719.2,2025-01-29 15:18:37,0.0
1241.6000000000004,-381.5999999999999,1389.2,-2174.3,-1931.7,573.2,2025-01-29 15:18:37,0.0
909.6000000000004,-125.59999999999991,1877.2,-2559.3,-1635.7,426.2,2025-01-29 15:18:37,0.0
333.60000000000036,-217.5999999999999,2633.2,-2818.3,-605.7,501.2,2025-01-29 15:18:37,0.0
-286.39999999999964,-617.5999999999999,2545.2,-2904.3,61.30000000000001,693.2,2025-01-29 15:18:37,0.0
213.60000000000036,-621.5999999999999,1705.2,-3220.3,-448.7,635.2,2025-01-29 15:18:37,0.0
-378.39999999999964,-57.59999999999991,2309.2,-3548.3,-1833.7,329.2,2025-01-29 15:18:37,
13.600000000000364,202.4000000000001,1517.2,-3890.3,-3440.7,-73.80000000000001,2025-01-29 15:18:37,0.0
373.60000000000036,-65.59999999999991,1405.2,-4368.3,-3804.7,-379.8,2025-01-29 15:18:37,0.0
185.60000000000036,-645.5999999999999,2209.2,-5216.3,-1993.7,-862.8,2025-01-29 15:18:37,0.0
-430.39999999999964,-1273.6,3817.2,-5800.3,595.3,-1265.8,2025-01-29 15:18:37,0.0
-1714.3999999999996,-2305.6,4685.2,-5871.3,2256.3,-1408.8,2025-01-29 15:18:37,0.0
-2074.3999999999996,-3629.6,3385.2,-5320.3,3352.3,-2239.8,2025-01-29 15:18:37,0.0
-2958.3999999999996,-3993.6,1277.2,-4676.3,3825.3,-3874.8,2025-01-29 15:18:37,0.0
-3822.3999999999996,-4681.6,1613.2,-3689.3,3591.3,-5192.8,2025-01-29 15:18:37,0.0
-5382.4,-5277.6,2849.2,-1273.3,2425.3,-5864.8,2025-01-29 15:18:37,0.0
-7182.4,-5729.6,2285.2,1310.7,-322.7,-4801.8,2025-01-29 15:18:37,0.0
-8198.4,-4761.6,2089.2,3607.7,-4168.7,-2305.8,2025-01-29 15:18:37,0.0
-6690.4,-2245.6,1449.2,4810.7,-8414.7,975.2,2025-01-29 15:18:37,0.0
-4018.3999999999996,-777.5999999999999,341.20000000000005,5192.7,-12162.7,3083.2,2025-01-29 15:18:37,0.0
-1122.3999999999996,-109.59999999999991,-1322.8,4861.7,-14629.7,5242.2,2025-01-29 15:18:37,0.0
2561.6000000000004,106.40000000000009,-3286.8,4431.7,-14891.7,6177.2,2025-01-29 15:18:37,0.0
6189.6,1102.4,-6794.8,2748.7,-11654.7,4796.2,2025-01-29 15:18:37,0.0
7661.6,2342.4,-6714.8,17.69999999999999,-5819.7,2180.2,2025-01-29 15:18:37,0.0
8129.6,2834.4,-3866.8,-1865.3,1849.3,-1020.8,2025-01-29 15:18:37,0.0
3597.6000000000004,1090.4,-826.8,-1935.3,10093.3,-2272.8,2025-01-29 15:18:37,0.0
69.60000000000036,-257.5999999999999,2057.2,-605.3,15136.3,-1445.8,2025-01-29 15:18:37,0.0
-3406.3999999999996,-805.5999999999999,2805.2,630.7,16105.3,243.2,2025-01-29 15:18:37,0.0
-4242.4,-1369.6,2649.2,1216.7,12278.3,1685.2,2025-01-29 15:18:37,0.0
-4334.4,-2093.6,2565.2,2656.7,4732.3,2731.2,2025-01-29 15:18:37,0.0
-4190.4,-2097.6,1969.2,4368.7,-2261.7,3633.2,2025-01-29 15:18:37,0.0
-2770.3999999999996,-1145.6,1213.2,5489.7,-6479.7,4623.2,2025-01-29 15:18:37,0.0
-310.39999999999964,58.40000000000009,913.2,6259.7,-8108.7,5121.2,2025-01-29 15:18:37,0.0
1633.6000000000004,1146.4,517.2,6434.7,-7705.7,5035.2,2025-01-29 15:18:37,0.0
2597.6000000000004,1858.4,1277.2,6151.7,-5484.7,4594.2,2025-01-29 15:18:37,0.0
4109.6,1982.4,273.20000000000005,5593.7,-2188.7,3656.2,2025-01-29 15:18:37,0.0
4041.6000000000004,2002.4,317.20000000000005,4922.7,1147.3,2629.2,2025-01-29 15:18:37,0.0
2697.6000000000004,2142.4,1053.2,4438.7,3201.3,2018.2,2025-01-29 15:18:37,0.0
1385.6000000000004,2566.4,2129.2,4182.7,3272.3,1806.2,2025-01-29 15:18:37,0.0
1145.6000000000004,2406.4,1981.2,3895.7,1610.3,1608.2,2025-01-29 15:18:37,0.0
1273.6000000000004,2034.4,1873.2,3436.7,-217.7,948.2,2025-01-29 15:18:37,0.0
1169.6000000000004,2030.4,1581.2,2979.7,-1194.7,272.2,2025-01-29 15:18:37,0.0
1501.6000000000004,1982.4,1185.2,2390.7,-1760.7,-393.8,2025-01-29 15:18:37,0.0
1669.6000000000004,1762.4,1837.2,1670.7,-1874.7,-950.8,2025-01-29 15:18:37,0.0
1325.6000000000004,1242.4,2469.2,1334.7,-1281.7,-1140.8,2025-01-29 15:18:37,0.0
693.6000000000004,978.4000000000001,2521.2,1120.7,-683.7,-1039.8,2025-01-29 15:18:37,0.0
685.6000000000004,1022.4000000000001,2325.2,1029.7,-388.7,-978.8,2025-01-29 15:18:37,0.0
589.6000000000004,1374.4,2345.2,1156.7,-164.7,-896.8,2025-01-29 15:18:37,0.0
477.60000000000036,1554.4,2969.2,1575.7,253.3,-787.8,2025-01-29 15:18:37,0.0
653.6000000000004,1534.4,3229.2,1969.7,584.3,-659.8,2025-01-29 15:18:37,0.0
765.6000000000004,1426.4,3289.2,2433.7,608.3,-741.8,2025-01-29 15:18:37,0.0
753.6000000000004,1662.4,2329.2,2826.7,635.3,-746.8,2025-01-29 15:18:37,0.0
821.6000000000004,1186.4,1025.2,2951.7,769.3,-627.8,2025-01-29 15:18:37,0.0
621.6000000000004,782.4000000000001,1237.2,2936.7,1717.3,-294.8,2025-01-29 15:18:38,0.0
477.60000000000036,1322.4,2113.2,3003.7,3336.3,-77.80000000000001,2025-01-29 15:18:38,0.0
-590.3999999999996,2038.4,3173.2,3401.7,4704.3,-188.8,2025-01-29 15:18:38,0.0
-2038.3999999999996,1982.4,3761.2,3942.7,5643.3,-662.8,2025-01-29 15:18:38,0.0
-3690.3999999999996,982.4000000000001,4705.2,4588.7,5100.3,-230.8,2025-01-29 15:18:38,0.0
-4418.4,166.4000000000001,4105.2,5457.7,3848.3,727.2,2025-01-29 15:18:38,0.0
-4402.4,126.40000000000009,2557.2,6326.7,2434.3,1952.2,2025-01-29 15:18:38,0.0
-3586.3999999999996,866.4000000000001,253.20000000000005,6537.7,2115.3,2545.2,2025-01-29 15:18:38,0.0
-3498.3999999999996,2966.4,-2206.8,5598.7,3038.3,3229.2,2025-01-29 15:18:38,0.0
-2558.3999999999996,4218.4,-3206.8,3840.7,3829.3,3382.2,2025-01-29 15:18:38,0.0
-2614.3999999999996,4946.4,-4410.8,1459.7,4328.3,2740.2,2025-01-29 15:18:38,0.0
-3082.3999999999996,4518.4,-4934.8,-701.3,4766.3,1726.2,2025-01-29 15:18:38,0.0
-3146.3999999999996,3362.4,-3954.8,-1764.3,3769.3,657.2,2025-01-29 15:18:38,0.0
-1642.3999999999996,770.4000000000001,-3630.8,-1893.3,28.30000000000001,-540.8,2025-01-29 15:18:38,0.0
1005.6000000000004,-881.5999999999999,-3546.8,-1792.3,-3327.7,-1605.8,2025-01-29 15:18:38,0.0
1717.6000000000004,-2465.6,-3230.8,-1382.3,-6215.7,-2220.8,2025-01-29 15:18:38,0.0
2341.6000000000004,-3853.6,-3314.8,-984.3,-5496.7,-2232.8,2025-01-29 15:18:38,0.0
2481.6000000000004,-5049.6,-3290.8,-537.3,-1660.7,-1838.8,2025-01-29 15:18:38,0.0
2657.6000000000004,-5237.6,-3502.8,656.7,4035.3,-1822.8,2025-01-29 15:18:38,0.0
2221.6000000000004,-2649.6,-2302.8,2384.7,6830.3,-2303.8,2025-01-29 15:18:38,0.0
393.60000000000036,-53.59999999999991,-1590.8,2616.7,4209.3,-2073.8,2025-01-29 15:18:38,0.0
-1926.3999999999996,1422.4,-1906.8,1503.7,-466.7,-1548.8,2025-01-29 15:18:38,0.0
-522.3999999999996,650.4000000000001,-1022.8,524.7,-1616.7,-2363.8,2025-01-29 15:18:38,0.0
-342.39999999999964,-645.5999999999999,-2146.8,73.69999999999999,114.30000000000001,-3260.8,2025-01-29 15:18:38,0.0
21.600000000000364,-1657.6,-1878.8,42.69999999999999,2020.3,-3573.8,2025-01-29 15:18:38,0.0
793.6000000000004,-2041.6,-2394.8,54.69999999999999,2663.3,-3329.8,2025-01-29 15:18:38,0.0
1677.6000000000004,-2225.6,-2162.8,-281.3,2638.3,-3169.8,2025-01-29 15:18:38,0.0
2005.6000000000004,-1901.6,-1850.8,-642.3,2475.3,-3252.8,2025-01-29 15:18:38,0.0
1961.6000000000004,-1633.6,-1738.8,-1014.3,2452.3,-3605.8,2025-01-29 15:18:38,0.0
1869.6000000000004,-1165.6,-1998.8,-1539.3,2700.3,-4117.8,2025-01-29 15:18:38,0.0
961.6000000000004,-673.5999999999999,-1146.8,-2199.3,1989.3,-4405.8,2025-01-29 15:18:38,0.0
93.60000000000036,-277.5999999999999,-418.79999999999995,-2391.3,381.3,-3973.8,2025-01-29 15:18:38,0.0
13.600000000000364,-581.5999999999999,-894.8,-2406.3,-794.7,-3099.8,2025-01-29 15:18:38,0.0
905.6000000000004,-1257.6,-2162.8,-2468.3,-1017.7,-2130.8,2025-01-29 15:18:38,0.0
929.6000000000004,-1877.6,-2362.8,-2702.3,-347.7,-1507.8,2025-01-29 15:18:38,0.0
981.6000000000004,-2645.6,-1918.8,-2995.3,475.3,-1087.8,2025-01-29 15:18:38,0.0
1705.6000000000004,-2905.6,-1590.8,-3081.3,471.3,-964.8,2025-01-29 15:18:38,0.0
1897.6000000000004,-2193.6,-1702.8,-3024.3,-379.7,-891.8,2025-01-29 15:18:38,0.0
1653.6000000000004,-1553.6,-1406.8,-3154.3,-698.7,-581.8,2025-01-29 15:18:38,0.0
949.6000000000004,-1185.6,-2386.8,-3882.3,-141.7,-397.8,2025-01-29 15:18:38,0.0
425.60000000000036,-961.5999999999999,-1738.8,-4981.3,431.3,-425.8,2025-01-29 15:18:38,0.0
-22.399999999999636,-1201.6,-26.799999999999955,-5489.3,1125.3,-394.8,2025-01-29 15:18:38,0.0
-394.39999999999964,-1541.6,-178.79999999999995,-5213.3,892.3,-176.8,2025-01-29 15:18:38,0.0
-930.3999999999996,-1593.6,-2058.8,-4880.3,195.3,377.2,2025-01-29 15:18:38,0.0
-3854.3999999999996,-1681.6,-5534.8,-5624.3,-606.7,1571.2,2025-01-29 15:18:38,0.0
2997.6000000000004,-2109.6,1141.2,-5119.3,-626.7,1501.2,2025-01-29 15:18:38,0.0
3509.6000000000004,-2061.6,-246.79999999999995,-4984.3,-1364.7,1070.2,2025-01-29 15:18:38,0.0
2953.6000000000004,-1437.6,-2082.8,-5168.3,-2934.7,390.2,2025-01-29 15:18:38,0.0
-234.39999999999964,-1665.6,-2182.8,-5957.3,-4901.7,1141.2,2025-01-29 15:18:38,0.0
705.6000000000004,-2161.6,-2666.8,-5932.3,-3487.7,1779.2,2025-01-29 15:18:38,0.0
2229.6000000000004,-3117.6,-5566.8,-5929.3,-608.7,1856.2,2025-01-29 15:18:38,0.0
3437.6000000000004,-3005.6,-6038.8,-5904.3,1329.3,574.2,2025-01-29 15:18:38,0.0
3185.6000000000004,-2477.6,-6138.8,-5598.3,3152.3,-1633.8,2025-01-29 15:18:38,0.0
2977.6000000000004,-1517.6,-5406.8,-5891.3,2915.3,-2167.8,2025-01-29 15:18:38,
5125.6,-1009.5999999999999,-3734.8,-6500.3,1716.3,-2047.8,2025-01-29 15:18:38,0.0
8525.6,-357.5999999999999,-906.8,-6416.3,116.30000000000001,-2009.8,2025-01-29 15:18:38,0.0
10805.6,130.4000000000001,1893.2,-5072.3,-1674.7,-1967.8,2025-01-29 15:18:38,0.0
12169.6,154.4000000000001,2165.2,-3237.3,-2632.7,-2116.8,2025-01-29 15:18:38,0.0
12137.6,-553.5999999999999,1413.2,-2457.3,-2794.7,-2131.8,2025-01-29 15:18:38,0.0
11601.6,-185.5999999999999,1761.2,-2507.3,-2776.7,-1477.8,2025-01-29 15:18:38,0.0
8753.6,-81.59999999999991,2717.2,-2524.3,-2014.7,-216.8,2025-01-29 15:18:39,0.0
6885.6,38.40000000000009,4601.2,-1997.3,597.3,452.2,2025-01-29 15:18:39,0.0
6665.6,158.4000000000001,5573.2,-1811.3,1777.3,-240.8,2025-01-29 15:18:39,0.0
5605.6,622.4000000000001,4773.2,-960.3,471.3,-1233.8,2025-01-29 15:18:39,0.0
2253.6000000000004,1866.4,2817.2,-913.3,-1419.7,-1999.8,2025-01-29 15:18:39,0.0
-2150.3999999999996,3206.4,2909.2,-1235.3,-2411.7,-1373.8,2025-01-29 15:18:39,0.0
-5926.4,2386.4,3181.2,-949.3,-2049.7,93.19999999999999,2025-01-29 15:18:39,0.0
-5698.4,-1005.5999999999999,3369.2,-1061.3,-486.7,172.2,2025-01-29 15:18:39,0.0
-4258.4,-2697.6,425.20000000000005,-1738.3,138.3,-1763.8,2025-01-29 15:18:39,0.0
-10126.4,-1033.6,-4350.8,-1906.3,1901.3,-2427.8,2025-01-29 15:18:39,0.0
-15074.4,1734.4,-9222.8,-3382.3,4080.3,-663.8,2025-01-29 15:18:39,0.0
-16134.4,490.4000000000001,-7682.8,-4721.3,4207.3,696.2,2025-01-29 15:18:39,0.0
-15730.4,-2061.6,-1626.8,-4271.3,1078.3,1018.2,2025-01-29 15:18:39,0.0
-15738.4,-3145.6,-1134.8,-3072.3,-884.7,879.2,2025-01-29 15:18:39,0.0
-18718.4,-2925.6,-3506.8,-2100.3,-1225.7,693.2,2025-01-29 15:18:39,0.0
-19150.4,-1225.6,-3306.8,-1714.3,-2213.7,1066.2,2025-01-29 15:18:39,0.0
-19150.4,266.4000000000001,-2270.8,-1750.3,-3407.7,2063.2,2025-01-29 15:18:39,0.0
-19150.4,1230.4,3573.2,-776.3,-2582.7,3642.2,2025-01-29 15:18:39,0.0
-19150.4,-361.5999999999999,4237.2,1773.7,-2901.7,4665.2,2025-01-29 15:18:39,0.0
-19150.4,-3225.6,-1546.8,1511.7,-6368.7,3778.2,2025-01-29 15:18:39,0.0
-19150.4,-4565.6,-474.79999999999995,-811.3,-6499.7,-762.8,2025-01-29 15:18:39,0.0
-19150.4,-3989.6,3129.2,-1033.3,-5186.7,-5257.8,2025-01-29 15:18:39,0.0
-19150.4,-3417.6,745.2,-2180.3,-3976.7,-5411.8,2025-01-29 15:18:39,0.0
-19150.4,-1989.6,-2374.8,-270.3,-1096.7,-2551.8,2025-01-29 15:18:39,0.0
-16546.4,-1957.6,-11550.8,316.7,-1155.7,390.2,2025-01-29 15:18:39,0.0
-3038.3999999999996,-2129.6,-15546.8,-3944.3,-3357.7,1980.2,2025-01-29 15:18:39,0.0
10381.6,4102.4,-6402.8,-5822.3,-5908.7,333.2,2025-01-29 15:18:39,0.0
17925.6,7882.4,1077.2,-373.3,-5552.7,174.2,2025-01-29 15:18:39,0.0
26341.6,5026.4,-3714.8,-320.3,-9481.7,4164.2,2025-01-29 15:18:39,0.0
35949.6,1370.4,-4470.8,-2012.3,-13287.7,5522.2,2025-01-29 15:18:39,0.0
34933.6,-2473.6,-9006.8,-2878.3,-11018.7,2037.2,2025-01-29 15:18:39,0.0
30609.6,-1389.6,-9190.8,-3620.3,-3995.7,-3660.8,2025-01-29 15:18:39,0.0
20409.6,62.40000000000009,-9422.8,-4204.3,2681.3,-5911.8,2025-01-29 15:18:39,0.0
13957.6,2010.4,-5202.8,-4568.3,8455.3,-5997.8,2025-01-29 15:18:39,0.0
7417.6,2754.4,2653.2,-4599.3,11596.3,-4621.8,2025-01-29 15:18:39,0.0
6617.6,1410.4,12037.2,-1883.3,11853.3,-324.8,2025-01-29 15:18:39,0.0
9669.6,-1317.6,14185.2,1960.7,8290.3,2408.2,2025-01-29 15:18:39,0.0
11473.6,-3977.6,10881.2,4438.7,3839.3,4197.2,2025-01-29 15:18:39,0.0
14853.6,-3101.6,6649.2,3449.7,158.3,3681.2,2025-01-29 15:18:39,0.0
16469.6,-1565.6,2721.2,2471.7,-2006.7,2240.2,2025-01-29 15:18:39,0.0
17225.6,70.40000000000009,653.2,1128.7,-2132.7,1049.2,2025-01-29 15:18:39,0.0
17909.6,1334.4,37.200000000000045,-29.30000000000001,-1427.7,207.2,2025-01-29 15:18:39,0.0
18121.6,2142.4,-30.799999999999955,-776.3,-543.7,-187.8,2025-01-29 15:18:39,0.0
17925.6,1894.4,297.20000000000005,-1350.3,530.3,-199.8,2025-01-29 15:18:39,0.0
17621.6,1430.4,-150.79999999999995,-1923.3,1522.3,-149.8,2025-01-29 15:18:39,0.0
16737.6,1478.4,437.20000000000005,-2510.3,2845.3,-12.800000000000011,2025-01-29 15:18:39,0.0
16121.6,1546.4,1941.2,-2692.3,3492.3,284.2,2025-01-29 15:18:39,0.0
15725.6,1554.4,4205.2,-2569.3,2941.3,416.2,2025-01-29 15:18:39,0.0
15513.6,942.4000000000001,5369.2,-2172.3,1627.3,303.2,2025-01-29 15:18:39,0.0
14777.6,6.400000000000091,5113.2,-1771.3,299.3,68.19999999999999,2025-01-29 15:18:39,0.0
14801.6,-413.5999999999999,4133.2,-1552.3,-494.7,-196.8,2025-01-29 15:18:39,0.0
15333.6,-633.5999999999999,2505.2,-1833.3,-1138.7,-435.8,2025-01-29 15:18:39,0.0
15389.6,-553.5999999999999,597.2,-2365.3,-2327.7,-719.8,2025-01-29 15:18:39,0.0
15701.6,-149.5999999999999,-190.79999999999995,-2813.3,-3239.7,-1191.8,2025-01-29 15:18:39,0.0
14789.6,838.4000000000001,1605.2,-2795.3,-4545.7,-1492.8,2025-01-29 15:18:39,0.0
10257.6,282.4000000000001,6241.2,-2445.3,-7707.7,-831.8,2025-01-29 15:18:39,0.0
1749.6000000000004,-825.5999999999999,-5310.8,-1587.3,-8683.7,248.2,2025-01-29 15:18:39,0.0
-14546.4,-3477.6,-21330.8,-4984.3,-1426.7,1590.2,2025-01-29 15:18:39,0.0
-19150.4,926.4000000000001,-19082.8,-4587.3,7457.3,3343.2,2025-01-29 15:18:39,0.0
-19150.4,6330.4,8925.2,395.7,24722.3,-2952.8,2025-01-29 15:18:40,0.0
-19150.4,-2805.6,-2582.8,1540.7,7121.3,-1862.8,2025-01-29 15:18:40,0.0
-19150.4,-16297.6,-5058.8,1215.7,-9597.7,5917.2,2025-01-29 15:18:40,0.0
-19150.4,-7429.6,-2782.8,38.69999999999999,-6979.7,1458.2,2025-01-29 15:18:40,0.0
-19150.4,-61.59999999999991,4677.2,-124.30000000000001,-6758.7,1168.2,2025-01-29 15:18:40,0.0
-13642.4,3286.4,9397.2,5562.7,-8217.7,3055.2,2025-01-29 15:18:40,0.0
-1562.3999999999996,3362.4,1057.2,8380.7,-9064.7,4347.2,2025-01-29 15:18:40,0.0
-4050.3999999999996,-437.5999999999999,-2438.8,7158.7,-10285.7,3155.2,2025-01-29 15:18:40,0.0
-3878.3999999999996,-1749.6,-4766.8,3668.7,-5840.7,292.2,2025-01-29 15:18:40,0.0
-4282.4,-1297.6,-5470.8,269.7,-1967.7,-2458.8,2025-01-29 15:18:40,0.0
-6902.4,-909.5999999999999,-4614.8,-1777.3,1504.3,-3027.8,2025-01-29 15:18:40,0.0
-7358.4,894.4000000000001,2245.2,-1985.3,6875.3,-3274.8,2025-01-29 15:18:40,0.0
-6858.4,3118.4,7513.2,651.7,7914.3,-2001.8,2025-01-29 15:18:40,0.0
-4270.4,4438.4,6397.2,4186.7,5834.3,1290.2,2025-01-29 15:18:40,0.0
-366.39999999999964,2882.4,3273.2,5373.7,3008.3,3508.2,2025-01-29 15:18:40,0.0
3837.6000000000004,1430.4,1053.2,5228.7,-542.7,4176.2,2025-01-29 15:18:40,0.0
9513.6,-189.5999999999999,25.200000000000045,3659.7,-3851.7,2646.2,2025-01-29 15:18:40,0.0
11493.6,-305.5999999999999,2133.2,1427.7,-6800.7,-397.8,2025-01-29 15:18:40,0.0
10945.6,194.4000000000001,3149.2,139.7,-8441.7,-1481.8,2025-01-29 15:18:40,0.0
9269.6,286.4000000000001,1585.2,-224.3,-8194.7,-1319.8,2025-01-29 15:18:40,0.0
8025.6,754.4000000000001,129.20000000000005,-438.3,-5966.7,-1002.8,2025-01-29 15:18:40,0.0
6209.6,1398.4,-602.8,579.7,-1624.7,-425.8,2025-01-29 15:18:40,0.0
5909.6,1946.4,-1142.8,1490.7,1870.3,516.2,2025-01-29 15:18:40,0.0
5045.6,974.4000000000001,569.2,1592.7,3956.3,317.2,2025-01-29 15:18:40,0.0
3769.6000000000004,-345.5999999999999,3193.2,1913.7,3810.3,483.2,2025-01-29 15:18:40,0.0
2913.6000000000004,-1377.6,2353.2,1840.7,2611.3,-199.8,2025-01-29 15:18:40,0.0
-546.3999999999996,-1709.6,693.2,764.7,2336.3,-662.8,2025-01-29 15:18:40,0.0
-2954.3999999999996,-365.5999999999999,1081.2,832.7,3403.3,-472.8,2025-01-29 15:18:40,0.0
-3894.3999999999996,926.4000000000001,937.2,1922.7,3925.3,454.2,2025-01-29 15:18:40,0.0
-2266.3999999999996,958.4000000000001,1113.2,2519.7,2827.3,1074.2,2025-01-29 15:18:40,0.0
-1282.3999999999996,282.4000000000001,385.20000000000005,2358.7,1242.3,534.2,2025-01-29 15:18:40,0.0
-510.39999999999964,358.4000000000001,349.20000000000005,1302.7,-342.7,-496.8,2025-01-29 15:18:40,0.0
-1722.3999999999996,190.4000000000001,1437.2,643.7,-2253.7,-697.8,2025-01-29 15:18:40,0.0
-1254.3999999999996,682.4000000000001,-42.799999999999955,301.7,-2845.7,-40.80000000000001,2025-01-29 15:18:40,0.0
-262.39999999999964,938.4000000000001,157.20000000000005,-254.3,-2177.7,381.2,2025-01-29 15:18:40,
1221.6000000000004,130.4000000000001,1321.2,313.7,-1201.7,302.2,2025-01-29 15:18:40,0.0
2425.6000000000004,-713.5999999999999,1805.2,557.7,-742.7,-246.8,2025-01-29 15:18:40,0.0
1785.6000000000004,-657.5999999999999,2909.2,833.7,-239.7,-1083.8,2025-01-29 15:18:40,0.0
69.60000000000036,-109.59999999999991,3253.2,1339.7,-217.7,-994.8,2025-01-29 15:18:40,0.0
-1038.3999999999996,266.4000000000001,2793.2,1767.7,-273.7,-369.8,2025-01-29 15:18:40,0.0
-1306.3999999999996,290.4000000000001,2053.2,1983.7,-135.7,256.2,2025-01-29 15:18:40,0.0
-778.3999999999996,-69.59999999999991,1241.2,1926.7,461.3,351.2,2025-01-29 15:18:40,0.0
-146.39999999999964,-237.5999999999999,1385.2,1994.7,531.3,54.19999999999999,2025-01-29 15:18:40,0.0
577.6000000000004,-197.5999999999999,1121.2,1849.7,-77.69999999999999,-327.8,2025-01-29 15:18:40,0.0
485.60000000000036,114.40000000000009,1117.2,1292.7,-950.7,-485.8,2025-01-29 15:18:40,0.0
-42.399999999999636,414.4000000000001,977.2,886.7,-1005.7,-454.8,2025-01-29 15:18:40,0.0
-430.39999999999964,758.4000000000001,1093.2,685.7,-429.7,-353.8,2025-01-29 15:18:40,0.0
-670.3999999999996,974.4000000000001,1601.2,543.7,222.3,-148.8,2025-01-29 15:18:40,0.0
-358.39999999999964,886.4000000000001,1929.2,578.7,464.3,-19.80000000000001,2025-01-29 15:18:40,0.0
-34.399999999999636,598.4000000000001,1665.2,531.7,296.3,-82.80000000000001,2025-01-29 15:18:40,0.0
-242.39999999999964,266.4000000000001,1869.2,277.7,-190.7,-191.8,2025-01-29 15:18:40,0.0
-330.39999999999964,98.40000000000009,1665.2,-9.300000000000011,-756.7,-105.80000000000001,2025-01-29 15:18:40,0.0
-262.39999999999964,-113.59999999999991,1973.2,-291.3,-962.7,-16.80000000000001,2025-01-29 15:18:40,0.0
-434.39999999999964,54.40000000000009,2173.2,-217.3,-870.7,-46.80000000000001,2025-01-29 15:18:40,0.0
-298.39999999999964,166.4000000000001,2077.2,31.69999999999999,-856.7,51.19999999999999,2025-01-29 15:18:40,0.0
-38.399999999999636,286.4000000000001,2009.2,247.7,-778.7,103.19999999999999,2025-01-29 15:18:40,0.0
41.600000000000364,354.4000000000001,1773.2,342.7,-409.7,81.19999999999999,2025-01-29 15:18:40,0.0
-62.399999999999636,130.4000000000001,1177.2,223.7,-442.7,26.19999999999999,2025-01-29 15:18:40,0.0
-6.399999999999636,-161.5999999999999,1325.2,-158.3,-407.7,-44.80000000000001,2025-01-29 15:18:40,0.0
-258.39999999999964,-157.5999999999999,2113.2,-183.3,-275.7,-132.8,2025-01-29 15:18:40,0.0
-410.39999999999964,38.40000000000009,2049.2,-133.3,-298.7,-128.8,2025-01-29 15:18:40,0.0
-310.39999999999964,-69.59999999999991,1817.2,-185.3,-446.7,-147.8,2025-01-29 15:18:40,0.0
-114.39999999999964,-157.5999999999999,1505.2,-184.3,-475.7,-87.80000000000001,2025-01-29 15:18:41,0.0
-126.39999999999964,-121.59999999999991,1741.2,-220.3,-505.7,-30.80000000000001,2025-01-29 15:18:41,0.0
-146.39999999999964,-77.59999999999991,1929.2,-247.3,-622.7,139.2,2025-01-29 15:18:41,0.0
-86.39999999999964,-201.5999999999999,2125.2,41.69999999999999,-473.7,277.2,2025-01-29 15:18:41,0.0
-158.39999999999964,-313.5999999999999,2001.2,412.7,-81.69999999999999,330.2,2025-01-29 15:18:41,0.0
-214.39999999999964,-157.5999999999999,1957.2,667.7,131.3,385.2,2025-01-29 15:18:41,0.0
-350.39999999999964,66.40000000000009,1953.2,764.7,126.30000000000001,548.2,2025-01-29 15:18:41,0.0
-298.39999999999964,150.4000000000001,2105.2,927.7,133.3,713.2,2025-01-29 15:18:41,0.0
105.60000000000036,-89.59999999999991,1909.2,1089.7,318.3,656.2,2025-01-29 15:18:41,0.0
501.60000000000036,-73.59999999999991,1853.2,1243.7,747.3,370.2,2025-01-29 15:18:41,0.0
217.60000000000036,-41.59999999999991,1881.2,1255.7,1152.3,241.2,2025-01-29 15:18:41,0.0
-102.39999999999964,26.40000000000009,1877.2,1215.7,1619.3,270.2,2025-01-29 15:18:41,0.0
-362.39999999999964,338.4000000000001,1757.2,1275.7,1760.3,475.2,2025-01-29 15:18:41,0.0
-546.3999999999996,898.4000000000001,1281.2,1343.7,1790.3,595.2,2025-01-29 15:18:41,0.0
-166.39999999999964,1006.4000000000001,1341.2,837.7,2364.3,526.2,2025-01-29 15:18:41,0.0
557.6000000000004,346.4000000000001,1625.2,831.7,1801.3,-77.80000000000001,2025-01-29 15:18:41,0.0
917.6000000000004,-481.5999999999999,1593.2,698.7,1160.3,-811.8,2025-01-29 15:18:41,0.0
253.60000000000036,-345.5999999999999,2317.2,913.7,1511.3,-1029.8,2025-01-29 15:18:41,0.0
-234.39999999999964,142.4000000000001,2349.2,1443.7,2136.3,-748.8,2025-01-29 15:18:41,0.0
493.60000000000036,582.4000000000001,1829.2,1571.7,2616.3,-850.8,2025-01-29 15:18:41,0.0
161.60000000000036,718.4000000000001,1385.2,1422.7,3203.3,-1147.8,2025-01-29 15:18:41,0.0
13.600000000000364,286.4000000000001,801.2,1436.7,3950.3,-1334.8,2025-01-29 15:18:41,0.0
-1262.3999999999996,538.4000000000001,593.2,1533.7,3791.3,-1015.8,2025-01-29 15:18:41,0.0
-646.3999999999996,626.4000000000001,281.20000000000005,1212.7,2654.3,-688.8,2025-01-29 15:18:41,0.0
-854.3999999999996,494.4000000000001,521.2,932.7,1806.3,-770.8,2025-01-29 15:18:41,0.0
-1022.3999999999996,702.4000000000001,677.2,926.7,774.3,-565.8,2025-01-29 15:18:41,0.0
-774.3999999999996,738.4000000000001,981.2,780.7,-165.7,-474.8,2025-01-29 15:18:41,0.0
-594.3999999999996,762.4000000000001,793.2,542.7,-1107.7,-397.8,2025-01-29 15:18:41,0.0
-130.39999999999964,558.4000000000001,665.2,256.7,-1712.7,-357.8,2025-01-29 15:18:41,0.0
-366.39999999999964,526.4000000000001,977.2,44.69999999999999,-1799.7,-254.8,2025-01-29 15:18:41,0.0
-158.39999999999964,382.4000000000001,1157.2,-141.3,-1690.7,-353.8,2025-01-29 15:18:41,0.0
317.60000000000036,-269.5999999999999,1265.2,-269.3,-1128.7,-676.8,2025-01-29 15:18:41,0.0
-718.3999999999996,-429.5999999999999,2437.2,322.7,-101.69999999999999,-654.8,2025-01-29 15:18:41,0.0
-626.3999999999996,-901.5999999999999,2685.2,1276.7,-484.7,-374.8,2025-01-29 15:18:41,0.0
-766.3999999999996,-361.5999999999999,553.2,1284.7,-1879.7,-618.8,2025-01-29 15:18:41,0.0
109.60000000000036,-1257.6,1657.2,589.7,-4941.7,-934.8,2025-01-29 15:18:41,0.0
313.60000000000036,-1433.6,1957.2,908.7,-4478.7,-976.8,2025-01-29 15:18:41,0.0
1149.6000000000004,-1025.6,1989.2,1604.7,-1552.7,-802.8,2025-01-29 15:18:41,0.0
1109.6000000000004,-1053.6,1013.2,1957.7,926.3,-735.8,2025-01-29 15:18:41,0.0
889.6000000000004,-965.5999999999999,953.2,1983.7,2625.3,-1038.8,2025-01-29 15:18:41,0.0
217.60000000000036,-1241.6,1285.2,2017.7,3692.3,-1447.8,2025-01-29 15:18:41,0.0
-774.3999999999996,-1429.6,2081.2,1985.7,3374.3,-1478.8,2025-01-29 15:18:41,0.0
-1070.3999999999996,-981.5999999999999,3017.2,1988.7,1633.3,-1221.8,2025-01-29 15:18:41,0.0
-1150.3999999999996,-297.5999999999999,2817.2,1798.7,-141.7,-945.8,2025-01-29 15:18:41,0.0
-702.3999999999996,-161.5999999999999,1989.2,1373.7,-1105.7,-939.8,2025-01-29 15:18:41,0.0
-94.39999999999964,-225.5999999999999,1809.2,855.7,-1320.7,-1197.8,2025-01-29 15:18:41,0.0
305.60000000000036,-493.5999999999999,1965.2,426.7,-1102.7,-1582.8,2025-01-29 15:18:41,0.0
433.60000000000036,-897.5999999999999,2609.2,246.7,-709.7,-1836.8,2025-01-29 15:18:41,0.0
245.60000000000036,-1449.6,2837.2,351.7,-563.7,-1853.8,2025-01-29 15:18:41,0.0
205.60000000000036,-1613.6,3005.2,477.7,-997.7,-1711.8,2025-01-29 15:18:41,0.0
185.60000000000036,-1501.6,3257.2,578.7,-1329.7,-1513.8,2025-01-29 15:18:41,0.0
369.60000000000036,-1261.6,2965.2,543.7,-1535.7,-1425.8,2025-01-29 15:18:41,0.0
549.6000000000004,-1137.6,2809.2,399.7,-1744.7,-1320.8,2025-01-29 15:18:41,0.0
789.6000000000004,-973.5999999999999,2989.2,310.7,-1807.7,-1075.8,2025-01-29 15:18:41,0.0
673.6000000000004,-889.5999999999999,3077.2,29.69999999999999,-1348.7,-772.8,2025-01-29 15:18:41,0.0
293.60000000000036,-901.5999999999999,2773.2,-381.3,-667.7,-337.8,2025-01-29 15:18:41,0.0
225.60000000000036,-901.5999999999999,3181.2,-929.3,-155.7,-58.80000000000001,2025-01-29 15:18:41,0.0
537.6000000000004,-881.5999999999999,3697.2,-1459.3,-362.7,-118.80000000000001,2025-01-29 15:18:41,0.0
645.6000000000004,-1029.6,2973.2,-1898.3,-805.7,-360.8,2025-01-29 15:18:41,0.0
457.60000000000036,-925.5999999999999,2669.2,-2341.3,-904.7,-483.8,2025-01-29 15:18:41,0.0
361.60000000000036,-717.5999999999999,2989.2,-2915.3,-30.69999999999999,-462.8,2025-01-29 15:18:42,0.0
193.60000000000036,-577.5999999999999,3205.2,-3519.3,953.3,-394.8,2025-01-29 15:18:42,0.0
-58.399999999999636,-785.5999999999999,3461.2,-4235.3,1310.3,-552.8,2025-01-29 15:18:42,0.0
-378.39999999999964,-1321.6,3653.2,-4838.3,701.3,-916.8,2025-01-29 15:18:42,0.0
-582.3999999999996,-1913.6,3865.2,-4686.3,-191.7,-668.8,2025-01-29 15:18:42,0.0
-78.39999999999964,-2053.6,3549.2,-4325.3,-410.7,-234.8,2025-01-29 15:18:42,0.0
185.60000000000036,-1857.6,3749.2,-4933.3,126.30000000000001,-446.8,2025-01-29 15:18:42,0.0
-162.39999999999964,-2181.6,4805.2,-5160.3,253.3,-476.8,2025-01-29 15:18:42,0.0
-298.39999999999964,-3133.6,5401.2,-4912.3,129.3,-207.8,2025-01-29 15:18:42,0.0
-454.39999999999964,-3889.6,5141.2,-4467.3,313.3,-257.8,2025-01-29 15:18:42,0.0
-358.39999999999964,-4893.6,3377.2,-4247.3,815.3,-590.8,2025-01-29 15:18:42,0.0
-594.3999999999996,-4577.6,1637.2,-4710.3,1251.3,-1846.8,2025-01-29 15:18:42,0.0
-1794.3999999999996,-3725.6,2757.2,-4535.3,1484.3,-3336.8,2025-01-29 15:18:42,
-3194.3999999999996,-3545.6,4717.2,-2892.3,828.3,-3526.8,2025-01-29 15:18:42,0.0
-4414.4,-4361.6,4193.2,-943.3,-693.7,-2419.8,2025-01-29 15:18:42,0.0
-4810.4,-5093.6,2025.2,238.7,-2725.7,-173.8,2025-01-29 15:18:42,0.0
-3834.3999999999996,-4665.6,1897.2,538.7,-4039.7,1314.2,2025-01-29 15:18:42,0.0
-2950.3999999999996,-3625.6,2837.2,1209.7,-4094.7,2034.2,2025-01-29 15:18:42,0.0
-2654.3999999999996,-3417.6,2353.2,2261.7,-3324.7,3360.2,2025-01-29 15:18:42,0.0
-1550.3999999999996,-3581.6,1285.2,3083.7,-3029.7,4527.2,2025-01-29 15:18:42,0.0
-866.3999999999996,-2753.6,157.20000000000005,3580.7,-2659.7,4488.2,2025-01-29 15:18:42,0.0
-518.3999999999996,-1525.6,-510.79999999999995,4012.7,-2885.7,3946.2,2025-01-29 15:18:42,0.0
61.600000000000364,-513.5999999999999,-1006.8,4342.7,-3963.7,3736.2,2025-01-29 15:18:42,0.0
1273.6000000000004,338.4000000000001,-1414.8,4844.7,-4815.7,3523.2,2025-01-29 15:18:42,0.0
2141.6000000000004,2190.4,-2470.8,4842.7,-4669.7,3273.2,2025-01-29 15:18:42,0.0
3365.6000000000004,4170.4,-3050.8,3854.7,-3009.7,3061.2,2025-01-29 15:18:42,0.0
3785.6000000000004,4906.4,-3086.8,2219.7,-252.7,2533.2,2025-01-29 15:18:42,0.0
3409.6000000000004,3554.4,-2574.8,331.7,3533.3,1818.2,2025-01-29 15:18:42,0.0
1425.6000000000004,1898.4,-950.8,-1032.3,6781.3,1720.2,2025-01-29 15:18:42,0.0
-1050.3999999999996,810.4000000000001,1517.2,-1301.3,8982.3,2301.2,2025-01-29 15:18:42,0.0
-2206.3999999999996,-241.5999999999999,2085.2,-1244.3,9021.3,2743.2,2025-01-29 15:18:42,0.0
-3722.3999999999996,-257.5999999999999,2477.2,-832.3,5830.3,2935.2,2025-01-29 15:18:42,0.0
-4134.4,746.4000000000001,2505.2,282.7,1168.3,3894.2,2025-01-29 15:18:42,0.0
-2570.3999999999996,1742.4,2553.2,1063.7,-3710.7,4614.2,2025-01-29 15:18:42,0.0
61.600000000000364,2310.4,1329.2,871.7,-6652.7,4415.2,2025-01-29 15:18:42,0.0
1913.6000000000004,2614.4,1093.2,89.69999999999999,-7143.7,3533.2,2025-01-29 15:18:42,0.0
3201.6000000000004,2318.4,1033.2,-663.3,-5896.7,2623.2,2025-01-29 15:18:42,0.0
3865.6000000000004,1758.4,1313.2,-1076.3,-3206.7,1785.2,2025-01-29 15:18:42,0.0
3921.6000000000004,1310.4,1773.2,-947.3,-392.7,1380.2,2025-01-29 15:18:42,0.0
3785.6000000000004,1158.4,2065.2,-701.3,1787.3,1165.2,2025-01-29 15:18:42,0.0
3109.6000000000004,1094.4,2581.2,-479.3,2727.3,710.2,2025-01-29 15:18:42,0.0
2009.6000000000004,1074.4,3141.2,-290.3,2785.3,238.2,2025-01-29 15:18:42,0.0
1289.6000000000004,1142.4,4145.2,38.69999999999999,2029.3,-209.8,2025-01-29 15:18:42,0.0
977.6000000000004,1278.4,4437.2,271.7,748.3,-794.8,2025-01-29 15:18:42,0.0
433.60000000000036,1178.4,4817.2,627.7,-858.7,-1355.8,2025-01-29 15:18:42,0.0
617.6000000000004,814.4000000000001,4409.2,1140.7,-2097.7,-1631.8,2025-01-29 15:18:42,0.0
797.6000000000004,546.4000000000001,3717.2,1615.7,-2526.7,-1706.8,2025-01-29 15:18:42,0.0
737.6000000000004,938.4000000000001,3489.2,2080.7,-1987.7,-1817.8,2025-01-29 15:18:42,0.0
-18.399999999999636,2226.4,3329.2,2148.7,-1045.7,-1516.8,2025-01-29 15:18:42,0.0
-754.3999999999996,2986.4,2933.2,2079.7,-188.7,-927.8,2025-01-29 15:18:42,0.0
-1574.3999999999996,2662.4,3225.2,2078.7,418.3,-271.8,2025-01-29 15:18:42,0.0
-2434.3999999999996,2226.4,3561.2,1919.7,1512.3,680.2,2025-01-29 15:18:42,0.0
-1994.3999999999996,2134.4,3397.2,1833.7,2733.3,1677.2,2025-01-29 15:18:42,0.0
-558.3999999999996,2342.4,3233.2,1685.7,3402.3,2406.2,2025-01-29 15:18:42,0.0
1373.6000000000004,1842.4,3725.2,1486.7,2767.3,2150.2,2025-01-29 15:18:42,0.0
613.6000000000004,666.4000000000001,4709.2,1945.7,2064.3,1293.2,2025-01-29 15:18:42,0.0
-1994.3999999999996,-973.5999999999999,3481.2,3111.7,4330.3,585.2,2025-01-29 15:18:42,0.0
-4346.4,334.4000000000001,481.20000000000005,3792.7,7082.3,151.2,2025-01-29 15:18:42,0.0
-7070.4,3958.4,-4270.8,2987.7,8350.3,1595.2,2025-01-29 15:18:42,0.0
-8494.4,7038.4,-7494.8,466.7,8759.3,4306.2,2025-01-29 15:18:42,0.0
-7574.4,9462.4,-7202.8,-2795.3,7704.3,6371.2,2025-01-29 15:18:42,0.0
-3294.3999999999996,10554.4,-4462.8,-5938.3,3002.3,5822.2,2025-01-29 15:18:42,0.0
1489.6000000000004,7542.4,-1598.8,-7697.3,-3494.7,1232.2,2025-01-29 15:18:43,0.0
1105.6000000000004,1582.4,-1222.8,-8810.3,-8314.7,-3540.8,2025-01-29 15:18:43,0.0
2317.6000000000004,-1489.6,-786.8,-8322.3,-12738.7,-5510.8,2025-01-29 15:18:43,0.0
2757.6000000000004,-3017.6,-1930.8,-6961.3,-14750.7,-5861.8,2025-01-29 15:18:43,0.0
2733.6000000000004,-3901.6,-2402.8,-6417.3,-13187.7,-4625.8,2025-01-29 15:18:43,0.0
3017.6000000000004,-2673.6,-822.8,-5622.3,-7338.7,-2512.8,2025-01-29 15:18:43,0.0
3557.6000000000004,18.40000000000009,221.20000000000005,-3511.3,2028.3,-857.8,2025-01-29 15:18:43,0.0
3005.6000000000004,1446.4,-1254.8,-2907.3,9298.3,-166.8,2025-01-29 15:18:43,0.0
1089.6000000000004,2738.4,1.2000000000000455,-3768.3,11455.3,-443.8,2025-01-29 15:18:43,0.0
-582.3999999999996,2534.4,-366.79999999999995,-4776.3,9910.3,-1182.8,2025-01-29 15:18:43,0.0
-2186.3999999999996,1910.4,-882.8,-6017.3,6469.3,-1734.8,2025-01-29 15:18:43,0.0
-2830.3999999999996,1370.4,-1902.8,-7476.3,2360.3,-2246.8,2025-01-29 15:18:43,0.0
-2414.3999999999996,978.4000000000001,-1278.8,-8766.3,-1963.7,-2685.8,2025-01-29 15:18:43,0.0
-658.3999999999996,802.4000000000001,-1342.8,-9510.3,-4132.7,-2839.8,2025-01-29 15:18:43,0.0
173.60000000000036,1050.4,-482.79999999999995,-10586.3,-5538.7,-2685.8,2025-01-29 15:18:43,0.0
1737.6000000000004,898.4000000000001,-930.8,-11346.3,-5337.7,-2711.8,2025-01-29 15:18:43,0.0
2333.6000000000004,698.4000000000001,-1158.8,-11783.3,-3854.7,-2779.8,2025-01-29 15:18:43,0.0
2045.6000000000004,306.4000000000001,-770.8,-11940.3,-1540.7,-2683.8,2025-01-29 15:18:43,0.0
1681.6000000000004,-149.5999999999999,-394.79999999999995,-11809.3,175.3,-2255.8,2025-01-29 15:18:43,0.0
1341.6000000000004,-345.5999999999999,-74.79999999999995,-11769.3,809.3,-1700.8,2025-01-29 15:18:43,0.0
549.6000000000004,6.400000000000091,557.2,-11989.3,443.3,-1217.8,2025-01-29 15:18:43,0.0
189.60000000000036,154.4000000000001,545.2,-12380.3,-417.7,-978.8,2025-01-29 15:18:43,0.0
237.60000000000036,278.4000000000001,-86.79999999999995,-12908.3,-1789.7,-485.8,2025-01-29 15:18:43,0.0
633.6000000000004,454.4000000000001,-706.8,-13105.3,-2410.7,-195.8,2025-01-29 15:18:43,0.0
1117.6000000000004,586.4000000000001,-426.79999999999995,-13289.3,-2190.7,-8.800000000000011,2025-01-29 15:18:43,0.0
1113.6000000000004,634.4000000000001,-230.79999999999995,-13608.3,-978.7,-166.8,2025-01-29 15:18:43,0.0
277.60000000000036,686.4000000000001,61.200000000000045,-13906.3,567.3,-125.80000000000001,2025-01-29 15:18:43,0.0
-710.3999999999996,358.4000000000001,277.20000000000005,-14231.3,943.3,-31.80000000000001,2025-01-29 15:18:43,0.0
-1374.3999999999996,14.400000000000091,245.20000000000005,-14595.3,300.3,-51.80000000000001,2025-01-29 15:18:43,0.0
-1070.3999999999996,-253.5999999999999,-30.799999999999955,-15247.3,-920.7,-412.8,2025-01-29 15:18:43,0.0
-994.3999999999996,-73.59999999999991,333.20000000000005,-16007.3,-2019.7,-814.8,2025-01-29 15:18:43,0.0
-82.39999999999964,-9.599999999999909,285.20000000000005,-16751.3,-2873.7,-1034.8,2025-01-29 15:18:43,0.0
385.60000000000036,254.4000000000001,273.20000000000005,-17298.3,-2915.7,-1135.8,2025-01-29 15:18:43,0.0
473.60000000000036,262.4000000000001,-90.79999999999995,-17561.3,-2462.7,-1139.8,2025-01-29 15:18:43,0.0
353.60000000000036,-157.5999999999999,-142.79999999999995,-17766.3,-1647.7,-1078.8,2025-01-29 15:18:43,0.0
441.60000000000036,-605.5999999999999,601.2,-17925.3,-621.7,-1055.8,2025-01-29 15:18:43,0.0
241.60000000000036,-753.5999999999999,1237.2,-17946.3,154.3,-1058.8,2025-01-29 15:18:43,0.0
-18.399999999999636,-921.5999999999999,1589.2,-17999.3,234.3,-1171.8,2025-01-29 15:18:43,0.0
-238.39999999999964,-1837.6,1633.2,-18582.3,-172.7,-1888.8,2025-01-29 15:18:43,0.0
-1034.3999999999996,-3601.6,1957.2,-18975.3,-559.7,-2777.8,2025-01-29 15:18:43,0.0
-1446.3999999999996,-4333.6,1885.2,-18244.3,-1039.7,-2305.8,2025-01-29 15:18:43,0.0
-942.3999999999996,-4093.6,2105.2,-17312.3,-1272.7,-1442.8,2025-01-29 15:18:43,0.0
-330.39999999999964,-3541.6,1625.2,-17025.3,-971.7,-1259.8,2025-01-29 15:18:43,0.0
-698.3999999999996,-1637.6,577.2,-16751.3,-657.7,-1164.8,2025-01-29 15:18:43,0.0
-1438.3999999999996,182.4000000000001,-494.79999999999995,-16238.3,-73.69999999999999,-838.8,2025-01-29 15:18:43,0.0
-2282.3999999999996,898.4000000000001,-1718.8,-15807.3,1455.3,-646.8,2025-01-29 15:18:43,0.0
-2330.3999999999996,154.4000000000001,-1314.8,-15237.3,3557.3,-880.8,2025-01-29 15:18:43,0.0
-1858.3999999999996,-825.5999999999999,-222.79999999999995,-14705.3,4737.3,-1670.8,2025-01-29 15:18:43,0.0
-822.3999999999996,-281.5999999999999,785.2,-14517.3,3470.3,-1830.8,2025-01-29 15:18:43,0.0
477.60000000000036,642.4000000000001,825.2,-14409.3,1938.3,-1530.8,2025-01-29 15:18:43,0.0
1617.6000000000004,998.4000000000001,-430.79999999999995,-14010.3,942.3,-1605.8,2025-01-29 15:18:43,
2289.6000000000004,1198.4,-1758.8,-14298.3,562.3,-2386.8,2025-01-29 15:18:43,0.0
2725.6000000000004,2054.4,-1738.8,-15226.3,1011.3,-3710.8,2025-01-29 15:18:43,0.0
1557.6000000000004,3194.4,-1754.8,-16152.3,1738.3,-4232.8,2025-01-29 15:18:43,0.0
393.60000000000036,4174.4,-1666.8,-16900.3,2275.3,-3916.8,2025-01-29 15:18:43,0.0
-746.3999999999996,5058.4,-1642.8,-17169.3,2232.3,-3406.8,2025-01-29 15:18:43,0.0
-1410.3999999999996,5354.4,-1866.8,-17304.3,1302.3,-2661.8,2025-01-29 15:18:43,0.0
-1050.3999999999996,4274.4,-2210.8,-17690.3,-1109.7,-1487.8,2025-01-29 15:18:43,0.0
1.6000000000003638,2414.4,-2422.8,-18379.3,-2276.7,-899.8,2025-01-29 15:18:43,0.0
721.6000000000004,994.4000000000001,-2326.8,-18893.3,-1772.7,-758.8,2025-01-29 15:18:44,0.0
1013.6000000000004,342.4000000000001,-1618.8,-19082.3,-443.7,-844.8,2025-01-29 15:18:44,0.0
973.6000000000004,310.4000000000001,-1018.8,-18830.3,412.3,-897.8,2025-01-29 15:18:44,0.0
257.60000000000036,430.4000000000001,-518.8,-18043.3,539.3,-953.8,2025-01-29 15:18:44,0.0
-486.39999999999964,870.4000000000001,-434.79999999999995,-17212.3,287.3,-1155.8,2025-01-29 15:18:44,0.0
-822.3999999999996,1426.4,-630.8,-16866.3,-284.7,-1305.8,2025-01-29 15:18:44,0.0
-1122.3999999999996,1874.4,-578.8,-16789.3,-1415.7,-1352.8,2025-01-29 15:18:44,0.0
-938.3999999999996,2282.4,9.200000000000045,-16474.3,-2518.7,-1380.8,2025-01-29 15:18:44,0.0
-626.3999999999996,2638.4,-158.79999999999995,-16460.3,-2956.7,-1284.8,2025-01-29 15:18:44,0.0
-94.39999999999964,2658.4,-326.79999999999995,-16646.3,-2850.7,-1390.8,2025-01-29 15:18:44,0.0
233.60000000000036,2482.4,-38.799999999999955,-16949.3,-2464.7,-1628.8,2025-01-29 15:18:44,0.0
285.60000000000036,1662.4,273.20000000000005,-17067.3,-2239.7,-1874.8,2025-01-29 15:18:44,0.0
889.6000000000004,230.4000000000001,385.20000000000005,-16965.3,-2696.7,-2187.8,2025-01-29 15:18:44,0.0
897.6000000000004,-869.5999999999999,-614.8,-16834.3,-3864.7,-2463.8,2025-01-29 15:18:44,0.0
1521.6000000000004,-969.5999999999999,-1958.8,-16815.3,-4995.7,-2742.8,2025-01-29 15:18:44,0.0
1597.6000000000004,26.40000000000009,-1310.8,-16489.3,-4602.7,-2956.8,2025-01-29 15:18:44,0.0
1397.6000000000004,882.4000000000001,-98.79999999999995,-16547.3,-2186.7,-2615.8,2025-01-29 15:18:44,0.0
1105.6000000000004,786.4000000000001,53.200000000000045,-16596.3,211.3,-2091.8,2025-01-29 15:18:44,0.0
941.6000000000004,258.4000000000001,-430.79999999999995,-16243.3,1007.3,-1666.8,2025-01-29 15:18:44,0.0
765.6000000000004,534.4000000000001,-78.79999999999995,-16029.3,1245.3,-1744.8,2025-01-29 15:18:44,0.0
41.600000000000364,1030.4,477.20000000000005,-15988.3,1616.3,-2315.8,2025-01-29 15:18:44,0.0
-1022.3999999999996,1286.4,1377.2,-15731.3,1764.3,-2991.8,2025-01-29 15:18:44,0.0
-2098.3999999999996,586.4000000000001,2317.2,-15019.3,1295.3,-3336.8,2025-01-29 15:18:44,0.0
-2986.3999999999996,-933.5999999999999,2817.2,-13793.3,303.3,-2980.8,2025-01-29 15:18:44,0.0
-2578.3999999999996,-2333.6,3013.2,-11966.3,-1143.7,-2341.8,2025-01-29 15:18:44,0.0
-1242.3999999999996,-2613.6,3101.2,-9893.3,-2822.7,-1518.8,2025-01-29 15:18:44,0.0
145.60000000000036,-1745.6,2501.2,-7891.3,-3795.7,-1002.8,2025-01-29 15:18:44,0.0
1129.6000000000004,-665.5999999999999,885.2,-6472.3,-3508.7,-716.8,2025-01-29 15:18:44,0.0
1193.6000000000004,-505.5999999999999,37.200000000000045,-5826.3,-1551.7,-680.8,2025-01-29 15:18:44,0.0
673.6000000000004,-917.5999999999999,301.20000000000005,-5375.3,1308.3,-764.8,2025-01-29 15:18:44,0.0
181.60000000000036,-573.5999999999999,2165.2,-4985.3,1898.3,-1116.8,2025-01-29 15:18:44,0.0
-202.39999999999964,582.4000000000001,2497.2,-4740.3,880.3,-1550.8,2025-01-29 15:18:44,0.0
-426.39999999999964,1434.4,1749.2,-5053.3,-780.7,-1825.8,2025-01-29 15:18:44,0.0
17.600000000000364,1950.4,741.2,-5497.3,-1451.7,-1788.8,2025-01-29 15:18:44,0.0
689.6000000000004,1886.4,-578.8,-6306.3,-878.7,-1678.8,2025-01-29 15:18:44,0.0
833.6000000000004,974.4000000000001,-382.79999999999995,-8059.3,692.3,-2141.8,2025-01-29 15:18:44,0.0
493.60000000000036,-409.5999999999999,481.20000000000005,-9013.3,1444.3,-2448.8,2025-01-29 15:18:44,0.0
-650.3999999999996,-1665.6,1945.2,-8932.3,1959.3,-2427.8,2025-01-29 15:18:44,0.0
-1546.3999999999996,-2361.6,2937.2,-8408.3,1920.3,-2185.8,2025-01-29 15:18:44,0.0
-1658.3999999999996,-2681.6,2737.2,-7744.3,880.3,-2042.8,2025-01-29 15:18:44,0.0
-1934.3999999999996,-2509.6,2033.2,-7226.3,-833.7,-1896.8,2025-01-29 15:18:44,0.0
-678.3999999999996,-653.5999999999999,2157.2,-6010.3,-3234.7,-1420.8,2025-01-29 15:18:44,0.0
605.6000000000004,-369.5999999999999,841.2,-5658.3,-3774.7,-1114.8,2025-01-29 15:18:44,0.0
1633.6000000000004,-1389.6,713.2,-6449.3,-1982.7,-1458.8,2025-01-29 15:18:44,0.0
1269.6000000000004,-2469.6,2065.2,-6832.3,588.3,-1981.8,2025-01-29 15:18:44,0.0
49.600000000000364,-2977.6,2997.2,-6100.3,1419.3,-1665.8,2025-01-29 15:18:44,0.0
-782.3999999999996,-2269.6,3637.2,-5089.3,381.3,-937.8,2025-01-29 15:18:44,0.0
-694.3999999999996,-841.5999999999999,2741.2,-4405.3,-846.7,-362.8,2025-01-29 15:18:44,0.0
-182.39999999999964,-245.5999999999999,1941.2,-4250.3,-1234.7,257.2,2025-01-29 15:18:44,0.0
521.6000000000004,-805.5999999999999,1741.2,-4201.3,-847.7,643.2,2025-01-29 15:18:44,0.0
521.6000000000004,-1637.6,2093.2,-3828.3,50.30000000000001,865.2,2025-01-29 15:18:44,0.0
601.6000000000004,-1961.6,2281.2,-3271.3,463.3,1159.2,2025-01-29 15:18:44,0.0
553.6000000000004,-2833.6,2597.2,-2501.3,612.3,1562.2,2025-01-29 15:18:44,0.0
-330.39999999999964,-2729.6,2157.2,-1870.3,1017.3,1717.2,2025-01-29 15:18:44,0.0
-846.3999999999996,-1861.6,2237.2,-1261.3,1828.3,1564.2,2025-01-29 15:18:44,0.0
-1542.3999999999996,-629.5999999999999,1733.2,-511.3,1957.3,1297.2,2025-01-29 15:18:44,0.0
-1734.3999999999996,422.4000000000001,1501.2,-154.3,394.3,1486.2,2025-01-29 15:18:44,0.0
-1098.3999999999996,1094.4,1485.2,-110.30000000000001,-1779.7,1756.2,2025-01-29 15:18:44,0.0
-346.39999999999964,1282.4,1225.2,-212.3,-2960.7,1775.2,2025-01-29 15:18:44,0.0
409.60000000000036,954.4000000000001,173.20000000000005,-535.3,-2664.7,1577.2,2025-01-29 15:18:44,0.0
1373.6000000000004,206.4000000000001,-982.8,-968.3,-927.7,701.2,2025-01-29 15:18:44,0.0
1397.6000000000004,-61.59999999999991,-434.79999999999995,-1074.3,952.3,80.19999999999999,2025-01-29 15:18:45,0.0
817.6000000000004,-201.5999999999999,225.20000000000005,-1064.3,2122.3,88.19999999999999,2025-01-29 15:18:45,0.0
353.60000000000036,-381.5999999999999,873.2,-903.3,2756.3,299.2,2025-01-29 15:18:45,0.0
-266.39999999999964,-381.5999999999999,701.2,-673.3,2799.3,414.2,2025-01-29 15:18:45,0.0
-722.3999999999996,-621.5999999999999,865.2,-439.3,1993.3,268.2,2025-01-29 15:18:45,0.0
-806.3999999999996,-421.5999999999999,389.20000000000005,-94.30000000000001,-15.699999999999989,13.199999999999989,2025-01-29 15:18:45,0.0
-478.39999999999964,-65.59999999999991,377.20000000000005,166.7,-1235.7,28.19999999999999,2025-01-29 15:18:45,0.0
1.6000000000003638,166.4000000000001,477.20000000000005,343.7,-1086.7,108.19999999999999,2025-01-29 15:18:45,0.0
33.600000000000364,442.4000000000001,537.2,517.7,-46.69999999999999,259.2,2025-01-29 15:18:45,0.0
89.60000000000036,418.4000000000001,365.20000000000005,505.7,805.3,245.2,2025-01-29 15:18:45,0.0
-374.39999999999964,306.4000000000001,1025.2,530.7,1019.3,330.2,2025-01-29 15:18:45,0.0
-418.39999999999964,414.4000000000001,1241.2,519.7,347.3,364.2,2025-01-29 15:18:45,0.0
-534.3999999999996,374.4000000000001,1141.2,453.7,-692.7,288.2,2025-01-29 15:18:45,0.0
-422.39999999999964,366.4000000000001,641.2,415.7,-1171.7,117.19999999999999,2025-01-29 15:18:45,0.0
-402.39999999999964,250.4000000000001,21.200000000000045,363.7,-829.7,80.19999999999999,2025-01-29 15:18:45,0.0
-170.39999999999964,790.4000000000001,-342.79999999999995,272.7,162.3,433.2,2025-01-29 15:18:45,0.0
509.60000000000036,1010.4000000000001,165.20000000000005,74.69999999999999,610.3,409.2,2025-01-29 15:18:45,0.0
457.60000000000036,998.4000000000001,733.2,8.699999999999989,447.3,363.2,2025-01-29 15:18:45,0.0
365.60000000000036,726.4000000000001,733.2,70.69999999999999,24.30000000000001,342.2,2025-01-29 15:18:45,0.0
313.60000000000036,202.4000000000001,557.2,229.7,-6.699999999999989,146.2,2025-01-29 15:18:45,0.0
-194.39999999999964,-89.59999999999991,341.20000000000005,328.7,576.3,86.19999999999999,2025-01-29 15:18:45,0.0
-566.3999999999996,-57.59999999999991,289.20000000000005,474.7,996.3,196.2,2025-01-29 15:18:45,0.0
-486.39999999999964,370.4000000000001,485.20000000000005,585.7,664.3,278.2,2025-01-29 15:18:45,0.0
-22.399999999999636,790.4000000000001,289.20000000000005,451.7,-602.7,98.19999999999999,2025-01-29 15:18:45,0.0
285.60000000000036,990.4000000000001,261.20000000000005,194.7,-1178.7,-150.8,2025-01-29 15:18:45,0.0
533.6000000000004,898.4000000000001,5.2000000000000455,133.7,-486.7,-143.8,2025-01-29 15:18:45,0.0
513.6000000000004,846.4000000000001,17.200000000000045,115.69999999999999,530.3,-134.8,2025-01-29 15:18:45,0.0
241.60000000000036,866.4000000000001,209.20000000000005,27.69999999999999,1145.3,-64.80000000000001,2025-01-29 15:18:45,0.0
-142.39999999999964,542.4000000000001,469.20000000000005,-59.30000000000001,1067.3,-30.80000000000001,2025-01-29 15:18:45,0.0
-334.39999999999964,354.4000000000001,565.2,-148.3,658.3,-36.80000000000001,2025-01-29 15:18:45,0.0
-462.39999999999964,394.4000000000001,425.20000000000005,-137.3,106.30000000000001,-64.80000000000001,2025-01-29 15:18:45,
-194.39999999999964,542.4000000000001,345.20000000000005,-65.30000000000001,-190.7,-99.80000000000001,2025-01-29 15:18:45,0.0
89.60000000000036,502.4000000000001,145.20000000000005,9.699999999999989,-102.69999999999999,-60.80000000000001,2025-01-29 15:18:45,0.0
113.60000000000036,470.4000000000001,281.20000000000005,68.69999999999999,190.3,-4.800000000000011,2025-01-29 15:18:45,0.0
213.60000000000036,578.4000000000001,77.20000000000005,76.69999999999999,480.3,23.19999999999999,2025-01-29 15:18:45,0.0
169.60000000000036,534.4000000000001,421.20000000000005,90.69999999999999,809.3,-39.80000000000001,2025-01-29 15:18:45,0.0
-178.39999999999964,302.4000000000001,173.20000000000005,91.69999999999999,682.3,-144.8,2025-01-29 15:18:45,0.0
-294.39999999999964,-41.59999999999991,177.20000000000005,240.7,324.3,-234.8,2025-01-29 15:18:45,0.0
-386.39999999999964,82.40000000000009,473.20000000000005,477.7,22.30000000000001,-176.8,2025-01-29 15:18:45,0.0
-130.39999999999964,430.4000000000001,445.20000000000005,649.7,-19.69999999999999,-59.80000000000001,2025-01-29 15:18:45,0.0
13.600000000000364,802.4000000000001,245.20000000000005,649.7,33.30000000000001,55.19999999999999,2025-01-29 15:18:45,0.0
305.60000000000036,1058.4,57.200000000000045,768.7,528.3,70.19999999999999,2025-01-29 15:18:45,0.0
333.60000000000036,690.4000000000001,-134.79999999999995,876.7,1216.3,141.2,2025-01-29 15:18:45,0.0
185.60000000000036,98.40000000000009,277.20000000000005,1036.7,1965.3,121.19999999999999,2025-01-29 15:18:45,0.0
129.60000000000036,-193.5999999999999,561.2,1252.7,2646.3,103.19999999999999,2025-01-29 15:18:45,0.0
-66.39999999999964,-249.5999999999999,465.20000000000005,1385.7,2908.3,21.19999999999999,2025-01-29 15:18:45,0.0
-510.39999999999964,50.40000000000009,645.2,1503.7,2358.3,-96.80000000000001,2025-01-29 15:18:45,0.0
-662.3999999999996,778.4000000000001,885.2,1565.7,1320.3,-95.80000000000001,2025-01-29 15:18:45,0.0
-898.3999999999996,1630.4,829.2,1357.7,152.3,-9.800000000000011,2025-01-29 15:18:45,0.0
-898.3999999999996,2354.4,245.20000000000005,721.7,-1114.7,-61.80000000000001,2025-01-29 15:18:45,0.0
-574.3999999999996,2598.4,-174.79999999999995,54.69999999999999,-2139.7,-154.8,2025-01-29 15:18:45,0.0
-238.39999999999964,2570.4,-378.79999999999995,-612.3,-2780.7,-263.8,2025-01-29 15:18:45,0.0
277.60000000000036,2530.4,-266.79999999999995,-1190.3,-3051.7,-352.8,2025-01-29 15:18:45,0.0
709.6000000000004,2078.4,-394.79999999999995,-1775.3,-2936.7,-555.8,2025-01-29 15:18:46,0.0
933.6000000000004,1302.4,-550.8,-2362.3,-2353.7,-821.8,2025-01-29 15:18:46,0.0
817.6000000000004,830.4000000000001,-710.8,-2562.3,-1432.7,-1164.8,2025-01-29 15:18:46,0.0
501.60000000000036,306.4000000000001,-866.8,-2511.3,-414.7,-1518.8,2025-01-29 15:18:46,0.0
589.6000000000004,-173.5999999999999,-734.8,-2246.3,256.3,-1883.8,2025-01-29 15:18:46,0.0
-10.399999999999636,-249.5999999999999,-134.79999999999995,-1868.3,507.3,-2046.8,2025-01-29 15:18:46,0.0
-278.39999999999964,-337.5999999999999,413.20000000000005,-1611.3,229.3,-1868.8,2025-01-29 15:18:46,0.0
-318.39999999999964,-509.5999999999999,969.2,-1370.3,-219.7,-1609.8,2025-01-29 15:18:46,0.0
-426.39999999999964,-605.5999999999999,1025.2,-1093.3,-585.7,-1421.8,2025-01-29 15:18:46,0.0
-1470.3999999999996,-1449.6,2565.2,-1150.3,-490.7,668.2,2025-01-29 15:18:46,0.0
-1082.3999999999996,-629.5999999999999,1969.2,-1542.3,-937.7,352.2,2025-01-29 15:18:46,0.0
-634.3999999999996,-809.5999999999999,2093.2,-1772.3,-751.7,-42.80000000000001,2025-01-29 15:18:46,0.0
-646.3999999999996,-1469.6,2621.2,-2112.3,-594.7,-180.8,2025-01-29 15:18:46,0.0
-446.39999999999964,-1765.6,3709.2,-2469.3,-569.7,-429.8,2025-01-29 15:18:46,0.0
-470.39999999999964,-1785.6,3817.2,-2864.3,-596.7,-879.8,2025-01-29 15:18:46,0.0
-366.39999999999964,-1737.6,3033.2,-3053.3,-793.7,-1541.8,2025-01-29 15:18:46,0.0
-714.3999999999996,-1457.6,1801.2,-3369.3,-1102.7,-2322.8,2025-01-29 15:18:46,0.0
-658.3999999999996,-2373.6,2421.2,-3234.3,-528.7,-3062.8,2025-01-29 15:18:46,0.0
-990.3999999999996,-3833.6,3473.2,-2338.3,823.3,-3844.8,2025-01-29 15:18:46,0.0
-2058.3999999999996,-4869.6,4261.2,-775.3,2048.3,-3743.8,2025-01-29 15:18:46,0.0
-3206.3999999999996,-5353.6,4029.2,958.7,1997.3,-2721.8,2025-01-29 15:18:46,0.0
-4554.4,-4749.6,3273.2,2046.7,911.3,-1449.8,2025-01-29 15:18:46,0.0
-5274.4,-3017.6,2361.2,2711.7,-616.7,106.19999999999999,2025-01-29 15:18:46,0.0
-4894.4,-937.5999999999999,2145.2,3184.7,-2446.7,1670.2,2025-01-29 15:18:46,0.0
-3018.3999999999996,-641.5999999999999,-146.79999999999995,3129.7,-4513.7,3360.2,2025-01-29 15:18:46,0.0
-206.39999999999964,-1445.6,-442.79999999999995,2651.7,-4911.7,3758.2,2025-01-29 15:18:46,0.0
393.60000000000036,-2389.6,-378.79999999999995,2778.7,-3006.7,3193.2,2025-01-29 15:18:46,0.0
121.60000000000036,-2789.6,-1130.8,3456.7,-1176.7,2786.2,2025-01-29 15:18:46,0.0
-262.39999999999964,-1749.6,-1794.8,3872.7,-1467.7,3043.2,2025-01-29 15:18:46,0.0
461.60000000000036,34.40000000000009,-2266.8,4030.7,-2687.7,3510.2,2025-01-29 15:18:46,0.0
1573.6000000000004,1446.4,-3294.8,3881.7,-3523.7,3745.2,2025-01-29 15:18:46,0.0
2749.6000000000004,2418.4,-4282.8,3067.7,-3221.7,3691.2,2025-01-29 15:18:46,0.0
3937.6000000000004,2678.4,-4798.8,1596.7,-1786.7,3126.2,2025-01-29 15:18:46,0.0
4509.6,2058.4,-3682.8,-326.3,1884.3,1472.2,2025-01-29 15:18:46,0.0
2889.6000000000004,766.4000000000001,-2166.8,-1040.3,5261.3,664.2,2025-01-29 15:18:46,0.0
385.60000000000036,-265.5999999999999,-442.79999999999995,-857.3,7929.3,665.2,2025-01-29 15:18:46,0.0
-1662.3999999999996,-1125.6,757.2,-452.3,8543.3,1229.2,2025-01-29 15:18:46,0.0
-3334.3999999999996,-997.5999999999999,1469.2,-110.30000000000001,6244.3,1681.2,2025-01-29 15:18:46,0.0
-4366.4,-477.5999999999999,1849.2,885.7,2203.3,2339.2,2025-01-29 15:18:46,0.0
-3562.3999999999996,110.40000000000009,1401.2,2313.7,-2421.7,3281.2,2025-01-29 15:18:46,0.0
-1066.3999999999996,610.4000000000001,309.20000000000005,3046.7,-5923.7,4034.2,2025-01-29 15:18:46,0.0
913.6000000000004,1078.4,809.2,3228.7,-7114.7,4033.2,2025-01-29 15:18:46,0.0
2901.6000000000004,1290.4,153.20000000000005,3019.7,-6446.7,3443.2,2025-01-29 15:18:46,0.0
3693.6000000000004,1502.4,69.20000000000005,2376.7,-3726.7,2828.2,2025-01-29 15:18:47,0.0
4049.6000000000004,1346.4,221.20000000000005,1864.7,-272.7,2125.2,2025-01-29 15:18:47,0.0
3157.6000000000004,1270.4,721.2,1749.7,2261.3,1639.2,2025-01-29 15:18:47,0.0
2041.6000000000004,1438.4,1441.2,1885.7,3349.3,1540.2,2025-01-29 15:18:47,0.0
693.6000000000004,1326.4,2045.2,2276.7,3149.3,1556.2,2025-01-29 15:18:47,0.0
313.60000000000036,1354.4,2081.2,2273.7,1667.3,1316.2,2025-01-29 15:18:47,0.0
273.60000000000036,1362.4,2257.2,2106.7,-138.7,849.2,2025-01-29 15:18:47,0.0
425.60000000000036,1322.4,2345.2,1826.7,-1694.7,285.2,2025-01-29 15:18:47,0.0
445.60000000000036,1278.4,2769.2,1619.7,-3118.7,-188.8,2025-01-29 15:18:47,0.0
957.6000000000004,1338.4,3313.2,1727.7,-4510.7,-534.8,2025-01-29 15:18:47,0.0
953.6000000000004,1190.4,3577.2,1839.7,-5269.7,-513.8,2025-01-29 15:18:47,0.0
1173.6000000000004,1298.4,3545.2,1769.7,-5033.7,-404.8,2025-01-29 15:18:47,0.0
1129.6000000000004,1454.4,3413.2,1806.7,-3619.7,-526.8,2025-01-29 15:18:47,0.0
297.60000000000036,1474.4,2837.2,1777.7,-2457.7,-520.8,2025-01-29 15:18:47,0.0
-230.39999999999964,1998.4,3281.2,1936.7,-1697.7,-149.8,2025-01-29 15:18:47,0.0
-562.3999999999996,2218.4,2985.2,2240.7,-893.7,245.2,2025-01-29 15:18:47,0.0
-670.3999999999996,1986.4,2465.2,2408.7,63.30000000000001,713.2,2025-01-29 15:18:47,0.0
-630.3999999999996,1426.4,2633.2,2549.7,1038.3,1261.2,2025-01-29 15:18:47,0.0
-962.3999999999996,1182.4,3545.2,3132.7,2095.3,1884.2,2025-01-29 15:18:47,0.0
-714.3999999999996,1006.4000000000001,4657.2,4073.7,3346.3,2451.2,2025-01-29 15:18:47,0.0
-1346.3999999999996,910.4000000000001,4121.2,4841.7,4043.3,2457.2,2025-01-29 15:18:47,0.0
-3194.3999999999996,1470.4,2349.2,5440.7,5024.3,2188.2,2025-01-29 15:18:47,0.0
-5374.4,2158.4,473.20000000000005,5422.7,5384.3,2378.2,2025-01-29 15:18:47,0.0
-5734.4,3642.4,161.20000000000005,4764.7,3900.3,3199.2,2025-01-29 15:18:47,0.0
-4778.4,5062.4,457.20000000000005,3761.7,683.3,3588.2,2025-01-29 15:18:47,0.0
-3386.3999999999996,5838.4,13.200000000000045,2134.7,-2596.7,3043.2,2025-01-29 15:18:47,0.0
-2374.3999999999996,5374.4,53.200000000000045,150.7,-4333.7,1610.2,2025-01-29 15:18:47,0.0
-1858.3999999999996,4042.4,509.20000000000005,-1469.3,-4359.7,7.199999999999989,2025-01-29 15:18:47,0.0
-1194.3999999999996,2698.4,921.2,-1726.3,-3960.7,-1062.8,2025-01-29 15:18:47,0.0
-490.39999999999964,1982.4,37.200000000000045,-1214.3,-4325.7,-1537.8,2025-01-29 15:18:47,0.0
37.600000000000364,706.4000000000001,-1498.8,-896.3,-5090.7,-1394.8,2025-01-29 15:18:47,0.0
3093.6000000000004,-2101.6,-2222.8,-2246.3,516.3,-2245.8,2025-01-29 15:18:47,0.0
2573.6000000000004,-1085.6,-1066.8,-1653.3,4241.3,-2441.8,2025-01-29 15:18:47,0.0
1637.6000000000004,122.40000000000009,281.20000000000005,-371.3,7004.3,-2318.8,2025-01-29 15:18:47,0.0
653.6000000000004,1130.4,949.2,383.7,8114.3,-2172.8,2025-01-29 15:18:47,
-666.3999999999996,1538.4,825.2,-55.30000000000001,7728.3,-2300.8,2025-01-29 15:18:47,0.0
-1230.3999999999996,1054.4,101.20000000000005,-1207.3,6214.3,-2790.8,2025-01-29 15:18:47,0.0
-1842.3999999999996,-77.59999999999991,-390.79999999999995,-2207.3,3190.3,-3877.8,2025-01-29 15:18:47,0.0
-2166.3999999999996,-1313.6,269.20000000000005,-2399.3,-555.7,-4444.8,2025-01-29 15:18:47,0.0
-1018.3999999999996,-1921.6,1153.2,-1883.3,-4566.7,-3819.8,2025-01-29 15:18:47,0.0
581.6000000000004,-2173.6,1853.2,-1171.3,-6320.7,-2796.8,2025-01-29 15:18:47,0.0
2013.6000000000004,-1821.6,1557.2,-735.3,-5566.7,-2278.8,2025-01-29 15:18:47,0.0
2973.6000000000004,-1585.6,473.20000000000005,-550.3,-3692.7,-2152.8,2025-01-29 15:18:47,0.0
3285.6000000000004,-1053.6,89.20000000000005,-531.3,-763.7,-2284.8,2025-01-29 15:18:47,0.0
3217.6000000000004,-697.5999999999999,461.20000000000005,-865.3,1456.3,-2459.8,2025-01-29 15:18:47,0.0
2145.6000000000004,-393.5999999999999,1377.2,-1096.3,2506.3,-2518.8,2025-01-29 15:18:47,0.0
1365.6000000000004,-137.5999999999999,1457.2,-1297.3,2297.3,-2351.8,2025-01-29 15:18:47,0.0
281.60000000000036,-213.5999999999999,1709.2,-1438.3,1219.3,-1711.8,2025-01-29 15:18:47,0.0
141.60000000000036,-437.5999999999999,1853.2,-1401.3,312.3,-752.8,2025-01-29 15:18:47,0.0
317.60000000000036,-469.5999999999999,2005.2,-1279.3,130.3,23.19999999999999,2025-01-29 15:18:47,0.0
185.60000000000036,-181.5999999999999,2177.2,-1327.3,373.3,859.2,2025-01-29 15:18:47,0.0
209.60000000000036,254.4000000000001,2229.2,-1874.3,304.3,1370.2,2025-01-29 15:18:47,0.0
829.6000000000004,558.4000000000001,2281.2,-2573.3,-562.7,1528.2,2025-01-29 15:18:47,0.0
853.6000000000004,546.4000000000001,2501.2,-3020.3,-1588.7,1545.2,2025-01-29 15:18:47,0.0
809.6000000000004,238.4000000000001,2649.2,-3460.3,-2056.7,1635.2,2025-01-29 15:18:47,0.0
557.6000000000004,-93.59999999999991,2421.2,-3738.3,-1778.7,1780.2,2025-01-29 15:18:47,0.0
365.60000000000036,-545.5999999999999,2065.2,-4185.3,-848.7,1958.2,2025-01-29 15:18:47,0.0
273.60000000000036,-969.5999999999999,2273.2,-4632.3,39.30000000000001,1720.2,2025-01-29 15:18:47,0.0
137.60000000000036,-701.5999999999999,2489.2,-4767.3,472.3,1126.2,2025-01-29 15:18:47,0.0
-38.399999999999636,-569.5999999999999,2653.2,-4723.3,811.3,231.2,2025-01-29 15:18:47,0.0
-502.39999999999964,-1585.6,2989.2,-4568.3,1519.3,-976.8,2025-01-29 15:18:48,0.0
-1682.3999999999996,-2161.6,4057.2,-4470.3,1923.3,-1935.8,2025-01-29 15:18:48,0.0
-3214.3999999999996,-1713.6,5509.2,-4421.3,744.3,-2101.8,2025-01-29 15:18:48,0.0
-3842.3999999999996,-1105.6,5765.2,-4141.3,-1371.7,-1186.8,2025-01-29 15:18:48,0.0
-3690.3999999999996,-1025.6,2585.2,-4071.3,-1868.7,-1092.8,2025-01-29 15:18:48,0.0
-3098.3999999999996,-985.5999999999999,289.20000000000005,-4735.3,-1011.7,-2213.8,2025-01-29 15:18:48,0.0
-2694.3999999999996,-2165.6,1133.2,-4509.3,122.30000000000001,-3939.8,2025-01-29 15:18:48,0.0
-3310.3999999999996,-3573.6,749.2,-2940.3,262.3,-5331.8,2025-01-29 15:18:48,0.0
-5214.4,-4725.6,893.2,-749.3,-1042.7,-4702.8,2025-01-29 15:18:48,0.0
-6658.4,-4689.6,693.2,2168.7,-2875.7,-734.8,2025-01-29 15:18:48,0.0
-2774.3999999999996,-2961.6,-1130.8,3847.7,-4757.7,2264.2,2025-01-29 15:18:48,0.0
549.6000000000004,-1769.6,-4618.8,3471.7,-7244.7,2861.2,2025-01-29 15:18:48,0.0
2725.6000000000004,874.4000000000001,-6086.8,1161.7,-8347.7,2331.2,2025-01-29 15:18:48,0.0
3373.6000000000004,3590.4,-4302.8,-1018.3,-6291.7,1095.2,2025-01-29 15:18:48,0.0
2717.6000000000004,4526.4,-2802.8,-766.3,-861.7,514.2,2025-01-29 15:18:48,0.0
1305.6000000000004,2170.4,-3182.8,-67.30000000000001,4317.3,1136.2,2025-01-29 15:18:48,0.0
1117.6000000000004,-161.5999999999999,-1982.8,-214.3,7135.3,1405.2,2025-01-29 15:18:48,0.0
481.60000000000036,-1217.6,597.2,-255.3,7426.3,1007.2,2025-01-29 15:18:48,0.0
-374.39999999999964,-1993.6,2597.2,691.7,5637.3,1307.2,2025-01-29 15:18:48,0.0
-774.3999999999996,-2593.6,2733.2,2404.7,2986.3,1896.2,2025-01-29 15:18:48,0.0
-834.3999999999996,-2333.6,1325.2,3075.7,1232.3,2356.2,2025-01-29 15:18:48,0.0
-814.3999999999996,-989.5999999999999,1161.2,3385.7,-145.7,2799.2,2025-01-29 15:18:48,0.0
-574.3999999999996,586.4000000000001,1217.2,3891.7,-1325.7,3342.2,2025-01-29 15:18:48,0.0
309.60000000000036,2242.4,709.2,4557.7,-2571.7,3678.2,2025-01-29 15:18:48,0.0
1333.6000000000004,3122.4,-130.79999999999995,4763.7,-3249.7,3684.2,2025-01-29 15:18:48,0.0
2165.6000000000004,3122.4,-926.8,4103.7,-2561.7,3228.2,2025-01-29 15:18:48,0.0
2789.6000000000004,2406.4,-538.8,3013.7,-341.7,2471.2,2025-01-29 15:18:48,0.0
2621.6000000000004,954.4000000000001,501.20000000000005,2385.7,2267.3,1491.2,2025-01-29 15:18:48,0.0
1601.6000000000004,442.4000000000001,1905.2,2507.7,2938.3,1261.2,2025-01-29 15:18:48,0.0
825.6000000000004,558.4000000000001,2789.2,2940.7,2443.3,1361.2,2025-01-29 15:18:48,0.0
429.60000000000036,850.4000000000001,3149.2,3267.7,1577.3,1483.2,2025-01-29 15:18:48,0.0
257.60000000000036,1402.4,2673.2,3523.7,234.3,1426.2,2025-01-29 15:18:48,0.0
909.6000000000004,1614.4,1833.2,3427.7,-794.7,989.2,2025-01-29 15:18:48,0.0
1437.6000000000004,1502.4,1701.2,3088.7,-1343.7,204.2,2025-01-29 15:18:48,0.0
1845.6000000000004,1334.4,2265.2,2825.7,-1350.7,-473.8,2025-01-29 15:18:48,0.0
2041.6000000000004,614.4000000000001,2845.2,2783.7,-1091.7,-861.8,2025-01-29 15:18:48,0.0
2241.6000000000004,406.4000000000001,2865.2,2841.7,-761.7,-1135.8,2025-01-29 15:18:48,0.0
1877.6000000000004,794.4000000000001,2853.2,2876.7,-400.7,-1394.8,2025-01-29 15:18:48,0.0
1025.6000000000004,1474.4,2865.2,3067.7,59.30000000000001,-1447.8,2025-01-29 15:18:48,0.0
249.60000000000036,1514.4,3009.2,3469.7,541.3,-1211.8,2025-01-29 15:18:48,0.0
-366.39999999999964,1098.4,2925.2,3743.7,754.3,-1090.8,2025-01-29 15:18:48,0.0
-846.3999999999996,742.4000000000001,1917.2,3899.7,521.3,-1049.8,2025-01-29 15:18:48,0.0
-1238.3999999999996,498.4000000000001,825.2,4076.7,-213.7,-790.8,2025-01-29 15:18:48,0.0
-1126.3999999999996,1430.4,989.2,4301.7,-517.7,-305.8,2025-01-29 15:18:48,0.0
-1246.3999999999996,2366.4,1609.2,4307.7,-293.7,365.2,2025-01-29 15:18:48,0.0
-1494.3999999999996,2322.4,2981.2,4290.7,169.3,1257.2,2025-01-29 15:18:48,0.0
-1030.3999999999996,1094.4,4973.2,4512.7,830.3,1831.2,2025-01-29 15:18:48,0.0
-314.39999999999964,-517.5999999999999,5629.2,5143.7,1539.3,2106.2,2025-01-29 15:18:48,0.0
-2078.3999999999996,-609.5999999999999,3793.2,5999.7,3119.3,2832.2,2025-01-29 15:18:48,0.0
-3298.3999999999996,1026.4,2977.2,7776.7,5702.3,3132.2,2025-01-29 15:18:48,0.0
-5454.4,3366.4,1145.2,7946.7,6843.3,3637.2,2025-01-29 15:18:48,0.0
-5438.4,4814.4,-1834.8,6102.7,5313.3,3971.2,2025-01-29 15:18:48,0.0
-5110.4,5482.4,-5254.8,2328.7,1106.3,3204.2,2025-01-29 15:18:48,0.0
-4566.4,5586.4,-4990.8,-570.3,-2751.7,1598.2,2025-01-29 15:18:48,0.0
-3346.3999999999996,4714.4,-3806.8,-1848.3,-5134.7,979.2,2025-01-29 15:18:48,0.0
-262.39999999999964,2418.4,-2502.8,-2567.3,-6309.7,586.2,2025-01-29 15:18:48,0.0
2297.6000000000004,650.4000000000001,-1970.8,-2446.3,-6088.7,316.2,2025-01-29 15:18:48,0.0
3773.6000000000004,-1497.6,-1958.8,-2127.3,-5526.7,176.2,2025-01-29 15:18:48,0.0
4185.6,-3617.6,-2146.8,-1839.3,-2905.7,80.19999999999999,2025-01-29 15:18:48,0.0
3385.6000000000004,-4025.6,-1170.8,-1264.3,1709.3,-42.80000000000001,2025-01-29 15:18:48,0.0
2229.6000000000004,-2225.6,-1078.8,80.69999999999999,6534.3,-130.8,2025-01-29 15:18:48,0.0
781.6000000000004,6.400000000000091,-1450.8,1317.7,10067.3,-451.8,2025-01-29 15:18:49,0.0
-122.39999999999964,2226.4,-1390.8,1494.7,10756.3,-1114.8,2025-01-29 15:18:49,0.0
-946.3999999999996,2946.4,-798.8,744.7,8172.3,-1762.8,2025-01-29 15:18:49,0.0
-1394.3999999999996,2206.4,-862.8,-1056.3,2396.3,-2633.8,2025-01-29 15:18:49,0.0
-1358.3999999999996,818.4000000000001,-514.8,-2313.3,-2690.7,-3144.8,2025-01-29 15:18:49,0.0
-1358.3999999999996,-329.5999999999999,21.200000000000045,-2533.3,-5409.7,-3135.8,2025-01-29 15:18:49,0.0
157.60000000000036,-1077.6,-410.79999999999995,-2204.3,-6085.7,-2842.8,2025-01-29 15:18:49,0.0
949.6000000000004,-1221.6,253.20000000000005,-1802.3,-5545.7,-2243.8,2025-01-29 15:18:49,0.0
2633.6000000000004,-913.5999999999999,25.200000000000045,-1538.3,-4331.7,-2183.8,2025-01-29 15:18:49,0.0
3565.6000000000004,-601.5999999999999,-590.8,-1653.3,-2328.7,-2385.8,2025-01-29 15:18:49,0.0
2965.6000000000004,-321.5999999999999,-214.79999999999995,-2026.3,276.3,-2546.8,2025-01-29 15:18:49,0.0
2481.6000000000004,-181.5999999999999,133.20000000000005,-2062.3,1957.3,-2355.8,2025-01-29 15:18:49,0.0
1501.6000000000004,-265.5999999999999,865.2,-1939.3,2688.3,-2032.8,2025-01-29 15:18:49,0.0
1133.6000000000004,-549.5999999999999,1633.2,-1739.3,2656.3,-1840.8,2025-01-29 15:18:49,
209.60000000000036,-1137.6,1813.2,-1517.3,1639.3,-1762.8,2025-01-29 15:18:49,0.0
-514.3999999999996,-953.5999999999999,1405.2,-1298.3,-22.69999999999999,-1163.8,2025-01-29 15:18:49,0.0
-1138.3999999999996,-177.5999999999999,1657.2,-877.3,-1234.7,15.199999999999989,2025-01-29 15:18:49,0.0
-162.39999999999964,598.4000000000001,1265.2,-718.3,-1761.7,978.2,2025-01-29 15:18:49,0.0
857.6000000000004,1046.4,821.2,-1013.3,-1965.7,1529.2,2025-01-29 15:18:49,0.0
1849.6000000000004,1358.4,1085.2,-1415.3,-1892.7,1672.2,2025-01-29 15:18:49,0.0
2089.6000000000004,1670.4,1293.2,-1880.3,-1369.7,1552.2,2025-01-29 15:18:49,0.0
1937.6000000000004,1510.4,913.2,-2469.3,-210.7,1294.2,2025-01-29 15:18:49,0.0
1297.6000000000004,762.4000000000001,653.2,-3389.3,1560.3,591.2,2025-01-29 15:18:49,0.0
277.60000000000036,378.4000000000001,1541.2,-4050.3,2018.3,-60.80000000000001,2025-01-29 15:18:49,0.0
-906.3999999999996,278.4000000000001,2445.2,-4436.3,1685.3,-426.8,2025-01-29 15:18:49,0.0
-1958.3999999999996,26.40000000000009,3253.2,-4742.3,424.3,-355.8,2025-01-29 15:18:49,0.0
-1930.3999999999996,-193.5999999999999,2953.2,-4846.3,-1712.7,46.19999999999999,2025-01-29 15:18:49,0.0
-754.3999999999996,-381.5999999999999,2401.2,-4866.3,-3453.7,327.2,2025-01-29 15:18:49,0.0
389.60000000000036,170.4000000000001,1517.2,-5046.3,-4148.7,235.2,2025-01-29 15:18:49,0.0
1513.6000000000004,130.4000000000001,1081.2,-5381.3,-3824.7,-189.8,2025-01-29 15:18:49,0.0
2105.6000000000004,-1117.6,1489.2,-5087.3,-1143.7,-742.8,2025-01-29 15:18:49,0.0
1453.6000000000004,-1805.6,2477.2,-4365.3,1169.3,-834.8,2025-01-29 15:18:49,0.0
169.60000000000036,-1797.6,3305.2,-4310.3,3065.3,-884.8,2025-01-29 15:18:49,0.0
-874.3999999999996,-1929.6,3229.2,-4620.3,4623.3,-1559.8,2025-01-29 15:18:49,0.0
-1626.3999999999996,-2721.6,513.2,-5080.3,5819.3,-3343.8,2025-01-29 15:18:49,0.0
-3402.3999999999996,-3285.6,-482.79999999999995,-4955.3,5083.3,-5206.8,2025-01-29 15:18:49,0.0
-4862.4,-3969.6,1737.2,-3189.3,2279.3,-5824.8,2025-01-29 15:18:49,0.0
-6126.4,-4445.6,3197.2,-576.3,-1916.7,-5168.8,2025-01-29 15:18:49,0.0
-6678.4,-4265.6,3301.2,1340.7,-5135.7,-3357.8,2025-01-29 15:18:49,0.0
-6086.4,-2061.6,1373.2,2221.7,-7439.7,-821.8,2025-01-29 15:18:49,0.0
-4206.4,1102.4,89.20000000000005,2247.7,-10165.7,1110.2,2025-01-29 15:18:49,0.0
-2298.3999999999996,3018.4,-2470.8,1842.7,-9758.7,3325.2,2025-01-29 15:18:49,0.0
6097.6,2806.4,-6374.8,413.7,-3165.7,3688.2,2025-01-29 15:18:49,0.0
6409.6,1066.4,-7074.8,-2966.3,5101.3,226.2,2025-01-29 15:18:49,0.0
2317.6000000000004,-649.5999999999999,-4494.8,-5485.3,8982.3,-1493.8,2025-01-29 15:18:49,0.0
-242.39999999999964,14.400000000000091,-1042.8,-5357.3,8383.3,-1635.8,2025-01-29 15:18:49,0.0
-1434.3999999999996,1302.4,249.20000000000005,-3741.3,5287.3,-1173.8,2025-01-29 15:18:49,0.0
-2214.3999999999996,2730.4,-398.79999999999995,-2053.3,578.3,-36.80000000000001,2025-01-29 15:18:49,0.0
-1778.3999999999996,3122.4,-3582.8,-1292.3,-2272.7,1003.2,2025-01-29 15:18:49,0.0
-458.39999999999964,3390.4,-3950.8,-1848.3,-3253.7,1345.2,2025-01-29 15:18:49,0.0
857.6000000000004,2162.4,-3174.8,-2797.3,-2900.7,1158.2,2025-01-29 15:18:49,0.0
1041.6000000000004,546.4000000000001,-2478.8,-3117.3,-590.7,1177.2,2025-01-29 15:18:49,0.0
165.60000000000036,-245.5999999999999,-2190.8,-2973.3,1235.3,1419.2,2025-01-29 15:18:49,0.0
149.60000000000036,-489.5999999999999,-1838.8,-2665.3,2559.3,1702.2,2025-01-29 15:18:49,0.0
-58.399999999999636,198.4000000000001,-998.8,-2345.3,2935.3,1941.2,2025-01-29 15:18:49,0.0
-242.39999999999964,1110.4,-814.8,-1929.3,2671.3,2183.2,2025-01-29 15:18:49,0.0
-658.3999999999996,2018.4,-1126.8,-1530.3,2174.3,2358.2,2025-01-29 15:18:49,0.0
-386.39999999999964,2158.4,-1702.8,-1338.3,1473.3,2501.2,2025-01-29 15:18:49,0.0
797.6000000000004,2114.4,-1194.8,-1225.3,616.3,2254.2,2025-01-29 15:18:49,0.0
1497.6000000000004,2054.4,-970.8,-1377.3,-101.69999999999999,1808.2,2025-01-29 15:18:49,0.0
1553.6000000000004,1906.4,-2302.8,-1362.3,962.3,1137.2,2025-01-29 15:18:49,0.0
825.6000000000004,1226.4,-2358.8,-977.3,2706.3,1054.2,2025-01-29 15:18:50,0.0
1213.6000000000004,198.4000000000001,2693.2,-392.3,3298.3,1359.2,2025-01-29 15:18:50,0.0
509.60000000000036,278.4000000000001,4013.2,852.7,1790.3,1303.2,2025-01-29 15:18:50,0.0
873.6000000000004,526.4000000000001,593.2,1558.7,-133.7,1204.2,2025-01-29 15:18:50,0.0
1841.6000000000004,778.4000000000001,-1458.8,1568.7,-571.7,726.2,2025-01-29 15:18:50,0.0
2305.6000000000004,806.4000000000001,-670.8,1771.7,516.3,-108.80000000000001,2025-01-29 15:18:50,0.0
1857.6000000000004,990.4000000000001,-94.79999999999995,1931.7,-252.7,-485.8,2025-01-29 15:18:50,0.0
2573.6000000000004,1026.4,-810.8,2227.7,-1391.7,-1261.8,2025-01-29 15:18:50,0.0
3433.6000000000004,530.4000000000001,-1486.8,2518.7,-1904.7,-2037.8,2025-01-29 15:18:50,0.0
4769.6,902.4000000000001,-1410.8,2986.7,-1878.7,-2341.8,2025-01-29 15:18:50,0.0
5233.6,1358.4,-2890.8,2822.7,-2044.7,-2290.8,2025-01-29 15:18:50,0.0
5621.6,1502.4,-2850.8,2290.7,-2104.7,-1807.8,2025-01-29 15:18:50,0.0
5329.6,1562.4,-1650.8,1722.7,-2055.7,-438.8,2025-01-29 15:18:50,0.0
6881.6,1302.4,-154.79999999999995,1283.7,-1184.7,939.2,2025-01-29 15:18:50,0.0
7905.6,1290.4,3073.2,1101.7,-1942.7,2103.2,2025-01-29 15:18:50,0.0
8173.6,1710.4,4785.2,1677.7,-3433.7,2714.2,2025-01-29 15:18:50,0.0
8345.6,950.4000000000001,5449.2,2304.7,-3825.7,2683.2,2025-01-29 15:18:50,0.0
8677.6,-173.5999999999999,6561.2,2625.7,-3817.7,1791.2,2025-01-29 15:18:50,0.0
9009.6,-997.5999999999999,8005.2,3139.7,-3767.7,-1.8000000000000114,2025-01-29 15:18:50,0.0
7629.6,-945.5999999999999,5729.2,3670.7,-4012.7,-1315.8,2025-01-29 15:18:50,0.0
3893.6000000000004,674.4000000000001,3173.2,3441.7,-3749.7,-1711.8,2025-01-29 15:18:50,0.0
-1322.3999999999996,3278.4,893.2,3365.7,-2083.7,-845.8,2025-01-29 15:18:50,0.0
-6402.4,4566.4,1849.2,3082.7,-82.69999999999999,350.2,2025-01-29 15:18:50,0.0
-8118.4,2170.4,2249.2,1668.7,-1467.7,1400.2,2025-01-29 15:18:50,0.0
-8358.4,1854.4,3189.2,-299.3,-4460.7,1892.2,2025-01-29 15:18:50,0.0
-9202.4,1674.4,5557.2,431.7,-5687.7,1922.2,2025-01-29 15:18:50,0.0
-10698.4,-765.5999999999999,1285.2,1566.7,-3399.7,1098.2,2025-01-29 15:18:50,0.0
-13822.4,-1745.6,-3422.8,1236.7,-386.7,187.2,2025-01-29 15:18:50,0.0
-19150.4,390.4000000000001,-5454.8,100.69999999999999,52.30000000000001,1166.2,2025-01-29 15:18:50,0.0
-19150.4,3218.4,-2574.8,-975.3,-3928.7,3788.2,2025-01-29 15:18:50,0.0
-19150.4,4442.4,3853.2,-90.30000000000001,-9835.7,5510.2,2025-01-29 15:18:50,0.0
-19150.4,866.4000000000001,11533.2,2394.7,-8636.7,4271.2,2025-01-29 15:18:50,0.0
-19150.4,-721.5999999999999,7181.2,3697.7,-3621.7,2935.2,2025-01-29 15:18:50,0.0
-19150.4,1370.4,6477.2,3565.7,445.3,-540.8,2025-01-29 15:18:50,0.0
-19150.4,2026.4,7453.2,2893.7,2403.3,-4026.8,2025-01-29 15:18:50,0.0
-19150.4,2634.4,9765.2,2291.7,2898.3,-5269.8,2025-01-29 15:18:50,0.0
-19150.4,1522.4,7913.2,2995.7,2458.3,-3971.8,2025-01-29 15:18:50,0.0
-18134.4,-605.5999999999999,-3114.8,1961.7,2034.3,-3020.8,2025-01-29 15:18:50,0.0
-8022.4,-149.5999999999999,-11562.8,-1833.3,-912.7,-3318.8,2025-01-29 15:18:50,0.0
-198.39999999999964,3514.4,-7950.8,-4213.3,-1810.7,-4254.8,2025-01-29 15:18:50,0.0
6549.6,5118.4,1969.2,-2495.3,-2959.7,-1821.8,2025-01-29 15:18:50,0.0
15765.6,1770.4,4337.2,993.7,-3702.7,511.2,2025-01-29 15:18:50,0.0
28017.6,-3245.6,-2594.8,292.7,-7933.7,2925.2,2025-01-29 15:18:50,0.0
32649.6,-4397.6,-7798.8,-2458.3,-9822.7,1595.2,2025-01-29 15:18:50,0.0
31745.6,-2789.6,-11166.8,-3304.3,-6376.7,-2671.8,2025-01-29 15:18:50,0.0
21413.6,202.4000000000001,-9258.8,-2256.3,974.3,-5556.8,2025-01-29 15:18:50,0.0
13261.6,3366.4,-5762.8,-997.3,8471.3,-5321.8,2025-01-29 15:18:50,0.0
7745.6,3278.4,2697.2,1410.7,12854.3,-2797.8,2025-01-29 15:18:50,0.0
8141.6,354.4000000000001,9193.2,5484.7,13831.3,501.2,2025-01-29 15:18:50,0.0
11329.6,-1881.6,13437.2,6761.7,8241.3,1912.2,2025-01-29 15:18:50,0.0
13509.6,-2117.6,10837.2,6167.7,2185.3,1985.2,2025-01-29 15:18:50,0.0
14173.6,-937.5999999999999,7757.2,4913.7,-1514.7,1170.2,2025-01-29 15:18:50,0.0
16213.6,1122.4,3037.2,3440.7,-2155.7,236.2,2025-01-29 15:18:50,
17133.6,2170.4,1701.2,2654.7,-1692.7,-365.8,2025-01-29 15:18:50,0.0
17749.6,2038.4,349.20000000000005,2122.7,-756.7,-655.8,2025-01-29 15:18:50,0.0
18093.6,1734.4,449.20000000000005,1584.7,67.30000000000001,-904.8,2025-01-29 15:18:50,0.0
17753.6,1086.4,1525.2,1528.7,685.3,-1101.8,2025-01-29 15:18:50,0.0
16517.6,246.4000000000001,2581.2,1773.7,1319.3,-950.8,2025-01-29 15:18:50,0.0
15497.6,-437.5999999999999,2765.2,2124.7,1957.3,-528.8,2025-01-29 15:18:50,0.0
14185.6,-421.5999999999999,4629.2,2431.7,2578.3,-104.80000000000001,2025-01-29 15:18:51,0.0
15305.6,-97.59999999999991,3889.2,2700.7,2350.3,-93.80000000000001,2025-01-29 15:18:51,0.0
15765.6,618.4000000000001,3889.2,3118.7,1560.3,62.19999999999999,2025-01-29 15:18:51,0.0
13205.6,738.4000000000001,3933.2,3658.7,-231.7,328.2,2025-01-29 15:18:51,0.0
14425.6,1834.4,2817.2,3994.7,-748.7,183.2,2025-01-29 15:18:51,0.0
13633.6,2282.4,1817.2,4549.7,-2315.7,746.2,2025-01-29 15:18:51,0.0
13825.6,1830.4,1533.2,3878.7,-4175.7,1347.2,2025-01-29 15:18:51,0.0
10977.6,1618.4,4781.2,4485.7,-5666.7,1876.2,2025-01-29 15:18:51,0.0
217.60000000000036,-1429.6,-16518.8,3514.7,-9606.7,5201.2,2025-01-29 15:18:51,0.0
-7170.4,-5577.6,-31774.8,-7470.3,-4985.7,6007.2,2025-01-29 15:18:51,0.0
-12854.4,-957.5999999999999,-30534.8,-13385.3,8075.3,-3336.8,2025-01-29 15:18:51,0.0
-19150.4,15106.4,10545.2,-5206.3,32542.3,-10893.8,2025-01-29 15:18:51,0.0
-19150.4,7326.4,33760.2,-1498.3,22451.3,-2480.8,2025-01-29 15:18:51,0.0
-19150.4,-11161.6,-974.8,3742.7,-3883.7,5871.2,2025-01-29 15:18:51,0.0
-19150.4,-4685.6,-9218.8,-2432.3,-6361.7,1256.2,2025-01-29 15:18:51,0.0
-19150.4,3694.4,-814.8,-2781.3,-5037.7,-368.8,2025-01-29 15:18:51,0.0
-18338.4,3794.4,8117.2,-558.3,-6406.7,347.2,2025-01-29 15:18:51,0.0
-12250.4,1346.4,10145.2,2350.7,-9213.7,1606.2,2025-01-29 15:18:51,0.0
-9886.4,50.40000000000009,1077.2,2569.7,-9750.7,1994.2,2025-01-29 15:18:51,0.0
-8202.4,-597.5999999999999,-5658.8,-297.3,-5173.7,1161.2,2025-01-29 15:18:51,0.0
-7042.4,514.4000000000001,-4938.8,-2978.3,2713.3,-683.8,2025-01-29 15:18:51,0.0
-8674.4,1574.4,-118.79999999999995,-3214.3,6529.3,-1027.8,2025-01-29 15:18:51,0.0
-9130.4,2170.4,4277.2,-3055.3,6874.3,-819.8,2025-01-29 15:18:51,0.0
-8030.4,1738.4,6513.2,-2026.3,3822.3,597.2,2025-01-29 15:18:51,0.0
-4210.4,794.4000000000001,5229.2,-1293.3,364.3,1314.2,2025-01-29 15:18:51,0.0
-6.399999999999636,242.4000000000001,3521.2,-1576.3,-1553.7,1097.2,2025-01-29 15:18:51,0.0
4493.6,126.40000000000009,3089.2,-2063.3,-3221.7,584.2,2025-01-29 15:18:51,0.0
8681.6,-49.59999999999991,3225.2,-2060.3,-4570.7,-92.80000000000001,2025-01-29 15:18:51,0.0
11753.6,62.40000000000009,2537.2,-2068.3,-5960.7,-1094.8,2025-01-29 15:18:51,0.0
12457.6,866.4000000000001,2485.2,-2271.3,-7308.7,-1327.8,2025-01-29 15:18:51,0.0
11473.6,2182.4,1021.2,-1639.3,-6500.7,-935.8,2025-01-29 15:18:51,0.0
12581.6,2786.4,569.2,-1029.3,-6935.7,215.2,2025-01-29 15:18:51,0.0
10673.6,2894.4,1093.2,-33.30000000000001,-8963.7,689.2,2025-01-29 15:18:51,0.0
8361.6,1782.4,-1250.8,-1752.3,-5825.7,-1265.8,2025-01-29 15:18:51,0.0
4573.6,790.4000000000001,1269.2,-2720.3,-862.7,-1053.8,2025-01-29 15:18:51,0.0
4117.6,802.4000000000001,3521.2,-825.3,1451.3,325.2,2025-01-29 15:18:51,0.0
2045.6000000000004,366.4000000000001,2149.2,-494.3,3025.3,934.2,2025-01-29 15:18:51,0.0
-1018.3999999999996,34.40000000000009,1073.2,-1338.3,5531.3,1495.2,2025-01-29 15:18:51,0.0
-3078.3999999999996,-321.5999999999999,729.2,-1294.3,7936.3,2204.2,2025-01-29 15:18:51,0.0
-2690.3999999999996,-1257.6,-362.79999999999995,-1715.3,9549.3,2043.2,2025-01-29 15:18:51,0.0
-2102.3999999999996,-2165.6,1565.2,-2458.3,9141.3,286.2,2025-01-29 15:18:51,0.0
-2286.3999999999996,-1881.6,4465.2,-3100.3,5706.3,-1669.8,2025-01-29 15:18:51,0.0
-3690.3999999999996,-329.5999999999999,6981.2,-2870.3,259.3,-1948.8,2025-01-29 15:18:51,0.0
-3594.3999999999996,774.4000000000001,6617.2,-1919.3,-4325.7,-1291.8,2025-01-29 15:18:51,0.0
-1494.3999999999996,958.4000000000001,2913.2,-1120.3,-6230.7,-683.8,2025-01-29 15:18:51,0.0
553.6000000000004,1022.4000000000001,353.20000000000005,-655.3,-5020.7,-215.8,2025-01-29 15:18:51,0.0
1537.6000000000004,386.4000000000001,-454.79999999999995,-273.3,-2043.7,-0.8000000000000114,2025-01-29 15:18:51,0.0
2289.6000000000004,-313.5999999999999,-110.79999999999995,-220.3,1681.3,-220.8,2025-01-29 15:18:51,0.0
2125.6000000000004,-509.5999999999999,1793.2,-244.3,4245.3,-598.8,2025-01-29 15:18:51,0.0
981.6000000000004,-41.59999999999991,3901.2,68.69999999999999,5316.3,-715.8,2025-01-29 15:18:51,0.0
-42.399999999999636,66.40000000000009,4913.2,478.7,4694.3,-417.8,2025-01-29 15:18:51,0.0
-486.39999999999964,110.40000000000009,5045.2,1010.7,2827.3,-157.8,2025-01-29 15:18:51,0.0
-1050.3999999999996,178.4000000000001,4257.2,1302.7,1111.3,-296.8,2025-01-29 15:18:51,0.0
-1810.3999999999996,410.4000000000001,3253.2,1448.7,-261.7,-386.8,2025-01-29 15:18:51,0.0
-1410.3999999999996,366.4000000000001,1941.2,1455.7,-967.7,-437.8,2025-01-29 15:18:52,0.0
-10.399999999999636,102.40000000000009,2505.2,838.7,920.3,-130.8,2025-01-29 15:18:52,0.0
-10.399999999999636,34.40000000000009,2645.2,1090.7,970.3,-245.8,2025-01-29 15:18:52,0.0
301.60000000000036,-9.599999999999909,1957.2,1445.7,1443.3,-524.8,2025-01-29 15:18:52,0.0
-94.39999999999964,542.4000000000001,2049.2,1702.7,1762.3,-694.8,2025-01-29 15:18:52,0.0
-458.39999999999964,958.4000000000001,1861.2,1774.7,1861.3,-632.8,2025-01-29 15:18:52,0.0
-478.39999999999964,1026.4,2017.2,1604.7,1615.3,-506.8,2025-01-29 15:18:52,0.0
-254.39999999999964,986.4000000000001,1801.2,1380.7,1206.3,-425.8,2025-01-29 15:18:52,0.0
-422.39999999999964,678.4000000000001,1449.2,1011.7,742.3,-299.8,2025-01-29 15:18:52,0.0
-718.3999999999996,578.4000000000001,1945.2,692.7,117.30000000000001,-255.8,2025-01-29 15:18:52,0.0
69.60000000000036,498.4000000000001,1337.2,402.7,537.3,-324.8,2025-01-29 15:18:52,0.0
-94.39999999999964,326.4000000000001,1397.2,291.7,531.3,-346.8,2025-01-29 15:18:52,0.0
-114.39999999999964,294.4000000000001,1417.2,203.7,519.3,-317.8,2025-01-29 15:18:52,0.0
-134.39999999999964,282.4000000000001,1513.2,164.7,804.3,-203.8,2025-01-29 15:18:52,0.0
-170.39999999999964,362.4000000000001,1509.2,226.7,999.3,-129.8,2025-01-29 15:18:52,0.0
17.600000000000364,290.4000000000001,1577.2,268.7,1227.3,-196.8,2025-01-29 15:18:52,0.0
-282.39999999999964,454.4000000000001,1501.2,357.7,962.3,-195.8,2025-01-29 15:18:52,0.0
-234.39999999999964,534.4000000000001,1605.2,270.7,811.3,-85.80000000000001,2025-01-29 15:18:52,0.0
-350.39999999999964,338.4000000000001,1641.2,302.7,431.3,62.19999999999999,2025-01-29 15:18:52,0.0
-94.39999999999964,230.4000000000001,1449.2,466.7,416.3,132.2,2025-01-29 15:18:52,0.0
-138.39999999999964,378.4000000000001,1249.2,413.7,531.3,152.2,2025-01-29 15:18:52,0.0
-178.39999999999964,434.4000000000001,1361.2,220.7,645.3,192.2,2025-01-29 15:18:52,0.0
-366.39999999999964,402.4000000000001,1445.2,210.7,439.3,124.19999999999999,2025-01-29 15:18:52,0.0
-670.3999999999996,394.4000000000001,1577.2,79.69999999999999,-181.7,-16.80000000000001,2025-01-29 15:18:52,0.0
-354.39999999999964,398.4000000000001,1357.2,98.69999999999999,-650.7,-78.80000000000001,2025-01-29 15:18:52,0.0
-114.39999999999964,294.4000000000001,1049.2,-42.30000000000001,-659.7,-83.80000000000001,2025-01-29 15:18:52,0.0
-138.39999999999964,122.40000000000009,1133.2,-191.3,-487.7,-139.8,2025-01-29 15:18:52,0.0
-122.39999999999964,262.4000000000001,1061.2,-235.3,-210.7,-142.8,2025-01-29 15:18:52,0.0
-286.39999999999964,402.4000000000001,1109.2,-236.3,0.30000000000001137,-31.80000000000001,2025-01-29 15:18:52,0.0
-258.39999999999964,386.4000000000001,1213.2,-264.3,-49.69999999999999,21.19999999999999,2025-01-29 15:18:52,0.0
-58.399999999999636,370.4000000000001,1021.2,-272.3,25.30000000000001,28.19999999999999,2025-01-29 15:18:52,0.0
9.600000000000364,154.4000000000001,1109.2,-246.3,207.3,-86.80000000000001,2025-01-29 15:18:52,0.0
-142.39999999999964,286.4000000000001,1197.2,-160.3,303.3,-27.80000000000001,2025-01-29 15:18:52,0.0
-90.39999999999964,366.4000000000001,949.2,-188.3,260.3,0.19999999999998863,2025-01-29 15:18:52,0.0
-58.399999999999636,230.4000000000001,1209.2,-217.3,262.3,-13.800000000000011,2025-01-29 15:18:52,0.0
-2.399999999999636,230.4000000000001,1153.2,-188.3,394.3,8.199999999999989,2025-01-29 15:18:52,0.0
33.600000000000364,338.4000000000001,1217.2,-233.3,625.3,-76.80000000000001,2025-01-29 15:18:52,0.0
-158.39999999999964,374.4000000000001,969.2,-249.3,677.3,-14.800000000000011,2025-01-29 15:18:52,0.0
-174.39999999999964,414.4000000000001,1081.2,-142.3,445.3,132.2,2025-01-29 15:18:52,0.0
-178.39999999999964,418.4000000000001,1137.2,-3.3000000000000114,247.3,101.19999999999999,2025-01-29 15:18:52,
-182.39999999999964,462.4000000000001,1177.2,-61.30000000000001,168.3,-134.8,2025-01-29 15:18:52,0.0
-54.399999999999636,510.4000000000001,985.2,-160.3,-86.69999999999999,-168.8,2025-01-29 15:18:52,0.0
121.60000000000036,334.4000000000001,1109.2,-84.30000000000001,135.3,-220.8,2025-01-29 15:18:52,0.0
25.600000000000364,406.4000000000001,861.2,-60.30000000000001,443.3,-151.8,2025-01-29 15:18:52,0.0
-218.39999999999964,402.4000000000001,1149.2,-9.300000000000011,661.3,-111.80000000000001,2025-01-29 15:18:52,0.0
-598.3999999999996,582.4000000000001,1465.2,200.7,406.3,39.19999999999999,2025-01-29 15:18:52,0.0
-370.39999999999964,322.4000000000001,1513.2,391.7,178.3,42.19999999999999,2025-01-29 15:18:52,0.0
-254.39999999999964,362.4000000000001,1397.2,460.7,-69.69999999999999,-12.800000000000011,2025-01-29 15:18:52,0.0
-234.39999999999964,238.4000000000001,1509.2,802.7,42.30000000000001,205.2,2025-01-29 15:18:52,0.0
-14.399999999999636,294.4000000000001,757.2,903.7,-191.7,203.2,2025-01-29 15:18:52,0.0
-22.399999999999636,382.4000000000001,769.2,695.7,-232.7,-5.800000000000011,2025-01-29 15:18:52,0.0
-146.39999999999964,506.4000000000001,713.2,694.7,-210.7,61.19999999999999,2025-01-29 15:18:52,0.0
-90.39999999999964,574.4000000000001,741.2,653.7,-231.7,27.19999999999999,2025-01-29 15:18:52,0.0
-94.39999999999964,586.4000000000001,981.2,482.7,-176.7,-41.80000000000001,2025-01-29 15:18:52,0.0
-90.39999999999964,638.4000000000001,1297.2,444.7,-259.7,-104.80000000000001,2025-01-29 15:18:52,0.0
-294.39999999999964,654.4000000000001,1177.2,440.7,-424.7,-160.8,2025-01-29 15:18:52,0.0
-154.39999999999964,710.4000000000001,1001.2,473.7,-558.7,-203.8,2025-01-29 15:18:52,0.0
-306.39999999999964,822.4000000000001,805.2,380.7,-701.7,-184.8,2025-01-29 15:18:52,0.0
-114.39999999999964,750.4000000000001,909.2,236.7,-741.7,-226.8,2025-01-29 15:18:52,0.0
1.6000000000003638,646.4000000000001,1501.2,113.69999999999999,-666.7,-231.8,2025-01-29 15:18:52,0.0
-182.39999999999964,854.4000000000001,1517.2,75.69999999999999,-597.7,-309.8,2025-01-29 15:18:53,0.0
-322.39999999999964,774.4000000000001,1349.2,20.69999999999999,-517.7,-376.8,2025-01-29 15:18:53,0.0
-402.39999999999964,678.4000000000001,1385.2,40.69999999999999,-449.7,-639.8,2025-01-29 15:18:53,0.0
-574.3999999999996,766.4000000000001,1313.2,-13.300000000000011,-528.7,-753.8,2025-01-29 15:18:53,0.0
-458.39999999999964,554.4000000000001,1409.2,-140.3,-746.7,-858.8,2025-01-29 15:18:53,0.0
-514.3999999999996,474.4000000000001,1513.2,-120.30000000000001,-925.7,-1039.8,2025-01-29 15:18:53,0.0
-214.39999999999964,174.4000000000001,1209.2,-102.30000000000001,-1008.7,-1151.8,2025-01-29 15:18:53,0.0
145.60000000000036,150.4000000000001,1177.2,-33.30000000000001,-905.7,-1300.8,2025-01-29 15:18:53,0.0
553.6000000000004,182.4000000000001,1209.2,17.69999999999999,-578.7,-1518.8,2025-01-29 15:18:53,0.0
873.6000000000004,-109.59999999999991,1597.2,210.7,12.300000000000011,-1674.8,2025-01-29 15:18:53,0.0
885.6000000000004,-497.5999999999999,1585.2,386.7,241.3,-1709.8,2025-01-29 15:18:53,0.0
705.6000000000004,-853.5999999999999,1525.2,602.7,730.3,-1481.8,2025-01-29 15:18:53,0.0
293.60000000000036,-1029.6,1925.2,1037.7,1741.3,-1188.8,2025-01-29 15:18:53,0.0
21.600000000000364,-869.5999999999999,2065.2,1207.7,2468.3,-998.8,2025-01-29 15:18:53,0.0
-178.39999999999964,-609.5999999999999,2485.2,1035.7,2584.3,-909.8,2025-01-29 15:18:53,0.0
-546.3999999999996,-149.5999999999999,2617.2,689.7,2395.3,-1067.8,2025-01-29 15:18:53,0.0
-962.3999999999996,662.4000000000001,2413.2,234.7,1751.3,-1292.8,2025-01-29 15:18:53,0.0
-918.3999999999996,1046.4,2477.2,-702.3,231.3,-1418.8,2025-01-29 15:18:53,0.0
-758.3999999999996,1230.4,2521.2,-1455.3,-741.7,-1563.8,2025-01-29 15:18:53,0.0
-566.3999999999996,1014.4000000000001,2229.2,-2296.3,-906.7,-1682.8,2025-01-29 15:18:53,0.0
17.600000000000364,394.4000000000001,1589.2,-3019.3,-914.7,-1914.8,2025-01-29 15:18:53,0.0
345.60000000000036,-425.5999999999999,1321.2,-3466.3,-755.7,-2081.8,2025-01-29 15:18:53,0.0
425.60000000000036,-1117.6,1581.2,-3649.3,-463.7,-2110.8,2025-01-29 15:18:53,0.0
261.60000000000036,-1449.6,2129.2,-3679.3,-341.7,-1892.8,2025-01-29 15:18:53,0.0
185.60000000000036,-1297.6,2597.2,-3638.3,-318.7,-1605.8,2025-01-29 15:18:53,0.0
53.600000000000364,-1269.6,2465.2,-3565.3,-390.7,-1448.8,2025-01-29 15:18:53,0.0
189.60000000000036,-1133.6,2545.2,-3566.3,-679.7,-1462.8,2025-01-29 15:18:53,0.0
53.600000000000364,-1061.6,2361.2,-3593.3,-1207.7,-1422.8,2025-01-29 15:18:53,0.0
89.60000000000036,-781.5999999999999,2245.2,-3758.3,-1669.7,-1309.8,2025-01-29 15:18:53,0.0
129.60000000000036,-613.5999999999999,2325.2,-3957.3,-1706.7,-1198.8,2025-01-29 15:18:53,0.0
97.60000000000036,-541.5999999999999,2473.2,-4052.3,-1609.7,-1129.8,2025-01-29 15:18:53,0.0
49.600000000000364,-709.5999999999999,2769.2,-3963.3,-1458.7,-911.8,2025-01-29 15:18:53,0.0
437.60000000000036,-685.5999999999999,2917.2,-3903.3,-1208.7,-757.8,2025-01-29 15:18:53,0.0
469.60000000000036,-789.5999999999999,2969.2,-3855.3,-924.7,-559.8,2025-01-29 15:18:53,0.0
757.6000000000004,-1057.6,3209.2,-3616.3,-334.7,-361.8,2025-01-29 15:18:53,0.0
905.6000000000004,-1277.6,2973.2,-3477.3,327.3,-351.8,2025-01-29 15:18:53,0.0
681.6000000000004,-1245.6,3149.2,-3731.3,885.3,-519.8,2025-01-29 15:18:53,0.0
233.60000000000036,-1061.6,3409.2,-3972.3,976.3,-600.8,2025-01-29 15:18:53,0.0
-178.39999999999964,-973.5999999999999,3541.2,-4199.3,518.3,-680.8,2025-01-29 15:18:53,0.0
-650.3999999999996,-721.5999999999999,3685.2,-4539.3,-119.69999999999999,-711.8,2025-01-29 15:18:53,0.0
-718.3999999999996,-213.5999999999999,3805.2,-4722.3,-639.7,-557.8,2025-01-29 15:18:53,0.0
-330.39999999999964,-253.5999999999999,2737.2,-4844.3,-1448.7,-277.8,2025-01-29 15:18:53,0.0
177.60000000000036,-629.5999999999999,2613.2,-5162.3,-1464.7,-36.80000000000001,2025-01-29 15:18:53,0.0
553.6000000000004,-1185.6,3033.2,-5636.3,-702.7,-35.80000000000001,2025-01-29 15:18:53,0.0
325.60000000000036,-1633.6,3373.2,-5895.3,133.3,29.19999999999999,2025-01-29 15:18:53,0.0
-42.399999999999636,-2069.6,3633.2,-5873.3,357.3,140.2,2025-01-29 15:18:53,0.0
-254.39999999999964,-2085.6,3629.2,-5751.3,312.3,214.2,2025-01-29 15:18:53,0.0
-310.39999999999964,-1777.6,3813.2,-5559.3,182.3,267.2,2025-01-29 15:18:53,0.0
-614.3999999999996,-1605.6,3965.2,-5606.3,7.300000000000011,462.2,2025-01-29 15:18:53,0.0
-810.3999999999996,-1401.6,5181.2,-5949.3,-137.7,717.2,2025-01-29 15:18:53,0.0
-1270.3999999999996,-2573.6,4017.2,-5471.3,778.3,531.2,2025-01-29 15:18:53,0.0
-2238.3999999999996,-3489.6,573.2,-5676.3,2524.3,-549.8,2025-01-29 15:18:53,0.0
-2570.3999999999996,-4249.6,3721.2,-4711.3,3210.3,-2677.8,2025-01-29 15:18:53,0.0
-3922.3999999999996,-5589.6,5101.2,-2017.3,1431.3,-3264.8,2025-01-29 15:18:53,0.0
-5270.4,-6357.6,3373.2,268.7,-1093.7,-1950.8,2025-01-29 15:18:53,0.0
-6002.4,-5365.6,1197.2,1251.7,-2875.7,-205.8,2025-01-29 15:18:53,0.0
-4662.4,-2949.6,573.2,2022.7,-4119.7,315.2,2025-01-29 15:18:53,0.0
-4534.4,-1625.6,197.20000000000005,2433.7,-6038.7,524.2,2025-01-29 15:18:53,0.0
-3446.3999999999996,-1089.6,1213.2,2412.7,-8009.7,2337.2,2025-01-29 15:18:53,0.0
-858.3999999999996,-1313.6,1737.2,2412.7,-9101.7,4534.2,2025-01-29 15:18:53,0.0
2241.6000000000004,-1685.6,637.2,2452.7,-8179.7,5076.2,2025-01-29 15:18:54,0.0
4013.6000000000004,-1665.6,-2994.8,2130.7,-6062.7,4566.2,2025-01-29 15:18:54,0.0
4781.6,-209.5999999999999,-5606.8,800.7,-1975.7,3326.2,2025-01-29 15:18:54,0.0
4453.6,1978.4,-4358.8,-606.3,2422.3,1679.2,2025-01-29 15:18:54,0.0
2813.6000000000004,2830.4,-2486.8,-1295.3,5154.3,549.2,2025-01-29 15:18:54,0.0
-78.39999999999964,1734.4,-390.79999999999995,-876.3,5578.3,758.2,2025-01-29 15:18:54,0.0
-1618.3999999999996,70.40000000000009,1017.2,-358.3,4598.3,1734.2,2025-01-29 15:18:54,0.0
-1310.3999999999996,-1349.6,1329.2,48.69999999999999,3092.3,2320.2,2025-01-29 15:18:54,0.0
-1410.3999999999996,-2069.6,2673.2,970.7,1616.3,2565.2,2025-01-29 15:18:54,0.0
-1698.3999999999996,-2037.6,2197.2,2141.7,920.3,2891.2,2025-01-29 15:18:54,0.0
-1938.3999999999996,-1405.6,2237.2,3103.7,557.3,3733.2,2025-01-29 15:18:54,0.0
-954.3999999999996,-721.5999999999999,2101.2,4034.7,-76.69999999999999,4439.2,2025-01-29 15:18:54,0.0
73.60000000000036,42.40000000000009,2025.2,4584.7,-1455.7,4384.2,2025-01-29 15:18:54,0.0
1437.6000000000004,898.4000000000001,1313.2,5067.7,-2374.7,3888.2,2025-01-29 15:18:54,0.0
1877.6000000000004,1450.4,1137.2,5271.7,-1794.7,3380.2,2025-01-29 15:18:54,0.0
2149.6000000000004,1894.4,1177.2,5314.7,3.3000000000000114,3091.2,2025-01-29 15:18:54,0.0
2209.6000000000004,1874.4,1077.2,5453.7,1291.3,2891.2,2025-01-29 15:18:54,0.0
1965.6000000000004,1814.4,1373.2,5668.7,1964.3,2579.2,2025-01-29 15:18:54,0.0
1657.6000000000004,1734.4,1521.2,5731.7,2182.3,2286.2,2025-01-29 15:18:54,0.0
1313.6000000000004,1726.4,1305.2,5656.7,1994.3,2076.2,2025-01-29 15:18:54,
1121.6000000000004,1686.4,1425.2,5564.7,1470.3,1944.2,2025-01-29 15:18:54,0.0
1193.6000000000004,1650.4,1457.2,5328.7,1053.3,1614.2,2025-01-29 15:18:54,0.0
1053.6000000000004,1670.4,1701.2,5014.7,568.3,1044.2,2025-01-29 15:18:54,0.0
1169.6000000000004,1734.4,1637.2,4708.7,-149.7,287.2,2025-01-29 15:18:54,0.0
457.60000000000036,2106.4,2065.2,4238.7,-937.7,-386.8,2025-01-29 15:18:54,0.0
961.6000000000004,2234.4,2109.2,3879.7,-1618.7,-794.8,2025-01-29 15:18:54,0.0
1241.6000000000004,2074.4,2213.2,3778.7,-1783.7,-1067.8,2025-01-29 15:18:54,0.0
1569.6000000000004,1694.4,2241.2,3829.7,-1579.7,-1368.8,2025-01-29 15:18:54,0.0
1629.6000000000004,1354.4,2069.2,4053.7,-1370.7,-1588.8,2025-01-29 15:18:54,0.0
1357.6000000000004,1566.4,2017.2,4087.7,-1226.7,-1614.8,2025-01-29 15:18:54,0.0
957.6000000000004,1954.4,2821.2,4098.7,-879.7,-1439.8,2025-01-29 15:18:54,0.0
573.6000000000004,1902.4,2957.2,4097.7,-498.7,-1331.8,2025-01-29 15:18:54,0.0
433.60000000000036,1658.4,2669.2,4209.7,-235.7,-1224.8,2025-01-29 15:18:54,0.0
-198.39999999999964,1370.4,2497.2,4383.7,520.3,-1103.8,2025-01-29 15:18:54,0.0
-806.3999999999996,1482.4,1645.2,4423.7,1406.3,-691.8,2025-01-29 15:18:54,0.0
-1786.3999999999996,1882.4,2093.2,4433.7,1782.3,-207.8,2025-01-29 15:18:54,0.0
-1970.3999999999996,2118.4,2669.2,4397.7,1532.3,-24.80000000000001,2025-01-29 15:18:54,0.0
-1542.3999999999996,1414.4,3377.2,4140.7,1050.3,-26.80000000000001,2025-01-29 15:18:54,0.0
-1310.3999999999996,202.4000000000001,5045.2,4099.7,1197.3,169.2,2025-01-29 15:18:54,0.0
-1850.3999999999996,-321.5999999999999,4909.2,4774.7,2222.3,749.2,2025-01-29 15:18:54,0.0
-2954.3999999999996,462.4000000000001,2553.2,5437.7,4225.3,2071.2,2025-01-29 15:18:54,0.0
-4358.4,790.4000000000001,1985.2,6095.7,5970.3,2806.2,2025-01-29 15:18:54,0.0
-6170.4,1458.4,-886.8,5766.7,6210.3,3803.2,2025-01-29 15:18:54,0.0
-6094.4,2902.4,-2598.8,4157.7,4013.3,4459.2,2025-01-29 15:18:54,0.0
-5618.4,4166.4,-3502.8,2287.7,598.3,4702.2,2025-01-29 15:18:54,0.0
-4470.4,5222.4,-3874.8,645.7,-3280.7,4515.2,2025-01-29 15:18:54,0.0
-1202.3999999999996,4214.4,-2678.8,-399.3,-6267.7,2993.2,2025-01-29 15:18:54,0.0
2017.6000000000004,618.4000000000001,-1922.8,-1409.3,-7654.7,236.2,2025-01-29 15:18:54,0.0
3169.6000000000004,-301.5999999999999,-410.79999999999995,-1687.3,-7426.7,-2111.8,2025-01-29 15:18:54,0.0
2409.6000000000004,-1149.6,-1018.8,-215.3,-4977.7,-2582.8,2025-01-29 15:18:54,0.0
1977.6000000000004,-2837.6,-2478.8,1215.7,-1248.7,-1793.8,2025-01-29 15:18:54,0.0
1521.6000000000004,-2801.6,-2254.8,1530.7,1921.3,-1408.8,2025-01-29 15:18:54,0.0
1485.6000000000004,-681.5999999999999,-2178.8,1512.7,3977.3,-1944.8,2025-01-29 15:18:54,0.0
541.6000000000004,1898.4,-1610.8,991.7,3833.3,-2256.8,2025-01-29 15:18:54,0.0
-106.39999999999964,3298.4,137.20000000000005,319.7,2067.3,-1950.8,2025-01-29 15:18:54,0.0
-138.39999999999964,2830.4,621.2,-312.3,-218.7,-1548.8,2025-01-29 15:18:54,0.0
285.60000000000036,2026.4,37.200000000000045,-826.3,-1535.7,-1193.8,2025-01-29 15:18:54,0.0
-22.399999999999636,1402.4,-310.79999999999995,-1102.3,-1656.7,-855.8,2025-01-29 15:18:54,0.0
557.6000000000004,826.4000000000001,-694.8,-1524.3,-1186.7,-774.8,2025-01-29 15:18:54,0.0
881.6000000000004,6.400000000000091,-242.79999999999995,-2052.3,-620.7,-1192.8,2025-01-29 15:18:54,0.0
989.6000000000004,-673.5999999999999,-518.8,-2632.3,-1005.7,-1524.8,2025-01-29 15:18:54,0.0
941.6000000000004,-985.5999999999999,-418.79999999999995,-3028.3,-1568.7,-1390.8,2025-01-29 15:18:55,0.0
1153.6000000000004,-541.5999999999999,-22.799999999999955,-3207.3,-1289.7,-1278.8,2025-01-29 15:18:55,0.0
1981.6000000000004,-317.5999999999999,-394.79999999999995,-3352.3,-371.7,-1382.8,2025-01-29 15:18:55,0.0
1433.6000000000004,486.4000000000001,457.20000000000005,-3769.3,521.3,-1674.8,2025-01-29 15:18:55,0.0
1381.6000000000004,898.4000000000001,737.2,-4284.3,583.3,-1859.8,2025-01-29 15:18:55,0.0
1001.6000000000004,1182.4,637.2,-4794.3,186.3,-1959.8,2025-01-29 15:18:55,0.0
433.60000000000036,846.4000000000001,457.20000000000005,-5353.3,-476.7,-1893.8,2025-01-29 15:18:55,0.0
229.60000000000036,122.40000000000009,117.20000000000005,-5928.3,-997.7,-1535.8,2025-01-29 15:18:55,0.0
129.60000000000036,114.40000000000009,25.200000000000045,-6341.3,-1196.7,-1052.8,2025-01-29 15:18:55,0.0
573.6000000000004,538.4000000000001,-22.799999999999955,-6668.3,-1164.7,-572.8,2025-01-29 15:18:55,0.0
429.60000000000036,934.4000000000001,5.2000000000000455,-7106.3,-1463.7,-211.8,2025-01-29 15:18:55,0.0
817.6000000000004,1062.4,193.20000000000005,-7675.3,-1943.7,-22.80000000000001,2025-01-29 15:18:55,0.0
769.6000000000004,1214.4,793.2,-8131.3,-1935.7,384.2,2025-01-29 15:18:55,0.0
677.6000000000004,1182.4,925.2,-8279.3,-1796.7,1141.2,2025-01-29 15:18:55,0.0
1549.6000000000004,1126.4,677.2,-8637.3,-1210.7,1433.2,2025-01-29 15:18:55,0.0
1861.6000000000004,610.4000000000001,369.20000000000005,-9504.3,-447.7,1089.2,2025-01-29 15:18:55,0.0
1365.6000000000004,314.4000000000001,509.20000000000005,-10373.3,338.3,826.2,2025-01-29 15:18:55,0.0
645.6000000000004,222.4000000000001,1137.2,-10901.3,778.3,780.2,2025-01-29 15:18:55,0.0
-582.3999999999996,758.4000000000001,1693.2,-11460.3,719.3,1072.2,2025-01-29 15:18:55,0.0
-870.3999999999996,1398.4,1237.2,-12487.3,226.3,919.2,2025-01-29 15:18:55,0.0
-1266.3999999999996,1710.4,733.2,-13706.3,-927.7,432.2,2025-01-29 15:18:55,0.0
-1134.3999999999996,1950.4,549.2,-14271.3,-2068.7,442.2,2025-01-29 15:18:55,0.0
189.60000000000036,942.4000000000001,721.2,-14358.3,-2020.7,382.2,2025-01-29 15:18:55,0.0
1069.6000000000004,-937.5999999999999,649.2,-14956.3,-624.7,-130.8,2025-01-29 15:18:55,0.0
573.6000000000004,-2317.6,1229.2,-15802.3,1468.3,-1173.8,2025-01-29 15:18:55,0.0
-310.39999999999964,-2893.6,2057.2,-16633.3,2477.3,-2620.8,2025-01-29 15:18:55,0.0
-2034.3999999999996,-2573.6,3065.2,-17729.3,2092.3,-3961.8,2025-01-29 15:18:55,0.0
-3430.3999999999996,-1609.6,4461.2,-18426.3,467.3,-4447.8,2025-01-29 15:18:55,0.0
-4250.4,-665.5999999999999,4797.2,-18128.3,-1612.7,-3858.8,2025-01-29 15:18:55,0.0
-4494.4,150.4000000000001,2285.2,-17662.3,-3586.7,-1760.8,2025-01-29 15:18:55,0.0
-2894.3999999999996,-157.5999999999999,917.2,-17485.3,-4100.7,145.2,2025-01-29 15:18:55,0.0
-502.39999999999964,-1721.6,-942.8,-16474.3,-3715.7,821.2,2025-01-29 15:18:55,0.0
85.60000000000036,-2837.6,-3230.8,-14720.3,-1305.7,348.2,2025-01-29 15:18:55,0.0
629.6000000000004,-3565.6,-5434.8,-13633.3,3834.3,-1319.8,2025-01-29 15:18:55,0.0
-534.3999999999996,-2405.6,-3734.8,-14732.3,8658.3,-3826.8,2025-01-29 15:18:55,0.0
-2902.3999999999996,550.4000000000001,1257.2,-15450.3,8613.3,-4333.8,2025-01-29 15:18:55,0.0
-3110.3999999999996,2742.4,3921.2,-13778.3,4421.3,-2415.8,2025-01-29 15:18:55,0.0
-1882.3999999999996,3982.4,569.2,-11677.3,-365.7,-139.8,2025-01-29 15:18:55,0.0
525.6000000000004,4226.4,-3734.8,-11813.3,-2596.7,746.2,2025-01-29 15:18:55,0.0
3533.6000000000004,3470.4,-5682.8,-14567.3,-789.7,-697.8,2025-01-29 15:18:55,0.0
3433.6000000000004,1710.4,-3822.8,-16987.3,3788.3,-2537.8,2025-01-29 15:18:55,0.0
1381.6000000000004,970.4000000000001,-1790.8,-17216.3,5819.3,-2474.8,2025-01-29 15:18:55,0.0
249.60000000000036,1618.4,-722.8,-16381.3,5699.3,-1516.8,2025-01-29 15:18:55,0.0
393.60000000000036,2658.4,-1242.8,-15723.3,4506.3,-1123.8,2025-01-29 15:18:55,0.0
189.60000000000036,3310.4,-2494.8,-15998.3,3191.3,-1013.8,2025-01-29 15:18:55,0.0
733.6000000000004,3698.4,-3178.8,-16617.3,2202.3,-1014.8,2025-01-29 15:18:55,0.0
901.6000000000004,3014.4,-3102.8,-17270.3,1871.3,-1251.8,2025-01-29 15:18:55,0.0
1529.6000000000004,1994.4,-2774.8,-17746.3,1695.3,-1893.8,2025-01-29 15:18:55,0.0
1709.6000000000004,1010.4000000000001,-1658.8,-17830.3,1618.3,-2679.8,2025-01-29 15:18:55,0.0
1473.6000000000004,334.4000000000001,-1178.8,-17562.3,1515.3,-3213.8,2025-01-29 15:18:55,0.0
873.6000000000004,10.400000000000091,-758.8,-17127.3,1505.3,-3353.8,2025-01-29 15:18:55,0.0
281.60000000000036,218.4000000000001,-366.79999999999995,-16594.3,1571.3,-3257.8,2025-01-29 15:18:55,0.0
257.60000000000036,902.4000000000001,-434.79999999999995,-16004.3,1054.3,-3193.8,2025-01-29 15:18:55,0.0
73.60000000000036,1894.4,-750.8,-15611.3,-10.699999999999989,-3277.8,2025-01-29 15:18:55,0.0
45.600000000000364,2734.4,-1434.8,-15403.3,-959.7,-3343.8,2025-01-29 15:18:55,0.0
301.60000000000036,2958.4,-1906.8,-15665.3,-1686.7,-3568.8,2025-01-29 15:18:55,0.0
741.6000000000004,2206.4,-1846.8,-16218.3,-1715.7,-3785.8,2025-01-29 15:18:55,0.0
697.6000000000004,1518.4,-1298.8,-16430.3,-1776.7,-3648.8,2025-01-29 15:18:55,0.0
949.6000000000004,710.4000000000001,-1130.8,-16206.3,-1939.7,-3362.8,2025-01-29 15:18:55,
1265.6000000000004,646.4000000000001,-1262.8,-16179.3,-1734.7,-3363.8,2025-01-29 15:18:55,0.0
1533.6000000000004,762.4000000000001,-1698.8,-16435.3,-1311.7,-3832.8,2025-01-29 15:18:56,0.0
1553.6000000000004,754.4000000000001,-1646.8,-16628.3,-1328.7,-4541.8,2025-01-29 15:18:56,0.0
1801.6000000000004,990.4000000000001,-1598.8,-16422.3,-1512.7,-5256.8,2025-01-29 15:18:56,0.0
1777.6000000000004,1094.4,-2706.8,-16502.3,-1590.7,-5607.8,2025-01-29 15:18:56,0.0
1945.6000000000004,206.4000000000001,-3058.8,-16834.3,-1618.7,-5652.8,2025-01-29 15:18:56,0.0
1949.6000000000004,-485.5999999999999,-2602.8,-16925.3,-607.7,-5644.8,2025-01-29 15:18:56,0.0
1313.6000000000004,-661.5999999999999,-1742.8,-16428.3,1273.3,-5779.8,2025-01-29 15:18:56,0.0
633.6000000000004,-489.5999999999999,-1250.8,-16028.3,2496.3,-5946.8,2025-01-29 15:18:56,0.0
-454.39999999999964,-997.5999999999999,-1490.8,-15502.3,3361.3,-6623.8,2025-01-29 15:18:56,0.0
-1986.3999999999996,-1565.6,-2702.8,-15054.3,2591.3,-6649.8,2025-01-29 15:18:56,0.0
-2374.3999999999996,-2145.6,-2434.8,-14115.3,-91.69999999999999,-5999.8,2025-01-29 15:18:56,0.0
-2682.3999999999996,-2685.6,-1602.8,-12966.3,-2953.7,-4789.8,2025-01-29 15:18:56,0.0
-2406.3999999999996,-2377.6,-1202.8,-11889.3,-3776.7,-3469.8,2025-01-29 15:18:56,0.0
-1646.3999999999996,-1965.6,-1530.8,-11255.3,-3285.7,-2520.8,2025-01-29 15:18:56,0.0
-166.39999999999964,-2697.6,-1514.8,-10566.3,-3161.7,-1671.8,2025-01-29 15:18:56,0.0
-22.399999999999636,-3221.6,-686.8,-9935.3,-3109.7,-991.8,2025-01-29 15:18:56,0.0
-74.39999999999964,-3837.6,1153.2,-9147.3,-2176.7,-64.80000000000001,2025-01-29 15:18:56,0.0
-270.39999999999964,-2309.6,2317.2,-7786.3,266.3,1332.2,2025-01-29 15:18:56,0.0
553.6000000000004,1318.4,917.2,-7042.3,1471.3,1786.2,2025-01-29 15:18:56,0.0
1225.6000000000004,4742.4,-498.79999999999995,-6541.3,824.3,1306.2,2025-01-29 15:18:56,0.0
1221.6000000000004,5994.4,-2014.8,-6587.3,151.3,160.2,2025-01-29 15:18:56,0.0
625.6000000000004,3158.4,-1602.8,-8488.3,770.3,-1092.8,2025-01-29 15:18:56,0.0
-214.39999999999964,650.4000000000001,1125.2,-9464.3,1782.3,-2558.8,2025-01-29 15:18:56,0.0
-2238.3999999999996,-1229.6,1413.2,-9948.3,2521.3,-3334.8,2025-01-29 15:18:56,0.0
-3418.3999999999996,-1713.6,641.2,-10408.3,2401.3,-3455.8,2025-01-29 15:18:56,0.0
-3018.3999999999996,-1301.6,837.2,-10515.3,771.3,-3792.8,2025-01-29 15:18:56,0.0
-1974.3999999999996,-1001.5999999999999,1001.2,-10162.3,-2769.7,-4109.8,2025-01-29 15:18:56,0.0
-502.39999999999964,-1189.6,769.2,-10086.3,-5366.7,-4127.8,2025-01-29 15:18:56,0.0
1077.6000000000004,-1365.6,741.2,-10418.3,-6601.7,-4070.8,2025-01-29 15:18:56,0.0
2213.6000000000004,-1489.6,1305.2,-10625.3,-5624.7,-3954.8,2025-01-29 15:18:56,0.0
2265.6000000000004,-1729.6,1821.2,-10586.3,-2957.7,-3934.8,2025-01-29 15:18:56,0.0
1933.6000000000004,-1785.6,1945.2,-10430.3,-1136.7,-3692.8,2025-01-29 15:18:56,0.0
1181.6000000000004,-1849.6,1461.2,-10157.3,-393.7,-3340.8,2025-01-29 15:18:56,0.0
-58.399999999999636,-1965.6,1157.2,-10252.3,-542.7,-2945.8,2025-01-29 15:18:56,0.0
-546.3999999999996,-2305.6,993.2,-10154.3,-960.7,-2510.8,2025-01-29 15:18:56,0.0
-946.3999999999996,-1861.6,1641.2,-9634.3,-1148.7,-1996.8,2025-01-29 15:18:56,0.0
-286.39999999999964,-1313.6,1481.2,-9211.3,-1130.7,-1526.8,2025-01-29 15:18:56,0.0
133.60000000000036,-1177.6,1573.2,-9013.3,-1410.7,-1345.8,2025-01-29 15:18:56,0.0
-114.39999999999964,-1393.6,1253.2,-8723.3,-2354.7,-1174.8,2025-01-29 15:18:56,0.0
-182.39999999999964,-1693.6,1093.2,-8723.3,-3161.7,-1031.8,2025-01-29 15:18:56,0.0
73.60000000000036,-1921.6,889.2,-8560.3,-3239.7,-803.8,2025-01-29 15:18:56,0.0
625.6000000000004,-2133.6,769.2,-8386.3,-3213.7,-595.8,2025-01-29 15:18:56,0.0
957.6000000000004,-2401.6,765.2,-8228.3,-2947.7,-485.8,2025-01-29 15:18:56,0.0
813.6000000000004,-1909.6,965.2,-8049.3,-2164.7,-236.8,2025-01-29 15:18:56,0.0
793.6000000000004,-1585.6,1261.2,-7824.3,-1179.7,205.2,2025-01-29 15:18:56,0.0
573.6000000000004,-1421.6,1193.2,-7711.3,-257.7,601.2,2025-01-29 15:18:56,0.0
149.60000000000036,-1377.6,1349.2,-7884.3,-204.7,808.2,2025-01-29 15:18:56,0.0
-390.39999999999964,-1345.6,1673.2,-7913.3,-656.7,1179.2,2025-01-29 15:18:56,0.0
-446.39999999999964,-1401.6,2041.2,-7672.3,-1056.7,1640.2,2025-01-29 15:18:56,0.0
-374.39999999999964,-1709.6,1049.2,-7390.3,-1125.7,1917.2,2025-01-29 15:18:56,0.0
105.60000000000036,-2149.6,-414.79999999999995,-7367.3,-1040.7,1853.2,2025-01-29 15:18:56,0.0
585.6000000000004,-1493.6,-1586.8,-7175.3,-1270.7,1344.2,2025-01-29 15:18:56,0.0
133.60000000000036,958.4000000000001,-918.8,-6645.3,-855.7,609.2,2025-01-29 15:18:56,0.0
-562.3999999999996,1990.4,1509.2,-6630.3,860.3,230.2,2025-01-29 15:18:56,0.0
