acceleration_x,acceleration_y,acceleration_z,gyroscope_x,gyroscope_y,gyroscope_z,timestamp,label
-186.79999999999927,-204.0,65.60000000000036,62.0,109.4,16.5,2025-01-29 10:42:31,0.0
-130.79999999999927,-192.0,-2.399999999999636,94.0,-71.6,102.5,2025-01-29 10:42:31,0.0
-18.799999999999272,-88.0,77.60000000000036,66.0,-214.6,67.5,2025-01-29 10:42:31,0.0
157.20000000000073,12.0,9.600000000000364,25.0,-189.6,17.5,2025-01-29 10:42:31,0.0
201.20000000000073,140.0,-62.399999999999636,35.0,-19.599999999999994,-21.5,2025-01-29 10:42:32,0.0
77.20000000000073,184.0,5.600000000000364,-17.0,85.4,-55.5,2025-01-29 10:42:32,0.0
117.20000000000073,192.0,53.600000000000364,-1.0,151.4,-43.5,2025-01-29 10:42:32,0.0
-34.79999999999927,104.0,-58.399999999999636,-92.0,108.4,-17.5,2025-01-29 10:42:32,0.0
-74.79999999999927,-12.0,-14.399999999999636,-97.0,61.400000000000006,-32.5,2025-01-29 10:42:32,0.0
-106.79999999999927,-136.0,-74.39999999999964,-75.0,-20.599999999999994,-33.5,2025-01-29 10:42:32,0.0
5.200000000000728,-84.0,-106.39999999999964,-51.0,-79.6,10.5,2025-01-29 10:42:32,0.0
61.20000000000073,120.0,-86.39999999999964,-55.0,-132.6,15.5,2025-01-29 10:42:32,0.0
161.20000000000073,204.0,-206.39999999999964,-87.0,-105.6,-5.5,2025-01-29 10:42:32,0.0
229.20000000000073,164.0,-150.39999999999964,-136.0,-53.599999999999994,-36.5,2025-01-29 10:42:32,0.0
121.20000000000073,104.0,-82.39999999999964,-127.0,65.4,-44.5,2025-01-29 10:42:32,0.0
-2.7999999999992724,36.0,89.60000000000036,-154.0,93.4,-62.5,2025-01-29 10:42:32,0.0
-38.79999999999927,-80.0,161.60000000000036,-152.0,84.4,-40.5,2025-01-29 10:42:32,0.0
57.20000000000073,-92.0,-254.39999999999964,-88.0,-15.599999999999994,-3.5,2025-01-29 10:42:32,0.0
153.20000000000073,-140.0,-46.399999999999636,-93.0,-10.599999999999994,-0.5,2025-01-29 10:42:32,0.0
109.20000000000073,-152.0,-38.399999999999636,-73.0,64.4,-4.5,2025-01-29 10:42:32,0.0
221.20000000000073,-4.0,105.60000000000036,-62.0,142.4,-28.5,2025-01-29 10:42:32,0.0
173.20000000000073,-12.0,-38.399999999999636,-48.0,217.4,-72.5,2025-01-29 10:42:32,0.0
165.20000000000073,272.0,-98.39999999999964,-40.0,226.4,-92.5,2025-01-29 10:42:32,0.0
137.20000000000073,132.0,-10.399999999999636,-74.0,48.400000000000006,-153.5,2025-01-29 10:42:32,0.0
213.20000000000073,48.0,-346.39999999999964,31.0,-225.6,-197.5,2025-01-29 10:42:32,0.0
353.2000000000007,-244.0,-30.399999999999636,44.0,-220.6,-357.5,2025-01-29 10:42:32,0.0
553.2000000000007,-504.0,105.60000000000036,153.0,87.4,-474.5,2025-01-29 10:42:32,0.0
413.2000000000007,-504.0,133.60000000000036,163.0,579.4,-594.5,2025-01-29 10:42:32,0.0
173.20000000000073,-236.0,-98.39999999999964,302.0,743.4,-531.5,2025-01-29 10:42:32,0.0
57.20000000000073,-264.0,-358.39999999999964,264.0,919.4,-547.5,2025-01-29 10:42:32,0.0
-118.79999999999927,-220.0,-338.39999999999964,280.0,1080.4,-679.5,2025-01-29 10:42:32,0.0
-794.7999999999993,-240.0,-346.39999999999964,242.0,840.4,-686.5,2025-01-29 10:42:32,0.0
-1166.7999999999993,-16.0,-574.3999999999996,3.0,177.4,-547.5,2025-01-29 10:42:32,0.0
-1286.7999999999993,392.0,-434.39999999999964,-453.0,-1032.6,-335.5,2025-01-29 10:42:32,0.0
-822.7999999999993,204.0,-94.39999999999964,-839.0,-2183.6,-116.5,2025-01-29 10:42:32,0.0
-166.79999999999927,64.0,225.60000000000036,-1219.0,-2581.6,-50.5,2025-01-29 10:42:32,0.0
517.2000000000007,72.0,357.60000000000036,-1532.0,-2067.6,-170.5,2025-01-29 10:42:32,0.0
549.2000000000007,-196.0,929.6000000000004,-1745.0,-1204.6,-343.5,2025-01-29 10:42:32,0.0
205.20000000000073,-328.0,1145.6000000000004,-1693.0,-529.6,-404.5,2025-01-29 10:42:32,0.0
-70.79999999999927,-344.0,1145.6000000000004,-1732.0,-187.6,-354.5,2025-01-29 10:42:32,0.0
-574.7999999999993,-656.0,1065.6000000000004,-1765.0,-269.6,-409.5,2025-01-29 10:42:32,0.0
-906.7999999999993,-840.0,1025.6000000000004,-1709.0,-521.6,-343.5,2025-01-29 10:42:32,0.0
-806.7999999999993,-1024.0,865.6000000000004,-1626.0,-811.6,-150.5,2025-01-29 10:42:32,0.0
-562.7999999999993,-904.0,961.6000000000004,-1584.0,-1020.6,21.5,2025-01-29 10:42:32,0.0
-434.7999999999993,-840.0,585.6000000000004,-1517.0,-1018.6,141.5,2025-01-29 10:42:32,0.0
-422.7999999999993,-868.0,573.6000000000004,-1476.0,-978.6,203.5,2025-01-29 10:42:32,0.0
-594.7999999999993,-800.0,525.6000000000004,-1348.0,-978.6,407.5,2025-01-29 10:42:32,0.0
-574.7999999999993,-764.0,493.60000000000036,-1254.0,-1064.6,510.5,2025-01-29 10:42:32,0.0
-430.7999999999993,-700.0,797.6000000000004,-1160.0,-1233.6,620.5,2025-01-29 10:42:32,0.0
-214.79999999999927,-508.0,597.6000000000004,-1089.0,-1343.6,661.5,2025-01-29 10:42:32,0.0
13.200000000000728,-508.0,553.6000000000004,-993.0,-1312.6,702.5,2025-01-29 10:42:32,0.0
105.20000000000073,-116.0,361.60000000000036,-844.0,-1323.6,749.5,2025-01-29 10:42:32,0.0
257.2000000000007,32.0,221.60000000000036,-704.0,-1097.6,790.5,2025-01-29 10:42:32,0.0
333.2000000000007,204.0,245.60000000000036,-679.0,-738.6,826.5,2025-01-29 10:42:32,0.0
237.20000000000073,436.0,-30.399999999999636,-698.0,-361.6,701.5,2025-01-29 10:42:32,0.0
-78.79999999999927,356.0,5.600000000000364,-698.0,-160.6,874.5,2025-01-29 10:42:32,0.0
-310.7999999999993,604.0,-258.39999999999964,-729.0,-55.599999999999994,1067.5,2025-01-29 10:42:32,0.0
-594.7999999999993,1008.0,-382.39999999999964,-1139.0,121.4,1217.5,2025-01-29 10:42:32,0.0
-806.7999999999993,1036.0,13.600000000000364,-1392.0,-88.6,1281.5,2025-01-29 10:42:32,0.0
-806.7999999999993,992.0,185.60000000000036,-1495.0,-644.6,1378.5,2025-01-29 10:42:32,0.0
-670.7999999999993,1592.0,741.6000000000004,-1706.0,-1249.6,1640.5,2025-01-29 10:42:32,0.0
-38.79999999999927,2116.0,1945.6000000000004,-1840.0,-1452.6,1743.5,2025-01-29 10:42:32,0.0
105.20000000000073,2292.0,2917.6000000000004,-1686.0,-953.6,1497.5,2025-01-29 10:42:32,0.0
109.20000000000073,1848.0,3769.6000000000004,-1353.0,32.400000000000006,1159.5,2025-01-29 10:42:32,0.0
-854.7999999999993,1140.0,4317.6,-761.0,1779.4,972.5,2025-01-29 10:42:32,0.0
-1846.7999999999993,884.0,4009.6000000000004,-67.0,3141.4,1366.5,2025-01-29 10:42:33,0.0
-2246.7999999999993,1060.0,3173.6000000000004,239.0,3522.4,1858.5,2025-01-29 10:42:33,0.0
-2522.7999999999993,1916.0,2733.6000000000004,173.0,2923.4,2256.5,2025-01-29 10:42:33,0.0
-1858.7999999999993,2728.0,1889.6000000000004,-28.0,1764.4,2439.5,2025-01-29 10:42:33,0.0
-1086.7999999999993,2932.0,1969.6000000000004,-303.0,916.4,2301.5,2025-01-29 10:42:33,0.0
-238.79999999999927,2816.0,2593.6000000000004,-452.0,236.4,2081.5,2025-01-29 10:42:33,0.0
181.20000000000073,2724.0,3125.6000000000004,-250.0,-31.599999999999994,1922.5,2025-01-29 10:42:33,0.0
833.2000000000007,2732.0,3621.6000000000004,74.0,176.4,1614.5,2025-01-29 10:42:33,0.0
733.2000000000007,2548.0,4093.6000000000004,465.0,700.4,1208.5,2025-01-29 10:42:33,0.0
317.2000000000007,2316.0,3897.6000000000004,808.0,1462.4,835.5,2025-01-29 10:42:33,0.0
-418.7999999999993,2020.0,3561.6000000000004,1112.0,1923.4,636.5,2025-01-29 10:42:33,0.0
-1246.7999999999993,1972.0,2865.6000000000004,1532.0,1791.4,696.5,2025-01-29 10:42:33,0.0
-1634.7999999999993,2524.0,2089.6000000000004,1650.0,1197.4,700.5,2025-01-29 10:42:33,0.0
-1930.7999999999993,2904.0,2293.6000000000004,1750.0,507.4,698.5,2025-01-29 10:42:33,0.0
-2146.7999999999993,2932.0,2381.6000000000004,1960.0,-79.6,859.5,2025-01-29 10:42:33,0.0
-2270.7999999999993,2552.0,2637.6000000000004,2142.0,-667.6,1169.5,2025-01-29 10:42:33,0.0
-1758.7999999999993,2368.0,2873.6000000000004,2426.0,-1128.6,1489.5,2025-01-29 10:42:33,0.0
-1702.7999999999993,3056.0,1437.6000000000004,2486.0,-740.6,2017.5,2025-01-29 10:42:33,0.0
-1622.7999999999993,4024.0,469.60000000000036,2202.0,506.4,2881.5,2025-01-29 10:42:33,0.0
-1994.7999999999993,4084.0,-750.3999999999996,1774.0,1851.4,3266.5,2025-01-29 10:42:33,0.0
-3318.7999999999993,3008.0,-1082.3999999999996,1242.0,2751.4,3180.5,2025-01-29 10:42:33,0.0
-5422.799999999999,2516.0,333.60000000000036,1295.0,1738.4,3174.5,2025-01-29 10:42:33,0.0
-5078.799999999999,3092.0,-106.39999999999964,1776.0,-659.6,3073.5,2025-01-29 10:42:33,0.0
-1378.7999999999993,5240.0,-1606.3999999999996,2229.0,-4218.6,1084.5,2025-01-29 10:42:33,0.0
1093.2000000000007,5864.0,-2158.3999999999996,2350.0,-4272.6,-1959.5,2025-01-29 10:42:33,0.0
-206.79999999999927,3888.0,-1898.3999999999996,1850.0,-1907.6,-3455.5,2025-01-29 10:42:33,0.0
13.200000000000728,2036.0,-2318.3999999999996,1952.0,-343.6,-3328.5,2025-01-29 10:42:33,0.0
849.2000000000007,364.0,-2642.3999999999996,1913.0,-282.6,-3652.5,2025-01-29 10:42:33,0.0
921.2000000000007,164.0,-2014.3999999999996,1744.0,-1159.6,-3794.5,2025-01-29 10:42:33,0.0
1361.2000000000007,176.0,-642.3999999999996,1860.0,-1655.6,-3469.5,2025-01-29 10:42:33,0.0
1633.2000000000007,-128.0,221.60000000000036,2072.0,-859.6,-2955.5,2025-01-29 10:42:33,0.0
2193.2000000000007,-780.0,281.60000000000036,2218.0,200.4,-2827.5,2025-01-29 10:42:33,0.0
2161.2000000000007,-1588.0,133.60000000000036,2328.0,790.4,-2940.5,2025-01-29 10:42:33,0.0
1541.2000000000007,-1868.0,-430.39999999999964,2446.0,979.4,-2981.5,2025-01-29 10:42:33,0.0
849.2000000000007,-1392.0,-750.3999999999996,2174.0,997.4,-2974.5,2025-01-29 10:42:33,
161.20000000000073,-560.0,-738.3999999999996,1920.0,996.4,-2903.5,2025-01-29 10:42:33,0.0
-38.79999999999927,472.0,-750.3999999999996,1726.0,984.4,-2990.5,2025-01-29 10:42:33,0.0
-246.79999999999927,960.0,-754.3999999999996,1380.0,537.4,-3195.5,2025-01-29 10:42:33,0.0
-42.79999999999927,892.0,-222.39999999999964,908.0,-393.6,-3498.5,2025-01-29 10:42:33,0.0
437.2000000000007,28.0,593.6000000000004,285.0,-1836.6,-3649.5,2025-01-29 10:42:33,0.0
985.2000000000007,-892.0,1305.6000000000004,8.0,-2440.6,-3587.5,2025-01-29 10:42:33,0.0
1285.2000000000007,-1644.0,1453.6000000000004,-157.0,-1942.6,-3212.5,2025-01-29 10:42:33,0.0
1913.2000000000007,-2592.0,1877.6000000000004,-597.0,-487.6,-2608.5,2025-01-29 10:42:33,0.0
2381.2000000000007,-3156.0,1929.6000000000004,-732.0,871.4,-2418.5,2025-01-29 10:42:33,0.0
2257.2000000000007,-2972.0,1557.6000000000004,-718.0,1985.4,-2363.5,2025-01-29 10:42:33,0.0
1969.2000000000007,-1956.0,1225.6000000000004,-675.0,2765.4,-2322.5,2025-01-29 10:42:33,0.0
1201.2000000000007,-1156.0,941.6000000000004,-577.0,3345.4,-2393.5,2025-01-29 10:42:33,0.0
425.2000000000007,-704.0,673.6000000000004,-640.0,3713.4,-2509.5,2025-01-29 10:42:33,0.0
-134.79999999999927,-1060.0,545.6000000000004,-842.0,3409.4,-2567.5,2025-01-29 10:42:33,0.0
-726.7999999999993,-1616.0,605.6000000000004,-1136.0,2434.4,-2472.5,2025-01-29 10:42:33,0.0
-1242.7999999999993,-2380.0,1165.6000000000004,-1117.0,1149.4,-1998.5,2025-01-29 10:42:33,0.0
-1114.7999999999993,-3060.0,1297.6000000000004,-819.0,-101.6,-939.5,2025-01-29 10:42:33,0.0
25.200000000000728,-3004.0,1525.6000000000004,-335.0,-926.6,-37.5,2025-01-29 10:42:33,0.0
1333.2000000000007,-2728.0,1137.6000000000004,163.0,-1002.6,148.5,2025-01-29 10:42:34,0.0
1625.2000000000007,-2308.0,1053.6000000000004,398.0,-229.6,195.5,2025-01-29 10:42:34,0.0
1337.2000000000007,-1464.0,813.6000000000004,347.0,1209.4,540.5,2025-01-29 10:42:34,0.0
1145.2000000000007,-912.0,737.6000000000004,24.0,1943.4,792.5,2025-01-29 10:42:34,0.0
869.2000000000007,-1092.0,533.6000000000004,-354.0,2244.4,747.5,2025-01-29 10:42:34,0.0
549.2000000000007,-1780.0,737.6000000000004,-389.0,2335.4,382.5,2025-01-29 10:42:34,0.0
-194.79999999999927,-2052.0,629.6000000000004,-270.0,2230.4,163.5,2025-01-29 10:42:34,0.0
-714.7999999999993,-1512.0,-34.399999999999636,-254.0,1863.4,216.5,2025-01-29 10:42:34,0.0
-522.7999999999993,-1380.0,-638.3999999999996,-370.0,1300.4,49.5,2025-01-29 10:42:34,0.0
-1914.7999999999993,-236.0,-3566.3999999999996,-1464.0,-11400.6,3282.5,2025-01-29 10:42:34,0.0
2713.2000000000007,292.0,-2634.3999999999996,-1730.0,-12807.6,4368.5,2025-01-29 10:42:34,0.0
6869.200000000001,896.0,-1910.3999999999996,-1619.0,-12029.6,4297.5,2025-01-29 10:42:34,0.0
9057.2,1704.0,-1242.3999999999996,-1444.0,-7904.6,2891.5,2025-01-29 10:42:34,0.0
9261.2,1624.0,-1622.3999999999996,-1326.0,-1020.6,890.5,2025-01-29 10:42:34,0.0
6661.200000000001,-64.0,-2038.3999999999996,-1330.0,6295.4,-441.5,2025-01-29 10:42:34,0.0
2693.2000000000007,-1844.0,-1218.3999999999996,-742.0,11825.4,138.5,2025-01-29 10:42:34,0.0
509.2000000000007,-2328.0,-1138.3999999999996,-279.0,13396.4,920.5,2025-01-29 10:42:34,0.0
-2054.7999999999993,-1884.0,-1362.3999999999996,-293.0,11454.4,1852.5,2025-01-29 10:42:34,0.0
-4894.799999999999,-980.0,-1510.3999999999996,-264.0,6990.4,3421.5,2025-01-29 10:42:34,0.0
-5698.799999999999,-844.0,-2194.3999999999996,-23.0,1649.4,5523.5,2025-01-29 10:42:34,0.0
-3890.7999999999993,-768.0,-2450.3999999999996,73.0,-4131.6,7191.5,2025-01-29 10:42:34,0.0
-1126.7999999999993,24.0,-1602.3999999999996,312.0,-7729.6,7581.5,2025-01-29 10:42:34,0.0
2013.2000000000007,1052.0,-650.3999999999996,755.0,-9737.6,7309.5,2025-01-29 10:42:34,0.0
4637.200000000001,1604.0,285.60000000000036,1131.0,-9680.6,6544.5,2025-01-29 10:42:34,0.0
6101.200000000001,2172.0,1001.6000000000004,1294.0,-7198.6,5580.5,2025-01-29 10:42:34,0.0
6485.200000000001,2480.0,1281.6000000000004,1198.0,-2382.6,4442.5,2025-01-29 10:42:34,0.0
5357.200000000001,2960.0,881.6000000000004,731.0,2461.4,3456.5,2025-01-29 10:42:34,0.0
2593.2000000000007,3056.0,289.60000000000036,8.0,5093.4,2921.5,2025-01-29 10:42:34,0.0
1137.2000000000007,2608.0,85.60000000000036,-294.0,4498.4,2630.5,2025-01-29 10:42:34,0.0
549.2000000000007,2136.0,573.6000000000004,-164.0,2092.4,1827.5,2025-01-29 10:42:34,0.0
681.2000000000007,1672.0,485.60000000000036,89.0,-503.6,724.5,2025-01-29 10:42:34,0.0
761.2000000000007,1320.0,869.6000000000004,-121.0,-1729.6,83.5,2025-01-29 10:42:34,0.0
1465.2000000000007,1300.0,1193.6000000000004,-273.0,-1939.6,-172.5,2025-01-29 10:42:34,0.0
1577.2000000000007,1628.0,1553.6000000000004,-355.0,-1281.6,-453.5,2025-01-29 10:42:34,0.0
1077.2000000000007,1464.0,1637.6000000000004,-323.0,-237.6,-640.5,2025-01-29 10:42:34,0.0
329.2000000000007,1120.0,1401.6000000000004,-270.0,-466.6,-912.5,2025-01-29 10:42:34,0.0
-614.7999999999993,800.0,1777.6000000000004,-17.0,-1320.6,-1025.5,2025-01-29 10:42:34,0.0
-950.7999999999993,1024.0,1749.6000000000004,636.0,-2198.6,-627.5,2025-01-29 10:42:34,0.0
-654.7999999999993,1164.0,2113.6000000000004,1170.0,-2341.6,-405.5,2025-01-29 10:42:34,0.0
-30.799999999999272,1024.0,2189.6000000000004,1557.0,-1806.6,-494.5,2025-01-29 10:42:34,0.0
-294.7999999999993,844.0,2569.6000000000004,2030.0,-845.6,-567.5,2025-01-29 10:42:34,0.0
-1182.7999999999993,836.0,2741.6000000000004,2520.0,577.4,-190.5,2025-01-29 10:42:34,0.0
-2598.7999999999993,1296.0,2293.6000000000004,2803.0,2362.4,484.5,2025-01-29 10:42:34,0.0
-3734.7999999999993,1780.0,1193.6000000000004,2782.0,2990.4,1000.5,2025-01-29 10:42:34,0.0
-4294.799999999999,2500.0,-26.399999999999636,2281.0,1763.4,1630.5,2025-01-29 10:42:34,0.0
-3186.7999999999993,3260.0,-78.39999999999964,1510.0,-781.6,2275.5,2025-01-29 10:42:34,0.0
-2030.7999999999993,3480.0,1117.6000000000004,900.0,-1777.6,2311.5,2025-01-29 10:42:34,0.0
-1682.7999999999993,3216.0,1121.6000000000004,459.0,-654.6,2089.5,2025-01-29 10:42:34,0.0
-2482.7999999999993,2816.0,-122.39999999999964,78.0,1905.4,1894.5,2025-01-29 10:42:34,0.0
-3754.7999999999993,2604.0,-1846.3999999999996,-289.0,3930.4,1918.5,2025-01-29 10:42:34,0.0
-4402.799999999999,3084.0,-3146.3999999999996,-932.0,4192.4,2131.5,2025-01-29 10:42:34,0.0
-3038.7999999999993,3700.0,-3394.3999999999996,-1728.0,1094.4,1388.5,2025-01-29 10:42:34,0.0
-574.7999999999993,2044.0,-2018.3999999999996,-1476.0,-3651.6,-1327.5,2025-01-29 10:42:34,0.0
-490.7999999999993,860.0,-3062.3999999999996,-1376.0,-4405.6,-1976.5,2025-01-29 10:42:34,0.0
1897.2000000000007,40.0,-2782.3999999999996,-1375.0,-4378.6,-1873.5,2025-01-29 10:42:34,0.0
3377.2000000000007,-1264.0,-1770.3999999999996,-680.0,-3060.6,-2125.5,2025-01-29 10:42:34,0.0
3693.2000000000007,-2568.0,-638.3999999999996,891.0,-138.6,-2255.5,2025-01-29 10:42:35,0.0
3117.2000000000007,-3580.0,-462.39999999999964,2169.0,2471.4,-2382.5,2025-01-29 10:42:35,0.0
2013.2000000000007,-3352.0,-106.39999999999964,3141.0,3674.4,-2409.5,2025-01-29 10:42:35,0.0
725.2000000000007,-2252.0,-306.39999999999964,3827.0,2887.4,-2161.5,2025-01-29 10:42:35,0.0
57.20000000000073,-1040.0,-502.39999999999964,4103.0,1478.4,-1917.5,2025-01-29 10:42:35,0.0
125.20000000000073,-132.0,-1102.3999999999996,3857.0,278.4,-1891.5,2025-01-29 10:42:35,0.0
461.2000000000007,300.0,-1150.3999999999996,3222.0,-517.6,-2094.5,2025-01-29 10:42:35,0.0
737.2000000000007,232.0,-1442.3999999999996,2422.0,-1338.6,-2494.5,2025-01-29 10:42:35,0.0
1341.2000000000007,272.0,-1458.3999999999996,1762.0,-2197.6,-2600.5,2025-01-29 10:42:35,0.0
1769.2000000000007,-16.0,-1026.3999999999996,1135.0,-2479.6,-2497.5,2025-01-29 10:42:35,0.0
2517.2000000000007,-248.0,-466.39999999999964,501.0,-2238.6,-2365.5,2025-01-29 10:42:35,0.0
3101.2000000000007,-788.0,-54.399999999999636,54.0,-1439.6,-2386.5,2025-01-29 10:42:35,0.0
3269.2000000000007,-1376.0,393.60000000000036,-414.0,5.400000000000006,-2739.5,2025-01-29 10:42:35,0.0
2965.2000000000007,-1788.0,725.6000000000004,-655.0,1324.4,-3029.5,2025-01-29 10:42:35,0.0
1913.2000000000007,-2088.0,845.6000000000004,-615.0,2367.4,-3191.5,2025-01-29 10:42:35,0.0
1009.2000000000007,-1852.0,665.6000000000004,-652.0,2457.4,-3213.5,2025-01-29 10:42:35,0.0
365.2000000000007,-1864.0,889.6000000000004,-631.0,1750.4,-2970.5,2025-01-29 10:42:35,0.0
-222.79999999999927,-1952.0,1029.6000000000004,-564.0,808.4,-2321.5,2025-01-29 10:42:35,0.0
169.20000000000073,-2300.0,1237.6000000000004,-433.0,241.4,-1554.5,2025-01-29 10:42:35,0.0
597.2000000000007,-2420.0,1813.6000000000004,-310.0,235.4,-1372.5,2025-01-29 10:42:35,0.0
617.2000000000007,-2052.0,1989.6000000000004,-149.0,268.4,-1069.5,2025-01-29 10:42:35,0.0
937.2000000000007,-1512.0,1461.6000000000004,-234.0,428.4,-513.5,2025-01-29 10:42:35,0.0
1037.2000000000007,-1212.0,573.6000000000004,-738.0,966.4,-31.5,2025-01-29 10:42:35,0.0
465.2000000000007,-1316.0,393.60000000000036,-1423.0,1551.4,428.5,2025-01-29 10:42:35,0.0
73.20000000000073,-1560.0,689.6000000000004,-1783.0,1848.4,718.5,2025-01-29 10:42:35,0.0
97.20000000000073,-1624.0,713.6000000000004,-1956.0,1556.4,577.5,2025-01-29 10:42:35,
-550.7999999999993,-1680.0,637.6000000000004,-1948.0,426.4,211.5,2025-01-29 10:42:35,0.0
-886.7999999999993,-1668.0,277.60000000000036,-1840.0,-553.6,-4.5,2025-01-29 10:42:35,0.0
-978.7999999999993,-1068.0,269.60000000000036,-1651.0,-841.6,-119.5,2025-01-29 10:42:35,0.0
-1430.7999999999993,-596.0,129.60000000000036,-1864.0,-479.6,-274.5,2025-01-29 10:42:35,0.0
-1366.7999999999993,-772.0,401.60000000000036,-2075.0,-141.6,-751.5,2025-01-29 10:42:35,0.0
-2014.7999999999993,-1684.0,285.60000000000036,-2519.0,-72.6,-1512.5,2025-01-29 10:42:35,0.0
-2626.7999999999993,-2040.0,1365.6000000000004,-3003.0,-483.6,-2183.5,2025-01-29 10:42:35,0.0
-3374.7999999999993,-2100.0,2549.6000000000004,-3394.0,-1181.6,-2655.5,2025-01-29 10:42:35,0.0
-2734.7999999999993,-2060.0,585.6000000000004,-3178.0,-1087.6,-2899.5,2025-01-29 10:42:35,0.0
-2310.7999999999993,-2508.0,-1362.3999999999996,-3151.0,84.4,-3083.5,2025-01-29 10:42:35,0.0
-2138.7999999999993,-3988.0,-766.3999999999996,-2649.0,1132.4,-3907.5,2025-01-29 10:42:35,0.0
-3206.7999999999993,-5524.0,-550.3999999999996,-1351.0,853.4,-4329.5,2025-01-29 10:42:35,0.0
-5802.799999999999,-5832.0,-1478.3999999999996,-422.0,-1141.6,-2474.5,2025-01-29 10:42:35,0.0
-5846.799999999999,-5008.0,-2810.3999999999996,-228.0,-3671.6,1673.5,2025-01-29 10:42:35,0.0
-1146.7999999999993,-3284.0,-3302.3999999999996,325.0,-5569.6,2974.5,2025-01-29 10:42:35,0.0
1157.2000000000007,-2140.0,-3274.3999999999996,295.0,-6987.6,2594.5,2025-01-29 10:42:35,0.0
3457.2000000000007,-928.0,-2254.3999999999996,345.0,-7836.6,2221.5,2025-01-29 10:42:35,0.0
4865.200000000001,708.0,-1890.3999999999996,330.0,-7418.6,2220.5,2025-01-29 10:42:35,0.0
5769.200000000001,2812.0,-2198.3999999999996,-57.0,-4852.6,2316.5,2025-01-29 10:42:35,0.0
6189.200000000001,4164.0,-2282.3999999999996,-636.0,-836.6,2082.5,2025-01-29 10:42:35,0.0
6065.200000000001,3984.0,-1802.3999999999996,-1270.0,3830.4,911.5,2025-01-29 10:42:35,0.0
3169.2000000000007,1488.0,-1526.3999999999996,-2064.0,7612.4,-861.5,2025-01-29 10:42:35,0.0
-634.7999999999993,-220.0,-798.3999999999996,-2137.0,8761.4,-707.5,2025-01-29 10:42:35,0.0
-2942.7999999999993,-1560.0,-346.39999999999964,-2037.0,7476.4,399.5,2025-01-29 10:42:35,0.0
-4774.799999999999,-2040.0,117.60000000000036,-1630.0,4407.4,2020.5,2025-01-29 10:42:35,0.0
-4306.799999999999,-1644.0,-206.39999999999964,-851.0,518.4,3805.5,2025-01-29 10:42:35,0.0
-2474.7999999999993,-892.0,-714.3999999999996,-445.0,-2912.6,4622.5,2025-01-29 10:42:35,0.0
-678.7999999999993,52.0,-170.39999999999964,-18.0,-4749.6,4895.5,2025-01-29 10:42:35,0.0
1049.2000000000007,1028.0,525.6000000000004,487.0,-5369.6,4934.5,2025-01-29 10:42:35,0.0
2645.2000000000007,1428.0,1173.6000000000004,666.0,-4979.6,4796.5,2025-01-29 10:42:35,0.0
3861.2000000000007,1596.0,1913.6000000000004,747.0,-3619.6,4090.5,2025-01-29 10:42:35,0.0
4169.200000000001,1860.0,2245.6000000000004,938.0,-1475.6,3191.5,2025-01-29 10:42:35,0.0
3321.2000000000007,2404.0,2409.6000000000004,1105.0,879.4,2438.5,2025-01-29 10:42:35,0.0
2841.2000000000007,2476.0,1749.6000000000004,1055.0,1748.4,2020.5,2025-01-29 10:42:35,0.0
2509.2000000000007,2316.0,1569.6000000000004,985.0,2151.4,1480.5,2025-01-29 10:42:35,0.0
2289.2000000000007,2152.0,1637.6000000000004,953.0,2085.4,536.5,2025-01-29 10:42:36,0.0
2261.2000000000007,2040.0,1297.6000000000004,1040.0,1403.4,-355.5,2025-01-29 10:42:36,0.0
2633.2000000000007,1772.0,1433.6000000000004,1313.0,405.4,-1467.5,2025-01-29 10:42:36,0.0
2549.2000000000007,1752.0,1189.6000000000004,1608.0,245.4,-2385.5,2025-01-29 10:42:36,0.0
1797.2000000000007,2060.0,1373.6000000000004,1412.0,788.4,-2983.5,2025-01-29 10:42:36,0.0
1073.2000000000007,1768.0,813.6000000000004,1122.0,1369.4,-3484.5,2025-01-29 10:42:36,0.0
-826.7999999999993,1280.0,-214.39999999999964,781.0,1899.4,-3753.5,2025-01-29 10:42:36,0.0
-3230.7999999999993,112.0,-350.39999999999964,537.0,2126.4,-3094.5,2025-01-29 10:42:36,0.0
-4494.799999999999,-1112.0,349.60000000000036,726.0,1336.4,-1753.5,2025-01-29 10:42:36,0.0
-4782.799999999999,-1732.0,1965.6000000000004,1098.0,-1302.6,-279.5,2025-01-29 10:42:36,0.0
-3662.7999999999993,-1832.0,2593.6000000000004,1821.0,-3146.6,1019.5,2025-01-29 10:42:36,0.0
-2234.7999999999993,-916.0,2409.6000000000004,2657.0,-3173.6,2025.5,2025-01-29 10:42:36,0.0
-1254.7999999999993,-248.0,2053.6000000000004,3358.0,-1692.6,2833.5,2025-01-29 10:42:36,0.0
-542.7999999999993,28.0,1713.6000000000004,3736.0,196.4,3120.5,2025-01-29 10:42:36,0.0
-662.7999999999993,356.0,1813.6000000000004,4008.0,1535.4,2876.5,2025-01-29 10:42:36,0.0
-1706.7999999999993,940.0,1849.6000000000004,4143.0,2285.4,2439.5,2025-01-29 10:42:36,0.0
-2958.7999999999993,1736.0,481.60000000000036,4090.0,2451.4,2290.5,2025-01-29 10:42:36,0.0
-2994.7999999999993,1884.0,-1654.3999999999996,3492.0,1665.4,2366.5,2025-01-29 10:42:36,0.0
-3162.7999999999993,2080.0,-3186.3999999999996,2396.0,1272.4,2323.5,2025-01-29 10:42:36,0.0
-3774.7999999999993,2972.0,-3226.3999999999996,981.0,1231.4,2464.5,2025-01-29 10:42:36,0.0
-3326.7999999999993,3536.0,-3426.3999999999996,-66.0,791.4,2441.5,2025-01-29 10:42:36,0.0
-2158.7999999999993,3308.0,-4154.4,-991.0,-430.6,1474.5,2025-01-29 10:42:36,0.0
-1574.7999999999993,3000.0,-4258.4,-1796.0,-1870.6,268.5,2025-01-29 10:42:36,0.0
-514.7999999999993,2144.0,-2498.3999999999996,-2073.0,-3302.6,-725.5,2025-01-29 10:42:36,0.0
1157.2000000000007,600.0,-1590.3999999999996,-1888.0,-4701.6,-1269.5,2025-01-29 10:42:36,0.0
3593.2000000000007,-1328.0,-622.3999999999996,-1311.0,-5442.6,-1481.5,2025-01-29 10:42:36,0.0
5281.200000000001,-3028.0,69.60000000000036,-596.0,-5372.6,-1763.5,2025-01-29 10:42:36,0.0
5641.200000000001,-4168.0,973.6000000000004,40.0,-3978.6,-1629.5,2025-01-29 10:42:36,0.0
5165.200000000001,-4688.0,929.6000000000004,971.0,303.4,-741.5,2025-01-29 10:42:36,0.0
4833.200000000001,-2952.0,-494.39999999999964,1535.0,4887.4,-107.5,2025-01-29 10:42:36,0.0
3113.2000000000007,-1480.0,-1498.3999999999996,1218.0,7026.4,-507.5,2025-01-29 10:42:36,0.0
441.2000000000007,-68.0,-1570.3999999999996,572.0,7425.4,-854.5,2025-01-29 10:42:36,0.0
-1402.7999999999993,240.0,-1078.3999999999996,196.0,6039.4,-1078.5,2025-01-29 10:42:36,0.0
-2566.7999999999993,-64.0,-1278.3999999999996,268.0,3166.4,-1356.5,2025-01-29 10:42:36,0.0
-2826.7999999999993,-788.0,-1522.3999999999996,515.0,-486.6,-1703.5,2025-01-29 10:42:36,0.0
-2458.7999999999993,-1440.0,-1522.3999999999996,698.0,-3697.6,-1787.5,2025-01-29 10:42:36,0.0
-1218.7999999999993,-1888.0,-766.3999999999996,734.0,-5264.6,-1525.5,2025-01-29 10:42:36,0.0
517.2000000000007,-1796.0,-2.399999999999636,673.0,-5711.6,-1151.5,2025-01-29 10:42:36,0.0
2505.2000000000007,-1512.0,421.60000000000036,602.0,-5346.6,-859.5,2025-01-29 10:42:36,0.0
177.20000000000073,-1268.0,1237.6000000000004,-2185.0,-1758.6,-210.5,2025-01-29 10:42:36,0.0
873.2000000000007,-380.0,1261.6000000000004,-2340.0,-1309.6,-18.5,2025-01-29 10:42:36,0.0
697.2000000000007,-152.0,1149.6000000000004,-2702.0,-22.599999999999994,259.5,2025-01-29 10:42:36,0.0
681.2000000000007,-700.0,1297.6000000000004,-2981.0,1079.4,412.5,2025-01-29 10:42:36,0.0
-14.799999999999272,-1684.0,1909.6000000000004,-2975.0,1251.4,394.5,2025-01-29 10:42:36,0.0
-818.7999999999993,-2480.0,1897.6000000000004,-2687.0,762.4,331.5,2025-01-29 10:42:36,0.0
-1550.7999999999993,-2532.0,1649.6000000000004,-2306.0,-9.599999999999994,248.5,2025-01-29 10:42:36,0.0
-1802.7999999999993,-1820.0,1353.6000000000004,-1853.0,-1136.6,414.5,2025-01-29 10:42:36,0.0
-1266.7999999999993,-1188.0,1161.6000000000004,-1551.0,-1536.6,384.5,2025-01-29 10:42:36,0.0
-846.7999999999993,-1048.0,1077.6000000000004,-1467.0,-1375.6,98.5,2025-01-29 10:42:36,0.0
-1110.7999999999993,-1232.0,1105.6000000000004,-1469.0,-1216.6,-145.5,2025-01-29 10:42:36,0.0
-978.7999999999993,-1460.0,1325.6000000000004,-1684.0,-1416.6,-357.5,2025-01-29 10:42:36,0.0
-706.7999999999993,-948.0,1405.6000000000004,-1812.0,-1312.6,-752.5,2025-01-29 10:42:36,0.0
-590.7999999999993,-232.0,-6.399999999999636,-1818.0,-1108.6,-1562.5,2025-01-29 10:42:37,0.0
-226.79999999999927,-52.0,-1454.3999999999996,-1693.0,-1241.6,-2216.5,2025-01-29 10:42:37,0.0
-694.7999999999993,-1044.0,-1210.3999999999996,-1331.0,-636.6,-2460.5,2025-01-29 10:42:37,0.0
-778.7999999999993,-2852.0,-890.3999999999996,-618.0,-211.6,-2539.5,2025-01-29 10:42:37,0.0
-1866.7999999999993,-4508.0,-1186.3999999999996,138.0,590.4,-2300.5,2025-01-29 10:42:37,0.0
-4366.799999999999,-5676.0,-1998.3999999999996,884.0,1689.4,-688.5,2025-01-29 10:42:37,0.0
-5306.799999999999,-5216.0,-1730.3999999999996,1634.0,350.4,1564.5,2025-01-29 10:42:37,0.0
-3258.7999999999993,-2784.0,-2578.3999999999996,2185.0,-3399.6,3025.5,2025-01-29 10:42:37,0.0
-1358.7999999999993,-140.0,-3226.3999999999996,1764.0,-5616.6,3577.5,2025-01-29 10:42:37,0.0
1097.2000000000007,2020.0,-2430.3999999999996,1136.0,-5985.6,4250.5,2025-01-29 10:42:37,0.0
4073.2000000000007,3700.0,-2434.3999999999996,603.0,-5383.6,4195.5,2025-01-29 10:42:37,0.0
6385.200000000001,4696.0,-2378.3999999999996,37.0,-3922.6,3233.5,2025-01-29 10:42:37,0.0
7449.200000000001,4416.0,-1634.3999999999996,-753.0,-945.6,1437.5,2025-01-29 10:42:37,
6245.200000000001,2760.0,-1614.3999999999996,-1555.0,3218.4,-221.5,2025-01-29 10:42:37,0.0
3589.2000000000007,1688.0,-2302.3999999999996,-2303.0,6716.4,-676.5,2025-01-29 10:42:37,0.0
-46.79999999999927,1016.0,-3198.3999999999996,-3145.0,8341.4,-97.5,2025-01-29 10:42:37,0.0
-2118.7999999999993,304.0,-1670.3999999999996,-3605.0,6868.4,785.5,2025-01-29 10:42:37,0.0
-3346.7999999999993,132.0,-742.3999999999996,-3196.0,2952.4,1332.5,2025-01-29 10:42:37,0.0
-2882.7999999999993,472.0,-870.3999999999996,-2720.0,-986.6,1847.5,2025-01-29 10:42:37,0.0
-1178.7999999999993,932.0,-746.3999999999996,-2458.0,-3417.6,1977.5,2025-01-29 10:42:37,0.0
1545.2000000000007,1048.0,73.60000000000036,-2023.0,-4327.6,1995.5,2025-01-29 10:42:37,0.0
4137.200000000001,1088.0,161.60000000000036,-1526.0,-3475.6,1598.5,2025-01-29 10:42:37,0.0
5333.200000000001,1440.0,713.6000000000004,-1403.0,-806.6,907.5,2025-01-29 10:42:37,0.0
4033.2000000000007,2072.0,1081.6000000000004,-1074.0,3555.4,195.5,2025-01-29 10:42:37,0.0
2005.2000000000007,2524.0,765.6000000000004,-884.0,5267.4,-320.5,2025-01-29 10:42:37,0.0
-422.7999999999993,2280.0,-274.39999999999964,-948.0,4827.4,-504.5,2025-01-29 10:42:37,0.0
-1710.7999999999993,1816.0,-586.3999999999996,-750.0,3023.4,-470.5,2025-01-29 10:42:37,0.0
-2086.7999999999993,1020.0,-786.3999999999996,-469.0,538.4,-577.5,2025-01-29 10:42:37,0.0
-1646.7999999999993,252.0,25.600000000000364,-98.0,-1738.6,-677.5,2025-01-29 10:42:37,0.0
-662.7999999999993,228.0,225.60000000000036,523.0,-3251.6,-728.5,2025-01-29 10:42:37,0.0
765.2000000000007,528.0,189.60000000000036,1003.0,-3217.6,-853.5,2025-01-29 10:42:37,0.0
1773.2000000000007,1340.0,321.60000000000036,1109.0,-2837.6,-1239.5,2025-01-29 10:42:37,0.0
2137.2000000000007,1544.0,573.6000000000004,1218.0,-2444.6,-1286.5,2025-01-29 10:42:37,0.0
2537.2000000000007,884.0,1337.6000000000004,1640.0,-1192.6,-1255.5,2025-01-29 10:42:37,0.0
2245.2000000000007,4.0,1265.6000000000004,2093.0,171.4,-1460.5,2025-01-29 10:42:37,0.0
1261.2000000000007,-644.0,405.60000000000036,2478.0,1717.4,-1517.5,2025-01-29 10:42:37,0.0
-290.7999999999993,-808.0,-2334.3999999999996,2183.0,2822.4,-1185.5,2025-01-29 10:42:37,0.0
-1614.7999999999993,-16.0,-3446.3999999999996,1625.0,3034.4,-174.5,2025-01-29 10:42:37,0.0
-526.7999999999993,1120.0,-3322.3999999999996,1002.0,1859.4,474.5,2025-01-29 10:42:37,0.0
729.2000000000007,1792.0,-2534.3999999999996,460.0,41.400000000000006,131.5,2025-01-29 10:42:37,0.0
1397.2000000000007,2016.0,-2082.3999999999996,13.0,-969.6,-81.5,2025-01-29 10:42:37,0.0
2097.2000000000007,1792.0,-2078.3999999999996,-359.0,-733.6,-97.5,2025-01-29 10:42:37,0.0
2869.2000000000007,1472.0,-1978.3999999999996,-676.0,380.4,-169.5,2025-01-29 10:42:37,0.0
2881.2000000000007,1144.0,-1546.3999999999996,-923.0,2050.4,-453.5,2025-01-29 10:42:37,0.0
1721.2000000000007,424.0,-694.3999999999996,-958.0,3764.4,-756.5,2025-01-29 10:42:37,0.0
585.2000000000007,-100.0,-938.3999999999996,-771.0,3992.4,-1012.5,2025-01-29 10:42:37,0.0
-862.7999999999993,-668.0,-818.3999999999996,-484.0,3546.4,-1131.5,2025-01-29 10:42:37,0.0
-1670.7999999999993,-676.0,-474.39999999999964,-214.0,2154.4,-764.5,2025-01-29 10:42:37,0.0
-1618.7999999999993,-196.0,-566.3999999999996,-44.0,326.4,-54.5,2025-01-29 10:42:37,0.0
-534.7999999999993,168.0,-738.3999999999996,-136.0,-515.6,14.5,2025-01-29 10:42:37,0.0
161.20000000000073,376.0,-566.3999999999996,-183.0,-835.6,-35.5,2025-01-29 10:42:37,0.0
1117.2000000000007,240.0,-174.39999999999964,-102.0,-549.6,-116.5,2025-01-29 10:42:37,0.0
1469.2000000000007,372.0,121.60000000000036,-132.0,100.4,-369.5,2025-01-29 10:42:37,0.0
1409.2000000000007,384.0,-402.39999999999964,-159.0,898.4,-439.5,2025-01-29 10:42:37,0.0
861.2000000000007,468.0,-1134.3999999999996,-364.0,1443.4,-438.5,2025-01-29 10:42:37,0.0
177.20000000000073,592.0,-1550.3999999999996,-656.0,1371.4,-444.5,2025-01-29 10:42:37,0.0
-186.79999999999927,400.0,-1346.3999999999996,-888.0,826.4,-410.5,2025-01-29 10:42:37,0.0
-230.79999999999927,-68.0,-598.3999999999996,-967.0,273.4,-383.5,2025-01-29 10:42:37,0.0
-54.79999999999927,-348.0,-478.39999999999964,-812.0,-125.6,-342.5,2025-01-29 10:42:37,0.0
425.2000000000007,-512.0,-234.39999999999964,-662.0,-246.6,-249.5,2025-01-29 10:42:37,0.0
625.2000000000007,-516.0,-506.39999999999964,-542.0,-151.6,-254.5,2025-01-29 10:42:38,0.0
949.2000000000007,-556.0,-774.3999999999996,-367.0,438.4,-187.5,2025-01-29 10:42:38,0.0
805.2000000000007,-56.0,-1018.3999999999996,-321.0,834.4,-140.5,2025-01-29 10:42:38,0.0
521.2000000000007,72.0,-774.3999999999996,-269.0,771.4,-164.5,2025-01-29 10:42:38,0.0
153.20000000000073,4.0,-694.3999999999996,-192.0,443.4,-172.5,2025-01-29 10:42:38,0.0
145.20000000000073,-292.0,-402.39999999999964,-75.0,132.4,-168.5,2025-01-29 10:42:38,0.0
261.2000000000007,-192.0,-406.39999999999964,-42.0,-197.6,-173.5,2025-01-29 10:42:38,0.0
413.2000000000007,-236.0,-518.3999999999996,-5.0,-213.6,-152.5,2025-01-29 10:42:38,0.0
597.2000000000007,-80.0,-766.3999999999996,0.0,-3.5999999999999943,-77.5,2025-01-29 10:42:38,0.0
617.2000000000007,64.0,-826.3999999999996,-17.0,184.4,-49.5,2025-01-29 10:42:38,0.0
477.2000000000007,-120.0,-642.3999999999996,-34.0,189.4,-121.5,2025-01-29 10:42:38,0.0
429.2000000000007,-368.0,-698.3999999999996,54.0,69.4,-105.5,2025-01-29 10:42:38,0.0
521.2000000000007,-356.0,-658.3999999999996,169.0,-86.6,-1.5,2025-01-29 10:42:38,0.0
665.2000000000007,-68.0,-814.3999999999996,134.0,-49.599999999999994,27.5,2025-01-29 10:42:38,0.0
817.2000000000007,100.0,-826.3999999999996,33.0,170.4,10.5,2025-01-29 10:42:38,0.0
669.2000000000007,-52.0,-774.3999999999996,-43.0,421.4,-17.5,2025-01-29 10:42:38,0.0
425.2000000000007,-128.0,-634.3999999999996,-10.0,476.4,23.5,2025-01-29 10:42:38,0.0
329.2000000000007,-252.0,-434.39999999999964,1.0,282.4,54.5,2025-01-29 10:42:38,0.0
269.2000000000007,-136.0,-810.3999999999996,17.0,130.4,33.5,2025-01-29 10:42:38,0.0
225.20000000000073,-224.0,-614.3999999999996,65.0,-62.599999999999994,111.5,2025-01-29 10:42:38,0.0
357.2000000000007,-108.0,-642.3999999999996,114.0,-87.6,160.5,2025-01-29 10:42:38,0.0
381.2000000000007,-20.0,-486.39999999999964,136.0,-25.599999999999994,176.5,2025-01-29 10:42:38,0.0
625.2000000000007,-104.0,-690.3999999999996,84.0,56.400000000000006,90.5,2025-01-29 10:42:38,0.0
377.2000000000007,-60.0,-662.3999999999996,151.0,49.400000000000006,156.5,2025-01-29 10:42:38,0.0
561.2000000000007,-12.0,-862.3999999999996,154.0,9.400000000000006,185.5,2025-01-29 10:42:38,0.0
497.2000000000007,168.0,-742.3999999999996,96.0,26.400000000000006,168.5,2025-01-29 10:42:38,0.0
353.2000000000007,200.0,-582.3999999999996,109.0,89.4,172.5,2025-01-29 10:42:38,0.0
545.2000000000007,104.0,-1026.3999999999996,84.0,-97.6,109.5,2025-01-29 10:42:38,0.0
397.2000000000007,120.0,-990.3999999999996,99.0,-117.6,178.5,2025-01-29 10:42:38,0.0
589.2000000000007,-36.0,-770.3999999999996,48.0,-122.6,156.5,2025-01-29 10:42:38,0.0
493.2000000000007,104.0,-490.39999999999964,65.0,-89.6,129.5,2025-01-29 10:42:38,0.0
449.2000000000007,192.0,-470.39999999999964,48.0,-47.599999999999994,87.5,2025-01-29 10:42:38,0.0
525.2000000000007,48.0,-682.3999999999996,85.0,-17.599999999999994,120.5,2025-01-29 10:42:38,0.0
613.2000000000007,168.0,-754.3999999999996,62.0,34.400000000000006,121.5,2025-01-29 10:42:38,0.0
705.2000000000007,0.0,-642.3999999999996,-5.0,150.4,99.5,2025-01-29 10:42:38,0.0
509.2000000000007,-24.0,-610.3999999999996,37.0,248.4,63.5,2025-01-29 10:42:38,0.0
481.2000000000007,92.0,-634.3999999999996,46.0,271.4,65.5,2025-01-29 10:42:38,0.0
425.2000000000007,124.0,-794.3999999999996,-36.0,238.4,26.5,2025-01-29 10:42:38,0.0
477.2000000000007,136.0,-646.3999999999996,-5.0,148.4,1.5,2025-01-29 10:42:38,0.0
441.2000000000007,112.0,-686.3999999999996,-45.0,134.4,-0.5,2025-01-29 10:42:38,0.0
445.2000000000007,200.0,-630.3999999999996,-62.0,109.4,-17.5,2025-01-29 10:42:38,0.0
485.2000000000007,180.0,-802.3999999999996,-111.0,65.4,-44.5,2025-01-29 10:42:38,0.0
509.2000000000007,104.0,-746.3999999999996,-107.0,86.4,-59.5,2025-01-29 10:42:38,0.0
565.2000000000007,24.0,-610.3999999999996,-105.0,55.400000000000006,-44.5,2025-01-29 10:42:38,0.0
597.2000000000007,-40.0,-514.3999999999996,-121.0,89.4,-88.5,2025-01-29 10:42:38,0.0
525.2000000000007,20.0,-582.3999999999996,-94.0,148.4,-100.5,2025-01-29 10:42:38,0.0
425.2000000000007,28.0,-782.3999999999996,-49.0,175.4,-86.5,2025-01-29 10:42:38,0.0
365.2000000000007,40.0,-578.3999999999996,-48.0,181.4,-42.5,2025-01-29 10:42:38,0.0
461.2000000000007,-8.0,-658.3999999999996,-17.0,140.4,-8.5,2025-01-29 10:42:38,0.0
545.2000000000007,56.0,-426.39999999999964,27.0,184.4,15.5,2025-01-29 10:42:38,0.0
617.2000000000007,-96.0,-542.3999999999996,98.0,223.4,8.5,2025-01-29 10:42:38,0.0
545.2000000000007,-164.0,-562.3999999999996,150.0,381.4,48.5,2025-01-29 10:42:38,0.0
693.2000000000007,-216.0,-714.3999999999996,238.0,565.4,89.5,2025-01-29 10:42:38,
737.2000000000007,-348.0,-702.3999999999996,331.0,692.4,48.5,2025-01-29 10:42:38,0.0
505.2000000000007,-364.0,-586.3999999999996,453.0,779.4,97.5,2025-01-29 10:42:38,0.0
481.2000000000007,-580.0,-790.3999999999996,614.0,729.4,160.5,2025-01-29 10:42:38,0.0
321.2000000000007,-620.0,-1074.3999999999996,782.0,690.4,261.5,2025-01-29 10:42:39,0.0
337.2000000000007,-388.0,-1250.3999999999996,863.0,546.4,293.5,2025-01-29 10:42:39,0.0
189.20000000000073,-228.0,-1406.3999999999996,878.0,237.4,303.5,2025-01-29 10:42:39,0.0
2529.2000000000007,2136.0,6045.6,715.0,6480.4,-1850.5,2025-01-29 10:42:39,0.0
489.2000000000007,2708.0,2957.6000000000004,410.0,7018.4,-2433.5,2025-01-29 10:42:39,0.0
-426.7999999999993,3112.0,765.6000000000004,-854.0,6224.4,-2894.5,2025-01-29 10:42:39,0.0
-3862.7999999999993,2660.0,-1570.3999999999996,-2374.0,2835.4,-2522.5,2025-01-29 10:42:39,0.0
-8254.8,1732.0,-4546.4,-3862.0,525.4,-538.5,2025-01-29 10:42:39,0.0
-11094.8,848.0,-3098.3999999999996,-3612.0,-2069.6,13.5,2025-01-29 10:42:39,0.0
-13790.8,252.0,-814.3999999999996,-2954.0,-4392.6,102.5,2025-01-29 10:42:39,0.0
-14506.8,-1160.0,-3898.3999999999996,-2048.0,-1484.6,743.5,2025-01-29 10:42:39,0.0
-8422.8,-2744.0,-12206.4,-2075.0,-1899.6,-267.5,2025-01-29 10:42:39,0.0
-13658.8,-3484.0,-13342.4,-625.0,-5141.6,-548.5,2025-01-29 10:42:39,0.0
-18242.8,-4156.0,-8814.4,439.0,-2194.6,2815.5,2025-01-29 10:42:39,0.0
-16114.8,-2316.0,-12094.4,1411.0,4384.4,3398.5,2025-01-29 10:42:39,0.0
-20034.8,292.0,-12266.4,3430.0,7877.4,2700.5,2025-01-29 10:42:39,0.0
-21546.8,2000.0,-11398.4,4925.0,12420.4,2978.5,2025-01-29 10:42:39,0.0
-21546.8,4348.0,-10962.4,5361.0,20724.4,2507.5,2025-01-29 10:42:39,0.0
-21546.8,6032.0,-12946.4,5960.0,32566.4,389.5,2025-01-29 10:42:39,0.0
-19454.8,5856.0,-17622.4,6086.0,32566.4,-750.5,2025-01-29 10:42:39,0.0
-7446.799999999999,2952.0,-23662.4,4883.0,32566.4,-1627.5,2025-01-29 10:42:39,0.0
5589.200000000001,-2088.0,-25298.4,3186.0,32566.4,-3019.5,2025-01-29 10:42:39,0.0
8893.2,-3728.0,-25298.4,781.0,22346.4,-4015.5,2025-01-29 10:42:39,0.0
217.20000000000073,416.0,-17266.4,-1049.0,-8740.6,-1265.5,2025-01-29 10:42:39,0.0
-558.7999999999993,4020.0,-5918.4,-1181.0,-32968.6,3165.5,2025-01-29 10:42:39,0.0
9805.2,2396.0,-3142.3999999999996,-869.0,-32968.6,7151.5,2025-01-29 10:42:39,0.0
18405.2,-1208.0,-8650.4,-1745.0,-32968.6,9190.5,2025-01-29 10:42:39,0.0
29909.2,-5000.0,10429.6,1699.0,-32968.6,8182.5,2025-01-29 10:42:39,0.0
3117.2000000000007,-4076.0,-9722.4,230.0,-32968.6,8159.5,2025-01-29 10:42:39,0.0
4669.200000000001,-4748.0,-13322.4,116.0,-32968.6,8571.5,2025-01-29 10:42:39,0.0
15993.2,-4504.0,-3978.3999999999996,183.0,-26548.6,8322.5,2025-01-29 10:42:39,0.0
28777.2,-1168.0,15109.6,-2502.0,-32968.6,11660.5,2025-01-29 10:42:39,0.0
28177.2,4284.0,22437.6,-2874.0,-32968.6,12659.5,2025-01-29 10:42:39,0.0
32029.2,4560.0,12725.6,-551.0,-32968.6,7718.5,2025-01-29 10:42:39,0.0
31181.2,4264.0,3629.6000000000004,-322.0,-19966.6,-23.5,2025-01-29 10:42:39,0.0
26649.2,3480.0,-1542.3999999999996,-1680.0,-2602.6,-5598.5,2025-01-29 10:42:39,0.0
19633.2,1916.0,-5778.4,-4024.0,12460.4,-6908.5,2025-01-29 10:42:39,0.0
16585.2,252.0,-3926.3999999999996,-4432.0,28237.4,-6418.5,2025-01-29 10:42:39,0.0
14013.2,-2892.0,10609.6,-909.0,32566.4,-4176.5,2025-01-29 10:42:39,0.0
13305.2,-3640.0,11173.6,2579.0,32566.4,-2261.5,2025-01-29 10:42:39,0.0
11993.2,-3184.0,11361.6,3863.0,32566.4,-2478.5,2025-01-29 10:42:39,0.0
11053.2,-192.0,11157.6,4495.0,25911.4,-3186.5,2025-01-29 10:42:39,0.0
9469.2,628.0,6621.6,3558.0,7890.4,-3054.5,2025-01-29 10:42:39,0.0
6089.200000000001,836.0,5189.6,750.0,-1152.6,-2700.5,2025-01-29 10:42:39,0.0
8945.2,1184.0,5877.6,-572.0,-5135.6,-1658.5,2025-01-29 10:42:39,0.0
10529.2,2020.0,9597.6,-1018.0,-13432.6,244.5,2025-01-29 10:42:39,0.0
12329.2,1368.0,8705.6,-1479.0,-14465.6,1130.5,2025-01-29 10:42:39,0.0
13893.2,1364.0,6617.6,-2019.0,-10264.6,1239.5,2025-01-29 10:42:39,0.0
16053.2,1172.0,6901.6,-2170.0,-6345.6,1301.5,2025-01-29 10:42:40,0.0
17825.2,936.0,9017.6,-1907.0,-5576.6,1588.5,2025-01-29 10:42:40,0.0
12313.2,1940.0,9285.6,-724.0,3519.4,1601.5,2025-01-29 10:42:40,0.0
10933.2,-2304.0,-13670.4,1573.0,20102.4,-321.5,2025-01-29 10:42:40,0.0
9069.2,-4328.0,-25298.4,1305.0,32566.4,-4549.5,2025-01-29 10:42:40,0.0
6905.200000000001,-4600.0,-25298.4,2004.0,32566.4,-9444.5,2025-01-29 10:42:40,0.0
-6794.799999999999,-1852.0,-9218.4,4918.0,32566.4,-16333.5,2025-01-29 10:42:40,0.0
-21546.8,7556.0,-17890.4,-1958.0,32566.4,-32629.5,2025-01-29 10:42:40,0.0
-21546.8,-2804.0,-20494.4,-1689.0,32566.4,-9274.5,2025-01-29 10:42:40,0.0
-2410.7999999999993,-11164.0,-25298.4,2343.0,32566.4,3063.5,2025-01-29 10:42:40,0.0
37741.2,-4816.0,-25298.4,2837.0,25975.4,4587.5,2025-01-29 10:42:40,0.0
17241.2,-2016.0,-25298.4,-4337.0,-32968.6,1646.5,2025-01-29 10:42:40,0.0
-770.7999999999993,-1892.0,-18802.4,-3365.0,-32968.6,2163.5,2025-01-29 10:42:40,0.0
-1182.7999999999993,-564.0,-5422.4,-1798.0,-32968.6,851.5,2025-01-29 10:42:40,0.0
-7726.799999999999,2532.0,-8390.4,-536.0,-32968.6,-1151.5,2025-01-29 10:42:40,0.0
-6578.799999999999,2408.0,-11670.4,-1190.0,-32968.6,-794.5,2025-01-29 10:42:40,0.0
-16050.8,5408.0,38497.6,335.0,-32968.6,-354.5,2025-01-29 10:42:40,0.0
4081.2000000000007,720.0,965.6000000000004,-2722.0,-932.6,1022.5,2025-01-29 10:42:40,0.0
8125.200000000001,116.0,4909.6,-4567.0,6346.4,602.5,2025-01-29 10:42:40,0.0
8737.2,-1920.0,3785.6000000000004,-4688.0,1959.4,-2411.5,2025-01-29 10:42:40,0.0
2813.2000000000007,-3588.0,5037.6,-3606.0,2236.4,-3926.5,2025-01-29 10:42:40,0.0
2217.2000000000007,-3624.0,5337.6,-1366.0,3366.4,-3068.5,2025-01-29 10:42:40,0.0
9833.2,2300.0,3093.6000000000004,1584.0,-2135.6,-89.5,2025-01-29 10:42:40,0.0
10121.2,2604.0,-618.3999999999996,-69.0,-44.599999999999994,-489.5,2025-01-29 10:42:40,0.0
9581.2,1624.0,-354.39999999999964,-1785.0,2908.4,-876.5,2025-01-29 10:42:40,0.0
7977.200000000001,-1140.0,1953.6000000000004,-2497.0,4738.4,-1012.5,2025-01-29 10:42:40,0.0
6017.200000000001,-3728.0,3861.6000000000004,-2018.0,5932.4,-1030.5,2025-01-29 10:42:40,0.0
2265.2000000000007,-4092.0,3989.6000000000004,93.0,8268.4,-1271.5,2025-01-29 10:42:40,0.0
-1938.7999999999993,-2364.0,53.600000000000364,1482.0,10321.4,-827.5,2025-01-29 10:42:40,0.0
-4486.799999999999,-336.0,-1810.3999999999996,1607.0,8174.4,-28.5,2025-01-29 10:42:40,0.0
-6046.799999999999,1336.0,-1662.3999999999996,1646.0,2809.4,597.5,2025-01-29 10:42:40,0.0
-5966.799999999999,1628.0,-870.3999999999996,713.0,-3452.6,1153.5,2025-01-29 10:42:40,0.0
-4206.799999999999,-24.0,549.6000000000004,-362.0,-6252.6,1300.5,2025-01-29 10:42:40,0.0
-1706.7999999999993,-1128.0,1789.6000000000004,-155.0,-6709.6,1196.5,2025-01-29 10:42:40,0.0
401.2000000000007,-1236.0,2561.6000000000004,599.0,-5998.6,1122.5,2025-01-29 10:42:40,0.0
1477.2000000000007,-756.0,2825.6000000000004,936.0,-4369.6,1282.5,2025-01-29 10:42:40,0.0
2521.2000000000007,-12.0,2645.6000000000004,875.0,-2349.6,1152.5,2025-01-29 10:42:40,0.0
2453.2000000000007,756.0,2281.6000000000004,525.0,163.4,476.5,2025-01-29 10:42:40,0.0
1329.2000000000007,1220.0,2353.6000000000004,364.0,1853.4,-169.5,2025-01-29 10:42:40,0.0
-430.7999999999993,908.0,1921.6000000000004,426.0,2661.4,-478.5,2025-01-29 10:42:40,0.0
-1358.7999999999993,456.0,857.6000000000004,304.0,2338.4,-353.5,2025-01-29 10:42:40,0.0
-1866.7999999999993,-568.0,781.6000000000004,54.0,1267.4,-194.5,2025-01-29 10:42:40,0.0
-1474.7999999999993,-1328.0,1377.6000000000004,107.0,-79.6,-151.5,2025-01-29 10:42:40,0.0
-1178.7999999999993,-972.0,1313.6000000000004,105.0,-683.6,77.5,2025-01-29 10:42:40,0.0
-554.7999999999993,-188.0,1385.6000000000004,65.0,-683.6,249.5,2025-01-29 10:42:40,0.0
-306.7999999999993,372.0,889.6000000000004,65.0,-465.6,202.5,2025-01-29 10:42:40,0.0
-202.79999999999927,560.0,541.6000000000004,-68.0,249.4,17.5,2025-01-29 10:42:40,0.0
-590.7999999999993,404.0,725.6000000000004,-247.0,561.4,-233.5,2025-01-29 10:42:40,0.0
-1438.7999999999993,-48.0,1261.6000000000004,-349.0,311.4,-243.5,2025-01-29 10:42:40,
-1950.7999999999993,-320.0,1729.6000000000004,-271.0,-413.6,69.5,2025-01-29 10:42:40,0.0
-234.79999999999927,-156.0,905.6000000000004,420.0,-0.5999999999999943,307.5,2025-01-29 10:42:40,0.0
-526.7999999999993,-60.0,1137.6000000000004,385.0,-79.6,212.5,2025-01-29 10:42:41,0.0
-798.7999999999993,-320.0,1237.6000000000004,386.0,-169.6,248.5,2025-01-29 10:42:41,0.0
-838.7999999999993,-512.0,1113.6000000000004,341.0,-312.6,291.5,2025-01-29 10:42:41,0.0
-598.7999999999993,-456.0,1025.6000000000004,385.0,-310.6,326.5,2025-01-29 10:42:41,0.0
-490.7999999999993,-420.0,1169.6000000000004,386.0,16.400000000000006,265.5,2025-01-29 10:42:41,0.0
-506.7999999999993,-236.0,1345.6000000000004,385.0,420.4,224.5,2025-01-29 10:42:41,0.0
-678.7999999999993,-160.0,1313.6000000000004,326.0,608.4,144.5,2025-01-29 10:42:41,0.0
-794.7999999999993,-344.0,1237.6000000000004,319.0,595.4,198.5,2025-01-29 10:42:41,0.0
-838.7999999999993,-256.0,1205.6000000000004,268.0,337.4,233.5,2025-01-29 10:42:41,0.0
-686.7999999999993,-216.0,1289.6000000000004,196.0,173.4,115.5,2025-01-29 10:42:41,0.0
-574.7999999999993,-36.0,1161.6000000000004,104.0,34.400000000000006,12.5,2025-01-29 10:42:41,0.0
-430.7999999999993,28.0,1185.6000000000004,113.0,13.400000000000006,-31.5,2025-01-29 10:42:41,0.0
-250.79999999999927,-200.0,1549.6000000000004,92.0,94.4,-47.5,2025-01-29 10:42:41,0.0
-202.79999999999927,-156.0,1081.6000000000004,84.0,170.4,-100.5,2025-01-29 10:42:41,0.0
-470.7999999999993,-276.0,1205.6000000000004,16.0,205.4,-93.5,2025-01-29 10:42:41,0.0
-922.7999999999993,-232.0,893.6000000000004,4.0,313.4,64.5,2025-01-29 10:42:41,0.0
-1158.7999999999993,-396.0,501.60000000000036,-79.0,345.4,74.5,2025-01-29 10:42:41,0.0
-1226.7999999999993,-272.0,1069.6000000000004,-160.0,4.400000000000006,64.5,2025-01-29 10:42:41,0.0
-998.7999999999993,-16.0,1345.6000000000004,-183.0,-544.6,97.5,2025-01-29 10:42:41,0.0
-682.7999999999993,-40.0,1509.6000000000004,-283.0,-819.6,158.5,2025-01-29 10:42:41,0.0
-158.79999999999927,-132.0,1437.6000000000004,-339.0,-514.6,179.5,2025-01-29 10:42:41,0.0
-138.79999999999927,-264.0,1449.6000000000004,-245.0,28.400000000000006,63.5,2025-01-29 10:42:41,0.0
-386.7999999999993,-268.0,1193.6000000000004,-251.0,472.4,-51.5,2025-01-29 10:42:41,0.0
-762.7999999999993,-292.0,1369.6000000000004,-183.0,623.4,-71.5,2025-01-29 10:42:41,0.0
-978.7999999999993,-244.0,1473.6000000000004,-97.0,521.4,-36.5,2025-01-29 10:42:41,0.0
-1006.7999999999993,-152.0,1449.6000000000004,-105.0,238.4,-19.5,2025-01-29 10:42:41,0.0
-890.7999999999993,-268.0,1729.6000000000004,-144.0,53.400000000000006,1.5,2025-01-29 10:42:41,0.0
-702.7999999999993,-192.0,1709.6000000000004,-126.0,-90.6,19.5,2025-01-29 10:42:41,0.0
-382.7999999999993,-240.0,1445.6000000000004,-92.0,-128.6,71.5,2025-01-29 10:42:41,0.0
-94.79999999999927,-516.0,1221.6000000000004,25.0,108.4,52.5,2025-01-29 10:42:41,0.0
-214.79999999999927,-504.0,1257.6000000000004,153.0,264.4,-13.5,2025-01-29 10:42:41,0.0
-706.7999999999993,-352.0,1285.6000000000004,291.0,377.4,0.5,2025-01-29 10:42:41,0.0
-1322.7999999999993,-356.0,789.6000000000004,323.0,537.4,152.5,2025-01-29 10:42:41,0.0
-1482.7999999999993,196.0,889.6000000000004,237.0,268.4,218.5,2025-01-29 10:42:41,0.0
-1274.7999999999993,708.0,1093.6000000000004,-45.0,-277.6,219.5,2025-01-29 10:42:41,0.0
-662.7999999999993,720.0,1189.6000000000004,-354.0,-838.6,73.5,2025-01-29 10:42:41,0.0
-422.7999999999993,628.0,901.6000000000004,-430.0,-856.6,48.5,2025-01-29 10:42:41,0.0
-238.79999999999927,524.0,617.6000000000004,-536.0,-529.6,-62.5,2025-01-29 10:42:41,0.0
-298.7999999999993,664.0,937.6000000000004,-834.0,-202.6,-239.5,2025-01-29 10:42:41,0.0
-418.7999999999993,544.0,1177.6000000000004,-998.0,-234.6,-290.5,2025-01-29 10:42:41,0.0
-394.7999999999993,544.0,1265.6000000000004,-1012.0,-263.6,-355.5,2025-01-29 10:42:41,0.0
-378.7999999999993,580.0,1253.6000000000004,-1150.0,-97.6,-588.5,2025-01-29 10:42:41,0.0
-810.7999999999993,500.0,1293.6000000000004,-1188.0,-124.6,-782.5,2025-01-29 10:42:41,0.0
-650.7999999999993,720.0,873.6000000000004,-1219.0,-244.6,-820.5,2025-01-29 10:42:41,0.0
-394.7999999999993,972.0,777.6000000000004,-1462.0,-151.6,-894.5,2025-01-29 10:42:41,0.0
-314.7999999999993,736.0,1125.6000000000004,-1622.0,51.400000000000006,-912.5,2025-01-29 10:42:41,0.0
-350.7999999999993,240.0,1373.6000000000004,-1568.0,130.4,-900.5,2025-01-29 10:42:41,0.0
-318.7999999999993,344.0,1385.6000000000004,-1523.0,168.4,-964.5,2025-01-29 10:42:41,0.0
-458.7999999999993,540.0,1089.6000000000004,-1536.0,362.4,-1090.5,2025-01-29 10:42:41,0.0
-642.7999999999993,776.0,1169.6000000000004,-1636.0,508.4,-1201.5,2025-01-29 10:42:41,0.0
-666.7999999999993,736.0,969.6000000000004,-1761.0,282.4,-1385.5,2025-01-29 10:42:41,0.0
-702.7999999999993,796.0,1005.6000000000004,-1836.0,107.4,-1419.5,2025-01-29 10:42:41,0.0
-546.7999999999993,776.0,1085.6000000000004,-2042.0,80.4,-1460.5,2025-01-29 10:42:41,0.0
-390.7999999999993,644.0,1381.6000000000004,-2174.0,236.4,-1529.5,2025-01-29 10:42:41,0.0
-370.7999999999993,572.0,1289.6000000000004,-2158.0,411.4,-1781.5,2025-01-29 10:42:41,0.0
-182.79999999999927,456.0,961.6000000000004,-2162.0,593.4,-2050.5,2025-01-29 10:42:41,0.0
-126.79999999999927,304.0,937.6000000000004,-2147.0,576.4,-2349.5,2025-01-29 10:42:41,0.0
-226.79999999999927,468.0,165.60000000000036,-2348.0,201.4,-2615.5,2025-01-29 10:42:41,0.0
-222.79999999999927,576.0,-310.39999999999964,-2746.0,137.4,-2808.5,2025-01-29 10:42:41,0.0
-402.7999999999993,720.0,45.600000000000364,-3125.0,160.4,-2924.5,2025-01-29 10:42:41,0.0
-518.7999999999993,564.0,637.6000000000004,-3513.0,25.400000000000006,-2966.5,2025-01-29 10:42:42,0.0
-302.7999999999993,260.0,1197.6000000000004,-3726.0,-242.6,-3039.5,2025-01-29 10:42:42,0.0
-282.7999999999993,96.0,661.6000000000004,-3837.0,-622.6,-2988.5,2025-01-29 10:42:42,0.0
-86.79999999999927,-296.0,393.60000000000036,-3893.0,-443.6,-3017.5,2025-01-29 10:42:42,0.0
37.20000000000073,-452.0,317.60000000000036,-3770.0,-183.6,-3146.5,2025-01-29 10:42:42,0.0
-314.7999999999993,-728.0,313.60000000000036,-3920.0,31.400000000000006,-2992.5,2025-01-29 10:42:42,0.0
-490.7999999999993,-584.0,1093.6000000000004,-4190.0,-55.599999999999994,-2699.5,2025-01-29 10:42:42,0.0
-522.7999999999993,-560.0,1649.6000000000004,-4659.0,-676.6,-2673.5,2025-01-29 10:42:42,0.0
-362.7999999999993,-372.0,821.6000000000004,-5222.0,-1005.6,-2950.5,2025-01-29 10:42:42,0.0
-374.7999999999993,-480.0,161.60000000000036,-5799.0,-246.6,-3230.5,2025-01-29 10:42:42,0.0
-402.7999999999993,-904.0,129.60000000000036,-6036.0,979.4,-4210.5,2025-01-29 10:42:42,0.0
-1270.7999999999993,-1040.0,361.60000000000036,-6123.0,1635.4,-5100.5,2025-01-29 10:42:42,0.0
-1930.7999999999993,-1452.0,629.6000000000004,-6224.0,833.4,-5595.5,2025-01-29 10:42:42,0.0
-2034.7999999999993,-1548.0,869.6000000000004,-6246.0,-891.6,-5791.5,2025-01-29 10:42:42,0.0
-1354.7999999999993,-1624.0,893.6000000000004,-6264.0,-2052.6,-5632.5,2025-01-29 10:42:42,0.0
-314.7999999999993,-1328.0,561.6000000000004,-6327.0,-2317.6,-5299.5,2025-01-29 10:42:42,0.0
681.2000000000007,-1216.0,217.60000000000036,-6562.0,-1858.6,-5207.5,2025-01-29 10:42:42,0.0
1085.2000000000007,-1200.0,393.60000000000036,-6967.0,-1065.6,-5249.5,2025-01-29 10:42:42,0.0
901.2000000000007,-1220.0,625.6000000000004,-7277.0,-330.6,-5243.5,2025-01-29 10:42:42,0.0
441.2000000000007,-1436.0,813.6000000000004,-7585.0,98.4,-5174.5,2025-01-29 10:42:42,0.0
-306.7999999999993,-1612.0,913.6000000000004,-7881.0,372.4,-5112.5,2025-01-29 10:42:42,0.0
-778.7999999999993,-1664.0,821.6000000000004,-8110.0,81.4,-4973.5,2025-01-29 10:42:42,0.0
-802.7999999999993,-1552.0,173.60000000000036,-8297.0,-498.6,-4809.5,2025-01-29 10:42:42,0.0
-550.7999999999993,-1416.0,117.60000000000036,-8624.0,-898.6,-4710.5,2025-01-29 10:42:42,0.0
-38.79999999999927,-1644.0,261.60000000000036,-8930.0,-1062.6,-4760.5,2025-01-29 10:42:42,0.0
217.20000000000073,-2004.0,305.60000000000036,-9060.0,-1142.6,-4926.5,2025-01-29 10:42:42,0.0
245.20000000000073,-2228.0,765.6000000000004,-9130.0,-922.6,-5217.5,2025-01-29 10:42:42,0.0
-106.79999999999927,-2188.0,817.6000000000004,-9112.0,-616.6,-5301.5,2025-01-29 10:42:42,0.0
-354.7999999999993,-2144.0,857.6000000000004,-9141.0,-516.6,-5193.5,2025-01-29 10:42:42,0.0
-506.7999999999993,-2132.0,821.6000000000004,-9217.0,-701.6,-4983.5,2025-01-29 10:42:42,0.0
-322.7999999999993,-2136.0,921.6000000000004,-9376.0,-800.6,-4725.5,2025-01-29 10:42:42,0.0
-86.79999999999927,-2280.0,921.6000000000004,-9438.0,-808.6,-4531.5,2025-01-29 10:42:42,0.0
349.2000000000007,-2380.0,517.6000000000004,-9517.0,-619.6,-4368.5,2025-01-29 10:42:42,0.0
325.2000000000007,-2300.0,549.6000000000004,-9543.0,-400.6,-4404.5,2025-01-29 10:42:42,0.0
-118.79999999999927,-2152.0,661.6000000000004,-9644.0,-263.6,-4269.5,2025-01-29 10:42:42,0.0
-206.79999999999927,-2112.0,517.6000000000004,-9606.0,-466.6,-3941.5,2025-01-29 10:42:42,0.0
-246.79999999999927,-2304.0,129.60000000000036,-9672.0,-644.6,-3929.5,2025-01-29 10:42:42,0.0
-774.7999999999993,-2204.0,-110.39999999999964,-9728.0,-1151.6,-3807.5,2025-01-29 10:42:42,
-666.7999999999993,-1752.0,325.60000000000036,-9616.0,-1633.6,-3439.5,2025-01-29 10:42:42,0.0
-238.79999999999927,-1696.0,721.6000000000004,-9626.0,-1737.6,-3364.5,2025-01-29 10:42:42,0.0
-258.7999999999993,-2152.0,1497.6000000000004,-9643.0,-1574.6,-3579.5,2025-01-29 10:42:42,0.0
-542.7999999999993,-2564.0,1401.6000000000004,-9692.0,-1487.6,-3615.5,2025-01-29 10:42:42,0.0
-794.7999999999993,-2544.0,729.6000000000004,-9771.0,-1900.6,-3439.5,2025-01-29 10:42:42,0.0
-534.7999999999993,-1896.0,-34.399999999999636,-9955.0,-1958.6,-3301.5,2025-01-29 10:42:42,0.0
-514.7999999999993,-780.0,269.60000000000036,-10498.0,-1750.6,-3245.5,2025-01-29 10:42:42,0.0
-146.79999999999927,-268.0,1081.6000000000004,-10952.0,-1550.6,-3274.5,2025-01-29 10:42:42,0.0
-70.79999999999927,-636.0,1409.6000000000004,-11397.0,-1558.6,-3432.5,2025-01-29 10:42:42,0.0
-46.79999999999927,-1460.0,765.6000000000004,-11550.0,-1954.6,-3406.5,2025-01-29 10:42:42,0.0
249.20000000000073,-2264.0,-210.39999999999964,-11561.0,-1980.6,-3525.5,2025-01-29 10:42:42,0.0
561.2000000000007,-3140.0,-774.3999999999996,-11379.0,-1555.6,-3987.5,2025-01-29 10:42:42,0.0
565.2000000000007,-3564.0,-398.39999999999964,-10797.0,-1178.6,-4553.5,2025-01-29 10:42:42,0.0
417.2000000000007,-4084.0,149.60000000000036,-9919.0,-1133.6,-4938.5,2025-01-29 10:42:42,0.0
-106.79999999999927,-3120.0,797.6000000000004,-9095.0,-1325.6,-4619.5,2025-01-29 10:42:42,0.0
21.200000000000728,-1324.0,677.6000000000004,-8824.0,-1080.6,-3570.5,2025-01-29 10:42:42,0.0
645.2000000000007,464.0,281.60000000000036,-9322.0,-508.6,-2981.5,2025-01-29 10:42:42,0.0
805.2000000000007,1724.0,-286.39999999999964,-10026.0,90.4,-2708.5,2025-01-29 10:42:42,0.0
1021.2000000000007,2208.0,-1430.3999999999996,-10479.0,835.4,-2756.5,2025-01-29 10:42:42,0.0
1497.2000000000007,1832.0,-2058.3999999999996,-10938.0,2239.4,-3654.5,2025-01-29 10:42:42,0.0
589.2000000000007,1368.0,-1046.3999999999996,-10960.0,3691.4,-4817.5,2025-01-29 10:42:42,0.0
-918.7999999999993,1568.0,-358.39999999999964,-10446.0,3724.4,-4836.5,2025-01-29 10:42:42,0.0
-1170.7999999999993,1876.0,-518.3999999999996,-10472.0,2643.4,-4591.5,2025-01-29 10:42:42,0.0
-1374.7999999999993,1896.0,173.60000000000036,-11186.0,1120.4,-4379.5,2025-01-29 10:42:42,0.0
-550.7999999999993,2108.0,1017.6000000000004,-11341.0,229.4,-4264.5,2025-01-29 10:42:43,0.0
313.2000000000007,2168.0,853.6000000000004,-11730.0,71.4,-4589.5,2025-01-29 10:42:43,0.0
861.2000000000007,2132.0,749.6000000000004,-12086.0,150.4,-5082.5,2025-01-29 10:42:43,0.0
945.2000000000007,2060.0,581.6000000000004,-12104.0,380.4,-5632.5,2025-01-29 10:42:43,0.0
321.2000000000007,2288.0,361.60000000000036,-12000.0,876.4,-6015.5,2025-01-29 10:42:43,0.0
-382.7999999999993,2400.0,-2.399999999999636,-11965.0,1615.4,-6078.5,2025-01-29 10:42:43,0.0
-1306.7999999999993,1696.0,81.60000000000036,-11864.0,2025.4,-5860.5,2025-01-29 10:42:43,0.0
-1638.7999999999993,684.0,473.60000000000036,-11539.0,1591.4,-5413.5,2025-01-29 10:42:43,0.0
-1702.7999999999993,-36.0,1077.6000000000004,-11206.0,1101.4,-5064.5,2025-01-29 10:42:43,0.0
-1314.7999999999993,-252.0,1445.6000000000004,-10780.0,510.4,-4741.5,2025-01-29 10:42:43,0.0
-914.7999999999993,168.0,1829.6000000000004,-10186.0,-70.6,-4637.5,2025-01-29 10:42:43,0.0
-606.7999999999993,652.0,1853.6000000000004,-9606.0,-400.6,-4741.5,2025-01-29 10:42:43,0.0
-350.7999999999993,1336.0,1745.6000000000004,-9122.0,-469.6,-4937.5,2025-01-29 10:42:43,0.0
-338.7999999999993,1688.0,1745.6000000000004,-8833.0,-430.6,-5212.5,2025-01-29 10:42:43,0.0
109.20000000000073,2096.0,1373.6000000000004,-8479.0,-551.6,-5396.5,2025-01-29 10:42:43,0.0
345.2000000000007,2356.0,941.6000000000004,-8497.0,-285.6,-5654.5,2025-01-29 10:42:43,0.0
289.2000000000007,2528.0,821.6000000000004,-8683.0,189.4,-5925.5,2025-01-29 10:42:43,0.0
-26.799999999999272,2460.0,617.6000000000004,-8904.0,569.4,-6155.5,2025-01-29 10:42:43,0.0
137.20000000000073,2464.0,-126.39999999999964,-9248.0,319.4,-6316.5,2025-01-29 10:42:43,0.0
25.200000000000728,2436.0,-474.39999999999964,-9614.0,-255.6,-6501.5,2025-01-29 10:42:43,0.0
9.200000000000728,2572.0,-498.39999999999964,-10019.0,-525.6,-6569.5,2025-01-29 10:42:43,0.0
117.20000000000073,2600.0,-322.39999999999964,-10313.0,-607.6,-6706.5,2025-01-29 10:42:43,0.0
-46.79999999999927,2592.0,73.60000000000036,-10600.0,-720.6,-6883.5,2025-01-29 10:42:43,0.0
169.20000000000073,2408.0,437.60000000000036,-10795.0,-902.6,-6958.5,2025-01-29 10:42:43,0.0
269.2000000000007,2188.0,465.60000000000036,-10810.0,-1038.6,-6896.5,2025-01-29 10:42:43,0.0
549.2000000000007,1744.0,245.60000000000036,-10811.0,-968.6,-6866.5,2025-01-29 10:42:43,0.0
861.2000000000007,1236.0,545.6000000000004,-10665.0,-645.6,-6902.5,2025-01-29 10:42:43,0.0
517.2000000000007,700.0,989.6000000000004,-10162.0,-4.599999999999994,-7019.5,2025-01-29 10:42:43,0.0
-130.79999999999927,528.0,1401.6000000000004,-9582.0,240.4,-7094.5,2025-01-29 10:42:43,0.0
-782.7999999999993,372.0,1605.6000000000004,-9005.0,-43.599999999999994,-7024.5,2025-01-29 10:42:43,0.0
-1006.7999999999993,552.0,1489.6000000000004,-8319.0,-600.6,-6755.5,2025-01-29 10:42:43,0.0
-742.7999999999993,944.0,1165.6000000000004,-7846.0,-1119.6,-6441.5,2025-01-29 10:42:43,0.0
-178.79999999999927,1272.0,777.6000000000004,-7642.0,-1151.6,-6330.5,2025-01-29 10:42:43,0.0
189.20000000000073,1388.0,333.60000000000036,-7445.0,-1025.6,-6338.5,2025-01-29 10:42:43,0.0
241.20000000000073,1344.0,333.60000000000036,-7303.0,-690.6,-6359.5,2025-01-29 10:42:43,0.0
305.2000000000007,1008.0,653.6000000000004,-7119.0,-447.6,-6464.5,2025-01-29 10:42:43,0.0
-498.7999999999993,892.0,1453.6000000000004,-6782.0,-141.6,-6627.5,2025-01-29 10:42:43,0.0
-866.7999999999993,816.0,2021.6000000000004,-6504.0,-419.6,-6677.5,2025-01-29 10:42:43,0.0
-1478.7999999999993,760.0,1965.6000000000004,-6080.0,-1068.6,-6373.5,2025-01-29 10:42:43,0.0
-1290.7999999999993,696.0,593.6000000000004,-5669.0,-919.6,-5620.5,2025-01-29 10:42:43,0.0
-1170.7999999999993,284.0,9.600000000000364,-5416.0,54.400000000000006,-5049.5,2025-01-29 10:42:43,0.0
-1934.7999999999993,-424.0,-354.39999999999964,-5491.0,964.4,-4656.5,2025-01-29 10:42:43,0.0
-2930.7999999999993,-872.0,333.60000000000036,-5740.0,468.4,-4004.5,2025-01-29 10:42:43,0.0
-2790.7999999999993,216.0,1837.6000000000004,-5243.0,-1871.6,-3003.5,2025-01-29 10:42:43,0.0
-1190.7999999999993,1392.0,1397.6000000000004,-5017.0,-3927.6,-2373.5,2025-01-29 10:42:43,0.0
233.20000000000073,2104.0,1449.6000000000004,-5187.0,-3781.6,-2007.5,2025-01-29 10:42:43,0.0
1157.2000000000007,2364.0,1817.6000000000004,-5161.0,-2775.6,-1929.5,2025-01-29 10:42:43,0.0
1769.2000000000007,2244.0,1009.6000000000004,-5548.0,-1661.6,-2382.5,2025-01-29 10:42:43,0.0
849.2000000000007,1036.0,581.6000000000004,-6302.0,-557.6,-2833.5,2025-01-29 10:42:43,0.0
73.20000000000073,-792.0,1173.6000000000004,-6528.0,455.4,-3313.5,2025-01-29 10:42:43,0.0
-726.7999999999993,-1292.0,953.6000000000004,-6322.0,698.4,-3918.5,2025-01-29 10:42:43,0.0
-1310.7999999999993,-296.0,-554.3999999999996,-6093.0,356.4,-4506.5,2025-01-29 10:42:43,0.0
-1278.7999999999993,440.0,-946.3999999999996,-6228.0,108.4,-4803.5,2025-01-29 10:42:43,0.0
-774.7999999999993,532.0,1245.6000000000004,-6277.0,-141.6,-5428.5,2025-01-29 10:42:43,0.0
-678.7999999999993,188.0,1925.6000000000004,-6420.0,-618.6,-5938.5,2025-01-29 10:42:43,0.0
-762.7999999999993,-448.0,2081.6000000000004,-6637.0,-927.6,-6246.5,2025-01-29 10:42:43,0.0
-754.7999999999993,-1280.0,1981.6000000000004,-6741.0,-716.6,-6371.5,2025-01-29 10:42:43,0.0
-950.7999999999993,-2156.0,1965.6000000000004,-6902.0,-148.6,-6424.5,2025-01-29 10:42:43,0.0
-994.7999999999993,-2460.0,1793.6000000000004,-7007.0,101.4,-6489.5,2025-01-29 10:42:43,0.0
-922.7999999999993,-2512.0,1725.6000000000004,-7064.0,80.4,-6524.5,2025-01-29 10:42:43,0.0
-894.7999999999993,-1984.0,2037.6000000000004,-6997.0,228.4,-6439.5,2025-01-29 10:42:43,0.0
-810.7999999999993,-1768.0,1613.6000000000004,-7031.0,560.4,-6198.5,2025-01-29 10:42:44,0.0
-902.7999999999993,-1616.0,1533.6000000000004,-7203.0,913.4,-5971.5,2025-01-29 10:42:44,0.0
-1062.7999999999993,-1560.0,1877.6000000000004,-7376.0,955.4,-5896.5,2025-01-29 10:42:44,0.0
-1350.7999999999993,-1604.0,2125.6000000000004,-7472.0,237.4,-5893.5,2025-01-29 10:42:44,0.0
-1046.7999999999993,-1940.0,2061.6000000000004,-7387.0,-762.6,-5884.5,2025-01-29 10:42:44,0.0
-462.7999999999993,-2332.0,2037.6000000000004,-7085.0,-1337.6,-5686.5,2025-01-29 10:42:44,0.0
97.20000000000073,-2424.0,2269.6000000000004,-6749.0,-1166.6,-5408.5,2025-01-29 10:42:44,0.0
677.2000000000007,-2544.0,2349.6000000000004,-6494.0,-463.6,-5230.5,2025-01-29 10:42:44,0.0
585.2000000000007,-2452.0,2545.6000000000004,-6320.0,332.4,-5024.5,2025-01-29 10:42:44,0.0
-78.79999999999927,-2128.0,2669.6000000000004,-6153.0,967.4,-4821.5,2025-01-29 10:42:44,0.0
-1210.7999999999993,-1756.0,2461.6000000000004,-6092.0,735.4,-4741.5,2025-01-29 10:42:44,0.0
-1638.7999999999993,-1696.0,2689.6000000000004,-6086.0,-26.599999999999994,-4578.5,2025-01-29 10:42:44,0.0
-1606.7999999999993,-1928.0,2657.6000000000004,-6048.0,-759.6,-4291.5,2025-01-29 10:42:44,0.0
-1134.7999999999993,-2084.0,2685.6000000000004,-5949.0,-1290.6,-3923.5,2025-01-29 10:42:44,0.0
-714.7999999999993,-2048.0,3009.6000000000004,-5754.0,-1354.6,-3595.5,2025-01-29 10:42:44,
-654.7999999999993,-2048.0,3105.6000000000004,-5590.0,-976.6,-3180.5,2025-01-29 10:42:44,0.0
-530.7999999999993,-2264.0,3221.6000000000004,-5416.0,-737.6,-2492.5,2025-01-29 10:42:44,0.0
-214.79999999999927,-2868.0,2813.6000000000004,-5240.0,-599.6,-1930.5,2025-01-29 10:42:44,0.0
229.20000000000073,-3260.0,2477.6000000000004,-5052.0,8.400000000000006,-1730.5,2025-01-29 10:42:44,0.0
61.20000000000073,-3112.0,1961.6000000000004,-4957.0,813.4,-1993.5,2025-01-29 10:42:44,0.0
-1342.7999999999993,-2376.0,2341.6000000000004,-4710.0,949.4,-2098.5,2025-01-29 10:42:44,0.0
-1990.7999999999993,-1508.0,2613.6000000000004,-4631.0,37.400000000000006,-1965.5,2025-01-29 10:42:44,0.0
-2246.7999999999993,-1356.0,2953.6000000000004,-4690.0,-1569.6,-1816.5,2025-01-29 10:42:44,0.0
-2146.7999999999993,-1596.0,3005.6000000000004,-4423.0,-3049.6,-1443.5,2025-01-29 10:42:44,0.0
-1646.7999999999993,-1960.0,2245.6000000000004,-4231.0,-3877.6,-1180.5,2025-01-29 10:42:44,0.0
-1074.7999999999993,-1892.0,1825.6000000000004,-4463.0,-4002.6,-1389.5,2025-01-29 10:42:44,0.0
-602.7999999999993,-1164.0,2081.6000000000004,-4733.0,-3670.6,-1842.5,2025-01-29 10:42:44,0.0
-278.7999999999993,-740.0,3541.6000000000004,-5192.0,-3271.6,-2518.5,2025-01-29 10:42:44,0.0
-790.7999999999993,-1084.0,4925.6,-5179.0,-2367.6,-2737.5,2025-01-29 10:42:44,0.0
-1250.7999999999993,-1780.0,4217.6,-5216.0,-1360.6,-2656.5,2025-01-29 10:42:44,0.0
-1246.7999999999993,-2140.0,3405.6000000000004,-5498.0,-725.6,-2557.5,2025-01-29 10:42:44,0.0
-1134.7999999999993,-2204.0,4005.6000000000004,-5653.0,-48.599999999999994,-2651.5,2025-01-29 10:42:44,0.0
-1850.7999999999993,-2204.0,4533.6,-5644.0,676.4,-2724.5,2025-01-29 10:42:44,0.0
-2578.7999999999993,-2852.0,4561.6,-5532.0,1377.4,-2499.5,2025-01-29 10:42:44,0.0
-2658.7999999999993,-3044.0,2761.6000000000004,-4800.0,2393.4,-2596.5,2025-01-29 10:42:44,0.0
-3370.7999999999993,-3252.0,977.6000000000004,-4215.0,3591.4,-3161.5,2025-01-29 10:42:44,0.0
-4342.799999999999,-4252.0,2381.6000000000004,-3030.0,3618.4,-3917.5,2025-01-29 10:42:44,0.0
-5490.799999999999,-5048.0,2273.6000000000004,-885.0,1616.4,-4469.5,2025-01-29 10:42:44,0.0
-7122.799999999999,-4904.0,933.6000000000004,238.0,-437.6,-3381.5,2025-01-29 10:42:44,0.0
-6930.799999999999,-3928.0,205.60000000000036,609.0,-2032.6,-1414.5,2025-01-29 10:42:44,0.0
-5342.799999999999,-2428.0,-78.39999999999964,890.0,-3017.6,286.5,2025-01-29 10:42:44,0.0
-2450.7999999999993,-1028.0,-1346.3999999999996,144.0,-3681.6,2141.5,2025-01-29 10:42:44,0.0
825.2000000000007,-768.0,-2450.3999999999996,-1204.0,-3405.6,2939.5,2025-01-29 10:42:44,0.0
2681.2000000000007,-844.0,-2810.3999999999996,-2529.0,-2233.6,2669.5,2025-01-29 10:42:44,0.0
3113.2000000000007,-640.0,-2194.3999999999996,-2709.0,-1588.6,2062.5,2025-01-29 10:42:44,0.0
3021.2000000000007,-352.0,-1142.3999999999996,-2170.0,-1344.6,1232.5,2025-01-29 10:42:44,0.0
2445.2000000000007,176.0,89.60000000000036,-1483.0,-967.6,229.5,2025-01-29 10:42:44,0.0
1141.2000000000007,1112.0,669.6000000000004,-1148.0,-669.6,-70.5,2025-01-29 10:42:44,0.0
341.2000000000007,1716.0,73.60000000000036,-1402.0,-767.6,395.5,2025-01-29 10:42:44,0.0
-186.79999999999927,1200.0,-406.39999999999964,-2143.0,-572.6,890.5,2025-01-29 10:42:44,0.0
-582.7999999999993,276.0,37.600000000000364,-2701.0,-46.599999999999994,1283.5,2025-01-29 10:42:44,0.0
-718.7999999999993,-812.0,933.6000000000004,-2475.0,-16.599999999999994,1570.5,2025-01-29 10:42:44,0.0
-1138.7999999999993,-1572.0,1633.6000000000004,-1805.0,-619.6,2030.5,2025-01-29 10:42:44,0.0
-1202.7999999999993,-1892.0,1581.6000000000004,-961.0,-892.6,3007.5,2025-01-29 10:42:44,0.0
-978.7999999999993,-1516.0,1557.6000000000004,-512.0,-879.6,3875.5,2025-01-29 10:42:44,0.0
-854.7999999999993,-788.0,1793.6000000000004,-293.0,-1198.6,4691.5,2025-01-29 10:42:44,0.0
-178.79999999999927,68.0,2181.6000000000004,-86.0,-1436.6,5204.5,2025-01-29 10:42:44,0.0
465.2000000000007,1064.0,2505.6000000000004,363.0,-1376.6,5179.5,2025-01-29 10:42:44,0.0
689.2000000000007,1836.0,2621.6000000000004,661.0,-1233.6,4827.5,2025-01-29 10:42:44,0.0
1121.2000000000007,2420.0,2417.6000000000004,745.0,-1118.6,4193.5,2025-01-29 10:42:44,0.0
1157.2000000000007,2272.0,2437.6000000000004,587.0,-691.6,3622.5,2025-01-29 10:42:45,0.0
1261.2000000000007,1688.0,3073.6000000000004,497.0,-100.6,3009.5,2025-01-29 10:42:45,0.0
1137.2000000000007,896.0,3025.6000000000004,650.0,174.4,2371.5,2025-01-29 10:42:45,0.0
681.2000000000007,384.0,3501.6000000000004,936.0,304.4,1813.5,2025-01-29 10:42:45,0.0
413.2000000000007,720.0,3789.6000000000004,1312.0,262.4,1454.5,2025-01-29 10:42:45,0.0
417.2000000000007,1276.0,3493.6000000000004,1673.0,44.400000000000006,957.5,2025-01-29 10:42:45,0.0
401.2000000000007,1512.0,3213.6000000000004,1992.0,-333.6,276.5,2025-01-29 10:42:45,0.0
-166.79999999999927,1252.0,3233.6000000000004,2100.0,-597.6,-121.5,2025-01-29 10:42:45,0.0
-1010.7999999999993,732.0,3637.6000000000004,2299.0,-644.6,-258.5,2025-01-29 10:42:45,0.0
-1438.7999999999993,188.0,4249.6,2682.0,-809.6,-294.5,2025-01-29 10:42:45,0.0
-1798.7999999999993,-112.0,4293.6,3147.0,-1408.6,-378.5,2025-01-29 10:42:45,0.0
-2370.7999999999993,332.0,3473.6000000000004,3707.0,-2405.6,-352.5,2025-01-29 10:42:45,0.0
-2826.7999999999993,1372.0,3065.6000000000004,4217.0,-3039.6,77.5,2025-01-29 10:42:45,0.0
-2530.7999999999993,2224.0,2461.6000000000004,4499.0,-3226.6,752.5,2025-01-29 10:42:45,0.0
-1510.7999999999993,2208.0,2873.6000000000004,4387.0,-2965.6,1274.5,2025-01-29 10:42:45,0.0
-674.7999999999993,1572.0,3253.6000000000004,4386.0,-2100.6,1564.5,2025-01-29 10:42:45,0.0
-642.7999999999993,1340.0,3793.6000000000004,4646.0,-164.6,1836.5,2025-01-29 10:42:45,0.0
-1258.7999999999993,1704.0,3441.6000000000004,4896.0,2100.4,2002.5,2025-01-29 10:42:45,0.0
-2730.7999999999993,2472.0,2757.6000000000004,4757.0,3460.4,1970.5,2025-01-29 10:42:45,0.0
-3786.7999999999993,2696.0,3445.6000000000004,4372.0,3319.4,1558.5,2025-01-29 10:42:45,0.0
-4322.799999999999,3112.0,3901.6000000000004,3950.0,2229.4,1296.5,2025-01-29 10:42:45,0.0
-4670.799999999999,3404.0,2521.6000000000004,3314.0,1608.4,1559.5,2025-01-29 10:42:45,0.0
-4186.799999999999,1888.0,825.6000000000004,2729.0,2513.4,1576.5,2025-01-29 10:42:45,0.0
-4146.799999999999,1080.0,-530.3999999999996,2051.0,3641.4,1333.5,2025-01-29 10:42:45,0.0
-4878.799999999999,1540.0,-1974.3999999999996,1142.0,3801.4,1347.5,2025-01-29 10:42:45,0.0
-5082.799999999999,2728.0,-1994.3999999999996,162.0,3387.4,1721.5,2025-01-29 10:42:45,0.0
-3826.7999999999993,3572.0,-1402.3999999999996,-462.0,1489.4,1411.5,2025-01-29 10:42:45,0.0
-1678.7999999999993,3296.0,-898.3999999999996,-865.0,-1385.6,-40.5,2025-01-29 10:42:45,0.0
-958.7999999999993,2228.0,-1482.3999999999996,-1571.0,-2618.6,-1108.5,2025-01-29 10:42:45,0.0
389.2000000000007,660.0,-234.39999999999964,-1688.0,-2529.6,-883.5,2025-01-29 10:42:45,0.0
2701.2000000000007,-1620.0,989.6000000000004,-956.0,-2104.6,-727.5,2025-01-29 10:42:45,0.0
3673.2000000000007,-5104.0,1453.6000000000004,1486.0,1223.4,-1025.5,2025-01-29 10:42:45,0.0
2333.2000000000007,-4400.0,221.60000000000036,2585.0,3758.4,-806.5,2025-01-29 10:42:45,0.0
801.2000000000007,-2392.0,-338.39999999999964,3106.0,4472.4,-708.5,2025-01-29 10:42:45,0.0
-894.7999999999993,-460.0,-942.3999999999996,3019.0,4273.4,-588.5,2025-01-29 10:42:45,0.0
-1858.7999999999993,764.0,209.60000000000036,2291.0,3091.4,-686.5,2025-01-29 10:42:45,0.0
-2118.7999999999993,744.0,901.6000000000004,1331.0,424.4,-1262.5,2025-01-29 10:42:45,0.0
-2298.7999999999993,76.0,813.6000000000004,733.0,-2696.6,-2034.5,2025-01-29 10:42:45,0.0
-682.7999999999993,-168.0,269.60000000000036,559.0,-4481.6,-2458.5,2025-01-29 10:42:45,0.0
689.2000000000007,-484.0,121.60000000000036,298.0,-5210.6,-2921.5,2025-01-29 10:42:45,0.0
1885.2000000000007,-352.0,-110.39999999999964,-173.0,-5058.6,-3224.5,2025-01-29 10:42:45,0.0
2817.2000000000007,-44.0,545.6000000000004,-663.0,-4131.6,-3346.5,2025-01-29 10:42:45,0.0
3237.2000000000007,4.0,577.6000000000004,-1246.0,-2645.6,-3454.5,2025-01-29 10:42:45,0.0
3553.2000000000007,12.0,653.6000000000004,-2229.0,-1.5999999999999943,-3657.5,2025-01-29 10:42:45,0.0
2689.2000000000007,-296.0,1309.6000000000004,-2903.0,1891.4,-4186.5,2025-01-29 10:42:45,0.0
1197.2000000000007,-628.0,1725.6000000000004,-3419.0,2782.4,-4691.5,2025-01-29 10:42:45,0.0
-330.7999999999993,-1244.0,1869.6000000000004,-3862.0,2717.4,-4890.5,2025-01-29 10:42:45,0.0
-1282.7999999999993,-1992.0,2053.6000000000004,-4160.0,2090.4,-4463.5,2025-01-29 10:42:45,0.0
-1494.7999999999993,-2880.0,1997.6000000000004,-4178.0,958.4,-3823.5,2025-01-29 10:42:45,0.0
-1386.7999999999993,-3452.0,2113.6000000000004,-3946.0,-47.599999999999994,-3115.5,2025-01-29 10:42:45,0.0
-738.7999999999993,-3300.0,2149.6000000000004,-3502.0,-805.6,-2327.5,2025-01-29 10:42:45,0.0
49.20000000000073,-2432.0,2269.6000000000004,-3321.0,-796.6,-1796.5,2025-01-29 10:42:45,0.0
1293.2000000000007,-1504.0,1841.6000000000004,-3586.0,-29.599999999999994,-1563.5,2025-01-29 10:42:45,0.0
401.2000000000007,-460.0,2561.6000000000004,-3880.0,579.4,-1273.5,2025-01-29 10:42:45,0.0
-50.79999999999927,-712.0,2193.6000000000004,-4352.0,863.4,-748.5,2025-01-29 10:42:45,
-166.79999999999927,-1276.0,2553.6000000000004,-4662.0,1074.4,-337.5,2025-01-29 10:42:45,0.0
-470.7999999999993,-2036.0,2841.6000000000004,-4622.0,1279.4,-162.5,2025-01-29 10:42:45,0.0
-254.79999999999927,-2436.0,2533.6000000000004,-4430.0,969.4,-380.5,2025-01-29 10:42:45,0.0
-686.7999999999993,-2180.0,2593.6000000000004,-4146.0,505.4,-662.5,2025-01-29 10:42:45,0.0
-418.7999999999993,-1596.0,1853.6000000000004,-3965.0,349.4,-809.5,2025-01-29 10:42:45,0.0
-698.7999999999993,-900.0,2265.6000000000004,-3931.0,587.4,-893.5,2025-01-29 10:42:45,0.0
-986.7999999999993,-1212.0,2553.6000000000004,-4108.0,1337.4,-1383.5,2025-01-29 10:42:45,0.0
-1958.7999999999993,-2308.0,1929.6000000000004,-4205.0,1443.4,-2158.5,2025-01-29 10:42:46,0.0
-2750.7999999999993,-2716.0,2033.6000000000004,-4195.0,904.4,-2407.5,2025-01-29 10:42:46,0.0
-3574.7999999999993,-2124.0,2461.6000000000004,-4022.0,350.4,-2535.5,2025-01-29 10:42:46,0.0
-4530.799999999999,-1244.0,2969.6000000000004,-4112.0,-544.6,-2476.5,2025-01-29 10:42:46,0.0
-4754.799999999999,-1232.0,3481.6000000000004,-4648.0,-1745.6,-1905.5,2025-01-29 10:42:46,0.0
-3346.7999999999993,-2784.0,1961.6000000000004,-4339.0,-2527.6,-1466.5,2025-01-29 10:42:46,0.0
-2978.7999999999993,-4060.0,889.6000000000004,-3656.0,-1365.6,-1479.5,2025-01-29 10:42:46,0.0
-2974.7999999999993,-5384.0,1949.6000000000004,-2170.0,-290.6,-2020.5,2025-01-29 10:42:46,0.0
-4138.799999999999,-6268.0,2385.6000000000004,-178.0,-924.6,-2272.5,2025-01-29 10:42:46,0.0
-5494.799999999999,-5920.0,117.60000000000036,1750.0,-3570.6,-910.5,2025-01-29 10:42:46,0.0
-4326.799999999999,-3880.0,-1982.3999999999996,2322.0,-5422.6,1385.5,2025-01-29 10:42:46,0.0
-294.7999999999993,-1200.0,-2986.3999999999996,2418.0,-5456.6,1641.5,2025-01-29 10:42:46,0.0
1669.2000000000007,1472.0,-3262.3999999999996,1154.0,-4756.6,1236.5,2025-01-29 10:42:46,0.0
3265.2000000000007,2580.0,-2934.3999999999996,-333.0,-3735.6,1151.5,2025-01-29 10:42:46,0.0
4145.200000000001,3876.0,-2846.3999999999996,-1544.0,-1754.6,683.5,2025-01-29 10:42:46,0.0
3841.2000000000007,4428.0,-2754.3999999999996,-2370.0,1047.4,-131.5,2025-01-29 10:42:46,0.0
1785.2000000000007,3092.0,-2686.3999999999996,-3295.0,3757.4,-920.5,2025-01-29 10:42:46,0.0
-1246.7999999999993,696.0,-1206.3999999999996,-3339.0,5141.4,-556.5,2025-01-29 10:42:46,0.0
-2842.7999999999993,-1096.0,-38.399999999999636,-2608.0,3475.4,80.5,2025-01-29 10:42:46,0.0
-3570.7999999999993,-2240.0,661.6000000000004,-1995.0,504.4,1047.5,2025-01-29 10:42:46,0.0
-3406.7999999999993,-2696.0,1337.6000000000004,-1299.0,-981.6,2620.5,2025-01-29 10:42:46,0.0
-1882.7999999999993,-2220.0,1201.6000000000004,-361.0,-1657.6,3844.5,2025-01-29 10:42:46,0.0
-546.7999999999993,-1668.0,1125.6000000000004,283.0,-2397.6,4580.5,2025-01-29 10:42:46,0.0
849.2000000000007,-1024.0,2105.6000000000004,834.0,-2641.6,4879.5,2025-01-29 10:42:46,0.0
1613.2000000000007,228.0,2257.6000000000004,1405.0,-2433.6,4801.5,2025-01-29 10:42:46,0.0
3045.2000000000007,1152.0,2401.6000000000004,2001.0,-1157.6,4414.5,2025-01-29 10:42:46,0.0
2429.2000000000007,1996.0,1953.6000000000004,2323.0,969.4,3912.5,2025-01-29 10:42:46,0.0
1861.2000000000007,2212.0,1553.6000000000004,2193.0,2029.4,3174.5,2025-01-29 10:42:46,0.0
581.2000000000007,2288.0,1533.6000000000004,2038.0,2109.4,2707.5,2025-01-29 10:42:46,0.0
-274.7999999999993,1928.0,1541.6000000000004,1771.0,1695.4,2608.5,2025-01-29 10:42:46,0.0
-378.7999999999993,1328.0,1777.6000000000004,1727.0,952.4,2571.5,2025-01-29 10:42:46,0.0
57.20000000000073,928.0,2277.6000000000004,1904.0,-65.6,2289.5,2025-01-29 10:42:46,0.0
417.2000000000007,1004.0,2029.6000000000004,1987.0,-496.6,1975.5,2025-01-29 10:42:46,0.0
1033.2000000000007,1404.0,1777.6000000000004,2111.0,-445.6,1639.5,2025-01-29 10:42:46,0.0
645.2000000000007,1472.0,1729.6000000000004,1919.0,46.400000000000006,1264.5,2025-01-29 10:42:46,0.0
153.20000000000073,1524.0,1845.6000000000004,1706.0,325.4,1041.5,2025-01-29 10:42:46,0.0
-254.79999999999927,1696.0,2113.6000000000004,1451.0,-97.6,1013.5,2025-01-29 10:42:46,0.0
-386.7999999999993,1600.0,2301.6000000000004,1279.0,-893.6,750.5,2025-01-29 10:42:46,0.0
249.20000000000073,1596.0,2321.6000000000004,1281.0,-1517.6,169.5,2025-01-29 10:42:46,0.0
329.2000000000007,1652.0,2353.6000000000004,1453.0,-1356.6,-237.5,2025-01-29 10:42:46,0.0
53.20000000000073,1736.0,2489.6000000000004,1620.0,-780.6,-381.5,2025-01-29 10:42:46,0.0
-414.7999999999993,1668.0,2789.6000000000004,1790.0,-239.6,-351.5,2025-01-29 10:42:46,0.0
-1218.7999999999993,1488.0,3281.6000000000004,1927.0,192.4,-345.5,2025-01-29 10:42:46,0.0
-1714.7999999999993,1276.0,3065.6000000000004,2098.0,-10.599999999999994,-94.5,2025-01-29 10:42:46,0.0
-2054.7999999999993,1148.0,2537.6000000000004,2179.0,-274.6,305.5,2025-01-29 10:42:46,0.0
-2054.7999999999993,816.0,2465.6000000000004,2316.0,-23.599999999999994,596.5,2025-01-29 10:42:46,0.0
-2390.7999999999993,408.0,3657.6000000000004,2689.0,400.4,964.5,2025-01-29 10:42:46,0.0
-2282.7999999999993,552.0,3657.6000000000004,3013.0,432.4,1317.5,2025-01-29 10:42:46,0.0
-2110.7999999999993,860.0,3861.6000000000004,3162.0,538.4,1497.5,2025-01-29 10:42:46,0.0
-1742.7999999999993,676.0,4925.6,3772.0,612.4,1267.5,2025-01-29 10:42:46,0.0
-1982.7999999999993,564.0,4585.6,4300.0,902.4,1089.5,2025-01-29 10:42:46,0.0
-2414.7999999999993,424.0,3133.6000000000004,4450.0,1691.4,1204.5,2025-01-29 10:42:46,0.0
-3042.7999999999993,812.0,829.6000000000004,4521.0,3014.4,1429.5,2025-01-29 10:42:46,0.0
-4286.799999999999,2396.0,-778.3999999999996,3624.0,4019.4,1954.5,2025-01-29 10:42:46,0.0
-4862.799999999999,4156.0,-2586.3999999999996,1997.0,3921.4,2600.5,2025-01-29 10:42:46,0.0
-4842.799999999999,4476.0,-3314.3999999999996,208.0,2710.4,2638.5,2025-01-29 10:42:46,0.0
-4090.7999999999993,3992.0,-3986.3999999999996,-1231.0,1398.4,2139.5,2025-01-29 10:42:46,0.0
-3142.7999999999993,2872.0,-4494.4,-2591.0,383.4,1452.5,2025-01-29 10:42:46,0.0
-1186.7999999999993,1164.0,-1746.3999999999996,-3104.0,-1344.6,552.5,2025-01-29 10:42:46,0.0
573.2000000000007,-72.0,393.60000000000036,-2106.0,-3401.6,-542.5,2025-01-29 10:42:46,0.0
2141.2000000000007,-740.0,425.60000000000036,-647.0,-4821.6,-1280.5,2025-01-29 10:42:46,0.0
3533.2000000000007,-1616.0,129.60000000000036,221.0,-5459.6,-1934.5,2025-01-29 10:42:47,0.0
4157.200000000001,-2604.0,617.6000000000004,972.0,-4056.6,-2406.5,2025-01-29 10:42:47,0.0
3901.2000000000007,-3056.0,389.60000000000036,1485.0,-863.6,-2257.5,2025-01-29 10:42:47,0.0
3365.2000000000007,-3216.0,-226.39999999999964,1942.0,2042.4,-1846.5,2025-01-29 10:42:47,0.0
2697.2000000000007,-2948.0,-850.3999999999996,2275.0,3741.4,-1747.5,2025-01-29 10:42:47,0.0
409.2000000000007,-1616.0,137.60000000000036,2485.0,4317.4,-1492.5,2025-01-29 10:42:47,0.0
-1386.7999999999993,-120.0,377.60000000000036,2169.0,3513.4,-931.5,2025-01-29 10:42:47,0.0
-2278.7999999999993,868.0,397.60000000000036,1421.0,1789.4,-910.5,2025-01-29 10:42:47,0.0
-2246.7999999999993,684.0,797.6000000000004,860.0,9.400000000000006,-1663.5,2025-01-29 10:42:47,0.0
-2206.7999999999993,172.0,801.6000000000004,693.0,-1873.6,-2260.5,2025-01-29 10:42:47,0.0
-786.7999999999993,-488.0,213.60000000000036,655.0,-3416.6,-2621.5,2025-01-29 10:42:47,0.0
773.2000000000007,-584.0,421.60000000000036,336.0,-3441.6,-2996.5,2025-01-29 10:42:47,0.0
1345.2000000000007,-608.0,1593.6000000000004,-36.0,-2771.6,-3269.5,2025-01-29 10:42:47,0.0
1801.2000000000007,-520.0,1585.6000000000004,-473.0,-1347.6,-3266.5,2025-01-29 10:42:47,0.0
1977.2000000000007,-424.0,1517.6000000000004,-956.0,232.4,-3147.5,2025-01-29 10:42:47,0.0
2481.2000000000007,-456.0,789.6000000000004,-1524.0,1549.4,-3238.5,2025-01-29 10:42:47,0.0
1333.2000000000007,-704.0,1125.6000000000004,-2030.0,2467.4,-3575.5,2025-01-29 10:42:47,0.0
37.20000000000073,-1172.0,1605.6000000000004,-2172.0,2782.4,-3806.5,2025-01-29 10:42:47,0.0
-1414.7999999999993,-1852.0,1777.6000000000004,-2232.0,2305.4,-3499.5,2025-01-29 10:42:47,0.0
-2370.7999999999993,-2444.0,2541.6000000000004,-1945.0,1166.4,-2520.5,2025-01-29 10:42:47,0.0
-2030.7999999999993,-2724.0,3037.6000000000004,-1551.0,-178.6,-1717.5,2025-01-29 10:42:47,0.0
-1262.7999999999993,-2456.0,2677.6000000000004,-1186.0,-948.6,-1001.5,2025-01-29 10:42:47,0.0
-242.79999999999927,-1788.0,2425.6000000000004,-1034.0,-1014.6,-607.5,2025-01-29 10:42:47,0.0
345.2000000000007,-820.0,2173.6000000000004,-1283.0,-636.6,-479.5,2025-01-29 10:42:47,0.0
473.2000000000007,0.0,2129.6000000000004,-1692.0,-78.6,-329.5,2025-01-29 10:42:47,0.0
385.2000000000007,240.0,1893.6000000000004,-2193.0,627.4,-118.5,2025-01-29 10:42:47,0.0
145.20000000000073,-328.0,2181.6000000000004,-2767.0,1159.4,-197.5,2025-01-29 10:42:47,0.0
-558.7999999999993,-868.0,2281.6000000000004,-3078.0,1242.4,-424.5,2025-01-29 10:42:47,0.0
-1238.7999999999993,-1132.0,2277.6000000000004,-3262.0,1004.4,-659.5,2025-01-29 10:42:47,0.0
-1846.7999999999993,-1220.0,2105.6000000000004,-3374.0,292.4,-806.5,2025-01-29 10:42:47,0.0
-1678.7999999999993,-992.0,1985.6000000000004,-3509.0,-549.6,-833.5,2025-01-29 10:42:47,0.0
-1274.7999999999993,-688.0,1829.6000000000004,-3712.0,-1015.6,-843.5,2025-01-29 10:42:47,
-686.7999999999993,-548.0,1489.6000000000004,-4077.0,-919.6,-1215.5,2025-01-29 10:42:47,0.0
-750.7999999999993,-1076.0,1773.6000000000004,-4363.0,-472.6,-1729.5,2025-01-29 10:42:47,0.0
-986.7999999999993,-1892.0,2149.6000000000004,-4376.0,-328.6,-2391.5,2025-01-29 10:42:47,0.0
-1270.7999999999993,-2312.0,2389.6000000000004,-4383.0,-660.6,-2914.5,2025-01-29 10:42:47,0.0
-1922.7999999999993,-2004.0,2805.6000000000004,-4428.0,-1266.6,-2979.5,2025-01-29 10:42:47,0.0
-2006.7999999999993,-1384.0,3293.6000000000004,-4710.0,-1740.6,-2622.5,2025-01-29 10:42:47,0.0
-1178.7999999999993,-1392.0,3449.6000000000004,-4984.0,-1678.6,-2331.5,2025-01-29 10:42:47,0.0
-1482.7999999999993,-1840.0,1349.6000000000004,-5013.0,-407.6,-2511.5,2025-01-29 10:42:47,0.0
-2678.7999999999993,-3140.0,961.6000000000004,-5050.0,1942.4,-2682.5,2025-01-29 10:42:47,0.0
-4014.7999999999993,-4932.0,1361.6000000000004,-3885.0,2160.4,-2932.5,2025-01-29 10:42:47,0.0
-5846.799999999999,-5984.0,457.60000000000036,-2242.0,128.4,-2032.5,2025-01-29 10:42:47,0.0
-7334.799999999999,-6000.0,-518.3999999999996,-611.0,-2284.6,167.5,2025-01-29 10:42:47,0.0
-4210.799999999999,-5096.0,-1222.3999999999996,1889.0,-4337.6,2046.5,2025-01-29 10:42:47,0.0
-2182.7999999999993,-4072.0,-1958.3999999999996,3205.0,-5085.6,1537.5,2025-01-29 10:42:47,0.0
-850.7999999999993,-1912.0,-1890.3999999999996,3039.0,-5986.6,1584.5,2025-01-29 10:42:47,0.0
285.2000000000007,260.0,-1086.3999999999996,1879.0,-6387.6,2697.5,2025-01-29 10:42:47,0.0
2213.2000000000007,2168.0,-694.3999999999996,654.0,-6111.6,4232.5,2025-01-29 10:42:47,0.0
4633.200000000001,3928.0,-1578.3999999999996,-584.0,-3952.6,4802.5,2025-01-29 10:42:47,0.0
6257.200000000001,4316.0,-2142.3999999999996,-1896.0,-737.6,3624.5,2025-01-29 10:42:47,0.0
6601.200000000001,3964.0,-978.3999999999996,-2538.0,2578.4,1302.5,2025-01-29 10:42:47,0.0
3657.2000000000007,1664.0,-130.39999999999964,-2499.0,5431.4,-1059.5,2025-01-29 10:42:47,0.0
-146.79999999999927,-188.0,533.6000000000004,-1994.0,7265.4,-1337.5,2025-01-29 10:42:47,0.0
-2382.7999999999993,-1120.0,989.6000000000004,-1523.0,6411.4,-650.5,2025-01-29 10:42:47,0.0
-3802.7999999999993,-1124.0,1025.6000000000004,-923.0,3511.4,421.5,2025-01-29 10:42:47,0.0
-4094.7999999999993,-912.0,805.6000000000004,-458.0,926.4,1501.5,2025-01-29 10:42:47,0.0
-3594.7999999999993,-220.0,357.60000000000036,-341.0,-841.6,2375.5,2025-01-29 10:42:47,0.0
-2478.7999999999993,168.0,301.60000000000036,-319.0,-2178.6,3143.5,2025-01-29 10:42:47,0.0
-678.7999999999993,344.0,649.6000000000004,-101.0,-3016.6,3638.5,2025-01-29 10:42:47,0.0
669.2000000000007,404.0,1213.6000000000004,153.0,-2964.6,3818.5,2025-01-29 10:42:48,0.0
1761.2000000000007,580.0,1389.6000000000004,390.0,-1991.6,3672.5,2025-01-29 10:42:48,0.0
2173.2000000000007,828.0,2293.6000000000004,950.0,-246.6,3051.5,2025-01-29 10:42:48,0.0
1757.2000000000007,1092.0,2569.6000000000004,1400.0,1155.4,2446.5,2025-01-29 10:42:48,0.0
1273.2000000000007,1340.0,2393.6000000000004,1618.0,1576.4,2146.5,2025-01-29 10:42:48,0.0
425.2000000000007,1560.0,2029.6000000000004,1716.0,1636.4,1943.5,2025-01-29 10:42:48,0.0
-70.79999999999927,1864.0,2301.6000000000004,1686.0,1276.4,1811.5,2025-01-29 10:42:48,0.0
-454.7999999999993,2004.0,1849.6000000000004,1817.0,469.4,1545.5,2025-01-29 10:42:48,0.0
-334.7999999999993,2284.0,1329.6000000000004,1616.0,-146.6,1089.5,2025-01-29 10:42:48,0.0
53.20000000000073,2012.0,1145.6000000000004,1302.0,-537.6,464.5,2025-01-29 10:42:48,0.0
-82.79999999999927,1552.0,1253.6000000000004,1107.0,-527.6,-6.5,2025-01-29 10:42:48,0.0
-90.79999999999927,1256.0,1637.6000000000004,914.0,-491.6,-406.5,2025-01-29 10:42:48,0.0
-490.7999999999993,884.0,2021.6000000000004,783.0,-318.6,-502.5,2025-01-29 10:42:48,0.0
-658.7999999999993,732.0,2225.6000000000004,822.0,-66.6,-435.5,2025-01-29 10:42:48,0.0
-902.7999999999993,900.0,2113.6000000000004,751.0,235.4,-372.5,2025-01-29 10:42:48,0.0
-1290.7999999999993,908.0,2201.6000000000004,671.0,290.4,-283.5,2025-01-29 10:42:48,0.0
-1294.7999999999993,524.0,2709.6000000000004,962.0,-16.599999999999994,-24.5,2025-01-29 10:42:48,0.0
-1218.7999999999993,496.0,2981.6000000000004,1438.0,-500.6,183.5,2025-01-29 10:42:48,0.0
-1038.7999999999993,148.0,2981.6000000000004,1846.0,-915.6,269.5,2025-01-29 10:42:48,0.0
-762.7999999999993,204.0,3021.6000000000004,2255.0,-1069.6,331.5,2025-01-29 10:42:48,0.0
-370.7999999999993,128.0,3005.6000000000004,2657.0,-925.6,311.5,2025-01-29 10:42:48,0.0
-314.7999999999993,112.0,2949.6000000000004,3125.0,-416.6,347.5,2025-01-29 10:42:48,0.0
-622.7999999999993,364.0,2777.6000000000004,3434.0,291.4,451.5,2025-01-29 10:42:48,0.0
-1402.7999999999993,580.0,2805.6000000000004,3613.0,745.4,671.5,2025-01-29 10:42:48,0.0
-2098.7999999999993,856.0,2521.6000000000004,3848.0,777.4,1040.5,2025-01-29 10:42:48,0.0
-2826.7999999999993,1252.0,2361.6000000000004,3794.0,249.4,1488.5,2025-01-29 10:42:48,0.0
-2698.7999999999993,1532.0,3017.6000000000004,3823.0,-431.6,1631.5,2025-01-29 10:42:48,0.0
-2602.7999999999993,1388.0,4105.6,4102.0,-1114.6,1569.5,2025-01-29 10:42:48,0.0
-2570.7999999999993,1024.0,3465.6000000000004,4278.0,-1230.6,1897.5,2025-01-29 10:42:48,0.0
-1930.7999999999993,392.0,1521.6000000000004,4257.0,-383.6,2410.5,2025-01-29 10:42:48,0.0
-1154.7999999999993,872.0,529.6000000000004,3964.0,611.4,2365.5,2025-01-29 10:42:48,0.0
-1682.7999999999993,1788.0,33.600000000000364,2984.0,1135.4,2341.5,2025-01-29 10:42:48,0.0
-1906.7999999999993,2516.0,-14.399999999999636,2472.0,1246.4,2061.5,2025-01-29 10:42:48,0.0
-2534.7999999999993,2580.0,-1178.3999999999996,1964.0,1101.4,1372.5,2025-01-29 10:42:48,0.0
-3398.7999999999993,2428.0,-2842.3999999999996,895.0,882.4,1095.5,2025-01-29 10:42:48,0.0
-3162.7999999999993,2156.0,-1974.3999999999996,-158.0,486.4,1234.5,2025-01-29 10:42:48,0.0
-1674.7999999999993,1388.0,-6.399999999999636,-359.0,-448.6,936.5,2025-01-29 10:42:48,0.0
-46.79999999999927,268.0,917.6000000000004,116.0,-1430.6,-69.5,2025-01-29 10:42:48,0.0
1029.2000000000007,-132.0,1333.6000000000004,832.0,-1803.6,-924.5,2025-01-29 10:42:48,0.0
2229.2000000000007,-480.0,441.60000000000036,1536.0,-1693.6,-1712.5,2025-01-29 10:42:48,0.0
2881.2000000000007,-544.0,73.60000000000036,1674.0,-679.6,-2420.5,2025-01-29 10:42:48,0.0
3109.2000000000007,-684.0,-338.39999999999964,1443.0,345.4,-2891.5,2025-01-29 10:42:48,0.0
2597.2000000000007,-672.0,-502.39999999999964,1213.0,1280.4,-2840.5,2025-01-29 10:42:48,0.0
2305.2000000000007,-1004.0,-378.39999999999964,1094.0,2261.4,-2420.5,2025-01-29 10:42:48,0.0
1625.2000000000007,-1456.0,-334.39999999999964,796.0,3209.4,-1898.5,2025-01-29 10:42:48,0.0
713.2000000000007,-1752.0,-66.39999999999964,515.0,3476.4,-1655.5,2025-01-29 10:42:48,0.0
-770.7999999999993,-1856.0,-6.399999999999636,620.0,3288.4,-1447.5,2025-01-29 10:42:48,0.0
-1746.7999999999993,-2128.0,-250.39999999999964,878.0,2461.4,-1315.5,2025-01-29 10:42:48,0.0
-2414.7999999999993,-2016.0,-318.39999999999964,1118.0,844.4,-1367.5,2025-01-29 10:42:48,0.0
-2118.7999999999993,-1588.0,-106.39999999999964,1255.0,-1021.6,-1461.5,2025-01-29 10:42:48,0.0
-1118.7999999999993,-1368.0,-358.39999999999964,1158.0,-2038.6,-1619.5,2025-01-29 10:42:48,0.0
-42.79999999999927,-1172.0,-210.39999999999964,1005.0,-2568.6,-1686.5,2025-01-29 10:42:48,0.0
1081.2000000000007,-884.0,-50.399999999999636,825.0,-2098.6,-1575.5,2025-01-29 10:42:48,0.0
2201.2000000000007,-1024.0,365.60000000000036,501.0,-813.6,-1556.5,2025-01-29 10:42:48,0.0
2421.2000000000007,-1188.0,533.6000000000004,-69.0,542.4,-1740.5,2025-01-29 10:42:48,0.0
1713.2000000000007,-1256.0,665.6000000000004,-669.0,1532.4,-1910.5,2025-01-29 10:42:48,0.0
485.2000000000007,-1100.0,953.6000000000004,-1171.0,1889.4,-1868.5,2025-01-29 10:42:48,0.0
-322.7999999999993,-1360.0,1041.6000000000004,-1335.0,1606.4,-1627.5,2025-01-29 10:42:48,0.0
-386.7999999999993,-1900.0,1173.6000000000004,-1408.0,1225.4,-1363.5,2025-01-29 10:42:48,0.0
-578.7999999999993,-2240.0,1281.6000000000004,-1480.0,891.4,-1145.5,2025-01-29 10:42:48,0.0
-582.7999999999993,-2536.0,949.6000000000004,-1453.0,604.4,-862.5,2025-01-29 10:42:48,0.0
-514.7999999999993,-2340.0,437.60000000000036,-1335.0,25.400000000000006,-623.5,2025-01-29 10:42:48,0.0
-338.7999999999993,-1892.0,257.60000000000036,-1223.0,-350.6,-378.5,2025-01-29 10:42:49,0.0
-90.79999999999927,-1492.0,213.60000000000036,-1378.0,-536.6,-104.5,2025-01-29 10:42:49,0.0
-102.79999999999927,-1144.0,381.60000000000036,-1594.0,-358.6,119.5,2025-01-29 10:42:49,0.0
-358.7999999999993,-1012.0,-70.39999999999964,-1725.0,-18.599999999999994,162.5,2025-01-29 10:42:49,0.0
-878.7999999999993,-960.0,-802.3999999999996,-1828.0,262.4,-230.5,2025-01-29 10:42:49,0.0
-1766.7999999999993,-336.0,-274.39999999999964,-1694.0,-255.6,-475.5,2025-01-29 10:42:49,0.0
-2030.7999999999993,-364.0,617.6000000000004,-1703.0,-1581.6,-247.5,2025-01-29 10:42:49,0.0
-862.7999999999993,-912.0,709.6000000000004,-1819.0,-2760.6,-47.5,2025-01-29 10:42:49,0.0
29.200000000000728,-1560.0,797.6000000000004,-1829.0,-2682.6,-217.5,2025-01-29 10:42:49,0.0
693.2000000000007,-2092.0,1297.6000000000004,-1485.0,-1760.6,-274.5,2025-01-29 10:42:49,
1281.2000000000007,-1932.0,1077.6000000000004,-1215.0,-890.6,-267.5,2025-01-29 10:42:49,0.0
1305.2000000000007,-1480.0,1101.6000000000004,-1225.0,-102.6,-164.5,2025-01-29 10:42:49,0.0
1049.2000000000007,-1528.0,941.6000000000004,-1085.0,511.4,18.5,2025-01-29 10:42:49,0.0
541.2000000000007,-1744.0,581.6000000000004,-597.0,1086.4,213.5,2025-01-29 10:42:49,0.0
-58.79999999999927,-1496.0,273.60000000000036,-245.0,1369.4,153.5,2025-01-29 10:42:49,0.0
-634.7999999999993,-1268.0,333.60000000000036,-34.0,1177.4,2.5,2025-01-29 10:42:49,0.0
-1050.7999999999993,-1104.0,313.60000000000036,142.0,569.4,66.5,2025-01-29 10:42:49,0.0
-786.7999999999993,-1064.0,129.60000000000036,136.0,34.400000000000006,146.5,2025-01-29 10:42:49,0.0
-254.79999999999927,-992.0,1.6000000000003638,73.0,-263.6,175.5,2025-01-29 10:42:49,0.0
365.2000000000007,-708.0,-34.399999999999636,78.0,13.400000000000006,121.5,2025-01-29 10:42:49,0.0
329.2000000000007,-448.0,-86.39999999999964,-46.0,551.4,-79.5,2025-01-29 10:42:49,0.0
-318.7999999999993,-240.0,437.60000000000036,-262.0,742.4,-212.5,2025-01-29 10:42:49,0.0
-878.7999999999993,-340.0,613.6000000000004,-533.0,469.4,-236.5,2025-01-29 10:42:49,0.0
-826.7999999999993,-708.0,921.6000000000004,-534.0,30.400000000000006,-184.5,2025-01-29 10:42:49,0.0
-626.7999999999993,-896.0,1157.6000000000004,-446.0,-242.6,-164.5,2025-01-29 10:42:49,0.0
-554.7999999999993,-1132.0,1453.6000000000004,-331.0,-194.6,-171.5,2025-01-29 10:42:49,0.0
-194.79999999999927,-1024.0,1073.6000000000004,-123.0,63.400000000000006,-148.5,2025-01-29 10:42:49,0.0
-498.7999999999993,-744.0,793.6000000000004,-48.0,323.4,-131.5,2025-01-29 10:42:49,0.0
-662.7999999999993,-616.0,1029.6000000000004,-38.0,274.4,-70.5,2025-01-29 10:42:49,0.0
-686.7999999999993,-596.0,837.6000000000004,-107.0,114.4,-75.5,2025-01-29 10:42:49,0.0
-574.7999999999993,-588.0,1025.6000000000004,-80.0,-3.5999999999999943,-60.5,2025-01-29 10:42:49,0.0
-410.7999999999993,-624.0,725.6000000000004,-125.0,-13.599999999999994,-112.5,2025-01-29 10:42:49,0.0
-342.7999999999993,-600.0,877.6000000000004,-86.0,99.4,-109.5,2025-01-29 10:42:49,0.0
-250.79999999999927,-620.0,1117.6000000000004,-84.0,267.4,-118.5,2025-01-29 10:42:49,0.0
-314.7999999999993,-576.0,1053.6000000000004,-76.0,293.4,-157.5,2025-01-29 10:42:49,0.0
-454.7999999999993,-664.0,765.6000000000004,-66.0,155.4,-115.5,2025-01-29 10:42:49,0.0
-722.7999999999993,-844.0,525.6000000000004,-65.0,75.4,-92.5,2025-01-29 10:42:49,0.0
-474.7999999999993,-804.0,477.60000000000036,-108.0,-26.599999999999994,-43.5,2025-01-29 10:42:49,0.0
-594.7999999999993,-604.0,753.6000000000004,-138.0,-106.6,-55.5,2025-01-29 10:42:49,0.0
-590.7999999999993,-620.0,865.6000000000004,-227.0,-245.6,-84.5,2025-01-29 10:42:49,0.0
-650.7999999999993,-604.0,1289.6000000000004,-324.0,-377.6,-86.5,2025-01-29 10:42:49,0.0
-406.7999999999993,-796.0,1105.6000000000004,-328.0,-311.6,-157.5,2025-01-29 10:42:49,0.0
-270.7999999999993,-716.0,1165.6000000000004,-322.0,-154.6,-200.5,2025-01-29 10:42:49,0.0
-390.7999999999993,-920.0,1049.6000000000004,-294.0,34.400000000000006,-167.5,2025-01-29 10:42:49,0.0
-442.7999999999993,-772.0,857.6000000000004,-242.0,159.4,-134.5,2025-01-29 10:42:49,0.0
-546.7999999999993,-768.0,893.6000000000004,-287.0,158.4,-111.5,2025-01-29 10:42:49,0.0
-562.7999999999993,-880.0,1009.6000000000004,-295.0,120.4,-124.5,2025-01-29 10:42:49,0.0
-462.7999999999993,-948.0,1005.6000000000004,-255.0,138.4,-145.5,2025-01-29 10:42:49,0.0
-554.7999999999993,-948.0,1097.6000000000004,-173.0,117.4,-89.5,2025-01-29 10:42:49,0.0
-630.7999999999993,-660.0,961.6000000000004,-145.0,-96.6,29.5,2025-01-29 10:42:49,0.0
-542.7999999999993,-724.0,1033.6000000000004,-98.0,-160.6,35.5,2025-01-29 10:42:49,0.0
-574.7999999999993,-848.0,1153.6000000000004,-82.0,-193.6,18.5,2025-01-29 10:42:49,0.0
-486.7999999999993,-932.0,1389.6000000000004,34.0,-182.6,48.5,2025-01-29 10:42:49,0.0
-498.7999999999993,-968.0,1237.6000000000004,113.0,-81.6,122.5,2025-01-29 10:42:49,0.0
-506.7999999999993,-812.0,1281.6000000000004,151.0,41.400000000000006,127.5,2025-01-29 10:42:49,0.0
-542.7999999999993,-712.0,1073.6000000000004,92.0,71.4,92.5,2025-01-29 10:42:49,0.0
-694.7999999999993,-668.0,1201.6000000000004,122.0,51.400000000000006,62.5,2025-01-29 10:42:49,0.0
-590.7999999999993,-748.0,953.6000000000004,103.0,14.400000000000006,42.5,2025-01-29 10:42:49,0.0
-522.7999999999993,-740.0,925.6000000000004,93.0,-31.599999999999994,55.5,2025-01-29 10:42:49,0.0
-542.7999999999993,-732.0,981.6000000000004,73.0,-45.599999999999994,110.5,2025-01-29 10:42:49,0.0
-582.7999999999993,-572.0,1089.6000000000004,47.0,39.400000000000006,89.5,2025-01-29 10:42:50,0.0
-554.7999999999993,-632.0,1073.6000000000004,75.0,53.400000000000006,73.5,2025-01-29 10:42:50,0.0
-606.7999999999993,-712.0,1189.6000000000004,54.0,-18.599999999999994,62.5,2025-01-29 10:42:50,0.0
-526.7999999999993,-580.0,1089.6000000000004,52.0,-84.6,5.5,2025-01-29 10:42:50,0.0
-686.7999999999993,-652.0,1229.6000000000004,47.0,-98.6,67.5,2025-01-29 10:42:50,0.0
-610.7999999999993,-548.0,1109.6000000000004,1.0,-108.6,58.5,2025-01-29 10:42:50,0.0
-562.7999999999993,-532.0,1129.6000000000004,-44.0,-86.6,22.5,2025-01-29 10:42:50,0.0
-530.7999999999993,-588.0,1209.6000000000004,-148.0,-69.6,-17.5,2025-01-29 10:42:50,0.0
-494.7999999999993,-648.0,1037.6000000000004,-158.0,-73.6,10.5,2025-01-29 10:42:50,0.0
-426.7999999999993,-640.0,1085.6000000000004,-215.0,-22.599999999999994,18.5,2025-01-29 10:42:50,0.0
-582.7999999999993,-584.0,1269.6000000000004,-209.0,121.4,-12.5,2025-01-29 10:42:50,0.0
-682.7999999999993,-768.0,1169.6000000000004,-137.0,110.4,-63.5,2025-01-29 10:42:50,0.0
-706.7999999999993,-1020.0,1133.6000000000004,-27.0,-137.6,-22.5,2025-01-29 10:42:50,0.0
-582.7999999999993,-1024.0,1133.6000000000004,149.0,-159.6,85.5,2025-01-29 10:42:50,0.0
-454.7999999999993,-924.0,1181.6000000000004,231.0,-152.6,23.5,2025-01-29 10:42:50,0.0
-678.7999999999993,-784.0,1477.6000000000004,259.0,-191.6,46.5,2025-01-29 10:42:50,0.0
-634.7999999999993,-816.0,1593.6000000000004,317.0,-236.6,161.5,2025-01-29 10:42:50,0.0
-482.7999999999993,-900.0,1285.6000000000004,329.0,-202.6,148.5,2025-01-29 10:42:50,0.0
-618.7999999999993,-664.0,1289.6000000000004,289.0,-162.6,155.5,2025-01-29 10:42:50,0.0
-706.7999999999993,-648.0,1169.6000000000004,300.0,-206.6,221.5,2025-01-29 10:42:50,0.0
-530.7999999999993,-564.0,1105.6000000000004,280.0,-231.6,225.5,2025-01-29 10:42:50,0.0
-534.7999999999993,-596.0,1005.6000000000004,265.0,-226.6,207.5,2025-01-29 10:42:50,0.0
-446.7999999999993,-544.0,993.6000000000004,204.0,-201.6,128.5,2025-01-29 10:42:50,0.0
-454.7999999999993,-552.0,1029.6000000000004,122.0,-158.6,22.5,2025-01-29 10:42:50,0.0
-386.7999999999993,-548.0,1061.6000000000004,74.0,-84.6,-41.5,2025-01-29 10:42:50,0.0
-326.7999999999993,-524.0,1177.6000000000004,8.0,16.400000000000006,-43.5,2025-01-29 10:42:50,0.0
-414.7999999999993,-368.0,1513.6000000000004,96.0,347.4,-62.5,2025-01-29 10:42:50,0.0
-426.7999999999993,-548.0,1449.6000000000004,49.0,456.4,-86.5,2025-01-29 10:42:50,0.0
-490.7999999999993,-720.0,1233.6000000000004,2.0,327.4,-214.5,2025-01-29 10:42:50,0.0
-582.7999999999993,-892.0,1477.6000000000004,113.0,339.4,-259.5,2025-01-29 10:42:50,0.0
-650.7999999999993,-780.0,1409.6000000000004,265.0,352.4,-224.5,2025-01-29 10:42:50,0.0
-710.7999999999993,-780.0,1189.6000000000004,338.0,241.4,-171.5,2025-01-29 10:42:50,0.0
-622.7999999999993,-916.0,1049.6000000000004,385.0,192.4,-39.5,2025-01-29 10:42:50,0.0
-606.7999999999993,-832.0,941.6000000000004,364.0,152.4,53.5,2025-01-29 10:42:50,0.0
-726.7999999999993,-736.0,769.6000000000004,300.0,79.4,37.5,2025-01-29 10:42:50,0.0
-718.7999999999993,-580.0,813.6000000000004,253.0,-85.6,6.5,2025-01-29 10:42:50,0.0
-558.7999999999993,-484.0,725.6000000000004,162.0,-263.6,-15.5,2025-01-29 10:42:50,0.0
-526.7999999999993,-540.0,953.6000000000004,29.0,-363.6,-44.5,2025-01-29 10:42:50,0.0
-434.7999999999993,-496.0,1213.6000000000004,-49.0,-265.6,-57.5,2025-01-29 10:42:50,0.0
-406.7999999999993,-636.0,1073.6000000000004,-118.0,-6.599999999999994,-84.5,2025-01-29 10:42:50,0.0
-482.7999999999993,-868.0,1013.6000000000004,-203.0,121.4,-53.5,2025-01-29 10:42:50,0.0
-574.7999999999993,-992.0,937.6000000000004,-287.0,47.400000000000006,-84.5,2025-01-29 10:42:50,0.0
-722.7999999999993,-1080.0,913.6000000000004,-258.0,-92.6,-87.5,2025-01-29 10:42:50,0.0
-630.7999999999993,-1048.0,821.6000000000004,-210.0,-252.6,-42.5,2025-01-29 10:42:50,0.0
-394.7999999999993,-896.0,1049.6000000000004,-144.0,-276.6,-96.5,2025-01-29 10:42:50,0.0
-442.7999999999993,-836.0,1289.6000000000004,-104.0,-173.6,-148.5,2025-01-29 10:42:50,0.0
-466.7999999999993,-808.0,1101.6000000000004,-146.0,-49.599999999999994,-195.5,2025-01-29 10:42:50,0.0
-570.7999999999993,-900.0,1341.6000000000004,-151.0,7.400000000000006,-125.5,2025-01-29 10:42:50,0.0
-394.7999999999993,-960.0,1205.6000000000004,-121.0,89.4,-65.5,2025-01-29 10:42:50,0.0
-526.7999999999993,-832.0,1249.6000000000004,-123.0,298.4,-93.5,2025-01-29 10:42:50,
