acceleration_x,acceleration_y,acceleration_z,gyroscope_x,gyroscope_y,gyroscope_z,timestamp,label
146.39999999999964,307.6,-27.199999999999818,-623.7,-1.8999999999999773,-387.9,2025-01-29 10:34:14,0.0
-37.600000000000364,395.6,84.80000000000018,-478.7,184.10000000000002,-362.9,2025-01-29 10:34:14,0.0
-485.60000000000036,399.6,-39.19999999999982,-329.7,615.1,-299.9,2025-01-29 10:34:14,0.0
-753.6000000000004,183.6,384.8000000000002,-201.7,246.10000000000002,-162.89999999999998,2025-01-29 10:34:14,0.0
-517.6000000000004,47.6,-59.19999999999982,-14.699999999999989,-165.89999999999998,-27.899999999999977,2025-01-29 10:34:14,0.0
-181.60000000000036,-320.4,-175.19999999999982,32.30000000000001,-342.9,102.10000000000002,2025-01-29 10:34:14,0.0
166.39999999999964,-328.4,-339.1999999999998,215.3,-402.9,223.10000000000002,2025-01-29 10:34:14,0.0
554.3999999999996,-580.4,-251.19999999999982,411.3,-311.9,289.1,2025-01-29 10:34:14,0.0
542.3999999999996,-220.4,164.80000000000018,507.3,-122.89999999999998,337.1,2025-01-29 10:34:14,0.0
566.3999999999996,115.6,256.8000000000002,482.3,303.1,290.1,2025-01-29 10:34:14,0.0
666.3999999999996,419.6,140.80000000000018,327.3,951.1,-21.899999999999977,2025-01-29 10:34:14,0.0
10.399999999999636,455.6,168.80000000000018,210.3,1450.1,-366.9,2025-01-29 10:34:14,0.0
-661.6000000000004,379.6,116.80000000000018,197.3,1352.1,-513.9,2025-01-29 10:34:14,0.0
-1029.6000000000004,311.6,-203.19999999999982,-51.69999999999999,626.1,-556.9,2025-01-29 10:34:15,0.0
-1213.6000000000004,299.6,128.80000000000018,-253.7,-438.9,-530.9,2025-01-29 10:34:15,0.0
-1165.6000000000004,51.6,-263.1999999999998,-395.7,-1106.9,-353.9,2025-01-29 10:34:15,0.0
-1317.6000000000004,-212.4,-155.19999999999982,-464.7,-1187.9,-65.89999999999998,2025-01-29 10:34:15,0.0
-893.6000000000004,-756.4,268.8000000000002,-367.7,-1266.9,245.10000000000002,2025-01-29 10:34:15,0.0
-573.6000000000004,-548.4,560.8000000000002,-62.69999999999999,-1457.9,487.1,2025-01-29 10:34:15,0.0
14.399999999999636,-92.4,512.8000000000002,33.30000000000001,-1205.9,563.1,2025-01-29 10:34:15,0.0
-13.600000000000364,39.6,156.80000000000018,-105.69999999999999,-423.9,503.1,2025-01-29 10:34:15,0.0
-193.60000000000036,123.6,208.80000000000018,-342.7,497.1,567.1,2025-01-29 10:34:15,0.0
-501.60000000000036,39.6,576.8000000000002,-399.7,707.1,551.1,2025-01-29 10:34:15,0.0
-481.60000000000036,39.6,652.8000000000002,-491.7,597.1,426.1,2025-01-29 10:34:15,0.0
-1205.6000000000004,199.6,1444.8000000000002,-584.7,95.10000000000002,357.1,2025-01-29 10:34:15,0.0
-1049.6000000000004,271.6,1428.8000000000002,-651.7,-166.89999999999998,267.1,2025-01-29 10:34:15,0.0
-677.6000000000004,23.6,928.8000000000002,-738.7,-155.89999999999998,237.10000000000002,2025-01-29 10:34:15,0.0
-425.60000000000036,-216.4,728.8000000000002,-867.7,-6.899999999999977,211.10000000000002,2025-01-29 10:34:15,0.0
-617.6000000000004,-496.4,1052.8000000000002,-889.7,174.10000000000002,196.10000000000002,2025-01-29 10:34:15,0.0
-781.6000000000004,-692.4,1196.8000000000002,-829.7,350.1,136.10000000000002,2025-01-29 10:34:15,0.0
-921.6000000000004,-604.4,1044.8000000000002,-544.7,282.1,97.10000000000002,2025-01-29 10:34:15,0.0
-969.6000000000004,-388.4,660.8000000000002,-352.7,-200.89999999999998,145.10000000000002,2025-01-29 10:34:15,0.0
-925.6000000000004,-168.4,708.8000000000002,-237.7,-505.9,174.10000000000002,2025-01-29 10:34:15,0.0
-661.6000000000004,-296.4,560.8000000000002,-216.7,-570.9,189.10000000000002,2025-01-29 10:34:15,0.0
-397.60000000000036,-256.4,376.8000000000002,-194.7,-456.9,209.10000000000002,2025-01-29 10:34:15,0.0
-309.60000000000036,-400.4,860.8000000000002,-82.69999999999999,-179.89999999999998,47.10000000000002,2025-01-29 10:34:15,0.0
-465.60000000000036,-412.4,776.8000000000002,134.3,110.10000000000002,-160.89999999999998,2025-01-29 10:34:15,0.0
-1029.6000000000004,-164.4,832.8000000000002,228.3,237.10000000000002,-253.89999999999998,2025-01-29 10:34:15,0.0
-1377.6000000000004,-164.4,1196.8000000000002,222.3,-49.89999999999998,-279.9,2025-01-29 10:34:15,0.0
-1569.6000000000004,-252.4,1584.8000000000002,102.30000000000001,-686.9,-369.9,2025-01-29 10:34:15,0.0
-1501.6000000000004,-112.4,1024.8000000000002,10.300000000000011,-1342.9,-443.9,2025-01-29 10:34:15,0.0
-1153.6000000000004,-232.4,964.8000000000002,-131.7,-1889.9,-873.9,2025-01-29 10:34:15,0.0
-601.6000000000004,-68.4,1436.8000000000002,-91.69999999999999,-2004.9,-1487.9,2025-01-29 10:34:15,0.0
-345.60000000000036,15.6,1592.8000000000002,-148.7,-1724.9,-1943.9,2025-01-29 10:34:15,0.0
246.39999999999964,-468.4,1884.8000000000002,-98.69999999999999,-695.9,-2845.9,2025-01-29 10:34:15,0.0
-241.60000000000036,39.6,1388.8000000000002,-39.69999999999999,297.1,-3518.9,2025-01-29 10:34:15,0.0
-409.60000000000036,-196.4,1168.8000000000002,-498.7,823.1,-3926.9,2025-01-29 10:34:15,0.0
-1277.6000000000004,-848.4,2348.8,-1027.7,726.1,-3957.9,2025-01-29 10:34:15,0.0
-1797.6000000000004,-1172.4,3332.8,-1561.7,-415.9,-3245.9,2025-01-29 10:34:15,0.0
-1945.6000000000004,-1400.4,3212.8,-2202.7,-1435.9,-1957.9,2025-01-29 10:34:15,0.0
-1533.6000000000004,-1028.4,2456.8,-2940.7,-1767.9,-665.9,2025-01-29 10:34:15,0.0
-317.60000000000036,-596.4,508.8000000000002,-3805.7,-1149.9,-191.89999999999998,2025-01-29 10:34:15,0.0
-297.60000000000036,-40.4,56.80000000000018,-4297.7,546.1,-169.89999999999998,2025-01-29 10:34:15,0.0
-85.60000000000036,-216.4,1008.8000000000002,-4394.7,1670.1,-553.9,2025-01-29 10:34:15,0.0
-825.6000000000004,-492.4,1444.8000000000002,-5014.7,1313.1,-734.9,2025-01-29 10:34:15,0.0
-1577.6000000000004,-1016.4,1772.8000000000002,-5354.7,267.1,-156.89999999999998,2025-01-29 10:34:15,0.0
-753.6000000000004,-560.4,1492.8000000000002,-5359.7,-269.9,426.1,2025-01-29 10:34:15,0.0
-201.60000000000036,31.6,1388.8000000000002,-5324.7,335.1,506.1,2025-01-29 10:34:15,0.0
302.39999999999964,-156.4,1400.8000000000002,-5002.7,1456.1,92.10000000000002,2025-01-29 10:34:15,0.0
278.39999999999964,-108.4,1536.8000000000002,-4286.7,2904.1,-749.9,2025-01-29 10:34:15,0.0
-277.60000000000036,283.6,860.8000000000002,-4065.7,3916.1,-1582.9,2025-01-29 10:34:15,0.0
-1057.6000000000004,579.6,468.8000000000002,-4517.7,3645.1,-2064.9,2025-01-29 10:34:15,0.0
-1737.6000000000004,919.6,572.8000000000002,-5448.7,2380.1,-2004.9,2025-01-29 10:34:15,0.0
-1453.6000000000004,599.6,248.80000000000018,-6295.7,694.1,-1723.9,2025-01-29 10:34:15,0.0
-733.6000000000004,283.6,496.8000000000002,-6350.7,-14.899999999999977,-1705.9,2025-01-29 10:34:15,0.0
14.399999999999636,-60.4,248.80000000000018,-6129.7,298.1,-1718.9,2025-01-29 10:34:15,0.0
590.3999999999996,-552.4,432.8000000000002,-5718.7,1347.1,-1777.9,2025-01-29 10:34:15,0.0
482.39999999999964,-1168.4,956.8000000000002,-5300.7,2712.1,-1826.9,2025-01-29 10:34:15,0.0
102.39999999999964,-1120.4,1244.8000000000002,-4895.7,3675.1,-1952.9,2025-01-29 10:34:15,0.0
-681.6000000000004,-652.4,1016.8000000000002,-4629.7,4060.1,-1904.9,2025-01-29 10:34:15,0.0
-1057.6000000000004,-180.4,484.8000000000002,-4564.7,3900.1,-1613.9,2025-01-29 10:34:15,0.0
-1017.6000000000004,215.6,28.800000000000182,-4482.7,3566.1,-1237.9,2025-01-29 10:34:15,0.0
-925.6000000000004,115.6,-115.19999999999982,-4448.7,3278.1,-1072.9,2025-01-29 10:34:15,0.0
-1025.6000000000004,287.6,96.80000000000018,-4267.7,2958.1,-1166.9,2025-01-29 10:34:15,0.0
-1121.6000000000004,283.6,888.8000000000002,-3963.7,966.1,-1569.9,2025-01-29 10:34:15,0.0
-645.6000000000004,367.6,1536.8000000000002,-3754.7,102.10000000000002,-1459.9,2025-01-29 10:34:16,0.0
-25.600000000000364,415.6,1260.8000000000002,-3755.7,-71.89999999999998,-1464.9,2025-01-29 10:34:16,0.0
594.3999999999996,327.6,688.8000000000002,-3814.7,524.1,-1722.9,2025-01-29 10:34:16,0.0
138.39999999999964,235.6,416.8000000000002,-3687.7,1527.1,-1863.9,2025-01-29 10:34:16,0.0
-21.600000000000364,263.6,620.8000000000002,-3882.7,2067.1,-1985.9,2025-01-29 10:34:16,0.0
-189.60000000000036,155.6,1212.8000000000002,-4152.7,1862.1,-2204.9,2025-01-29 10:34:16,0.0
-421.60000000000036,-112.4,968.8000000000002,-4167.7,1486.1,-2321.9,2025-01-29 10:34:16,0.0
-181.60000000000036,-200.4,204.80000000000018,-4253.7,1287.1,-2257.9,2025-01-29 10:34:16,0.0
154.39999999999964,-420.4,344.8000000000002,-4302.7,1523.1,-2267.9,2025-01-29 10:34:16,0.0
-309.60000000000036,-700.4,532.8000000000002,-4139.7,1777.1,-2246.9,2025-01-29 10:34:16,0.0
-349.60000000000036,-356.4,260.8000000000002,-4024.7,2173.1,-2183.9,2025-01-29 10:34:16,0.0
-885.6000000000004,343.6,644.8000000000002,-4321.7,1869.1,-2030.9,2025-01-29 10:34:16,0.0
-601.6000000000004,695.6,568.8000000000002,-4565.7,546.1,-1807.9,2025-01-29 10:34:16,0.0
-13.600000000000364,95.6,584.8000000000002,-4636.7,-478.9,-1783.9,2025-01-29 10:34:16,0.0
626.3999999999996,-96.4,336.8000000000002,-4422.7,-55.89999999999998,-2128.9,2025-01-29 10:34:16,0.0
338.39999999999964,175.6,-631.1999999999998,-4350.7,1392.1,-2569.9,2025-01-29 10:34:16,0.0
-477.60000000000036,-52.4,-1219.1999999999998,-4362.7,2459.1,-2370.9,2025-01-29 10:34:16,0.0
-653.6000000000004,-380.4,-1131.1999999999998,-4210.7,2446.1,-2224.9,2025-01-29 10:34:16,0.0
-737.6000000000004,-920.4,-543.1999999999998,-4205.7,1402.1,-2299.9,2025-01-29 10:34:16,0.0
-1053.6000000000004,-1248.4,460.8000000000002,-3995.7,343.1,-2143.9,2025-01-29 10:34:16,0.0
-633.6000000000004,-1128.4,856.8000000000002,-3638.7,-687.9,-1836.9,2025-01-29 10:34:16,0.0
-97.60000000000036,-1196.4,616.8000000000002,-3197.7,-1283.9,-1516.9,2025-01-29 10:34:16,0.0
354.39999999999964,-1280.4,320.8000000000002,-2630.7,-1001.9,-1162.9,2025-01-29 10:34:16,0.0
950.3999999999996,-1116.4,-71.19999999999982,-2109.7,-229.89999999999998,-929.9,2025-01-29 10:34:16,0.0
1262.3999999999996,-856.4,-351.1999999999998,-1762.7,790.1,-930.9,2025-01-29 10:34:16,
1070.3999999999996,-604.4,-91.19999999999982,-1473.7,1574.1,-1000.9,2025-01-29 10:34:16,0.0
990.3999999999996,-276.4,-471.1999999999998,-1381.7,2320.1,-909.9,2025-01-29 10:34:16,0.0
658.3999999999996,-16.4,-871.1999999999998,-1411.7,2879.1,-856.9,2025-01-29 10:34:16,0.0
-97.60000000000036,-28.4,-1039.1999999999998,-1508.7,2904.1,-652.9,2025-01-29 10:34:16,0.0
-365.60000000000036,-4.4,-1303.1999999999998,-1543.7,2774.1,-392.9,2025-01-29 10:34:16,0.0
-341.60000000000036,135.6,-1599.1999999999998,-1715.7,2178.1,-246.89999999999998,2025-01-29 10:34:16,0.0
-149.60000000000036,3.5999999999999996,-1659.1999999999998,-1919.7,1514.1,-236.89999999999998,2025-01-29 10:34:16,0.0
310.39999999999964,-160.4,-1291.1999999999998,-2058.7,943.1,-371.9,2025-01-29 10:34:16,0.0
530.3999999999996,-200.4,-939.1999999999998,-1998.7,902.1,-458.9,2025-01-29 10:34:16,0.0
674.3999999999996,-52.4,-1331.1999999999998,-1897.7,1064.1,-514.9,2025-01-29 10:34:16,0.0
670.3999999999996,83.6,-1335.1999999999998,-1937.7,1203.1,-511.9,2025-01-29 10:34:16,0.0
790.3999999999996,143.6,-1599.1999999999998,-1973.7,1432.1,-515.9,2025-01-29 10:34:16,0.0
734.3999999999996,299.6,-1347.1999999999998,-2059.7,1740.1,-667.9,2025-01-29 10:34:16,0.0
430.39999999999964,379.6,-1079.1999999999998,-2150.7,2108.1,-728.9,2025-01-29 10:34:16,0.0
286.39999999999964,291.6,-883.1999999999998,-2337.7,1957.1,-787.9,2025-01-29 10:34:16,0.0
606.3999999999996,231.6,-663.1999999999998,-2483.7,1590.1,-872.9,2025-01-29 10:34:16,0.0
586.3999999999996,-60.4,-383.1999999999998,-2468.7,1367.1,-1043.9,2025-01-29 10:34:16,0.0
606.3999999999996,-456.4,116.80000000000018,-2286.7,1408.1,-1136.9,2025-01-29 10:34:16,0.0
390.39999999999964,-524.4,200.80000000000018,-1924.7,1749.1,-1178.9,2025-01-29 10:34:16,0.0
54.399999999999636,-344.4,-63.19999999999982,-1491.7,2192.1,-998.9,2025-01-29 10:34:16,0.0
-253.60000000000036,-128.4,-803.1999999999998,-1463.7,2661.1,-690.9,2025-01-29 10:34:16,0.0
82.39999999999964,-160.4,-927.1999999999998,-1526.7,2631.1,-640.9,2025-01-29 10:34:16,0.0
170.39999999999964,-204.4,-823.1999999999998,-1425.7,1718.1,-781.9,2025-01-29 10:34:16,0.0
142.39999999999964,-404.4,-555.1999999999998,-1285.7,713.1,-875.9,2025-01-29 10:34:16,0.0
186.39999999999964,-304.4,-639.1999999999998,-1102.7,335.1,-815.9,2025-01-29 10:34:16,0.0
430.39999999999964,-228.4,-615.1999999999998,-1020.7,602.1,-720.9,2025-01-29 10:34:16,0.0
446.39999999999964,-220.4,-839.1999999999998,-1079.7,1164.1,-616.9,2025-01-29 10:34:16,0.0
166.39999999999964,-404.4,-1051.1999999999998,-1142.7,1518.1,-456.9,2025-01-29 10:34:16,0.0
-97.60000000000036,-448.4,-1075.1999999999998,-1144.7,1540.1,-325.9,2025-01-29 10:34:16,0.0
-117.60000000000036,-828.4,-979.1999999999998,-1023.7,1276.1,-221.89999999999998,2025-01-29 10:34:16,0.0
-249.60000000000036,-1236.4,-699.1999999999998,-783.7,775.1,-157.89999999999998,2025-01-29 10:34:16,0.0
-253.60000000000036,-1288.4,-787.1999999999998,-448.7,216.10000000000002,94.10000000000002,2025-01-29 10:34:16,0.0
-109.60000000000036,-1180.4,-807.1999999999998,-195.7,-166.89999999999998,329.1,2025-01-29 10:34:16,0.0
514.3999999999996,-808.4,-795.1999999999998,36.30000000000001,-268.9,411.1,2025-01-29 10:34:16,0.0
810.3999999999996,-632.4,-915.1999999999998,214.3,-111.89999999999998,412.1,2025-01-29 10:34:16,0.0
1094.3999999999996,-608.4,-1115.1999999999998,360.3,113.10000000000002,372.1,2025-01-29 10:34:16,0.0
842.3999999999996,-752.4,-1263.1999999999998,442.3,453.1,354.1,2025-01-29 10:34:17,0.0
514.3999999999996,-656.4,-1163.1999999999998,524.3,618.1,424.1,2025-01-29 10:34:17,0.0
370.39999999999964,-312.4,-1187.1999999999998,479.3,553.1,456.1,2025-01-29 10:34:17,0.0
230.39999999999964,-168.4,-1131.1999999999998,353.3,303.1,497.1,2025-01-29 10:34:17,0.0
354.39999999999964,143.6,-1247.1999999999998,189.3,128.10000000000002,546.1,2025-01-29 10:34:17,0.0
754.3999999999996,83.6,-1387.1999999999998,-13.699999999999989,105.10000000000002,537.1,2025-01-29 10:34:17,0.0
906.3999999999996,-92.4,-1151.1999999999998,-142.7,303.1,416.1,2025-01-29 10:34:17,0.0
694.3999999999996,-252.4,-1067.1999999999998,-118.69999999999999,590.1,378.1,2025-01-29 10:34:17,0.0
714.3999999999996,-204.4,-1283.1999999999998,-112.69999999999999,747.1,340.1,2025-01-29 10:34:17,0.0
514.3999999999996,-84.4,-1195.1999999999998,-179.7,686.1,292.1,2025-01-29 10:34:17,0.0
338.39999999999964,-156.4,-1243.1999999999998,-270.7,495.1,311.1,2025-01-29 10:34:17,0.0
414.39999999999964,-20.4,-1187.1999999999998,-366.7,389.1,348.1,2025-01-29 10:34:17,0.0
638.3999999999996,55.6,-1047.1999999999998,-463.7,322.1,293.1,2025-01-29 10:34:17,0.0
566.3999999999996,67.6,-1031.1999999999998,-516.7,292.1,221.10000000000002,2025-01-29 10:34:17,0.0
594.3999999999996,-60.4,-1087.1999999999998,-529.7,365.1,160.10000000000002,2025-01-29 10:34:17,0.0
534.3999999999996,-172.4,-815.1999999999998,-511.7,454.1,134.10000000000002,2025-01-29 10:34:17,0.0
518.3999999999996,-160.4,-871.1999999999998,-472.7,528.1,135.10000000000002,2025-01-29 10:34:17,0.0
602.3999999999996,-124.4,-1199.1999999999998,-502.7,574.1,102.10000000000002,2025-01-29 10:34:17,0.0
474.39999999999964,-236.4,-1127.1999999999998,-535.7,603.1,138.10000000000002,2025-01-29 10:34:17,0.0
514.3999999999996,-336.4,-1043.1999999999998,-545.7,627.1,169.10000000000002,2025-01-29 10:34:17,0.0
350.39999999999964,-380.4,-1107.1999999999998,-524.7,615.1,179.10000000000002,2025-01-29 10:34:17,0.0
570.3999999999996,-428.4,-823.1999999999998,-520.7,557.1,145.10000000000002,2025-01-29 10:34:17,0.0
318.39999999999964,-488.4,-655.1999999999998,-485.7,559.1,117.10000000000002,2025-01-29 10:34:17,0.0
434.39999999999964,-292.4,-739.1999999999998,-409.7,504.1,143.10000000000002,2025-01-29 10:34:17,0.0
586.3999999999996,-328.4,-979.1999999999998,-390.7,569.1,97.10000000000002,2025-01-29 10:34:17,0.0
546.3999999999996,-356.4,-843.1999999999998,-398.7,620.1,37.10000000000002,2025-01-29 10:34:17,0.0
434.39999999999964,-268.4,-935.1999999999998,-378.7,587.1,13.100000000000023,2025-01-29 10:34:17,0.0
418.39999999999964,-320.4,-1023.1999999999998,-353.7,572.1,31.100000000000023,2025-01-29 10:34:17,0.0
526.3999999999996,-380.4,-1167.1999999999998,-331.7,509.1,76.10000000000002,2025-01-29 10:34:17,0.0
470.39999999999964,-404.4,-1099.1999999999998,-357.7,459.1,133.10000000000002,2025-01-29 10:34:17,0.0
598.3999999999996,-444.4,-859.1999999999998,-362.7,530.1,161.10000000000002,2025-01-29 10:34:17,0.0
626.3999999999996,-656.4,-1131.1999999999998,-344.7,556.1,188.10000000000002,2025-01-29 10:34:17,0.0
374.39999999999964,-632.4,-943.1999999999998,-255.7,668.1,194.10000000000002,2025-01-29 10:34:17,0.0
594.3999999999996,-568.4,-1179.1999999999998,-225.7,624.1,215.10000000000002,2025-01-29 10:34:17,0.0
634.3999999999996,-440.4,-1291.1999999999998,-220.7,670.1,208.10000000000002,2025-01-29 10:34:17,0.0
182.39999999999964,-332.4,-963.1999999999998,-225.7,477.1,219.10000000000002,2025-01-29 10:34:17,0.0
426.39999999999964,-284.4,-1087.1999999999998,-220.7,278.1,251.10000000000002,2025-01-29 10:34:17,0.0
462.39999999999964,-440.4,-1071.1999999999998,-252.7,206.10000000000002,251.10000000000002,2025-01-29 10:34:17,0.0
410.39999999999964,-292.4,-899.1999999999998,-241.7,261.1,224.10000000000002,2025-01-29 10:34:17,0.0
514.3999999999996,-200.4,-783.1999999999998,-230.7,462.1,246.10000000000002,2025-01-29 10:34:17,0.0
394.39999999999964,-224.4,-987.1999999999998,-264.7,560.1,208.10000000000002,2025-01-29 10:34:17,0.0
510.39999999999964,-228.4,-1019.1999999999998,-314.7,549.1,188.10000000000002,2025-01-29 10:34:17,0.0
418.39999999999964,-268.4,-883.1999999999998,-352.7,535.1,203.10000000000002,2025-01-29 10:34:17,0.0
346.39999999999964,-288.4,-719.1999999999998,-352.7,518.1,221.10000000000002,2025-01-29 10:34:17,0.0
482.39999999999964,-280.4,-895.1999999999998,-382.7,506.1,214.10000000000002,2025-01-29 10:34:17,0.0
390.39999999999964,-272.4,-815.1999999999998,-381.7,524.1,236.10000000000002,2025-01-29 10:34:17,0.0
466.39999999999964,-404.4,-1223.1999999999998,-371.7,379.1,236.10000000000002,2025-01-29 10:34:17,0.0
486.39999999999964,-388.4,-1251.1999999999998,-386.7,375.1,260.1,2025-01-29 10:34:17,0.0
630.3999999999996,-372.4,-1027.1999999999998,-367.7,513.1,267.1,2025-01-29 10:34:17,0.0
470.39999999999964,-404.4,-987.1999999999998,-343.7,644.1,286.1,2025-01-29 10:34:17,0.0
482.39999999999964,-252.4,-915.1999999999998,-314.7,687.1,284.1,2025-01-29 10:34:17,0.0
398.39999999999964,-96.4,-883.1999999999998,-391.7,636.1,231.10000000000002,2025-01-29 10:34:17,0.0
502.39999999999964,-296.4,-1011.1999999999998,-360.7,540.1,220.10000000000002,2025-01-29 10:34:17,0.0
446.39999999999964,-324.4,-887.1999999999998,-342.7,522.1,216.10000000000002,2025-01-29 10:34:17,0.0
466.39999999999964,-264.4,-867.1999999999998,-313.7,600.1,224.10000000000002,2025-01-29 10:34:17,0.0
522.3999999999996,-340.4,-787.1999999999998,-314.7,689.1,186.10000000000002,2025-01-29 10:34:17,0.0
554.3999999999996,-244.4,-1075.1999999999998,-354.7,725.1,130.10000000000002,2025-01-29 10:34:17,0.0
450.39999999999964,-352.4,-875.1999999999998,-405.7,748.1,136.10000000000002,2025-01-29 10:34:17,0.0
378.39999999999964,-312.4,-859.1999999999998,-398.7,730.1,165.10000000000002,2025-01-29 10:34:17,0.0
494.39999999999964,-248.4,-907.1999999999998,-425.7,668.1,155.10000000000002,2025-01-29 10:34:17,0.0
394.39999999999964,-264.4,-927.1999999999998,-466.7,579.1,107.10000000000002,2025-01-29 10:34:17,0.0
414.39999999999964,-352.4,-1103.1999999999998,-465.7,477.1,105.10000000000002,2025-01-29 10:34:18,0.0
490.39999999999964,-348.4,-983.1999999999998,-443.7,462.1,125.10000000000002,2025-01-29 10:34:18,0.0
458.39999999999964,-448.4,-715.1999999999998,-393.7,481.1,132.10000000000002,2025-01-29 10:34:18,
558.3999999999996,-496.4,-967.1999999999998,-381.7,565.1,155.10000000000002,2025-01-29 10:34:18,0.0
482.39999999999964,-560.4,-935.1999999999998,-316.7,612.1,178.10000000000002,2025-01-29 10:34:18,0.0
350.39999999999964,-500.4,-871.1999999999998,-305.7,622.1,214.10000000000002,2025-01-29 10:34:18,0.0
606.3999999999996,-404.4,-891.1999999999998,-275.7,642.1,221.10000000000002,2025-01-29 10:34:18,0.0
466.39999999999964,-360.4,-887.1999999999998,-240.7,605.1,232.10000000000002,2025-01-29 10:34:18,0.0
510.39999999999964,-360.4,-979.1999999999998,-232.7,608.1,238.10000000000002,2025-01-29 10:34:18,0.0
466.39999999999964,-368.4,-915.1999999999998,-165.7,617.1,266.1,2025-01-29 10:34:18,0.0
478.39999999999964,-364.4,-935.1999999999998,-165.7,653.1,310.1,2025-01-29 10:34:18,0.0
558.3999999999996,-424.4,-1031.1999999999998,-150.7,594.1,259.1,2025-01-29 10:34:18,0.0
514.3999999999996,-368.4,-1007.1999999999998,-157.7,579.1,309.1,2025-01-29 10:34:18,0.0
634.3999999999996,-440.4,-1091.1999999999998,-167.7,626.1,357.1,2025-01-29 10:34:18,0.0
494.39999999999964,-384.4,-1095.1999999999998,-150.7,698.1,429.1,2025-01-29 10:34:18,0.0
454.39999999999964,-456.4,-1159.1999999999998,-76.69999999999999,774.1,448.1,2025-01-29 10:34:18,0.0
414.39999999999964,-496.4,-1207.1999999999998,-36.69999999999999,795.1,490.1,2025-01-29 10:34:18,0.0
414.39999999999964,-568.4,-1199.1999999999998,69.30000000000001,811.1,535.1,2025-01-29 10:34:18,0.0
362.39999999999964,-616.4,-911.1999999999998,239.3,735.1,588.1,2025-01-29 10:34:18,0.0
458.39999999999964,-564.4,-959.1999999999998,427.3,719.1,534.1,2025-01-29 10:34:18,0.0
338.39999999999964,-636.4,-1075.1999999999998,678.3,531.1,597.1,2025-01-29 10:34:18,0.0
326.39999999999964,-768.4,-1219.1999999999998,954.3,575.1,609.1,2025-01-29 10:34:18,0.0
354.39999999999964,-580.4,-1627.1999999999998,1203.3,614.1,543.1,2025-01-29 10:34:18,0.0
270.39999999999964,-192.4,-1679.1999999999998,1201.3,411.1,439.1,2025-01-29 10:34:18,0.0
-49.600000000000364,-356.4,-1355.1999999999998,1187.3,51.10000000000002,388.1,2025-01-29 10:34:18,0.0
-385.60000000000036,-68.4,-843.1999999999998,1291.3,-617.9,517.1,2025-01-29 10:34:18,0.0
-49.600000000000364,427.6,-419.1999999999998,1272.3,-1174.9,637.1,2025-01-29 10:34:18,0.0
234.39999999999964,715.6,-367.1999999999998,1234.3,-1390.9,546.1,2025-01-29 10:34:18,0.0
398.39999999999964,839.6,-491.1999999999998,1134.3,-1441.9,411.1,2025-01-29 10:34:18,0.0
642.3999999999996,691.6,-295.1999999999998,1079.3,-1207.9,161.10000000000002,2025-01-29 10:34:18,0.0
370.39999999999964,623.6,80.80000000000018,1094.3,-846.9,60.10000000000002,2025-01-29 10:34:18,0.0
238.39999999999964,539.6,-103.19999999999982,1133.3,-631.9,59.10000000000002,2025-01-29 10:34:18,0.0
370.39999999999964,559.6,-119.19999999999982,995.3,-433.9,-32.89999999999998,2025-01-29 10:34:18,0.0
466.39999999999964,599.6,-203.19999999999982,848.3,-279.9,-241.89999999999998,2025-01-29 10:34:18,0.0
390.39999999999964,423.6,-271.1999999999998,748.3,-129.89999999999998,-462.9,2025-01-29 10:34:18,0.0
322.39999999999964,227.6,-327.1999999999998,680.3,-54.89999999999998,-619.9,2025-01-29 10:34:18,0.0
146.39999999999964,-72.4,-367.1999999999998,670.3,23.100000000000023,-731.9,2025-01-29 10:34:18,0.0
-89.60000000000036,11.6,-507.1999999999998,812.3,-29.899999999999977,-859.9,2025-01-29 10:34:18,0.0
-69.60000000000036,-56.4,-743.1999999999998,701.3,-194.89999999999998,-1040.9,2025-01-29 10:34:18,0.0
-65.60000000000036,-172.4,-767.1999999999998,695.3,-416.9,-1242.9,2025-01-29 10:34:18,0.0
38.399999999999636,-452.4,-923.1999999999998,814.3,-709.9,-1369.9,2025-01-29 10:34:18,0.0
382.39999999999964,-880.4,-459.1999999999998,947.3,-671.9,-1714.9,2025-01-29 10:34:18,0.0
606.3999999999996,-1312.4,-603.1999999999998,1240.3,-384.9,-1981.9,2025-01-29 10:34:18,0.0
734.3999999999996,-1524.4,-339.1999999999998,1537.3,117.10000000000002,-2050.9,2025-01-29 10:34:18,0.0
582.3999999999996,-1820.4,-523.1999999999998,1756.3,480.1,-1946.9,2025-01-29 10:34:18,0.0
718.3999999999996,-2252.4,32.80000000000018,1659.3,675.1,-1719.9,2025-01-29 10:34:18,0.0
622.3999999999996,-2632.4,436.8000000000002,1585.3,922.1,-1683.9,2025-01-29 10:34:18,0.0
226.39999999999964,-2512.4,176.80000000000018,1350.3,1201.1,-1498.9,2025-01-29 10:34:18,0.0
94.39999999999964,-2240.4,-183.19999999999982,934.3,1469.1,-1399.9,2025-01-29 10:34:18,0.0
-193.60000000000036,-1944.4,-211.19999999999982,432.3,1588.1,-1412.9,2025-01-29 10:34:18,0.0
-317.60000000000036,-1652.4,260.8000000000002,-53.69999999999999,1527.1,-1655.9,2025-01-29 10:34:18,0.0
-585.6000000000004,-1400.4,580.8000000000002,-510.7,1458.1,-2173.9,2025-01-29 10:34:18,0.0
-569.6000000000004,-1568.4,208.80000000000018,-1001.7,1163.1,-2912.9,2025-01-29 10:34:18,0.0
-1161.6000000000004,-1948.4,192.80000000000018,-1419.7,351.1,-3223.9,2025-01-29 10:34:18,0.0
-1053.6000000000004,-2400.4,632.8000000000002,-1662.7,-553.9,-2941.9,2025-01-29 10:34:18,0.0
-221.60000000000036,-3020.4,684.8000000000002,-1701.7,-936.9,-2538.9,2025-01-29 10:34:18,0.0
606.3999999999996,-3624.4,812.8000000000002,-1577.7,-641.9,-2173.9,2025-01-29 10:34:18,0.0
742.3999999999996,-3748.4,1524.8000000000002,-1423.7,38.10000000000002,-1856.9,2025-01-29 10:34:18,0.0
890.3999999999996,-3716.4,1436.8000000000002,-1189.7,869.1,-1494.9,2025-01-29 10:34:18,0.0
914.3999999999996,-3436.4,1344.8000000000002,-1028.7,1492.1,-1233.9,2025-01-29 10:34:18,0.0
270.39999999999964,-3096.4,1048.8000000000002,-1021.7,1783.1,-1013.9,2025-01-29 10:34:18,0.0
-185.60000000000036,-2852.4,964.8000000000002,-1045.7,1681.1,-787.9,2025-01-29 10:34:18,0.0
-449.60000000000036,-2736.4,628.8000000000002,-1186.7,1312.1,-445.9,2025-01-29 10:34:19,0.0
-341.60000000000036,-2772.4,648.8000000000002,-1348.7,1003.1,-138.89999999999998,2025-01-29 10:34:19,0.0
30.399999999999636,-2776.4,552.8000000000002,-1579.7,979.1,-22.899999999999977,2025-01-29 10:34:19,0.0
442.39999999999964,-2468.4,356.8000000000002,-1766.7,1122.1,-29.899999999999977,2025-01-29 10:34:19,0.0
178.39999999999964,-2028.4,484.8000000000002,-2158.7,1447.1,-157.89999999999998,2025-01-29 10:34:19,0.0
-21.600000000000364,-1684.4,684.8000000000002,-2561.7,1799.1,-310.9,2025-01-29 10:34:19,0.0
-205.60000000000036,-1600.4,736.8000000000002,-3034.7,1833.1,-498.9,2025-01-29 10:34:19,0.0
-865.6000000000004,-1568.4,736.8000000000002,-3479.7,1538.1,-677.9,2025-01-29 10:34:19,0.0
-1129.6000000000004,-1320.4,584.8000000000002,-3811.7,959.1,-647.9,2025-01-29 10:34:19,0.0
-821.6000000000004,-1884.4,456.8000000000002,-4223.7,344.1,-627.9,2025-01-29 10:34:19,0.0
178.39999999999964,-3772.4,1032.8000000000002,-4045.7,826.1,-1122.9,2025-01-29 10:34:19,0.0
-281.60000000000036,-3436.4,776.8000000000002,-3885.7,1158.1,-1398.9,2025-01-29 10:34:19,0.0
-845.6000000000004,-2704.4,252.80000000000018,-4033.7,1276.1,-1713.9,2025-01-29 10:34:19,0.0
-1205.6000000000004,-1968.4,52.80000000000018,-4429.7,943.1,-1969.9,2025-01-29 10:34:19,0.0
-1241.6000000000004,-1432.4,-31.199999999999818,-5000.7,345.1,-2304.9,2025-01-29 10:34:19,0.0
-933.6000000000004,-1600.4,-175.19999999999982,-5852.7,-141.89999999999998,-2689.9,2025-01-29 10:34:19,0.0
-589.6000000000004,-2408.4,-259.1999999999998,-6416.7,-52.89999999999998,-2787.9,2025-01-29 10:34:19,0.0
-477.60000000000036,-2996.4,368.8000000000002,-6701.7,339.1,-2797.9,2025-01-29 10:34:19,0.0
-393.60000000000036,-3956.4,868.8000000000002,-6853.7,823.1,-2900.9,2025-01-29 10:34:19,0.0
-1509.6000000000004,-4508.4,1308.8000000000002,-6874.7,1090.1,-2629.9,2025-01-29 10:34:19,0.0
-1521.6000000000004,-4576.4,348.8000000000002,-6694.7,1120.1,-2158.9,2025-01-29 10:34:19,0.0
-1565.6000000000004,-4260.4,-1435.1999999999998,-6141.7,1259.1,-2243.9,2025-01-29 10:34:19,0.0
-2453.6000000000004,-5320.4,-1035.1999999999998,-5374.7,1723.1,-2283.9,2025-01-29 10:34:19,0.0
-2749.6000000000004,-6444.4,288.8000000000002,-3803.7,1197.1,-2086.9,2025-01-29 10:34:19,0.0
-3401.6000000000004,-7284.4,580.8000000000002,-2125.7,38.10000000000002,-1488.9,2025-01-29 10:34:19,0.0
-4165.6,-6644.4,-211.19999999999982,-1168.7,-1190.9,34.10000000000002,2025-01-29 10:34:19,0.0
-1989.6000000000004,-3640.4,-2143.2,-1047.7,-1996.9,2270.1,2025-01-29 10:34:19,0.0
146.39999999999964,-1332.4,-3863.2,-1808.7,-1956.9,2454.1,2025-01-29 10:34:19,0.0
410.39999999999964,203.6,-4243.2,-3065.7,-1911.9,2697.1,2025-01-29 10:34:19,0.0
1198.3999999999996,659.6,-3779.2,-4085.7,-1931.9,3021.1,2025-01-29 10:34:19,0.0
2542.3999999999996,459.6,-2831.2,-4292.7,-2395.9,2606.1,2025-01-29 10:34:19,0.0
3466.3999999999996,355.6,-1711.1999999999998,-3827.7,-2914.9,1714.1,2025-01-29 10:34:19,0.0
3638.3999999999996,427.6,-783.1999999999998,-3118.7,-2690.9,772.1,2025-01-29 10:34:19,0.0
3626.3999999999996,503.6,-955.1999999999998,-2702.7,-1854.9,154.10000000000002,2025-01-29 10:34:19,0.0
2822.3999999999996,175.6,-935.1999999999998,-2694.7,-489.9,-64.89999999999998,2025-01-29 10:34:19,0.0
1862.3999999999996,-172.4,-1383.1999999999998,-2754.7,1294.1,236.10000000000002,2025-01-29 10:34:19,0.0
958.3999999999996,-516.4,-1427.1999999999998,-2909.7,2617.1,624.1,2025-01-29 10:34:19,0.0
-529.6000000000004,-976.4,-1783.1999999999998,-2667.7,2799.1,1201.1,2025-01-29 10:34:19,0.0
-1169.6000000000004,-1092.4,-1051.1999999999998,-2382.7,1375.1,1890.1,2025-01-29 10:34:19,0.0
-1441.6000000000004,-1136.4,-239.19999999999982,-1728.7,-628.9,2635.1,2025-01-29 10:34:19,0.0
-777.6000000000004,-808.4,516.8000000000002,-1021.7,-2428.9,3010.1,2025-01-29 10:34:19,
426.39999999999964,-544.4,-107.19999999999982,-324.7,-3365.9,3128.1,2025-01-29 10:34:19,0.0
1350.3999999999996,-348.4,-131.19999999999982,135.3,-3539.9,3377.1,2025-01-29 10:34:19,0.0
2458.3999999999996,-220.4,104.80000000000018,658.3,-2805.9,3529.1,2025-01-29 10:34:19,0.0
2554.3999999999996,363.6,384.8000000000002,1113.3,-1593.9,3570.1,2025-01-29 10:34:19,0.0
2326.3999999999996,919.6,300.8000000000002,1448.3,-37.89999999999998,3613.1,2025-01-29 10:34:19,0.0
1902.3999999999996,1199.6,-131.19999999999982,1579.3,1194.1,3536.1,2025-01-29 10:34:19,0.0
1014.3999999999996,1423.6,-243.19999999999982,1637.3,1828.1,3386.1,2025-01-29 10:34:19,0.0
150.39999999999964,1407.6,224.80000000000018,1601.3,1639.1,3138.1,2025-01-29 10:34:19,0.0
138.39999999999964,979.6,-139.19999999999982,1537.3,757.1,3036.1,2025-01-29 10:34:19,0.0
6.399999999999636,907.6,-95.19999999999982,1567.3,119.10000000000002,2929.1,2025-01-29 10:34:19,0.0
402.39999999999964,647.6,-263.1999999999998,1610.3,-1.8999999999999773,2897.1,2025-01-29 10:34:19,0.0
854.3999999999996,643.6,-291.1999999999998,1718.3,15.100000000000023,2877.1,2025-01-29 10:34:19,0.0
758.3999999999996,963.6,-71.19999999999982,1843.3,260.1,2884.1,2025-01-29 10:34:19,0.0
798.3999999999996,1099.6,-115.19999999999982,1893.3,677.1,2869.1,2025-01-29 10:34:19,0.0
782.3999999999996,1143.6,240.80000000000018,1897.3,744.1,2711.1,2025-01-29 10:34:19,0.0
606.3999999999996,1435.6,412.8000000000002,1928.3,622.1,2414.1,2025-01-29 10:34:19,0.0
606.3999999999996,1911.6,560.8000000000002,1923.3,567.1,1993.1,2025-01-29 10:34:19,0.0
610.3999999999996,2287.6,340.8000000000002,1937.3,424.1,1492.1,2025-01-29 10:34:20,0.0
970.3999999999996,2387.6,436.8000000000002,1767.3,268.1,847.1,2025-01-29 10:34:20,0.0
622.3999999999996,1699.6,1172.8000000000002,1773.3,344.1,302.1,2025-01-29 10:34:20,0.0
694.3999999999996,923.6,1288.8000000000002,1867.3,337.1,208.10000000000002,2025-01-29 10:34:20,0.0
1454.3999999999996,471.6,1612.8000000000002,2048.3,160.10000000000002,14.100000000000023,2025-01-29 10:34:20,0.0
1514.3999999999996,771.6,1400.8000000000002,2428.3,468.1,-399.9,2025-01-29 10:34:20,0.0
950.3999999999996,1431.6,1192.8000000000002,2476.3,1224.1,-487.9,2025-01-29 10:34:20,0.0
314.39999999999964,1679.6,368.8000000000002,2382.3,2058.1,-466.9,2025-01-29 10:34:20,0.0
-621.6000000000004,1223.6,172.80000000000018,2099.3,2559.1,-347.9,2025-01-29 10:34:20,0.0
-1161.6000000000004,395.6,532.8000000000002,1994.3,2409.1,89.10000000000002,2025-01-29 10:34:20,0.0
-1793.6000000000004,-432.4,1020.8000000000002,2214.3,1929.1,653.1,2025-01-29 10:34:20,0.0
-1769.6000000000004,-848.4,1220.8000000000002,2500.3,1717.1,1137.1,2025-01-29 10:34:20,0.0
-1649.6000000000004,-948.4,964.8000000000002,3009.3,1861.1,1329.1,2025-01-29 10:34:20,0.0
-1965.6000000000004,-748.4,980.8000000000002,3518.3,2033.1,1361.1,2025-01-29 10:34:20,0.0
-2429.6000000000004,-536.4,1340.8000000000002,4052.3,2084.1,1767.1,2025-01-29 10:34:20,0.0
-2137.6000000000004,-504.4,1348.8000000000002,4216.3,1674.1,2063.1,2025-01-29 10:34:20,0.0
-2441.6000000000004,-332.4,976.8000000000002,4362.3,1853.1,2440.1,2025-01-29 10:34:20,0.0
-2309.6000000000004,-444.4,-535.1999999999998,4028.3,2887.1,3110.1,2025-01-29 10:34:20,0.0
-1893.6000000000004,-84.4,-1815.1999999999998,3595.3,3808.1,3359.1,2025-01-29 10:34:20,0.0
-2241.6000000000004,1579.6,-3699.2,2799.3,4527.1,3234.1,2025-01-29 10:34:20,0.0
-2757.6000000000004,3027.6,-5631.2,1631.3,5247.1,3225.1,2025-01-29 10:34:20,0.0
-2889.6000000000004,3839.6,-5963.2,111.30000000000001,4808.1,2885.1,2025-01-29 10:34:20,0.0
-2725.6000000000004,3683.6,-4575.2,-1259.7,2450.1,1606.1,2025-01-29 10:34:20,0.0
-2169.6000000000004,2907.6,-3743.2,-1728.7,-990.9,132.10000000000002,2025-01-29 10:34:20,0.0
-1837.6000000000004,1667.6,-3971.2,-2205.7,-3279.9,-530.9,2025-01-29 10:34:20,0.0
-5.600000000000364,663.6,-2199.2,-2298.7,-4852.9,-680.9,2025-01-29 10:34:20,0.0
3002.3999999999996,-104.4,84.80000000000018,-1253.7,-6451.9,-980.9,2025-01-29 10:34:20,0.0
4710.4,-600.4,196.80000000000018,-216.7,-6567.9,-1068.9,2025-01-29 10:34:20,0.0
5814.4,-1444.4,-155.19999999999982,483.3,-5407.9,-957.9,2025-01-29 10:34:20,0.0
5810.4,-1876.4,-723.1999999999998,964.3,-2140.9,-649.9,2025-01-29 10:34:20,0.0
5530.4,-1964.4,-2047.1999999999998,1615.3,3050.1,-408.9,2025-01-29 10:34:20,0.0
4294.4,-1392.4,-2715.2,2033.3,6194.1,-880.9,2025-01-29 10:34:20,0.0
1910.3999999999996,-748.4,-2659.2,2086.3,6762.1,-964.9,2025-01-29 10:34:20,0.0
746.3999999999996,-192.4,-2751.2,1966.3,5828.1,-685.9,2025-01-29 10:34:20,0.0
310.39999999999964,239.6,-2739.2,1428.3,4418.1,-677.9,2025-01-29 10:34:20,0.0
458.39999999999964,251.6,-2891.2,665.3,1827.1,-1310.9,2025-01-29 10:34:20,0.0
102.39999999999964,-184.4,-2871.2,49.30000000000001,-205.89999999999998,-1942.9,2025-01-29 10:34:20,0.0
346.39999999999964,-904.4,-2867.2,-145.7,-1309.9,-2278.9,2025-01-29 10:34:20,0.0
962.3999999999996,-1192.4,-2519.2,-212.7,-2089.9,-2552.9,2025-01-29 10:34:20,0.0
1434.3999999999996,-1280.4,-1835.1999999999998,-372.7,-2452.9,-2786.9,2025-01-29 10:34:20,0.0
2174.3999999999996,-992.4,-1683.1999999999998,-632.7,-2286.9,-3073.9,2025-01-29 10:34:20,0.0
2266.3999999999996,-788.4,-1587.1999999999998,-1199.7,-1199.9,-3299.9,2025-01-29 10:34:20,0.0
2338.3999999999996,-1064.4,-907.1999999999998,-1764.7,69.10000000000002,-3348.9,2025-01-29 10:34:20,0.0
2366.3999999999996,-1448.4,-699.1999999999998,-2035.7,822.1,-3563.9,2025-01-29 10:34:20,0.0
2122.3999999999996,-1840.4,-307.1999999999998,-2208.7,1189.1,-3876.9,2025-01-29 10:34:20,0.0
1666.3999999999996,-1872.4,-411.1999999999998,-2384.7,1305.1,-4013.9,2025-01-29 10:34:20,0.0
1350.3999999999996,-2008.4,-547.1999999999998,-2598.7,1447.1,-3991.9,2025-01-29 10:34:20,0.0
1002.3999999999996,-2120.4,-695.1999999999998,-2796.7,1336.1,-3875.9,2025-01-29 10:34:20,0.0
946.3999999999996,-2276.4,-583.1999999999998,-3010.7,1025.1,-3708.9,2025-01-29 10:34:20,0.0
850.3999999999996,-2500.4,-607.1999999999998,-3131.7,879.1,-3412.9,2025-01-29 10:34:20,0.0
662.3999999999996,-2256.4,-423.1999999999998,-3152.7,942.1,-2910.9,2025-01-29 10:34:20,0.0
938.3999999999996,-2012.4,-403.1999999999998,-3199.7,1338.1,-2484.9,2025-01-29 10:34:20,0.0
990.3999999999996,-1876.4,-591.1999999999998,-3297.7,1738.1,-2221.9,2025-01-29 10:34:20,0.0
966.3999999999996,-1832.4,-367.1999999999998,-3466.7,1740.1,-2032.9,2025-01-29 10:34:20,0.0
630.3999999999996,-1824.4,-167.19999999999982,-3724.7,1735.1,-1766.9,2025-01-29 10:34:20,0.0
170.39999999999964,-1824.4,-131.19999999999982,-3841.7,1583.1,-1445.9,2025-01-29 10:34:20,0.0
-473.60000000000036,-1840.4,140.80000000000018,-4001.7,1047.1,-943.9,2025-01-29 10:34:20,0.0
-133.60000000000036,-2220.4,556.8000000000002,-3848.7,393.1,-673.9,2025-01-29 10:34:20,0.0
74.39999999999964,-2204.4,372.8000000000002,-3682.7,-26.899999999999977,-848.9,2025-01-29 10:34:20,0.0
42.399999999999636,-1840.4,32.80000000000018,-3728.7,-316.9,-833.9,2025-01-29 10:34:20,0.0
138.39999999999964,-1844.4,72.80000000000018,-3765.7,-342.9,-980.9,2025-01-29 10:34:21,0.0
190.39999999999964,-1480.4,-35.19999999999982,-3818.7,-238.89999999999998,-1149.9,2025-01-29 10:34:21,0.0
-133.60000000000036,-944.4,-207.19999999999982,-3991.7,-35.89999999999998,-1272.9,2025-01-29 10:34:21,0.0
58.399999999999636,-764.4,-219.19999999999982,-4370.7,260.1,-1407.9,2025-01-29 10:34:21,0.0
618.3999999999996,-1076.4,-399.1999999999998,-4669.7,461.1,-1859.9,2025-01-29 10:34:21,0.0
666.3999999999996,-1568.4,-371.1999999999998,-4911.7,664.1,-2342.9,2025-01-29 10:34:21,0.0
634.3999999999996,-2044.4,-39.19999999999982,-5009.7,1172.1,-3020.9,2025-01-29 10:34:21,0.0
-265.60000000000036,-2096.4,488.8000000000002,-4928.7,1839.1,-3447.9,2025-01-29 10:34:21,0.0
-1421.6000000000004,-2416.4,1060.8000000000002,-4914.7,2171.1,-3374.9,2025-01-29 10:34:21,0.0
-2421.6000000000004,-2596.4,1308.8000000000002,-4876.7,2252.1,-2824.9,2025-01-29 10:34:21,0.0
-2661.6000000000004,-3596.4,628.8000000000002,-4501.7,2380.1,-2227.9,2025-01-29 10:34:21,0.0
-2413.6000000000004,-4484.4,-1367.1999999999998,-3505.7,2771.1,-2053.9,2025-01-29 10:34:21,0.0
-2601.6000000000004,-5692.4,-1939.1999999999998,-2119.7,3258.1,-2293.9,2025-01-29 10:34:21,0.0
-3345.6000000000004,-6640.4,-1487.1999999999998,305.3,3056.1,-2600.9,2025-01-29 10:34:21,0.0
-4557.6,-6428.4,-2051.2,2595.3,781.1,-2062.9,2025-01-29 10:34:21,0.0
-5625.6,-4760.4,-3963.2,3196.3,-3739.9,456.1,2025-01-29 10:34:21,0.0
-3197.6000000000004,-3968.4,-3843.2,3018.3,-5487.9,2963.1,2025-01-29 10:34:21,0.0
-313.60000000000036,-3048.4,-3931.2,2184.3,-5319.9,4050.1,2025-01-29 10:34:21,0.0
2042.3999999999996,-2264.4,-3203.2,1066.3,-5172.9,4591.1,2025-01-29 10:34:21,0.0
3818.3999999999996,-1796.4,-2703.2,421.3,-5066.9,4792.1,2025-01-29 10:34:21,0.0
5306.4,-1092.4,-2207.2,331.3,-4076.9,4646.1,2025-01-29 10:34:21,0.0
6306.4,-648.4,-2635.2,307.3,-1761.9,3903.1,2025-01-29 10:34:21,0.0
6034.4,623.6,-3071.2,241.3,2137.1,2379.1,2025-01-29 10:34:21,
3878.3999999999996,2235.6,-3707.2,-256.7,4210.1,1200.1,2025-01-29 10:34:21,0.0
1210.3999999999996,2983.6,-4251.2,-1665.7,4286.1,793.1,2025-01-29 10:34:21,0.0
-745.6000000000004,2319.6,-4187.2,-3219.7,2869.1,1055.1,2025-01-29 10:34:21,0.0
-1185.6000000000004,867.6,-3731.2,-3912.7,1056.1,1525.1,2025-01-29 10:34:21,0.0
-637.6000000000004,-232.4,-2983.2,-4042.7,-769.9,1706.1,2025-01-29 10:34:21,0.0
206.39999999999964,-1252.4,-1863.1999999999998,-3811.7,-2268.9,1563.1,2025-01-29 10:34:21,0.0
1014.3999999999996,-1940.4,-887.1999999999998,-3167.7,-3062.9,1447.1,2025-01-29 10:34:21,0.0
1690.3999999999996,-2004.4,-423.1999999999998,-2435.7,-3194.9,1609.1,2025-01-29 10:34:21,0.0
2338.3999999999996,-1888.4,-191.19999999999982,-1777.7,-2311.9,2002.1,2025-01-29 10:34:21,0.0
2346.3999999999996,-1064.4,836.8000000000002,-1238.7,-998.9,2481.1,2025-01-29 10:34:21,0.0
2058.3999999999996,219.6,712.8000000000002,-763.7,12.100000000000023,3020.1,2025-01-29 10:34:21,0.0
2018.3999999999996,1179.6,-63.19999999999982,-600.7,939.1,3423.1,2025-01-29 10:34:21,0.0
1722.3999999999996,1471.6,-495.1999999999998,-569.7,1672.1,3275.1,2025-01-29 10:34:21,0.0
1294.3999999999996,995.6,-703.1999999999998,-597.7,1809.1,2854.1,2025-01-29 10:34:21,0.0
518.3999999999996,259.6,-331.1999999999998,-532.7,1339.1,2453.1,2025-01-29 10:34:21,0.0
66.39999999999964,-44.4,-75.19999999999982,-358.7,342.1,2322.1,2025-01-29 10:34:21,0.0
-97.60000000000036,43.6,256.8000000000002,-277.7,-637.9,2336.1,2025-01-29 10:34:21,0.0
410.39999999999964,331.6,276.8000000000002,-141.7,-1416.9,2356.1,2025-01-29 10:34:21,0.0
678.3999999999996,651.6,328.8000000000002,-67.69999999999999,-1364.9,2301.1,2025-01-29 10:34:21,0.0
1086.3999999999996,939.6,428.8000000000002,-80.69999999999999,-892.9,2176.1,2025-01-29 10:34:21,0.0
1086.3999999999996,1027.6,480.8000000000002,18.30000000000001,-261.9,2028.1,2025-01-29 10:34:21,0.0
882.3999999999996,815.6,680.8000000000002,256.3,137.10000000000002,1928.1,2025-01-29 10:34:21,0.0
882.3999999999996,379.6,820.8000000000002,727.3,411.1,1769.1,2025-01-29 10:34:21,0.0
574.3999999999996,311.6,988.8000000000002,1277.3,421.1,1599.1,2025-01-29 10:34:21,0.0
98.39999999999964,635.6,928.8000000000002,1772.3,175.10000000000002,1614.1,2025-01-29 10:34:21,0.0
478.39999999999964,771.6,1104.8000000000002,2316.3,-190.89999999999998,1501.1,2025-01-29 10:34:21,0.0
118.39999999999964,419.6,1624.8000000000002,2738.3,-500.9,1376.1,2025-01-29 10:34:21,0.0
310.39999999999964,531.6,1576.8000000000002,3047.3,-405.9,1479.1,2025-01-29 10:34:21,0.0
722.3999999999996,971.6,1512.8000000000002,3164.3,-292.9,1562.1,2025-01-29 10:34:21,0.0
1214.3999999999996,1299.6,1128.8000000000002,3200.3,196.10000000000002,1485.1,2025-01-29 10:34:21,0.0
1478.3999999999996,1363.6,820.8000000000002,3166.3,788.1,1271.1,2025-01-29 10:34:21,0.0
1306.3999999999996,1483.6,644.8000000000002,3183.3,1293.1,1026.1,2025-01-29 10:34:21,0.0
1074.3999999999996,1395.6,368.8000000000002,3070.3,2031.1,812.1,2025-01-29 10:34:21,0.0
-141.60000000000036,1127.6,436.8000000000002,2939.3,2707.1,403.1,2025-01-29 10:34:21,0.0
-1169.6000000000004,635.6,708.8000000000002,2945.3,2721.1,514.1,2025-01-29 10:34:21,0.0
-1757.6000000000004,539.6,472.8000000000002,2882.3,2137.1,711.1,2025-01-29 10:34:21,0.0
-2161.6000000000004,739.6,512.8000000000002,2823.3,1484.1,793.1,2025-01-29 10:34:21,0.0
-2569.6000000000004,1211.6,300.8000000000002,2835.3,1021.1,883.1,2025-01-29 10:34:21,0.0
-2465.6000000000004,967.6,520.8000000000002,2794.3,547.1,901.1,2025-01-29 10:34:22,0.0
-2689.6000000000004,59.6,1184.8000000000002,2886.3,133.10000000000002,1137.1,2025-01-29 10:34:22,0.0
-2401.6000000000004,-524.4,2008.8000000000002,3041.3,-33.89999999999998,1459.1,2025-01-29 10:34:22,0.0
-2365.6000000000004,-448.4,1744.8000000000002,3339.3,244.10000000000002,1652.1,2025-01-29 10:34:22,0.0
-2501.6000000000004,-1416.4,-675.1999999999998,3267.3,2302.1,2490.1,2025-01-29 10:34:22,0.0
-2241.6000000000004,-836.4,-2387.2,3215.3,4034.1,2995.1,2025-01-29 10:34:22,0.0
-3161.6000000000004,1087.6,-4747.2,2359.3,5068.1,3012.1,2025-01-29 10:34:22,0.0
-3773.6000000000004,2831.6,-6575.2,911.3,4356.1,3171.1,2025-01-29 10:34:22,0.0
-3377.6000000000004,4347.6,-6959.2,-762.7,1762.1,2955.1,2025-01-29 10:34:22,0.0
-2193.6000000000004,3967.6,-5539.2,-2060.7,-1602.9,2002.1,2025-01-29 10:34:22,0.0
-1097.6000000000004,1763.6,-3503.2,-2557.7,-4509.9,1147.1,2025-01-29 10:34:22,0.0
1210.3999999999996,-80.4,-1183.1999999999998,-2163.7,-6710.9,938.1,2025-01-29 10:34:22,0.0
4838.4,-1148.4,592.8000000000002,-664.7,-7979.9,402.1,2025-01-29 10:34:22,0.0
6514.4,-1932.4,1008.8000000000002,755.3,-7677.9,-317.9,2025-01-29 10:34:22,0.0
6982.4,-2776.4,116.80000000000018,1763.3,-4487.9,-802.9,2025-01-29 10:34:22,0.0
6002.4,-2628.4,-799.1999999999998,2328.3,1071.1,-830.9,2025-01-29 10:34:22,0.0
4766.4,-1648.4,-1611.1999999999998,2711.3,6867.1,-700.9,2025-01-29 10:34:22,0.0
2646.3999999999996,-764.4,-2335.2,2498.3,9028.1,-467.9,2025-01-29 10:34:22,0.0
734.3999999999996,-380.4,-2479.2,2036.3,9116.1,-261.9,2025-01-29 10:34:22,0.0
-277.60000000000036,-124.4,-2515.2,1542.3,7382.1,-329.9,2025-01-29 10:34:22,0.0
-1189.6000000000004,235.6,-2983.2,1017.3,3901.1,-856.9,2025-01-29 10:34:22,0.0
-1213.6000000000004,67.6,-3615.2,562.3,708.1,-1669.9,2025-01-29 10:34:22,0.0
-1145.6000000000004,-352.4,-3151.2,288.3,-2505.9,-2170.9,2025-01-29 10:34:22,0.0
-73.60000000000036,-592.4,-2555.2,176.3,-4360.9,-2116.9,2025-01-29 10:34:22,0.0
1254.3999999999996,-476.4,-1371.1999999999998,-27.69999999999999,-5054.9,-2015.9,2025-01-29 10:34:22,0.0
2866.3999999999996,-868.4,-799.1999999999998,-217.7,-4443.9,-2201.9,2025-01-29 10:34:22,0.0
3490.3999999999996,-1080.4,-119.19999999999982,-391.7,-2870.9,-2536.9,2025-01-29 10:34:22,0.0
3294.3999999999996,-1536.4,540.8000000000002,-513.7,-813.9,-2731.9,2025-01-29 10:34:22,0.0
2714.3999999999996,-1920.4,752.8000000000002,-548.7,1131.1,-2586.9,2025-01-29 10:34:22,0.0
2302.3999999999996,-1636.4,280.8000000000002,-548.7,2495.1,-2416.9,2025-01-29 10:34:22,0.0
1374.3999999999996,-1524.4,500.8000000000002,-645.7,2952.1,-2409.9,2025-01-29 10:34:22,0.0
-409.60000000000036,-1852.4,-83.19999999999982,-1089.7,955.1,-1645.9,2025-01-29 10:34:22,0.0
-41.600000000000364,-1656.4,32.80000000000018,-1212.7,332.1,-1288.9,2025-01-29 10:34:22,0.0
622.3999999999996,-1468.4,-303.1999999999998,-1374.7,314.1,-1166.9,2025-01-29 10:34:22,0.0
878.3999999999996,-1280.4,-247.19999999999982,-1686.7,676.1,-1154.9,2025-01-29 10:34:22,0.0
1278.3999999999996,-1256.4,116.80000000000018,-1815.7,1093.1,-1109.9,2025-01-29 10:34:22,0.0
1430.3999999999996,-1260.4,-127.19999999999982,-1887.7,1686.1,-1065.9,2025-01-29 10:34:22,0.0
946.3999999999996,-1216.4,160.80000000000018,-2048.7,2249.1,-1097.9,2025-01-29 10:34:22,0.0
570.3999999999996,-1416.4,172.80000000000018,-2179.7,2544.1,-1081.9,2025-01-29 10:34:22,0.0
470.39999999999964,-1544.4,-159.19999999999982,-2307.7,2546.1,-1095.9,2025-01-29 10:34:22,0.0
-57.600000000000364,-2140.4,-127.19999999999982,-2414.7,2158.1,-1022.9,2025-01-29 10:34:22,0.0
-497.60000000000036,-2424.4,500.8000000000002,-2433.7,1768.1,-907.9,2025-01-29 10:34:22,0.0
94.39999999999964,-1944.4,164.80000000000018,-2380.7,1364.1,-831.9,2025-01-29 10:34:22,0.0
678.3999999999996,-1140.4,-27.199999999999818,-2566.7,1184.1,-1066.9,2025-01-29 10:34:22,0.0
558.3999999999996,-556.4,-19.199999999999818,-2841.7,1312.1,-1399.9,2025-01-29 10:34:22,0.0
666.3999999999996,-8.4,-467.1999999999998,-3249.7,1500.1,-1740.9,2025-01-29 10:34:22,0.0
242.39999999999964,-16.4,-611.1999999999998,-3909.7,1699.1,-2229.9,2025-01-29 10:34:22,0.0
-689.6000000000004,-588.4,-419.1999999999998,-4482.7,1549.1,-2732.9,2025-01-29 10:34:22,0.0
-605.6000000000004,-872.4,-255.19999999999982,-4850.7,864.1,-3362.9,2025-01-29 10:34:22,0.0
-1005.6000000000004,-1548.4,276.8000000000002,-5250.7,-277.9,-3709.9,2025-01-29 10:34:22,0.0
-569.6000000000004,-2016.4,516.8000000000002,-5389.7,-968.9,-4008.9,2025-01-29 10:34:22,0.0
-117.60000000000036,-2176.4,1104.8000000000002,-5675.7,-823.9,-4497.9,2025-01-29 10:34:22,0.0
-229.60000000000036,-2512.4,1292.8000000000002,-5963.7,-361.9,-4780.9,2025-01-29 10:34:22,0.0
-893.6000000000004,-2680.4,-951.1999999999998,-5023.7,1542.1,-4718.9,2025-01-29 10:34:22,0.0
-1745.6000000000004,-4632.4,-2607.2,-4140.7,4772.1,-5006.9,2025-01-29 10:34:22,0.0
-2969.6000000000004,-7904.4,-2307.2,-1721.7,5512.1,-6113.9,2025-01-29 10:34:22,0.0
-6365.6,-8816.4,-2799.2,569.3,1908.1,-4809.9,2025-01-29 10:34:22,0.0
-8901.6,-6792.4,-3931.2,1190.3,-2496.9,-669.9,2025-01-29 10:34:22,0.0
-5521.6,-3724.4,-4631.2,1089.3,-4498.9,3274.1,2025-01-29 10:34:22,0.0
-1337.6000000000004,-2084.4,-4947.2,811.3,-5469.9,3580.1,2025-01-29 10:34:22,0.0
-169.60000000000036,-1356.4,-4007.2,-88.69999999999999,-6416.9,3487.1,2025-01-29 10:34:22,0.0
1310.3999999999996,-1336.4,-2455.2,-833.7,-7148.9,3938.1,2025-01-29 10:34:23,
3002.3999999999996,-1360.4,-679.1999999999998,-1047.7,-7823.9,4538.1,2025-01-29 10:34:23,0.0
4882.4,-1168.4,-559.1999999999998,-1101.7,-7577.9,4602.1,2025-01-29 10:34:23,0.0
6598.4,-508.4,-991.1999999999998,-1146.7,-5663.9,3860.1,2025-01-29 10:34:23,0.0
7038.4,1215.6,-1391.1999999999998,-808.7,-2085.9,2804.1,2025-01-29 10:34:23,0.0
6130.4,3203.6,-1891.1999999999998,-819.7,2076.1,1931.1,2025-01-29 10:34:23,0.0
5134.4,3847.6,-2315.2,-1770.7,5222.1,595.1,2025-01-29 10:34:23,0.0
2526.3999999999996,3223.6,-2367.2,-2850.7,6734.1,-606.9,2025-01-29 10:34:23,0.0
-829.6000000000004,1047.6,-3047.2,-3514.7,7322.1,-527.9,2025-01-29 10:34:23,0.0
-1925.6000000000004,-868.4,-2919.2,-3430.7,6234.1,-81.89999999999998,2025-01-29 10:34:23,0.0
-2885.6000000000004,-2112.4,-2423.2,-2935.7,3246.1,619.1,2025-01-29 10:34:23,0.0
-3053.6000000000004,-2468.4,-1887.1999999999998,-2218.7,-725.9,1962.1,2025-01-29 10:34:23,0.0
-425.60000000000036,-2100.4,-1263.1999999999998,-1411.7,-3624.9,2966.1,2025-01-29 10:34:23,0.0
1094.3999999999996,-1280.4,-843.1999999999998,-734.7,-4833.9,3409.1,2025-01-29 10:34:23,0.0
2914.3999999999996,-564.4,-135.19999999999982,-119.69999999999999,-4821.9,3864.1,2025-01-29 10:34:23,0.0
4778.4,99.6,-447.1999999999998,226.3,-3617.9,4008.1,2025-01-29 10:34:23,0.0
4050.3999999999996,855.6,1004.8000000000002,621.3,-1020.9,3708.1,2025-01-29 10:34:23,0.0
4206.4,1123.6,468.8000000000002,1003.3,2303.1,3072.1,2025-01-29 10:34:23,0.0
3378.3999999999996,1295.6,200.80000000000018,1197.3,4305.1,2414.1,2025-01-29 10:34:23,0.0
1410.3999999999996,1371.6,-391.1999999999998,1230.3,4869.1,1827.1,2025-01-29 10:34:23,0.0
350.39999999999964,1495.6,-1015.1999999999998,1176.3,4215.1,1593.1,2025-01-29 10:34:23,0.0
-341.60000000000036,1515.6,-1407.1999999999998,984.3,2598.1,1413.1,2025-01-29 10:34:23,0.0
-205.60000000000036,1567.6,-1239.1999999999998,626.3,664.1,1126.1,2025-01-29 10:34:23,0.0
46.399999999999636,1335.6,-1011.1999999999998,275.3,-793.9,698.1,2025-01-29 10:34:23,0.0
326.39999999999964,1023.6,-299.1999999999998,42.30000000000001,-1502.9,469.1,2025-01-29 10:34:23,0.0
866.3999999999996,691.6,92.80000000000018,-145.7,-1469.9,299.1,2025-01-29 10:34:23,0.0
1082.3999999999996,183.6,664.8000000000002,-262.7,-1007.9,51.10000000000002,2025-01-29 10:34:23,0.0
1094.3999999999996,99.6,756.8000000000002,-179.7,-512.9,-88.89999999999998,2025-01-29 10:34:23,0.0
1058.3999999999996,163.6,752.8000000000002,-73.69999999999999,-440.9,-106.89999999999998,2025-01-29 10:34:23,0.0
930.3999999999996,207.6,1256.8000000000002,84.30000000000001,-270.9,-202.89999999999998,2025-01-29 10:34:23,0.0
350.39999999999964,267.6,1448.8000000000002,276.3,89.10000000000002,-180.89999999999998,2025-01-29 10:34:23,0.0
690.3999999999996,-16.4,2320.8,633.3,704.1,-312.9,2025-01-29 10:34:23,0.0
782.3999999999996,79.6,2084.8,797.3,1489.1,-589.9,2025-01-29 10:34:23,0.0
570.3999999999996,347.6,1492.8000000000002,1007.3,1701.1,-767.9,2025-01-29 10:34:23,0.0
-21.600000000000364,643.6,632.8000000000002,1210.3,1435.1,-770.9,2025-01-29 10:34:23,0.0
-333.60000000000036,719.6,236.80000000000018,1393.3,1356.1,-717.9,2025-01-29 10:34:23,0.0
-557.6000000000004,355.6,56.80000000000018,1629.3,1624.1,-727.9,2025-01-29 10:34:23,0.0
-1737.6000000000004,-8.4,652.8000000000002,2012.3,1954.1,-376.9,2025-01-29 10:34:23,0.0
-2893.6000000000004,-628.4,1284.8000000000002,2451.3,1965.1,413.1,2025-01-29 10:34:23,0.0
-3181.6000000000004,-504.4,936.8000000000002,2918.3,1002.1,1108.1,2025-01-29 10:34:23,0.0
-2601.6000000000004,711.6,-279.1999999999998,2984.3,-456.9,1552.1,2025-01-29 10:34:23,0.0
-1949.6000000000004,1615.6,84.80000000000018,2616.3,-1196.9,1895.1,2025-01-29 10:34:23,0.0
-1581.6000000000004,1051.6,1324.8000000000002,2690.3,-1069.9,2344.1,2025-01-29 10:34:23,0.0
-1065.6000000000004,135.6,1236.8000000000002,3045.3,-356.9,2678.1,2025-01-29 10:34:23,0.0
-581.6000000000004,-988.4,-303.1999999999998,3360.3,1270.1,2599.1,2025-01-29 10:34:23,0.0
-829.6000000000004,-1296.4,-2395.2,3372.3,3283.1,2307.1,2025-01-29 10:34:23,0.0
-2125.6000000000004,363.6,-3931.2,3261.3,4880.1,2471.1,2025-01-29 10:34:23,0.0
-3489.6000000000004,2207.6,-5515.2,2386.3,5318.1,2959.1,2025-01-29 10:34:23,0.0
-3953.6000000000004,3271.6,-5811.2,607.3,4063.1,3240.1,2025-01-29 10:34:23,0.0
-3325.6000000000004,3079.6,-4767.2,-569.7,1396.1,2486.1,2025-01-29 10:34:23,0.0
-2273.6000000000004,2283.6,-3275.2,-872.7,-2064.9,1111.1,2025-01-29 10:34:23,0.0
-909.6000000000004,831.6,-2023.1999999999998,-531.7,-4399.9,-15.899999999999977,2025-01-29 10:34:23,0.0
1246.3999999999996,27.6,-795.1999999999998,406.3,-5885.9,-643.9,2025-01-29 10:34:23,0.0
3606.3999999999996,-1296.4,-443.1999999999998,1308.3,-6582.9,-1206.9,2025-01-29 10:34:23,0.0
5446.4,-2872.4,-479.1999999999998,2164.3,-5926.9,-1629.9,2025-01-29 10:34:23,0.0
5982.4,-4172.4,-747.1999999999998,2712.3,-3662.9,-1490.9,2025-01-29 10:34:23,0.0
5406.4,-4048.4,-1575.1999999999998,2723.3,423.1,-514.9,2025-01-29 10:34:23,0.0
5214.4,-3280.4,-2167.2,2318.3,4563.1,251.10000000000002,2025-01-29 10:34:23,0.0
3994.3999999999996,-2532.4,-2127.2,2293.3,6991.1,-15.899999999999977,2025-01-29 10:34:23,0.0
1174.3999999999996,-836.4,-2223.2,2248.3,8121.1,-588.9,2025-01-29 10:34:23,0.0
-65.60000000000036,463.6,-2763.2,1732.3,7826.1,-1340.9,2025-01-29 10:34:23,0.0
-381.60000000000036,1407.6,-3923.2,587.3,4621.1,-2814.9,2025-01-29 10:34:24,0.0
-713.6000000000004,1587.6,-4503.2,-556.7,323.1,-4009.9,2025-01-29 10:34:24,0.0
-485.60000000000036,1283.6,-4507.2,-1946.7,-2656.9,-4296.9,2025-01-29 10:34:24,0.0
1158.3999999999996,595.6,-4035.2,-3132.7,-3524.9,-4423.9,2025-01-29 10:34:24,0.0
3842.3999999999996,-524.4,-2763.2,-4201.7,-3730.9,-5185.9,2025-01-29 10:34:24,0.0
4154.4,-1516.4,-1663.1999999999998,-4962.7,-2646.9,-5966.9,2025-01-29 10:34:24,0.0
3694.3999999999996,-2376.4,-267.1999999999998,-5277.7,-80.89999999999998,-6045.9,2025-01-29 10:34:24,0.0
3114.3999999999996,-2544.4,-195.19999999999982,-5514.7,2308.1,-5878.9,2025-01-29 10:34:24,0.0
1958.3999999999996,-1924.4,-251.19999999999982,-5820.7,3281.1,-6048.9,2025-01-29 10:34:24,0.0
782.3999999999996,-1560.4,-799.1999999999998,-5998.7,2951.1,-6106.9,2025-01-29 10:34:24,0.0
-529.6000000000004,-1608.4,-1351.1999999999998,-6308.7,1920.1,-5936.9,2025-01-29 10:34:24,0.0
-917.6000000000004,-1900.4,-1423.1999999999998,-6774.7,301.1,-5564.9,2025-01-29 10:34:24,0.0
-1041.6000000000004,-1932.4,-1155.1999999999998,-7240.7,-1395.9,-5188.9,2025-01-29 10:34:24,0.0
-197.60000000000036,-1840.4,-1499.1999999999998,-7714.7,-2715.9,-4832.9,2025-01-29 10:34:24,0.0
1210.3999999999996,-1544.4,-1015.1999999999998,-8127.7,-3281.9,-4568.9,2025-01-29 10:34:24,0.0
2266.3999999999996,-1312.4,-1307.1999999999998,-8364.7,-2918.9,-4543.9,2025-01-29 10:34:24,0.0
2822.3999999999996,-1448.4,-1919.1999999999998,-8705.7,-1824.9,-4691.9,2025-01-29 10:34:24,0.0
2502.3999999999996,-1544.4,-2035.1999999999998,-9041.7,-204.89999999999998,-5027.9,2025-01-29 10:34:24,0.0
1778.3999999999996,-1068.4,-2303.2,-9491.7,800.1,-5348.9,2025-01-29 10:34:24,0.0
722.3999999999996,-684.4,-2331.2,-10070.7,897.1,-5651.9,2025-01-29 10:34:24,0.0
166.39999999999964,-292.4,-2419.2,-10641.7,-245.89999999999998,-5910.9,2025-01-29 10:34:24,0.0
838.3999999999996,-220.4,-3219.2,-11252.7,-1660.9,-6444.9,2025-01-29 10:34:24,0.0
1022.3999999999996,-200.4,-3027.2,-12079.7,-2482.9,-6892.9,2025-01-29 10:34:24,0.0
1634.3999999999996,-848.4,-2683.2,-12882.7,-2151.9,-7086.9,2025-01-29 10:34:24,0.0
1950.3999999999996,-1440.4,-2359.2,-13510.7,-1254.9,-7273.9,2025-01-29 10:34:24,0.0
1806.3999999999996,-1828.4,-2051.2,-13987.7,-856.9,-7636.9,2025-01-29 10:34:24,0.0
1678.3999999999996,-1916.4,-1387.1999999999998,-14226.7,-857.9,-7886.9,2025-01-29 10:34:24,0.0
1482.3999999999996,-1628.4,-1503.1999999999998,-14515.7,-1011.9,-8011.9,2025-01-29 10:34:24,0.0
1390.3999999999996,-1604.4,-1503.1999999999998,-14873.7,-1112.9,-7705.9,2025-01-29 10:34:24,0.0
1642.3999999999996,-1708.4,-2159.2,-15343.7,-823.9,-7424.9,2025-01-29 10:34:24,0.0
1626.3999999999996,-1892.4,-2475.2,-15805.7,0.10000000000002274,-7646.9,2025-01-29 10:34:24,0.0
494.39999999999964,-1408.4,-2091.2,-16337.7,531.1,-8103.9,2025-01-29 10:34:24,0.0
-109.60000000000036,-1192.4,-1979.1999999999998,-16751.7,-397.9,-8085.9,2025-01-29 10:34:24,0.0
406.39999999999964,-864.4,-1879.1999999999998,-17088.7,-1261.9,-8016.9,2025-01-29 10:34:24,0.0
1706.3999999999996,-1448.4,-1895.1999999999998,-17336.7,-1523.9,-8166.9,2025-01-29 10:34:24,0.0
2790.3999999999996,-2396.4,-2011.1999999999998,-17387.7,-1311.9,-8359.9,2025-01-29 10:34:24,0.0
2994.3999999999996,-2920.4,-1771.1999999999998,-17053.7,-352.9,-8465.9,2025-01-29 10:34:24,0.0
2306.3999999999996,-3868.4,-2155.2,-16985.7,1764.1,-8478.9,2025-01-29 10:34:24,0.0
1322.3999999999996,-4480.4,-2651.2,-16702.7,3936.1,-8578.9,2025-01-29 10:34:24,0.0
-477.60000000000036,-3768.4,-2235.2,-16205.7,4332.1,-8928.9,2025-01-29 10:34:24,
-1417.6000000000004,-2880.4,-1723.1999999999998,-16107.7,2633.1,-9041.9,2025-01-29 10:34:24,0.0
-1201.6000000000004,-2496.4,-1547.1999999999998,-16408.7,540.1,-8594.9,2025-01-29 10:34:24,0.0
66.39999999999964,-2340.4,-1999.1999999999998,-16634.7,-804.9,-8152.9,2025-01-29 10:34:24,0.0
1250.3999999999996,-2048.4,-3283.2,-17272.7,-1492.9,-7836.9,2025-01-29 10:34:24,0.0
2010.3999999999996,-1592.4,-3123.2,-17620.7,-1123.9,-7788.9,2025-01-29 10:34:24,0.0
3114.3999999999996,-2800.4,-3715.2,-17249.7,114.10000000000002,-8402.9,2025-01-29 10:34:24,0.0
4602.4,-3264.4,-3883.2,-15965.7,1650.1,-9982.9,2025-01-29 10:34:24,0.0
3958.3999999999996,-3544.4,-3927.2,-14825.7,2420.1,-11188.9,2025-01-29 10:34:24,0.0
2590.3999999999996,-1752.4,-3391.2,-13933.7,2487.1,-10844.9,2025-01-29 10:34:24,0.0
2998.3999999999996,-184.4,-3035.2,-14171.7,3649.1,-10289.9,2025-01-29 10:34:24,0.0
3174.3999999999996,955.6,-3207.2,-14932.7,4492.1,-10001.9,2025-01-29 10:34:24,0.0
3534.3999999999996,1039.6,-3907.2,-15687.7,5080.1,-9942.9,2025-01-29 10:34:24,0.0
3250.3999999999996,99.6,-4183.2,-16318.7,5557.1,-10311.9,2025-01-29 10:34:24,0.0
2174.3999999999996,-720.4,-4115.2,-16426.7,5811.1,-10443.9,2025-01-29 10:34:24,0.0
1170.3999999999996,-1152.4,-4219.2,-16094.7,5901.1,-10242.9,2025-01-29 10:34:24,0.0
254.39999999999964,-1044.4,-3491.2,-15352.7,5651.1,-10136.9,2025-01-29 10:34:24,0.0
-421.60000000000036,-500.4,-2811.2,-14815.7,4655.1,-10035.9,2025-01-29 10:34:24,0.0
-317.60000000000036,19.6,-2827.2,-14206.7,2793.1,-9897.9,2025-01-29 10:34:24,0.0
42.399999999999636,247.6,-2675.2,-14124.7,737.1,-9552.9,2025-01-29 10:34:24,0.0
866.3999999999996,311.6,-2491.2,-14249.7,7.100000000000023,-9282.9,2025-01-29 10:34:24,0.0
1890.3999999999996,871.6,-3047.2,-14507.7,-501.9,-8897.9,2025-01-29 10:34:25,0.0
2478.3999999999996,1351.6,-3507.2,-15180.7,-695.9,-9189.9,2025-01-29 10:34:25,0.0
2046.3999999999996,1827.6,-2711.2,-15643.7,-169.89999999999998,-9271.9,2025-01-29 10:34:25,0.0
1438.3999999999996,2771.6,-2043.1999999999998,-15695.7,247.10000000000002,-9008.9,2025-01-29 10:34:25,0.0
1826.3999999999996,3127.6,-2083.2,-15559.7,270.1,-8876.9,2025-01-29 10:34:25,0.0
1794.3999999999996,2647.6,-1347.1999999999998,-15161.7,-209.89999999999998,-9254.9,2025-01-29 10:34:25,0.0
2134.3999999999996,1323.6,-1647.1999999999998,-14746.7,-591.9,-9703.9,2025-01-29 10:34:25,0.0
2682.3999999999996,175.6,-1955.1999999999998,-14242.7,-351.9,-9935.9,2025-01-29 10:34:25,0.0
2894.3999999999996,-508.4,-1599.1999999999998,-13793.7,250.10000000000002,-10080.9,2025-01-29 10:34:25,0.0
2554.3999999999996,-700.4,-1383.1999999999998,-13262.7,856.1,-9863.9,2025-01-29 10:34:25,0.0
2678.3999999999996,-268.4,-1747.1999999999998,-12538.7,1595.1,-9413.9,2025-01-29 10:34:25,0.0
2606.3999999999996,283.6,-2283.2,-12126.7,1924.1,-9322.9,2025-01-29 10:34:25,0.0
2054.3999999999996,1087.6,-2275.2,-11771.7,1954.1,-9271.9,2025-01-29 10:34:25,0.0
1806.3999999999996,1903.6,-2627.2,-11585.7,1820.1,-9140.9,2025-01-29 10:34:25,0.0
1342.3999999999996,2387.6,-3355.2,-11516.7,1560.1,-8980.9,2025-01-29 10:34:25,0.0
1394.3999999999996,2171.6,-3639.2,-11478.7,1012.1,-8948.9,2025-01-29 10:34:25,0.0
1454.3999999999996,1311.6,-2775.2,-11399.7,263.1,-8787.9,2025-01-29 10:34:25,0.0
1578.3999999999996,691.6,-2599.2,-11348.7,-234.89999999999998,-8719.9,2025-01-29 10:34:25,0.0
1786.3999999999996,411.6,-2175.2,-11312.7,-479.9,-8750.9,2025-01-29 10:34:25,0.0
1866.3999999999996,587.6,-2199.2,-11082.7,-673.9,-8655.9,2025-01-29 10:34:25,0.0
2078.3999999999996,759.6,-1975.1999999999998,-10755.7,-734.9,-8682.9,2025-01-29 10:34:25,0.0
2226.3999999999996,1091.6,-1687.1999999999998,-10356.7,-684.9,-8782.9,2025-01-29 10:34:25,0.0
2438.3999999999996,1195.6,-1627.1999999999998,-9845.7,-695.9,-8849.9,2025-01-29 10:34:25,0.0
2674.3999999999996,931.6,-1587.1999999999998,-9220.7,-223.89999999999998,-8917.9,2025-01-29 10:34:25,0.0
2422.3999999999996,719.6,-1547.1999999999998,-8510.7,912.1,-8840.9,2025-01-29 10:34:25,0.0
1830.3999999999996,131.6,-1379.1999999999998,-7810.7,1605.1,-8607.9,2025-01-29 10:34:25,0.0
1962.3999999999996,-396.4,-883.1999999999998,-6921.7,1783.1,-8580.9,2025-01-29 10:34:25,0.0
2126.3999999999996,-1552.4,-767.1999999999998,-6197.7,1508.1,-8650.9,2025-01-29 10:34:25,0.0
1970.3999999999996,-2320.4,-415.1999999999998,-5150.7,950.1,-8440.9,2025-01-29 10:34:25,0.0
1866.3999999999996,-1976.4,-491.1999999999998,-4014.7,798.1,-8041.9,2025-01-29 10:34:25,0.0
2190.3999999999996,-1432.4,-1647.1999999999998,-3223.7,1136.1,-8056.9,2025-01-29 10:34:25,0.0
1718.3999999999996,-980.4,-2795.2,-2799.7,1429.1,-8104.9,2025-01-29 10:34:25,0.0
1050.3999999999996,-812.4,-4031.2,-2692.7,718.1,-7567.9,2025-01-29 10:34:25,0.0
1234.3999999999996,-1200.4,-4191.2,-2756.7,-93.89999999999998,-6828.9,2025-01-29 10:34:25,0.0
1546.3999999999996,-1560.4,-4051.2,-2904.7,-512.9,-5775.9,2025-01-29 10:34:25,0.0
2226.3999999999996,-1664.4,-4215.2,-3424.7,140.10000000000002,-4593.9,2025-01-29 10:34:25,0.0
2382.3999999999996,-2384.4,-3867.2,-4022.7,1820.1,-3729.9,2025-01-29 10:34:25,0.0
1586.3999999999996,-3080.4,-3347.2,-4349.7,3815.1,-2695.9,2025-01-29 10:34:25,0.0
1258.3999999999996,-3204.4,-2615.2,-4563.7,5055.1,-1968.9,2025-01-29 10:34:25,0.0
798.3999999999996,-3200.4,-1487.1999999999998,-4432.7,5008.1,-1568.9,2025-01-29 10:34:25,0.0
714.3999999999996,-2996.4,-455.1999999999998,-3868.7,3825.1,-1771.9,2025-01-29 10:34:25,0.0
506.39999999999964,-2732.4,-787.1999999999998,-3097.7,2719.1,-2211.9,2025-01-29 10:34:25,0.0
870.3999999999996,-2724.4,-2071.2,-2125.7,1487.1,-3086.9,2025-01-29 10:34:25,0.0
1142.3999999999996,-2836.4,-1647.1999999999998,-2241.7,646.1,-3215.9,2025-01-29 10:34:25,0.0
1082.3999999999996,-2748.4,-1127.1999999999998,-2629.7,473.1,-3176.9,2025-01-29 10:34:25,0.0
1346.3999999999996,-2820.4,-1923.1999999999998,-2970.7,615.1,-2776.9,2025-01-29 10:34:25,0.0
1546.3999999999996,-3276.4,-2591.2,-3211.7,1205.1,-2113.9,2025-01-29 10:34:25,0.0
2118.3999999999996,-4076.4,-3043.2,-3524.7,1941.1,-1989.9,2025-01-29 10:34:25,0.0
2162.3999999999996,-4576.4,-2475.2,-3695.7,1779.1,-2211.9,2025-01-29 10:34:25,0.0
1094.3999999999996,-4112.4,-1115.1999999999998,-3730.7,-90.89999999999998,-2723.9,2025-01-29 10:34:25,0.0
222.39999999999964,-3052.4,-503.1999999999998,-3720.7,-1435.9,-2520.9,2025-01-29 10:34:25,0.0
446.39999999999964,-1828.4,-219.19999999999982,-3955.7,-2461.9,-1691.9,2025-01-29 10:34:25,0.0
1806.3999999999996,-1228.4,-759.1999999999998,-4440.7,-2748.9,-1173.9,2025-01-29 10:34:25,0.0
3318.3999999999996,-1684.4,-1499.1999999999998,-5032.7,-2646.9,-1263.9,2025-01-29 10:34:25,0.0
3386.3999999999996,-2312.4,-1963.1999999999998,-5295.7,-2783.9,-1662.9,2025-01-29 10:34:25,0.0
2446.3999999999996,-2768.4,-1655.1999999999998,-5276.7,-2984.9,-1643.9,2025-01-29 10:34:25,0.0
2062.3999999999996,-3088.4,-1727.1999999999998,-5543.7,-3273.9,-1160.9,2025-01-29 10:34:25,0.0
2246.3999999999996,-3532.4,-1335.1999999999998,-5532.7,-2919.9,-719.9,2025-01-29 10:34:25,0.0
2814.3999999999996,-3568.4,-795.1999999999998,-5175.7,-2798.9,-453.9,2025-01-29 10:34:25,0.0
3410.3999999999996,-3492.4,-1147.1999999999998,-4789.7,-2721.9,-598.9,2025-01-29 10:34:25,0.0
4050.3999999999996,-2868.4,-1623.1999999999998,-4284.7,-2514.9,-859.9,2025-01-29 10:34:26,0.0
3450.3999999999996,-2020.4,-1907.1999999999998,-3879.7,-2192.9,-820.9,2025-01-29 10:34:26,0.0
2998.3999999999996,-1660.4,-1583.1999999999998,-3596.7,-931.9,-558.9,2025-01-29 10:34:26,0.0
3046.3999999999996,-1608.4,-1379.1999999999998,-3491.7,207.10000000000002,-549.9,2025-01-29 10:34:26,0.0
2758.3999999999996,-868.4,-951.1999999999998,-3841.7,51.10000000000002,-718.9,2025-01-29 10:34:26,0.0
2870.3999999999996,-388.4,-335.1999999999998,-4389.7,-601.9,-779.9,2025-01-29 10:34:26,0.0
2690.3999999999996,51.6,84.80000000000018,-4433.7,-606.9,-721.9,2025-01-29 10:34:26,0.0
2534.3999999999996,223.6,248.80000000000018,-4145.7,-47.89999999999998,-218.89999999999998,2025-01-29 10:34:26,0.0
2062.3999999999996,-28.4,148.80000000000018,-3722.7,715.1,573.1,2025-01-29 10:34:26,0.0
1950.3999999999996,891.6,-779.1999999999998,-327.7,-1011.9,933.1,2025-01-29 10:34:26,0.0
-429.60000000000036,1299.6,-2803.2,-481.7,-1445.9,-297.9,2025-01-29 10:34:26,0.0
-2113.6000000000004,1927.6,-1915.1999999999998,-790.7,-2809.9,-153.89999999999998,2025-01-29 10:34:26,0.0
-1937.6000000000004,1783.6,-3535.2,-1016.7,-4368.9,323.1,2025-01-29 10:34:26,0.0
-2705.6000000000004,1915.6,-3571.2,-1633.7,-6809.9,326.1,2025-01-29 10:34:26,0.0
-2577.6000000000004,1383.6,-1639.1999999999998,-2095.7,-9088.9,393.1,2025-01-29 10:34:26,0.0
2.399999999999636,1715.6,-107.19999999999982,-2176.7,-12657.9,341.1,2025-01-29 10:34:26,0.0
222.39999999999964,1131.6,744.8000000000002,-2023.7,-12091.9,12.100000000000023,2025-01-29 10:34:26,0.0
1938.3999999999996,527.6,1904.8000000000002,-2367.7,-7947.9,-56.89999999999998,2025-01-29 10:34:26,0.0
958.3999999999996,919.6,2876.8,-2206.7,-2687.9,-33.89999999999998,2025-01-29 10:34:26,0.0
-169.60000000000036,1235.6,2420.8,-1992.7,-157.89999999999998,95.10000000000002,2025-01-29 10:34:26,
-1601.6000000000004,1891.6,1312.8000000000002,-1963.7,-138.89999999999998,262.1,2025-01-29 10:34:26,0.0
-669.6000000000004,1543.6,804.8000000000002,-2076.7,-1999.9,696.1,2025-01-29 10:34:26,0.0
-65.60000000000036,1311.6,1284.8000000000002,-1710.7,-3315.9,470.1,2025-01-29 10:34:26,0.0
-1621.6000000000004,1211.6,1100.8000000000002,-1468.7,-4023.9,195.10000000000002,2025-01-29 10:34:26,0.0
-2345.6000000000004,1323.6,1552.8000000000002,-1488.7,-4361.9,92.10000000000002,2025-01-29 10:34:26,0.0
-3029.6000000000004,1571.6,2568.8,-1425.7,-4207.9,369.1,2025-01-29 10:34:26,0.0
-2181.6000000000004,879.6,2484.8,-1115.7,-3713.9,692.1,2025-01-29 10:34:26,0.0
-1013.6000000000004,-236.4,3044.8,-893.7,-3359.9,592.1,2025-01-29 10:34:26,0.0
-905.6000000000004,111.6,2364.8,-684.7,-2381.9,28.100000000000023,2025-01-29 10:34:26,0.0
-1433.6000000000004,791.6,1900.8000000000002,-550.7,-1602.9,-305.9,2025-01-29 10:34:26,0.0
-2729.6000000000004,1411.6,1420.8000000000002,-872.7,-1540.9,-177.89999999999998,2025-01-29 10:34:26,0.0
-3433.6000000000004,1603.6,2004.8000000000002,-824.7,-2083.9,-212.89999999999998,2025-01-29 10:34:26,0.0
-3133.6000000000004,1423.6,2484.8,-880.7,-3233.9,-21.899999999999977,2025-01-29 10:34:26,0.0
-3033.6000000000004,1099.6,2580.8,-1087.7,-3451.9,-116.89999999999998,2025-01-29 10:34:26,0.0
-2441.6000000000004,675.6,2580.8,-1287.7,-3967.9,-227.89999999999998,2025-01-29 10:34:26,0.0
-2317.6000000000004,543.6,3424.8,-1280.7,-4599.9,-254.89999999999998,2025-01-29 10:34:26,0.0
-2161.6000000000004,-64.4,4312.8,-1094.7,-4911.9,-90.89999999999998,2025-01-29 10:34:26,0.0
-2101.6000000000004,-660.4,5220.8,-867.7,-5383.9,34.10000000000002,2025-01-29 10:34:26,0.0
-2049.6000000000004,-164.4,5188.8,-756.7,-5782.9,-61.89999999999998,2025-01-29 10:34:26,0.0
-1509.6000000000004,-48.4,5180.8,-806.7,-5934.9,-184.89999999999998,2025-01-29 10:34:26,0.0
-2013.6000000000004,591.6,4960.8,-713.7,-5655.9,-342.9,2025-01-29 10:34:26,0.0
-2069.6000000000004,751.6,4448.8,-803.7,-5462.9,-265.9,2025-01-29 10:34:26,0.0
-1989.6000000000004,947.6,4008.8,-987.7,-4843.9,15.100000000000023,2025-01-29 10:34:26,0.0
-2149.6000000000004,747.6,3576.8,-1057.7,-4028.9,260.1,2025-01-29 10:34:26,0.0
-2897.6000000000004,383.6,3476.8,-1027.7,-4036.9,126.10000000000002,2025-01-29 10:34:26,0.0
-3109.6000000000004,323.6,3712.8,-1192.7,-4755.9,-81.89999999999998,2025-01-29 10:34:26,0.0
-3277.6000000000004,203.6,4732.8,-1299.7,-5399.9,-137.89999999999998,2025-01-29 10:34:26,0.0
-2633.6000000000004,-224.4,6164.8,-986.7,-5369.9,-249.89999999999998,2025-01-29 10:34:26,0.0
-2973.6000000000004,-64.4,6188.8,-652.7,-4165.9,-269.9,2025-01-29 10:34:26,0.0
-2477.6000000000004,347.6,6272.8,-479.7,-2960.9,-562.9,2025-01-29 10:34:26,0.0
-3209.6000000000004,471.6,6272.8,-348.7,-2314.9,-535.9,2025-01-29 10:34:26,0.0
-4273.6,595.6,6480.8,-246.7,-2060.9,-203.89999999999998,2025-01-29 10:34:26,0.0
-4929.6,919.6,6324.8,-313.7,-2350.9,364.1,2025-01-29 10:34:27,0.0
-3705.6000000000004,1779.6,6684.8,-241.7,-2999.9,771.1,2025-01-29 10:34:27,0.0
-1977.6000000000004,2191.6,7024.8,-90.69999999999999,-2618.9,442.1,2025-01-29 10:34:27,0.0
-1665.6000000000004,1779.6,6988.8,137.3,-1593.9,-60.89999999999998,2025-01-29 10:34:27,0.0
-2813.6000000000004,967.6,6776.8,84.30000000000001,-1450.9,-313.9,2025-01-29 10:34:27,0.0
-4001.6000000000004,319.6,6676.8,21.30000000000001,-1703.9,116.10000000000002,2025-01-29 10:34:27,0.0
-3869.6000000000004,483.6,6412.8,-67.69999999999999,-1969.9,1260.1,2025-01-29 10:34:27,0.0
-2621.6000000000004,1007.6,6208.8,-107.69999999999999,-2069.9,1202.1,2025-01-29 10:34:27,0.0
-2269.6000000000004,1263.6,6672.8,76.30000000000001,-1853.9,710.1,2025-01-29 10:34:27,0.0
-1985.6000000000004,931.6,6440.8,461.3,-1479.9,73.10000000000002,2025-01-29 10:34:27,0.0
-2389.6000000000004,1023.6,6444.8,616.3,-1742.9,-715.9,2025-01-29 10:34:27,0.0
-2981.6000000000004,1011.6,5928.8,511.3,-2161.9,-1059.9,2025-01-29 10:34:27,0.0
-3129.6000000000004,819.6,5712.8,259.3,-2599.9,-896.9,2025-01-29 10:34:27,0.0
-3081.6000000000004,751.6,5900.8,-82.69999999999999,-2912.9,-420.9,2025-01-29 10:34:27,0.0
-2569.6000000000004,787.6,6300.8,-442.7,-2697.9,-324.9,2025-01-29 10:34:27,0.0
-2533.6000000000004,731.6,6784.8,-587.7,-2463.9,-470.9,2025-01-29 10:34:27,0.0
-2401.6000000000004,591.6,6788.8,-593.7,-2209.9,-467.9,2025-01-29 10:34:27,0.0
-2697.6000000000004,527.6,6748.8,-525.7,-1942.9,-354.9,2025-01-29 10:34:27,0.0
-2805.6000000000004,459.6,6740.8,-454.7,-2041.9,-360.9,2025-01-29 10:34:27,0.0
-2977.6000000000004,599.6,6616.8,-448.7,-2192.9,-520.9,2025-01-29 10:34:27,0.0
-2697.6000000000004,779.6,6444.8,-480.7,-2288.9,-633.9,2025-01-29 10:34:27,0.0
-2713.6000000000004,563.6,6684.8,-400.7,-2587.9,-685.9,2025-01-29 10:34:27,0.0
-2541.6000000000004,575.6,7064.8,-250.7,-2920.9,-676.9,2025-01-29 10:34:27,0.0
-2757.6000000000004,495.6,7580.8,-208.7,-2892.9,-668.9,2025-01-29 10:34:27,0.0
-2853.6000000000004,367.6,7864.8,-479.7,-2354.9,-618.9,2025-01-29 10:34:27,0.0
-2621.6000000000004,263.6,8536.8,-702.7,-1933.9,-586.9,2025-01-29 10:34:27,0.0
-2197.6000000000004,-132.4,8796.8,-552.7,-1662.9,-673.9,2025-01-29 10:34:27,0.0
-1421.6000000000004,91.6,8816.8,-74.69999999999999,-2286.9,-875.9,2025-01-29 10:34:27,0.0
-2813.6000000000004,-412.4,8860.8,28.30000000000001,-699.9,-728.9,2025-01-29 10:34:27,0.0
-2781.6000000000004,-256.4,8816.8,64.30000000000001,-481.9,-467.9,2025-01-29 10:34:27,0.0
-3233.6000000000004,123.6,8964.8,-4.699999999999989,-457.9,-223.89999999999998,2025-01-29 10:34:27,0.0
-3453.6000000000004,-76.4,8728.8,-169.7,-46.89999999999998,14.100000000000023,2025-01-29 10:34:27,0.0
-3565.6000000000004,-76.4,8720.8,-313.7,127.10000000000002,217.10000000000002,2025-01-29 10:34:27,0.0
-3645.6000000000004,3.5999999999999996,8612.8,-311.7,62.10000000000002,420.1,2025-01-29 10:34:27,0.0
-3181.6000000000004,-160.4,8820.8,-349.7,-224.89999999999998,499.1,2025-01-29 10:34:27,0.0
-3197.6000000000004,-384.4,9084.8,-226.7,-665.9,507.1,2025-01-29 10:34:27,0.0
-2749.6000000000004,-372.4,9184.8,-161.7,-973.9,657.1,2025-01-29 10:34:27,0.0
-2837.6000000000004,-276.4,9448.8,-156.7,-1067.9,855.1,2025-01-29 10:34:27,0.0
-2769.6000000000004,15.6,9932.8,-259.7,-1118.9,823.1,2025-01-29 10:34:27,0.0
-1813.6000000000004,151.6,9948.8,-260.7,-1015.9,686.1,2025-01-29 10:34:27,0.0
-1593.6000000000004,283.6,10120.8,-304.7,-588.9,523.1,2025-01-29 10:34:27,0.0
-2013.6000000000004,311.6,9888.8,-315.7,49.10000000000002,548.1,2025-01-29 10:34:27,0.0
-2233.6000000000004,247.6,9784.8,-270.7,151.10000000000002,457.1,2025-01-29 10:34:27,0.0
-2281.6000000000004,351.6,9424.8,-150.7,42.10000000000002,279.1,2025-01-29 10:34:27,0.0
-2381.6000000000004,339.6,9368.8,-117.69999999999999,-67.89999999999998,-103.89999999999998,2025-01-29 10:34:27,0.0
-2265.6000000000004,667.6,9188.8,-202.7,-4.899999999999977,-639.9,2025-01-29 10:34:27,0.0
-2117.6000000000004,603.6,9000.8,-161.7,168.10000000000002,-946.9,2025-01-29 10:34:27,0.0
-2009.6000000000004,-12.4,8740.8,-121.69999999999999,278.1,-726.9,2025-01-29 10:34:27,0.0
-2233.6000000000004,27.6,8844.8,-121.69999999999999,514.1,-272.9,2025-01-29 10:34:27,0.0
-2581.6000000000004,63.6,8492.8,-233.7,330.1,25.100000000000023,2025-01-29 10:34:27,0.0
-2733.6000000000004,147.6,8600.8,-303.7,255.10000000000002,78.10000000000002,2025-01-29 10:34:27,0.0
-2549.6000000000004,107.6,8756.8,-341.7,285.1,-15.899999999999977,2025-01-29 10:34:27,0.0
-2649.6000000000004,-40.4,8764.8,-381.7,276.1,-129.89999999999998,2025-01-29 10:34:27,0.0
-2701.6000000000004,-248.4,9088.8,-420.7,432.1,-182.89999999999998,2025-01-29 10:34:27,0.0
-2709.6000000000004,31.6,9180.8,-473.7,592.1,-153.89999999999998,2025-01-29 10:34:27,0.0
-2749.6000000000004,-88.4,9004.8,-502.7,671.1,-131.89999999999998,2025-01-29 10:34:27,0.0
-2481.6000000000004,3.5999999999999996,8988.8,-481.7,694.1,-82.89999999999998,2025-01-29 10:34:27,0.0
-2513.6000000000004,-44.4,8964.8,-480.7,789.1,-142.89999999999998,2025-01-29 10:34:27,0.0
-2553.6000000000004,59.6,8864.8,-511.7,777.1,-205.89999999999998,2025-01-29 10:34:27,0.0
-2613.6000000000004,79.6,8988.8,-555.7,743.1,-134.89999999999998,2025-01-29 10:34:27,0.0
-2501.6000000000004,91.6,8824.8,-598.7,724.1,-37.89999999999998,2025-01-29 10:34:27,0.0
-2469.6000000000004,91.6,9024.8,-678.7,766.1,29.100000000000023,2025-01-29 10:34:28,0.0
-2437.6000000000004,-0.40000000000000036,9232.8,-692.7,777.1,43.10000000000002,2025-01-29 10:34:28,0.0
-2473.6000000000004,91.6,9076.8,-695.7,801.1,56.10000000000002,2025-01-29 10:34:28,0.0
-2553.6000000000004,131.6,9032.8,-691.7,794.1,88.10000000000002,2025-01-29 10:34:28,0.0
-2673.6000000000004,79.6,9056.8,-673.7,775.1,84.10000000000002,2025-01-29 10:34:28,0.0
-2653.6000000000004,19.6,8976.8,-638.7,814.1,85.10000000000002,2025-01-29 10:34:28,0.0
-2609.6000000000004,59.6,9004.8,-661.7,797.1,80.10000000000002,2025-01-29 10:34:28,
-2553.6000000000004,111.6,8776.8,-662.7,654.1,25.100000000000023,2025-01-29 10:34:28,0.0
-2573.6000000000004,-48.4,8668.8,-626.7,610.1,22.100000000000023,2025-01-29 10:34:28,0.0
-2529.6000000000004,-100.4,8748.8,-635.7,598.1,2.1000000000000227,2025-01-29 10:34:28,0.0
-2597.6000000000004,3.5999999999999996,8980.8,-637.7,565.1,25.100000000000023,2025-01-29 10:34:28,0.0
-2569.6000000000004,-168.4,8780.8,-627.7,563.1,45.10000000000002,2025-01-29 10:34:28,0.0
-2685.6000000000004,-136.4,8816.8,-608.7,538.1,44.10000000000002,2025-01-29 10:34:28,0.0
-2573.6000000000004,-232.4,8760.8,-622.7,494.1,59.10000000000002,2025-01-29 10:34:28,0.0
-2589.6000000000004,-116.4,8736.8,-580.7,471.1,64.10000000000002,2025-01-29 10:34:28,0.0
-2509.6000000000004,-192.4,8816.8,-578.7,447.1,68.10000000000002,2025-01-29 10:34:28,0.0
-2541.6000000000004,-200.4,8956.8,-578.7,425.1,74.10000000000002,2025-01-29 10:34:28,0.0
-2573.6000000000004,-128.4,8904.8,-577.7,469.1,97.10000000000002,2025-01-29 10:34:28,0.0
-2537.6000000000004,-228.4,8784.8,-579.7,546.1,107.10000000000002,2025-01-29 10:34:28,0.0
-2509.6000000000004,-156.4,8740.8,-602.7,458.1,127.10000000000002,2025-01-29 10:34:28,0.0
-2505.6000000000004,-168.4,8900.8,-592.7,414.1,156.10000000000002,2025-01-29 10:34:28,0.0
-2453.6000000000004,-140.4,8936.8,-571.7,455.1,170.10000000000002,2025-01-29 10:34:28,0.0
-2589.6000000000004,-264.4,8940.8,-571.7,545.1,120.10000000000002,2025-01-29 10:34:28,0.0
-2613.6000000000004,-136.4,8712.8,-541.7,541.1,131.10000000000002,2025-01-29 10:34:28,0.0
-2605.6000000000004,-56.4,8752.8,-516.7,456.1,160.10000000000002,2025-01-29 10:34:28,0.0
-2633.6000000000004,-32.4,8972.8,-507.7,421.1,178.10000000000002,2025-01-29 10:34:28,0.0
-2525.6000000000004,-32.4,9144.8,-520.7,454.1,169.10000000000002,2025-01-29 10:34:28,0.0
-2509.6000000000004,-96.4,9100.8,-512.7,542.1,163.10000000000002,2025-01-29 10:34:28,0.0
-2565.6000000000004,-144.4,8876.8,-537.7,570.1,122.10000000000002,2025-01-29 10:34:28,0.0
-2493.6000000000004,-68.4,8980.8,-514.7,547.1,141.10000000000002,2025-01-29 10:34:28,0.0
-2513.6000000000004,-116.4,8884.8,-516.7,534.1,151.10000000000002,2025-01-29 10:34:28,0.0
-2445.6000000000004,-84.4,8896.8,-512.7,521.1,132.10000000000002,2025-01-29 10:34:28,0.0
-2521.6000000000004,-64.4,8816.8,-508.7,484.1,124.10000000000002,2025-01-29 10:34:28,0.0
-2549.6000000000004,-92.4,8920.8,-483.7,489.1,108.10000000000002,2025-01-29 10:34:28,0.0
-2585.6000000000004,-100.4,8968.8,-475.7,476.1,129.10000000000002,2025-01-29 10:34:28,0.0
-2549.6000000000004,-84.4,8952.8,-498.7,465.1,131.10000000000002,2025-01-29 10:34:28,0.0
-2697.6000000000004,-76.4,8808.8,-477.7,486.1,183.10000000000002,2025-01-29 10:34:28,0.0
-2585.6000000000004,-168.4,9096.8,-501.7,505.1,215.10000000000002,2025-01-29 10:34:28,0.0
-2421.6000000000004,-152.4,8996.8,-520.7,506.1,201.10000000000002,2025-01-29 10:34:28,0.0
-2565.6000000000004,-192.4,8988.8,-488.7,464.1,172.10000000000002,2025-01-29 10:34:28,0.0
-2529.6000000000004,-124.4,8916.8,-478.7,487.1,188.10000000000002,2025-01-29 10:34:28,0.0
-2565.6000000000004,-92.4,9036.8,-471.7,471.1,196.10000000000002,2025-01-29 10:34:28,0.0
-2569.6000000000004,-160.4,8996.8,-473.7,499.1,203.10000000000002,2025-01-29 10:34:28,0.0
-2585.6000000000004,-92.4,9076.8,-484.7,513.1,195.10000000000002,2025-01-29 10:34:28,0.0
-2525.6000000000004,-28.4,8872.8,-478.7,525.1,181.10000000000002,2025-01-29 10:34:28,0.0
-2629.6000000000004,-132.4,9044.8,-467.7,516.1,206.10000000000002,2025-01-29 10:34:28,0.0
-2577.6000000000004,-128.4,9032.8,-478.7,551.1,183.10000000000002,2025-01-29 10:34:28,0.0
-2505.6000000000004,-12.4,8916.8,-464.7,589.1,146.10000000000002,2025-01-29 10:34:28,0.0
-2525.6000000000004,11.6,9012.8,-441.7,614.1,146.10000000000002,2025-01-29 10:34:28,0.0
-2521.6000000000004,-136.4,8748.8,-473.7,603.1,146.10000000000002,2025-01-29 10:34:28,0.0
-2501.6000000000004,-140.4,8920.8,-470.7,582.1,189.10000000000002,2025-01-29 10:34:28,0.0
-2521.6000000000004,-200.4,8844.8,-473.7,573.1,207.10000000000002,2025-01-29 10:34:28,0.0
-2553.6000000000004,-148.4,9100.8,-461.7,562.1,213.10000000000002,2025-01-29 10:34:28,0.0
-2461.6000000000004,-280.4,8892.8,-472.7,582.1,174.10000000000002,2025-01-29 10:34:28,0.0
-2409.6000000000004,-84.4,8656.8,-454.7,619.1,190.10000000000002,2025-01-29 10:34:28,0.0
-2389.6000000000004,-120.4,8560.8,-436.7,556.1,203.10000000000002,2025-01-29 10:34:28,0.0
-2341.6000000000004,-196.4,8704.8,-443.7,528.1,228.10000000000002,2025-01-29 10:34:28,0.0
-2497.6000000000004,-12.4,8840.8,-424.7,494.1,216.10000000000002,2025-01-29 10:34:29,0.0
-2497.6000000000004,-104.4,8640.8,-449.7,482.1,191.10000000000002,2025-01-29 10:34:29,0.0
-2665.6000000000004,15.6,8944.8,-445.7,451.1,176.10000000000002,2025-01-29 10:34:29,0.0
-2569.6000000000004,-80.4,8840.8,-423.7,438.1,190.10000000000002,2025-01-29 10:34:29,0.0
-2585.6000000000004,-96.4,8968.8,-434.7,483.1,191.10000000000002,2025-01-29 10:34:29,0.0
-2605.6000000000004,-24.4,9024.8,-436.7,474.1,192.10000000000002,2025-01-29 10:34:29,0.0
-2541.6000000000004,-184.4,9000.8,-421.7,463.1,183.10000000000002,2025-01-29 10:34:29,0.0
-2545.6000000000004,-36.4,8804.8,-441.7,485.1,179.10000000000002,2025-01-29 10:34:29,0.0
-2437.6000000000004,-20.4,8896.8,-439.7,498.1,165.10000000000002,2025-01-29 10:34:29,0.0
-2469.6000000000004,-88.4,8796.8,-460.7,530.1,149.10000000000002,2025-01-29 10:34:29,0.0
-2469.6000000000004,-64.4,8952.8,-464.7,514.1,164.10000000000002,2025-01-29 10:34:29,0.0
-2477.6000000000004,-48.4,8924.8,-471.7,465.1,194.10000000000002,2025-01-29 10:34:29,0.0
-2473.6000000000004,-184.4,9060.8,-494.7,501.1,176.10000000000002,2025-01-29 10:34:29,0.0
-2545.6000000000004,-112.4,8924.8,-518.7,532.1,159.10000000000002,2025-01-29 10:34:29,0.0
-2673.6000000000004,-72.4,8888.8,-482.7,549.1,152.10000000000002,2025-01-29 10:34:29,0.0
-2597.6000000000004,-108.4,8712.8,-460.7,390.1,173.10000000000002,2025-01-29 10:34:29,0.0
-2629.6000000000004,-8.4,8948.8,-418.7,296.1,218.10000000000002,2025-01-29 10:34:29,0.0
-2521.6000000000004,39.6,8824.8,-410.7,310.1,193.10000000000002,2025-01-29 10:34:29,0.0
-2553.6000000000004,-32.4,8860.8,-407.7,333.1,186.10000000000002,2025-01-29 10:34:29,0.0
-2613.6000000000004,-8.4,8944.8,-430.7,371.1,156.10000000000002,2025-01-29 10:34:29,0.0
-2533.6000000000004,-84.4,9068.8,-448.7,462.1,154.10000000000002,2025-01-29 10:34:29,0.0
-2517.6000000000004,-144.4,9096.8,-479.7,505.1,132.10000000000002,2025-01-29 10:34:29,0.0
-2585.6000000000004,-112.4,9104.8,-488.7,510.1,137.10000000000002,2025-01-29 10:34:29,0.0
-2541.6000000000004,-108.4,8856.8,-478.7,509.1,163.10000000000002,2025-01-29 10:34:29,0.0
-2477.6000000000004,-184.4,9012.8,-496.7,502.1,146.10000000000002,2025-01-29 10:34:29,0.0
-2501.6000000000004,-128.4,8840.8,-470.7,471.1,162.10000000000002,2025-01-29 10:34:29,0.0
-2537.6000000000004,-192.4,8924.8,-471.7,478.1,155.10000000000002,2025-01-29 10:34:29,0.0
-2593.6000000000004,-136.4,8984.8,-451.7,434.1,185.10000000000002,2025-01-29 10:34:29,0.0
-2489.6000000000004,-84.4,8800.8,-486.7,492.1,177.10000000000002,2025-01-29 10:34:29,0.0
-2517.6000000000004,-208.4,8768.8,-483.7,464.1,188.10000000000002,2025-01-29 10:34:29,0.0
-2529.6000000000004,-148.4,8896.8,-491.7,474.1,203.10000000000002,2025-01-29 10:34:29,0.0
-2565.6000000000004,-92.4,8904.8,-503.7,455.1,186.10000000000002,2025-01-29 10:34:29,0.0
-2581.6000000000004,-116.4,8912.8,-489.7,449.1,197.10000000000002,2025-01-29 10:34:29,0.0
-2545.6000000000004,-96.4,9000.8,-443.7,487.1,162.10000000000002,2025-01-29 10:34:29,0.0
-2553.6000000000004,-16.4,9156.8,-450.7,497.1,194.10000000000002,2025-01-29 10:34:29,0.0
-2601.6000000000004,63.6,8992.8,-466.7,520.1,167.10000000000002,2025-01-29 10:34:29,0.0
-2633.6000000000004,23.6,9084.8,-454.7,514.1,169.10000000000002,2025-01-29 10:34:29,0.0
-2605.6000000000004,-100.4,9052.8,-464.7,533.1,166.10000000000002,2025-01-29 10:34:29,0.0
-2577.6000000000004,-112.4,9012.8,-467.7,637.1,150.10000000000002,2025-01-29 10:34:29,0.0
-2553.6000000000004,-32.4,9044.8,-515.7,756.1,125.10000000000002,2025-01-29 10:34:29,0.0
-2581.6000000000004,47.6,9136.8,-485.7,872.1,77.10000000000002,2025-01-29 10:34:29,0.0
-2449.6000000000004,-64.4,8944.8,-511.7,979.1,74.10000000000002,2025-01-29 10:34:29,0.0
-2285.6000000000004,-0.40000000000000036,8808.8,-568.7,1000.1,63.10000000000002,2025-01-29 10:34:29,0.0
-2217.6000000000004,-236.4,8416.8,-505.7,895.1,113.10000000000002,2025-01-29 10:34:29,0.0
-2533.6000000000004,-188.4,8568.8,-528.7,741.1,197.10000000000002,2025-01-29 10:34:29,0.0
-2625.6000000000004,-184.4,8320.8,-531.7,561.1,241.10000000000002,2025-01-29 10:34:29,0.0
-2637.6000000000004,-80.4,8648.8,-498.7,401.1,233.10000000000002,2025-01-29 10:34:29,0.0
-2629.6000000000004,-212.4,8728.8,-466.7,419.1,204.10000000000002,2025-01-29 10:34:29,0.0
-2493.6000000000004,-164.4,8744.8,-514.7,448.1,206.10000000000002,2025-01-29 10:34:29,0.0
-2389.6000000000004,-180.4,8684.8,-470.7,461.1,184.10000000000002,2025-01-29 10:34:29,
-2405.6000000000004,-88.4,8628.8,-448.7,472.1,160.10000000000002,2025-01-29 10:34:29,0.0
-2677.6000000000004,-52.4,9016.8,-425.7,417.1,159.10000000000002,2025-01-29 10:34:29,0.0
-2417.6000000000004,-120.4,8804.8,-454.7,377.1,169.10000000000002,2025-01-29 10:34:29,0.0
-2669.6000000000004,-40.4,9028.8,-396.7,396.1,166.10000000000002,2025-01-29 10:34:29,0.0
-2581.6000000000004,-20.4,9124.8,-426.7,408.1,145.10000000000002,2025-01-29 10:34:29,0.0
-2457.6000000000004,-32.4,9184.8,-453.7,433.1,151.10000000000002,2025-01-29 10:34:29,0.0
-2509.6000000000004,-112.4,8988.8,-441.7,544.1,139.10000000000002,2025-01-29 10:34:29,0.0
-2665.6000000000004,-28.4,9144.8,-445.7,545.1,124.10000000000002,2025-01-29 10:34:29,0.0
-2629.6000000000004,-164.4,8792.8,-429.7,585.1,138.10000000000002,2025-01-29 10:34:29,0.0
-2665.6000000000004,-148.4,8624.8,-456.7,540.1,143.10000000000002,2025-01-29 10:34:29,0.0
-2637.6000000000004,-248.4,8744.8,-487.7,479.1,179.10000000000002,2025-01-29 10:34:29,0.0
-2449.6000000000004,-116.4,8708.8,-493.7,485.1,177.10000000000002,2025-01-29 10:34:29,0.0
-2561.6000000000004,-152.4,8804.8,-475.7,545.1,197.10000000000002,2025-01-29 10:34:29,0.0
-2425.6000000000004,-192.4,8672.8,-466.7,548.1,129.10000000000002,2025-01-29 10:34:29,0.0
-2477.6000000000004,-128.4,8744.8,-430.7,391.1,132.10000000000002,2025-01-29 10:34:30,0.0
-2233.6000000000004,-32.4,8912.8,-408.7,204.10000000000002,29.100000000000023,2025-01-29 10:34:30,0.0
-2421.6000000000004,151.6,8756.8,-428.7,389.1,11.100000000000023,2025-01-29 10:34:30,0.0
-2649.6000000000004,39.6,8708.8,-503.7,340.1,56.10000000000002,2025-01-29 10:34:30,0.0
-2585.6000000000004,-68.4,8912.8,-505.7,357.1,84.10000000000002,2025-01-29 10:34:30,0.0
-2605.6000000000004,-124.4,9128.8,-484.7,406.1,92.10000000000002,2025-01-29 10:34:30,0.0
-2785.6000000000004,-256.4,9264.8,-445.7,454.1,133.10000000000002,2025-01-29 10:34:30,0.0
-2665.6000000000004,-340.4,9048.8,-458.7,476.1,170.10000000000002,2025-01-29 10:34:30,0.0
-2645.6000000000004,-200.4,9144.8,-487.7,481.1,216.10000000000002,2025-01-29 10:34:30,0.0
-2605.6000000000004,-232.4,8940.8,-467.7,433.1,216.10000000000002,2025-01-29 10:34:30,0.0
-2665.6000000000004,-232.4,8868.8,-453.7,424.1,198.10000000000002,2025-01-29 10:34:30,0.0
-2469.6000000000004,-160.4,8760.8,-463.7,426.1,171.10000000000002,2025-01-29 10:34:30,0.0
-2417.6000000000004,-100.4,8840.8,-469.7,463.1,197.10000000000002,2025-01-29 10:34:30,0.0
-2421.6000000000004,-136.4,8956.8,-509.7,541.1,207.10000000000002,2025-01-29 10:34:30,0.0
-2485.6000000000004,-136.4,8976.8,-529.7,610.1,202.10000000000002,2025-01-29 10:34:30,0.0
-2641.6000000000004,-76.4,8856.8,-524.7,580.1,225.10000000000002,2025-01-29 10:34:30,0.0
-2669.6000000000004,-112.4,8884.8,-487.7,546.1,211.10000000000002,2025-01-29 10:34:30,0.0
-2629.6000000000004,-96.4,8904.8,-457.7,499.1,232.10000000000002,2025-01-29 10:34:30,0.0
-2617.6000000000004,91.6,8952.8,-439.7,496.1,217.10000000000002,2025-01-29 10:34:30,0.0
-2561.6000000000004,-132.4,8996.8,-439.7,459.1,213.10000000000002,2025-01-29 10:34:30,0.0
-2517.6000000000004,-176.4,8912.8,-445.7,468.1,205.10000000000002,2025-01-29 10:34:30,0.0
-2565.6000000000004,-136.4,9052.8,-444.7,506.1,186.10000000000002,2025-01-29 10:34:30,0.0
-2517.6000000000004,-164.4,8896.8,-455.7,551.1,207.10000000000002,2025-01-29 10:34:30,0.0
-2553.6000000000004,-200.4,8764.8,-458.7,520.1,231.10000000000002,2025-01-29 10:34:30,0.0
-2529.6000000000004,-184.4,9012.8,-473.7,538.1,232.10000000000002,2025-01-29 10:34:30,0.0
-2621.6000000000004,-164.4,9048.8,-464.7,544.1,178.10000000000002,2025-01-29 10:34:30,0.0
-2429.6000000000004,-8.4,9024.8,-421.7,531.1,172.10000000000002,2025-01-29 10:34:30,0.0
-2485.6000000000004,-52.4,8872.8,-450.7,578.1,185.10000000000002,2025-01-29 10:34:30,0.0
-2617.6000000000004,-84.4,9060.8,-425.7,577.1,187.10000000000002,2025-01-29 10:34:30,0.0
-2441.6000000000004,-76.4,8988.8,-458.7,581.1,149.10000000000002,2025-01-29 10:34:30,0.0
-2497.6000000000004,-16.4,8840.8,-414.7,589.1,154.10000000000002,2025-01-29 10:34:30,0.0
-2597.6000000000004,-112.4,8912.8,-468.7,575.1,141.10000000000002,2025-01-29 10:34:30,0.0
-2545.6000000000004,-76.4,8852.8,-466.7,565.1,144.10000000000002,2025-01-29 10:34:30,0.0
-2557.6000000000004,-88.4,8852.8,-459.7,549.1,172.10000000000002,2025-01-29 10:34:30,0.0
-2581.6000000000004,-160.4,8932.8,-468.7,541.1,172.10000000000002,2025-01-29 10:34:30,0.0
-2593.6000000000004,-136.4,8844.8,-489.7,530.1,196.10000000000002,2025-01-29 10:34:30,0.0
-2453.6000000000004,-232.4,8912.8,-463.7,535.1,165.10000000000002,2025-01-29 10:34:30,0.0
-2617.6000000000004,-240.4,8916.8,-479.7,580.1,141.10000000000002,2025-01-29 10:34:30,0.0
-2629.6000000000004,-112.4,8844.8,-473.7,562.1,157.10000000000002,2025-01-29 10:34:30,0.0
-2453.6000000000004,-188.4,8776.8,-464.7,531.1,162.10000000000002,2025-01-29 10:34:30,0.0
-2533.6000000000004,-128.4,8960.8,-464.7,507.1,174.10000000000002,2025-01-29 10:34:30,0.0
-2665.6000000000004,-172.4,8844.8,-478.7,536.1,187.10000000000002,2025-01-29 10:34:30,0.0
-2493.6000000000004,-120.4,8888.8,-466.7,554.1,186.10000000000002,2025-01-29 10:34:30,0.0
-2501.6000000000004,-16.4,8972.8,-448.7,562.1,194.10000000000002,2025-01-29 10:34:30,0.0
-2513.6000000000004,-184.4,8964.8,-455.7,563.1,176.10000000000002,2025-01-29 10:34:30,0.0
-2577.6000000000004,-40.4,9004.8,-473.7,627.1,169.10000000000002,2025-01-29 10:34:30,0.0
-2465.6000000000004,-40.4,8888.8,-477.7,703.1,128.10000000000002,2025-01-29 10:34:30,0.0
-2721.6000000000004,-172.4,8800.8,-473.7,646.1,148.10000000000002,2025-01-29 10:34:30,0.0
-2617.6000000000004,-140.4,8884.8,-489.7,590.1,164.10000000000002,2025-01-29 10:34:30,0.0
-2477.6000000000004,7.6,8920.8,-465.7,564.1,178.10000000000002,2025-01-29 10:34:30,0.0
-2537.6000000000004,-76.4,9032.8,-458.7,575.1,142.10000000000002,2025-01-29 10:34:30,0.0
-2641.6000000000004,-8.4,8772.8,-444.7,659.1,127.10000000000002,2025-01-29 10:34:30,0.0
-2657.6000000000004,-16.4,8808.8,-388.7,538.1,170.10000000000002,2025-01-29 10:34:30,0.0
-2545.6000000000004,-80.4,8836.8,-415.7,523.1,177.10000000000002,2025-01-29 10:34:30,0.0
-2437.6000000000004,-36.4,8940.8,-387.7,560.1,164.10000000000002,2025-01-29 10:34:30,0.0
-2517.6000000000004,-40.4,8968.8,-440.7,609.1,185.10000000000002,2025-01-29 10:34:30,0.0
-2441.6000000000004,-116.4,9036.8,-445.7,722.1,181.10000000000002,2025-01-29 10:34:30,0.0
-2425.6000000000004,11.6,8876.8,-428.7,728.1,120.10000000000002,2025-01-29 10:34:30,0.0
-2445.6000000000004,111.6,8888.8,-426.7,714.1,107.10000000000002,2025-01-29 10:34:30,0.0
-2493.6000000000004,83.6,8860.8,-459.7,819.1,47.10000000000002,2025-01-29 10:34:30,0.0
-2637.6000000000004,-28.4,8592.8,-502.7,681.1,21.100000000000023,2025-01-29 10:34:30,0.0
-2561.6000000000004,7.6,8560.8,-437.7,360.1,2.1000000000000227,2025-01-29 10:34:31,0.0
-2517.6000000000004,-204.4,8412.8,-461.7,296.1,-11.899999999999977,2025-01-29 10:34:31,0.0
-2485.6000000000004,-316.4,8652.8,-360.7,64.10000000000002,100.10000000000002,2025-01-29 10:34:31,0.0
-2553.6000000000004,-376.4,9028.8,-362.7,25.100000000000023,151.10000000000002,2025-01-29 10:34:31,0.0
-2957.6000000000004,-412.4,8928.8,-447.7,235.10000000000002,238.10000000000002,2025-01-29 10:34:31,0.0
-2817.6000000000004,-536.4,8508.8,-463.7,347.1,405.1,2025-01-29 10:34:31,0.0
-2837.6000000000004,-476.4,8484.8,-500.7,237.10000000000002,564.1,2025-01-29 10:34:31,0.0
-2649.6000000000004,-548.4,8548.8,-460.7,121.10000000000002,618.1,2025-01-29 10:34:31,0.0
-2473.6000000000004,-440.4,8828.8,-436.7,53.10000000000002,669.1,2025-01-29 10:34:31,0.0
-2529.6000000000004,-476.4,8908.8,-356.7,35.10000000000002,685.1,2025-01-29 10:34:31,0.0
-2389.6000000000004,-420.4,8996.8,-320.7,-172.89999999999998,669.1,2025-01-29 10:34:31,0.0
-2421.6000000000004,-392.4,9160.8,-268.7,-161.89999999999998,604.1,2025-01-29 10:34:31,0.0
-2325.6000000000004,-208.4,9252.8,-218.7,-6.899999999999977,543.1,2025-01-29 10:34:31,0.0
-2177.6000000000004,111.6,9004.8,-250.7,71.10000000000002,583.1,2025-01-29 10:34:31,0.0
-2089.6000000000004,167.6,9096.8,-359.7,200.10000000000002,510.1,2025-01-29 10:34:31,0.0
-2397.6000000000004,415.6,9068.8,-336.7,342.1,385.1,2025-01-29 10:34:31,0.0
-2705.6000000000004,251.6,9164.8,-363.7,445.1,344.1,2025-01-29 10:34:31,0.0
-2273.6000000000004,427.6,8480.8,-358.7,491.1,326.1,2025-01-29 10:34:31,0.0
-2509.6000000000004,339.6,9072.8,-250.7,520.1,366.1,2025-01-29 10:34:31,0.0
-2509.6000000000004,399.6,9152.8,-235.7,636.1,338.1,2025-01-29 10:34:31,0.0
-2757.6000000000004,399.6,8852.8,-257.7,677.1,310.1,2025-01-29 10:34:31,0.0
-2773.6000000000004,463.6,8532.8,-286.7,635.1,313.1,2025-01-29 10:34:31,0.0
-2973.6000000000004,311.6,8680.8,-319.7,500.1,425.1,2025-01-29 10:34:31,0.0
-2917.6000000000004,-56.4,9124.8,-276.7,135.10000000000002,654.1,2025-01-29 10:34:31,0.0
-2521.6000000000004,-224.4,8956.8,-129.7,-227.89999999999998,849.1,2025-01-29 10:34:31,
-1897.6000000000004,-196.4,8868.8,-144.7,-470.9,1002.1,2025-01-29 10:34:31,0.0
-1409.6000000000004,-224.4,8492.8,-279.7,-786.9,948.1,2025-01-29 10:34:31,0.0
-1593.6000000000004,-80.4,9540.8,-412.7,-971.9,454.1,2025-01-29 10:34:31,0.0
-2609.6000000000004,-120.4,10224.8,-311.7,-196.89999999999998,202.10000000000002,2025-01-29 10:34:31,0.0
-2845.6000000000004,-352.4,10232.8,10.300000000000011,521.1,117.10000000000002,2025-01-29 10:34:31,0.0
-2653.6000000000004,-512.4,9660.8,279.3,660.1,11.100000000000023,2025-01-29 10:34:31,0.0
-2525.6000000000004,-388.4,8796.8,327.3,765.1,-37.89999999999998,2025-01-29 10:34:31,0.0
-2981.6000000000004,27.6,8648.8,210.3,1057.1,97.10000000000002,2025-01-29 10:34:31,0.0
-3361.6000000000004,687.6,8588.8,22.30000000000001,1173.1,300.1,2025-01-29 10:34:31,0.0
-3621.6000000000004,823.6,8608.8,-167.7,1110.1,597.1,2025-01-29 10:34:31,0.0
-3001.6000000000004,695.6,8780.8,-192.7,695.1,840.1,2025-01-29 10:34:31,0.0
-2789.6000000000004,631.6,9028.8,-298.7,485.1,863.1,2025-01-29 10:34:31,0.0
-2541.6000000000004,547.6,9520.8,-391.7,433.1,770.1,2025-01-29 10:34:31,0.0
-2369.6000000000004,203.6,9520.8,-471.7,396.1,648.1,2025-01-29 10:34:31,0.0
-1505.6000000000004,47.6,9744.8,-553.7,369.1,606.1,2025-01-29 10:34:31,0.0
-1561.6000000000004,251.6,10032.8,-570.7,705.1,436.1,2025-01-29 10:34:31,0.0
-1813.6000000000004,407.6,9808.8,-646.7,1210.1,329.1,2025-01-29 10:34:31,0.0
-2341.6000000000004,403.6,9748.8,-838.7,1306.1,68.10000000000002,2025-01-29 10:34:31,0.0
-2861.6000000000004,135.6,9860.8,-811.7,1401.1,61.10000000000002,2025-01-29 10:34:31,0.0
-2781.6000000000004,-68.4,9784.8,-688.7,1500.1,299.1,2025-01-29 10:34:31,0.0
-2065.6000000000004,3.5999999999999996,9732.8,-595.7,1884.1,424.1,2025-01-29 10:34:31,0.0
-1401.6000000000004,-20.4,9792.8,-609.7,2590.1,379.1,2025-01-29 10:34:31,0.0
-1853.6000000000004,283.6,9788.8,-644.7,3667.1,266.1,2025-01-29 10:34:31,0.0
-2749.6000000000004,275.6,9452.8,-597.7,4829.1,430.1,2025-01-29 10:34:31,0.0
-3453.6000000000004,319.6,8932.8,-565.7,5598.1,591.1,2025-01-29 10:34:31,0.0
-3605.6000000000004,471.6,8680.8,-375.7,6171.1,648.1,2025-01-29 10:34:31,0.0
-2765.6000000000004,511.6,8896.8,-35.69999999999999,6401.1,408.1,2025-01-29 10:34:31,0.0
-2169.6000000000004,635.6,8464.8,170.3,6529.1,-1.8999999999999773,2025-01-29 10:34:31,0.0
-2513.6000000000004,575.6,7996.8,325.3,6699.1,-31.899999999999977,2025-01-29 10:34:31,0.0
-3125.6000000000004,595.6,7304.8,422.3,7207.1,313.1,2025-01-29 10:34:31,0.0
-3581.6000000000004,255.6,7516.8,593.3,6293.1,452.1,2025-01-29 10:34:31,0.0
-3181.6000000000004,159.6,6896.8,520.3,5310.1,681.1,2025-01-29 10:34:32,0.0
-3245.6000000000004,-300.4,7196.8,684.3,5195.1,827.1,2025-01-29 10:34:32,0.0
-2885.6000000000004,-360.4,6344.8,727.3,5314.1,1446.1,2025-01-29 10:34:32,0.0
-2845.6000000000004,-48.4,6224.8,897.3,6122.1,1645.1,2025-01-29 10:34:32,0.0
-3705.6000000000004,359.6,6116.8,826.3,6934.1,1445.1,2025-01-29 10:34:32,0.0
-5061.6,395.6,6564.8,734.3,6857.1,1644.1,2025-01-29 10:34:32,0.0
-3725.6000000000004,779.6,6952.8,791.3,6277.1,1099.1,2025-01-29 10:34:32,0.0
-3285.6000000000004,1139.6,6924.8,848.3,5956.1,181.10000000000002,2025-01-29 10:34:32,0.0
-3461.6000000000004,1035.6,6152.8,879.3,6693.1,-198.89999999999998,2025-01-29 10:34:32,0.0
-4125.6,1123.6,5136.8,662.3,8170.1,50.10000000000002,2025-01-29 10:34:32,0.0
-4733.6,1547.6,4728.8,489.3,8278.1,577.1,2025-01-29 10:34:32,0.0
-5025.6,1315.6,5240.8,504.3,7539.1,681.1,2025-01-29 10:34:32,0.0
-2621.6000000000004,903.6,4932.8,696.3,7449.1,601.1,2025-01-29 10:34:32,0.0
-3257.6000000000004,611.6,5056.8,840.3,7239.1,453.1,2025-01-29 10:34:32,0.0
-3665.6000000000004,1167.6,4428.8,553.3,7726.1,629.1,2025-01-29 10:34:32,0.0
-4365.6,1347.6,3764.8,321.3,8379.1,985.1,2025-01-29 10:34:32,0.0
-5405.6,479.6,4204.8,580.3,7885.1,1372.1,2025-01-29 10:34:32,0.0
-4337.6,-480.4,3772.8,1175.3,6665.1,1395.1,2025-01-29 10:34:32,0.0
-3393.6000000000004,-608.4,3300.8,1861.3,6149.1,1080.1,2025-01-29 10:34:32,0.0
-2557.6000000000004,355.6,1372.8000000000002,2210.3,6116.1,728.1,2025-01-29 10:34:32,0.0
-2589.6000000000004,1167.6,984.8000000000002,1940.3,6173.1,629.1,2025-01-29 10:34:32,0.0
-2113.6000000000004,1387.6,1052.8000000000002,1431.3,6107.1,841.1,2025-01-29 10:34:32,0.0
-1981.6000000000004,863.6,1780.8000000000002,991.3,6076.1,1117.1,2025-01-29 10:34:32,0.0
-1841.6000000000004,647.6,1848.8000000000002,675.3,6152.1,1180.1,2025-01-29 10:34:32,0.0
-1725.6000000000004,539.6,2208.8,559.3,6183.1,1006.1,2025-01-29 10:34:32,0.0
-1561.6000000000004,439.6,2132.8,634.3,5941.1,749.1,2025-01-29 10:34:32,0.0
-1761.6000000000004,387.6,1832.8000000000002,385.3,5244.1,663.1,2025-01-29 10:34:32,0.0
-1589.6000000000004,979.6,956.8000000000002,104.30000000000001,4459.1,811.1,2025-01-29 10:34:32,0.0
-1453.6000000000004,843.6,544.8000000000002,-233.7,4018.1,951.1,2025-01-29 10:34:32,0.0
-1541.6000000000004,763.6,396.8000000000002,-524.7,3892.1,869.1,2025-01-29 10:34:32,0.0
-1569.6000000000004,703.6,848.8000000000002,-776.7,3410.1,617.1,2025-01-29 10:34:32,0.0
-1661.6000000000004,575.6,1680.8000000000002,-870.7,2719.1,539.1,2025-01-29 10:34:32,0.0
-1473.6000000000004,863.6,1920.8000000000002,-1013.7,2159.1,605.1,2025-01-29 10:34:32,0.0
-1329.6000000000004,1307.6,1852.8000000000002,-1085.7,3048.1,570.1,2025-01-29 10:34:32,0.0
-1649.6000000000004,1423.6,428.8000000000002,-1149.7,3468.1,374.1,2025-01-29 10:34:32,0.0
-1813.6000000000004,1455.6,-583.1999999999998,-1537.7,2412.1,231.10000000000002,2025-01-29 10:34:32,0.0
-1961.6000000000004,1695.6,148.80000000000018,-1938.7,655.1,260.1,2025-01-29 10:34:32,0.0
-1657.6000000000004,1667.6,720.8000000000002,-1748.7,-476.9,150.10000000000002,2025-01-29 10:34:32,0.0
-877.6000000000004,1535.6,464.8000000000002,-1575.7,-956.9,-14.899999999999977,2025-01-29 10:34:32,0.0
-1017.6000000000004,1135.6,1204.8000000000002,-1470.7,-1148.9,-107.89999999999998,2025-01-29 10:34:32,0.0
-1053.6000000000004,667.6,1528.8000000000002,-1135.7,-748.9,-103.89999999999998,2025-01-29 10:34:32,0.0
-1037.6000000000004,755.6,1520.8000000000002,-892.7,-107.89999999999998,-28.899999999999977,2025-01-29 10:34:32,0.0
-1061.6000000000004,1079.6,1888.8000000000002,-751.7,181.10000000000002,-138.89999999999998,2025-01-29 10:34:32,0.0
-1553.6000000000004,1395.6,1824.8000000000002,-515.7,451.1,-188.89999999999998,2025-01-29 10:34:32,0.0
-1461.6000000000004,1367.6,1584.8000000000002,-246.7,1295.1,-202.89999999999998,2025-01-29 10:34:32,0.0
-869.6000000000004,1131.6,1340.8000000000002,-171.7,1764.1,-533.9,2025-01-29 10:34:32,0.0
-445.60000000000036,923.6,1540.8000000000002,-61.69999999999999,1508.1,-1003.9,2025-01-29 10:34:32,0.0
-489.60000000000036,803.6,1736.8000000000002,132.3,1031.1,-1347.9,2025-01-29 10:34:32,0.0
-845.6000000000004,847.6,1792.8000000000002,460.3,1614.1,-1446.9,2025-01-29 10:34:32,0.0
-437.60000000000036,931.6,1752.8000000000002,514.3,1688.1,-1540.9,2025-01-29 10:34:32,0.0
446.39999999999964,747.6,1412.8000000000002,592.3,293.1,-1791.9,2025-01-29 10:34:32,0.0
438.39999999999964,739.6,1256.8000000000002,705.3,-612.9,-1959.9,2025-01-29 10:34:32,0.0
334.39999999999964,915.6,1208.8000000000002,931.3,-691.9,-1906.9,2025-01-29 10:34:32,0.0
526.3999999999996,595.6,1000.8000000000002,1147.3,368.1,-1841.9,2025-01-29 10:34:32,0.0
570.3999999999996,667.6,1320.8000000000002,1281.3,1258.1,-1905.9,2025-01-29 10:34:32,0.0
326.39999999999964,915.6,1708.8000000000002,1287.3,1293.1,-2068.9,2025-01-29 10:34:32,0.0
426.39999999999964,915.6,1496.8000000000002,1099.3,764.1,-2348.9,2025-01-29 10:34:32,0.0
330.39999999999964,959.6,1092.8000000000002,685.3,-141.89999999999998,-2751.9,2025-01-29 10:34:32,0.0
-317.60000000000036,1203.6,680.8000000000002,183.3,-1495.9,-2583.9,2025-01-29 10:34:32,0.0
262.39999999999964,835.6,1092.8000000000002,1.3000000000000114,-2087.9,-2334.9,2025-01-29 10:34:32,0.0
134.39999999999964,979.6,1764.8000000000002,-55.69999999999999,-2848.9,-2248.9,2025-01-29 10:34:32,0.0
742.3999999999996,847.6,1888.8000000000002,-244.7,-3911.9,-2217.9,2025-01-29 10:34:32,0.0
1042.3999999999996,1099.6,1840.8000000000002,-690.7,-4936.9,-2173.9,2025-01-29 10:34:33,0.0
1498.3999999999996,1087.6,2056.8,-897.7,-5617.9,-1824.9,2025-01-29 10:34:33,0.0
1790.3999999999996,1167.6,1572.8000000000002,-938.7,-5587.9,-1399.9,2025-01-29 10:34:33,0.0
2202.3999999999996,695.6,1404.8000000000002,-1241.7,-4341.9,-976.9,2025-01-29 10:34:33,0.0
2270.3999999999996,59.6,2392.8,-1087.7,-2423.9,-1086.9,2025-01-29 10:34:33,0.0
1850.3999999999996,-920.4,2908.8,-776.7,-961.9,-1480.9,2025-01-29 10:34:33,0.0
1694.3999999999996,-1468.4,2496.8,-569.7,-284.9,-1991.9,2025-01-29 10:34:33,
1274.3999999999996,-2044.4,1664.8000000000002,-205.7,-463.9,-2487.9,2025-01-29 10:34:33,0.0
794.3999999999996,-1924.4,1224.8000000000002,291.3,-1722.9,-2473.9,2025-01-29 10:34:33,0.0
326.39999999999964,-1476.4,1052.8000000000002,977.3,-3920.9,-1824.9,2025-01-29 10:34:33,0.0
254.39999999999964,-1152.4,804.8000000000002,1437.3,-5884.9,-856.9,2025-01-29 10:34:33,0.0
1034.3999999999996,-1272.4,1192.8000000000002,1648.3,-6256.9,-305.9,2025-01-29 10:34:33,0.0
1278.3999999999996,-1168.4,1824.8000000000002,2117.3,-5342.9,-241.89999999999998,2025-01-29 10:34:33,0.0
1270.3999999999996,-1488.4,2112.8,2730.3,-3866.9,-282.9,2025-01-29 10:34:33,0.0
798.3999999999996,-1640.4,1764.8000000000002,3203.3,-2256.9,58.10000000000002,2025-01-29 10:34:33,0.0
550.3999999999996,-1280.4,1528.8000000000002,3679.3,-796.9,578.1,2025-01-29 10:34:33,0.0
622.3999999999996,-696.4,864.8000000000002,4204.3,905.1,920.1,2025-01-29 10:34:33,0.0
738.3999999999996,-208.4,572.8000000000002,4311.3,2304.1,694.1,2025-01-29 10:34:33,0.0
378.39999999999964,111.6,600.8000000000002,3970.3,3513.1,-55.89999999999998,2025-01-29 10:34:33,0.0
-249.60000000000036,867.6,740.8000000000002,3368.3,3919.1,-730.9,2025-01-29 10:34:33,0.0
-761.6000000000004,767.6,580.8000000000002,2547.3,3501.1,-907.9,2025-01-29 10:34:33,0.0
-605.6000000000004,775.6,340.8000000000002,1550.3,2879.1,-1068.9,2025-01-29 10:34:33,0.0
-421.60000000000036,-600.4,280.8000000000002,610.3,2310.1,-1448.9,2025-01-29 10:34:33,0.0
-565.6000000000004,-1676.4,1332.8000000000002,155.3,2603.1,-1937.9,2025-01-29 10:34:33,0.0
-1197.6000000000004,-1888.4,2248.8,314.3,2924.1,-2110.9,2025-01-29 10:34:33,0.0
-1313.6000000000004,-1772.4,2064.8,409.3,3109.1,-2190.9,2025-01-29 10:34:33,0.0
-1273.6000000000004,-1316.4,2072.8,217.3,2953.1,-2312.9,2025-01-29 10:34:33,0.0
-1077.6000000000004,-904.4,1328.8000000000002,-102.69999999999999,2705.1,-2517.9,2025-01-29 10:34:33,0.0
-613.6000000000004,-1328.4,1736.8000000000002,-486.7,2570.1,-2584.9,2025-01-29 10:34:33,0.0
-273.60000000000036,-2708.4,2324.8,-523.7,2520.1,-2586.9,2025-01-29 10:34:33,0.0
354.39999999999964,-4556.4,2940.8,-114.69999999999999,3075.1,-2578.9,2025-01-29 10:34:33,0.0
-13.600000000000364,-5332.4,3748.8,580.3,4062.1,-2475.9,2025-01-29 10:34:33,0.0
-761.6000000000004,-5232.4,3332.8,985.3,4740.1,-1677.9,2025-01-29 10:34:33,0.0
-1237.6000000000004,-4420.4,2952.8,1131.3,5260.1,-257.9,2025-01-29 10:34:33,0.0
-641.6000000000004,-3612.4,2748.8,1069.3,5678.1,658.1,2025-01-29 10:34:33,0.0
70.39999999999964,-2924.4,2556.8,1032.3,6478.1,320.1,2025-01-29 10:34:33,0.0
-81.60000000000036,-2652.4,1420.8000000000002,934.3,7265.1,-682.9,2025-01-29 10:34:33,0.0
-997.6000000000004,-2432.4,1036.8000000000002,596.3,8068.1,-1635.9,2025-01-29 10:34:33,0.0
-1525.6000000000004,-2732.4,920.8000000000002,202.3,7921.1,-2140.9,2025-01-29 10:34:33,0.0
-2425.6000000000004,-2868.4,1548.8000000000002,-424.7,6727.1,-2365.9,2025-01-29 10:34:33,0.0
-2301.6000000000004,-3504.4,1216.8000000000002,-1046.7,4770.1,-2367.9,2025-01-29 10:34:33,0.0
-2097.6000000000004,-4556.4,1072.8000000000002,-1293.7,1908.1,-2054.9,2025-01-29 10:34:33,0.0
-1397.6000000000004,-5316.4,1684.8000000000002,-857.7,304.1,-1515.9,2025-01-29 10:34:33,0.0
-509.60000000000036,-5380.4,1776.8000000000002,-460.7,-125.89999999999998,-1084.9,2025-01-29 10:34:33,0.0
110.39999999999964,-4692.4,2056.8,-308.7,281.1,-858.9,2025-01-29 10:34:33,0.0
322.39999999999964,-4068.4,1380.8000000000002,-663.7,1077.1,-622.9,2025-01-29 10:34:33,0.0
230.39999999999964,-3604.4,1804.8000000000002,-960.7,1606.1,-256.9,2025-01-29 10:34:33,0.0
330.39999999999964,-3476.4,1812.8000000000002,-1325.7,1741.1,-37.89999999999998,2025-01-29 10:34:33,0.0
514.3999999999996,-3580.4,1792.8000000000002,-1672.7,1722.1,-76.89999999999998,2025-01-29 10:34:33,0.0
306.39999999999964,-3736.4,1476.8000000000002,-2014.7,1946.1,-62.89999999999998,2025-01-29 10:34:33,0.0
-13.600000000000364,-4016.4,1304.8000000000002,-2308.7,2264.1,-1.8999999999999773,2025-01-29 10:34:33,0.0
-349.60000000000036,-3512.4,1632.8000000000002,-2782.7,2618.1,-34.89999999999998,2025-01-29 10:34:33,0.0
-981.6000000000004,-2040.4,1556.8000000000002,-3580.7,2402.1,-282.9,2025-01-29 10:34:33,0.0
-1189.6000000000004,-1864.4,972.8000000000002,-4387.7,1718.1,-411.9,2025-01-29 10:34:33,0.0
-909.6000000000004,-2848.4,756.8000000000002,-5019.7,1217.1,-555.9,2025-01-29 10:34:33,0.0
-433.60000000000036,-3396.4,600.8000000000002,-5098.7,988.1,-577.9,2025-01-29 10:34:33,0.0
-833.6000000000004,-4896.4,820.8000000000002,-5097.7,1220.1,-380.9,2025-01-29 10:34:33,0.0
-977.6000000000004,-6528.4,1120.8000000000002,-4623.7,1563.1,-235.89999999999998,2025-01-29 10:34:33,0.0
-1397.6000000000004,-6496.4,1776.8000000000002,-3779.7,2008.1,-448.9,2025-01-29 10:34:33,0.0
-2573.6000000000004,-5028.4,2588.8,-3410.7,1877.1,-418.9,2025-01-29 10:34:33,0.0
-2725.6000000000004,-3508.4,2216.8,-3774.7,770.1,-310.9,2025-01-29 10:34:33,0.0
-2309.6000000000004,-2640.4,652.8000000000002,-4228.7,350.1,-1124.9,2025-01-29 10:34:33,0.0
-2701.6000000000004,-3404.4,-619.1999999999998,-4563.7,611.1,-1829.9,2025-01-29 10:34:33,0.0
-3113.6000000000004,-5092.4,-435.1999999999998,-4400.7,211.10000000000002,-2339.9,2025-01-29 10:34:34,0.0
-3601.6000000000004,-5920.4,840.8000000000002,-3550.7,-977.9,-2367.9,2025-01-29 10:34:34,0.0
-4157.6,-6080.4,592.8000000000002,-2863.7,-2962.9,-1322.9,2025-01-29 10:34:34,0.0
-3645.6000000000004,-5932.4,-279.1999999999998,-2559.7,-4189.9,368.1,2025-01-29 10:34:34,0.0
-1881.6000000000004,-5264.4,-1031.1999999999998,-2263.7,-3843.9,1642.1,2025-01-29 10:34:34,0.0
-65.60000000000036,-4052.4,-2091.2,-2329.7,-3306.9,2146.1,2025-01-29 10:34:34,0.0
1214.3999999999996,-3028.4,-3011.2,-2670.7,-2966.9,2251.1,2025-01-29 10:34:34,0.0
1906.3999999999996,-2004.4,-2671.2,-3037.7,-2535.9,2370.1,2025-01-29 10:34:34,0.0
2178.3999999999996,-848.4,-1835.1999999999998,-2805.7,-1985.9,2617.1,2025-01-29 10:34:34,0.0
2158.3999999999996,127.6,-1635.1999999999998,-2700.7,-1235.9,2780.1,2025-01-29 10:34:34,0.0
2346.3999999999996,1147.6,-1763.1999999999998,-2398.7,263.1,2473.1,2025-01-29 10:34:34,0.0
1574.3999999999996,959.6,-1615.1999999999998,-2595.7,812.1,2078.1,2025-01-29 10:34:34,0.0
754.3999999999996,503.6,-1891.1999999999998,-3058.7,922.1,1953.1,2025-01-29 10:34:34,0.0
38.399999999999636,-136.4,-971.1999999999998,-3375.7,946.1,2162.1,2025-01-29 10:34:34,0.0
-317.60000000000036,-748.4,-419.1999999999998,-3209.7,898.1,2596.1,2025-01-29 10:34:34,0.0
-85.60000000000036,-1136.4,0.8000000000001819,-2829.7,325.1,2905.1,2025-01-29 10:34:34,0.0
422.39999999999964,-1704.4,312.8000000000002,-2409.7,-1.8999999999999773,2865.1,2025-01-29 10:34:34,0.0
766.3999999999996,-1780.4,180.80000000000018,-1829.7,-209.89999999999998,2781.1,2025-01-29 10:34:34,0.0
810.3999999999996,-1224.4,396.8000000000002,-1368.7,-488.9,2749.1,2025-01-29 10:34:34,0.0
834.3999999999996,-632.4,264.8000000000002,-1071.7,-876.9,2769.1,2025-01-29 10:34:34,0.0
1294.3999999999996,491.6,584.8000000000002,-562.7,468.1,2891.1,2025-01-29 10:34:34,0.0
758.3999999999996,955.6,732.8000000000002,-437.7,805.1,2763.1,2025-01-29 10:34:34,0.0
578.3999999999996,1207.6,688.8000000000002,-486.7,905.1,2477.1,2025-01-29 10:34:34,0.0
622.3999999999996,1339.6,696.8000000000002,-575.7,587.1,1947.1,2025-01-29 10:34:34,0.0
342.39999999999964,1331.6,788.8000000000002,-580.7,114.10000000000002,1307.1,2025-01-29 10:34:34,0.0
222.39999999999964,1027.6,1088.8000000000002,-547.7,-404.9,850.1,2025-01-29 10:34:34,0.0
126.39999999999964,239.6,1368.8000000000002,-472.7,-964.9,480.1,2025-01-29 10:34:34,0.0
326.39999999999964,-248.4,1676.8000000000002,-253.7,-1377.9,146.10000000000002,2025-01-29 10:34:34,0.0
738.3999999999996,-340.4,1908.8000000000002,134.3,-1549.9,-152.89999999999998,2025-01-29 10:34:34,0.0
726.3999999999996,-84.4,2076.8,457.3,-1393.9,-383.9,2025-01-29 10:34:34,0.0
354.39999999999964,363.6,2428.8,750.3,-775.9,-363.9,2025-01-29 10:34:34,0.0
226.39999999999964,587.6,2480.8,1036.3,-128.89999999999998,-263.9,2025-01-29 10:34:34,0.0
86.39999999999964,307.6,2052.8,1353.3,430.1,-259.9,2025-01-29 10:34:34,0.0
-441.60000000000036,-400.4,2192.8,1847.3,481.1,-137.89999999999998,2025-01-29 10:34:34,0.0
-653.6000000000004,-752.4,2236.8,2374.3,261.1,137.10000000000002,2025-01-29 10:34:34,0.0
-497.60000000000036,-632.4,2064.8,2904.3,52.10000000000002,457.1,2025-01-29 10:34:34,0.0
-705.6000000000004,-488.4,2176.8,3508.3,613.1,756.1,2025-01-29 10:34:34,0.0
-1169.6000000000004,-308.4,2248.8,4241.3,1660.1,1037.1,2025-01-29 10:34:34,0.0
-2237.6000000000004,-580.4,2000.8000000000002,4680.3,2153.1,1565.1,2025-01-29 10:34:34,0.0
-2805.6000000000004,-408.4,1440.8000000000002,4985.3,1784.1,2172.1,2025-01-29 10:34:34,0.0
-2753.6000000000004,-752.4,436.8000000000002,4950.3,617.1,2614.1,2025-01-29 10:34:34,0.0
-2397.6000000000004,-1360.4,1144.8000000000002,4795.3,-108.89999999999998,2711.1,2025-01-29 10:34:34,0.0
-2197.6000000000004,-340.4,1844.8000000000002,4899.3,-564.9,2733.1,2025-01-29 10:34:34,0.0
-1937.6000000000004,1471.6,2192.8,4655.3,-677.9,2760.1,2025-01-29 10:34:34,
-1745.6000000000004,2551.6,2200.8,4229.3,-151.89999999999998,2601.1,2025-01-29 10:34:34,0.0
-1589.6000000000004,2067.6,604.8000000000002,3640.3,1386.1,2247.1,2025-01-29 10:34:34,0.0
-2153.6000000000004,1355.6,-391.1999999999998,2819.3,2934.1,1798.1,2025-01-29 10:34:34,0.0
-3381.6000000000004,1691.6,-1015.1999999999998,1899.3,3756.1,1698.1,2025-01-29 10:34:34,0.0
-4301.6,1851.6,-1831.1999999999998,881.3,4064.1,2117.1,2025-01-29 10:34:34,0.0
-4897.6,1611.6,-2859.2,-326.7,4407.1,2615.1,2025-01-29 10:34:34,0.0
-4821.6,1599.6,-3707.2,-1429.7,4313.1,2920.1,2025-01-29 10:34:34,0.0
-3437.6000000000004,1667.6,-3875.2,-2814.7,2045.1,2861.1,2025-01-29 10:34:34,0.0
-721.6000000000004,983.6,-231.19999999999982,-3041.7,-1322.9,1592.1,2025-01-29 10:34:34,0.0
1774.3999999999996,259.6,2204.8,-1922.7,-4676.9,-717.9,2025-01-29 10:34:34,0.0
3510.3999999999996,-528.4,2252.8,-665.7,-6420.9,-2619.9,2025-01-29 10:34:34,0.0
4582.4,-1832.4,1892.8000000000002,348.3,-6400.9,-3654.9,2025-01-29 10:34:34,0.0
4254.4,-2832.4,480.8000000000002,1453.3,-3959.9,-3494.9,2025-01-29 10:34:34,0.0
3890.3999999999996,-2832.4,-2903.2,1956.3,2153.1,-2531.9,2025-01-29 10:34:34,0.0
4082.3999999999996,-2832.4,-3327.2,1414.3,6331.1,-2185.9,2025-01-29 10:34:35,0.0
2670.3999999999996,-2872.4,-2291.2,1502.3,7208.1,-2037.9,2025-01-29 10:34:35,0.0
1154.3999999999996,-2940.4,-1859.1999999999998,1808.3,5792.1,-1813.9,2025-01-29 10:34:35,0.0
-265.60000000000036,-2756.4,-1467.1999999999998,1720.3,3582.1,-1447.9,2025-01-29 10:34:35,0.0
-1029.6000000000004,-2176.4,-1187.1999999999998,1545.3,1044.1,-691.9,2025-01-29 10:34:35,0.0
-141.60000000000036,-1296.4,-1719.1999999999998,1165.3,-850.9,-348.9,2025-01-29 10:34:35,0.0
858.3999999999996,-880.4,-1475.1999999999998,661.3,-1444.9,-676.9,2025-01-29 10:34:35,0.0
1570.3999999999996,-1180.4,-1195.1999999999998,228.3,-1337.9,-1263.9,2025-01-29 10:34:35,0.0
1626.3999999999996,-1296.4,-539.1999999999998,122.30000000000001,-829.9,-1984.9,2025-01-29 10:34:35,0.0
934.3999999999996,-1512.4,-175.19999999999982,-23.69999999999999,1.1000000000000227,-2496.9,2025-01-29 10:34:35,0.0
646.3999999999996,-1384.4,-199.19999999999982,-326.7,-86.89999999999998,-2576.9,2025-01-29 10:34:35,0.0
894.3999999999996,-1260.4,-335.1999999999998,-855.7,-359.9,-2559.9,2025-01-29 10:34:35,0.0
1358.3999999999996,-1220.4,-179.19999999999982,-1486.7,-394.9,-2655.9,2025-01-29 10:34:35,0.0
1822.3999999999996,-1540.4,256.8000000000002,-1978.7,149.10000000000002,-2930.9,2025-01-29 10:34:35,0.0
2010.3999999999996,-1916.4,340.8000000000002,-2259.7,919.1,-3180.9,2025-01-29 10:34:35,0.0
1782.3999999999996,-2096.4,740.8000000000002,-2434.7,1918.1,-3277.9,2025-01-29 10:34:35,0.0
1646.3999999999996,-2180.4,1036.8000000000002,-2546.7,2860.1,-3279.9,2025-01-29 10:34:35,0.0
1362.3999999999996,-2328.4,936.8000000000002,-2689.7,3782.1,-3418.9,2025-01-29 10:34:35,0.0
634.3999999999996,-2648.4,732.8000000000002,-2847.7,4110.1,-3391.9,2025-01-29 10:34:35,0.0
106.39999999999964,-2812.4,-179.19999999999982,-3026.7,4192.1,-3283.9,2025-01-29 10:34:35,0.0
-381.60000000000036,-2792.4,-179.19999999999982,-3244.7,3850.1,-2964.9,2025-01-29 10:34:35,0.0
-793.6000000000004,-2692.4,-351.1999999999998,-3469.7,3191.1,-2542.9,2025-01-29 10:34:35,0.0
-1005.6000000000004,-2528.4,-219.19999999999982,-3707.7,2314.1,-2126.9,2025-01-29 10:34:35,0.0
-593.6000000000004,-2296.4,-295.1999999999998,-4010.7,1530.1,-1610.9,2025-01-29 10:34:35,0.0
-305.60000000000036,-2408.4,100.80000000000018,-4434.7,1068.1,-1241.9,2025-01-29 10:34:35,0.0
-349.60000000000036,-2688.4,1212.8000000000002,-4654.7,833.1,-1161.9,2025-01-29 10:34:35,0.0
-257.60000000000036,-3076.4,1296.8000000000002,-4553.7,630.1,-899.9,2025-01-29 10:34:35,0.0
114.39999999999964,-2888.4,1152.8000000000002,-4345.7,560.1,-603.9,2025-01-29 10:34:35,0.0
854.3999999999996,-2108.4,388.8000000000002,-4573.7,554.1,-388.9,2025-01-29 10:34:35,0.0
1354.3999999999996,-1488.4,-163.19999999999982,-5095.7,729.1,-611.9,2025-01-29 10:34:35,0.0
1030.3999999999996,-1248.4,204.80000000000018,-5815.7,1347.1,-666.9,2025-01-29 10:34:35,0.0
942.3999999999996,-356.4,-3.199999999999818,-6216.7,1855.1,-694.9,2025-01-29 10:34:35,0.0
858.3999999999996,451.6,-647.1999999999998,-6705.7,2077.1,-1146.9,2025-01-29 10:34:35,0.0
630.3999999999996,-1324.4,-559.1999999999998,-7365.7,2198.1,-1850.9,2025-01-29 10:34:35,0.0
122.39999999999964,-3968.4,-179.19999999999982,-7566.7,2220.1,-2522.9,2025-01-29 10:34:35,0.0
-293.60000000000036,-5356.4,696.8000000000002,-6657.7,2646.1,-3410.9,2025-01-29 10:34:35,0.0
-1857.6000000000004,-5796.4,1176.8000000000002,-5490.7,2978.1,-4354.9,2025-01-29 10:34:35,0.0
-3321.6000000000004,-5072.4,2028.8000000000002,-4364.7,2587.1,-4819.9,2025-01-29 10:34:35,0.0
-3929.6000000000004,-4588.4,1636.8000000000002,-3714.7,1021.1,-4231.9,2025-01-29 10:34:35,0.0
-3161.6000000000004,-4868.4,-207.19999999999982,-3543.7,478.1,-3623.9,2025-01-29 10:34:35,0.0
-2421.6000000000004,-6060.4,-2011.1999999999998,-3243.7,908.1,-3028.9,2025-01-29 10:34:35,0.0
-3037.6000000000004,-7380.4,-1315.1999999999998,-2038.7,1576.1,-2424.9,2025-01-29 10:34:35,0.0
-3617.6000000000004,-7716.4,-1527.1999999999998,-124.69999999999999,1516.1,-1480.9,2025-01-29 10:34:35,0.0
-4581.6,-6360.4,-3111.2,1357.3,83.10000000000002,180.10000000000002,2025-01-29 10:34:35,0.0
-4489.6,-3764.4,-3747.2,1910.3,-2280.9,2231.1,2025-01-29 10:34:35,0.0
-2173.6000000000004,-2312.4,-4531.2,2277.3,-4234.9,2835.1,2025-01-29 10:34:35,0.0
-797.6000000000004,-1284.4,-4071.2,2062.3,-5845.9,2599.1,2025-01-29 10:34:35,0.0
786.3999999999996,-1124.4,-3491.2,1257.3,-8094.9,3134.1,2025-01-29 10:34:35,0.0
3966.3999999999996,-140.4,-3195.2,887.3,-8951.9,3202.1,2025-01-29 10:34:35,0.0
5458.4,1183.6,-2231.2,127.30000000000001,-7846.9,2440.1,2025-01-29 10:34:35,0.0
6266.4,2899.6,-1791.1999999999998,-936.7,-5398.9,1566.1,2025-01-29 10:34:35,0.0
6766.4,3443.6,-1799.1999999999998,-2049.7,-1660.9,416.1,2025-01-29 10:34:35,0.0
6898.4,3243.6,-1863.1999999999998,-2685.7,2355.1,-1227.9,2025-01-29 10:34:35,0.0
4582.4,1791.6,-1887.1999999999998,-3290.7,5112.1,-2436.9,2025-01-29 10:34:35,0.0
1794.3999999999996,283.6,-1795.1999999999998,-3677.7,6370.1,-2380.9,2025-01-29 10:34:35,0.0
266.39999999999964,-960.4,-2507.2,-3993.7,6819.1,-1973.9,2025-01-29 10:34:35,0.0
-1977.6000000000004,-1992.4,-2323.2,-4254.7,6304.1,-1655.9,2025-01-29 10:34:35,0.0
-4541.6,-2336.4,-1751.1999999999998,-3767.7,3696.1,-494.9,2025-01-29 10:34:35,0.0
-4905.6,-2444.4,-1327.1999999999998,-3325.7,-1015.9,1620.1,2025-01-29 10:34:35,0.0
-2649.6000000000004,-2028.4,-543.1999999999998,-2788.7,-4748.9,2785.1,2025-01-29 10:34:35,0.0
-81.60000000000036,-1748.4,-627.1999999999998,-2224.7,-6167.9,2899.1,2025-01-29 10:34:35,0.0
2194.3999999999996,-1488.4,240.80000000000018,-1463.7,-5924.9,3037.1,2025-01-29 10:34:36,0.0
3594.3999999999996,-1176.4,1388.8000000000002,-622.7,-4058.9,3196.1,2025-01-29 10:34:36,0.0
3882.3999999999996,-608.4,1952.8000000000002,-0.6999999999999886,-594.9,3353.1,2025-01-29 10:34:36,0.0
3718.3999999999996,603.6,1272.8000000000002,353.3,3495.1,3199.1,2025-01-29 10:34:36,0.0
2086.3999999999996,1343.6,340.8000000000002,372.3,5200.1,2834.1,2025-01-29 10:34:36,0.0
258.39999999999964,1503.6,-179.19999999999982,213.3,4932.1,2737.1,2025-01-29 10:34:36,0.0
-245.60000000000036,1451.6,-467.1999999999998,-16.69999999999999,3301.1,2548.1,2025-01-29 10:34:36,0.0
-517.6000000000004,935.6,-123.19999999999982,-10.699999999999989,997.1,2009.1,2025-01-29 10:34:36,0.0
-317.60000000000036,599.6,296.8000000000002,63.30000000000001,-875.9,1385.1,2025-01-29 10:34:36,0.0
462.39999999999964,243.6,476.8000000000002,189.3,-2015.9,959.1,2025-01-29 10:34:36,0.0
814.3999999999996,-256.4,928.8000000000002,209.3,-2324.9,632.1,2025-01-29 10:34:36,0.0
1370.3999999999996,-404.4,1052.8000000000002,337.3,-1815.9,319.1,2025-01-29 10:34:36,0.0
1318.3999999999996,-392.4,976.8000000000002,313.3,-943.9,70.10000000000002,2025-01-29 10:34:36,0.0
802.3999999999996,-204.4,1736.8000000000002,474.3,-444.9,34.10000000000002,2025-01-29 10:34:36,0.0
414.39999999999964,-80.4,1540.8000000000002,721.3,-81.89999999999998,241.10000000000002,2025-01-29 10:34:36,0.0
-237.60000000000036,-464.4,1960.8000000000002,1111.3,501.1,618.1,2025-01-29 10:34:36,0.0
-365.60000000000036,-1244.4,2432.8,1770.3,1077.1,825.1,2025-01-29 10:34:36,0.0
-789.6000000000004,-1784.4,2400.8,2689.3,1576.1,897.1,2025-01-29 10:34:36,0.0
-1633.6000000000004,-1352.4,1304.8000000000002,3349.3,1656.1,1092.1,2025-01-29 10:34:36,0.0
-2877.6000000000004,-552.4,148.80000000000018,3759.3,1133.1,1825.1,2025-01-29 10:34:36,0.0
-3309.6000000000004,-404.4,-199.19999999999982,3788.3,305.1,2491.1,2025-01-29 10:34:36,0.0
-3505.6000000000004,-924.4,1352.8000000000002,3842.3,-406.9,2879.1,2025-01-29 10:34:36,0.0
-2973.6000000000004,-560.4,2120.8,4309.3,-979.9,2908.1,2025-01-29 10:34:36,0.0
-2737.6000000000004,3.5999999999999996,2396.8,4683.3,-1393.9,2781.1,2025-01-29 10:34:36,0.0
-2553.6000000000004,-236.4,1656.8000000000002,4826.3,-1254.9,2853.1,2025-01-29 10:34:36,
-2933.6000000000004,-824.4,4.800000000000182,4521.3,-100.89999999999998,3673.1,2025-01-29 10:34:36,0.0
-2257.6000000000004,827.6,-731.1999999999998,4101.3,2119.1,4632.1,2025-01-29 10:34:36,0.0
-2401.6000000000004,2383.6,-1555.1999999999998,3536.3,3162.1,5026.1,2025-01-29 10:34:36,0.0
-1953.6000000000004,3495.6,-2535.2,2564.3,2746.1,4430.1,2025-01-29 10:34:36,0.0
-1629.6000000000004,3923.6,-3407.2,1648.3,1801.1,3089.1,2025-01-29 10:34:36,0.0
-1965.6000000000004,3715.6,-3739.2,583.3,630.1,1664.1,2025-01-29 10:34:36,0.0
-1345.6000000000004,2131.6,-2579.2,-438.7,-1076.9,369.1,2025-01-29 10:34:36,0.0
-105.60000000000036,887.6,-1631.1999999999998,-425.7,-2841.9,-338.9,2025-01-29 10:34:36,0.0
930.3999999999996,-32.4,-1287.1999999999998,17.30000000000001,-4095.9,-459.9,2025-01-29 10:34:36,0.0
2818.3999999999996,-792.4,-579.1999999999998,259.3,-4511.9,-375.9,2025-01-29 10:34:36,0.0
4058.3999999999996,-1244.4,-363.1999999999998,541.3,-4051.9,-515.9,2025-01-29 10:34:36,0.0
4542.4,-1916.4,48.80000000000018,523.3,-2755.9,-532.9,2025-01-29 10:34:36,0.0
4354.4,-2708.4,492.8000000000002,681.3,-745.9,-176.89999999999998,2025-01-29 10:34:36,0.0
4122.4,-3292.4,-171.19999999999982,1130.3,2342.1,385.1,2025-01-29 10:34:36,0.0
3606.3999999999996,-3496.4,-903.1999999999998,1178.3,3918.1,566.1,2025-01-29 10:34:36,0.0
1878.3999999999996,-2440.4,-679.1999999999998,1340.3,5363.1,629.1,2025-01-29 10:34:36,0.0
606.3999999999996,-1136.4,-1291.1999999999998,1301.3,5810.1,711.1,2025-01-29 10:34:36,0.0
-613.6000000000004,-52.4,-1523.1999999999998,688.3,5642.1,440.1,2025-01-29 10:34:36,0.0
-1205.6000000000004,123.6,-811.1999999999998,-23.69999999999999,4361.1,-137.89999999999998,2025-01-29 10:34:36,0.0
-933.6000000000004,-344.4,-651.1999999999998,-247.7,1317.1,-1323.9,2025-01-29 10:34:36,0.0
-609.6000000000004,-792.4,-1651.1999999999998,-343.7,-793.9,-2199.9,2025-01-29 10:34:36,0.0
446.39999999999964,-1092.4,-1871.1999999999998,-747.7,-1717.9,-2515.9,2025-01-29 10:34:36,0.0
1742.3999999999996,-1652.4,-1055.1999999999998,-1348.7,-1369.9,-2831.9,2025-01-29 10:34:36,0.0
2630.3999999999996,-2160.4,-459.1999999999998,-1839.7,-404.9,-3298.9,2025-01-29 10:34:36,0.0
2950.3999999999996,-2776.4,-375.1999999999998,-2017.7,1154.1,-3720.9,2025-01-29 10:34:36,0.0
