acceleration_x,acceleration_y,acceleration_z,gyroscope_x,gyroscope_y,gyroscope_z,timestamp,label
5.600000000000364,-37.19999999999999,2.399999999999636,15.0,1.8000000000000114,30.099999999999994,2025-01-29 10:33:01,0.0
-78.39999999999964,54.80000000000001,14.399999999999636,1.0,-8.199999999999989,29.099999999999994,2025-01-29 10:33:01,0.0
101.60000000000036,-61.19999999999999,-37.600000000000364,5.0,-27.19999999999999,3.0999999999999943,2025-01-29 10:33:01,0.0
69.60000000000036,62.80000000000001,-101.60000000000036,4.0,-44.19999999999999,5.099999999999994,2025-01-29 10:33:01,0.0
21.600000000000364,46.80000000000001,-25.600000000000364,14.0,33.80000000000001,3.0999999999999943,2025-01-29 10:33:01,0.0
29.600000000000364,42.80000000000001,78.39999999999964,-20.0,37.80000000000001,-17.900000000000006,2025-01-29 10:33:01,0.0
-14.399999999999636,-41.19999999999999,-61.600000000000364,-6.0,12.800000000000011,-15.900000000000006,2025-01-29 10:33:01,0.0
-134.39999999999964,2.8000000000000114,-57.600000000000364,-12.0,41.80000000000001,-13.900000000000006,2025-01-29 10:33:01,0.0
29.600000000000364,-53.19999999999999,134.39999999999964,5.0,-15.199999999999989,-16.900000000000006,2025-01-29 10:33:01,0.0
-30.399999999999636,-17.19999999999999,54.399999999999636,-6.0,-33.19999999999999,-5.900000000000006,2025-01-29 10:33:01,0.0
33.600000000000364,-77.19999999999999,18.399999999999636,-2.0,-17.19999999999999,3.0999999999999943,2025-01-29 10:33:01,0.0
25.600000000000364,-69.19999999999999,158.39999999999964,42.0,-33.19999999999999,-29.900000000000006,2025-01-29 10:33:01,0.0
25.600000000000364,-85.19999999999999,-33.600000000000364,58.0,-19.19999999999999,19.099999999999994,2025-01-29 10:33:01,0.0
-18.399999999999636,58.80000000000001,174.39999999999964,28.0,6.800000000000011,-0.9000000000000057,2025-01-29 10:33:01,0.0
-6.399999999999636,-33.19999999999999,-29.600000000000364,48.0,56.80000000000001,19.099999999999994,2025-01-29 10:33:01,0.0
9.600000000000364,86.80000000000001,158.39999999999964,38.0,91.80000000000001,11.099999999999994,2025-01-29 10:33:01,0.0
33.600000000000364,90.80000000000001,-101.60000000000036,22.0,47.80000000000001,-9.900000000000006,2025-01-29 10:33:01,0.0
41.600000000000364,62.80000000000001,82.39999999999964,-22.0,-7.199999999999989,-4.900000000000006,2025-01-29 10:33:01,0.0
153.60000000000036,30.80000000000001,18.399999999999636,-44.0,5.800000000000011,8.099999999999994,2025-01-29 10:33:01,0.0
165.60000000000036,86.80000000000001,-45.600000000000364,-79.0,108.80000000000001,-24.900000000000006,2025-01-29 10:33:01,0.0
97.60000000000036,102.80000000000001,226.39999999999964,-69.0,151.8,-22.900000000000006,2025-01-29 10:33:01,0.0
65.60000000000036,102.80000000000001,14.399999999999636,-82.0,22.80000000000001,-7.900000000000006,2025-01-29 10:33:01,0.0
-58.399999999999636,-45.19999999999999,-85.60000000000036,-101.0,-72.19999999999999,-19.900000000000006,2025-01-29 10:33:01,0.0
-30.399999999999636,-221.2,-85.60000000000036,-58.0,-87.19999999999999,-13.900000000000006,2025-01-29 10:33:01,0.0
13.600000000000364,22.80000000000001,110.39999999999964,-38.0,-26.19999999999999,24.099999999999994,2025-01-29 10:33:01,0.0
21.600000000000364,58.80000000000001,-45.600000000000364,-26.0,53.80000000000001,15.099999999999994,2025-01-29 10:33:01,0.0
61.600000000000364,166.8,38.399999999999636,-27.0,92.80000000000001,29.099999999999994,2025-01-29 10:33:01,0.0
89.60000000000036,-5.199999999999989,18.399999999999636,6.0,37.80000000000001,16.099999999999994,2025-01-29 10:33:01,0.0
-6.399999999999636,-49.19999999999999,6.399999999999636,11.0,22.80000000000001,57.099999999999994,2025-01-29 10:33:01,0.0
-94.39999999999964,-61.19999999999999,-129.60000000000036,49.0,3.8000000000000114,65.1,2025-01-29 10:33:01,0.0
-98.39999999999964,22.80000000000001,-69.60000000000036,122.0,-64.19999999999999,80.1,2025-01-29 10:33:01,0.0
109.60000000000036,-17.19999999999999,-197.60000000000036,85.0,-72.19999999999999,115.1,2025-01-29 10:33:01,0.0
-126.39999999999964,158.8,-229.60000000000036,109.0,-158.2,161.1,2025-01-29 10:33:01,0.0
-42.399999999999636,274.8,-393.60000000000036,60.0,-226.2,200.1,2025-01-29 10:33:01,0.0
13.600000000000364,266.8,-265.60000000000036,-49.0,-314.2,163.1,2025-01-29 10:33:01,0.0
-70.39999999999964,258.8,18.399999999999636,-97.0,-413.2,122.1,2025-01-29 10:33:01,0.0
141.60000000000036,-41.19999999999999,238.39999999999964,-48.0,-457.2,114.1,2025-01-29 10:33:01,0.0
133.60000000000036,-185.2,190.39999999999964,63.0,-326.2,146.1,2025-01-29 10:33:01,0.0
201.60000000000036,-53.19999999999999,66.39999999999964,211.0,-138.2,147.1,2025-01-29 10:33:01,0.0
57.600000000000364,286.8,6.399999999999636,247.0,-28.19999999999999,101.1,2025-01-29 10:33:01,0.0
-142.39999999999964,326.8,150.39999999999964,270.0,-56.19999999999999,127.1,2025-01-29 10:33:01,0.0
-150.39999999999964,190.8,370.39999999999964,344.0,-199.2,160.1,2025-01-29 10:33:01,0.0
-82.39999999999964,50.80000000000001,374.39999999999964,459.0,-279.2,153.1,2025-01-29 10:33:01,0.0
13.600000000000364,22.80000000000001,414.39999999999964,525.0,-269.2,139.1,2025-01-29 10:33:01,0.0
133.60000000000036,82.80000000000001,418.39999999999964,656.0,-170.2,56.099999999999994,2025-01-29 10:33:01,0.0
185.60000000000036,270.8,234.39999999999964,751.0,-141.2,7.099999999999994,2025-01-29 10:33:01,0.0
173.60000000000036,194.8,406.39999999999964,772.0,-141.2,10.099999999999994,2025-01-29 10:33:01,0.0
-122.39999999999964,230.8,450.39999999999964,868.0,-17.19999999999999,61.099999999999994,2025-01-29 10:33:01,0.0
-74.39999999999964,130.8,250.39999999999964,913.0,97.80000000000001,137.1,2025-01-29 10:33:01,0.0
-110.39999999999964,34.80000000000001,418.39999999999964,959.0,124.80000000000001,152.1,2025-01-29 10:33:01,0.0
-90.39999999999964,-85.19999999999999,406.39999999999964,1011.0,89.80000000000001,242.1,2025-01-29 10:33:02,0.0
-26.399999999999636,-129.2,358.39999999999964,1094.0,190.8,252.1,2025-01-29 10:33:02,0.0
-130.39999999999964,-213.2,374.39999999999964,1261.0,211.8,291.1,2025-01-29 10:33:02,0.0
-166.39999999999964,-229.2,394.39999999999964,1406.0,183.8,274.1,2025-01-29 10:33:02,0.0
-34.399999999999636,-345.2,450.39999999999964,1545.0,171.8,315.1,2025-01-29 10:33:02,0.0
-86.39999999999964,-305.2,418.39999999999964,1704.0,118.80000000000001,300.1,2025-01-29 10:33:02,0.0
-138.39999999999964,-249.2,122.39999999999964,1827.0,18.80000000000001,343.1,2025-01-29 10:33:02,0.0
-66.39999999999964,-221.2,154.39999999999964,1830.0,-74.19999999999999,349.1,2025-01-29 10:33:02,0.0
117.60000000000036,-81.19999999999999,-41.600000000000364,1825.0,-42.19999999999999,319.1,2025-01-29 10:33:02,0.0
25.600000000000364,202.8,-177.60000000000036,1801.0,48.80000000000001,295.1,2025-01-29 10:33:02,0.0
-46.399999999999636,246.8,-241.60000000000036,1774.0,99.80000000000001,321.1,2025-01-29 10:33:02,0.0
-34.399999999999636,226.8,-69.60000000000036,1619.0,73.80000000000001,297.1,2025-01-29 10:33:02,0.0
-178.39999999999964,254.8,-101.60000000000036,1574.0,-44.19999999999999,305.1,2025-01-29 10:33:02,0.0
-102.39999999999964,238.8,82.39999999999964,1468.0,1.8000000000000114,288.1,2025-01-29 10:33:02,0.0
145.60000000000036,158.8,186.39999999999964,1439.0,208.8,210.1,2025-01-29 10:33:02,0.0
245.60000000000036,38.80000000000001,-145.60000000000036,1613.0,270.8,127.1,2025-01-29 10:33:02,0.0
189.60000000000036,-209.2,-353.60000000000036,1726.0,390.8,46.099999999999994,2025-01-29 10:33:02,0.0
-54.399999999999636,-309.2,-77.60000000000036,1894.0,515.8,-24.900000000000006,2025-01-29 10:33:02,0.0
-394.39999999999964,-285.2,-105.60000000000036,2022.0,277.8,-29.900000000000006,2025-01-29 10:33:02,0.0
-582.3999999999996,-237.2,-9.600000000000364,1998.0,-182.2,-0.9000000000000057,2025-01-29 10:33:02,0.0
-642.3999999999996,274.8,-85.60000000000036,1997.0,-731.2,34.099999999999994,2025-01-29 10:33:02,0.0
-266.39999999999964,658.8,-1.6000000000003638,1854.0,-1043.2,-123.9,2025-01-29 10:33:02,0.0
137.60000000000036,690.8,130.39999999999964,1731.0,-1229.2,-223.9,2025-01-29 10:33:02,0.0
117.60000000000036,746.8,38.399999999999636,1770.0,-1213.2,-204.9,2025-01-29 10:33:02,0.0
209.60000000000036,818.8,-301.60000000000036,1713.0,-797.2,-202.9,2025-01-29 10:33:02,0.0
25.600000000000364,1146.8,-201.60000000000036,1357.0,-503.2,-230.9,2025-01-29 10:33:02,0.0
-130.39999999999964,1174.8,-13.600000000000364,1068.0,-523.2,-236.9,2025-01-29 10:33:02,0.0
97.60000000000036,1326.8,270.39999999999964,877.0,-842.2,-266.9,2025-01-29 10:33:02,0.0
529.6000000000004,1186.8,298.39999999999964,618.0,-1208.2,-382.9,2025-01-29 10:33:02,0.0
817.6000000000004,954.8,-325.60000000000036,404.0,-1075.2,-464.9,2025-01-29 10:33:02,0.0
969.6000000000004,526.8,-217.60000000000036,291.0,-428.2,-493.9,2025-01-29 10:33:02,0.0
705.6000000000004,462.8,-13.600000000000364,93.0,-5.199999999999989,-667.9,2025-01-29 10:33:02,0.0
177.60000000000036,210.8,186.39999999999964,-411.0,-117.19999999999999,-822.9,2025-01-29 10:33:02,0.0
-90.39999999999964,366.8,342.39999999999964,-814.0,-482.2,-1084.9,2025-01-29 10:33:02,0.0
-58.399999999999636,398.8,-113.60000000000036,-1360.0,-653.2,-1419.9,2025-01-29 10:33:02,0.0
113.60000000000036,134.8,-109.60000000000036,-1624.0,-743.2,-1735.9,2025-01-29 10:33:02,0.0
333.60000000000036,-625.2,14.399999999999636,-1634.0,-565.2,-1882.9,2025-01-29 10:33:02,0.0
697.6000000000004,-1489.2,482.39999999999964,-1512.0,-34.19999999999999,-2051.9,2025-01-29 10:33:02,0.0
637.6000000000004,-2461.2,1058.3999999999996,-1200.0,537.8,-2106.9,2025-01-29 10:33:02,0.0
93.60000000000036,-3189.2,1446.3999999999996,-757.0,1034.8,-1881.9,2025-01-29 10:33:02,0.0
-458.39999999999964,-3401.2,1298.3999999999996,-243.0,1380.8,-1672.9,2025-01-29 10:33:02,0.0
-1022.3999999999996,-3385.2,1242.3999999999996,60.0,1175.8,-1712.9,2025-01-29 10:33:02,0.0
-1346.3999999999996,-3045.2,1822.3999999999996,249.0,724.8,-1739.9,2025-01-29 10:33:02,0.0
-1162.3999999999996,-2537.2,2002.3999999999996,257.0,101.80000000000001,-1730.9,2025-01-29 10:33:02,0.0
-326.39999999999964,-1857.2,2130.3999999999996,102.0,48.80000000000001,-1969.9,2025-01-29 10:33:02,0.0
-14.399999999999636,-1493.2,2206.3999999999996,-3.0,440.8,-2196.9,2025-01-29 10:33:02,0.0
105.60000000000036,-1689.2,1550.3999999999996,-215.0,767.8,-2187.9,2025-01-29 10:33:02,0.0
-334.39999999999964,-1813.2,1062.3999999999996,-346.0,1021.8,-2118.9,2025-01-29 10:33:02,0.0
-602.3999999999996,-1897.2,1078.3999999999996,-458.0,1246.8,-1992.9,2025-01-29 10:33:02,0.0
-618.3999999999996,-1801.2,1254.3999999999996,-674.0,1110.8,-1959.9,2025-01-29 10:33:02,
-434.39999999999964,-1921.2,1402.3999999999996,-986.0,556.8,-1913.9,2025-01-29 10:33:02,0.0
-258.39999999999964,-2065.2,1654.3999999999996,-1157.0,101.80000000000001,-1804.9,2025-01-29 10:33:02,0.0
-202.39999999999964,-2333.2,1574.3999999999996,-1155.0,-202.2,-1591.9,2025-01-29 10:33:02,0.0
69.60000000000036,-2117.2,1638.3999999999996,-1135.0,16.80000000000001,-1367.9,2025-01-29 10:33:02,0.0
109.60000000000036,-2205.2,1770.3999999999996,-1195.0,416.8,-1137.9,2025-01-29 10:33:02,0.0
65.60000000000036,-2425.2,1590.3999999999996,-1285.0,752.8,-757.9,2025-01-29 10:33:02,0.0
125.60000000000036,-2573.2,1414.3999999999996,-1387.0,813.8,-361.9,2025-01-29 10:33:02,0.0
253.60000000000036,-2577.2,1302.3999999999996,-1453.0,914.8,36.099999999999994,2025-01-29 10:33:02,0.0
341.60000000000036,-2305.2,1354.3999999999996,-1509.0,1211.8,321.1,2025-01-29 10:33:02,0.0
-42.399999999999636,-1705.2,1626.3999999999996,-1513.0,1377.8,395.1,2025-01-29 10:33:02,0.0
-414.39999999999964,-1421.2,1690.3999999999996,-1691.0,1143.8,318.1,2025-01-29 10:33:02,0.0
-1154.3999999999996,-2033.2,1698.3999999999996,-1859.0,622.8,154.1,2025-01-29 10:33:03,0.0
-1294.3999999999996,-2841.2,1362.3999999999996,-1766.0,283.8,88.1,2025-01-29 10:33:03,0.0
-922.3999999999996,-2941.2,1742.3999999999996,-1298.0,171.8,-141.9,2025-01-29 10:33:03,0.0
-910.3999999999996,-2085.2,2150.3999999999996,-1458.0,-30.19999999999999,-263.9,2025-01-29 10:33:03,0.0
-830.3999999999996,-1101.2,2546.3999999999996,-1907.0,-226.2,-362.9,2025-01-29 10:33:03,0.0
-934.3999999999996,-553.2,2434.3999999999996,-2379.0,-460.2,-493.9,2025-01-29 10:33:03,0.0
-698.3999999999996,-353.2,2414.3999999999996,-2931.0,-603.2,-689.9,2025-01-29 10:33:03,0.0
-142.39999999999964,-437.2,1970.3999999999996,-3666.0,-632.2,-1238.9,2025-01-29 10:33:03,0.0
129.60000000000036,-1049.2,1426.3999999999996,-4572.0,-359.2,-1777.9,2025-01-29 10:33:03,0.0
401.60000000000036,-1901.2,1254.3999999999996,-5104.0,274.8,-1950.9,2025-01-29 10:33:03,0.0
-6.399999999999636,-2505.2,1438.3999999999996,-5587.0,1408.8,-2097.9,2025-01-29 10:33:03,0.0
-682.3999999999996,-2605.2,2046.3999999999996,-5957.0,1994.8,-2116.9,2025-01-29 10:33:03,0.0
-1222.3999999999996,-2949.2,1602.3999999999996,-6089.0,1453.8,-2143.9,2025-01-29 10:33:03,0.0
-1614.3999999999996,-3221.2,-277.60000000000036,-5745.0,952.8,-2385.9,2025-01-29 10:33:03,0.0
-1770.3999999999996,-4289.2,870.3999999999996,-4935.0,1639.8,-2639.9,2025-01-29 10:33:03,0.0
-1818.3999999999996,-5281.2,2562.3999999999996,-3599.0,1222.8,-2398.9,2025-01-29 10:33:03,0.0
-2246.3999999999996,-5649.2,1806.3999999999996,-2465.0,763.8,-1121.9,2025-01-29 10:33:03,0.0
-1666.3999999999996,-5129.2,-321.60000000000036,-2205.0,1776.8,260.1,2025-01-29 10:33:03,0.0
-1042.3999999999996,-4921.2,-1597.6000000000004,-1986.0,3376.8,115.1,2025-01-29 10:33:03,0.0
-2282.3999999999996,-4885.2,-725.6000000000004,-916.0,3516.8,-575.9,2025-01-29 10:33:03,0.0
-4294.4,-4141.2,-17.600000000000364,317.0,2144.8,-431.9,2025-01-29 10:33:03,0.0
-5714.4,-2813.2,226.39999999999964,785.0,-501.2,1078.1,2025-01-29 10:33:03,0.0
-4926.4,-1317.2,-125.60000000000036,964.0,-2772.2,2585.1,2025-01-29 10:33:03,0.0
-2606.3999999999996,-849.2,-1453.6000000000004,948.0,-4421.2,3539.1,2025-01-29 10:33:03,0.0
-178.39999999999964,-757.2,-2221.6000000000004,848.0,-4716.2,3774.1,2025-01-29 10:33:03,0.0
1937.6000000000004,-557.2,-2337.6000000000004,564.0,-3791.2,3594.1,2025-01-29 10:33:03,0.0
3449.6000000000004,-605.2,-1933.6000000000004,618.0,-2417.2,3259.1,2025-01-29 10:33:03,0.0
3885.6000000000004,-485.2,-1945.6000000000004,842.0,-1332.2,2962.1,2025-01-29 10:33:03,0.0
3481.6000000000004,282.8,-2741.6000000000004,725.0,-508.2,2877.1,2025-01-29 10:33:03,0.0
3089.6000000000004,1238.8,-2653.6000000000004,320.0,147.8,2861.1,2025-01-29 10:33:03,0.0
2961.6000000000004,1946.8,-2657.6000000000004,-89.0,436.8,2733.1,2025-01-29 10:33:03,0.0
2905.6000000000004,2506.8,-2501.6000000000004,-509.0,404.8,2355.1,2025-01-29 10:33:03,0.0
2929.6000000000004,2662.8,-2201.6000000000004,-1013.0,260.8,1794.1,2025-01-29 10:33:03,0.0
2413.6000000000004,2402.8,-1897.6000000000004,-1611.0,400.8,1252.1,2025-01-29 10:33:03,0.0
1365.6000000000004,1430.8,-1697.6000000000004,-2121.0,1145.8,1089.1,2025-01-29 10:33:03,0.0
517.6000000000004,782.8,-1681.6000000000004,-2289.0,1937.8,1285.1,2025-01-29 10:33:03,0.0
-494.39999999999964,506.8,-1429.6000000000004,-2206.0,2284.8,1626.1,2025-01-29 10:33:03,0.0
-1314.3999999999996,106.80000000000001,-1213.6000000000004,-2225.0,1478.8,1956.1,2025-01-29 10:33:03,0.0
-1206.3999999999996,34.80000000000001,-1237.6000000000004,-2104.0,106.80000000000001,2092.1,2025-01-29 10:33:03,0.0
-598.3999999999996,174.8,-125.60000000000036,-1755.0,-1023.2,2353.1,2025-01-29 10:33:03,0.0
301.60000000000036,446.8,-125.60000000000036,-1312.0,-1917.2,2773.1,2025-01-29 10:33:03,0.0
1545.6000000000004,814.8,-13.600000000000364,-1128.0,-2296.2,3012.1,2025-01-29 10:33:03,0.0
2413.6000000000004,1498.8,366.39999999999964,-990.0,-1947.2,2914.1,2025-01-29 10:33:03,0.0
2733.6000000000004,1782.8,474.39999999999964,-960.0,-1174.2,2712.1,2025-01-29 10:33:03,0.0
2133.6000000000004,1934.8,330.39999999999964,-978.0,-131.2,2633.1,2025-01-29 10:33:03,0.0
1369.6000000000004,1910.8,50.399999999999636,-888.0,792.8,2699.1,2025-01-29 10:33:03,0.0
477.60000000000036,1742.8,686.3999999999996,-862.0,931.8,2694.1,2025-01-29 10:33:03,0.0
149.60000000000036,1506.8,1186.3999999999996,-493.0,76.80000000000001,2286.1,2025-01-29 10:33:03,0.0
-274.39999999999964,1286.8,1322.3999999999996,-21.0,-1032.2,1827.1,2025-01-29 10:33:03,0.0
229.60000000000036,1318.8,1362.3999999999996,204.0,-1951.2,1297.1,2025-01-29 10:33:03,0.0
661.6000000000004,1586.8,1918.3999999999996,505.0,-2237.2,682.1,2025-01-29 10:33:03,0.0
1397.6000000000004,1518.8,2046.3999999999996,617.0,-1990.2,77.1,2025-01-29 10:33:03,0.0
821.6000000000004,1354.8,2870.3999999999996,738.0,-1725.2,-165.9,2025-01-29 10:33:03,0.0
489.60000000000036,1270.8,3054.3999999999996,814.0,-1937.2,-179.9,2025-01-29 10:33:03,0.0
253.60000000000036,1106.8,2438.3999999999996,843.0,-2509.2,-293.9,2025-01-29 10:33:03,0.0
281.60000000000036,1038.8,1634.3999999999996,899.0,-3095.2,-607.9,2025-01-29 10:33:03,0.0
333.60000000000036,1622.8,1630.3999999999996,1262.0,-2766.2,-905.9,2025-01-29 10:33:03,0.0
421.60000000000036,2026.8,1718.3999999999996,1630.0,-2375.2,-884.9,2025-01-29 10:33:03,0.0
497.60000000000036,1982.8,2450.3999999999996,1870.0,-1994.2,-915.9,2025-01-29 10:33:03,0.0
85.60000000000036,2158.8,2370.3999999999996,2034.0,-1624.2,-1084.9,2025-01-29 10:33:03,0.0
-914.3999999999996,1970.8,2066.3999999999996,2141.0,-1385.2,-1080.9,2025-01-29 10:33:03,0.0
-1654.3999999999996,1646.8,1942.3999999999996,2235.0,-1117.2,-837.9,2025-01-29 10:33:04,0.0
-2034.3999999999996,1490.8,1970.3999999999996,2499.0,-1162.2,-417.9,2025-01-29 10:33:04,0.0
-1634.3999999999996,1194.8,2006.3999999999996,2707.0,-1150.2,-45.900000000000006,2025-01-29 10:33:04,0.0
-950.3999999999996,1386.8,1850.3999999999996,3213.0,-557.2,-64.9,2025-01-29 10:33:04,0.0
-1518.3999999999996,1654.8,2582.3999999999996,3567.0,387.8,90.1,2025-01-29 10:33:04,0.0
-2982.3999999999996,1746.8,2270.3999999999996,3962.0,1267.8,656.1,2025-01-29 10:33:04,0.0
-4550.4,1462.8,2126.3999999999996,4178.0,1892.8,1724.1,2025-01-29 10:33:04,0.0
-5078.4,914.8,886.3999999999996,4305.0,1680.8,2637.1,2025-01-29 10:33:04,0.0
-4662.4,1298.8,98.39999999999964,4223.0,519.8,2719.1,2025-01-29 10:33:04,0.0
-3446.3999999999996,2178.8,-501.60000000000036,3775.0,-765.2,2363.1,2025-01-29 10:33:04,0.0
-2546.3999999999996,3518.8,-1529.6000000000004,2993.0,-1781.2,1695.1,2025-01-29 10:33:04,0.0
-2210.3999999999996,4410.8,-2465.6000000000004,1811.0,-2240.2,900.1,2025-01-29 10:33:04,0.0
-1674.3999999999996,4782.8,-2765.6000000000004,405.0,-2328.2,272.1,2025-01-29 10:33:04,0.0
-210.39999999999964,4142.8,-1073.6000000000004,-374.0,-2608.2,-647.9,2025-01-29 10:33:04,0.0
1045.6000000000004,2658.8,174.39999999999964,-638.0,-3551.2,-1157.9,2025-01-29 10:33:04,0.0
2977.6000000000004,1094.8,562.3999999999996,-518.0,-3995.2,-1277.9,2025-01-29 10:33:04,0.0
4721.6,-657.2,870.3999999999996,-4.0,-3458.2,-1683.9,2025-01-29 10:33:04,0.0
5193.6,-1849.2,-309.60000000000036,552.0,-1440.2,-2185.9,2025-01-29 10:33:04,0.0
4637.6,-2557.2,-1589.6000000000004,833.0,1514.8,-2337.9,2025-01-29 10:33:04,0.0
2993.6000000000004,-2993.2,-1573.6000000000004,891.0,4366.8,-2129.9,2025-01-29 10:33:04,0.0
1101.6000000000004,-3201.2,-361.60000000000036,1477.0,5400.8,-1707.9,2025-01-29 10:33:04,0.0
-398.39999999999964,-3033.2,46.399999999999636,2199.0,4212.8,-1462.9,2025-01-29 10:33:04,0.0
-1146.3999999999996,-1585.2,-189.60000000000036,2666.0,1976.8,-1338.9,2025-01-29 10:33:04,0.0
-1462.3999999999996,-245.2,-661.6000000000004,2480.0,241.8,-1391.9,2025-01-29 10:33:04,0.0
-934.3999999999996,882.8,-805.6000000000004,1691.0,-821.2,-1765.9,2025-01-29 10:33:04,0.0
-154.39999999999964,1162.8,-533.6000000000004,1053.0,-1420.2,-2414.9,2025-01-29 10:33:04,0.0
541.6000000000004,1034.8,-605.6000000000004,510.0,-1694.2,-2738.9,2025-01-29 10:33:04,0.0
1397.6000000000004,602.8,-833.6000000000004,-50.0,-1329.2,-3007.9,2025-01-29 10:33:04,
2029.6000000000004,-185.2,-405.60000000000036,-480.0,-791.2,-3381.9,2025-01-29 10:33:04,0.0
2229.6000000000004,-861.2,550.3999999999996,-774.0,-310.2,-3839.9,2025-01-29 10:33:04,0.0
1217.6000000000004,-757.2,662.3999999999996,-1279.0,556.8,-3708.9,2025-01-29 10:33:04,0.0
1009.6000000000004,-953.2,478.39999999999964,-1777.0,1155.8,-3397.9,2025-01-29 10:33:04,0.0
693.6000000000004,-1837.2,1078.3999999999996,-1973.0,1391.8,-3437.9,2025-01-29 10:33:04,0.0
-290.39999999999964,-2257.2,1794.3999999999996,-1864.0,1393.8,-3400.9,2025-01-29 10:33:04,0.0
-798.3999999999996,-2653.2,2122.3999999999996,-1879.0,867.8,-3033.9,2025-01-29 10:33:04,0.0
-390.39999999999964,-2713.2,1770.3999999999996,-1885.0,125.80000000000001,-2684.9,2025-01-29 10:33:04,0.0
-522.3999999999996,-2577.2,1918.3999999999996,-1778.0,-560.2,-2230.9,2025-01-29 10:33:04,0.0
181.60000000000036,-2133.2,1766.3999999999996,-1574.0,-587.2,-1731.9,2025-01-29 10:33:04,0.0
849.6000000000004,-1477.2,1266.3999999999996,-1644.0,227.8,-1215.9,2025-01-29 10:33:04,0.0
1337.6000000000004,-1193.2,1506.3999999999996,-1857.0,1140.8,-951.9,2025-01-29 10:33:04,0.0
869.6000000000004,-1189.2,1702.3999999999996,-2064.0,1859.8,-795.9,2025-01-29 10:33:04,0.0
273.60000000000036,-1401.2,1546.3999999999996,-2331.0,1779.8,-614.9,2025-01-29 10:33:04,0.0
53.600000000000364,-1749.2,1934.3999999999996,-2502.0,1541.8,-499.9,2025-01-29 10:33:04,0.0
-114.39999999999964,-1781.2,2278.3999999999996,-2585.0,1504.8,-456.9,2025-01-29 10:33:04,0.0
-182.39999999999964,-1841.2,1718.3999999999996,-2833.0,1633.8,-448.9,2025-01-29 10:33:04,0.0
-74.39999999999964,-1549.2,1146.3999999999996,-3196.0,1837.8,-416.9,2025-01-29 10:33:04,0.0
-146.39999999999964,-1261.2,774.3999999999996,-3747.0,1939.8,-597.9,2025-01-29 10:33:04,0.0
-758.3999999999996,-1185.2,970.3999999999996,-4206.0,1770.8,-819.9,2025-01-29 10:33:04,0.0
-1382.3999999999996,-1237.2,698.3999999999996,-4606.0,1589.8,-923.9,2025-01-29 10:33:04,0.0
-1330.3999999999996,-1397.2,766.3999999999996,-4855.0,1328.8,-1058.9,2025-01-29 10:33:04,0.0
-1418.3999999999996,-1717.2,1038.3999999999996,-5014.0,859.8,-1499.9,2025-01-29 10:33:04,0.0
-1374.3999999999996,-1797.2,1590.3999999999996,-5089.0,258.8,-1749.9,2025-01-29 10:33:04,0.0
-1646.3999999999996,-1937.2,1826.3999999999996,-5243.0,40.80000000000001,-1822.9,2025-01-29 10:33:04,0.0
-2422.3999999999996,-2109.2,2306.3999999999996,-5520.0,502.8,-1820.9,2025-01-29 10:33:04,0.0
-2934.3999999999996,-2665.2,1562.3999999999996,-5893.0,834.8,-1620.9,2025-01-29 10:33:04,0.0
-2698.3999999999996,-2065.2,-625.6000000000004,-5758.0,1199.8,-1770.9,2025-01-29 10:33:04,0.0
-2946.3999999999996,-2697.2,-969.6000000000004,-5175.0,2044.8,-2305.9,2025-01-29 10:33:04,0.0
-3238.3999999999996,-4349.2,470.39999999999964,-3761.0,2861.8,-3023.9,2025-01-29 10:33:04,0.0
-4214.4,-5681.2,1390.3999999999996,-2030.0,1522.8,-2959.9,2025-01-29 10:33:04,0.0
-5466.4,-5873.2,678.3999999999996,-674.0,-1219.2,-1169.9,2025-01-29 10:33:04,0.0
-4446.4,-4309.2,-693.6000000000004,213.0,-2485.2,1312.1,2025-01-29 10:33:04,0.0
-1646.3999999999996,-2929.2,-2737.6000000000004,859.0,-2126.2,1858.1,2025-01-29 10:33:05,0.0
-506.39999999999964,-1325.2,-4077.6000000000004,213.0,-1543.2,1663.1,2025-01-29 10:33:05,0.0
-222.39999999999964,66.80000000000001,-3433.6000000000004,-452.0,-1919.2,2076.1,2025-01-29 10:33:05,0.0
893.6000000000004,870.8,-3205.6000000000004,-900.0,-2360.2,2649.1,2025-01-29 10:33:05,0.0
2189.6000000000004,1702.8,-2877.6000000000004,-1439.0,-2326.2,2896.1,2025-01-29 10:33:05,0.0
3485.6000000000004,2302.8,-2177.6000000000004,-2287.0,-929.2,2779.1,2025-01-29 10:33:05,0.0
3961.6000000000004,2466.8,-1677.6000000000004,-2697.0,-175.2,2449.1,2025-01-29 10:33:05,0.0
3369.6000000000004,1786.8,-1353.6000000000004,-2576.0,226.8,2350.1,2025-01-29 10:33:05,0.0
2753.6000000000004,1542.8,-1317.6000000000004,-2276.0,977.8,2477.1,2025-01-29 10:33:05,0.0
2493.6000000000004,482.8,-1425.6000000000004,-2307.0,1390.8,2306.1,2025-01-29 10:33:05,0.0
1061.6000000000004,62.80000000000001,-753.6000000000004,-2378.0,1344.8,2186.1,2025-01-29 10:33:05,0.0
-126.39999999999964,-109.19999999999999,-365.60000000000036,-1982.0,582.8,2316.1,2025-01-29 10:33:05,0.0
-762.3999999999996,-117.19999999999999,-285.60000000000036,-1499.0,-760.2,2369.1,2025-01-29 10:33:05,0.0
-1234.3999999999996,338.8,-125.60000000000036,-945.0,-2855.2,2572.1,2025-01-29 10:33:05,0.0
-674.3999999999996,522.8,22.399999999999636,-579.0,-4203.2,2952.1,2025-01-29 10:33:05,0.0
485.60000000000036,798.8,214.39999999999964,-154.0,-4957.2,3205.1,2025-01-29 10:33:05,0.0
1805.6000000000004,1034.8,466.39999999999964,363.0,-4647.2,3151.1,2025-01-29 10:33:05,0.0
2641.6000000000004,1158.8,1134.3999999999996,899.0,-3448.2,2930.1,2025-01-29 10:33:05,0.0
2705.6000000000004,1474.8,842.3999999999996,1186.0,-2602.2,2916.1,2025-01-29 10:33:05,0.0
2229.6000000000004,1802.8,410.39999999999964,1057.0,-2059.2,2973.1,2025-01-29 10:33:05,0.0
1685.6000000000004,2082.8,958.3999999999996,931.0,-1478.2,2887.1,2025-01-29 10:33:05,0.0
349.60000000000036,1822.8,1470.3999999999996,909.0,-1552.2,2592.1,2025-01-29 10:33:05,0.0
-18.399999999999636,1890.8,1698.3999999999996,1235.0,-2658.2,2047.1,2025-01-29 10:33:05,0.0
-42.399999999999636,1658.8,2222.3999999999996,1458.0,-3556.2,1412.1,2025-01-29 10:33:05,0.0
913.6000000000004,1454.8,2498.3999999999996,1520.0,-3802.2,1056.1,2025-01-29 10:33:05,0.0
1665.6000000000004,1310.8,2598.3999999999996,1604.0,-3484.2,936.1,2025-01-29 10:33:05,0.0
2149.6000000000004,1346.8,2518.3999999999996,1897.0,-2075.2,985.1,2025-01-29 10:33:05,0.0
2289.6000000000004,1194.8,2626.3999999999996,2152.0,-175.2,898.1,2025-01-29 10:33:05,0.0
1773.6000000000004,1126.8,2794.3999999999996,2542.0,1314.8,754.1,2025-01-29 10:33:05,0.0
773.6000000000004,1250.8,2838.3999999999996,2996.0,1891.8,535.1,2025-01-29 10:33:05,0.0
-14.399999999999636,1422.8,2750.3999999999996,3511.0,1383.8,302.1,2025-01-29 10:33:05,0.0
-482.39999999999964,1118.8,2694.3999999999996,4103.0,1050.8,153.1,2025-01-29 10:33:05,0.0
-1018.3999999999996,970.8,2882.3999999999996,4642.0,1406.8,317.1,2025-01-29 10:33:05,0.0
-1214.3999999999996,1162.8,2974.3999999999996,4994.0,1577.8,458.1,2025-01-29 10:33:05,0.0
-1618.3999999999996,1638.8,2786.3999999999996,5052.0,1028.8,632.1,2025-01-29 10:33:05,0.0
-1750.3999999999996,2174.8,2858.3999999999996,5044.0,263.8,965.1,2025-01-29 10:33:05,0.0
-1282.3999999999996,2430.8,2718.3999999999996,5175.0,344.8,1227.1,2025-01-29 10:33:05,0.0
-630.3999999999996,1814.8,2294.3999999999996,5330.0,617.8,1335.1,2025-01-29 10:33:05,0.0
433.60000000000036,1166.8,2366.3999999999996,5689.0,1235.8,1012.1,2025-01-29 10:33:05,0.0
245.60000000000036,1270.8,2726.3999999999996,6104.0,2392.8,624.1,2025-01-29 10:33:05,0.0
-586.3999999999996,1710.8,3198.3999999999996,6142.0,2890.8,559.1,2025-01-29 10:33:05,0.0
-1162.3999999999996,1350.8,4030.3999999999996,6005.0,2716.8,569.1,2025-01-29 10:33:05,0.0
-2338.3999999999996,1730.8,2922.3999999999996,6150.0,2573.8,529.1,2025-01-29 10:33:05,0.0
-4126.4,1754.8,-1197.6000000000004,5753.0,3538.8,1349.1,2025-01-29 10:33:05,0.0
-4866.4,2254.8,-3665.6000000000004,4976.0,4310.8,1885.1,2025-01-29 10:33:05,0.0
-5242.4,3606.8,-4253.6,3852.0,4661.8,2230.1,2025-01-29 10:33:05,0.0
-4942.4,4238.8,-4693.6,1603.0,2807.8,2106.1,2025-01-29 10:33:05,0.0
-5058.4,4706.8,-4209.6,-105.0,-155.2,1524.1,2025-01-29 10:33:05,0.0
-4926.4,4094.8,-4857.6,-1531.0,-1680.2,1437.1,2025-01-29 10:33:05,0.0
-2614.3999999999996,2182.8,-2897.6000000000004,-1867.0,-2671.2,1268.1,2025-01-29 10:33:05,0.0
1085.6000000000004,38.80000000000001,314.39999999999964,-1041.0,-4014.2,509.1,2025-01-29 10:33:05,0.0
4281.6,-769.2,1262.3999999999996,862.0,-5494.2,-751.9,2025-01-29 10:33:05,0.0
5421.6,-1721.2,270.39999999999964,2499.0,-5365.2,-1536.9,2025-01-29 10:33:05,0.0
5645.6,-2705.2,-601.6000000000004,3529.0,-3043.2,-1547.9,2025-01-29 10:33:05,0.0
5069.6,-2797.2,-2109.6000000000004,3873.0,586.8,-1249.9,2025-01-29 10:33:05,0.0
3749.6000000000004,-1661.2,-2213.6000000000004,3880.0,3656.8,-1019.9,2025-01-29 10:33:05,0.0
2093.6000000000004,10.800000000000011,-1713.6000000000004,3499.0,5206.8,-1044.9,2025-01-29 10:33:05,0.0
505.60000000000036,1062.8,-1105.6000000000004,2875.0,4976.8,-1250.9,2025-01-29 10:33:05,0.0
-642.3999999999996,1362.8,-897.6000000000004,2025.0,3133.8,-1112.9,2025-01-29 10:33:05,0.0
-906.3999999999996,1162.8,-1069.6000000000004,1155.0,365.8,-971.9,2025-01-29 10:33:05,0.0
-1046.3999999999996,278.8,-1309.6000000000004,660.0,-1251.2,-927.9,2025-01-29 10:33:06,0.0
-42.399999999999636,-85.19999999999999,-861.6000000000004,661.0,-1443.2,-1103.9,2025-01-29 10:33:06,0.0
1601.6000000000004,-153.2,-557.6000000000004,658.0,-1500.2,-1821.9,2025-01-29 10:33:06,0.0
2553.6000000000004,-269.2,-657.6000000000004,333.0,-1152.2,-2140.9,2025-01-29 10:33:06,0.0
3145.6000000000004,-733.2,-641.6000000000004,55.0,-263.2,-2260.9,2025-01-29 10:33:06,0.0
2801.6000000000004,-1253.2,-705.6000000000004,-211.0,1137.8,-2417.9,2025-01-29 10:33:06,0.0
1653.6000000000004,-1269.2,-1.6000000000003638,-264.0,2477.8,-2643.9,2025-01-29 10:33:06,
529.6000000000004,-1009.2,386.39999999999964,-460.0,2503.8,-2893.9,2025-01-29 10:33:06,0.0
-66.39999999999964,-609.2,562.3999999999996,-794.0,1751.8,-2844.9,2025-01-29 10:33:06,0.0
-6.399999999999636,-537.2,90.39999999999964,-1183.0,1114.8,-2829.9,2025-01-29 10:33:06,0.0
161.60000000000036,-781.2,-133.60000000000036,-1611.0,756.8,-2847.9,2025-01-29 10:33:06,0.0
837.6000000000004,-1645.2,-201.60000000000036,-1847.0,647.8,-2796.9,2025-01-29 10:33:06,0.0
1117.6000000000004,-2257.2,-237.60000000000036,-1795.0,722.8,-2667.9,2025-01-29 10:33:06,0.0
1017.6000000000004,-2221.2,-489.60000000000036,-1864.0,1145.8,-2332.9,2025-01-29 10:33:06,0.0
761.6000000000004,-1141.2,-257.60000000000036,-1973.0,1909.8,-1978.9,2025-01-29 10:33:06,0.0
453.60000000000036,-53.19999999999999,-345.60000000000036,-2602.0,2043.8,-1877.9,2025-01-29 10:33:06,0.0
-330.39999999999964,134.8,234.39999999999964,-3267.0,1785.8,-1601.9,2025-01-29 10:33:06,0.0
-482.39999999999964,-385.2,830.3999999999996,-3623.0,1262.8,-1056.9,2025-01-29 10:33:06,0.0
-182.39999999999964,-1153.2,1214.3999999999996,-3817.0,676.8,-839.9,2025-01-29 10:33:06,0.0
117.60000000000036,-1797.2,1370.3999999999996,-3896.0,275.8,-774.9,2025-01-29 10:33:06,0.0
65.60000000000036,-2161.2,1374.3999999999996,-3987.0,269.8,-655.9,2025-01-29 10:33:06,0.0
245.60000000000036,-2045.2,1410.3999999999996,-3901.0,441.8,-670.9,2025-01-29 10:33:06,0.0
469.60000000000036,-1365.2,702.3999999999996,-3952.0,506.8,-921.9,2025-01-29 10:33:06,0.0
321.60000000000036,-777.2,482.39999999999964,-4248.0,509.8,-1186.9,2025-01-29 10:33:06,0.0
-30.399999999999636,-285.2,402.39999999999964,-4455.0,836.8,-1283.9,2025-01-29 10:33:06,0.0
-254.39999999999964,-453.2,546.3999999999996,-4650.0,1042.8,-1447.9,2025-01-29 10:33:06,0.0
-654.3999999999996,-1265.2,614.3999999999996,-4897.0,849.8,-1857.9,2025-01-29 10:33:06,0.0
-1294.3999999999996,-2225.2,934.3999999999996,-4932.0,382.8,-2405.9,2025-01-29 10:33:06,0.0
-1714.3999999999996,-2697.2,1366.3999999999996,-4725.0,-306.2,-2931.9,2025-01-29 10:33:06,0.0
-1818.3999999999996,-2369.2,978.3999999999996,-4521.0,-658.2,-2966.9,2025-01-29 10:33:06,0.0
-1318.3999999999996,-1345.2,-537.6000000000004,-4295.0,-431.2,-3156.9,2025-01-29 10:33:06,0.0
-1202.3999999999996,-1765.2,-1729.6000000000004,-3840.0,1332.8,-3817.9,2025-01-29 10:33:06,0.0
-1382.3999999999996,-3593.2,-1321.6000000000004,-2848.0,2908.8,-4778.9,2025-01-29 10:33:06,0.0
-2554.3999999999996,-5353.2,-533.6000000000004,-1684.0,2980.8,-5493.9,2025-01-29 10:33:06,0.0
-4630.4,-5969.2,-641.6000000000004,-922.0,1648.8,-4773.9,2025-01-29 10:33:06,0.0
-5798.4,-5033.2,-985.6000000000004,-296.0,137.8,-2470.9,2025-01-29 10:33:06,0.0
-4738.4,-3745.2,-1533.6000000000004,414.0,-964.2,-72.9,2025-01-29 10:33:06,0.0
-1550.3999999999996,-1689.2,-2861.6000000000004,302.0,-1783.2,1213.1,2025-01-29 10:33:06,0.0
-494.39999999999964,-1069.2,-2801.6000000000004,-574.0,-2169.2,1547.1,2025-01-29 10:33:06,0.0
253.60000000000036,-1041.2,-1761.6000000000004,-738.0,-2518.2,1976.1,2025-01-29 10:33:06,0.0
1265.6000000000004,-1229.2,-1557.6000000000004,-505.0,-3195.2,2167.1,2025-01-29 10:33:06,0.0
2249.6000000000004,-1133.2,-1621.6000000000004,-165.0,-3816.2,1998.1,2025-01-29 10:33:06,0.0
3457.6000000000004,-701.2,-1557.6000000000004,239.0,-4114.2,1782.1,2025-01-29 10:33:06,0.0
4897.6,310.8,-1949.6000000000004,723.0,-4075.2,1614.1,2025-01-29 10:33:06,0.0
5633.6,1670.8,-1961.6000000000004,979.0,-2750.2,1426.1,2025-01-29 10:33:06,0.0
5425.6,2870.8,-2221.6000000000004,754.0,-368.2,1295.1,2025-01-29 10:33:06,0.0
4341.6,2902.8,-2741.6000000000004,75.0,2165.8,584.1,2025-01-29 10:33:06,0.0
1749.6000000000004,1878.8,-2457.6000000000004,-637.0,3676.8,-154.9,2025-01-29 10:33:06,0.0
-998.3999999999996,490.8,-1621.6000000000004,-945.0,3843.8,-1.9000000000000057,2025-01-29 10:33:06,0.0
-3518.3999999999996,-549.2,-401.60000000000036,-772.0,2682.8,727.1,2025-01-29 10:33:06,0.0
-5754.4,-1501.2,-177.60000000000036,-326.0,200.8,2113.1,2025-01-29 10:33:06,0.0
-4666.4,-1513.2,-353.60000000000036,385.0,-3245.2,3129.1,2025-01-29 10:33:06,0.0
-2786.3999999999996,-1349.2,-1113.6000000000004,635.0,-5889.2,3361.1,2025-01-29 10:33:06,0.0
213.60000000000036,-917.2,-5.600000000000364,1205.0,-6851.2,3436.1,2025-01-29 10:33:06,0.0
2029.6000000000004,-297.2,-97.60000000000036,1838.0,-6732.2,3644.1,2025-01-29 10:33:06,0.0
4145.6,382.8,-641.6000000000004,2205.0,-5630.2,3999.1,2025-01-29 10:33:06,0.0
4373.6,1490.8,162.39999999999964,2464.0,-2927.2,4465.1,2025-01-29 10:33:06,0.0
4269.6,2298.8,582.3999999999996,2585.0,-342.2,4568.1,2025-01-29 10:33:06,0.0
3205.6000000000004,2502.8,406.39999999999964,2423.0,1321.8,4216.1,2025-01-29 10:33:06,0.0
1469.6000000000004,2462.8,1270.3999999999996,2018.0,1713.8,3576.1,2025-01-29 10:33:06,0.0
989.6000000000004,2382.8,1178.3999999999996,1884.0,1310.8,2977.1,2025-01-29 10:33:07,0.0
1109.6000000000004,1870.8,710.3999999999996,1886.0,200.8,2168.1,2025-01-29 10:33:07,0.0
1621.6000000000004,1658.8,554.3999999999996,1967.0,-1155.2,1191.1,2025-01-29 10:33:07,0.0
1937.6000000000004,1810.8,1222.3999999999996,1994.0,-1230.2,575.1,2025-01-29 10:33:07,0.0
2525.6000000000004,1678.8,1438.3999999999996,2212.0,167.8,49.099999999999994,2025-01-29 10:33:07,0.0
2153.6000000000004,958.8,1106.3999999999996,2101.0,1754.8,-37.900000000000006,2025-01-29 10:33:07,0.0
1405.6000000000004,238.8,1070.3999999999996,2068.0,2602.8,-101.9,2025-01-29 10:33:07,0.0
65.60000000000036,-145.2,1010.3999999999996,2199.0,2954.8,-277.9,2025-01-29 10:33:07,0.0
-1378.3999999999996,358.8,762.3999999999996,2488.0,2361.8,-411.9,2025-01-29 10:33:07,0.0
-1514.3999999999996,1066.8,1106.3999999999996,2680.0,1095.8,-464.9,2025-01-29 10:33:07,0.0
-1734.3999999999996,1714.8,1478.3999999999996,2774.0,-162.2,-331.9,2025-01-29 10:33:07,0.0
-1586.3999999999996,1946.8,1786.3999999999996,2807.0,-927.2,-178.9,2025-01-29 10:33:07,0.0
-510.39999999999964,1446.8,1342.3999999999996,2976.0,-1072.2,41.099999999999994,2025-01-29 10:33:07,0.0
-10.399999999999636,874.8,1434.3999999999996,3205.0,-651.2,249.1,2025-01-29 10:33:07,0.0
133.60000000000036,202.8,1582.3999999999996,3511.0,11.800000000000011,240.1,2025-01-29 10:33:07,0.0
1.6000000000003638,502.8,1330.3999999999996,3927.0,187.8,216.1,2025-01-29 10:33:07,0.0
-642.3999999999996,698.8,1514.3999999999996,4261.0,448.8,243.1,2025-01-29 10:33:07,0.0
-1354.3999999999996,142.8,1450.3999999999996,4530.0,696.8,408.1,2025-01-29 10:33:07,0.0
-1810.3999999999996,-613.2,2070.3999999999996,4944.0,695.8,716.1,2025-01-29 10:33:07,0.0
-1670.3999999999996,-1033.2,2502.3999999999996,5417.0,731.8,1051.1,2025-01-29 10:33:07,0.0
-2214.3999999999996,-609.2,1442.3999999999996,5619.0,1004.8,1345.1,2025-01-29 10:33:07,0.0
-2926.3999999999996,-353.2,98.39999999999964,5658.0,1906.8,2079.1,2025-01-29 10:33:07,0.0
-3522.3999999999996,1214.8,-1665.6000000000004,5621.0,2813.8,2565.1,2025-01-29 10:33:07,0.0
-4182.4,3170.8,-3737.6000000000004,4612.0,2909.8,2717.1,2025-01-29 10:33:07,0.0
-4310.4,3902.8,-4349.6,3122.0,1969.8,2564.1,2025-01-29 10:33:07,0.0
-3770.3999999999996,3766.8,-3645.6000000000004,1657.0,70.80000000000001,1812.1,2025-01-29 10:33:07,0.0
-3342.3999999999996,2726.8,-3097.6000000000004,697.0,-1375.2,1048.1,2025-01-29 10:33:07,0.0
-2034.3999999999996,1418.8,-2585.6000000000004,47.0,-2053.2,385.1,2025-01-29 10:33:07,0.0
-254.39999999999964,182.8,-1509.6000000000004,151.0,-2712.2,-199.9,2025-01-29 10:33:07,0.0
1345.6000000000004,-705.2,-241.60000000000036,862.0,-3207.2,-397.9,2025-01-29 10:33:07,0.0
3201.6000000000004,-985.2,238.39999999999964,1998.0,-3469.2,-427.9,2025-01-29 10:33:07,0.0
4621.6,-1301.2,222.39999999999964,3079.0,-3268.2,-605.9,2025-01-29 10:33:07,0.0
4881.6,-1593.2,-161.60000000000036,3577.0,-1886.2,-418.9,2025-01-29 10:33:07,0.0
4841.6,-2289.2,-1125.6000000000004,3700.0,423.8,-0.9000000000000057,2025-01-29 10:33:07,0.0
4049.6000000000004,-2333.2,-2041.6000000000004,3579.0,2504.8,-37.900000000000006,2025-01-29 10:33:07,0.0
2141.6000000000004,-1981.2,-2413.6000000000004,3361.0,3554.8,-297.9,2025-01-29 10:33:07,0.0
517.6000000000004,-1305.2,-2405.6000000000004,3096.0,3288.8,-314.9,2025-01-29 10:33:07,0.0
-402.39999999999964,-409.2,-2401.6000000000004,2609.0,1546.8,-457.9,2025-01-29 10:33:07,0.0
-762.3999999999996,470.8,-2353.6000000000004,1844.0,-417.2,-857.9,2025-01-29 10:33:07,0.0
-498.39999999999964,958.8,-2329.6000000000004,895.0,-1634.2,-1241.9,2025-01-29 10:33:07,0.0
-2.399999999999636,862.8,-2229.6000000000004,-107.0,-2533.2,-1782.9,2025-01-29 10:33:07,0.0
1025.6000000000004,238.8,-2049.6000000000004,-888.0,-3034.2,-2395.9,2025-01-29 10:33:07,0.0
1653.6000000000004,-337.2,-2057.6000000000004,-1509.0,-3023.2,-2835.9,2025-01-29 10:33:07,0.0
2345.6000000000004,-1113.2,-1361.6000000000004,-2005.0,-2401.2,-3120.9,2025-01-29 10:33:07,0.0
2865.6000000000004,-1765.2,-1121.6000000000004,-2251.0,-1472.2,-3604.9,2025-01-29 10:33:07,0.0
2277.6000000000004,-2281.2,-725.6000000000004,-2495.0,-673.2,-3876.9,2025-01-29 10:33:07,0.0
1717.6000000000004,-2537.2,-189.60000000000036,-2570.0,124.80000000000001,-3892.9,2025-01-29 10:33:07,
1073.6000000000004,-2017.2,278.39999999999964,-2651.0,499.8,-3833.9,2025-01-29 10:33:07,0.0
653.6000000000004,-1565.2,94.39999999999964,-2975.0,373.8,-3952.9,2025-01-29 10:33:07,0.0
505.60000000000036,-1265.2,-345.60000000000036,-3532.0,104.80000000000001,-4006.9,2025-01-29 10:33:07,0.0
-106.39999999999964,-1333.2,-265.60000000000036,-4053.0,-56.19999999999999,-4045.9,2025-01-29 10:33:07,0.0
105.60000000000036,-1613.2,-461.60000000000036,-4598.0,-218.2,-4026.9,2025-01-29 10:33:07,0.0
349.60000000000036,-1973.2,-417.60000000000036,-4854.0,-513.2,-3979.9,2025-01-29 10:33:07,0.0
605.6000000000004,-2045.2,-417.60000000000036,-5046.0,-572.2,-3683.9,2025-01-29 10:33:07,0.0
1141.6000000000004,-2021.2,-525.6000000000004,-5169.0,-118.19999999999999,-3453.9,2025-01-29 10:33:07,0.0
1001.6000000000004,-1853.2,-857.6000000000004,-5426.0,86.80000000000001,-3324.9,2025-01-29 10:33:07,0.0
525.6000000000004,-1477.2,-997.6000000000004,-5717.0,194.8,-3140.9,2025-01-29 10:33:07,0.0
9.600000000000364,-1293.2,-433.60000000000036,-6054.0,47.80000000000001,-2936.9,2025-01-29 10:33:07,0.0
-530.3999999999996,-973.2,198.39999999999964,-6462.0,-551.2,-2778.9,2025-01-29 10:33:07,0.0
-626.3999999999996,-717.2,50.399999999999636,-6982.0,-1579.2,-2729.9,2025-01-29 10:33:07,0.0
-338.39999999999964,-681.2,-353.60000000000036,-7461.0,-2309.2,-2744.9,2025-01-29 10:33:07,0.0
277.60000000000036,-937.2,-173.60000000000036,-7898.0,-2588.2,-2732.9,2025-01-29 10:33:08,0.0
1285.6000000000004,-1301.2,-313.60000000000036,-8180.0,-2409.2,-2528.9,2025-01-29 10:33:08,0.0
1661.6000000000004,-1401.2,98.39999999999964,-8517.0,-1760.2,-2460.9,2025-01-29 10:33:08,0.0
1577.6000000000004,-1329.2,494.39999999999964,-8869.0,-831.2,-2507.9,2025-01-29 10:33:08,0.0
317.60000000000036,-1029.2,1066.3999999999996,-9171.0,5.800000000000011,-2476.9,2025-01-29 10:33:08,0.0
-330.39999999999964,-1005.2,554.3999999999996,-9519.0,112.80000000000001,-2320.9,2025-01-29 10:33:08,0.0
-602.3999999999996,-1161.2,222.39999999999964,-9826.0,-281.2,-2177.9,2025-01-29 10:33:08,0.0
-1686.3999999999996,-1201.2,-441.60000000000036,-10231.0,-675.2,-1985.9,2025-01-29 10:33:08,0.0
-1330.3999999999996,-849.2,-57.600000000000364,-10555.0,-1221.2,-1924.9,2025-01-29 10:33:08,0.0
-794.3999999999996,-553.2,474.39999999999964,-10956.0,-1680.2,-1901.9,2025-01-29 10:33:08,0.0
481.60000000000036,-17.19999999999999,182.39999999999964,-11306.0,-1686.2,-2054.9,2025-01-29 10:33:08,0.0
1925.6000000000004,-353.2,830.3999999999996,-11308.0,-697.2,-1914.9,2025-01-29 10:33:08,0.0
3141.6000000000004,-2813.2,-945.6000000000004,-10899.0,39.80000000000001,-1425.9,2025-01-29 10:33:08,0.0
3305.6000000000004,-6793.2,-1721.6000000000004,-9264.0,3170.8,-1213.9,2025-01-29 10:33:08,0.0
2777.6000000000004,-10781.2,-2497.6000000000004,-6398.0,6867.8,-2206.9,2025-01-29 10:33:08,0.0
-2070.3999999999996,-10625.2,-3101.6000000000004,-2395.0,8976.8,-4527.9,2025-01-29 10:33:08,0.0
-7034.4,-5713.2,-3321.6000000000004,-1124.0,7427.8,-5652.9,2025-01-29 10:33:08,0.0
-8454.4,798.8,-2197.6000000000004,-3436.0,947.8,-6445.9,2025-01-29 10:33:08,0.0
-8178.4,9162.8,-1881.6000000000004,-7474.0,-7514.2,-5352.9,2025-01-29 10:33:08,0.0
-5314.4,14550.8,-4793.6,-12786.0,-14239.2,-1313.9,2025-01-29 10:33:08,0.0
2549.6000000000004,12922.8,-7061.6,-17777.0,-15635.2,2240.1,2025-01-29 10:33:08,0.0
11925.6,4442.8,-7753.6,-21969.0,-11464.2,1524.1,2025-01-29 10:33:08,0.0
18609.6,-3129.2,-8457.6,-24553.0,-1073.2,-3935.9,2025-01-29 10:33:08,0.0
14025.6,-8989.2,-441.60000000000036,-24835.0,7757.8,-7920.9,2025-01-29 10:33:08,0.0
7493.6,-10101.2,4094.3999999999996,-20811.0,13208.8,-10685.9,2025-01-29 10:33:08,0.0
-826.3999999999996,-9657.2,3482.3999999999996,-15126.0,16484.8,-11120.9,2025-01-29 10:33:08,0.0
-6518.4,-6225.2,294.39999999999964,-11168.0,15064.8,-9638.9,2025-01-29 10:33:08,0.0
-9714.4,-1317.2,-1265.6000000000004,-10209.0,8647.8,-7929.9,2025-01-29 10:33:08,0.0
-6802.4,1286.8,-2961.6000000000004,-12224.0,1003.8,-7200.9,2025-01-29 10:33:08,0.0
-3090.3999999999996,522.8,-2909.6000000000004,-14623.0,-3849.2,-6857.9,2025-01-29 10:33:08,0.0
-130.39999999999964,414.8,-2469.6000000000004,-15327.0,-6074.2,-6001.9,2025-01-29 10:33:08,0.0
2489.6000000000004,1266.8,-3485.6000000000004,-15357.0,-4801.2,-5163.9,2025-01-29 10:33:08,0.0
4585.6,2442.8,-3849.6000000000004,-15717.0,-1191.2,-5426.9,2025-01-29 10:33:08,0.0
3665.6000000000004,3026.8,-3349.6000000000004,-16295.0,2657.8,-6754.9,2025-01-29 10:33:08,0.0
1837.6000000000004,1578.8,-3593.6000000000004,-16764.0,3234.8,-7327.9,2025-01-29 10:33:08,0.0
797.6000000000004,702.8,-3201.6000000000004,-16942.0,2018.8,-7265.9,2025-01-29 10:33:08,0.0
1161.6000000000004,2.8000000000000114,-2869.6000000000004,-17256.0,1599.8,-7520.9,2025-01-29 10:33:08,0.0
2193.6000000000004,18.80000000000001,-2837.6000000000004,-17841.0,1671.8,-8043.9,2025-01-29 10:33:08,0.0
2261.6000000000004,-1.1999999999999886,-2393.6000000000004,-18148.0,1880.8,-8186.9,2025-01-29 10:33:08,0.0
1977.6000000000004,-113.19999999999999,-2337.6000000000004,-18241.0,1927.8,-8009.9,2025-01-29 10:33:08,0.0
1749.6000000000004,-173.2,-2777.6000000000004,-18225.0,1689.8,-7828.9,2025-01-29 10:33:08,0.0
1889.6000000000004,438.8,-2921.6000000000004,-17869.0,569.8,-8014.9,2025-01-29 10:33:08,0.0
2073.6000000000004,790.8,-3025.6000000000004,-17696.0,206.8,-8698.9,2025-01-29 10:33:08,0.0
1973.6000000000004,942.8,-3129.6000000000004,-17757.0,519.8,-9246.9,2025-01-29 10:33:08,0.0
1797.6000000000004,466.8,-2601.6000000000004,-17654.0,823.8,-9562.9,2025-01-29 10:33:08,0.0
1853.6000000000004,-361.2,-2121.6000000000004,-17618.0,1048.8,-9799.9,2025-01-29 10:33:08,0.0
1713.6000000000004,-1257.2,-1881.6000000000004,-17435.0,1097.8,-9911.9,2025-01-29 10:33:08,0.0
1369.6000000000004,-1313.2,-1597.6000000000004,-17030.0,782.8,-9868.9,2025-01-29 10:33:08,0.0
1557.6000000000004,-1033.2,-2073.6000000000004,-16582.0,434.8,-9717.9,2025-01-29 10:33:08,0.0
1133.6000000000004,-205.2,-2705.6000000000004,-16228.0,209.8,-9633.9,2025-01-29 10:33:08,0.0
1305.6000000000004,270.8,-3129.6000000000004,-16030.0,348.8,-9556.9,2025-01-29 10:33:08,0.0
1485.6000000000004,582.8,-3469.6000000000004,-16042.0,415.8,-9653.9,2025-01-29 10:33:08,0.0
1317.6000000000004,414.8,-3309.6000000000004,-16045.0,326.8,-9643.9,2025-01-29 10:33:08,0.0
1069.6000000000004,-49.19999999999999,-3217.6000000000004,-16038.0,64.80000000000001,-9431.9,2025-01-29 10:33:08,0.0
1329.6000000000004,-525.2,-2897.6000000000004,-15973.0,-146.2,-9226.9,2025-01-29 10:33:08,0.0
1553.6000000000004,-801.2,-2933.6000000000004,-15730.0,-277.2,-8998.9,2025-01-29 10:33:08,0.0
1373.6000000000004,-553.2,-2981.6000000000004,-15468.0,-432.2,-8699.9,2025-01-29 10:33:08,0.0
1093.6000000000004,-1.1999999999999886,-3069.6000000000004,-15305.0,-744.2,-8291.9,2025-01-29 10:33:08,0.0
673.6000000000004,146.8,-3081.6000000000004,-15257.0,-575.2,-7914.9,2025-01-29 10:33:08,0.0
649.6000000000004,-181.2,-2793.6000000000004,-15070.0,-704.2,-7683.9,2025-01-29 10:33:08,0.0
585.6000000000004,-221.2,-2405.6000000000004,-14638.0,-1123.2,-7464.9,2025-01-29 10:33:08,0.0
957.6000000000004,-121.19999999999999,-2629.6000000000004,-14233.0,-1618.2,-7284.9,2025-01-29 10:33:09,0.0
1633.6000000000004,-457.2,-2437.6000000000004,-13939.0,-1666.2,-7230.9,2025-01-29 10:33:09,0.0
1901.6000000000004,-817.2,-1709.6000000000004,-13349.0,-1348.2,-7078.9,2025-01-29 10:33:09,0.0
2209.6000000000004,-1033.2,-1861.6000000000004,-12670.0,-882.2,-6920.9,2025-01-29 10:33:09,0.0
2177.6000000000004,-1129.2,-1585.6000000000004,-11930.0,-358.2,-6961.9,2025-01-29 10:33:09,0.0
1781.6000000000004,-789.2,-1113.6000000000004,-11104.0,-55.19999999999999,-7167.9,2025-01-29 10:33:09,0.0
1805.6000000000004,-749.2,-589.6000000000004,-10438.0,-197.2,-7302.9,2025-01-29 10:33:09,0.0
1497.6000000000004,-993.2,-769.6000000000004,-9552.0,-571.2,-7316.9,2025-01-29 10:33:09,0.0
1321.6000000000004,-1205.2,-877.6000000000004,-8764.0,-14.199999999999989,-7123.9,2025-01-29 10:33:09,0.0
1013.6000000000004,-1233.2,-1609.6000000000004,-8046.0,681.8,-7048.9,2025-01-29 10:33:09,0.0
-434.39999999999964,-1333.2,-1893.6000000000004,-7508.0,678.8,-6341.9,2025-01-29 10:33:09,0.0
-778.3999999999996,-1369.2,-2109.6000000000004,-6800.0,526.8,-5197.9,2025-01-29 10:33:09,0.0
89.60000000000036,-945.2,-2845.6000000000004,-6221.0,316.8,-4727.9,2025-01-29 10:33:09,0.0
421.60000000000036,-673.2,-2809.6000000000004,-6052.0,372.8,-4572.9,2025-01-29 10:33:09,0.0
981.6000000000004,-1033.2,-1937.6000000000004,-5321.0,585.8,-4529.9,2025-01-29 10:33:09,0.0
1273.6000000000004,-1053.2,-1825.6000000000004,-4557.0,809.8,-4554.9,2025-01-29 10:33:09,0.0
1453.6000000000004,-1309.2,-1817.6000000000004,-4232.0,720.8,-4795.9,2025-01-29 10:33:09,0.0
1245.6000000000004,-689.2,-2061.6000000000004,-3358.0,1008.8,-4794.9,2025-01-29 10:33:09,0.0
2089.6000000000004,-305.2,-2541.6000000000004,-2896.0,1805.8,-4707.9,2025-01-29 10:33:09,0.0
2613.6000000000004,-765.2,-2057.6000000000004,-2279.0,2997.8,-4560.9,2025-01-29 10:33:09,0.0
2097.6000000000004,-1953.2,-1173.6000000000004,-1753.0,4165.8,-4539.9,2025-01-29 10:33:09,0.0
1721.6000000000004,-3517.2,-989.6000000000004,-1145.0,4445.8,-4979.9,2025-01-29 10:33:09,0.0
-506.39999999999964,-3793.2,-549.6000000000004,-804.0,3964.8,-5117.9,2025-01-29 10:33:09,0.0
-2394.3999999999996,-3069.2,-665.6000000000004,-703.0,3123.8,-4631.9,2025-01-29 10:33:09,0.0
-2646.3999999999996,-2753.2,-1061.6000000000004,-835.0,2644.8,-4058.9,2025-01-29 10:33:09,
-2142.3999999999996,-2421.2,-1285.6000000000004,-1099.0,2086.8,-4070.9,2025-01-29 10:33:09,0.0
-1486.3999999999996,-2273.2,-917.6000000000004,-1813.0,1184.8,-4586.9,2025-01-29 10:33:09,0.0
-1054.3999999999996,-2773.2,-365.60000000000036,-2261.0,224.8,-5201.9,2025-01-29 10:33:09,0.0
-558.3999999999996,-3309.2,-129.60000000000036,-2280.0,-502.2,-5463.9,2025-01-29 10:33:09,0.0
-166.39999999999964,-3377.2,122.39999999999964,-2212.0,-689.2,-5191.9,2025-01-29 10:33:09,0.0
897.6000000000004,-3469.2,18.399999999999636,-2055.0,-512.2,-4816.9,2025-01-29 10:33:09,0.0
1753.6000000000004,-3749.2,-385.60000000000036,-1919.0,-384.2,-4488.9,2025-01-29 10:33:09,0.0
2265.6000000000004,-3941.2,-577.6000000000004,-1906.0,-172.2,-4137.9,2025-01-29 10:33:09,0.0
2533.6000000000004,-3737.2,-473.60000000000036,-2036.0,252.8,-3683.9,2025-01-29 10:33:09,0.0
2473.6000000000004,-3241.2,-353.60000000000036,-2166.0,560.8,-3441.9,2025-01-29 10:33:09,0.0
2013.6000000000004,-2529.2,-589.6000000000004,-2758.0,695.8,-3463.9,2025-01-29 10:33:09,0.0
1161.6000000000004,-2053.2,-877.6000000000004,-3329.0,662.8,-3454.9,2025-01-29 10:33:09,0.0
797.6000000000004,-1805.2,-1029.6000000000004,-3758.0,598.8,-3038.9,2025-01-29 10:33:09,0.0
805.6000000000004,-2309.2,-1225.6000000000004,-4166.0,341.8,-2393.9,2025-01-29 10:33:09,0.0
1393.6000000000004,-3061.2,-1221.6000000000004,-4401.0,115.80000000000001,-2113.9,2025-01-29 10:33:09,0.0
1285.6000000000004,-3457.2,-1085.6000000000004,-4567.0,-54.19999999999999,-2025.9,2025-01-29 10:33:09,0.0
921.6000000000004,-3553.2,-1281.6000000000004,-4500.0,-272.2,-1613.9,2025-01-29 10:33:09,0.0
669.6000000000004,-4137.2,-1545.6000000000004,-4433.0,-506.2,-1154.9,2025-01-29 10:33:09,0.0
481.60000000000036,-4453.2,-1385.6000000000004,-4293.0,-1087.2,-938.9,2025-01-29 10:33:09,0.0
777.6000000000004,-4657.2,-985.6000000000004,-4122.0,-1898.2,-785.9,2025-01-29 10:33:09,0.0
1433.6000000000004,-4385.2,-1209.6000000000004,-3917.0,-2577.2,-728.9,2025-01-29 10:33:09,0.0
1829.6000000000004,-3649.2,-957.6000000000004,-3671.0,-2568.2,-643.9,2025-01-29 10:33:09,0.0
2617.6000000000004,-3101.2,-1069.6000000000004,-3465.0,-2300.2,-647.9,2025-01-29 10:33:09,0.0
2681.6000000000004,-2513.2,-1017.6000000000004,-3437.0,-1862.2,-561.9,2025-01-29 10:33:09,0.0
2517.6000000000004,-2497.2,-433.60000000000036,-3583.0,-1712.2,-182.9,2025-01-29 10:33:09,0.0
2769.6000000000004,-2625.2,-209.60000000000036,-3879.0,-1746.2,64.1,2025-01-29 10:33:09,0.0
3329.6000000000004,-2761.2,-669.6000000000004,-4500.0,-1762.2,86.1,2025-01-29 10:33:09,0.0
3409.6000000000004,-2653.2,-1101.6000000000004,-4978.0,-1910.2,76.1,2025-01-29 10:33:09,0.0
3609.6000000000004,-2325.2,-1529.6000000000004,-5299.0,-2015.2,109.1,2025-01-29 10:33:09,0.0
3949.6000000000004,-2041.2,-1645.6000000000004,-5661.0,-1675.2,165.1,2025-01-29 10:33:09,0.0
4209.6,-1433.2,-1665.6000000000004,-6046.0,-1437.2,147.1,2025-01-29 10:33:09,0.0
3873.6000000000004,-1245.2,-873.6000000000004,-6466.0,-705.2,179.1,2025-01-29 10:33:09,0.0
2761.6000000000004,-1765.2,-581.6000000000004,-6667.0,-11.199999999999989,405.1,2025-01-29 10:33:09,0.0
2053.6000000000004,-2765.2,-1293.6000000000004,-6561.0,186.8,581.1,2025-01-29 10:33:09,0.0
1837.6000000000004,-3605.2,-2193.6000000000004,-6531.0,5.800000000000011,630.1,2025-01-29 10:33:09,0.0
2197.6000000000004,-3721.2,-2213.6000000000004,-6333.0,-828.2,497.1,2025-01-29 10:33:09,0.0
2029.6000000000004,-2997.2,-1045.6000000000004,-5897.0,-1949.2,375.1,2025-01-29 10:33:10,0.0
1701.6000000000004,-2445.2,414.39999999999964,-5009.0,-2298.2,476.1,2025-01-29 10:33:10,0.0
1941.6000000000004,-2621.2,122.39999999999964,-4226.0,-1513.2,438.1,2025-01-29 10:33:10,0.0
1801.6000000000004,-2525.2,446.39999999999964,-3701.0,-1409.2,359.1,2025-01-29 10:33:10,0.0
1325.6000000000004,-2521.2,-425.60000000000036,-3145.0,-1446.2,655.1,2025-01-29 10:33:10,0.0
1845.6000000000004,-2373.2,-669.6000000000004,-2436.0,-1472.2,799.1,2025-01-29 10:33:10,0.0
2565.6000000000004,-2005.2,-913.6000000000004,-1287.0,-1257.2,117.1,2025-01-29 10:33:10,0.0
1525.6000000000004,-765.2,-501.60000000000036,-657.0,-1229.2,-469.9,2025-01-29 10:33:10,0.0
629.6000000000004,942.8,482.39999999999964,-461.0,-1376.2,-219.9,2025-01-29 10:33:10,0.0
1277.6000000000004,1634.8,2006.3999999999996,12.0,-1223.2,-227.9,2025-01-29 10:33:10,0.0
-1342.3999999999996,1774.8,-145.60000000000036,108.0,-611.2,-17.900000000000006,2025-01-29 10:33:10,0.0
-1906.3999999999996,1214.8,-1077.6000000000004,-623.0,-629.2,1063.1,2025-01-29 10:33:10,0.0
-494.39999999999964,1142.8,-2081.6000000000004,-946.0,-3339.2,1361.1,2025-01-29 10:33:10,0.0
-346.39999999999964,1646.8,-2269.6000000000004,-1353.0,-4970.2,1728.1,2025-01-29 10:33:10,0.0
-530.3999999999996,1930.8,-233.60000000000036,-1393.0,-6295.2,2276.1,2025-01-29 10:33:10,0.0
821.6000000000004,1722.8,410.39999999999964,-1609.0,-6197.2,2326.1,2025-01-29 10:33:10,0.0
-1362.3999999999996,1874.8,66.39999999999964,-1152.0,-4403.2,762.1,2025-01-29 10:33:10,0.0
-1910.3999999999996,978.8,202.39999999999964,-1061.0,-4374.2,724.1,2025-01-29 10:33:10,0.0
-1410.3999999999996,-185.2,42.399999999999636,-668.0,-5147.2,698.1,2025-01-29 10:33:10,0.0
-266.39999999999964,-513.2,70.39999999999964,173.0,-2917.2,375.1,2025-01-29 10:33:10,0.0
1645.6000000000004,194.8,-117.60000000000036,259.0,-2547.2,-122.9,2025-01-29 10:33:10,0.0
333.60000000000036,1318.8,-413.60000000000036,-33.0,-2549.2,-31.900000000000006,2025-01-29 10:33:10,0.0
-1062.3999999999996,1898.8,-161.60000000000036,-306.0,-1423.2,642.1,2025-01-29 10:33:10,0.0
-1718.3999999999996,1898.8,142.39999999999964,-641.0,-893.2,1239.1,2025-01-29 10:33:10,0.0
-1854.3999999999996,1566.8,-9.600000000000364,-1184.0,-1737.2,1903.1,2025-01-29 10:33:10,0.0
-1830.3999999999996,1354.8,502.39999999999964,-1536.0,-2783.2,1548.1,2025-01-29 10:33:10,0.0
-1446.3999999999996,806.8,502.39999999999964,-1815.0,-3181.2,754.1,2025-01-29 10:33:10,0.0
-1170.3999999999996,922.8,646.3999999999996,-2105.0,-3120.2,24.099999999999994,2025-01-29 10:33:10,0.0
-1502.3999999999996,694.8,978.3999999999996,-2201.0,-3116.2,-223.9,2025-01-29 10:33:10,0.0
-1022.3999999999996,586.8,1362.3999999999996,-2266.0,-3097.2,-75.9,2025-01-29 10:33:10,0.0
-1010.3999999999996,478.8,1054.3999999999996,-2363.0,-2675.2,66.1,2025-01-29 10:33:10,0.0
-798.3999999999996,550.8,686.3999999999996,-2533.0,-2172.2,-27.900000000000006,2025-01-29 10:33:10,0.0
-1230.3999999999996,1054.8,142.39999999999964,-2727.0,-1911.2,-187.9,2025-01-29 10:33:10,0.0
-1282.3999999999996,1530.8,406.39999999999964,-3122.0,-2117.2,-338.9,2025-01-29 10:33:10,0.0
381.60000000000036,1378.8,-361.60000000000036,-3104.0,-2655.2,-36.900000000000006,2025-01-29 10:33:10,0.0
1129.6000000000004,758.8,1602.3999999999996,-2776.0,-2067.2,-174.9,2025-01-29 10:33:10,0.0
-546.3999999999996,-245.2,-2205.6000000000004,-2496.0,-3658.2,-271.9,2025-01-29 10:33:10,0.0
109.60000000000036,578.8,2366.3999999999996,-2251.0,-2847.2,-682.9,2025-01-29 10:33:10,0.0
-1094.3999999999996,1082.8,2102.3999999999996,-1999.0,-2256.2,-855.9,2025-01-29 10:33:10,0.0
-750.3999999999996,1518.8,2306.3999999999996,-1968.0,-2196.2,-417.9,2025-01-29 10:33:10,0.0
-2742.3999999999996,1490.8,2446.3999999999996,-1695.0,-4405.2,-182.9,2025-01-29 10:33:10,0.0
-1486.3999999999996,666.8,4006.3999999999996,-1405.0,-4679.2,167.1,2025-01-29 10:33:10,0.0
-590.3999999999996,458.8,4310.4,-1015.0,-4946.2,303.1,2025-01-29 10:33:10,0.0
-1170.3999999999996,1198.8,4566.4,-741.0,-5008.2,82.1,2025-01-29 10:33:10,0.0
-2022.3999999999996,1830.8,4934.4,-683.0,-5086.2,-127.9,2025-01-29 10:33:10,0.0
-1886.3999999999996,1978.8,4742.4,-736.0,-5479.2,-89.9,2025-01-29 10:33:10,0.0
-1670.3999999999996,1298.8,4298.4,-759.0,-5840.2,115.1,2025-01-29 10:33:10,0.0
-1990.3999999999996,770.8,4102.4,-765.0,-5960.2,505.1,2025-01-29 10:33:10,0.0
-2174.3999999999996,978.8,3846.3999999999996,-670.0,-5919.2,678.1,2025-01-29 10:33:10,0.0
-1662.3999999999996,1498.8,3710.3999999999996,-406.0,-5803.2,323.1,2025-01-29 10:33:10,0.0
-1394.3999999999996,1882.8,3354.3999999999996,-448.0,-5625.2,188.1,2025-01-29 10:33:10,0.0
-2322.3999999999996,2002.8,3422.3999999999996,-604.0,-5241.2,85.1,2025-01-29 10:33:10,0.0
-3258.3999999999996,1450.8,3742.3999999999996,-667.0,-4924.2,193.1,2025-01-29 10:33:10,0.0
-3358.3999999999996,874.8,4630.4,-502.0,-5227.2,264.1,2025-01-29 10:33:10,0.0
-2478.3999999999996,682.8,4770.4,-386.0,-5681.2,427.1,2025-01-29 10:33:10,0.0
-1062.3999999999996,994.8,4890.4,-343.0,-5318.2,407.1,2025-01-29 10:33:10,0.0
-750.3999999999996,1338.8,5382.4,-333.0,-4274.2,279.1,2025-01-29 10:33:10,0.0
-850.3999999999996,1650.8,4946.4,-391.0,-3483.2,207.1,2025-01-29 10:33:10,0.0
-1402.3999999999996,1386.8,5602.4,-457.0,-3223.2,227.1,2025-01-29 10:33:10,0.0
-1754.3999999999996,654.8,5790.4,-189.0,-3724.2,190.1,2025-01-29 10:33:10,0.0
-1886.3999999999996,554.8,5770.4,288.0,-4705.2,-27.900000000000006,2025-01-29 10:33:10,0.0
-2574.3999999999996,310.8,6202.4,521.0,-5238.2,56.099999999999994,2025-01-29 10:33:11,0.0
-1786.3999999999996,290.8,6306.4,459.0,-5621.2,199.1,2025-01-29 10:33:11,0.0
-750.3999999999996,710.8,6138.4,407.0,-5493.2,-131.9,2025-01-29 10:33:11,
-1042.3999999999996,1074.8,6754.4,317.0,-4850.2,-336.9,2025-01-29 10:33:11,0.0
-1134.3999999999996,1334.8,6474.4,422.0,-4082.2,-361.9,2025-01-29 10:33:11,0.0
-1178.3999999999996,1550.8,5866.4,496.0,-4044.2,-477.9,2025-01-29 10:33:11,0.0
-1746.3999999999996,1182.8,5942.4,533.0,-4775.2,-497.9,2025-01-29 10:33:11,0.0
-1958.3999999999996,806.8,7270.4,601.0,-5481.2,-713.9,2025-01-29 10:33:11,0.0
-1870.3999999999996,966.8,7178.4,468.0,-5367.2,-1168.9,2025-01-29 10:33:11,0.0
-1806.3999999999996,990.8,6682.4,307.0,-5348.2,-1125.9,2025-01-29 10:33:11,0.0
-1706.3999999999996,1150.8,6758.4,120.0,-5328.2,-809.9,2025-01-29 10:33:11,0.0
-1830.3999999999996,1282.8,6934.4,73.0,-5456.2,-510.9,2025-01-29 10:33:11,0.0
-1890.3999999999996,1706.8,7662.4,-112.0,-5726.2,-404.9,2025-01-29 10:33:11,0.0
-1906.3999999999996,1490.8,8402.4,-137.0,-6009.2,-494.9,2025-01-29 10:33:11,0.0
-1674.3999999999996,954.8,9318.4,-209.0,-5702.2,-321.9,2025-01-29 10:33:11,0.0
-1002.3999999999996,786.8,10518.4,74.0,-4524.2,-111.9,2025-01-29 10:33:11,0.0
-714.3999999999996,578.8,11946.4,278.0,-2918.2,0.09999999999999432,2025-01-29 10:33:11,0.0
-178.39999999999964,294.8,12242.4,591.0,51.80000000000001,2.0999999999999943,2025-01-29 10:33:11,0.0
-922.3999999999996,326.8,10186.4,452.0,4035.8,-159.9,2025-01-29 10:33:11,0.0
-2822.3999999999996,434.8,9354.4,175.0,4673.8,32.099999999999994,2025-01-29 10:33:11,0.0
-4378.4,1622.8,7914.4,-604.0,2933.8,130.1,2025-01-29 10:33:11,0.0
-4646.4,1846.8,7418.4,-1134.0,-472.2,-355.9,2025-01-29 10:33:11,0.0
-4222.4,1094.8,9138.4,-1214.0,-2932.2,-348.9,2025-01-29 10:33:11,0.0
-2662.3999999999996,414.8,9582.4,-1226.0,-2706.2,-37.900000000000006,2025-01-29 10:33:11,0.0
-2182.3999999999996,-401.2,10158.4,-944.0,-2091.2,92.1,2025-01-29 10:33:11,0.0
-2002.3999999999996,-1033.2,10294.4,-555.0,-1976.2,418.1,2025-01-29 10:33:11,0.0
-1906.3999999999996,-965.2,10014.4,-199.0,-1758.2,690.1,2025-01-29 10:33:11,0.0
-2190.3999999999996,-345.2,9238.4,-72.0,-1741.2,858.1,2025-01-29 10:33:11,0.0
-990.3999999999996,106.80000000000001,8446.4,-196.0,-3180.2,1166.1,2025-01-29 10:33:11,0.0
-1874.3999999999996,138.8,9034.4,-284.0,-3151.2,1210.1,2025-01-29 10:33:11,0.0
-1258.3999999999996,-57.19999999999999,9758.4,-173.0,-3703.2,1061.1,2025-01-29 10:33:11,0.0
-906.3999999999996,54.80000000000001,9742.4,63.0,-4420.2,709.1,2025-01-29 10:33:11,0.0
-674.3999999999996,330.8,9734.4,299.0,-4897.2,320.1,2025-01-29 10:33:11,0.0
-746.3999999999996,870.8,10254.4,422.0,-4608.2,-3.9000000000000057,2025-01-29 10:33:11,0.0
-466.39999999999964,1298.8,10114.4,226.0,-3908.2,-67.9,2025-01-29 10:33:11,0.0
-278.39999999999964,1802.8,10210.4,-46.0,-3357.2,-146.9,2025-01-29 10:33:11,0.0
-642.3999999999996,2014.8,10314.4,-145.0,-3086.2,-195.9,2025-01-29 10:33:11,0.0
-794.3999999999996,2038.8,10598.4,-217.0,-3032.2,-146.9,2025-01-29 10:33:11,0.0
-874.3999999999996,1902.8,10918.4,-68.0,-2947.2,-126.9,2025-01-29 10:33:11,0.0
-490.39999999999964,1634.8,11150.4,54.0,-2393.2,-348.9,2025-01-29 10:33:11,0.0
-246.39999999999964,1434.8,11882.4,237.0,-1921.2,-630.9,2025-01-29 10:33:11,0.0
-42.399999999999636,1530.8,11466.4,641.0,-1006.2,-864.9,2025-01-29 10:33:11,0.0
701.6000000000004,1438.8,9138.4,797.0,-414.2,-1313.9,2025-01-29 10:33:11,0.0
-426.39999999999964,998.8,9414.4,522.0,-866.2,-1091.9,2025-01-29 10:33:11,0.0
-1254.3999999999996,950.8,10414.4,432.0,-898.2,-491.9,2025-01-29 10:33:11,0.0
-1886.3999999999996,950.8,11062.4,305.0,100.80000000000001,-252.9,2025-01-29 10:33:11,0.0
-2442.3999999999996,670.8,11354.4,343.0,323.8,-176.9,2025-01-29 10:33:11,0.0
-2574.3999999999996,658.8,11218.4,302.0,-16.19999999999999,-183.9,2025-01-29 10:33:11,0.0
-2054.3999999999996,330.8,11310.4,229.0,-497.2,-466.9,2025-01-29 10:33:11,0.0
-1558.3999999999996,422.8,11222.4,210.0,-826.2,-593.9,2025-01-29 10:33:11,0.0
-590.3999999999996,438.8,11182.4,224.0,-1053.2,-728.9,2025-01-29 10:33:11,0.0
149.60000000000036,430.8,11190.4,284.0,-917.2,-716.9,2025-01-29 10:33:11,0.0
173.60000000000036,482.8,11470.4,333.0,-410.2,-590.9,2025-01-29 10:33:11,0.0
9.600000000000364,366.8,11374.4,354.0,85.80000000000001,-572.9,2025-01-29 10:33:11,0.0
-486.39999999999964,414.8,11298.4,318.0,304.8,-560.9,2025-01-29 10:33:11,0.0
-1094.3999999999996,494.8,11230.4,406.0,427.8,-591.9,2025-01-29 10:33:11,0.0
-1330.3999999999996,342.8,10842.4,469.0,379.8,-645.9,2025-01-29 10:33:11,0.0
-1278.3999999999996,670.8,10766.4,402.0,302.8,-656.9,2025-01-29 10:33:11,0.0
-1258.3999999999996,662.8,10590.4,400.0,227.8,-577.9,2025-01-29 10:33:11,0.0
-1122.3999999999996,494.8,10538.4,426.0,-269.2,-287.9,2025-01-29 10:33:11,0.0
-1442.3999999999996,222.8,10870.4,301.0,-373.2,-173.9,2025-01-29 10:33:11,0.0
-1230.3999999999996,194.8,10854.4,229.0,-71.19999999999999,10.099999999999994,2025-01-29 10:33:12,0.0
-1074.3999999999996,174.8,10858.4,156.0,48.80000000000001,22.099999999999994,2025-01-29 10:33:12,0.0
-818.3999999999996,234.8,10658.4,175.0,61.80000000000001,8.099999999999994,2025-01-29 10:33:12,0.0
-906.3999999999996,-17.19999999999999,10678.4,265.0,119.80000000000001,-176.9,2025-01-29 10:33:12,0.0
-1094.3999999999996,46.80000000000001,10674.4,300.0,128.8,-345.9,2025-01-29 10:33:12,0.0
-1398.3999999999996,10.800000000000011,10566.4,338.0,-46.19999999999999,-382.9,2025-01-29 10:33:12,0.0
-1606.3999999999996,150.8,10726.4,367.0,-160.2,-295.9,2025-01-29 10:33:12,0.0
-1558.3999999999996,394.8,10774.4,371.0,-229.2,-161.9,2025-01-29 10:33:12,0.0
-1194.3999999999996,498.8,10526.4,312.0,-248.2,-95.9,2025-01-29 10:33:12,0.0
-1106.3999999999996,514.8,10638.4,303.0,-250.2,-53.900000000000006,2025-01-29 10:33:12,0.0
-1158.3999999999996,354.8,10722.4,285.0,-283.2,-22.900000000000006,2025-01-29 10:33:12,0.0
-934.3999999999996,402.8,10798.4,258.0,-198.2,-17.900000000000006,2025-01-29 10:33:12,0.0
-1002.3999999999996,402.8,10990.4,224.0,-162.2,35.099999999999994,2025-01-29 10:33:12,0.0
-1110.3999999999996,650.8,10846.4,197.0,-180.2,44.099999999999994,2025-01-29 10:33:12,0.0
-1138.3999999999996,494.8,11090.4,211.0,-186.2,55.099999999999994,2025-01-29 10:33:12,0.0
-1174.3999999999996,490.8,10962.4,214.0,-87.19999999999999,39.099999999999994,2025-01-29 10:33:12,0.0
-1202.3999999999996,458.8,11070.4,222.0,-80.19999999999999,21.099999999999994,2025-01-29 10:33:12,0.0
-1062.3999999999996,478.8,11034.4,202.0,-98.19999999999999,38.099999999999994,2025-01-29 10:33:12,0.0
-1030.3999999999996,430.8,11034.4,182.0,-5.199999999999989,3.0999999999999943,2025-01-29 10:33:12,0.0
-1194.3999999999996,482.8,10894.4,156.0,61.80000000000001,23.099999999999994,2025-01-29 10:33:12,0.0
-1298.3999999999996,310.8,10882.4,106.0,14.800000000000011,112.1,2025-01-29 10:33:12,0.0
-1266.3999999999996,338.8,10946.4,86.0,-10.199999999999989,162.1,2025-01-29 10:33:12,0.0
-1242.3999999999996,442.8,10974.4,11.0,-0.19999999999998863,166.1,2025-01-29 10:33:12,0.0
-1158.3999999999996,426.8,10726.4,55.0,-71.19999999999999,85.1,2025-01-29 10:33:12,0.0
-954.3999999999996,490.8,10674.4,14.0,-217.2,84.1,2025-01-29 10:33:12,0.0
-1030.3999999999996,574.8,10690.4,41.0,-193.2,49.099999999999994,2025-01-29 10:33:12,0.0
-1134.3999999999996,570.8,10786.4,5.0,-226.2,55.099999999999994,2025-01-29 10:33:12,0.0
-1086.3999999999996,578.8,11066.4,-31.0,-218.2,53.099999999999994,2025-01-29 10:33:12,0.0
-1146.3999999999996,614.8,11166.4,-91.0,-160.2,65.1,2025-01-29 10:33:12,0.0
-1098.3999999999996,606.8,11158.4,-59.0,-132.2,38.099999999999994,2025-01-29 10:33:12,0.0
-1122.3999999999996,470.8,10994.4,-61.0,-97.19999999999999,32.099999999999994,2025-01-29 10:33:12,0.0
-954.3999999999996,514.8,10930.4,-101.0,-56.19999999999999,11.099999999999994,2025-01-29 10:33:12,0.0
-1170.3999999999996,446.8,11070.4,-82.0,-16.19999999999999,-10.900000000000006,2025-01-29 10:33:12,0.0
-1014.3999999999996,398.8,11018.4,-94.0,-55.19999999999999,11.099999999999994,2025-01-29 10:33:12,0.0
-1050.3999999999996,434.8,10938.4,-101.0,-64.19999999999999,11.099999999999994,2025-01-29 10:33:12,0.0
-1086.3999999999996,398.8,11082.4,-79.0,-60.19999999999999,10.099999999999994,2025-01-29 10:33:12,0.0
-1106.3999999999996,338.8,10974.4,-47.0,-39.19999999999999,-6.900000000000006,2025-01-29 10:33:12,0.0
-1038.3999999999996,374.8,11050.4,-69.0,-20.19999999999999,-6.900000000000006,2025-01-29 10:33:12,0.0
-1122.3999999999996,422.8,10994.4,-44.0,23.80000000000001,-13.900000000000006,2025-01-29 10:33:12,0.0
-1086.3999999999996,422.8,11058.4,-51.0,39.80000000000001,-59.900000000000006,2025-01-29 10:33:12,0.0
-1094.3999999999996,426.8,10878.4,-48.0,-18.19999999999999,-42.900000000000006,2025-01-29 10:33:12,0.0
-1050.3999999999996,442.8,10854.4,-22.0,-69.19999999999999,-17.900000000000006,2025-01-29 10:33:12,
-1058.3999999999996,442.8,10938.4,-44.0,-37.19999999999999,18.099999999999994,2025-01-29 10:33:12,0.0
-1098.3999999999996,410.8,11034.4,-30.0,-24.19999999999999,46.099999999999994,2025-01-29 10:33:12,0.0
-1074.3999999999996,362.8,10946.4,-1.0,-58.19999999999999,44.099999999999994,2025-01-29 10:33:12,0.0
-1190.3999999999996,394.8,10998.4,35.0,-60.19999999999999,69.1,2025-01-29 10:33:12,0.0
-1010.3999999999996,438.8,11138.4,2.0,-98.19999999999999,52.099999999999994,2025-01-29 10:33:12,0.0
-1010.3999999999996,354.8,11102.4,59.0,-44.19999999999999,30.099999999999994,2025-01-29 10:33:12,0.0
-1026.3999999999996,354.8,11070.4,61.0,-3.1999999999999886,16.099999999999994,2025-01-29 10:33:12,0.0
-1054.3999999999996,390.8,11038.4,69.0,2.8000000000000114,24.099999999999994,2025-01-29 10:33:12,0.0
-1070.3999999999996,374.8,11014.4,70.0,12.800000000000011,23.099999999999994,2025-01-29 10:33:12,0.0
-1034.3999999999996,338.8,10974.4,92.0,-18.19999999999999,27.099999999999994,2025-01-29 10:33:12,0.0
-1034.3999999999996,354.8,11078.4,93.0,-54.19999999999999,25.099999999999994,2025-01-29 10:33:12,0.0
-1082.3999999999996,378.8,11078.4,114.0,-58.19999999999999,4.099999999999994,2025-01-29 10:33:12,0.0
-1130.3999999999996,442.8,10898.4,140.0,-27.19999999999999,5.099999999999994,2025-01-29 10:33:12,0.0
-1130.3999999999996,522.8,10954.4,133.0,-76.19999999999999,-14.900000000000006,2025-01-29 10:33:12,0.0
-1126.3999999999996,434.8,11050.4,138.0,-32.19999999999999,6.099999999999994,2025-01-29 10:33:12,0.0
-1074.3999999999996,414.8,11126.4,163.0,-12.199999999999989,-2.9000000000000057,2025-01-29 10:33:12,0.0
-1034.3999999999996,370.8,11134.4,154.0,56.80000000000001,-10.900000000000006,2025-01-29 10:33:12,0.0
-1070.3999999999996,466.8,10910.4,137.0,54.80000000000001,-0.9000000000000057,2025-01-29 10:33:12,0.0
-1038.3999999999996,350.8,11090.4,146.0,54.80000000000001,7.099999999999994,2025-01-29 10:33:13,0.0
-990.3999999999996,358.8,10994.4,171.0,70.80000000000001,-36.900000000000006,2025-01-29 10:33:13,0.0
-1050.3999999999996,450.8,11010.4,161.0,99.80000000000001,-60.900000000000006,2025-01-29 10:33:13,0.0
-1194.3999999999996,418.8,10838.4,187.0,-66.19999999999999,-51.900000000000006,2025-01-29 10:33:13,0.0
-1106.3999999999996,438.8,10918.4,234.0,-127.19999999999999,-16.900000000000006,2025-01-29 10:33:13,0.0
-1098.3999999999996,506.8,10982.4,220.0,-126.19999999999999,-46.900000000000006,2025-01-29 10:33:13,0.0
-1122.3999999999996,462.8,11094.4,209.0,-138.2,-42.900000000000006,2025-01-29 10:33:13,0.0
-1018.3999999999996,530.8,11166.4,196.0,-148.2,-31.900000000000006,2025-01-29 10:33:13,0.0
-1018.3999999999996,362.8,11126.4,195.0,-29.19999999999999,-49.900000000000006,2025-01-29 10:33:13,0.0
-1122.3999999999996,410.8,11010.4,194.0,51.80000000000001,-48.900000000000006,2025-01-29 10:33:13,0.0
-966.3999999999996,398.8,10874.4,181.0,38.80000000000001,-65.9,2025-01-29 10:33:13,0.0
-1042.3999999999996,350.8,11026.4,181.0,26.80000000000001,-32.900000000000006,2025-01-29 10:33:13,0.0
-1066.3999999999996,382.8,10982.4,183.0,4.800000000000011,-17.900000000000006,2025-01-29 10:33:13,0.0
-1066.3999999999996,346.8,10830.4,138.0,-53.19999999999999,-7.900000000000006,2025-01-29 10:33:13,0.0
-986.3999999999996,406.8,10942.4,151.0,-88.19999999999999,16.099999999999994,2025-01-29 10:33:13,0.0
-970.3999999999996,474.8,10918.4,128.0,-22.19999999999999,-30.900000000000006,2025-01-29 10:33:13,0.0
-1042.3999999999996,462.8,11054.4,137.0,-30.19999999999999,-43.900000000000006,2025-01-29 10:33:13,0.0
-1054.3999999999996,382.8,10946.4,111.0,2.8000000000000114,-63.900000000000006,2025-01-29 10:33:13,0.0
-1186.3999999999996,438.8,11066.4,115.0,-14.199999999999989,-30.900000000000006,2025-01-29 10:33:13,0.0
-1146.3999999999996,462.8,10886.4,118.0,4.800000000000011,-43.900000000000006,2025-01-29 10:33:13,0.0
-1186.3999999999996,506.8,11070.4,100.0,-6.199999999999989,-53.900000000000006,2025-01-29 10:33:13,0.0
-1010.3999999999996,414.8,11046.4,144.0,-25.19999999999999,-68.9,2025-01-29 10:33:13,0.0
-1074.3999999999996,386.8,11174.4,104.0,-40.19999999999999,-75.9,2025-01-29 10:33:13,0.0
-958.3999999999996,402.8,11230.4,97.0,4.800000000000011,-68.9,2025-01-29 10:33:13,0.0
-1054.3999999999996,234.8,11278.4,100.0,267.8,-72.9,2025-01-29 10:33:13,0.0
-862.3999999999996,422.8,10798.4,59.0,307.8,-34.900000000000006,2025-01-29 10:33:13,0.0
-1026.3999999999996,582.8,10698.4,5.0,366.8,24.099999999999994,2025-01-29 10:33:13,0.0
-1162.3999999999996,546.8,11038.4,29.0,253.8,32.099999999999994,2025-01-29 10:33:13,0.0
-1182.3999999999996,310.8,10822.4,57.0,167.8,-26.900000000000006,2025-01-29 10:33:13,0.0
-866.3999999999996,686.8,10566.4,-6.0,120.80000000000001,-62.900000000000006,2025-01-29 10:33:13,0.0
-1026.3999999999996,658.8,11274.4,14.0,191.8,-75.9,2025-01-29 10:33:13,0.0
-1078.3999999999996,502.8,11218.4,80.0,168.8,-55.900000000000006,2025-01-29 10:33:13,0.0
-950.3999999999996,458.8,11410.4,94.0,313.8,-45.900000000000006,2025-01-29 10:33:13,0.0
-778.3999999999996,574.8,11026.4,51.0,672.8,-57.900000000000006,2025-01-29 10:33:13,0.0
-582.3999999999996,658.8,10406.4,11.0,548.8,-21.900000000000006,2025-01-29 10:33:13,0.0
-590.3999999999996,626.8,10270.4,-115.0,191.8,-68.9,2025-01-29 10:33:13,0.0
-754.3999999999996,494.8,10854.4,-185.0,11.800000000000011,-221.9,2025-01-29 10:33:13,0.0
-1026.3999999999996,370.8,11158.4,-161.0,65.80000000000001,-291.9,2025-01-29 10:33:13,0.0
-1350.3999999999996,230.8,11422.4,-86.0,208.8,-255.9,2025-01-29 10:33:13,0.0
-1178.3999999999996,190.8,11150.4,-29.0,318.8,-211.9,2025-01-29 10:33:13,0.0
-1042.3999999999996,142.8,10474.4,-125.0,232.8,-172.9,2025-01-29 10:33:13,0.0
-702.3999999999996,322.8,10102.4,-222.0,256.8,-105.9,2025-01-29 10:33:13,0.0
-826.3999999999996,470.8,10322.4,-246.0,317.8,-159.9,2025-01-29 10:33:13,0.0
-1150.3999999999996,466.8,10582.4,-203.0,275.8,-269.9,2025-01-29 10:33:13,0.0
-1526.3999999999996,374.8,10770.4,-139.0,107.80000000000001,-351.9,2025-01-29 10:33:13,0.0
-1522.3999999999996,382.8,10554.4,-101.0,-130.2,-340.9,2025-01-29 10:33:13,0.0
-1486.3999999999996,290.8,10442.4,-142.0,-218.2,-315.9,2025-01-29 10:33:13,0.0
-902.3999999999996,194.8,10106.4,-356.0,-332.2,-421.9,2025-01-29 10:33:13,0.0
-466.39999999999964,298.8,10050.4,-543.0,-569.2,-768.9,2025-01-29 10:33:13,0.0
-646.3999999999996,258.8,10110.4,-567.0,-698.2,-877.9,2025-01-29 10:33:13,0.0
-782.3999999999996,118.80000000000001,10894.4,-361.0,-272.2,-789.9,2025-01-29 10:33:13,0.0
-1050.3999999999996,10.800000000000011,11398.4,-160.0,452.8,-659.9,2025-01-29 10:33:13,0.0
-1030.3999999999996,134.8,11258.4,-234.0,1111.8,-556.9,2025-01-29 10:33:13,0.0
-1254.3999999999996,310.8,11322.4,-380.0,1453.8,-544.9,2025-01-29 10:33:13,0.0
-1646.3999999999996,510.8,11242.4,-628.0,1580.8,-403.9,2025-01-29 10:33:13,0.0
-1914.3999999999996,550.8,11578.4,-840.0,1605.8,-178.9,2025-01-29 10:33:13,0.0
-1694.3999999999996,486.8,11526.4,-1013.0,1639.8,83.1,2025-01-29 10:33:13,0.0
-1034.3999999999996,442.8,11962.4,-1073.0,1618.8,218.1,2025-01-29 10:33:13,0.0
-298.39999999999964,-221.2,12294.4,-1010.0,2097.8,224.1,2025-01-29 10:33:13,0.0
-158.39999999999964,-517.2,11774.4,-969.0,3288.8,269.1,2025-01-29 10:33:14,0.0
-250.39999999999964,-653.2,10958.4,-982.0,4348.8,476.1,2025-01-29 10:33:14,0.0
-818.3999999999996,-185.2,9706.4,-1099.0,5066.8,887.1,2025-01-29 10:33:14,0.0
-1506.3999999999996,-289.2,9914.4,-1185.0,5789.8,968.1,2025-01-29 10:33:14,0.0
-2274.3999999999996,-141.2,10010.4,-953.0,4463.8,1245.1,2025-01-29 10:33:14,0.0
-2306.3999999999996,-225.2,9958.4,-1046.0,3907.8,1424.1,2025-01-29 10:33:14,0.0
-2122.3999999999996,-85.19999999999999,10166.4,-919.0,4377.8,1264.1,2025-01-29 10:33:14,0.0
-1438.3999999999996,266.8,10034.4,-1028.0,4358.8,1312.1,2025-01-29 10:33:14,0.0
-738.3999999999996,90.80000000000001,10302.4,-926.0,4147.8,1265.1,2025-01-29 10:33:14,0.0
-662.3999999999996,10.800000000000011,10366.4,-825.0,4990.8,1536.1,2025-01-29 10:33:14,0.0
-702.3999999999996,26.80000000000001,10174.4,-900.0,6457.8,1712.1,2025-01-29 10:33:14,0.0
-1174.3999999999996,138.8,9982.4,-957.0,7844.8,1745.1,2025-01-29 10:33:14,0.0
-1210.3999999999996,178.8,9278.4,-948.0,8290.8,1704.1,2025-01-29 10:33:14,0.0
-1926.3999999999996,314.8,8714.4,-914.0,7924.8,1686.1,2025-01-29 10:33:14,0.0
-1942.3999999999996,574.8,7946.4,-872.0,7105.8,1224.1,2025-01-29 10:33:14,0.0
-2238.3999999999996,618.8,7462.4,-1128.0,6055.8,1426.1,2025-01-29 10:33:14,0.0
-1926.3999999999996,830.8,7618.4,-1435.0,6537.8,1741.1,2025-01-29 10:33:14,0.0
-2102.3999999999996,394.8,7534.4,-1480.0,7401.8,1940.1,2025-01-29 10:33:14,0.0
-2834.3999999999996,46.80000000000001,8050.4,-1191.0,8348.8,2296.1,2025-01-29 10:33:14,0.0
-3642.3999999999996,222.8,6934.4,-871.0,8650.8,2690.1,2025-01-29 10:33:14,0.0
-3830.3999999999996,842.8,5390.4,-444.0,7397.8,2456.1,2025-01-29 10:33:14,0.0
-1686.3999999999996,1646.8,4974.4,-242.0,6426.8,1571.1,2025-01-29 10:33:14,0.0
-1758.3999999999996,1418.8,6870.4,107.0,7908.8,874.1,2025-01-29 10:33:14,
-2158.3999999999996,422.8,6154.4,369.0,10215.8,849.1,2025-01-29 10:33:14,0.0
-2418.3999999999996,-57.19999999999999,6090.4,633.0,12361.8,1024.1,2025-01-29 10:33:14,0.0
-3150.3999999999996,418.8,4930.4,821.0,13161.8,1031.1,2025-01-29 10:33:14,0.0
-4218.4,1530.8,3518.3999999999996,671.0,11943.8,1464.1,2025-01-29 10:33:14,0.0
-3014.3999999999996,2266.8,2602.3999999999996,523.0,9502.8,1143.1,2025-01-29 10:33:14,0.0
-2958.3999999999996,2110.8,3326.3999999999996,437.0,8091.8,1032.1,2025-01-29 10:33:14,0.0
-2590.3999999999996,1554.8,3510.3999999999996,301.0,8174.8,964.1,2025-01-29 10:33:14,0.0
-2026.3999999999996,1526.8,2950.3999999999996,474.0,8784.8,787.1,2025-01-29 10:33:14,0.0
-1650.3999999999996,1582.8,2398.3999999999996,551.0,8891.8,530.1,2025-01-29 10:33:14,0.0
-1438.3999999999996,1958.8,2186.3999999999996,441.0,8900.8,441.1,2025-01-29 10:33:14,0.0
-1730.3999999999996,2222.8,1922.3999999999996,354.0,9105.8,404.1,2025-01-29 10:33:14,0.0
-1354.3999999999996,2190.8,918.3999999999996,221.0,8815.8,537.1,2025-01-29 10:33:14,0.0
-974.3999999999996,1878.8,42.399999999999636,214.0,8492.8,489.1,2025-01-29 10:33:14,0.0
-1062.3999999999996,2002.8,110.39999999999964,197.0,8340.8,340.1,2025-01-29 10:33:14,0.0
-1158.3999999999996,2162.8,-93.60000000000036,98.0,8031.8,269.1,2025-01-29 10:33:14,0.0
-1466.3999999999996,2206.8,-241.60000000000036,-20.0,7906.8,379.1,2025-01-29 10:33:14,0.0
-902.3999999999996,1974.8,-661.6000000000004,-244.0,8155.8,469.1,2025-01-29 10:33:14,0.0
217.60000000000036,2118.8,-949.6000000000004,-212.0,8125.8,218.1,2025-01-29 10:33:14,0.0
-386.39999999999964,2618.8,-1109.6000000000004,-147.0,7979.8,56.099999999999994,2025-01-29 10:33:14,0.0
-162.39999999999964,2742.8,-2073.6000000000004,-104.0,6621.8,416.1,2025-01-29 10:33:14,0.0
-418.39999999999964,2610.8,-1841.6000000000004,15.0,5006.8,652.1,2025-01-29 10:33:14,0.0
-418.39999999999964,1702.8,-1297.6000000000004,47.0,3720.8,990.1,2025-01-29 10:33:14,0.0
-66.39999999999964,1330.8,-1761.6000000000004,140.0,1393.8,1373.1,2025-01-29 10:33:14,0.0
701.6000000000004,1354.8,-677.6000000000004,48.0,608.8,1170.1,2025-01-29 10:33:14,0.0
41.600000000000364,1050.8,-385.60000000000036,635.0,1278.8,961.1,2025-01-29 10:33:14,0.0
521.6000000000004,1494.8,-949.6000000000004,1126.0,1104.8,641.1,2025-01-29 10:33:14,0.0
133.60000000000036,1522.8,-1833.6000000000004,1460.0,704.8,485.1,2025-01-29 10:33:14,0.0
205.60000000000036,1710.8,-2209.6000000000004,1260.0,-452.2,416.1,2025-01-29 10:33:14,0.0
345.60000000000036,1954.8,-1489.6000000000004,1438.0,-849.2,304.1,2025-01-29 10:33:14,0.0
677.6000000000004,1842.8,-897.6000000000004,1473.0,-49.19999999999999,347.1,2025-01-29 10:33:14,0.0
1045.6000000000004,1918.8,-1045.6000000000004,1507.0,1941.8,347.1,2025-01-29 10:33:14,0.0
997.6000000000004,2194.8,-1513.6000000000004,1509.0,3112.8,-52.900000000000006,2025-01-29 10:33:14,0.0
233.60000000000036,2358.8,-2549.6000000000004,1545.0,2513.8,-521.9,2025-01-29 10:33:14,0.0
-18.399999999999636,2182.8,-4129.6,1147.0,1354.8,-915.9,2025-01-29 10:33:14,0.0
-642.3999999999996,2078.8,-4009.6000000000004,403.0,-545.2,-1062.9,2025-01-29 10:33:14,0.0
21.600000000000364,1786.8,-3089.6000000000004,-1.0,-2405.2,-1286.9,2025-01-29 10:33:14,0.0
-238.39999999999964,1658.8,-1733.6000000000004,-552.0,-2343.2,-1784.9,2025-01-29 10:33:14,0.0
-1386.3999999999996,1822.8,910.3999999999996,-971.0,-98.19999999999999,-1644.9,2025-01-29 10:33:14,0.0
513.6000000000004,1554.8,238.39999999999964,-746.0,1204.8,-1357.9,2025-01-29 10:33:14,0.0
901.6000000000004,1798.8,374.39999999999964,-223.0,1074.8,-1203.9,2025-01-29 10:33:15,0.0
1017.6000000000004,1986.8,-577.6000000000004,159.0,-86.19999999999999,-1379.9,2025-01-29 10:33:15,0.0
573.6000000000004,2250.8,-545.6000000000004,286.0,-476.2,-1632.9,2025-01-29 10:33:15,0.0
-6.399999999999636,2342.8,-805.6000000000004,369.0,353.8,-1926.9,2025-01-29 10:33:15,0.0
-394.39999999999964,2198.8,-393.60000000000036,77.0,732.8,-2197.9,2025-01-29 10:33:15,0.0
-314.39999999999964,2098.8,-793.6000000000004,-95.0,493.8,-2015.9,2025-01-29 10:33:15,0.0
-198.39999999999964,2126.8,-397.60000000000036,-84.0,-124.19999999999999,-1750.9,2025-01-29 10:33:15,0.0
613.6000000000004,2246.8,-45.600000000000364,284.0,-1129.2,-1705.9,2025-01-29 10:33:15,0.0
1513.6000000000004,2134.8,-1405.6000000000004,378.0,-1947.2,-1816.9,2025-01-29 10:33:15,0.0
1929.6000000000004,1730.8,-2553.6000000000004,410.0,-1991.2,-1813.9,2025-01-29 10:33:15,0.0
1045.6000000000004,1270.8,-1917.6000000000004,452.0,-1337.2,-1719.9,2025-01-29 10:33:15,0.0
933.6000000000004,1090.8,-569.6000000000004,667.0,-473.2,-1546.9,2025-01-29 10:33:15,0.0
1269.6000000000004,1226.8,418.39999999999964,1106.0,-250.2,-1639.9,2025-01-29 10:33:15,0.0
1077.6000000000004,1894.8,1102.3999999999996,1642.0,197.8,-1838.9,2025-01-29 10:33:15,0.0
1721.6000000000004,2118.8,770.3999999999996,2112.0,-246.2,-1968.9,2025-01-29 10:33:15,0.0
1153.6000000000004,2066.8,-81.60000000000036,2212.0,-1269.2,-2051.9,2025-01-29 10:33:15,0.0
1305.6000000000004,1582.8,-337.60000000000036,2017.0,-2112.2,-1913.9,2025-01-29 10:33:15,0.0
1693.6000000000004,878.8,34.399999999999636,2074.0,-3184.2,-1834.9,2025-01-29 10:33:15,0.0
2125.6000000000004,422.8,578.3999999999996,2319.0,-4493.2,-1845.9,2025-01-29 10:33:15,0.0
2349.6000000000004,-33.19999999999999,750.3999999999996,2696.0,-5567.2,-1889.9,2025-01-29 10:33:15,0.0
2501.6000000000004,-145.2,450.39999999999964,3081.0,-5786.2,-1892.9,2025-01-29 10:33:15,0.0
2289.6000000000004,-229.2,134.39999999999964,3374.0,-5511.2,-1528.9,2025-01-29 10:33:15,0.0
2205.6000000000004,-81.19999999999999,1050.3999999999996,3852.0,-4899.2,-886.9,2025-01-29 10:33:15,0.0
3453.6000000000004,-505.2,466.39999999999964,5050.0,-3337.2,-233.9,2025-01-29 10:33:15,0.0
3577.6000000000004,-725.2,6.399999999999636,5613.0,-3080.2,-866.9,2025-01-29 10:33:15,0.0
2969.6000000000004,-797.2,-1021.6000000000004,5994.0,-2148.2,-1463.9,2025-01-29 10:33:15,0.0
2305.6000000000004,-845.2,-1697.6000000000004,5834.0,-797.2,-1923.9,2025-01-29 10:33:15,0.0
1645.6000000000004,-1273.2,-925.6000000000004,5760.0,362.8,-1993.9,2025-01-29 10:33:15,0.0
977.6000000000004,-1701.2,-81.60000000000036,5999.0,584.8,-1627.9,2025-01-29 10:33:15,0.0
805.6000000000004,-1849.2,-105.60000000000036,6382.0,-471.2,-875.9,2025-01-29 10:33:15,0.0
937.6000000000004,-1437.2,-705.6000000000004,6652.0,-2382.2,180.1,2025-01-29 10:33:15,0.0
1713.6000000000004,-217.2,-1769.6000000000004,6812.0,-3518.2,1242.1,2025-01-29 10:33:15,0.0
4405.6,-213.2,-4457.6,5547.0,-3537.2,704.1,2025-01-29 10:33:15,0.0
4929.6,-1073.2,-4817.6,3814.0,-2724.2,-735.9,2025-01-29 10:33:15,0.0
4061.6000000000004,-537.2,-3265.6000000000004,3212.0,-1454.2,-1615.9,2025-01-29 10:33:15,0.0
3213.6000000000004,522.8,-2337.6000000000004,2766.0,-198.2,-1338.9,2025-01-29 10:33:15,0.0
3165.6000000000004,778.8,-1361.6000000000004,1204.0,1010.8,-957.9,2025-01-29 10:33:15,0.0
3969.6000000000004,-697.2,-705.6000000000004,-585.0,2084.8,-1414.9,2025-01-29 10:33:15,0.0
4097.6,-2793.2,178.39999999999964,-1374.0,3140.8,-2812.9,2025-01-29 10:33:15,0.0
3037.6000000000004,-4505.2,502.39999999999964,-1591.0,5273.8,-4286.9,2025-01-29 10:33:15,0.0
1201.6000000000004,-5457.2,358.39999999999964,-1498.0,7548.8,-4611.9,2025-01-29 10:33:15,0.0
-218.39999999999964,-5333.2,558.3999999999996,-1066.0,9574.8,-3999.9,2025-01-29 10:33:15,0.0
-974.3999999999996,-4689.2,622.3999999999996,-633.0,10553.8,-3008.9,2025-01-29 10:33:15,0.0
-2646.3999999999996,-3837.2,3002.3999999999996,-565.0,10593.8,-2366.9,2025-01-29 10:33:15,0.0
-1474.3999999999996,-3205.2,174.39999999999964,-418.0,8952.8,-2236.9,2025-01-29 10:33:15,0.0
-1858.3999999999996,-3013.2,6.399999999999636,-322.0,6187.8,-2410.9,2025-01-29 10:33:15,0.0
-1274.3999999999996,-3549.2,-1097.6000000000004,-462.0,2418.8,-2525.9,2025-01-29 10:33:15,0.0
-974.3999999999996,-4601.2,-797.6000000000004,-490.0,-570.2,-2375.9,2025-01-29 10:33:15,0.0
-182.39999999999964,-5041.2,-201.60000000000036,-202.0,-2270.2,-1868.9,2025-01-29 10:33:15,0.0
1089.6000000000004,-4589.2,-209.60000000000036,64.0,-2718.2,-1230.9,2025-01-29 10:33:15,0.0
1845.6000000000004,-3813.2,74.39999999999964,-120.0,-2121.2,-803.9,2025-01-29 10:33:15,0.0
2233.6000000000004,-3217.2,602.3999999999996,-452.0,-784.2,-621.9,2025-01-29 10:33:15,0.0
1965.6000000000004,-3137.2,406.39999999999964,-893.0,914.8,-482.9,2025-01-29 10:33:15,0.0
1133.6000000000004,-3741.2,538.3999999999996,-1231.0,2056.8,-32.900000000000006,2025-01-29 10:33:15,0.0
1257.6000000000004,-4421.2,402.39999999999964,-1171.0,2284.8,205.1,2025-01-29 10:33:15,0.0
1129.6000000000004,-4453.2,-377.60000000000036,-957.0,2005.8,220.1,2025-01-29 10:33:15,0.0
841.6000000000004,-4241.2,-949.6000000000004,-835.0,1946.8,370.1,2025-01-29 10:33:15,0.0
1329.6000000000004,-3709.2,-1117.6000000000004,-878.0,2277.8,226.1,2025-01-29 10:33:15,0.0
1089.6000000000004,-3457.2,-809.6000000000004,-1081.0,2597.8,-359.9,2025-01-29 10:33:15,0.0
337.60000000000036,-3653.2,-1121.6000000000004,-1294.0,2884.8,-748.9,2025-01-29 10:33:15,0.0
-746.3999999999996,-3625.2,-981.6000000000004,-1507.0,2625.8,-955.9,2025-01-29 10:33:16,
-1190.3999999999996,-3265.2,-1013.6000000000004,-1822.0,1596.8,-1090.9,2025-01-29 10:33:16,0.0
-1186.3999999999996,-2917.2,-1109.6000000000004,-2416.0,-180.2,-854.9,2025-01-29 10:33:16,0.0
-430.39999999999964,-2497.2,-1181.6000000000004,-3169.0,-1429.2,-502.9,2025-01-29 10:33:16,0.0
781.6000000000004,-2337.2,-789.6000000000004,-3834.0,-1084.2,-837.9,2025-01-29 10:33:16,0.0
645.6000000000004,-2545.2,-429.60000000000036,-4473.0,46.80000000000001,-1346.9,2025-01-29 10:33:16,0.0
-158.39999999999964,-2973.2,-277.60000000000036,-5028.0,1111.8,-1518.9,2025-01-29 10:33:16,0.0
-670.3999999999996,-3533.2,146.39999999999964,-5498.0,1388.8,-1522.9,2025-01-29 10:33:16,0.0
-1242.3999999999996,-3557.2,818.3999999999996,-5770.0,819.8,-1481.9,2025-01-29 10:33:16,0.0
-1382.3999999999996,-3505.2,926.3999999999996,-6628.0,-1147.2,-1032.9,2025-01-29 10:33:16,0.0
-714.3999999999996,-3741.2,698.3999999999996,-7264.0,-1782.2,-565.9,2025-01-29 10:33:16,0.0
-382.39999999999964,-2921.2,-553.6000000000004,-6425.0,-1489.2,-748.9,2025-01-29 10:33:16,0.0
-418.39999999999964,-4585.2,-3325.6000000000004,-5626.0,138.8,-803.9,2025-01-29 10:33:16,0.0
-306.39999999999964,-6689.2,-3265.6000000000004,-4134.0,1853.8,-1455.9,2025-01-29 10:33:16,0.0
-1474.3999999999996,-7737.2,-1389.6000000000004,-1478.0,2509.8,-2426.9,2025-01-29 10:33:16,0.0
-3402.3999999999996,-7325.2,-1297.6000000000004,994.0,545.8,-2300.9,2025-01-29 10:33:16,0.0
-4742.4,-5081.2,-3657.6000000000004,1088.0,-2512.2,-53.900000000000006,2025-01-29 10:33:16,0.0
-2338.3999999999996,-1881.2,-5189.6,-386.0,-4606.2,2873.1,2025-01-29 10:33:16,0.0
949.6000000000004,90.80000000000001,-5873.6,-1888.0,-5854.2,3776.1,2025-01-29 10:33:16,0.0
2813.6000000000004,1506.8,-5485.6,-3393.0,-6228.2,3876.1,2025-01-29 10:33:16,0.0
3569.6000000000004,1830.8,-4365.6,-4254.0,-5310.2,3971.1,2025-01-29 10:33:16,0.0
5761.6,1294.8,-4581.6,-4486.0,-3622.2,3446.1,2025-01-29 10:33:16,0.0
5577.6,1006.8,-3189.6000000000004,-4385.0,-1928.2,2360.1,2025-01-29 10:33:16,0.0
4837.6,814.8,-2357.6000000000004,-3942.0,-771.2,1538.1,2025-01-29 10:33:16,0.0
4065.6000000000004,658.8,-1441.6000000000004,-3485.0,-216.2,1314.1,2025-01-29 10:33:16,0.0
3185.6000000000004,230.8,-1469.6000000000004,-3271.0,191.8,1445.1,2025-01-29 10:33:16,0.0
2797.6000000000004,-165.2,-1973.6000000000004,-2847.0,677.8,1561.1,2025-01-29 10:33:16,0.0
1617.6000000000004,-577.2,-2125.6000000000004,-2463.0,1534.8,1713.1,2025-01-29 10:33:16,0.0
369.60000000000036,-641.2,-1729.6000000000004,-1994.0,2050.8,2135.1,2025-01-29 10:33:16,0.0
-618.3999999999996,-653.2,-1473.6000000000004,-1248.0,1423.8,2937.1,2025-01-29 10:33:16,0.0
-990.3999999999996,-401.2,-1233.6000000000004,-790.0,-12.199999999999989,3695.1,2025-01-29 10:33:16,0.0
-186.39999999999964,-93.19999999999999,-1373.6000000000004,-319.0,-1838.2,4054.1,2025-01-29 10:33:16,0.0
557.6000000000004,-21.19999999999999,-1169.6000000000004,223.0,-3296.2,4023.1,2025-01-29 10:33:16,0.0
1505.6000000000004,154.8,-545.6000000000004,1057.0,-4486.2,3787.1,2025-01-29 10:33:16,0.0
1705.6000000000004,322.8,-385.60000000000036,1679.0,-4397.2,3869.1,2025-01-29 10:33:16,0.0
2289.6000000000004,754.8,-469.60000000000036,1989.0,-3368.2,4214.1,2025-01-29 10:33:16,0.0
2701.6000000000004,1174.8,-597.6000000000004,2235.0,-1818.2,4475.1,2025-01-29 10:33:16,0.0
2725.6000000000004,2014.8,-301.60000000000036,2286.0,-179.2,4361.1,2025-01-29 10:33:16,0.0
2509.6000000000004,2682.8,-317.60000000000036,2101.0,639.8,3962.1,2025-01-29 10:33:16,0.0
2037.6000000000004,2998.8,-613.6000000000004,1620.0,982.8,3424.1,2025-01-29 10:33:16,0.0
1553.6000000000004,3190.8,-693.6000000000004,1366.0,570.8,2893.1,2025-01-29 10:33:16,0.0
1929.6000000000004,2762.8,-949.6000000000004,1240.0,-439.2,2289.1,2025-01-29 10:33:16,0.0
2233.6000000000004,2254.8,-1117.6000000000004,1113.0,-1039.2,1727.1,2025-01-29 10:33:16,0.0
2685.6000000000004,1478.8,-593.6000000000004,1100.0,-859.2,1232.1,2025-01-29 10:33:16,0.0
2865.6000000000004,1238.8,366.39999999999964,1421.0,-110.19999999999999,739.1,2025-01-29 10:33:16,0.0
2913.6000000000004,1194.8,206.39999999999964,1645.0,714.8,197.1,2025-01-29 10:33:16,0.0
2577.6000000000004,1562.8,114.39999999999964,1784.0,1293.8,-273.9,2025-01-29 10:33:16,0.0
2057.6000000000004,1882.8,-317.60000000000036,1899.0,1612.8,-632.9,2025-01-29 10:33:16,0.0
649.6000000000004,778.8,-485.60000000000036,2507.0,-459.2,-618.9,2025-01-29 10:33:16,0.0
369.60000000000036,930.8,46.399999999999636,2855.0,299.8,-399.9,2025-01-29 10:33:16,0.0
-286.39999999999964,798.8,650.3999999999996,3467.0,1237.8,-40.900000000000006,2025-01-29 10:33:16,0.0
-442.39999999999964,218.8,10.399999999999636,4065.0,1484.8,211.1,2025-01-29 10:33:16,0.0
-342.39999999999964,-5.199999999999989,-1129.6000000000004,4534.0,726.8,-6.900000000000006,2025-01-29 10:33:16,0.0
-790.3999999999996,198.8,-1849.6000000000004,5006.0,-239.2,2.0999999999999943,2025-01-29 10:33:16,0.0
-1966.3999999999996,286.8,-765.6000000000004,5381.0,-343.2,587.1,2025-01-29 10:33:16,0.0
-3786.3999999999996,714.8,754.3999999999996,5569.0,497.8,1553.1,2025-01-29 10:33:17,0.0
-4938.4,918.8,282.39999999999964,5098.0,1378.8,2713.1,2025-01-29 10:33:17,0.0
-5094.4,1018.8,-605.6000000000004,4038.0,1099.8,3409.1,2025-01-29 10:33:17,0.0
-4950.4,1626.8,-1597.6000000000004,3249.0,-441.2,3836.1,2025-01-29 10:33:17,0.0
-4266.4,3034.8,-2309.6000000000004,2577.0,-2134.2,4039.1,2025-01-29 10:33:17,0.0
-2946.3999999999996,4594.8,-2557.6000000000004,1580.0,-3371.2,3878.1,2025-01-29 10:33:17,0.0
-446.39999999999964,4842.8,-3109.6000000000004,100.0,-4020.2,2757.1,2025-01-29 10:33:17,0.0
1349.6000000000004,3626.8,-2717.6000000000004,-995.0,-3965.2,784.1,2025-01-29 10:33:17,0.0
1489.6000000000004,2378.8,-3249.6000000000004,-1125.0,-3996.2,-448.9,2025-01-29 10:33:17,0.0
2005.6000000000004,-481.2,-3517.6000000000004,-1413.0,-4351.2,-489.9,2025-01-29 10:33:17,0.0
3269.6000000000004,-3137.2,-1509.6000000000004,-972.0,-4528.2,-593.9,2025-01-29 10:33:17,0.0
4021.6000000000004,-4457.2,130.39999999999964,279.0,-3709.2,-710.9,2025-01-29 10:33:17,0.0
4641.6,-4541.2,-185.60000000000036,1614.0,-1748.2,-655.9,2025-01-29 10:33:17,0.0
4773.6,-4157.2,-229.60000000000036,2486.0,584.8,-440.9,2025-01-29 10:33:17,0.0
4537.6,-2953.2,-1425.6000000000004,3418.0,3063.8,-230.9,2025-01-29 10:33:17,0.0
3797.6000000000004,-297.2,-2705.6000000000004,3930.0,5618.8,-235.9,2025-01-29 10:33:17,0.0
2665.6000000000004,1694.8,-3589.6000000000004,3136.0,7327.8,-850.9,2025-01-29 10:33:17,0.0
733.6000000000004,2474.8,-2861.6000000000004,2021.0,7004.8,-1695.9,2025-01-29 10:33:17,0.0
-570.3999999999996,1894.8,-2477.6000000000004,1281.0,4631.8,-2364.9,2025-01-29 10:33:17,0.0
-974.3999999999996,210.8,-2441.6000000000004,887.0,948.8,-2929.9,2025-01-29 10:33:17,0.0
-238.39999999999964,-1349.2,-3137.6000000000004,707.0,-1784.2,-3318.9,2025-01-29 10:33:17,0.0
565.6000000000004,-2181.2,-2761.6000000000004,720.0,-3132.2,-3429.9,2025-01-29 10:33:17,0.0
1313.6000000000004,-2429.2,-1977.6000000000004,707.0,-3230.2,-3117.9,2025-01-29 10:33:17,0.0
2157.6000000000004,-2373.2,-573.6000000000004,755.0,-2584.2,-2616.9,2025-01-29 10:33:17,0.0
3565.6000000000004,-2033.2,-365.60000000000036,759.0,-1613.2,-2513.9,2025-01-29 10:33:17,0.0
3881.6000000000004,-1281.2,-113.60000000000036,761.0,18.80000000000001,-2788.9,2025-01-29 10:33:17,0.0
3577.6000000000004,-1057.2,-657.6000000000004,639.0,1985.8,-3016.9,2025-01-29 10:33:17,0.0
2301.6000000000004,-661.2,-1237.6000000000004,124.0,3979.8,-3168.9,2025-01-29 10:33:17,0.0
853.6000000000004,-873.2,-1349.6000000000004,-428.0,4472.8,-3365.9,2025-01-29 10:33:17,0.0
141.60000000000036,-1069.2,-1397.6000000000004,-769.0,3077.8,-3343.9,2025-01-29 10:33:17,0.0
-54.399999999999636,-1745.2,-1973.6000000000004,-1053.0,1019.8,-3307.9,2025-01-29 10:33:17,0.0
-398.39999999999964,-2501.2,-1565.6000000000004,-1272.0,-522.2,-2934.9,2025-01-29 10:33:17,0.0
1341.6000000000004,-2773.2,-1973.6000000000004,-1408.0,-1331.2,-2128.9,2025-01-29 10:33:17,0.0
1581.6000000000004,-2333.2,-417.60000000000036,-1650.0,-1154.2,-1670.9,2025-01-29 10:33:17,0.0
1933.6000000000004,-1953.2,-49.600000000000364,-1856.0,-489.2,-1353.9,2025-01-29 10:33:17,0.0
2481.6000000000004,-1301.2,-757.6000000000004,-2278.0,489.8,-1060.9,2025-01-29 10:33:17,0.0
2557.6000000000004,-1233.2,-893.6000000000004,-2891.0,1650.8,-995.9,2025-01-29 10:33:17,0.0
2137.6000000000004,-1545.2,-561.6000000000004,-3184.0,2519.8,-1030.9,2025-01-29 10:33:17,0.0
621.6000000000004,-1941.2,50.399999999999636,-3351.0,2979.8,-934.9,2025-01-29 10:33:17,0.0
1577.6000000000004,-1841.2,-1121.6000000000004,-3554.0,2739.8,-1036.9,2025-01-29 10:33:17,0.0
1581.6000000000004,-1673.2,-1281.6000000000004,-3889.0,2679.8,-1240.9,2025-01-29 10:33:17,0.0
893.6000000000004,-1317.2,-1973.6000000000004,-4341.0,3128.8,-1364.9,2025-01-29 10:33:17,0.0
45.600000000000364,-1385.2,-2193.6000000000004,-4893.0,3321.8,-1182.9,2025-01-29 10:33:17,0.0
-446.39999999999964,-1629.2,-1737.6000000000004,-5121.0,3055.8,-916.9,2025-01-29 10:33:17,0.0
-850.3999999999996,-2089.2,-1741.6000000000004,-5112.0,2279.8,-932.9,2025-01-29 10:33:17,0.0
-998.3999999999996,-2097.2,-1641.6000000000004,-4979.0,831.8,-1260.9,2025-01-29 10:33:17,
-922.3999999999996,-1925.2,-785.6000000000004,-4775.0,-375.2,-1853.9,2025-01-29 10:33:17,0.0
-922.3999999999996,-1373.2,-289.60000000000036,-4744.0,-1060.2,-2791.9,2025-01-29 10:33:17,0.0
-1774.3999999999996,-785.2,38.399999999999636,-5331.0,-1751.2,-3033.9,2025-01-29 10:33:17,0.0
-1614.3999999999996,-689.2,-1861.6000000000004,-5400.0,-1905.2,-2641.9,2025-01-29 10:33:17,0.0
-1362.3999999999996,-2125.2,-3453.6000000000004,-5350.0,-67.19999999999999,-2306.9,2025-01-29 10:33:17,0.0
-1226.3999999999996,-4601.2,-4233.6,-4445.0,1857.8,-2999.9,2025-01-29 10:33:17,0.0
-2506.3999999999996,-6197.2,-3793.6000000000004,-2171.0,2109.8,-3597.9,2025-01-29 10:33:17,0.0
-4554.4,-6641.2,-4045.6000000000004,-16.0,190.8,-2433.9,2025-01-29 10:33:17,0.0
-4166.4,-6237.2,-4629.6,1138.0,-2748.2,-200.9,2025-01-29 10:33:17,0.0
69.60000000000036,-3725.2,-4641.6,2002.0,-5145.2,820.1,2025-01-29 10:33:17,0.0
2425.6000000000004,-917.2,-4465.6,1918.0,-6035.2,475.1,2025-01-29 10:33:17,0.0
3077.6000000000004,2694.8,-3933.6000000000004,309.0,-5803.2,793.1,2025-01-29 10:33:17,0.0
3901.6000000000004,4882.8,-4549.6,-1805.0,-5040.2,2026.1,2025-01-29 10:33:17,0.0
5249.6,5138.8,-4221.6,-4119.0,-3196.2,3053.1,2025-01-29 10:33:17,0.0
6929.6,3458.8,-3017.6000000000004,-4929.0,-579.2,2343.1,2025-01-29 10:33:17,0.0
5657.6,206.8,-1773.6000000000004,-4838.0,2399.8,486.1,2025-01-29 10:33:17,0.0
2693.6000000000004,-2357.2,-449.60000000000036,-3860.0,4358.8,-309.9,2025-01-29 10:33:17,0.0
-90.39999999999964,-3105.2,-829.6000000000004,-2511.0,5104.8,-172.9,2025-01-29 10:33:18,0.0
-1822.3999999999996,-2345.2,-1917.6000000000004,-1614.0,3861.8,497.1,2025-01-29 10:33:18,0.0
-2174.3999999999996,-69.19999999999999,-4085.6000000000004,-1241.0,-661.2,1705.1,2025-01-29 10:33:18,0.0
-826.3999999999996,1254.8,-4169.6,-1459.0,-3917.2,2439.1,2025-01-29 10:33:18,0.0
1341.6000000000004,1494.8,-3193.6000000000004,-1498.0,-5460.2,2470.1,2025-01-29 10:33:18,0.0
2965.6000000000004,838.8,-1841.6000000000004,-1335.0,-5455.2,2173.1,2025-01-29 10:33:18,0.0
4517.6,686.8,-1021.6000000000004,-969.0,-4444.2,2048.1,2025-01-29 10:33:18,0.0
4613.6,458.8,-485.60000000000036,-655.0,-2580.2,1883.1,2025-01-29 10:33:18,0.0
5077.6,414.8,-505.60000000000036,-253.0,63.80000000000001,1692.1,2025-01-29 10:33:18,0.0
4649.6,798.8,-669.6000000000004,192.0,2373.8,1365.1,2025-01-29 10:33:18,0.0
3001.6000000000004,1334.8,-1037.6000000000004,497.0,3396.8,1143.1,2025-01-29 10:33:18,0.0
1349.6000000000004,1574.8,-1393.6000000000004,551.0,2785.8,1319.1,2025-01-29 10:33:18,0.0
1133.6000000000004,1822.8,-1329.6000000000004,565.0,1633.8,1375.1,2025-01-29 10:33:18,0.0
1289.6000000000004,1866.8,-1101.6000000000004,691.0,395.8,1040.1,2025-01-29 10:33:18,0.0
1881.6000000000004,1658.8,-825.6000000000004,895.0,-892.2,275.1,2025-01-29 10:33:18,0.0
2041.6000000000004,1086.8,-361.60000000000036,915.0,-1042.2,-17.900000000000006,2025-01-29 10:33:18,0.0
2037.6000000000004,530.8,-41.600000000000364,1076.0,-443.2,90.1,2025-01-29 10:33:18,0.0
2137.6000000000004,38.80000000000001,342.39999999999964,1353.0,697.8,266.1,2025-01-29 10:33:18,0.0
1425.6000000000004,186.8,258.39999999999964,1819.0,1609.8,380.1,2025-01-29 10:33:18,0.0
745.6000000000004,566.8,-313.60000000000036,2203.0,1825.8,420.1,2025-01-29 10:33:18,0.0
-290.39999999999964,858.8,-757.6000000000004,2394.0,1549.8,552.1,2025-01-29 10:33:18,0.0
-1010.3999999999996,1246.8,-645.6000000000004,2549.0,671.8,759.1,2025-01-29 10:33:18,0.0
-1062.3999999999996,1406.8,-577.6000000000004,2653.0,-799.2,1007.1,2025-01-29 10:33:18,0.0
-674.3999999999996,946.8,-137.60000000000036,2760.0,-2038.2,1102.1,2025-01-29 10:33:18,0.0
-2.399999999999636,362.8,206.39999999999964,3213.0,-2724.2,1133.1,2025-01-29 10:33:18,0.0
601.6000000000004,146.8,-193.60000000000036,3618.0,-2569.2,1195.1,2025-01-29 10:33:18,0.0
945.6000000000004,314.8,-205.60000000000036,3897.0,-1331.2,1353.1,2025-01-29 10:33:18,0.0
813.6000000000004,918.8,174.39999999999964,4234.0,618.8,1443.1,2025-01-29 10:33:18,0.0
57.600000000000364,1194.8,902.3999999999996,4414.0,2322.8,1527.1,2025-01-29 10:33:18,0.0
-1034.3999999999996,1038.8,1298.3999999999996,4723.0,2936.8,1621.1,2025-01-29 10:33:18,0.0
-1922.3999999999996,182.8,-253.60000000000036,4910.0,2666.8,1784.1,2025-01-29 10:33:18,0.0
-2566.3999999999996,422.8,-2873.6000000000004,4730.0,3046.8,2272.1,2025-01-29 10:33:18,0.0
-2310.3999999999996,1870.8,-5657.6,4109.0,3235.8,2768.1,2025-01-29 10:33:18,0.0
-1730.3999999999996,3114.8,-7561.6,2582.0,2465.8,2534.1,2025-01-29 10:33:18,0.0
-1426.3999999999996,3458.8,-7589.6,1172.0,1291.8,1789.1,2025-01-29 10:33:18,0.0
-1374.3999999999996,3074.8,-7765.6,164.0,-47.19999999999999,936.1,2025-01-29 10:33:18,0.0
-554.3999999999996,1958.8,-6933.6,-728.0,-1607.2,844.1,2025-01-29 10:33:18,0.0
1525.6000000000004,454.8,-4569.6,-452.0,-3210.2,1007.1,2025-01-29 10:33:18,0.0
4041.6000000000004,-909.2,-2989.6000000000004,359.0,-4336.2,717.1,2025-01-29 10:33:18,0.0
5425.6,-3101.2,-1205.6000000000004,1345.0,-4622.2,28.099999999999994,2025-01-29 10:33:18,0.0
5697.6,-4845.2,26.399999999999636,2881.0,-3349.2,-193.9,2025-01-29 10:33:18,0.0
5173.6,-4773.2,-701.6000000000004,4169.0,-652.2,336.1,2025-01-29 10:33:18,0.0
4885.6,-2461.2,-2869.6000000000004,4719.0,2293.8,671.1,2025-01-29 10:33:18,0.0
4001.6000000000004,-589.2,-4045.6000000000004,4192.0,4057.8,280.1,2025-01-29 10:33:18,0.0
1909.6000000000004,682.8,-4385.6,3271.0,4922.8,-139.9,2025-01-29 10:33:18,0.0
349.60000000000036,738.8,-3845.6000000000004,2179.0,4728.8,-639.9,2025-01-29 10:33:18,0.0
-298.39999999999964,-157.2,-3433.6000000000004,1626.0,2323.8,-1355.9,2025-01-29 10:33:18,0.0
-482.39999999999964,-629.2,-3289.6000000000004,1435.0,-1508.2,-1994.9,2025-01-29 10:33:18,0.0
-454.39999999999964,-885.2,-3265.6000000000004,984.0,-4021.2,-2081.9,2025-01-29 10:33:18,0.0
1301.6000000000004,-921.2,-2133.6000000000004,582.0,-5068.2,-2139.9,2025-01-29 10:33:18,0.0
3373.6000000000004,-777.2,-1657.6000000000004,160.0,-5172.2,-2699.9,2025-01-29 10:33:18,0.0
4589.6,-713.2,-1677.6000000000004,-314.0,-4096.2,-3152.9,2025-01-29 10:33:18,0.0
5029.6,-865.2,-1849.6000000000004,-844.0,-1832.2,-3485.9,2025-01-29 10:33:18,0.0
4997.6,-1173.2,-1793.6000000000004,-1446.0,830.8,-3863.9,2025-01-29 10:33:18,0.0
3969.6000000000004,-1581.2,-1417.6000000000004,-1886.0,2991.8,-4147.9,2025-01-29 10:33:18,0.0
2601.6000000000004,-1761.2,-1413.6000000000004,-2096.0,3833.8,-4178.9,2025-01-29 10:33:19,0.0
1585.6000000000004,-1973.2,-1729.6000000000004,-2189.0,3563.8,-4071.9,2025-01-29 10:33:19,0.0
777.6000000000004,-2257.2,-1905.6000000000004,-2382.0,2744.8,-3776.9,2025-01-29 10:33:19,0.0
317.60000000000036,-2701.2,-1717.6000000000004,-2637.0,1777.8,-3452.9,2025-01-29 10:33:19,0.0
181.60000000000036,-2909.2,-1677.6000000000004,-2683.0,1039.8,-2966.9,2025-01-29 10:33:19,0.0
417.60000000000036,-2889.2,-1465.6000000000004,-2597.0,264.8,-2366.9,2025-01-29 10:33:19,0.0
1017.6000000000004,-2773.2,-1197.6000000000004,-2400.0,-222.2,-1798.9,2025-01-29 10:33:19,0.0
1661.6000000000004,-2549.2,-1249.6000000000004,-2259.0,17.80000000000001,-1511.9,2025-01-29 10:33:19,0.0
1657.6000000000004,-2377.2,-1141.6000000000004,-2166.0,356.8,-1243.9,2025-01-29 10:33:19,0.0
385.60000000000036,-2013.2,-1421.6000000000004,-3913.0,-299.2,-1608.9,2025-01-29 10:33:19,0.0
93.60000000000036,-2201.2,-989.6000000000004,-4026.0,-217.2,-2046.9,2025-01-29 10:33:19,0.0
-586.3999999999996,-2017.2,-613.6000000000004,-4449.0,134.8,-2048.9,2025-01-29 10:33:19,0.0
-650.3999999999996,-1893.2,-445.60000000000036,-4688.0,365.8,-1876.9,2025-01-29 10:33:19,0.0
-614.3999999999996,-1517.2,-2617.6000000000004,-4307.0,999.8,-2121.9,2025-01-29 10:33:19,0.0
-1006.3999999999996,-2745.2,-3737.6000000000004,-3944.0,2340.8,-2660.9,2025-01-29 10:33:19,0.0
-1994.3999999999996,-5233.2,-3165.6000000000004,-2434.0,3043.8,-3355.9,2025-01-29 10:33:19,0.0
-3798.3999999999996,-6881.2,-3629.6000000000004,-350.0,1161.8,-2585.9,2025-01-29 10:33:19,0.0
-4922.4,-6761.2,-4281.6,846.0,-1423.2,-488.9,2025-01-29 10:33:19,0.0
-3082.3999999999996,-5057.2,-4601.6,1622.0,-3815.2,1455.1,2025-01-29 10:33:19,0.0
-534.3999999999996,-3277.2,-5201.6,2125.0,-5240.2,1644.1,2025-01-29 10:33:19,0.0
629.6000000000004,-1433.2,-5233.6,1650.0,-6343.2,1709.1,2025-01-29 10:33:19,0.0
1801.6000000000004,70.80000000000001,-4841.6,425.0,-7289.2,2863.1,2025-01-29 10:33:19,0.0
4485.6,578.8,-4293.6,-799.0,-7302.2,3859.1,2025-01-29 10:33:19,0.0
7141.6,1502.8,-4053.6000000000004,-1589.0,-5944.2,3721.1,2025-01-29 10:33:19,0.0
8453.6,2054.8,-3405.6000000000004,-1940.0,-2859.2,2437.1,2025-01-29 10:33:19,0.0
7741.6,1578.8,-2413.6000000000004,-1634.0,2380.8,298.1,2025-01-29 10:33:19,0.0
5061.6,1002.8,-2509.6000000000004,-1424.0,5804.8,-475.9,2025-01-29 10:33:19,0.0
2625.6000000000004,434.8,-3129.6000000000004,-1341.0,7276.8,-260.9,2025-01-29 10:33:19,
489.60000000000036,38.80000000000001,-3525.6000000000004,-1446.0,7219.8,-0.9000000000000057,2025-01-29 10:33:19,0.0
-1006.3999999999996,-309.2,-3193.6000000000004,-1385.0,5696.8,401.1,2025-01-29 10:33:19,0.0
-1750.3999999999996,-833.2,-3281.6000000000004,-1136.0,2836.8,1043.1,2025-01-29 10:33:19,0.0
-1966.3999999999996,-953.2,-3421.6000000000004,-844.0,-513.2,1973.1,2025-01-29 10:33:19,0.0
-550.3999999999996,-1049.2,-3141.6000000000004,-431.0,-2806.2,2920.1,2025-01-29 10:33:19,0.0
1281.6000000000004,-949.2,-2289.6000000000004,-69.0,-3847.2,3450.1,2025-01-29 10:33:19,0.0
2481.6000000000004,-597.2,-1701.6000000000004,341.0,-3937.2,3809.1,2025-01-29 10:33:19,0.0
3545.6000000000004,-497.2,-1313.6000000000004,834.0,-3068.2,3967.1,2025-01-29 10:33:19,0.0
3913.6000000000004,-145.2,-205.60000000000036,1531.0,-1134.2,3962.1,2025-01-29 10:33:19,0.0
3953.6000000000004,442.8,-113.60000000000036,2178.0,925.8,3654.1,2025-01-29 10:33:19,0.0
2865.6000000000004,810.8,-777.6000000000004,2549.0,2402.8,3366.1,2025-01-29 10:33:19,0.0
2025.6000000000004,1102.8,-1317.6000000000004,2696.0,2772.8,3315.1,2025-01-29 10:33:19,0.0
1533.6000000000004,1114.8,-1341.6000000000004,2841.0,2345.8,3153.1,2025-01-29 10:33:19,0.0
1605.6000000000004,1154.8,-1873.6000000000004,2924.0,1313.8,2831.1,2025-01-29 10:33:19,0.0
1841.6000000000004,1342.8,-1809.6000000000004,2992.0,415.8,2409.1,2025-01-29 10:33:19,0.0
2021.6000000000004,1326.8,-1177.6000000000004,3074.0,-80.19999999999999,2124.1,2025-01-29 10:33:19,0.0
2077.6000000000004,1290.8,-1153.6000000000004,3169.0,-124.19999999999999,1778.1,2025-01-29 10:33:19,0.0
2193.6000000000004,1018.8,-1169.6000000000004,3298.0,128.8,1435.1,2025-01-29 10:33:19,0.0
1561.6000000000004,762.8,-1669.6000000000004,3477.0,391.8,1322.1,2025-01-29 10:33:19,0.0
873.6000000000004,1266.8,-1561.6000000000004,3593.0,281.8,1227.1,2025-01-29 10:33:19,0.0
337.60000000000036,1578.8,-1621.6000000000004,3538.0,2.8000000000000114,1301.1,2025-01-29 10:33:19,0.0
-46.399999999999636,1430.8,-1473.6000000000004,3513.0,-507.2,1492.1,2025-01-29 10:33:19,0.0
-454.39999999999964,1254.8,-613.6000000000004,3480.0,-1248.2,1781.1,2025-01-29 10:33:19,0.0
-206.39999999999964,798.8,-513.6000000000004,3629.0,-1982.2,1883.1,2025-01-29 10:33:19,0.0
585.6000000000004,774.8,-681.6000000000004,3917.0,-2382.2,1932.1,2025-01-29 10:33:19,0.0
733.6000000000004,854.8,-657.6000000000004,4205.0,-2260.2,1997.1,2025-01-29 10:33:19,0.0
1017.6000000000004,986.8,-677.6000000000004,4376.0,-1723.2,2022.1,2025-01-29 10:33:19,0.0
1045.6000000000004,1218.8,-1169.6000000000004,4434.0,-1325.2,1884.1,2025-01-29 10:33:19,0.0
697.6000000000004,1426.8,-1137.6000000000004,4460.0,-1027.2,1656.1,2025-01-29 10:33:20,0.0
17.600000000000364,1238.8,-521.6000000000004,4795.0,-880.2,1448.1,2025-01-29 10:33:20,0.0
-746.3999999999996,818.8,310.39999999999964,5279.0,-904.2,1371.1,2025-01-29 10:33:20,0.0
-1150.3999999999996,98.80000000000001,-1.6000000000003638,5429.0,-1222.2,1457.1,2025-01-29 10:33:20,0.0
-846.3999999999996,-413.2,-1189.6000000000004,5586.0,-1402.2,1488.1,2025-01-29 10:33:20,0.0
-990.3999999999996,-157.2,-3021.6000000000004,5410.0,-690.2,1809.1,2025-01-29 10:33:20,0.0
-1102.3999999999996,1430.8,-4509.6,4854.0,1095.8,2437.1,2025-01-29 10:33:20,0.0
-850.3999999999996,2634.8,-5561.6,3895.0,2090.8,2425.1,2025-01-29 10:33:20,0.0
-498.39999999999964,2638.8,-4865.6,2840.0,1233.8,1816.1,2025-01-29 10:33:20,0.0
-966.3999999999996,2050.8,-3653.6000000000004,2415.0,-450.2,1089.1,2025-01-29 10:33:20,0.0
-758.3999999999996,990.8,-3353.6000000000004,2074.0,-1959.2,948.1,2025-01-29 10:33:20,0.0
533.6000000000004,146.8,-3157.6000000000004,1914.0,-2831.2,805.1,2025-01-29 10:33:20,0.0
2273.6000000000004,-1009.2,-2477.6000000000004,2092.0,-3351.2,475.1,2025-01-29 10:33:20,0.0
3641.6000000000004,-1797.2,-1837.6000000000004,2531.0,-3132.2,-112.9,2025-01-29 10:33:20,0.0
4497.6,-2257.2,-2421.6000000000004,3126.0,-2205.2,-587.9,2025-01-29 10:33:20,0.0
4621.6,-2797.2,-2509.6000000000004,3464.0,-1082.2,-677.9,2025-01-29 10:33:20,0.0
3889.6000000000004,-2753.2,-1785.6000000000004,3627.0,62.80000000000001,-474.9,2025-01-29 10:33:20,0.0
2857.6000000000004,-2097.2,-1745.6000000000004,3882.0,1434.8,230.1,2025-01-29 10:33:20,0.0
2369.6000000000004,-2257.2,-2409.6000000000004,3586.0,2432.8,657.1,2025-01-29 10:33:20,0.0
1877.6000000000004,-2941.2,-2941.6000000000004,3385.0,2490.8,438.1,2025-01-29 10:33:20,0.0
253.60000000000036,-3461.2,-3097.6000000000004,3337.0,2181.8,263.1,2025-01-29 10:33:20,0.0
-766.3999999999996,-3221.2,-3041.6000000000004,3416.0,926.8,525.1,2025-01-29 10:33:20,0.0
-418.39999999999964,-2477.2,-2821.6000000000004,3555.0,-750.2,519.1,2025-01-29 10:33:20,0.0
257.60000000000036,-1581.2,-2925.6000000000004,3733.0,-2176.2,-155.9,2025-01-29 10:33:20,0.0
689.6000000000004,-877.2,-2925.6000000000004,3564.0,-3342.2,-716.9,2025-01-29 10:33:20,0.0
1581.6000000000004,-797.2,-2361.6000000000004,3213.0,-3989.2,-912.9,2025-01-29 10:33:20,0.0
2613.6000000000004,-769.2,-2241.6000000000004,2731.0,-3926.2,-1276.9,2025-01-29 10:33:20,0.0
3189.6000000000004,-1273.2,-2261.6000000000004,2112.0,-2584.2,-1733.9,2025-01-29 10:33:20,0.0
3049.6000000000004,-1881.2,-2057.6000000000004,1599.0,-1469.2,-1955.9,2025-01-29 10:33:20,0.0
2477.6000000000004,-2477.2,-1621.6000000000004,1195.0,-798.2,-1901.9,2025-01-29 10:33:20,0.0
1869.6000000000004,-2869.2,-1201.6000000000004,1023.0,-511.2,-1632.9,2025-01-29 10:33:20,0.0
1581.6000000000004,-3197.2,-1133.6000000000004,876.0,-434.2,-1388.9,2025-01-29 10:33:20,0.0
997.6000000000004,-3317.2,-1305.6000000000004,772.0,-225.2,-1001.9,2025-01-29 10:33:20,0.0
541.6000000000004,-3153.2,-1857.6000000000004,636.0,-184.2,-482.9,2025-01-29 10:33:20,0.0
549.6000000000004,-2649.2,-1941.6000000000004,540.0,-472.2,-104.9,2025-01-29 10:33:20,0.0
989.6000000000004,-1953.2,-1949.6000000000004,358.0,-697.2,79.1,2025-01-29 10:33:20,0.0
1197.6000000000004,-1557.2,-2065.6000000000004,8.0,-886.2,133.1,2025-01-29 10:33:20,0.0
1429.6000000000004,-1597.2,-1829.6000000000004,-450.0,-825.2,170.1,2025-01-29 10:33:20,0.0
1373.6000000000004,-2013.2,-1501.6000000000004,-677.0,-911.2,151.1,2025-01-29 10:33:20,0.0
1413.6000000000004,-2037.2,-1261.6000000000004,-745.0,-953.2,41.099999999999994,2025-01-29 10:33:20,0.0
1297.6000000000004,-2077.2,-961.6000000000004,-739.0,-921.2,25.099999999999994,2025-01-29 10:33:20,0.0
1489.6000000000004,-2037.2,-685.6000000000004,-927.0,-757.2,136.1,2025-01-29 10:33:20,0.0
2009.6000000000004,-1937.2,-505.60000000000036,-1226.0,-489.2,166.1,2025-01-29 10:33:20,0.0
2121.6000000000004,-2421.2,-761.6000000000004,-1451.0,269.8,-28.900000000000006,2025-01-29 10:33:20,0.0
1561.6000000000004,-2841.2,-841.6000000000004,-1509.0,1506.8,-51.900000000000006,2025-01-29 10:33:20,0.0
633.6000000000004,-2629.2,-1365.6000000000004,-1662.0,2626.8,-12.900000000000006,2025-01-29 10:33:20,0.0
377.60000000000036,-2233.2,-1665.6000000000004,-1886.0,2854.8,-14.900000000000006,2025-01-29 10:33:20,0.0
593.6000000000004,-2097.2,-1549.6000000000004,-2058.0,2084.8,-412.9,2025-01-29 10:33:20,0.0
541.6000000000004,-1529.2,-1597.6000000000004,-2152.0,1168.8,-768.9,2025-01-29 10:33:20,0.0
845.6000000000004,-1001.2,-1633.6000000000004,-2547.0,958.8,-925.9,2025-01-29 10:33:20,0.0
933.6000000000004,-701.2,-1521.6000000000004,-3268.0,918.8,-1229.9,2025-01-29 10:33:20,0.0
997.6000000000004,-1501.2,-1165.6000000000004,-3935.0,1172.8,-1565.9,2025-01-29 10:33:20,0.0
801.6000000000004,-2025.2,-1061.6000000000004,-4274.0,1294.8,-1682.9,2025-01-29 10:33:20,0.0
1177.6000000000004,-1965.2,-1121.6000000000004,-4468.0,1449.8,-1741.9,2025-01-29 10:33:20,0.0
1085.6000000000004,-1797.2,-837.6000000000004,-4624.0,1666.8,-1904.9,2025-01-29 10:33:20,0.0
765.6000000000004,-2113.2,-513.6000000000004,-4780.0,1474.8,-1871.9,2025-01-29 10:33:20,0.0
949.6000000000004,-2885.2,-285.60000000000036,-4588.0,1344.8,-1590.9,2025-01-29 10:33:20,0.0
1349.6000000000004,-3321.2,-445.60000000000036,-4182.0,2299.8,-1499.9,2025-01-29 10:33:21,0.0
1037.6000000000004,-3185.2,-1533.6000000000004,-3758.0,3144.8,-1646.9,2025-01-29 10:33:21,0.0
-70.39999999999964,-2921.2,-2505.6000000000004,-3511.0,3899.8,-1374.9,2025-01-29 10:33:21,0.0
-426.39999999999964,-3009.2,-3481.6000000000004,-3427.0,3259.8,-732.9,2025-01-29 10:33:21,0.0
-810.3999999999996,-3021.2,-3197.6000000000004,-3112.0,1539.8,51.099999999999994,2025-01-29 10:33:21,0.0
-166.39999999999964,-2801.2,-2781.6000000000004,-2314.0,-327.2,683.1,2025-01-29 10:33:21,0.0
1557.6000000000004,-1601.2,-3357.6000000000004,-1381.0,-1577.2,710.1,2025-01-29 10:33:21,0.0
1761.6000000000004,-1085.2,-3353.6000000000004,-635.0,-895.2,636.1,2025-01-29 10:33:21,0.0
1025.6000000000004,-1213.2,-3017.6000000000004,-236.0,202.8,768.1,2025-01-29 10:33:21,0.0
-414.39999999999964,-1529.2,-2865.6000000000004,-77.0,1189.8,1227.1,2025-01-29 10:33:21,0.0
-1598.3999999999996,-1277.2,-2345.6000000000004,-95.0,864.8,2028.1,2025-01-29 10:33:21,0.0
-566.3999999999996,-101.19999999999999,-3401.6000000000004,-449.0,-870.2,2874.1,2025-01-29 10:33:21,0.0
1153.6000000000004,1522.8,-3585.6000000000004,-1208.0,-2081.2,3148.1,2025-01-29 10:33:21,0.0
2153.6000000000004,2810.8,-2289.6000000000004,-1724.0,-1934.2,3278.1,2025-01-29 10:33:21,0.0
4225.6,3014.8,-1621.6000000000004,-2035.0,-459.2,2131.1,2025-01-29 10:33:21,
3365.6000000000004,2102.8,-637.6000000000004,-1742.0,1447.8,577.1,2025-01-29 10:33:21,0.0
1197.6000000000004,626.8,-1061.6000000000004,-1207.0,2925.8,509.1,2025-01-29 10:33:21,0.0
357.60000000000036,-109.19999999999999,-3517.6000000000004,-1198.0,2992.8,754.1,2025-01-29 10:33:21,0.0
-406.39999999999964,126.80000000000001,-4417.6,-1550.0,2325.8,1000.1,2025-01-29 10:33:21,0.0
681.6000000000004,1422.8,-4741.6,-2027.0,-255.2,1358.1,2025-01-29 10:33:21,0.0
2433.6000000000004,2306.8,-3857.6000000000004,-2399.0,-2186.2,796.1,2025-01-29 10:33:21,0.0
3769.6000000000004,2186.8,-2973.6000000000004,-2643.0,-2598.2,211.1,2025-01-29 10:33:21,0.0
4709.6,1306.8,-1937.6000000000004,-2562.0,-1877.2,-212.9,2025-01-29 10:33:21,0.0
5397.6,594.8,-1341.6000000000004,-2077.0,-153.2,-768.9,2025-01-29 10:33:21,0.0
5225.6,-181.2,-1505.6000000000004,-1384.0,1809.8,-1333.9,2025-01-29 10:33:21,0.0
4073.6000000000004,-329.2,-1417.6000000000004,-575.0,3150.8,-1781.9,2025-01-29 10:33:21,0.0
2613.6000000000004,-53.19999999999999,-1793.6000000000004,129.0,3212.8,-2263.9,2025-01-29 10:33:21,0.0
-782.3999999999996,-105.19999999999999,-2817.6000000000004,548.0,2546.8,-2413.9,2025-01-29 10:33:21,0.0
-2586.3999999999996,-937.2,-2573.6000000000004,968.0,1693.8,-1827.9,2025-01-29 10:33:21,0.0
-2774.3999999999996,-1773.2,-1261.6000000000004,1341.0,-951.2,-1521.9,2025-01-29 10:33:21,0.0
-1758.3999999999996,-2017.2,-133.60000000000036,2231.0,-4362.2,-1160.9,2025-01-29 10:33:21,0.0
457.60000000000036,-1709.2,-789.6000000000004,3419.0,-5611.2,-702.9,2025-01-29 10:33:21,0.0
2141.6000000000004,-641.2,-1993.6000000000004,3642.0,-4291.2,-173.9,2025-01-29 10:33:21,0.0
3429.6000000000004,730.8,-3133.6000000000004,3186.0,-1856.2,124.1,2025-01-29 10:33:21,0.0
3985.6000000000004,1650.8,-3933.6000000000004,2451.0,261.8,-6.900000000000006,2025-01-29 10:33:21,0.0
3437.6000000000004,1510.8,-4597.6,1201.0,1937.8,-548.9,2025-01-29 10:33:21,0.0
2269.6000000000004,1206.8,-3621.6000000000004,455.0,2454.8,-896.9,2025-01-29 10:33:21,0.0
1037.6000000000004,898.8,-2977.6000000000004,-52.0,1881.8,-1141.9,2025-01-29 10:33:21,0.0
245.60000000000036,678.8,-2977.6000000000004,-468.0,780.8,-1109.9,2025-01-29 10:33:21,0.0
129.60000000000036,202.8,-2821.6000000000004,-992.0,-284.2,-1020.9,2025-01-29 10:33:21,0.0
777.6000000000004,-557.2,-2709.6000000000004,-1404.0,-996.2,-1006.9,2025-01-29 10:33:21,0.0
1357.6000000000004,-1465.2,-2165.6000000000004,-1447.0,-1194.2,-1141.9,2025-01-29 10:33:21,0.0
1373.6000000000004,-2109.2,-1421.6000000000004,-1153.0,-871.2,-1141.9,2025-01-29 10:33:21,0.0
1037.6000000000004,-2241.2,-749.6000000000004,-636.0,-361.2,-928.9,2025-01-29 10:33:21,0.0
621.6000000000004,-1957.2,-1089.6000000000004,-47.0,119.80000000000001,-454.9,2025-01-29 10:33:21,0.0
689.6000000000004,-1409.2,-1493.6000000000004,387.0,366.8,5.099999999999994,2025-01-29 10:33:21,0.0
1057.6000000000004,-1385.2,-2225.6000000000004,525.0,162.8,20.099999999999994,2025-01-29 10:33:21,0.0
681.6000000000004,-1213.2,-1941.6000000000004,652.0,-166.2,49.099999999999994,2025-01-29 10:33:21,0.0
1073.6000000000004,-1181.2,-2041.6000000000004,725.0,-552.2,60.099999999999994,2025-01-29 10:33:21,0.0
1341.6000000000004,-1213.2,-1885.6000000000004,691.0,-654.2,8.099999999999994,2025-01-29 10:33:21,0.0
1489.6000000000004,-985.2,-2005.6000000000004,761.0,-313.2,7.099999999999994,2025-01-29 10:33:21,0.0
1589.6000000000004,-673.2,-2033.6000000000004,662.0,341.8,60.099999999999994,2025-01-29 10:33:21,0.0
1277.6000000000004,-721.2,-2073.6000000000004,531.0,933.8,41.099999999999994,2025-01-29 10:33:21,0.0
773.6000000000004,-789.2,-2201.6000000000004,426.0,793.8,20.099999999999994,2025-01-29 10:33:21,0.0
317.60000000000036,-1105.2,-2037.6000000000004,378.0,-13.199999999999989,56.099999999999994,2025-01-29 10:33:21,0.0
573.6000000000004,-1297.2,-1693.6000000000004,499.0,-739.2,203.1,2025-01-29 10:33:21,0.0
1289.6000000000004,-1205.2,-1937.6000000000004,488.0,-843.2,196.1,2025-01-29 10:33:21,0.0
1613.6000000000004,-1221.2,-1685.6000000000004,491.0,-401.2,141.1,2025-01-29 10:33:21,0.0
1621.6000000000004,-1053.2,-1769.6000000000004,563.0,201.8,145.1,2025-01-29 10:33:21,0.0
1273.6000000000004,-753.2,-2193.6000000000004,518.0,556.8,142.1,2025-01-29 10:33:21,0.0
945.6000000000004,-885.2,-1993.6000000000004,396.0,557.8,119.1,2025-01-29 10:33:21,0.0
797.6000000000004,-873.2,-1909.6000000000004,338.0,171.8,141.1,2025-01-29 10:33:21,0.0
797.6000000000004,-825.2,-1805.6000000000004,292.0,-265.2,145.1,2025-01-29 10:33:21,0.0
1065.6000000000004,-849.2,-1917.6000000000004,246.0,-443.2,89.1,2025-01-29 10:33:21,0.0
1261.6000000000004,-1077.2,-2017.6000000000004,213.0,-262.2,119.1,2025-01-29 10:33:22,0.0
1461.6000000000004,-1109.2,-2061.6000000000004,174.0,90.80000000000001,88.1,2025-01-29 10:33:22,0.0
1241.6000000000004,-1145.2,-1925.6000000000004,153.0,326.8,75.1,2025-01-29 10:33:22,0.0
1009.6000000000004,-1129.2,-1857.6000000000004,157.0,397.8,66.1,2025-01-29 10:33:22,0.0
937.6000000000004,-1081.2,-1953.6000000000004,204.0,124.80000000000001,75.1,2025-01-29 10:33:22,0.0
933.6000000000004,-989.2,-1761.6000000000004,180.0,-3.1999999999999886,78.1,2025-01-29 10:33:22,0.0
1165.6000000000004,-1021.2,-1677.6000000000004,146.0,-27.19999999999999,23.099999999999994,2025-01-29 10:33:22,0.0
1225.6000000000004,-1093.2,-1641.6000000000004,150.0,132.8,28.099999999999994,2025-01-29 10:33:22,0.0
1241.6000000000004,-881.2,-1725.6000000000004,153.0,405.8,50.099999999999994,2025-01-29 10:33:22,0.0
1129.6000000000004,-1009.2,-1865.6000000000004,104.0,559.8,79.1,2025-01-29 10:33:22,0.0
981.6000000000004,-1101.2,-1937.6000000000004,77.0,510.8,86.1,2025-01-29 10:33:22,0.0
805.6000000000004,-1037.2,-1969.6000000000004,87.0,317.8,84.1,2025-01-29 10:33:22,0.0
785.6000000000004,-1209.2,-2029.6000000000004,123.0,70.80000000000001,112.1,2025-01-29 10:33:22,0.0
965.6000000000004,-1045.2,-1957.6000000000004,192.0,22.80000000000001,201.1,2025-01-29 10:33:22,0.0
1273.6000000000004,-1089.2,-1989.6000000000004,196.0,-74.19999999999999,147.1,2025-01-29 10:33:22,0.0
961.6000000000004,-985.2,-1677.6000000000004,176.0,180.8,236.1,2025-01-29 10:33:22,0.0
1017.6000000000004,-841.2,-1777.6000000000004,109.0,145.8,197.1,2025-01-29 10:33:22,0.0
897.6000000000004,-945.2,-1965.6000000000004,107.0,49.80000000000001,189.1,2025-01-29 10:33:22,0.0
885.6000000000004,-893.2,-1945.6000000000004,91.0,-126.19999999999999,200.1,2025-01-29 10:33:22,0.0
925.6000000000004,-913.2,-1973.6000000000004,42.0,-316.2,141.1,2025-01-29 10:33:22,0.0
977.6000000000004,-945.2,-1929.6000000000004,-74.0,-412.2,62.099999999999994,2025-01-29 10:33:22,0.0
1149.6000000000004,-937.2,-1629.6000000000004,-44.0,-359.2,19.099999999999994,2025-01-29 10:33:22,0.0
1189.6000000000004,-929.2,-1493.6000000000004,36.0,-145.2,32.099999999999994,2025-01-29 10:33:22,0.0
1137.6000000000004,-1009.2,-1525.6000000000004,103.0,79.80000000000001,32.099999999999994,2025-01-29 10:33:22,0.0
1041.6000000000004,-909.2,-1525.6000000000004,155.0,269.8,18.099999999999994,2025-01-29 10:33:22,0.0
929.6000000000004,-733.2,-1677.6000000000004,200.0,282.8,35.099999999999994,2025-01-29 10:33:22,0.0
825.6000000000004,-737.2,-1629.6000000000004,224.0,244.8,77.1,2025-01-29 10:33:22,0.0
921.6000000000004,-749.2,-1721.6000000000004,239.0,149.8,97.1,2025-01-29 10:33:22,0.0
833.6000000000004,-661.2,-1765.6000000000004,312.0,38.80000000000001,162.1,2025-01-29 10:33:22,0.0
929.6000000000004,-589.2,-2185.6000000000004,249.0,-14.199999999999989,138.1,2025-01-29 10:33:22,0.0
933.6000000000004,-745.2,-2089.6000000000004,213.0,-57.19999999999999,166.1,2025-01-29 10:33:22,0.0
901.6000000000004,-645.2,-1897.6000000000004,216.0,-171.2,200.1,2025-01-29 10:33:22,0.0
929.6000000000004,-589.2,-1621.6000000000004,181.0,-272.2,193.1,2025-01-29 10:33:22,0.0
989.6000000000004,-641.2,-1817.6000000000004,184.0,-322.2,151.1,2025-01-29 10:33:22,0.0
1121.6000000000004,-897.2,-1817.6000000000004,118.0,-377.2,120.1,2025-01-29 10:33:22,0.0
1081.6000000000004,-837.2,-1649.6000000000004,157.0,-290.2,102.1,2025-01-29 10:33:22,0.0
1065.6000000000004,-737.2,-1657.6000000000004,145.0,-73.19999999999999,58.099999999999994,2025-01-29 10:33:22,0.0
993.6000000000004,-725.2,-1829.6000000000004,84.0,-93.19999999999999,29.099999999999994,2025-01-29 10:33:22,0.0
985.6000000000004,-873.2,-1885.6000000000004,57.0,-222.2,24.099999999999994,2025-01-29 10:33:22,0.0
1053.6000000000004,-893.2,-2029.6000000000004,78.0,-259.2,35.099999999999994,2025-01-29 10:33:22,0.0
1077.6000000000004,-1001.2,-1705.6000000000004,90.0,-127.19999999999999,14.099999999999994,2025-01-29 10:33:22,0.0
1149.6000000000004,-833.2,-1609.6000000000004,137.0,25.80000000000001,23.099999999999994,2025-01-29 10:33:22,0.0
1057.6000000000004,-857.2,-1565.6000000000004,152.0,165.8,31.099999999999994,2025-01-29 10:33:22,0.0
949.6000000000004,-929.2,-1665.6000000000004,142.0,191.8,42.099999999999994,2025-01-29 10:33:22,0.0
853.6000000000004,-829.2,-1761.6000000000004,62.0,62.80000000000001,56.099999999999994,2025-01-29 10:33:22,0.0
881.6000000000004,-825.2,-1857.6000000000004,-22.0,-114.19999999999999,25.099999999999994,2025-01-29 10:33:22,0.0
985.6000000000004,-817.2,-1825.6000000000004,-10.0,-212.2,56.099999999999994,2025-01-29 10:33:22,0.0
1153.6000000000004,-865.2,-1721.6000000000004,-3.0,-212.2,-6.900000000000006,2025-01-29 10:33:22,0.0
1153.6000000000004,-1057.2,-1785.6000000000004,5.0,-44.19999999999999,-16.900000000000006,2025-01-29 10:33:22,0.0
1113.6000000000004,-1069.2,-1669.6000000000004,26.0,59.80000000000001,3.0999999999999943,2025-01-29 10:33:22,0.0
1037.6000000000004,-1057.2,-1797.6000000000004,57.0,108.80000000000001,16.099999999999994,2025-01-29 10:33:22,
925.6000000000004,-929.2,-1721.6000000000004,93.0,118.80000000000001,60.099999999999994,2025-01-29 10:33:22,0.0
857.6000000000004,-873.2,-1701.6000000000004,68.0,41.80000000000001,31.099999999999994,2025-01-29 10:33:22,0.0
