acceleration_x,acceleration_y,acceleration_z,gyroscope_x,gyroscope_y,gyroscope_z,timestamp,label
90.0,-62.0,-22.399999999999636,-77.19999999999999,-16.299999999999997,4.399999999999977,2025-01-29 10:43:29,0.0
-22.0,-46.0,165.60000000000036,-23.19999999999999,80.7,-26.600000000000023,2025-01-29 10:43:29,0.0
-26.0,-14.0,-50.399999999999636,-27.19999999999999,38.7,-16.600000000000023,2025-01-29 10:43:29,0.0
-74.0,34.0,-110.39999999999964,-36.19999999999999,-62.3,9.399999999999977,2025-01-29 10:43:29,0.0
58.0,166.0,25.600000000000364,4.800000000000011,-62.3,14.399999999999977,2025-01-29 10:43:29,0.0
-14.0,70.0,-2.399999999999636,-39.19999999999999,-56.3,-22.600000000000023,2025-01-29 10:43:29,0.0
-30.0,-26.0,45.600000000000364,-7.199999999999989,-82.3,0.39999999999997726,2025-01-29 10:43:29,0.0
34.0,-38.0,-94.39999999999964,-8.199999999999989,-23.299999999999997,-13.600000000000023,2025-01-29 10:43:29,0.0
-18.0,-2.0,-58.399999999999636,69.80000000000001,61.7,19.399999999999977,2025-01-29 10:43:29,0.0
2.0,-82.0,101.60000000000036,143.8,121.7,31.399999999999977,2025-01-29 10:43:29,0.0
26.0,42.0,-114.39999999999964,136.8,136.7,48.39999999999998,2025-01-29 10:43:29,0.0
-66.0,2.0,41.600000000000364,180.8,118.7,29.399999999999977,2025-01-29 10:43:29,0.0
-2.0,74.0,1.6000000000003638,225.8,112.7,37.39999999999998,2025-01-29 10:43:29,0.0
-230.0,-2.0,-2.399999999999636,252.8,59.7,66.39999999999998,2025-01-29 10:43:29,0.0
30.0,106.0,-94.39999999999964,266.8,-22.299999999999997,90.39999999999998,2025-01-29 10:43:29,0.0
58.0,58.0,-118.39999999999964,202.8,-27.299999999999997,93.39999999999998,2025-01-29 10:43:29,0.0
82.0,198.0,-70.39999999999964,237.8,13.700000000000003,121.39999999999998,2025-01-29 10:43:29,0.0
110.0,182.0,-82.39999999999964,237.8,106.7,85.39999999999998,2025-01-29 10:43:29,0.0
-22.0,182.0,53.600000000000364,246.8,168.7,42.39999999999998,2025-01-29 10:43:29,0.0
-30.0,118.0,-34.399999999999636,301.8,157.7,55.39999999999998,2025-01-29 10:43:29,0.0
-74.0,110.0,-70.39999999999964,270.8,150.7,-17.600000000000023,2025-01-29 10:43:29,0.0
-118.0,66.0,45.600000000000364,266.8,50.7,3.3999999999999773,2025-01-29 10:43:29,0.0
-62.0,154.0,-78.39999999999964,235.8,-33.3,27.399999999999977,2025-01-29 10:43:29,0.0
-62.0,130.0,-70.39999999999964,174.8,14.700000000000003,-3.6000000000000227,2025-01-29 10:43:29,0.0
82.0,74.0,-86.39999999999964,181.8,14.700000000000003,22.399999999999977,2025-01-29 10:43:29,0.0
130.0,130.0,-146.39999999999964,119.80000000000001,92.7,14.399999999999977,2025-01-29 10:43:29,0.0
126.0,98.0,9.600000000000364,125.80000000000001,198.7,12.399999999999977,2025-01-29 10:43:29,0.0
26.0,-126.0,-118.39999999999964,109.80000000000001,267.7,19.399999999999977,2025-01-29 10:43:29,0.0
-2.0,90.0,-18.399999999999636,138.8,210.7,52.39999999999998,2025-01-29 10:43:29,0.0
-38.0,26.0,-266.39999999999964,105.80000000000001,152.7,26.399999999999977,2025-01-29 10:43:29,0.0
-90.0,10.0,-162.39999999999964,141.8,93.7,42.39999999999998,2025-01-29 10:43:29,0.0
-26.0,-202.0,-222.39999999999964,161.8,5.700000000000003,88.39999999999998,2025-01-29 10:43:29,0.0
-14.0,-154.0,-130.39999999999964,191.8,-16.299999999999997,72.39999999999998,2025-01-29 10:43:29,0.0
2.0,-94.0,-198.39999999999964,280.8,24.700000000000003,147.39999999999998,2025-01-29 10:43:29,0.0
-38.0,30.0,-114.39999999999964,360.8,59.7,138.39999999999998,2025-01-29 10:43:29,0.0
-162.0,-10.0,-82.39999999999964,391.8,51.7,220.39999999999998,2025-01-29 10:43:29,0.0
-26.0,2.0,-198.39999999999964,398.8,-72.3,273.4,2025-01-29 10:43:29,0.0
-54.0,58.0,-310.39999999999964,410.8,-217.3,345.4,2025-01-29 10:43:29,0.0
38.0,2.0,-126.39999999999964,432.8,-182.3,362.4,2025-01-29 10:43:29,0.0
82.0,-42.0,141.60000000000036,463.8,-54.3,369.4,2025-01-29 10:43:29,0.0
22.0,-98.0,177.60000000000036,599.8,-10.299999999999997,439.4,2025-01-29 10:43:29,0.0
58.0,-210.0,85.60000000000036,716.8,22.700000000000003,487.4,2025-01-29 10:43:29,0.0
22.0,-262.0,1.6000000000003638,849.8,220.7,525.4,2025-01-29 10:43:29,0.0
-226.0,-286.0,33.600000000000364,970.8,483.7,595.4,2025-01-29 10:43:29,0.0
-394.0,98.0,53.600000000000364,1028.8,537.7,713.4,2025-01-29 10:43:29,0.0
-214.0,694.0,121.60000000000036,1035.8,193.7,719.4,2025-01-29 10:43:29,0.0
-50.0,506.0,261.60000000000036,990.8,-257.3,644.4,2025-01-29 10:43:29,0.0
234.0,186.0,253.60000000000036,1004.8,-518.3,567.4,2025-01-29 10:43:29,0.0
266.0,-170.0,189.60000000000036,1178.8,-357.3,560.4,2025-01-29 10:43:29,0.0
286.0,-158.0,-162.39999999999964,1331.8,53.7,595.4,2025-01-29 10:43:29,0.0
86.0,106.0,-2.399999999999636,1335.8,283.7,565.4,2025-01-29 10:43:29,0.0
-90.0,522.0,113.60000000000036,1296.8,141.7,586.4,2025-01-29 10:43:30,0.0
-110.0,566.0,-98.39999999999964,1236.8,123.7,593.4,2025-01-29 10:43:30,0.0
-22.0,410.0,-162.39999999999964,1119.8,279.7,586.4,2025-01-29 10:43:30,0.0
42.0,430.0,-14.399999999999636,1097.8,442.7,577.4,2025-01-29 10:43:30,0.0
94.0,270.0,77.60000000000036,1125.8,472.7,573.4,2025-01-29 10:43:30,0.0
-102.0,334.0,41.600000000000364,1143.8,579.7,572.4,2025-01-29 10:43:30,0.0
-26.0,362.0,129.60000000000036,1128.8,720.7,556.4,2025-01-29 10:43:30,0.0
-18.0,406.0,-114.39999999999964,1150.8,784.7,637.4,2025-01-29 10:43:30,0.0
114.0,338.0,1.6000000000003638,1238.8,864.7,617.4,2025-01-29 10:43:30,0.0
54.0,266.0,93.60000000000036,1301.8,960.7,669.4,2025-01-29 10:43:30,0.0
222.0,522.0,117.60000000000036,1401.8,1159.7,698.4,2025-01-29 10:43:30,0.0
186.0,758.0,317.60000000000036,1480.8,1457.7,751.4,2025-01-29 10:43:30,0.0
34.0,1222.0,-142.39999999999964,1440.8,1801.7,895.4,2025-01-29 10:43:30,0.0
154.0,1514.0,-166.39999999999964,1345.8,2048.7,920.4,2025-01-29 10:43:30,0.0
46.0,1406.0,1.6000000000003638,1345.8,2188.7,721.4,2025-01-29 10:43:30,0.0
-506.0,1206.0,-266.39999999999964,1308.8,2003.7,575.4,2025-01-29 10:43:30,0.0
-850.0,1094.0,-246.39999999999964,1241.8,1288.7,637.4,2025-01-29 10:43:30,0.0
-882.0,1086.0,-30.399999999999636,1313.8,254.7,794.4,2025-01-29 10:43:30,0.0
-986.0,1298.0,109.60000000000036,1278.8,-601.3,848.4,2025-01-29 10:43:30,0.0
-478.0,1586.0,133.60000000000036,1321.8,-1434.3,755.4,2025-01-29 10:43:30,0.0
-158.0,1758.0,213.60000000000036,1183.8,-1902.3,629.4,2025-01-29 10:43:30,0.0
26.0,1826.0,405.60000000000036,1035.8,-1839.3,472.4,2025-01-29 10:43:30,0.0
386.0,1566.0,277.60000000000036,926.8,-1633.3,376.4,2025-01-29 10:43:30,0.0
690.0,1190.0,361.60000000000036,865.8,-1504.3,167.39999999999998,2025-01-29 10:43:30,0.0
898.0,826.0,329.60000000000036,893.8,-1252.3,-23.600000000000023,2025-01-29 10:43:30,0.0
998.0,658.0,89.60000000000036,972.8,-965.3,-158.60000000000002,2025-01-29 10:43:30,0.0
926.0,102.0,-354.39999999999964,981.8,-601.3,-290.6,2025-01-29 10:43:30,0.0
954.0,-30.0,-86.39999999999964,996.8,-80.3,-467.6,2025-01-29 10:43:30,0.0
798.0,102.0,-374.39999999999964,1162.8,337.7,-799.6,2025-01-29 10:43:30,0.0
494.0,-242.0,-910.3999999999996,1249.8,907.7,-1258.6,2025-01-29 10:43:30,0.0
38.0,-702.0,-974.3999999999996,1433.8,1392.7,-1694.6,2025-01-29 10:43:30,0.0
-82.0,-1142.0,-802.3999999999996,1884.8,1224.7,-2072.6,2025-01-29 10:43:30,0.0
-270.0,-1670.0,-270.39999999999964,2278.8,822.7,-2343.6,2025-01-29 10:43:30,0.0
-550.0,-1938.0,477.60000000000036,2461.8,599.7,-2120.6,2025-01-29 10:43:30,0.0
-626.0,-2002.0,953.6000000000004,2509.8,558.7,-1648.6,2025-01-29 10:43:30,0.0
-22.0,-2090.0,1101.6000000000004,2543.8,177.7,-1330.6,2025-01-29 10:43:30,0.0
610.0,-1926.0,985.6000000000004,2594.8,888.7,-1497.6,2025-01-29 10:43:30,0.0
378.0,-1130.0,1065.6000000000004,2333.8,1861.7,-1890.6,2025-01-29 10:43:30,0.0
-66.0,-206.0,877.6000000000004,1591.8,2463.7,-2385.6,2025-01-29 10:43:30,0.0
-682.0,-58.0,1069.6000000000004,974.8,2759.7,-2895.6,2025-01-29 10:43:30,0.0
-1042.0,-902.0,1101.6000000000004,690.8,2521.7,-3277.6,2025-01-29 10:43:30,0.0
-1186.0,-2094.0,1545.6000000000004,638.8,1747.7,-3251.6,2025-01-29 10:43:30,0.0
-742.0,-3178.0,2013.6000000000004,815.8,1228.7,-2965.6,2025-01-29 10:43:30,0.0
-518.0,-3318.0,1849.6000000000004,1284.8,795.7,-2426.6,2025-01-29 10:43:30,0.0
-378.0,-2778.0,1785.6000000000004,1458.8,630.7,-1816.6,2025-01-29 10:43:30,0.0
18.0,-1918.0,1821.6000000000004,1353.8,712.7,-1222.6,2025-01-29 10:43:30,0.0
250.0,-1690.0,1585.6000000000004,1031.8,688.7,-882.6,2025-01-29 10:43:30,0.0
206.0,-1754.0,1849.6000000000004,726.8,707.7,-788.6,2025-01-29 10:43:30,0.0
-150.0,-2074.0,1733.6000000000004,370.8,642.7,-577.6,2025-01-29 10:43:30,
-858.0,-2302.0,1737.6000000000004,180.8,462.7,-27.600000000000023,2025-01-29 10:43:30,0.0
-726.0,-2042.0,1493.6000000000004,-82.19999999999999,216.7,679.4,2025-01-29 10:43:30,0.0
-2.0,-1842.0,1105.6000000000004,-436.2,161.7,874.4,2025-01-29 10:43:30,0.0
574.0,-2030.0,961.6000000000004,-650.2,676.7,758.4,2025-01-29 10:43:30,0.0
702.0,-2246.0,781.6000000000004,-846.2,1245.7,608.4,2025-01-29 10:43:30,0.0
554.0,-1786.0,589.6000000000004,-1365.2,1645.7,228.39999999999998,2025-01-29 10:43:30,0.0
-162.0,-782.0,429.60000000000036,-1920.2,1615.7,-232.60000000000002,2025-01-29 10:43:30,0.0
-578.0,46.0,-70.39999999999964,-2693.2,1484.7,-489.6,2025-01-29 10:43:30,0.0
-698.0,-286.0,505.60000000000036,-3416.2,1184.7,-871.6,2025-01-29 10:43:30,0.0
-538.0,-1230.0,705.6000000000004,-3890.2,642.7,-1141.6,2025-01-29 10:43:30,0.0
-254.0,-1954.0,1145.6000000000004,-4287.2,261.7,-1389.6,2025-01-29 10:43:30,0.0
-82.0,-2530.0,1493.6000000000004,-4421.2,276.7,-1863.6,2025-01-29 10:43:30,0.0
-790.0,-2710.0,1481.6000000000004,-4533.2,606.7,-2620.6,2025-01-29 10:43:31,0.0
-1342.0,-2782.0,1977.6000000000004,-4535.2,541.7,-3299.6,2025-01-29 10:43:31,0.0
-1582.0,-3426.0,1733.6000000000004,-4386.2,-299.3,-3792.6,2025-01-29 10:43:31,0.0
-1286.0,-4254.0,-1126.3999999999996,-3528.2,-1331.3,-4550.6,2025-01-29 10:43:31,0.0
-1778.0,-4638.0,-1698.3999999999996,-2709.2,-1204.3,-5028.6,2025-01-29 10:43:31,0.0
-1674.0,-5978.0,597.6000000000004,-1006.2,-1185.3,-5611.6,2025-01-29 10:43:31,0.0
-2902.0,-7174.0,1745.6000000000004,1405.8,-2153.3,-5923.6,2025-01-29 10:43:31,0.0
-5110.0,-7622.0,849.6000000000004,2982.8,-3240.3,-4432.6,2025-01-29 10:43:31,0.0
-6286.0,-6938.0,-1646.3999999999996,3147.8,-3700.3,-468.6,2025-01-29 10:43:31,0.0
-4870.0,-5434.0,-2798.3999999999996,2903.8,-3697.3,2702.4,2025-01-29 10:43:31,0.0
-2702.0,-3094.0,-3514.3999999999996,2263.8,-4185.3,4328.4,2025-01-29 10:43:31,0.0
-658.0,-2846.0,-3610.3999999999996,1231.8,-4417.3,5461.4,2025-01-29 10:43:31,0.0
750.0,-2614.0,-3178.3999999999996,889.8,-3637.3,6150.4,2025-01-29 10:43:31,0.0
2058.0,-1550.0,-3842.3999999999996,1061.8,-2668.3,6340.4,2025-01-29 10:43:31,0.0
2714.0,-22.0,-3118.3999999999996,976.8,-2427.3,6070.4,2025-01-29 10:43:31,0.0
3470.0,2006.0,-942.3999999999996,1487.8,-2268.3,5211.4,2025-01-29 10:43:31,0.0
3678.0,3170.0,-918.3999999999996,2016.8,-1993.3,3972.4,2025-01-29 10:43:31,0.0
3802.0,2678.0,-2150.3999999999996,967.8,-1303.3,3114.4,2025-01-29 10:43:31,0.0
3414.0,1290.0,-1902.3999999999996,-552.2,-29.299999999999997,2545.4,2025-01-29 10:43:31,0.0
2362.0,-118.0,-698.3999999999996,-1061.2,1672.7,2637.4,2025-01-29 10:43:31,0.0
1746.0,-1166.0,-594.3999999999996,-852.2,2892.7,2794.4,2025-01-29 10:43:31,0.0
-6.0,-1942.0,-350.39999999999964,-423.2,3150.7,3097.4,2025-01-29 10:43:31,0.0
-1406.0,-1714.0,-62.399999999999636,428.8,1927.7,3822.4,2025-01-29 10:43:31,0.0
-1554.0,-1074.0,97.60000000000036,1084.8,-110.3,4520.4,2025-01-29 10:43:31,0.0
-746.0,-326.0,285.60000000000036,1414.8,-1994.3,4857.4,2025-01-29 10:43:31,0.0
926.0,638.0,537.6000000000004,1749.8,-3318.3,4717.4,2025-01-29 10:43:31,0.0
2302.0,1114.0,1029.6000000000004,1924.8,-3193.3,4263.4,2025-01-29 10:43:31,0.0
3058.0,1478.0,1081.6000000000004,1959.8,-2218.3,3850.4,2025-01-29 10:43:31,0.0
3098.0,1698.0,821.6000000000004,1764.8,-486.3,3579.4,2025-01-29 10:43:31,0.0
2486.0,1898.0,649.6000000000004,1412.8,1287.7,3359.4,2025-01-29 10:43:31,0.0
1490.0,2062.0,757.6000000000004,1055.8,1934.7,2968.4,2025-01-29 10:43:31,0.0
954.0,2454.0,497.60000000000036,771.8,1491.7,2556.4,2025-01-29 10:43:31,0.0
662.0,2638.0,449.60000000000036,519.8,472.7,1852.4,2025-01-29 10:43:31,0.0
774.0,2786.0,849.6000000000004,281.8,-123.3,907.4,2025-01-29 10:43:31,0.0
1058.0,2546.0,1025.6000000000004,50.80000000000001,-195.3,81.39999999999998,2025-01-29 10:43:31,0.0
994.0,2090.0,1257.6000000000004,-156.2,-296.3,-558.6,2025-01-29 10:43:31,0.0
1194.0,1514.0,1533.6000000000004,-335.2,-425.3,-894.6,2025-01-29 10:43:31,0.0
1558.0,1294.0,1861.6000000000004,-520.2,-444.3,-1294.6,2025-01-29 10:43:31,0.0
1826.0,946.0,2193.6000000000004,-551.2,-439.3,-1698.6,2025-01-29 10:43:31,0.0
1922.0,1226.0,2045.6000000000004,-340.2,-348.3,-1936.6,2025-01-29 10:43:31,0.0
1990.0,1746.0,2089.6000000000004,-70.19999999999999,226.7,-2055.6,2025-01-29 10:43:31,0.0
-1650.0,1874.0,-1886.3999999999996,7636.8,957.7,4323.4,2025-01-29 10:43:31,0.0
-1866.0,4206.0,-4618.4,6377.8,4154.7,4665.4,2025-01-29 10:43:31,0.0
-2254.0,5454.0,-5734.4,4007.8,5595.7,4052.4,2025-01-29 10:43:31,0.0
-2802.0,6474.0,-6462.4,772.8,4086.7,2845.4,2025-01-29 10:43:31,0.0
-3174.0,7650.0,-6934.4,-1933.2,491.7,1575.4,2025-01-29 10:43:31,0.0
-1602.0,6166.0,-7210.4,-3794.2,-3268.3,242.39999999999998,2025-01-29 10:43:31,0.0
-174.0,2298.0,-5022.4,-5304.2,-5643.3,-1009.6,2025-01-29 10:43:31,0.0
3170.0,-846.0,-858.3999999999996,-4726.2,-7160.3,-1514.6,2025-01-29 10:43:31,0.0
6078.0,-2674.0,945.6000000000004,-2540.2,-7361.3,-2481.6,2025-01-29 10:43:32,0.0
6910.0,-3682.0,773.6000000000004,-784.2,-6013.3,-3438.6,2025-01-29 10:43:32,0.0
6518.0,-3950.0,301.60000000000036,324.8,-2802.3,-3800.6,2025-01-29 10:43:32,0.0
5586.0,-3342.0,-1210.3999999999996,921.8,1290.7,-3688.6,2025-01-29 10:43:32,0.0
3738.0,-1730.0,-1762.3999999999996,1044.8,5130.7,-3399.6,2025-01-29 10:43:32,0.0
1826.0,-42.0,-1394.3999999999996,836.8,6459.7,-3469.6,2025-01-29 10:43:32,0.0
-58.0,1050.0,-1026.3999999999996,12.800000000000011,5636.7,-3568.6,2025-01-29 10:43:32,0.0
-1138.0,1194.0,-778.3999999999996,-1190.2,1916.7,-3737.6,2025-01-29 10:43:32,0.0
-1274.0,386.0,-1254.3999999999996,-1840.2,-1273.3,-3689.6,2025-01-29 10:43:32,0.0
-518.0,-450.0,-1578.3999999999996,-1970.2,-2538.3,-3747.6,2025-01-29 10:43:32,0.0
454.0,-766.0,-1254.3999999999996,-1894.2,-3135.3,-3764.6,2025-01-29 10:43:32,0.0
1038.0,-962.0,-138.39999999999964,-1989.2,-3061.3,-3669.6,2025-01-29 10:43:32,0.0
2250.0,-1150.0,-78.39999999999964,-2052.2,-2442.3,-3270.6,2025-01-29 10:43:32,0.0
2398.0,-1434.0,269.60000000000036,-2211.2,-1182.3,-2802.6,2025-01-29 10:43:32,0.0
2894.0,-1798.0,689.6000000000004,-2416.2,527.7,-2798.6,2025-01-29 10:43:32,0.0
2258.0,-1798.0,493.60000000000036,-2571.2,1942.7,-3185.6,2025-01-29 10:43:32,0.0
1194.0,-1646.0,1133.6000000000004,-2818.2,2071.7,-3465.6,2025-01-29 10:43:32,0.0
798.0,-1170.0,777.6000000000004,-3049.2,1879.7,-3361.6,2025-01-29 10:43:32,0.0
942.0,-738.0,141.60000000000036,-3470.2,2038.7,-3125.6,2025-01-29 10:43:32,0.0
762.0,-826.0,189.60000000000036,-3923.2,3021.7,-3147.6,2025-01-29 10:43:32,0.0
758.0,-1786.0,-398.39999999999964,-4400.2,2875.7,-3231.6,2025-01-29 10:43:32,0.0
650.0,-2618.0,-614.3999999999996,-4614.2,2169.7,-3027.6,2025-01-29 10:43:32,0.0
446.0,-2958.0,-30.399999999999636,-4099.2,1702.7,-2609.6,2025-01-29 10:43:32,0.0
350.0,-2310.0,-146.39999999999964,-3434.2,1695.7,-2163.6,2025-01-29 10:43:32,0.0
210.0,-1590.0,-110.39999999999964,-3335.2,1790.7,-1817.6,2025-01-29 10:43:32,0.0
-246.0,-1330.0,9.600000000000364,-3341.2,1574.7,-1296.6,2025-01-29 10:43:32,0.0
-498.0,-1462.0,421.60000000000036,-3301.2,1190.7,-770.6,2025-01-29 10:43:32,0.0
-466.0,-2046.0,357.60000000000036,-3129.2,547.7,-310.6,2025-01-29 10:43:32,0.0
-190.0,-2642.0,713.6000000000004,-2785.2,-164.3,31.399999999999977,2025-01-29 10:43:32,0.0
510.0,-2478.0,885.6000000000004,-2262.2,-382.3,21.399999999999977,2025-01-29 10:43:32,0.0
926.0,-1926.0,577.6000000000004,-1871.2,-159.3,-235.60000000000002,2025-01-29 10:43:32,0.0
958.0,-914.0,469.60000000000036,-1896.2,166.7,-593.6,2025-01-29 10:43:32,0.0
902.0,-86.0,13.600000000000364,-2145.2,396.7,-1054.6,2025-01-29 10:43:32,0.0
490.0,1058.0,-790.3999999999996,-2441.2,473.7,-1540.6,2025-01-29 10:43:32,0.0
-290.0,822.0,-846.3999999999996,-3140.2,843.7,-2022.6,2025-01-29 10:43:32,0.0
-478.0,-530.0,257.60000000000036,-3551.2,742.7,-2725.6,2025-01-29 10:43:32,0.0
-1334.0,-1538.0,1101.6000000000004,-3682.2,326.7,-3339.6,2025-01-29 10:43:32,0.0
-2418.0,-2070.0,1581.6000000000004,-3794.2,153.7,-3252.6,2025-01-29 10:43:32,0.0
-2310.0,-1970.0,285.60000000000036,-3487.2,268.7,-3063.6,2025-01-29 10:43:32,
-1778.0,-2370.0,-2418.3999999999996,-3139.2,684.7,-3428.6,2025-01-29 10:43:32,0.0
-2558.0,-4046.0,-2198.3999999999996,-2147.2,1406.7,-4445.6,2025-01-29 10:43:32,0.0
-4066.0,-5646.0,-1290.3999999999996,-241.2,1763.7,-4745.6,2025-01-29 10:43:32,0.0
-5886.0,-7190.0,-1538.3999999999996,1441.8,770.7,-3073.6,2025-01-29 10:43:32,0.0
-6730.0,-7442.0,-2738.3999999999996,2551.8,-1286.3,103.39999999999998,2025-01-29 10:43:32,0.0
-5478.0,-6270.0,-3534.3999999999996,3386.8,-3484.3,3523.4,2025-01-29 10:43:32,0.0
-2258.0,-4874.0,-3242.3999999999996,3437.8,-5082.3,4805.4,2025-01-29 10:43:32,0.0
254.0,-3178.0,-2422.3999999999996,2980.8,-6417.3,5464.4,2025-01-29 10:43:32,0.0
3094.0,-1554.0,-2062.3999999999996,2671.8,-7333.3,5920.4,2025-01-29 10:43:32,0.0
6390.0,-390.0,-2198.3999999999996,2507.8,-6864.3,5306.4,2025-01-29 10:43:32,0.0
8854.0,526.0,-2566.3999999999996,2116.8,-4870.3,3757.4,2025-01-29 10:43:32,0.0
8774.0,2146.0,-1586.3999999999996,1897.8,-38.3,1614.4,2025-01-29 10:43:32,0.0
6110.0,3398.0,-1630.3999999999996,1566.8,4198.7,546.4,2025-01-29 10:43:32,0.0
2470.0,3582.0,-2246.3999999999996,136.8,6178.7,743.4,2025-01-29 10:43:32,0.0
-246.0,2534.0,-1742.3999999999996,-976.2,6098.7,1019.4,2025-01-29 10:43:32,0.0
-2290.0,174.0,-2446.3999999999996,-1522.2,3610.7,1232.4,2025-01-29 10:43:32,0.0
-3562.0,-1602.0,-1610.3999999999996,-1523.2,393.7,2009.4,2025-01-29 10:43:32,0.0
-2994.0,-1794.0,-470.39999999999964,-682.2,-2410.3,3002.4,2025-01-29 10:43:32,0.0
-1090.0,-1754.0,-1006.3999999999996,131.8,-3904.3,3525.4,2025-01-29 10:43:32,0.0
718.0,-1270.0,-478.39999999999964,984.8,-4140.3,3877.4,2025-01-29 10:43:32,0.0
2182.0,-938.0,-294.39999999999964,1701.8,-3842.3,4208.4,2025-01-29 10:43:33,0.0
2882.0,-470.0,945.6000000000004,2222.8,-2770.3,4370.4,2025-01-29 10:43:33,0.0
3414.0,-26.0,909.6000000000004,2651.8,-1163.3,4285.4,2025-01-29 10:43:33,0.0
3054.0,654.0,713.6000000000004,2819.8,373.7,3976.4,2025-01-29 10:43:33,0.0
1994.0,1462.0,-30.399999999999636,2776.8,766.7,3760.4,2025-01-29 10:43:33,0.0
902.0,2146.0,-458.39999999999964,2469.8,428.7,3747.4,2025-01-29 10:43:33,0.0
526.0,2490.0,-430.39999999999964,2259.8,-157.3,3650.4,2025-01-29 10:43:33,0.0
506.0,2570.0,-242.39999999999964,2155.8,-983.3,3300.4,2025-01-29 10:43:33,0.0
710.0,2286.0,201.60000000000036,2174.8,-1885.3,2653.4,2025-01-29 10:43:33,0.0
798.0,1546.0,1053.6000000000004,2239.8,-2218.3,1761.4,2025-01-29 10:43:33,0.0
1130.0,1054.0,1245.6000000000004,2264.8,-1966.3,1340.4,2025-01-29 10:43:33,0.0
1222.0,570.0,1617.6000000000004,2407.8,-1220.3,1213.4,2025-01-29 10:43:33,0.0
1322.0,182.0,1173.6000000000004,2646.8,-334.3,1050.4,2025-01-29 10:43:33,0.0
1258.0,238.0,1117.6000000000004,2870.8,760.7,858.4,2025-01-29 10:43:33,0.0
922.0,454.0,1485.6000000000004,3241.8,1264.7,852.4,2025-01-29 10:43:33,0.0
986.0,678.0,1073.6000000000004,3661.8,1342.7,905.4,2025-01-29 10:43:33,0.0
1286.0,950.0,1341.6000000000004,3792.8,1433.7,721.4,2025-01-29 10:43:33,0.0
862.0,958.0,1249.6000000000004,4071.8,1727.7,705.4,2025-01-29 10:43:33,0.0
262.0,1094.0,513.6000000000004,4156.8,1767.7,813.4,2025-01-29 10:43:33,0.0
370.0,818.0,685.6000000000004,4155.8,1820.7,825.4,2025-01-29 10:43:33,0.0
-382.0,174.0,1845.6000000000004,4345.8,1911.7,439.4,2025-01-29 10:43:33,0.0
-1534.0,666.0,1085.6000000000004,5014.8,1568.7,220.39999999999998,2025-01-29 10:43:33,0.0
-2398.0,1146.0,1433.6000000000004,5522.8,1001.7,280.4,2025-01-29 10:43:33,0.0
-2794.0,906.0,1477.6000000000004,6000.8,-89.3,515.4,2025-01-29 10:43:33,0.0
-2426.0,-58.0,1089.6000000000004,6408.8,-1246.3,1210.4,2025-01-29 10:43:33,0.0
-1206.0,-674.0,1005.6000000000004,6629.8,-1430.3,1696.4,2025-01-29 10:43:33,0.0
-1234.0,966.0,645.6000000000004,6428.8,32.7,2049.4,2025-01-29 10:43:33,0.0
-2518.0,1758.0,933.6000000000004,5724.8,1528.7,2657.4,2025-01-29 10:43:33,0.0
-3782.0,1230.0,693.6000000000004,5153.8,2661.7,3330.4,2025-01-29 10:43:33,0.0
-4670.0,174.0,-558.3999999999996,4656.8,3394.7,3906.4,2025-01-29 10:43:33,0.0
-5122.0,762.0,-3538.3999999999996,4120.8,3167.7,4243.4,2025-01-29 10:43:33,0.0
-5290.0,3246.0,-5330.4,2687.8,1958.7,4967.4,2025-01-29 10:43:33,0.0
-4062.0,5490.0,-4514.4,908.8,139.7,5210.4,2025-01-29 10:43:33,0.0
-1866.0,5830.0,-4546.4,-192.2,-1268.3,4132.4,2025-01-29 10:43:33,0.0
718.0,4450.0,-4210.4,-1176.2,-2286.3,1889.4,2025-01-29 10:43:33,0.0
1962.0,1330.0,-2506.3999999999996,-1390.2,-3369.3,-482.6,2025-01-29 10:43:33,0.0
3206.0,-770.0,-1014.3999999999996,-422.2,-3931.3,-1212.6,2025-01-29 10:43:33,0.0
4110.0,-1758.0,-646.3999999999996,460.8,-3695.3,-1210.6,2025-01-29 10:43:33,0.0
5074.0,-2978.0,-182.39999999999964,1313.8,-2209.3,-1009.6,2025-01-29 10:43:33,0.0
5534.0,-3970.0,-886.3999999999996,2141.8,289.7,-1012.6,2025-01-29 10:43:33,0.0
4898.0,-3810.0,-2502.3999999999996,2444.8,2419.7,-1170.6,2025-01-29 10:43:33,0.0
2774.0,-1786.0,-2910.3999999999996,2260.8,3634.7,-951.6,2025-01-29 10:43:33,0.0
1174.0,310.0,-2354.3999999999996,1566.8,4148.7,-479.6,2025-01-29 10:43:33,0.0
622.0,1446.0,-1930.3999999999996,604.8,3399.7,-631.6,2025-01-29 10:43:33,0.0
210.0,1274.0,-914.3999999999996,-265.2,1561.7,-1707.6,2025-01-29 10:43:33,0.0
-378.0,618.0,-910.3999999999996,-568.2,59.7,-2676.6,2025-01-29 10:43:33,0.0
-506.0,-242.0,-1070.3999999999996,-755.2,-1338.3,-3076.6,2025-01-29 10:43:33,0.0
-142.0,-806.0,-1382.3999999999996,-899.2,-2176.3,-3302.6,2025-01-29 10:43:33,0.0
462.0,-946.0,-1186.3999999999996,-1040.2,-2694.3,-3412.6,2025-01-29 10:43:33,0.0
1346.0,-702.0,-1258.3999999999996,-1292.2,-2705.3,-3479.6,2025-01-29 10:43:33,0.0
2022.0,-582.0,-1058.3999999999996,-1690.2,-2220.3,-3641.6,2025-01-29 10:43:33,0.0
2626.0,-742.0,-558.3999999999996,-2110.2,-1322.3,-3885.6,2025-01-29 10:43:33,0.0
2754.0,-1110.0,341.60000000000036,-2448.2,-256.3,-4417.6,2025-01-29 10:43:33,0.0
2098.0,-1514.0,897.6000000000004,-2631.2,413.7,-4632.6,2025-01-29 10:43:33,0.0
1366.0,-1910.0,1161.6000000000004,-2594.2,1008.7,-4469.6,2025-01-29 10:43:33,0.0
778.0,-2194.0,1381.6000000000004,-2505.2,1331.7,-4120.6,2025-01-29 10:43:33,0.0
470.0,-2446.0,1141.6000000000004,-2371.2,1438.7,-3637.6,2025-01-29 10:43:33,0.0
334.0,-2626.0,1101.6000000000004,-2099.2,1261.7,-3020.6,2025-01-29 10:43:33,0.0
542.0,-2742.0,757.6000000000004,-1927.2,1103.7,-2442.6,2025-01-29 10:43:33,0.0
714.0,-2178.0,653.6000000000004,-1815.2,1175.7,-1959.6,2025-01-29 10:43:33,0.0
606.0,-1394.0,249.60000000000036,-1977.2,1210.7,-1505.6,2025-01-29 10:43:33,0.0
134.0,-770.0,149.60000000000036,-2357.2,1044.7,-1144.6,2025-01-29 10:43:33,0.0
-478.0,-618.0,-42.399999999999636,-2853.2,583.7,-743.6,2025-01-29 10:43:34,0.0
-534.0,-722.0,461.60000000000036,-3260.2,-114.3,-403.6,2025-01-29 10:43:34,0.0
-526.0,-1166.0,897.6000000000004,-3508.2,-586.3,-271.6,2025-01-29 10:43:34,0.0
-158.0,-1554.0,681.6000000000004,-3497.2,-699.3,-194.60000000000002,2025-01-29 10:43:34,0.0
474.0,-2070.0,637.6000000000004,-3385.2,-527.3,-333.6,2025-01-29 10:43:34,0.0
394.0,-2306.0,273.60000000000036,-3356.2,41.7,-501.6,2025-01-29 10:43:34,0.0
-18.0,-2298.0,797.6000000000004,-3177.2,736.7,-885.6,2025-01-29 10:43:34,0.0
-794.0,-1710.0,553.6000000000004,-2981.2,435.7,-1159.6,2025-01-29 10:43:34,0.0
-1434.0,-1710.0,893.6000000000004,-2891.2,-345.3,-1412.6,2025-01-29 10:43:34,0.0
-946.0,-2094.0,1669.6000000000004,-2486.2,-870.3,-1939.6,2025-01-29 10:43:34,0.0
-890.0,-2338.0,1313.6000000000004,-2297.2,-1523.3,-2490.6,2025-01-29 10:43:34,0.0
-1138.0,-1714.0,1421.6000000000004,-2550.2,-1968.3,-2526.6,2025-01-29 10:43:34,0.0
-1430.0,-1070.0,1409.6000000000004,-3078.2,-1754.3,-2109.6,2025-01-29 10:43:34,0.0
-1554.0,-1110.0,-102.39999999999964,-3575.2,-450.3,-1722.6,2025-01-29 10:43:34,0.0
-1774.0,-1674.0,-2414.3999999999996,-4182.2,1426.7,-2121.6,2025-01-29 10:43:34,0.0
-2298.0,-3498.0,-994.3999999999996,-3720.2,2124.7,-2759.6,2025-01-29 10:43:34,0.0
-3782.0,-5394.0,-678.3999999999996,-2229.2,672.7,-2659.6,2025-01-29 10:43:34,0.0
-5506.0,-6422.0,-882.3999999999996,-778.2,-1580.3,-739.6,2025-01-29 10:43:34,
-5638.0,-5758.0,-1934.3999999999996,328.8,-3387.3,2354.4,2025-01-29 10:43:34,0.0
-1866.0,-4202.0,-2478.3999999999996,1433.8,-4187.3,3286.4,2025-01-29 10:43:34,0.0
-42.0,-2758.0,-2674.3999999999996,1878.8,-4947.3,2659.4,2025-01-29 10:43:34,0.0
1098.0,-714.0,-1998.3999999999996,1828.8,-5788.3,2526.4,2025-01-29 10:43:34,0.0
2562.0,810.0,-1286.3999999999996,1352.8,-5952.3,2830.4,2025-01-29 10:43:34,0.0
4314.0,2214.0,-2242.3999999999996,562.8,-4606.3,2590.4,2025-01-29 10:43:34,0.0
4906.0,4110.0,-3234.3999999999996,-536.2,-1486.3,1663.4,2025-01-29 10:43:34,0.0
4290.0,4714.0,-2766.3999999999996,-1091.2,1248.7,676.4,2025-01-29 10:43:34,0.0
2226.0,2838.0,-1942.3999999999996,-1495.2,2201.7,-236.60000000000002,2025-01-29 10:43:34,0.0
254.0,710.0,-1506.3999999999996,-1581.2,2584.7,-230.60000000000002,2025-01-29 10:43:34,0.0
-910.0,-1242.0,-1498.3999999999996,-1617.2,2809.7,223.39999999999998,2025-01-29 10:43:34,0.0
-1954.0,-2090.0,-1054.3999999999996,-1393.2,1832.7,1188.4,2025-01-29 10:43:34,0.0
-1538.0,-1902.0,-418.39999999999964,-820.2,-130.3,2370.4,2025-01-29 10:43:34,0.0
-450.0,-686.0,-690.3999999999996,-441.2,-1677.3,2961.4,2025-01-29 10:43:34,0.0
734.0,286.0,-562.3999999999996,-111.19999999999999,-2366.3,3285.4,2025-01-29 10:43:34,0.0
1878.0,1082.0,-22.399999999999636,352.8,-2503.3,3288.4,2025-01-29 10:43:34,0.0
2838.0,1286.0,261.60000000000036,714.8,-1662.3,2995.4,2025-01-29 10:43:34,0.0
2794.0,1586.0,357.60000000000036,789.8,-74.3,2566.4,2025-01-29 10:43:34,0.0
2198.0,1714.0,833.6000000000004,758.8,1148.7,2166.4,2025-01-29 10:43:34,0.0
1590.0,1466.0,1037.6000000000004,763.8,1536.7,1765.4,2025-01-29 10:43:34,0.0
802.0,1078.0,1277.6000000000004,948.8,1453.7,1547.4,2025-01-29 10:43:34,0.0
518.0,1114.0,1261.6000000000004,1228.8,1210.7,1524.4,2025-01-29 10:43:34,0.0
590.0,1406.0,1253.6000000000004,1511.8,1024.7,1382.4,2025-01-29 10:43:34,0.0
658.0,1778.0,953.6000000000004,1884.8,800.7,1037.4,2025-01-29 10:43:34,0.0
354.0,1710.0,813.6000000000004,1912.8,820.7,771.4,2025-01-29 10:43:34,0.0
78.0,1398.0,961.6000000000004,1892.8,708.7,655.4,2025-01-29 10:43:34,0.0
-222.0,918.0,949.6000000000004,1888.8,571.7,667.4,2025-01-29 10:43:34,0.0
-206.0,642.0,993.6000000000004,2052.8,480.7,754.4,2025-01-29 10:43:34,0.0
-258.0,566.0,1157.6000000000004,2277.8,282.7,708.4,2025-01-29 10:43:34,0.0
-270.0,582.0,1573.6000000000004,2559.8,7.700000000000003,749.4,2025-01-29 10:43:34,0.0
-174.0,958.0,1269.6000000000004,2904.8,-311.3,705.4,2025-01-29 10:43:34,0.0
-38.0,1786.0,577.6000000000004,2893.8,-418.3,631.4,2025-01-29 10:43:34,0.0
18.0,2110.0,141.60000000000036,2772.8,-249.3,897.4,2025-01-29 10:43:34,0.0
602.0,2062.0,313.60000000000036,2747.8,304.7,1139.4,2025-01-29 10:43:34,0.0
570.0,1806.0,133.60000000000036,2585.8,880.7,947.4,2025-01-29 10:43:34,0.0
-90.0,1518.0,425.60000000000036,2400.8,1300.7,813.4,2025-01-29 10:43:34,0.0
-586.0,1242.0,929.6000000000004,2596.8,1117.7,920.4,2025-01-29 10:43:34,0.0
-1118.0,1106.0,1089.6000000000004,2856.8,607.7,1071.4,2025-01-29 10:43:34,0.0
-1486.0,886.0,805.6000000000004,2963.8,178.7,1314.4,2025-01-29 10:43:34,0.0
-1738.0,762.0,349.60000000000036,3047.8,-398.3,1601.4,2025-01-29 10:43:34,0.0
-1774.0,258.0,-618.3999999999996,3081.8,-605.3,1918.4,2025-01-29 10:43:35,0.0
-870.0,386.0,-1006.3999999999996,2970.8,-654.3,1842.4,2025-01-29 10:43:35,0.0
-138.0,1542.0,-1070.3999999999996,2934.8,-779.3,1207.4,2025-01-29 10:43:35,0.0
-98.0,2454.0,-2322.3999999999996,2862.8,-316.3,101.39999999999998,2025-01-29 10:43:35,0.0
-1210.0,3154.0,-3618.3999999999996,2302.8,594.7,-593.6,2025-01-29 10:43:35,0.0
-1970.0,3582.0,-3874.3999999999996,1389.8,829.7,-473.6,2025-01-29 10:43:35,0.0
-374.0,2598.0,-2334.3999999999996,439.8,-652.3,-1102.6,2025-01-29 10:43:35,0.0
590.0,-486.0,-682.3999999999996,600.8,-1359.3,-2015.6,2025-01-29 10:43:35,0.0
2374.0,-2454.0,-1206.3999999999996,1260.8,-1538.3,-2722.6,2025-01-29 10:43:35,0.0
2478.0,-3486.0,-1182.3999999999996,1665.8,-1170.3,-3078.6,2025-01-29 10:43:35,0.0
2190.0,-3830.0,-934.3999999999996,2162.8,50.7,-2320.6,2025-01-29 10:43:35,0.0
2210.0,-3734.0,-1178.3999999999996,2402.8,1291.7,-1017.6,2025-01-29 10:43:35,0.0
2706.0,-2526.0,-1926.3999999999996,2042.8,2258.7,8.399999999999977,2025-01-29 10:43:35,0.0
2486.0,-1662.0,-1894.3999999999996,1627.8,3133.7,-50.60000000000002,2025-01-29 10:43:35,0.0
1626.0,-1014.0,-1470.3999999999996,1448.8,3791.7,-410.6,2025-01-29 10:43:35,0.0
578.0,-650.0,-1050.3999999999996,1442.8,4088.7,-854.6,2025-01-29 10:43:35,0.0
-370.0,-706.0,-758.3999999999996,1393.8,3581.7,-1329.6,2025-01-29 10:43:35,0.0
-894.0,-1250.0,-1014.3999999999996,1297.8,2131.7,-1599.6,2025-01-29 10:43:35,0.0
-514.0,-1918.0,-666.3999999999996,1287.8,742.7,-1812.6,2025-01-29 10:43:35,0.0
302.0,-2502.0,-994.3999999999996,1403.8,159.7,-1867.6,2025-01-29 10:43:35,0.0
1110.0,-2778.0,-1306.3999999999996,1557.8,142.7,-1583.6,2025-01-29 10:43:35,0.0
1798.0,-1970.0,-1422.3999999999996,1519.8,773.7,-1181.6,2025-01-29 10:43:35,0.0
2422.0,-1414.0,-1126.3999999999996,949.8,1720.7,-1066.6,2025-01-29 10:43:35,0.0
2030.0,-1014.0,-594.3999999999996,470.8,2654.7,-1002.6,2025-01-29 10:43:35,0.0
1638.0,-1362.0,-570.3999999999996,259.8,3245.7,-944.6,2025-01-29 10:43:35,0.0
954.0,-1670.0,-782.3999999999996,-11.199999999999989,3388.7,-1052.6,2025-01-29 10:43:35,0.0
-142.0,-2070.0,-974.3999999999996,-163.2,3130.7,-1108.6,2025-01-29 10:43:35,0.0
-1058.0,-2114.0,-1070.3999999999996,-508.2,2157.7,-912.6,2025-01-29 10:43:35,0.0
-1010.0,-2214.0,-930.3999999999996,-722.2,822.7,-793.6,2025-01-29 10:43:35,0.0
-606.0,-1778.0,-914.3999999999996,-844.2,-255.3,-680.6,2025-01-29 10:43:35,0.0
82.0,-1282.0,-1110.3999999999996,-1121.2,-906.3,-495.6,2025-01-29 10:43:35,0.0
550.0,-1354.0,-558.3999999999996,-1289.2,-1137.3,-228.60000000000002,2025-01-29 10:43:35,0.0
1062.0,-1586.0,-346.39999999999964,-1472.2,-811.3,58.39999999999998,2025-01-29 10:43:35,0.0
1546.0,-2058.0,-110.39999999999964,-1460.2,-152.3,283.4,2025-01-29 10:43:35,0.0
1330.0,-2314.0,-154.39999999999964,-1402.2,563.7,396.4,2025-01-29 10:43:35,0.0
730.0,-2370.0,-98.39999999999964,-1602.2,737.7,414.4,2025-01-29 10:43:35,0.0
14.0,-2222.0,-338.39999999999964,-1933.2,223.7,688.4,2025-01-29 10:43:35,0.0
110.0,-2146.0,-762.3999999999996,-2321.2,-401.3,1057.4,2025-01-29 10:43:35,0.0
506.0,-1390.0,-1762.3999999999996,-2527.2,-665.3,1071.4,2025-01-29 10:43:35,0.0
778.0,-1194.0,-2146.3999999999996,-2893.2,-412.3,1069.4,2025-01-29 10:43:35,0.0
682.0,-1002.0,-1398.3999999999996,-2521.2,-47.3,1108.4,2025-01-29 10:43:35,0.0
766.0,-1150.0,-1662.3999999999996,-1956.2,355.7,1258.4,2025-01-29 10:43:35,0.0
1234.0,-1770.0,-1170.3999999999996,-1329.2,446.7,1182.4,2025-01-29 10:43:35,0.0
1326.0,-2170.0,-1290.3999999999996,-670.2,331.7,1253.4,2025-01-29 10:43:35,0.0
2454.0,-2542.0,-2062.3999999999996,120.80000000000001,1000.7,1305.4,2025-01-29 10:43:35,0.0
3030.0,-2558.0,-2158.3999999999996,784.8,2000.7,1100.4,2025-01-29 10:43:35,0.0
3730.0,-2294.0,-2934.3999999999996,1276.8,2876.7,975.4,2025-01-29 10:43:35,0.0
4370.0,-2054.0,-3226.3999999999996,1337.8,3552.7,792.4,2025-01-29 10:43:35,0.0
4490.0,-922.0,-2578.3999999999996,1461.8,3993.7,684.4,2025-01-29 10:43:35,0.0
4486.0,46.0,-2698.3999999999996,1251.8,4178.7,872.4,2025-01-29 10:43:35,0.0
4826.0,738.0,-2326.3999999999996,1009.8,4133.7,888.4,2025-01-29 10:43:35,0.0
5298.0,1398.0,-1698.3999999999996,798.8,3673.7,701.4,2025-01-29 10:43:35,0.0
5790.0,1594.0,-1038.3999999999996,587.8,2755.7,580.4,2025-01-29 10:43:35,0.0
6838.0,1302.0,-46.399999999999636,656.8,1763.7,576.4,2025-01-29 10:43:35,0.0
7286.0,822.0,4353.6,1113.8,637.7,1137.4,2025-01-29 10:43:35,0.0
6658.0,782.0,4521.6,647.8,1704.7,1178.4,2025-01-29 10:43:35,0.0
6450.0,806.0,5281.6,-179.2,2914.7,944.4,2025-01-29 10:43:35,0.0
5442.0,494.0,5905.6,37.80000000000001,3967.7,309.4,2025-01-29 10:43:35,0.0
3462.0,126.0,3381.6000000000004,716.8,4605.7,-339.6,2025-01-29 10:43:35,0.0
-82.0,834.0,-1198.3999999999996,-251.2,5251.7,-231.60000000000002,2025-01-29 10:43:35,
-1622.0,2938.0,-3870.3999999999996,-2077.2,5139.7,-127.60000000000002,2025-01-29 10:43:35,0.0
-3214.0,4682.0,-3594.3999999999996,-2879.2,2744.7,-419.6,2025-01-29 10:43:35,0.0
-5766.0,4390.0,-2774.3999999999996,-2342.2,-823.3,-469.6,2025-01-29 10:43:36,0.0
-7694.0,1910.0,-2550.3999999999996,-2058.2,-4034.3,-195.60000000000002,2025-01-29 10:43:36,0.0
-6898.0,-582.0,-6262.4,-1824.2,-6697.3,-136.60000000000002,2025-01-29 10:43:36,0.0
-5582.0,-1634.0,-7694.4,-1968.2,-6415.3,-37.60000000000002,2025-01-29 10:43:36,0.0
-5782.0,-1930.0,-6130.4,-1184.2,-5005.3,99.39999999999998,2025-01-29 10:43:36,0.0
-7454.0,-2138.0,-5934.4,-76.19999999999999,-3134.3,607.4,2025-01-29 10:43:36,0.0
-8154.0,-2422.0,-8258.4,895.8,-1011.3,930.4,2025-01-29 10:43:36,0.0
-8534.0,-2458.0,-9390.4,1888.8,-2224.3,1315.4,2025-01-29 10:43:36,0.0
-9626.0,-2374.0,-9422.4,2499.8,-2970.3,1522.4,2025-01-29 10:43:36,0.0
-9570.0,-1906.0,-8078.4,2970.8,-1137.3,1246.4,2025-01-29 10:43:36,0.0
-10690.0,-1030.0,-8858.4,3927.8,2828.7,77.39999999999998,2025-01-29 10:43:36,0.0
-20930.0,3254.0,-12670.4,1213.8,26921.7,-1669.6,2025-01-29 10:43:36,0.0
-20930.0,2122.0,-15854.4,1307.8,32670.7,-1287.6,2025-01-29 10:43:36,0.0
-17930.0,-626.0,-22666.4,807.8,32670.7,-2292.6,2025-01-29 10:43:36,0.0
-9546.0,-1834.0,-26454.4,10.800000000000011,32670.7,-5426.6,2025-01-29 10:43:36,0.0
-786.0,-1410.0,-26454.4,321.8,32670.7,-7344.6,2025-01-29 10:43:36,0.0
6526.0,-1562.0,-26454.4,1105.8,32670.7,-5948.6,2025-01-29 10:43:36,0.0
9674.0,-1082.0,-26454.4,-470.2,-3427.3,-2284.6,2025-01-29 10:43:36,0.0
9118.0,1182.0,-18210.4,-3571.2,-32864.3,1460.4,2025-01-29 10:43:36,0.0
12574.0,1498.0,-4698.4,-4395.2,-32864.3,5542.4,2025-01-29 10:43:36,0.0
19294.0,-1194.0,-4338.4,-5784.2,-32864.3,7484.4,2025-01-29 10:43:36,0.0
44605.0,-9742.0,-26454.4,-2307.2,-32864.3,6974.4,2025-01-29 10:43:36,0.0
642.0,-2278.0,14313.6,-228.2,-32864.3,7009.4,2025-01-29 10:43:36,0.0
5530.0,-3806.0,-20774.4,-1705.2,-32864.3,8732.4,2025-01-29 10:43:36,0.0
6978.0,-2806.0,-23418.4,-1416.2,-30074.3,9214.4,2025-01-29 10:43:36,0.0
22146.0,-2550.0,-10986.4,-3984.2,-28950.3,9562.4,2025-01-29 10:43:36,0.0
39014.0,410.0,14125.6,-8566.2,-32864.3,11337.4,2025-01-29 10:43:36,0.0
44605.0,4702.0,23277.6,-8558.2,-32864.3,8016.4,2025-01-29 10:43:36,0.0
41054.0,1330.0,24929.6,400.8,-32864.3,2054.4,2025-01-29 10:43:36,0.0
27090.0,-3314.0,-2282.3999999999996,3446.8,-21758.3,-4271.6,2025-01-29 10:43:36,0.0
16186.0,-4578.0,-10406.4,1031.8,-2867.3,-5218.6,2025-01-29 10:43:36,0.0
12542.0,-3506.0,-8446.4,-1692.2,19668.7,-3492.6,2025-01-29 10:43:36,0.0
13386.0,-1822.0,-2846.3999999999996,-2204.2,32670.7,-1991.6,2025-01-29 10:43:36,0.0
-5182.0,2650.0,39080.6,1906.8,32670.7,-1417.6,2025-01-29 10:43:36,0.0
17114.0,5802.0,25393.6,6390.8,32670.7,-635.6,2025-01-29 10:43:36,0.0
15746.0,3038.0,10909.6,6632.8,20192.7,-38.60000000000002,2025-01-29 10:43:36,0.0
8818.0,1302.0,601.6000000000004,1723.8,-653.3,-1904.6,2025-01-29 10:43:36,0.0
4822.0,14.0,3101.6000000000004,-2464.2,1471.7,-4309.6,2025-01-29 10:43:36,0.0
6526.0,-886.0,10109.6,-3261.2,603.7,-5677.6,2025-01-29 10:43:36,0.0
8050.0,-622.0,11125.6,-1194.2,-13499.3,-3965.6,2025-01-29 10:43:36,0.0
8378.0,274.0,9493.6,-550.2,-19915.3,-848.6,2025-01-29 10:43:36,0.0
7770.0,1746.0,10273.6,-620.2,-17707.3,2291.4,2025-01-29 10:43:36,0.0
12822.0,1338.0,6257.6,-843.2,-11190.3,4735.4,2025-01-29 10:43:36,0.0
17746.0,790.0,3909.6000000000004,-871.2,-8563.3,5158.4,2025-01-29 10:43:36,0.0
22106.0,594.0,6713.6,-492.2,-10225.3,2856.4,2025-01-29 10:43:36,0.0
13046.0,566.0,2145.6000000000004,629.8,5591.7,-517.6,2025-01-29 10:43:36,0.0
9114.0,90.0,-11090.4,1103.8,30269.7,-4618.6,2025-01-29 10:43:36,0.0
-1902.0,1358.0,11137.6,4491.8,32670.7,-7932.6,2025-01-29 10:43:36,0.0
-246.0,-2974.0,17941.6,10699.8,32670.7,-9433.6,2025-01-29 10:43:36,0.0
7534.0,-4286.0,-18886.4,13179.8,32670.7,-10955.6,2025-01-29 10:43:36,0.0
-9070.0,-3498.0,-26454.4,7562.8,32670.7,-22580.6,2025-01-29 10:43:36,0.0
-20930.0,3682.0,-26454.4,2148.8,32670.7,-32496.6,2025-01-29 10:43:36,0.0
-20930.0,-22118.0,-26454.4,-6505.2,32670.7,-2500.6,2025-01-29 10:43:36,0.0
19670.0,-6638.0,-26454.4,1273.8,9793.7,5584.4,2025-01-29 10:43:36,0.0
20194.0,-358.0,-26454.4,1812.8,-32864.3,11066.4,2025-01-29 10:43:36,0.0
8154.0,2710.0,-20726.4,2125.8,-32864.3,14051.4,2025-01-29 10:43:36,0.0
7254.0,1098.0,-9682.4,-828.2,-32864.3,10796.4,2025-01-29 10:43:36,0.0
-2122.0,4266.0,-2694.3999999999996,-9212.2,-32864.3,8950.4,2025-01-29 10:43:37,0.0
20482.0,-1854.0,16637.6,-22730.2,-32864.3,7556.4,2025-01-29 10:43:37,0.0
13478.0,-1270.0,11177.6,-13624.2,-6268.3,3040.4,2025-01-29 10:43:37,0.0
8854.0,-5218.0,1453.6000000000004,985.8,22593.7,-230.60000000000002,2025-01-29 10:43:37,0.0
2570.0,-5730.0,-9162.4,9475.8,32670.7,-750.6,2025-01-29 10:43:37,0.0
-4846.0,-7438.0,889.6000000000004,3328.8,32670.7,-2605.6,2025-01-29 10:43:37,0.0
-11510.0,-902.0,11673.6,-112.19999999999999,22623.7,-4396.6,2025-01-29 10:43:37,0.0
-17366.0,1334.0,10645.6,2756.8,12683.7,-3933.6,2025-01-29 10:43:37,0.0
-14270.0,974.0,849.6000000000004,3339.8,1984.7,-1067.6,2025-01-29 10:43:37,0.0
-7250.0,1202.0,-1762.3999999999996,2584.8,-13157.3,1787.4,2025-01-29 10:43:37,0.0
-1338.0,518.0,-938.3999999999996,927.8,-30615.3,2838.4,2025-01-29 10:43:37,0.0
4514.0,1474.0,5881.6,-3635.2,-13341.3,2398.4,2025-01-29 10:43:37,0.0
10630.0,-242.0,8013.6,-2814.2,-7325.3,706.4,2025-01-29 10:43:37,0.0
18398.0,554.0,11121.6,-1484.2,-5651.3,-768.6,2025-01-29 10:43:37,0.0
11478.0,-1550.0,3381.6000000000004,1745.8,13174.7,-2122.6,2025-01-29 10:43:37,0.0
6366.0,-2050.0,3241.6000000000004,2564.8,17059.7,-2950.6,2025-01-29 10:43:37,0.0
1042.0,-1966.0,3001.6000000000004,2718.8,17440.7,-3282.6,2025-01-29 10:43:37,0.0
-4734.0,-2158.0,2193.6000000000004,2597.8,16582.7,-2775.6,2025-01-29 10:43:37,0.0
-8790.0,-2090.0,1449.6000000000004,2545.8,13280.7,-1246.6,2025-01-29 10:43:37,0.0
-11390.0,-1714.0,1909.6000000000004,2664.8,6268.7,1252.4,2025-01-29 10:43:37,0.0
-8454.0,-1298.0,2493.6000000000004,2850.8,-2065.3,2950.4,2025-01-29 10:43:37,0.0
-4686.0,-1174.0,2925.6000000000004,3175.8,-7651.3,2425.4,2025-01-29 10:43:37,0.0
-514.0,-1250.0,2645.6000000000004,3232.8,-5357.3,1050.4,2025-01-29 10:43:37,0.0
-254.0,-730.0,2857.6000000000004,3632.8,-2951.3,795.4,2025-01-29 10:43:37,0.0
-614.0,374.0,2001.6000000000004,3562.8,-484.3,958.4,2025-01-29 10:43:37,0.0
-698.0,1042.0,1737.6000000000004,2705.8,24.700000000000003,962.4,2025-01-29 10:43:37,0.0
-2062.0,1534.0,3365.6000000000004,1427.8,-1103.3,1298.4,2025-01-29 10:43:37,0.0
-2022.0,1330.0,3865.6000000000004,779.8,-2974.3,1323.4,2025-01-29 10:43:37,0.0
-1370.0,570.0,3193.6000000000004,297.8,-4186.3,939.4,2025-01-29 10:43:37,0.0
-558.0,-634.0,2945.6000000000004,65.80000000000001,-3882.3,717.4,2025-01-29 10:43:37,0.0
-190.0,-1674.0,3169.6000000000004,321.8,-2168.3,371.4,2025-01-29 10:43:37,0.0
14.0,-2374.0,2665.6000000000004,685.8,-635.3,317.4,2025-01-29 10:43:37,0.0
-238.0,-2474.0,3109.6000000000004,1022.8,310.7,319.4,2025-01-29 10:43:37,0.0
-1066.0,-1930.0,3433.6000000000004,1209.8,677.7,357.4,2025-01-29 10:43:37,0.0
-1494.0,-1282.0,3609.6000000000004,1473.8,311.7,468.4,2025-01-29 10:43:37,0.0
-1498.0,-718.0,3145.6000000000004,1632.8,-341.3,490.4,2025-01-29 10:43:37,0.0
-1406.0,-386.0,2885.6000000000004,1663.8,-731.3,483.4,2025-01-29 10:43:37,0.0
-1214.0,-558.0,2597.6000000000004,1712.8,-702.3,543.4,2025-01-29 10:43:37,0.0
-910.0,-910.0,2789.6000000000004,1822.8,-446.3,550.4,2025-01-29 10:43:37,0.0
-1022.0,-894.0,2865.6000000000004,1915.8,-316.3,509.4,2025-01-29 10:43:37,0.0
-954.0,-818.0,2465.6000000000004,1835.8,-285.3,468.4,2025-01-29 10:43:37,
-806.0,-910.0,2409.6000000000004,1686.8,-312.3,519.4,2025-01-29 10:43:37,0.0
-522.0,-894.0,2277.6000000000004,1540.8,66.7,549.4,2025-01-29 10:43:37,0.0
-878.0,-550.0,2149.6000000000004,1305.8,435.7,451.4,2025-01-29 10:43:37,0.0
-1178.0,-322.0,2201.6000000000004,1004.8,364.7,460.4,2025-01-29 10:43:37,0.0
-1358.0,-674.0,2417.6000000000004,795.8,49.7,481.4,2025-01-29 10:43:37,0.0
-1430.0,-682.0,2705.6000000000004,798.8,-163.3,383.4,2025-01-29 10:43:37,0.0
-1102.0,-622.0,2357.6000000000004,784.8,-231.3,279.4,2025-01-29 10:43:37,0.0
-882.0,-590.0,2541.6000000000004,776.8,-53.3,279.4,2025-01-29 10:43:37,0.0
-926.0,-818.0,2681.6000000000004,950.8,269.7,310.4,2025-01-29 10:43:37,0.0
-1130.0,-962.0,2333.6000000000004,850.8,140.7,331.4,2025-01-29 10:43:37,0.0
-1262.0,-790.0,2397.6000000000004,722.8,45.7,261.4,2025-01-29 10:43:37,0.0
-1454.0,-806.0,2449.6000000000004,602.8,-107.3,243.39999999999998,2025-01-29 10:43:37,0.0
-1250.0,-326.0,2325.6000000000004,504.8,-405.3,168.39999999999998,2025-01-29 10:43:37,0.0
-778.0,422.0,2433.6000000000004,39.80000000000001,-386.3,67.39999999999998,2025-01-29 10:43:38,0.0
-490.0,602.0,2505.6000000000004,-417.2,-195.3,-68.60000000000002,2025-01-29 10:43:38,0.0
-598.0,130.0,2417.6000000000004,-603.2,-61.3,-342.6,2025-01-29 10:43:38,0.0
-814.0,-34.0,2049.6000000000004,-970.2,198.7,-624.6,2025-01-29 10:43:38,0.0
-1114.0,102.0,2181.6000000000004,-1311.2,355.7,-855.6,2025-01-29 10:43:38,0.0
-1554.0,354.0,2193.6000000000004,-1683.2,177.7,-961.6,2025-01-29 10:43:38,0.0
-1466.0,378.0,2225.6000000000004,-2124.2,-255.3,-1038.6,2025-01-29 10:43:38,0.0
-1122.0,678.0,1637.6000000000004,-2485.2,-671.3,-1161.6,2025-01-29 10:43:38,0.0
-810.0,358.0,1933.6000000000004,-2931.2,-780.3,-1293.6,2025-01-29 10:43:38,0.0
-378.0,-386.0,2177.6000000000004,-3575.2,-102.3,-1347.6,2025-01-29 10:43:38,0.0
-446.0,-590.0,2513.6000000000004,-3988.2,-70.3,-1281.6,2025-01-29 10:43:38,0.0
-510.0,-410.0,2913.6000000000004,-4357.2,42.7,-1175.6,2025-01-29 10:43:38,0.0
-454.0,-178.0,2297.6000000000004,-4836.2,489.7,-1193.6,2025-01-29 10:43:38,0.0
-474.0,-166.0,1921.6000000000004,-5515.2,1180.7,-1408.6,2025-01-29 10:43:38,0.0
-642.0,-106.0,1745.6000000000004,-6174.2,1913.7,-1928.6,2025-01-29 10:43:38,0.0
-1294.0,22.0,2061.6000000000004,-6846.2,2045.7,-2435.6,2025-01-29 10:43:38,0.0
-1566.0,-1078.0,1869.6000000000004,-9116.2,-1540.3,-3761.6,2025-01-29 10:43:38,0.0
-618.0,-970.0,1861.6000000000004,-9430.2,-1316.3,-4062.6,2025-01-29 10:43:38,0.0
-154.0,-1490.0,2293.6000000000004,-9992.2,-510.3,-4399.6,2025-01-29 10:43:38,0.0
-838.0,-1442.0,2293.6000000000004,-10234.2,-568.3,-4487.6,2025-01-29 10:43:38,0.0
-1210.0,-1334.0,2285.6000000000004,-10367.2,-1014.3,-4478.6,2025-01-29 10:43:38,0.0
-1194.0,-1582.0,1845.6000000000004,-10641.2,-1493.3,-4398.6,2025-01-29 10:43:38,0.0
-514.0,-1934.0,1921.6000000000004,-10926.2,-1526.3,-4373.6,2025-01-29 10:43:38,0.0
-470.0,-1982.0,2393.6000000000004,-11125.2,-1109.3,-4441.6,2025-01-29 10:43:38,0.0
-610.0,-2094.0,2501.6000000000004,-11269.2,-954.3,-4425.6,2025-01-29 10:43:38,0.0
-1010.0,-2230.0,2433.6000000000004,-11398.2,-1214.3,-4327.6,2025-01-29 10:43:38,0.0
-1294.0,-2354.0,2653.6000000000004,-11407.2,-1345.3,-4093.6,2025-01-29 10:43:38,0.0
-1166.0,-2230.0,2101.6000000000004,-11349.2,-1448.3,-3615.6,2025-01-29 10:43:38,0.0
-438.0,-1778.0,1869.6000000000004,-11524.2,-1331.3,-3038.6,2025-01-29 10:43:38,0.0
258.0,-2070.0,1969.6000000000004,-11805.2,-660.3,-2545.6,2025-01-29 10:43:38,0.0
658.0,-2354.0,2213.6000000000004,-12064.2,414.7,-2438.6,2025-01-29 10:43:38,0.0
390.0,-3010.0,2065.6000000000004,-12390.2,1176.7,-2608.6,2025-01-29 10:43:38,0.0
-742.0,-2798.0,2061.6000000000004,-12510.2,1427.7,-2864.6,2025-01-29 10:43:38,0.0
-1642.0,-2822.0,1957.6000000000004,-12681.2,1245.7,-2825.6,2025-01-29 10:43:38,0.0
-1650.0,-2954.0,1921.6000000000004,-12650.2,791.7,-2901.6,2025-01-29 10:43:41,0.0
-1522.0,-2630.0,1697.6000000000004,-12716.2,723.7,-3202.6,2025-01-29 10:43:41,0.0
-1474.0,-2174.0,1745.6000000000004,-12988.2,491.7,-3517.6,2025-01-29 10:43:41,0.0
-1478.0,-1862.0,1893.6000000000004,-13435.2,-50.3,-3757.6,2025-01-29 10:43:41,0.0
-666.0,-2018.0,1657.6000000000004,-15221.2,-2186.3,-4438.6,2025-01-29 10:43:41,0.0
-534.0,-2350.0,2009.6000000000004,-15887.2,-2437.3,-4570.6,2025-01-29 10:43:41,0.0
-422.0,-2706.0,2817.6000000000004,-16389.2,-2403.3,-4369.6,2025-01-29 10:43:41,0.0
-3690.0,1734.0,1945.6000000000004,-15247.2,121.7,-4501.6,2025-01-29 10:43:41,0.0
-2922.0,1962.0,2005.6000000000004,-15198.2,-843.3,-3390.6,2025-01-29 10:43:41,0.0
-5558.0,1990.0,2105.6000000000004,5019.8,2092.7,2539.4,2025-01-29 10:43:41,0.0
-6050.0,2030.0,-154.39999999999964,4159.8,2404.7,3204.4,2025-01-29 10:43:41,0.0
-6514.0,2138.0,-598.3999999999996,2864.8,1867.7,2953.4,2025-01-29 10:43:41,0.0
-5318.0,2426.0,-714.3999999999996,1296.8,579.7,2275.4,2025-01-29 10:43:41,0.0
-3434.0,2446.0,-158.39999999999964,-130.2,-964.3,1412.4,2025-01-29 10:43:41,0.0
-1766.0,1862.0,-278.39999999999964,-1213.2,-2276.3,984.4,2025-01-29 10:43:41,0.0
110.0,998.0,-890.3999999999996,-2165.2,-2942.3,850.4,2025-01-29 10:43:41,0.0
2354.0,466.0,-434.39999999999964,-2411.2,-2862.3,237.39999999999998,2025-01-29 10:43:41,0.0
3906.0,-626.0,509.60000000000036,-1817.2,-1946.3,-998.6,2025-01-29 10:43:41,0.0
3418.0,-610.0,1625.6000000000004,-677.2,26.700000000000003,-2062.6,2025-01-29 10:43:41,0.0
2030.0,-206.0,1493.6000000000004,370.8,1458.7,-2548.6,2025-01-29 10:43:41,0.0
582.0,-14.0,69.60000000000036,508.8,1805.7,-3045.6,2025-01-29 10:43:41,0.0
-598.0,70.0,61.600000000000364,-81.19999999999999,1387.7,-3303.6,2025-01-29 10:43:41,0.0
-1182.0,-170.0,1049.6000000000004,-271.2,468.7,-3334.6,2025-01-29 10:43:41,0.0
-1410.0,-402.0,1361.6000000000004,-303.2,-326.3,-3109.6,2025-01-29 10:43:41,0.0
-650.0,-554.0,1541.6000000000004,-316.2,-539.3,-2840.6,2025-01-29 10:43:41,0.0
-122.0,-802.0,1561.6000000000004,-200.2,-450.3,-2732.6,2025-01-29 10:43:41,0.0
422.0,-890.0,1805.6000000000004,83.80000000000001,-380.3,-2646.6,2025-01-29 10:43:41,0.0
982.0,-898.0,1985.6000000000004,349.8,-240.3,-2557.6,2025-01-29 10:43:41,0.0
930.0,-770.0,1761.6000000000004,440.8,-37.3,-2395.6,2025-01-29 10:43:41,0.0
802.0,-578.0,1985.6000000000004,509.8,232.7,-2369.6,2025-01-29 10:43:41,0.0
650.0,-458.0,2285.6000000000004,415.8,635.7,-2485.6,2025-01-29 10:43:41,0.0
162.0,-898.0,2625.6000000000004,161.8,872.7,-2632.6,2025-01-29 10:43:41,0.0
-546.0,-1282.0,2777.6000000000004,-170.2,816.7,-2673.6,2025-01-29 10:43:41,0.0
-1150.0,-1346.0,3053.6000000000004,-311.2,595.7,-2357.6,2025-01-29 10:43:41,0.0
-958.0,-1174.0,3121.6000000000004,-382.2,296.7,-1895.6,2025-01-29 10:43:41,0.0
-178.0,-886.0,3329.6000000000004,-460.2,196.7,-1735.6,2025-01-29 10:43:41,0.0
134.0,-938.0,3101.6000000000004,-607.2,268.7,-1935.6,2025-01-29 10:43:41,0.0
-90.0,-866.0,2945.6000000000004,-748.2,477.7,-2024.6,2025-01-29 10:43:41,0.0
-262.0,-1026.0,2913.6000000000004,-866.2,669.7,-1925.6,2025-01-29 10:43:41,0.0
-582.0,-1058.0,3165.6000000000004,-1033.2,610.7,-1700.6,2025-01-29 10:43:41,0.0
-906.0,-1158.0,3277.6000000000004,-1258.2,410.7,-1408.6,2025-01-29 10:43:41,0.0
-1182.0,-602.0,3337.6000000000004,-1520.2,364.7,-909.6,2025-01-29 10:43:41,0.0
-962.0,-486.0,3301.6000000000004,-1953.2,437.7,-244.60000000000002,2025-01-29 10:43:41,0.0
-378.0,-598.0,3597.6000000000004,-2276.2,538.7,181.39999999999998,2025-01-29 10:43:41,0.0
-386.0,-602.0,3749.6000000000004,-2586.2,823.7,416.4,2025-01-29 10:43:41,0.0
-382.0,-1282.0,3385.6000000000004,-3002.2,1067.7,506.4,2025-01-29 10:43:42,0.0
-230.0,-1338.0,3293.6000000000004,-3165.2,735.7,150.39999999999998,2025-01-29 10:43:42,0.0
-914.0,-1318.0,3097.6000000000004,-3425.2,499.7,-401.6,2025-01-29 10:43:42,0.0
-1450.0,-250.0,3441.6000000000004,-3712.2,398.7,-720.6,2025-01-29 10:43:42,0.0
-2146.0,218.0,2989.6000000000004,-4041.2,288.7,-1028.6,2025-01-29 10:43:42,0.0
-2078.0,-662.0,3473.6000000000004,-4353.2,-14.299999999999997,-1604.6,2025-01-29 10:43:42,0.0
-2638.0,-2206.0,4193.6,-4474.2,-861.3,-2330.6,2025-01-29 10:43:42,0.0
-3358.0,-3290.0,4377.6,-4679.2,-1708.3,-2530.6,2025-01-29 10:43:42,
-3726.0,-3070.0,4905.6,-4742.2,-1936.3,-1999.6,2025-01-29 10:43:42,0.0
-2738.0,-2162.0,4917.6,-4260.2,-1636.3,-1175.6,2025-01-29 10:43:42,0.0
-1934.0,-2382.0,2893.6000000000004,-3798.2,-761.3,-1757.6,2025-01-29 10:43:42,0.0
-2494.0,-3494.0,1665.6000000000004,-3822.2,475.7,-3285.6,2025-01-29 10:43:42,0.0
-4410.0,-4750.0,3309.6000000000004,-2968.2,595.7,-4719.6,2025-01-29 10:43:42,0.0
-7366.0,-5734.0,4669.6,-1307.2,-1238.3,-4547.6,2025-01-29 10:43:42,0.0
-9418.0,-5962.0,5121.6,314.8,-4169.3,-1745.6,2025-01-29 10:43:42,0.0
-7858.0,-4698.0,3241.6000000000004,1511.8,-6658.3,2300.4,2025-01-29 10:43:42,0.0
-3338.0,-2366.0,1069.6000000000004,2198.8,-6963.3,3631.4,2025-01-29 10:43:42,0.0
-394.0,-1174.0,-1370.3999999999996,1467.8,-6135.3,3722.4,2025-01-29 10:43:42,0.0
2006.0,-426.0,-1710.3999999999996,451.8,-4331.3,3828.4,2025-01-29 10:43:42,0.0
5002.0,246.0,-1182.3999999999996,-251.2,-1543.3,3408.4,2025-01-29 10:43:42,0.0
5458.0,1122.0,-638.3999999999996,-512.2,1213.7,2377.4,2025-01-29 10:43:42,0.0
4390.0,1794.0,-610.3999999999996,-889.2,3495.7,1260.4,2025-01-29 10:43:42,0.0
2130.0,2258.0,-26.399999999999636,-1162.2,4686.7,390.4,2025-01-29 10:43:42,0.0
-1794.0,2158.0,381.60000000000036,-1051.2,4864.7,436.4,2025-01-29 10:43:42,0.0
-3694.0,998.0,313.60000000000036,-965.2,3863.7,1298.4,2025-01-29 10:43:42,0.0
-4314.0,-634.0,1313.6000000000004,-983.2,1658.7,2478.4,2025-01-29 10:43:42,0.0
-3410.0,-1762.0,2413.6000000000004,-640.2,-245.3,3281.4,2025-01-29 10:43:42,0.0
-2170.0,-2318.0,2149.6000000000004,-75.19999999999999,-1690.3,3606.4,2025-01-29 10:43:42,0.0
-918.0,-1850.0,1961.6000000000004,459.8,-2237.3,3781.4,2025-01-29 10:43:42,0.0
246.0,-586.0,2173.6000000000004,1011.8,-2160.3,3695.4,2025-01-29 10:43:42,0.0
1158.0,826.0,1925.6000000000004,1112.8,-1715.3,3332.4,2025-01-29 10:43:42,0.0
1118.0,2090.0,1969.6000000000004,1007.8,-912.3,2881.4,2025-01-29 10:43:42,0.0
602.0,2502.0,3009.6000000000004,900.8,-55.3,2712.4,2025-01-29 10:43:42,0.0
570.0,2218.0,3325.6000000000004,862.8,579.7,2588.4,2025-01-29 10:43:42,0.0
90.0,1538.0,3693.6000000000004,907.8,585.7,2329.4,2025-01-29 10:43:42,0.0
-98.0,1098.0,4173.6,1019.8,43.7,2088.4,2025-01-29 10:43:42,0.0
-110.0,606.0,3913.6000000000004,1242.8,-662.3,1869.4,2025-01-29 10:43:42,0.0
-42.0,174.0,3801.6000000000004,1636.8,-970.3,1602.4,2025-01-29 10:43:42,0.0
-262.0,406.0,3785.6000000000004,2069.8,-975.3,1474.4,2025-01-29 10:43:42,0.0
-242.0,882.0,3573.6000000000004,2269.8,-1125.3,1409.4,2025-01-29 10:43:42,0.0
414.0,1294.0,3445.6000000000004,2349.8,-1350.3,1101.4,2025-01-29 10:43:42,0.0
706.0,1486.0,3425.6000000000004,2369.8,-1372.3,653.4,2025-01-29 10:43:42,0.0
694.0,1366.0,4029.6000000000004,2455.8,-1125.3,328.4,2025-01-29 10:43:42,0.0
474.0,1014.0,4397.6,2709.8,-914.3,141.39999999999998,2025-01-29 10:43:42,0.0
254.0,606.0,4841.6,3048.8,-523.3,18.399999999999977,2025-01-29 10:43:42,0.0
-626.0,582.0,5041.6,3639.8,-314.3,-61.60000000000002,2025-01-29 10:43:42,0.0
-1190.0,758.0,4953.6,4072.8,-272.3,-119.60000000000002,2025-01-29 10:43:42,0.0
-1890.0,1182.0,4813.6,4172.8,-728.3,-144.60000000000002,2025-01-29 10:43:42,0.0
-2206.0,1758.0,5021.6,4125.8,-1246.3,-215.60000000000002,2025-01-29 10:43:42,0.0
-2234.0,2002.0,5121.6,4045.8,-1649.3,-341.6,2025-01-29 10:43:42,0.0
-1882.0,1542.0,4989.6,4208.8,-1576.3,-549.6,2025-01-29 10:43:42,0.0
-1414.0,590.0,4913.6,4373.8,-867.3,-626.6,2025-01-29 10:43:42,0.0
-702.0,-102.0,5193.6,4605.8,189.7,-403.6,2025-01-29 10:43:42,0.0
-1058.0,-462.0,5749.6,4868.8,2266.7,136.39999999999998,2025-01-29 10:43:42,0.0
-1946.0,-810.0,6457.6,5171.8,3527.7,632.4,2025-01-29 10:43:42,0.0
-3118.0,-918.0,5965.6,5400.8,3753.7,811.4,2025-01-29 10:43:42,0.0
-4186.0,-14.0,5553.6,5470.8,3188.7,1333.4,2025-01-29 10:43:42,0.0
-4826.0,338.0,4421.6,5754.8,2857.7,1610.4,2025-01-29 10:43:42,0.0
-5878.0,654.0,1833.6000000000004,5329.8,2934.7,1873.4,2025-01-29 10:43:42,0.0
-7406.0,1750.0,-114.39999999999964,4282.8,3115.7,2627.4,2025-01-29 10:43:42,0.0
-8026.0,3198.0,-1562.3999999999996,2741.8,2609.7,3590.4,2025-01-29 10:43:42,0.0
-7066.0,3942.0,-1874.3999999999996,808.8,888.7,4083.4,2025-01-29 10:43:43,0.0
-3966.0,3550.0,-1498.3999999999996,-986.2,-858.3,3237.4,2025-01-29 10:43:43,0.0
-1246.0,2382.0,161.60000000000036,-1745.2,-1821.3,1712.4,2025-01-29 10:43:43,0.0
538.0,1162.0,949.6000000000004,-1658.2,-2741.3,518.4,2025-01-29 10:43:43,0.0
2410.0,-50.0,1665.6000000000004,-1088.2,-3193.3,-357.6,2025-01-29 10:43:43,0.0
4090.0,-1234.0,1961.6000000000004,230.8,-2786.3,-1229.6,2025-01-29 10:43:43,0.0
4458.0,-2298.0,1205.6000000000004,1318.8,-1808.3,-2198.6,2025-01-29 10:43:43,0.0
3494.0,-3130.0,325.60000000000036,1753.8,-16.299999999999997,-2599.6,2025-01-29 10:43:43,0.0
1202.0,-2978.0,1065.6000000000004,2189.8,2724.7,-2167.6,2025-01-29 10:43:43,0.0
-478.0,-1586.0,1121.6000000000004,2676.8,4092.7,-1143.6,2025-01-29 10:43:43,0.0
-1846.0,42.0,1217.6000000000004,2670.8,4040.7,-422.6,2025-01-29 10:43:43,0.0
-2446.0,658.0,1445.6000000000004,1917.8,2631.7,-329.6,2025-01-29 10:43:43,0.0
-2254.0,626.0,1565.6000000000004,996.8,207.7,-847.6,2025-01-29 10:43:43,0.0
-2390.0,38.0,1953.6000000000004,172.8,-2136.3,-1624.6,2025-01-29 10:43:43,0.0
-1778.0,-138.0,2165.6000000000004,2.8000000000000114,-3218.3,-2255.6,2025-01-29 10:43:43,0.0
-742.0,-294.0,1897.6000000000004,-51.19999999999999,-3955.3,-2539.6,2025-01-29 10:43:43,0.0
954.0,-362.0,1537.6000000000004,-293.2,-4015.3,-2770.6,2025-01-29 10:43:43,0.0
2166.0,-534.0,1681.6000000000004,-794.2,-2917.3,-3114.6,2025-01-29 10:43:43,0.0
2498.0,-778.0,1921.6000000000004,-1188.2,-1345.3,-3326.6,2025-01-29 10:43:43,0.0
1998.0,-938.0,2193.6000000000004,-1632.2,511.7,-3272.6,2025-01-29 10:43:43,0.0
1214.0,-1102.0,2857.6000000000004,-2016.2,1868.7,-3005.6,2025-01-29 10:43:43,0.0
162.0,-1078.0,3229.6000000000004,-2218.2,2310.7,-2707.6,2025-01-29 10:43:43,0.0
-446.0,-1206.0,2901.6000000000004,-2281.2,1923.7,-2497.6,2025-01-29 10:43:43,0.0
-1238.0,-1430.0,2681.6000000000004,-2269.2,1569.7,-2393.6,2025-01-29 10:43:43,0.0
-1458.0,-1674.0,2409.6000000000004,-2412.2,1325.7,-2164.6,2025-01-29 10:43:43,0.0
-1634.0,-1982.0,3189.6000000000004,-2441.2,1028.7,-1786.6,2025-01-29 10:43:43,0.0
-1322.0,-1758.0,3881.6000000000004,-2171.2,694.7,-1099.6,2025-01-29 10:43:43,0.0
-998.0,-1330.0,3565.6000000000004,-1987.2,579.7,-495.6,2025-01-29 10:43:43,0.0
-846.0,-818.0,3509.6000000000004,-2135.2,590.7,-241.60000000000002,2025-01-29 10:43:43,0.0
-866.0,-590.0,3565.6000000000004,-2396.2,828.7,106.39999999999998,2025-01-29 10:43:43,0.0
-898.0,-686.0,3909.6000000000004,-2546.2,1132.7,503.4,2025-01-29 10:43:43,0.0
-1358.0,-1410.0,4457.6,-2479.2,935.7,792.4,2025-01-29 10:43:43,0.0
-1838.0,-2162.0,4853.6,-2227.2,99.7,893.4,2025-01-29 10:43:43,0.0
-1950.0,-2310.0,4849.6,-1946.2,-829.3,636.4,2025-01-29 10:43:43,0.0
-1786.0,-2018.0,4313.6,-1798.2,-1549.3,260.4,2025-01-29 10:43:43,0.0
-1534.0,-1174.0,4217.6,-1742.2,-1877.3,-63.60000000000002,2025-01-29 10:43:43,0.0
-1418.0,-634.0,3873.6000000000004,-1799.2,-1886.3,83.39999999999998,2025-01-29 10:43:43,0.0
-966.0,-1170.0,3713.6000000000004,-1903.2,-1406.3,60.39999999999998,2025-01-29 10:43:43,0.0
-1070.0,-1566.0,3869.6000000000004,-2149.2,-1213.3,-413.6,2025-01-29 10:43:43,0.0
-1470.0,-1502.0,4385.6,-2491.2,-1383.3,-952.6,2025-01-29 10:43:43,0.0
-1614.0,-1054.0,4717.6,-2793.2,-1596.3,-1285.6,2025-01-29 10:43:43,0.0
-1574.0,-494.0,4741.6,-3336.2,-1777.3,-1625.6,2025-01-29 10:43:43,0.0
-1494.0,-634.0,4585.6,-4064.2,-1977.3,-2059.6,2025-01-29 10:43:43,0.0
-2178.0,-1514.0,3929.6000000000004,-4119.2,-1652.3,-2420.6,2025-01-29 10:43:43,0.0
-2798.0,-3166.0,4113.6,-3683.2,-751.3,-2888.6,2025-01-29 10:43:43,0.0
-3538.0,-5010.0,4437.6,-2550.2,-334.3,-3523.6,2025-01-29 10:43:43,0.0
-6134.0,-6794.0,4909.6,-1094.2,-603.3,-3004.6,2025-01-29 10:43:43,
-8050.0,-7174.0,4669.6,366.8,-1496.3,-366.6,2025-01-29 10:43:43,0.0
-6150.0,-5022.0,4009.6000000000004,1890.8,-2493.3,2135.4,2025-01-29 10:43:43,0.0
-3878.0,-3182.0,1905.6000000000004,2765.8,-2896.3,2082.4,2025-01-29 10:43:43,0.0
-3018.0,-1610.0,1253.6000000000004,2430.8,-2808.3,1865.4,2025-01-29 10:43:43,0.0
-2406.0,-214.0,1461.6000000000004,2199.8,-2945.3,2440.4,2025-01-29 10:43:43,0.0
-974.0,354.0,633.6000000000004,1952.8,-2596.3,3902.4,2025-01-29 10:43:43,0.0
1686.0,1070.0,-718.3999999999996,1503.8,-1497.3,4442.4,2025-01-29 10:43:43,0.0
3522.0,2250.0,-1022.3999999999996,564.8,868.7,3787.4,2025-01-29 10:43:43,0.0
4218.0,2866.0,-346.39999999999964,-181.2,2625.7,2538.4,2025-01-29 10:43:43,0.0
3478.0,2954.0,425.60000000000036,-693.2,3631.7,1157.4,2025-01-29 10:43:43,0.0
1182.0,2034.0,1033.6000000000004,-931.2,4105.7,419.4,2025-01-29 10:43:43,0.0
-1194.0,1038.0,1669.6000000000004,-784.2,4084.7,464.4,2025-01-29 10:43:43,0.0
-2754.0,-182.0,2109.6000000000004,-568.2,3683.7,886.4,2025-01-29 10:43:43,0.0
-4062.0,-338.0,2633.6000000000004,-308.2,2668.7,1591.4,2025-01-29 10:43:43,0.0
-4714.0,-18.0,3097.6000000000004,46.80000000000001,772.7,2398.4,2025-01-29 10:43:44,0.0
-3746.0,590.0,1905.6000000000004,350.8,-1717.3,3125.4,2025-01-29 10:43:44,0.0
-1770.0,950.0,2141.6000000000004,388.8,-2558.3,3656.4,2025-01-29 10:43:44,0.0
386.0,1054.0,1937.6000000000004,458.8,-2495.3,3433.4,2025-01-29 10:43:44,0.0
1506.0,1250.0,2617.6000000000004,421.8,-1456.3,2965.4,2025-01-29 10:43:44,0.0
1506.0,1134.0,3205.6000000000004,549.8,22.700000000000003,2494.4,2025-01-29 10:43:44,0.0
966.0,998.0,4333.6,823.8,1209.7,2082.4,2025-01-29 10:43:44,0.0
834.0,894.0,4313.6,1211.8,1694.7,1775.4,2025-01-29 10:43:44,0.0
94.0,1294.0,3889.6000000000004,1502.8,1683.7,1656.4,2025-01-29 10:43:44,0.0
-218.0,1726.0,3745.6000000000004,1754.8,1304.7,1481.4,2025-01-29 10:43:44,0.0
-378.0,1910.0,3493.6000000000004,1989.8,978.7,1111.4,2025-01-29 10:43:44,0.0
-406.0,1978.0,3433.6000000000004,2063.8,732.7,667.4,2025-01-29 10:43:44,0.0
-274.0,1766.0,3089.6000000000004,2036.8,721.7,378.4,2025-01-29 10:43:44,0.0
-630.0,1350.0,3401.6000000000004,2136.8,854.7,90.39999999999998,2025-01-29 10:43:44,0.0
-698.0,1066.0,3341.6000000000004,2077.8,888.7,-142.60000000000002,2025-01-29 10:43:44,0.0
-618.0,770.0,3473.6000000000004,2136.8,887.7,-339.6,2025-01-29 10:43:44,0.0
-1126.0,442.0,3661.6000000000004,2379.8,1075.7,-471.6,2025-01-29 10:43:44,0.0
-1270.0,258.0,3805.6000000000004,2665.8,1094.7,-541.6,2025-01-29 10:43:44,0.0
-1458.0,230.0,3897.6000000000004,2932.8,1053.7,-517.6,2025-01-29 10:43:44,0.0
-1302.0,522.0,3965.6000000000004,3328.8,854.7,-567.6,2025-01-29 10:43:44,0.0
-1658.0,614.0,4245.6,3678.8,627.7,-534.6,2025-01-29 10:43:44,0.0
-1694.0,930.0,4201.6,4105.8,458.7,-380.6,2025-01-29 10:43:44,0.0
-1726.0,1218.0,3625.6000000000004,4430.8,5.700000000000003,-129.60000000000002,2025-01-29 10:43:44,0.0
-1406.0,1250.0,4017.6000000000004,4454.8,-302.3,-26.600000000000023,2025-01-29 10:43:44,0.0
-1546.0,1270.0,3909.6000000000004,4499.8,-420.3,-23.600000000000023,2025-01-29 10:43:44,0.0
-1806.0,986.0,4169.6,4676.8,-502.3,56.39999999999998,2025-01-29 10:43:44,0.0
-1910.0,662.0,4685.6,4997.8,-569.3,114.39999999999998,2025-01-29 10:43:44,0.0
-2182.0,170.0,4329.6,4963.8,-881.3,104.39999999999998,2025-01-29 10:43:44,0.0
-2074.0,-222.0,3705.6000000000004,5111.8,-1186.3,37.39999999999998,2025-01-29 10:43:44,0.0
-2190.0,218.0,2273.6000000000004,5159.8,-892.3,89.39999999999998,2025-01-29 10:43:44,0.0
-2178.0,790.0,1101.6000000000004,4632.8,-761.3,196.39999999999998,2025-01-29 10:43:44,0.0
-2926.0,1138.0,-114.39999999999964,3767.8,-624.3,433.4,2025-01-29 10:43:44,0.0
-4374.0,1266.0,-1098.3999999999996,2971.8,244.7,1210.4,2025-01-29 10:43:44,0.0
-5170.0,1822.0,-1594.3999999999996,2146.8,743.7,2713.4,2025-01-29 10:43:44,0.0
-3098.0,1510.0,53.600000000000364,1396.8,-335.3,3344.4,2025-01-29 10:43:44,0.0
182.0,238.0,1741.6000000000004,1221.8,-1092.3,1987.4,2025-01-29 10:43:44,0.0
862.0,-854.0,1769.6000000000004,2187.8,-612.3,-635.6,2025-01-29 10:43:44,0.0
318.0,-834.0,1485.6000000000004,3086.8,-590.3,-1279.6,2025-01-29 10:43:44,0.0
698.0,-1010.0,1773.6000000000004,3480.8,-710.3,-1559.6,2025-01-29 10:43:44,0.0
850.0,-858.0,2129.6000000000004,3399.8,-526.3,-1706.6,2025-01-29 10:43:44,0.0
502.0,-538.0,1597.6000000000004,2944.8,-685.3,-1592.6,2025-01-29 10:43:44,0.0
230.0,-530.0,1341.6000000000004,2360.8,-702.3,-1383.6,2025-01-29 10:43:44,0.0
26.0,-1054.0,1829.6000000000004,2081.8,-26.299999999999997,-1217.6,2025-01-29 10:43:44,0.0
-574.0,-1502.0,2489.6000000000004,2097.8,1082.7,-856.6,2025-01-29 10:43:44,0.0
-918.0,-1694.0,2773.6000000000004,2013.8,1483.7,-704.6,2025-01-29 10:43:44,0.0
-1490.0,-1790.0,2741.6000000000004,1716.8,1261.7,-871.6,2025-01-29 10:43:44,0.0
-2062.0,-1446.0,2721.6000000000004,1569.8,960.7,-1161.6,2025-01-29 10:43:44,0.0
-2146.0,-1138.0,2309.6000000000004,1187.8,372.7,-1369.6,2025-01-29 10:43:44,0.0
-1762.0,-930.0,2125.6000000000004,609.8,-545.3,-1321.6,2025-01-29 10:43:44,0.0
-1070.0,-1166.0,1885.6000000000004,302.8,-1022.3,-1147.6,2025-01-29 10:43:44,0.0
-498.0,-1346.0,1845.6000000000004,-16.19999999999999,-888.3,-1102.6,2025-01-29 10:43:44,0.0
-10.0,-1514.0,2077.6000000000004,-376.2,-671.3,-1121.6,2025-01-29 10:43:44,0.0
-266.0,-1778.0,2513.6000000000004,-782.2,-383.3,-1217.6,2025-01-29 10:43:44,0.0
-526.0,-1538.0,2929.6000000000004,-1158.2,-201.3,-1020.6,2025-01-29 10:43:44,0.0
-482.0,-1770.0,3217.6000000000004,-1454.2,-2.299999999999997,-858.6,2025-01-29 10:43:44,0.0
-638.0,-2030.0,3145.6000000000004,-1646.2,103.7,-784.6,2025-01-29 10:43:44,0.0
-990.0,-2178.0,3109.6000000000004,-1746.2,167.7,-582.6,2025-01-29 10:43:44,0.0
-1198.0,-2046.0,3121.6000000000004,-1709.2,178.7,-262.6,2025-01-29 10:43:44,0.0
-1102.0,-2098.0,3297.6000000000004,-1573.2,70.7,124.39999999999998,2025-01-29 10:43:44,0.0
-690.0,-2186.0,2901.6000000000004,-1287.2,66.7,351.4,2025-01-29 10:43:44,0.0
-674.0,-2478.0,2717.6000000000004,-1031.2,129.7,336.4,2025-01-29 10:43:45,0.0
-990.0,-2186.0,2249.6000000000004,-749.2,685.7,162.39999999999998,2025-01-29 10:43:45,0.0
-1286.0,-1754.0,1973.6000000000004,-522.2,927.7,127.39999999999998,2025-01-29 10:43:45,0.0
-1642.0,-882.0,2561.6000000000004,-517.2,573.7,240.39999999999998,2025-01-29 10:43:45,0.0
-1358.0,-570.0,3053.6000000000004,-669.2,158.7,425.4,2025-01-29 10:43:45,0.0
-946.0,-350.0,3237.6000000000004,-939.2,94.7,486.4,2025-01-29 10:43:45,0.0
-830.0,-274.0,3281.6000000000004,-1251.2,149.7,445.4,2025-01-29 10:43:45,0.0
-1210.0,-510.0,3077.6000000000004,-1652.2,15.700000000000003,432.4,2025-01-29 10:43:45,0.0
-1358.0,-1318.0,3105.6000000000004,-1623.2,-20.299999999999997,452.4,2025-01-29 10:43:45,0.0
-1438.0,-1942.0,2801.6000000000004,-1320.2,216.7,333.4,2025-01-29 10:43:45,0.0
-1426.0,-2282.0,2421.6000000000004,-952.2,429.7,195.39999999999998,2025-01-29 10:43:45,0.0
-1770.0,-1778.0,2373.6000000000004,-647.2,486.7,65.39999999999998,2025-01-29 10:43:45,0.0
-1774.0,-1414.0,2325.6000000000004,-443.2,276.7,1.3999999999999773,2025-01-29 10:43:45,0.0
-1390.0,-1154.0,2393.6000000000004,-504.2,-258.3,-82.60000000000002,2025-01-29 10:43:45,0.0
-1086.0,-1054.0,2957.6000000000004,-525.2,-730.3,-27.600000000000023,2025-01-29 10:43:45,0.0
-342.0,-1242.0,2893.6000000000004,-376.2,-647.3,159.39999999999998,2025-01-29 10:43:45,0.0
146.0,-1358.0,2697.6000000000004,-270.2,-160.3,280.4,2025-01-29 10:43:45,0.0
-70.0,-1566.0,2729.6000000000004,-52.19999999999999,788.7,298.4,2025-01-29 10:43:45,0.0
-474.0,-1430.0,2949.6000000000004,208.8,1552.7,339.4,2025-01-29 10:43:45,0.0
-1134.0,-1166.0,3133.6000000000004,301.8,1760.7,398.4,2025-01-29 10:43:45,0.0
-1770.0,-762.0,3273.6000000000004,245.8,1524.7,417.4,2025-01-29 10:43:45,0.0
-2010.0,-638.0,3021.6000000000004,200.8,898.7,468.4,2025-01-29 10:43:45,0.0
-1934.0,-590.0,2781.6000000000004,253.8,397.7,515.4,2025-01-29 10:43:45,0.0
-1534.0,-554.0,2701.6000000000004,346.8,347.7,399.4,2025-01-29 10:43:45,0.0
-1242.0,-430.0,2501.6000000000004,233.8,129.7,282.4,2025-01-29 10:43:45,0.0
-1090.0,-778.0,2653.6000000000004,144.8,-37.3,293.4,2025-01-29 10:43:45,
-758.0,-686.0,2641.6000000000004,163.8,88.7,275.4,2025-01-29 10:43:45,0.0
-726.0,-610.0,2513.6000000000004,67.80000000000001,369.7,272.4,2025-01-29 10:43:45,0.0
-902.0,-490.0,2965.6000000000004,-35.19999999999999,643.7,184.39999999999998,2025-01-29 10:43:45,0.0
-1498.0,-434.0,3413.6000000000004,15.800000000000011,561.7,219.39999999999998,2025-01-29 10:43:45,0.0
-1426.0,-458.0,3073.6000000000004,64.80000000000001,314.7,237.39999999999998,2025-01-29 10:43:45,0.0
-1450.0,-538.0,3037.6000000000004,-107.19999999999999,90.7,136.39999999999998,2025-01-29 10:43:45,0.0
-1106.0,-694.0,3229.6000000000004,-128.2,74.7,79.39999999999998,2025-01-29 10:43:45,0.0
-1034.0,-522.0,2965.6000000000004,-76.19999999999999,300.7,24.399999999999977,2025-01-29 10:43:45,0.0
-1114.0,-526.0,2789.6000000000004,-119.19999999999999,414.7,34.39999999999998,2025-01-29 10:43:45,0.0
-1202.0,-414.0,2837.6000000000004,-83.19999999999999,426.7,78.39999999999998,2025-01-29 10:43:45,0.0
-1206.0,-538.0,2865.6000000000004,-92.19999999999999,370.7,93.39999999999998,2025-01-29 10:43:45,0.0
-1290.0,-474.0,3017.6000000000004,-39.19999999999999,290.7,166.39999999999998,2025-01-29 10:43:45,0.0
-1114.0,-578.0,2985.6000000000004,1.8000000000000114,263.7,246.39999999999998,2025-01-29 10:43:45,0.0
-1170.0,-586.0,2885.6000000000004,-12.199999999999989,234.7,213.39999999999998,2025-01-29 10:43:45,0.0
-1210.0,-462.0,2893.6000000000004,-4.199999999999989,359.7,198.39999999999998,2025-01-29 10:43:45,0.0
-1154.0,-670.0,3025.6000000000004,-36.19999999999999,422.7,121.39999999999998,2025-01-29 10:43:45,0.0
-1198.0,-670.0,2837.6000000000004,-28.19999999999999,418.7,97.39999999999998,2025-01-29 10:43:45,0.0
-1314.0,-530.0,2857.6000000000004,102.80000000000001,299.7,145.39999999999998,2025-01-29 10:43:45,0.0
-1386.0,-290.0,2677.6000000000004,144.8,211.7,203.39999999999998,2025-01-29 10:43:45,0.0
-1414.0,-334.0,2737.6000000000004,175.8,66.7,247.39999999999998,2025-01-29 10:43:45,0.0
-1234.0,-318.0,2837.6000000000004,212.8,24.700000000000003,284.4,2025-01-29 10:43:45,0.0
-1106.0,-322.0,3033.6000000000004,247.8,102.7,229.39999999999998,2025-01-29 10:43:45,0.0
-1246.0,-354.0,3093.6000000000004,112.80000000000001,89.7,125.39999999999998,2025-01-29 10:43:45,0.0
-1374.0,-346.0,3045.6000000000004,44.80000000000001,-26.299999999999997,128.39999999999998,2025-01-29 10:43:45,0.0
-1162.0,-238.0,2825.6000000000004,77.80000000000001,-45.3,126.39999999999998,2025-01-29 10:43:45,0.0
-1250.0,-54.0,2741.6000000000004,23.80000000000001,14.700000000000003,150.39999999999998,2025-01-29 10:43:45,0.0
-1150.0,-90.0,2557.6000000000004,-11.199999999999989,-88.3,194.39999999999998,2025-01-29 10:43:45,0.0
-1014.0,-38.0,2689.6000000000004,24.80000000000001,-77.3,175.39999999999998,2025-01-29 10:43:45,0.0
-994.0,-258.0,2977.6000000000004,6.800000000000011,1.7000000000000028,141.39999999999998,2025-01-29 10:43:45,0.0
-1090.0,-438.0,3273.6000000000004,68.80000000000001,179.7,121.39999999999998,2025-01-29 10:43:45,0.0
-1042.0,-522.0,3213.6000000000004,191.8,350.7,120.39999999999998,2025-01-29 10:43:45,0.0
-1162.0,-546.0,3137.6000000000004,279.8,425.7,111.39999999999998,2025-01-29 10:43:45,0.0
-1258.0,-430.0,3021.6000000000004,387.8,532.7,117.39999999999998,2025-01-29 10:43:46,0.0
-1346.0,-478.0,3085.6000000000004,443.8,456.7,141.39999999999998,2025-01-29 10:43:46,0.0
-1474.0,-298.0,2941.6000000000004,558.8,330.7,113.39999999999998,2025-01-29 10:43:46,0.0
-1206.0,-310.0,2873.6000000000004,562.8,286.7,86.39999999999998,2025-01-29 10:43:46,0.0
-1086.0,-378.0,2849.6000000000004,551.8,385.7,23.399999999999977,2025-01-29 10:43:46,0.0
-1158.0,-490.0,2737.6000000000004,626.8,401.7,36.39999999999998,2025-01-29 10:43:46,0.0
-978.0,-438.0,2697.6000000000004,672.8,357.7,90.39999999999998,2025-01-29 10:43:46,0.0
-906.0,-514.0,2769.6000000000004,663.8,502.7,60.39999999999998,2025-01-29 10:43:46,0.0
-1462.0,-314.0,2917.6000000000004,771.8,521.7,84.39999999999998,2025-01-29 10:43:46,0.0
-1374.0,-446.0,2669.6000000000004,763.8,272.7,110.39999999999998,2025-01-29 10:43:46,0.0
-1102.0,-250.0,2517.6000000000004,679.8,326.7,-35.60000000000002,2025-01-29 10:43:46,0.0
-1110.0,-250.0,2697.6000000000004,585.8,409.7,-57.60000000000002,2025-01-29 10:43:46,0.0
-1074.0,-274.0,2633.6000000000004,504.8,347.7,-67.60000000000002,2025-01-29 10:43:46,0.0
-1214.0,-66.0,2553.6000000000004,379.8,302.7,-48.60000000000002,2025-01-29 10:43:46,0.0
-1178.0,-166.0,2513.6000000000004,208.8,210.7,-56.60000000000002,2025-01-29 10:43:46,0.0
-1174.0,-538.0,2613.6000000000004,121.80000000000001,197.7,-74.60000000000002,2025-01-29 10:43:46,0.0
-1102.0,-510.0,2577.6000000000004,100.80000000000001,232.7,-26.600000000000023,2025-01-29 10:43:46,0.0
-1226.0,-586.0,2597.6000000000004,77.80000000000001,156.7,31.399999999999977,2025-01-29 10:43:46,0.0
-1126.0,-490.0,2629.6000000000004,83.80000000000001,110.7,46.39999999999998,2025-01-29 10:43:46,0.0
-1014.0,-466.0,2649.6000000000004,88.80000000000001,103.7,37.39999999999998,2025-01-29 10:43:46,0.0
-986.0,-622.0,2925.6000000000004,112.80000000000001,176.7,47.39999999999998,2025-01-29 10:43:46,0.0
-1238.0,-606.0,2677.6000000000004,131.8,234.7,46.39999999999998,2025-01-29 10:43:46,0.0
-1226.0,-634.0,2693.6000000000004,121.80000000000001,29.700000000000003,35.39999999999998,2025-01-29 10:43:46,0.0
-1170.0,-642.0,2641.6000000000004,161.8,-90.3,15.399999999999977,2025-01-29 10:43:46,0.0
-1002.0,-654.0,2677.6000000000004,166.8,-50.3,-13.600000000000023,2025-01-29 10:43:46,0.0
-1118.0,-634.0,2849.6000000000004,155.8,58.7,33.39999999999998,2025-01-29 10:43:46,0.0
-1142.0,-686.0,2809.6000000000004,310.8,150.7,96.39999999999998,2025-01-29 10:43:46,0.0
-1038.0,-578.0,2605.6000000000004,303.8,132.7,68.39999999999998,2025-01-29 10:43:46,0.0
-1134.0,-650.0,2497.6000000000004,211.8,97.7,52.39999999999998,2025-01-29 10:43:46,0.0
-1150.0,-654.0,2697.6000000000004,265.8,123.7,74.39999999999998,2025-01-29 10:43:46,0.0
-1150.0,-710.0,2605.6000000000004,250.8,174.7,57.39999999999998,2025-01-29 10:43:46,0.0
-1074.0,-558.0,2589.6000000000004,224.8,156.7,64.39999999999998,2025-01-29 10:43:46,0.0
-1018.0,-522.0,2557.6000000000004,221.8,94.7,100.39999999999998,2025-01-29 10:43:46,0.0
-998.0,-550.0,2593.6000000000004,200.8,179.7,24.399999999999977,2025-01-29 10:43:46,0.0
-1262.0,-590.0,2641.6000000000004,181.8,120.7,15.399999999999977,2025-01-29 10:43:46,0.0
-1378.0,-506.0,2701.6000000000004,162.8,-4.299999999999997,35.39999999999998,2025-01-29 10:43:46,0.0
-1198.0,-470.0,2385.6000000000004,145.8,-46.3,60.39999999999998,2025-01-29 10:43:46,0.0
-1098.0,-330.0,2617.6000000000004,52.80000000000001,-16.299999999999997,12.399999999999977,2025-01-29 10:43:46,0.0
-986.0,-566.0,2481.6000000000004,-10.199999999999989,56.7,-28.600000000000023,2025-01-29 10:43:46,0.0
-1082.0,-646.0,2693.6000000000004,3.8000000000000114,76.7,0.39999999999997726,2025-01-29 10:43:46,0.0
-1134.0,-866.0,2693.6000000000004,19.80000000000001,-52.3,66.39999999999998,2025-01-29 10:43:46,0.0
-1082.0,-850.0,2713.6000000000004,159.8,-81.3,72.39999999999998,2025-01-29 10:43:46,0.0
-1126.0,-698.0,2665.6000000000004,130.8,-42.3,89.39999999999998,2025-01-29 10:43:46,0.0
-1146.0,-582.0,2849.6000000000004,208.8,15.700000000000003,60.39999999999998,2025-01-29 10:43:46,0.0
-1098.0,-670.0,2901.6000000000004,220.8,18.700000000000003,61.39999999999998,2025-01-29 10:43:46,0.0
-1170.0,-618.0,3017.6000000000004,291.8,91.7,15.399999999999977,2025-01-29 10:43:46,0.0
-1030.0,-614.0,2981.6000000000004,405.8,203.7,33.39999999999998,2025-01-29 10:43:46,0.0
-1194.0,-614.0,2729.6000000000004,452.8,346.7,34.39999999999998,2025-01-29 10:43:46,0.0
-1394.0,-630.0,2837.6000000000004,578.8,218.7,112.39999999999998,2025-01-29 10:43:46,0.0
-1322.0,-754.0,2485.6000000000004,607.8,-25.299999999999997,116.39999999999998,2025-01-29 10:43:46,0.0
-1338.0,-786.0,2945.6000000000004,640.8,-203.3,141.39999999999998,2025-01-29 10:43:46,0.0
-1278.0,-682.0,2901.6000000000004,832.8,-238.3,162.39999999999998,2025-01-29 10:43:46,0.0
-1094.0,-502.0,2809.6000000000004,902.8,-211.3,178.39999999999998,2025-01-29 10:43:46,0.0
-998.0,-502.0,2933.6000000000004,890.8,-54.3,155.39999999999998,2025-01-29 10:43:46,0.0
-1150.0,-598.0,2773.6000000000004,987.8,193.7,178.39999999999998,2025-01-29 10:43:46,0.0
-1190.0,-378.0,2577.6000000000004,923.8,145.7,217.39999999999998,2025-01-29 10:43:46,0.0
-1114.0,-562.0,2705.6000000000004,844.8,22.700000000000003,194.39999999999998,2025-01-29 10:43:46,0.0
-1210.0,-474.0,2853.6000000000004,825.8,-89.3,246.39999999999998,2025-01-29 10:43:46,0.0
-1210.0,-554.0,2681.6000000000004,772.8,-219.3,285.4,2025-01-29 10:43:46,0.0
-1050.0,-602.0,2609.6000000000004,689.8,-195.3,251.39999999999998,2025-01-29 10:43:46,0.0
-1142.0,-638.0,2629.6000000000004,555.8,-87.3,119.39999999999998,2025-01-29 10:43:46,0.0
-1106.0,-550.0,2797.6000000000004,546.8,43.7,115.39999999999998,2025-01-29 10:43:46,0.0
-1202.0,-630.0,2917.6000000000004,438.8,-27.299999999999997,155.39999999999998,2025-01-29 10:43:46,0.0
-1134.0,-562.0,2873.6000000000004,365.8,-133.3,142.39999999999998,2025-01-29 10:43:46,0.0
-1162.0,-454.0,2749.6000000000004,281.8,-155.3,148.39999999999998,2025-01-29 10:43:46,0.0
-1134.0,-594.0,2677.6000000000004,211.8,-129.3,106.39999999999998,2025-01-29 10:43:47,0.0
-1110.0,-646.0,2793.6000000000004,196.8,-21.299999999999997,27.399999999999977,2025-01-29 10:43:47,0.0
-1106.0,-718.0,2925.6000000000004,187.8,19.700000000000003,-23.600000000000023,2025-01-29 10:43:47,
