acceleration_x,acceleration_y,acceleration_z,gyroscope_x,gyroscope_y,gyroscope_z,timestamp,label
71.60000000000036,-92.39999999999998,3.6000000000000227,-17.6,-3.4000000000000057,-20.80000000000001,2025-01-29 15:16:55,0.0
-4.399999999999636,83.60000000000002,-48.39999999999998,-13.600000000000001,-6.400000000000006,-17.80000000000001,2025-01-29 15:16:55,0.0
39.600000000000364,-72.39999999999998,59.60000000000002,-9.600000000000001,53.599999999999994,-28.80000000000001,2025-01-29 15:16:55,0.0
-112.39999999999964,-108.39999999999998,23.600000000000023,28.4,55.599999999999994,-21.80000000000001,2025-01-29 15:16:55,0.0
-76.39999999999964,51.60000000000002,-4.399999999999977,23.4,29.599999999999994,9.199999999999989,2025-01-29 15:16:55,0.0
-32.399999999999636,19.600000000000023,-52.39999999999998,11.399999999999999,-31.400000000000006,4.199999999999989,2025-01-29 15:16:55,0.0
-44.399999999999636,11.600000000000023,3.6000000000000227,-9.600000000000001,-76.4,20.19999999999999,2025-01-29 15:16:55,0.0
111.60000000000036,107.60000000000002,-56.39999999999998,-4.600000000000001,-60.400000000000006,26.19999999999999,2025-01-29 15:16:55,0.0
43.600000000000364,-16.399999999999977,35.60000000000002,11.399999999999999,13.599999999999994,19.19999999999999,2025-01-29 15:16:55,0.0
3.600000000000364,15.600000000000023,35.60000000000002,-19.6,25.599999999999994,10.199999999999989,2025-01-29 15:16:55,0.0
43.600000000000364,39.60000000000002,-156.39999999999998,-47.6,28.599999999999994,-12.800000000000011,2025-01-29 15:16:55,0.0
-16.399999999999636,55.60000000000002,-0.39999999999997726,-56.6,-2.4000000000000057,-24.80000000000001,2025-01-29 15:16:55,0.0
39.600000000000364,43.60000000000002,155.60000000000002,-111.6,100.6,0.19999999999998863,2025-01-29 15:16:55,0.0
-52.399999999999636,11.600000000000023,-8.399999999999977,-115.6,24.599999999999994,-29.80000000000001,2025-01-29 15:16:55,0.0
55.600000000000364,-20.399999999999977,-56.39999999999998,-98.6,-238.4,-7.800000000000011,2025-01-29 15:16:55,0.0
95.60000000000036,35.60000000000002,187.60000000000002,-96.6,-41.400000000000006,14.199999999999989,2025-01-29 15:16:55,0.0
103.60000000000036,19.600000000000023,23.600000000000023,-130.6,178.6,0.19999999999998863,2025-01-29 15:16:55,0.0
-92.39999999999964,71.60000000000002,207.60000000000002,-125.6,186.6,-4.800000000000011,2025-01-29 15:16:55,0.0
-60.399999999999636,-56.39999999999998,239.60000000000002,-103.6,81.6,22.19999999999999,2025-01-29 15:16:55,0.0
-16.399999999999636,-60.39999999999998,259.6,-81.6,8.599999999999994,17.19999999999999,2025-01-29 15:16:55,0.0
-104.39999999999964,-16.399999999999977,39.60000000000002,-103.6,-66.4,-17.80000000000001,2025-01-29 15:16:55,0.0
-16.399999999999636,-68.39999999999998,23.600000000000023,-102.6,-77.4,-15.800000000000011,2025-01-29 15:16:55,0.0
7.600000000000364,91.60000000000002,-44.39999999999998,-84.6,-37.400000000000006,-23.80000000000001,2025-01-29 15:16:55,0.0
-16.399999999999636,-40.39999999999998,51.60000000000002,-86.6,19.599999999999994,-28.80000000000001,2025-01-29 15:16:55,0.0
-36.399999999999636,43.60000000000002,127.60000000000002,-97.6,-5.400000000000006,-33.80000000000001,2025-01-29 15:16:56,0.0
-32.399999999999636,47.60000000000002,171.60000000000002,-87.6,-95.4,-6.800000000000011,2025-01-29 15:16:56,0.0
-60.399999999999636,-44.39999999999998,99.60000000000002,-93.6,-123.4,-5.800000000000011,2025-01-29 15:16:56,0.0
111.60000000000036,-8.399999999999977,211.60000000000002,-79.6,-186.4,1.1999999999999886,2025-01-29 15:16:56,0.0
35.600000000000364,-64.39999999999998,231.60000000000002,-88.6,-103.4,-4.800000000000011,2025-01-29 15:16:56,0.0
111.60000000000036,99.60000000000002,139.60000000000002,-62.6,-38.400000000000006,-0.8000000000000114,2025-01-29 15:16:56,0.0
67.60000000000036,151.60000000000002,59.60000000000002,-167.6,93.6,-33.80000000000001,2025-01-29 15:16:56,0.0
-96.39999999999964,19.600000000000023,83.60000000000002,-172.6,150.6,-34.80000000000001,2025-01-29 15:16:56,0.0
-32.399999999999636,27.600000000000023,67.60000000000002,-92.6,152.6,17.19999999999999,2025-01-29 15:16:56,0.0
-48.399999999999636,151.60000000000002,255.60000000000002,-70.6,50.599999999999994,20.19999999999999,2025-01-29 15:16:56,0.0
27.600000000000364,39.60000000000002,91.60000000000002,-101.6,-22.400000000000006,-1.8000000000000114,2025-01-29 15:16:56,0.0
-76.39999999999964,31.600000000000023,15.600000000000023,-93.6,-117.4,19.19999999999999,2025-01-29 15:16:56,0.0
-28.399999999999636,139.60000000000002,35.60000000000002,-89.6,-76.4,4.199999999999989,2025-01-29 15:16:56,0.0
67.60000000000036,59.60000000000002,11.600000000000023,-57.6,20.599999999999994,-46.80000000000001,2025-01-29 15:16:56,0.0
-20.399999999999636,67.60000000000002,43.60000000000002,-72.6,14.599999999999994,-51.80000000000001,2025-01-29 15:16:56,0.0
-8.399999999999636,119.60000000000002,263.6,-96.6,-37.400000000000006,-33.80000000000001,2025-01-29 15:16:56,0.0
27.600000000000364,123.60000000000002,211.60000000000002,-117.6,-72.4,4.199999999999989,2025-01-29 15:16:56,0.0
99.60000000000036,95.60000000000002,223.60000000000002,-138.6,97.6,-30.80000000000001,2025-01-29 15:16:56,0.0
-140.39999999999964,-128.39999999999998,-268.4,-168.6,-60.400000000000006,-23.80000000000001,2025-01-29 15:16:56,0.0
-76.39999999999964,-48.39999999999998,-36.39999999999998,-107.6,-214.4,-3.8000000000000114,2025-01-29 15:16:56,0.0
99.60000000000036,-108.39999999999998,143.60000000000002,-88.6,-115.4,37.19999999999999,2025-01-29 15:16:56,0.0
31.600000000000364,91.60000000000002,19.600000000000023,-37.6,-20.400000000000006,29.19999999999999,2025-01-29 15:16:56,0.0
51.600000000000364,91.60000000000002,159.60000000000002,-86.6,-42.400000000000006,0.19999999999998863,2025-01-29 15:16:56,0.0
123.60000000000036,139.60000000000002,39.60000000000002,-105.6,58.599999999999994,1.1999999999999886,2025-01-29 15:16:56,0.0
-12.399999999999636,11.600000000000023,91.60000000000002,-90.6,110.6,-2.8000000000000114,2025-01-29 15:16:56,0.0
-24.399999999999636,87.60000000000002,27.600000000000023,-116.6,128.6,8.199999999999989,2025-01-29 15:16:56,0.0
-88.39999999999964,35.60000000000002,-44.39999999999998,-88.6,30.599999999999994,-19.80000000000001,2025-01-29 15:16:56,0.0
-68.39999999999964,-56.39999999999998,-116.39999999999998,-133.6,-83.4,21.19999999999999,2025-01-29 15:16:56,0.0
67.60000000000036,103.60000000000002,-48.39999999999998,-168.6,-111.4,20.19999999999999,2025-01-29 15:16:56,0.0
159.60000000000036,31.600000000000023,-48.39999999999998,-212.6,-42.400000000000006,24.19999999999999,2025-01-29 15:16:56,0.0
87.60000000000036,27.600000000000023,27.600000000000023,-229.6,80.6,0.19999999999998863,2025-01-29 15:16:56,0.0
131.60000000000036,31.600000000000023,59.60000000000002,-143.6,101.6,32.19999999999999,2025-01-29 15:16:56,0.0
199.60000000000036,39.60000000000002,27.600000000000023,-142.6,147.6,0.19999999999998863,2025-01-29 15:16:56,0.0
155.60000000000036,71.60000000000002,159.60000000000002,-188.6,183.6,-39.80000000000001,2025-01-29 15:16:56,0.0
19.600000000000364,59.60000000000002,135.60000000000002,-216.6,140.6,-32.80000000000001,2025-01-29 15:16:56,0.0
95.60000000000036,43.60000000000002,-148.39999999999998,-193.6,140.6,-1.8000000000000114,2025-01-29 15:16:56,0.0
47.600000000000364,63.60000000000002,123.60000000000002,-171.6,191.6,46.19999999999999,2025-01-29 15:16:56,0.0
-52.399999999999636,203.60000000000002,111.60000000000002,-179.6,215.6,56.19999999999999,2025-01-29 15:16:56,0.0
-56.399999999999636,287.6,-52.39999999999998,-202.6,186.6,43.19999999999999,2025-01-29 15:16:56,0.0
-152.39999999999964,339.6,-136.39999999999998,-268.6,130.6,82.19999999999999,2025-01-29 15:16:56,0.0
147.60000000000036,483.6,-44.39999999999998,-349.6,170.6,68.19999999999999,2025-01-29 15:16:56,0.0
159.60000000000036,311.6,15.600000000000023,-387.6,255.6,33.19999999999999,2025-01-29 15:16:56,0.0
75.60000000000036,363.6,-140.39999999999998,-411.6,299.6,34.19999999999999,2025-01-29 15:16:56,0.0
107.60000000000036,191.60000000000002,-8.399999999999977,-404.6,320.6,33.19999999999999,2025-01-29 15:16:56,0.0
83.60000000000036,235.60000000000002,35.60000000000002,-418.6,425.6,4.199999999999989,2025-01-29 15:16:56,0.0
191.60000000000036,259.6,-48.39999999999998,-430.6,620.6,-6.800000000000011,2025-01-29 15:16:56,0.0
183.60000000000036,391.6,-136.39999999999998,-463.6,700.6,-79.80000000000001,2025-01-29 15:16:56,0.0
183.60000000000036,183.60000000000002,-316.4,-489.6,445.6,-132.8,2025-01-29 15:16:56,0.0
-40.399999999999636,95.60000000000002,-196.39999999999998,-472.6,380.6,-152.8,2025-01-29 15:16:56,0.0
-68.39999999999964,-28.399999999999977,-72.39999999999998,-401.6,409.6,-112.80000000000001,2025-01-29 15:16:56,0.0
15.600000000000364,-312.4,-344.4,-320.6,345.6,-129.8,2025-01-29 15:16:56,0.0
-132.39999999999964,-596.4,-288.4,-173.6,126.6,-145.8,2025-01-29 15:16:56,0.0
-4.399999999999636,-836.4,-308.4,152.4,116.6,-124.80000000000001,2025-01-29 15:16:56,0.0
395.60000000000036,-876.4,-188.39999999999998,467.4,405.6,-168.8,2025-01-29 15:16:56,0.0
755.6000000000004,-672.4,-360.4,724.4,744.6,-311.8,2025-01-29 15:16:56,0.0
835.6000000000004,-308.4,-504.4,925.4,1278.6,-536.8,2025-01-29 15:16:56,0.0
715.6000000000004,15.600000000000023,-464.4,955.4,1789.6,-687.8,2025-01-29 15:16:56,0.0
483.60000000000036,463.6,-496.4,862.4,2252.6,-794.8,2025-01-29 15:16:56,0.0
423.60000000000036,1147.6,31.600000000000023,665.4,2584.6,-819.8,2025-01-29 15:16:56,0.0
147.60000000000036,1695.6,59.60000000000002,384.4,2683.6,-899.8,2025-01-29 15:16:56,0.0
-384.39999999999964,1875.6,7.600000000000023,106.4,2318.6,-962.8,2025-01-29 15:16:56,0.0
-856.3999999999996,1683.6,131.60000000000002,-346.6,1462.6,-951.8,2025-01-29 15:16:56,0.0
-816.3999999999996,1835.6,579.6,-777.6,576.6,-922.8,2025-01-29 15:16:56,0.0
-720.3999999999996,1827.6,691.6,-978.6,-151.4,-891.8,2025-01-29 15:16:57,0.0
-664.3999999999996,1967.6,571.6,-1124.6,-698.4,-981.8,2025-01-29 15:16:57,0.0
-704.3999999999996,2435.6,291.6,-1443.6,-1140.4,-1027.8,2025-01-29 15:16:57,0.0
-588.3999999999996,2419.6,71.60000000000002,-1965.6,-1591.4,-1038.8,2025-01-29 15:16:57,0.0
-436.39999999999964,2019.6,331.6,-2387.6,-1804.4,-1104.8,2025-01-29 15:16:57,0.0
-332.39999999999964,1379.6,415.6,-2581.6,-1663.4,-1247.8,2025-01-29 15:16:57,0.0
-332.39999999999964,843.6,243.60000000000002,-2612.6,-1611.4,-1347.8,2025-01-29 15:16:57,0.0
-432.39999999999964,343.6,-72.39999999999998,-2613.6,-1762.4,-1330.8,2025-01-29 15:16:57,0.0
-112.39999999999964,-528.4,-0.39999999999997726,-2525.6,-2136.4,-1347.8,2025-01-29 15:16:57,0.0
-56.399999999999636,-1356.4,35.60000000000002,-2084.6,-2245.4,-1534.8,2025-01-29 15:16:57,0.0
175.60000000000036,-2184.4,-164.39999999999998,-1525.6,-2157.4,-1801.8,2025-01-29 15:16:57,0.0
287.60000000000036,-2848.4,291.6,-747.6,-2144.4,-2012.8,2025-01-29 15:16:57,0.0
279.60000000000036,-3396.4,807.6,-103.6,-2196.4,-1938.8,2025-01-29 15:16:57,
175.60000000000036,-3496.4,1491.6,604.4,-2222.4,-1637.8,2025-01-29 15:16:57,0.0
199.60000000000036,-3212.4,1411.6,1240.4,-2171.4,-1212.8,2025-01-29 15:16:57,0.0
283.60000000000036,-2612.4,1867.6,1403.4,-2105.4,-881.8,2025-01-29 15:16:57,0.0
459.60000000000036,-952.4,2703.6,1217.4,-1898.4,-811.8,2025-01-29 15:16:57,0.0
367.60000000000036,515.6,2175.6,294.4,-1712.4,-687.8,2025-01-29 15:16:57,0.0
271.60000000000036,927.6,1067.6,-815.6,-1123.4,-955.8,2025-01-29 15:16:57,0.0
575.6000000000004,483.6,603.6,-2253.6,-403.4,-1570.8,2025-01-29 15:16:57,0.0
955.6000000000004,-776.4,1135.6,-3287.6,402.6,-2431.8,2025-01-29 15:16:57,0.0
551.6000000000004,-2016.4,2327.6,-3482.6,744.6,-2823.8,2025-01-29 15:16:57,0.0
283.60000000000036,-3004.4,3175.6,-2873.6,193.6,-2385.8,2025-01-29 15:16:57,0.0
295.60000000000036,-3132.4,3423.6,-1966.6,-514.4,-1688.8,2025-01-29 15:16:57,0.0
699.6000000000004,-3128.4,2867.6,-1365.6,-892.4,-1237.8,2025-01-29 15:16:57,0.0
983.6000000000004,-2584.4,2531.6,-1383.6,-1070.4,-1204.8,2025-01-29 15:16:57,0.0
1115.6000000000004,-1684.4,2871.6,-1539.6,-1323.4,-1177.8,2025-01-29 15:16:57,0.0
1043.6000000000004,-1108.4,2967.6,-1599.6,-1442.4,-1077.8,2025-01-29 15:16:57,0.0
839.6000000000004,-760.4,2807.6,-1892.6,-1660.4,-731.8,2025-01-29 15:16:57,0.0
839.6000000000004,-772.4,3083.6,-2076.6,-1599.4,-383.8,2025-01-29 15:16:57,0.0
927.6000000000004,-1088.4,2783.6,-2373.6,-1293.4,-134.8,2025-01-29 15:16:57,0.0
651.6000000000004,-1268.4,3183.6,-2584.6,-691.4,-29.80000000000001,2025-01-29 15:16:57,0.0
635.6000000000004,-1568.4,2903.6,-2978.6,-144.4,-134.8,2025-01-29 15:16:57,0.0
87.60000000000036,-2004.4,2795.6,-3307.6,123.6,-107.80000000000001,2025-01-29 15:16:57,0.0
-488.39999999999964,-2128.4,2991.6,-3481.6,-87.4,268.2,2025-01-29 15:16:57,0.0
-620.3999999999996,-2268.4,2955.6,-3481.6,-251.4,518.2,2025-01-29 15:16:57,0.0
-432.39999999999964,-2484.4,3019.6,-3491.6,-402.4,324.2,2025-01-29 15:16:57,0.0
-592.3999999999996,-2420.4,3527.6,-3728.6,-850.4,-170.8,2025-01-29 15:16:57,0.0
-1052.3999999999996,-2368.4,4387.6,-3428.6,-1746.4,-148.8,2025-01-29 15:16:57,0.0
-1052.3999999999996,-2660.4,4763.6,-2956.6,-2514.4,250.2,2025-01-29 15:16:57,0.0
-508.39999999999964,-2844.4,4407.6,-2725.6,-2735.4,313.2,2025-01-29 15:16:57,0.0
119.60000000000036,-2564.4,3387.6,-2815.6,-2575.4,175.2,2025-01-29 15:16:57,0.0
95.60000000000036,-2448.4,3155.6,-3439.6,-2297.4,-55.80000000000001,2025-01-29 15:16:57,0.0
335.60000000000036,-3284.4,4087.6,-4227.6,-1351.4,-277.8,2025-01-29 15:16:57,0.0
-404.39999999999964,-4200.4,6219.6,-4553.6,115.6,28.19999999999999,2025-01-29 15:16:57,0.0
-1448.3999999999996,-5376.4,5751.6,-3429.6,2062.6,613.2,2025-01-29 15:16:57,0.0
-2736.3999999999996,-5688.4,3003.6,-2910.6,3444.6,510.2,2025-01-29 15:16:57,0.0
-2960.3999999999996,-5416.4,3447.6,-2649.6,3423.6,-858.8,2025-01-29 15:16:57,0.0
-3876.3999999999996,-4984.4,5195.6,-1693.6,1600.6,-2735.8,2025-01-29 15:16:57,0.0
-6152.4,-3968.4,5203.6,-91.6,-2591.4,-3099.8,2025-01-29 15:16:57,0.0
-7016.4,-2472.4,3323.6,1373.4,-6695.4,-1376.8,2025-01-29 15:16:57,0.0
-6768.4,-1412.4,719.6,2245.4,-9916.4,1190.2,2025-01-29 15:16:57,0.0
-4632.4,-64.39999999999998,-1256.4,2726.4,-11662.4,3142.2,2025-01-29 15:16:57,0.0
-828.3999999999996,-780.4,-3524.4,2637.4,-11313.4,3880.2,2025-01-29 15:16:57,0.0
1447.6000000000004,-1088.4,-4776.4,1628.4,-9093.4,3995.2,2025-01-29 15:16:57,0.0
3631.6000000000004,-636.4,-4792.4,-78.6,-3950.4,3458.2,2025-01-29 15:16:57,0.0
3787.6000000000004,315.6,-4012.4,-1558.6,1041.6,2311.2,2025-01-29 15:16:57,0.0
1943.6000000000004,1599.6,-1180.4,-2337.6,4818.6,1893.2,2025-01-29 15:16:57,0.0
715.6000000000004,2191.6,1267.6,-1848.6,6285.6,2219.2,2025-01-29 15:16:57,0.0
-756.3999999999996,1467.6,2227.6,-660.6,6437.6,2851.2,2025-01-29 15:16:57,0.0
-1156.3999999999996,-308.4,2259.6,7.399999999999999,5378.6,3509.2,2025-01-29 15:16:58,0.0
-820.3999999999996,-1740.4,2591.6,841.4,3548.6,3922.2,2025-01-29 15:16:58,0.0
-192.39999999999964,-2360.4,2087.6,1598.4,1933.6,3677.2,2025-01-29 15:16:58,0.0
239.60000000000036,-2276.4,2251.6,2504.4,687.6,3184.2,2025-01-29 15:16:58,0.0
35.600000000000364,-672.4,1943.6,3209.4,-389.4,3030.2,2025-01-29 15:16:58,0.0
843.6000000000004,495.6,1091.6,3866.4,-1390.4,3078.2,2025-01-29 15:16:58,0.0
1419.6000000000004,1199.6,1031.6,4144.4,-2167.4,3185.2,2025-01-29 15:16:58,0.0
2151.6000000000004,1347.6,947.6,3954.4,-2201.4,3060.2,2025-01-29 15:16:58,0.0
2907.6000000000004,1619.6,1423.6,3685.4,-1075.4,2613.2,2025-01-29 15:16:58,0.0
2719.6000000000004,1499.6,1347.6,3451.4,708.6,2206.2,2025-01-29 15:16:58,0.0
2131.6000000000004,1371.6,1327.6,3260.4,2265.6,1963.2,2025-01-29 15:16:58,0.0
1491.6000000000004,1543.6,1691.6,3106.4,2843.6,1934.2,2025-01-29 15:16:58,0.0
1255.6000000000004,1543.6,2127.6,3064.4,2624.6,1741.2,2025-01-29 15:16:58,0.0
1363.6000000000004,1707.6,1915.6,3016.4,1726.6,1364.2,2025-01-29 15:16:58,0.0
1195.6000000000004,1719.6,2339.6,2821.4,486.6,770.2,2025-01-29 15:16:58,0.0
1091.6000000000004,1435.6,2747.6,2731.4,-507.4,296.2,2025-01-29 15:16:58,0.0
1887.6000000000004,1175.6,3187.6,2786.4,-757.4,-122.80000000000001,2025-01-29 15:16:58,0.0
2239.6000000000004,1127.6,3575.6,2884.4,-771.4,-586.8,2025-01-29 15:16:58,0.0
2175.6000000000004,1079.6,4107.6,3017.4,-509.4,-956.8,2025-01-29 15:16:58,0.0
1887.6000000000004,795.6,4167.6,3232.4,-229.4,-1275.8,2025-01-29 15:16:58,0.0
1459.6000000000004,487.6,4199.6,3382.4,-276.4,-1613.8,2025-01-29 15:16:58,0.0
1623.6000000000004,1051.6,3903.6,3594.4,-615.4,-1822.8,2025-01-29 15:16:58,0.0
595.6000000000004,1915.6,3523.6,3687.4,-1027.4,-1815.8,2025-01-29 15:16:58,0.0
315.60000000000036,2351.6,1275.6,3615.4,-1331.4,-1379.8,2025-01-29 15:16:58,0.0
583.6000000000004,2591.6,-84.39999999999998,3224.4,-559.4,-885.8,2025-01-29 15:16:58,0.0
655.6000000000004,2059.6,-1212.4,2380.4,946.6,-593.8,2025-01-29 15:16:58,0.0
-520.3999999999996,2395.6,179.60000000000002,1775.4,3707.6,140.2,2025-01-29 15:16:58,0.0
-2092.3999999999996,2907.6,2667.6,2510.4,6341.6,1445.2,2025-01-29 15:16:58,0.0
-2844.3999999999996,1215.6,5495.6,3349.4,8042.6,2278.2,2025-01-29 15:16:58,0.0
-4112.4,-1428.4,5987.6,3751.4,8809.6,2045.2,2025-01-29 15:16:58,0.0
-5372.4,-2560.4,3135.6,4223.4,8784.6,1952.2,2025-01-29 15:16:58,0.0
-6480.4,-536.4,2123.6,5486.4,6304.6,2538.2,2025-01-29 15:16:58,0.0
-6896.4,3147.6,-252.39999999999998,6623.4,2300.6,3802.2,2025-01-29 15:16:58,0.0
-6884.4,5959.6,-3068.4,4967.4,306.6,4838.2,2025-01-29 15:16:58,0.0
-5456.4,7587.6,-5152.4,706.4,-159.4,5134.2,2025-01-29 15:16:58,0.0
-2784.3999999999996,7459.6,-3784.4,-2765.6,-1466.4,3896.2,2025-01-29 15:16:58,0.0
459.60000000000036,5319.6,-1364.4,-4073.6,-4287.4,1500.2,2025-01-29 15:16:58,0.0
2359.6000000000004,1155.6,-928.4,-5083.6,-9167.4,-1132.8,2025-01-29 15:16:58,0.0
3179.6000000000004,-752.4,-1220.4,-5170.6,-13107.4,-2376.8,2025-01-29 15:16:58,0.0
2547.6000000000004,-2548.4,-2076.4,-4248.6,-14085.4,-2431.8,2025-01-29 15:16:58,0.0
1555.6000000000004,-5296.4,-2908.4,-2795.6,-8723.4,-1212.8,2025-01-29 15:16:58,0.0
2067.6000000000004,-4308.4,-2192.4,-881.6,1575.6,-366.8,2025-01-29 15:16:58,0.0
1867.6000000000004,-2296.4,-2376.4,942.4,9674.6,-808.8,2025-01-29 15:16:58,0.0
2011.6000000000004,207.60000000000002,-1556.4,1416.4,14154.6,-1603.8,2025-01-29 15:16:58,0.0
1347.6000000000004,2227.6,63.60000000000002,1165.4,15982.6,-2800.8,2025-01-29 15:16:58,0.0
211.60000000000036,3211.6,135.60000000000002,152.4,14557.6,-3631.8,2025-01-29 15:16:58,0.0
-1540.3999999999996,2587.6,-780.4,-1664.6,9706.6,-4053.8,2025-01-29 15:16:58,0.0
-1908.3999999999996,1483.6,-1844.4,-3777.6,2515.6,-4226.8,2025-01-29 15:16:58,0.0
-1956.3999999999996,-276.4,-620.4,-4782.6,-4333.4,-4277.8,2025-01-29 15:16:58,0.0
-284.39999999999964,-1304.4,-908.4,-4727.6,-8398.4,-3613.8,2025-01-29 15:16:58,0.0
1563.6000000000004,-1776.4,-220.39999999999998,-4691.6,-10273.4,-2928.8,2025-01-29 15:16:58,0.0
3495.6000000000004,-1540.4,-16.399999999999977,-4556.6,-10357.4,-2827.8,2025-01-29 15:16:58,0.0
3583.6000000000004,-1164.4,327.6,-4366.6,-7904.4,-2715.8,2025-01-29 15:16:58,
4083.6000000000004,-996.4,11.600000000000023,-3982.6,-3442.4,-2491.8,2025-01-29 15:16:58,0.0
3303.6000000000004,-1144.4,479.6,-3387.6,1794.6,-2376.8,2025-01-29 15:16:58,0.0
2727.6000000000004,-1568.4,727.6,-3006.6,4715.6,-2136.8,2025-01-29 15:16:58,0.0
1559.6000000000004,-1828.4,1387.6,-2742.6,4907.6,-1976.8,2025-01-29 15:16:58,0.0
343.60000000000036,-1908.4,1807.6,-2445.6,4071.6,-1668.8,2025-01-29 15:16:58,0.0
-588.3999999999996,-1716.4,1891.6,-1866.6,2534.6,-972.8,2025-01-29 15:16:58,0.0
-1008.3999999999996,-1064.4,2275.6,-1103.6,677.6,306.2,2025-01-29 15:16:58,0.0
-12.399999999999636,-604.4,1639.6,-485.6,-693.4,1329.2,2025-01-29 15:16:59,0.0
603.6000000000004,-60.39999999999998,1703.6,-649.6,-1532.4,1961.2,2025-01-29 15:16:59,0.0
1815.6000000000004,255.60000000000002,1615.6,-1166.6,-1933.4,2013.2,2025-01-29 15:16:59,0.0
1899.6000000000004,539.6,1643.6,-1629.6,-1921.4,1872.2,2025-01-29 15:16:59,0.0
1623.6000000000004,363.6,1443.6,-2197.6,-1628.4,1941.2,2025-01-29 15:16:59,0.0
1779.6000000000004,-204.39999999999998,1643.6,-2617.6,-1253.4,1935.2,2025-01-29 15:16:59,0.0
1567.6000000000004,-652.4,1579.6,-2886.6,-574.4,1709.2,2025-01-29 15:16:59,0.0
1223.6000000000004,-896.4,1071.6,-3355.6,518.6,1381.2,2025-01-29 15:16:59,0.0
519.6000000000004,-864.4,907.6,-3858.6,1615.6,743.2,2025-01-29 15:16:59,0.0
-92.39999999999964,-376.4,627.6,-4557.6,2170.6,-178.8,2025-01-29 15:16:59,0.0
-904.3999999999996,655.6,647.6,-5142.6,1740.6,-972.8,2025-01-29 15:16:59,0.0
-1636.3999999999996,427.6,1855.6,-5844.6,849.6,-1833.8,2025-01-29 15:16:59,0.0
-2268.3999999999996,-1368.4,4011.6,-6437.6,329.6,-2775.8,2025-01-29 15:16:59,0.0
-3560.3999999999996,-2984.4,5535.6,-6461.6,-58.400000000000006,-3191.8,2025-01-29 15:16:59,0.0
-4380.4,-3932.4,5595.6,-5615.6,-571.4,-2472.8,2025-01-29 15:16:59,0.0
-4628.4,-4168.4,2623.6,-4296.6,40.599999999999994,-1922.8,2025-01-29 15:16:59,0.0
-3896.3999999999996,-3860.4,823.6,-3653.6,369.6,-2507.8,2025-01-29 15:16:59,0.0
-2920.3999999999996,-4348.4,2647.6,-2715.6,-598.4,-4104.8,2025-01-29 15:16:59,0.0
-3960.3999999999996,-4668.4,3503.6,-1389.6,-1975.4,-5177.8,2025-01-29 15:16:59,0.0
-5764.4,-4840.4,4011.6,222.4,-3568.4,-4856.8,2025-01-29 15:16:59,0.0
-6316.4,-4364.4,3619.6,2641.4,-5585.4,-2655.8,2025-01-29 15:16:59,0.0
-6260.4,-2660.4,1991.6,4439.4,-8194.4,788.2,2025-01-29 15:16:59,0.0
-3500.3999999999996,-336.4,-792.4,5077.4,-10873.4,3416.2,2025-01-29 15:16:59,0.0
3.600000000000364,1011.6,-3844.4,4556.4,-13636.4,5425.2,2025-01-29 15:16:59,0.0
3543.6000000000004,823.6,-6768.4,3163.4,-14152.4,5465.2,2025-01-29 15:16:59,0.0
6419.6,2043.6,-6460.4,732.4,-10606.4,3360.2,2025-01-29 15:16:59,0.0
6755.6,3263.6,-5760.4,-1807.6,-880.4,-361.8,2025-01-29 15:16:59,0.0
2571.6000000000004,2527.6,-3628.4,-2856.6,8187.6,-1515.8,2025-01-29 15:16:59,0.0
-384.39999999999964,1123.6,155.60000000000002,-1872.6,13615.6,-619.8,2025-01-29 15:16:59,0.0
-2140.3999999999996,-220.39999999999998,1731.6,-1222.6,15021.6,718.2,2025-01-29 15:16:59,0.0
-3248.3999999999996,-1436.4,3591.6,-387.6,11339.6,1947.2,2025-01-29 15:16:59,0.0
-3836.3999999999996,-2016.4,3539.6,1096.4,5095.6,3054.2,2025-01-29 15:16:59,0.0
-2828.3999999999996,-1836.4,1303.6,3286.4,-3883.4,3856.2,2025-01-29 15:16:59,0.0
-564.3999999999996,-1220.4,-92.39999999999998,4117.4,-8372.4,3945.2,2025-01-29 15:16:59,0.0
1007.6000000000004,-604.4,719.6,4541.4,-9749.4,3822.2,2025-01-29 15:16:59,0.0
2875.6000000000004,271.6,323.6,4972.4,-9438.4,3500.2,2025-01-29 15:16:59,0.0
4155.6,1103.6,611.6,5407.4,-7764.4,3082.2,2025-01-29 15:16:59,0.0
4783.6,1663.6,403.6,5525.4,-4260.4,2609.2,2025-01-29 15:16:59,0.0
4887.6,1883.6,303.6,5188.4,1046.6,1891.2,2025-01-29 15:16:59,0.0
3735.6000000000004,1907.6,795.6,4599.4,5697.6,1102.2,2025-01-29 15:16:59,0.0
2243.6000000000004,2063.6,2159.6,4330.4,7697.6,699.2,2025-01-29 15:16:59,0.0
983.6000000000004,1987.6,2379.6,4145.4,7243.6,625.2,2025-01-29 15:16:59,0.0
199.60000000000036,1875.6,2423.6,3872.4,4305.6,574.2,2025-01-29 15:16:59,0.0
383.60000000000036,1883.6,2231.6,3548.4,334.6,-2.8000000000000114,2025-01-29 15:16:59,0.0
711.6000000000004,1995.6,2123.6,2888.4,-2137.4,-740.8,2025-01-29 15:16:59,0.0
787.6000000000004,1611.6,2935.6,2243.4,-3294.4,-1349.8,2025-01-29 15:16:59,0.0
439.60000000000036,923.6,3703.6,1956.4,-3791.4,-1632.8,2025-01-29 15:16:59,0.0
911.6000000000004,603.6,4099.6,2087.4,-3772.4,-1724.8,2025-01-29 15:16:59,0.0
1079.6000000000004,843.6,3715.6,2217.4,-3842.4,-1600.8,2025-01-29 15:16:59,0.0
1435.6000000000004,1891.6,2851.6,2017.4,-3907.4,-1359.8,2025-01-29 15:16:59,0.0
1567.6000000000004,2499.6,2171.6,2020.4,-3150.4,-1207.8,2025-01-29 15:16:59,0.0
1187.6000000000004,2459.6,2183.6,1989.4,-425.4,-709.8,2025-01-29 15:16:59,0.0
651.6000000000004,1039.6,2867.6,2228.4,2608.6,108.19999999999999,2025-01-29 15:16:59,0.0
199.60000000000036,-360.4,3687.6,2886.4,4474.6,706.2,2025-01-29 15:16:59,0.0
-472.39999999999964,-588.4,4379.6,3737.4,4604.6,894.2,2025-01-29 15:16:59,0.0
-1308.3999999999996,103.60000000000002,5419.6,4513.4,3039.6,1110.2,2025-01-29 15:16:59,0.0
-2400.3999999999996,791.6,5591.6,5208.4,648.6,1893.2,2025-01-29 15:16:59,0.0
-1820.3999999999996,1539.6,4763.6,5735.4,-1302.4,2639.2,2025-01-29 15:16:59,0.0
-1148.3999999999996,2219.6,3067.6,5949.4,-1249.4,2961.2,2025-01-29 15:16:59,0.0
-1096.3999999999996,2567.6,1455.6,5773.4,1595.6,2796.2,2025-01-29 15:16:59,0.0
-2436.3999999999996,4331.6,223.60000000000002,5486.4,5667.6,2461.2,2025-01-29 15:16:59,0.0
-4528.4,5915.6,-1580.4,4031.4,8746.6,3141.2,2025-01-29 15:17:00,0.0
-5540.4,5835.6,-2780.4,1649.4,9791.6,3703.2,2025-01-29 15:17:00,0.0
-5784.4,5703.6,-3116.4,-806.6,8863.6,3218.2,2025-01-29 15:17:00,0.0
-4912.4,4727.6,-2872.4,-2612.6,5183.6,1844.2,2025-01-29 15:17:00,0.0
-3168.3999999999996,2523.6,-2844.4,-3547.6,-237.4,-417.8,2025-01-29 15:17:00,0.0
-1612.3999999999996,-596.4,-3300.4,-3847.6,-6222.4,-2514.8,2025-01-29 15:17:00,0.0
-64.39999999999964,-2368.4,-3016.4,-3286.6,-11058.4,-3549.8,2025-01-29 15:17:00,0.0
1107.6000000000004,-4092.4,-2384.4,-2578.6,-13492.4,-3459.8,2025-01-29 15:17:00,0.0
2119.6000000000004,-4972.4,-1768.4,-1826.6,-12192.4,-2826.8,2025-01-29 15:17:00,0.0
2647.6000000000004,-5300.4,-920.4,-438.6,-7888.4,-2285.8,2025-01-29 15:17:00,0.0
2903.6000000000004,-2752.4,167.60000000000002,1813.4,42.599999999999994,-1967.8,2025-01-29 15:17:00,0.0
2475.6000000000004,-64.39999999999998,-1428.4,3207.4,7697.6,-2016.8,2025-01-29 15:17:00,0.0
2299.6000000000004,1639.6,-1744.4,2696.4,12292.6,-2625.8,2025-01-29 15:17:00,0.0
1403.6000000000004,2115.6,-964.4,1413.4,12918.6,-3531.8,2025-01-29 15:17:00,0.0
-172.39999999999964,1475.6,-480.4,-166.6,10788.6,-4121.8,2025-01-29 15:17:00,0.0
-1592.3999999999996,147.60000000000002,-140.39999999999998,-1301.6,6234.6,-4203.8,2025-01-29 15:17:00,0.0
-2252.3999999999996,-964.4,-320.4,-1625.6,761.6,-3420.8,2025-01-29 15:17:00,0.0
-624.3999999999996,-1680.4,-1572.4,-1315.6,-3547.4,-2312.8,2025-01-29 15:17:00,0.0
-60.399999999999636,-1604.4,-68.39999999999998,-1410.6,-6013.4,-1579.8,2025-01-29 15:17:00,0.0
795.6000000000004,-1364.4,-356.4,-1878.6,-5974.4,-1553.8,2025-01-29 15:17:00,0.0
2271.6000000000004,-896.4,-1088.4,-2326.6,-4024.4,-1904.8,2025-01-29 15:17:00,0.0
2647.6000000000004,-240.39999999999998,-1500.4,-2917.6,-878.4,-2403.8,2025-01-29 15:17:00,0.0
1895.6000000000004,-48.39999999999998,-888.4,-3496.6,1944.6,-2550.8,2025-01-29 15:17:00,0.0
1067.6000000000004,-508.4,-48.39999999999998,-3695.6,3061.6,-2300.8,2025-01-29 15:17:00,0.0
267.60000000000036,-1244.4,323.6,-3902.6,2261.6,-1926.8,2025-01-29 15:17:00,0.0
-324.39999999999964,-1444.4,375.6,-3992.6,1034.6,-1530.8,2025-01-29 15:17:00,0.0
-388.39999999999964,-1496.4,155.60000000000002,-3912.6,70.6,-1148.8,2025-01-29 15:17:00,0.0
-280.39999999999964,-1164.4,-132.39999999999998,-3893.6,-650.4,-789.8,2025-01-29 15:17:00,0.0
255.60000000000036,-1180.4,-268.4,-3974.6,-886.4,-623.8,2025-01-29 15:17:00,0.0
679.6000000000004,-1432.4,-80.39999999999998,-4046.6,-549.4,-609.8,2025-01-29 15:17:00,0.0
523.6000000000004,-1296.4,375.6,-4205.6,454.6,-576.8,2025-01-29 15:17:00,0.0
251.60000000000036,-1248.4,587.6,-4291.6,785.6,-424.8,2025-01-29 15:17:00,
-344.39999999999964,-1208.4,839.6,-4430.6,397.6,-148.8,2025-01-29 15:17:00,0.0
-328.39999999999964,-1072.4,311.6,-4647.6,-793.4,250.2,2025-01-29 15:17:00,0.0
127.60000000000036,-1032.4,-52.39999999999998,-4998.6,-1206.4,599.2,2025-01-29 15:17:00,0.0
735.6000000000004,-1136.4,-312.4,-5256.6,428.6,796.2,2025-01-29 15:17:00,0.0
1219.6000000000004,-1620.4,395.6,-5165.6,1047.6,974.2,2025-01-29 15:17:00,0.0
739.6000000000004,-1924.4,527.6,-5086.6,1505.6,1022.2,2025-01-29 15:17:00,0.0
-48.399999999999636,-1704.4,331.6,-5035.6,2111.6,1143.2,2025-01-29 15:17:00,0.0
-540.3999999999996,-1220.4,-72.39999999999998,-5324.6,2408.6,1210.2,2025-01-29 15:17:00,0.0
-792.3999999999996,-776.4,-36.39999999999998,-5326.6,1951.6,1206.2,2025-01-29 15:17:00,0.0
-620.3999999999996,-796.4,43.60000000000002,-5194.6,986.6,1343.2,2025-01-29 15:17:00,0.0
-740.3999999999996,-960.4,111.60000000000002,-4914.6,-69.4,1669.2,2025-01-29 15:17:00,0.0
-908.3999999999996,-1184.4,-504.4,-4409.6,-271.4,2011.2,2025-01-29 15:17:00,0.0
-652.3999999999996,-1520.4,-396.4,-3938.6,-584.4,1925.2,2025-01-29 15:17:00,0.0
-568.3999999999996,-1496.4,-780.4,-3273.6,-1649.4,1614.2,2025-01-29 15:17:00,0.0
-48.399999999999636,-1152.4,-784.4,-2744.6,-2142.4,1552.2,2025-01-29 15:17:00,0.0
391.60000000000036,-608.4,-1068.4,-2294.6,-1508.4,1467.2,2025-01-29 15:17:00,0.0
651.6000000000004,-180.39999999999998,-764.4,-2121.6,-413.4,1539.2,2025-01-29 15:17:00,0.0
1027.6000000000004,67.60000000000002,-152.39999999999998,-1910.6,400.6,1413.2,2025-01-29 15:17:00,0.0
1307.6000000000004,111.60000000000002,-180.39999999999998,-1802.6,845.6,1251.2,2025-01-29 15:17:00,0.0
1219.6000000000004,451.6,-564.4,-1632.6,1648.6,963.2,2025-01-29 15:17:00,0.0
359.60000000000036,663.6,-484.4,-1378.6,1987.6,853.2,2025-01-29 15:17:00,0.0
7.600000000000364,691.6,-212.39999999999998,-1062.6,1963.6,780.2,2025-01-29 15:17:00,0.0
31.600000000000364,451.6,-564.4,-850.6,2472.6,605.2,2025-01-29 15:17:00,0.0
115.60000000000036,759.6,-264.4,-844.6,2253.6,380.2,2025-01-29 15:17:00,0.0
675.6000000000004,1115.6,-948.4,-903.6,962.6,237.2,2025-01-29 15:17:00,0.0
607.6000000000004,1083.6,-1768.4,-1064.6,168.6,70.19999999999999,2025-01-29 15:17:00,0.0
715.6000000000004,911.6,-1756.4,-1337.6,299.6,-229.8,2025-01-29 15:17:00,0.0
191.60000000000036,307.6,-888.4,-1853.6,1573.6,-318.8,2025-01-29 15:17:00,0.0
-436.39999999999964,47.60000000000002,683.6,-1921.6,2009.6,-366.8,2025-01-29 15:17:01,0.0
-416.39999999999964,167.60000000000002,1259.6,-1274.6,1134.6,-479.8,2025-01-29 15:17:01,0.0
-368.39999999999964,627.6,463.6,-893.6,493.6,-407.8,2025-01-29 15:17:01,0.0
-812.3999999999996,547.6,483.6,-531.6,-366.4,-494.8,2025-01-29 15:17:01,0.0
-828.3999999999996,515.6,575.6,-206.6,-1566.4,-552.8,2025-01-29 15:17:01,0.0
-392.39999999999964,531.6,39.60000000000002,-169.6,-1456.4,-546.8,2025-01-29 15:17:01,0.0
215.60000000000036,411.6,-200.39999999999998,-174.6,-1472.4,-609.8,2025-01-29 15:17:01,0.0
275.60000000000036,459.6,-564.4,-106.6,-1124.4,-609.8,2025-01-29 15:17:01,0.0
191.60000000000036,407.6,-776.4,-9.600000000000001,-337.4,-342.8,2025-01-29 15:17:01,0.0
959.6000000000004,719.6,-496.4,-12.600000000000001,320.6,-403.8,2025-01-29 15:17:01,0.0
787.6000000000004,855.6,-260.4,108.4,726.6,-304.8,2025-01-29 15:17:01,0.0
1007.6000000000004,631.6,107.60000000000002,493.4,1474.6,-166.8,2025-01-29 15:17:01,0.0
843.6000000000004,491.6,-352.4,698.4,1399.6,-334.8,2025-01-29 15:17:01,0.0
207.60000000000036,467.6,-952.4,555.4,1173.6,-326.8,2025-01-29 15:17:01,0.0
-340.39999999999964,283.6,-1108.4,291.4,728.6,-340.8,2025-01-29 15:17:01,0.0
-128.39999999999964,215.60000000000002,-1148.4,57.4,190.6,-488.8,2025-01-29 15:17:01,0.0
-8.399999999999636,131.60000000000002,-1796.4,-250.6,-490.4,-876.8,2025-01-29 15:17:01,0.0
1375.6000000000004,307.6,-1704.4,-577.6,297.6,-1050.8,2025-01-29 15:17:01,0.0
1647.6000000000004,647.6,-1616.4,-714.6,82.6,-1250.8,2025-01-29 15:17:01,0.0
2451.6000000000004,851.6,-2168.4,-647.6,216.6,-1116.8,2025-01-29 15:17:01,0.0
3011.6000000000004,487.6,-2644.4,-627.6,311.6,-1069.8,2025-01-29 15:17:01,0.0
4415.6,-236.39999999999998,-3436.4,-914.6,661.6,-1715.8,2025-01-29 15:17:01,0.0
5247.6,-116.39999999999998,-3104.4,-1798.6,1452.6,-2154.8,2025-01-29 15:17:01,0.0
6603.6,-224.39999999999998,-176.39999999999998,-2485.6,2244.6,-1890.8,2025-01-29 15:17:01,0.0
8071.6,107.60000000000002,-800.4,-2808.6,1856.6,-2004.8,2025-01-29 15:17:01,0.0
8155.6,419.6,2551.6,-2502.6,414.6,-1928.8,2025-01-29 15:17:01,0.0
8515.6,567.6,3431.6,-1725.6,399.6,-936.8,2025-01-29 15:17:01,0.0
8991.6,-444.4,2967.6,-902.6,1028.6,-451.8,2025-01-29 15:17:01,0.0
8335.6,-228.39999999999998,3375.6,-527.6,1674.6,-385.8,2025-01-29 15:17:01,0.0
6723.6,651.6,4835.6,163.4,1541.6,645.2,2025-01-29 15:17:01,0.0
6035.6,503.6,4383.6,645.4,1067.6,1681.2,2025-01-29 15:17:01,0.0
4343.6,111.60000000000002,3651.6,712.4,109.6,1838.2,2025-01-29 15:17:01,0.0
2463.6000000000004,507.6,3783.6,686.4,-542.4,1794.2,2025-01-29 15:17:01,0.0
495.60000000000036,307.6,3339.6,1379.4,-586.4,1181.2,2025-01-29 15:17:01,0.0
-2288.3999999999996,159.60000000000002,555.6,1569.4,-171.4,-38.80000000000001,2025-01-29 15:17:01,0.0
-5880.4,335.6,-716.4,1062.4,1231.6,-522.8,2025-01-29 15:17:01,0.0
-5312.4,511.6,-3124.4,86.4,2120.6,-1262.8,2025-01-29 15:17:01,0.0
-10496.4,435.6,-1924.4,-878.6,2664.6,-1584.8,2025-01-29 15:17:01,0.0
-11884.4,87.60000000000002,-2436.4,-1037.6,2074.6,-1745.8,2025-01-29 15:17:01,0.0
-13224.4,151.60000000000002,-3380.4,-1088.6,1351.6,-1393.8,2025-01-29 15:17:01,0.0
-15028.4,535.6,-800.4,-941.6,-1359.4,-251.8,2025-01-29 15:17:01,0.0
-13896.4,-1172.4,-116.39999999999998,-388.6,-3721.4,485.2,2025-01-29 15:17:01,0.0
-12924.4,-2684.4,-936.4,-593.6,-4447.4,-303.8,2025-01-29 15:17:01,0.0
-14668.4,-3292.4,-944.4,-1068.6,-4085.4,-1320.8,2025-01-29 15:17:01,0.0
-19036.4,-2344.4,-1188.4,-1239.6,-3404.4,-2860.8,2025-01-29 15:17:01,0.0
-19036.4,-100.39999999999998,-1208.4,-1815.6,-4199.4,-2682.8,2025-01-29 15:17:01,0.0
-19036.4,631.6,2963.6,-2106.6,-5244.4,-1321.8,2025-01-29 15:17:01,0.0
-19036.4,-1520.4,6851.6,-402.6,-3828.4,539.2,2025-01-29 15:17:01,0.0
-19036.4,-1592.4,7131.6,1769.4,-5273.4,2207.2,2025-01-29 15:17:01,0.0
-19036.4,-3692.4,4087.6,4113.4,-848.4,2984.2,2025-01-29 15:17:01,0.0
-19036.4,-5228.4,-3396.4,3908.4,1833.6,2007.2,2025-01-29 15:17:01,0.0
-12784.4,-5712.4,-8952.4,1229.4,2596.6,1312.2,2025-01-29 15:17:01,0.0
-5232.4,-2828.4,-4972.4,88.4,3095.6,821.2,2025-01-29 15:17:01,0.0
-2888.3999999999996,-220.39999999999998,-1968.4,2637.4,1562.6,1401.2,2025-01-29 15:17:01,0.0
3251.6000000000004,2643.6,-3236.4,4006.4,-1949.4,3581.2,2025-01-29 15:17:01,0.0
12859.6,3359.6,-7084.4,4087.4,-6029.4,4313.2,2025-01-29 15:17:01,0.0
23487.6,1335.6,-14552.4,1424.4,-6007.4,3699.2,2025-01-29 15:17:01,0.0
33691.6,-1484.4,-16116.4,-3306.6,2002.6,2.1999999999999886,2025-01-29 15:17:01,0.0
33631.6,-2020.4,-8864.4,-4996.6,7516.6,-3103.8,2025-01-29 15:17:01,0.0
25399.6,1923.6,1231.6,-3271.6,9981.6,-4225.8,2025-01-29 15:17:01,0.0
12831.6,2479.6,3703.6,-2349.6,6228.6,-3305.8,2025-01-29 15:17:01,0.0
10163.6,1187.6,6583.6,-2657.6,2931.6,-858.8,2025-01-29 15:17:02,0.0
4287.6,-416.4,10959.6,-194.6,838.6,1162.2,2025-01-29 15:17:02,0.0
7751.6,-1596.4,8927.6,1691.4,-182.4,2267.2,2025-01-29 15:17:02,0.0
10835.6,-1300.4,7035.6,1812.4,-1464.4,2369.2,2025-01-29 15:17:02,0.0
13835.6,-512.4,3783.6,2255.4,-2901.4,2204.2,2025-01-29 15:17:02,0.0
16395.6,295.6,467.6,1466.4,-2797.4,1483.2,2025-01-29 15:17:02,0.0
18711.6,151.60000000000002,-1684.4,293.4,-2242.4,628.2,2025-01-29 15:17:02,0.0
20119.6,159.60000000000002,-2012.4,-538.6,-1447.4,-166.8,2025-01-29 15:17:02,0.0
21039.6,383.6,-2400.4,-1091.6,-551.4,-872.8,2025-01-29 15:17:02,0.0
20591.6,839.6,-1868.4,-1339.6,709.6,-1105.8,2025-01-29 15:17:02,0.0
18471.6,963.6,1087.6,-1079.6,2481.6,-821.8,2025-01-29 15:17:02,
16307.6,795.6,2847.6,-553.6,3093.6,-28.80000000000001,2025-01-29 15:17:02,0.0
14543.6,343.6,3971.6,-126.6,2417.6,707.2,2025-01-29 15:17:02,0.0
13383.6,79.60000000000002,4595.6,319.4,1221.6,1035.2,2025-01-29 15:17:02,0.0
13571.6,191.60000000000002,4339.6,614.4,181.6,862.2,2025-01-29 15:17:02,0.0
14459.6,335.6,3747.6,592.4,-799.4,708.2,2025-01-29 15:17:02,0.0
15027.6,707.6,2339.6,765.4,-1371.4,582.2,2025-01-29 15:17:02,0.0
15859.6,931.6,303.6,809.4,-1369.4,740.2,2025-01-29 15:17:02,0.0
15235.6,1531.6,-1200.4,426.4,-1692.4,1326.2,2025-01-29 15:17:02,0.0
14967.6,571.6,-1016.4,-122.6,-2872.4,1567.2,2025-01-29 15:17:02,0.0
12163.6,403.6,1615.6,-1228.6,-7084.4,1396.2,2025-01-29 15:17:02,0.0
7947.6,327.6,5323.6,-1969.6,-12747.4,2045.2,2025-01-29 15:17:02,0.0
-3124.3999999999996,-2524.4,-7832.4,378.4,-9888.4,3328.2,2025-01-29 15:17:02,0.0
-6772.4,-3640.4,-21300.4,-3902.6,-4506.4,2473.2,2025-01-29 15:17:02,0.0
-19036.4,659.6,-2796.4,-5430.6,7697.6,-2366.8,2025-01-29 15:17:02,0.0
-19036.4,5639.6,25747.6,-1414.6,8059.6,-2274.8,2025-01-29 15:17:02,0.0
-19036.4,-3532.4,4939.6,7716.4,1384.6,-1028.8,2025-01-29 15:17:02,0.0
-19036.4,-2820.4,-32392.4,-2368.6,2788.6,-2488.8,2025-01-29 15:17:02,0.0
-19036.4,10107.6,3815.6,-11347.6,7392.6,-3523.8,2025-01-29 15:17:02,0.0
-19036.4,2055.6,17891.6,-3541.6,901.6,6282.2,2025-01-29 15:17:02,0.0
-14992.4,-4816.4,12535.6,-3422.6,-7587.4,5083.2,2025-01-29 15:17:02,0.0
-7048.4,-5012.4,5351.6,-1408.6,-7368.4,844.2,2025-01-29 15:17:02,0.0
-4644.4,-3564.4,1087.6,-1205.6,-4112.4,-786.8,2025-01-29 15:17:02,0.0
-3848.3999999999996,-2424.4,491.6,-1076.6,-1831.4,-1007.8,2025-01-29 15:17:02,0.0
-3396.3999999999996,-208.39999999999998,87.60000000000002,-405.6,-641.4,-566.8,2025-01-29 15:17:02,0.0
-2324.3999999999996,2211.6,-792.4,496.4,-41.400000000000006,-408.8,2025-01-29 15:17:02,0.0
-2124.3999999999996,2103.6,-2852.4,972.4,2979.6,156.2,2025-01-29 15:17:02,0.0
303.60000000000036,927.6,-1776.4,1414.4,7621.6,75.19999999999999,2025-01-29 15:17:02,0.0
2091.6000000000004,699.6,2099.6,1962.4,9895.6,-14.800000000000011,2025-01-29 15:17:02,0.0
3043.6000000000004,695.6,4551.6,2484.4,8056.6,194.2,2025-01-29 15:17:02,0.0
5579.6,923.6,2319.6,2162.4,3618.6,-311.8,2025-01-29 15:17:02,0.0
5727.6,1371.6,1895.6,1454.4,-1121.4,-665.8,2025-01-29 15:17:02,0.0
5119.6,1995.6,2639.6,1181.4,-3396.4,139.2,2025-01-29 15:17:02,0.0
6063.6,1699.6,2911.6,1347.4,-3921.4,1081.2,2025-01-29 15:17:02,0.0
8755.6,467.6,2179.6,1471.4,-3886.4,1296.2,2025-01-29 15:17:02,0.0
9531.6,-236.39999999999998,531.6,1121.4,-3399.4,86.19999999999999,2025-01-29 15:17:02,0.0
6867.6,43.60000000000002,-116.39999999999998,611.4,-2541.4,-759.8,2025-01-29 15:17:02,0.0
5427.6,475.6,-536.4,25.4,-2476.4,-429.8,2025-01-29 15:17:02,0.0
4791.6,635.6,135.60000000000002,-395.6,-3349.4,-238.8,2025-01-29 15:17:02,0.0
3319.6000000000004,1503.6,-60.39999999999998,37.4,-4396.4,-351.8,2025-01-29 15:17:02,0.0
811.6000000000004,1579.6,-992.4,749.4,-3691.4,-512.8,2025-01-29 15:17:02,0.0
-76.39999999999964,903.6,-1960.4,1038.4,-1901.4,-486.8,2025-01-29 15:17:02,0.0
-20.399999999999636,-336.4,-2320.4,592.4,331.6,-831.8,2025-01-29 15:17:02,0.0
-1084.3999999999996,-460.4,-1644.4,67.4,2021.6,-1185.8,2025-01-29 15:17:02,0.0
-2472.3999999999996,203.60000000000002,-1880.4,-362.6,2478.6,-1171.8,2025-01-29 15:17:02,0.0
-3208.3999999999996,1071.6,-1048.4,-841.6,2111.6,-851.8,2025-01-29 15:17:02,0.0
-3072.3999999999996,1155.6,379.6,-936.6,1006.6,-110.80000000000001,2025-01-29 15:17:02,0.0
-1268.3999999999996,527.6,1639.6,-611.6,-744.4,284.2,2025-01-29 15:17:02,0.0
-180.39999999999964,-268.4,1195.6,-357.6,-1965.4,-54.80000000000001,2025-01-29 15:17:02,0.0
159.60000000000036,-792.4,823.6,-331.6,-1687.4,-377.8,2025-01-29 15:17:03,0.0
411.60000000000036,-956.4,1047.6,-13.600000000000001,-272.4,-696.8,2025-01-29 15:17:03,0.0
403.60000000000036,-556.4,1839.6,545.4,883.6,-806.8,2025-01-29 15:17:03,0.0
519.6000000000004,179.60000000000002,2227.6,1165.4,1148.6,-762.8,2025-01-29 15:17:03,0.0
295.60000000000036,791.6,2095.6,1580.4,593.6,-515.8,2025-01-29 15:17:03,0.0
439.60000000000036,963.6,1519.6,1627.4,-43.400000000000006,-272.8,2025-01-29 15:17:03,0.0
47.600000000000364,667.6,1015.6,1558.4,-64.4,-95.80000000000001,2025-01-29 15:17:03,0.0
-364.39999999999964,679.6,1535.6,1446.4,270.6,45.19999999999999,2025-01-29 15:17:03,0.0
-476.39999999999964,547.6,1791.6,1424.4,501.6,145.2,2025-01-29 15:17:03,0.0
-648.3999999999996,287.6,1391.6,1307.4,430.6,234.2,2025-01-29 15:17:03,0.0
-544.3999999999996,295.6,459.6,893.4,136.6,162.2,2025-01-29 15:17:03,0.0
-364.39999999999964,483.6,-276.4,362.4,-115.4,-82.80000000000001,2025-01-29 15:17:03,0.0
83.60000000000036,291.6,623.6,157.4,-236.4,-302.8,2025-01-29 15:17:03,0.0
-112.39999999999964,383.6,1751.6,325.4,-409.4,-368.8,2025-01-29 15:17:03,0.0
-456.39999999999964,283.6,1719.6,464.4,-249.4,-95.80000000000001,2025-01-29 15:17:03,0.0
-140.39999999999964,31.600000000000023,1323.6,492.4,186.6,102.19999999999999,2025-01-29 15:17:03,0.0
263.60000000000036,87.60000000000002,815.6,543.4,315.6,-31.80000000000001,2025-01-29 15:17:03,0.0
215.60000000000036,115.60000000000002,179.60000000000002,548.4,129.6,-207.8,2025-01-29 15:17:03,0.0
31.600000000000364,287.6,863.6,493.4,-15.400000000000006,-383.8,2025-01-29 15:17:03,0.0
-340.39999999999964,463.6,1127.6,584.4,-33.400000000000006,-327.8,2025-01-29 15:17:03,0.0
-476.39999999999964,571.6,835.6,558.4,382.6,60.19999999999999,2025-01-29 15:17:03,0.0
-180.39999999999964,351.6,827.6,498.4,691.6,240.2,2025-01-29 15:17:03,0.0
435.60000000000036,379.6,627.6,401.4,748.6,2.1999999999999886,2025-01-29 15:17:03,0.0
391.60000000000036,139.60000000000002,627.6,187.4,347.6,-372.8,2025-01-29 15:17:03,0.0
203.60000000000036,443.6,923.6,96.4,-105.4,-544.8,2025-01-29 15:17:03,0.0
-0.3999999999996362,531.6,1007.6,137.4,-378.4,-482.8,2025-01-29 15:17:03,0.0
-200.39999999999964,467.6,675.6,138.4,-170.4,-290.8,2025-01-29 15:17:03,0.0
179.60000000000036,223.60000000000002,487.6,-8.600000000000001,328.6,-194.8,2025-01-29 15:17:03,0.0
587.6000000000004,127.60000000000002,971.6,-66.6,644.6,-343.8,2025-01-29 15:17:03,0.0
543.6000000000004,155.60000000000002,1371.6,157.4,763.6,-540.8,2025-01-29 15:17:03,0.0
27.600000000000364,267.6,1419.6,447.4,872.6,-533.8,2025-01-29 15:17:03,0.0
-848.3999999999996,135.60000000000002,451.6,533.4,1007.6,-306.8,2025-01-29 15:17:03,0.0
-964.3999999999996,55.60000000000002,347.6,288.4,1022.6,-100.80000000000001,2025-01-29 15:17:03,0.0
-240.39999999999964,-12.399999999999977,959.6,150.4,738.6,-283.8,2025-01-29 15:17:03,0.0
155.60000000000036,-164.39999999999998,663.6,81.4,-140.4,-447.8,2025-01-29 15:17:03,0.0
151.60000000000036,-332.4,355.6,-47.6,-450.4,-636.8,2025-01-29 15:17:03,0.0
-16.399999999999636,-220.39999999999998,407.6,-145.6,-280.4,-623.8,2025-01-29 15:17:03,0.0
-248.39999999999964,-112.39999999999998,547.6,-147.6,158.6,-363.8,2025-01-29 15:17:03,0.0
-24.399999999999636,-180.39999999999998,791.6,3.3999999999999986,656.6,-47.80000000000001,2025-01-29 15:17:03,0.0
139.60000000000036,-340.4,815.6,119.4,738.6,-3.8000000000000114,2025-01-29 15:17:03,0.0
315.60000000000036,-456.4,711.6,82.4,561.6,-111.80000000000001,2025-01-29 15:17:03,0.0
303.60000000000036,-696.4,651.6,72.4,323.6,-333.8,2025-01-29 15:17:03,0.0
-132.39999999999964,-428.4,707.6,93.4,129.6,-423.8,2025-01-29 15:17:03,0.0
-380.39999999999964,-84.39999999999998,779.6,157.4,216.6,-252.8,2025-01-29 15:17:03,0.0
-348.39999999999964,-172.39999999999998,795.6,253.4,306.6,8.199999999999989,2025-01-29 15:17:03,0.0
-4.399999999999636,-356.4,611.6,251.4,237.6,50.19999999999999,2025-01-29 15:17:03,0.0
127.60000000000036,-320.4,335.6,254.4,56.599999999999994,-33.80000000000001,2025-01-29 15:17:03,0.0
215.60000000000036,-436.4,363.6,159.4,-261.4,-150.8,2025-01-29 15:17:03,0.0
227.60000000000036,-388.4,371.6,44.4,-566.4,-218.8,2025-01-29 15:17:03,0.0
-76.39999999999964,-164.39999999999998,535.6,9.399999999999999,-660.4,-145.8,2025-01-29 15:17:03,0.0
-432.39999999999964,-332.4,859.6,52.4,-486.4,27.19999999999999,2025-01-29 15:17:03,0.0
-276.39999999999964,-564.4,1047.6,217.4,-160.4,121.19999999999999,2025-01-29 15:17:03,
27.600000000000364,-964.4,527.6,248.4,45.599999999999994,-37.80000000000001,2025-01-29 15:17:03,0.0
-24.399999999999636,-780.4,607.6,220.4,-68.4,-186.8,2025-01-29 15:17:03,0.0
-44.399999999999636,-468.4,611.6,140.4,-310.4,-152.8,2025-01-29 15:17:03,0.0
-168.39999999999964,-188.39999999999998,863.6,150.4,-422.4,-40.80000000000001,2025-01-29 15:17:03,0.0
-136.39999999999964,-164.39999999999998,799.6,233.4,-319.4,63.19999999999999,2025-01-29 15:17:03,0.0
15.600000000000364,-312.4,843.6,286.4,-276.4,101.19999999999999,2025-01-29 15:17:03,0.0
195.60000000000036,-404.4,599.6,331.4,-72.4,86.19999999999999,2025-01-29 15:17:03,0.0
-4.399999999999636,-228.39999999999998,639.6,289.4,-9.400000000000006,60.19999999999999,2025-01-29 15:17:03,0.0
95.60000000000036,-152.39999999999998,527.6,271.4,64.6,56.19999999999999,2025-01-29 15:17:03,0.0
-52.399999999999636,-108.39999999999998,463.6,146.4,94.6,83.19999999999999,2025-01-29 15:17:03,0.0
-232.39999999999964,-240.39999999999998,375.6,-3.6000000000000014,112.6,113.19999999999999,2025-01-29 15:17:03,0.0
-128.39999999999964,-348.4,463.6,-112.6,153.6,88.19999999999999,2025-01-29 15:17:04,0.0
71.60000000000036,-304.4,691.6,-137.6,35.599999999999994,70.19999999999999,2025-01-29 15:17:04,0.0
-0.3999999999996362,-264.4,695.6,-139.6,-17.400000000000006,-7.800000000000011,2025-01-29 15:17:04,0.0
23.600000000000364,-276.4,587.6,-118.6,-25.400000000000006,-32.80000000000001,2025-01-29 15:17:04,0.0
123.60000000000036,-244.39999999999998,263.6,-203.6,169.6,-40.80000000000001,2025-01-29 15:17:04,0.0
127.60000000000036,-244.39999999999998,395.6,-195.6,328.6,-18.80000000000001,2025-01-29 15:17:04,0.0
119.60000000000036,-316.4,427.6,-177.6,454.6,-11.800000000000011,2025-01-29 15:17:04,0.0
95.60000000000036,-388.4,275.6,-255.6,869.6,-92.80000000000001,2025-01-29 15:17:04,0.0
-116.39999999999964,-192.39999999999998,531.6,-190.6,1183.6,-110.80000000000001,2025-01-29 15:17:04,0.0
-104.39999999999964,-120.39999999999998,387.6,-133.6,1050.6,-88.80000000000001,2025-01-29 15:17:04,0.0
-24.399999999999636,-304.4,255.60000000000002,-82.6,943.6,-137.8,2025-01-29 15:17:04,0.0
-0.3999999999996362,-128.39999999999998,319.6,-107.6,686.6,-319.8,2025-01-29 15:17:04,0.0
-256.39999999999964,191.60000000000002,339.6,-187.6,607.6,-435.8,2025-01-29 15:17:04,0.0
235.60000000000036,275.6,295.6,-279.6,615.6,-407.8,2025-01-29 15:17:04,0.0
219.60000000000036,115.60000000000002,379.6,-344.6,981.6,-518.8,2025-01-29 15:17:04,0.0
291.60000000000036,-160.39999999999998,415.6,-350.6,1361.6,-644.8,2025-01-29 15:17:04,0.0
351.60000000000036,-392.4,255.60000000000002,-398.6,1589.6,-1017.8,2025-01-29 15:17:04,0.0
-564.3999999999996,-388.4,723.6,-506.6,1158.6,-981.8,2025-01-29 15:17:04,0.0
-388.39999999999964,-104.39999999999998,1043.6,-141.6,399.6,-659.8,2025-01-29 15:17:04,0.0
-1220.3999999999996,-140.39999999999998,507.6,566.4,-1859.4,-556.8,2025-01-29 15:17:04,0.0
-360.39999999999964,-552.4,679.6,1571.4,-4025.4,-387.8,2025-01-29 15:17:04,0.0
-124.39999999999964,-236.39999999999998,423.6,2145.4,-2766.4,-461.8,2025-01-29 15:17:04,0.0
1031.6000000000004,-96.39999999999998,-432.4,1716.4,-567.4,-492.8,2025-01-29 15:17:04,0.0
1211.6000000000004,-332.4,119.60000000000002,1421.4,396.6,-952.8,2025-01-29 15:17:04,0.0
715.6000000000004,-180.39999999999998,831.6,1552.4,362.6,-1296.8,2025-01-29 15:17:04,0.0
391.60000000000036,-28.399999999999977,595.6,1885.4,162.6,-1517.8,2025-01-29 15:17:04,0.0
155.60000000000036,171.60000000000002,15.600000000000023,1937.4,34.599999999999994,-1743.8,2025-01-29 15:17:04,0.0
231.60000000000036,455.6,-60.39999999999998,1851.4,112.6,-2010.8,2025-01-29 15:17:04,0.0
47.600000000000364,499.6,439.6,1826.4,194.6,-2193.8,2025-01-29 15:17:04,0.0
-120.39999999999964,95.60000000000002,863.6,1800.4,247.6,-2208.8,2025-01-29 15:17:04,0.0
-316.39999999999964,-376.4,1435.6,1845.4,229.6,-2151.8,2025-01-29 15:17:04,0.0
375.60000000000036,-596.4,2075.6,2010.4,43.599999999999994,-2283.8,2025-01-29 15:17:04,0.0
-536.3999999999996,-784.4,427.6,1994.4,-119.4,-2311.8,2025-01-29 15:17:04,0.0
-408.39999999999964,-1060.4,99.60000000000002,1874.4,-848.4,-2299.8,2025-01-29 15:17:04,0.0
-584.3999999999996,-1076.4,1067.6,1862.4,-1108.4,-2090.8,2025-01-29 15:17:04,0.0
-672.3999999999996,-780.4,1751.6,2039.4,-1384.4,-1338.8,2025-01-29 15:17:04,0.0
-156.39999999999964,-656.4,1979.6,2363.4,-1607.4,-598.8,2025-01-29 15:17:04,0.0
495.60000000000036,-980.4,2251.6,2423.4,-1535.4,-217.8,2025-01-29 15:17:04,0.0
1079.6000000000004,-1500.4,3139.6,2158.4,-1279.4,-384.8,2025-01-29 15:17:04,0.0
1035.6000000000004,-1924.4,4079.6,1859.4,-664.4,-699.8,2025-01-29 15:17:04,0.0
571.6000000000004,-2296.4,4851.6,1713.4,-80.4,-898.8,2025-01-29 15:17:04,0.0
-256.39999999999964,-2324.4,4531.6,1787.4,72.6,-896.8,2025-01-29 15:17:04,0.0
79.60000000000036,-1928.4,3099.6,1700.4,-257.4,-697.8,2025-01-29 15:17:04,0.0
55.600000000000364,-1688.4,2695.6,1403.4,-109.4,-842.8,2025-01-29 15:17:04,0.0
519.6000000000004,-1424.4,2691.6,943.4,293.6,-1195.8,2025-01-29 15:17:04,0.0
407.60000000000036,-1780.4,2615.6,506.4,282.6,-1318.8,2025-01-29 15:17:04,0.0
827.6000000000004,-1880.4,2703.6,146.4,133.6,-1246.8,2025-01-29 15:17:04,0.0
939.6000000000004,-1956.4,2595.6,-324.6,276.6,-1179.8,2025-01-29 15:17:04,0.0
767.6000000000004,-1844.4,2587.6,-831.6,396.6,-1210.8,2025-01-29 15:17:04,0.0
307.60000000000036,-2148.4,2279.6,-1353.6,-440.4,-1308.8,2025-01-29 15:17:04,0.0
235.60000000000036,-2316.4,2759.6,-1747.6,-1253.4,-1183.8,2025-01-29 15:17:04,0.0
247.60000000000036,-2248.4,3075.6,-2112.6,-1808.4,-956.8,2025-01-29 15:17:04,0.0
183.60000000000036,-2148.4,3187.6,-2361.6,-2211.4,-629.8,2025-01-29 15:17:04,0.0
23.600000000000364,-1836.4,3107.6,-2510.6,-2168.4,102.19999999999999,2025-01-29 15:17:04,0.0
791.6000000000004,-1804.4,2475.6,-2730.6,-1598.4,705.2,2025-01-29 15:17:04,0.0
1163.6000000000004,-1948.4,1975.6,-3063.6,-437.4,1160.2,2025-01-29 15:17:04,0.0
1175.6000000000004,-1948.4,2135.6,-3552.6,1170.6,1300.2,2025-01-29 15:17:04,0.0
607.6000000000004,-2136.4,2607.6,-3930.6,2118.6,1136.2,2025-01-29 15:17:04,0.0
-236.39999999999964,-2096.4,3331.6,-4244.6,2005.6,913.2,2025-01-29 15:17:04,0.0
-772.3999999999996,-2136.4,3647.6,-4531.6,1346.6,691.2,2025-01-29 15:17:04,0.0
-1328.3999999999996,-2540.4,3811.6,-4752.6,356.6,518.2,2025-01-29 15:17:04,0.0
-1304.3999999999996,-3228.4,3543.6,-4739.6,-721.4,368.2,2025-01-29 15:17:05,0.0
-996.3999999999996,-2516.4,4191.6,-4492.6,-2042.4,447.2,2025-01-29 15:17:05,0.0
-416.39999999999964,-1604.4,4243.6,-4585.6,-2522.4,762.2,2025-01-29 15:17:05,0.0
363.60000000000036,-1672.4,4259.6,-4958.6,-2181.4,1081.2,2025-01-29 15:17:05,0.0
331.60000000000036,-3176.4,2979.6,-5271.6,-698.4,628.2,2025-01-29 15:17:05,0.0
-868.3999999999996,-3628.4,1299.6,-5967.6,1253.6,-386.8,2025-01-29 15:17:05,0.0
-1976.3999999999996,-4176.4,2827.6,-6138.6,3462.6,-1683.8,2025-01-29 15:17:05,0.0
-3308.3999999999996,-5108.4,4639.6,-4922.6,3987.6,-2418.8,2025-01-29 15:17:05,0.0
-4484.4,-6288.4,4555.6,-2618.6,2009.6,-1439.8,2025-01-29 15:17:05,0.0
-4760.4,-6976.4,2915.6,-433.6,-634.4,181.2,2025-01-29 15:17:05,0.0
-4580.4,-6040.4,1731.6,837.4,-2513.4,800.2,2025-01-29 15:17:05,0.0
-4004.3999999999996,-4088.4,2019.6,1671.4,-3431.4,1038.2,2025-01-29 15:17:05,0.0
-3684.3999999999996,-2856.4,1867.6,2440.4,-4491.4,2317.2,2025-01-29 15:17:05,0.0
-1724.3999999999996,-2388.4,1139.6,2930.4,-6143.4,3848.2,2025-01-29 15:17:05,0.0
567.6000000000004,-1824.4,-672.4,3171.4,-8226.4,4675.2,2025-01-29 15:17:05,0.0
2079.6000000000004,-876.4,-2356.4,3195.4,-8266.4,4483.2,2025-01-29 15:17:05,0.0
3803.6000000000004,763.6,-3644.4,2193.4,-5523.4,3589.2,2025-01-29 15:17:05,0.0
4791.6,2307.6,-3292.4,738.4,-991.4,1829.2,2025-01-29 15:17:05,0.0
3207.6000000000004,2811.6,-1736.4,-68.6,2645.6,614.2,2025-01-29 15:17:05,0.0
987.6000000000004,1819.6,-168.39999999999998,217.4,4336.6,793.2,2025-01-29 15:17:05,0.0
-548.3999999999996,175.60000000000002,127.60000000000002,382.4,4674.6,1608.2,2025-01-29 15:17:05,0.0
-1428.3999999999996,-716.4,1011.6,528.4,4366.6,2343.2,2025-01-29 15:17:05,0.0
-1784.3999999999996,-1236.4,1355.6,1001.4,2930.6,2817.2,2025-01-29 15:17:05,0.0
-1764.3999999999996,-804.4,1451.6,1452.4,893.6,3021.2,2025-01-29 15:17:05,0.0
-2012.3999999999996,251.60000000000002,1579.6,1501.4,-892.4,3304.2,2025-01-29 15:17:05,0.0
-1428.3999999999996,963.6,1531.6,1411.4,-2416.4,3527.2,2025-01-29 15:17:05,0.0
-256.39999999999964,1307.6,1635.6,1332.4,-3665.4,3465.2,2025-01-29 15:17:05,0.0
671.6000000000004,1327.6,1551.6,1362.4,-4199.4,3269.2,2025-01-29 15:17:05,
1571.6000000000004,1431.6,1731.6,1474.4,-4037.4,2905.2,2025-01-29 15:17:05,0.0
2079.6000000000004,1223.6,1171.6,1484.4,-3175.4,2657.2,2025-01-29 15:17:05,0.0
2547.6000000000004,1019.6,1023.6,1594.4,-1994.4,2427.2,2025-01-29 15:17:05,0.0
2751.6000000000004,687.6,1247.6,1716.4,-618.4,2120.2,2025-01-29 15:17:05,0.0
2699.6000000000004,615.6,2031.6,1859.4,485.6,1644.2,2025-01-29 15:17:05,0.0
2431.6000000000004,423.6,2335.6,2076.4,937.6,1149.2,2025-01-29 15:17:05,0.0
1903.6000000000004,499.6,2803.6,2286.4,1151.6,660.2,2025-01-29 15:17:05,0.0
1115.6000000000004,735.6,3275.6,2632.4,1311.6,408.2,2025-01-29 15:17:05,0.0
731.6000000000004,775.6,3143.6,2924.4,1095.6,220.2,2025-01-29 15:17:05,0.0
711.6000000000004,1071.6,2951.6,2936.4,457.6,-165.8,2025-01-29 15:17:05,0.0
891.6000000000004,1059.6,3135.6,2747.4,-419.4,-593.8,2025-01-29 15:17:05,0.0
611.6000000000004,987.6,3539.6,2641.4,-881.4,-823.8,2025-01-29 15:17:05,0.0
1187.6000000000004,835.6,3583.6,2547.4,-1104.4,-1118.8,2025-01-29 15:17:05,0.0
1711.6000000000004,1427.6,3791.6,2385.4,-838.4,-1511.8,2025-01-29 15:17:05,0.0
1707.6000000000004,2523.6,3563.6,2315.4,113.6,-1693.8,2025-01-29 15:17:05,0.0
811.6000000000004,2831.6,2531.6,2256.4,1491.6,-1433.8,2025-01-29 15:17:05,0.0
-884.3999999999996,2407.6,2215.6,2140.4,2432.6,-827.8,2025-01-29 15:17:05,0.0
-1488.3999999999996,1303.6,2255.6,2179.4,2338.6,-415.8,2025-01-29 15:17:05,0.0
-2396.3999999999996,-712.4,2923.6,2229.4,935.6,-67.80000000000001,2025-01-29 15:17:05,0.0
-1852.3999999999996,-1552.4,3699.6,2711.4,-89.4,276.2,2025-01-29 15:17:05,0.0
-920.3999999999996,-964.4,3455.6,3879.4,-997.4,691.2,2025-01-29 15:17:05,0.0
303.60000000000036,507.6,2983.6,4820.4,-878.4,1217.2,2025-01-29 15:17:05,0.0
1199.6000000000004,1467.6,2159.6,5323.4,663.6,1556.2,2025-01-29 15:17:05,0.0
415.60000000000036,1631.6,1575.6,5511.4,3202.6,1750.2,2025-01-29 15:17:05,0.0
-1704.3999999999996,2443.6,1419.6,5620.4,5573.6,2088.2,2025-01-29 15:17:05,0.0
-3712.3999999999996,4103.6,1879.6,5347.4,7500.6,2732.2,2025-01-29 15:17:05,0.0
-4452.4,5967.6,1507.6,4444.4,8353.6,3140.2,2025-01-29 15:17:05,0.0
-3944.3999999999996,7271.6,-904.4,2303.4,6763.6,2674.2,2025-01-29 15:17:05,0.0
-3840.3999999999996,7047.6,-3456.4,87.4,3688.6,1735.2,2025-01-29 15:17:05,0.0
-2540.3999999999996,4187.6,-3680.4,-2648.6,-763.4,-119.80000000000001,2025-01-29 15:17:05,0.0
-2604.3999999999996,1587.6,-1024.4,-4218.6,-4796.4,-1632.8,2025-01-29 15:17:05,0.0
-2108.3999999999996,215.60000000000002,-2256.4,-4131.6,-6800.4,-1906.8,2025-01-29 15:17:05,0.0
-264.39999999999964,-748.4,-3464.4,-4148.6,-7750.4,-2314.8,2025-01-29 15:17:06,0.0
1235.6000000000004,-940.4,-2288.4,-4316.6,-7621.4,-3039.8,2025-01-29 15:17:06,0.0
3255.6000000000004,-1100.4,383.6,-3799.6,-6456.4,-3967.8,2025-01-29 15:17:06,0.0
3479.6000000000004,-1176.4,203.60000000000002,-3384.6,-3391.4,-4118.8,2025-01-29 15:17:06,0.0
3107.6000000000004,-1048.4,-776.4,-3304.6,-744.4,-3191.8,2025-01-29 15:17:06,0.0
2643.6000000000004,-936.4,-932.4,-3066.6,1029.6,-1984.8,2025-01-29 15:17:06,0.0
2443.6000000000004,-244.39999999999998,-288.4,-2562.6,3753.6,-1530.8,2025-01-29 15:17:06,0.0
1623.6000000000004,595.6,-84.39999999999998,-2681.6,6413.6,-1623.8,2025-01-29 15:17:06,0.0
-204.39999999999964,599.6,-208.39999999999998,-3435.6,7657.6,-1734.8,2025-01-29 15:17:06,0.0
-1124.3999999999996,183.60000000000002,-128.39999999999998,-4280.6,6545.6,-1907.8,2025-01-29 15:17:06,0.0
-1920.3999999999996,-524.4,-392.4,-4775.6,3193.6,-2223.8,2025-01-29 15:17:06,0.0
-1936.3999999999996,-940.4,363.6,-4930.6,-1021.4,-2459.8,2025-01-29 15:17:06,0.0
-992.3999999999996,-688.4,51.60000000000002,-5162.6,-4345.4,-2087.8,2025-01-29 15:17:06,0.0
167.60000000000036,-236.39999999999998,191.60000000000002,-5580.6,-5713.4,-1836.8,2025-01-29 15:17:06,0.0
1139.6000000000004,235.60000000000002,147.60000000000002,-6070.6,-5466.4,-1560.8,2025-01-29 15:17:06,0.0
1987.6000000000004,275.6,-64.39999999999998,-6700.6,-3834.4,-1425.8,2025-01-29 15:17:06,0.0
2179.6000000000004,63.60000000000002,-336.4,-7500.6,-1303.4,-1538.8,2025-01-29 15:17:06,0.0
1587.6000000000004,135.60000000000002,-200.39999999999998,-8179.6,277.6,-1498.8,2025-01-29 15:17:06,0.0
1043.6000000000004,43.60000000000002,-88.39999999999998,-8804.6,600.6,-1277.8,2025-01-29 15:17:06,0.0
551.6000000000004,251.60000000000002,243.60000000000002,-9359.6,188.6,-1008.8,2025-01-29 15:17:06,0.0
335.60000000000036,143.60000000000002,375.6,-9832.6,-285.4,-717.8,2025-01-29 15:17:06,0.0
-16.399999999999636,-568.4,967.6,-10235.6,-784.4,-376.8,2025-01-29 15:17:06,0.0
-240.39999999999964,-1112.4,867.6,-10479.6,-1040.4,-58.80000000000001,2025-01-29 15:17:06,0.0
-0.3999999999996362,-1484.4,1003.6,-10733.6,-1411.4,-8.800000000000011,2025-01-29 15:17:06,0.0
-328.39999999999964,-1048.4,1151.6,-10877.6,-2005.4,-72.80000000000001,2025-01-29 15:17:06,0.0
-476.39999999999964,-496.4,803.6,-11063.6,-2678.4,175.2,2025-01-29 15:17:06,0.0
-616.3999999999996,627.6,635.6,-11517.6,-2891.4,540.2,2025-01-29 15:17:06,0.0
-620.3999999999996,831.6,1395.6,-12112.6,-2830.4,1191.2,2025-01-29 15:17:06,0.0
-784.3999999999996,155.60000000000002,1827.6,-12207.6,-3430.4,1884.2,2025-01-29 15:17:06,0.0
-560.3999999999996,-788.4,1071.6,-12359.6,-4442.4,2478.2,2025-01-29 15:17:06,0.0
583.6000000000004,-740.4,167.60000000000002,-12996.6,-4655.4,2536.2,2025-01-29 15:17:06,0.0
1679.6000000000004,147.60000000000002,-332.4,-13797.6,-3364.4,2059.2,2025-01-29 15:17:06,0.0
1311.6000000000004,1643.6,-960.4,-15009.6,-1254.4,1750.2,2025-01-29 15:17:06,0.0
1895.6000000000004,2075.6,-868.4,-16657.6,961.6,1559.2,2025-01-29 15:17:06,0.0
927.6000000000004,1027.6,399.6,-18054.6,2822.6,952.2,2025-01-29 15:17:06,0.0
-456.39999999999964,-264.4,1363.6,-18660.6,2646.6,604.2,2025-01-29 15:17:06,0.0
-1460.3999999999996,-1608.4,2467.6,-18981.6,1058.6,119.19999999999999,2025-01-29 15:17:06,0.0
-2064.3999999999996,-2056.4,3223.6,-18854.6,-600.4,104.19999999999999,2025-01-29 15:17:06,0.0
-1740.3999999999996,-2212.4,3299.6,-18422.6,-2318.4,677.2,2025-01-29 15:17:06,0.0
-712.3999999999996,-1628.4,2427.6,-17994.6,-2734.4,1282.2,2025-01-29 15:17:06,0.0
-204.39999999999964,-1452.4,475.6,-18029.6,-1621.4,1695.2,2025-01-29 15:17:06,0.0
-660.3999999999996,-1244.4,-548.4,-18473.6,-78.4,1631.2,2025-01-29 15:17:06,0.0
-1532.3999999999996,-1360.4,-1788.4,-18957.6,1284.6,968.2,2025-01-29 15:17:06,0.0
-2260.3999999999996,-1752.4,19.600000000000023,-18713.6,1936.6,27.19999999999999,2025-01-29 15:17:06,0.0
-2960.3999999999996,-2520.4,915.6,-17003.6,1288.6,-167.8,2025-01-29 15:17:06,0.0
-2508.3999999999996,-1272.4,83.60000000000002,-15077.6,629.6,2002.2,2025-01-29 15:17:06,0.0
651.6000000000004,-888.4,-2352.4,-15225.6,1955.6,2135.2,2025-01-29 15:17:06,0.0
1507.6000000000004,-328.4,-3060.4,-16132.6,3916.6,1311.2,2025-01-29 15:17:06,0.0
1779.6000000000004,267.6,-2888.4,-16608.6,6022.6,561.2,2025-01-29 15:17:06,0.0
1551.6000000000004,999.6,-2080.4,-16699.6,7467.6,-159.8,2025-01-29 15:17:06,0.0
1663.6000000000004,1591.6,-1600.4,-16449.6,7431.6,-787.8,2025-01-29 15:17:06,0.0
1499.6000000000004,1939.6,-2208.4,-16570.6,6602.6,-1228.8,2025-01-29 15:17:06,0.0
1399.6000000000004,1787.6,-2608.4,-17154.6,5628.6,-1686.8,2025-01-29 15:17:06,0.0
1183.6000000000004,1307.6,-2588.4,-17750.6,5213.6,-2206.8,2025-01-29 15:17:06,0.0
-156.39999999999964,699.6,-1712.4,-18206.6,4753.6,-2333.8,2025-01-29 15:17:06,0.0
-964.3999999999996,723.6,-948.4,-18084.6,4130.6,-1912.8,2025-01-29 15:17:06,0.0
-1584.3999999999996,895.6,-880.4,-17827.6,3456.6,-1240.8,2025-01-29 15:17:06,0.0
-1652.3999999999996,907.6,-1360.4,-17876.6,2649.6,-609.8,2025-01-29 15:17:06,0.0
-1196.3999999999996,1203.6,-1208.4,-17902.6,1384.6,-375.8,2025-01-29 15:17:06,0.0
-648.3999999999996,1631.6,-1372.4,-17693.6,90.6,-254.8,2025-01-29 15:17:06,0.0
271.60000000000036,2011.6,-1336.4,-17457.6,-989.4,-209.8,2025-01-29 15:17:07,0.0
991.6000000000004,2455.6,-1636.4,-17260.6,-1361.4,-266.8,2025-01-29 15:17:07,0.0
1987.6000000000004,2643.6,-2076.4,-17237.6,-1131.4,-470.8,2025-01-29 15:17:07,0.0
2535.6000000000004,2583.6,-2392.4,-17382.6,-357.4,-994.8,2025-01-29 15:17:07,0.0
2699.6000000000004,1835.6,-2612.4,-17543.6,504.6,-1850.8,2025-01-29 15:17:07,0.0
1847.6000000000004,875.6,-1456.4,-17282.6,1329.6,-2712.8,2025-01-29 15:17:07,0.0
1259.6000000000004,583.6,-1004.4,-16537.6,1682.6,-3040.8,2025-01-29 15:17:07,0.0
971.6000000000004,559.6,-924.4,-16234.6,2350.6,-3346.8,2025-01-29 15:17:07,
439.60000000000036,687.6,-652.4,-16367.6,2850.6,-3803.8,2025-01-29 15:17:07,0.0
43.600000000000364,1167.6,-380.4,-16321.6,2078.6,-4259.8,2025-01-29 15:17:07,0.0
15.600000000000364,1251.6,-1124.4,-15974.6,91.6,-4486.8,2025-01-29 15:17:07,0.0
151.60000000000036,1719.6,-2184.4,-15637.6,-2127.4,-4503.8,2025-01-29 15:17:07,0.0
587.6000000000004,1955.6,-2976.4,-15678.6,-3163.4,-4413.8,2025-01-29 15:17:07,0.0
835.6000000000004,1971.6,-3424.4,-16268.6,-2976.4,-4345.8,2025-01-29 15:17:07,0.0
1131.6000000000004,1611.6,-2572.4,-16786.6,-1997.4,-4439.8,2025-01-29 15:17:07,0.0
571.6000000000004,1531.6,-2884.4,-16809.6,-1181.4,-4127.8,2025-01-29 15:17:07,0.0
547.6000000000004,1903.6,-2720.4,-16848.6,-494.4,-3667.8,2025-01-29 15:17:07,0.0
323.60000000000036,2527.6,-2404.4,-17205.6,687.6,-3579.8,2025-01-29 15:17:07,0.0
-324.39999999999964,2531.6,-2588.4,-17786.6,1562.6,-3691.8,2025-01-29 15:17:07,0.0
-904.3999999999996,2027.6,-3328.4,-18337.6,813.6,-3761.8,2025-01-29 15:17:07,0.0
-764.3999999999996,1759.6,-3568.4,-18707.6,-1288.4,-3844.8,2025-01-29 15:17:07,0.0
-268.39999999999964,1411.6,-2844.4,-18786.6,-3301.4,-3987.8,2025-01-29 15:17:07,0.0
71.60000000000036,663.6,-2580.4,-18669.6,-3789.4,-4204.8,2025-01-29 15:17:07,0.0
-140.39999999999964,-80.39999999999998,-1580.4,-18316.6,-2610.4,-4316.8,2025-01-29 15:17:07,0.0
-700.3999999999996,-972.4,-928.4,-17511.6,-1425.4,-4176.8,2025-01-29 15:17:07,0.0
-1056.3999999999996,-1684.4,-432.4,-16342.6,-900.4,-3757.8,2025-01-29 15:17:07,0.0
-1356.3999999999996,-1888.4,-732.4,-15092.6,-1000.4,-3053.8,2025-01-29 15:17:07,0.0
-868.3999999999996,-1824.4,-1492.4,-13397.6,-858.4,-2191.8,2025-01-29 15:17:07,0.0
-244.39999999999964,-2100.4,-1500.4,-12122.6,-370.4,-1907.8,2025-01-29 15:17:07,0.0
-580.3999999999996,-2572.4,-1012.4,-10657.6,-126.4,-1655.8,2025-01-29 15:17:07,0.0
-944.3999999999996,-3112.4,175.60000000000002,-9707.6,-259.4,-979.8,2025-01-29 15:17:07,0.0
359.60000000000036,-2044.4,2607.6,-8779.6,-1339.4,-102.80000000000001,2025-01-29 15:17:07,0.0
1531.6000000000004,347.6,939.6,-7309.6,-3620.4,-266.8,2025-01-29 15:17:07,0.0
2131.6000000000004,2383.6,-2372.4,-6903.6,-4984.4,-574.8,2025-01-29 15:17:07,0.0
2839.6000000000004,2711.6,-3504.4,-7362.6,-3589.4,-1337.8,2025-01-29 15:17:07,0.0
2711.6000000000004,411.6,-1500.4,-8598.6,2062.6,-3074.8,2025-01-29 15:17:07,0.0
695.6000000000004,-1828.4,1243.6,-9144.6,6271.6,-4031.8,2025-01-29 15:17:07,0.0
-1620.3999999999996,-2860.4,2611.6,-8730.6,7348.6,-3883.8,2025-01-29 15:17:07,0.0
-2804.3999999999996,-2940.4,1927.6,-8213.6,5560.6,-3300.8,2025-01-29 15:17:07,0.0
-2728.3999999999996,-2216.4,1871.6,-7752.6,1601.6,-2651.8,2025-01-29 15:17:07,0.0
-1360.3999999999996,-1912.4,2455.6,-7335.6,-2790.4,-2346.8,2025-01-29 15:17:07,0.0
447.60000000000036,-2428.4,2379.6,-6881.6,-5168.4,-2356.8,2025-01-29 15:17:07,0.0
1367.6000000000004,-3016.4,2043.6,-6517.6,-5285.4,-2365.8,2025-01-29 15:17:07,0.0
1591.6000000000004,-3060.4,1359.6,-6215.6,-3409.4,-2292.8,2025-01-29 15:17:07,0.0
1239.6000000000004,-2660.4,1711.6,-5833.6,-679.4,-1924.8,2025-01-29 15:17:07,0.0
951.6000000000004,-2464.4,2491.6,-5293.6,1178.6,-1391.8,2025-01-29 15:17:07,0.0
595.6000000000004,-3056.4,2227.6,-4977.6,1959.6,-1110.8,2025-01-29 15:17:07,0.0
-68.39999999999964,-3520.4,1627.6,-5068.6,2221.6,-1199.8,2025-01-29 15:17:07,0.0
-764.3999999999996,-3112.4,1235.6,-4727.6,2146.6,-1380.8,2025-01-29 15:17:07,0.0
-1896.3999999999996,-2392.4,1363.6,-4102.6,1586.6,-1185.8,2025-01-29 15:17:07,0.0
-1944.3999999999996,-1428.4,1559.6,-3534.6,174.6,-782.8,2025-01-29 15:17:07,0.0
-912.3999999999996,-596.4,1159.6,-3771.6,-2213.4,-349.8,2025-01-29 15:17:07,0.0
-408.39999999999964,-352.4,1487.6,-4083.6,-3281.4,-5.800000000000011,2025-01-29 15:17:07,0.0
131.60000000000036,-944.4,1527.6,-4191.6,-3141.4,265.2,2025-01-29 15:17:07,0.0
595.6000000000004,-2168.4,431.6,-4119.6,-2272.4,313.2,2025-01-29 15:17:07,0.0
1103.6000000000004,-3036.4,135.60000000000002,-3945.6,-2008.4,258.2,2025-01-29 15:17:07,0.0
1211.6000000000004,-3116.4,891.6,-3497.6,-1965.4,345.2,2025-01-29 15:17:07,0.0
1099.6000000000004,-2784.4,1683.6,-2837.6,-1176.4,650.2,2025-01-29 15:17:07,0.0
463.60000000000036,-2212.4,1155.6,-2417.6,446.6,1027.2,2025-01-29 15:17:07,0.0
-4.399999999999636,-1500.4,955.6,-2186.6,1153.6,1313.2,2025-01-29 15:17:08,0.0
-260.39999999999964,-1012.4,855.6,-1903.6,574.6,1643.2,2025-01-29 15:17:08,0.0
-260.39999999999964,-1184.4,387.6,-1691.6,63.599999999999994,1975.2,2025-01-29 15:17:08,0.0
-76.39999999999964,-1672.4,-256.4,-1522.6,506.6,1982.2,2025-01-29 15:17:08,0.0
-136.39999999999964,-1812.4,-752.4,-1498.6,1294.6,1654.2,2025-01-29 15:17:08,0.0
-192.39999999999964,-1140.4,-756.4,-1300.6,1879.6,1224.2,2025-01-29 15:17:08,0.0
-760.3999999999996,-68.39999999999998,-828.4,-1265.6,1809.6,1068.2,2025-01-29 15:17:08,0.0
-788.3999999999996,579.6,-492.4,-1441.6,917.6,1222.2,2025-01-29 15:17:08,0.0
-688.3999999999996,623.6,-160.39999999999998,-1829.6,-275.4,1447.2,2025-01-29 15:17:08,0.0
-356.39999999999964,635.6,-56.39999999999998,-2216.6,-1064.4,1786.2,2025-01-29 15:17:08,0.0
415.60000000000036,-12.399999999999977,-400.4,-2538.6,-1357.4,1937.2,2025-01-29 15:17:08,0.0
723.6000000000004,-460.4,-360.4,-2567.6,-1328.4,1809.2,2025-01-29 15:17:08,0.0
747.6000000000004,-500.4,-212.39999999999998,-2352.6,-1043.4,1647.2,2025-01-29 15:17:08,0.0
479.60000000000036,-176.39999999999998,103.60000000000002,-2147.6,-334.4,1507.2,2025-01-29 15:17:08,0.0
215.60000000000036,83.60000000000002,695.6,-1965.6,507.6,1299.2,2025-01-29 15:17:08,0.0
-184.39999999999964,527.6,667.6,-1732.6,716.6,955.2,2025-01-29 15:17:08,0.0
-280.39999999999964,627.6,495.6,-1329.6,59.599999999999994,841.2,2025-01-29 15:17:08,0.0
219.60000000000036,347.6,-192.39999999999998,-1128.6,-734.4,703.2,2025-01-29 15:17:08,0.0
415.60000000000036,243.60000000000002,527.6,-990.6,-977.4,498.2,2025-01-29 15:17:08,0.0
319.60000000000036,155.60000000000002,771.6,-692.6,-1208.4,472.2,2025-01-29 15:17:08,0.0
347.60000000000036,399.6,687.6,-166.6,-785.4,589.2,2025-01-29 15:17:08,0.0
487.60000000000036,539.6,199.60000000000002,94.4,-66.4,565.2,2025-01-29 15:17:08,0.0
607.6000000000004,655.6,-152.39999999999998,138.4,583.6,434.2,2025-01-29 15:17:08,0.0
651.6000000000004,795.6,-368.4,45.4,1183.6,261.2,2025-01-29 15:17:08,0.0
327.60000000000036,783.6,35.60000000000002,-9.600000000000001,1663.6,67.19999999999999,2025-01-29 15:17:08,0.0
175.60000000000036,675.6,275.6,-34.6,1408.6,-51.80000000000001,2025-01-29 15:17:08,0.0
-148.39999999999964,667.6,503.6,38.4,905.6,-61.80000000000001,2025-01-29 15:17:08,0.0
-96.39999999999964,731.6,7.600000000000023,213.4,607.6,-87.80000000000001,2025-01-29 15:17:08,0.0
-100.39999999999964,771.6,-620.4,249.4,573.6,-190.8,2025-01-29 15:17:08,0.0
-208.39999999999964,743.6,-576.4,126.4,798.6,-279.8,2025-01-29 15:17:08,0.0
-200.39999999999964,715.6,-524.4,6.399999999999999,829.6,-270.8,2025-01-29 15:17:08,0.0
-252.39999999999964,667.6,-176.39999999999998,-105.6,526.6,-237.8,2025-01-29 15:17:08,0.0
-200.39999999999964,787.6,-28.399999999999977,-239.6,190.6,-191.8,2025-01-29 15:17:08,0.0
-160.39999999999964,971.6,55.60000000000002,-125.6,232.6,-218.8,2025-01-29 15:17:08,0.0
-304.39999999999964,823.6,-316.4,-123.6,149.6,-220.8,2025-01-29 15:17:08,0.0
-108.39999999999964,511.6,-572.4,-92.6,-23.400000000000006,-199.8,2025-01-29 15:17:08,0.0
-112.39999999999964,227.60000000000002,-124.39999999999998,46.4,16.599999999999994,-23.80000000000001,2025-01-29 15:17:08,0.0
27.600000000000364,267.6,211.60000000000002,211.4,155.6,61.19999999999999,2025-01-29 15:17:08,0.0
63.600000000000364,271.6,99.60000000000002,367.4,35.599999999999994,55.19999999999999,2025-01-29 15:17:08,0.0
219.60000000000036,551.6,-184.39999999999998,349.4,-83.4,-38.80000000000001,2025-01-29 15:17:08,0.0
43.600000000000364,811.6,-124.39999999999998,308.4,84.6,-127.80000000000001,2025-01-29 15:17:08,0.0
7.600000000000364,835.6,-472.4,316.4,362.6,-167.8,2025-01-29 15:17:08,0.0
-120.39999999999964,751.6,-472.4,362.4,513.6,-102.80000000000001,2025-01-29 15:17:08,0.0
-340.39999999999964,687.6,-516.4,269.4,286.6,-6.800000000000011,2025-01-29 15:17:08,0.0
-164.39999999999964,479.6,-380.4,193.4,-139.4,13.199999999999989,2025-01-29 15:17:08,0.0
-92.39999999999964,579.6,-224.39999999999998,143.4,-418.4,-15.800000000000011,2025-01-29 15:17:08,0.0
39.600000000000364,623.6,-436.4,9.399999999999999,-395.4,-12.800000000000011,2025-01-29 15:17:08,0.0
51.600000000000364,731.6,-624.4,-97.6,-550.4,-8.800000000000011,2025-01-29 15:17:08,0.0
155.60000000000036,671.6,-808.4,-192.6,-577.4,77.19999999999999,2025-01-29 15:17:08,
155.60000000000036,803.6,-424.4,-232.6,-417.4,80.19999999999999,2025-01-29 15:17:08,0.0
399.60000000000036,639.6,-192.39999999999998,-253.6,-85.4,58.19999999999999,2025-01-29 15:17:08,0.0
431.60000000000036,407.6,-416.4,-324.6,199.6,-46.80000000000001,2025-01-29 15:17:08,0.0
459.60000000000036,407.6,-348.4,-241.6,204.6,-133.8,2025-01-29 15:17:08,0.0
411.60000000000036,367.6,-420.4,-118.6,221.6,-129.8,2025-01-29 15:17:08,0.0
331.60000000000036,355.6,-336.4,-108.6,418.6,-157.8,2025-01-29 15:17:08,0.0
279.60000000000036,431.6,-136.39999999999998,-23.6,537.6,-161.8,2025-01-29 15:17:08,0.0
31.600000000000364,383.6,-416.4,92.4,475.6,-110.80000000000001,2025-01-29 15:17:08,0.0
15.600000000000364,455.6,-488.4,158.4,385.6,-82.80000000000001,2025-01-29 15:17:08,0.0
-68.39999999999964,435.6,-584.4,168.4,386.6,-73.80000000000001,2025-01-29 15:17:08,0.0
-148.39999999999964,779.6,-876.4,196.4,467.6,25.19999999999999,2025-01-29 15:17:08,0.0
-180.39999999999964,1115.6,-900.4,245.4,561.6,104.19999999999999,2025-01-29 15:17:08,0.0
-28.399999999999636,1223.6,-980.4,188.4,522.6,155.2,2025-01-29 15:17:08,0.0
55.600000000000364,1035.6,-620.4,131.4,620.6,218.2,2025-01-29 15:17:08,0.0
199.60000000000036,795.6,-292.4,78.4,706.6,267.2,2025-01-29 15:17:09,0.0
107.60000000000036,675.6,-540.4,143.4,829.6,362.2,2025-01-29 15:17:09,0.0
143.60000000000036,759.6,-616.4,181.4,1099.6,388.2,2025-01-29 15:17:09,0.0
131.60000000000036,1075.6,-616.4,38.4,1232.6,399.2,2025-01-29 15:17:09,0.0
-280.39999999999964,1295.6,-704.4,-13.600000000000001,1312.6,425.2,2025-01-29 15:17:09,0.0
-496.39999999999964,1459.6,-808.4,-185.6,883.6,616.2,2025-01-29 15:17:09,0.0
-344.39999999999964,1223.6,-180.39999999999998,-253.6,377.6,681.2,2025-01-29 15:17:09,0.0
-368.39999999999964,1379.6,-8.399999999999977,-319.6,272.6,568.2,2025-01-29 15:17:09,0.0
-204.39999999999964,1527.6,655.6,-595.6,272.6,140.2,2025-01-29 15:17:09,0.0
-132.39999999999964,1387.6,383.6,-741.6,-651.4,-298.8,2025-01-29 15:17:09,0.0
-16.399999999999636,1563.6,111.60000000000002,-926.6,-2543.4,-662.8,2025-01-29 15:17:09,0.0
-96.39999999999964,1555.6,383.6,-1054.6,-3768.4,-866.8,2025-01-29 15:17:09,0.0
219.60000000000036,1387.6,875.6,-1016.6,-4273.4,-1051.8,2025-01-29 15:17:09,0.0
371.60000000000036,1183.6,1311.6,-739.6,-4089.4,-1062.8,2025-01-29 15:17:09,0.0
695.6000000000004,915.6,1371.6,-473.6,-3598.4,-930.8,2025-01-29 15:17:09,0.0
871.6000000000004,799.6,1055.6,-291.6,-3250.4,-762.8,2025-01-29 15:17:09,0.0
943.6000000000004,483.6,715.6,-168.6,-2930.4,-718.8,2025-01-29 15:17:09,0.0
847.6000000000004,-60.39999999999998,351.6,0.3999999999999986,-2117.4,-938.8,2025-01-29 15:17:09,0.0
431.60000000000036,-324.4,-436.4,198.4,-442.4,-1307.8,2025-01-29 15:17:09,0.0
-472.39999999999964,-528.4,-192.39999999999998,1081.4,2387.6,-2593.8,2025-01-29 15:17:09,0.0
-568.3999999999996,-220.39999999999998,1107.6,1609.4,1554.6,-2739.8,2025-01-29 15:17:09,0.0
-692.3999999999996,-108.39999999999998,2163.6,1812.4,844.6,-2540.8,2025-01-29 15:17:09,0.0
-752.3999999999996,-116.39999999999998,2183.6,1555.4,247.6,-2250.8,2025-01-29 15:17:09,0.0
-356.39999999999964,-36.39999999999998,1735.6,922.4,-877.4,-1998.8,2025-01-29 15:17:09,0.0
-228.39999999999964,515.6,1975.6,269.4,-1673.4,-1850.8,2025-01-29 15:17:09,0.0
415.60000000000036,795.6,1759.6,-509.6,-1503.4,-1802.8,2025-01-29 15:17:09,0.0
1287.6000000000004,383.6,1631.6,-1697.6,-154.4,-2189.8,2025-01-29 15:17:09,0.0
1003.6000000000004,-476.4,2039.6,-2576.6,1372.6,-2900.8,2025-01-29 15:17:09,0.0
643.6000000000004,-1404.4,2503.6,-2781.6,1510.6,-3249.8,2025-01-29 15:17:09,0.0
-36.399999999999636,-2120.4,3567.6,-2457.6,751.6,-3250.8,2025-01-29 15:17:09,0.0
-220.39999999999964,-2384.4,4355.6,-1649.6,-256.4,-2860.8,2025-01-29 15:17:09,0.0
83.60000000000036,-2080.4,4015.6,-795.6,-1179.4,-2294.8,2025-01-29 15:17:09,0.0
867.6000000000004,-1428.4,3663.6,-576.6,-2142.4,-1871.8,2025-01-29 15:17:09,0.0
1951.6000000000004,-932.4,2387.6,-722.6,-2777.4,-1681.8,2025-01-29 15:17:09,0.0
2571.6000000000004,-612.4,1423.6,-1350.6,-2427.4,-1630.8,2025-01-29 15:17:09,0.0
2759.6000000000004,-240.39999999999998,867.6,-2114.6,-764.4,-1355.8,2025-01-29 15:17:09,0.0
2351.6000000000004,-204.39999999999998,559.6,-2791.6,1486.6,-940.8,2025-01-29 15:17:09,0.0
1243.6000000000004,-200.39999999999998,723.6,-3364.6,3781.6,-218.8,2025-01-29 15:17:09,0.0
7.600000000000364,-1060.4,1771.6,-3687.6,5322.6,676.2,2025-01-29 15:17:09,0.0
-1060.3999999999996,-1864.4,2163.6,-3807.6,5295.6,1306.2,2025-01-29 15:17:09,0.0
-1884.3999999999996,-2548.4,3651.6,-3547.6,4233.6,1847.2,2025-01-29 15:17:09,0.0
-1768.3999999999996,-3164.4,4135.6,-2754.6,2269.6,1959.2,2025-01-29 15:17:09,0.0
-1636.3999999999996,-3008.4,3907.6,-2219.6,-213.4,1437.2,2025-01-29 15:17:09,0.0
-1184.3999999999996,-2404.4,3531.6,-1956.6,-1920.4,644.2,2025-01-29 15:17:09,0.0
-620.3999999999996,-1828.4,2675.6,-1735.6,-2800.4,-120.80000000000001,2025-01-29 15:17:09,0.0
183.60000000000036,-1820.4,2127.6,-1781.6,-2940.4,-860.8,2025-01-29 15:17:09,0.0
651.6000000000004,-1704.4,2167.6,-1935.6,-2590.4,-1288.8,2025-01-29 15:17:09,0.0
655.6000000000004,-1412.4,2699.6,-2156.6,-1812.4,-1229.8,2025-01-29 15:17:09,0.0
523.6000000000004,-1072.4,2999.6,-2750.6,-444.4,-1426.8,2025-01-29 15:17:09,0.0
-500.39999999999964,-2088.4,1227.6,-3884.6,1222.6,-2601.8,2025-01-29 15:17:09,0.0
-1928.3999999999996,-3364.4,227.60000000000002,-4604.6,1991.6,-3701.8,2025-01-29 15:17:09,0.0
-3120.3999999999996,-4324.4,487.6,-4605.6,1927.6,-4394.8,2025-01-29 15:17:09,0.0
-4416.4,-4752.4,2795.6,-3839.6,1613.6,-4598.8,2025-01-29 15:17:09,0.0
-5252.4,-5408.4,4451.6,-2198.6,1076.6,-4484.8,2025-01-29 15:17:09,0.0
-5748.4,-5624.4,4731.6,-194.6,-660.4,-3961.8,2025-01-29 15:17:09,0.0
-6356.4,-5076.4,3495.6,1260.4,-4510.4,-2426.8,2025-01-29 15:17:09,0.0
-5844.4,-3888.4,2531.6,2037.4,-9847.4,302.2,2025-01-29 15:17:09,0.0
-4716.4,-1736.4,2663.6,3165.4,-12609.4,3292.2,2025-01-29 15:17:09,0.0
-2596.3999999999996,-1056.4,131.60000000000002,4473.4,-11544.4,6036.2,2025-01-29 15:17:09,0.0
1211.6000000000004,-1764.4,-4260.4,4229.4,-6511.4,6861.2,2025-01-29 15:17:09,0.0
4031.6000000000004,-1836.4,-6604.4,1830.4,-224.4,4628.2,2025-01-29 15:17:10,0.0
3843.6000000000004,-1176.4,-4212.4,166.4,1968.6,2359.2,2025-01-29 15:17:10,0.0
2563.6000000000004,-20.399999999999977,-1352.4,13.399999999999999,2080.6,1298.2,2025-01-29 15:17:10,0.0
1479.6000000000004,1467.6,-32.39999999999998,1092.4,1393.6,1498.2,2025-01-29 15:17:10,0.0
583.6000000000004,2499.6,-612.4,2211.4,1268.6,2489.2,2025-01-29 15:17:10,0.0
475.60000000000036,2447.6,-1684.4,2205.4,1967.6,3054.2,2025-01-29 15:17:10,0.0
351.60000000000036,1247.6,-1872.4,1253.4,2892.6,3174.2,2025-01-29 15:17:10,0.0
515.6000000000004,-248.39999999999998,-572.4,766.4,3401.6,3368.2,2025-01-29 15:17:10,0.0
723.6000000000004,-1200.4,135.60000000000002,1129.4,2805.6,3323.2,2025-01-29 15:17:10,0.0
163.60000000000036,-1308.4,339.6,1364.4,1973.6,3163.2,2025-01-29 15:17:10,0.0
-112.39999999999964,-972.4,979.6,1568.4,1063.6,3004.2,2025-01-29 15:17:10,0.0
-656.3999999999996,131.60000000000002,1507.6,1780.4,167.6,3049.2,2025-01-29 15:17:10,0.0
-744.3999999999996,975.6,1495.6,2138.4,-883.4,3513.2,2025-01-29 15:17:10,0.0
187.60000000000036,1211.6,1295.6,2567.4,-1974.4,3756.2,2025-01-29 15:17:10,0.0
1471.6000000000004,1579.6,967.6,2774.4,-2740.4,3525.2,2025-01-29 15:17:10,0.0
2423.6000000000004,1619.6,831.6,2374.4,-2121.4,2925.2,2025-01-29 15:17:10,0.0
3107.6000000000004,1307.6,959.6,2147.4,-713.4,2289.2,2025-01-29 15:17:10,0.0
2503.6000000000004,1223.6,1075.6,2165.4,-23.400000000000006,2047.2,2025-01-29 15:17:10,0.0
2055.6000000000004,1167.6,1311.6,2229.4,324.6,2136.2,2025-01-29 15:17:10,0.0
2147.6000000000004,1043.6,1719.6,2339.4,394.6,2000.2,2025-01-29 15:17:10,0.0
2343.6000000000004,1159.6,2203.6,2352.4,108.6,1346.2,2025-01-29 15:17:10,0.0
2319.6000000000004,1099.6,2419.6,2336.4,-239.4,563.2,2025-01-29 15:17:10,0.0
2083.6000000000004,1295.6,2631.6,2360.4,-734.4,-54.80000000000001,2025-01-29 15:17:10,0.0
1895.6000000000004,1183.6,2859.6,2506.4,-1026.4,-572.8,2025-01-29 15:17:10,0.0
1743.6000000000004,899.6,3083.6,2749.4,-1248.4,-906.8,2025-01-29 15:17:10,0.0
1507.6000000000004,675.6,3099.6,2907.4,-1180.4,-1218.8,2025-01-29 15:17:10,
1471.6000000000004,935.6,3207.6,2996.4,-917.4,-1457.8,2025-01-29 15:17:10,0.0
1351.6000000000004,1911.6,2879.6,3192.4,-461.4,-1617.8,2025-01-29 15:17:10,0.0
1107.6000000000004,2759.6,2535.6,3331.4,0.5999999999999943,-1284.8,2025-01-29 15:17:10,0.0
631.6000000000004,3323.6,1343.6,3234.4,656.6,-719.8,2025-01-29 15:17:10,0.0
-36.399999999999636,2943.6,371.6,3035.4,1698.6,-44.80000000000001,2025-01-29 15:17:10,0.0
-680.3999999999996,1691.6,1091.6,2626.4,2961.6,592.2,2025-01-29 15:17:10,0.0
-1924.3999999999996,1263.6,2547.6,2542.4,4957.6,1404.2,2025-01-29 15:17:10,0.0
-3748.3999999999996,2383.6,3251.6,2717.4,6882.6,2353.2,2025-01-29 15:17:10,0.0
-4408.4,2855.6,4375.6,3107.4,6656.6,3033.2,2025-01-29 15:17:10,0.0
-3644.3999999999996,1303.6,4895.6,3365.4,3708.6,3093.2,2025-01-29 15:17:10,0.0
-3344.3999999999996,255.60000000000002,3867.6,3469.4,746.6,2572.2,2025-01-29 15:17:10,0.0
-3648.3999999999996,-56.39999999999998,2139.6,3637.4,94.6,2129.2,2025-01-29 15:17:10,0.0
-4324.4,831.6,1243.6,4235.4,830.6,2164.2,2025-01-29 15:17:10,0.0
-5600.4,3195.6,-984.4,4585.4,2560.6,3288.2,2025-01-29 15:17:10,0.0
-6040.4,5043.6,-4184.4,3325.4,3931.6,5222.2,2025-01-29 15:17:10,0.0
-5388.4,6995.6,-6832.4,70.4,3747.6,7317.2,2025-01-29 15:17:10,0.0
-2384.3999999999996,8015.6,-6540.4,-2702.6,2291.6,7641.2,2025-01-29 15:17:10,0.0
1863.6000000000004,6763.6,-5124.4,-4036.6,-238.4,4956.2,2025-01-29 15:17:10,0.0
5795.6,2171.6,-6072.4,-4965.6,-4753.4,-536.8,2025-01-29 15:17:10,0.0
3299.6000000000004,-2224.4,-4192.4,-5872.6,-9965.4,-4754.8,2025-01-29 15:17:10,0.0
1175.6000000000004,-4056.4,-2400.4,-4782.6,-10959.4,-5222.8,2025-01-29 15:17:10,0.0
535.6000000000004,-5172.4,-2532.4,-3304.6,-8209.4,-4056.8,2025-01-29 15:17:10,0.0
1231.6000000000004,-3768.4,-1672.4,-1801.6,-2282.4,-2660.8,2025-01-29 15:17:10,0.0
2699.6000000000004,-616.4,-1572.4,81.4,4310.6,-2469.8,2025-01-29 15:17:10,0.0
2419.6000000000004,1515.6,-2332.4,536.4,8404.6,-2461.8,2025-01-29 15:17:10,0.0
2375.6000000000004,2603.6,-2460.4,-250.6,10281.6,-2632.8,2025-01-29 15:17:10,0.0
755.6000000000004,2539.6,-1492.4,-1433.6,10135.6,-2874.8,2025-01-29 15:17:10,0.0
-1232.3999999999996,1447.6,-712.4,-2007.6,8985.6,-3307.8,2025-01-29 15:17:10,0.0
-1788.3999999999996,215.60000000000002,-2004.4,-2678.6,6092.6,-3610.8,2025-01-29 15:17:10,0.0
-1352.3999999999996,-808.4,-1596.4,-3485.6,719.6,-3291.8,2025-01-29 15:17:10,0.0
-560.3999999999996,-1552.4,-448.4,-3637.6,-4804.4,-2781.8,2025-01-29 15:17:10,0.0
1063.6000000000004,-1836.4,-596.4,-3189.6,-7243.4,-2590.8,2025-01-29 15:17:11,0.0
2715.6000000000004,-1696.4,-716.4,-3095.6,-7116.4,-2583.8,2025-01-29 15:17:11,0.0
3915.6000000000004,-1044.4,-1220.4,-2935.6,-4810.4,-2883.8,2025-01-29 15:17:11,0.0
4455.6,-704.4,-1296.4,-2743.6,-1771.4,-3108.8,2025-01-29 15:17:11,0.0
4083.6000000000004,-424.4,-1224.4,-2569.6,1059.6,-3246.8,2025-01-29 15:17:11,0.0
3575.6000000000004,-632.4,-948.4,-2470.6,3593.6,-3213.8,2025-01-29 15:17:11,0.0
3011.6000000000004,-668.4,-872.4,-2469.6,5102.6,-3297.8,2025-01-29 15:17:11,0.0
1799.6000000000004,-532.4,-140.39999999999998,-2558.6,5495.6,-3445.8,2025-01-29 15:17:11,0.0
339.60000000000036,-136.39999999999998,787.6,-2733.6,4545.6,-3249.8,2025-01-29 15:17:11,0.0
2167.6000000000004,-312.4,-4.399999999999977,-2843.6,-2634.4,1723.2,2025-01-29 15:17:11,0.0
2003.6000000000004,-556.4,107.60000000000002,-3239.6,-1014.4,1742.2,2025-01-29 15:17:11,0.0
1479.6000000000004,-684.4,303.6,-3666.6,-188.4,1769.2,2025-01-29 15:17:11,0.0
627.6000000000004,-288.4,555.6,-4083.6,-202.4,1834.2,2025-01-29 15:17:11,0.0
-200.39999999999964,327.6,331.6,-4370.6,73.6,1853.2,2025-01-29 15:17:11,0.0
-324.39999999999964,1095.6,-108.39999999999998,-5003.6,1108.6,1362.2,2025-01-29 15:17:11,0.0
-584.3999999999996,1099.6,163.60000000000002,-6312.6,2173.6,-144.8,2025-01-29 15:17:11,0.0
-1852.3999999999996,-152.39999999999998,1879.6,-7262.6,2265.6,-1369.8,2025-01-29 15:17:11,0.0
-2412.3999999999996,-2040.4,3791.6,-7062.6,1424.6,-2590.8,2025-01-29 15:17:11,0.0
-3068.3999999999996,-2772.4,4707.6,-6517.6,-571.4,-3734.8,2025-01-29 15:17:11,0.0
-4000.3999999999996,-3424.4,4875.6,-5948.6,-2598.4,-3531.8,2025-01-29 15:17:11,0.0
-4096.4,-4372.4,2203.6,-4225.6,-1665.4,-2816.8,2025-01-29 15:17:11,0.0
-3372.3999999999996,-4236.4,751.6,-2736.6,-50.400000000000006,-2603.8,2025-01-29 15:17:11,0.0
-2252.3999999999996,-5696.4,1947.6,-391.6,585.6,-4231.8,2025-01-29 15:17:11,0.0
-3280.3999999999996,-6948.4,1219.6,2360.4,374.6,-6200.8,2025-01-29 15:17:11,0.0
-5084.4,-7560.4,-492.4,4437.4,-714.4,-6547.8,2025-01-29 15:17:11,0.0
-6880.4,-5600.4,-1144.4,6255.4,-2967.4,-5109.8,2025-01-29 15:17:11,0.0
-7588.4,-1348.4,-1432.4,7577.4,-7278.4,-1746.8,2025-01-29 15:17:11,0.0
-4720.4,2019.6,-2144.4,8589.4,-12614.4,1383.2,2025-01-29 15:17:11,0.0
-1112.3999999999996,3111.6,-5880.4,8433.4,-17439.4,4661.2,2025-01-29 15:17:11,0.0
2227.6000000000004,2771.6,-8304.4,6368.4,-17301.4,5827.2,2025-01-29 15:17:11,0.0
5519.6,2723.6,-8780.4,3768.4,-13446.4,4471.2,2025-01-29 15:17:11,0.0
7071.6,2407.6,-7708.4,961.4,-4988.4,1221.2,2025-01-29 15:17:11,0.0
4283.6,1283.6,-6336.4,-1467.6,5572.6,-964.8,2025-01-29 15:17:11,0.0
1679.6000000000004,651.6,-1584.4,-1404.6,11905.6,-972.8,2025-01-29 15:17:11,0.0
-44.399999999999636,183.60000000000002,1451.6,-480.6,13528.6,-106.80000000000001,2025-01-29 15:17:11,0.0
-360.39999999999964,-348.4,1091.6,145.4,11351.6,580.2,2025-01-29 15:17:11,0.0
-1776.3999999999996,-500.4,939.6,587.4,7320.6,1307.2,2025-01-29 15:17:11,0.0
-2184.3999999999996,-544.4,611.6,1411.4,1712.6,2115.2,2025-01-29 15:17:11,0.0
-976.3999999999996,-520.4,243.60000000000002,2037.4,-2541.4,2791.2,2025-01-29 15:17:11,0.0
503.60000000000036,-140.39999999999998,755.6,2511.4,-4294.4,3035.2,2025-01-29 15:17:11,0.0
2255.6000000000004,63.60000000000002,647.6,2852.4,-4607.4,3006.2,2025-01-29 15:17:11,0.0
2783.6000000000004,687.6,703.6,3018.4,-3253.4,2805.2,2025-01-29 15:17:11,0.0
3255.6000000000004,1471.6,579.6,3068.4,-763.4,2471.2,2025-01-29 15:17:11,0.0
2747.6000000000004,1323.6,667.6,3012.4,2241.6,1914.2,2025-01-29 15:17:11,0.0
2471.6000000000004,1107.6,255.60000000000002,2769.4,4274.6,1327.2,2025-01-29 15:17:11,0.0
1099.6000000000004,947.6,1655.6,2835.4,4793.6,1132.2,2025-01-29 15:17:11,0.0
435.60000000000036,887.6,2223.6,3063.4,3573.6,1072.2,2025-01-29 15:17:11,0.0
-12.399999999999636,735.6,2567.6,3032.4,1330.6,811.2,2025-01-29 15:17:11,0.0
-280.39999999999964,903.6,2727.6,2997.4,-775.4,518.2,2025-01-29 15:17:11,0.0
-232.39999999999964,1287.6,2327.6,3049.4,-2517.4,312.2,2025-01-29 15:17:11,0.0
543.6000000000004,1239.6,2575.6,3004.4,-4272.4,-101.80000000000001,2025-01-29 15:17:11,0.0
963.6000000000004,1099.6,2879.6,3059.4,-5008.4,-565.8,2025-01-29 15:17:11,0.0
1615.6000000000004,775.6,2695.6,3083.4,-5074.4,-1007.8,2025-01-29 15:17:11,0.0
1735.6000000000004,791.6,1963.6,3211.4,-5105.4,-1514.8,2025-01-29 15:17:11,0.0
1535.6000000000004,939.6,815.6,3207.4,-5471.4,-1803.8,2025-01-29 15:17:11,0.0
1395.6000000000004,1063.6,627.6,2877.4,-5755.4,-1962.8,2025-01-29 15:17:11,0.0
1939.6000000000004,827.6,1991.6,2888.4,-5518.4,-1974.8,2025-01-29 15:17:11,0.0
2235.6000000000004,43.60000000000002,2199.6,2953.4,-4408.4,-1884.8,2025-01-29 15:17:11,0.0
1815.6000000000004,-316.4,1683.6,3169.4,-1839.4,-1485.8,2025-01-29 15:17:11,0.0
1039.6000000000004,879.6,1259.6,3376.4,1196.6,-981.8,2025-01-29 15:17:12,0.0
339.60000000000036,1683.6,1703.6,3688.4,3305.6,-962.8,2025-01-29 15:17:12,0.0
-1900.3999999999996,2191.6,3487.6,4008.4,4571.6,-776.8,2025-01-29 15:17:12,0.0
-3132.3999999999996,1511.6,5115.6,4327.4,4838.6,-297.8,2025-01-29 15:17:12,0.0
-2956.3999999999996,51.60000000000002,6039.6,4873.4,3889.6,272.2,2025-01-29 15:17:12,0.0
-2604.3999999999996,239.60000000000002,3971.6,5688.4,2089.6,797.2,2025-01-29 15:17:12,0.0
-3008.3999999999996,1035.6,935.6,5553.4,1931.6,956.2,2025-01-29 15:17:12,0.0
-4472.4,3003.6,27.600000000000023,4557.4,3378.6,1380.2,2025-01-29 15:17:12,0.0
-5488.4,5635.6,-1420.4,3325.4,5733.6,2491.2,2025-01-29 15:17:12,0.0
-5832.4,6671.6,-4632.4,1210.4,7185.6,3858.2,2025-01-29 15:17:12,
-5172.4,6327.6,-6464.4,-2069.6,6880.6,4615.2,2025-01-29 15:17:12,0.0
-2132.3999999999996,4531.6,-3176.4,-4732.6,3588.6,3628.2,2025-01-29 15:17:12,0.0
-472.39999999999964,191.60000000000002,415.6,-5351.6,-505.4,1196.2,2025-01-29 15:17:12,0.0
-0.3999999999996362,-3204.4,1139.6,-4770.6,-3704.4,-625.8,2025-01-29 15:17:12,0.0
523.6000000000004,-5444.4,-864.4,-3114.6,-6688.4,-1828.8,2025-01-29 15:17:12,0.0
443.60000000000036,-5940.4,-3920.4,-1428.6,-9161.4,-1699.8,2025-01-29 15:17:12,0.0
907.6000000000004,-6120.4,-3928.4,-105.6,-7914.4,-623.8,2025-01-29 15:17:12,0.0
2063.6000000000004,-4684.4,-2200.4,1868.4,-2860.4,-300.8,2025-01-29 15:17:12,0.0
2979.6000000000004,-2224.4,-2360.4,3577.4,2790.6,-937.8,2025-01-29 15:17:12,0.0
2303.6000000000004,315.6,-3324.4,3499.4,6548.6,-1286.8,2025-01-29 15:17:12,0.0
1827.6000000000004,1007.6,-2364.4,2362.4,7693.6,-1420.8,2025-01-29 15:17:12,0.0
891.6000000000004,155.60000000000002,-1304.4,1685.4,7820.6,-2011.8,2025-01-29 15:17:12,0.0
-600.3999999999996,-912.4,-476.4,1279.4,6755.6,-2500.8,2025-01-29 15:17:12,0.0
-1028.3999999999996,-1252.4,-428.4,1181.4,3916.6,-2453.8,2025-01-29 15:17:12,0.0
-476.39999999999964,-1316.4,-740.4,1085.4,936.6,-2020.8,2025-01-29 15:17:12,0.0
1267.6000000000004,-1792.4,-2452.4,838.4,-761.4,-1899.8,2025-01-29 15:17:12,0.0
1983.6000000000004,-1916.4,-1992.4,112.4,-1310.4,-2157.8,2025-01-29 15:17:12,0.0
1823.6000000000004,-1668.4,-1264.4,-334.6,-363.4,-2477.8,2025-01-29 15:17:12,0.0
1543.6000000000004,-1108.4,-880.4,-726.6,1665.6,-2544.8,2025-01-29 15:17:12,0.0
735.6000000000004,-544.4,-960.4,-1145.6,3542.6,-2442.8,2025-01-29 15:17:12,0.0
-48.399999999999636,-240.39999999999998,-1248.4,-1746.6,3579.6,-2260.8,2025-01-29 15:17:12,0.0
-696.3999999999996,-452.4,-492.4,-2391.6,2307.6,-2020.8,2025-01-29 15:17:12,0.0
-1568.3999999999996,-944.4,743.6,-2808.6,735.6,-1480.8,2025-01-29 15:17:12,0.0
-460.39999999999964,-1248.4,-12.399999999999977,-2858.6,-425.4,-983.8,2025-01-29 15:17:12,0.0
-304.39999999999964,-1228.4,-488.4,-2909.6,-1623.4,-565.8,2025-01-29 15:17:12,0.0
891.6000000000004,-1272.4,-1296.4,-3135.6,-2353.4,-251.8,2025-01-29 15:17:12,0.0
1631.6000000000004,-1476.4,-1016.4,-3447.6,-1533.4,-184.8,2025-01-29 15:17:12,0.0
1655.6000000000004,-1748.4,-324.4,-3478.6,-351.4,-168.8,2025-01-29 15:17:12,0.0
1359.6000000000004,-1844.4,-716.4,-3426.6,816.6,110.19999999999999,2025-01-29 15:17:12,0.0
323.60000000000036,-1664.4,-508.4,-3306.6,1102.6,468.2,2025-01-29 15:17:12,0.0
-160.39999999999964,-1608.4,-488.4,-3266.6,175.6,885.2,2025-01-29 15:17:12,0.0
-216.39999999999964,-1748.4,-592.4,-3329.6,-1689.4,1446.2,2025-01-29 15:17:12,0.0
327.60000000000036,-1796.4,-828.4,-3154.6,-2361.4,2030.2,2025-01-29 15:17:12,0.0
755.6000000000004,-1928.4,-1924.4,-3005.6,-1824.4,2441.2,2025-01-29 15:17:12,0.0
1447.6000000000004,-1744.4,-2496.4,-3331.6,-679.4,2536.2,2025-01-29 15:17:12,0.0
2183.6000000000004,-1224.4,-876.4,-3328.6,1037.6,2043.2,2025-01-29 15:17:12,0.0
2087.6000000000004,-800.4,-136.39999999999998,-3098.6,2036.6,1852.2,2025-01-29 15:17:12,0.0
1431.6000000000004,-428.4,95.60000000000002,-2759.6,2586.6,1627.2,2025-01-29 15:17:12,0.0
-52.399999999999636,-476.4,-412.4,-2245.6,2968.6,1479.2,2025-01-29 15:17:12,0.0
-1204.3999999999996,-1208.4,-2084.4,-1936.6,3063.6,1447.2,2025-01-29 15:17:12,0.0
-1768.3999999999996,-1884.4,-2196.4,-1570.6,2806.6,1374.2,2025-01-29 15:17:12,0.0
-1356.3999999999996,-2028.4,-1896.4,-1211.6,1601.6,1247.2,2025-01-29 15:17:12,0.0
35.600000000000364,-1812.4,-1396.4,-1030.6,-385.4,887.2,2025-01-29 15:17:12,0.0
1187.6000000000004,-640.4,-1072.4,-713.6,-1176.4,385.2,2025-01-29 15:17:12,0.0
1863.6000000000004,391.6,-2732.4,-993.6,-445.4,120.19999999999999,2025-01-29 15:17:12,0.0
1943.6000000000004,859.6,-3548.4,-1727.6,755.6,-263.8,2025-01-29 15:17:12,0.0
1931.6000000000004,631.6,-2484.4,-2144.6,1087.6,-476.8,2025-01-29 15:17:12,0.0
1863.6000000000004,435.6,-1828.4,-2084.6,1206.6,-161.8,2025-01-29 15:17:12,0.0
2759.6000000000004,251.60000000000002,-2824.4,-1906.6,1008.6,565.2,2025-01-29 15:17:12,0.0
3819.6000000000004,-164.39999999999998,-4416.4,-2419.6,2228.6,623.2,2025-01-29 15:17:12,0.0
4211.6,-444.4,-4416.4,-3154.6,3241.6,186.2,2025-01-29 15:17:13,0.0
4983.6,-784.4,-3088.4,-3837.6,3774.6,-258.8,2025-01-29 15:17:13,0.0
5895.6,-572.4,-1860.4,-4542.6,3181.6,-774.8,2025-01-29 15:17:13,0.0
5983.6,-152.39999999999998,-556.4,-4881.6,1964.6,-1115.8,2025-01-29 15:17:13,0.0
6891.6,471.6,883.6,-4494.6,749.6,-939.8,2025-01-29 15:17:13,0.0
7879.6,43.60000000000002,1775.6,-3335.6,185.6,-1100.8,2025-01-29 15:17:13,0.0
7471.6,-360.4,1655.6,-2585.6,-276.4,-1531.8,2025-01-29 15:17:13,0.0
7795.6,-248.39999999999998,2151.6,-2423.6,-702.4,-1950.8,2025-01-29 15:17:13,0.0
6691.6,867.6,2295.6,-2866.6,-416.4,-2022.8,2025-01-29 15:17:13,0.0
4731.6,2159.6,2367.6,-2316.6,64.6,-1240.8,2025-01-29 15:17:13,0.0
3519.6000000000004,2239.6,-8.399999999999977,-1829.6,89.6,-291.8,2025-01-29 15:17:13,0.0
2103.6000000000004,1883.6,-852.4,-2034.6,-107.4,-101.80000000000001,2025-01-29 15:17:13,0.0
511.60000000000036,1167.6,735.6,-2157.6,-852.4,-73.80000000000001,2025-01-29 15:17:13,0.0
-1952.3999999999996,675.6,2887.6,-1950.6,-2232.4,-97.80000000000001,2025-01-29 15:17:13,0.0
-3976.3999999999996,875.6,2447.6,-1587.6,-2321.4,57.19999999999999,2025-01-29 15:17:13,0.0
-5620.4,251.60000000000002,1095.6,-1175.6,-734.4,596.2,2025-01-29 15:17:13,0.0
-5868.4,215.60000000000002,-580.4,-141.6,460.6,290.2,2025-01-29 15:17:13,0.0
-6276.4,-804.4,-3008.4,-51.6,1017.6,-727.8,2025-01-29 15:17:13,0.0
-2280.3999999999996,283.6,-4564.4,-367.6,-2132.4,-842.8,2025-01-29 15:17:13,0.0
-10972.4,963.6,-2808.4,-974.6,-3018.4,-702.8,2025-01-29 15:17:13,0.0
-13328.4,1607.6,-664.4,-1343.6,-3771.4,-297.8,2025-01-29 15:17:13,0.0
-15692.4,975.6,-200.39999999999998,-1009.6,-3858.4,682.2,2025-01-29 15:17:13,0.0
-16468.4,743.6,-3400.4,-614.6,-3204.4,2436.2,2025-01-29 15:17:13,0.0
-19036.4,2055.6,-3964.4,-1618.6,-2669.4,3835.2,2025-01-29 15:17:13,0.0
-19036.4,2819.6,-592.4,-1046.6,-5809.4,5589.2,2025-01-29 15:17:13,0.0
-19036.4,2247.6,5091.6,394.4,-7735.4,4214.2,2025-01-29 15:17:13,0.0
-19036.4,2799.6,9867.6,1640.4,-8056.4,3407.2,2025-01-29 15:17:13,0.0
-19036.4,611.6,5103.6,1496.4,-5420.4,3138.2,2025-01-29 15:17:13,0.0
-19036.4,-2260.4,5663.6,-135.6,-1202.4,472.2,2025-01-29 15:17:13,0.0
-19036.4,-3460.4,5671.6,-1799.6,1454.6,-4322.8,2025-01-29 15:17:13,0.0
-19036.4,-1388.4,8871.6,-1764.6,4217.6,-5072.8,2025-01-29 15:17:13,0.0
-19036.4,-2024.4,-1004.4,2589.4,7852.6,-3960.8,2025-01-29 15:17:13,0.0
-13352.4,-1696.4,-7044.4,1406.4,4371.6,-3948.8,2025-01-29 15:17:13,0.0
-9184.4,2859.6,307.6,1764.4,-5690.4,-1416.8,2025-01-29 15:17:13,0.0
-2320.3999999999996,3223.6,-2340.4,5334.4,-11033.4,2161.2,2025-01-29 15:17:13,0.0
13399.6,307.6,-10352.4,4528.4,-12033.4,3176.2,2025-01-29 15:17:13,0.0
26427.6,-752.4,-15540.4,568.4,-10949.4,2224.2,2025-01-29 15:17:13,0.0
41771.6,427.6,-14468.4,-3248.6,-12908.4,-619.8,2025-01-29 15:17:13,0.0
34239.6,-144.39999999999998,-13912.4,-5094.6,-9355.4,-3029.8,2025-01-29 15:17:13,0.0
26631.6,2047.6,-12876.4,-5349.6,726.6,-4726.8,2025-01-29 15:17:13,0.0
19139.6,3139.6,-9308.4,-5245.6,9865.6,-4764.8,2025-01-29 15:17:13,0.0
12191.6,1659.6,611.6,-4616.6,12859.6,-3107.8,2025-01-29 15:17:13,0.0
7627.6,-1832.4,8739.6,-2116.6,10465.6,-891.8,2025-01-29 15:17:13,0.0
9371.6,-2332.4,10383.6,206.4,6234.6,566.2,2025-01-29 15:17:13,0.0
9719.6,-2420.4,12299.6,1857.4,3613.6,1065.2,2025-01-29 15:17:13,0.0
11459.6,-1268.4,9227.6,3545.4,1209.6,1434.2,2025-01-29 15:17:13,0.0
12859.6,851.6,4975.6,4437.4,-586.4,2431.2,2025-01-29 15:17:13,0.0
15723.6,1783.6,1359.6,4354.4,-291.4,2502.2,2025-01-29 15:17:13,0.0
17707.6,1103.6,511.6,3197.4,-660.4,2225.2,2025-01-29 15:17:13,0.0
20535.6,-340.4,343.6,2259.4,-1219.4,1272.2,2025-01-29 15:17:13,
19847.6,-964.4,-296.4,829.4,-1540.4,-489.8,2025-01-29 15:17:13,0.0
17683.6,-496.4,439.6,256.4,-431.4,-1122.8,2025-01-29 15:17:13,0.0
16283.6,343.6,1167.6,80.4,879.6,-1077.8,2025-01-29 15:17:13,0.0
15075.6,431.6,2443.6,399.4,1729.6,-739.8,2025-01-29 15:17:13,0.0
14447.6,731.6,3447.6,834.4,1294.6,-18.80000000000001,2025-01-29 15:17:13,0.0
14563.6,455.6,3731.6,1253.4,717.6,431.2,2025-01-29 15:17:13,0.0
14447.6,819.6,4719.6,1571.4,-373.4,765.2,2025-01-29 15:17:13,0.0
14599.6,715.6,4663.6,2075.4,-1703.4,1088.2,2025-01-29 15:17:13,0.0
15419.6,583.6,3731.6,2288.4,-2929.4,945.2,2025-01-29 15:17:14,0.0
15359.6,183.60000000000002,1803.6,2270.4,-3450.4,811.2,2025-01-29 15:17:14,0.0
15583.6,391.6,-872.4,1895.4,-3032.4,867.2,2025-01-29 15:17:14,0.0
16187.6,683.6,-2296.4,752.4,-2987.4,785.2,2025-01-29 15:17:14,0.0
16171.6,539.6,-2908.4,205.4,-3757.4,553.2,2025-01-29 15:17:14,0.0
16131.6,-12.399999999999977,-2892.4,-735.6,-5499.4,179.2,2025-01-29 15:17:14,0.0
11495.6,-424.4,-3716.4,-1934.6,-6685.4,-35.80000000000001,2025-01-29 15:17:14,0.0
2147.6000000000004,-288.4,-11516.4,-2623.6,-1338.4,-428.8,2025-01-29 15:17:14,0.0
-15012.4,-500.4,-13992.4,-1005.6,12984.6,-1298.8,2025-01-29 15:17:14,0.0
-19036.4,1923.6,-9872.4,2218.4,28162.6,-4735.8,2025-01-29 15:17:14,0.0
-19036.4,2035.6,17059.6,-3261.6,15620.6,-8174.8,2025-01-29 15:17:14,0.0
-19036.4,-8752.4,-19312.4,3893.4,-1664.4,-730.8,2025-01-29 15:17:14,0.0
-19036.4,5163.6,-13692.4,-6362.6,-1390.4,-2899.8,2025-01-29 15:17:14,0.0
-19036.4,3427.6,14147.6,-2548.6,-3616.4,2492.2,2025-01-29 15:17:14,0.0
-19036.4,-1824.4,6619.6,-217.6,-7038.4,5200.2,2025-01-29 15:17:14,0.0
-5704.4,-2856.4,3611.6,-1036.6,-8504.4,3570.2,2025-01-29 15:17:14,0.0
-852.3999999999996,-1636.4,4999.6,535.4,-7483.4,1278.2,2025-01-29 15:17:14,0.0
-1504.3999999999996,-2092.4,4275.6,2630.4,-4438.4,-226.8,2025-01-29 15:17:14,0.0
-3364.3999999999996,-1584.4,383.6,3415.4,-256.4,-82.80000000000001,2025-01-29 15:17:14,0.0
-1164.3999999999996,-2364.4,-4592.4,1748.4,1261.6,-351.8,2025-01-29 15:17:14,0.0
-2636.3999999999996,1063.6,-2740.4,1645.4,5258.6,-1617.8,2025-01-29 15:17:14,0.0
-5588.4,1315.6,35.60000000000002,1262.4,9194.6,-1281.8,2025-01-29 15:17:14,0.0
-5524.4,159.60000000000002,5239.6,2174.4,7258.6,678.2,2025-01-29 15:17:14,0.0
-448.39999999999964,-944.4,5399.6,3590.4,2679.6,1491.2,2025-01-29 15:17:14,0.0
4007.6000000000004,-1204.4,2087.6,3001.4,-2134.4,1072.2,2025-01-29 15:17:14,0.0
7031.6,-1120.4,1683.6,2392.4,-4801.4,422.2,2025-01-29 15:17:14,0.0
8667.6,-516.4,863.6,1949.4,-5648.4,289.2,2025-01-29 15:17:14,0.0
9203.6,287.6,3335.6,2338.4,-5324.4,388.2,2025-01-29 15:17:14,0.0
10399.6,511.6,3343.6,3568.4,-4668.4,698.2,2025-01-29 15:17:14,0.0
10255.6,271.6,91.60000000000002,3446.4,-4011.4,611.2,2025-01-29 15:17:14,0.0
7383.6,415.6,-2612.4,1537.4,-2272.4,887.2,2025-01-29 15:17:14,0.0
7219.6,-428.4,-1380.4,242.4,-904.4,1604.2,2025-01-29 15:17:14,0.0
7323.6,-1012.4,-316.4,-74.6,285.6,1005.2,2025-01-29 15:17:14,0.0
5827.6,-208.39999999999998,719.6,4.399999999999999,1510.6,162.2,2025-01-29 15:17:14,0.0
1283.6000000000004,1631.6,2231.6,1574.4,4059.6,-837.8,2025-01-29 15:17:14,0.0
-2512.3999999999996,2211.6,647.6,3535.4,5402.6,230.2,2025-01-29 15:17:14,0.0
-2796.3999999999996,879.6,-1540.4,3237.4,4377.6,1340.2,2025-01-29 15:17:14,0.0
-2244.3999999999996,-436.4,-2164.4,1476.4,2907.6,848.2,2025-01-29 15:17:14,0.0
-3044.3999999999996,-560.4,-1244.4,-537.6,1002.6,-27.80000000000001,2025-01-29 15:17:14,0.0
-3324.3999999999996,151.60000000000002,587.6,-1580.6,-1056.4,-487.8,2025-01-29 15:17:14,0.0
-2824.3999999999996,967.6,563.6,-1891.6,-2279.4,-164.8,2025-01-29 15:17:14,0.0
-1256.3999999999996,763.6,751.6,-2028.6,-2686.4,422.2,2025-01-29 15:17:14,0.0
1267.6000000000004,107.60000000000002,1651.6,-1202.6,-1964.4,296.2,2025-01-29 15:17:14,0.0
2491.6000000000004,-724.4,1779.6,-255.6,-1241.4,46.19999999999999,2025-01-29 15:17:14,0.0
2915.6000000000004,-1876.4,1919.6,177.4,-575.4,-439.8,2025-01-29 15:17:14,0.0
2147.6000000000004,-2108.4,2123.6,482.4,517.6,-1031.8,2025-01-29 15:17:14,0.0
515.6000000000004,-1236.4,2715.6,939.4,1569.6,-1186.8,2025-01-29 15:17:14,0.0
-1096.3999999999996,87.60000000000002,2771.6,1724.4,1908.6,-385.8,2025-01-29 15:17:14,0.0
-1180.3999999999996,779.6,1719.6,2007.4,1817.6,367.2,2025-01-29 15:17:14,0.0
-1016.3999999999996,1159.6,979.6,2027.4,1576.6,620.2,2025-01-29 15:17:14,0.0
-868.3999999999996,1455.6,647.6,1728.4,1050.6,552.2,2025-01-29 15:17:14,0.0
-764.3999999999996,1383.6,287.6,1331.4,75.6,480.2,2025-01-29 15:17:14,0.0
-408.39999999999964,783.6,-44.39999999999998,502.4,-973.4,236.2,2025-01-29 15:17:14,0.0
-376.39999999999964,491.6,255.60000000000002,-233.6,-1362.4,-29.80000000000001,2025-01-29 15:17:14,0.0
-208.39999999999964,447.6,751.6,-666.6,-1439.4,-81.80000000000001,2025-01-29 15:17:14,0.0
67.60000000000036,235.60000000000002,1211.6,-766.6,-1262.4,47.19999999999999,2025-01-29 15:17:14,0.0
95.60000000000036,179.60000000000002,1683.6,-684.6,-941.4,231.2,2025-01-29 15:17:14,0.0
447.60000000000036,-168.39999999999998,1559.6,-422.6,-568.4,244.2,2025-01-29 15:17:14,0.0
639.6000000000004,-184.39999999999998,1071.6,-168.6,-16.400000000000006,194.2,2025-01-29 15:17:14,0.0
503.60000000000036,71.60000000000002,899.6,148.4,634.6,58.19999999999999,2025-01-29 15:17:14,0.0
43.600000000000364,287.6,1063.6,356.4,1072.6,-63.80000000000001,2025-01-29 15:17:14,0.0
-540.3999999999996,543.6,1003.6,527.4,636.6,-24.80000000000001,2025-01-29 15:17:14,0.0
-468.39999999999964,451.6,683.6,321.4,-32.400000000000006,14.199999999999989,2025-01-29 15:17:14,0.0
-456.39999999999964,587.6,471.6,-61.6,-483.4,70.19999999999999,2025-01-29 15:17:14,0.0
-172.39999999999964,527.6,559.6,-398.6,-568.4,122.19999999999999,2025-01-29 15:17:15,0.0
-40.399999999999636,363.6,555.6,-491.6,-376.4,103.19999999999999,2025-01-29 15:17:15,0.0
71.60000000000036,283.6,671.6,-534.6,-133.4,40.19999999999999,2025-01-29 15:17:15,0.0
79.60000000000036,299.6,815.6,-513.6,-37.400000000000006,-25.80000000000001,2025-01-29 15:17:15,0.0
43.600000000000364,231.60000000000002,959.6,-447.6,-23.400000000000006,-93.80000000000001,2025-01-29 15:17:15,0.0
-52.399999999999636,279.6,1055.6,-426.6,-67.4,-113.80000000000001,2025-01-29 15:17:15,0.0
-72.39999999999964,323.6,907.6,-278.6,-205.4,-111.80000000000001,2025-01-29 15:17:15,0.0
-172.39999999999964,239.60000000000002,859.6,-222.6,-253.4,-43.80000000000001,2025-01-29 15:17:15,0.0
-88.39999999999964,339.6,763.6,-201.6,-55.400000000000006,2.1999999999999886,2025-01-29 15:17:15,0.0
51.600000000000364,399.6,863.6,-185.6,65.6,50.19999999999999,2025-01-29 15:17:15,0.0
-104.39999999999964,243.60000000000002,999.6,-129.6,-45.400000000000006,90.19999999999999,2025-01-29 15:17:15,0.0
-32.399999999999636,319.6,783.6,-100.6,-133.4,66.19999999999999,2025-01-29 15:17:15,0.0
-148.39999999999964,367.6,895.6,-224.6,-308.4,72.19999999999999,2025-01-29 15:17:15,0.0
-320.39999999999964,347.6,823.6,-245.6,-389.4,87.19999999999999,2025-01-29 15:17:15,0.0
-92.39999999999964,295.6,959.6,-326.6,-512.4,55.19999999999999,2025-01-29 15:17:15,0.0
7.600000000000364,159.60000000000002,939.6,-393.6,-531.4,30.19999999999999,2025-01-29 15:17:15,0.0
123.60000000000036,131.60000000000002,995.6,-344.6,-435.4,12.199999999999989,2025-01-29 15:17:15,0.0
71.60000000000036,227.60000000000002,1031.6,-327.6,-379.4,-2.8000000000000114,2025-01-29 15:17:15,0.0
39.600000000000364,247.60000000000002,1071.6,-349.6,-199.4,39.19999999999999,2025-01-29 15:17:15,0.0
-8.399999999999636,207.60000000000002,1195.6,-264.6,125.6,-5.800000000000011,2025-01-29 15:17:15,0.0
-80.39999999999964,283.6,1095.6,-209.6,214.6,20.19999999999999,2025-01-29 15:17:15,0.0
-168.39999999999964,399.6,899.6,-192.6,189.6,47.19999999999999,2025-01-29 15:17:15,0.0
-260.39999999999964,427.6,867.6,-253.6,47.599999999999994,50.19999999999999,2025-01-29 15:17:15,0.0
-24.399999999999636,331.6,955.6,-310.6,-143.4,-29.80000000000001,2025-01-29 15:17:15,0.0
-40.399999999999636,283.6,947.6,-319.6,-249.4,-23.80000000000001,2025-01-29 15:17:15,0.0
-28.399999999999636,275.6,1003.6,-339.6,-211.4,-36.80000000000001,2025-01-29 15:17:15,0.0
-0.3999999999996362,279.6,711.6,-390.6,-174.4,48.19999999999999,2025-01-29 15:17:15,0.0
71.60000000000036,415.6,967.6,-430.6,114.6,112.19999999999999,2025-01-29 15:17:15,
315.60000000000036,207.60000000000002,787.6,-280.6,396.6,129.2,2025-01-29 15:17:15,0.0
91.60000000000036,143.60000000000002,407.6,-365.6,474.6,49.19999999999999,2025-01-29 15:17:15,0.0
-88.39999999999964,-8.399999999999977,691.6,-400.6,566.6,-77.80000000000001,2025-01-29 15:17:15,0.0
-244.39999999999964,99.60000000000002,1071.6,-400.6,357.6,-128.8,2025-01-29 15:17:15,0.0
-368.39999999999964,311.6,1547.6,-349.6,-88.4,-72.80000000000001,2025-01-29 15:17:15,0.0
-16.399999999999636,251.60000000000002,1247.6,-105.6,-232.4,5.199999999999989,2025-01-29 15:17:15,0.0
139.60000000000036,179.60000000000002,951.6,-82.6,-108.4,-31.80000000000001,2025-01-29 15:17:15,0.0
63.600000000000364,151.60000000000002,667.6,-120.6,127.6,-98.80000000000001,2025-01-29 15:17:15,0.0
-12.399999999999636,455.6,711.6,-225.6,379.6,-119.80000000000001,2025-01-29 15:17:15,0.0
-120.39999999999964,315.6,1103.6,-180.6,570.6,-155.8,2025-01-29 15:17:15,0.0
-44.399999999999636,451.6,939.6,-81.6,624.6,-153.8,2025-01-29 15:17:15,0.0
-312.39999999999964,475.6,1063.6,-217.6,791.6,-152.8,2025-01-29 15:17:15,0.0
-164.39999999999964,559.6,1059.6,-176.6,1037.6,-116.80000000000001,2025-01-29 15:17:15,0.0
-12.399999999999636,579.6,1019.6,-117.6,1274.6,-127.80000000000001,2025-01-29 15:17:15,0.0
-688.3999999999996,511.6,1367.6,-281.6,1331.6,-81.80000000000001,2025-01-29 15:17:15,0.0
-472.39999999999964,347.6,1303.6,-354.6,1257.6,-14.800000000000011,2025-01-29 15:17:15,0.0
-360.39999999999964,515.6,947.6,-146.6,1407.6,613.2,2025-01-29 15:17:15,0.0
1255.6000000000004,171.60000000000002,743.6,1179.4,3571.6,681.2,2025-01-29 15:17:15,0.0
719.6000000000004,907.6,1011.6,1950.4,5471.6,-267.8,2025-01-29 15:17:15,0.0
-324.39999999999964,1407.6,955.6,1388.4,5316.6,-364.8,2025-01-29 15:17:15,0.0
-860.3999999999996,1343.6,1499.6,966.4,2039.6,-426.8,2025-01-29 15:17:15,0.0
-1404.3999999999996,995.6,1655.6,1180.4,-694.4,-207.8,2025-01-29 15:17:15,0.0
-1116.3999999999996,983.6,1395.6,1347.4,-2084.4,184.2,2025-01-29 15:17:15,0.0
-428.39999999999964,1223.6,143.60000000000002,1247.4,-2530.4,329.2,2025-01-29 15:17:15,0.0
135.60000000000036,1791.6,-996.4,924.4,-2668.4,232.2,2025-01-29 15:17:15,0.0
799.6000000000004,2043.6,-908.4,368.4,-2356.4,-49.80000000000001,2025-01-29 15:17:15,0.0
1091.6000000000004,1847.6,-268.4,-205.6,-1425.4,-399.8,2025-01-29 15:17:15,0.0
1147.6000000000004,1483.6,631.6,-632.6,-560.4,-507.8,2025-01-29 15:17:15,0.0
679.6000000000004,1087.6,875.6,-886.6,-95.4,-486.8,2025-01-29 15:17:15,0.0
611.6000000000004,407.6,1067.6,-1029.6,294.6,-628.8,2025-01-29 15:17:15,0.0
95.60000000000036,-124.39999999999998,639.6,-976.6,766.6,-1046.8,2025-01-29 15:17:15,0.0
-260.39999999999964,-448.4,599.6,-836.6,1076.6,-1538.8,2025-01-29 15:17:15,0.0
-432.39999999999964,-988.4,1903.6,-196.6,1119.6,-1950.8,2025-01-29 15:17:16,0.0
-912.3999999999996,-1492.4,1031.6,138.4,512.6,-1646.8,2025-01-29 15:17:16,0.0
-340.39999999999964,-1924.4,1979.6,392.4,-335.4,-1505.8,2025-01-29 15:17:16,0.0
-44.399999999999636,-1772.4,3007.6,747.4,-605.4,-1471.8,2025-01-29 15:17:16,0.0
115.60000000000036,-1172.4,3011.6,938.4,-492.4,-1328.8,2025-01-29 15:17:16,0.0
583.6000000000004,-408.4,2471.6,728.4,-33.400000000000006,-1430.8,2025-01-29 15:17:16,0.0
815.6000000000004,171.60000000000002,1751.6,57.4,868.6,-1599.8,2025-01-29 15:17:16,0.0
543.6000000000004,315.6,1743.6,-717.6,1880.6,-1814.8,2025-01-29 15:17:16,0.0
-68.39999999999964,243.60000000000002,2103.6,-1338.6,2306.6,-1888.8,2025-01-29 15:17:16,0.0
-268.39999999999964,-320.4,2359.6,-1732.6,2032.6,-2017.8,2025-01-29 15:17:16,0.0
-572.3999999999996,-1456.4,3007.6,-1936.6,1288.6,-2190.8,2025-01-29 15:17:16,0.0
-512.3999999999996,-1748.4,3199.6,-1702.6,402.6,-2075.8,2025-01-29 15:17:16,0.0
-176.39999999999964,-1664.4,3039.6,-1476.6,-298.4,-1819.8,2025-01-29 15:17:16,0.0
363.60000000000036,-1376.4,2903.6,-1383.6,-675.4,-1545.8,2025-01-29 15:17:16,0.0
923.6000000000004,-1336.4,2599.6,-1457.6,-862.4,-1328.8,2025-01-29 15:17:16,0.0
1095.6000000000004,-1288.4,2339.6,-1699.6,-759.4,-1239.8,2025-01-29 15:17:16,0.0
1127.6000000000004,-1188.4,2555.6,-2110.6,-401.4,-1143.8,2025-01-29 15:17:16,0.0
747.6000000000004,-916.4,2839.6,-2388.6,-265.4,-725.8,2025-01-29 15:17:16,0.0
467.60000000000036,-824.4,2679.6,-2589.6,-227.4,-252.8,2025-01-29 15:17:16,0.0
467.60000000000036,-748.4,2631.6,-2870.6,-45.400000000000006,20.19999999999999,2025-01-29 15:17:16,0.0
295.60000000000036,-888.4,2875.6,-3207.6,-41.400000000000006,178.2,2025-01-29 15:17:16,0.0
99.60000000000036,-1388.4,3143.6,-3394.6,-361.4,317.2,2025-01-29 15:17:16,0.0
-84.39999999999964,-1576.4,3271.6,-3160.6,-646.4,568.2,2025-01-29 15:17:16,0.0
51.600000000000364,-1696.4,2943.6,-2872.6,-538.4,516.2,2025-01-29 15:17:16,0.0
151.60000000000036,-1880.4,2611.6,-2904.6,-308.4,192.2,2025-01-29 15:17:16,0.0
267.60000000000036,-2056.4,2899.6,-2989.6,-272.4,-295.8,2025-01-29 15:17:16,0.0
83.60000000000036,-2104.4,3003.6,-2861.6,-446.4,-617.8,2025-01-29 15:17:16,0.0
-244.39999999999964,-1984.4,2543.6,-2765.6,-605.4,-782.8,2025-01-29 15:17:16,0.0
-356.39999999999964,-1624.4,2315.6,-2970.6,-357.4,-882.8,2025-01-29 15:17:16,0.0
-308.39999999999964,-1500.4,2935.6,-3497.6,43.599999999999994,-1018.8,2025-01-29 15:17:16,0.0
-740.3999999999996,-1324.4,2879.6,-4182.6,106.6,-1194.8,2025-01-29 15:17:16,0.0
-976.3999999999996,-1248.4,3311.6,-4852.6,-45.400000000000006,-1071.8,2025-01-29 15:17:16,0.0
-664.3999999999996,-2056.4,2967.6,-5053.6,85.6,-1422.8,2025-01-29 15:17:16,0.0
-1244.3999999999996,-3252.4,791.6,-5321.6,945.6,-2331.8,2025-01-29 15:17:16,0.0
-2112.3999999999996,-4628.4,895.6,-5164.6,2108.6,-3256.8,2025-01-29 15:17:16,0.0
-2856.3999999999996,-5716.4,2815.6,-3516.6,2545.6,-4204.8,2025-01-29 15:17:16,0.0
-4260.4,-6260.4,3531.6,-1343.6,1174.6,-4759.8,2025-01-29 15:17:16,0.0
-6700.4,-5528.4,2935.6,402.4,-1742.4,-3900.8,2025-01-29 15:17:16,0.0
-7932.4,-3972.4,1175.6,1855.4,-6314.4,-909.8,2025-01-29 15:17:16,0.0
-5708.4,-1672.4,1743.6,2929.4,-9769.4,2260.2,2025-01-29 15:17:16,0.0
-576.3999999999996,-1120.4,-888.4,3451.4,-9995.4,4152.2,2025-01-29 15:17:16,0.0
3187.6000000000004,-768.4,-3980.4,2283.4,-7349.4,4229.2,2025-01-29 15:17:16,0.0
3987.6000000000004,107.60000000000002,-6488.4,442.4,-2961.4,2905.2,2025-01-29 15:17:16,0.0
3331.6000000000004,1099.6,-5988.4,-840.6,1041.6,1872.2,2025-01-29 15:17:16,0.0
2419.6000000000004,1775.6,-4164.4,-999.6,3430.6,914.2,2025-01-29 15:17:16,0.0
1139.6000000000004,1651.6,-2348.4,-650.6,4320.6,455.2,2025-01-29 15:17:16,0.0
-136.39999999999964,795.6,-372.4,-412.6,4391.6,705.2,2025-01-29 15:17:16,0.0
-1032.3999999999996,-588.4,1195.6,-87.6,3845.6,1533.2,2025-01-29 15:17:16,0.0
-708.3999999999996,-2068.4,1287.6,1110.4,2850.6,2795.2,2025-01-29 15:17:16,0.0
-200.39999999999964,-2788.4,839.6,1943.4,2074.6,3092.2,2025-01-29 15:17:16,0.0
-32.399999999999636,-2576.4,255.60000000000002,2472.4,1456.6,3074.2,2025-01-29 15:17:16,0.0
159.60000000000036,-1496.4,775.6,3166.4,742.6,2847.2,2025-01-29 15:17:16,0.0
251.60000000000036,-336.4,895.6,3696.4,-22.400000000000006,2721.2,2025-01-29 15:17:16,0.0
595.6000000000004,1039.6,755.6,4163.4,-795.4,3044.2,2025-01-29 15:17:16,0.0
1303.6000000000004,1715.6,119.60000000000002,4235.4,-955.4,3317.2,2025-01-29 15:17:16,0.0
2071.6000000000004,1951.6,-320.4,4023.4,-465.4,3075.2,2025-01-29 15:17:16,0.0
2131.6000000000004,1747.6,-944.4,3487.4,437.6,2659.2,2025-01-29 15:17:17,0.0
1727.6000000000004,1627.6,-340.4,3016.4,1203.6,2463.2,2025-01-29 15:17:17,0.0
1059.6000000000004,1419.6,379.6,2887.4,1632.6,2460.2,2025-01-29 15:17:17,0.0
271.60000000000036,1315.6,891.6,3000.4,1549.6,2622.2,2025-01-29 15:17:17,0.0
-40.399999999999636,1191.6,879.6,3005.4,886.6,2673.2,2025-01-29 15:17:17,0.0
115.60000000000036,1123.6,839.6,2873.4,-259.4,2454.2,2025-01-29 15:17:17,0.0
275.60000000000036,1051.6,947.6,2448.4,-1276.4,2085.2,2025-01-29 15:17:17,0.0
447.60000000000036,975.6,1275.6,2049.4,-1669.4,1729.2,2025-01-29 15:17:17,0.0
399.60000000000036,343.6,2119.6,1942.4,-1738.4,1358.2,2025-01-29 15:17:17,0.0
555.6000000000004,-292.4,2559.6,2399.4,-2425.4,994.2,2025-01-29 15:17:17,0.0
859.6000000000004,-80.39999999999998,2699.6,2717.4,-3205.4,709.2,2025-01-29 15:17:17,0.0
1295.6000000000004,631.6,3175.6,2700.4,-3819.4,220.2,2025-01-29 15:17:17,
2167.6000000000004,1523.6,2751.6,2770.4,-4349.4,-357.8,2025-01-29 15:17:17,0.0
2615.6000000000004,2395.6,1959.6,3020.4,-4364.4,-781.8,2025-01-29 15:17:17,0.0
3179.6000000000004,2391.6,911.6,3039.4,-2800.4,-845.8,2025-01-29 15:17:17,0.0
3199.6000000000004,1567.6,-168.39999999999998,2921.4,-82.4,-779.8,2025-01-29 15:17:17,0.0
2567.6000000000004,147.60000000000002,443.6,2967.4,2857.6,-950.8,2025-01-29 15:17:17,0.0
251.60000000000036,-236.39999999999998,1367.6,3312.4,5040.6,-1498.8,2025-01-29 15:17:17,0.0
-2592.3999999999996,903.6,2491.6,3775.4,5720.6,-1230.8,2025-01-29 15:17:17,0.0
-4628.4,1907.6,2599.6,4222.4,4837.6,-208.8,2025-01-29 15:17:17,0.0
-4380.4,2427.6,2935.6,4807.4,1590.6,813.2,2025-01-29 15:17:17,0.0
-2412.3999999999996,1079.6,3267.6,4848.4,-2365.4,556.2,2025-01-29 15:17:17,0.0
-1192.3999999999996,-416.4,4191.6,4654.4,-2788.4,87.19999999999999,2025-01-29 15:17:17,0.0
-476.39999999999964,-628.4,4715.6,5235.4,-454.4,194.2,2025-01-29 15:17:17,0.0
-668.3999999999996,-92.39999999999998,3811.6,6180.4,2481.6,635.2,2025-01-29 15:17:17,0.0
-1996.3999999999996,231.60000000000002,1803.6,6476.4,4538.6,897.2,2025-01-29 15:17:17,0.0
-4304.4,1555.6,-1344.4,5463.4,6048.6,1163.2,2025-01-29 15:17:17,0.0
-6424.4,2727.6,-3796.4,3674.4,6421.6,2138.2,2025-01-29 15:17:17,0.0
-6992.4,4735.6,-5060.4,1583.4,5034.6,3549.2,2025-01-29 15:17:17,0.0
-4452.4,6203.6,-5996.4,-447.6,1065.6,4595.2,2025-01-29 15:17:17,0.0
2587.6000000000004,5219.6,-3352.4,-1899.6,-4909.4,2138.2,2025-01-29 15:17:17,0.0
5175.6,791.6,-2468.4,-3213.6,-7091.4,-2380.8,2025-01-29 15:17:17,0.0
3895.6000000000004,-2068.4,-1884.4,-4576.6,-6529.4,-4083.8,2025-01-29 15:17:17,0.0
2203.6000000000004,-4020.4,-1864.4,-3992.6,-4514.4,-3898.8,2025-01-29 15:17:17,0.0
703.6000000000004,-4908.4,-2244.4,-2404.6,-1148.4,-2798.8,2025-01-29 15:17:17,0.0
851.6000000000004,-3100.4,-1708.4,-316.6,2775.6,-1578.8,2025-01-29 15:17:17,0.0
1283.6000000000004,-224.39999999999998,-1216.4,859.4,5312.6,-1269.8,2025-01-29 15:17:17,0.0
935.6000000000004,2599.6,-172.39999999999998,-9.600000000000001,4481.6,-1589.8,2025-01-29 15:17:17,0.0
139.60000000000036,2631.6,115.60000000000002,-1336.6,2034.6,-1816.8,2025-01-29 15:17:17,0.0
-340.39999999999964,1595.6,-232.39999999999998,-2307.6,-85.4,-2069.8,2025-01-29 15:17:17,0.0
-812.3999999999996,147.60000000000002,-916.4,-2883.6,-1583.4,-2140.8,2025-01-29 15:17:17,0.0
-276.39999999999964,-1180.4,-1424.4,-3162.6,-2720.4,-2147.8,2025-01-29 15:17:17,0.0
547.6000000000004,-1388.4,-1212.4,-3169.6,-3103.4,-2206.8,2025-01-29 15:17:17,0.0
1283.6000000000004,-1028.4,-208.39999999999998,-3005.6,-2908.4,-2102.8,2025-01-29 15:17:17,0.0
2283.6000000000004,-624.4,-512.4,-3051.6,-2065.4,-2114.8,2025-01-29 15:17:17,0.0
2431.6000000000004,-528.4,-600.4,-3250.6,-688.4,-2088.8,2025-01-29 15:17:17,0.0
1831.6000000000004,-1048.4,-268.4,-3322.6,445.6,-2043.8,2025-01-29 15:17:17,0.0
1403.6000000000004,-1392.4,167.60000000000002,-3326.6,936.6,-2067.8,2025-01-29 15:17:17,0.0
795.6000000000004,-1704.4,843.6,-3253.6,894.6,-1992.8,2025-01-29 15:17:17,0.0
471.60000000000036,-1580.4,1015.6,-2988.6,267.6,-1625.8,2025-01-29 15:17:17,0.0
339.60000000000036,-1484.4,639.6,-2634.6,-255.4,-1147.8,2025-01-29 15:17:17,0.0
627.6000000000004,-1252.4,207.60000000000002,-2373.6,-379.4,-624.8,2025-01-29 15:17:17,0.0
975.6000000000004,-1056.4,351.6,-2188.6,-275.4,-239.8,2025-01-29 15:17:17,0.0
1067.6000000000004,-820.4,679.6,-2049.6,-16.400000000000006,95.19999999999999,2025-01-29 15:17:17,0.0
931.6000000000004,-436.4,1479.6,-1872.6,249.6,730.2,2025-01-29 15:17:17,0.0
995.6000000000004,-80.39999999999998,1807.6,-1772.6,93.6,1340.2,2025-01-29 15:17:17,0.0
1099.6000000000004,15.600000000000023,1279.6,-1871.6,-171.4,1599.2,2025-01-29 15:17:17,0.0
891.6000000000004,-236.39999999999998,1283.6,-2266.6,-309.4,1567.2,2025-01-29 15:17:17,0.0
491.60000000000036,-372.4,1295.6,-2710.6,-425.4,1347.2,2025-01-29 15:17:17,0.0
191.60000000000036,-224.39999999999998,1091.6,-3059.6,-570.4,1133.2,2025-01-29 15:17:17,0.0
-44.399999999999636,-48.39999999999998,1011.6,-3502.6,-534.4,1066.2,2025-01-29 15:17:17,0.0
-264.39999999999964,491.6,619.6,-4007.6,-613.4,913.2,2025-01-29 15:17:17,0.0
-344.39999999999964,815.6,595.6,-4662.6,-591.4,429.2,2025-01-29 15:17:17,0.0
-560.3999999999996,555.6,895.6,-5131.6,-421.4,-168.8,2025-01-29 15:17:17,0.0
-912.3999999999996,-332.4,1887.6,-5556.6,-868.4,-705.8,2025-01-29 15:17:17,0.0
-1264.3999999999996,-724.4,2975.6,-6116.6,-1895.4,-1084.8,2025-01-29 15:17:18,0.0
-1216.3999999999996,-740.4,3331.6,-6590.6,-3258.4,-1171.8,2025-01-29 15:17:18,0.0
-956.3999999999996,-600.4,2139.6,-6512.6,-3302.4,-1259.8,2025-01-29 15:17:18,0.0
-872.3999999999996,-800.4,515.6,-6728.6,-1581.4,-1799.8,2025-01-29 15:17:18,0.0
-1128.3999999999996,-1772.4,439.6,-7015.6,726.6,-2587.8,2025-01-29 15:17:18,0.0
-1692.3999999999996,-3424.4,1703.6,-6596.6,1432.6,-3761.8,2025-01-29 15:17:18,0.0
-3908.3999999999996,-5868.4,3803.6,-4788.6,27.599999999999994,-3711.8,2025-01-29 15:17:18,0.0
-5120.4,-6456.4,4679.6,-1745.6,-1951.4,-2435.8,2025-01-29 15:17:18,0.0
-5668.4,-5576.4,3271.6,1211.4,-3334.4,-618.8,2025-01-29 15:17:18,0.0
-3672.3999999999996,-2916.4,1475.6,2421.4,-4416.4,424.2,2025-01-29 15:17:18,0.0
-2252.3999999999996,-360.4,-696.4,2116.4,-5193.4,1688.2,2025-01-29 15:17:18,0.0
-292.39999999999964,467.6,-1936.4,1341.4,-5041.4,3066.2,2025-01-29 15:17:18,0.0
1983.6000000000004,891.6,-3120.4,855.4,-4181.4,3310.2,2025-01-29 15:17:18,0.0
3371.6000000000004,1459.6,-4184.4,132.4,-2603.4,2742.2,2025-01-29 15:17:18,0.0
5379.6,1719.6,-3628.4,-1720.6,744.6,926.2,2025-01-29 15:17:18,0.0
4983.6,2183.6,-1968.4,-2526.6,3136.6,-684.8,2025-01-29 15:17:18,0.0
3183.6000000000004,2163.6,-1752.4,-2583.6,4558.6,-1292.8,2025-01-29 15:17:18,0.0
1159.6000000000004,1779.6,-1824.4,-2539.6,5892.6,-1239.8,2025-01-29 15:17:18,0.0
-1096.3999999999996,711.6,-1484.4,-2443.6,6871.6,-693.8,2025-01-29 15:17:18,0.0
-2632.3999999999996,-480.4,-828.4,-2238.6,6886.6,249.2,2025-01-29 15:17:18,0.0
-2660.3999999999996,-1420.4,647.6,-2001.6,4997.6,860.2,2025-01-29 15:17:18,0.0
-3012.3999999999996,-1732.4,2099.6,-1395.6,1697.6,1465.2,2025-01-29 15:17:18,0.0
-3228.3999999999996,-936.4,2099.6,-370.6,-1980.4,2719.2,2025-01-29 15:17:18,0.0
-1860.3999999999996,291.6,819.6,271.4,-3747.4,3720.2,2025-01-29 15:17:18,0.0
-16.399999999999636,1235.6,-244.39999999999998,357.4,-4310.4,3870.2,2025-01-29 15:17:18,0.0
1839.6000000000004,1703.6,-396.4,169.4,-4039.4,3352.2,2025-01-29 15:17:18,0.0
3059.6000000000004,1711.6,-520.4,-134.6,-2730.4,2646.2,2025-01-29 15:17:18,0.0
3707.6000000000004,1503.6,-440.4,-431.6,-1127.4,2104.2,2025-01-29 15:17:18,0.0
3807.6000000000004,1151.6,-144.39999999999998,-666.6,721.6,1641.2,2025-01-29 15:17:18,0.0
3419.6000000000004,935.6,491.6,-763.6,2274.6,1078.2,2025-01-29 15:17:18,0.0
1927.6000000000004,1151.6,939.6,-904.6,3041.6,680.2,2025-01-29 15:17:18,0.0
799.6000000000004,1743.6,1403.6,-903.6,3054.6,529.2,2025-01-29 15:17:18,0.0
-292.39999999999964,1939.6,1183.6,-985.6,2213.6,364.2,2025-01-29 15:17:18,0.0
-48.399999999999636,1943.6,1055.6,-1403.6,912.6,-97.80000000000001,2025-01-29 15:17:18,0.0
407.60000000000036,1423.6,1319.6,-1795.6,-208.4,-904.8,2025-01-29 15:17:18,0.0
411.60000000000036,643.6,1491.6,-1906.6,-1034.4,-1569.8,2025-01-29 15:17:18,0.0
367.60000000000036,255.60000000000002,1911.6,-1900.6,-1432.4,-1697.8,2025-01-29 15:17:18,0.0
435.60000000000036,131.60000000000002,2607.6,-1813.6,-997.4,-1811.8,2025-01-29 15:17:18,0.0
351.60000000000036,259.6,2387.6,-1636.6,-292.4,-1983.8,2025-01-29 15:17:18,0.0
551.6000000000004,731.6,1983.6,-1435.6,-164.4,-1958.8,2025-01-29 15:17:18,0.0
867.6000000000004,1535.6,1123.6,-1246.6,-999.4,-1992.8,2025-01-29 15:17:18,0.0
2323.6000000000004,2331.6,-28.399999999999977,-1639.6,-2133.4,-2453.8,2025-01-29 15:17:18,0.0
3431.6000000000004,2231.6,-820.4,-2344.6,-1831.4,-3454.8,2025-01-29 15:17:18,0.0
3075.6000000000004,1307.6,-1148.4,-2898.6,268.6,-4229.8,2025-01-29 15:17:18,0.0
1503.6000000000004,355.6,279.6,-2796.6,3288.6,-4533.8,2025-01-29 15:17:18,0.0
-1176.3999999999996,367.6,1679.6,-2608.6,5739.6,-4255.8,2025-01-29 15:17:18,0.0
-3808.3999999999996,207.60000000000002,2507.6,-2571.6,6769.6,-3277.8,2025-01-29 15:17:18,
-5520.4,-192.39999999999998,1867.6,-2388.6,6230.6,-2134.8,2025-01-29 15:17:18,0.0
-6372.4,-304.4,-2244.4,-2376.6,4682.6,-699.8,2025-01-29 15:17:18,0.0
-6100.4,7.600000000000023,-7276.4,-3294.6,3149.6,853.2,2025-01-29 15:17:18,0.0
-6076.4,1323.6,-9600.4,-4964.6,2145.6,2092.2,2025-01-29 15:17:18,0.0
-3696.3999999999996,4879.6,-5660.4,-6737.6,1215.6,2479.2,2025-01-29 15:17:18,0.0
-448.39999999999964,7979.6,-1976.4,-7401.6,-270.4,946.2,2025-01-29 15:17:18,0.0
2319.6000000000004,4595.6,-2620.4,-9619.6,-3197.4,-1999.8,2025-01-29 15:17:18,0.0
2843.6000000000004,715.6,-1604.4,-11502.6,-5986.4,-3945.8,2025-01-29 15:17:18,0.0
2563.6000000000004,-2432.4,-1288.4,-11678.6,-7107.4,-4363.8,2025-01-29 15:17:18,0.0
2111.6000000000004,-4664.4,-1856.4,-10813.6,-5547.4,-3355.8,2025-01-29 15:17:18,0.0
2479.6000000000004,-4688.4,-1548.4,-9401.6,-650.4,-1905.8,2025-01-29 15:17:18,0.0
2155.6000000000004,-2664.4,-1916.4,-8577.6,3691.6,-1755.8,2025-01-29 15:17:18,0.0
155.60000000000036,-328.4,-2112.4,-8991.6,5485.6,-1714.8,2025-01-29 15:17:18,0.0
-1628.3999999999996,1511.6,-1008.4,-9590.6,4005.6,-1600.8,2025-01-29 15:17:19,0.0
-1880.3999999999996,1947.6,-1096.4,-10651.6,1172.6,-2025.8,2025-01-29 15:17:19,0.0
-1736.3999999999996,1587.6,-1896.4,-12060.6,-1387.4,-2526.8,2025-01-29 15:17:19,0.0
-1332.3999999999996,1107.6,-2724.4,-13477.6,-3156.4,-2424.8,2025-01-29 15:17:19,0.0
-192.39999999999964,855.6,-3540.4,-14091.6,-3695.4,-1959.8,2025-01-29 15:17:19,0.0
1591.6000000000004,515.6,-3524.4,-14865.6,-3574.4,-1771.8,2025-01-29 15:17:19,0.0
2727.6000000000004,-420.4,-3176.4,-15738.6,-2530.4,-2095.8,2025-01-29 15:17:19,0.0
2595.6000000000004,-1252.4,-3036.4,-16441.6,-1379.4,-2678.8,2025-01-29 15:17:19,0.0
1507.6000000000004,-1580.4,-2896.4,-17014.6,-611.4,-3081.8,2025-01-29 15:17:19,0.0
591.6000000000004,-1512.4,-2528.4,-17404.6,-701.4,-2986.8,2025-01-29 15:17:19,0.0
475.60000000000036,-1320.4,-2000.4,-17434.6,-1090.4,-2784.8,2025-01-29 15:17:19,0.0
651.6000000000004,-1188.4,-1816.4,-17344.6,-1420.4,-2635.8,2025-01-29 15:17:19,0.0
1071.6000000000004,-1164.4,-2000.4,-17364.6,-1313.4,-2687.8,2025-01-29 15:17:19,0.0
1075.6000000000004,-1260.4,-2608.4,-17626.6,-1206.4,-2791.8,2025-01-29 15:17:19,0.0
971.6000000000004,-1140.4,-2768.4,-17921.6,-1164.4,-2906.8,2025-01-29 15:17:19,0.0
863.6000000000004,-1540.4,-2672.4,-18063.6,-1232.4,-2882.8,2025-01-29 15:17:19,0.0
651.6000000000004,-1852.4,-1928.4,-18119.6,-1281.4,-2861.8,2025-01-29 15:17:19,0.0
291.60000000000036,-1652.4,-1500.4,-18007.6,-1173.4,-2658.8,2025-01-29 15:17:19,0.0
255.60000000000036,-1460.4,-1284.4,-17885.6,-1211.4,-2356.8,2025-01-29 15:17:19,0.0
159.60000000000036,-1512.4,-1452.4,-17853.6,-1452.4,-2136.8,2025-01-29 15:17:19,0.0
199.60000000000036,-1416.4,-1576.4,-17820.6,-1812.4,-1857.8,2025-01-29 15:17:19,0.0
271.60000000000036,-1504.4,-1372.4,-17771.6,-1670.4,-1556.8,2025-01-29 15:17:19,0.0
