acceleration_x,acceleration_y,acceleration_z,gyroscope_x,gyroscope_y,gyroscope_z,timestamp,label
-40.399999999999636,4.7999999999999545,-152.0,147.6,69.8,4.099999999999994,2025-01-29 15:11:30,0.0
-84.39999999999964,16.799999999999955,64.0,83.6,-2.200000000000003,-6.900000000000006,2025-01-29 15:11:30,0.0
-68.39999999999964,80.79999999999995,120.0,47.599999999999994,-58.2,34.099999999999994,2025-01-29 15:11:30,0.0
27.600000000000364,-11.200000000000045,16.0,8.599999999999994,-92.2,7.099999999999994,2025-01-29 15:11:30,0.0
27.600000000000364,-35.200000000000045,-60.0,2.5999999999999943,-76.2,-0.9000000000000057,2025-01-29 15:11:30,0.0
35.600000000000364,40.799999999999955,16.0,-66.4,-30.200000000000003,-11.900000000000006,2025-01-29 15:11:30,0.0
63.600000000000364,12.799999999999955,-16.0,-44.400000000000006,38.8,6.099999999999994,2025-01-29 15:11:30,0.0
67.60000000000036,-59.200000000000045,-68.0,-62.400000000000006,50.8,-3.9000000000000057,2025-01-29 15:11:30,0.0
27.600000000000364,-39.200000000000045,-24.0,-85.4,64.8,-21.900000000000006,2025-01-29 15:11:30,0.0
-56.399999999999636,-11.200000000000045,104.0,-31.400000000000006,34.8,-5.900000000000006,2025-01-29 15:11:30,0.0
-88.39999999999964,-75.20000000000005,112.0,-34.400000000000006,3.799999999999997,-9.900000000000006,2025-01-29 15:11:30,0.0
-28.399999999999636,-67.20000000000005,20.0,7.599999999999994,-54.2,30.099999999999994,2025-01-29 15:11:30,0.0
19.600000000000364,-7.2000000000000455,64.0,13.599999999999994,-28.200000000000003,20.099999999999994,2025-01-29 15:11:30,0.0
123.60000000000036,-15.200000000000045,64.0,21.599999999999994,54.8,29.099999999999994,2025-01-29 15:11:30,0.0
63.600000000000364,-35.200000000000045,60.0,59.599999999999994,104.8,24.099999999999994,2025-01-29 15:11:30,0.0
31.600000000000364,-35.200000000000045,-24.0,79.6,148.8,20.099999999999994,2025-01-29 15:11:30,0.0
-128.39999999999964,16.799999999999955,180.0,147.6,176.8,11.099999999999994,2025-01-29 15:11:31,0.0
-100.39999999999964,-63.200000000000045,144.0,189.6,125.8,19.099999999999994,2025-01-29 15:11:31,0.0
-64.39999999999964,-11.200000000000045,-12.0,207.6,60.8,46.099999999999994,2025-01-29 15:11:31,0.0
115.60000000000036,-43.200000000000045,-80.0,172.6,5.799999999999997,45.099999999999994,2025-01-29 15:11:31,0.0
79.60000000000036,84.79999999999995,172.0,190.6,-1.2000000000000028,55.099999999999994,2025-01-29 15:11:31,0.0
27.600000000000364,212.79999999999995,104.0,191.6,33.8,63.099999999999994,2025-01-29 15:11:31,0.0
83.60000000000036,108.79999999999995,108.0,125.6,81.8,55.099999999999994,2025-01-29 15:11:31,0.0
-16.399999999999636,8.799999999999955,104.0,121.6,96.8,34.099999999999994,2025-01-29 15:11:31,0.0
47.600000000000364,-15.200000000000045,64.0,135.6,106.8,38.099999999999994,2025-01-29 15:11:31,0.0
-8.399999999999636,100.79999999999995,96.0,101.6,123.8,21.099999999999994,2025-01-29 15:11:31,0.0
27.600000000000364,36.799999999999955,84.0,101.6,79.8,47.099999999999994,2025-01-29 15:11:31,0.0
11.600000000000364,48.799999999999955,128.0,74.6,18.799999999999997,22.099999999999994,2025-01-29 15:11:31,0.0
39.600000000000364,-11.200000000000045,156.0,47.599999999999994,30.799999999999997,32.099999999999994,2025-01-29 15:11:31,0.0
27.600000000000364,92.79999999999995,240.0,85.6,106.8,24.099999999999994,2025-01-29 15:11:31,0.0
23.600000000000364,16.799999999999955,248.0,101.6,98.8,29.099999999999994,2025-01-29 15:11:31,0.0
-40.399999999999636,-127.20000000000005,-16.0,155.6,76.8,19.099999999999994,2025-01-29 15:11:31,0.0
135.60000000000036,-191.20000000000005,68.0,154.6,43.8,-13.900000000000006,2025-01-29 15:11:31,0.0
-40.399999999999636,-55.200000000000045,124.0,192.6,55.8,-25.900000000000006,2025-01-29 15:11:31,0.0
-24.399999999999636,-31.200000000000045,188.0,225.6,124.8,-27.900000000000006,2025-01-29 15:11:31,0.0
11.600000000000364,32.799999999999955,40.0,263.6,-77.2,10.099999999999994,2025-01-29 15:11:31,0.0
75.60000000000036,-63.200000000000045,-148.0,291.6,-187.2,36.099999999999994,2025-01-29 15:11:31,0.0
207.60000000000036,-223.20000000000005,92.0,312.6,68.8,29.099999999999994,2025-01-29 15:11:31,0.0
75.60000000000036,-39.200000000000045,100.0,350.6,181.8,5.099999999999994,2025-01-29 15:11:31,0.0
-72.39999999999964,76.79999999999995,48.0,352.6,97.8,-17.900000000000006,2025-01-29 15:11:31,0.0
-92.39999999999964,72.79999999999995,112.0,356.6,74.8,29.099999999999994,2025-01-29 15:11:31,0.0
-60.399999999999636,24.799999999999955,128.0,310.6,-0.20000000000000284,10.099999999999994,2025-01-29 15:11:31,0.0
-36.399999999999636,-27.200000000000045,108.0,307.6,2.799999999999997,32.099999999999994,2025-01-29 15:11:31,0.0
-52.399999999999636,28.799999999999955,16.0,292.6,58.8,68.1,2025-01-29 15:11:31,0.0
115.60000000000036,-11.200000000000045,60.0,265.6,154.8,37.099999999999994,2025-01-29 15:11:31,0.0
-8.399999999999636,4.7999999999999545,36.0,244.6,190.8,16.099999999999994,2025-01-29 15:11:31,0.0
39.600000000000364,88.79999999999995,96.0,215.6,141.8,53.099999999999994,2025-01-29 15:11:31,0.0
-152.39999999999964,16.799999999999955,108.0,225.6,137.8,106.1,2025-01-29 15:11:31,0.0
3.600000000000364,156.79999999999995,148.0,279.6,112.8,161.1,2025-01-29 15:11:31,0.0
-92.39999999999964,-27.200000000000045,124.0,284.6,195.8,236.1,2025-01-29 15:11:31,0.0
-64.39999999999964,-99.20000000000005,100.0,275.6,217.8,236.1,2025-01-29 15:11:31,0.0
-64.39999999999964,152.79999999999995,120.0,294.6,163.8,280.1,2025-01-29 15:11:31,0.0
-52.399999999999636,384.79999999999995,-176.0,200.6,166.8,329.1,2025-01-29 15:11:31,0.0
-20.399999999999636,588.8,-132.0,102.6,367.8,328.1,2025-01-29 15:11:31,0.0
-140.39999999999964,436.79999999999995,-68.0,55.599999999999994,457.8,333.1,2025-01-29 15:11:31,0.0
-260.39999999999964,260.79999999999995,52.0,-27.400000000000006,295.8,387.1,2025-01-29 15:11:31,0.0
-368.39999999999964,144.79999999999995,144.0,12.599999999999994,107.8,401.1,2025-01-29 15:11:31,0.0
-292.39999999999964,176.79999999999995,48.0,-9.400000000000006,-73.2,456.1,2025-01-29 15:11:31,0.0
-132.39999999999964,120.79999999999995,440.0,41.599999999999994,-83.2,421.1,2025-01-29 15:11:31,0.0
211.60000000000036,-7.2000000000000455,504.0,132.6,-316.2,322.1,2025-01-29 15:11:31,0.0
307.60000000000036,296.79999999999995,240.0,131.6,-423.2,218.1,2025-01-29 15:11:31,0.0
355.60000000000036,780.8,40.0,106.6,242.8,207.1,2025-01-29 15:11:31,0.0
555.6000000000004,900.8,144.0,152.6,1389.8,278.1,2025-01-29 15:11:31,0.0
287.60000000000036,740.8,592.0,237.6,2120.8,268.1,2025-01-29 15:11:31,0.0
55.600000000000364,448.79999999999995,660.0,162.6,2295.8,136.1,2025-01-29 15:11:31,0.0
-244.39999999999964,248.79999999999995,1016.0,142.6,1488.8,-145.9,2025-01-29 15:11:31,0.0
-640.3999999999996,232.79999999999995,888.0,207.6,258.8,-277.9,2025-01-29 15:11:31,0.0
-928.3999999999996,316.79999999999995,352.0,361.6,-650.2,-225.9,2025-01-29 15:11:31,0.0
-700.3999999999996,716.8,48.0,392.6,-668.2,-2.9000000000000057,2025-01-29 15:11:31,0.0
99.60000000000036,868.8,-368.0,205.6,-728.2,-71.9,2025-01-29 15:11:31,0.0
239.60000000000036,1032.8,-384.0,-11.400000000000006,-1243.2,-329.9,2025-01-29 15:11:31,0.0
123.60000000000036,1020.8,-364.0,-334.4,-1530.2,-477.9,2025-01-29 15:11:31,0.0
239.60000000000036,764.8,-156.0,-523.4,-1556.2,-600.9,2025-01-29 15:11:31,0.0
175.60000000000036,712.8,188.0,-553.4,-1600.2,-757.9,2025-01-29 15:11:31,0.0
23.600000000000364,856.8,-40.0,-704.4,-1743.2,-878.9,2025-01-29 15:11:31,0.0
-240.39999999999964,1108.8,-288.0,-1025.4,-1955.2,-949.9,2025-01-29 15:11:32,0.0
-332.39999999999964,948.8,-124.0,-1507.4,-2477.2,-1018.9,2025-01-29 15:11:32,0.0
-464.39999999999964,288.79999999999995,540.0,-1951.4,-2973.2,-1038.9,2025-01-29 15:11:32,0.0
39.600000000000364,-747.2,2380.0,-1760.4,-3363.2,-1274.9,2025-01-29 15:11:32,0.0
-144.39999999999964,-611.2,2440.0,-712.4,-3535.2,-1330.9,2025-01-29 15:11:32,0.0
-128.39999999999964,-67.20000000000005,676.0,-249.4,-3403.2,-1105.9,2025-01-29 15:11:32,0.0
559.6000000000004,88.79999999999995,72.0,-355.4,-2845.2,-1116.9,2025-01-29 15:11:32,0.0
823.6000000000004,-203.20000000000005,996.0,-182.4,-1543.2,-1289.9,2025-01-29 15:11:32,0.0
615.6000000000004,-383.20000000000005,904.0,109.6,-459.2,-1205.9,2025-01-29 15:11:32,0.0
627.6000000000004,-803.2,1068.0,30.599999999999994,-658.2,-1067.9,2025-01-29 15:11:32,0.0
383.60000000000036,-1259.2,1664.0,-146.4,-1018.2,-1192.9,2025-01-29 15:11:32,0.0
307.60000000000036,-1263.2,2540.0,50.599999999999994,-839.2,-1141.9,2025-01-29 15:11:32,0.0
139.60000000000036,-1251.2,2788.0,506.6,-522.2,-1090.9,2025-01-29 15:11:32,0.0
-76.39999999999964,-1139.2,2816.0,666.6,-412.2,-1015.9,2025-01-29 15:11:32,0.0
-84.39999999999964,-835.2,2584.0,418.6,-425.2,-1141.9,2025-01-29 15:11:32,0.0
-380.39999999999964,-591.2,3060.0,123.6,-243.2,-1130.9,2025-01-29 15:11:32,0.0
-576.3999999999996,-343.20000000000005,2908.0,-232.4,-20.200000000000003,-1146.9,2025-01-29 15:11:32,0.0
-408.39999999999964,-339.20000000000005,2864.0,-1012.4,25.799999999999997,-1389.9,2025-01-29 15:11:32,0.0
-332.39999999999964,-563.2,3180.0,-1559.4,-275.2,-1668.9,2025-01-29 15:11:32,0.0
-92.39999999999964,-1023.2,3204.0,-1683.4,-742.2,-1795.9,2025-01-29 15:11:32,0.0
167.60000000000036,-1439.2,3424.0,-1608.4,-1222.2,-1838.9,2025-01-29 15:11:32,0.0
587.6000000000004,-1803.2,3316.0,-1388.4,-1421.2,-1643.9,2025-01-29 15:11:32,0.0
655.6000000000004,-1679.2,3108.0,-1279.4,-1295.2,-1617.9,2025-01-29 15:11:32,0.0
611.6000000000004,-1487.2,3172.0,-1249.4,-1062.2,-1380.9,2025-01-29 15:11:32,0.0
699.6000000000004,-1427.2,3416.0,-1199.4,-875.2,-943.9,2025-01-29 15:11:32,
1019.6000000000004,-1579.2,3628.0,-1136.4,-731.2,-505.9,2025-01-29 15:11:32,0.0
1139.6000000000004,-1687.2,3528.0,-1076.4,-343.2,-125.9,2025-01-29 15:11:32,0.0
1347.6000000000004,-1523.2,3544.0,-1054.4,373.8,300.1,2025-01-29 15:11:32,0.0
1191.6000000000004,-1323.2,3396.0,-1014.4,1205.8,592.1,2025-01-29 15:11:32,0.0
987.6000000000004,-1239.2,2948.0,-1050.4,1781.8,842.1,2025-01-29 15:11:32,0.0
867.6000000000004,-1379.2,2748.0,-1264.4,1757.8,836.1,2025-01-29 15:11:32,0.0
623.6000000000004,-1375.2,2692.0,-1758.4,1504.8,844.1,2025-01-29 15:11:32,0.0
279.60000000000036,-911.2,2392.0,-1977.4,1763.8,947.1,2025-01-29 15:11:32,0.0
39.600000000000364,-579.2,1624.0,-2142.4,2607.8,1262.1,2025-01-29 15:11:32,0.0
-88.39999999999964,-907.2,1396.0,-3013.4,3302.8,1132.1,2025-01-29 15:11:32,0.0
-848.3999999999996,-1447.2,2932.0,-3558.4,3527.8,827.1,2025-01-29 15:11:32,0.0
-1444.3999999999996,-2011.2,4000.0,-3290.4,2853.8,804.1,2025-01-29 15:11:32,0.0
-1328.3999999999996,-2383.2,4560.0,-2773.4,1100.8,605.1,2025-01-29 15:11:32,0.0
-928.3999999999996,-2327.2,3980.0,-2430.4,-648.2,186.1,2025-01-29 15:11:32,0.0
-120.39999999999964,-2111.2,3668.0,-2271.4,-1573.2,-184.9,2025-01-29 15:11:32,0.0
687.6000000000004,-1563.2,2868.0,-2361.4,-1606.2,-618.9,2025-01-29 15:11:32,0.0
1143.6000000000004,-1275.2,2392.0,-3001.4,-787.2,-1245.9,2025-01-29 15:11:32,0.0
499.60000000000036,-1703.2,2036.0,-3452.4,713.8,-2178.9,2025-01-29 15:11:32,0.0
-428.39999999999964,-2799.2,1764.0,-3823.4,1629.8,-3232.9,2025-01-29 15:11:32,0.0
-996.3999999999996,-3887.2,2672.0,-3706.4,1870.8,-4764.9,2025-01-29 15:11:32,0.0
-2696.3999999999996,-4595.2,3416.0,-2540.4,1111.8,-5256.9,2025-01-29 15:11:32,0.0
-3824.3999999999996,-4447.2,3680.0,-959.4,-236.2,-4193.9,2025-01-29 15:11:32,0.0
-3348.3999999999996,-3567.2,3012.0,125.6,-1475.2,-2933.9,2025-01-29 15:11:32,0.0
-2676.3999999999996,-3275.2,2124.0,252.6,-2384.2,-2675.9,2025-01-29 15:11:32,0.0
-3208.3999999999996,-2951.2,1884.0,-129.4,-3227.2,-2651.9,2025-01-29 15:11:32,0.0
-4524.4,-2743.2,2412.0,-218.4,-4258.2,-1934.9,2025-01-29 15:11:32,0.0
-5888.4,-2703.2,3164.0,199.6,-5255.2,348.1,2025-01-29 15:11:32,0.0
-4560.4,-2351.2,3504.0,1654.6,-6236.2,3603.1,2025-01-29 15:11:32,0.0
-1048.3999999999996,-2199.2,788.0,2644.6,-6070.2,4827.1,2025-01-29 15:11:32,0.0
855.6000000000004,-1995.2,-1348.0,2353.6,-4613.2,4486.1,2025-01-29 15:11:32,0.0
1515.6000000000004,-1811.2,-1652.0,2306.6,-2681.2,3761.1,2025-01-29 15:11:32,0.0
2115.6000000000004,-1455.2,-1504.0,2341.6,-1224.2,2957.1,2025-01-29 15:11:32,0.0
2299.6000000000004,-415.20000000000005,-1184.0,2331.6,-306.2,2270.1,2025-01-29 15:11:32,0.0
2739.6000000000004,968.8,-632.0,2268.6,407.8,1622.1,2025-01-29 15:11:32,0.0
2415.6000000000004,1704.8,-788.0,1960.6,957.8,1104.1,2025-01-29 15:11:32,0.0
1503.6000000000004,1764.8,-644.0,1168.6,1719.8,882.1,2025-01-29 15:11:32,0.0
171.60000000000036,1204.8,-200.0,693.6,2762.8,1007.1,2025-01-29 15:11:33,0.0
-776.3999999999996,788.8,920.0,884.6,3812.8,1613.1,2025-01-29 15:11:33,0.0
-1044.3999999999996,-55.200000000000045,1244.0,1308.6,4530.8,2539.1,2025-01-29 15:11:33,0.0
-1336.3999999999996,-703.2,1496.0,1409.6,4073.8,2827.1,2025-01-29 15:11:33,0.0
-1696.3999999999996,-619.2,1844.0,1525.6,2672.8,3013.1,2025-01-29 15:11:33,0.0
-1232.3999999999996,-19.200000000000045,1932.0,1672.6,821.8,3232.1,2025-01-29 15:11:33,0.0
-272.39999999999964,740.8,2168.0,1882.6,-878.2,3472.1,2025-01-29 15:11:33,0.0
531.6000000000004,1284.8,2144.0,1929.6,-1514.2,3622.1,2025-01-29 15:11:33,0.0
1739.6000000000004,1668.8,1544.0,1718.6,-1293.2,3412.1,2025-01-29 15:11:33,0.0
2071.6000000000004,1860.8,1344.0,1684.6,-572.2,3007.1,2025-01-29 15:11:33,0.0
2367.6000000000004,1640.8,1284.0,2024.6,998.8,2391.1,2025-01-29 15:11:33,0.0
2127.6000000000004,1164.8,1448.0,2420.6,2080.8,2015.1,2025-01-29 15:11:33,0.0
1631.6000000000004,612.8,1712.0,2494.6,2445.8,1810.1,2025-01-29 15:11:33,0.0
1139.6000000000004,340.79999999999995,2488.0,2377.6,2454.8,1675.1,2025-01-29 15:11:33,0.0
567.6000000000004,288.79999999999995,3444.0,2470.6,1963.8,1511.1,2025-01-29 15:11:33,0.0
747.6000000000004,844.8,3596.0,2641.6,1010.8,1223.1,2025-01-29 15:11:33,0.0
815.6000000000004,1192.8,3224.0,2596.6,-9.200000000000003,745.1,2025-01-29 15:11:33,0.0
1043.6000000000004,1400.8,3032.0,2646.6,-703.2,226.1,2025-01-29 15:11:33,0.0
1455.6000000000004,1484.8,2988.0,2818.6,-1127.2,-371.9,2025-01-29 15:11:33,0.0
1571.6000000000004,1320.8,3048.0,2910.6,-1150.2,-803.9,2025-01-29 15:11:33,0.0
1387.6000000000004,1164.8,2644.0,2673.6,-804.2,-1206.9,2025-01-29 15:11:33,0.0
987.6000000000004,1172.8,2640.0,2364.6,-293.2,-1647.9,2025-01-29 15:11:33,0.0
-312.39999999999964,1456.8,3496.0,2220.6,-449.2,-1539.9,2025-01-29 15:11:33,0.0
-972.3999999999996,1456.8,4160.0,2068.6,-1550.2,-1134.9,2025-01-29 15:11:33,0.0
-1452.3999999999996,1704.8,3624.0,2088.6,-3760.2,-539.9,2025-01-29 15:11:33,0.0
-1588.3999999999996,1708.8,2948.0,2592.6,-5168.2,269.1,2025-01-29 15:11:33,0.0
-472.39999999999964,1088.8,2300.0,3171.6,-4519.2,882.1,2025-01-29 15:11:33,0.0
747.6000000000004,676.8,1952.0,3378.6,-2932.2,882.1,2025-01-29 15:11:33,0.0
167.60000000000036,1348.8,2380.0,3494.6,-684.2,826.1,2025-01-29 15:11:33,0.0
-824.3999999999996,1896.8,4176.0,4228.6,1260.8,1320.1,2025-01-29 15:11:33,0.0
-1296.3999999999996,1920.8,5752.0,5153.6,2562.8,1775.1,2025-01-29 15:11:33,0.0
-1196.3999999999996,1220.8,6624.0,6017.6,2831.8,1617.1,2025-01-29 15:11:33,0.0
-1908.3999999999996,960.8,6056.0,6562.6,2328.8,1049.1,2025-01-29 15:11:33,0.0
-4332.4,732.8,3776.0,7262.6,2356.8,1627.1,2025-01-29 15:11:33,0.0
-4476.4,2060.8,1636.0,7365.6,2378.8,1822.1,2025-01-29 15:11:33,0.0
-5496.4,4752.8,-1156.0,5721.6,2877.8,2557.1,2025-01-29 15:11:33,0.0
-5168.4,5928.8,-3684.0,2957.6,2968.8,3806.1,2025-01-29 15:11:33,0.0
-3956.3999999999996,6096.8,-4128.0,-225.4,2076.8,4376.1,2025-01-29 15:11:33,0.0
-2368.3999999999996,5752.8,-2304.0,-2398.4,1696.8,3490.1,2025-01-29 15:11:33,0.0
-1100.3999999999996,4824.8,-1136.0,-3563.4,585.8,2025.1,2025-01-29 15:11:33,0.0
995.6000000000004,1436.8,-952.0,-4339.4,-3308.2,-171.9,2025-01-29 15:11:33,0.0
2667.6000000000004,-1751.2,-556.0,-4347.4,-7678.2,-1845.9,2025-01-29 15:11:33,0.0
2923.6000000000004,-2935.2,-488.0,-3470.4,-8203.2,-2423.9,2025-01-29 15:11:33,0.0
1955.6000000000004,-3807.2,-1780.0,-2398.4,-4128.2,-1551.9,2025-01-29 15:11:33,0.0
1891.6000000000004,-3775.2,-1672.0,-1150.4,2682.8,-807.9,2025-01-29 15:11:33,0.0
1835.6000000000004,-2499.2,-1748.0,83.6,8442.8,-1085.9,2025-01-29 15:11:33,0.0
783.6000000000004,-499.20000000000005,-256.0,422.6,11564.8,-1615.9,2025-01-29 15:11:33,0.0
-660.3999999999996,900.8,1296.0,145.6,10687.8,-2331.9,2025-01-29 15:11:33,0.0
-1116.3999999999996,1344.8,1120.0,-818.4,6395.8,-3568.9,2025-01-29 15:11:33,0.0
-2548.3999999999996,1444.8,1080.0,-1661.4,762.8,-4209.9,2025-01-29 15:11:33,0.0
-3224.3999999999996,1032.8,1380.0,-1698.4,-5658.2,-3437.9,2025-01-29 15:11:33,0.0
-1440.3999999999996,316.79999999999995,332.0,-1544.4,-8248.2,-2367.9,2025-01-29 15:11:33,0.0
899.6000000000004,-407.20000000000005,228.0,-1952.4,-8649.2,-1655.9,2025-01-29 15:11:33,0.0
1891.6000000000004,-887.2,632.0,-2385.4,-7565.2,-1542.9,2025-01-29 15:11:33,0.0
3623.6000000000004,-1087.2,536.0,-2377.4,-5168.2,-1482.9,2025-01-29 15:11:33,0.0
3643.6000000000004,-943.2,308.0,-2098.4,-1505.2,-1491.9,2025-01-29 15:11:33,0.0
3203.6000000000004,-371.20000000000005,100.0,-2100.4,1300.8,-1664.9,2025-01-29 15:11:33,0.0
2147.6000000000004,200.79999999999995,324.0,-2810.4,2508.8,-2021.9,2025-01-29 15:11:33,0.0
699.6000000000004,424.79999999999995,1388.0,-3390.4,2300.8,-2057.9,2025-01-29 15:11:33,0.0
-288.39999999999964,440.79999999999995,1536.0,-3520.4,748.8,-1411.9,2025-01-29 15:11:33,0.0
-144.39999999999964,456.79999999999995,984.0,-3827.4,-999.2,-465.9,2025-01-29 15:11:33,0.0
991.6000000000004,96.79999999999995,164.0,-4404.4,-1841.2,166.1,2025-01-29 15:11:33,0.0
1271.6000000000004,276.79999999999995,176.0,-5252.4,-1534.2,700.1,2025-01-29 15:11:34,0.0
1251.6000000000004,1048.8,612.0,-5899.4,-240.2,1120.1,2025-01-29 15:11:34,
1159.6000000000004,1736.8,288.0,-6720.4,802.8,1247.1,2025-01-29 15:11:34,0.0
815.6000000000004,2316.8,-16.0,-7916.4,854.8,1099.1,2025-01-29 15:11:34,0.0
-360.39999999999964,2456.8,-232.0,-9751.4,616.8,1002.1,2025-01-29 15:11:34,0.0
-1052.3999999999996,2348.8,-128.0,-11213.4,202.8,1223.1,2025-01-29 15:11:34,0.0
-912.3999999999996,2352.8,492.0,-12461.4,-670.2,1502.1,2025-01-29 15:11:34,0.0
-952.3999999999996,1972.8,572.0,-13593.4,-1988.2,1753.1,2025-01-29 15:11:34,0.0
127.60000000000036,1624.8,-296.0,-14626.4,-3443.2,1745.1,2025-01-29 15:11:34,0.0
259.60000000000036,1732.8,-584.0,-15822.4,-4153.2,1665.1,2025-01-29 15:11:34,0.0
2135.6000000000004,2320.8,-1244.0,-17216.4,-4480.2,1400.1,2025-01-29 15:11:34,0.0
2507.6000000000004,2308.8,-1660.0,-18545.4,-3641.2,919.1,2025-01-29 15:11:34,0.0
2491.6000000000004,1456.8,-2924.0,-19973.4,-1529.2,647.1,2025-01-29 15:11:34,0.0
1731.6000000000004,68.79999999999995,-2792.0,-21701.4,1843.8,-19.900000000000006,2025-01-29 15:11:34,0.0
263.60000000000036,-927.2,-1788.0,-22712.4,4631.8,-882.9,2025-01-29 15:11:34,0.0
-1096.3999999999996,-2147.2,-860.0,-23371.4,5735.8,-1858.9,2025-01-29 15:11:34,0.0
-1624.3999999999996,-3575.2,-312.0,-23814.4,4870.8,-2871.9,2025-01-29 15:11:34,0.0
-1972.3999999999996,-4203.2,672.0,-23813.4,2891.8,-3757.9,2025-01-29 15:11:34,0.0
-2472.3999999999996,-4711.2,2240.0,-23592.4,345.8,-3804.9,2025-01-29 15:11:34,0.0
-2252.3999999999996,-4787.2,4196.0,-22720.4,-1185.2,-2983.9,2025-01-29 15:11:34,0.0
-1760.3999999999996,-4931.2,4336.0,-21643.4,-1793.2,-1915.9,2025-01-29 15:11:34,0.0
-1500.3999999999996,-5035.2,3868.0,-20957.4,-2071.2,-922.9,2025-01-29 15:11:34,0.0
-764.3999999999996,-2655.2,1140.0,-20008.4,-2106.2,-379.9,2025-01-29 15:11:34,0.0
-1364.3999999999996,-767.2,-1784.0,-19092.4,-2192.2,-715.9,2025-01-29 15:11:34,0.0
-1924.3999999999996,-1667.2,-3124.0,-18358.4,-1566.2,-1324.9,2025-01-29 15:11:34,0.0
-496.39999999999964,-3267.2,-1048.0,-17105.4,-192.2,-2481.9,2025-01-29 15:11:34,0.0
639.6000000000004,-4131.2,612.0,-15348.4,2081.8,-3957.9,2025-01-29 15:11:34,0.0
1295.6000000000004,-1715.2,836.0,-13927.4,4663.8,-5239.9,2025-01-29 15:11:34,0.0
1439.6000000000004,1228.8,-192.0,-13789.4,6246.8,-5204.9,2025-01-29 15:11:34,0.0
899.6000000000004,1796.8,-2060.0,-13886.4,6619.8,-4150.9,2025-01-29 15:11:34,0.0
455.60000000000036,1144.8,-4620.0,-14407.4,7806.8,-3237.9,2025-01-29 15:11:34,0.0
351.60000000000036,664.8,-5332.0,-15952.4,10626.8,-3221.9,2025-01-29 15:11:34,0.0
-304.39999999999964,768.8,-3328.0,-17004.4,12285.8,-3768.9,2025-01-29 15:11:34,0.0
-1420.3999999999996,1476.8,-1516.0,-17234.4,11413.8,-4037.9,2025-01-29 15:11:34,0.0
-2932.3999999999996,1580.8,-896.0,-17136.4,8333.8,-3527.9,2025-01-29 15:11:34,0.0
-3776.3999999999996,1604.8,-572.0,-16838.4,3059.8,-2184.9,2025-01-29 15:11:34,0.0
-2204.3999999999996,1472.8,-1236.0,-16407.4,-815.2,-927.9,2025-01-29 15:11:34,0.0
-412.39999999999964,792.8,-2740.0,-16632.4,-2602.2,-381.9,2025-01-29 15:11:34,0.0
1099.6000000000004,984.8,-3976.0,-17218.4,-2945.2,-307.9,2025-01-29 15:11:34,0.0
2239.6000000000004,1056.8,-4816.0,-17995.4,-1904.2,-953.9,2025-01-29 15:11:34,0.0
2311.6000000000004,1056.8,-3188.0,-17858.4,-350.2,-1565.9,2025-01-29 15:11:34,0.0
2407.6000000000004,-199.20000000000005,-1580.0,-16749.4,1143.8,-1726.9,2025-01-29 15:11:34,0.0
2727.6000000000004,-1379.2,-960.0,-15428.4,1501.8,-2045.9,2025-01-29 15:11:34,0.0
2283.6000000000004,-1895.2,-1212.0,-14525.4,1341.8,-2455.9,2025-01-29 15:11:34,0.0
1687.6000000000004,-1683.2,-2368.0,-14316.4,980.8,-2935.9,2025-01-29 15:11:34,0.0
1443.6000000000004,-1119.2,-2348.0,-14444.4,667.8,-3501.9,2025-01-29 15:11:34,0.0
1027.6000000000004,-135.20000000000005,-2704.0,-14470.4,606.8,-3988.9,2025-01-29 15:11:34,0.0
635.6000000000004,952.8,-3216.0,-14968.4,693.8,-4245.9,2025-01-29 15:11:34,0.0
823.6000000000004,2080.8,-3820.0,-15713.4,974.8,-4351.9,2025-01-29 15:11:34,0.0
835.6000000000004,2284.8,-4380.0,-16512.4,1077.8,-4356.9,2025-01-29 15:11:34,0.0
887.6000000000004,1748.8,-4844.0,-17295.4,919.8,-4109.9,2025-01-29 15:11:34,0.0
1403.6000000000004,1072.8,-5188.0,-18059.4,822.8,-3791.9,2025-01-29 15:11:34,0.0
1935.6000000000004,456.79999999999995,-5484.0,-18878.4,990.8,-3478.9,2025-01-29 15:11:34,0.0
1987.6000000000004,-95.20000000000005,-5328.0,-19518.4,1010.8,-3304.9,2025-01-29 15:11:34,0.0
2695.6000000000004,-587.2,-4920.0,-19959.4,108.8,-3485.9,2025-01-29 15:11:34,0.0
3215.6000000000004,-911.2,-4340.0,-20334.4,-688.2,-3862.9,2025-01-29 15:11:34,0.0
3815.6000000000004,-907.2,-3428.0,-20256.4,-684.2,-4182.9,2025-01-29 15:11:34,0.0
4047.6000000000004,-1067.2,-3752.0,-19987.4,-648.2,-4326.9,2025-01-29 15:11:34,0.0
4495.6,-1267.2,-3960.0,-19949.4,-963.2,-4490.9,2025-01-29 15:11:34,0.0
4687.6,-1727.2,-3220.0,-19447.4,-1121.2,-4772.9,2025-01-29 15:11:34,0.0
4819.6,-2763.2,-2980.0,-18639.4,-1053.2,-5190.9,2025-01-29 15:11:35,0.0
5047.6,-3099.2,-2892.0,-18027.4,-687.2,-6002.9,2025-01-29 15:11:35,0.0
4843.6,-2959.2,-2328.0,-17217.4,330.8,-6942.9,2025-01-29 15:11:35,0.0
4147.6,-2387.2,-1880.0,-16040.4,495.8,-7697.9,2025-01-29 15:11:35,0.0
7839.6,-2115.2,-7648.0,-15269.4,299.8,-7369.9,2025-01-29 15:11:35,0.0
899.6000000000004,-1795.2,-1028.0,-14476.4,-971.2,-6320.9,2025-01-29 15:11:35,0.0
3347.6000000000004,-1967.2,-1144.0,-13285.4,-2169.2,-5027.9,2025-01-29 15:11:35,0.0
2875.6000000000004,-2455.2,-596.0,-12130.4,-3828.2,-4435.9,2025-01-29 15:11:35,0.0
2519.6000000000004,-3027.2,-1312.0,-10992.4,-4574.2,-3928.9,2025-01-29 15:11:35,0.0
1259.6000000000004,-3699.2,-2308.0,-10383.4,-4389.2,-3086.9,2025-01-29 15:11:35,0.0
727.6000000000004,-4403.2,-2168.0,-10288.4,-3710.2,-2755.9,2025-01-29 15:11:35,0.0
123.60000000000036,-4667.2,-228.0,-10256.4,-2496.2,-3451.9,2025-01-29 15:11:35,0.0
-1948.3999999999996,-3883.2,2004.0,-9626.4,-2531.2,-4080.9,2025-01-29 15:11:35,0.0
-2976.3999999999996,-3427.2,2408.0,-8548.4,-4126.2,-3726.9,2025-01-29 15:11:35,0.0
-2908.3999999999996,-2587.2,-536.0,-8410.4,-6106.2,-2336.9,2025-01-29 15:11:35,0.0
-2136.3999999999996,-1059.2,-1828.0,-8340.4,-10704.2,-1743.9,2025-01-29 15:11:35,0.0
-2692.3999999999996,-799.2,-5512.0,-9135.4,-6010.2,-2279.9,2025-01-29 15:11:35,0.0
1447.6000000000004,-2919.2,-580.0,-11119.4,-14097.2,-2445.9,2025-01-29 15:11:35,0.0
3351.6000000000004,-2055.2,1160.0,-10683.4,-12137.2,-3128.9,2025-01-29 15:11:35,0.0
3427.6000000000004,-199.20000000000005,4044.0,-10191.4,-11411.2,-3277.9,2025-01-29 15:11:35,0.0
-432.39999999999964,456.79999999999995,972.0,-10295.4,-8894.2,-1894.9,2025-01-29 15:11:35,0.0
-2104.3999999999996,-343.20000000000005,-84.0,-11715.4,-6912.2,-195.9,2025-01-29 15:11:35,0.0
-3408.3999999999996,-3103.2,1820.0,-12182.4,-5722.2,1333.1,2025-01-29 15:11:35,0.0
-6120.4,-5935.2,1040.0,-11183.4,-6302.2,2831.1,2025-01-29 15:11:35,0.0
-5580.4,-5519.2,2168.0,-11157.4,-9002.2,2884.1,2025-01-29 15:11:35,0.0
-3676.3999999999996,-3119.2,6484.0,-10845.4,-11985.2,3308.1,2025-01-29 15:11:35,0.0
1443.6000000000004,-279.20000000000005,6064.0,-10403.4,-14815.2,3212.1,2025-01-29 15:11:35,0.0
1391.6000000000004,76.79999999999995,7964.0,-8923.4,-17349.2,3688.1,2025-01-29 15:11:35,0.0
3435.6000000000004,-359.20000000000005,8520.0,-7056.4,-17322.2,3823.1,2025-01-29 15:11:35,0.0
3999.6000000000004,-1059.2,8240.0,-5848.4,-15848.2,3417.1,2025-01-29 15:11:35,0.0
2887.6000000000004,-1099.2,8436.0,-6063.4,-13735.2,2397.1,2025-01-29 15:11:35,0.0
2215.6000000000004,516.8,9572.0,-6448.4,-13270.2,1942.1,2025-01-29 15:11:35,0.0
2587.6000000000004,2008.8,10120.0,-5667.4,-13850.2,2115.1,2025-01-29 15:11:35,0.0
2043.6000000000004,2028.8,10784.0,-4232.4,-14702.2,2591.1,2025-01-29 15:11:35,0.0
1575.6000000000004,1716.8,10580.0,-3295.4,-15450.2,3127.1,2025-01-29 15:11:35,0.0
2031.6000000000004,1688.8,10468.0,-2826.4,-15158.2,3338.1,2025-01-29 15:11:35,0.0
2163.6000000000004,2028.8,10268.0,-2677.4,-14957.2,3512.1,2025-01-29 15:11:35,0.0
2395.6000000000004,2356.8,10856.0,-2269.4,-14280.2,3859.1,2025-01-29 15:11:35,0.0
3779.6000000000004,2080.8,11260.0,-1531.4,-13829.2,4115.1,2025-01-29 15:11:35,0.0
551.6000000000004,1652.8,13368.0,-899.4,-14173.2,4096.1,2025-01-29 15:11:35,0.0
-496.39999999999964,2524.8,14320.0,-495.4,-14604.2,4000.1,2025-01-29 15:11:35,0.0
-1128.3999999999996,3268.8,15088.0,-300.4,-15299.2,4076.1,2025-01-29 15:11:35,
71.60000000000036,3516.8,14216.0,-381.4,-15612.2,4101.1,2025-01-29 15:11:35,0.0
1911.6000000000004,2792.8,14108.0,-642.4,-14352.2,4008.1,2025-01-29 15:11:35,0.0
1535.6000000000004,3192.8,15452.0,-651.4,-8008.2,3980.1,2025-01-29 15:11:35,0.0
2491.6000000000004,3100.8,14144.0,-1656.4,-8425.2,3719.1,2025-01-29 15:11:35,0.0
2431.6000000000004,2404.8,14772.0,-2066.4,-8606.2,3377.1,2025-01-29 15:11:35,0.0
3827.6000000000004,2164.8,14628.0,-2160.4,-8407.2,2917.1,2025-01-29 15:11:35,0.0
3535.6000000000004,2304.8,15972.0,-2163.4,-6843.2,2418.1,2025-01-29 15:11:35,0.0
3567.6000000000004,2192.8,15300.0,-2164.4,-4700.2,1909.1,2025-01-29 15:11:35,0.0
4063.6000000000004,1984.8,13716.0,-2114.4,-1935.2,1693.1,2025-01-29 15:11:35,0.0
3999.6000000000004,1804.8,14192.0,-2272.4,338.8,1362.1,2025-01-29 15:11:35,0.0
3759.6000000000004,1948.8,14064.0,-2275.4,605.8,1260.1,2025-01-29 15:11:35,0.0
3767.6000000000004,1816.8,14500.0,-2198.4,286.8,1401.1,2025-01-29 15:11:35,0.0
3795.6000000000004,1632.8,15096.0,-2026.4,-471.2,1516.1,2025-01-29 15:11:35,0.0
4391.6,2164.8,15140.0,-2070.4,-936.2,1891.1,2025-01-29 15:11:35,0.0
3311.6000000000004,1848.8,14912.0,-2105.4,-1298.2,2145.1,2025-01-29 15:11:35,0.0
3819.6000000000004,1796.8,16552.0,-2367.4,-1190.2,1864.1,2025-01-29 15:11:35,0.0
3387.6000000000004,1928.8,17852.0,-2570.4,-2087.2,1611.1,2025-01-29 15:11:35,0.0
4119.6,1232.8,17292.0,-2757.4,-3119.2,1333.1,2025-01-29 15:11:35,0.0
4611.6,672.8,15820.0,-1768.4,-2408.2,1525.1,2025-01-29 15:11:36,0.0
5003.6,860.8,15052.0,-1257.4,-1492.2,1313.1,2025-01-29 15:11:36,0.0
5283.6,1308.8,14716.0,-722.4,-691.2,1038.1,2025-01-29 15:11:36,0.0
5059.6,1992.8,14556.0,-267.4,-639.2,1043.1,2025-01-29 15:11:36,0.0
4551.6,2056.8,14892.0,-374.4,-1319.2,1238.1,2025-01-29 15:11:36,0.0
5007.6,1996.8,14692.0,-867.4,-2036.2,1403.1,2025-01-29 15:11:36,0.0
5515.6,1856.8,14704.0,-1464.4,-2135.2,1212.1,2025-01-29 15:11:36,0.0
4883.6,1352.8,15144.0,-1094.4,-715.2,1038.1,2025-01-29 15:11:36,0.0
5147.6,1344.8,15064.0,-882.4,82.8,923.1,2025-01-29 15:11:36,0.0
4575.6,1660.8,14732.0,-926.4,73.8,835.1,2025-01-29 15:11:36,0.0
4867.6,1648.8,14516.0,-1149.4,-542.2,865.1,2025-01-29 15:11:36,0.0
4635.6,1640.8,14268.0,-1237.4,-791.2,961.1,2025-01-29 15:11:36,0.0
4863.6,1448.8,14276.0,-1228.4,-1143.2,1130.1,2025-01-29 15:11:36,0.0
5235.6,1444.8,15312.0,-1012.4,-1111.2,1136.1,2025-01-29 15:11:36,0.0
4451.6,1700.8,15072.0,-1030.4,-1857.2,1045.1,2025-01-29 15:11:36,0.0
4879.6,1628.8,15364.0,-1023.4,-2304.2,864.1,2025-01-29 15:11:36,0.0
5403.6,1728.8,15268.0,-812.4,-2103.2,739.1,2025-01-29 15:11:36,0.0
5687.6,1844.8,15492.0,-655.4,-1767.2,562.1,2025-01-29 15:11:36,0.0
6139.6,2224.8,15052.0,-803.4,-1086.2,204.1,2025-01-29 15:11:36,0.0
6343.6,2024.8,15064.0,-725.4,-123.2,-101.9,2025-01-29 15:11:36,0.0
5987.6,2120.8,15456.0,-496.4,302.8,-48.900000000000006,2025-01-29 15:11:36,0.0
5611.6,2392.8,15440.0,-283.4,-98.2,202.1,2025-01-29 15:11:36,0.0
5447.6,2248.8,15136.0,-171.4,-561.2,442.1,2025-01-29 15:11:36,0.0
5579.6,2104.8,15216.0,-86.4,-845.2,355.1,2025-01-29 15:11:36,0.0
5735.6,1928.8,14660.0,-137.4,-899.2,130.1,2025-01-29 15:11:36,0.0
5247.6,1592.8,14536.0,-529.4,-612.2,-111.9,2025-01-29 15:11:36,0.0
5203.6,1688.8,15012.0,-843.4,-502.2,-236.9,2025-01-29 15:11:36,0.0
5247.6,1560.8,15672.0,-786.4,-30.200000000000003,-10.900000000000006,2025-01-29 15:11:36,0.0
5459.6,1312.8,15696.0,-634.4,431.8,130.1,2025-01-29 15:11:36,0.0
5407.6,1404.8,15568.0,-276.4,572.8,287.1,2025-01-29 15:11:36,0.0
5175.6,1772.8,15324.0,3.5999999999999943,583.8,317.1,2025-01-29 15:11:36,0.0
4947.6,2036.8,15020.0,4.599999999999994,449.8,334.1,2025-01-29 15:11:36,0.0
5047.6,2120.8,15024.0,-94.4,160.8,432.1,2025-01-29 15:11:36,0.0
5175.6,1792.8,14988.0,-246.4,-70.2,374.1,2025-01-29 15:11:36,0.0
5287.6,1680.8,15060.0,-313.4,-23.200000000000003,240.1,2025-01-29 15:11:36,0.0
5203.6,1544.8,15096.0,-262.4,159.8,78.1,2025-01-29 15:11:36,0.0
5215.6,1780.8,15244.0,-192.4,272.8,-9.900000000000006,2025-01-29 15:11:36,0.0
5231.6,1992.8,15052.0,-178.4,353.8,17.099999999999994,2025-01-29 15:11:36,0.0
5319.6,2128.8,15112.0,-247.4,396.8,38.099999999999994,2025-01-29 15:11:36,0.0
5215.6,2016.8,15084.0,-328.4,415.8,28.099999999999994,2025-01-29 15:11:36,0.0
5079.6,1728.8,15132.0,-335.4,302.8,1.0999999999999943,2025-01-29 15:11:36,0.0
5027.6,1584.8,14984.0,-308.4,239.8,-66.9,2025-01-29 15:11:36,0.0
5011.6,1548.8,15008.0,-264.4,195.8,-93.9,2025-01-29 15:11:36,0.0
4999.6,1476.8,14956.0,-180.4,129.8,-72.9,2025-01-29 15:11:36,0.0
4863.6,1600.8,14856.0,-80.4,76.8,-14.900000000000006,2025-01-29 15:11:36,0.0
4991.6,1552.8,15004.0,-90.4,49.8,54.099999999999994,2025-01-29 15:11:36,0.0
5111.6,1616.8,14780.0,-195.4,103.8,91.1,2025-01-29 15:11:36,0.0
5091.6,1504.8,15076.0,-231.4,128.8,71.1,2025-01-29 15:11:36,0.0
5127.6,1492.8,15028.0,-203.4,112.8,19.099999999999994,2025-01-29 15:11:36,0.0
5115.6,1364.8,15092.0,-199.4,111.8,-65.9,2025-01-29 15:11:36,0.0
5131.6,1520.8,15176.0,-161.4,112.8,-90.9,2025-01-29 15:11:36,0.0
5099.6,1588.8,15076.0,-158.4,123.8,-89.9,2025-01-29 15:11:36,0.0
4971.6,1616.8,15160.0,-114.4,88.8,-62.900000000000006,2025-01-29 15:11:36,0.0
5087.6,1672.8,14848.0,-65.4,66.8,-79.9,2025-01-29 15:11:36,0.0
5019.6,1568.8,15112.0,-41.400000000000006,46.8,-56.900000000000006,2025-01-29 15:11:36,0.0
5027.6,1560.8,14948.0,-21.400000000000006,55.8,-51.900000000000006,2025-01-29 15:11:36,0.0
5131.6,1700.8,15088.0,136.6,13.799999999999997,7.099999999999994,2025-01-29 15:11:36,0.0
5107.6,1584.8,15148.0,144.6,-0.20000000000000284,52.099999999999994,2025-01-29 15:11:36,0.0
5243.6,1736.8,15036.0,79.6,-11.200000000000003,121.1,2025-01-29 15:11:36,0.0
5195.6,1664.8,15004.0,44.599999999999994,-172.2,91.1,2025-01-29 15:11:36,0.0
5239.6,1640.8,15204.0,5.599999999999994,-296.2,29.099999999999994,2025-01-29 15:11:37,0.0
5303.6,1672.8,15096.0,-96.4,-278.2,-52.900000000000006,2025-01-29 15:11:37,0.0
5191.6,1588.8,15508.0,-38.400000000000006,-99.2,-112.9,2025-01-29 15:11:37,0.0
5167.6,1428.8,15380.0,34.599999999999994,3.799999999999997,-85.9,2025-01-29 15:11:37,0.0
5131.6,1488.8,15192.0,44.599999999999994,121.8,-47.900000000000006,2025-01-29 15:11:37,0.0
5107.6,1504.8,15032.0,19.599999999999994,116.8,-33.900000000000006,2025-01-29 15:11:37,0.0
5103.6,1432.8,15244.0,-37.400000000000006,83.8,-50.900000000000006,2025-01-29 15:11:37,0.0
5151.6,1424.8,15068.0,-63.400000000000006,16.799999999999997,-78.9,2025-01-29 15:11:37,0.0
5135.6,1432.8,15020.0,-33.400000000000006,0.7999999999999972,-114.9,2025-01-29 15:11:37,0.0
5183.6,1500.8,15056.0,-8.400000000000006,-17.200000000000003,-119.9,2025-01-29 15:11:37,0.0
5327.6,1548.8,15148.0,-13.400000000000006,15.799999999999997,-69.9,2025-01-29 15:11:37,0.0
5115.6,1668.8,15120.0,-46.400000000000006,81.8,-118.9,2025-01-29 15:11:37,0.0
5271.6,1556.8,15040.0,-16.400000000000006,106.8,-125.9,2025-01-29 15:11:37,0.0
5079.6,1608.8,15612.0,91.6,-1.2000000000000028,-84.9,2025-01-29 15:11:37,0.0
5111.6,1400.8,14944.0,158.6,-148.2,-48.900000000000006,2025-01-29 15:11:37,0.0
5263.6,1376.8,15044.0,106.6,34.8,-81.9,2025-01-29 15:11:37,0.0
5059.6,1384.8,14952.0,-54.400000000000006,26.799999999999997,-125.9,2025-01-29 15:11:37,0.0
5039.6,1444.8,14956.0,51.599999999999994,-146.2,-96.9,2025-01-29 15:11:37,0.0
5147.6,1472.8,15064.0,110.6,-232.2,-52.900000000000006,2025-01-29 15:11:37,0.0
5251.6,1484.8,15036.0,108.6,-277.2,-13.900000000000006,2025-01-29 15:11:37,0.0
5383.6,1524.8,15092.0,73.6,-267.2,-15.900000000000006,2025-01-29 15:11:37,0.0
5239.6,1564.8,15308.0,64.6,-132.2,-21.900000000000006,2025-01-29 15:11:37,
5427.6,1464.8,15260.0,73.6,-1.2000000000000028,-2.9000000000000057,2025-01-29 15:11:37,0.0
5383.6,1444.8,15156.0,41.599999999999994,105.8,-5.900000000000006,2025-01-29 15:11:37,0.0
5347.6,1500.8,15344.0,58.599999999999994,195.8,-51.900000000000006,2025-01-29 15:11:37,0.0
5151.6,1508.8,15208.0,59.599999999999994,154.8,-29.900000000000006,2025-01-29 15:11:37,0.0
5211.6,1452.8,15148.0,35.599999999999994,99.8,-18.900000000000006,2025-01-29 15:11:37,0.0
5275.6,1516.8,15136.0,42.599999999999994,114.8,20.099999999999994,2025-01-29 15:11:37,0.0
5135.6,1436.8,15120.0,75.6,71.8,51.099999999999994,2025-01-29 15:11:37,0.0
5199.6,1492.8,15084.0,63.599999999999994,63.8,49.099999999999994,2025-01-29 15:11:37,0.0
5227.6,1492.8,15172.0,30.599999999999994,79.8,32.099999999999994,2025-01-29 15:11:37,0.0
5271.6,1588.8,15276.0,57.599999999999994,100.8,62.099999999999994,2025-01-29 15:11:37,0.0
5143.6,1512.8,15128.0,54.599999999999994,102.8,63.099999999999994,2025-01-29 15:11:37,0.0
5267.6,1504.8,15284.0,80.6,101.8,39.099999999999994,2025-01-29 15:11:37,0.0
5179.6,1420.8,15040.0,135.6,95.8,30.099999999999994,2025-01-29 15:11:37,0.0
5179.6,1476.8,15252.0,122.6,3.799999999999997,50.099999999999994,2025-01-29 15:11:37,0.0
5159.6,1444.8,15192.0,102.6,61.8,-4.900000000000006,2025-01-29 15:11:37,0.0
5199.6,1524.8,15088.0,63.599999999999994,81.8,22.099999999999994,2025-01-29 15:11:37,0.0
5227.6,1452.8,15212.0,98.6,28.799999999999997,39.099999999999994,2025-01-29 15:11:37,0.0
5243.6,1468.8,15172.0,80.6,34.8,50.099999999999994,2025-01-29 15:11:37,0.0
5339.6,1516.8,15176.0,85.6,86.8,-14.900000000000006,2025-01-29 15:11:37,0.0
5287.6,1528.8,15296.0,96.6,94.8,2.0999999999999943,2025-01-29 15:11:37,0.0
5239.6,1512.8,15108.0,109.6,132.8,1.0999999999999943,2025-01-29 15:11:37,0.0
5271.6,1512.8,14988.0,97.6,144.8,1.0999999999999943,2025-01-29 15:11:37,0.0
5287.6,1452.8,15292.0,109.6,153.8,-2.9000000000000057,2025-01-29 15:11:37,0.0
5135.6,1484.8,15140.0,69.6,128.8,19.099999999999994,2025-01-29 15:11:37,0.0
5159.6,1408.8,15004.0,93.6,59.8,-1.9000000000000057,2025-01-29 15:11:37,0.0
5163.6,1504.8,15236.0,94.6,87.8,33.099999999999994,2025-01-29 15:11:37,0.0
5227.6,1416.8,15184.0,76.6,64.8,9.099999999999994,2025-01-29 15:11:37,0.0
5159.6,1544.8,15108.0,109.6,71.8,45.099999999999994,2025-01-29 15:11:37,0.0
5267.6,1480.8,15192.0,105.6,30.799999999999997,28.099999999999994,2025-01-29 15:11:37,0.0
5243.6,1452.8,15180.0,88.6,68.8,26.099999999999994,2025-01-29 15:11:37,0.0
5175.6,1560.8,15216.0,75.6,145.8,-30.900000000000006,2025-01-29 15:11:37,0.0
5187.6,1648.8,15148.0,73.6,146.8,-15.900000000000006,2025-01-29 15:11:37,0.0
5191.6,1516.8,15180.0,90.6,154.8,46.099999999999994,2025-01-29 15:11:37,0.0
5159.6,1332.8,15192.0,107.6,97.8,37.099999999999994,2025-01-29 15:11:37,0.0
5375.6,1492.8,15148.0,100.6,121.8,52.099999999999994,2025-01-29 15:11:37,0.0
5203.6,1420.8,15332.0,-6.400000000000006,148.8,28.099999999999994,2025-01-29 15:11:37,0.0
5063.6,1524.8,15148.0,23.599999999999994,110.8,-1.9000000000000057,2025-01-29 15:11:37,0.0
5179.6,1492.8,15072.0,128.6,-10.200000000000003,36.099999999999994,2025-01-29 15:11:38,0.0
5211.6,1472.8,15040.0,164.6,-108.2,75.1,2025-01-29 15:11:38,0.0
5383.6,1428.8,15056.0,154.6,-175.2,93.1,2025-01-29 15:11:38,0.0
5339.6,1412.8,15052.0,114.6,-142.2,42.099999999999994,2025-01-29 15:11:38,0.0
5391.6,1476.8,15048.0,97.6,-13.200000000000003,-7.900000000000006,2025-01-29 15:11:38,0.0
5263.6,1508.8,15240.0,73.6,125.8,-30.900000000000006,2025-01-29 15:11:38,0.0
5215.6,1456.8,15292.0,63.599999999999994,203.8,-38.900000000000006,2025-01-29 15:11:38,0.0
5147.6,1476.8,15104.0,101.6,188.8,-33.900000000000006,2025-01-29 15:11:38,0.0
5235.6,1420.8,15228.0,129.6,161.8,-49.900000000000006,2025-01-29 15:11:38,0.0
5055.6,1448.8,15212.0,190.6,154.8,-51.900000000000006,2025-01-29 15:11:38,0.0
5091.6,1508.8,15384.0,295.6,163.8,-18.900000000000006,2025-01-29 15:11:38,0.0
4899.6,1708.8,15376.0,441.6,211.8,70.1,2025-01-29 15:11:38,0.0
5095.6,1688.8,15320.0,652.6,539.8,232.1,2025-01-29 15:11:38,0.0
5855.6,2080.8,14444.0,997.6,1364.8,475.1,2025-01-29 15:11:38,0.0
5903.6,2544.8,14552.0,1044.6,3827.8,-303.9,2025-01-29 15:11:38,0.0
4327.6,2028.8,14832.0,1288.6,5786.8,-926.9,2025-01-29 15:11:38,0.0
2123.6000000000004,1560.8,14680.0,1236.6,3654.8,-508.9,2025-01-29 15:11:38,0.0
2027.6000000000004,1092.8,14064.0,939.6,-563.2,318.1,2025-01-29 15:11:38,0.0
4243.6,1152.8,13972.0,285.6,-3264.2,993.1,2025-01-29 15:11:38,0.0
6171.6,1428.8,14316.0,97.6,-2260.2,1162.1,2025-01-29 15:11:38,0.0
6887.6,1584.8,14848.0,199.6,-657.2,1030.1,2025-01-29 15:11:38,0.0
6327.6,1572.8,15040.0,176.6,-177.2,800.1,2025-01-29 15:11:38,0.0
6031.6,1596.8,14432.0,-113.4,-218.2,373.1,2025-01-29 15:11:38,0.0
5495.6,1820.8,15308.0,-224.4,296.8,86.1,2025-01-29 15:11:38,0.0
5063.6,2004.8,15304.0,-186.4,199.8,48.099999999999994,2025-01-29 15:11:38,0.0
5231.6,2132.8,15264.0,-174.4,141.8,190.1,2025-01-29 15:11:38,0.0
5631.6,2188.8,15232.0,-122.4,232.8,372.1,2025-01-29 15:11:38,0.0
5519.6,1880.8,15344.0,-184.4,-32.2,513.1,2025-01-29 15:11:38,0.0
5571.6,1484.8,15552.0,-144.4,-317.2,610.1,2025-01-29 15:11:38,0.0
5647.6,1164.8,15320.0,-103.4,-303.2,524.1,2025-01-29 15:11:38,0.0
5499.6,848.8,14836.0,-98.4,139.8,366.1,2025-01-29 15:11:38,0.0
5535.6,988.8,14448.0,-218.4,548.8,374.1,2025-01-29 15:11:38,0.0
5423.6,1036.8,14508.0,-335.4,756.8,475.1,2025-01-29 15:11:38,0.0
5279.6,1128.8,14940.0,-247.4,858.8,578.1,2025-01-29 15:11:38,0.0
5223.6,1336.8,14796.0,-19.400000000000006,477.8,563.1,2025-01-29 15:11:38,0.0
5399.6,1608.8,14744.0,-1.4000000000000057,-39.2,427.1,2025-01-29 15:11:38,0.0
5619.6,1572.8,14824.0,127.6,-35.2,308.1,2025-01-29 15:11:38,0.0
5799.6,1564.8,14488.0,333.6,66.8,491.1,2025-01-29 15:11:38,0.0
5651.6,1784.8,13952.0,369.6,-91.2,869.1,2025-01-29 15:11:38,0.0
4807.6,2200.8,14548.0,434.6,-121.2,999.1,2025-01-29 15:11:38,0.0
3827.6000000000004,2208.8,15240.0,735.6,152.8,807.1,2025-01-29 15:11:38,0.0
3527.6000000000004,2352.8,15344.0,496.6,121.8,504.1,2025-01-29 15:11:38,0.0
3351.6000000000004,2460.8,15120.0,-128.4,-645.2,491.1,2025-01-29 15:11:38,0.0
4635.6,2608.8,14832.0,-423.4,-1435.2,342.1,2025-01-29 15:11:38,0.0
5019.6,2640.8,15272.0,-447.4,-2094.2,512.1,2025-01-29 15:11:38,0.0
5163.6,1928.8,15356.0,-115.4,-2314.2,724.1,2025-01-29 15:11:38,0.0
6187.6,1984.8,15084.0,17.599999999999994,-1993.2,1028.1,2025-01-29 15:11:38,0.0
6447.6,1796.8,15380.0,76.6,-1575.2,1050.1,2025-01-29 15:11:38,0.0
6919.6,1860.8,15112.0,139.6,-438.2,940.1,2025-01-29 15:11:38,0.0
6791.6,2068.8,15868.0,-213.4,697.8,746.1,2025-01-29 15:11:38,0.0
6535.6,2132.8,16040.0,-400.4,2238.8,156.1,2025-01-29 15:11:38,0.0
6655.6,2556.8,15280.0,-745.4,3250.8,-27.900000000000006,2025-01-29 15:11:38,0.0
6475.6,1784.8,16336.0,-255.4,5311.8,-807.9,2025-01-29 15:11:38,0.0
3539.6000000000004,1296.8,15824.0,-240.4,7658.8,-808.9,2025-01-29 15:11:38,0.0
1763.6000000000004,1260.8,15404.0,-6.400000000000006,7826.8,15.099999999999994,2025-01-29 15:11:38,0.0
1207.6000000000004,1668.8,15684.0,79.6,5560.8,1201.1,2025-01-29 15:11:38,0.0
1799.6000000000004,2620.8,17408.0,158.6,2717.8,2208.1,2025-01-29 15:11:38,0.0
2487.6000000000004,3844.8,17768.0,267.6,331.8,2989.1,2025-01-29 15:11:38,0.0
2175.6000000000004,2392.8,18848.0,556.6,1912.8,3758.1,2025-01-29 15:11:38,0.0
3467.6000000000004,1716.8,18924.0,482.6,1857.8,3727.1,2025-01-29 15:11:38,0.0
5059.6,1980.8,18864.0,586.6,2669.8,2759.1,2025-01-29 15:11:38,0.0
4887.6,1596.8,19544.0,667.6,2297.8,1705.1,2025-01-29 15:11:39,0.0
5671.6,1396.8,18340.0,589.6,2145.8,983.1,2025-01-29 15:11:39,
5107.6,1476.8,17384.0,900.6,2562.8,493.1,2025-01-29 15:11:39,0.0
4467.6,2088.8,17424.0,1448.6,3580.8,205.1,2025-01-29 15:11:39,0.0
3859.6000000000004,3092.8,16880.0,1926.6,5165.8,-170.9,2025-01-29 15:11:39,0.0
2423.6000000000004,3532.8,16624.0,2164.6,6853.8,-359.9,2025-01-29 15:11:39,0.0
2011.6000000000004,3468.8,15900.0,2224.6,7786.8,-376.9,2025-01-29 15:11:39,0.0
3151.6000000000004,3304.8,14984.0,2183.6,7979.8,-317.9,2025-01-29 15:11:39,0.0
3295.6000000000004,2548.8,14684.0,2234.6,7525.8,-306.9,2025-01-29 15:11:39,0.0
3131.6000000000004,2176.8,14020.0,2123.6,7008.8,-549.9,2025-01-29 15:11:39,0.0
2875.6000000000004,2608.8,13276.0,1844.6,7279.8,-737.9,2025-01-29 15:11:39,0.0
2583.6000000000004,3000.8,12972.0,1747.6,8043.8,-745.9,2025-01-29 15:11:39,0.0
2147.6000000000004,3104.8,12408.0,1819.6,8635.8,-515.9,2025-01-29 15:11:39,0.0
2443.6000000000004,2616.8,11724.0,2010.6,8870.8,-579.9,2025-01-29 15:11:39,0.0
2331.6000000000004,2480.8,11932.0,2017.6,8797.8,-629.9,2025-01-29 15:11:39,0.0
2367.6000000000004,2592.8,12076.0,1909.6,8157.8,-551.9,2025-01-29 15:11:39,0.0
2823.6000000000004,2500.8,11632.0,1693.6,7227.8,-383.9,2025-01-29 15:11:39,0.0
2555.6000000000004,2744.8,11284.0,1523.6,6977.8,-152.9,2025-01-29 15:11:39,0.0
431.60000000000036,2184.8,11088.0,1246.6,6395.8,129.1,2025-01-29 15:11:39,0.0
3419.6000000000004,2404.8,10188.0,822.6,6160.8,1.0999999999999943,2025-01-29 15:11:39,0.0
3123.6000000000004,2548.8,10236.0,861.6,7390.8,-181.9,2025-01-29 15:11:39,0.0
2983.6000000000004,2852.8,10120.0,796.6,8732.8,-266.9,2025-01-29 15:11:39,0.0
2547.6000000000004,2816.8,9572.0,973.6,9862.8,-327.9,2025-01-29 15:11:39,0.0
1815.6000000000004,2612.8,9412.0,799.6,9851.8,-378.9,2025-01-29 15:11:39,0.0
1439.6000000000004,2656.8,9484.0,656.6,9333.8,-487.9,2025-01-29 15:11:39,0.0
1463.6000000000004,2672.8,9360.0,501.6,8616.8,-539.9,2025-01-29 15:11:39,0.0
339.60000000000036,2508.8,8792.0,297.6,8447.8,-486.9,2025-01-29 15:11:39,0.0
883.6000000000004,2584.8,7376.0,301.6,7872.8,-542.9,2025-01-29 15:11:39,0.0
631.6000000000004,2436.8,6152.0,63.599999999999994,8242.8,-563.9,2025-01-29 15:11:39,0.0
839.6000000000004,2400.8,7068.0,-363.4,8110.8,-629.9,2025-01-29 15:11:39,0.0
779.6000000000004,2200.8,6496.0,-811.4,8002.8,-660.9,2025-01-29 15:11:39,0.0
515.6000000000004,2324.8,6476.0,-1094.4,8164.8,-708.9,2025-01-29 15:11:39,0.0
55.600000000000364,2192.8,6000.0,-1349.4,8676.8,-886.9,2025-01-29 15:11:39,0.0
-700.3999999999996,2260.8,6136.0,-1493.4,9274.8,-1391.9,2025-01-29 15:11:39,0.0
-1236.3999999999996,2176.8,5640.0,-1291.4,9417.8,-1252.9,2025-01-29 15:11:39,0.0
-712.3999999999996,2060.8,5348.0,-1794.4,8223.8,-1248.9,2025-01-29 15:11:39,0.0
-388.39999999999964,1540.8,5412.0,-2026.4,6597.8,-1325.9,2025-01-29 15:11:39,0.0
-1208.3999999999996,1204.8,5652.0,-1648.4,5624.8,-1067.9,2025-01-29 15:11:39,0.0
-904.3999999999996,1396.8,5604.0,-1143.4,5897.8,-1003.9,2025-01-29 15:11:39,0.0
87.60000000000036,1372.8,4808.0,-819.4,6301.8,-1087.9,2025-01-29 15:11:39,0.0
175.60000000000036,1160.8,5108.0,-465.4,5894.8,-1154.9,2025-01-29 15:11:39,0.0
263.60000000000036,824.8,4708.0,-73.4,5423.8,-1299.9,2025-01-29 15:11:39,0.0
567.6000000000004,232.79999999999995,4488.0,203.6,5505.8,-1470.9,2025-01-29 15:11:39,0.0
1167.6000000000004,-371.20000000000005,3960.0,430.6,6305.8,-1824.9,2025-01-29 15:11:39,0.0
-4000.3999999999996,-2815.2,2768.0,-181.4,6154.8,-2514.9,2025-01-29 15:11:39,0.0
979.6000000000004,148.79999999999995,3424.0,174.6,5518.8,-2964.9,2025-01-29 15:11:39,0.0
1323.6000000000004,1124.8,1100.0,-157.4,5027.8,-3905.9,2025-01-29 15:11:39,0.0
239.60000000000036,2488.8,1104.0,-681.4,6198.8,-4175.9,2025-01-29 15:11:39,0.0
-204.39999999999964,3456.8,1984.0,-995.4,6881.8,-3665.9,2025-01-29 15:11:39,0.0
-860.3999999999996,2924.8,2596.0,-1048.4,6301.8,-2096.9,2025-01-29 15:11:39,0.0
-692.3999999999996,1172.8,2572.0,-679.4,4211.8,-748.9,2025-01-29 15:11:39,0.0
-504.39999999999964,-39.200000000000045,2212.0,-429.4,2112.8,112.1,2025-01-29 15:11:39,0.0
-212.39999999999964,-511.20000000000005,2368.0,340.6,119.8,933.1,2025-01-29 15:11:39,0.0
215.60000000000036,-11.200000000000045,3060.0,1542.6,-1520.2,1865.1,2025-01-29 15:11:39,0.0
755.6000000000004,1056.8,2944.0,2655.6,-2983.2,2737.1,2025-01-29 15:11:39,0.0
2147.6000000000004,1840.8,1720.0,3392.6,-4175.2,3057.1,2025-01-29 15:11:39,0.0
3259.6000000000004,1760.8,588.0,3217.6,-4856.2,2727.1,2025-01-29 15:11:39,0.0
3519.6000000000004,2064.8,344.0,3011.6,-4406.2,2488.1,2025-01-29 15:11:39,0.0
4071.6000000000004,2364.8,748.0,3092.6,-3592.2,2403.1,2025-01-29 15:11:39,0.0
5267.6,2748.8,1364.0,3332.6,-2200.2,2006.1,2025-01-29 15:11:39,0.0
6207.6,2856.8,2636.0,3425.6,-130.2,913.1,2025-01-29 15:11:39,0.0
6375.6,3176.8,2388.0,3091.6,1750.8,-644.9,2025-01-29 15:11:39,0.0
4243.6,3724.8,580.0,2186.6,3103.8,-1843.9,2025-01-29 15:11:40,0.0
2499.6000000000004,5180.8,348.0,1834.6,4667.8,-2424.9,2025-01-29 15:11:40,0.0
1019.6000000000004,6892.8,1108.0,1494.6,7125.8,-2497.9,2025-01-29 15:11:40,0.0
-568.3999999999996,6636.8,2148.0,690.6,10123.8,-1859.9,2025-01-29 15:11:40,0.0
-2400.3999999999996,6012.8,2772.0,111.6,11969.8,-616.9,2025-01-29 15:11:40,0.0
-3276.3999999999996,5024.8,2856.0,-211.4,10891.8,1201.1,2025-01-29 15:11:40,0.0
-2328.3999999999996,4072.8,2776.0,-588.4,6779.8,2142.1,2025-01-29 15:11:40,0.0
-1140.3999999999996,3108.8,2748.0,-1281.4,1124.8,1879.1,2025-01-29 15:11:40,0.0
-904.3999999999996,2296.8,3180.0,-1868.4,-3204.2,1067.1,2025-01-29 15:11:40,0.0
-968.3999999999996,1660.8,4440.0,-1662.4,-5296.2,536.1,2025-01-29 15:11:40,0.0
-60.399999999999636,1224.8,4948.0,-471.4,-5850.2,501.1,2025-01-29 15:11:40,0.0
831.6000000000004,764.8,4896.0,942.6,-6406.2,605.1,2025-01-29 15:11:40,0.0
1899.6000000000004,300.79999999999995,4692.0,2144.6,-6585.2,384.1,2025-01-29 15:11:40,0.0
2275.6000000000004,224.79999999999995,4984.0,3235.6,-5295.2,-124.9,2025-01-29 15:11:40,0.0
2475.6000000000004,592.8,5220.0,4412.6,-2738.2,-562.9,2025-01-29 15:11:40,0.0
1947.6000000000004,872.8,4920.0,5163.6,-532.2,-1006.9,2025-01-29 15:11:40,0.0
311.60000000000036,1388.8,4932.0,5549.6,747.8,-1069.9,2025-01-29 15:11:40,0.0
-1056.3999999999996,2340.8,5276.0,5862.6,1412.8,-464.9,2025-01-29 15:11:40,0.0
-1644.3999999999996,3220.8,4600.0,6080.6,935.8,316.1,2025-01-29 15:11:40,0.0
-1276.3999999999996,3776.8,3876.0,5926.6,-247.2,767.1,2025-01-29 15:11:40,0.0
-1556.3999999999996,3600.8,3560.0,5360.6,-1417.2,1178.1,2025-01-29 15:11:40,0.0
-2324.3999999999996,3472.8,4260.0,5315.6,-1137.2,1843.1,2025-01-29 15:11:40,0.0
-2972.3999999999996,3896.8,4108.0,5714.6,1.7999999999999972,2988.1,2025-01-29 15:11:40,0.0
-3508.3999999999996,4804.8,3880.0,6172.6,1321.8,4162.1,2025-01-29 15:11:40,0.0
-3372.3999999999996,5372.8,3988.0,6418.6,1982.8,5160.1,2025-01-29 15:11:40,0.0
-1972.3999999999996,6196.8,4656.0,5978.6,1893.8,5350.1,2025-01-29 15:11:40,0.0
371.60000000000036,6864.8,4772.0,4612.6,538.8,3793.1,2025-01-29 15:11:40,0.0
1491.6000000000004,6496.8,3836.0,3118.6,-2002.2,956.1,2025-01-29 15:11:40,0.0
1879.6000000000004,5052.8,1124.0,1930.6,-4300.2,-2682.9,2025-01-29 15:11:40,0.0
-800.3999999999996,3500.8,-1416.0,527.6,-4743.2,-5210.9,2025-01-29 15:11:40,0.0
-3344.3999999999996,3624.8,-1664.0,-0.4000000000000057,-3736.2,-5433.9,2025-01-29 15:11:40,0.0
-4196.4,3752.8,-1140.0,388.6,-1118.2,-3700.9,2025-01-29 15:11:40,0.0
-2180.3999999999996,2992.8,-360.0,532.6,437.8,-2287.9,2025-01-29 15:11:40,0.0
-232.39999999999964,1780.8,476.0,-158.4,-441.2,-2213.9,2025-01-29 15:11:40,0.0
1031.6000000000004,164.79999999999995,1216.0,-1078.4,-2085.2,-2776.9,2025-01-29 15:11:40,0.0
1263.6000000000004,-1231.2,1956.0,-1500.4,-2706.2,-3430.9,2025-01-29 15:11:40,0.0
775.6000000000004,-1423.2,2408.0,-668.4,-1939.2,-3763.9,2025-01-29 15:11:40,0.0
327.60000000000036,-1099.2,2096.0,1105.6,-128.2,-3375.9,2025-01-29 15:11:40,0.0
-48.399999999999636,-587.2,1304.0,2676.6,1979.8,-2775.9,2025-01-29 15:11:40,0.0
359.60000000000036,452.79999999999995,460.0,2881.6,3480.8,-2684.9,2025-01-29 15:11:40,
127.60000000000036,1116.8,148.0,1987.6,3575.8,-3192.9,2025-01-29 15:11:40,0.0
-532.3999999999996,1092.8,480.0,1095.6,2983.8,-3640.9,2025-01-29 15:11:40,0.0
-884.3999999999996,776.8,1512.0,636.6,1628.8,-3779.9,2025-01-29 15:11:40,0.0
-856.3999999999996,568.8,2456.0,587.6,-575.2,-3397.9,2025-01-29 15:11:40,0.0
-32.399999999999636,400.79999999999995,2632.0,721.6,-2865.2,-2557.9,2025-01-29 15:11:40,0.0
919.6000000000004,400.79999999999995,2472.0,795.6,-3832.2,-1748.9,2025-01-29 15:11:40,0.0
2255.6000000000004,412.79999999999995,2184.0,640.6,-3752.2,-1337.9,2025-01-29 15:11:40,0.0
3111.6000000000004,288.79999999999995,1692.0,252.6,-2615.2,-1233.9,2025-01-29 15:11:40,0.0
3527.6000000000004,-247.20000000000005,812.0,-595.4,-554.2,-1417.9,2025-01-29 15:11:40,0.0
2639.6000000000004,-431.20000000000005,1180.0,-1260.4,1268.8,-1477.9,2025-01-29 15:11:40,0.0
1971.6000000000004,-1083.2,1728.0,-1259.4,2562.8,-1609.9,2025-01-29 15:11:40,0.0
1171.6000000000004,-1231.2,2220.0,-1050.4,2867.8,-1293.9,2025-01-29 15:11:40,0.0
671.6000000000004,-1383.2,3100.0,-732.4,2732.8,-881.9,2025-01-29 15:11:40,0.0
331.60000000000036,-1199.2,3408.0,-516.4,2296.8,-378.9,2025-01-29 15:11:40,0.0
-64.39999999999964,-75.20000000000005,3296.0,-453.4,1627.8,215.1,2025-01-29 15:11:40,0.0
-484.39999999999964,584.8,3376.0,-601.4,1082.8,674.1,2025-01-29 15:11:40,0.0
-504.39999999999964,828.8,3520.0,-801.4,573.8,1107.1,2025-01-29 15:11:40,0.0
-120.39999999999964,912.8,3560.0,-906.4,-390.2,1626.1,2025-01-29 15:11:40,0.0
475.60000000000036,668.8,2860.0,-1162.4,-1096.2,2047.1,2025-01-29 15:11:40,0.0
1143.6000000000004,88.79999999999995,2676.0,-1573.4,-1476.2,2253.1,2025-01-29 15:11:40,0.0
1835.6000000000004,-283.20000000000005,2400.0,-1912.4,-1195.2,2165.1,2025-01-29 15:11:40,0.0
1987.6000000000004,-787.2,2312.0,-2197.4,99.8,1765.1,2025-01-29 15:11:41,0.0
1243.6000000000004,-999.2,1804.0,-2224.4,1816.8,1248.1,2025-01-29 15:11:41,0.0
-120.39999999999964,-911.2,2088.0,-2177.4,3463.8,934.1,2025-01-29 15:11:41,0.0
-1144.3999999999996,-279.20000000000005,2952.0,-2099.4,4327.8,699.1,2025-01-29 15:11:41,0.0
-1600.3999999999996,-207.20000000000005,3580.0,-2233.4,3723.8,70.1,2025-01-29 15:11:41,0.0
-2108.3999999999996,-663.2,4004.0,-2777.4,1620.8,-683.9,2025-01-29 15:11:41,0.0
-3104.3999999999996,-3.2000000000000455,5004.0,-3446.4,-1110.2,-798.9,2025-01-29 15:11:41,0.0
-3364.3999999999996,1832.8,6268.0,-3621.4,-2145.2,-57.900000000000006,2025-01-29 15:11:41,0.0
-2544.3999999999996,2664.8,4864.0,-3886.4,-1488.2,-114.9,2025-01-29 15:11:41,0.0
-2964.3999999999996,1652.8,1632.0,-4543.4,-779.2,-968.9,2025-01-29 15:11:41,0.0
-2288.3999999999996,-1223.2,1592.0,-5093.4,-582.2,-1827.9,2025-01-29 15:11:41,0.0
-1728.3999999999996,-4375.2,3044.0,-4431.4,-1015.2,-2989.9,2025-01-29 15:11:41,0.0
-2568.3999999999996,-5959.2,4912.0,-2979.4,-1018.2,-3302.9,2025-01-29 15:11:41,0.0
-4044.3999999999996,-5379.2,6020.0,-303.4,-214.2,-2380.9,2025-01-29 15:11:41,0.0
-5488.4,-3579.2,3848.0,2785.6,134.8,-257.9,2025-01-29 15:11:41,0.0
-3644.3999999999996,-1387.2,352.0,3806.6,-996.2,1319.1,2025-01-29 15:11:41,0.0
-1652.3999999999996,696.8,-1760.0,2725.6,-3349.2,1530.1,2025-01-29 15:11:41,0.0
311.60000000000036,2952.8,-1864.0,1382.6,-5931.2,1988.1,2025-01-29 15:11:41,0.0
2751.6000000000004,4868.8,-1812.0,607.6,-6897.2,2451.1,2025-01-29 15:11:41,0.0
4175.6,5480.8,-2636.0,206.6,-5351.2,2251.1,2025-01-29 15:11:41,0.0
4223.6,4620.8,-3520.0,-474.4,-1167.2,1467.1,2025-01-29 15:11:41,0.0
2735.6000000000004,2092.8,-2532.0,-1077.4,4589.8,655.1,2025-01-29 15:11:41,0.0
711.6000000000004,512.8,-452.0,-838.4,7774.8,131.1,2025-01-29 15:11:41,0.0
-1924.3999999999996,-231.20000000000005,1948.0,-122.4,9493.8,465.1,2025-01-29 15:11:41,0.0
-3000.3999999999996,-711.2,3900.0,1023.6,8410.8,1618.1,2025-01-29 15:11:41,0.0
-3092.3999999999996,-851.2,4428.0,2189.6,4975.8,2441.1,2025-01-29 15:11:41,0.0
-3036.3999999999996,240.79999999999995,3204.0,3073.6,403.8,3008.1,2025-01-29 15:11:41,0.0
-2312.3999999999996,1696.8,1964.0,3426.6,-2759.2,3347.1,2025-01-29 15:11:41,0.0
-1116.3999999999996,3140.8,1144.0,3464.6,-4723.2,3354.1,2025-01-29 15:11:41,0.0
567.6000000000004,3780.8,676.0,3175.6,-5579.2,3210.1,2025-01-29 15:11:41,0.0
2147.6000000000004,3616.8,740.0,2791.6,-5453.2,2753.1,2025-01-29 15:11:41,0.0
2939.6000000000004,2968.8,892.0,2437.6,-4173.2,2422.1,2025-01-29 15:11:41,0.0
3131.6000000000004,2612.8,1428.0,2354.6,-1243.2,2181.1,2025-01-29 15:11:41,0.0
3083.6000000000004,2396.8,1676.0,2416.6,1662.8,1730.1,2025-01-29 15:11:41,0.0
2739.6000000000004,2400.8,2216.0,2176.6,2511.8,1222.1,2025-01-29 15:11:41,0.0
1863.6000000000004,2592.8,3000.0,1919.6,2139.8,884.1,2025-01-29 15:11:41,0.0
1399.6000000000004,2524.8,3092.0,1784.6,986.8,388.1,2025-01-29 15:11:41,0.0
1363.6000000000004,2528.8,2608.0,1638.6,-251.2,-208.9,2025-01-29 15:11:41,0.0
1391.6000000000004,2340.8,2796.0,1353.6,-1107.2,-986.9,2025-01-29 15:11:41,0.0
1703.6000000000004,2384.8,2864.0,1296.6,-1282.2,-1661.9,2025-01-29 15:11:41,0.0
1803.6000000000004,2152.8,3084.0,1348.6,-1079.2,-2019.9,2025-01-29 15:11:41,0.0
1423.6000000000004,2172.8,4332.0,1510.6,-854.2,-2722.9,2025-01-29 15:11:41,0.0
423.60000000000036,2080.8,4112.0,1534.6,-1100.2,-3031.9,2025-01-29 15:11:41,0.0
-332.39999999999964,1916.8,4276.0,1640.6,-1223.2,-3057.9,2025-01-29 15:11:41,0.0
-752.3999999999996,1780.8,4384.0,1847.6,-1310.2,-2806.9,2025-01-29 15:11:41,0.0
-944.3999999999996,2020.8,3776.0,2295.6,-1856.2,-2096.9,2025-01-29 15:11:41,0.0
-52.399999999999636,2008.8,3832.0,2668.6,-2285.2,-1453.9,2025-01-29 15:11:41,0.0
475.60000000000036,1820.8,4160.0,2864.6,-1321.2,-1166.9,2025-01-29 15:11:41,0.0
711.6000000000004,1584.8,3736.0,2653.6,401.8,-961.9,2025-01-29 15:11:41,0.0
115.60000000000036,1324.8,4092.0,2673.6,2142.8,-970.9,2025-01-29 15:11:41,0.0
-172.39999999999964,1160.8,4692.0,3116.6,3398.8,-1017.9,2025-01-29 15:11:41,0.0
-892.3999999999996,1140.8,4692.0,3508.6,4331.8,-1073.9,2025-01-29 15:11:41,0.0
-1592.3999999999996,1404.8,4660.0,3895.6,4791.8,-866.9,2025-01-29 15:11:41,0.0
-3192.3999999999996,1104.8,2956.0,4241.6,4792.8,-613.9,2025-01-29 15:11:41,0.0
-4256.4,1824.8,1784.0,4168.6,4732.8,180.1,2025-01-29 15:11:41,0.0
-5296.4,3180.8,-20.0,3463.6,5396.8,1344.1,2025-01-29 15:11:41,0.0
-5844.4,4132.8,-2856.0,1780.6,6495.8,2432.1,2025-01-29 15:11:41,0.0
-5428.4,5592.8,-3436.0,-184.4,6790.8,3164.1,2025-01-29 15:11:41,0.0
-4152.4,6916.8,-2496.0,-2328.4,4450.8,3714.1,2025-01-29 15:11:41,0.0
-1956.3999999999996,7560.8,-1520.0,-4182.4,452.8,3123.1,2025-01-29 15:11:41,0.0
2071.6000000000004,6884.8,208.0,-4398.4,-3825.2,-841.9,2025-01-29 15:11:41,0.0
1503.6000000000004,2100.8,-2600.0,-6218.4,-8368.2,-4578.9,2025-01-29 15:11:42,0.0
719.6000000000004,-587.2,-980.0,-7346.4,-10117.2,-4877.9,2025-01-29 15:11:42,0.0
731.6000000000004,-2671.2,-380.0,-6073.4,-10009.2,-3732.9,2025-01-29 15:11:42,0.0
883.6000000000004,-1947.2,-1092.0,-4481.4,-7446.2,-1513.9,2025-01-29 15:11:42,0.0
2687.6000000000004,600.8,-1908.0,-3065.4,-1299.2,-38.900000000000006,2025-01-29 15:11:42,0.0
3615.6000000000004,2496.8,-2408.0,-3022.4,4819.8,-211.9,2025-01-29 15:11:42,0.0
3251.6000000000004,3124.8,-2064.0,-4284.4,8493.8,-1266.9,2025-01-29 15:11:42,0.0
1399.6000000000004,3056.8,-332.0,-5882.4,10069.8,-2464.9,2025-01-29 15:11:42,0.0
-740.3999999999996,2332.8,628.0,-6824.4,9670.8,-2996.9,2025-01-29 15:11:42,0.0
-2516.3999999999996,1828.8,-600.0,-7727.4,7127.8,-3023.9,2025-01-29 15:11:42,0.0
-3304.3999999999996,1204.8,-2108.0,-9086.4,2842.8,-2795.9,2025-01-29 15:11:42,0.0
-3076.3999999999996,452.79999999999995,-2600.0,-10561.4,-2861.2,-2304.9,2025-01-29 15:11:42,0.0
-1592.3999999999996,380.79999999999995,-1800.0,-11457.4,-6874.2,-1684.9,2025-01-29 15:11:42,0.0
631.6000000000004,276.79999999999995,-1684.0,-12473.4,-9073.2,-1251.9,2025-01-29 15:11:42,0.0
2387.6000000000004,496.79999999999995,-1868.0,-13422.4,-8472.2,-1142.9,2025-01-29 15:11:42,0.0
3403.6000000000004,704.8,-1916.0,-14387.4,-5070.2,-1294.9,2025-01-29 15:11:42,0.0
3111.6000000000004,872.8,-2052.0,-14999.4,-826.2,-1387.9,2025-01-29 15:11:42,0.0
2379.6000000000004,524.8,-1896.0,-15529.4,2844.8,-1253.9,2025-01-29 15:11:42,
1199.6000000000004,344.79999999999995,-1596.0,-16145.4,4237.8,-1173.9,2025-01-29 15:11:42,0.0
3.600000000000364,340.79999999999995,-1112.0,-16702.4,4065.8,-883.9,2025-01-29 15:11:42,0.0
-472.39999999999964,472.79999999999995,-1184.0,-17134.4,2922.8,-491.9,2025-01-29 15:11:42,0.0
-1104.3999999999996,-207.20000000000005,-528.0,-17837.4,1479.8,-362.9,2025-01-29 15:11:42,0.0
-1152.3999999999996,-763.2,-524.0,-18305.4,506.8,-391.9,2025-01-29 15:11:42,0.0
-1004.3999999999996,-667.2,76.0,-18540.4,72.8,-349.9,2025-01-29 15:11:42,0.0
-492.39999999999964,-207.20000000000005,24.0,-18569.4,-556.2,-230.9,2025-01-29 15:11:42,0.0
-268.39999999999964,-187.20000000000005,64.0,-18726.4,-1633.2,-122.9,2025-01-29 15:11:42,0.0
-84.39999999999964,-791.2,140.0,-18874.4,-2784.2,-27.900000000000006,2025-01-29 15:11:42,0.0
-48.399999999999636,-1695.2,-20.0,-18668.4,-3716.2,185.1,2025-01-29 15:11:42,0.0
279.60000000000036,-2063.2,-40.0,-18669.4,-3330.2,165.1,2025-01-29 15:11:42,0.0
491.60000000000036,-1491.2,872.0,-18420.4,-1751.2,-232.9,2025-01-29 15:11:42,0.0
431.60000000000036,-995.2,1672.0,-18087.4,387.8,-522.9,2025-01-29 15:11:42,0.0
-240.39999999999964,-531.2,1968.0,-17491.4,1899.8,-573.9,2025-01-29 15:11:42,0.0
-1044.3999999999996,-239.20000000000005,1400.0,-17522.4,1699.8,-594.9,2025-01-29 15:11:42,0.0
-1128.3999999999996,-719.2,780.0,-18169.4,227.8,-1069.9,2025-01-29 15:11:42,0.0
-1260.3999999999996,-439.20000000000005,644.0,-18796.4,-1027.2,-1310.9,2025-01-29 15:11:42,0.0
-960.3999999999996,140.79999999999995,1076.0,-19410.4,-1568.2,-1055.9,2025-01-29 15:11:42,0.0
-384.39999999999964,724.8,1600.0,-20019.4,-1853.2,-493.9,2025-01-29 15:11:42,0.0
207.60000000000036,940.8,1468.0,-20578.4,-2281.2,1.0999999999999943,2025-01-29 15:11:42,0.0
39.600000000000364,652.8,1644.0,-21040.4,-2291.2,536.1,2025-01-29 15:11:42,0.0
-348.39999999999964,-147.20000000000005,1236.0,-20968.4,-1825.2,1106.1,2025-01-29 15:11:42,0.0
-832.3999999999996,-1139.2,412.0,-20611.4,-1181.2,1586.1,2025-01-29 15:11:42,0.0
-1160.3999999999996,-1711.2,404.0,-20114.4,-928.2,1945.1,2025-01-29 15:11:42,0.0
-584.3999999999996,-2399.2,516.0,-19050.4,-546.2,2038.1,2025-01-29 15:11:42,0.0
-36.399999999999636,-2959.2,-1308.0,-17655.4,961.8,1527.1,2025-01-29 15:11:42,0.0
-416.39999999999964,-2131.2,-3132.0,-16798.4,2566.8,1041.1,2025-01-29 15:11:42,0.0
-8.399999999999636,-295.20000000000005,-3492.0,-16327.4,4215.8,909.1,2025-01-29 15:11:42,0.0
823.6000000000004,2124.8,-2276.0,-16664.4,5497.8,933.1,2025-01-29 15:11:42,0.0
1175.6000000000004,3984.8,-1712.0,-17283.4,6173.8,787.1,2025-01-29 15:11:42,0.0
1007.6000000000004,4864.8,-1588.0,-17805.4,5824.8,158.1,2025-01-29 15:11:42,0.0
835.6000000000004,3816.8,-2416.0,-18516.4,4959.8,-407.9,2025-01-29 15:11:42,0.0
999.6000000000004,1912.8,-2112.0,-19728.4,4225.8,-869.9,2025-01-29 15:11:42,0.0
411.60000000000036,912.8,-720.0,-20229.4,4279.8,-1268.9,2025-01-29 15:11:42,0.0
-220.39999999999964,384.79999999999995,-136.0,-20153.4,4683.8,-1269.9,2025-01-29 15:11:42,0.0
-372.39999999999964,768.8,704.0,-19534.4,5004.8,-1209.9,2025-01-29 15:11:42,0.0
-492.39999999999964,1016.8,764.0,-19206.4,4493.8,-1284.9,2025-01-29 15:11:42,0.0
-1044.3999999999996,1676.8,1148.0,-19046.4,3403.8,-1350.9,2025-01-29 15:11:42,0.0
-1528.3999999999996,2480.8,992.0,-18775.4,1594.8,-1121.9,2025-01-29 15:11:42,0.0
-1336.3999999999996,2916.8,564.0,-18773.4,-153.2,-746.9,2025-01-29 15:11:42,0.0
-448.39999999999964,3260.8,-344.0,-19142.4,-1452.2,-590.9,2025-01-29 15:11:42,0.0
683.6000000000004,3820.8,-820.0,-19637.4,-1768.2,-691.9,2025-01-29 15:11:42,0.0
1015.6000000000004,3868.8,-932.0,-20262.4,-1298.2,-1036.9,2025-01-29 15:11:43,0.0
1447.6000000000004,3380.8,-1036.0,-20706.4,-637.2,-1435.9,2025-01-29 15:11:43,0.0
1571.6000000000004,2628.8,-732.0,-20708.4,-71.2,-1976.9,2025-01-29 15:11:43,0.0
1407.6000000000004,1844.8,-640.0,-20561.4,380.8,-2483.9,2025-01-29 15:11:43,0.0
1403.6000000000004,1300.8,-172.0,-20352.4,882.8,-3127.9,2025-01-29 15:11:43,0.0
1107.6000000000004,1172.8,-348.0,-20289.4,1470.8,-3541.9,2025-01-29 15:11:43,0.0
443.60000000000036,1324.8,-852.0,-20153.4,1905.8,-3676.9,2025-01-29 15:11:43,0.0
15.600000000000364,1680.8,-968.0,-19917.4,1883.8,-3799.9,2025-01-29 15:11:43,0.0
-336.39999999999964,1756.8,-716.0,-19617.4,1211.8,-3749.9,2025-01-29 15:11:43,0.0
-364.39999999999964,2120.8,264.0,-19083.4,170.8,-3524.9,2025-01-29 15:11:43,0.0
3.600000000000364,2452.8,1216.0,-18166.4,-615.2,-3348.9,2025-01-29 15:11:43,0.0
-24.399999999999636,2024.8,876.0,-17360.4,-686.2,-3238.9,2025-01-29 15:11:43,0.0
143.60000000000036,1288.8,1088.0,-16532.4,-228.2,-3486.9,2025-01-29 15:11:43,0.0
83.60000000000036,720.8,1388.0,-15588.4,-343.2,-3649.9,2025-01-29 15:11:43,0.0
747.6000000000004,-15.200000000000045,1584.0,-14263.4,-1435.2,-3703.9,2025-01-29 15:11:43,0.0
1155.6000000000004,-275.20000000000005,2352.0,-13041.4,-2198.2,-3798.9,2025-01-29 15:11:43,0.0
1367.6000000000004,-91.20000000000005,1924.0,-11876.4,-2342.2,-4099.9,2025-01-29 15:11:43,0.0
791.6000000000004,904.8,1276.0,-11018.4,-2418.2,-4595.9,2025-01-29 15:11:43,0.0
-152.39999999999964,1660.8,540.0,-10728.4,-1909.2,-4821.9,2025-01-29 15:11:43,0.0
-1884.3999999999996,1652.8,444.0,-10936.4,-409.2,-4566.9,2025-01-29 15:11:43,0.0
-3052.3999999999996,416.79999999999995,1048.0,-11155.4,864.8,-3506.9,2025-01-29 15:11:43,0.0
-3452.3999999999996,-1523.2,2032.0,-10641.4,1682.8,-2328.9,2025-01-29 15:11:43,0.0
-3156.3999999999996,-2983.2,2264.0,-9500.4,1147.8,-1559.9,2025-01-29 15:11:43,0.0
-1940.3999999999996,-2515.2,1616.0,-7759.4,-1489.2,-629.9,2025-01-29 15:11:43,0.0
127.60000000000036,-1119.2,516.0,-6701.4,-4610.2,-188.9,2025-01-29 15:11:43,0.0
1995.6000000000004,540.8,392.0,-6268.4,-5731.2,-173.9,2025-01-29 15:11:43,0.0
3391.6000000000004,1464.8,484.0,-6237.4,-3965.2,-566.9,2025-01-29 15:11:43,0.0
4063.6000000000004,1148.8,-296.0,-6695.4,676.8,-1658.9,2025-01-29 15:11:43,0.0
2351.6000000000004,-127.20000000000005,-348.0,-7264.4,5049.8,-2926.9,2025-01-29 15:11:43,0.0
151.60000000000036,-803.2,928.0,-6912.4,6788.8,-3273.9,2025-01-29 15:11:43,0.0
-1696.3999999999996,-667.2,2328.0,-6120.4,6688.8,-2827.9,2025-01-29 15:11:43,0.0
-2516.3999999999996,-683.2,2864.0,-5684.4,4592.8,-2234.9,2025-01-29 15:11:43,0.0
-2592.3999999999996,-763.2,2828.0,-5482.4,1137.8,-2029.9,2025-01-29 15:11:43,0.0
-2120.3999999999996,-695.2,2140.0,-5422.4,-2286.2,-1881.9,2025-01-29 15:11:43,0.0
-1268.3999999999996,-403.20000000000005,1820.0,-5485.4,-4032.2,-1755.9,2025-01-29 15:11:43,0.0
267.60000000000036,-383.20000000000005,1452.0,-5394.4,-4097.2,-1541.9,2025-01-29 15:11:43,0.0
1391.6000000000004,-855.2,1568.0,-5339.4,-2668.2,-1525.9,2025-01-29 15:11:43,0.0
2015.6000000000004,-1899.2,1824.0,-5022.4,-239.2,-1541.9,2025-01-29 15:11:43,0.0
1239.6000000000004,-2511.2,1664.0,-4445.4,1914.8,-1358.9,2025-01-29 15:11:43,0.0
343.60000000000036,-2343.2,1116.0,-3816.4,3145.8,-997.9,2025-01-29 15:11:43,0.0
-304.39999999999964,-1711.2,1128.0,-3686.4,3438.8,-560.9,2025-01-29 15:11:43,0.0
-1072.3999999999996,-1099.2,1588.0,-3848.4,2863.8,-332.9,2025-01-29 15:11:43,0.0
-1692.3999999999996,-1015.2,2120.0,-3993.4,1811.8,-84.9,2025-01-29 15:11:43,0.0
-1936.3999999999996,-1167.2,2304.0,-3850.4,333.8,298.1,2025-01-29 15:11:43,0.0
-1744.3999999999996,-1495.2,2368.0,-3452.4,-1204.2,983.1,2025-01-29 15:11:43,0.0
-652.3999999999996,-1731.2,2100.0,-2800.4,-2331.2,1651.1,2025-01-29 15:11:43,0.0
131.60000000000036,-1723.2,1768.0,-2402.4,-2554.2,2032.1,2025-01-29 15:11:43,0.0
443.60000000000036,-1383.2,1388.0,-2118.4,-2437.2,2331.1,2025-01-29 15:11:43,0.0
451.60000000000036,-535.2,1052.0,-1638.4,-1596.2,2572.1,2025-01-29 15:11:43,0.0
211.60000000000036,452.79999999999995,368.0,-1170.4,-3.200000000000003,2467.1,2025-01-29 15:11:43,0.0
55.600000000000364,1192.8,144.0,-943.4,1830.8,1641.1,2025-01-29 15:11:43,0.0
-228.39999999999964,1260.8,328.0,-897.4,2321.8,322.1,2025-01-29 15:11:43,0.0
-1356.3999999999996,1036.8,1196.0,-1133.4,494.8,-128.9,2025-01-29 15:11:43,0.0
-1348.3999999999996,520.8,1836.0,-990.4,-1969.2,448.1,2025-01-29 15:11:43,0.0
-544.3999999999996,340.79999999999995,1660.0,-888.4,-3072.2,838.1,2025-01-29 15:11:43,0.0
359.60000000000036,464.79999999999995,1240.0,-1001.4,-3269.2,838.1,2025-01-29 15:11:43,0.0
687.6000000000004,732.8,872.0,-936.4,-2966.2,742.1,2025-01-29 15:11:43,0.0
707.6000000000004,868.8,136.0,-803.4,-2295.2,716.1,2025-01-29 15:11:43,
747.6000000000004,804.8,372.0,-579.4,-1193.2,589.1,2025-01-29 15:11:43,0.0
807.6000000000004,764.8,900.0,-383.4,144.8,382.1,2025-01-29 15:11:43,0.0
387.60000000000036,532.8,1544.0,-158.4,893.8,144.1,2025-01-29 15:11:44,0.0
-64.39999999999964,456.79999999999995,1376.0,-56.400000000000006,1011.8,81.1,2025-01-29 15:11:44,0.0
-328.39999999999964,252.79999999999995,1440.0,91.6,846.8,-0.9000000000000057,2025-01-29 15:11:44,0.0
-648.3999999999996,336.79999999999995,1288.0,234.6,407.8,-48.900000000000006,2025-01-29 15:11:44,0.0
-916.3999999999996,764.8,1328.0,412.6,-145.2,155.1,2025-01-29 15:11:44,0.0
-724.3999999999996,1360.8,1156.0,430.6,-671.2,421.1,2025-01-29 15:11:44,0.0
-24.399999999999636,1304.8,952.0,153.6,-1060.2,409.1,2025-01-29 15:11:44,0.0
303.60000000000036,920.8,924.0,-93.4,-863.2,231.1,2025-01-29 15:11:44,0.0
491.60000000000036,436.79999999999995,1172.0,-73.4,-284.2,53.099999999999994,2025-01-29 15:11:44,0.0
467.60000000000036,92.79999999999995,1416.0,30.599999999999994,331.8,-99.9,2025-01-29 15:11:44,0.0
155.60000000000036,56.799999999999955,1596.0,318.6,644.8,-88.9,2025-01-29 15:11:44,0.0
-180.39999999999964,444.79999999999995,1532.0,532.6,602.8,-30.900000000000006,2025-01-29 15:11:44,0.0
-256.39999999999964,796.8,1396.0,462.6,311.8,-22.900000000000006,2025-01-29 15:11:44,0.0
-368.39999999999964,996.8,1224.0,278.6,9.799999999999997,11.099999999999994,2025-01-29 15:11:44,0.0
-204.39999999999964,960.8,1452.0,218.6,-103.2,11.099999999999994,2025-01-29 15:11:44,0.0
-124.39999999999964,860.8,1264.0,253.6,-97.2,-38.900000000000006,2025-01-29 15:11:44,0.0
-48.399999999999636,548.8,1172.0,166.6,-95.2,-116.9,2025-01-29 15:11:44,0.0
-144.39999999999964,372.79999999999995,1368.0,318.6,-30.200000000000003,-172.9,2025-01-29 15:11:44,0.0
-240.39999999999964,412.79999999999995,1252.0,537.6,77.8,-60.900000000000006,2025-01-29 15:11:44,0.0
-124.39999999999964,632.8,1188.0,626.6,62.8,-68.9,2025-01-29 15:11:44,0.0
-308.39999999999964,864.8,1056.0,426.6,-57.2,-104.9,2025-01-29 15:11:44,0.0
-428.39999999999964,768.8,1508.0,331.6,-258.2,-145.9,2025-01-29 15:11:44,0.0
-452.39999999999964,660.8,1468.0,390.6,-387.2,-54.900000000000006,2025-01-29 15:11:44,0.0
-276.39999999999964,800.8,1328.0,378.6,-436.2,53.099999999999994,2025-01-29 15:11:44,0.0
-40.399999999999636,888.8,1132.0,293.6,-488.2,42.099999999999994,2025-01-29 15:11:44,0.0
115.60000000000036,868.8,1096.0,212.6,-337.2,13.099999999999994,2025-01-29 15:11:44,0.0
259.60000000000036,916.8,1296.0,199.6,6.799999999999997,38.099999999999994,2025-01-29 15:11:44,0.0
83.60000000000036,832.8,1256.0,206.6,359.8,66.1,2025-01-29 15:11:44,0.0
71.60000000000036,852.8,1224.0,51.599999999999994,621.8,17.099999999999994,2025-01-29 15:11:44,0.0
-148.39999999999964,644.8,1320.0,-46.400000000000006,661.8,-77.9,2025-01-29 15:11:44,0.0
-432.39999999999964,672.8,1348.0,-9.400000000000006,444.8,-24.900000000000006,2025-01-29 15:11:44,0.0
-448.39999999999964,764.8,1276.0,10.599999999999994,111.8,48.099999999999994,2025-01-29 15:11:44,0.0
-352.39999999999964,752.8,1236.0,-64.4,-97.2,59.099999999999994,2025-01-29 15:11:44,0.0
-308.39999999999964,856.8,1228.0,-118.4,-59.2,34.099999999999994,2025-01-29 15:11:44,0.0
-192.39999999999964,612.8,1144.0,-65.4,-148.2,64.1,2025-01-29 15:11:44,0.0
43.600000000000364,480.79999999999995,1356.0,39.599999999999994,33.8,36.099999999999994,2025-01-29 15:11:44,0.0
59.600000000000364,524.8,1320.0,134.6,295.8,16.099999999999994,2025-01-29 15:11:44,0.0
-140.39999999999964,500.79999999999995,1496.0,159.6,277.8,-12.900000000000006,2025-01-29 15:11:44,0.0
-484.39999999999964,760.8,1464.0,191.6,93.8,30.099999999999994,2025-01-29 15:11:44,0.0
-436.39999999999964,780.8,1528.0,147.6,-119.2,39.099999999999994,2025-01-29 15:11:44,0.0
-212.39999999999964,756.8,1460.0,97.6,-265.2,71.1,2025-01-29 15:11:44,0.0
-120.39999999999964,780.8,1604.0,108.6,-256.2,75.1,2025-01-29 15:11:44,0.0
47.600000000000364,696.8,1276.0,93.6,-134.2,32.099999999999994,2025-01-29 15:11:44,0.0
63.600000000000364,836.8,1108.0,121.6,150.8,38.099999999999994,2025-01-29 15:11:44,0.0
-84.39999999999964,768.8,1100.0,57.599999999999994,317.8,40.099999999999994,2025-01-29 15:11:44,0.0
-180.39999999999964,560.8,1296.0,22.599999999999994,239.8,55.099999999999994,2025-01-29 15:11:44,0.0
-260.39999999999964,596.8,1392.0,77.6,189.8,46.099999999999994,2025-01-29 15:11:44,0.0
-216.39999999999964,652.8,1400.0,31.599999999999994,100.8,19.099999999999994,2025-01-29 15:11:44,0.0
-164.39999999999964,768.8,1504.0,39.599999999999994,-82.2,9.099999999999994,2025-01-29 15:11:44,0.0
-144.39999999999964,708.8,1412.0,77.6,-58.2,14.099999999999994,2025-01-29 15:11:44,0.0
-0.3999999999996362,720.8,1284.0,66.6,-14.200000000000003,20.099999999999994,2025-01-29 15:11:44,0.0
-164.39999999999964,564.8,1324.0,45.599999999999994,-57.2,-3.9000000000000057,2025-01-29 15:11:44,0.0
-196.39999999999964,576.8,1404.0,156.6,-14.200000000000003,-4.900000000000006,2025-01-29 15:11:44,0.0
-300.39999999999964,552.8,1452.0,208.6,116.8,-0.9000000000000057,2025-01-29 15:11:44,0.0
-192.39999999999964,692.8,1264.0,155.6,147.8,30.099999999999994,2025-01-29 15:11:44,0.0
-252.39999999999964,816.8,1536.0,107.6,94.8,68.1,2025-01-29 15:11:44,0.0
-100.39999999999964,900.8,1456.0,113.6,3.799999999999997,93.1,2025-01-29 15:11:44,0.0
-28.399999999999636,824.8,1504.0,101.6,-39.2,113.1,2025-01-29 15:11:44,0.0
-84.39999999999964,680.8,1536.0,78.6,66.8,23.099999999999994,2025-01-29 15:11:44,0.0
-212.39999999999964,716.8,1472.0,35.599999999999994,146.8,40.099999999999994,2025-01-29 15:11:44,0.0
-288.39999999999964,788.8,1468.0,84.6,127.8,21.099999999999994,2025-01-29 15:11:44,0.0
-424.39999999999964,912.8,1504.0,107.6,16.799999999999997,68.1,2025-01-29 15:11:45,0.0
-192.39999999999964,832.8,1492.0,19.599999999999994,-258.2,54.099999999999994,2025-01-29 15:11:45,0.0
-84.39999999999964,688.8,1736.0,67.6,-273.2,30.099999999999994,2025-01-29 15:11:45,0.0
135.60000000000036,632.8,1440.0,121.6,-173.2,55.099999999999994,2025-01-29 15:11:45,0.0
31.600000000000364,792.8,1340.0,142.6,19.799999999999997,-19.900000000000006,2025-01-29 15:11:45,0.0
-64.39999999999964,720.8,1308.0,117.6,242.8,-45.900000000000006,2025-01-29 15:11:45,0.0
-420.39999999999964,756.8,1456.0,72.6,330.8,-59.900000000000006,2025-01-29 15:11:45,0.0
-292.39999999999964,624.8,1484.0,52.599999999999994,17.799999999999997,-30.900000000000006,2025-01-29 15:11:45,0.0
-336.39999999999964,724.8,1592.0,62.599999999999994,-65.2,6.099999999999994,2025-01-29 15:11:45,0.0
-88.39999999999964,728.8,1476.0,28.599999999999994,-13.200000000000003,29.099999999999994,2025-01-29 15:11:45,0.0
-0.3999999999996362,760.8,1428.0,9.599999999999994,75.8,0.09999999999999432,2025-01-29 15:11:45,0.0
-188.39999999999964,564.8,1280.0,-6.400000000000006,-86.2,7.099999999999994,2025-01-29 15:11:45,0.0
-152.39999999999964,616.8,1276.0,38.599999999999994,-82.2,-19.900000000000006,2025-01-29 15:11:45,0.0
-64.39999999999964,628.8,1484.0,89.6,29.799999999999997,10.099999999999994,2025-01-29 15:11:45,0.0
-196.39999999999964,596.8,1460.0,168.6,55.8,11.099999999999994,2025-01-29 15:11:45,0.0
-160.39999999999964,660.8,1468.0,135.6,33.8,11.099999999999994,2025-01-29 15:11:45,0.0
-120.39999999999964,820.8,1504.0,108.6,25.799999999999997,44.099999999999994,2025-01-29 15:11:45,0.0
-152.39999999999964,756.8,1560.0,118.6,27.799999999999997,60.099999999999994,2025-01-29 15:11:45,0.0
-112.39999999999964,788.8,1364.0,167.6,97.8,83.1,2025-01-29 15:11:45,0.0
-24.399999999999636,836.8,1364.0,140.6,184.8,97.1,2025-01-29 15:11:45,0.0
-4.399999999999636,992.8,1328.0,125.6,425.8,62.099999999999994,2025-01-29 15:11:45,0.0
-172.39999999999964,804.8,1176.0,105.6,413.8,127.1,2025-01-29 15:11:45,0.0
-140.39999999999964,788.8,1352.0,209.6,392.8,93.1,2025-01-29 15:11:45,0.0
-272.39999999999964,640.8,1476.0,418.6,562.8,121.1,2025-01-29 15:11:45,0.0
-88.39999999999964,392.79999999999995,1580.0,533.6,806.8,161.1,2025-01-29 15:11:45,0.0
-612.3999999999996,296.79999999999995,1352.0,711.6,1009.8,240.1,2025-01-29 15:11:45,0.0
-652.3999999999996,744.8,1424.0,854.6,1026.8,433.1,2025-01-29 15:11:45,0.0
-544.3999999999996,1072.8,1368.0,821.6,955.8,522.1,2025-01-29 15:11:45,0.0
-504.39999999999964,1296.8,1252.0,773.6,472.8,562.1,2025-01-29 15:11:45,0.0
-344.39999999999964,1312.8,1508.0,581.6,-77.2,567.1,2025-01-29 15:11:45,0.0
-104.39999999999964,1124.8,2000.0,536.6,-265.2,508.1,2025-01-29 15:11:45,0.0
247.60000000000036,972.8,2380.0,749.6,-468.2,372.1,2025-01-29 15:11:45,0.0
707.6000000000004,1176.8,2056.0,860.6,-621.2,113.1,2025-01-29 15:11:45,0.0
531.6000000000004,1260.8,1300.0,852.6,-314.2,-163.9,2025-01-29 15:11:45,0.0
71.60000000000036,1476.8,1248.0,792.6,381.8,-253.9,2025-01-29 15:11:45,0.0
-160.39999999999964,1624.8,1864.0,802.6,802.8,-130.9,2025-01-29 15:11:45,0.0
-388.39999999999964,1708.8,1724.0,774.6,816.8,-23.900000000000006,2025-01-29 15:11:45,
-312.39999999999964,1684.8,1844.0,597.6,288.8,-79.9,2025-01-29 15:11:45,0.0
-320.39999999999964,1548.8,1548.0,287.6,-526.2,-299.9,2025-01-29 15:11:45,0.0
-588.3999999999996,1416.8,1628.0,68.6,-1080.2,-379.9,2025-01-29 15:11:45,0.0
-204.39999999999964,1280.8,1700.0,184.6,-909.2,-369.9,2025-01-29 15:11:45,0.0
-60.399999999999636,1456.8,1292.0,30.599999999999994,-663.2,-440.9,2025-01-29 15:11:45,0.0
123.60000000000036,1752.8,1140.0,-236.4,-482.2,-553.9,2025-01-29 15:11:45,0.0
87.60000000000036,1764.8,1408.0,-376.4,-401.2,-584.9,2025-01-29 15:11:45,0.0
-380.39999999999964,1772.8,1424.0,-489.4,-566.2,-638.9,2025-01-29 15:11:45,0.0
-412.39999999999964,1460.8,1232.0,-876.4,-956.2,-655.9,2025-01-29 15:11:45,0.0
-456.39999999999964,1444.8,1360.0,-1202.4,-1250.2,-793.9,2025-01-29 15:11:45,0.0
-308.39999999999964,1284.8,1556.0,-1326.4,-1433.2,-844.9,2025-01-29 15:11:45,0.0
31.600000000000364,1340.8,1372.0,-1339.4,-1502.2,-840.9,2025-01-29 15:11:45,0.0
295.60000000000036,1360.8,1320.0,-1365.4,-1359.2,-781.9,2025-01-29 15:11:45,0.0
639.6000000000004,1124.8,904.0,-1532.4,-998.2,-862.9,2025-01-29 15:11:45,0.0
755.6000000000004,748.8,400.0,-1606.4,-246.2,-1045.9,2025-01-29 15:11:45,0.0
815.6000000000004,36.799999999999955,608.0,-1472.4,500.8,-1142.9,2025-01-29 15:11:45,0.0
827.6000000000004,-611.2,1488.0,-1260.4,1370.8,-1212.9,2025-01-29 15:11:45,0.0
551.6000000000004,-1147.2,2708.0,-810.4,2347.8,-1266.9,2025-01-29 15:11:45,0.0
-96.39999999999964,-1383.2,3500.0,-95.4,3065.8,-1249.9,2025-01-29 15:11:45,0.0
-612.3999999999996,-1767.2,3668.0,455.6,3113.8,-1189.9,2025-01-29 15:11:46,0.0
-1024.3999999999996,-1923.2,3804.0,691.6,2404.8,-1387.9,2025-01-29 15:11:46,0.0
-1564.3999999999996,-1411.2,4000.0,788.6,1256.8,-1447.9,2025-01-29 15:11:46,0.0
-1544.3999999999996,-451.20000000000005,4288.0,980.6,172.8,-1261.9,2025-01-29 15:11:46,0.0
-1184.3999999999996,492.79999999999995,3884.0,901.6,-657.2,-1089.9,2025-01-29 15:11:46,0.0
-472.39999999999964,844.8,3248.0,384.6,-1421.2,-1177.9,2025-01-29 15:11:46,0.0
351.60000000000036,504.79999999999995,2648.0,-316.4,-1652.2,-1448.9,2025-01-29 15:11:46,0.0
703.6000000000004,4.7999999999999545,2428.0,-816.4,-1297.2,-1617.9,2025-01-29 15:11:46,0.0
847.6000000000004,-267.20000000000005,2368.0,-1047.4,-361.2,-1610.9,2025-01-29 15:11:46,0.0
807.6000000000004,-443.20000000000005,2408.0,-1091.4,641.8,-1469.9,2025-01-29 15:11:46,0.0
763.6000000000004,-387.20000000000005,2636.0,-1112.4,1302.8,-1286.9,2025-01-29 15:11:46,0.0
583.6000000000004,-311.20000000000005,2796.0,-1178.4,1638.8,-1104.9,2025-01-29 15:11:46,0.0
239.60000000000036,-339.20000000000005,3088.0,-1225.4,1631.8,-858.9,2025-01-29 15:11:46,0.0
-28.399999999999636,-423.20000000000005,3184.0,-1348.4,1285.8,-556.9,2025-01-29 15:11:46,0.0
-172.39999999999964,-587.2,3816.0,-1378.4,690.8,-207.9,2025-01-29 15:11:46,0.0
-396.39999999999964,-523.2,4048.0,-1282.4,44.8,265.1,2025-01-29 15:11:46,0.0
-160.39999999999964,-543.2,3844.0,-1270.4,-533.2,590.1,2025-01-29 15:11:46,0.0
11.600000000000364,-551.2,4032.0,-1116.4,-892.2,831.1,2025-01-29 15:11:46,0.0
179.60000000000036,-679.2,4144.0,-820.4,-957.2,1089.1,2025-01-29 15:11:46,0.0
527.6000000000004,-759.2,4208.0,-408.4,-592.2,1274.1,2025-01-29 15:11:46,0.0
827.6000000000004,-907.2,3960.0,-228.4,-147.2,1141.1,2025-01-29 15:11:46,0.0
799.6000000000004,-1007.2,3752.0,-211.4,171.8,960.1,2025-01-29 15:11:46,0.0
779.6000000000004,-743.2,3640.0,-281.4,357.8,630.1,2025-01-29 15:11:46,0.0
479.60000000000036,-535.2,3648.0,-408.4,373.8,373.1,2025-01-29 15:11:46,0.0
147.60000000000036,-375.20000000000005,3052.0,-704.4,248.8,118.1,2025-01-29 15:11:46,0.0
-128.39999999999964,56.799999999999955,2372.0,-1150.4,302.8,78.1,2025-01-29 15:11:46,0.0
59.600000000000364,632.8,1888.0,-1764.4,757.8,-69.9,2025-01-29 15:11:46,0.0
151.60000000000036,812.8,2036.0,-2761.4,1466.8,-427.9,2025-01-29 15:11:46,0.0
-268.39999999999964,384.79999999999995,3048.0,-3649.4,2116.8,-834.9,2025-01-29 15:11:46,0.0
-1076.3999999999996,-571.2,4384.0,-4105.4,2121.8,-1264.9,2025-01-29 15:11:46,0.0
-2056.3999999999996,-1911.2,4500.0,-4298.4,1221.8,-1548.9,2025-01-29 15:11:46,0.0
-2572.3999999999996,-2955.2,4060.0,-4464.4,-338.2,-1405.9,2025-01-29 15:11:46,0.0
-2544.3999999999996,-3127.2,3668.0,-3841.4,-993.2,-812.9,2025-01-29 15:11:46,0.0
-1488.3999999999996,-2523.2,2508.0,-3279.4,-348.2,-571.9,2025-01-29 15:11:46,0.0
-1316.3999999999996,-2499.2,2432.0,-3182.4,1553.8,-1016.9,2025-01-29 15:11:46,0.0
-2100.3999999999996,-2435.2,3444.0,-2715.4,3203.8,-1025.9,2025-01-29 15:11:46,0.0
-2412.3999999999996,-3019.2,4272.0,-1709.4,3030.8,-1120.9,2025-01-29 15:11:46,0.0
-2992.3999999999996,-3695.2,4484.0,-949.4,1256.8,-1086.9,2025-01-29 15:11:46,0.0
-3328.3999999999996,-3719.2,4796.0,-354.4,-740.2,-815.9,2025-01-29 15:11:46,0.0
-3640.3999999999996,-2795.2,4872.0,746.6,-2822.2,-212.9,2025-01-29 15:11:46,0.0
-4556.4,-679.2,4088.0,1940.6,-4409.2,1215.1,2025-01-29 15:11:46,0.0
-3520.3999999999996,4.7999999999999545,2124.0,2330.6,-5572.2,2820.1,2025-01-29 15:11:46,0.0
-1640.3999999999996,-103.20000000000005,1692.0,2763.6,-5573.2,3881.1,2025-01-29 15:11:46,0.0
423.60000000000036,-687.2,476.0,2978.6,-4366.2,4202.1,2025-01-29 15:11:46,0.0
1963.6000000000004,-667.2,180.0,2638.6,-2865.2,3856.1,2025-01-29 15:11:46,0.0
2395.6000000000004,-151.20000000000005,360.0,2626.6,-1747.2,3263.1,2025-01-29 15:11:46,0.0
2103.6000000000004,136.79999999999995,-552.0,2946.6,-1383.2,2855.1,2025-01-29 15:11:46,0.0
1807.6000000000004,1192.8,-2136.0,2720.6,-784.2,2448.1,2025-01-29 15:11:46,0.0
1899.6000000000004,2412.8,-2624.0,2092.6,-5.200000000000003,2021.1,2025-01-29 15:11:46,0.0
1519.6000000000004,3380.8,-2980.0,1276.6,804.8,1608.1,2025-01-29 15:11:46,0.0
499.60000000000036,3976.8,-2904.0,611.6,1454.8,1448.1,2025-01-29 15:11:46,0.0
-420.39999999999964,3256.8,-1788.0,-45.400000000000006,2195.8,1522.1,2025-01-29 15:11:46,0.0
-832.3999999999996,2184.8,300.0,-257.4,2667.8,1505.1,2025-01-29 15:11:46,0.0
-1504.3999999999996,1472.8,748.0,66.6,2836.8,1656.1,2025-01-29 15:11:46,0.0
-1808.3999999999996,932.8,1052.0,303.6,2282.8,1948.1,2025-01-29 15:11:46,0.0
-1852.3999999999996,920.8,976.0,715.6,997.8,2281.1,2025-01-29 15:11:46,0.0
-1588.3999999999996,1368.8,1004.0,1021.6,-435.2,2599.1,2025-01-29 15:11:46,0.0
-680.3999999999996,1800.8,1460.0,1301.6,-1969.2,2759.1,2025-01-29 15:11:46,0.0
611.6000000000004,2016.8,1504.0,1706.6,-3116.2,2628.1,2025-01-29 15:11:46,0.0
1563.6000000000004,2072.8,824.0,1915.6,-3897.2,2505.1,2025-01-29 15:11:46,0.0
2095.6000000000004,1980.8,548.0,1959.6,-3886.2,2505.1,2025-01-29 15:11:46,0.0
3051.6000000000004,2148.8,748.0,2117.6,-2847.2,2465.1,2025-01-29 15:11:46,0.0
3579.6000000000004,2044.8,904.0,2389.6,-684.2,2218.1,2025-01-29 15:11:46,0.0
3639.6000000000004,2080.8,1028.0,2414.6,1597.8,1772.1,2025-01-29 15:11:46,0.0
2739.6000000000004,2276.8,1576.0,2312.6,2901.8,1124.1,2025-01-29 15:11:46,0.0
1467.6000000000004,2496.8,2156.0,2318.6,2977.8,738.1,2025-01-29 15:11:46,0.0
319.60000000000036,2556.8,2824.0,2409.6,2362.8,551.1,2025-01-29 15:11:47,0.0
-668.3999999999996,2488.8,3500.0,2489.6,1103.8,496.1,2025-01-29 15:11:47,0.0
-604.3999999999996,2376.8,4376.0,2507.6,-1195.2,171.1,2025-01-29 15:11:47,0.0
-320.39999999999964,2052.8,4652.0,2159.6,-3574.2,-378.9,2025-01-29 15:11:47,0.0
323.60000000000036,1688.8,4676.0,1798.6,-5429.2,-993.9,2025-01-29 15:11:47,0.0
1187.6000000000004,1428.8,4020.0,1997.6,-6188.2,-1573.9,2025-01-29 15:11:47,0.0
2171.6000000000004,1592.8,3156.0,2297.6,-6132.2,-1975.9,2025-01-29 15:11:47,0.0
3667.6000000000004,1800.8,2496.0,2470.6,-5002.2,-2231.9,2025-01-29 15:11:47,0.0
3991.6000000000004,2504.8,1752.0,2792.6,-957.2,-2190.9,2025-01-29 15:11:47,0.0
3331.6000000000004,2512.8,680.0,3192.6,4279.8,-1562.9,2025-01-29 15:11:47,0.0
1831.6000000000004,2272.8,1412.0,3676.6,8605.8,-1538.9,2025-01-29 15:11:47,0.0
-552.3999999999996,1976.8,2584.0,3590.6,11526.8,-1675.9,2025-01-29 15:11:47,0.0
-3388.3999999999996,2428.8,3908.0,3653.6,12189.8,-1142.9,2025-01-29 15:11:47,0.0
-4952.4,3536.8,3948.0,3964.6,9781.8,0.09999999999999432,2025-01-29 15:11:47,0.0
-5328.4,3972.8,3220.0,4022.6,4457.8,1109.1,2025-01-29 15:11:47,
-4168.4,3084.8,2900.0,3359.6,-1399.2,1596.1,2025-01-29 15:11:47,0.0
-2664.3999999999996,1256.8,4912.0,2664.6,-4382.2,1334.1,2025-01-29 15:11:47,0.0
-2024.3999999999996,952.8,5168.0,3243.6,-2701.2,1548.1,2025-01-29 15:11:47,0.0
-1240.3999999999996,1840.8,3264.0,4293.6,328.8,1757.1,2025-01-29 15:11:47,0.0
-2380.3999999999996,3860.8,636.0,4410.6,3145.8,2025.1,2025-01-29 15:11:47,0.0
-3320.3999999999996,5440.8,-504.0,3559.6,4919.8,2270.1,2025-01-29 15:11:47,0.0
-3956.3999999999996,6228.8,-1748.0,1762.6,5305.8,2452.1,2025-01-29 15:11:47,0.0
-4556.4,6136.8,-3160.0,-930.4,4225.8,2550.1,2025-01-29 15:11:47,0.0
-4428.4,5828.8,-2460.0,-3241.4,1503.8,2767.1,2025-01-29 15:11:47,0.0
-1084.3999999999996,4268.8,-368.0,-4208.4,-3361.2,1788.1,2025-01-29 15:11:47,0.0
1755.6000000000004,1440.8,20.0,-4530.4,-8408.2,-357.9,2025-01-29 15:11:47,0.0
3319.6000000000004,-191.20000000000005,108.0,-4675.4,-11675.2,-1937.9,2025-01-29 15:11:47,0.0
3651.6000000000004,-895.2,-904.0,-4119.4,-12356.2,-2825.9,2025-01-29 15:11:47,0.0
2755.6000000000004,-1767.2,-2048.0,-3205.4,-9838.2,-2620.9,2025-01-29 15:11:47,0.0
1723.6000000000004,-2335.2,-2796.0,-1525.4,-3083.2,-1655.9,2025-01-29 15:11:47,0.0
1703.6000000000004,-1751.2,-2036.0,67.6,4303.8,-768.9,2025-01-29 15:11:47,0.0
1455.6000000000004,-215.20000000000005,-992.0,938.6,9684.8,-584.9,2025-01-29 15:11:47,0.0
635.6000000000004,2212.8,352.0,948.6,12240.8,-964.9,2025-01-29 15:11:47,0.0
-452.39999999999964,3716.8,516.0,88.6,11704.8,-1463.9,2025-01-29 15:11:47,0.0
-1232.3999999999996,3984.8,-340.0,-1390.4,8420.8,-2393.9,2025-01-29 15:11:47,0.0
-1956.3999999999996,2936.8,-1036.0,-3411.4,2138.8,-3545.9,2025-01-29 15:11:47,0.0
-2220.3999999999996,1904.8,-648.0,-4517.4,-3297.2,-3844.9,2025-01-29 15:11:47,0.0
-792.3999999999996,1072.8,-844.0,-4852.4,-7029.2,-3429.9,2025-01-29 15:11:47,0.0
439.60000000000036,212.79999999999995,-336.0,-5742.4,-9501.2,-2598.9,2025-01-29 15:11:47,0.0
1795.6000000000004,-319.20000000000005,604.0,-6058.4,-9142.2,-2408.9,2025-01-29 15:11:47,0.0
2639.6000000000004,-231.20000000000005,320.0,-5777.4,-6113.2,-2282.9,2025-01-29 15:11:47,0.0
2879.6000000000004,28.799999999999955,-448.0,-5502.4,-2116.2,-2079.9,2025-01-29 15:11:47,0.0
3199.6000000000004,140.79999999999995,-1144.0,-5847.4,794.8,-2126.9,2025-01-29 15:11:47,0.0
1927.6000000000004,236.79999999999995,-376.0,-6495.4,1962.8,-2170.9,2025-01-29 15:11:47,0.0
927.6000000000004,636.8,80.0,-6905.4,2444.8,-1973.9,2025-01-29 15:11:47,0.0
-304.39999999999964,856.8,404.0,-7134.4,1942.8,-1577.9,2025-01-29 15:11:47,0.0
-1132.3999999999996,872.8,364.0,-7725.4,-67.2,-931.9,2025-01-29 15:11:47,0.0
-1040.3999999999996,852.8,1088.0,-8191.4,-2642.2,-600.9,2025-01-29 15:11:47,0.0
-716.3999999999996,1020.8,1584.0,-8223.4,-4125.2,-12.900000000000006,2025-01-29 15:11:47,0.0
291.60000000000036,1044.8,1076.0,-8641.4,-4212.2,345.1,2025-01-29 15:11:47,0.0
943.6000000000004,1224.8,744.0,-9307.4,-3348.2,380.1,2025-01-29 15:11:47,0.0
731.6000000000004,1292.8,924.0,-9874.4,-2119.2,393.1,2025-01-29 15:11:47,0.0
155.60000000000036,1564.8,1532.0,-10497.4,-1247.2,727.1,2025-01-29 15:11:47,0.0
-284.39999999999964,1572.8,1212.0,-10970.4,-2087.2,1081.1,2025-01-29 15:11:47,0.0
-168.39999999999964,1240.8,844.0,-11491.4,-3302.2,1249.1,2025-01-29 15:11:47,0.0
639.6000000000004,728.8,620.0,-11989.4,-3521.2,1202.1,2025-01-29 15:11:47,0.0
935.6000000000004,216.79999999999995,1204.0,-12632.4,-2507.2,1155.1,2025-01-29 15:11:47,0.0
663.6000000000004,184.79999999999995,1904.0,-12794.4,-1119.2,1407.1,2025-01-29 15:11:47,0.0
275.60000000000036,92.79999999999995,1868.0,-12791.4,-26.200000000000003,1881.1,2025-01-29 15:11:47,0.0
-128.39999999999964,-415.20000000000005,1208.0,-13000.4,621.8,2098.1,2025-01-29 15:11:47,0.0
-700.3999999999996,-759.2,1172.0,-13374.4,1035.8,1874.1,2025-01-29 15:11:48,0.0
-920.3999999999996,-651.2,2292.0,-13611.4,1414.8,1384.1,2025-01-29 15:11:48,0.0
-1132.3999999999996,-431.20000000000005,3320.0,-13845.4,1596.8,746.1,2025-01-29 15:11:48,0.0
-1376.3999999999996,-1047.2,3996.0,-14159.4,1227.8,175.1,2025-01-29 15:11:48,0.0
-1836.3999999999996,-1527.2,3948.0,-14328.4,309.8,-96.9,2025-01-29 15:11:48,0.0
-2504.3999999999996,-1691.2,4240.0,-14187.4,-1083.2,553.1,2025-01-29 15:11:48,0.0
-1708.3999999999996,-479.20000000000005,3604.0,-13622.4,-1342.2,1588.1,2025-01-29 15:11:48,0.0
-708.3999999999996,-135.20000000000005,1884.0,-13709.4,-402.2,1654.1,2025-01-29 15:11:48,0.0
-40.399999999999636,-431.20000000000005,1556.0,-14124.4,351.8,788.1,2025-01-29 15:11:48,0.0
-588.3999999999996,-759.2,1360.0,-14268.4,600.8,-240.9,2025-01-29 15:11:48,0.0
-628.3999999999996,-727.2,1268.0,-13846.4,303.8,-1222.9,2025-01-29 15:11:48,0.0
-820.3999999999996,128.79999999999995,844.0,-12918.4,-66.2,-1868.9,2025-01-29 15:11:48,0.0
299.60000000000036,728.8,-168.0,-12171.4,-285.2,-1882.9,2025-01-29 15:11:48,0.0
2399.6000000000004,504.79999999999995,-1172.0,-12243.4,-156.2,-1886.9,2025-01-29 15:11:48,0.0
4711.6,264.79999999999995,-1500.0,-12961.4,1337.8,-2499.9,2025-01-29 15:11:48,0.0
4823.6,992.8,-1636.0,-13457.4,5014.8,-3599.9,2025-01-29 15:11:48,0.0
2159.6000000000004,1020.8,-2896.0,-13679.4,9938.8,-4298.9,2025-01-29 15:11:48,0.0
-108.39999999999964,1668.8,-3156.0,-13646.4,12935.8,-4054.9,2025-01-29 15:11:48,0.0
-1348.3999999999996,2408.8,-3652.0,-14016.4,13080.8,-3523.9,2025-01-29 15:11:48,0.0
-1308.3999999999996,2680.8,-3556.0,-15115.4,11228.8,-3479.9,2025-01-29 15:11:48,0.0
-1356.3999999999996,3184.8,-3508.0,-15952.4,7877.8,-3763.9,2025-01-29 15:11:48,0.0
-2004.3999999999996,3392.8,-3260.0,-16479.4,3356.8,-3371.9,2025-01-29 15:11:48,0.0
-1660.3999999999996,2768.8,-3296.0,-16441.4,292.8,-2305.9,2025-01-29 15:11:48,0.0
-408.39999999999964,1412.8,-3448.0,-16443.4,-853.2,-1462.9,2025-01-29 15:11:48,0.0
855.6000000000004,116.79999999999995,-2520.0,-16137.4,-27.200000000000003,-918.9,2025-01-29 15:11:48,0.0
1435.6000000000004,-443.20000000000005,-2212.0,-15119.4,1742.8,-703.9,2025-01-29 15:11:48,0.0
1135.6000000000004,-815.2,-1736.0,-14156.4,3837.8,-706.9,2025-01-29 15:11:48,0.0
1011.6000000000004,-1027.2,-1084.0,-13435.4,5189.8,-1039.9,2025-01-29 15:11:48,0.0
335.60000000000036,-455.20000000000005,-552.0,-12802.4,5215.8,-1357.9,2025-01-29 15:11:48,0.0
-72.39999999999964,96.79999999999995,-8.0,-12139.4,4333.8,-1553.9,2025-01-29 15:11:48,0.0
-164.39999999999964,472.79999999999995,-116.0,-11358.4,2586.8,-1712.9,2025-01-29 15:11:48,0.0
99.60000000000036,644.8,-1032.0,-10824.4,723.8,-1865.9,2025-01-29 15:11:48,0.0
819.6000000000004,440.79999999999995,-2512.0,-11122.4,-905.2,-2319.9,2025-01-29 15:11:48,0.0
1703.6000000000004,508.79999999999995,-2692.0,-11794.4,-1584.2,-2861.9,2025-01-29 15:11:48,0.0
1611.6000000000004,968.8,-1820.0,-12114.4,-962.2,-3137.9,2025-01-29 15:11:48,0.0
1999.6000000000004,1496.8,-2280.0,-12414.4,655.8,-3368.9,2025-01-29 15:11:48,0.0
1407.6000000000004,1896.8,-2828.0,-13447.4,1615.8,-3534.9,2025-01-29 15:11:48,0.0
1295.6000000000004,1040.8,-2852.0,-14464.4,1630.8,-3447.9,2025-01-29 15:11:48,0.0
1203.6000000000004,336.79999999999995,-2264.0,-15008.4,1550.8,-3431.9,2025-01-29 15:11:48,0.0
519.6000000000004,-331.20000000000005,-2316.0,-15092.4,1751.8,-3059.9,2025-01-29 15:11:48,0.0
351.60000000000036,-803.2,-2312.0,-14822.4,1743.8,-2491.9,2025-01-29 15:11:48,0.0
243.60000000000036,-687.2,-1860.0,-14568.4,890.8,-1629.9,2025-01-29 15:11:48,0.0
1003.6000000000004,-595.2,-2004.0,-14194.4,-1016.2,-502.9,2025-01-29 15:11:48,0.0
2567.6000000000004,-775.2,-2820.0,-14468.4,-3400.2,314.1,2025-01-29 15:11:48,0.0
4631.6,-1131.2,-1916.0,-15221.4,-4827.2,-332.9,2025-01-29 15:11:48,0.0
3331.6000000000004,-1227.2,-1776.0,-15471.4,-2852.2,-2078.9,2025-01-29 15:11:48,0.0
2583.6000000000004,-1051.2,-3180.0,-15747.4,1399.8,-3495.9,2025-01-29 15:11:48,0.0
1255.6000000000004,-359.20000000000005,-1696.0,-15715.4,3364.8,-3933.9,2025-01-29 15:11:48,0.0
-400.39999999999964,128.79999999999995,-984.0,-15199.4,2417.8,-3178.9,2025-01-29 15:11:48,0.0
-4.399999999999636,-207.20000000000005,-148.0,-14357.4,531.8,-2216.9,2025-01-29 15:11:48,0.0
267.60000000000036,-727.2,-916.0,-13897.4,-555.2,-2106.9,2025-01-29 15:11:48,0.0
-108.39999999999964,-983.2,-2668.0,-14016.4,-1062.2,-2093.9,2025-01-29 15:11:48,0.0
-48.399999999999636,-1607.2,-2908.0,-14134.4,-1632.2,-2107.9,2025-01-29 15:11:48,0.0
-128.39999999999964,-1607.2,-2404.0,-13813.4,-2370.2,-2023.9,2025-01-29 15:11:48,0.0
443.60000000000036,-635.2,-1516.0,-13575.4,-2838.2,-2013.9,2025-01-29 15:11:48,
363.60000000000036,372.79999999999995,-572.0,-13052.4,-3336.2,-1996.9,2025-01-29 15:11:48,0.0
195.60000000000036,520.8,-308.0,-12450.4,-3812.2,-2060.9,2025-01-29 15:11:48,0.0
-380.39999999999964,144.79999999999995,-428.0,-11917.4,-4117.2,-2094.9,2025-01-29 15:11:48,0.0
-492.39999999999964,-371.20000000000005,-796.0,-11540.4,-4902.2,-2406.9,2025-01-29 15:11:48,0.0
-1552.3999999999996,108.79999999999995,-516.0,-11123.4,-6163.2,-2087.9,2025-01-29 15:11:48,0.0
3879.6000000000004,4.7999999999999545,-172.0,-10668.4,-7193.2,-1823.9,2025-01-29 15:11:48,0.0
1143.6000000000004,-327.20000000000005,1676.0,-10867.4,-8699.2,-1665.9,2025-01-29 15:11:49,0.0
1043.6000000000004,-439.20000000000005,3340.0,-11211.4,-8678.2,-2043.9,2025-01-29 15:11:49,0.0
1391.6000000000004,-771.2,4820.0,-11408.4,-9745.2,-2084.9,2025-01-29 15:11:49,0.0
1967.6000000000004,-987.2,5604.0,-11213.4,-12243.2,-2280.9,2025-01-29 15:11:49,0.0
2319.6000000000004,-675.2,4532.0,-11013.4,-14715.2,-1967.9,2025-01-29 15:11:49,0.0
1279.6000000000004,-695.2,2812.0,-11194.4,-14704.2,-1478.9,2025-01-29 15:11:49,0.0
811.6000000000004,-891.2,3656.0,-11279.4,-13617.2,-771.9,2025-01-29 15:11:49,0.0
-784.3999999999996,-1035.2,4488.0,-11019.4,-11941.2,533.1,2025-01-29 15:11:49,0.0
-1440.3999999999996,-271.20000000000005,3808.0,-11046.4,-9435.2,1298.1,2025-01-29 15:11:49,0.0
-1780.3999999999996,-907.2,5752.0,-10483.4,-7623.2,1873.1,2025-01-29 15:11:49,0.0
-800.3999999999996,-2911.2,6632.0,-9423.4,-7602.2,1857.1,2025-01-29 15:11:49,0.0
-600.3999999999996,-2683.2,5932.0,-9852.4,-10523.2,820.1,2025-01-29 15:11:49,0.0
-1852.3999999999996,0.7999999999999545,7168.0,-11298.4,-14655.2,751.1,2025-01-29 15:11:49,0.0
199.60000000000036,3076.8,6196.0,-11565.4,-15482.2,2724.1,2025-01-29 15:11:49,0.0
1231.6000000000004,1940.8,3404.0,-11575.4,-12189.2,3651.1,2025-01-29 15:11:49,0.0
319.60000000000036,292.79999999999995,3028.0,-12080.4,-8433.2,4289.1,2025-01-29 15:11:49,0.0
-1160.3999999999996,-1215.2,5168.0,-12188.4,-5652.2,4305.1,2025-01-29 15:11:49,0.0
-736.3999999999996,-2575.2,7600.0,-11698.4,-5143.2,4170.1,2025-01-29 15:11:49,0.0
-1600.3999999999996,-1927.2,6648.0,-11211.4,-5574.2,4333.1,2025-01-29 15:11:49,0.0
-1008.3999999999996,-2267.2,7356.0,-10651.4,-7022.2,4073.1,2025-01-29 15:11:49,0.0
-812.3999999999996,-883.2,8896.0,-10060.4,-8778.2,4282.1,2025-01-29 15:11:49,0.0
743.6000000000004,1252.8,8056.0,-9277.4,-9746.2,4638.1,2025-01-29 15:11:49,0.0
1999.6000000000004,1704.8,7464.0,-8960.4,-8562.2,4960.1,2025-01-29 15:11:49,0.0
2495.6000000000004,1076.8,8668.0,-8317.4,-7555.2,4866.1,2025-01-29 15:11:49,0.0
3127.6000000000004,1108.8,10056.0,-7937.4,-7491.2,4206.1,2025-01-29 15:11:49,0.0
3059.6000000000004,656.8,10600.0,-7758.4,-7536.2,3616.1,2025-01-29 15:11:49,0.0
4111.6,92.79999999999995,11188.0,-6882.4,-6965.2,3220.1,2025-01-29 15:11:49,0.0
3931.6000000000004,112.79999999999995,11632.0,-6131.4,-7380.2,3243.1,2025-01-29 15:11:49,0.0
3751.6000000000004,812.8,13400.0,-5510.4,-8154.2,2889.1,2025-01-29 15:11:49,0.0
4603.6,1580.8,15220.0,-5197.4,-10175.2,2235.1,2025-01-29 15:11:49,0.0
4971.6,1940.8,17440.0,-4097.4,-12615.2,1778.1,2025-01-29 15:11:49,0.0
4419.6,2776.8,18072.0,-1843.4,-14748.2,1752.1,2025-01-29 15:11:49,0.0
3555.6000000000004,3268.8,16796.0,-496.4,-15015.2,2150.1,2025-01-29 15:11:49,0.0
2431.6000000000004,4240.8,16720.0,361.6,-13724.2,3178.1,2025-01-29 15:11:49,0.0
2959.6000000000004,2568.8,17328.0,1458.6,-11599.2,3079.1,2025-01-29 15:11:49,0.0
2215.6000000000004,1832.8,16224.0,1704.6,-9520.2,2615.1,2025-01-29 15:11:49,0.0
1271.6000000000004,2160.8,16148.0,1870.6,-8953.2,2527.1,2025-01-29 15:11:49,0.0
2323.6000000000004,2092.8,15732.0,1821.6,-9850.2,2426.1,2025-01-29 15:11:49,0.0
3551.6000000000004,1952.8,15152.0,1203.6,-11125.2,1949.1,2025-01-29 15:11:49,0.0
4539.6,1592.8,15324.0,791.6,-12100.2,1472.1,2025-01-29 15:11:49,0.0
4479.6,2016.8,16040.0,236.6,-12465.2,1074.1,2025-01-29 15:11:49,0.0
4747.6,2828.8,16796.0,80.6,-12233.2,984.1,2025-01-29 15:11:49,0.0
5627.6,3652.8,16880.0,245.6,-11325.2,1464.1,2025-01-29 15:11:49,0.0
5883.6,4324.8,17064.0,402.6,-10143.2,2053.1,2025-01-29 15:11:49,0.0
7135.6,3912.8,16516.0,-149.4,-8695.2,2063.1,2025-01-29 15:11:49,0.0
7519.6,2972.8,17288.0,-747.4,-6867.2,1471.1,2025-01-29 15:11:49,0.0
7499.6,2184.8,18336.0,-513.4,-5059.2,810.1,2025-01-29 15:11:49,0.0
6443.6,1660.8,18776.0,295.6,-3847.2,842.1,2025-01-29 15:11:49,0.0
6483.6,2032.8,17332.0,744.6,-3278.2,1190.1,2025-01-29 15:11:49,0.0
7039.6,2660.8,15972.0,-244.4,-3553.2,1576.1,2025-01-29 15:11:49,0.0
7539.6,2412.8,16060.0,-854.4,-3476.2,1929.1,2025-01-29 15:11:49,0.0
7759.6,1144.8,16604.0,-1073.4,-3222.2,2059.1,2025-01-29 15:11:49,0.0
7703.6,112.79999999999995,16868.0,-1144.4,-2957.2,1879.1,2025-01-29 15:11:49,0.0
7727.6,352.79999999999995,17464.0,-1109.4,-3359.2,1682.1,2025-01-29 15:11:49,0.0
7499.6,1188.8,17752.0,-1543.4,-3953.2,1624.1,2025-01-29 15:11:49,0.0
7179.6,1992.8,18772.0,-1887.4,-3984.2,1649.1,2025-01-29 15:11:49,0.0
6743.6,2124.8,19100.0,-1960.4,-3687.2,1706.1,2025-01-29 15:11:49,0.0
7127.6,2252.8,17772.0,-2105.4,-3655.2,1663.1,2025-01-29 15:11:49,0.0
7279.6,2496.8,17908.0,-1963.4,-3782.2,1785.1,2025-01-29 15:11:49,0.0
8083.6,1848.8,17164.0,-2052.4,-3185.2,1609.1,2025-01-29 15:11:49,0.0
8307.6,1604.8,17904.0,-1482.4,-2005.2,1563.1,2025-01-29 15:11:50,0.0
8471.6,1532.8,17824.0,-969.4,-634.2,1435.1,2025-01-29 15:11:50,0.0
8279.6,2476.8,18148.0,-6.400000000000006,907.8,1525.1,2025-01-29 15:11:50,0.0
8499.6,1888.8,17488.0,72.6,2731.8,939.1,2025-01-29 15:11:50,0.0
7827.6,2080.8,17480.0,151.6,3452.8,657.1,2025-01-29 15:11:50,0.0
6991.6,2444.8,17200.0,81.6,3157.8,1026.1,2025-01-29 15:11:50,0.0
6599.6,2084.8,16956.0,60.599999999999994,1683.8,1563.1,2025-01-29 15:11:50,0.0
7163.6,2372.8,16416.0,-303.4,290.8,1979.1,2025-01-29 15:11:50,0.0
8179.6,2044.8,16504.0,-471.4,-336.2,1731.1,2025-01-29 15:11:50,0.0
8091.6,1960.8,16724.0,-510.4,-78.2,1620.1,2025-01-29 15:11:50,0.0
8663.6,1896.8,17212.0,-560.4,738.8,1540.1,2025-01-29 15:11:50,0.0
7995.6,1492.8,17340.0,-365.4,1392.8,1598.1,2025-01-29 15:11:50,0.0
8015.6,1788.8,17192.0,-107.4,1955.8,1849.1,2025-01-29 15:11:50,0.0
7379.6,1784.8,16936.0,-46.400000000000006,2254.8,1802.1,2025-01-29 15:11:50,0.0
6959.6,2168.8,16700.0,-151.4,1986.8,1972.1,2025-01-29 15:11:50,0.0
6715.6,2324.8,15908.0,-746.4,1090.8,1965.1,2025-01-29 15:11:50,0.0
7007.6,2560.8,16164.0,-1419.4,-383.2,2107.1,2025-01-29 15:11:50,0.0
7663.6,2740.8,16464.0,-1855.4,-1577.2,2012.1,2025-01-29 15:11:50,0.0
8275.6,2672.8,17104.0,-1983.4,-1995.2,1849.1,2025-01-29 15:11:50,0.0
8631.6,2848.8,17496.0,-1722.4,-1678.2,1754.1,2025-01-29 15:11:50,0.0
8683.6,2900.8,17444.0,-1329.4,-684.2,1618.1,2025-01-29 15:11:50,0.0
8403.6,2728.8,17756.0,-909.4,48.8,1483.1,2025-01-29 15:11:50,0.0
8543.6,2444.8,17116.0,-855.4,151.8,1289.1,2025-01-29 15:11:50,0.0
8487.6,2648.8,16952.0,-986.4,114.8,1062.1,2025-01-29 15:11:50,0.0
8487.6,2988.8,16960.0,-1003.4,206.8,895.1,2025-01-29 15:11:50,0.0
8071.6,2964.8,16956.0,-901.4,433.8,826.1,2025-01-29 15:11:50,0.0
7967.6,2668.8,17028.0,-873.4,623.8,790.1,2025-01-29 15:11:50,0.0
7831.6,2692.8,17072.0,-769.4,747.8,716.1,2025-01-29 15:11:50,0.0
7571.6,2704.8,17372.0,-683.4,794.8,637.1,2025-01-29 15:11:50,0.0
7355.6,2496.8,17888.0,-225.4,493.8,653.1,2025-01-29 15:11:50,0.0
7755.6,2316.8,18316.0,115.6,34.8,528.1,2025-01-29 15:11:50,0.0
7663.6,1632.8,16392.0,254.6,-489.2,370.1,2025-01-29 15:11:50,0.0
7135.6,1448.8,15540.0,-275.4,253.8,386.1,2025-01-29 15:11:50,0.0
7187.6,1180.8,16140.0,-603.4,1221.8,348.1,2025-01-29 15:11:50,
7315.6,1344.8,17004.0,-584.4,1635.8,317.1,2025-01-29 15:11:50,0.0
7475.6,1704.8,18028.0,-334.4,1290.8,413.1,2025-01-29 15:11:50,0.0
7507.6,1752.8,17728.0,58.599999999999994,513.8,366.1,2025-01-29 15:11:50,0.0
7559.6,2068.8,16764.0,97.6,-126.2,364.1,2025-01-29 15:11:50,0.0
7755.6,2424.8,16620.0,-63.400000000000006,-235.2,400.1,2025-01-29 15:11:50,0.0
7623.6,2572.8,16592.0,-359.4,420.8,471.1,2025-01-29 15:11:50,0.0
7347.6,2216.8,16648.0,-499.4,706.8,320.1,2025-01-29 15:11:50,0.0
6903.6,1720.8,16944.0,-447.4,563.8,200.1,2025-01-29 15:11:50,0.0
7047.6,1532.8,17416.0,-403.4,-133.2,259.1,2025-01-29 15:11:50,0.0
7347.6,1452.8,17220.0,-299.4,-763.2,378.1,2025-01-29 15:11:50,0.0
7783.6,1488.8,17052.0,-129.4,-771.2,441.1,2025-01-29 15:11:50,0.0
7995.6,1408.8,16896.0,115.6,-284.2,458.1,2025-01-29 15:11:50,0.0
7651.6,1416.8,16432.0,175.6,185.8,321.1,2025-01-29 15:11:50,0.0
7347.6,1564.8,16532.0,16.599999999999994,222.8,214.1,2025-01-29 15:11:50,0.0
6951.6,1764.8,16836.0,-79.4,-53.2,147.1,2025-01-29 15:11:50,0.0
6879.6,1988.8,16820.0,-45.400000000000006,-448.2,152.1,2025-01-29 15:11:50,0.0
7075.6,2156.8,16832.0,104.6,-594.2,220.1,2025-01-29 15:11:50,0.0
7519.6,2448.8,16736.0,164.6,-654.2,322.1,2025-01-29 15:11:50,0.0
7579.6,2600.8,16456.0,171.6,-598.2,385.1,2025-01-29 15:11:50,0.0
7747.6,2628.8,16768.0,46.599999999999994,-367.2,375.1,2025-01-29 15:11:50,0.0
7775.6,2456.8,16856.0,-24.400000000000006,-57.2,332.1,2025-01-29 15:11:50,0.0
7567.6,2492.8,17060.0,32.599999999999994,10.799999999999997,281.1,2025-01-29 15:11:50,0.0
7587.6,2472.8,17024.0,18.599999999999994,47.8,258.1,2025-01-29 15:11:50,0.0
7615.6,2408.8,16956.0,-12.400000000000006,99.8,234.1,2025-01-29 15:11:50,0.0
7623.6,2388.8,17008.0,-81.4,85.8,182.1,2025-01-29 15:11:50,0.0
7695.6,2232.8,16912.0,-90.4,-36.2,153.1,2025-01-29 15:11:50,0.0
7667.6,2384.8,16848.0,-150.4,-119.2,77.1,2025-01-29 15:11:50,0.0
7639.6,2148.8,16884.0,-277.4,-189.2,96.1,2025-01-29 15:11:51,0.0
7603.6,2260.8,16988.0,-325.4,-262.2,94.1,2025-01-29 15:11:51,0.0
7583.6,2260.8,16932.0,-332.4,-279.2,110.1,2025-01-29 15:11:51,0.0
7551.6,2032.8,17040.0,-288.4,-309.2,95.1,2025-01-29 15:11:51,0.0
7535.6,2092.8,16896.0,-232.4,-326.2,97.1,2025-01-29 15:11:51,0.0
7711.6,1968.8,16900.0,-181.4,-325.2,50.099999999999994,2025-01-29 15:11:51,0.0
7791.6,1800.8,16888.0,-125.4,-218.2,22.099999999999994,2025-01-29 15:11:51,0.0
7751.6,1880.8,16928.0,-53.400000000000006,-59.2,-24.900000000000006,2025-01-29 15:11:51,0.0
7719.6,1804.8,16968.0,-56.400000000000006,41.8,-62.900000000000006,2025-01-29 15:11:51,0.0
7567.6,1876.8,17096.0,-32.400000000000006,26.799999999999997,-57.900000000000006,2025-01-29 15:11:51,0.0
7687.6,1852.8,17032.0,-8.400000000000006,42.8,-64.9,2025-01-29 15:11:51,0.0
7699.6,1852.8,17064.0,26.599999999999994,61.8,-62.900000000000006,2025-01-29 15:11:51,0.0
7563.6,1932.8,16940.0,44.599999999999994,65.8,-23.900000000000006,2025-01-29 15:11:51,0.0
7667.6,1940.8,17080.0,78.6,-119.2,-47.900000000000006,2025-01-29 15:11:51,0.0
7687.6,1920.8,17040.0,103.6,-121.2,-41.900000000000006,2025-01-29 15:11:51,0.0
7851.6,1956.8,16956.0,98.6,-91.2,-14.900000000000006,2025-01-29 15:11:51,0.0
7751.6,1956.8,16900.0,112.6,-92.2,-26.900000000000006,2025-01-29 15:11:51,0.0
7843.6,2092.8,16948.0,104.6,-42.2,-64.9,2025-01-29 15:11:51,0.0
7695.6,1968.8,17116.0,94.6,63.8,-76.9,2025-01-29 15:11:51,0.0
7719.6,1988.8,16988.0,122.6,136.8,-64.9,2025-01-29 15:11:51,0.0
7587.6,2004.8,17112.0,117.6,182.8,-53.900000000000006,2025-01-29 15:11:51,0.0
7679.6,2032.8,17028.0,140.6,176.8,-49.900000000000006,2025-01-29 15:11:51,0.0
7631.6,2004.8,17020.0,159.6,136.8,-81.9,2025-01-29 15:11:51,0.0
7599.6,2108.8,16916.0,143.6,100.8,-56.900000000000006,2025-01-29 15:11:51,0.0
7615.6,2148.8,16908.0,153.6,32.8,-62.900000000000006,2025-01-29 15:11:51,0.0
7699.6,2236.8,16952.0,106.6,79.8,-47.900000000000006,2025-01-29 15:11:51,0.0
7707.6,2136.8,16784.0,114.6,122.8,-48.900000000000006,2025-01-29 15:11:51,0.0
7583.6,2120.8,16888.0,101.6,118.8,-46.900000000000006,2025-01-29 15:11:51,0.0
7659.6,2156.8,16908.0,67.6,148.8,-61.900000000000006,2025-01-29 15:11:51,0.0
7527.6,2168.8,16916.0,22.599999999999994,94.8,-52.900000000000006,2025-01-29 15:11:51,0.0
7675.6,2144.8,16904.0,51.599999999999994,9.799999999999997,-14.900000000000006,2025-01-29 15:11:51,0.0
7735.6,2188.8,16900.0,85.6,26.799999999999997,-18.900000000000006,2025-01-29 15:11:51,0.0
7739.6,1940.8,17048.0,55.599999999999994,55.8,10.099999999999994,2025-01-29 15:11:51,0.0
7727.6,2036.8,17028.0,102.6,60.8,11.099999999999994,2025-01-29 15:11:51,0.0
7707.6,2084.8,17040.0,51.599999999999994,37.8,28.099999999999994,2025-01-29 15:11:51,0.0
7647.6,1992.8,16908.0,55.599999999999994,88.8,10.099999999999994,2025-01-29 15:11:51,0.0
7647.6,2108.8,17096.0,37.599999999999994,124.8,8.099999999999994,2025-01-29 15:11:51,0.0
7655.6,2016.8,16924.0,60.599999999999994,114.8,-15.900000000000006,2025-01-29 15:11:51,0.0
7631.6,2048.8,16988.0,42.599999999999994,79.8,-3.9000000000000057,2025-01-29 15:11:51,0.0
7627.6,2056.8,17040.0,60.599999999999994,25.799999999999997,17.099999999999994,2025-01-29 15:11:51,0.0
7803.6,2004.8,16876.0,50.599999999999994,81.8,48.099999999999994,2025-01-29 15:11:51,0.0
7707.6,1900.8,17052.0,40.599999999999994,173.8,40.099999999999994,2025-01-29 15:11:51,0.0
7719.6,1996.8,16960.0,67.6,201.8,3.0999999999999943,2025-01-29 15:11:51,0.0
7715.6,1880.8,17276.0,84.6,173.8,20.099999999999994,2025-01-29 15:11:51,0.0
7707.6,2132.8,16988.0,41.599999999999994,108.8,41.099999999999994,2025-01-29 15:11:51,0.0
7611.6,2004.8,17188.0,46.599999999999994,190.8,23.099999999999994,2025-01-29 15:11:51,0.0
7535.6,2004.8,16976.0,48.599999999999994,40.8,8.099999999999994,2025-01-29 15:11:51,0.0
7651.6,2032.8,16844.0,132.6,-45.2,-17.900000000000006,2025-01-29 15:11:51,0.0
7627.6,1960.8,16828.0,133.6,-88.2,-4.900000000000006,2025-01-29 15:11:51,0.0
7747.6,2128.8,16952.0,158.6,-181.2,46.099999999999994,2025-01-29 15:11:51,0.0
7719.6,2060.8,16984.0,90.6,-142.2,38.099999999999994,2025-01-29 15:11:51,0.0
7739.6,2056.8,17068.0,71.6,-37.2,3.0999999999999943,2025-01-29 15:11:51,0.0
7695.6,2028.8,17148.0,64.6,28.799999999999997,-8.900000000000006,2025-01-29 15:11:51,0.0
7639.6,2024.8,17060.0,82.6,79.8,34.099999999999994,2025-01-29 15:11:51,0.0
7655.6,2112.8,17012.0,152.6,79.8,62.099999999999994,2025-01-29 15:11:51,0.0
7711.6,2052.8,17020.0,99.6,54.8,75.1,2025-01-29 15:11:51,0.0
7711.6,2100.8,16964.0,44.599999999999994,-15.200000000000003,67.1,2025-01-29 15:11:51,0.0
7675.6,2060.8,16888.0,112.6,-1.2000000000000028,57.099999999999994,2025-01-29 15:11:51,0.0
7695.6,2048.8,16936.0,74.6,-6.200000000000003,49.099999999999994,2025-01-29 15:11:51,0.0
7671.6,2020.8,17072.0,77.6,16.799999999999997,55.099999999999994,2025-01-29 15:11:51,0.0
7755.6,2004.8,17092.0,41.599999999999994,87.8,57.099999999999994,2025-01-29 15:11:51,0.0
7663.6,2108.8,16984.0,49.599999999999994,99.8,48.099999999999994,2025-01-29 15:11:52,0.0
7659.6,2128.8,17116.0,56.599999999999994,55.8,37.099999999999994,2025-01-29 15:11:52,0.0
7619.6,2036.8,16976.0,34.599999999999994,31.799999999999997,56.099999999999994,2025-01-29 15:11:52,0.0
7703.6,2000.8,17096.0,44.599999999999994,19.799999999999997,30.099999999999994,2025-01-29 15:11:52,0.0
7771.6,2060.8,17020.0,10.599999999999994,34.8,52.099999999999994,2025-01-29 15:11:52,0.0
7739.6,2052.8,17096.0,33.599999999999994,43.8,39.099999999999994,2025-01-29 15:11:52,0.0
7691.6,2028.8,16952.0,51.599999999999994,57.8,32.099999999999994,2025-01-29 15:11:52,0.0
7719.6,2040.8,17148.0,36.599999999999994,37.8,38.099999999999994,2025-01-29 15:11:52,0.0
7775.6,1944.8,17056.0,64.6,64.8,14.099999999999994,2025-01-29 15:11:52,0.0
7719.6,2012.8,17084.0,39.599999999999994,96.8,24.099999999999994,2025-01-29 15:11:52,0.0
7715.6,2040.8,16952.0,44.599999999999994,83.8,15.099999999999994,2025-01-29 15:11:52,0.0
7663.6,2008.8,17020.0,62.599999999999994,71.8,28.099999999999994,2025-01-29 15:11:52,
7715.6,1952.8,17128.0,98.6,58.8,18.099999999999994,2025-01-29 15:11:52,0.0
7815.6,2056.8,17108.0,92.6,92.8,36.099999999999994,2025-01-29 15:11:52,0.0
7827.6,2028.8,17052.0,96.6,167.8,18.099999999999994,2025-01-29 15:11:52,0.0
7739.6,2056.8,17020.0,81.6,209.8,3.0999999999999943,2025-01-29 15:11:52,0.0
7707.6,1936.8,17092.0,92.6,163.8,-4.900000000000006,2025-01-29 15:11:52,0.0
7735.6,1992.8,17052.0,76.6,112.8,14.099999999999994,2025-01-29 15:11:52,0.0
7723.6,2048.8,16924.0,32.599999999999994,152.8,27.099999999999994,2025-01-29 15:11:52,0.0
7559.6,2012.8,17048.0,80.6,87.8,-2.9000000000000057,2025-01-29 15:11:52,0.0
7663.6,2080.8,17052.0,129.6,46.8,-19.900000000000006,2025-01-29 15:11:52,0.0
7535.6,2144.8,17012.0,155.6,-63.2,12.099999999999994,2025-01-29 15:11:52,0.0
7655.6,2088.8,16892.0,134.6,-136.2,38.099999999999994,2025-01-29 15:11:52,0.0
7763.6,2032.8,16908.0,109.6,-163.2,29.099999999999994,2025-01-29 15:11:52,0.0
7755.6,2032.8,17152.0,117.6,-48.2,6.099999999999994,2025-01-29 15:11:52,0.0
7851.6,1984.8,17088.0,81.6,61.8,10.099999999999994,2025-01-29 15:11:52,0.0
7727.6,1952.8,17052.0,79.6,101.8,3.0999999999999943,2025-01-29 15:11:52,0.0
7651.6,2024.8,16916.0,111.6,95.8,38.099999999999994,2025-01-29 15:11:52,0.0
7707.6,1968.8,16976.0,119.6,108.8,24.099999999999994,2025-01-29 15:11:52,0.0
7755.6,2016.8,16992.0,112.6,45.8,33.099999999999994,2025-01-29 15:11:52,0.0
7715.6,2016.8,16884.0,79.6,31.799999999999997,45.099999999999994,2025-01-29 15:11:52,0.0
7767.6,2016.8,17000.0,66.6,20.799999999999997,53.099999999999994,2025-01-29 15:11:52,0.0
7739.6,2060.8,17136.0,51.599999999999994,90.8,9.099999999999994,2025-01-29 15:11:52,0.0
7751.6,2136.8,17064.0,97.6,121.8,60.099999999999994,2025-01-29 15:11:52,0.0
7647.6,2004.8,17096.0,91.6,130.8,57.099999999999994,2025-01-29 15:11:52,0.0
7811.6,2004.8,17096.0,91.6,81.8,57.099999999999994,2025-01-29 15:11:52,0.0
7799.6,2012.8,16936.0,99.6,73.8,27.099999999999994,2025-01-29 15:11:52,0.0
7751.6,2052.8,16948.0,70.6,52.8,35.099999999999994,2025-01-29 15:11:52,0.0
7771.6,2064.8,17008.0,60.599999999999994,59.8,18.099999999999994,2025-01-29 15:11:52,0.0
7723.6,2080.8,17040.0,84.6,71.8,42.099999999999994,2025-01-29 15:11:52,0.0
7735.6,2004.8,17084.0,108.6,74.8,28.099999999999994,2025-01-29 15:11:52,0.0
7659.6,2084.8,17044.0,113.6,96.8,14.099999999999994,2025-01-29 15:11:52,0.0
7707.6,2080.8,16948.0,118.6,146.8,32.099999999999994,2025-01-29 15:11:52,0.0
7787.6,2064.8,17052.0,76.6,155.8,18.099999999999994,2025-01-29 15:11:52,0.0
7703.6,2020.8,17072.0,106.6,151.8,-20.900000000000006,2025-01-29 15:11:52,0.0
7611.6,1940.8,17008.0,88.6,167.8,-44.900000000000006,2025-01-29 15:11:52,0.0
7603.6,1948.8,17152.0,108.6,157.8,-46.900000000000006,2025-01-29 15:11:52,0.0
7679.6,1832.8,17148.0,140.6,136.8,-13.900000000000006,2025-01-29 15:11:52,0.0
7743.6,1616.8,17284.0,91.6,293.8,91.1,2025-01-29 15:11:52,0.0
7727.6,1608.8,17396.0,93.6,709.8,145.1,2025-01-29 15:11:52,0.0
7215.6,1588.8,18080.0,167.6,1178.8,88.1,2025-01-29 15:11:52,0.0
7683.6,1856.8,17160.0,168.6,1115.8,-186.9,2025-01-29 15:11:52,0.0
7755.6,1956.8,16996.0,157.6,1040.8,-480.9,2025-01-29 15:11:52,0.0
7619.6,2032.8,16856.0,188.6,1169.8,-599.9,2025-01-29 15:11:52,0.0
7207.6,2220.8,16520.0,153.6,1367.8,-614.9,2025-01-29 15:11:52,0.0
7047.6,2560.8,16504.0,40.599999999999994,990.8,-517.9,2025-01-29 15:11:52,0.0
7139.6,2740.8,16480.0,-83.4,470.8,-338.9,2025-01-29 15:11:52,0.0
7355.6,2680.8,16392.0,-109.4,-28.200000000000003,-196.9,2025-01-29 15:11:52,0.0
7551.6,2324.8,16856.0,38.599999999999994,-371.2,-85.9,2025-01-29 15:11:52,0.0
7523.6,1968.8,16856.0,189.6,-374.2,-74.9,2025-01-29 15:11:52,0.0
8115.6,1856.8,17044.0,281.6,58.8,-78.9,2025-01-29 15:11:53,0.0
7959.6,1796.8,17136.0,309.6,349.8,-61.900000000000006,2025-01-29 15:11:53,0.0
7791.6,1876.8,16988.0,292.6,427.8,-38.900000000000006,2025-01-29 15:11:53,0.0
7623.6,1780.8,16900.0,240.6,351.8,-13.900000000000006,2025-01-29 15:11:53,0.0
7587.6,1736.8,16748.0,336.6,289.8,71.1,2025-01-29 15:11:53,0.0
7491.6,1744.8,16792.0,372.6,108.8,99.1,2025-01-29 15:11:53,0.0
7575.6,1772.8,16856.0,425.6,27.799999999999997,134.1,2025-01-29 15:11:53,0.0
7335.6,1808.8,16780.0,477.6,26.799999999999997,131.1,2025-01-29 15:11:53,0.0
7471.6,1876.8,16684.0,539.6,-248.2,134.1,2025-01-29 15:11:53,0.0
7403.6,1932.8,16628.0,650.6,-567.2,230.1,2025-01-29 15:11:53,0.0
7515.6,2192.8,16740.0,674.6,-1004.2,315.1,2025-01-29 15:11:53,0.0
7571.6,2232.8,16584.0,602.6,-1368.2,336.1,2025-01-29 15:11:53,0.0
7863.6,2220.8,16744.0,432.6,-1443.2,328.1,2025-01-29 15:11:53,0.0
8135.6,2272.8,16784.0,207.6,-1257.2,240.1,2025-01-29 15:11:53,0.0
8095.6,2136.8,16824.0,87.6,-1121.2,46.099999999999994,2025-01-29 15:11:53,0.0
8135.6,2148.8,17188.0,15.599999999999994,-1029.2,-94.9,2025-01-29 15:11:53,0.0
7999.6,2200.8,17036.0,29.599999999999994,-933.2,-215.9,2025-01-29 15:11:53,0.0
7883.6,2264.8,17116.0,36.599999999999994,-758.2,-232.9,2025-01-29 15:11:53,0.0
7503.6,2088.8,17472.0,130.6,-799.2,-201.9,2025-01-29 15:11:53,0.0
7495.6,2040.8,17932.0,512.6,-1393.2,-104.9,2025-01-29 15:11:53,0.0
7739.6,1944.8,17168.0,552.6,-1718.2,-23.900000000000006,2025-01-29 15:11:53,0.0
7635.6,1648.8,19044.0,1395.6,-2156.2,-33.900000000000006,2025-01-29 15:11:53,0.0
7691.6,1520.8,15340.0,1405.6,-2310.2,147.1,2025-01-29 15:11:53,0.0
10619.6,2808.8,13264.0,151.6,-1295.2,-741.9,2025-01-29 15:11:53,0.0
9403.6,3500.8,14580.0,-906.4,975.8,-1230.9,2025-01-29 15:11:53,0.0
7475.6,3300.8,17640.0,-916.4,2137.8,-800.9,2025-01-29 15:11:53,0.0
6883.6,2868.8,18532.0,-777.4,977.8,-291.9,2025-01-29 15:11:53,0.0
7555.6,2580.8,17236.0,-1304.4,-878.2,-189.9,2025-01-29 15:11:53,0.0
8175.6,2000.8,16840.0,-1815.4,-2071.2,-446.9,2025-01-29 15:11:53,0.0
8119.6,1464.8,17832.0,-1754.4,-2454.2,-551.9,2025-01-29 15:11:53,0.0
7975.6,1228.8,19104.0,-1095.4,-2464.2,-385.9,2025-01-29 15:11:53,0.0
9039.6,1096.8,18700.0,-218.4,-1737.2,-283.9,2025-01-29 15:11:53,0.0
8863.6,768.8,17624.0,577.6,-121.2,-90.9,2025-01-29 15:11:53,0.0
8687.6,788.8,17240.0,1098.6,1937.8,51.099999999999994,2025-01-29 15:11:53,0.0
8447.6,852.8,17928.0,1113.6,2277.8,176.1,2025-01-29 15:11:53,0.0
8207.6,1628.8,17344.0,405.6,837.8,357.1,2025-01-29 15:11:53,0.0
8563.6,2264.8,17344.0,-425.4,197.8,680.1,2025-01-29 15:11:53,0.0
7987.6,2808.8,17652.0,-953.4,932.8,1023.1,2025-01-29 15:11:53,0.0
9303.6,3352.8,17172.0,-1266.4,1992.8,1424.1,2025-01-29 15:11:53,0.0
9515.6,3400.8,16932.0,-2022.4,2732.8,1680.1,2025-01-29 15:11:53,0.0
9347.6,2988.8,16560.0,-2867.4,2943.8,1580.1,2025-01-29 15:11:53,0.0
9271.6,1500.8,17640.0,-3322.4,3726.8,1119.1,2025-01-29 15:11:53,0.0
9691.6,1180.8,19640.0,-3071.4,4117.8,805.1,2025-01-29 15:11:53,0.0
8491.6,1484.8,20828.0,-2656.4,4034.8,797.1,2025-01-29 15:11:53,0.0
6923.6,1724.8,20980.0,-1767.4,3134.8,952.1,2025-01-29 15:11:53,0.0
6767.6,2116.8,21920.0,-744.4,2742.8,909.1,2025-01-29 15:11:53,0.0
8131.6,2112.8,20116.0,110.6,3139.8,-56.900000000000006,2025-01-29 15:11:53,0.0
4715.6,1492.8,18516.0,768.6,4962.8,-464.9,2025-01-29 15:11:53,0.0
5171.6,1768.8,18552.0,1209.6,5688.8,-155.9,2025-01-29 15:11:53,0.0
6455.6,2020.8,18712.0,1305.6,5393.8,311.1,2025-01-29 15:11:53,0.0
6863.6,1300.8,18308.0,959.6,5355.8,-119.9,2025-01-29 15:11:53,0.0
6463.6,764.8,18176.0,693.6,5578.8,-689.9,2025-01-29 15:11:53,
6003.6,764.8,18596.0,300.6,5691.8,-1155.9,2025-01-29 15:11:53,0.0
5983.6,948.8,18828.0,-4.400000000000006,4879.8,-1026.9,2025-01-29 15:11:53,0.0
6191.6,1180.8,18364.0,-143.4,4787.8,-845.9,2025-01-29 15:11:53,0.0
5819.6,1540.8,17408.0,-413.4,5427.8,-569.9,2025-01-29 15:11:53,0.0
5447.6,1708.8,16816.0,-671.4,5948.8,-329.9,2025-01-29 15:11:53,0.0
5379.6,1224.8,16388.0,-755.4,6156.8,-138.9,2025-01-29 15:11:53,0.0
5075.6,1584.8,16296.0,-803.4,6042.8,-109.9,2025-01-29 15:11:53,0.0
4403.6,788.8,16680.0,-478.4,5354.8,253.1,2025-01-29 15:11:53,0.0
5231.6,1448.8,15208.0,-363.4,4677.8,218.1,2025-01-29 15:11:54,0.0
5523.6,1412.8,15072.0,-383.4,4040.8,391.1,2025-01-29 15:11:54,0.0
4519.6,876.8,15008.0,-320.4,3366.8,403.1,2025-01-29 15:11:54,0.0
5123.6,1000.8,14892.0,66.6,2955.8,210.1,2025-01-29 15:11:54,0.0
5183.6,876.8,14764.0,125.6,2887.8,-71.9,2025-01-29 15:11:54,0.0
5311.6,700.8,15100.0,272.6,3341.8,-272.9,2025-01-29 15:11:54,0.0
5499.6,420.79999999999995,15040.0,635.6,4236.8,-243.9,2025-01-29 15:11:54,0.0
3695.6000000000004,1024.8,14980.0,855.6,5602.8,-51.900000000000006,2025-01-29 15:11:54,0.0
1863.6000000000004,1324.8,14768.0,660.6,6333.8,522.1,2025-01-29 15:11:54,0.0
2303.6000000000004,1124.8,15068.0,164.6,6251.8,508.1,2025-01-29 15:11:54,0.0
3319.6000000000004,1148.8,14836.0,-229.4,5333.8,599.1,2025-01-29 15:11:54,0.0
4667.6,1540.8,13888.0,-415.4,5016.8,508.1,2025-01-29 15:11:54,0.0
4343.6,1456.8,14444.0,-173.4,5149.8,707.1,2025-01-29 15:11:54,0.0
4695.6,1524.8,14016.0,175.6,5594.8,766.1,2025-01-29 15:11:54,0.0
4163.6,1588.8,14180.0,205.6,5855.8,606.1,2025-01-29 15:11:54,0.0
4143.6,1564.8,14012.0,-29.400000000000006,5982.8,377.1,2025-01-29 15:11:54,0.0
3851.6000000000004,1652.8,14316.0,-211.4,6141.8,417.1,2025-01-29 15:11:54,0.0
3535.6000000000004,1624.8,14596.0,19.599999999999994,6021.8,756.1,2025-01-29 15:11:54,0.0
4087.6000000000004,1500.8,13776.0,126.6,5694.8,1093.1,2025-01-29 15:11:54,0.0
5039.6,1128.8,12356.0,-136.4,5989.8,1198.1,2025-01-29 15:11:54,0.0
5679.6,644.8,11820.0,-659.4,6956.8,733.1,2025-01-29 15:11:54,0.0
5439.6,732.8,12368.0,-904.4,8538.8,99.1,2025-01-29 15:11:54,0.0
4387.6,888.8,12068.0,-1480.4,10512.8,-254.9,2025-01-29 15:11:54,0.0
2483.6000000000004,1444.8,11820.0,-1890.4,12890.8,-100.9,2025-01-29 15:11:54,0.0
1179.6000000000004,1880.8,11740.0,-2108.4,14853.8,260.1,2025-01-29 15:11:54,0.0
791.6000000000004,2176.8,11640.0,-2390.4,14743.8,607.1,2025-01-29 15:11:54,0.0
1599.6000000000004,1596.8,11428.0,-2544.4,13272.8,655.1,2025-01-29 15:11:54,0.0
611.6000000000004,1804.8,12544.0,-2234.4,11101.8,997.1,2025-01-29 15:11:54,0.0
-96.39999999999964,1756.8,12036.0,-1906.4,10272.8,1622.1,2025-01-29 15:11:54,0.0
987.6000000000004,1092.8,11152.0,-1651.4,9785.8,1692.1,2025-01-29 15:11:54,0.0
1083.6000000000004,520.8,10124.0,-1488.4,9250.8,1252.1,2025-01-29 15:11:54,0.0
979.6000000000004,520.8,9084.0,-1613.4,8227.8,749.1,2025-01-29 15:11:54,0.0
983.6000000000004,736.8,7304.0,-2036.4,6703.8,682.1,2025-01-29 15:11:54,0.0
4243.6,1256.8,7372.0,-1802.4,6872.8,133.1,2025-01-29 15:11:54,0.0
1859.6000000000004,464.79999999999995,7980.0,-1353.4,6169.8,566.1,2025-01-29 15:11:54,0.0
1887.6000000000004,-159.20000000000005,6800.0,-988.4,6056.8,432.1,2025-01-29 15:11:54,0.0
1451.6000000000004,-59.200000000000045,5848.0,-1138.4,5590.8,214.1,2025-01-29 15:11:54,0.0
1259.6000000000004,184.79999999999995,5676.0,-1412.4,5326.8,-71.9,2025-01-29 15:11:54,0.0
1503.6000000000004,744.8,6432.0,-1629.4,4931.8,-188.9,2025-01-29 15:11:54,0.0
727.6000000000004,1416.8,6804.0,-1345.4,4287.8,-19.900000000000006,2025-01-29 15:11:54,0.0
163.60000000000036,1792.8,6444.0,-1090.4,3365.8,632.1,2025-01-29 15:11:54,0.0
203.60000000000036,1744.8,5212.0,-1230.4,2243.8,1212.1,2025-01-29 15:11:54,0.0
339.60000000000036,1276.8,4764.0,-1663.4,1077.8,1580.1,2025-01-29 15:11:54,0.0
1031.6000000000004,1500.8,4672.0,-2041.4,-159.2,1799.1,2025-01-29 15:11:54,0.0
1839.6000000000004,1872.8,5624.0,-1636.4,-590.2,1703.1,2025-01-29 15:11:54,0.0
2195.6000000000004,1712.8,6592.0,-889.4,21.799999999999997,1528.1,2025-01-29 15:11:54,0.0
2275.6000000000004,736.8,6300.0,124.6,836.8,1261.1,2025-01-29 15:11:54,0.0
2211.6000000000004,-111.20000000000005,6420.0,1230.6,1205.8,944.1,2025-01-29 15:11:54,0.0
2391.6000000000004,-307.20000000000005,6504.0,2513.6,1193.8,662.1,2025-01-29 15:11:54,0.0
2563.6000000000004,764.8,6444.0,3798.6,1234.8,409.1,2025-01-29 15:11:54,0.0
2291.6000000000004,2204.8,5580.0,4648.6,2106.8,566.1,2025-01-29 15:11:54,0.0
2291.6000000000004,3692.8,5516.0,4968.6,3485.8,854.1,2025-01-29 15:11:54,0.0
2667.6000000000004,4676.8,5484.0,4762.6,4767.8,1017.1,2025-01-29 15:11:54,0.0
2295.6000000000004,4392.8,4704.0,4327.6,5034.8,877.1,2025-01-29 15:11:54,0.0
871.6000000000004,3984.8,4284.0,3920.6,5366.8,1226.1,2025-01-29 15:11:54,0.0
771.6000000000004,3696.8,4664.0,3507.6,5665.8,1973.1,2025-01-29 15:11:54,0.0
1059.6000000000004,3904.8,5320.0,3427.6,5526.8,2301.1,2025-01-29 15:11:54,0.0
839.6000000000004,4304.8,5244.0,3617.6,4865.8,2369.1,2025-01-29 15:11:54,0.0
883.6000000000004,4396.8,4972.0,3682.6,3901.8,2137.1,2025-01-29 15:11:54,0.0
883.6000000000004,4540.8,4448.0,3357.6,3373.8,1548.1,2025-01-29 15:11:54,0.0
1075.6000000000004,4364.8,4272.0,2591.6,2623.8,739.1,2025-01-29 15:11:54,0.0
775.6000000000004,3772.8,4040.0,2073.6,1549.8,118.1,2025-01-29 15:11:55,0.0
431.60000000000036,3128.8,3640.0,1863.6,-68.2,-32.900000000000006,2025-01-29 15:11:55,0.0
855.6000000000004,3020.8,3992.0,1893.6,-1895.2,86.1,2025-01-29 15:11:55,0.0
2083.6000000000004,3164.8,4540.0,2120.6,-3098.2,30.099999999999994,2025-01-29 15:11:55,0.0
2363.6000000000004,3428.8,4716.0,2308.6,-2431.2,-267.9,2025-01-29 15:11:55,0.0
2279.6000000000004,3256.8,4816.0,2400.6,-588.2,-523.9,2025-01-29 15:11:55,0.0
1923.6000000000004,3260.8,5112.0,2592.6,1273.8,-912.9,2025-01-29 15:11:55,0.0
1099.6000000000004,3280.8,5488.0,2623.6,2716.8,-1156.9,2025-01-29 15:11:55,0.0
447.60000000000036,3576.8,6020.0,2653.6,3998.8,-1295.9,2025-01-29 15:11:55,0.0
-240.39999999999964,4052.8,6276.0,2785.6,4839.8,-1198.9,2025-01-29 15:11:55,0.0
-324.39999999999964,4072.8,6272.0,2788.6,4327.8,-994.9,2025-01-29 15:11:55,0.0
-328.39999999999964,3692.8,6140.0,2807.6,2910.8,-895.9,2025-01-29 15:11:55,0.0
119.60000000000036,3064.8,5984.0,2776.6,1373.8,-974.9,2025-01-29 15:11:55,0.0
343.60000000000036,2300.8,6376.0,2627.6,404.8,-1231.9,2025-01-29 15:11:55,0.0
315.60000000000036,1676.8,7256.0,2943.6,331.8,-1459.9,2025-01-29 15:11:55,0.0
687.6000000000004,1712.8,8444.0,3913.6,673.8,-1574.9,2025-01-29 15:11:55,0.0
1295.6000000000004,2216.8,8004.0,5022.6,743.8,-1845.9,2025-01-29 15:11:55,0.0
279.60000000000036,3196.8,6836.0,5424.6,1347.8,-1920.9,2025-01-29 15:11:55,0.0
