acceleration_x,acceleration_y,acceleration_z,gyroscope_x,gyroscope_y,gyroscope_z,timestamp,label
3813.6,-1191.6,7650.0,5753.4,13005.4,2924.5999999999985,2025-01-27 12:40:32,0.0
577.6,84.40000000000009,1182.0,3157.3999999999996,15621.4,2924.5999999999985,2025-01-27 12:40:32,0.0
-2582.4,-1035.6,-402.0,-104.60000000000036,10776.4,2924.5999999999985,2025-01-27 12:40:32,0.0
-4518.4,-2295.6,26.0,-1172.6000000000004,-1840.6000000000004,2924.5999999999985,2025-01-27 12:40:32,0.0
-3250.4,-3267.6,1414.0,-215.60000000000036,-15895.6,2924.5999999999985,2025-01-27 12:40:32,0.0
4733.6,-1019.5999999999999,1830.0,819.3999999999996,-17007.6,2924.5999999999985,2025-01-27 12:40:32,0.0
5041.6,604.4000000000001,1162.0,2180.3999999999996,-8328.6,2924.5999999999985,2025-01-27 12:40:32,0.0
717.6,2420.4,-3090.0,-1013.6000000000004,-184.60000000000036,-3794.4000000000015,2025-01-27 12:40:32,0.0
-1734.4,2652.4,-4866.0,-3869.6000000000004,1550.3999999999996,-7324.4000000000015,2025-01-27 12:40:32,0.0
-2798.4,3048.4,-4906.0,-5534.6,2303.3999999999996,-9353.400000000001,2025-01-27 12:40:32,0.0
-3094.4,3620.4,-5070.0,-6505.6,4847.4,-11163.400000000001,2025-01-27 12:40:32,0.0
-3970.4,4424.4,-3542.0,-7959.6,5392.4,-12717.400000000001,2025-01-27 12:40:32,0.0
-2554.4,4116.4,-1106.0,-9289.6,2713.3999999999996,-14103.400000000001,2025-01-27 12:40:32,0.0
12293.6,4288.4,7218.0,-6391.6,4556.4,-22410.4,2025-01-27 12:40:32,0.0
15069.6,7616.4,5686.0,-4953.6,12628.4,-35229.4,2025-01-27 12:40:32,0.0
12173.6,6580.4,5914.0,-4518.6,25300.4,-46840.4,2025-01-27 12:40:32,0.0
3061.6,3364.4,2154.0,-3969.6000000000004,36905.4,-54488.4,2025-01-27 12:40:32,0.0
-3170.4,916.4000000000001,-3046.0,-6015.6,36905.4,-55005.4,2025-01-27 12:40:32,0.0
-7686.4,804.4000000000001,-8066.0,-9591.6,36604.4,-51853.4,2025-01-27 12:40:32,0.0
-12354.4,2764.4,-5386.0,-11950.6,32279.4,-45931.4,2025-01-27 12:40:32,0.0
-11346.4,3000.4,954.0,-9712.6,30036.4,-40430.4,2025-01-27 12:40:32,0.0
-6026.4,3824.4,518.0,-7661.6,22864.4,-41783.4,2025-01-27 12:40:32,0.0
-7766.4,4240.4,2438.0,-5337.6,16070.4,-43860.4,2025-01-27 12:40:32,0.0
-10766.4,5724.4,286.0,-3524.6000000000004,12374.4,-41732.4,2025-01-27 12:40:32,0.0
-8722.4,5324.4,-1510.0,-3508.6000000000004,11586.4,-38537.4,2025-01-27 12:40:32,0.0
-6682.4,4384.4,-2330.0,-4036.6000000000004,14329.4,-36137.4,2025-01-27 12:40:32,0.0
-6390.4,4108.4,-1714.0,-3786.6000000000004,16648.4,-35990.4,2025-01-27 12:40:32,0.0
-9302.4,5200.4,-1394.0,-3773.6000000000004,15327.4,-36115.4,2025-01-27 12:40:32,0.0
-11930.4,6368.4,-1586.0,-5212.6,10548.4,-35350.4,2025-01-27 12:40:32,0.0
-11122.4,6724.4,-1866.0,-8863.6,5760.4,-34494.4,2025-01-27 12:40:32,0.0
-8778.4,5492.4,-1030.0,-11795.6,6844.4,-34390.4,2025-01-27 12:40:32,0.0
-8382.4,4648.4,-762.0,-13309.6,11865.4,-34849.4,2025-01-27 12:40:32,0.0
-9534.4,4280.4,-2162.0,-14557.6,13885.4,-35494.4,2025-01-27 12:40:32,0.0
-10806.4,3512.4,-4610.0,-16841.6,11547.4,-35520.4,2025-01-27 12:40:32,0.0
-9762.4,3580.4,-3910.0,-19653.6,8880.4,-34449.4,2025-01-27 12:40:32,0.0
-9058.4,1048.4,-3666.0,-19766.6,7777.4,-32890.4,2025-01-27 12:40:32,0.0
-7786.4,240.4000000000001,-4338.0,-19945.6,8234.4,-31849.4,2025-01-27 12:40:32,0.0
-8618.4,-459.5999999999999,-4378.0,-19405.6,9514.4,-30469.4,2025-01-27 12:40:32,0.0
-8778.4,-1079.6,-4554.0,-18496.6,9204.4,-29447.4,2025-01-27 12:40:32,0.0
-8538.4,-1391.6,-5330.0,-17888.6,8364.4,-28917.4,2025-01-27 12:40:32,0.0
-8062.4,-1115.6,-6438.0,-17733.6,8178.4,-28379.4,2025-01-27 12:40:33,0.0
-7882.4,-703.5999999999999,-7494.0,-18305.6,9614.4,-26833.4,2025-01-27 12:40:33,0.0
-8094.4,-51.59999999999991,-7706.0,-18972.6,10864.4,-24567.4,2025-01-27 12:40:33,0.0
-7962.4,-235.5999999999999,-7806.0,-19304.6,12934.4,-23150.4,2025-01-27 12:40:33,0.0
-8050.4,-319.5999999999999,-7946.0,-19689.6,15247.4,-22839.4,2025-01-27 12:40:33,0.0
-8742.4,220.4000000000001,-8586.0,-20616.6,15379.4,-22288.4,2025-01-27 12:40:33,0.0
-8238.4,-83.59999999999991,-9166.0,-21371.6,16509.4,-22128.4,2025-01-27 12:40:33,0.0
-9186.4,-359.5999999999999,-9514.0,-21717.6,18503.4,-21717.4,2025-01-27 12:40:33,0.0
-10426.4,-211.5999999999999,-10010.0,-22274.6,19129.4,-21857.4,2025-01-27 12:40:33,0.0
-11638.4,-683.5999999999999,-9770.0,-22600.6,17119.4,-22266.4,2025-01-27 12:40:33,0.0
-11734.4,-1003.5999999999999,-9734.0,-22150.6,14027.4,-22142.4,2025-01-27 12:40:33,0.0
-12022.4,-1223.6,-9190.0,-20638.6,11811.4,-21558.4,2025-01-27 12:40:33,0.0
-11606.4,-1235.6,-9586.0,-19241.6,10597.4,-21885.4,2025-01-27 12:40:33,0.0
-11854.4,-415.5999999999999,-9682.0,-18230.6,9495.4,-22776.4,2025-01-27 12:40:33,0.0
-11742.4,456.4000000000001,-10670.0,-17771.6,8809.4,-23365.4,2025-01-27 12:40:33,0.0
-11862.4,1424.4,-11098.0,-17838.6,8911.4,-23396.4,2025-01-27 12:40:33,0.0
-11694.4,2036.4,-12178.0,-18120.6,9544.4,-22723.4,2025-01-27 12:40:33,0.0
-12014.4,2404.4,-13098.0,-18532.6,10158.4,-21823.4,2025-01-27 12:40:33,0.0
-11834.4,2048.4,-13690.0,-18582.6,10175.4,-20776.4,2025-01-27 12:40:33,0.0
-11734.4,2180.4,-13450.0,-17780.6,10446.4,-19287.4,2025-01-27 12:40:33,0.0
-12146.4,2696.4,-13346.0,-16159.6,10730.4,-17536.4,2025-01-27 12:40:33,0.0
-11538.4,2748.4,-13826.0,-14262.6,11065.4,-16238.400000000001,2025-01-27 12:40:33,0.0
-12086.4,2784.4,-14226.0,-12546.6,11652.4,-16307.400000000001,2025-01-27 12:40:33,0.0
-11718.4,5480.4,-17338.0,-14341.6,12780.4,-29145.4,2025-01-27 12:40:33,0.0
-22410.4,3732.4,-11470.0,-13971.6,14718.4,-35576.4,2025-01-27 12:40:33,0.0
-26814.4,2888.4,-13842.0,-10134.6,5426.4,-28367.4,2025-01-27 12:40:33,0.0
-14302.4,3220.4,-17558.0,-11218.6,-2049.6000000000004,-27685.4,2025-01-27 12:40:33,0.0
-12502.4,3232.4,-14170.0,-10410.6,-94.60000000000036,-30049.4,2025-01-27 12:40:33,0.0
-14446.4,2464.4,-15114.0,-9413.6,2478.3999999999996,-31212.4,2025-01-27 12:40:33,0.0
-14826.4,2128.4,-14454.0,-6595.6,5519.4,-30453.4,2025-01-27 12:40:33,0.0
-14266.4,1420.4,-14934.0,-1177.6000000000004,8150.4,-28213.4,2025-01-27 12:40:33,0.0
-14398.4,1008.4000000000001,-16486.0,1466.3999999999996,5849.4,-27162.4,2025-01-27 12:40:33,0.0
-14758.4,1380.4,-16138.0,2552.3999999999996,3212.3999999999996,-26862.4,2025-01-27 12:40:33,0.0
-14634.4,600.4000000000001,-15618.0,3117.3999999999996,3360.3999999999996,-26093.4,2025-01-27 12:40:33,0.0
-11522.4,1516.4,-16066.0,3271.3999999999996,9307.4,-26548.4,2025-01-27 12:40:33,0.0
-9982.4,1308.4,-15878.0,3546.3999999999996,15862.4,-28219.4,2025-01-27 12:40:33,0.0
-11274.4,2520.4,-14530.0,3818.3999999999996,17777.4,-30661.4,2025-01-27 12:40:33,0.0
-15230.4,3248.4,-10998.0,3518.3999999999996,13130.4,-31211.4,2025-01-27 12:40:33,0.0
-14182.4,3712.4,-13502.0,1193.3999999999996,7586.4,-29188.4,2025-01-27 12:40:33,0.0
-13214.4,2964.4,-16434.0,-3705.6000000000004,10796.4,-26689.4,2025-01-27 12:40:33,0.0
-14314.4,3172.4,-10002.0,-5565.6,13260.4,-25346.4,2025-01-27 12:40:33,0.0
-15458.4,2832.4,-10890.0,-6027.6,9659.4,-24945.4,2025-01-27 12:40:33,0.0
-13026.4,2372.4,-12970.0,-8594.6,9329.4,-26104.4,2025-01-27 12:40:33,0.0
-13290.4,3432.4,-15434.0,-12263.6,10918.4,-27412.4,2025-01-27 12:40:33,0.0
-12070.4,1816.4,-18410.0,-16123.6,9352.4,-26961.4,2025-01-27 12:40:33,0.0
-13074.4,1684.4,-16094.0,-17487.6,13347.4,-26450.4,2025-01-27 12:40:33,0.0
-15306.4,2256.4,-10118.0,-12912.6,16644.4,-25467.4,2025-01-27 12:40:33,0.0
-16282.4,2948.4,-15322.0,-8871.6,13891.4,-26095.4,2025-01-27 12:40:33,0.0
-18278.4,4648.4,-18106.0,-10600.6,6193.4,-25899.4,2025-01-27 12:40:33,0.0
-16622.4,4820.4,-17654.0,-12319.6,-763.6000000000004,-24811.4,2025-01-27 12:40:33,0.0
-12362.4,4468.4,-17590.0,-11429.6,-2812.6000000000004,-25222.4,2025-01-27 12:40:33,0.0
-10646.4,5108.4,-19566.0,-10367.6,45.399999999999636,-26863.4,2025-01-27 12:40:33,0.0
-10726.4,5316.4,-19002.0,-10106.6,4277.4,-26727.4,2025-01-27 12:40:33,0.0
-11906.4,7412.4,-18730.0,-10869.6,6529.4,-25928.4,2025-01-27 12:40:33,0.0
-12006.4,7996.4,-15822.0,-11982.6,6329.4,-24571.4,2025-01-27 12:40:33,0.0
-14546.4,7144.4,-14922.0,-13127.6,5340.4,-24554.4,2025-01-27 12:40:33,0.0
-16286.4,6368.4,-14922.0,-13566.6,2498.3999999999996,-24548.4,2025-01-27 12:40:33,0.0
-21406.4,8052.4,-16378.0,-15148.6,-7585.6,-28321.4,2025-01-27 12:40:33,0.0
-21134.4,4928.4,-14854.0,-14497.6,-12355.6,-29990.4,2025-01-27 12:40:33,0.0
-19934.4,3988.4,-14722.0,-13181.6,-17794.6,-28875.4,2025-01-27 12:40:33,
-14370.4,4616.4,-17398.0,-12764.6,-15193.6,-29477.4,2025-01-27 12:40:33,0.0
-13742.4,3920.4,-17038.0,-13275.6,-7103.6,-29500.4,2025-01-27 12:40:34,0.0
-13630.4,5000.4,-16558.0,-14129.6,-4236.6,-29187.4,2025-01-27 12:40:34,0.0
-13626.4,5052.4,-15546.0,-14470.6,-1071.6000000000004,-29183.4,2025-01-27 12:40:34,0.0
-16882.4,5288.4,-11502.0,-13250.6,893.3999999999996,-28432.4,2025-01-27 12:40:34,0.0
-15674.4,5980.4,-9226.0,-11030.6,2776.3999999999996,-28294.4,2025-01-27 12:40:34,0.0
-14014.4,6976.4,-10114.0,-9005.6,6447.4,-29417.4,2025-01-27 12:40:34,0.0
-14614.4,7260.4,-11946.0,-7875.6,7934.4,-30430.4,2025-01-27 12:40:34,0.0
-14942.4,7280.4,-14634.0,-8485.6,7807.4,-30340.4,2025-01-27 12:40:34,0.0
-14610.4,6928.4,-14710.0,-9510.6,6284.4,-29838.4,2025-01-27 12:40:34,0.0
-13618.4,5944.4,-14706.0,-10356.6,4537.4,-29748.4,2025-01-27 12:40:34,0.0
-12982.4,5632.4,-13402.0,-10402.6,4564.4,-30147.4,2025-01-27 12:40:34,0.0
-12982.4,5440.4,-11846.0,-9836.6,5112.4,-30587.4,2025-01-27 12:40:34,0.0
-13258.4,5488.4,-11046.0,-9077.6,5367.4,-30782.4,2025-01-27 12:40:34,0.0
-13486.4,5280.4,-9526.0,-7759.6,5984.4,-30814.4,2025-01-27 12:40:34,0.0
-12854.4,4976.4,-9674.0,-5801.6,7515.4,-31346.4,2025-01-27 12:40:34,0.0
-13158.4,5012.4,-11174.0,-4801.6,8264.4,-32125.4,2025-01-27 12:40:34,0.0
-12626.4,4980.4,-12738.0,-4781.6,8441.4,-32917.4,2025-01-27 12:40:34,0.0
-12166.4,4320.4,-13326.0,-4733.6,8179.4,-33206.4,2025-01-27 12:40:34,0.0
-12262.4,4152.4,-14214.0,-5113.6,7737.4,-33277.4,2025-01-27 12:40:34,0.0
-14262.4,4128.4,-12966.0,-5718.6,6652.4,-33029.4,2025-01-27 12:40:34,0.0
-15538.4,4448.4,-12594.0,-5638.6,4616.4,-32054.4,2025-01-27 12:40:34,0.0
-15746.4,4076.4,-13266.0,-5891.6,1738.3999999999996,-31181.4,2025-01-27 12:40:34,0.0
-15574.4,4072.4,-15214.0,-6698.6,438.39999999999964,-30961.4,2025-01-27 12:40:34,0.0
-15866.4,4000.4,-15174.0,-7693.6,1764.3999999999996,-30863.4,2025-01-27 12:40:34,0.0
-15114.4,3324.4,-15330.0,-8070.6,3479.3999999999996,-31268.4,2025-01-27 12:40:34,0.0
-14858.4,2848.4,-16238.0,-9390.6,5706.4,-31990.4,2025-01-27 12:40:34,0.0
-15242.4,3040.4,-15038.0,-9756.6,6781.4,-31940.4,2025-01-27 12:40:34,0.0
-16002.4,2212.4,-13682.0,-9128.6,5981.4,-30790.4,2025-01-27 12:40:34,0.0
-14922.4,2912.4,-15202.0,-9015.6,7461.4,-30928.4,2025-01-27 12:40:34,0.0
-14578.4,2556.4,-13522.0,-8567.6,7989.4,-31145.4,2025-01-27 12:40:34,0.0
-13970.4,2228.4,-13182.0,-7768.6,8128.4,-31383.4,2025-01-27 12:40:34,0.0
-14266.4,2816.4,-14290.0,-7240.6,8179.4,-31462.4,2025-01-27 12:40:34,0.0
-13326.4,2328.4,-12990.0,-6172.6,8941.4,-31620.4,2025-01-27 12:40:34,0.0
-15998.4,2444.4,-12418.0,-3948.6000000000004,9104.4,-31038.4,2025-01-27 12:40:34,0.0
-16602.4,1496.4,-14574.0,-2435.6000000000004,10281.4,-29936.4,2025-01-27 12:40:34,0.0
-16058.4,1968.4,-16766.0,-1987.6000000000004,11137.4,-29228.4,2025-01-27 12:40:34,0.0
-15414.4,3556.4,-16718.0,-3075.6000000000004,10980.4,-29119.4,2025-01-27 12:40:34,0.0
-14670.4,4932.4,-15614.0,-4305.6,9528.4,-29397.4,2025-01-27 12:40:34,0.0
-14018.4,5640.4,-14846.0,-6432.6,7308.4,-29208.4,2025-01-27 12:40:34,0.0
-13530.4,5532.4,-14718.0,-8557.6,4616.4,-29000.4,2025-01-27 12:40:34,0.0
-13970.4,4656.4,-14838.0,-10479.6,2535.3999999999996,-29244.4,2025-01-27 12:40:34,0.0
-13838.4,4072.4,-14410.0,-10958.6,1526.3999999999996,-29958.4,2025-01-27 12:40:34,0.0
-14802.4,4304.4,-15670.0,-11632.6,421.39999999999964,-30072.4,2025-01-27 12:40:34,0.0
-14918.4,4080.4,-12206.0,-10523.6,-2113.6000000000004,-29998.4,2025-01-27 12:40:34,0.0
-15578.4,4080.4,-11690.0,-6730.6,827.3999999999996,-29680.4,2025-01-27 12:40:34,0.0
-15606.4,4548.4,-13310.0,-4889.6,4374.4,-28726.4,2025-01-27 12:40:34,0.0
-14834.4,5808.4,-15694.0,-4732.6,7041.4,-27708.4,2025-01-27 12:40:34,0.0
-12466.4,6284.4,-16514.0,-5867.6,8983.4,-28225.4,2025-01-27 12:40:34,0.0
-12082.4,6652.4,-15502.0,-6161.6,9862.4,-29431.4,2025-01-27 12:40:34,0.0
-11738.4,6320.4,-15758.0,-7256.6,9714.4,-29916.4,2025-01-27 12:40:34,0.0
-11670.4,6292.4,-15106.0,-7793.6,8413.4,-29649.4,2025-01-27 12:40:34,0.0
-13406.4,5948.4,-14318.0,-7730.6,7610.4,-28815.4,2025-01-27 12:40:34,0.0
-13934.4,5512.4,-14630.0,-7346.6,6643.4,-27978.4,2025-01-27 12:40:34,0.0
-15038.4,5644.4,-16298.0,-7893.6,3389.3999999999996,-27771.4,2025-01-27 12:40:34,0.0
-15106.4,5208.4,-16750.0,-9839.6,-4121.6,-27190.4,2025-01-27 12:40:34,0.0
-14086.4,5204.4,-13530.0,-9801.6,-4434.6,-27267.4,2025-01-27 12:40:34,0.0
-12678.4,5232.4,-11506.0,-7694.6,319.39999999999964,-28139.4,2025-01-27 12:40:34,0.0
-13098.4,5820.4,-13370.0,-6146.6,5098.4,-29590.4,2025-01-27 12:40:34,0.0
-15142.4,6024.4,-16114.0,-6466.6,5854.4,-29943.4,2025-01-27 12:40:35,0.0
-15178.4,6324.4,-16482.0,-7086.6,5960.4,-29748.4,2025-01-27 12:40:35,0.0
-14598.4,6856.4,-16470.0,-7833.6,6418.4,-29714.4,2025-01-27 12:40:35,0.0
-15418.4,7344.4,-14698.0,-7844.6,4808.4,-29771.4,2025-01-27 12:40:35,0.0
-13858.4,6404.4,-16850.0,-8300.6,3693.3999999999996,-30273.4,2025-01-27 12:40:35,0.0
-13398.4,5748.4,-15230.0,-8552.6,5785.4,-30603.4,2025-01-27 12:40:35,0.0
-12994.4,5460.4,-15818.0,-8563.6,9016.4,-31018.4,2025-01-27 12:40:35,0.0
-12938.4,6080.4,-16758.0,-8178.6,9210.4,-31203.4,2025-01-27 12:40:35,0.0
-14110.4,6192.4,-16210.0,-8247.6,7578.4,-31161.4,2025-01-27 12:40:35,0.0
-15106.4,6208.4,-14578.0,-8403.6,3698.3999999999996,-30561.4,2025-01-27 12:40:35,0.0
-14766.4,5592.4,-15022.0,-8545.6,690.3999999999996,-30158.4,2025-01-27 12:40:35,0.0
-15594.4,5004.4,-15630.0,-8215.6,363.39999999999964,-29812.4,2025-01-27 12:40:35,0.0
-16314.4,4884.4,-15810.0,-7849.6,1662.3999999999996,-29564.4,2025-01-27 12:40:35,0.0
-15830.4,4428.4,-15778.0,-7894.6,5143.4,-29849.4,2025-01-27 12:40:35,0.0
-16514.4,4552.4,-15702.0,-8367.6,6409.4,-29915.4,2025-01-27 12:40:35,0.0
-15014.4,3660.4,-14862.0,-8508.6,7083.4,-30243.4,2025-01-27 12:40:35,0.0
-14246.4,3604.4,-15250.0,-8554.6,6856.4,-30310.4,2025-01-27 12:40:35,0.0
-13742.4,3948.4,-15410.0,-8669.6,6491.4,-30372.4,2025-01-27 12:40:35,0.0
-13574.4,4124.4,-15990.0,-8804.6,5678.4,-30248.4,2025-01-27 12:40:35,0.0
-13210.4,4524.4,-16210.0,-9146.6,5792.4,-30100.4,2025-01-27 12:40:35,0.0
-13094.4,4684.4,-16678.0,-9642.6,5788.4,-30244.4,2025-01-27 12:40:35,0.0
-14194.4,4252.4,-16638.0,-11532.6,545.3999999999996,-29198.4,2025-01-27 12:40:35,0.0
-12522.4,4912.4,-15030.0,-10590.6,-31.600000000000364,-29321.4,2025-01-27 12:40:35,0.0
-12474.4,5440.4,-15830.0,-9800.6,1395.3999999999996,-30162.4,2025-01-27 12:40:35,0.0
-12878.4,5752.4,-15898.0,-9270.6,2995.3999999999996,-30861.4,2025-01-27 12:40:35,0.0
-14494.4,5352.4,-16610.0,-9240.6,2873.3999999999996,-30913.4,2025-01-27 12:40:35,0.0
-15150.4,4976.4,-15846.0,-9085.6,2073.3999999999996,-30417.4,2025-01-27 12:40:35,0.0
-15110.4,4860.4,-15914.0,-8369.6,2521.3999999999996,-29665.4,2025-01-27 12:40:35,0.0
-15246.4,4336.4,-14674.0,-8103.6,3133.3999999999996,-29520.4,2025-01-27 12:40:35,0.0
-14698.4,4332.4,-14234.0,-7440.6,4132.4,-30014.4,2025-01-27 12:40:35,0.0
-14702.4,4092.4,-14638.0,-6879.6,4889.4,-30446.4,2025-01-27 12:40:35,0.0
-14382.4,4096.4,-14526.0,-6406.6,5096.4,-30667.4,2025-01-27 12:40:35,0.0
-13478.4,3992.4,-14966.0,-5996.6,5071.4,-30843.4,2025-01-27 12:40:35,0.0
-13438.4,4208.4,-15286.0,-5966.6,5059.4,-30843.4,2025-01-27 12:40:35,0.0
-14058.4,4328.4,-15690.0,-6167.6,4211.4,-30289.4,2025-01-27 12:40:35,0.0
-14450.4,4324.4,-15358.0,-6656.6,2651.3999999999996,-29677.4,2025-01-27 12:40:35,0.0
-14574.4,4380.4,-16062.0,-6986.6,1678.3999999999996,-29297.4,2025-01-27 12:40:35,0.0
-15602.4,4956.4,-16302.0,-7628.6,511.39999999999964,-29504.4,2025-01-27 12:40:35,0.0
-14834.4,4560.4,-16366.0,-7693.6,2746.3999999999996,-29467.4,2025-01-27 12:40:35,0.0
-14894.4,4560.4,-15638.0,-7657.6,4449.4,-29654.4,2025-01-27 12:40:35,0.0
-14370.4,4584.4,-15138.0,-7445.6,5492.4,-29759.4,2025-01-27 12:40:35,
-14030.4,4556.4,-14790.0,-7150.6,5837.4,-29809.4,2025-01-27 12:40:35,0.0
-13942.4,4432.4,-14294.0,-6854.6,5755.4,-29865.4,2025-01-27 12:40:35,0.0
-13558.4,4444.4,-14442.0,-6412.6,5037.4,-29831.4,2025-01-27 12:40:35,0.0
-13834.4,4708.4,-14526.0,-6238.6,3802.3999999999996,-29787.4,2025-01-27 12:40:35,0.0
-14202.4,4808.4,-14730.0,-6425.6,2338.3999999999996,-29742.4,2025-01-27 12:40:35,0.0
-14626.4,4704.4,-14426.0,-6611.6,2087.3999999999996,-29761.4,2025-01-27 12:40:35,0.0
-14666.4,4820.4,-14786.0,-6531.6,2969.3999999999996,-29677.4,2025-01-27 12:40:35,0.0
-14550.4,4900.4,-14946.0,-6509.6,4396.4,-29594.4,2025-01-27 12:40:35,0.0
-14254.4,5064.4,-15110.0,-6636.6,5228.4,-29551.4,2025-01-27 12:40:35,0.0
-14026.4,5132.4,-15026.0,-6954.6,5480.4,-29517.4,2025-01-27 12:40:35,0.0
-13938.4,5032.4,-14998.0,-7219.6,5015.4,-29512.4,2025-01-27 12:40:35,0.0
-13854.4,5256.4,-15126.0,-7355.6,4158.4,-29452.4,2025-01-27 12:40:35,0.0
-14098.4,5452.4,-15226.0,-7421.6,3317.3999999999996,-29380.4,2025-01-27 12:40:35,0.0
-14446.4,5260.4,-15258.0,-7479.6,2444.3999999999996,-29381.4,2025-01-27 12:40:35,0.0
-15142.4,5372.4,-15254.0,-7350.6,1945.3999999999996,-29388.4,2025-01-27 12:40:35,0.0
-15090.4,5104.4,-15154.0,-7042.6,2361.3999999999996,-29531.4,2025-01-27 12:40:35,0.0
-14658.4,5160.4,-15458.0,-6839.6,3491.3999999999996,-29600.4,2025-01-27 12:40:35,0.0
-14682.4,5432.4,-15290.0,-6697.6,4592.4,-29636.4,2025-01-27 12:40:35,0.0
-14502.4,5676.4,-15318.0,-6776.6,5127.4,-29609.4,2025-01-27 12:40:35,0.0
-14306.4,5828.4,-15514.0,-6993.6,5339.4,-29583.4,2025-01-27 12:40:35,0.0
-14146.4,5880.4,-15418.0,-7206.6,5374.4,-29543.4,2025-01-27 12:40:35,0.0
-13802.4,5736.4,-14926.0,-7353.6,4909.4,-29580.4,2025-01-27 12:40:35,0.0
-13250.4,5804.4,-15006.0,-7425.6,4340.4,-29699.4,2025-01-27 12:40:36,0.0
-13238.4,5940.4,-15254.0,-7477.6,4101.4,-29761.4,2025-01-27 12:40:36,0.0
-13590.4,6032.4,-15218.0,-7463.6,3963.3999999999996,-29772.4,2025-01-27 12:40:36,0.0
-14050.4,6272.4,-15382.0,-7415.6,3811.3999999999996,-29609.4,2025-01-27 12:40:36,0.0
-14466.4,6328.4,-15750.0,-7479.6,3500.3999999999996,-29383.4,2025-01-27 12:40:36,0.0
-14798.4,6220.4,-15866.0,-7409.6,3297.3999999999996,-29224.4,2025-01-27 12:40:36,0.0
-14950.4,6148.4,-15574.0,-7294.6,3301.3999999999996,-29181.4,2025-01-27 12:40:36,0.0
-14726.4,6200.4,-15510.0,-7227.6,3493.3999999999996,-29235.4,2025-01-27 12:40:36,0.0
-14566.4,6336.4,-15418.0,-7225.6,3957.3999999999996,-29424.4,2025-01-27 12:40:36,0.0
-14342.4,6208.4,-15378.0,-7332.6,4619.4,-29670.4,2025-01-27 12:40:36,0.0
-14010.4,6020.4,-15402.0,-7253.6,4944.4,-29820.4,2025-01-27 12:40:36,0.0
-13734.4,5928.4,-15786.0,-7191.6,5103.4,-30020.4,2025-01-27 12:40:36,0.0
-13902.4,5880.4,-15590.0,-7109.6,4645.4,-30035.4,2025-01-27 12:40:36,0.0
-13526.4,5924.4,-16006.0,-7179.6,3770.3999999999996,-30044.4,2025-01-27 12:40:36,0.0
-13450.4,5964.4,-16478.0,-7325.6,3026.3999999999996,-30056.4,2025-01-27 12:40:36,0.0
-13818.4,5848.4,-16262.0,-7759.6,2288.3999999999996,-30030.4,2025-01-27 12:40:36,0.0
-13794.4,5952.4,-16434.0,-8112.6,1533.3999999999996,-29839.4,2025-01-27 12:40:36,0.0
-14026.4,5876.4,-16310.0,-8427.6,1254.3999999999996,-29714.4,2025-01-27 12:40:36,0.0
-14538.4,5316.4,-17054.0,-9146.6,1325.3999999999996,-29505.4,2025-01-27 12:40:36,0.0
-14626.4,5180.4,-16446.0,-9447.6,519.3999999999996,-29360.4,2025-01-27 12:40:36,0.0
-13590.4,5276.4,-15754.0,-8969.6,1627.3999999999996,-29750.4,2025-01-27 12:40:36,0.0
-14122.4,5592.4,-15834.0,-8876.6,2477.3999999999996,-30185.4,2025-01-27 12:40:36,0.0
-14170.4,5828.4,-16074.0,-8861.6,2909.3999999999996,-30341.4,2025-01-27 12:40:36,0.0
-13822.4,6176.4,-16574.0,-8396.6,1845.3999999999996,-30278.4,2025-01-27 12:40:36,0.0
-13778.4,5904.4,-16670.0,-8634.6,-473.60000000000036,-30312.4,2025-01-27 12:40:36,0.0
-14114.4,5736.4,-15370.0,-9697.6,79.39999999999964,-30184.4,2025-01-27 12:40:36,0.0
-14078.4,5712.4,-14638.0,-10490.6,1991.3999999999996,-30576.4,2025-01-27 12:40:36,0.0
-15142.4,5400.4,-13562.0,-10869.6,2823.3999999999996,-30866.4,2025-01-27 12:40:36,0.0
-14998.4,5892.4,-13334.0,-10268.6,3016.3999999999996,-30679.4,2025-01-27 12:40:36,0.0
-15202.4,5556.4,-12842.0,-9591.6,1805.3999999999996,-30694.4,2025-01-27 12:40:36,0.0
-15122.4,5356.4,-12022.0,-8951.6,962.3999999999996,-30766.4,2025-01-27 12:40:36,0.0
-14986.4,5532.4,-11654.0,-8361.6,1596.3999999999996,-30907.4,2025-01-27 12:40:36,0.0
-14738.4,5152.4,-11982.0,-8201.6,3281.3999999999996,-30741.4,2025-01-27 12:40:36,0.0
-13894.4,4840.4,-11998.0,-8094.6,4663.4,-30673.4,2025-01-27 12:40:36,0.0
-13154.4,4832.4,-11938.0,-8124.6,5193.4,-30739.4,2025-01-27 12:40:36,0.0
-12822.4,4248.4,-12610.0,-8653.6,3667.3999999999996,-30451.4,2025-01-27 12:40:36,0.0
-12618.4,4440.4,-11738.0,-8508.6,2681.3999999999996,-30193.4,2025-01-27 12:40:36,0.0
-12650.4,4720.4,-12702.0,-9043.6,1636.3999999999996,-30325.4,2025-01-27 12:40:36,0.0
-13454.4,4820.4,-11246.0,-9203.6,509.39999999999964,-30093.4,2025-01-27 12:40:36,0.0
-13330.4,4884.4,-12094.0,-8845.6,570.3999999999996,-30129.4,2025-01-27 12:40:36,0.0
-13894.4,5116.4,-11834.0,-9052.6,812.3999999999996,-30038.4,2025-01-27 12:40:36,0.0
-14098.4,5332.4,-11782.0,-9305.6,1887.3999999999996,-29760.4,2025-01-27 12:40:36,0.0
-13418.4,5612.4,-11686.0,-9647.6,3307.3999999999996,-29859.4,2025-01-27 12:40:36,0.0
-13838.4,5284.4,-11814.0,-9895.6,3675.3999999999996,-30133.4,2025-01-27 12:40:36,0.0
-13662.4,4804.4,-11602.0,-9727.6,3643.3999999999996,-30283.4,2025-01-27 12:40:36,0.0
-13366.4,4752.4,-11706.0,-9370.6,4142.4,-30498.4,2025-01-27 12:40:36,0.0
-13274.4,4508.4,-11462.0,-8972.6,4766.4,-30600.4,2025-01-27 12:40:36,0.0
-13798.4,4240.4,-11250.0,-8417.6,4582.4,-30262.4,2025-01-27 12:40:36,0.0
-13178.4,4396.4,-11110.0,-7808.6,2878.3999999999996,-30140.4,2025-01-27 12:40:36,0.0
-13130.4,4560.4,-11238.0,-7886.6,1735.3999999999996,-30149.4,2025-01-27 12:40:36,0.0
-13230.4,4532.4,-11626.0,-8038.6,1261.3999999999996,-30354.4,2025-01-27 12:40:36,0.0
-13610.4,4424.4,-11842.0,-7944.6,1356.3999999999996,-30431.4,2025-01-27 12:40:36,0.0
-13550.4,4396.4,-12162.0,-7802.6,1890.3999999999996,-30669.4,2025-01-27 12:40:36,0.0
-14270.4,4000.4,-12414.0,-7933.6,1206.3999999999996,-30472.4,2025-01-27 12:40:36,0.0
-13774.4,4544.4,-11438.0,-7826.6,934.3999999999996,-30309.4,2025-01-27 12:40:36,0.0
-13870.4,4128.4,-12450.0,-8131.6,665.3999999999996,-30353.4,2025-01-27 12:40:36,0.0
-14254.4,4448.4,-10066.0,-8412.6,139.39999999999964,-30048.4,2025-01-27 12:40:36,0.0
-13610.4,4556.4,-10558.0,-8057.6,1188.3999999999996,-30025.4,2025-01-27 12:40:36,0.0
-13786.4,4180.4,-11810.0,-8053.6,2089.3999999999996,-30059.4,2025-01-27 12:40:36,0.0
-13646.4,4096.4,-11594.0,-8101.6,2380.3999999999996,-29960.4,2025-01-27 12:40:36,0.0
-13366.4,4132.4,-11538.0,-7940.6,2990.3999999999996,-29902.4,2025-01-27 12:40:37,0.0
-13122.4,4272.4,-11530.0,-7694.6,3449.3999999999996,-29953.4,2025-01-27 12:40:37,0.0
-13158.4,4564.4,-11610.0,-7682.6,3213.3999999999996,-30069.4,2025-01-27 12:40:37,0.0
-13326.4,4516.4,-11674.0,-8396.6,1042.3999999999996,-30001.4,2025-01-27 12:40:37,0.0
-13210.4,4444.4,-12490.0,-9077.6,-1241.6000000000004,-30206.4,2025-01-27 12:40:37,0.0
-12678.4,4264.4,-10414.0,-8253.6,-2370.6000000000004,-29960.4,2025-01-27 12:40:37,0.0
-12634.4,4144.4,-10898.0,-7648.6,-2183.6000000000004,-30128.4,2025-01-27 12:40:37,0.0
-12366.4,4068.4,-10974.0,-7330.6,-1070.6000000000004,-30204.4,2025-01-27 12:40:37,0.0
-12878.4,3908.4,-11050.0,-7232.6,-164.60000000000036,-30139.4,2025-01-27 12:40:37,0.0
-13094.4,4336.4,-11102.0,-6970.6,39.399999999999636,-29848.4,2025-01-27 12:40:37,0.0
-12766.4,4024.4,-10494.0,-6871.6,219.39999999999964,-29717.4,2025-01-27 12:40:37,0.0
-12598.4,3836.4,-10494.0,-6702.6,1153.3999999999996,-30340.4,2025-01-27 12:40:37,0.0
-12706.4,3872.4,-10134.0,-6537.6,1216.3999999999996,-30881.4,2025-01-27 12:40:37,0.0
-12758.4,4100.4,-9874.0,-6458.6,631.3999999999996,-30898.4,2025-01-27 12:40:37,0.0
-13366.4,3936.4,-10134.0,-6620.6,-332.60000000000036,-30367.4,2025-01-27 12:40:37,0.0
-12322.4,4196.4,-9242.0,-6136.6,118.39999999999964,-30031.4,2025-01-27 12:40:37,0.0
-12522.4,4092.4,-8774.0,-6223.6,214.39999999999964,-29903.4,2025-01-27 12:40:37,0.0
-12466.4,4252.4,-8770.0,-6014.6,494.39999999999964,-30219.4,2025-01-27 12:40:37,
-12258.4,4624.4,-8702.0,-6006.6,1195.3999999999996,-30463.4,2025-01-27 12:40:37,0.0
-12962.4,4552.4,-9434.0,-6610.6,716.3999999999996,-30337.4,2025-01-27 12:40:37,0.0
-12146.4,4328.4,-8574.0,-7098.6,-268.60000000000036,-30013.4,2025-01-27 12:40:37,0.0
-11118.4,4240.4,-9754.0,-7075.6,6.399999999999636,-29811.4,2025-01-27 12:40:37,0.0
-10974.4,4104.4,-10626.0,-7286.6,569.3999999999996,-29779.4,2025-01-27 12:40:37,0.0
-11390.4,4372.4,-11382.0,-7802.6,521.3999999999996,-29829.4,2025-01-27 12:40:37,0.0
-10986.4,4668.4,-11218.0,-8137.6,365.39999999999964,-29511.4,2025-01-27 12:40:37,0.0
-11834.4,5412.4,-10718.0,-8430.6,-124.60000000000036,-28824.4,2025-01-27 12:40:37,0.0
-11254.4,4492.4,-11934.0,-8555.6,-345.60000000000036,-28202.4,2025-01-27 12:40:37,0.0
-10998.4,4416.4,-11766.0,-9186.6,-1364.6000000000004,-27798.4,2025-01-27 12:40:37,0.0
-10758.4,4316.4,-11962.0,-10097.6,-4538.6,-27617.4,2025-01-27 12:40:37,0.0
-9834.4,4248.4,-11910.0,-10746.6,-8296.6,-27754.4,2025-01-27 12:40:37,0.0
-7942.4,4572.4,-11790.0,-10668.6,-11394.6,-28393.4,2025-01-27 12:40:37,0.0
-6886.4,4504.4,-11150.0,-9783.6,-11662.6,-28765.4,2025-01-27 12:40:37,0.0
-5006.4,3764.4,-11498.0,-7750.6,-12932.6,-29266.4,2025-01-27 12:40:37,0.0
-4750.4,3484.4,-13498.0,-6412.6,-14484.6,-29625.4,2025-01-27 12:40:37,0.0
-3754.4,2908.4,-13934.0,-5236.6,-16295.6,-29172.4,2025-01-27 12:40:37,0.0
-2618.4,2920.4,-14834.0,-4081.6000000000004,-18386.6,-28935.4,2025-01-27 12:40:37,0.0
-1878.4,3128.4,-15498.0,-3070.6000000000004,-19101.6,-28303.4,2025-01-27 12:40:37,0.0
-50.39999999999998,3128.4,-16014.0,-2349.6000000000004,-18688.6,-27357.4,2025-01-27 12:40:37,0.0
2049.6,3212.4,-16734.0,-1982.6000000000004,-18262.6,-27942.4,2025-01-27 12:40:37,0.0
2377.6,3044.4,-16574.0,-1648.6000000000004,-18082.6,-29264.4,2025-01-27 12:40:37,0.0
2217.6,3056.4,-16286.0,-1268.6000000000004,-18257.6,-30265.4,2025-01-27 12:40:37,0.0
2141.6,3064.4,-16322.0,-882.6000000000004,-18568.6,-31252.4,2025-01-27 12:40:37,0.0
2069.6,3036.4,-16538.0,-754.6000000000004,-18928.6,-32272.4,2025-01-27 12:40:37,0.0
2017.6,3128.4,-16574.0,-840.6000000000004,-19201.6,-33120.4,2025-01-27 12:40:37,0.0
1789.6,3008.4,-16594.0,-1119.6000000000004,-19494.6,-33599.4,2025-01-27 12:40:37,0.0
1465.6,3092.4,-16626.0,-1549.6000000000004,-19655.6,-33468.4,2025-01-27 12:40:37,0.0
1329.6,3328.4,-16934.0,-2349.6000000000004,-19407.6,-32632.4,2025-01-27 12:40:37,0.0
1357.6,3428.4,-17134.0,-3390.6000000000004,-18767.6,-31572.4,2025-01-27 12:40:37,0.0
2105.6,3388.4,-17034.0,-4435.6,-17599.6,-30934.4,2025-01-27 12:40:37,0.0
2261.6,3484.4,-16962.0,-5371.6,-16269.6,-30820.4,2025-01-27 12:40:37,0.0
2137.6,3412.4,-16722.0,-6034.6,-14710.6,-30390.4,2025-01-27 12:40:37,0.0
2093.6,3404.4,-16502.0,-6487.6,-13008.6,-29644.4,2025-01-27 12:40:37,0.0
2221.6,10068.4,-25154.0,-11991.6,-11951.6,-29932.4,2025-01-27 12:40:37,0.0
11493.6,23768.4,4230.0,-40037.6,-59.600000000000364,-21645.4,2025-01-27 12:40:37,0.0
32140.6,-2615.6,14569.0,-40037.6,-16974.6,-13207.400000000001,2025-01-27 12:40:37,0.0
32140.6,-22251.6,14569.0,-40037.6,-952.6000000000004,-33000.4,2025-01-27 12:40:37,0.0
27857.6,-29231.6,14569.0,-10850.6,36905.4,-33903.4,2025-01-27 12:40:37,0.0
28721.6,-21799.6,14569.0,25497.4,36905.4,-37151.4,2025-01-27 12:40:37,0.0
7861.6,-1687.6,14569.0,25497.4,22301.4,-43000.4,2025-01-27 12:40:37,0.0
1497.6,10116.4,-574.0,24345.4,6646.4,-39457.4,2025-01-27 12:40:37,0.0
-1302.4,16700.4,-16250.0,10560.4,-841.6000000000004,-37061.4,2025-01-27 12:40:37,0.0
2501.6,12404.4,-12794.0,-2912.6000000000004,-1607.6000000000004,-33604.4,2025-01-27 12:40:38,0.0
4205.6,8964.4,-11902.0,-9134.6,1648.3999999999996,-31603.4,2025-01-27 12:40:38,0.0
4681.6,7328.4,-9670.0,-13843.6,7531.4,-31227.4,2025-01-27 12:40:38,0.0
2801.6,6364.4,-6442.0,-15391.6,10660.4,-30638.4,2025-01-27 12:40:38,0.0
2009.6,5084.4,-2666.0,-15613.6,11010.4,-30581.4,2025-01-27 12:40:38,0.0
1193.6,3836.4,638.0,-14185.6,9892.4,-30588.4,2025-01-27 12:40:38,0.0
557.6,3140.4,2802.0,-11092.6,7933.4,-30306.4,2025-01-27 12:40:38,0.0
269.6,3444.4,3170.0,-7935.6,5486.4,-30099.4,2025-01-27 12:40:38,0.0
33.60000000000002,4176.4,1302.0,-5642.6,3332.3999999999996,-30255.4,2025-01-27 12:40:38,0.0
1017.6,5952.4,-846.0,-5892.6,3109.3999999999996,-30068.4,2025-01-27 12:40:38,0.0
2421.6,6168.4,-722.0,-6841.6,3889.3999999999996,-30026.4,2025-01-27 12:40:38,0.0
2181.6,5212.4,666.0,-7480.6,4762.4,-30085.4,2025-01-27 12:40:38,0.0
1997.6,5160.4,694.0,-7549.6,4651.4,-30139.4,2025-01-27 12:40:38,0.0
1745.6,5204.4,714.0,-7661.6,4533.4,-30027.4,2025-01-27 12:40:38,0.0
1689.6,4808.4,642.0,-7545.6,4562.4,-30088.4,2025-01-27 12:40:38,0.0
2013.6,4932.4,90.0,-7341.6,4777.4,-30199.4,2025-01-27 12:40:38,0.0
1333.6,4948.4,-430.0,-7437.6,4837.4,-30090.4,2025-01-27 12:40:38,0.0
1113.6,5220.4,194.0,-7511.6,4172.4,-29976.4,2025-01-27 12:40:38,0.0
1833.6,4996.4,570.0,-7369.6,4021.3999999999996,-29976.4,2025-01-27 12:40:38,0.0
2197.6,5068.4,370.0,-7390.6,4240.4,-29998.4,2025-01-27 12:40:38,0.0
1757.6,5068.4,422.0,-7418.6,4377.4,-30013.4,2025-01-27 12:40:38,0.0
1713.6,5136.4,406.0,-7403.6,4287.4,-30043.4,2025-01-27 12:40:38,0.0
1881.6,5052.4,98.0,-7449.6,4234.4,-30010.4,2025-01-27 12:40:38,0.0
1921.6,5108.4,78.0,-7452.6,4436.4,-30015.4,2025-01-27 12:40:38,0.0
1529.6,5044.4,406.0,-7400.6,4365.4,-30025.4,2025-01-27 12:40:38,0.0
1713.6,5200.4,358.0,-7403.6,4269.4,-30008.4,2025-01-27 12:40:38,0.0
1809.6,5080.4,274.0,-7421.6,4318.4,-30013.4,2025-01-27 12:40:38,0.0
1777.6,5060.4,94.0,-7438.6,4323.4,-30025.4,2025-01-27 12:40:38,0.0
1641.6,5044.4,210.0,-7421.6,4345.4,-30022.4,2025-01-27 12:40:38,0.0
1749.6,5132.4,370.0,-7441.6,4298.4,-30011.4,2025-01-27 12:40:38,0.0
1749.6,5020.4,398.0,-7437.6,4317.4,-29999.4,2025-01-27 12:40:38,0.0
1741.6,5084.4,266.0,-7439.6,4298.4,-29996.4,2025-01-27 12:40:38,0.0
1701.6,5016.4,190.0,-7414.6,4304.4,-30021.4,2025-01-27 12:40:38,0.0
1789.6,5100.4,410.0,-7416.6,4306.4,-30040.4,2025-01-27 12:40:38,0.0
1709.6,5096.4,94.0,-7435.6,4334.4,-30023.4,2025-01-27 12:40:38,0.0
1781.6,5192.4,290.0,-7447.6,4335.4,-30008.4,2025-01-27 12:40:38,0.0
1725.6,5080.4,218.0,-7424.6,4318.4,-30044.4,2025-01-27 12:40:38,0.0
1713.6,5008.4,214.0,-7418.6,4312.4,-30002.4,2025-01-27 12:40:38,0.0
1725.6,5076.4,190.0,-7427.6,4329.4,-30005.4,2025-01-27 12:40:38,0.0
1833.6,4976.4,274.0,-7424.6,4322.4,-30016.4,2025-01-27 12:40:38,0.0
1781.6,5104.4,198.0,-7434.6,4305.4,-30003.4,2025-01-27 12:40:38,0.0
1833.6,5076.4,126.0,-7439.6,4315.4,-30020.4,2025-01-27 12:40:38,0.0
1633.6,5012.4,234.0,-7413.6,4307.4,-30000.4,2025-01-27 12:40:38,0.0
1697.6,5060.4,222.0,-7406.6,4317.4,-30022.4,2025-01-27 12:40:38,0.0
1745.6,5064.4,246.0,-7420.6,4315.4,-30021.4,2025-01-27 12:40:38,0.0
1757.6,5092.4,278.0,-7409.6,4333.4,-29998.4,2025-01-27 12:40:38,0.0
1669.6,5104.4,182.0,-7454.6,4348.4,-30002.4,2025-01-27 12:40:38,0.0
1601.6,5096.4,338.0,-7444.6,4314.4,-30030.4,2025-01-27 12:40:38,0.0
1765.6,5088.4,138.0,-7405.6,4326.4,-30008.4,2025-01-27 12:40:38,0.0
1753.6,5064.4,238.0,-7425.6,4308.4,-29995.4,2025-01-27 12:40:38,0.0
1777.6,5024.4,214.0,-7417.6,4325.4,-30018.4,2025-01-27 12:40:38,0.0
1757.6,5056.4,178.0,-7451.6,4341.4,-30029.4,2025-01-27 12:40:38,0.0
1705.6,5096.4,290.0,-7436.6,4309.4,-30025.4,2025-01-27 12:40:38,0.0
1745.6,5080.4,266.0,-7440.6,4334.4,-30019.4,2025-01-27 12:40:38,0.0
1801.6,5140.4,370.0,-7439.6,4320.4,-30021.4,2025-01-27 12:40:38,0.0
1757.6,5048.4,290.0,-7413.6,4280.4,-30028.4,2025-01-27 12:40:38,0.0
1697.6,5120.4,210.0,-7425.6,4325.4,-30030.4,2025-01-27 12:40:38,
