acceleration_x,acceleration_y,acceleration_z,gyroscope_x,gyroscope_y,gyroscope_z,timestamp,label
-22.399999999999636,48.39999999999998,-90.0,7.800000000000011,-77.9,-17.599999999999994,2025-01-29 15:08:51,0.0
5.600000000000364,36.39999999999998,-6.0,4.800000000000011,-40.900000000000006,-22.599999999999994,2025-01-29 15:08:51,0.0
53.600000000000364,32.39999999999998,34.0,-33.19999999999999,99.1,-13.599999999999994,2025-01-29 15:08:51,0.0
33.600000000000364,-27.600000000000023,-50.0,-27.19999999999999,133.1,14.400000000000006,2025-01-29 15:08:51,0.0
-126.39999999999964,-87.60000000000002,-22.0,-35.19999999999999,126.1,-0.5999999999999943,2025-01-29 15:08:51,0.0
53.600000000000364,-39.60000000000002,130.0,-2.1999999999999886,32.099999999999994,35.400000000000006,2025-01-29 15:08:51,0.0
-22.399999999999636,-39.60000000000002,142.0,23.80000000000001,-72.9,5.400000000000006,2025-01-29 15:08:51,0.0
1.6000000000003638,-7.600000000000023,6.0,18.80000000000001,-72.9,5.400000000000006,2025-01-29 15:08:51,0.0
9.600000000000364,72.39999999999998,86.0,-4.199999999999989,-81.9,2.4000000000000057,2025-01-29 15:08:51,0.0
13.600000000000364,12.399999999999977,-230.0,46.80000000000001,-43.900000000000006,-8.599999999999994,2025-01-29 15:08:51,0.0
5.600000000000364,-87.60000000000002,-18.0,33.80000000000001,26.099999999999994,15.400000000000006,2025-01-29 15:08:51,0.0
49.600000000000364,-87.60000000000002,22.0,63.80000000000001,-3.9000000000000057,14.400000000000006,2025-01-29 15:08:51,0.0
-10.399999999999636,-39.60000000000002,34.0,40.80000000000001,-44.900000000000006,12.400000000000006,2025-01-29 15:08:52,0.0
-30.399999999999636,48.39999999999998,-86.0,68.80000000000001,-13.900000000000006,17.400000000000006,2025-01-29 15:08:52,0.0
5.600000000000364,28.399999999999977,-122.0,30.80000000000001,22.099999999999994,29.400000000000006,2025-01-29 15:08:52,0.0
-50.399999999999636,132.39999999999998,18.0,50.80000000000001,2.0999999999999943,23.400000000000006,2025-01-29 15:08:52,0.0
57.600000000000364,12.399999999999977,46.0,30.80000000000001,21.099999999999994,22.400000000000006,2025-01-29 15:08:52,0.0
-46.399999999999636,-63.60000000000002,102.0,55.80000000000001,17.099999999999994,10.400000000000006,2025-01-29 15:08:52,0.0
73.60000000000036,-11.600000000000023,66.0,61.80000000000001,-3.9000000000000057,20.400000000000006,2025-01-29 15:08:52,0.0
149.60000000000036,0.39999999999997726,22.0,67.80000000000001,8.099999999999994,7.400000000000006,2025-01-29 15:08:52,0.0
57.600000000000364,-3.6000000000000227,66.0,21.80000000000001,37.099999999999994,-6.599999999999994,2025-01-29 15:08:52,0.0
61.600000000000364,44.39999999999998,38.0,39.80000000000001,56.099999999999994,-3.5999999999999943,2025-01-29 15:08:52,0.0
33.600000000000364,-59.60000000000002,54.0,25.80000000000001,-39.900000000000006,17.400000000000006,2025-01-29 15:08:52,0.0
29.600000000000364,40.39999999999998,-210.0,27.80000000000001,-65.9,27.400000000000006,2025-01-29 15:08:52,0.0
-366.39999999999964,124.39999999999998,-294.0,316.8,372.1,440.4,2025-01-29 15:08:52,0.0
-58.399999999999636,856.4,-110.0,285.8,341.1,536.4,2025-01-29 15:08:52,0.0
521.6000000000004,792.4,-18.0,57.80000000000001,470.1,361.4,2025-01-29 15:08:52,0.0
261.60000000000036,-15.600000000000023,70.0,-40.19999999999999,322.1,47.400000000000006,2025-01-29 15:08:52,0.0
-310.39999999999964,-355.6,474.0,224.8,-79.9,14.400000000000006,2025-01-29 15:08:52,0.0
-502.39999999999964,-427.6,406.0,544.8,-365.9,137.4,2025-01-29 15:08:52,0.0
-338.39999999999964,204.39999999999998,-14.0,541.8,-415.9,349.4,2025-01-29 15:08:52,0.0
109.60000000000036,916.4,194.0,379.8,-293.9,315.4,2025-01-29 15:08:52,0.0
265.60000000000036,1212.4,530.0,201.8,-289.9,238.4,2025-01-29 15:08:52,0.0
-66.39999999999964,1000.4,526.0,-43.19999999999999,-331.9,84.4,2025-01-29 15:08:52,0.0
-190.39999999999964,468.4,662.0,-103.19999999999999,-497.9,-24.599999999999994,2025-01-29 15:08:52,0.0
-262.39999999999964,-143.60000000000002,882.0,-70.19999999999999,-711.9,-241.6,2025-01-29 15:08:52,0.0
-482.39999999999964,-303.6,1146.0,262.8,-999.9,-175.6,2025-01-29 15:08:52,0.0
-170.39999999999964,252.39999999999998,926.0,739.8,-1095.9,-18.599999999999994,2025-01-29 15:08:52,0.0
385.60000000000036,736.4,510.0,834.8,-1138.9,-75.6,2025-01-29 15:08:52,0.0
445.60000000000036,868.4,386.0,674.8,-863.9,-258.6,2025-01-29 15:08:52,0.0
389.60000000000036,668.4,622.0,694.8,-220.9,-345.6,2025-01-29 15:08:52,0.0
165.60000000000036,368.4,1086.0,982.8,173.1,-347.6,2025-01-29 15:08:52,0.0
-62.399999999999636,328.4,1254.0,1235.8,435.1,-381.6,2025-01-29 15:08:52,0.0
-390.39999999999964,392.4,1194.0,1473.8,459.1,-458.6,2025-01-29 15:08:52,0.0
-194.39999999999964,568.4,1278.0,1724.8,280.1,-492.6,2025-01-29 15:08:52,0.0
-406.39999999999964,348.4,1110.0,1946.8,158.1,-494.6,2025-01-29 15:08:52,0.0
-562.3999999999996,356.4,814.0,2238.8,441.1,-545.6,2025-01-29 15:08:52,0.0
-838.3999999999996,-79.60000000000002,518.0,2585.8,484.1,-570.6,2025-01-29 15:08:52,0.0
-942.3999999999996,-315.6,-698.0,2984.8,-1157.9,-503.6,2025-01-29 15:08:52,0.0
-634.3999999999996,-263.6,-642.0,3099.8,-3720.9,-616.6,2025-01-29 15:08:52,0.0
-78.39999999999964,384.4,294.0,3177.8,-5224.9,-918.6,2025-01-29 15:08:52,0.0
453.60000000000036,820.4,662.0,3017.8,-5343.9,-1049.6,2025-01-29 15:08:52,0.0
917.6000000000004,864.4,510.0,2706.8,-4784.9,-1261.6,2025-01-29 15:08:52,0.0
1321.6000000000004,988.4,642.0,2326.8,-3566.9,-1541.6,2025-01-29 15:08:52,0.0
833.6000000000004,964.4,138.0,1856.8,-1769.9,-1845.6,2025-01-29 15:08:52,0.0
357.60000000000036,504.4,546.0,1523.8,139.1,-2127.6,2025-01-29 15:08:52,0.0
-150.39999999999964,-215.60000000000002,918.0,1525.8,875.1,-2316.6,2025-01-29 15:08:52,0.0
-534.3999999999996,-875.6,898.0,1497.8,219.1,-2334.6,2025-01-29 15:08:52,0.0
-502.39999999999964,-1051.6,1378.0,1534.8,-1530.9,-2112.6,2025-01-29 15:08:52,0.0
-158.39999999999964,-935.6,1678.0,1479.8,-2235.9,-1967.6,2025-01-29 15:08:52,0.0
301.60000000000036,-995.6,2162.0,1158.8,-2106.9,-1562.6,2025-01-29 15:08:52,0.0
793.6000000000004,-1131.6,2290.0,1016.8,-1822.9,-1190.6,2025-01-29 15:08:53,0.0
901.6000000000004,-1471.6,2122.0,972.8,-1349.9,-841.6,2025-01-29 15:08:53,0.0
789.6000000000004,-1763.6,2822.0,996.8,-259.9,-686.6,2025-01-29 15:08:53,0.0
461.60000000000036,-1651.6,3534.0,910.8,1507.1,-744.6,2025-01-29 15:08:53,0.0
-494.39999999999964,-1591.6,3606.0,441.8,2944.1,-1050.6,2025-01-29 15:08:53,0.0
-946.3999999999996,-1607.6,3430.0,85.80000000000001,2525.1,-1360.6,2025-01-29 15:08:53,0.0
-1158.3999999999996,-1591.6,2958.0,-126.19999999999999,954.1,-1564.6,2025-01-29 15:08:53,0.0
-954.3999999999996,-1727.6,3082.0,-254.2,-417.9,-1564.6,2025-01-29 15:08:53,0.0
-574.3999999999996,-1995.6,3006.0,-259.2,-972.9,-1461.6,2025-01-29 15:08:53,0.0
-30.399999999999636,-2195.6,2746.0,-188.2,-1186.9,-1301.6,2025-01-29 15:08:53,0.0
593.6000000000004,-2347.6,2862.0,-129.2,-1338.9,-1154.6,2025-01-29 15:08:53,0.0
893.6000000000004,-2339.6,2982.0,-136.2,-1257.9,-1141.6,2025-01-29 15:08:53,0.0
981.6000000000004,-2371.6,3074.0,-100.19999999999999,-1037.9,-1014.6,2025-01-29 15:08:53,0.0
1025.6000000000004,-2315.6,3038.0,-122.19999999999999,-608.9,-879.6,2025-01-29 15:08:53,0.0
705.6000000000004,-2123.6,2930.0,-203.2,35.099999999999994,-769.6,2025-01-29 15:08:53,0.0
293.60000000000036,-1783.6,2850.0,-512.2,704.1,-672.6,2025-01-29 15:08:53,0.0
-286.39999999999964,-1451.6,3030.0,-863.2,985.1,-558.6,2025-01-29 15:08:53,0.0
-550.3999999999996,-1275.6,3342.0,-1253.2,695.1,-375.6,2025-01-29 15:08:53,0.0
-694.3999999999996,-1351.6,3326.0,-1606.2,-44.900000000000006,6.400000000000006,2025-01-29 15:08:53,0.0
-130.39999999999964,-1359.6,3274.0,-1761.2,-646.9,517.4,2025-01-29 15:08:53,0.0
409.60000000000036,-1475.6,2666.0,-2060.2,-399.9,532.4,2025-01-29 15:08:53,0.0
545.6000000000004,-1619.6,2658.0,-2460.2,199.1,293.4,2025-01-29 15:08:53,0.0
385.60000000000036,-1571.6,2718.0,-2898.2,732.1,111.4,2025-01-29 15:08:53,0.0
73.60000000000036,-1795.6,2562.0,-3303.2,1044.1,30.400000000000006,2025-01-29 15:08:53,0.0
-190.39999999999964,-2235.6,2830.0,-3679.2,1448.1,-8.599999999999994,2025-01-29 15:08:53,0.0
-686.3999999999996,-2579.6,2906.0,-4023.2,1842.1,-45.599999999999994,2025-01-29 15:08:53,0.0
-1226.3999999999996,-2523.6,3306.0,-4304.2,1923.1,-2.5999999999999943,2025-01-29 15:08:53,0.0
-1342.3999999999996,-2623.6,3738.0,-4485.2,1511.1,-67.6,2025-01-29 15:08:53,0.0
-1658.3999999999996,-2843.6,4106.0,-4434.2,920.1,-261.6,2025-01-29 15:08:53,0.0
-2034.3999999999996,-2871.6,4070.0,-4454.2,-127.9,-115.6,2025-01-29 15:08:53,0.0
-1742.3999999999996,-2607.6,4450.0,-4449.2,-1037.9,463.4,2025-01-29 15:08:53,0.0
-994.3999999999996,-2523.6,3166.0,-4354.2,-712.9,429.4,2025-01-29 15:08:53,0.0
-1202.3999999999996,-2907.6,1566.0,-4404.2,638.1,-176.6,2025-01-29 15:08:53,0.0
-2078.3999999999996,-3623.6,1898.0,-3791.2,2283.1,-1161.6,2025-01-29 15:08:53,0.0
-3650.3999999999996,-3831.6,2498.0,-2822.2,2328.1,-1298.6,2025-01-29 15:08:53,0.0
-4678.4,-3963.6,2998.0,-1296.2,-208.9,-40.599999999999994,2025-01-29 15:08:53,0.0
-4030.3999999999996,-3891.6,2486.0,362.8,-3370.9,1166.4,2025-01-29 15:08:53,0.0
-2498.3999999999996,-3039.6,1298.0,1563.8,-5575.9,1606.4,2025-01-29 15:08:53,0.0
-1142.3999999999996,-2015.6,586.0,1973.8,-6004.9,2330.4,2025-01-29 15:08:53,
-194.39999999999964,-1455.6,-390.0,2096.8,-4576.9,3152.4,2025-01-29 15:08:53,0.0
641.6000000000004,-1267.6,-1510.0,1968.8,-2292.9,3418.4,2025-01-29 15:08:53,0.0
301.60000000000036,-1291.6,-2610.0,1609.8,-526.9,3128.4,2025-01-29 15:08:53,0.0
-250.39999999999964,-895.6,-2078.0,1288.8,-157.9,2859.4,2025-01-29 15:08:53,0.0
-310.39999999999964,-159.60000000000002,-730.0,1331.8,-451.9,2899.4,2025-01-29 15:08:53,0.0
21.600000000000364,932.4,222.0,1499.8,-1225.9,3221.4,2025-01-29 15:08:53,0.0
1549.6000000000004,2080.4,-662.0,1314.8,-2878.9,3711.4,2025-01-29 15:08:53,0.0
2461.6000000000004,2268.4,-1430.0,562.8,-3468.9,3439.4,2025-01-29 15:08:53,0.0
2865.6000000000004,2080.4,-1122.0,-365.2,-2634.9,2756.4,2025-01-29 15:08:53,0.0
2209.6000000000004,1344.4,94.0,-879.2,531.1,2204.4,2025-01-29 15:08:53,0.0
841.6000000000004,272.4,734.0,-762.2,3549.1,2119.4,2025-01-29 15:08:53,0.0
1.6000000000003638,-319.6,886.0,-274.2,4603.1,2189.4,2025-01-29 15:08:53,0.0
-746.3999999999996,-427.6,1514.0,323.8,4090.1,2292.4,2025-01-29 15:08:53,0.0
-1006.3999999999996,144.39999999999998,1854.0,1000.8,2030.1,2632.4,2025-01-29 15:08:53,0.0
-542.3999999999996,764.4,1886.0,1575.8,-263.9,3023.4,2025-01-29 15:08:53,0.0
65.60000000000036,980.4,1602.0,1884.8,-1414.9,3093.4,2025-01-29 15:08:53,0.0
573.6000000000004,1136.4,1474.0,1959.8,-1718.9,3034.4,2025-01-29 15:08:53,0.0
1025.6000000000004,1248.4,1610.0,2159.8,-1441.9,2892.4,2025-01-29 15:08:53,0.0
1349.6000000000004,1608.4,1330.0,2259.8,-1088.9,2597.4,2025-01-29 15:08:53,0.0
1557.6000000000004,1768.4,1262.0,2232.8,-883.9,2257.4,2025-01-29 15:08:53,0.0
1365.6000000000004,1832.4,1162.0,2142.8,-678.9,1898.4,2025-01-29 15:08:53,0.0
1381.6000000000004,1700.4,1510.0,2019.8,-462.9,1543.4,2025-01-29 15:08:54,0.0
1417.6000000000004,1512.4,2090.0,1919.8,-417.9,1009.4,2025-01-29 15:08:54,0.0
793.6000000000004,1268.4,2578.0,1708.8,-717.9,494.4,2025-01-29 15:08:54,0.0
329.60000000000036,1148.4,3014.0,1462.8,-1211.9,184.4,2025-01-29 15:08:54,0.0
61.600000000000364,1472.4,3286.0,1354.8,-2099.9,141.4,2025-01-29 15:08:54,0.0
249.60000000000036,1700.4,3738.0,1322.8,-3202.9,-44.599999999999994,2025-01-29 15:08:54,0.0
417.60000000000036,1960.4,3638.0,1110.8,-4478.9,-582.6,2025-01-29 15:08:54,0.0
333.60000000000036,1932.4,3214.0,598.8,-5724.9,-1199.6,2025-01-29 15:08:54,0.0
289.60000000000036,1880.4,2998.0,262.8,-6697.9,-1522.6,2025-01-29 15:08:54,0.0
233.60000000000036,1572.4,3370.0,411.8,-7459.9,-1356.6,2025-01-29 15:08:54,0.0
989.6000000000004,1436.4,4070.0,891.8,-7059.9,-948.6,2025-01-29 15:08:54,0.0
1677.6000000000004,1448.4,3930.0,1217.8,-5258.9,-826.6,2025-01-29 15:08:54,0.0
1461.6000000000004,1608.4,3246.0,1427.8,-2365.9,-1001.6,2025-01-29 15:08:54,0.0
521.6000000000004,1260.4,3142.0,1690.8,811.1,-867.6,2025-01-29 15:08:54,0.0
-742.3999999999996,440.4,4014.0,2456.8,3438.1,-325.6,2025-01-29 15:08:54,0.0
-1634.3999999999996,-539.6,4750.0,3551.8,4736.1,399.4,2025-01-29 15:08:54,0.0
-2006.3999999999996,-767.6,5210.0,4835.8,4435.1,851.4,2025-01-29 15:08:54,0.0
-2414.3999999999996,816.4,5338.0,5785.8,3065.1,1338.4,2025-01-29 15:08:54,0.0
-1966.3999999999996,1668.4,5778.0,6375.8,2486.1,1440.4,2025-01-29 15:08:54,0.0
-1574.3999999999996,1388.4,5218.0,6912.8,3098.1,1124.4,2025-01-29 15:08:54,0.0
-2026.3999999999996,808.4,3474.0,7007.8,4211.1,980.4,2025-01-29 15:08:54,0.0
-2822.3999999999996,2060.4,2318.0,7132.8,5095.1,1454.4,2025-01-29 15:08:54,0.0
-3286.3999999999996,3700.4,-430.0,6649.8,5845.1,2126.4,2025-01-29 15:08:54,0.0
-2938.3999999999996,4668.4,-3310.0,4775.8,6464.1,2251.4,2025-01-29 15:08:54,0.0
-2362.3999999999996,5188.4,-3926.0,2185.8,6065.1,1773.4,2025-01-29 15:08:54,0.0
-1642.3999999999996,5536.4,-2482.0,206.8,4942.1,284.4,2025-01-29 15:08:54,0.0
-1162.3999999999996,4156.4,-1374.0,-1387.2,2980.1,-2042.6,2025-01-29 15:08:54,0.0
-1614.3999999999996,2936.4,6.0,-2523.2,-263.9,-2445.6,2025-01-29 15:08:54,0.0
-338.39999999999964,1328.4,150.0,-2449.2,-3905.9,-2467.6,2025-01-29 15:08:54,0.0
997.6000000000004,-495.6,-714.0,-2388.2,-6557.9,-2616.6,2025-01-29 15:08:54,0.0
1801.6000000000004,-2123.6,-1318.0,-2366.2,-8175.9,-2675.6,2025-01-29 15:08:54,0.0
1897.6000000000004,-2979.6,-398.0,-1897.2,-6978.9,-2273.6,2025-01-29 15:08:54,0.0
1841.6000000000004,-3187.6,834.0,-717.2,-3007.9,-1593.6,2025-01-29 15:08:54,0.0
1561.6000000000004,-2407.6,1050.0,1410.8,3347.1,-1246.6,2025-01-29 15:08:54,0.0
1421.6000000000004,-607.6,-146.0,2155.8,6951.1,-1634.6,2025-01-29 15:08:54,0.0
621.6000000000004,1268.4,-810.0,1488.8,7922.1,-2333.6,2025-01-29 15:08:54,0.0
-758.3999999999996,2668.4,-718.0,-117.19999999999999,7109.1,-2961.6,2025-01-29 15:08:54,0.0
-1854.3999999999996,3192.4,314.0,-1879.2,4789.1,-3038.6,2025-01-29 15:08:54,0.0
-1694.3999999999996,2764.4,558.0,-3200.2,1166.1,-2732.6,2025-01-29 15:08:54,0.0
-1534.3999999999996,1452.4,1066.0,-3870.2,-3388.9,-2286.6,2025-01-29 15:08:54,0.0
-74.39999999999964,-47.60000000000002,282.0,-4497.2,-6551.9,-2122.6,2025-01-29 15:08:54,0.0
1397.6000000000004,-1387.6,942.0,-5251.2,-8111.9,-2259.6,2025-01-29 15:08:54,0.0
2385.6000000000004,-1823.6,898.0,-5323.2,-7278.9,-2415.6,2025-01-29 15:08:54,0.0
2561.6000000000004,-1771.6,1134.0,-4983.2,-5043.9,-2317.6,2025-01-29 15:08:54,0.0
1877.6000000000004,-1263.6,1046.0,-4712.2,-1948.9,-2025.6,2025-01-29 15:08:54,0.0
1933.6000000000004,-619.6,446.0,-4583.2,1369.1,-1666.6,2025-01-29 15:08:54,0.0
625.6000000000004,-343.6,1498.0,-4668.2,2041.1,-1424.6,2025-01-29 15:08:54,0.0
-298.39999999999964,-167.60000000000002,2390.0,-4800.2,768.1,-1108.6,2025-01-29 15:08:54,0.0
-454.39999999999964,-99.60000000000002,2006.0,-5006.2,-1087.9,-630.6,2025-01-29 15:08:54,0.0
-810.3999999999996,-247.60000000000002,2074.0,-5311.2,-2647.9,-241.6,2025-01-29 15:08:54,0.0
-594.3999999999996,-335.6,1694.0,-5705.2,-3663.9,21.400000000000006,2025-01-29 15:08:54,0.0
517.6000000000004,-207.60000000000002,402.0,-6387.2,-4242.9,175.4,2025-01-29 15:08:54,0.0
93.60000000000036,524.4,1034.0,-7494.2,-4287.9,152.4,2025-01-29 15:08:54,0.0
-186.39999999999964,1576.4,886.0,-8560.2,-4161.9,101.4,2025-01-29 15:08:54,0.0
-550.3999999999996,2384.4,966.0,-9756.2,-4002.9,472.4,2025-01-29 15:08:54,0.0
-662.3999999999996,2556.4,1410.0,-10962.2,-4005.9,928.4,2025-01-29 15:08:54,0.0
-542.3999999999996,1972.4,1530.0,-12132.2,-4394.9,1372.4,2025-01-29 15:08:54,0.0
-510.39999999999964,1108.4,1506.0,-13273.2,-5260.9,1703.4,2025-01-29 15:08:54,0.0
-290.39999999999964,752.4,1654.0,-14120.2,-6242.9,2283.4,2025-01-29 15:08:54,0.0
1217.6000000000004,668.4,990.0,-15226.2,-6804.9,2643.4,2025-01-29 15:08:54,0.0
1969.6000000000004,284.4,1142.0,-16097.2,-5898.9,2693.4,2025-01-29 15:08:54,0.0
1973.6000000000004,-215.60000000000002,1358.0,-16590.2,-3683.9,2734.4,2025-01-29 15:08:54,0.0
1217.6000000000004,-151.60000000000002,866.0,-16843.2,-496.9,2729.4,2025-01-29 15:08:54,0.0
1073.6000000000004,560.4,-306.0,-17320.2,2062.1,2601.4,2025-01-29 15:08:55,0.0
1433.6000000000004,996.4,-498.0,-18051.2,2838.1,1926.4,2025-01-29 15:08:55,0.0
1453.6000000000004,-627.6,906.0,-18689.2,2291.1,722.4,2025-01-29 15:08:55,0.0
201.60000000000036,-2435.6,2446.0,-19160.2,2062.1,-253.6,2025-01-29 15:08:55,0.0
-1854.3999999999996,-3187.6,3214.0,-19101.2,2566.1,-441.6,2025-01-29 15:08:55,0.0
-4210.4,-3311.6,3586.0,-18791.2,3181.1,64.4,2025-01-29 15:08:55,0.0
-4766.4,-2767.6,3226.0,-18858.2,2891.1,442.4,2025-01-29 15:08:55,0.0
-4206.4,-1959.6,2658.0,-19398.2,416.1,519.4,2025-01-29 15:08:55,0.0
-2834.3999999999996,-1175.6,2870.0,-20437.2,-4199.9,924.4,2025-01-29 15:08:55,0.0
-1498.3999999999996,-1115.6,4106.0,-21414.2,-7052.9,1669.4,2025-01-29 15:08:55,0.0
281.60000000000036,-1443.6,3478.0,-22170.2,-7602.9,2487.4,2025-01-29 15:08:55,0.0
1469.6000000000004,-991.6,922.0,-22301.2,-4906.9,2439.4,2025-01-29 15:08:55,0.0
1957.6000000000004,-507.6,-2142.0,-22304.2,-1558.9,1673.4,2025-01-29 15:08:55,0.0
1725.6000000000004,-1319.6,-3226.0,-22165.2,2334.1,-271.6,2025-01-29 15:08:55,0.0
425.60000000000036,-3087.6,-1842.0,-21318.2,6093.1,-2524.6,2025-01-29 15:08:55,0.0
-1430.3999999999996,-4775.6,890.0,-19908.2,9775.1,-4019.6,2025-01-29 15:08:55,
-3846.3999999999996,-2995.6,2694.0,-18334.2,11273.1,-2570.6,2025-01-29 15:08:55,0.0
-1926.3999999999996,-439.6,1438.0,-17493.2,10108.1,-566.6,2025-01-29 15:08:55,0.0
37.600000000000364,716.4,-922.0,-17968.2,7031.1,-459.6,2025-01-29 15:08:55,0.0
257.60000000000036,1588.4,-1690.0,-19691.2,3788.1,-996.6,2025-01-29 15:08:55,0.0
457.60000000000036,1304.4,-414.0,-19606.2,3968.1,-1315.6,2025-01-29 15:08:55,0.0
269.60000000000036,720.4,-1174.0,-18681.2,6223.1,-1344.6,2025-01-29 15:08:55,0.0
405.60000000000036,496.4,-2038.0,-19083.2,7970.1,-1917.6,2025-01-29 15:08:55,0.0
-14.399999999999636,452.4,-918.0,-19828.2,7563.1,-2463.6,2025-01-29 15:08:55,0.0
49.600000000000364,668.4,-102.0,-19510.2,5130.1,-2426.6,2025-01-29 15:08:55,0.0
-114.39999999999964,520.4,-806.0,-18821.2,2324.1,-1761.6,2025-01-29 15:08:55,0.0
789.6000000000004,64.39999999999998,-2014.0,-18755.2,815.1,-1094.6,2025-01-29 15:08:55,0.0
1381.6000000000004,-239.60000000000002,-2882.0,-19314.2,1276.1,-837.6,2025-01-29 15:08:55,0.0
1729.6000000000004,-791.6,-3790.0,-20269.2,2288.1,-1128.6,2025-01-29 15:08:55,0.0
2513.6000000000004,-607.6,-2794.0,-20914.2,2677.1,-1921.6,2025-01-29 15:08:55,0.0
1869.6000000000004,-355.6,-2074.0,-20933.2,2850.1,-2386.6,2025-01-29 15:08:55,0.0
905.6000000000004,-47.60000000000002,-1642.0,-19871.2,2895.1,-2434.6,2025-01-29 15:08:55,0.0
1269.6000000000004,164.39999999999998,-2490.0,-19292.2,3013.1,-2385.6,2025-01-29 15:08:55,0.0
1661.6000000000004,-411.6,-2934.0,-19278.2,2688.1,-2461.6,2025-01-29 15:08:55,0.0
2365.6000000000004,-1051.6,-3698.0,-19698.2,2493.1,-2761.6,2025-01-29 15:08:55,0.0
2765.6000000000004,-1307.6,-3798.0,-20415.2,3074.1,-3536.6,2025-01-29 15:08:55,0.0
2161.6000000000004,-431.6,-3078.0,-20808.2,4026.1,-4574.6,2025-01-29 15:08:55,0.0
1457.6000000000004,-119.60000000000002,-2734.0,-20501.2,4856.1,-4743.6,2025-01-29 15:08:55,0.0
937.6000000000004,-535.6,-2654.0,-19931.2,5792.1,-4516.6,2025-01-29 15:08:55,0.0
1365.6000000000004,-2099.6,-2446.0,-19383.2,6712.1,-4388.6,2025-01-29 15:08:55,0.0
1401.6000000000004,-4451.6,-1714.0,-18661.2,7240.1,-4949.6,2025-01-29 15:08:55,0.0
965.6000000000004,-5295.6,-210.0,-17767.2,6632.1,-5550.6,2025-01-29 15:08:55,0.0
-234.39999999999964,-4771.6,270.0,-16763.2,5407.1,-5779.6,2025-01-29 15:08:55,0.0
-990.3999999999996,-3063.6,354.0,-15556.2,3388.1,-5350.6,2025-01-29 15:08:55,0.0
-226.39999999999964,-2055.6,-146.0,-14429.2,449.1,-4419.6,2025-01-29 15:08:55,0.0
889.6000000000004,-1091.6,258.0,-13379.2,-2914.9,-3663.6,2025-01-29 15:08:55,0.0
1197.6000000000004,-359.6,1602.0,-12435.2,-4261.9,-2623.6,2025-01-29 15:08:55,0.0
1929.6000000000004,-647.6,1674.0,-11269.2,-4849.9,-1888.6,2025-01-29 15:08:55,0.0
1917.6000000000004,-1335.6,82.0,-10470.2,-5427.9,-1337.6,2025-01-29 15:08:55,0.0
1737.6000000000004,-1475.6,162.0,-9869.2,-5270.9,-1341.6,2025-01-29 15:08:55,0.0
1609.6000000000004,-835.6,758.0,-9016.2,-5192.9,-1473.6,2025-01-29 15:08:55,0.0
-5642.4,-59.60000000000002,4686.0,-8348.2,-5140.9,-1003.6,2025-01-29 15:08:55,0.0
2973.6000000000004,-83.60000000000002,2286.0,-7480.2,-6186.9,290.4,2025-01-29 15:08:55,0.0
3617.6000000000004,-927.6,2590.0,-6466.2,-7704.9,1666.4,2025-01-29 15:08:55,0.0
4305.6,-1615.6,1874.0,-5926.2,-10004.9,2687.4,2025-01-29 15:08:55,0.0
4141.6,-1983.6,2238.0,-5691.2,-10911.9,2758.4,2025-01-29 15:08:55,0.0
3109.6000000000004,-2575.6,2030.0,-5374.2,-10464.9,1938.4,2025-01-29 15:08:55,0.0
1921.6000000000004,-2171.6,2770.0,-5741.2,-9863.9,275.4,2025-01-29 15:08:55,0.0
-222.39999999999964,-663.6,4874.0,-5907.2,-10716.9,-2047.6,2025-01-29 15:08:56,0.0
-8018.4,896.4,5538.0,-6254.2,-9688.9,-3126.6,2025-01-29 15:08:56,0.0
-1062.3999999999996,2200.4,4302.0,-6811.2,-16631.9,-2481.6,2025-01-29 15:08:56,0.0
-2942.3999999999996,1316.4,4362.0,-7474.2,-18859.9,-1667.6,2025-01-29 15:08:56,0.0
-4386.4,-583.6,2302.0,-8678.2,-17618.9,-800.6,2025-01-29 15:08:56,0.0
-3194.3999999999996,308.4,1722.0,-11097.2,-13273.9,-100.6,2025-01-29 15:08:56,0.0
-3266.3999999999996,696.4,1978.0,-11876.2,-9083.9,289.4,2025-01-29 15:08:56,0.0
-4442.4,-1131.6,6250.0,-11599.2,-9644.9,707.4,2025-01-29 15:08:56,0.0
-2298.3999999999996,-3331.6,7978.0,-10270.2,-11974.9,358.4,2025-01-29 15:08:56,0.0
-2122.3999999999996,-1471.6,7670.0,-9697.2,-13672.9,607.4,2025-01-29 15:08:56,0.0
-1910.3999999999996,316.4,8226.0,-9260.2,-12631.9,950.4,2025-01-29 15:08:56,0.0
369.60000000000036,-43.60000000000002,7178.0,-8366.2,-9483.9,1266.4,2025-01-29 15:08:56,0.0
285.60000000000036,84.39999999999998,7442.0,-7569.2,-6648.9,1629.4,2025-01-29 15:08:56,0.0
189.60000000000036,952.4,7534.0,-7321.2,-5480.9,1897.4,2025-01-29 15:08:56,0.0
33.600000000000364,1056.4,9006.0,-7093.2,-5785.9,2364.4,2025-01-29 15:08:56,0.0
1069.6000000000004,-123.60000000000002,10766.0,-6394.2,-7365.9,2509.4,2025-01-29 15:08:56,0.0
2145.6000000000004,-983.6,10702.0,-5521.2,-9577.9,2195.4,2025-01-29 15:08:56,0.0
2041.6000000000004,-891.6,10978.0,-4853.2,-11381.9,1736.4,2025-01-29 15:08:56,0.0
1677.6000000000004,464.4,11398.0,-4314.2,-11790.9,2007.4,2025-01-29 15:08:56,0.0
3297.6000000000004,1892.4,11754.0,-3691.2,-11555.9,2406.4,2025-01-29 15:08:56,0.0
3205.6000000000004,2360.4,12022.0,-3270.2,-10956.9,2806.4,2025-01-29 15:08:56,0.0
2573.6000000000004,1572.4,12546.0,-3399.2,-11344.9,2698.4,2025-01-29 15:08:56,0.0
1957.6000000000004,1324.4,13626.0,-3744.2,-12573.9,2692.4,2025-01-29 15:08:56,0.0
1681.6000000000004,1224.4,14054.0,-3594.2,-13080.9,2963.4,2025-01-29 15:08:56,0.0
2565.6000000000004,1120.4,12558.0,-3247.2,-11579.9,2721.4,2025-01-29 15:08:56,0.0
2633.6000000000004,692.4,12642.0,-3346.2,-9376.9,2022.4,2025-01-29 15:08:56,0.0
1237.6000000000004,876.4,14078.0,-3449.2,-8879.9,1832.4,2025-01-29 15:08:56,0.0
293.60000000000036,972.4,15702.0,-3063.2,-9964.9,1997.4,2025-01-29 15:08:56,0.0
397.60000000000036,1000.4,16022.0,-2523.2,-10642.9,1850.4,2025-01-29 15:08:56,0.0
1165.6000000000004,1408.4,15826.0,-1571.2,-10674.9,1615.4,2025-01-29 15:08:56,0.0
1673.6000000000004,1484.4,15654.0,-968.2,-10343.9,1401.4,2025-01-29 15:08:56,0.0
1773.6000000000004,1524.4,16610.0,-137.2,-10252.9,1648.4,2025-01-29 15:08:56,0.0
2805.6000000000004,1084.4,16626.0,839.8,-9929.9,1846.4,2025-01-29 15:08:56,0.0
4277.6,328.4,15434.0,1204.8,-9332.9,1554.4,2025-01-29 15:08:56,0.0
5529.6,776.4,15298.0,954.8,-8590.9,755.4,2025-01-29 15:08:56,0.0
5101.6,1296.4,15362.0,217.8,-8261.9,116.4,2025-01-29 15:08:56,0.0
4213.6,992.4,16254.0,-126.19999999999999,-7884.9,-135.6,2025-01-29 15:08:56,0.0
3545.6000000000004,1272.4,17818.0,-40.19999999999999,-7652.9,-110.6,2025-01-29 15:08:56,0.0
2517.6000000000004,1820.4,18534.0,427.8,-7829.9,285.4,2025-01-29 15:08:56,0.0
2469.6000000000004,2320.4,18498.0,1107.8,-8603.9,835.4,2025-01-29 15:08:56,0.0
4145.6,2212.4,17114.0,1250.8,-9253.9,1271.4,2025-01-29 15:08:56,0.0
5745.6,1388.4,15822.0,891.8,-8288.9,1128.4,2025-01-29 15:08:56,0.0
6965.6,1236.4,15990.0,826.8,-6193.9,823.4,2025-01-29 15:08:56,0.0
6217.6,1280.4,16358.0,1013.8,-4051.9,490.4,2025-01-29 15:08:56,0.0
5197.6,1896.4,17246.0,1079.8,-4083.9,508.4,2025-01-29 15:08:56,0.0
5021.6,2564.4,17806.0,1118.8,-5914.9,847.4,2025-01-29 15:08:56,0.0
5869.6,2548.4,17422.0,909.8,-7285.9,1228.4,2025-01-29 15:08:56,0.0
6493.6,2376.4,17442.0,834.8,-7317.9,1631.4,2025-01-29 15:08:56,0.0
7405.6,2080.4,16882.0,412.8,-5639.9,1801.4,2025-01-29 15:08:56,0.0
7809.6,2032.4,16586.0,-203.2,-3920.9,1750.4,2025-01-29 15:08:56,0.0
7565.6,1876.4,16790.0,-843.2,-2925.9,1562.4,2025-01-29 15:08:56,0.0
7773.6,1572.4,16938.0,-1229.2,-1482.9,1435.4,2025-01-29 15:08:56,0.0
8049.6,1752.4,17758.0,-1502.2,-46.900000000000006,1009.4,2025-01-29 15:08:56,0.0
7657.6,2292.4,18498.0,-1652.2,849.1,487.4,2025-01-29 15:08:56,0.0
7305.6,2644.4,18910.0,-1850.2,814.1,312.4,2025-01-29 15:08:56,0.0
7885.6,2268.4,18558.0,-2122.2,331.1,465.4,2025-01-29 15:08:56,0.0
7821.6,2644.4,18178.0,-2476.2,405.1,691.4,2025-01-29 15:08:56,0.0
7385.6,2512.4,18862.0,-1979.2,1423.1,1052.4,2025-01-29 15:08:56,
6913.6,1412.4,18118.0,-1042.2,2284.1,1537.4,2025-01-29 15:08:56,0.0
6697.6,384.4,16570.0,-726.2,3118.1,1689.4,2025-01-29 15:08:56,0.0
5989.6,-163.60000000000002,17354.0,-479.2,3164.1,1831.4,2025-01-29 15:08:56,0.0
5789.6,128.39999999999998,17790.0,60.80000000000001,1985.1,2029.4,2025-01-29 15:08:56,0.0
6093.6,456.4,17630.0,193.8,973.1,1979.4,2025-01-29 15:08:56,0.0
6285.6,664.4,17098.0,178.8,774.1,1766.4,2025-01-29 15:08:57,0.0
6225.6,1068.4,16750.0,43.80000000000001,764.1,1563.4,2025-01-29 15:08:57,0.0
6573.6,1272.4,16450.0,-201.2,415.1,1483.4,2025-01-29 15:08:57,0.0
6517.6,1236.4,17074.0,-281.2,-241.9,1385.4,2025-01-29 15:08:57,0.0
6733.6,1044.4,17294.0,-250.2,-779.9,1149.4,2025-01-29 15:08:57,0.0
6837.6,1400.4,17534.0,-29.19999999999999,-882.9,1106.4,2025-01-29 15:08:57,0.0
6665.6,1780.4,17578.0,51.80000000000001,-664.9,1104.4,2025-01-29 15:08:57,0.0
6633.6,1912.4,17134.0,50.80000000000001,-512.9,1238.4,2025-01-29 15:08:57,0.0
6737.6,2116.4,16914.0,-292.2,-1067.9,1282.4,2025-01-29 15:08:57,0.0
6737.6,2004.4,17658.0,-186.2,-1483.9,1246.4,2025-01-29 15:08:57,0.0
6465.6,2104.4,18002.0,-79.19999999999999,-1655.9,1290.4,2025-01-29 15:08:57,0.0
6813.6,1964.4,18082.0,-36.19999999999999,-1801.9,1423.4,2025-01-29 15:08:57,0.0
7705.6,1412.4,17850.0,423.8,-2094.9,1391.4,2025-01-29 15:08:57,0.0
8149.6,1736.4,17286.0,505.8,-1968.9,1229.4,2025-01-29 15:08:57,0.0
8929.6,1900.4,17354.0,415.8,-1621.9,877.4,2025-01-29 15:08:57,0.0
9297.6,2284.4,17118.0,446.8,-928.9,422.4,2025-01-29 15:08:57,0.0
9033.6,2792.4,16826.0,560.8,217.1,-18.599999999999994,2025-01-29 15:08:57,0.0
7257.6,3012.4,16610.0,409.8,592.1,-223.6,2025-01-29 15:08:57,0.0
6509.6,3036.4,16814.0,-57.19999999999999,73.1,83.4,2025-01-29 15:08:57,0.0
5949.6,3392.4,17506.0,-425.2,-131.9,625.4,2025-01-29 15:08:57,0.0
5941.6,3252.4,17514.0,-400.2,-156.9,1222.4,2025-01-29 15:08:57,0.0
6393.6,2524.4,17142.0,-372.2,-512.9,1534.4,2025-01-29 15:08:57,0.0
6809.6,1796.4,17182.0,-293.2,-821.9,1642.4,2025-01-29 15:08:57,0.0
7033.6,1420.4,17010.0,-117.19999999999999,-741.9,1522.4,2025-01-29 15:08:57,0.0
7253.6,996.4,16626.0,-166.2,-660.9,1160.4,2025-01-29 15:08:57,0.0
7333.6,964.4,16522.0,-360.2,-446.9,684.4,2025-01-29 15:08:57,0.0
6973.6,1132.4,16886.0,-557.2,-322.9,225.4,2025-01-29 15:08:57,0.0
6721.6,1176.4,17346.0,-405.2,-345.9,62.400000000000006,2025-01-29 15:08:57,0.0
6589.6,1364.4,17374.0,-88.19999999999999,-310.9,55.400000000000006,2025-01-29 15:08:57,0.0
6609.6,1612.4,17122.0,152.8,-242.9,76.4,2025-01-29 15:08:57,0.0
6693.6,2088.4,17090.0,192.8,-141.9,88.4,2025-01-29 15:08:57,0.0
6569.6,2340.4,16718.0,125.80000000000001,-27.900000000000006,93.4,2025-01-29 15:08:57,0.0
6541.6,2532.4,16814.0,-40.19999999999999,-143.9,102.4,2025-01-29 15:08:57,0.0
6797.6,2556.4,17006.0,-138.2,-448.9,122.4,2025-01-29 15:08:57,0.0
6929.6,2284.4,17446.0,-159.2,-753.9,149.4,2025-01-29 15:08:57,0.0
7245.6,2052.4,17562.0,-166.2,-808.9,128.4,2025-01-29 15:08:57,0.0
7389.6,1908.4,17626.0,-150.2,-676.9,33.400000000000006,2025-01-29 15:08:57,0.0
7653.6,1712.4,17666.0,-129.2,-517.9,-35.599999999999994,2025-01-29 15:08:57,0.0
7553.6,1844.4,17802.0,-49.19999999999999,-297.9,-85.6,2025-01-29 15:08:57,0.0
7545.6,1836.4,17790.0,38.80000000000001,-157.9,-150.6,2025-01-29 15:08:57,0.0
7465.6,1852.4,17654.0,42.80000000000001,-96.9,-165.6,2025-01-29 15:08:57,0.0
7413.6,1844.4,17682.0,5.800000000000011,-100.9,-174.6,2025-01-29 15:08:57,0.0
7365.6,1916.4,17646.0,35.80000000000001,15.099999999999994,-184.6,2025-01-29 15:08:57,0.0
7253.6,2024.4,17338.0,113.80000000000001,173.1,-207.6,2025-01-29 15:08:57,0.0
7101.6,2080.4,17322.0,70.80000000000001,203.1,-193.6,2025-01-29 15:08:57,0.0
7057.6,2088.4,17462.0,69.80000000000001,140.1,-196.6,2025-01-29 15:08:57,0.0
7065.6,2172.4,17358.0,91.80000000000001,125.1,-167.6,2025-01-29 15:08:57,0.0
7097.6,2172.4,17370.0,106.80000000000001,113.1,-133.6,2025-01-29 15:08:57,0.0
6961.6,2108.4,17242.0,104.80000000000001,78.1,-137.6,2025-01-29 15:08:57,0.0
7025.6,2164.4,17270.0,58.80000000000001,87.1,-137.6,2025-01-29 15:08:57,0.0
7053.6,2044.4,17394.0,-11.199999999999989,66.1,-124.6,2025-01-29 15:08:57,0.0
6901.6,2016.4,17310.0,13.800000000000011,35.099999999999994,-44.599999999999994,2025-01-29 15:08:57,0.0
6945.6,2008.4,17414.0,9.800000000000011,-43.900000000000006,-47.599999999999994,2025-01-29 15:08:57,0.0
7173.6,1988.4,17446.0,6.800000000000011,-46.900000000000006,-7.599999999999994,2025-01-29 15:08:57,0.0
7109.6,2028.4,17566.0,28.80000000000001,-41.900000000000006,-16.599999999999994,2025-01-29 15:08:57,0.0
7093.6,1860.4,17546.0,3.8000000000000114,-75.9,-14.599999999999994,2025-01-29 15:08:57,0.0
7249.6,1876.4,17274.0,-27.19999999999999,-50.900000000000006,-33.599999999999994,2025-01-29 15:08:57,0.0
7285.6,1908.4,17434.0,-38.19999999999999,20.099999999999994,-30.599999999999994,2025-01-29 15:08:57,0.0
7145.6,1936.4,17546.0,-17.19999999999999,23.099999999999994,-10.599999999999994,2025-01-29 15:08:57,0.0
7085.6,1980.4,17598.0,5.800000000000011,-33.900000000000006,-8.599999999999994,2025-01-29 15:08:57,0.0
7121.6,2068.4,17494.0,-10.199999999999989,-58.900000000000006,-32.599999999999994,2025-01-29 15:08:58,0.0
7141.6,2064.4,17130.0,-87.19999999999999,-109.9,-49.599999999999994,2025-01-29 15:08:58,0.0
7093.6,2080.4,17354.0,-44.19999999999999,-40.900000000000006,-57.599999999999994,2025-01-29 15:08:58,0.0
7009.6,2096.4,17362.0,-70.19999999999999,36.099999999999994,-70.6,2025-01-29 15:08:58,0.0
7201.6,1964.4,17510.0,-34.19999999999999,57.099999999999994,-27.599999999999994,2025-01-29 15:08:58,0.0
7069.6,1984.4,17466.0,-30.19999999999999,96.1,-30.599999999999994,2025-01-29 15:08:58,0.0
7013.6,1932.4,17358.0,-25.19999999999999,87.1,9.400000000000006,2025-01-29 15:08:58,0.0
7113.6,1832.4,17402.0,5.800000000000011,44.099999999999994,-33.599999999999994,2025-01-29 15:08:58,0.0
7189.6,1876.4,17478.0,3.8000000000000114,29.099999999999994,-61.599999999999994,2025-01-29 15:08:58,0.0
7053.6,1856.4,17358.0,-18.19999999999999,148.1,-65.6,2025-01-29 15:08:58,0.0
6905.6,1968.4,17322.0,-89.19999999999999,177.1,-61.599999999999994,2025-01-29 15:08:58,0.0
6873.6,1860.4,17370.0,-82.19999999999999,61.099999999999994,-35.599999999999994,2025-01-29 15:08:58,0.0
6977.6,1816.4,17182.0,-21.19999999999999,-51.900000000000006,-56.599999999999994,2025-01-29 15:08:58,0.0
7085.6,1900.4,17262.0,-39.19999999999999,-152.9,-69.6,2025-01-29 15:08:58,0.0
7069.6,1928.4,17198.0,-30.19999999999999,-199.9,-51.599999999999994,2025-01-29 15:08:58,0.0
7137.6,2040.4,17218.0,18.80000000000001,-141.9,-41.599999999999994,2025-01-29 15:08:58,0.0
7213.6,1856.4,17190.0,0.8000000000000114,-90.9,-76.6,2025-01-29 15:08:58,0.0
7193.6,1916.4,17370.0,-13.199999999999989,30.099999999999994,-65.6,2025-01-29 15:08:58,0.0
7017.6,1892.4,17378.0,-9.199999999999989,82.1,-28.599999999999994,2025-01-29 15:08:58,0.0
7017.6,1968.4,17354.0,-2.1999999999999886,79.1,20.400000000000006,2025-01-29 15:08:58,0.0
7025.6,1956.4,17250.0,-12.199999999999989,-21.900000000000006,61.400000000000006,2025-01-29 15:08:58,0.0
7165.6,1996.4,17218.0,48.80000000000001,3.0999999999999943,45.400000000000006,2025-01-29 15:08:58,0.0
7085.6,1876.4,17466.0,47.80000000000001,-60.900000000000006,31.400000000000006,2025-01-29 15:08:58,0.0
7033.6,1888.4,17466.0,31.80000000000001,-122.9,31.400000000000006,2025-01-29 15:08:58,0.0
7105.6,1864.4,17434.0,24.80000000000001,-79.9,3.4000000000000057,2025-01-29 15:08:58,0.0
6961.6,1980.4,17490.0,29.80000000000001,-71.9,-25.599999999999994,2025-01-29 15:08:58,0.0
7045.6,1884.4,17502.0,22.80000000000001,-17.900000000000006,8.400000000000006,2025-01-29 15:08:58,0.0
7069.6,1932.4,17310.0,66.80000000000001,-8.900000000000006,-18.599999999999994,2025-01-29 15:08:58,0.0
7085.6,1844.4,17302.0,66.80000000000001,6.099999999999994,12.400000000000006,2025-01-29 15:08:58,0.0
7021.6,2024.4,17394.0,41.80000000000001,-44.900000000000006,21.400000000000006,2025-01-29 15:08:58,0.0
7065.6,1888.4,17450.0,40.80000000000001,-45.900000000000006,23.400000000000006,2025-01-29 15:08:58,0.0
7165.6,1828.4,17530.0,45.80000000000001,-38.900000000000006,-20.599999999999994,2025-01-29 15:08:58,0.0
7133.6,1932.4,17402.0,26.80000000000001,-48.900000000000006,-19.599999999999994,2025-01-29 15:08:58,0.0
7181.6,1952.4,17390.0,25.80000000000001,-34.900000000000006,-14.599999999999994,2025-01-29 15:08:58,0.0
7085.6,1924.4,17374.0,26.80000000000001,-38.900000000000006,-11.599999999999994,2025-01-29 15:08:58,
7141.6,1944.4,17370.0,38.80000000000001,-8.900000000000006,-16.599999999999994,2025-01-29 15:08:58,0.0
7133.6,1928.4,17394.0,40.80000000000001,-43.900000000000006,-53.599999999999994,2025-01-29 15:08:58,0.0
7033.6,1900.4,17518.0,64.80000000000001,-54.900000000000006,-26.599999999999994,2025-01-29 15:08:58,0.0
7025.6,1912.4,17522.0,46.80000000000001,-47.900000000000006,4.400000000000006,2025-01-29 15:08:58,0.0
7189.6,2052.4,17326.0,67.80000000000001,-11.900000000000006,0.4000000000000057,2025-01-29 15:08:58,0.0
7129.6,1924.4,17370.0,84.80000000000001,38.099999999999994,25.400000000000006,2025-01-29 15:08:58,0.0
7041.6,1864.4,17426.0,77.80000000000001,83.1,39.400000000000006,2025-01-29 15:08:58,0.0
7021.6,1880.4,17386.0,26.80000000000001,55.099999999999994,-1.5999999999999943,2025-01-29 15:08:58,0.0
7049.6,1756.4,17358.0,9.800000000000011,43.099999999999994,-6.599999999999994,2025-01-29 15:08:58,0.0
7237.6,1764.4,17354.0,-4.199999999999989,33.099999999999994,-1.5999999999999943,2025-01-29 15:08:58,0.0
7037.6,1828.4,17370.0,11.800000000000011,29.099999999999994,-7.599999999999994,2025-01-29 15:08:58,0.0
7085.6,1872.4,17294.0,74.80000000000001,51.099999999999994,28.400000000000006,2025-01-29 15:08:58,0.0
6989.6,1892.4,17302.0,53.80000000000001,15.099999999999994,1.4000000000000057,2025-01-29 15:08:58,0.0
7033.6,1824.4,17434.0,58.80000000000001,16.099999999999994,-11.599999999999994,2025-01-29 15:08:58,0.0
7029.6,1836.4,17242.0,40.80000000000001,0.09999999999999432,-35.599999999999994,2025-01-29 15:08:58,0.0
7041.6,1964.4,17310.0,29.80000000000001,-57.900000000000006,-5.599999999999994,2025-01-29 15:08:58,0.0
7021.6,1972.4,17290.0,27.80000000000001,-70.9,-2.5999999999999943,2025-01-29 15:08:58,0.0
7065.6,2008.4,17394.0,11.800000000000011,-24.900000000000006,-32.599999999999994,2025-01-29 15:08:58,0.0
7037.6,1976.4,17550.0,2.8000000000000114,26.099999999999994,8.400000000000006,2025-01-29 15:08:58,0.0
7069.6,1812.4,17366.0,13.800000000000011,-78.9,-11.599999999999994,2025-01-29 15:08:58,0.0
7153.6,1980.4,17338.0,7.800000000000011,-83.9,-4.599999999999994,2025-01-29 15:08:58,0.0
7205.6,1972.4,17510.0,-83.19999999999999,-113.9,8.400000000000006,2025-01-29 15:08:58,0.0
7057.6,1912.4,17518.0,-43.19999999999999,-11.900000000000006,-39.599999999999994,2025-01-29 15:08:58,0.0
6989.6,1920.4,17434.0,34.80000000000001,-135.9,14.400000000000006,2025-01-29 15:08:58,0.0
7065.6,1960.4,17370.0,52.80000000000001,-177.9,37.400000000000006,2025-01-29 15:08:58,0.0
7005.6,1960.4,17398.0,19.80000000000001,-251.9,49.400000000000006,2025-01-29 15:08:58,0.0
7193.6,1900.4,17358.0,1.8000000000000114,-223.9,32.400000000000006,2025-01-29 15:08:59,0.0
7197.6,1880.4,17422.0,14.800000000000011,-163.9,8.400000000000006,2025-01-29 15:08:59,0.0
7117.6,1832.4,17394.0,-0.19999999999998863,-45.900000000000006,-8.599999999999994,2025-01-29 15:08:59,0.0
7121.6,1936.4,17410.0,-8.199999999999989,59.099999999999994,-3.5999999999999943,2025-01-29 15:08:59,0.0
7181.6,1788.4,17330.0,17.80000000000001,85.1,17.400000000000006,2025-01-29 15:08:59,0.0
7033.6,1804.4,17210.0,77.80000000000001,73.1,-37.599999999999994,2025-01-29 15:08:59,0.0
7065.6,1844.4,17322.0,96.80000000000001,122.1,-61.599999999999994,2025-01-29 15:08:59,0.0
7009.6,1696.4,17486.0,116.80000000000001,94.1,-63.599999999999994,2025-01-29 15:08:59,0.0
7109.6,1648.4,17582.0,121.80000000000001,178.1,-43.599999999999994,2025-01-29 15:08:59,0.0
6805.6,1964.4,17394.0,123.80000000000001,270.1,-4.599999999999994,2025-01-29 15:08:59,0.0
6969.6,1876.4,17138.0,187.8,491.1,-36.599999999999994,2025-01-29 15:08:59,0.0
6697.6,1700.4,16742.0,254.8,782.1,28.400000000000006,2025-01-29 15:08:59,0.0
6717.6,2004.4,16546.0,12.800000000000011,987.1,-44.599999999999994,2025-01-29 15:08:59,0.0
6449.6,2284.4,16986.0,-149.2,829.1,-20.599999999999994,2025-01-29 15:08:59,0.0
6393.6,2324.4,17218.0,-204.2,274.1,177.4,2025-01-29 15:08:59,0.0
6657.6,2328.4,17402.0,-238.2,-166.9,540.4,2025-01-29 15:08:59,0.0
7461.6,2168.4,17242.0,-229.2,4.099999999999994,695.4,2025-01-29 15:08:59,0.0
8113.6,1856.4,16758.0,-148.2,691.1,634.4,2025-01-29 15:08:59,0.0
8345.6,1560.4,16562.0,-0.19999999999998863,1678.1,423.4,2025-01-29 15:08:59,0.0
8001.6,1716.4,16930.0,112.80000000000001,2556.1,137.4,2025-01-29 15:08:59,0.0
7501.6,1756.4,17498.0,127.80000000000001,2557.1,-62.599999999999994,2025-01-29 15:08:59,0.0
6745.6,1892.4,17314.0,-67.19999999999999,2011.1,-261.6,2025-01-29 15:08:59,0.0
6153.6,2044.4,17074.0,-330.2,1523.1,-248.6,2025-01-29 15:08:59,0.0
6173.6,1920.4,17046.0,-463.2,1114.1,-155.6,2025-01-29 15:08:59,0.0
6881.6,2104.4,16794.0,-560.2,821.1,-140.6,2025-01-29 15:08:59,0.0
7597.6,2140.4,16358.0,-990.2,943.1,-214.6,2025-01-29 15:08:59,0.0
8053.6,1952.4,16426.0,-1109.2,1173.1,-569.6,2025-01-29 15:08:59,0.0
7357.6,1864.4,16834.0,-994.2,1192.1,-801.6,2025-01-29 15:08:59,0.0
6521.6,1804.4,16818.0,-814.2,995.1,-810.6,2025-01-29 15:08:59,0.0
5757.6,1688.4,16902.0,-758.2,517.1,-773.6,2025-01-29 15:08:59,0.0
5729.6,1752.4,17386.0,-757.2,178.1,-635.6,2025-01-29 15:08:59,0.0
5905.6,2096.4,17390.0,-955.2,-202.9,-444.6,2025-01-29 15:08:59,0.0
6369.6,2268.4,17458.0,-878.2,-449.9,-137.6,2025-01-29 15:08:59,0.0
6905.6,2156.4,17218.0,-861.2,-274.9,-66.6,2025-01-29 15:08:59,0.0
6589.6,1948.4,16818.0,-1043.2,-290.9,-115.6,2025-01-29 15:08:59,0.0
6377.6,1528.4,17178.0,-1075.2,-271.9,-84.6,2025-01-29 15:08:59,0.0
6149.6,1420.4,17406.0,-882.2,-486.9,-29.599999999999994,2025-01-29 15:08:59,0.0
6685.6,1456.4,17386.0,-676.2,-1047.9,10.400000000000006,2025-01-29 15:08:59,0.0
7357.6,1684.4,17306.0,-461.2,-1422.9,-50.599999999999994,2025-01-29 15:08:59,0.0
7401.6,1592.4,16982.0,-571.2,-1250.9,-171.6,2025-01-29 15:08:59,0.0
7153.6,1580.4,17066.0,-734.2,-995.9,-231.6,2025-01-29 15:08:59,0.0
7329.6,1456.4,17166.0,-905.2,-438.9,-283.6,2025-01-29 15:08:59,0.0
7429.6,1632.4,17078.0,-1108.2,90.1,-260.6,2025-01-29 15:08:59,0.0
7021.6,1556.4,17394.0,-1068.2,304.1,-347.6,2025-01-29 15:08:59,0.0
7093.6,1548.4,17502.0,-999.2,396.1,-333.6,2025-01-29 15:08:59,0.0
6893.6,1228.4,17902.0,-918.2,655.1,-344.6,2025-01-29 15:08:59,0.0
6317.6,1092.4,17250.0,-814.2,1239.1,-262.6,2025-01-29 15:08:59,0.0
6189.6,892.4,16994.0,-838.2,1307.1,-47.599999999999994,2025-01-29 15:08:59,0.0
6545.6,772.4,16466.0,-982.2,871.1,-45.599999999999994,2025-01-29 15:08:59,0.0
7005.6,684.4,16346.0,-1045.2,773.1,-235.6,2025-01-29 15:08:59,0.0
7401.6,600.4,15974.0,-1036.2,1065.1,-401.6,2025-01-29 15:08:59,0.0
5789.6,624.4,17258.0,-868.2,1267.1,-92.6,2025-01-29 15:08:59,0.0
5845.6,128.39999999999998,18946.0,-270.2,645.1,328.4,2025-01-29 15:08:59,0.0
6381.6,-99.60000000000002,19898.0,352.8,289.1,674.4,2025-01-29 15:08:59,0.0
6789.6,396.4,20210.0,1100.8,48.099999999999994,1202.4,2025-01-29 15:08:59,0.0
8065.6,996.4,18902.0,1637.8,-623.9,1095.4,2025-01-29 15:08:59,0.0
7877.6,1804.4,17914.0,1011.8,-755.9,313.4,2025-01-29 15:08:59,0.0
6577.6,1820.4,18390.0,50.80000000000001,227.1,103.4,2025-01-29 15:08:59,0.0
5789.6,1488.4,18510.0,-730.2,2218.1,350.4,2025-01-29 15:08:59,0.0
5993.6,808.4,19878.0,-1105.2,3638.1,553.4,2025-01-29 15:08:59,0.0
5737.6,516.4,21218.0,-1066.2,3358.1,494.4,2025-01-29 15:09:00,0.0
-2718.3999999999996,836.4,23546.0,-1074.2,-537.9,371.4,2025-01-29 15:09:00,0.0
6165.6,1056.4,19314.0,-1123.2,1660.1,25.400000000000006,2025-01-29 15:09:00,0.0
4781.6,1660.4,20142.0,-1058.2,1576.1,73.4,2025-01-29 15:09:00,0.0
5501.6,1844.4,19254.0,-869.2,1773.1,149.4,2025-01-29 15:09:00,0.0
5273.6,1692.4,18110.0,-496.2,3337.1,188.4,2025-01-29 15:09:00,0.0
4561.6,1688.4,17250.0,-356.2,4853.1,182.4,2025-01-29 15:09:00,0.0
4605.6,1644.4,17186.0,-246.2,5875.1,153.4,2025-01-29 15:09:00,0.0
4873.6,1672.4,17194.0,-113.19999999999999,6217.1,-11.599999999999994,2025-01-29 15:09:00,0.0
4149.6,1820.4,17774.0,97.80000000000001,6147.1,109.4,2025-01-29 15:09:00,0.0
4249.6,1088.4,17642.0,253.8,6043.1,139.4,2025-01-29 15:09:00,0.0
4789.6,1016.4,16862.0,432.8,6358.1,-30.599999999999994,2025-01-29 15:09:00,0.0
4705.6,652.4,16318.0,681.8,6858.1,-237.6,2025-01-29 15:09:00,0.0
3949.6000000000004,448.4,16126.0,791.8,6911.1,-261.6,2025-01-29 15:09:00,
4361.6,468.4,15782.0,657.8,6662.1,-412.6,2025-01-29 15:09:00,0.0
3985.6000000000004,1472.4,15842.0,654.8,6099.1,-458.6,2025-01-29 15:09:00,0.0
5081.6,1548.4,14234.0,744.8,6346.1,-323.6,2025-01-29 15:09:00,0.0
4245.6,624.4,14142.0,771.8,6983.1,-265.6,2025-01-29 15:09:00,0.0
3665.6000000000004,756.4,14810.0,723.8,7178.1,-263.6,2025-01-29 15:09:00,0.0
2757.6000000000004,780.4,15814.0,880.8,6638.1,-29.599999999999994,2025-01-29 15:09:00,0.0
2741.6000000000004,1124.4,15206.0,857.8,5928.1,161.4,2025-01-29 15:09:00,0.0
2349.6000000000004,1228.4,14442.0,564.8,5516.1,47.400000000000006,2025-01-29 15:09:00,0.0
3297.6000000000004,1328.4,12314.0,-263.2,5650.1,-299.6,2025-01-29 15:09:00,0.0
2541.6000000000004,2012.4,12466.0,-707.2,6980.1,-238.6,2025-01-29 15:09:00,0.0
2485.6000000000004,2108.4,12626.0,-701.2,8435.1,58.400000000000006,2025-01-29 15:09:00,0.0
2149.6000000000004,1832.4,13394.0,-859.2,8336.1,612.4,2025-01-29 15:09:00,0.0
1773.6000000000004,1456.4,13618.0,-936.2,8241.1,439.4,2025-01-29 15:09:00,0.0
2153.6000000000004,1572.4,13878.0,-965.2,7732.1,496.4,2025-01-29 15:09:00,0.0
2373.6000000000004,1656.4,13142.0,-1081.2,7499.1,170.4,2025-01-29 15:09:00,0.0
2493.6000000000004,1556.4,12234.0,-1370.2,7482.1,26.400000000000006,2025-01-29 15:09:00,0.0
2521.6000000000004,1640.4,11422.0,-1540.2,8645.1,-33.599999999999994,2025-01-29 15:09:00,0.0
2589.6000000000004,1620.4,11730.0,-1373.2,10387.1,-312.6,2025-01-29 15:09:00,0.0
2433.6000000000004,1516.4,11002.0,-1065.2,11565.1,-471.6,2025-01-29 15:09:00,0.0
2689.6000000000004,1280.4,11222.0,-788.2,11534.1,-474.6,2025-01-29 15:09:00,0.0
2253.6000000000004,1660.4,11234.0,-624.2,10458.1,-299.6,2025-01-29 15:09:00,0.0
1549.6000000000004,1812.4,10782.0,-688.2,9305.1,21.400000000000006,2025-01-29 15:09:00,0.0
1425.6000000000004,1732.4,10902.0,-696.2,8696.1,304.4,2025-01-29 15:09:00,0.0
2149.6000000000004,1568.4,10926.0,-458.2,8715.1,241.4,2025-01-29 15:09:00,0.0
1941.6000000000004,1312.4,10646.0,-288.2,9123.1,14.400000000000006,2025-01-29 15:09:00,0.0
1697.6000000000004,1228.4,10082.0,-272.2,9372.1,-289.6,2025-01-29 15:09:00,0.0
789.6000000000004,1652.4,9902.0,-201.2,9841.1,-636.6,2025-01-29 15:09:00,0.0
-102.39999999999964,1864.4,9018.0,-90.19999999999999,10478.1,-732.6,2025-01-29 15:09:00,0.0
-1906.3999999999996,2152.4,8426.0,-116.19999999999999,10237.1,-595.6,2025-01-29 15:09:00,0.0
-750.3999999999996,1860.4,7686.0,-115.19999999999999,9376.1,-156.6,2025-01-29 15:09:00,0.0
-658.3999999999996,2332.4,6866.0,-462.2,9772.1,491.4,2025-01-29 15:09:00,0.0
2153.6000000000004,1620.4,7862.0,-814.2,9689.1,238.4,2025-01-29 15:09:00,0.0
2321.6000000000004,1308.4,7802.0,-745.2,9068.1,-698.6,2025-01-29 15:09:00,0.0
873.6000000000004,848.4,7338.0,-88.19999999999999,9007.1,-1059.6,2025-01-29 15:09:00,0.0
645.6000000000004,-11.600000000000023,8374.0,821.8,8842.1,-731.6,2025-01-29 15:09:00,0.0
469.60000000000036,320.4,7150.0,1245.8,8204.1,-564.6,2025-01-29 15:09:00,0.0
1281.6000000000004,272.4,6950.0,1481.8,6887.1,-595.6,2025-01-29 15:09:00,0.0
1177.6000000000004,520.4,7130.0,1675.8,5320.1,-655.6,2025-01-29 15:09:00,0.0
1373.6000000000004,668.4,6666.0,1841.8,3928.1,-910.6,2025-01-29 15:09:00,0.0
1337.6000000000004,824.4,6042.0,1801.8,2824.1,-1163.6,2025-01-29 15:09:00,0.0
1521.6000000000004,672.4,5906.0,1646.8,2305.1,-1599.6,2025-01-29 15:09:00,0.0
1761.6000000000004,600.4,5010.0,1304.8,1287.1,-2153.6,2025-01-29 15:09:00,0.0
1405.6000000000004,1396.4,4626.0,612.8,-491.9,-2536.6,2025-01-29 15:09:00,0.0
1573.6000000000004,2232.4,4654.0,-27.19999999999999,-2243.9,-2379.6,2025-01-29 15:09:00,0.0
1989.6000000000004,2624.4,4414.0,-424.2,-3276.9,-2157.6,2025-01-29 15:09:00,0.0
1549.6000000000004,2756.4,4122.0,-641.2,-3380.9,-1882.6,2025-01-29 15:09:00,0.0
1077.6000000000004,2560.4,3026.0,-880.2,-2040.9,-1487.6,2025-01-29 15:09:00,0.0
469.60000000000036,2040.4,2386.0,-1127.2,-109.9,-994.6,2025-01-29 15:09:01,0.0
605.6000000000004,880.4,1582.0,-1323.2,1912.1,-730.6,2025-01-29 15:09:01,0.0
1273.6000000000004,84.39999999999998,1358.0,-1420.2,2955.1,-1197.6,2025-01-29 15:09:01,0.0
1741.6000000000004,-971.6,2286.0,-1495.2,2856.1,-2069.6,2025-01-29 15:09:01,0.0
1309.6000000000004,-1851.6,3022.0,-1534.2,2506.1,-2885.6,2025-01-29 15:09:01,0.0
433.60000000000036,-2783.6,3398.0,-1190.2,2772.1,-3357.6,2025-01-29 15:09:01,0.0
-722.3999999999996,-3847.6,3018.0,-861.2,4125.1,-3622.6,2025-01-29 15:09:01,0.0
-922.3999999999996,-2775.6,4330.0,-313.2,4221.1,-3289.6,2025-01-29 15:09:01,0.0
-490.39999999999964,-935.6,5698.0,178.8,1891.1,-2405.6,2025-01-29 15:09:01,0.0
1057.6000000000004,468.4,5490.0,262.8,-1971.9,-1657.6,2025-01-29 15:09:01,0.0
1845.6000000000004,284.4,4854.0,-268.2,-4233.9,-1345.6,2025-01-29 15:09:01,0.0
2469.6000000000004,-803.6,3574.0,-910.2,-4120.9,-1481.6,2025-01-29 15:09:01,0.0
2593.6000000000004,-1991.6,2666.0,-1638.2,-2366.9,-1739.6,2025-01-29 15:09:01,0.0
2269.6000000000004,-3307.6,2566.0,-1714.2,251.1,-2078.6,2025-01-29 15:09:01,0.0
1933.6000000000004,-3859.6,3798.0,-1202.2,2839.1,-2341.6,2025-01-29 15:09:01,0.0
1481.6000000000004,-3867.6,5738.0,-199.2,5139.1,-2478.6,2025-01-29 15:09:01,0.0
489.60000000000036,-3623.6,6098.0,651.8,6412.1,-2273.6,2025-01-29 15:09:01,0.0
-434.39999999999964,-3139.6,5734.0,1123.8,5777.1,-1834.6,2025-01-29 15:09:01,0.0
-902.3999999999996,-2515.6,5198.0,1276.8,3670.1,-1402.6,2025-01-29 15:09:01,0.0
-1638.3999999999996,-1935.6,5534.0,1251.8,1037.1,-794.6,2025-01-29 15:09:01,0.0
-758.3999999999996,-1507.6,5706.0,1231.8,-1466.9,-108.6,2025-01-29 15:09:01,0.0
97.60000000000036,-1291.6,5738.0,1163.8,-2996.9,509.4,2025-01-29 15:09:01,0.0
1261.6000000000004,-1935.6,5034.0,968.8,-3709.9,865.4,2025-01-29 15:09:01,0.0
1621.6000000000004,-2123.6,4382.0,791.8,-3793.9,1156.4,2025-01-29 15:09:01,0.0
2125.6000000000004,-1955.6,4222.0,636.8,-2809.9,1559.4,2025-01-29 15:09:01,0.0
2829.6000000000004,-1419.6,4426.0,567.8,-544.9,1819.4,2025-01-29 15:09:01,0.0
3037.6000000000004,-979.6,3966.0,-45.19999999999999,2832.1,1701.4,2025-01-29 15:09:01,0.0
2209.6000000000004,-983.6,3462.0,-888.2,5257.1,1329.4,2025-01-29 15:09:01,0.0
717.6000000000004,-391.6,3990.0,-1751.2,6988.1,1243.4,2025-01-29 15:09:01,0.0
-462.39999999999964,-87.60000000000002,4734.0,-2300.2,8714.1,1368.4,2025-01-29 15:09:01,0.0
-1862.3999999999996,-215.60000000000002,5126.0,-2965.2,10138.1,1656.4,2025-01-29 15:09:01,0.0
-1946.3999999999996,-1507.6,5190.0,-3765.2,9750.1,1224.4,2025-01-29 15:09:01,0.0
-1886.3999999999996,-2143.6,5894.0,-4380.2,7367.1,445.4,2025-01-29 15:09:01,0.0
-3542.3999999999996,-2703.6,5618.0,-4731.2,5062.1,-453.6,2025-01-29 15:09:01,0.0
-4910.4,-3003.6,4566.0,-4659.2,3921.1,-1214.6,2025-01-29 15:09:01,0.0
-4790.4,-4051.6,2806.0,-4173.2,4052.1,-2228.6,2025-01-29 15:09:01,0.0
-4470.4,-5407.6,3474.0,-3636.2,2546.1,-3519.6,2025-01-29 15:09:01,0.0
-4382.4,-6291.6,5646.0,-2640.2,-522.9,-3751.6,2025-01-29 15:09:01,0.0
-4570.4,-6475.6,7750.0,-1204.2,-3835.9,-2421.6,2025-01-29 15:09:01,0.0
-4370.4,-5323.6,8762.0,210.8,-6107.9,-458.6,2025-01-29 15:09:01,0.0
-2882.3999999999996,-2591.6,8750.0,1162.8,-7596.9,1412.4,2025-01-29 15:09:01,0.0
-1326.3999999999996,-111.60000000000002,5134.0,849.8,-8664.9,2745.4,2025-01-29 15:09:01,0.0
-970.3999999999996,1256.4,1086.0,-265.2,-9202.9,4011.4,2025-01-29 15:09:01,0.0
-58.399999999999636,368.4,-1338.0,-860.2,-7858.9,4542.4,2025-01-29 15:09:01,0.0
1485.6000000000004,-799.6,-2282.0,-648.2,-4745.9,3484.4,2025-01-29 15:09:01,0.0
1857.6000000000004,-1479.6,-1590.0,-9.199999999999989,-919.9,1759.4,2025-01-29 15:09:01,0.0
1021.6000000000004,-1555.6,522.0,1180.8,1179.1,826.4,2025-01-29 15:09:01,0.0
517.6000000000004,-615.6,1278.0,2330.8,1445.1,1223.4,2025-01-29 15:09:01,0.0
353.60000000000036,740.4,666.0,2532.8,1537.1,2181.4,2025-01-29 15:09:01,0.0
357.60000000000036,1976.4,842.0,1924.8,2452.1,2952.4,2025-01-29 15:09:01,0.0
-1490.3999999999996,2560.4,1562.0,1881.8,3567.1,3585.4,2025-01-29 15:09:01,0.0
-2390.3999999999996,1440.4,902.0,2406.8,3838.1,4128.4,2025-01-29 15:09:01,0.0
-2290.3999999999996,512.4,730.0,2746.8,3045.1,4524.4,2025-01-29 15:09:01,
-1138.3999999999996,232.39999999999998,1706.0,2783.8,1383.1,4624.4,2025-01-29 15:09:01,0.0
73.60000000000036,320.4,2526.0,2934.8,-867.9,4043.4,2025-01-29 15:09:01,0.0
453.60000000000036,468.4,2002.0,3071.8,-3233.9,3447.4,2025-01-29 15:09:01,0.0
957.6000000000004,984.4,1358.0,3121.8,-4417.9,3135.4,2025-01-29 15:09:01,0.0
1581.6000000000004,1764.4,1222.0,3026.8,-4175.9,2784.4,2025-01-29 15:09:01,0.0
1857.6000000000004,2276.4,938.0,2824.8,-2997.9,2409.4,2025-01-29 15:09:01,0.0
2013.6000000000004,2712.4,1122.0,2399.8,-1050.9,1992.4,2025-01-29 15:09:01,0.0
1621.6000000000004,2856.4,1618.0,2221.8,1323.1,1188.4,2025-01-29 15:09:01,0.0
821.6000000000004,2504.4,1738.0,2054.8,1973.1,942.4,2025-01-29 15:09:02,0.0
693.6000000000004,2124.4,2642.0,1857.8,1527.1,896.4,2025-01-29 15:09:02,0.0
841.6000000000004,1628.4,3450.0,1662.8,361.1,837.4,2025-01-29 15:09:02,0.0
1433.6000000000004,1204.4,3942.0,1440.8,-1205.9,545.4,2025-01-29 15:09:02,0.0
2325.6000000000004,692.4,4074.0,1123.8,-2533.9,-167.6,2025-01-29 15:09:02,0.0
2877.6000000000004,304.4,4342.0,920.8,-3238.9,-950.6,2025-01-29 15:09:02,0.0
2817.6000000000004,112.39999999999998,4614.0,1074.8,-2806.9,-1669.6,2025-01-29 15:09:02,0.0
1981.6000000000004,92.39999999999998,4674.0,1923.8,-822.9,-1950.6,2025-01-29 15:09:02,0.0
1357.6000000000004,424.4,4526.0,2776.8,795.1,-2070.6,2025-01-29 15:09:02,0.0
885.6000000000004,1188.4,3954.0,3405.8,1164.1,-2046.6,2025-01-29 15:09:02,0.0
709.6000000000004,1832.4,3602.0,3533.8,732.1,-2006.6,2025-01-29 15:09:02,0.0
485.60000000000036,2452.4,3642.0,3476.8,632.1,-2022.6,2025-01-29 15:09:02,0.0
-382.39999999999964,2296.4,4414.0,3415.8,1366.1,-2008.6,2025-01-29 15:09:02,0.0
-1570.3999999999996,1860.4,4626.0,3302.8,2324.1,-1896.6,2025-01-29 15:09:02,0.0
-2610.3999999999996,1312.4,4634.0,3262.8,2770.1,-1465.6,2025-01-29 15:09:02,0.0
-2874.3999999999996,912.4,4902.0,3672.8,1744.1,-679.6,2025-01-29 15:09:02,0.0
-2418.3999999999996,972.4,5570.0,4025.8,-513.9,175.4,2025-01-29 15:09:02,0.0
-846.3999999999996,708.4,6354.0,4214.8,-3021.9,550.4,2025-01-29 15:09:02,0.0
-802.3999999999996,768.4,6038.0,4379.8,-3013.9,379.4,2025-01-29 15:09:02,0.0
-1494.3999999999996,1048.4,4886.0,4661.8,-543.9,207.4,2025-01-29 15:09:02,0.0
-1978.3999999999996,732.4,3542.0,4861.8,2613.1,-41.599999999999994,2025-01-29 15:09:02,0.0
-2790.3999999999996,1024.4,2214.0,4862.8,4365.1,-14.599999999999994,2025-01-29 15:09:02,0.0
-3006.3999999999996,1444.4,982.0,4477.8,5012.1,143.4,2025-01-29 15:09:02,0.0
-3510.3999999999996,2084.4,-394.0,3401.8,5961.1,-314.6,2025-01-29 15:09:02,0.0
-4994.4,3756.4,-1926.0,1706.8,6826.1,-375.6,2025-01-29 15:09:02,0.0
-5122.4,5088.4,-2178.0,230.8,6161.1,678.4,2025-01-29 15:09:02,0.0
-2206.3999999999996,3912.4,-846.0,-736.2,2648.1,913.4,2025-01-29 15:09:02,0.0
281.60000000000036,240.39999999999998,874.0,-1498.2,-2175.9,-439.6,2025-01-29 15:09:02,0.0
1157.6000000000004,-2023.6,2746.0,-1633.2,-6368.9,-1965.6,2025-01-29 15:09:02,0.0
857.6000000000004,-3047.6,2714.0,-1105.2,-8510.9,-2861.6,2025-01-29 15:09:02,0.0
693.6000000000004,-3291.6,1562.0,-295.2,-8207.9,-2887.6,2025-01-29 15:09:02,0.0
941.6000000000004,-2459.6,998.0,684.8,-5944.9,-2321.6,2025-01-29 15:09:02,0.0
1549.6000000000004,-491.6,1018.0,1890.8,-2202.9,-1380.6,2025-01-29 15:09:02,0.0
1705.6000000000004,1348.4,690.0,1920.8,1336.1,-514.6,2025-01-29 15:09:02,0.0
2133.6000000000004,2108.4,-374.0,632.8,3971.1,-218.6,2025-01-29 15:09:02,0.0
1389.6000000000004,1740.4,-778.0,-996.2,5612.1,-692.6,2025-01-29 15:09:02,0.0
-166.39999999999964,832.4,-326.0,-2104.2,5637.1,-1247.6,2025-01-29 15:09:02,0.0
-862.3999999999996,-47.60000000000002,106.0,-2875.2,3913.1,-1503.6,2025-01-29 15:09:02,0.0
-1306.3999999999996,-779.6,886.0,-3255.2,617.1,-1323.6,2025-01-29 15:09:02,0.0
-746.3999999999996,-879.6,866.0,-3695.2,-3243.9,-851.6,2025-01-29 15:09:02,0.0
529.6000000000004,-623.6,998.0,-4249.2,-5590.9,-369.6,2025-01-29 15:09:02,0.0
1597.6000000000004,-439.6,574.0,-5107.2,-5604.9,-317.6,2025-01-29 15:09:02,0.0
2557.6000000000004,56.39999999999998,566.0,-5851.2,-4279.9,-292.6,2025-01-29 15:09:02,0.0
2617.6000000000004,592.4,1054.0,-6605.2,-1667.9,-119.6,2025-01-29 15:09:02,0.0
2237.6000000000004,404.4,1414.0,-7242.2,619.1,253.4,2025-01-29 15:09:02,0.0
1265.6000000000004,-283.6,1206.0,-7709.2,2252.1,671.4,2025-01-29 15:09:02,0.0
321.60000000000036,-619.6,1238.0,-8330.2,3101.1,828.4,2025-01-29 15:09:02,0.0
-862.3999999999996,-291.6,1518.0,-8983.2,2936.1,1055.4,2025-01-29 15:09:02,0.0
-1494.3999999999996,512.4,1942.0,-9474.2,1644.1,1617.4,2025-01-29 15:09:02,0.0
-1298.3999999999996,1184.4,1694.0,-10105.2,-250.9,2246.4,2025-01-29 15:09:02,0.0
-574.3999999999996,1636.4,1250.0,-11125.2,-1948.9,2622.4,2025-01-29 15:09:02,0.0
269.60000000000036,1876.4,750.0,-12113.2,-2572.9,2912.4,2025-01-29 15:09:02,0.0
901.6000000000004,1764.4,182.0,-13232.2,-1831.9,2812.4,2025-01-29 15:09:02,0.0
1301.6000000000004,1452.4,-94.0,-14382.2,-164.9,2282.4,2025-01-29 15:09:02,0.0
1361.6000000000004,1372.4,-826.0,-15710.2,1863.1,1539.4,2025-01-29 15:09:02,0.0
741.6000000000004,1572.4,-898.0,-17104.2,3312.1,777.4,2025-01-29 15:09:02,0.0
565.6000000000004,1072.4,-198.0,-18601.2,3503.1,314.4,2025-01-29 15:09:02,0.0
737.6000000000004,-295.6,538.0,-19444.2,3525.1,-228.6,2025-01-29 15:09:02,0.0
153.60000000000036,-1655.6,958.0,-19582.2,3879.1,-817.6,2025-01-29 15:09:02,0.0
-526.3999999999996,-2959.6,766.0,-19454.2,4303.1,-1253.6,2025-01-29 15:09:02,0.0
-838.3999999999996,-3691.6,618.0,-19595.2,4497.1,-1988.6,2025-01-29 15:09:03,0.0
-2262.3999999999996,-3583.6,1626.0,-19953.2,5016.1,-3102.6,2025-01-29 15:09:03,0.0
-4050.3999999999996,-3015.6,2414.0,-20586.2,5441.1,-4163.6,2025-01-29 15:09:03,0.0
-5818.4,-1795.6,3002.0,-21066.2,3913.1,-4295.6,2025-01-29 15:09:03,0.0
-6198.4,-903.6,1994.0,-21066.2,339.1,-3747.6,2025-01-29 15:09:03,0.0
-5882.4,112.39999999999998,606.0,-21057.2,-5218.9,-2696.6,2025-01-29 15:09:03,0.0
-5002.4,788.4,158.0,-21208.2,-10760.9,-1057.6,2025-01-29 15:09:03,0.0
-2998.3999999999996,1112.4,530.0,-21094.2,-14854.9,1552.4,2025-01-29 15:09:03,0.0
329.60000000000036,608.4,-438.0,-20321.2,-14629.9,4406.4,2025-01-29 15:09:03,0.0
3253.6000000000004,-267.6,-2462.0,-19747.2,-10913.9,4954.4,2025-01-29 15:09:03,0.0
4817.6,-815.6,-4654.0,-20217.2,-3891.9,3520.4,2025-01-29 15:09:03,0.0
4977.6,-2011.6,-4454.0,-21029.2,3590.1,1809.4,2025-01-29 15:09:03,0.0
4445.6,-2379.6,-1818.0,-20519.2,10081.1,312.4,2025-01-29 15:09:03,0.0
2977.6000000000004,-1067.6,1238.0,-18887.2,14804.1,-911.6,2025-01-29 15:09:03,0.0
2745.6000000000004,480.4,1470.0,-17655.2,16908.1,-1548.6,2025-01-29 15:09:03,0.0
3065.6000000000004,1068.4,1098.0,-17434.2,15817.1,-2869.6,2025-01-29 15:09:03,0.0
1733.6000000000004,1424.4,-174.0,-17478.2,12690.1,-4327.6,2025-01-29 15:09:03,0.0
357.60000000000036,1248.4,-1058.0,-18057.2,9306.1,-5075.6,2025-01-29 15:09:03,0.0
-942.3999999999996,1184.4,-1050.0,-18660.2,7640.1,-5252.6,2025-01-29 15:09:03,0.0
-2854.3999999999996,1808.4,130.0,-18777.2,7205.1,-5209.6,2025-01-29 15:09:03,0.0
-3274.3999999999996,1872.4,62.0,-18941.2,6439.1,-4704.6,2025-01-29 15:09:03,0.0
-3382.3999999999996,2708.4,1046.0,-19002.2,4288.1,-3934.6,2025-01-29 15:09:03,0.0
-2962.3999999999996,4140.4,382.0,-19025.2,614.1,-3355.6,2025-01-29 15:09:03,0.0
-1170.3999999999996,4716.4,-1698.0,-20342.2,-3633.9,-2890.6,2025-01-29 15:09:03,0.0
5.600000000000364,3996.4,-2638.0,-21944.2,-5504.9,-3315.6,2025-01-29 15:09:03,0.0
1077.6000000000004,2896.4,-2570.0,-23449.2,-5765.9,-3949.6,2025-01-29 15:09:03,0.0
1677.6000000000004,1768.4,-1898.0,-24317.2,-4635.9,-4336.6,2025-01-29 15:09:03,0.0
1593.6000000000004,400.4,-1298.0,-24540.2,-2756.9,-4193.6,2025-01-29 15:09:03,0.0
1761.6000000000004,-715.6,-374.0,-24194.2,-966.9,-4009.6,2025-01-29 15:09:03,0.0
1517.6000000000004,-1011.6,38.0,-23439.2,374.1,-3996.6,2025-01-29 15:09:03,0.0
721.6000000000004,-343.6,-198.0,-22780.2,1070.1,-4071.6,2025-01-29 15:09:03,0.0
545.6000000000004,328.4,-1038.0,-22405.2,973.1,-4020.6,2025-01-29 15:09:03,
-186.39999999999964,1048.4,-846.0,-22092.2,323.1,-3946.6,2025-01-29 15:09:03,0.0
33.600000000000364,936.4,-994.0,-22113.2,-301.9,-3914.6,2025-01-29 15:09:03,0.0
401.60000000000036,864.4,-1054.0,-22238.2,-663.9,-4068.6,2025-01-29 15:09:03,0.0
357.60000000000036,444.4,-1194.0,-22293.2,-706.9,-4158.6,2025-01-29 15:09:03,0.0
381.60000000000036,160.39999999999998,-1422.0,-22221.2,-381.9,-4181.6,2025-01-29 15:09:03,0.0
173.60000000000036,-7.600000000000023,-1482.0,-22050.2,312.1,-4331.6,2025-01-29 15:09:03,0.0
-54.399999999999636,148.39999999999998,-1422.0,-22024.2,923.1,-4461.6,2025-01-29 15:09:03,0.0
-390.39999999999964,-47.60000000000002,-998.0,-22086.2,1057.1,-4633.6,2025-01-29 15:09:03,0.0
-482.39999999999964,-491.6,-558.0,-21850.2,519.1,-4675.6,2025-01-29 15:09:03,0.0
-514.3999999999996,-915.6,-410.0,-21538.2,-193.9,-4479.6,2025-01-29 15:09:03,0.0
-298.39999999999964,-1087.6,-814.0,-21213.2,-816.9,-4362.6,2025-01-29 15:09:03,0.0
-202.39999999999964,-811.6,-1006.0,-20795.2,-868.9,-4144.6,2025-01-29 15:09:03,0.0
193.60000000000036,-915.6,-1354.0,-20403.2,-505.9,-4059.6,2025-01-29 15:09:03,0.0
661.6000000000004,-1463.6,-1050.0,-19902.2,91.1,-4110.6,2025-01-29 15:09:03,0.0
765.6000000000004,-1807.6,-522.0,-19109.2,400.1,-4102.6,2025-01-29 15:09:03,0.0
553.6000000000004,-2439.6,42.0,-17893.2,555.1,-3913.6,2025-01-29 15:09:03,0.0
57.600000000000364,-3027.6,758.0,-16234.2,784.1,-3689.6,2025-01-29 15:09:03,0.0
-402.39999999999964,-3347.6,1310.0,-14868.2,779.1,-3577.6,2025-01-29 15:09:03,0.0
-854.3999999999996,-3411.6,1974.0,-13451.2,553.1,-3540.6,2025-01-29 15:09:03,0.0
-1854.3999999999996,-2703.6,2074.0,-11544.2,77.1,-3038.6,2025-01-29 15:09:03,0.0
-1626.3999999999996,-2091.6,1550.0,-10072.2,-934.9,-2267.6,2025-01-29 15:09:03,0.0
-862.3999999999996,-1967.6,1710.0,-8698.2,-2002.9,-1738.6,2025-01-29 15:09:03,0.0
-610.3999999999996,-1927.6,1994.0,-7690.2,-1761.9,-1389.6,2025-01-29 15:09:03,0.0
-458.39999999999964,-2331.6,1950.0,-6973.2,-554.9,-1178.6,2025-01-29 15:09:03,0.0
-722.3999999999996,-2199.6,1138.0,-6496.2,812.1,-745.6,2025-01-29 15:09:03,0.0
-178.39999999999964,-1303.6,-330.0,-5832.2,673.1,-183.6,2025-01-29 15:09:03,0.0
1085.6000000000004,432.4,-1066.0,-4807.2,-623.9,-267.6,2025-01-29 15:09:03,0.0
1753.6000000000004,1400.4,-522.0,-4928.2,-181.9,-886.6,2025-01-29 15:09:03,0.0
1545.6000000000004,1132.4,998.0,-5730.2,1840.1,-2013.6,2025-01-29 15:09:03,0.0
49.600000000000364,596.4,1302.0,-6714.2,3477.1,-3036.6,2025-01-29 15:09:04,0.0
-1626.3999999999996,148.39999999999998,930.0,-7375.2,2996.1,-3373.6,2025-01-29 15:09:04,0.0
-2450.3999999999996,-663.6,682.0,-7673.2,988.1,-2849.6,2025-01-29 15:09:04,0.0
-878.3999999999996,-1935.6,1030.0,-7327.2,-1762.9,-2171.6,2025-01-29 15:09:04,0.0
681.6000000000004,-2499.6,1334.0,-6975.2,-3084.9,-2129.6,2025-01-29 15:09:04,0.0
1513.6000000000004,-2615.6,926.0,-6539.2,-2796.9,-2082.6,2025-01-29 15:09:04,0.0
1717.6000000000004,-2963.6,234.0,-6088.2,-1442.9,-2032.6,2025-01-29 15:09:04,0.0
1001.6000000000004,-3483.6,382.0,-5616.2,215.1,-1854.6,2025-01-29 15:09:04,0.0
893.6000000000004,-3639.6,1130.0,-4980.2,1866.1,-1833.6,2025-01-29 15:09:04,0.0
241.60000000000036,-3683.6,1654.0,-4508.2,2684.1,-2232.6,2025-01-29 15:09:04,0.0
-482.39999999999964,-2919.6,1982.0,-4306.2,2235.1,-2555.6,2025-01-29 15:09:04,0.0
-1242.3999999999996,-1707.6,1846.0,-4096.2,490.1,-2477.6,2025-01-29 15:09:04,0.0
-1562.3999999999996,-755.6,1006.0,-3981.2,-2059.9,-1858.6,2025-01-29 15:09:04,0.0
-670.3999999999996,-303.6,494.0,-4026.2,-3785.9,-1065.6,2025-01-29 15:09:04,0.0
365.60000000000036,-331.6,18.0,-4169.2,-4069.9,-514.6,2025-01-29 15:09:04,0.0
1381.6000000000004,-951.6,-206.0,-4347.2,-3088.9,-297.6,2025-01-29 15:09:04,0.0
1425.6000000000004,-1587.6,6.0,-4667.2,-1327.9,-389.6,2025-01-29 15:09:04,0.0
857.6000000000004,-1919.6,542.0,-4812.2,958.1,-529.6,2025-01-29 15:09:04,0.0
-102.39999999999964,-2339.6,1214.0,-4673.2,2593.1,-496.6,2025-01-29 15:09:04,0.0
-1094.3999999999996,-2587.6,2010.0,-4124.2,3443.1,-249.6,2025-01-29 15:09:04,0.0
-1682.3999999999996,-2507.6,2958.0,-3307.2,3320.1,254.4,2025-01-29 15:09:04,0.0
-1602.3999999999996,-2291.6,3342.0,-2480.2,1476.1,836.4,2025-01-29 15:09:04,0.0
-1210.3999999999996,-1827.6,3246.0,-1500.2,-2140.9,1430.4,2025-01-29 15:09:04,0.0
-630.3999999999996,-1667.6,2258.0,-864.2,-4503.9,2053.4,2025-01-29 15:09:04,0.0
-162.39999999999964,-1327.6,1054.0,-347.2,-4611.9,2568.4,2025-01-29 15:09:04,0.0
437.60000000000036,-951.6,-154.0,231.8,-3091.9,2725.4,2025-01-29 15:09:04,0.0
813.6000000000004,-791.6,-742.0,530.8,-592.9,2103.4,2025-01-29 15:09:04,0.0
465.60000000000036,-731.6,-182.0,646.8,1508.1,1236.4,2025-01-29 15:09:04,0.0
-806.3999999999996,-643.6,1190.0,666.8,2048.1,872.4,2025-01-29 15:09:04,0.0
-1654.3999999999996,-395.6,1382.0,1025.8,997.1,1020.4,2025-01-29 15:09:04,0.0
-1914.3999999999996,-51.60000000000002,694.0,1322.8,-1333.9,1142.4,2025-01-29 15:09:04,0.0
-1526.3999999999996,436.4,-210.0,980.8,-4005.9,1199.4,2025-01-29 15:09:04,0.0
-738.3999999999996,484.4,18.0,399.8,-5516.9,1108.4,2025-01-29 15:09:04,0.0
-182.39999999999964,928.4,458.0,178.8,-5816.9,1219.4,2025-01-29 15:09:04,0.0
729.6000000000004,752.4,490.0,24.80000000000001,-5508.9,1227.4,2025-01-29 15:09:04,0.0
1321.6000000000004,536.4,546.0,-388.2,-4607.9,932.4,2025-01-29 15:09:04,0.0
1521.6000000000004,456.4,486.0,-690.2,-3112.9,486.4,2025-01-29 15:09:04,0.0
1213.6000000000004,544.4,674.0,-772.2,-1215.9,232.4,2025-01-29 15:09:04,0.0
917.6000000000004,412.4,738.0,-928.2,674.1,104.4,2025-01-29 15:09:04,0.0
525.6000000000004,264.4,1246.0,-1090.2,1610.1,17.400000000000006,2025-01-29 15:09:04,0.0
113.60000000000036,180.39999999999998,2170.0,-1097.2,1881.1,-19.599999999999994,2025-01-29 15:09:04,0.0
-422.39999999999964,160.39999999999998,1986.0,-1084.2,1337.1,-31.599999999999994,2025-01-29 15:09:04,0.0
-542.3999999999996,240.39999999999998,1478.0,-1110.2,158.1,19.400000000000006,2025-01-29 15:09:04,0.0
-538.3999999999996,48.39999999999998,1598.0,-1149.2,-719.9,48.400000000000006,2025-01-29 15:09:04,0.0
-362.39999999999964,96.39999999999998,1386.0,-1037.2,-465.9,60.400000000000006,2025-01-29 15:09:04,0.0
-58.399999999999636,-31.600000000000023,1198.0,-938.2,-21.900000000000006,49.400000000000006,2025-01-29 15:09:04,0.0
25.600000000000364,-139.60000000000002,1334.0,-908.2,116.1,12.400000000000006,2025-01-29 15:09:04,0.0
-62.399999999999636,-43.60000000000002,1826.0,-803.2,192.1,6.400000000000006,2025-01-29 15:09:04,0.0
-62.399999999999636,20.399999999999977,1694.0,-597.2,288.1,-36.599999999999994,2025-01-29 15:09:04,0.0
-498.39999999999964,112.39999999999998,1786.0,-466.2,343.1,-109.6,2025-01-29 15:09:04,0.0
-482.39999999999964,152.39999999999998,1866.0,-446.2,161.1,-111.6,2025-01-29 15:09:04,0.0
-414.39999999999964,216.39999999999998,1898.0,-380.2,84.1,-74.6,2025-01-29 15:09:04,0.0
-374.39999999999964,184.39999999999998,1870.0,-344.2,-148.9,24.400000000000006,2025-01-29 15:09:04,0.0
-234.39999999999964,212.39999999999998,1490.0,-294.2,-371.9,24.400000000000006,2025-01-29 15:09:04,0.0
17.600000000000364,416.4,1422.0,-270.2,-273.9,18.400000000000006,2025-01-29 15:09:04,0.0
65.60000000000036,368.4,1666.0,-326.2,103.1,-55.599999999999994,2025-01-29 15:09:04,0.0
-218.39999999999964,320.4,1298.0,-360.2,294.1,-121.6,2025-01-29 15:09:04,0.0
-514.3999999999996,176.39999999999998,1334.0,-337.2,46.099999999999994,-56.599999999999994,2025-01-29 15:09:04,0.0
-254.39999999999964,128.39999999999998,1458.0,-295.2,-150.9,19.400000000000006,2025-01-29 15:09:04,0.0
-202.39999999999964,36.39999999999998,1574.0,-210.2,-159.9,46.400000000000006,2025-01-29 15:09:04,0.0
-290.39999999999964,80.39999999999998,1594.0,-195.2,-247.9,50.400000000000006,2025-01-29 15:09:05,0.0
-162.39999999999964,224.39999999999998,1538.0,-209.2,-291.9,87.4,2025-01-29 15:09:05,0.0
-162.39999999999964,120.39999999999998,1598.0,-239.2,-211.9,68.4,2025-01-29 15:09:05,0.0
-142.39999999999964,140.39999999999998,1642.0,-152.2,1.0999999999999943,43.400000000000006,2025-01-29 15:09:05,0.0
-182.39999999999964,60.39999999999998,1634.0,-71.19999999999999,125.1,53.400000000000006,2025-01-29 15:09:05,0.0
-258.39999999999964,-15.600000000000023,1438.0,-14.199999999999989,96.1,27.400000000000006,2025-01-29 15:09:05,0.0
-314.39999999999964,-15.600000000000023,1698.0,22.80000000000001,-33.900000000000006,48.400000000000006,2025-01-29 15:09:05,0.0
-374.39999999999964,-31.600000000000023,1810.0,162.8,-182.9,52.400000000000006,2025-01-29 15:09:05,0.0
-302.39999999999964,40.39999999999998,1546.0,235.8,-329.9,109.4,2025-01-29 15:09:05,0.0
-222.39999999999964,24.399999999999977,1518.0,184.8,-421.9,102.4,2025-01-29 15:09:05,0.0
-138.39999999999964,232.39999999999998,1378.0,203.8,-375.9,42.400000000000006,2025-01-29 15:09:05,
-126.39999999999964,228.39999999999998,1342.0,146.8,-237.9,63.400000000000006,2025-01-29 15:09:05,0.0
-98.39999999999964,308.4,1494.0,117.80000000000001,-239.9,26.400000000000006,2025-01-29 15:09:05,0.0
-118.39999999999964,188.39999999999998,1338.0,100.80000000000001,-141.9,39.400000000000006,2025-01-29 15:09:05,0.0
-82.39999999999964,148.39999999999998,1526.0,75.80000000000001,-91.9,71.4,2025-01-29 15:09:05,0.0
-122.39999999999964,68.39999999999998,1498.0,31.80000000000001,-39.900000000000006,42.400000000000006,2025-01-29 15:09:05,0.0
-150.39999999999964,48.39999999999998,1462.0,25.80000000000001,-32.900000000000006,29.400000000000006,2025-01-29 15:09:05,0.0
-254.39999999999964,112.39999999999998,1334.0,5.800000000000011,-17.900000000000006,36.400000000000006,2025-01-29 15:09:05,0.0
-206.39999999999964,152.39999999999998,1462.0,-2.1999999999999886,-45.900000000000006,34.400000000000006,2025-01-29 15:09:05,0.0
-150.39999999999964,108.39999999999998,1542.0,-42.19999999999999,-60.900000000000006,21.400000000000006,2025-01-29 15:09:05,0.0
-130.39999999999964,28.399999999999977,1418.0,-18.19999999999999,-97.9,6.400000000000006,2025-01-29 15:09:05,0.0
-150.39999999999964,132.39999999999998,1466.0,11.800000000000011,-90.9,3.4000000000000057,2025-01-29 15:09:05,0.0
-94.39999999999964,100.39999999999998,1434.0,-40.19999999999999,-46.900000000000006,-99.6,2025-01-29 15:09:05,0.0
-122.39999999999964,92.39999999999998,1374.0,-51.19999999999999,87.1,-106.6,2025-01-29 15:09:05,0.0
-194.39999999999964,80.39999999999998,1422.0,-7.199999999999989,172.1,-79.6,2025-01-29 15:09:05,0.0
-138.39999999999964,112.39999999999998,1358.0,-28.19999999999999,82.1,-55.599999999999994,2025-01-29 15:09:05,0.0
-274.39999999999964,60.39999999999998,1558.0,-20.19999999999999,102.1,-13.599999999999994,2025-01-29 15:09:05,0.0
-346.39999999999964,116.39999999999998,1474.0,-24.19999999999999,69.1,2.4000000000000057,2025-01-29 15:09:05,0.0
-262.39999999999964,8.399999999999977,1494.0,16.80000000000001,-7.900000000000006,49.400000000000006,2025-01-29 15:09:05,0.0
-342.39999999999964,28.399999999999977,1550.0,32.80000000000001,-10.900000000000006,60.400000000000006,2025-01-29 15:09:05,0.0
-286.39999999999964,-39.60000000000002,1630.0,82.80000000000001,-46.900000000000006,38.400000000000006,2025-01-29 15:09:05,0.0
-146.39999999999964,112.39999999999998,1410.0,171.8,-7.900000000000006,-22.599999999999994,2025-01-29 15:09:05,0.0
-198.39999999999964,152.39999999999998,1470.0,237.8,-20.900000000000006,29.400000000000006,2025-01-29 15:09:05,0.0
-78.39999999999964,272.4,1394.0,175.8,74.1,40.400000000000006,2025-01-29 15:09:05,0.0
-86.39999999999964,280.4,1510.0,120.80000000000001,206.1,11.400000000000006,2025-01-29 15:09:05,0.0
-186.39999999999964,272.4,1562.0,111.80000000000001,330.1,-9.599999999999994,2025-01-29 15:09:05,0.0
-366.39999999999964,128.39999999999998,1154.0,69.80000000000001,72.1,-12.599999999999994,2025-01-29 15:09:05,0.0
-358.39999999999964,84.39999999999998,1486.0,89.80000000000001,-43.900000000000006,13.400000000000006,2025-01-29 15:09:05,0.0
-98.39999999999964,152.39999999999998,1574.0,152.8,70.1,51.400000000000006,2025-01-29 15:09:05,0.0
-114.39999999999964,80.39999999999998,1534.0,152.8,77.1,35.400000000000006,2025-01-29 15:09:05,0.0
-170.39999999999964,288.4,1722.0,88.80000000000001,77.1,-1.5999999999999943,2025-01-29 15:09:05,0.0
-302.39999999999964,224.39999999999998,1526.0,125.80000000000001,111.1,22.400000000000006,2025-01-29 15:09:05,0.0
-142.39999999999964,196.39999999999998,1542.0,126.80000000000001,153.1,-2.5999999999999943,2025-01-29 15:09:05,0.0
-106.39999999999964,244.39999999999998,1498.0,110.80000000000001,150.1,-19.599999999999994,2025-01-29 15:09:05,0.0
-86.39999999999964,268.4,1550.0,115.80000000000001,248.1,-52.599999999999994,2025-01-29 15:09:05,0.0
-142.39999999999964,292.4,1682.0,103.80000000000001,288.1,-89.6,2025-01-29 15:09:05,0.0
-178.39999999999964,296.4,1434.0,72.80000000000001,285.1,-80.6,2025-01-29 15:09:05,0.0
-290.39999999999964,356.4,1302.0,85.80000000000001,164.1,-80.6,2025-01-29 15:09:05,0.0
-314.39999999999964,364.4,1390.0,38.80000000000001,121.1,-92.6,2025-01-29 15:09:05,0.0
-318.39999999999964,348.4,1466.0,52.80000000000001,104.1,-91.6,2025-01-29 15:09:05,0.0
-310.39999999999964,432.4,1494.0,-11.199999999999989,143.1,-62.599999999999994,2025-01-29 15:09:05,0.0
-378.39999999999964,544.4,1454.0,-36.19999999999999,88.1,-54.599999999999994,2025-01-29 15:09:05,0.0
-354.39999999999964,440.4,1186.0,-89.19999999999999,73.1,-58.599999999999994,2025-01-29 15:09:05,0.0
-310.39999999999964,448.4,1358.0,-83.19999999999999,84.1,-100.6,2025-01-29 15:09:05,0.0
-462.39999999999964,532.4,1542.0,-38.19999999999999,80.1,-77.6,2025-01-29 15:09:05,0.0
-366.39999999999964,596.4,1366.0,-19.19999999999999,-73.9,-49.599999999999994,2025-01-29 15:09:05,0.0
-194.39999999999964,600.4,1550.0,-91.19999999999999,-204.9,-118.6,2025-01-29 15:09:05,0.0
-126.39999999999964,808.4,1582.0,-88.19999999999999,-161.9,-109.6,2025-01-29 15:09:05,0.0
-126.39999999999964,820.4,1678.0,15.800000000000011,-68.9,-91.6,2025-01-29 15:09:05,0.0
33.600000000000364,512.4,1730.0,116.80000000000001,107.1,-117.6,2025-01-29 15:09:06,0.0
145.60000000000036,4.399999999999977,1910.0,270.8,327.1,-294.6,2025-01-29 15:09:06,0.0
109.60000000000036,-231.60000000000002,2322.0,605.8,755.1,-403.6,2025-01-29 15:09:06,0.0
-34.399999999999636,-103.60000000000002,1642.0,1021.8,1084.1,-359.6,2025-01-29 15:09:06,0.0
73.60000000000036,40.39999999999998,1454.0,1172.8,1153.1,-323.6,2025-01-29 15:09:06,0.0
193.60000000000036,-103.60000000000002,1470.0,1269.8,995.1,-415.6,2025-01-29 15:09:06,0.0
81.60000000000036,-487.6,1346.0,1559.8,610.1,-441.6,2025-01-29 15:09:06,0.0
21.600000000000364,-615.6,1342.0,2040.8,395.1,-451.6,2025-01-29 15:09:06,0.0
149.60000000000036,-583.6,1266.0,2403.8,571.1,-373.6,2025-01-29 15:09:06,0.0
49.600000000000364,-383.6,1270.0,2711.8,891.1,-370.6,2025-01-29 15:09:06,0.0
-30.399999999999636,-51.60000000000002,1270.0,2775.8,938.1,-325.6,2025-01-29 15:09:06,0.0
-506.39999999999964,336.4,1138.0,2693.8,1008.1,-286.6,2025-01-29 15:09:06,0.0
-882.3999999999996,888.4,542.0,2626.8,1022.1,-257.6,2025-01-29 15:09:06,0.0
-670.3999999999996,1080.4,262.0,2288.8,519.1,-377.6,2025-01-29 15:09:06,0.0
-354.39999999999964,748.4,1018.0,1944.8,-336.9,-568.6,2025-01-29 15:09:06,0.0
-414.39999999999964,732.4,1810.0,1832.8,-774.9,-618.6,2025-01-29 15:09:06,0.0
-298.39999999999964,752.4,1954.0,1592.8,-921.9,-422.6,2025-01-29 15:09:06,0.0
109.60000000000036,420.4,1846.0,1333.8,-1131.9,-461.6,2025-01-29 15:09:06,0.0
705.6000000000004,-63.60000000000002,1554.0,923.8,-1209.9,-647.6,2025-01-29 15:09:06,0.0
841.6000000000004,-419.6,1990.0,275.8,-210.9,-999.6,2025-01-29 15:09:06,0.0
545.6000000000004,-591.6,2318.0,-559.2,1501.1,-1344.6,2025-01-29 15:09:06,0.0
-42.399999999999636,-479.6,2918.0,-1060.2,2489.1,-1394.6,2025-01-29 15:09:06,0.0
-102.39999999999964,-635.6,3726.0,-1369.2,2561.1,-1539.6,2025-01-29 15:09:06,0.0
-270.39999999999964,-1423.6,3962.0,-1503.2,1849.1,-1738.6,2025-01-29 15:09:06,0.0
-350.39999999999964,-2095.6,4058.0,-1491.2,928.1,-1919.6,2025-01-29 15:09:06,0.0
-546.3999999999996,-2591.6,3934.0,-1064.2,319.1,-2053.6,2025-01-29 15:09:06,0.0
-674.3999999999996,-2459.6,3406.0,-604.2,240.1,-2062.6,2025-01-29 15:09:06,0.0
-810.3999999999996,-1911.6,3010.0,-353.2,263.1,-2141.6,2025-01-29 15:09:06,0.0
-714.3999999999996,-1187.6,3094.0,-496.2,-333.9,-1954.6,2025-01-29 15:09:06,0.0
-454.39999999999964,-963.6,3594.0,-637.2,-1432.9,-1618.6,2025-01-29 15:09:06,0.0
-226.39999999999964,-1135.6,3882.0,-711.2,-2615.9,-1232.6,2025-01-29 15:09:06,0.0
265.60000000000036,-1399.6,4170.0,-730.2,-3402.9,-908.6,2025-01-29 15:09:06,0.0
409.60000000000036,-1359.6,4338.0,-726.2,-3457.9,-585.6,2025-01-29 15:09:06,0.0
537.6000000000004,-1195.6,4278.0,-639.2,-2846.9,-174.6,2025-01-29 15:09:06,0.0
813.6000000000004,-1151.6,3974.0,-589.2,-1971.9,279.4,2025-01-29 15:09:06,0.0
861.6000000000004,-1151.6,3738.0,-588.2,-1061.9,724.4,2025-01-29 15:09:06,0.0
1153.6000000000004,-1359.6,3442.0,-557.2,99.1,996.4,2025-01-29 15:09:06,0.0
965.6000000000004,-1435.6,2746.0,-782.2,1212.1,996.4,2025-01-29 15:09:06,0.0
729.6000000000004,-1383.6,2706.0,-1289.2,1987.1,649.4,2025-01-29 15:09:06,0.0
-26.399999999999636,-1243.6,3178.0,-1731.2,2350.1,274.4,2025-01-29 15:09:06,0.0
-1106.3999999999996,-223.60000000000002,2806.0,-1946.2,2080.1,238.4,2025-01-29 15:09:06,0.0
-1654.3999999999996,264.4,2062.0,-2496.2,1335.1,357.4,2025-01-29 15:09:06,0.0
-1386.3999999999996,-931.6,2518.0,-3327.2,590.1,-73.6,2025-01-29 15:09:06,0.0
-1534.3999999999996,-2295.6,3918.0,-3913.2,53.099999999999994,-580.6,2025-01-29 15:09:06,0.0
-1642.3999999999996,-3087.6,5014.0,-3973.2,-701.9,-805.6,2025-01-29 15:09:06,0.0
-1406.3999999999996,-2891.6,5266.0,-3781.2,-1715.9,-877.6,2025-01-29 15:09:06,0.0
-1298.3999999999996,-2315.6,3354.0,-3817.2,-2006.9,-1370.6,2025-01-29 15:09:06,0.0
-1526.3999999999996,-1395.6,1398.0,-4712.2,-1886.9,-2342.6,2025-01-29 15:09:06,0.0
-1462.3999999999996,-2283.6,1834.0,-5505.2,-1399.9,-3757.6,2025-01-29 15:09:06,0.0
-2078.3999999999996,-3415.6,3046.0,-5198.2,-1223.9,-5078.6,2025-01-29 15:09:06,0.0
-4314.4,-4531.6,3922.0,-4231.2,-1376.9,-4870.6,2025-01-29 15:09:06,0.0
-6050.4,-4983.6,4410.0,-2772.2,-2375.9,-3019.6,2025-01-29 15:09:06,
-4598.4,-2815.6,4714.0,589.8,-5939.9,1694.4,2025-01-29 15:09:06,0.0
-2570.3999999999996,-1699.6,2766.0,1793.8,-6921.9,3160.4,2025-01-29 15:09:06,0.0
-270.39999999999964,-1587.6,-50.0,1716.8,-6614.9,4109.4,2025-01-29 15:09:06,0.0
1813.6000000000004,-1419.6,-1306.0,981.8,-4679.9,3668.4,2025-01-29 15:09:06,0.0
2161.6000000000004,-1107.6,-1910.0,396.8,-1919.9,2513.4,2025-01-29 15:09:06,0.0
1733.6000000000004,-815.6,-1302.0,588.8,465.1,1593.4,2025-01-29 15:09:06,0.0
1041.6000000000004,-259.6,-198.0,1257.8,2121.1,1136.4,2025-01-29 15:09:06,0.0
429.60000000000036,1480.4,718.0,1285.8,2195.1,1310.4,2025-01-29 15:09:06,0.0
-130.39999999999964,2844.4,1122.0,505.8,1521.1,1866.4,2025-01-29 15:09:06,0.0
-806.3999999999996,2680.4,878.0,-70.19999999999999,1124.1,2633.4,2025-01-29 15:09:07,0.0
-1426.3999999999996,1612.4,62.0,-227.2,1157.1,3576.4,2025-01-29 15:09:07,0.0
-490.39999999999964,296.4,-122.0,-508.2,1424.1,3713.4,2025-01-29 15:09:07,0.0
49.600000000000364,-379.6,946.0,-560.2,1521.1,3143.4,2025-01-29 15:09:07,0.0
81.60000000000036,-647.6,2182.0,-179.2,1038.1,2906.4,2025-01-29 15:09:07,0.0
385.60000000000036,-531.6,2566.0,510.8,-18.900000000000006,3083.4,2025-01-29 15:09:07,0.0
581.6000000000004,-215.60000000000002,2526.0,1123.8,-1403.9,3290.4,2025-01-29 15:09:07,0.0
1125.6000000000004,276.4,2010.0,1304.8,-2248.9,3348.4,2025-01-29 15:09:07,0.0
1949.6000000000004,916.4,1810.0,1045.8,-2125.9,3038.4,2025-01-29 15:09:07,0.0
2061.6000000000004,1728.4,2258.0,810.8,-1511.9,2475.4,2025-01-29 15:09:07,0.0
1781.6000000000004,2092.4,2074.0,824.8,-630.9,2087.4,2025-01-29 15:09:07,0.0
1405.6000000000004,2320.4,1570.0,660.8,270.1,1916.4,2025-01-29 15:09:07,0.0
1349.6000000000004,2112.4,2054.0,480.8,1129.1,1639.4,2025-01-29 15:09:07,0.0
909.6000000000004,2076.4,2710.0,252.8,1353.1,1259.4,2025-01-29 15:09:07,0.0
773.6000000000004,1840.4,2906.0,73.80000000000001,939.1,932.4,2025-01-29 15:09:07,0.0
685.6000000000004,1360.4,2718.0,-43.19999999999999,162.1,605.4,2025-01-29 15:09:07,0.0
661.6000000000004,868.4,2634.0,-232.2,-573.9,201.4,2025-01-29 15:09:07,0.0
805.6000000000004,732.4,3106.0,-221.2,-972.9,-84.6,2025-01-29 15:09:07,0.0
753.6000000000004,836.4,3870.0,94.80000000000001,-1019.9,-111.6,2025-01-29 15:09:07,0.0
665.6000000000004,812.4,4046.0,514.8,-913.9,-42.599999999999994,2025-01-29 15:09:07,0.0
441.60000000000036,600.4,4130.0,920.8,-700.9,-66.6,2025-01-29 15:09:07,0.0
333.60000000000036,468.4,4486.0,1321.8,-891.9,-63.599999999999994,2025-01-29 15:09:07,0.0
77.60000000000036,492.4,4702.0,1839.8,-1293.9,39.400000000000006,2025-01-29 15:09:07,0.0
21.600000000000364,636.4,4706.0,2341.8,-1741.9,188.4,2025-01-29 15:09:07,0.0
209.60000000000036,940.4,4266.0,2875.8,-2208.9,147.4,2025-01-29 15:09:07,0.0
-46.399999999999636,1424.4,3598.0,3265.8,-2554.9,-3.5999999999999943,2025-01-29 15:09:07,0.0
-378.39999999999964,2012.4,3350.0,3524.8,-2324.9,35.400000000000006,2025-01-29 15:09:07,0.0
-838.3999999999996,2160.4,3042.0,3746.8,-1690.9,321.4,2025-01-29 15:09:07,0.0
-1202.3999999999996,2020.4,2714.0,3819.8,-980.9,895.4,2025-01-29 15:09:07,0.0
-1210.3999999999996,2072.4,2870.0,3806.8,-410.9,1506.4,2025-01-29 15:09:07,0.0
-858.3999999999996,2616.4,3718.0,3717.8,29.099999999999994,1903.4,2025-01-29 15:09:07,0.0
-286.39999999999964,3108.4,4034.0,2796.8,969.1,-139.6,2025-01-29 15:09:07,0.0
-2090.3999999999996,2488.4,3662.0,2764.8,2462.1,-65.6,2025-01-29 15:09:07,0.0
-2962.3999999999996,2356.4,3494.0,3353.8,3886.1,186.4,2025-01-29 15:09:07,0.0
-3502.3999999999996,3900.4,2862.0,2987.8,4714.1,970.4,2025-01-29 15:09:07,0.0
-3926.3999999999996,5524.4,1254.0,1653.8,4410.1,1672.4,2025-01-29 15:09:07,0.0
-4606.4,6288.4,-486.0,-237.2,3245.1,1825.4,2025-01-29 15:09:07,0.0
-5030.4,6192.4,-1074.0,-2552.2,379.1,1419.4,2025-01-29 15:09:07,0.0
-3686.3999999999996,4400.4,166.0,-4201.2,-4462.9,1114.4,2025-01-29 15:09:07,0.0
-1370.3999999999996,1524.4,1630.0,-4928.2,-8807.9,394.4,2025-01-29 15:09:07,0.0
1153.6000000000004,-835.6,1290.0,-5090.2,-11424.9,-756.6,2025-01-29 15:09:07,0.0
2621.6000000000004,-2211.6,334.0,-4614.2,-11593.9,-2167.6,2025-01-29 15:09:07,0.0
2209.6000000000004,-2979.6,-658.0,-3590.2,-8644.9,-2848.6,2025-01-29 15:09:07,0.0
1725.6000000000004,-3311.6,-498.0,-2250.2,-3643.9,-2247.6,2025-01-29 15:09:07,0.0
2005.6000000000004,-3059.6,650.0,-761.2,2452.1,-1327.6,2025-01-29 15:09:07,0.0
2685.6000000000004,-1879.6,998.0,450.8,7207.1,-1261.6,2025-01-29 15:09:07,0.0
1409.6000000000004,-447.6,1314.0,752.8,9934.1,-1640.6,2025-01-29 15:09:07,0.0
353.60000000000036,928.4,1790.0,460.8,10464.1,-1875.6,2025-01-29 15:09:07,0.0
-1778.3999999999996,-251.60000000000002,1302.0,-1862.2,-1109.9,-3319.6,2025-01-29 15:09:07,0.0
-826.3999999999996,-751.6,1150.0,-1752.2,-4135.9,-3038.6,2025-01-29 15:09:07,0.0
-186.39999999999964,-983.6,1998.0,-1770.2,-5913.9,-2571.6,2025-01-29 15:09:07,0.0
1173.6000000000004,-811.6,1854.0,-1785.2,-6303.9,-2260.6,2025-01-29 15:09:07,0.0
1845.6000000000004,-283.6,1586.0,-1899.2,-5001.9,-2099.6,2025-01-29 15:09:07,0.0
2553.6000000000004,-283.6,1438.0,-2155.2,-2388.9,-2163.6,2025-01-29 15:09:08,0.0
2237.6000000000004,-883.6,1702.0,-2459.2,-121.9,-2379.6,2025-01-29 15:09:08,0.0
1401.6000000000004,-1235.6,2334.0,-2637.2,1241.1,-2419.6,2025-01-29 15:09:08,0.0
17.600000000000364,-871.6,2382.0,-2626.2,1532.1,-1858.6,2025-01-29 15:09:08,0.0
-710.3999999999996,-379.6,2230.0,-2535.2,1145.1,-1033.6,2025-01-29 15:09:08,0.0
-902.3999999999996,-47.60000000000002,2134.0,-2613.2,135.1,-114.6,2025-01-29 15:09:08,0.0
-886.3999999999996,64.39999999999998,2662.0,-2763.2,-970.9,584.4,2025-01-29 15:09:08,0.0
-238.39999999999964,-91.60000000000002,2694.0,-2886.2,-1756.9,1004.4,2025-01-29 15:09:08,0.0
377.60000000000036,-3.6000000000000227,2406.0,-3062.2,-2062.9,1201.4,2025-01-29 15:09:08,0.0
513.6000000000004,512.4,2110.0,-3311.2,-2146.9,1461.4,2025-01-29 15:09:08,0.0
861.6000000000004,820.4,2106.0,-3853.2,-1933.9,1618.4,2025-01-29 15:09:08,0.0
957.6000000000004,708.4,2026.0,-4603.2,-1675.9,1446.4,2025-01-29 15:09:08,0.0
585.6000000000004,512.4,2414.0,-5494.2,-1399.9,1381.4,2025-01-29 15:09:08,0.0
201.60000000000036,224.39999999999998,2574.0,-6177.2,-1276.9,1505.4,2025-01-29 15:09:08,0.0
1.6000000000003638,-7.600000000000023,2626.0,-6517.2,-1283.9,1863.4,2025-01-29 15:09:08,0.0
-554.3999999999996,-223.60000000000002,2894.0,-6662.2,-1243.9,2405.4,2025-01-29 15:09:08,0.0
-794.3999999999996,-163.60000000000002,3114.0,-6643.2,-973.9,3025.4,2025-01-29 15:09:08,0.0
-338.39999999999964,-335.6,2874.0,-6848.2,-475.9,3292.4,2025-01-29 15:09:08,0.0
-218.39999999999964,0.39999999999997726,2630.0,-7431.2,-149.9,2787.4,2025-01-29 15:09:08,0.0
277.60000000000036,688.4,1710.0,-8259.2,-33.900000000000006,2052.4,2025-01-29 15:09:08,0.0
533.6000000000004,1660.4,150.0,-9879.2,579.1,894.4,2025-01-29 15:09:08,0.0
1.6000000000003638,2040.4,58.0,-11358.2,2037.1,34.400000000000006,2025-01-29 15:09:08,0.0
-742.3999999999996,1852.4,1430.0,-12710.2,3719.1,-354.6,2025-01-29 15:09:08,0.0
-1710.3999999999996,620.4,3042.0,-13703.2,4257.1,-475.6,2025-01-29 15:09:08,0.0
-2666.3999999999996,-559.6,3882.0,-14411.2,3094.1,-396.6,2025-01-29 15:09:08,0.0
-2946.3999999999996,-1363.6,4170.0,-15027.2,849.1,-300.6,2025-01-29 15:09:08,0.0
-2554.3999999999996,-1515.6,4398.0,-15663.2,-1646.9,-125.6,2025-01-29 15:09:08,0.0
-1946.3999999999996,-1267.6,4210.0,-15963.2,-3213.9,-9.599999999999994,2025-01-29 15:09:08,0.0
-1006.3999999999996,-499.6,1854.0,-16067.2,-3566.9,-117.6,2025-01-29 15:09:08,0.0
385.60000000000036,608.4,342.0,-16752.2,-3204.9,-623.6,2025-01-29 15:09:08,0.0
1725.6000000000004,836.4,-418.0,-17396.2,-1864.9,-1584.6,2025-01-29 15:09:08,0.0
2145.6000000000004,72.39999999999998,-1542.0,-16709.2,320.1,-2357.6,2025-01-29 15:09:08,0.0
2277.6000000000004,-1255.6,-2874.0,-15818.2,3393.1,-3600.6,2025-01-29 15:09:08,0.0
633.6000000000004,-1795.6,-1794.0,-15505.2,7098.1,-4926.6,2025-01-29 15:09:08,0.0
-1574.3999999999996,-1531.6,206.0,-15065.2,10395.1,-4849.6,2025-01-29 15:09:08,0.0
-2190.3999999999996,-763.6,1342.0,-14142.2,11763.1,-3130.6,2025-01-29 15:09:08,0.0
-2558.3999999999996,292.4,1814.0,-13084.2,9985.1,-1400.6,2025-01-29 15:09:08,0.0
-1546.3999999999996,1128.4,334.0,-13391.2,6210.1,-1090.6,2025-01-29 15:09:08,
-1366.3999999999996,1804.4,-1002.0,-13880.2,2192.1,-1286.6,2025-01-29 15:09:08,0.0
-1062.3999999999996,1848.4,-1326.0,-13721.2,697.1,-1171.6,2025-01-29 15:09:08,0.0
453.60000000000036,1872.4,-1998.0,-13730.2,1522.1,-1189.6,2025-01-29 15:09:08,0.0
1245.6000000000004,2148.4,-2314.0,-14295.2,2652.1,-1389.6,2025-01-29 15:09:08,0.0
1417.6000000000004,2216.4,-2922.0,-15222.2,3071.1,-1440.6,2025-01-29 15:09:08,0.0
1485.6000000000004,2200.4,-3178.0,-16164.2,2906.1,-1626.6,2025-01-29 15:09:08,0.0
1301.6000000000004,2108.4,-3322.0,-17267.2,3059.1,-1868.6,2025-01-29 15:09:08,0.0
789.6000000000004,1556.4,-2782.0,-18075.2,3933.1,-1887.6,2025-01-29 15:09:08,0.0
485.60000000000036,976.4,-1918.0,-18539.2,4806.1,-1842.6,2025-01-29 15:09:08,0.0
253.60000000000036,136.39999999999998,-1362.0,-18663.2,4999.1,-1756.6,2025-01-29 15:09:08,0.0
-10.399999999999636,-147.60000000000002,-858.0,-18604.2,4315.1,-1754.6,2025-01-29 15:09:08,0.0
73.60000000000036,-571.6,-1186.0,-18540.2,2779.1,-1951.6,2025-01-29 15:09:08,0.0
389.60000000000036,-247.60000000000002,-1050.0,-18313.2,777.1,-2439.6,2025-01-29 15:09:08,0.0
789.6000000000004,388.4,-894.0,-18075.2,-510.9,-2758.6,2025-01-29 15:09:08,0.0
1429.6000000000004,780.4,-950.0,-18198.2,-630.9,-3035.6,2025-01-29 15:09:08,0.0
1801.6000000000004,776.4,-1962.0,-18821.2,-103.9,-3402.6,2025-01-29 15:09:08,0.0
1537.6000000000004,748.4,-3278.0,-19844.2,972.1,-3864.6,2025-01-29 15:09:08,0.0
993.6000000000004,640.4,-3754.0,-21168.2,1763.1,-4343.6,2025-01-29 15:09:08,0.0
461.60000000000036,908.4,-2882.0,-22028.2,2080.1,-4623.6,2025-01-29 15:09:08,0.0
-6.399999999999636,928.4,-2506.0,-22348.2,1779.1,-4726.6,2025-01-29 15:09:08,0.0
-234.39999999999964,404.4,-2390.0,-22521.2,1274.1,-4440.6,2025-01-29 15:09:08,0.0
-206.39999999999964,-559.6,-2530.0,-22392.2,942.1,-4008.6,2025-01-29 15:09:08,0.0
-6.399999999999636,-1599.6,-2586.0,-22015.2,1270.1,-3687.6,2025-01-29 15:09:08,0.0
417.60000000000036,-2559.6,-2894.0,-21638.2,1679.1,-3560.6,2025-01-29 15:09:08,0.0
1009.6000000000004,-3087.6,-2486.0,-21249.2,1620.1,-3715.6,2025-01-29 15:09:08,0.0
1477.6000000000004,-2731.6,-1670.0,-20712.2,1409.1,-3989.6,2025-01-29 15:09:08,0.0
1813.6000000000004,-1875.6,-1270.0,-20108.2,1316.1,-4325.6,2025-01-29 15:09:08,0.0
1637.6000000000004,-543.6,-2222.0,-19703.2,1091.1,-4469.6,2025-01-29 15:09:08,0.0
1521.6000000000004,496.4,-2614.0,-19643.2,812.1,-4479.6,2025-01-29 15:09:09,0.0
1145.6000000000004,100.39999999999998,-2306.0,-19557.2,1022.1,-4190.6,2025-01-29 15:09:09,0.0
861.6000000000004,-583.6,-1098.0,-18609.2,1077.1,-3750.6,2025-01-29 15:09:09,0.0
877.6000000000004,-1631.6,-1018.0,-17640.2,958.1,-3200.6,2025-01-29 15:09:09,0.0
1245.6000000000004,-1903.6,-1234.0,-16441.2,453.1,-2883.6,2025-01-29 15:09:09,0.0
1125.6000000000004,-2195.6,-2546.0,-15463.2,-483.9,-2612.6,2025-01-29 15:09:09,0.0
1505.6000000000004,-1587.6,-2034.0,-14631.2,-1568.9,-2440.6,2025-01-29 15:09:09,0.0
1857.6000000000004,-1131.6,-1602.0,-13859.2,-2460.9,-2318.6,2025-01-29 15:09:09,0.0
1649.6000000000004,-1323.6,-1434.0,-13276.2,-3586.9,-2113.6,2025-01-29 15:09:09,0.0
1001.6000000000004,-1487.6,-1346.0,-12681.2,-4799.9,-1334.6,2025-01-29 15:09:09,0.0
1117.6000000000004,-1855.6,-1710.0,-12052.2,-6331.9,-332.6,2025-01-29 15:09:09,0.0
3829.6000000000004,-1231.6,-222.0,-12478.2,-9118.9,-627.6,2025-01-29 15:09:09,0.0
4945.6,632.4,1362.0,-12881.2,-8435.9,-1424.6,2025-01-29 15:09:09,0.0
6505.6,2072.4,5050.0,-12769.2,-6179.9,-2720.6,2025-01-29 15:09:09,0.0
5149.6,1372.4,3614.0,-12231.2,-4699.9,-3354.6,2025-01-29 15:09:09,0.0
3133.6000000000004,-527.6,-206.0,-11980.2,-581.9,-2470.6,2025-01-29 15:09:09,0.0
3149.6000000000004,-2575.6,-2510.0,-12356.2,-590.9,-1749.6,2025-01-29 15:09:09,0.0
2441.6000000000004,-3195.6,-1530.0,-12719.2,-1627.9,-2056.6,2025-01-29 15:09:09,0.0
629.6000000000004,-3231.6,194.0,-12978.2,-215.9,-2516.6,2025-01-29 15:09:09,0.0
-2894.3999999999996,-3063.6,3098.0,-13206.2,1906.1,-2902.6,2025-01-29 15:09:09,0.0
-5562.4,-2647.6,6254.0,-11976.2,-368.9,-2434.6,2025-01-29 15:09:09,0.0
-2306.3999999999996,-2247.6,4734.0,-11140.2,-5778.9,-1559.6,2025-01-29 15:09:09,0.0
-4138.4,-1503.6,4314.0,-11328.2,-11630.9,-700.6,2025-01-29 15:09:09,0.0
-842.3999999999996,-1131.6,2962.0,-11425.2,-14188.9,-512.6,2025-01-29 15:09:09,0.0
1101.6000000000004,-579.6,2778.0,-11738.2,-14558.9,-439.6,2025-01-29 15:09:09,0.0
737.6000000000004,-3.6000000000000227,2318.0,-11539.2,-9882.9,-604.6,2025-01-29 15:09:09,0.0
-854.3999999999996,404.4,2758.0,-11319.2,-6787.9,157.4,2025-01-29 15:09:09,0.0
-2230.3999999999996,32.39999999999998,3962.0,-11473.2,-5239.9,893.4,2025-01-29 15:09:09,0.0
-2470.3999999999996,-879.6,2842.0,-12426.2,-5682.9,1547.4,2025-01-29 15:09:09,0.0
1409.6000000000004,-427.6,4986.0,-13814.2,-8190.9,1419.4,2025-01-29 15:09:09,0.0
-678.3999999999996,152.39999999999998,7474.0,-13930.2,-9776.9,1872.4,2025-01-29 15:09:09,0.0
-586.3999999999996,-1243.6,7350.0,-13142.2,-10388.9,3168.4,2025-01-29 15:09:09,0.0
-1282.3999999999996,-3371.6,9098.0,-11675.2,-12492.9,4011.4,2025-01-29 15:09:09,0.0
-662.3999999999996,-3819.6,8126.0,-9931.2,-13190.9,4012.4,2025-01-29 15:09:09,0.0
841.6000000000004,-2615.6,8762.0,-9365.2,-12891.9,3210.4,2025-01-29 15:09:09,0.0
2421.6000000000004,-1223.6,7494.0,-8500.2,-10975.9,1449.4,2025-01-29 15:09:09,0.0
869.6000000000004,1392.4,8730.0,-8271.2,-9147.9,888.4,2025-01-29 15:09:09,0.0
509.60000000000036,2508.4,9502.0,-7673.2,-8119.9,1740.4,2025-01-29 15:09:09,0.0
77.60000000000036,1248.4,10146.0,-6659.2,-8380.9,2489.4,2025-01-29 15:09:09,0.0
485.60000000000036,64.39999999999998,10382.0,-5684.2,-9950.9,2639.4,2025-01-29 15:09:09,0.0
137.60000000000036,184.39999999999998,11270.0,-5290.2,-12064.9,2493.4,2025-01-29 15:09:09,0.0
1021.6000000000004,760.4,10398.0,-5390.2,-13502.9,2503.4,2025-01-29 15:09:09,0.0
2781.6000000000004,1012.4,10770.0,-4808.2,-12936.9,2190.4,2025-01-29 15:09:09,0.0
3277.6000000000004,644.4,11550.0,-3839.2,-11725.9,1846.4,2025-01-29 15:09:09,0.0
2917.6000000000004,216.39999999999998,11934.0,-3213.2,-11341.9,1358.4,2025-01-29 15:09:09,0.0
2537.6000000000004,632.4,12122.0,-3308.2,-11526.9,584.4,2025-01-29 15:09:09,0.0
2437.6000000000004,712.4,12266.0,-3584.2,-11659.9,99.4,2025-01-29 15:09:09,0.0
2653.6000000000004,992.4,14390.0,-3787.2,-12111.9,-419.6,2025-01-29 15:09:09,0.0
2845.6000000000004,916.4,16358.0,-3218.2,-12364.9,-597.6,2025-01-29 15:09:09,0.0
2713.6000000000004,1100.4,16926.0,-2594.2,-12373.9,-606.6,2025-01-29 15:09:09,0.0
1781.6000000000004,2256.4,18086.0,-1987.2,-12322.9,-601.6,2025-01-29 15:09:09,0.0
645.6000000000004,3536.4,17530.0,-1648.2,-11149.9,-117.6,2025-01-29 15:09:09,0.0
-546.3999999999996,3040.4,18778.0,-1394.2,-10280.9,257.4,2025-01-29 15:09:09,0.0
-730.3999999999996,2432.4,18998.0,-225.2,-10358.9,431.4,2025-01-29 15:09:09,0.0
501.60000000000036,3184.4,17766.0,142.8,-10357.9,291.4,2025-01-29 15:09:09,0.0
1001.6000000000004,3320.4,16730.0,611.8,-9671.9,425.4,2025-01-29 15:09:09,0.0
2157.6000000000004,2776.4,17130.0,1321.8,-8767.9,1078.4,2025-01-29 15:09:09,0.0
3425.6000000000004,1608.4,17230.0,1847.8,-7801.9,1470.4,2025-01-29 15:09:09,0.0
4525.6,200.39999999999998,16798.0,1925.8,-6752.9,1498.4,2025-01-29 15:09:09,0.0
5445.6,-539.6,15730.0,1291.8,-5772.9,1181.4,2025-01-29 15:09:10,0.0
5937.6,-495.6,15798.0,378.8,-5340.9,759.4,2025-01-29 15:09:10,0.0
6357.6,-419.6,16326.0,-74.19999999999999,-5212.9,395.4,2025-01-29 15:09:10,0.0
6465.6,-115.60000000000002,16482.0,-122.19999999999999,-5099.9,36.400000000000006,2025-01-29 15:09:10,0.0
6493.6,-43.60000000000002,16842.0,-53.19999999999999,-4612.9,-114.6,2025-01-29 15:09:10,0.0
6649.6,-159.60000000000002,16654.0,189.8,-4012.9,-87.6,2025-01-29 15:09:10,0.0
6545.6,-95.60000000000002,16454.0,170.8,-3261.9,-19.599999999999994,2025-01-29 15:09:10,0.0
6465.6,60.39999999999998,16562.0,-110.19999999999999,-3235.9,-11.599999999999994,2025-01-29 15:09:10,0.0
6233.6,1784.4,17058.0,-290.2,-3372.9,141.4,2025-01-29 15:09:10,0.0
5973.6,2236.4,17366.0,-419.2,-3220.9,453.4,2025-01-29 15:09:10,0.0
5273.6,1724.4,17662.0,-404.2,-2760.9,723.4,2025-01-29 15:09:10,0.0
5581.6,1176.4,17646.0,-392.2,-2643.9,1143.4,2025-01-29 15:09:10,0.0
6537.6,-23.600000000000023,17630.0,-281.2,-2678.9,1117.4,2025-01-29 15:09:10,
6865.6,-215.60000000000002,17774.0,-30.19999999999999,-2274.9,912.4,2025-01-29 15:09:10,0.0
6709.6,620.4,17250.0,-231.2,-1538.9,728.4,2025-01-29 15:09:10,0.0
7121.6,1108.4,16566.0,-937.2,-1015.9,724.4,2025-01-29 15:09:10,0.0
7117.6,768.4,17114.0,-1556.2,38.099999999999994,535.4,2025-01-29 15:09:10,0.0
6665.6,748.4,17522.0,-1628.2,817.1,302.4,2025-01-29 15:09:10,0.0
6097.6,12.399999999999977,17850.0,-1217.2,897.1,440.4,2025-01-29 15:09:10,0.0
6249.6,1096.4,17306.0,-947.2,345.1,446.4,2025-01-29 15:09:10,0.0
6541.6,1068.4,16394.0,-1187.2,-415.9,538.4,2025-01-29 15:09:10,0.0
6329.6,912.4,16906.0,-1109.2,-653.9,416.4,2025-01-29 15:09:10,0.0
7249.6,1216.4,16578.0,-1142.2,-532.9,400.4,2025-01-29 15:09:10,0.0
7185.6,1112.4,16594.0,-1150.2,220.1,289.4,2025-01-29 15:09:10,0.0
6137.6,756.4,16346.0,-1157.2,1319.1,254.4,2025-01-29 15:09:10,0.0
5045.6,200.39999999999998,17254.0,-1014.2,1322.1,372.4,2025-01-29 15:09:10,0.0
4869.6,632.4,17658.0,-732.2,185.1,537.4,2025-01-29 15:09:10,0.0
5109.6,1012.4,18034.0,-387.2,-1289.9,824.4,2025-01-29 15:09:10,0.0
6097.6,1160.4,17458.0,196.8,-2179.9,969.4,2025-01-29 15:09:10,0.0
6689.6,944.4,16466.0,252.8,-2535.9,826.4,2025-01-29 15:09:10,0.0
6673.6,968.4,16774.0,256.8,-2565.9,973.4,2025-01-29 15:09:10,0.0
7349.6,604.4,16550.0,179.8,-2059.9,943.4,2025-01-29 15:09:10,0.0
7525.6,380.4,16786.0,133.8,-1338.9,834.4,2025-01-29 15:09:10,0.0
7225.6,480.4,17010.0,178.8,-736.9,749.4,2025-01-29 15:09:10,0.0
6633.6,828.4,17014.0,358.8,-150.9,816.4,2025-01-29 15:09:10,0.0
6017.6,1228.4,16942.0,289.8,335.1,1063.4,2025-01-29 15:09:10,0.0
6877.6,812.4,16854.0,139.8,1066.1,878.4,2025-01-29 15:09:10,0.0
7025.6,272.4,16434.0,-220.2,1318.1,448.4,2025-01-29 15:09:10,0.0
6645.6,-59.60000000000002,16622.0,-504.2,780.1,164.4,2025-01-29 15:09:10,0.0
6385.6,-107.60000000000002,16970.0,-429.2,-100.9,-2.5999999999999943,2025-01-29 15:09:10,0.0
6305.6,148.39999999999998,16862.0,-358.2,-495.9,-134.6,2025-01-29 15:09:10,0.0
6269.6,672.4,16938.0,-236.2,-126.9,-163.6,2025-01-29 15:09:10,0.0
6089.6,1232.4,17246.0,29.80000000000001,-144.9,-41.599999999999994,2025-01-29 15:09:10,0.0
6161.6,1540.4,17370.0,139.8,-303.9,-3.5999999999999943,2025-01-29 15:09:10,0.0
6333.6,1584.4,17118.0,80.80000000000001,-469.9,-36.599999999999994,2025-01-29 15:09:10,0.0
6625.6,1400.4,16666.0,-6.199999999999989,-409.9,-122.6,2025-01-29 15:09:10,0.0
6477.6,1140.4,16802.0,41.80000000000001,-209.9,-251.6,2025-01-29 15:09:10,0.0
6253.6,752.4,16550.0,93.80000000000001,-100.9,-394.6,2025-01-29 15:09:10,0.0
5889.6,816.4,16546.0,309.8,-315.9,-379.6,2025-01-29 15:09:10,0.0
5857.6,980.4,16582.0,249.8,-773.9,-118.6,2025-01-29 15:09:10,0.0
5969.6,1060.4,17382.0,-92.19999999999999,-1387.9,173.4,2025-01-29 15:09:10,0.0
6709.6,520.4,17130.0,-9.199999999999989,-1570.9,198.4,2025-01-29 15:09:10,0.0
6789.6,-183.60000000000002,16854.0,57.80000000000001,-1180.9,-178.6,2025-01-29 15:09:10,0.0
6709.6,-123.60000000000002,16810.0,-101.19999999999999,-814.9,-463.6,2025-01-29 15:09:10,0.0
6565.6,184.39999999999998,17322.0,-279.2,-864.9,-449.6,2025-01-29 15:09:10,0.0
6273.6,448.4,17810.0,76.80000000000001,-1284.9,-118.6,2025-01-29 15:09:10,0.0
6133.6,620.4,17410.0,390.8,-1425.9,207.4,2025-01-29 15:09:10,0.0
6413.6,992.4,16726.0,323.8,-1142.9,368.4,2025-01-29 15:09:10,0.0
6881.6,1076.4,16638.0,58.80000000000001,-609.9,287.4,2025-01-29 15:09:10,0.0
7001.6,988.4,16798.0,-91.19999999999999,-493.9,208.4,2025-01-29 15:09:10,0.0
6945.6,952.4,17070.0,-151.2,-515.9,50.400000000000006,2025-01-29 15:09:11,0.0
6937.6,852.4,17354.0,-13.199999999999989,-596.9,-36.599999999999994,2025-01-29 15:09:11,0.0
7113.6,916.4,17218.0,90.80000000000001,-561.9,-133.6,2025-01-29 15:09:11,0.0
6965.6,836.4,17326.0,187.8,-415.9,-169.6,2025-01-29 15:09:11,0.0
6841.6,1036.4,17266.0,116.80000000000001,-194.9,-142.6,2025-01-29 15:09:11,0.0
6477.6,1168.4,17522.0,64.80000000000001,-177.9,-77.6,2025-01-29 15:09:11,0.0
6577.6,1172.4,17398.0,-25.19999999999999,-295.9,-2.5999999999999943,2025-01-29 15:09:11,0.0
6749.6,1024.4,17226.0,-48.19999999999999,-342.9,1.4000000000000057,2025-01-29 15:09:11,0.0
6821.6,908.4,17014.0,-14.199999999999989,-375.9,14.400000000000006,2025-01-29 15:09:11,0.0
6957.6,864.4,17018.0,-36.19999999999999,-322.9,-15.599999999999994,2025-01-29 15:09:11,0.0
6865.6,792.4,17026.0,-78.19999999999999,-177.9,-35.599999999999994,2025-01-29 15:09:11,0.0
6873.6,860.4,17158.0,-105.19999999999999,-66.9,-44.599999999999994,2025-01-29 15:09:11,0.0
6805.6,756.4,17334.0,-118.19999999999999,-19.900000000000006,-50.599999999999994,2025-01-29 15:09:11,0.0
6729.6,884.4,17314.0,-74.19999999999999,-19.900000000000006,2.4000000000000057,2025-01-29 15:09:11,0.0
6777.6,992.4,17226.0,-83.19999999999999,-33.900000000000006,19.400000000000006,2025-01-29 15:09:11,0.0
6761.6,992.4,17210.0,-107.19999999999999,-82.9,57.400000000000006,2025-01-29 15:09:11,0.0
6773.6,924.4,17214.0,-118.19999999999999,-152.9,69.4,2025-01-29 15:09:11,0.0
6857.6,872.4,17086.0,-132.2,-173.9,123.4,2025-01-29 15:09:11,0.0
6937.6,844.4,17278.0,-160.2,-199.9,81.4,2025-01-29 15:09:11,0.0
6913.6,668.4,17286.0,-135.2,-166.9,57.400000000000006,2025-01-29 15:09:11,0.0
6969.6,616.4,17338.0,-75.19999999999999,-132.9,10.400000000000006,2025-01-29 15:09:11,0.0
6825.6,612.4,17414.0,-83.19999999999999,-49.900000000000006,-13.599999999999994,2025-01-29 15:09:11,0.0
6897.6,584.4,17382.0,-94.19999999999999,-0.9000000000000057,1.4000000000000057,2025-01-29 15:09:11,0.0
7005.6,584.4,17358.0,-139.2,11.099999999999994,-15.599999999999994,2025-01-29 15:09:11,0.0
6917.6,544.4,17246.0,-105.19999999999999,17.099999999999994,-41.599999999999994,2025-01-29 15:09:11,0.0
6965.6,468.4,17278.0,-26.19999999999999,9.099999999999994,-63.599999999999994,2025-01-29 15:09:11,0.0
6949.6,528.4,17230.0,-23.19999999999999,41.099999999999994,-116.6,2025-01-29 15:09:11,0.0
6841.6,592.4,17502.0,-46.19999999999999,17.099999999999994,-131.6,2025-01-29 15:09:11,0.0
6765.6,656.4,17450.0,-74.19999999999999,2.0999999999999943,-99.6,2025-01-29 15:09:11,0.0
6917.6,864.4,17534.0,-64.19999999999999,-41.900000000000006,-35.599999999999994,2025-01-29 15:09:11,0.0
6969.6,724.4,17342.0,-7.199999999999989,17.099999999999994,-12.599999999999994,2025-01-29 15:09:11,0.0
6817.6,860.4,17090.0,18.80000000000001,27.099999999999994,-5.599999999999994,2025-01-29 15:09:11,0.0
6797.6,712.4,17198.0,53.80000000000001,7.099999999999994,-10.599999999999994,2025-01-29 15:09:11,0.0
6933.6,656.4,17242.0,48.80000000000001,-19.900000000000006,-29.599999999999994,2025-01-29 15:09:11,0.0
6845.6,664.4,17102.0,61.80000000000001,88.1,-63.599999999999994,2025-01-29 15:09:11,0.0
6849.6,632.4,17298.0,67.80000000000001,112.1,-89.6,2025-01-29 15:09:11,0.0
6677.6,708.4,17382.0,93.80000000000001,68.1,-94.6,2025-01-29 15:09:11,0.0
6785.6,768.4,17154.0,76.80000000000001,-3.9000000000000057,-62.599999999999994,2025-01-29 15:09:11,0.0
6833.6,748.4,17182.0,72.80000000000001,19.099999999999994,-70.6,2025-01-29 15:09:11,0.0
6725.6,868.4,17190.0,70.80000000000001,-119.9,-104.6,2025-01-29 15:09:11,0.0
6737.6,840.4,17310.0,120.80000000000001,-218.9,-69.6,2025-01-29 15:09:11,0.0
6897.6,980.4,17162.0,116.80000000000001,-318.9,-17.599999999999994,2025-01-29 15:09:11,0.0
6929.6,760.4,17154.0,83.80000000000001,-250.9,-37.599999999999994,2025-01-29 15:09:11,0.0
6909.6,760.4,17282.0,4.800000000000011,-147.9,-58.599999999999994,2025-01-29 15:09:11,0.0
6861.6,696.4,17310.0,-14.199999999999989,-56.900000000000006,-77.6,2025-01-29 15:09:11,0.0
6949.6,772.4,17322.0,-25.19999999999999,48.099999999999994,-51.599999999999994,2025-01-29 15:09:11,0.0
6877.6,704.4,17226.0,42.80000000000001,29.099999999999994,-6.599999999999994,2025-01-29 15:09:11,0.0
6817.6,604.4,17150.0,39.80000000000001,-26.900000000000006,17.400000000000006,2025-01-29 15:09:11,0.0
6845.6,712.4,17270.0,27.80000000000001,-81.9,14.400000000000006,2025-01-29 15:09:11,0.0
6913.6,688.4,17158.0,43.80000000000001,-134.9,-7.599999999999994,2025-01-29 15:09:11,0.0
6793.6,688.4,17346.0,28.80000000000001,-157.9,13.400000000000006,2025-01-29 15:09:11,0.0
6909.6,680.4,17446.0,11.800000000000011,-95.9,21.400000000000006,2025-01-29 15:09:11,0.0
6937.6,708.4,17426.0,12.800000000000011,-37.900000000000006,20.400000000000006,2025-01-29 15:09:11,
6797.6,744.4,17378.0,31.80000000000001,-17.900000000000006,29.400000000000006,2025-01-29 15:09:11,0.0
6837.6,756.4,17418.0,40.80000000000001,-10.900000000000006,28.400000000000006,2025-01-29 15:09:11,0.0
6917.6,708.4,17394.0,92.80000000000001,-19.900000000000006,28.400000000000006,2025-01-29 15:09:11,0.0
6877.6,616.4,17314.0,44.80000000000001,-36.900000000000006,-2.5999999999999943,2025-01-29 15:09:12,0.0
6889.6,712.4,17402.0,65.80000000000001,-26.900000000000006,3.4000000000000057,2025-01-29 15:09:12,0.0
6913.6,632.4,17290.0,34.80000000000001,-25.900000000000006,5.400000000000006,2025-01-29 15:09:12,0.0
6857.6,712.4,17314.0,42.80000000000001,-52.900000000000006,-7.599999999999994,2025-01-29 15:09:12,0.0
6917.6,756.4,17406.0,66.80000000000001,-30.900000000000006,7.400000000000006,2025-01-29 15:09:12,0.0
6781.6,824.4,17426.0,44.80000000000001,18.099999999999994,-14.599999999999994,2025-01-29 15:09:12,0.0
6909.6,892.4,17338.0,11.800000000000011,28.099999999999994,-31.599999999999994,2025-01-29 15:09:12,0.0
6841.6,736.4,17282.0,44.80000000000001,8.099999999999994,-12.599999999999994,2025-01-29 15:09:12,0.0
6741.6,708.4,17282.0,54.80000000000001,-17.900000000000006,-5.599999999999994,2025-01-29 15:09:12,0.0
6921.6,756.4,17218.0,45.80000000000001,-110.9,32.400000000000006,2025-01-29 15:09:12,0.0
6905.6,696.4,17362.0,35.80000000000001,-123.9,-27.599999999999994,2025-01-29 15:09:12,0.0
6853.6,804.4,17318.0,15.800000000000011,24.099999999999994,-25.599999999999994,2025-01-29 15:09:12,0.0
6901.6,792.4,17218.0,-30.19999999999999,46.099999999999994,-29.599999999999994,2025-01-29 15:09:12,0.0
6793.6,668.4,17262.0,-4.199999999999989,41.099999999999994,9.400000000000006,2025-01-29 15:09:12,0.0
6897.6,568.4,17310.0,24.80000000000001,24.099999999999994,-17.599999999999994,2025-01-29 15:09:12,0.0
6833.6,672.4,17426.0,28.80000000000001,73.1,-9.599999999999994,2025-01-29 15:09:12,0.0
6769.6,640.4,17242.0,-1.1999999999999886,-14.900000000000006,-14.599999999999994,2025-01-29 15:09:12,0.0
6813.6,704.4,17366.0,26.80000000000001,-122.9,-21.599999999999994,2025-01-29 15:09:12,0.0
6873.6,700.4,17182.0,68.80000000000001,-196.9,15.400000000000006,2025-01-29 15:09:12,0.0
6841.6,720.4,17166.0,74.80000000000001,-231.9,52.400000000000006,2025-01-29 15:09:12,0.0
6989.6,672.4,17262.0,70.80000000000001,-260.9,37.400000000000006,2025-01-29 15:09:12,0.0
6921.6,688.4,17230.0,56.80000000000001,-171.9,4.400000000000006,2025-01-29 15:09:12,0.0
6981.6,664.4,17362.0,16.80000000000001,-72.9,-1.5999999999999943,2025-01-29 15:09:12,0.0
6981.6,752.4,17338.0,30.80000000000001,21.099999999999994,-16.599999999999994,2025-01-29 15:09:12,0.0
6925.6,740.4,17362.0,45.80000000000001,18.099999999999994,16.400000000000006,2025-01-29 15:09:12,0.0
6825.6,680.4,17186.0,51.80000000000001,32.099999999999994,15.400000000000006,2025-01-29 15:09:12,0.0
6829.6,732.4,17306.0,49.80000000000001,-40.900000000000006,24.400000000000006,2025-01-29 15:09:12,0.0
6749.6,728.4,17282.0,47.80000000000001,-79.9,7.400000000000006,2025-01-29 15:09:12,0.0
6849.6,772.4,17274.0,28.80000000000001,-115.9,8.400000000000006,2025-01-29 15:09:12,0.0
6861.6,756.4,17386.0,46.80000000000001,-85.9,6.400000000000006,2025-01-29 15:09:12,0.0
6893.6,784.4,17574.0,55.80000000000001,-56.900000000000006,4.400000000000006,2025-01-29 15:09:12,0.0
6897.6,684.4,17234.0,35.80000000000001,-13.900000000000006,4.400000000000006,2025-01-29 15:09:12,0.0
6921.6,852.4,17354.0,32.80000000000001,-5.900000000000006,15.400000000000006,2025-01-29 15:09:12,0.0
6861.6,712.4,17326.0,59.80000000000001,-47.900000000000006,11.400000000000006,2025-01-29 15:09:12,0.0
6857.6,744.4,17350.0,24.80000000000001,-93.9,16.400000000000006,2025-01-29 15:09:12,0.0
6961.6,736.4,17338.0,30.80000000000001,-48.900000000000006,4.400000000000006,2025-01-29 15:09:12,0.0
6949.6,720.4,17462.0,16.80000000000001,-30.900000000000006,14.400000000000006,2025-01-29 15:09:12,0.0
6897.6,744.4,17382.0,35.80000000000001,-47.900000000000006,-11.599999999999994,2025-01-29 15:09:12,0.0
6937.6,692.4,17238.0,22.80000000000001,7.099999999999994,0.4000000000000057,2025-01-29 15:09:12,0.0
6881.6,760.4,17330.0,17.80000000000001,36.099999999999994,-12.599999999999994,2025-01-29 15:09:12,0.0
6889.6,716.4,17314.0,10.800000000000011,40.099999999999994,-38.599999999999994,2025-01-29 15:09:12,0.0
6873.6,764.4,17318.0,7.800000000000011,25.099999999999994,3.4000000000000057,2025-01-29 15:09:12,0.0
6821.6,608.4,17382.0,44.80000000000001,-35.900000000000006,3.4000000000000057,2025-01-29 15:09:12,0.0
6773.6,652.4,17242.0,39.80000000000001,-65.9,13.400000000000006,2025-01-29 15:09:12,0.0
6993.6,716.4,17322.0,46.80000000000001,-116.9,34.400000000000006,2025-01-29 15:09:12,0.0
6929.6,628.4,17350.0,21.80000000000001,-14.900000000000006,13.400000000000006,2025-01-29 15:09:12,0.0
6977.6,696.4,17358.0,-0.19999999999998863,46.099999999999994,-1.5999999999999943,2025-01-29 15:09:12,0.0
6877.6,780.4,17350.0,11.800000000000011,44.099999999999994,19.400000000000006,2025-01-29 15:09:12,0.0
6925.6,636.4,17346.0,45.80000000000001,13.099999999999994,-0.5999999999999943,2025-01-29 15:09:12,0.0
6905.6,708.4,17298.0,19.80000000000001,12.099999999999994,32.400000000000006,2025-01-29 15:09:12,0.0
6765.6,708.4,17314.0,22.80000000000001,44.099999999999994,-29.599999999999994,2025-01-29 15:09:12,0.0
6685.6,732.4,17274.0,4.800000000000011,-9.900000000000006,-32.599999999999994,2025-01-29 15:09:12,0.0
6769.6,692.4,17274.0,7.800000000000011,-138.9,-28.599999999999994,2025-01-29 15:09:12,0.0
6857.6,780.4,17162.0,59.80000000000001,-208.9,34.400000000000006,2025-01-29 15:09:12,0.0
6861.6,748.4,17402.0,46.80000000000001,-253.9,32.400000000000006,2025-01-29 15:09:12,0.0
6985.6,688.4,17314.0,63.80000000000001,-205.9,-4.599999999999994,2025-01-29 15:09:12,0.0
6929.6,720.4,17482.0,38.80000000000001,-116.9,-14.599999999999994,2025-01-29 15:09:12,0.0
6917.6,644.4,17518.0,50.80000000000001,-47.900000000000006,-26.599999999999994,2025-01-29 15:09:12,0.0
6949.6,632.4,17370.0,56.80000000000001,6.099999999999994,9.400000000000006,2025-01-29 15:09:12,0.0
6881.6,752.4,17370.0,71.80000000000001,9.099999999999994,39.400000000000006,2025-01-29 15:09:12,0.0
6873.6,744.4,17254.0,33.80000000000001,-27.900000000000006,1.4000000000000057,2025-01-29 15:09:12,0.0
7065.6,648.4,17282.0,28.80000000000001,-50.900000000000006,-6.599999999999994,2025-01-29 15:09:12,0.0
6865.6,744.4,17366.0,26.80000000000001,-91.9,6.400000000000006,2025-01-29 15:09:13,0.0
6997.6,728.4,17278.0,15.800000000000011,-101.9,21.400000000000006,2025-01-29 15:09:13,0.0
6877.6,744.4,17414.0,61.80000000000001,-35.900000000000006,3.4000000000000057,2025-01-29 15:09:13,0.0
6897.6,740.4,17438.0,69.80000000000001,-3.9000000000000057,-2.5999999999999943,2025-01-29 15:09:13,0.0
6877.6,680.4,17282.0,33.80000000000001,-11.900000000000006,-17.599999999999994,2025-01-29 15:09:13,0.0
6929.6,620.4,17426.0,20.80000000000001,-8.900000000000006,18.400000000000006,2025-01-29 15:09:13,0.0
6809.6,712.4,17342.0,46.80000000000001,-34.900000000000006,-2.5999999999999943,2025-01-29 15:09:13,0.0
6953.6,704.4,17306.0,22.80000000000001,-45.900000000000006,1.4000000000000057,2025-01-29 15:09:13,0.0
6941.6,740.4,17294.0,29.80000000000001,-32.900000000000006,7.400000000000006,2025-01-29 15:09:13,0.0
6965.6,812.4,17362.0,16.80000000000001,-10.900000000000006,-5.599999999999994,2025-01-29 15:09:13,0.0
6873.6,716.4,17102.0,-4.199999999999989,88.1,-50.599999999999994,2025-01-29 15:09:13,0.0
6893.6,636.4,17182.0,78.80000000000001,284.1,8.400000000000006,2025-01-29 15:09:13,0.0
6733.6,656.4,17270.0,64.80000000000001,485.1,19.400000000000006,2025-01-29 15:09:13,0.0
6789.6,596.4,17182.0,-62.19999999999999,522.1,47.400000000000006,2025-01-29 15:09:13,0.0
6961.6,640.4,17122.0,-148.2,693.1,-64.6,2025-01-29 15:09:13,0.0
6845.6,916.4,16638.0,-279.2,959.1,-205.6,2025-01-29 15:09:13,0.0
6285.6,860.4,16854.0,-388.2,876.1,-72.6,2025-01-29 15:09:13,0.0
5849.6,764.4,16978.0,-286.2,373.1,327.4,2025-01-29 15:09:13,0.0
5905.6,620.4,17182.0,-208.2,-280.9,616.4,2025-01-29 15:09:13,0.0
6441.6,528.4,16974.0,-245.2,-632.9,771.4,2025-01-29 15:09:13,0.0
6689.6,500.4,17010.0,-346.2,-636.9,783.4,2025-01-29 15:09:13,0.0
7197.6,336.4,17282.0,-268.2,-733.9,634.4,2025-01-29 15:09:13,0.0
7509.6,276.4,17546.0,-10.199999999999989,-724.9,500.4,2025-01-29 15:09:13,0.0
7969.6,668.4,17118.0,107.80000000000001,-296.9,427.4,2025-01-29 15:09:13,0.0
8033.6,1028.4,17174.0,112.80000000000001,526.1,306.4,2025-01-29 15:09:13,0.0
7641.6,1020.4,17482.0,189.8,1239.1,238.4,2025-01-29 15:09:13,0.0
7033.6,904.4,17370.0,82.80000000000001,1229.1,201.4,2025-01-29 15:09:13,0.0
6865.6,712.4,17466.0,227.8,864.1,243.4,2025-01-29 15:09:13,0.0
7041.6,836.4,17294.0,395.8,798.1,334.4,2025-01-29 15:09:13,0.0
7313.6,896.4,16786.0,473.8,1200.1,356.4,2025-01-29 15:09:13,0.0
7297.6,820.4,17066.0,498.8,1644.1,236.4,2025-01-29 15:09:13,0.0
6893.6,1104.4,17298.0,494.8,1732.1,200.4,2025-01-29 15:09:13,0.0
7169.6,1072.4,16190.0,241.8,1443.1,294.4,2025-01-29 15:09:13,0.0
6597.6,880.4,16174.0,-33.19999999999999,1463.1,312.4,2025-01-29 15:09:13,0.0
6573.6,424.4,16450.0,-274.2,1162.1,376.4,2025-01-29 15:09:13,
6177.6,844.4,16914.0,-395.2,890.1,330.4,2025-01-29 15:09:13,0.0
6065.6,824.4,17190.0,-674.2,551.1,261.4,2025-01-29 15:09:13,0.0
6145.6,688.4,17526.0,-878.2,444.1,57.400000000000006,2025-01-29 15:09:13,0.0
6513.6,376.4,17206.0,-1040.2,506.1,-142.6,2025-01-29 15:09:13,0.0
6573.6,536.4,17358.0,-1088.2,665.1,-225.6,2025-01-29 15:09:13,0.0
6625.6,696.4,17334.0,-885.2,776.1,-82.6,2025-01-29 15:09:13,0.0
6269.6,788.4,17158.0,-630.2,748.1,111.4,2025-01-29 15:09:13,0.0
6365.6,1016.4,17514.0,-413.2,906.1,322.4,2025-01-29 15:09:13,0.0
6661.6,1060.4,17542.0,-376.2,1179.1,532.4,2025-01-29 15:09:13,0.0
6949.6,1188.4,17714.0,-466.2,1496.1,609.4,2025-01-29 15:09:13,0.0
6673.6,968.4,17066.0,-394.2,2010.1,644.4,2025-01-29 15:09:13,0.0
6429.6,756.4,17190.0,-220.2,2403.1,725.4,2025-01-29 15:09:13,0.0
6301.6,748.4,17298.0,1.8000000000000114,2718.1,875.4,2025-01-29 15:09:13,0.0
6329.6,736.4,16882.0,-2.1999999999999886,2645.1,1024.4,2025-01-29 15:09:13,0.0
6469.6,624.4,16710.0,-92.19999999999999,2726.1,1105.4,2025-01-29 15:09:13,0.0
6765.6,580.4,16774.0,-16.19999999999999,2985.1,1175.4,2025-01-29 15:09:13,0.0
6641.6,720.4,16966.0,109.80000000000001,3408.1,1404.4,2025-01-29 15:09:13,0.0
2605.6000000000004,540.4,16678.0,196.8,2563.1,1427.4,2025-01-29 15:09:13,0.0
6809.6,264.4,16566.0,202.8,4976.1,684.4,2025-01-29 15:09:13,0.0
6205.6,132.39999999999998,16294.0,-158.2,5709.1,422.4,2025-01-29 15:09:13,0.0
6605.6,64.39999999999998,17414.0,-191.2,6182.1,301.4,2025-01-29 15:09:13,0.0
5841.6,168.39999999999998,17722.0,-101.19999999999999,6206.1,136.4,2025-01-29 15:09:13,0.0
6457.6,456.4,18466.0,-100.19999999999999,5855.1,-437.6,2025-01-29 15:09:13,0.0
5345.6,492.4,17370.0,-475.2,5567.1,-1345.6,2025-01-29 15:09:13,0.0
4489.6,-679.6,17478.0,-1232.2,6358.1,-1945.6,2025-01-29 15:09:13,0.0
3813.6000000000004,-1087.6,17534.0,-1717.2,7361.1,-3024.6,2025-01-29 15:09:13,0.0
2681.6000000000004,-763.6,18550.0,-2243.2,6659.1,-3297.6,2025-01-29 15:09:14,0.0
2021.6000000000004,1924.4,18762.0,-2722.2,5414.1,-2639.6,2025-01-29 15:09:14,0.0
1133.6000000000004,3196.4,19586.0,-2319.2,4711.1,-1698.6,2025-01-29 15:09:14,0.0
745.6000000000004,3092.4,18242.0,-1123.2,5922.1,-531.6,2025-01-29 15:09:14,0.0
829.6000000000004,1840.4,17038.0,-215.2,6831.1,246.4,2025-01-29 15:09:14,0.0
1773.6000000000004,772.4,16822.0,476.8,6754.1,736.4,2025-01-29 15:09:14,0.0
2361.6000000000004,184.39999999999998,16282.0,901.8,5672.1,843.4,2025-01-29 15:09:14,0.0
2629.6000000000004,228.39999999999998,15490.0,1028.8,5008.1,826.4,2025-01-29 15:09:14,0.0
3121.6000000000004,148.39999999999998,14982.0,950.8,5335.1,469.4,2025-01-29 15:09:14,0.0
2649.6000000000004,128.39999999999998,14618.0,934.8,5803.1,198.4,2025-01-29 15:09:14,0.0
3009.6000000000004,468.4,14774.0,791.8,5813.1,321.4,2025-01-29 15:09:14,0.0
2333.6000000000004,728.4,14270.0,936.8,6100.1,362.4,2025-01-29 15:09:14,0.0
2337.6000000000004,296.4,13910.0,950.8,6201.1,488.4,2025-01-29 15:09:14,0.0
2037.6000000000004,340.4,13326.0,855.8,6046.1,479.4,2025-01-29 15:09:14,0.0
1977.6000000000004,380.4,13526.0,719.8,5443.1,597.4,2025-01-29 15:09:14,0.0
1721.6000000000004,380.4,13518.0,741.8,4263.1,789.4,2025-01-29 15:09:14,0.0
2005.6000000000004,212.39999999999998,12690.0,683.8,3465.1,786.4,2025-01-29 15:09:14,0.0
2209.6000000000004,100.39999999999998,12746.0,586.8,3237.1,639.4,2025-01-29 15:09:14,0.0
2349.6000000000004,560.4,12742.0,338.8,3206.1,434.4,2025-01-29 15:09:14,0.0
2317.6000000000004,804.4,12798.0,311.8,3342.1,257.4,2025-01-29 15:09:14,0.0
1637.6000000000004,976.4,13530.0,458.8,4477.1,-49.599999999999994,2025-01-29 15:09:14,0.0
537.6000000000004,912.4,13962.0,535.8,5901.1,-536.6,2025-01-29 15:09:14,0.0
189.60000000000036,764.4,13782.0,764.8,7544.1,-1006.6,2025-01-29 15:09:14,0.0
113.60000000000036,1048.4,12726.0,1137.8,8859.1,-1217.6,2025-01-29 15:09:14,0.0
69.60000000000036,1172.4,11010.0,1448.8,9647.1,-1310.6,2025-01-29 15:09:14,0.0
157.60000000000036,1360.4,9898.0,1173.8,9489.1,-1250.6,2025-01-29 15:09:14,0.0
89.60000000000036,1452.4,9910.0,870.8,8924.1,-1120.6,2025-01-29 15:09:14,0.0
-34.399999999999636,1404.4,10326.0,648.8,7643.1,-929.6,2025-01-29 15:09:14,0.0
285.60000000000036,1528.4,10070.0,557.8,5909.1,-714.6,2025-01-29 15:09:14,0.0
741.6000000000004,1448.4,10310.0,677.8,4496.1,-589.6,2025-01-29 15:09:14,0.0
1529.6000000000004,1428.4,9922.0,829.8,4460.1,-367.6,2025-01-29 15:09:14,0.0
1937.6000000000004,1448.4,9530.0,719.8,5170.1,-294.6,2025-01-29 15:09:14,0.0
2505.6000000000004,1060.4,9634.0,538.8,6111.1,-422.6,2025-01-29 15:09:14,0.0
1977.6000000000004,948.4,9750.0,243.8,7121.1,-664.6,2025-01-29 15:09:14,0.0
1701.6000000000004,736.4,9106.0,355.8,7463.1,-610.6,2025-01-29 15:09:14,0.0
1661.6000000000004,176.39999999999998,8734.0,545.8,7504.1,-620.6,2025-01-29 15:09:14,0.0
913.6000000000004,392.4,8434.0,698.8,7926.1,-695.6,2025-01-29 15:09:14,0.0
1557.6000000000004,752.4,8450.0,1046.8,8194.1,-420.6,2025-01-29 15:09:14,0.0
1825.6000000000004,236.39999999999998,7610.0,1447.8,7388.1,-289.6,2025-01-29 15:09:14,0.0
1573.6000000000004,384.4,7930.0,1741.8,6247.1,-379.6,2025-01-29 15:09:14,0.0
1093.6000000000004,412.4,8194.0,2516.8,5358.1,-498.6,2025-01-29 15:09:14,0.0
789.6000000000004,0.39999999999997726,7826.0,2997.8,5014.1,-94.6,2025-01-29 15:09:14,0.0
701.6000000000004,-483.6,7678.0,3291.8,4242.1,160.4,2025-01-29 15:09:14,0.0
1533.6000000000004,-587.6,6226.0,3391.8,3452.1,-120.6,2025-01-29 15:09:14,0.0
1301.6000000000004,-179.60000000000002,5594.0,3290.8,3009.1,-309.6,2025-01-29 15:09:14,0.0
1629.6000000000004,328.4,5842.0,3012.8,3040.1,-343.6,2025-01-29 15:09:14,0.0
1905.6000000000004,1028.4,5838.0,2800.8,3035.1,-452.6,2025-01-29 15:09:14,0.0
1901.6000000000004,1136.4,5662.0,2576.8,2950.1,-331.6,2025-01-29 15:09:14,0.0
2425.6000000000004,1424.4,5706.0,2252.8,3161.1,-229.6,2025-01-29 15:09:14,0.0
2313.6000000000004,1544.4,5310.0,1789.8,3342.1,-13.599999999999994,2025-01-29 15:09:14,0.0
2461.6000000000004,1476.4,5338.0,1309.8,3256.1,148.4,2025-01-29 15:09:14,0.0
2349.6000000000004,1500.4,5370.0,1086.8,2961.1,201.4,2025-01-29 15:09:14,0.0
1741.6000000000004,1032.4,5374.0,1083.8,2927.1,382.4,2025-01-29 15:09:14,0.0
1061.6000000000004,1196.4,5798.0,1017.8,3344.1,615.4,2025-01-29 15:09:14,0.0
393.60000000000036,1132.4,5842.0,861.8,3828.1,794.4,2025-01-29 15:09:14,0.0
25.600000000000364,1244.4,5538.0,935.8,3710.1,1201.4,2025-01-29 15:09:14,0.0
-102.39999999999964,1276.4,4398.0,838.8,2661.1,1513.4,2025-01-29 15:09:14,0.0
577.6000000000004,1472.4,3446.0,668.8,768.1,1257.4,2025-01-29 15:09:14,0.0
1633.6000000000004,1176.4,2530.0,140.8,-1506.9,348.4,2025-01-29 15:09:14,0.0
2161.6000000000004,428.4,1718.0,-1068.2,-4070.9,-976.6,2025-01-29 15:09:15,0.0
2269.6000000000004,-51.60000000000002,2194.0,-2090.2,-4705.9,-1956.6,2025-01-29 15:09:15,0.0
2121.6000000000004,-547.6,2838.0,-2341.2,-3551.9,-2424.6,2025-01-29 15:09:15,0.0
1757.6000000000004,-1003.6,3294.0,-1829.2,-1427.9,-2398.6,2025-01-29 15:09:15,0.0
1561.6000000000004,-1423.6,4002.0,-1277.2,406.1,-2022.6,2025-01-29 15:09:15,0.0
1705.6000000000004,-1727.6,4682.0,-934.2,1909.1,-1891.6,2025-01-29 15:09:15,0.0
1565.6000000000004,-1731.6,5594.0,-620.2,3294.1,-1919.6,2025-01-29 15:09:15,0.0
821.6000000000004,-1543.6,6130.0,-368.2,3951.1,-1803.6,2025-01-29 15:09:15,0.0
285.60000000000036,-1423.6,6558.0,-77.19999999999999,4021.1,-1397.6,2025-01-29 15:09:15,0.0
293.60000000000036,-1395.6,7362.0,203.8,4197.1,-1076.6,2025-01-29 15:09:15,0.0
429.60000000000036,-1331.6,7710.0,463.8,4201.1,-1012.6,2025-01-29 15:09:15,0.0
37.600000000000364,-1579.6,7402.0,900.8,3877.1,-1314.6,2025-01-29 15:09:15,0.0
-106.39999999999964,-1783.6,6122.0,1246.8,2867.1,-1620.6,2025-01-29 15:09:15,0.0
-142.39999999999964,-1843.6,5522.0,1616.8,1044.1,-1699.6,2025-01-29 15:09:15,0.0
301.60000000000036,-1383.6,5930.0,2022.8,-717.9,-1339.6,2025-01-29 15:09:15,
933.6000000000004,-1055.6,5842.0,2094.8,-1248.9,-1072.6,2025-01-29 15:09:15,0.0
1461.6000000000004,-475.6,5618.0,1742.8,-889.9,-1007.6,2025-01-29 15:09:15,0.0
1617.6000000000004,0.39999999999997726,5010.0,1059.8,32.099999999999994,-872.6,2025-01-29 15:09:15,0.0
1181.6000000000004,396.4,4882.0,221.8,1276.1,-771.6,2025-01-29 15:09:15,0.0
493.60000000000036,512.4,5138.0,-456.2,2662.1,-280.6,2025-01-29 15:09:15,0.0
245.60000000000036,-67.60000000000002,5886.0,-1026.2,3760.1,32.400000000000006,2025-01-29 15:09:15,0.0
-158.39999999999964,-643.6,6026.0,-1415.2,3932.1,105.4,2025-01-29 15:09:15,0.0
-666.3999999999996,-1075.6,6342.0,-1502.2,3608.1,206.4,2025-01-29 15:09:15,0.0
-1138.3999999999996,-1423.6,5574.0,-1616.2,3082.1,212.4,2025-01-29 15:09:15,0.0
-1394.3999999999996,-1315.6,5298.0,-2043.2,2127.1,79.4,2025-01-29 15:09:15,0.0
-1342.3999999999996,-1023.6,5350.0,-2302.2,1392.1,-16.599999999999994,2025-01-29 15:09:15,0.0
-1086.3999999999996,-775.6,5214.0,-2809.2,1166.1,-275.6,2025-01-29 15:09:15,0.0
-778.3999999999996,-1227.6,5794.0,-3596.2,1321.1,-549.6,2025-01-29 15:09:15,0.0
-794.3999999999996,-2203.6,6282.0,-4002.2,1065.1,-860.6,2025-01-29 15:09:15,0.0
-1018.3999999999996,-2867.6,6578.0,-3863.2,627.1,-1340.6,2025-01-29 15:09:15,0.0
-1330.3999999999996,-3327.6,6914.0,-3672.2,1097.1,-2128.6,2025-01-29 15:09:15,0.0
-2434.3999999999996,-3035.6,6446.0,-3336.2,2559.1,-3105.6,2025-01-29 15:09:15,0.0
-3606.3999999999996,-3263.6,6810.0,-2868.2,4049.1,-3415.6,2025-01-29 15:09:15,0.0
-4498.4,-3515.6,6786.0,-1889.2,3493.1,-3056.6,2025-01-29 15:09:15,0.0
-4854.4,-3207.6,6818.0,-1088.2,-760.9,-1691.6,2025-01-29 15:09:15,0.0
-5530.4,-707.6,6850.0,-202.2,-5869.9,1562.4,2025-01-29 15:09:15,0.0
-3426.3999999999996,624.4,5206.0,1243.8,-8809.9,4483.4,2025-01-29 15:09:15,0.0
-474.39999999999964,200.39999999999998,1002.0,1670.8,-8410.9,5521.4,2025-01-29 15:09:15,0.0
2077.6000000000004,-683.6,-2182.0,421.8,-5469.9,4226.4,2025-01-29 15:09:15,0.0
3113.6000000000004,-975.6,-3230.0,-1667.2,-1595.9,1590.4,2025-01-29 15:09:15,0.0
1957.6000000000004,-195.60000000000002,-1010.0,-2530.2,1409.1,-8.599999999999994,2025-01-29 15:09:15,0.0
197.60000000000036,1252.4,2270.0,-1185.2,2967.1,170.4,2025-01-29 15:09:15,0.0
-854.3999999999996,2068.4,2978.0,19.80000000000001,2940.1,1392.4,2025-01-29 15:09:15,0.0
-926.3999999999996,2032.4,2498.0,-66.19999999999999,2207.1,2560.4,2025-01-29 15:09:15,0.0
-750.3999999999996,1572.4,3362.0,-660.2,1445.1,3226.4,2025-01-29 15:09:15,0.0
-1054.3999999999996,1364.4,4118.0,-627.2,897.1,3709.4,2025-01-29 15:09:15,0.0
-1046.3999999999996,976.4,4058.0,-139.2,565.1,4252.4,2025-01-29 15:09:15,0.0
-870.3999999999996,484.4,3446.0,340.8,763.1,4030.4,2025-01-29 15:09:15,0.0
-398.39999999999964,412.4,2330.0,354.8,736.1,3302.4,2025-01-29 15:09:15,0.0
