acceleration_x,acceleration_y,acceleration_z,gyroscope_x,gyroscope_y,gyroscope_z,timestamp,label
-83.20000000000073,-106.4,169.19999999999982,-54.400000000000006,47.099999999999994,-0.5,2025-01-29 15:05:52,0.0
-119.20000000000073,-34.400000000000006,5.199999999999818,-41.400000000000006,-6.900000000000006,21.5,2025-01-29 15:05:52,0.0
68.79999999999927,-2.4000000000000057,1.199999999999818,10.599999999999994,-105.9,5.5,2025-01-29 15:05:52,0.0
16.799999999999272,25.599999999999994,105.19999999999982,-9.400000000000006,-84.9,36.5,2025-01-29 15:05:52,0.0
88.79999999999927,-34.400000000000006,-82.80000000000018,36.599999999999994,-57.900000000000006,-0.5,2025-01-29 15:05:52,0.0
104.79999999999927,105.6,-82.80000000000018,16.599999999999994,58.099999999999994,-23.5,2025-01-29 15:05:52,0.0
-51.20000000000073,-18.400000000000006,-70.80000000000018,10.599999999999994,118.1,-34.5,2025-01-29 15:05:52,0.0
-35.20000000000073,97.6,45.19999999999982,19.599999999999994,151.1,-25.5,2025-01-29 15:05:52,0.0
20.799999999999272,1.5999999999999943,-2.800000000000182,16.599999999999994,1.0999999999999943,0.5,2025-01-29 15:05:52,0.0
-11.200000000000728,-34.400000000000006,-86.80000000000018,-5.400000000000006,-119.9,20.5,2025-01-29 15:05:53,0.0
0.7999999999992724,25.599999999999994,309.1999999999998,-67.4,13.099999999999994,-33.5,2025-01-29 15:05:53,0.0
4.799999999999272,37.599999999999994,161.19999999999982,-73.4,40.099999999999994,-34.5,2025-01-29 15:05:53,0.0
-79.20000000000073,5.599999999999994,165.19999999999982,-39.400000000000006,-0.9000000000000057,-31.5,2025-01-29 15:05:53,0.0
-35.20000000000073,57.599999999999994,109.19999999999982,-17.400000000000006,2.0999999999999943,8.5,2025-01-29 15:05:53,0.0
-143.20000000000073,45.599999999999994,141.19999999999982,-102.4,0.09999999999999432,-13.5,2025-01-29 15:05:53,0.0
-7.200000000000728,37.599999999999994,-70.80000000000018,-76.4,-30.900000000000006,5.5,2025-01-29 15:05:53,0.0
12.799999999999272,77.6,213.19999999999982,-59.400000000000006,-18.900000000000006,-4.5,2025-01-29 15:05:53,0.0
-119.20000000000073,53.599999999999994,233.19999999999982,-30.400000000000006,8.099999999999994,-36.5,2025-01-29 15:05:53,0.0
-39.20000000000073,-94.4,421.1999999999998,91.6,85.1,9.5,2025-01-29 15:05:53,0.0
-83.20000000000073,-162.4,165.19999999999982,149.6,30.099999999999994,24.5,2025-01-29 15:05:53,0.0
-139.20000000000073,-22.400000000000006,153.19999999999982,132.6,-47.900000000000006,27.5,2025-01-29 15:05:53,0.0
-59.20000000000073,29.599999999999994,161.19999999999982,192.6,-79.9,6.5,2025-01-29 15:05:53,0.0
36.79999999999927,81.6,125.19999999999982,203.6,-33.900000000000006,4.5,2025-01-29 15:05:53,0.0
144.79999999999927,1.5999999999999943,33.19999999999982,136.6,11.099999999999994,-6.5,2025-01-29 15:05:53,0.0
64.79999999999927,81.6,117.19999999999982,127.6,169.1,-20.5,2025-01-29 15:05:53,0.0
-11.200000000000728,117.6,241.19999999999982,89.6,251.1,-22.5,2025-01-29 15:05:53,0.0
-11.200000000000728,145.6,181.19999999999982,71.6,194.1,-34.5,2025-01-29 15:05:53,0.0
-71.20000000000073,113.6,233.19999999999982,73.6,127.1,-27.5,2025-01-29 15:05:53,0.0
68.79999999999927,165.6,57.19999999999982,94.6,93.1,-33.5,2025-01-29 15:05:53,0.0
-11.200000000000728,37.599999999999994,57.19999999999982,63.599999999999994,135.1,-31.5,2025-01-29 15:05:53,0.0
-47.20000000000073,153.6,85.19999999999982,39.599999999999994,173.1,-20.5,2025-01-29 15:05:53,0.0
-199.20000000000073,77.6,141.19999999999982,82.6,50.099999999999994,36.5,2025-01-29 15:05:53,0.0
336.7999999999993,-50.400000000000006,849.1999999999998,-332.4,203.1,-935.5,2025-01-29 15:05:53,0.0
152.79999999999927,-10.400000000000006,933.1999999999998,-165.4,471.1,-1015.5,2025-01-29 15:05:53,0.0
-23.200000000000728,85.6,789.1999999999998,-163.4,647.1,-1145.5,2025-01-29 15:05:53,0.0
-319.2000000000007,141.6,433.1999999999998,-86.4,696.1,-1192.5,2025-01-29 15:05:53,0.0
-539.2000000000007,209.6,49.19999999999982,-2.4000000000000057,198.1,-1127.5,2025-01-29 15:05:53,0.0
-579.2000000000007,101.6,429.1999999999998,221.6,-304.9,-1101.5,2025-01-29 15:05:54,0.0
-439.2000000000007,-94.4,697.1999999999998,349.6,-493.9,-1104.5,2025-01-29 15:05:54,0.0
-367.2000000000007,-174.4,697.1999999999998,608.6,-647.9,-1194.5,2025-01-29 15:05:54,0.0
-447.2000000000007,-242.4,765.1999999999998,801.6,-773.9,-1251.5,2025-01-29 15:05:54,0.0
-387.2000000000007,-182.4,557.1999999999998,1021.6,-738.9,-1230.5,2025-01-29 15:05:54,0.0
-335.2000000000007,-106.4,465.1999999999998,1206.6,-721.9,-1277.5,2025-01-29 15:05:54,0.0
-211.20000000000073,-190.4,253.19999999999982,1343.6,-695.9,-1343.5,2025-01-29 15:05:54,0.0
-91.20000000000073,-522.4,233.19999999999982,1550.6,-493.9,-1481.5,2025-01-29 15:05:54,0.0
108.79999999999927,-846.4,413.1999999999998,1913.6,-271.9,-1672.5,2025-01-29 15:05:54,0.0
-619.2000000000007,-1442.4,3069.2,-684.4,376.1,281.5,2025-01-29 15:05:54,0.0
-739.2000000000007,-1330.4,2593.2,-849.4,-235.9,526.5,2025-01-29 15:05:54,0.0
-511.2000000000007,-1398.4,2001.1999999999998,-1066.4,-733.9,765.5,2025-01-29 15:05:54,0.0
20.799999999999272,-1458.4,1861.1999999999998,-1127.4,-735.9,905.5,2025-01-29 15:05:54,0.0
444.7999999999993,-1542.4,1765.1999999999998,-1330.4,109.1,724.5,2025-01-29 15:05:54,0.0
492.7999999999993,-1526.4,1981.1999999999998,-1610.4,1470.1,275.5,2025-01-29 15:05:54,0.0
-231.20000000000073,-1710.4,2517.2,-1871.4,2424.1,-4.5,2025-01-29 15:05:54,0.0
-919.2000000000007,-1930.4,3049.2,-2088.4,2436.1,-129.5,2025-01-29 15:05:54,0.0
-1391.2000000000007,-2134.4,3453.2,-2097.4,1694.1,-294.5,2025-01-29 15:05:54,0.0
-1543.2000000000007,-2070.4,3549.2,-2185.4,491.1,-474.5,2025-01-29 15:05:54,0.0
-1451.2000000000007,-1566.4,3493.2,-2404.4,-918.9,-707.5,2025-01-29 15:05:54,0.0
-779.2000000000007,-926.4,3061.2,-2774.4,-1870.9,-851.5,2025-01-29 15:05:54,0.0
-387.2000000000007,-650.4,2597.2,-3344.4,-2109.9,-912.5,2025-01-29 15:05:54,0.0
2608.7999999999993,1517.6,-1494.8000000000002,-145.4,-3619.9,4982.5,2025-01-29 15:05:54,0.0
3944.7999999999993,1901.6,-766.8000000000002,-506.4,-3255.9,4062.5,2025-01-29 15:05:54,0.0
4600.799999999999,2489.6,-522.8000000000002,-884.4,-982.9,3022.5,2025-01-29 15:05:54,0.0
3648.7999999999993,2513.6,-454.8000000000002,-1243.4,2991.1,2018.5,2025-01-29 15:05:54,0.0
1724.7999999999993,1153.6,-418.8000000000002,-1273.4,6505.1,1658.5,2025-01-29 15:05:55,0.0
-515.2000000000007,49.599999999999994,265.1999999999998,-757.4,7896.1,1890.5,2025-01-29 15:05:55,0.0
-1623.2000000000007,-734.4,829.1999999999998,-43.400000000000006,7299.1,2543.5,2025-01-29 15:05:55,0.0
-2399.2000000000007,-674.4,1193.1999999999998,562.6,4964.1,2941.5,2025-01-29 15:05:55,0.0
-2379.2000000000007,-242.4,877.1999999999998,1032.6,1612.1,3327.5,2025-01-29 15:05:55,0.0
-1547.2000000000007,677.6,629.1999999999998,1255.6,-2364.9,3474.5,2025-01-29 15:05:55,0.0
-455.2000000000007,1357.6,425.1999999999998,1373.6,-4881.9,3523.5,2025-01-29 15:05:55,0.0
1028.7999999999993,1541.6,385.1999999999998,1623.6,-5734.9,3447.5,2025-01-29 15:05:55,0.0
1836.7999999999993,1433.6,889.1999999999998,2008.6,-5421.9,3302.5,2025-01-29 15:05:55,0.0
-967.2000000000007,-1170.4,2813.2,1441.6,3111.1,-1106.5,2025-01-29 15:05:55,0.0
-3591.2000000000007,-98.4,4669.2,2797.6,4122.1,-488.5,2025-01-29 15:05:55,0.0
-5391.200000000001,173.6,5489.2,3880.6,4240.1,811.5,2025-01-29 15:05:55,0.0
-5319.200000000001,-238.4,6201.2,4909.6,2885.1,2168.5,2025-01-29 15:05:55,0.0
-2839.2000000000007,309.6,5817.2,6199.6,-21.900000000000006,2730.5,2025-01-29 15:05:55,0.0
-631.2000000000007,617.6,4101.2,7035.6,-2368.9,2283.5,2025-01-29 15:05:55,0.0
-307.2000000000007,1137.6,2825.2,7536.6,-1320.9,2013.5,2025-01-29 15:05:55,0.0
-415.2000000000007,1761.6,1133.1999999999998,7700.6,2481.1,1888.5,2025-01-29 15:05:55,0.0
-507.2000000000007,3441.6,185.19999999999982,7129.6,5757.1,1089.5,2025-01-29 15:05:55,0.0
-1679.2000000000007,5069.6,-262.8000000000002,5907.6,7278.1,315.5,2025-01-29 15:05:55,0.0
-3419.2000000000007,6173.6,-1254.8000000000002,4149.6,7805.1,71.5,2025-01-29 15:05:55,0.0
-4743.200000000001,6237.6,-2914.8,2093.6,7682.1,359.5,2025-01-29 15:05:55,0.0
-5107.200000000001,5581.6,-3826.8,-103.4,6739.1,830.5,2025-01-29 15:05:55,0.0
-3163.2000000000007,3621.6,-3090.8,-1379.4,3900.1,141.5,2025-01-29 15:05:55,0.0
1676.7999999999993,-934.4,-942.8000000000002,-13172.4,1894.1,-3291.5,2025-01-29 15:05:55,0.0
244.79999999999927,-1622.4,-554.8000000000002,-13913.4,2419.1,-3869.5,2025-01-29 15:05:55,0.0
-1059.2000000000007,-1962.4,13.199999999999818,-14181.4,1032.1,-4109.5,2025-01-29 15:05:55,0.0
-1335.2000000000007,-2086.4,-222.80000000000018,-14520.4,-1793.9,-3960.5,2025-01-29 15:05:55,0.0
-863.2000000000007,-1802.4,-198.80000000000018,-14888.4,-4711.9,-3591.5,2025-01-29 15:05:56,0.0
-119.20000000000073,-1494.4,-170.80000000000018,-15256.4,-6193.9,-3156.5,2025-01-29 15:05:56,0.0
804.7999999999993,-1338.4,-202.80000000000018,-15632.4,-6433.9,-2676.5,2025-01-29 15:05:56,0.0
1192.7999999999993,-1326.4,181.19999999999982,-15568.4,-5345.9,-2193.5,2025-01-29 15:05:56,0.0
1624.7999999999993,-1430.4,-206.80000000000018,-15330.4,-3522.9,-1760.5,2025-01-29 15:05:56,0.0
952.7999999999993,-1598.4,25.199999999999818,-15128.4,-1499.9,-1239.5,2025-01-29 15:05:56,0.0
688.7999999999993,-1978.4,-102.80000000000018,-15069.4,223.1,-1018.5,2025-01-29 15:05:56,0.0
120.79999999999927,-2378.4,145.19999999999982,-15088.4,1166.1,-992.5,2025-01-29 15:05:56,0.0
-903.2000000000007,-2446.4,329.1999999999998,-15224.4,1088.1,-1038.5,2025-01-29 15:05:56,0.0
-175.20000000000073,-4154.4,-2270.8,-18969.4,5706.1,-3551.5,2025-01-29 15:05:56,
-967.2000000000007,-142.4,-138.80000000000018,-17661.4,5392.1,-4031.5,2025-01-29 15:05:56,0.0
-819.2000000000007,2085.6,1165.1999999999998,-17489.4,4847.1,-3377.5,2025-01-29 15:05:56,0.0
-63.20000000000073,2109.6,-46.80000000000018,-17955.4,4873.1,-2403.5,2025-01-29 15:05:56,0.0
1144.7999999999993,673.6,-2938.8,-19127.4,5564.1,-2209.5,2025-01-29 15:05:56,0.0
1472.7999999999993,-814.4,-4274.8,-20716.4,7020.1,-3191.5,2025-01-29 15:05:56,0.0
188.79999999999927,-1290.4,-2706.8,-21803.4,8814.1,-4456.5,2025-01-29 15:05:56,0.0
-1355.2000000000007,-378.4,-982.8000000000002,-22102.4,9839.1,-4889.5,2025-01-29 15:05:56,0.0
-2907.2000000000007,889.6,69.19999999999982,-22071.4,9446.1,-4561.5,2025-01-29 15:05:56,0.0
-2859.2000000000007,2605.6,253.19999999999982,-22019.4,7438.1,-3800.5,2025-01-29 15:05:56,0.0
-2231.2000000000007,3089.6,-94.80000000000018,-21826.4,4555.1,-3211.5,2025-01-29 15:05:56,0.0
-699.2000000000007,2453.6,-1394.8000000000002,-22077.4,1674.1,-2940.5,2025-01-29 15:05:56,0.0
908.7999999999993,1193.6,-1590.8000000000002,-22491.4,171.1,-3232.5,2025-01-29 15:05:56,0.0
2604.7999999999993,117.6,-3534.8,-14574.4,2254.1,-6259.5,2025-01-29 15:05:56,0.0
2144.7999999999993,125.6,-2950.8,-13835.4,3045.1,-6190.5,2025-01-29 15:05:56,0.0
1236.7999999999993,13.599999999999994,-2394.8,-13431.4,4025.1,-6102.5,2025-01-29 15:05:56,0.0
124.79999999999927,-610.4,-1106.8000000000002,-12630.4,4400.1,-6037.5,2025-01-29 15:05:56,0.0
-1031.2000000000007,-902.4,-910.8000000000002,-11556.4,3775.1,-5851.5,2025-01-29 15:05:57,0.0
-1835.2000000000007,-958.4,-506.8000000000002,-10461.4,2470.1,-5482.5,2025-01-29 15:05:57,0.0
-2023.2000000000007,-1086.4,-274.8000000000002,-9516.4,875.1,-5134.5,2025-01-29 15:05:57,0.0
-1723.2000000000007,-1026.4,589.1999999999998,-8614.4,-1092.9,-4860.5,2025-01-29 15:05:57,0.0
-347.2000000000007,-1018.4,1145.1999999999998,-7787.4,-3180.9,-4745.5,2025-01-29 15:05:57,0.0
700.7999999999993,-562.4,893.1999999999998,-7273.4,-4666.9,-4685.5,2025-01-29 15:05:57,0.0
1448.7999999999993,-30.400000000000006,465.1999999999998,-6784.4,-4830.9,-4631.5,2025-01-29 15:05:57,0.0
1692.7999999999993,281.6,-46.80000000000018,-6230.4,-3726.9,-4654.5,2025-01-29 15:05:57,0.0
892.7999999999993,345.6,-950.8000000000002,-5653.4,-1261.9,-4496.5,2025-01-29 15:05:57,0.0
1728.7999999999993,-2374.4,349.1999999999998,-6635.4,-493.9,-2350.5,2025-01-29 15:05:57,0.0
1528.7999999999993,-2318.4,181.19999999999982,-6516.4,-756.9,-2053.5,2025-01-29 15:05:57,0.0
1804.7999999999993,-2226.4,425.1999999999998,-6171.4,-1433.9,-1937.5,2025-01-29 15:05:57,0.0
1940.7999999999993,-2294.4,353.1999999999998,-5797.4,-1868.9,-1689.5,2025-01-29 15:05:57,0.0
2648.7999999999993,-2226.4,-22.800000000000182,-5240.4,-2235.9,-1138.5,2025-01-29 15:05:57,0.0
3468.7999999999993,-2634.4,149.19999999999982,-4715.4,-2407.9,-611.5,2025-01-29 15:05:57,0.0
3616.7999999999993,-2970.4,337.1999999999998,-4205.4,-1808.9,-276.5,2025-01-29 15:05:57,0.0
3492.7999999999993,-3158.4,329.1999999999998,-3799.4,-446.9,80.5,2025-01-29 15:05:57,0.0
3484.7999999999993,-3330.4,-146.80000000000018,-3312.4,573.1,423.5,2025-01-29 15:05:57,0.0
3808.7999999999993,-3254.4,-582.8000000000002,-2806.4,454.1,833.5,2025-01-29 15:05:57,0.0
4408.799999999999,-2610.4,-770.8000000000002,-2290.4,-1180.9,1329.5,2025-01-29 15:05:57,0.0
4748.799999999999,-1950.4,-114.80000000000018,-1659.4,-3071.9,1963.5,2025-01-29 15:05:57,0.0
4468.799999999999,-1066.4,645.1999999999998,-801.4,-3699.9,2864.5,2025-01-29 15:05:57,0.0
-2723.2000000000007,1021.6,5093.2,471.6,-7884.9,1385.5,2025-01-29 15:05:57,0.0
16.799999999999272,205.6,4001.2,-340.4,-6614.9,211.5,2025-01-29 15:05:57,0.0
-1495.2000000000007,1757.6,4273.2,-1360.4,-6592.9,-370.5,2025-01-29 15:05:57,0.0
-2551.2000000000007,2269.6,4061.2,-2445.4,-6482.9,-574.5,2025-01-29 15:05:58,0.0
-3679.2000000000007,2149.6,5829.2,-2655.4,-7967.9,-622.5,2025-01-29 15:05:58,0.0
-2447.2000000000007,2733.6,7005.2,-2815.4,-9343.9,-445.5,2025-01-29 15:05:58,0.0
-1599.2000000000007,2057.6,5681.2,-2734.4,-8926.9,-169.5,2025-01-29 15:05:58,0.0
-2827.2000000000007,1213.6,6345.2,-2751.4,-9148.9,-162.5,2025-01-29 15:05:58,0.0
-1043.2000000000007,777.6,6725.2,-2563.4,-8594.9,-502.5,2025-01-29 15:05:58,0.0
-1367.2000000000007,901.6,6609.2,-2619.4,-8191.9,-516.5,2025-01-29 15:05:58,0.0
-1727.2000000000007,1457.6,9677.2,-2451.4,-8232.9,-563.5,2025-01-29 15:05:58,0.0
-1259.2000000000007,2005.6,8369.2,-2238.4,-8440.9,-290.5,2025-01-29 15:05:58,0.0
864.7999999999993,2997.6,15405.2,308.6,-9434.9,-1074.5,2025-01-29 15:05:58,0.0
1544.7999999999993,3165.6,15405.2,407.6,-9043.9,-679.5,2025-01-29 15:05:58,0.0
3112.7999999999993,3137.6,15973.2,554.6,-8293.9,-412.5,2025-01-29 15:05:58,0.0
3844.7999999999993,2825.6,15529.2,557.6,-7270.9,-510.5,2025-01-29 15:05:58,0.0
3204.7999999999993,2481.6,16033.2,636.6,-6360.9,-575.5,2025-01-29 15:05:58,0.0
2212.7999999999993,2117.6,16781.2,674.6,-5622.9,-412.5,2025-01-29 15:05:58,0.0
2312.7999999999993,1793.6,16761.2,753.6,-5333.9,-310.5,2025-01-29 15:05:58,0.0
2924.7999999999993,1777.6,16621.2,669.6,-5723.9,-303.5,2025-01-29 15:05:58,0.0
3360.7999999999993,1449.6,16201.2,515.6,-5474.9,-341.5,2025-01-29 15:05:58,0.0
4392.799999999999,933.6,15813.2,489.6,-4797.9,-475.5,2025-01-29 15:05:58,0.0
4700.799999999999,1329.6,15957.2,-188.4,-1651.9,-268.5,2025-01-29 15:05:58,0.0
4160.799999999999,1749.6,16065.2,-583.4,-606.9,-334.5,2025-01-29 15:05:58,0.0
4568.799999999999,1849.6,16313.2,-609.4,-289.9,-370.5,2025-01-29 15:05:58,0.0
4104.799999999999,1921.6,16749.2,-716.4,-268.9,-377.5,2025-01-29 15:05:59,0.0
4088.7999999999993,1825.6,16825.2,-430.4,-604.9,-194.5,2025-01-29 15:05:59,0.0
4156.799999999999,1733.6,16877.2,-284.4,-679.9,-188.5,2025-01-29 15:05:59,0.0
4380.799999999999,1761.6,16585.2,-269.4,-471.9,-232.5,2025-01-29 15:05:59,0.0
4508.799999999999,1721.6,16521.2,-324.4,64.1,-389.5,2025-01-29 15:05:59,0.0
4564.799999999999,1521.6,16365.2,-467.4,645.1,-535.5,2025-01-29 15:05:59,0.0
4180.799999999999,1381.6,16393.2,-577.4,1177.1,-575.5,2025-01-29 15:05:59,0.0
3852.7999999999993,1501.6,16465.2,-481.4,1465.1,-519.5,2025-01-29 15:05:59,0.0
3348.7999999999993,1093.6,16469.2,-392.4,1483.1,-308.5,2025-01-29 15:05:59,0.0
3708.7999999999993,1037.6,16285.2,17.599999999999994,89.1,-51.5,2025-01-29 15:05:59,0.0
3584.7999999999993,1085.6,16313.2,66.6,65.1,-27.5,2025-01-29 15:05:59,0.0
3548.7999999999993,1153.6,16213.2,106.6,9.099999999999994,3.5,2025-01-29 15:05:59,0.0
3556.7999999999993,1233.6,16301.2,169.6,-46.900000000000006,66.5,2025-01-29 15:05:59,0.0
3656.7999999999993,1313.6,16197.2,199.6,-3.9000000000000057,61.5,2025-01-29 15:05:59,0.0
3540.7999999999993,1517.6,16141.2,116.6,-29.900000000000006,104.5,2025-01-29 15:05:59,0.0
3280.7999999999993,1373.6,16329.2,207.6,-180.9,70.5,2025-01-29 15:05:59,0.0
3724.7999999999993,1473.6,16177.2,112.6,-364.9,125.5,2025-01-29 15:05:59,0.0
3776.7999999999993,1413.6,16345.2,82.6,-292.9,34.5,2025-01-29 15:05:59,0.0
3704.7999999999993,1249.6,16297.2,66.6,-341.9,59.5,2025-01-29 15:05:59,0.0
3768.7999999999993,1241.6,16365.2,72.6,-275.9,68.5,2025-01-29 15:05:59,0.0
3756.7999999999993,1185.6,16301.2,33.599999999999994,-231.9,-28.5,2025-01-29 15:05:59,0.0
3588.7999999999993,1249.6,16389.2,41.599999999999994,-178.9,-58.5,2025-01-29 15:05:59,0.0
3704.7999999999993,1269.6,16421.2,-10.400000000000006,-104.9,-60.5,2025-01-29 15:06:00,0.0
3752.7999999999993,1321.6,16517.2,59.599999999999994,137.1,-52.5,2025-01-29 15:06:00,0.0
3588.7999999999993,1405.6,16465.2,9.599999999999994,62.099999999999994,-53.5,2025-01-29 15:06:00,0.0
3652.7999999999993,1393.6,16433.2,44.599999999999994,-32.900000000000006,-43.5,2025-01-29 15:06:00,0.0
3616.7999999999993,1317.6,16457.2,96.6,-71.9,12.5,2025-01-29 15:06:00,0.0
3784.7999999999993,1385.6,16349.2,131.6,-145.9,33.5,2025-01-29 15:06:00,0.0
3712.7999999999993,1297.6,16357.2,137.6,-206.9,60.5,2025-01-29 15:06:00,0.0
3728.7999999999993,1365.6,16465.2,51.599999999999994,-222.9,48.5,2025-01-29 15:06:00,0.0
3800.7999999999993,1237.6,16445.2,30.599999999999994,-116.9,-26.5,2025-01-29 15:06:00,0.0
3756.7999999999993,1329.6,16529.2,67.6,11.099999999999994,-16.5,2025-01-29 15:06:00,0.0
3724.7999999999993,1437.6,16589.2,65.6,1.0999999999999943,-19.5,2025-01-29 15:06:00,0.0
3752.7999999999993,1197.6,16617.2,69.6,-17.900000000000006,-24.5,2025-01-29 15:06:00,0.0
3744.7999999999993,1293.6,16409.2,61.599999999999994,-8.900000000000006,19.5,2025-01-29 15:06:00,0.0
3876.7999999999993,1385.6,16533.2,65.6,-16.900000000000006,-23.5,2025-01-29 15:06:00,0.0
3852.7999999999993,1289.6,16421.2,24.599999999999994,-38.900000000000006,-23.5,2025-01-29 15:06:00,
3840.7999999999993,1329.6,16521.2,62.599999999999994,-27.900000000000006,-10.5,2025-01-29 15:06:00,0.0
3912.7999999999993,1373.6,16481.2,46.599999999999994,-25.900000000000006,-38.5,2025-01-29 15:06:00,0.0
3812.7999999999993,1237.6,16429.2,41.599999999999994,-6.900000000000006,-46.5,2025-01-29 15:06:00,0.0
3924.7999999999993,1341.6,16573.2,33.599999999999994,74.1,-33.5,2025-01-29 15:06:00,0.0
3832.7999999999993,1257.6,16393.2,29.599999999999994,159.1,-59.5,2025-01-29 15:06:00,0.0
3804.7999999999993,1313.6,16361.2,21.599999999999994,221.1,-97.5,2025-01-29 15:06:00,0.0
4104.799999999999,1089.6,16593.2,348.6,343.1,175.5,2025-01-29 15:06:00,0.0
4056.7999999999993,1169.6,16621.2,411.6,355.1,185.5,2025-01-29 15:06:00,0.0
4172.799999999999,1181.6,16657.2,562.6,460.1,151.5,2025-01-29 15:06:00,0.0
4148.799999999999,1241.6,16893.2,602.6,473.1,83.5,2025-01-29 15:06:00,0.0
4088.7999999999993,1365.6,16641.2,492.6,432.1,-0.5,2025-01-29 15:06:00,0.0
4360.799999999999,1409.6,16417.2,292.6,389.1,-51.5,2025-01-29 15:06:00,0.0
4652.799999999999,1189.6,16385.2,297.6,182.1,-16.5,2025-01-29 15:06:00,0.0
4644.799999999999,1073.6,16317.2,535.6,241.1,52.5,2025-01-29 15:06:00,0.0
4504.799999999999,1141.6,16777.2,790.6,390.1,142.5,2025-01-29 15:06:00,0.0
4268.799999999999,1333.6,17273.2,1050.6,330.1,253.5,2025-01-29 15:06:00,0.0
3984.7999999999993,1377.6,17357.2,1085.6,-40.900000000000006,327.5,2025-01-29 15:06:00,0.0
3816.7999999999993,1441.6,17265.2,993.6,-274.9,347.5,2025-01-29 15:06:00,0.0
4244.799999999999,1429.6,16665.2,864.6,-237.9,363.5,2025-01-29 15:06:00,0.0
5332.799999999999,1201.6,15469.2,730.6,-1114.9,326.5,2025-01-29 15:06:00,0.0
4592.799999999999,1297.6,16517.2,784.6,-1024.9,447.5,2025-01-29 15:06:01,0.0
4600.799999999999,1513.6,16717.2,938.6,-1760.9,400.5,2025-01-29 15:06:01,0.0
4548.799999999999,1453.6,16953.2,1019.6,-2357.9,335.5,2025-01-29 15:06:01,0.0
4348.799999999999,1469.6,17129.2,923.6,-3098.9,264.5,2025-01-29 15:06:01,0.0
4456.799999999999,1353.6,17089.2,1004.6,-4283.9,265.5,2025-01-29 15:06:01,0.0
4448.799999999999,1233.6,17797.2,964.6,-5232.9,200.5,2025-01-29 15:06:01,0.0
4924.799999999999,1349.6,17993.2,1104.6,-5883.9,87.5,2025-01-29 15:06:01,0.0
4940.799999999999,1845.6,18109.2,1030.6,-6215.9,0.5,2025-01-29 15:06:01,0.0
4824.799999999999,2013.6,18237.2,1206.6,-6183.9,-163.5,2025-01-29 15:06:01,0.0
5020.799999999999,2033.6,18453.2,1401.6,-6269.9,-234.5,2025-01-29 15:06:01,0.0
5068.799999999999,2077.6,18541.2,1545.6,-6333.9,-186.5,2025-01-29 15:06:01,0.0
5692.799999999999,2389.6,17893.2,1773.6,-6206.9,-70.5,2025-01-29 15:06:01,0.0
7060.799999999999,2033.6,18013.2,1714.6,-5133.9,-262.5,2025-01-29 15:06:01,0.0
6820.799999999999,2405.6,17637.2,1233.6,-3365.9,-496.5,2025-01-29 15:06:01,0.0
6208.799999999999,2753.6,17669.2,716.6,-1264.9,-604.5,2025-01-29 15:06:01,0.0
5228.799999999999,2893.6,18105.2,311.6,-186.9,-527.5,2025-01-29 15:06:01,0.0
5556.799999999999,2825.6,18645.2,132.6,508.1,-415.5,2025-01-29 15:06:01,0.0
5796.799999999999,2657.6,18493.2,-144.4,589.1,-305.5,2025-01-29 15:06:01,0.0
9696.8,2157.6,17241.2,-88.4,1392.1,-167.5,2025-01-29 15:06:01,0.0
5924.799999999999,1801.6,19445.2,-126.4,3215.1,134.5,2025-01-29 15:06:01,0.0
6100.799999999999,1677.6,19693.2,-198.4,4216.1,126.5,2025-01-29 15:06:01,0.0
5932.799999999999,1709.6,20237.2,-280.4,4111.1,80.5,2025-01-29 15:06:01,0.0
6268.799999999999,1321.6,20649.2,-340.4,3271.1,-96.5,2025-01-29 15:06:01,0.0
6536.799999999999,941.6,21001.2,-528.4,2117.1,-429.5,2025-01-29 15:06:01,0.0
6820.799999999999,1073.6,21333.2,-192.4,748.1,-690.5,2025-01-29 15:06:01,0.0
6384.799999999999,1005.6,20541.2,-121.4,-384.9,-794.5,2025-01-29 15:06:01,0.0
6452.799999999999,769.6,18913.2,-176.4,-459.9,-1001.5,2025-01-29 15:06:01,0.0
5360.799999999999,1489.6,18569.2,-1.4000000000000057,-686.9,-1524.5,2025-01-29 15:06:01,0.0
3488.7999999999993,1573.6,19509.2,182.6,1852.1,-1774.5,2025-01-29 15:06:01,0.0
2780.7999999999993,2493.6,19321.2,269.6,2690.1,-1242.5,2025-01-29 15:06:01,0.0
3040.7999999999993,2737.6,19653.2,367.6,3795.1,-833.5,2025-01-29 15:06:01,0.0
3112.7999999999993,2597.6,19993.2,727.6,4792.1,-595.5,2025-01-29 15:06:01,0.0
3056.7999999999993,2437.6,19701.2,1196.6,5183.1,-456.5,2025-01-29 15:06:01,0.0
3692.7999999999993,2165.6,19205.2,1406.6,5459.1,-610.5,2025-01-29 15:06:01,0.0
3656.7999999999993,1709.6,18841.2,1413.6,5760.1,-820.5,2025-01-29 15:06:01,0.0
3584.7999999999993,1885.6,18581.2,1465.6,5992.1,-1026.5,2025-01-29 15:06:01,0.0
4004.7999999999993,2029.6,17993.2,1493.6,5784.1,-1101.5,2025-01-29 15:06:01,0.0
3956.7999999999993,2053.6,17853.2,1749.6,5726.1,-1038.5,2025-01-29 15:06:01,0.0
4072.7999999999993,1861.6,17597.2,2064.6,6106.1,-1010.5,2025-01-29 15:06:01,0.0
4468.799999999999,2025.6,16853.2,2125.6,6506.1,-1038.5,2025-01-29 15:06:01,0.0
4532.799999999999,2073.6,16513.2,1959.6,6969.1,-1198.5,2025-01-29 15:06:01,0.0
3660.7999999999993,2069.6,16197.2,1742.6,7163.1,-1303.5,2025-01-29 15:06:01,0.0
3288.7999999999993,2301.6,16365.2,1540.6,6914.1,-1276.5,2025-01-29 15:06:01,0.0
3152.7999999999993,2581.6,16469.2,1441.6,6037.1,-1007.5,2025-01-29 15:06:01,0.0
3304.7999999999993,2001.6,16121.2,1418.6,5310.1,-669.5,2025-01-29 15:06:01,0.0
3864.7999999999993,1413.6,16177.2,1237.6,4883.1,-647.5,2025-01-29 15:06:01,0.0
4792.799999999999,1477.6,15849.2,740.6,4877.1,-652.5,2025-01-29 15:06:01,0.0
5340.799999999999,1789.6,14869.2,406.6,5980.1,-861.5,2025-01-29 15:06:01,0.0
4532.799999999999,2197.6,14369.2,222.6,7884.1,-1038.5,2025-01-29 15:06:01,0.0
2972.7999999999993,2405.6,14533.2,262.6,10253.1,-1338.5,2025-01-29 15:06:01,0.0
1560.7999999999993,1957.6,14429.2,368.6,11054.1,-1455.5,2025-01-29 15:06:01,0.0
600.7999999999993,2105.6,14553.2,527.6,11275.1,-1276.5,2025-01-29 15:06:01,0.0
428.7999999999993,2141.6,13477.2,-70.4,9721.1,-944.5,2025-01-29 15:06:01,0.0
356.7999999999993,2377.6,13457.2,-374.4,7778.1,-701.5,2025-01-29 15:06:01,0.0
848.7999999999993,2861.6,13385.2,-394.4,6933.1,-547.5,2025-01-29 15:06:01,0.0
1036.7999999999993,2901.6,12957.2,-387.4,7024.1,-448.5,2025-01-29 15:06:02,0.0
1216.7999999999993,2565.6,12325.2,-477.4,7628.1,-327.5,2025-01-29 15:06:02,0.0
1496.7999999999993,2089.6,11169.2,-887.4,9104.1,-396.5,2025-01-29 15:06:02,0.0
996.7999999999993,1541.6,10965.2,-1027.4,9755.1,-451.5,2025-01-29 15:06:02,0.0
84.79999999999927,1421.6,11489.2,-1148.4,10365.1,-360.5,2025-01-29 15:06:02,0.0
128.79999999999927,777.6,11465.2,-1048.4,10498.1,-11.5,2025-01-29 15:06:02,0.0
-535.2000000000007,1065.6,10841.2,-902.4,9801.1,-181.5,2025-01-29 15:06:02,0.0
-3.2000000000007276,1325.6,9705.2,-1453.4,9533.1,-333.5,2025-01-29 15:06:02,0.0
196.79999999999927,1861.6,10077.2,-1689.4,9048.1,-556.5,2025-01-29 15:06:02,0.0
-67.20000000000073,1873.6,10857.2,-1379.4,8197.1,-435.5,2025-01-29 15:06:02,0.0
216.79999999999927,1797.6,9417.2,-1394.4,7241.1,-313.5,2025-01-29 15:06:02,0.0
-1383.2000000000007,1885.6,9137.2,-1517.4,6783.1,296.5,2025-01-29 15:06:02,0.0
-219.20000000000073,1373.6,8885.2,-1429.4,7286.1,234.5,2025-01-29 15:06:02,0.0
-187.20000000000073,1169.6,9209.2,-1185.4,8147.1,-112.5,2025-01-29 15:06:02,0.0
-1039.2000000000007,633.6,8161.2,-993.4,8272.1,-940.5,2025-01-29 15:06:02,0.0
-55.20000000000073,1113.6,7421.2,-756.4,9466.1,-538.5,2025-01-29 15:06:02,0.0
-1167.2000000000007,1281.6,7557.2,-953.4,8416.1,-745.5,2025-01-29 15:06:02,0.0
1884.7999999999993,1189.6,3389.2,-937.4,7608.1,-258.5,2025-01-29 15:06:02,0.0
-83.20000000000073,1501.6,6377.2,-937.4,7165.1,4.5,2025-01-29 15:06:02,0.0
608.7999999999993,1725.6,6549.2,-878.4,6972.1,56.5,2025-01-29 15:06:02,0.0
1316.7999999999993,1633.6,6765.2,-904.4,6835.1,-73.5,2025-01-29 15:06:02,0.0
1292.7999999999993,1693.6,6597.2,-912.4,6643.1,-241.5,2025-01-29 15:06:02,0.0
1116.7999999999993,1633.6,6561.2,-865.4,6668.1,-367.5,2025-01-29 15:06:02,0.0
1000.7999999999993,1609.6,6193.2,-594.4,6805.1,-230.5,2025-01-29 15:06:02,0.0
804.7999999999993,1361.6,5753.2,-358.4,7096.1,-45.5,2025-01-29 15:06:02,
1088.7999999999993,877.6,5041.2,-169.4,7521.1,-117.5,2025-01-29 15:06:02,0.0
1212.7999999999993,721.6,5065.2,65.6,7591.1,-406.5,2025-01-29 15:06:02,0.0
1064.7999999999993,873.6,5237.2,362.6,7294.1,-677.5,2025-01-29 15:06:02,0.0
744.7999999999993,1197.6,5481.2,758.6,6790.1,-723.5,2025-01-29 15:06:02,0.0
448.7999999999993,1813.6,5481.2,1547.6,6235.1,-447.5,2025-01-29 15:06:02,0.0
60.79999999999927,1993.6,5093.2,2115.6,6039.1,162.5,2025-01-29 15:06:02,0.0
256.7999999999993,1413.6,4641.2,2478.6,5963.1,729.5,2025-01-29 15:06:02,0.0
964.7999999999993,681.6,4105.2,2827.6,5424.1,586.5,2025-01-29 15:06:02,0.0
1492.7999999999993,737.6,2993.2,2986.6,4689.1,274.5,2025-01-29 15:06:02,0.0
1872.7999999999993,1041.6,2861.2,3433.6,3363.1,-439.5,2025-01-29 15:06:02,0.0
1152.7999999999993,1621.6,2977.2,3830.6,2439.1,-1001.5,2025-01-29 15:06:02,0.0
708.7999999999993,1609.6,3177.2,3844.6,2279.1,-1190.5,2025-01-29 15:06:02,0.0
324.7999999999993,1385.6,3409.2,3763.6,2495.1,-1241.5,2025-01-29 15:06:02,0.0
-67.20000000000073,1229.6,3245.2,3689.6,2132.1,-1235.5,2025-01-29 15:06:02,0.0
-119.20000000000073,1261.6,2557.2,3647.6,707.1,-1356.5,2025-01-29 15:06:02,0.0
168.79999999999927,1813.6,2593.2,3939.6,-1650.9,-1621.5,2025-01-29 15:06:02,0.0
940.7999999999993,1877.6,2565.2,4348.6,-4606.9,-1826.5,2025-01-29 15:06:02,0.0
1192.7999999999993,1125.6,2181.2,4118.6,-4604.9,-2128.5,2025-01-29 15:06:02,0.0
944.7999999999993,969.6,1801.1999999999998,3776.6,-3297.9,-2401.5,2025-01-29 15:06:02,0.0
620.7999999999993,1433.6,1741.1999999999998,3404.6,-872.9,-2427.5,2025-01-29 15:06:02,0.0
24.799999999999272,2317.6,1465.1999999999998,2972.6,785.1,-2354.5,2025-01-29 15:06:02,0.0
360.7999999999993,2461.6,1665.1999999999998,2529.6,1651.1,-2432.5,2025-01-29 15:06:02,0.0
48.79999999999927,2581.6,1157.1999999999998,2123.6,2406.1,-2666.5,2025-01-29 15:06:02,0.0
-603.2000000000007,2037.6,957.1999999999998,1773.6,3490.1,-2891.5,2025-01-29 15:06:02,0.0
-903.2000000000007,1345.6,909.1999999999998,1337.6,4182.1,-3281.5,2025-01-29 15:06:02,0.0
-1107.2000000000007,669.6,441.1999999999998,904.6,3703.1,-3704.5,2025-01-29 15:06:02,0.0
-1547.2000000000007,305.6,-18.800000000000182,458.6,1734.1,-3729.5,2025-01-29 15:06:02,0.0
-1435.2000000000007,-430.4,909.1999999999998,118.6,-2044.9,-3385.5,2025-01-29 15:06:02,0.0
-715.2000000000007,-1426.4,2401.2,-51.400000000000006,-4493.9,-3051.5,2025-01-29 15:06:02,0.0
112.79999999999927,-2222.4,3417.2,-117.4,-5166.9,-2920.5,2025-01-29 15:06:02,0.0
640.7999999999993,-3210.4,3713.2,203.6,-4271.9,-2672.5,2025-01-29 15:06:02,0.0
664.7999999999993,-3986.4,3313.2,476.6,-2764.9,-2179.5,2025-01-29 15:06:02,0.0
600.7999999999993,-3938.4,3365.2,865.6,-1121.9,-1741.5,2025-01-29 15:06:02,0.0
620.7999999999993,-2634.4,4001.2,1074.6,929.1,-1449.5,2025-01-29 15:06:02,0.0
36.79999999999927,-822.4,4077.2,508.6,2676.1,-1286.5,2025-01-29 15:06:02,0.0
-403.2000000000007,-14.400000000000006,3805.2,-419.4,3210.1,-1242.5,2025-01-29 15:06:02,0.0
-895.2000000000007,-2.4000000000000057,3673.2,-1379.4,3106.1,-1228.5,2025-01-29 15:06:02,0.0
-955.2000000000007,-742.4,4441.2,-1588.4,2192.1,-1039.5,2025-01-29 15:06:02,0.0
-699.2000000000007,-1650.4,4949.2,-1698.4,1209.1,-814.5,2025-01-29 15:06:02,0.0
-227.20000000000073,-2470.4,5421.2,-1785.4,277.1,-667.5,2025-01-29 15:06:02,0.0
176.79999999999927,-2882.4,5385.2,-1664.4,-127.9,-669.5,2025-01-29 15:06:03,0.0
360.7999999999993,-2674.4,5133.2,-1648.4,189.1,-387.5,2025-01-29 15:06:03,0.0
700.7999999999993,-2334.4,5065.2,-1638.4,1303.1,-271.5,2025-01-29 15:06:03,0.0
840.7999999999993,-2258.4,4785.2,-1937.4,2416.1,-357.5,2025-01-29 15:06:03,0.0
396.7999999999993,-1806.4,4673.2,-2360.4,3186.1,-318.5,2025-01-29 15:06:03,0.0
-351.2000000000007,-1290.4,5337.2,-2650.4,3311.1,-87.5,2025-01-29 15:06:03,0.0
-827.2000000000007,-914.4,5125.2,-2991.4,2926.1,357.5,2025-01-29 15:06:03,0.0
-991.2000000000007,-786.4,5073.2,-3545.4,2018.1,953.5,2025-01-29 15:06:03,0.0
-727.2000000000007,-1130.4,4897.2,-3834.4,1368.1,1415.5,2025-01-29 15:06:03,0.0
-87.20000000000073,-1886.4,4701.2,-3744.4,1137.1,1754.5,2025-01-29 15:06:03,0.0
376.7999999999993,-2886.4,4725.2,-3486.4,1483.1,1680.5,2025-01-29 15:06:03,0.0
668.7999999999993,-3522.4,4953.2,-3150.4,2271.1,1126.5,2025-01-29 15:06:03,0.0
-127.20000000000073,-3446.4,4893.2,-2720.4,3270.1,452.5,2025-01-29 15:06:03,0.0
-819.2000000000007,-2914.4,5277.2,-2291.4,3508.1,-187.5,2025-01-29 15:06:03,0.0
-1399.2000000000007,-2842.4,5797.2,-2004.4,3071.1,-826.5,2025-01-29 15:06:03,0.0
-1783.2000000000007,-2474.4,6221.2,-2211.4,1833.1,-1139.5,2025-01-29 15:06:03,0.0
-1691.2000000000007,-1346.4,6609.2,-2682.4,710.1,-1166.5,2025-01-29 15:06:03,0.0
-1935.2000000000007,-166.4,5953.2,-3458.4,139.1,-1242.5,2025-01-29 15:06:03,0.0
-1915.2000000000007,-162.4,3577.2,-4511.4,955.1,-1788.5,2025-01-29 15:06:03,0.0
-2327.2000000000007,-674.4,1189.1999999999998,-5925.4,2083.1,-3276.5,2025-01-29 15:06:03,0.0
-2379.2000000000007,-1782.4,2869.2,-6637.4,2032.1,-4646.5,2025-01-29 15:06:03,0.0
-2479.2000000000007,-3694.4,4889.2,-5759.4,-476.9,-5632.5,2025-01-29 15:06:03,0.0
-3363.2000000000007,-4086.4,4797.2,-3953.4,-3414.9,-5597.5,2025-01-29 15:06:03,0.0
-3987.2000000000007,-4726.4,3349.2,-1984.4,-5464.9,-4698.5,2025-01-29 15:06:03,0.0
-4259.200000000001,-5838.4,1573.1999999999998,-578.4,-5161.9,-3719.5,2025-01-29 15:06:03,0.0
-5443.200000000001,-6046.4,169.19999999999982,-96.4,-3177.9,-2488.5,2025-01-29 15:06:03,0.0
-6939.200000000001,-5046.4,-114.80000000000018,-738.4,-555.9,721.5,2025-01-29 15:06:03,0.0
-3823.2000000000007,-3394.4,1089.1999999999998,-148.4,-1300.9,3833.5,2025-01-29 15:06:03,0.0
-1975.2000000000007,-2646.4,361.1999999999998,454.6,-3705.9,4940.5,2025-01-29 15:06:03,0.0
-763.2000000000007,-1022.4,-314.8000000000002,966.6,-5213.9,5390.5,2025-01-29 15:06:03,0.0
968.7999999999993,181.6,-258.8000000000002,1224.6,-5323.9,5024.5,2025-01-29 15:06:03,0.0
2412.7999999999993,1653.6,841.1999999999998,1012.6,-4049.9,3500.5,2025-01-29 15:06:03,0.0
2072.7999999999993,2625.6,1921.1999999999998,810.6,-1935.9,2460.5,2025-01-29 15:06:03,0.0
1044.7999999999993,1889.6,1773.1999999999998,290.6,103.1,2211.5,2025-01-29 15:06:03,0.0
0.7999999999992724,657.6,2089.2,-20.400000000000006,459.1,2773.5,2025-01-29 15:06:03,0.0
-431.2000000000007,-170.4,2405.2,212.6,538.1,3353.5,2025-01-29 15:06:03,0.0
216.79999999999927,-1062.4,2153.2,529.6,860.1,3305.5,2025-01-29 15:06:03,0.0
-343.2000000000007,-1782.4,2229.2,972.6,1447.1,2986.5,2025-01-29 15:06:03,0.0
-751.2000000000007,-1054.4,2733.2,1765.6,1260.1,2765.5,2025-01-29 15:06:03,0.0
-315.2000000000007,-98.4,2097.2,2408.6,240.1,2984.5,2025-01-29 15:06:03,0.0
524.7999999999993,685.6,1585.1999999999998,2541.6,-1081.9,3176.5,2025-01-29 15:06:03,0.0
1312.7999999999993,1345.6,1861.1999999999998,2554.6,-1720.9,2962.5,2025-01-29 15:06:03,0.0
1408.7999999999993,1533.6,1429.1999999999998,2657.6,-1347.9,2783.5,2025-01-29 15:06:03,0.0
1204.7999999999993,1557.6,1357.1999999999998,2752.6,40.099999999999994,2665.5,2025-01-29 15:06:03,0.0
832.7999999999993,1785.6,1517.1999999999998,2772.6,1539.1,2734.5,2025-01-29 15:06:03,0.0
384.7999999999993,1893.6,1917.1999999999998,2835.6,2508.1,2790.5,2025-01-29 15:06:03,0.0
356.7999999999993,1565.6,2141.2,3063.6,2372.1,2683.5,2025-01-29 15:06:03,0.0
480.7999999999993,1065.6,2045.1999999999998,3139.6,1177.1,2327.5,2025-01-29 15:06:03,0.0
692.7999999999993,789.6,2177.2,3167.6,-561.9,1921.5,2025-01-29 15:06:03,0.0
900.7999999999993,773.6,2457.2,3266.6,-1602.9,1536.5,2025-01-29 15:06:03,0.0
916.7999999999993,1033.6,2877.2,3366.6,-1690.9,1063.5,2025-01-29 15:06:03,0.0
824.7999999999993,1337.6,3049.2,3344.6,-1220.9,675.5,2025-01-29 15:06:03,0.0
756.7999999999993,1609.6,3057.2,3256.6,-765.9,540.5,2025-01-29 15:06:03,0.0
244.79999999999927,1485.6,3249.2,3041.6,-638.9,670.5,2025-01-29 15:06:03,0.0
160.79999999999927,1269.6,3545.2,2932.6,-844.9,662.5,2025-01-29 15:06:03,0.0
-23.200000000000728,773.6,3953.2,2911.6,-1054.9,259.5,2025-01-29 15:06:04,0.0
-211.20000000000073,621.6,3837.2,3031.6,-1356.9,-317.5,2025-01-29 15:06:04,0.0
-75.20000000000073,517.6,4065.2,3218.6,-1916.9,-706.5,2025-01-29 15:06:04,0.0
260.7999999999993,617.6,4393.2,3456.6,-2524.9,-938.5,2025-01-29 15:06:04,0.0
916.7999999999993,673.6,4337.2,3575.6,-2733.9,-1170.5,2025-01-29 15:06:04,
892.7999999999993,885.6,4377.2,3663.6,-2113.9,-1455.5,2025-01-29 15:06:04,0.0
396.7999999999993,1105.6,4509.2,3737.6,-782.9,-1646.5,2025-01-29 15:06:04,0.0
-315.2000000000007,1077.6,4689.2,4095.6,1096.1,-1889.5,2025-01-29 15:06:04,0.0
-1575.2000000000007,769.6,4637.2,4601.6,2163.1,-1945.5,2025-01-29 15:06:04,0.0
-2295.2000000000007,77.6,4641.2,4934.6,2132.1,-1630.5,2025-01-29 15:06:04,0.0
-2503.2000000000007,-174.4,4613.2,5102.6,974.1,-1051.5,2025-01-29 15:06:04,0.0
-2555.2000000000007,1209.6,4857.2,5206.6,127.1,-501.5,2025-01-29 15:06:04,0.0
-2815.2000000000007,1721.6,5225.2,5193.6,438.1,-100.5,2025-01-29 15:06:04,0.0
-3235.2000000000007,689.6,5625.2,5349.6,1737.1,469.5,2025-01-29 15:06:04,0.0
-2911.2000000000007,-1370.4,5585.2,5482.6,2903.1,924.5,2025-01-29 15:06:04,0.0
-2859.2000000000007,-2602.4,4357.2,5502.6,3724.1,1274.5,2025-01-29 15:06:04,0.0
-3035.2000000000007,-2086.4,3349.2,5642.6,4260.1,1770.5,2025-01-29 15:06:04,0.0
-3423.2000000000007,233.6,1981.1999999999998,5663.6,4627.1,2466.5,2025-01-29 15:06:04,0.0
-3291.2000000000007,2553.6,901.1999999999998,4911.6,5060.1,3019.5,2025-01-29 15:06:04,0.0
-2439.2000000000007,3945.6,-14.800000000000182,3772.6,5192.1,2990.5,2025-01-29 15:06:04,0.0
-1207.2000000000007,4277.6,-994.8000000000002,2506.6,4569.1,2290.5,2025-01-29 15:06:04,0.0
132.79999999999927,3421.6,-1286.8000000000002,1305.6,2961.1,847.5,2025-01-29 15:06:04,0.0
344.7999999999993,745.6,-350.8000000000002,-91.4,23.099999999999994,-1667.5,2025-01-29 15:06:04,0.0
444.7999999999993,-806.4,93.19999999999982,-161.4,-1342.9,-2758.5,2025-01-29 15:06:04,0.0
532.7999999999993,-906.4,-622.8000000000002,320.6,-1330.9,-3150.5,2025-01-29 15:06:04,0.0
-35.20000000000073,-770.4,-1250.8000000000002,376.6,-630.9,-2953.5,2025-01-29 15:06:04,0.0
604.7999999999993,-686.4,-1514.8000000000002,382.6,156.1,-2656.5,2025-01-29 15:06:04,0.0
596.7999999999993,-782.4,-1058.8000000000002,388.6,1123.1,-2184.5,2025-01-29 15:06:04,0.0
524.7999999999993,-690.4,-110.80000000000018,442.6,1613.1,-1703.5,2025-01-29 15:06:04,0.0
528.7999999999993,-786.4,881.1999999999998,783.6,1325.1,-1304.5,2025-01-29 15:06:04,0.0
264.7999999999993,-774.4,1181.1999999999998,1017.6,716.1,-971.5,2025-01-29 15:06:04,0.0
36.79999999999927,-474.4,1533.1999999999998,1243.6,352.1,-827.5,2025-01-29 15:06:04,0.0
236.79999999999927,-430.4,1517.1999999999998,1131.6,141.1,-951.5,2025-01-29 15:06:04,0.0
244.79999999999927,-434.4,1293.1999999999998,616.6,-124.9,-1163.5,2025-01-29 15:06:04,0.0
-443.2000000000007,-510.4,1029.1999999999998,140.6,-843.9,-1540.5,2025-01-29 15:06:04,0.0
-587.2000000000007,-562.4,-26.800000000000182,-412.4,-2300.9,-1838.5,2025-01-29 15:06:04,0.0
-1127.2000000000007,-494.4,-510.8000000000002,-925.4,-4156.9,-1735.5,2025-01-29 15:06:04,0.0
-375.2000000000007,-346.4,189.19999999999982,-1388.4,-5573.9,-1450.5,2025-01-29 15:06:04,0.0
604.7999999999993,-202.4,437.1999999999998,-1959.4,-5917.9,-1190.5,2025-01-29 15:06:04,0.0
1088.7999999999993,-50.400000000000006,857.1999999999998,-2624.4,-4858.9,-909.5,2025-01-29 15:06:04,0.0
1640.7999999999993,-318.4,577.1999999999998,-3014.4,-3302.9,-729.5,2025-01-29 15:06:04,0.0
1748.7999999999993,-478.4,905.1999999999998,-3234.4,-1464.9,-684.5,2025-01-29 15:06:04,0.0
1256.7999999999993,-758.4,1593.1999999999998,-3521.4,-69.9,-610.5,2025-01-29 15:06:04,0.0
636.7999999999993,-894.4,2341.2,-3818.4,958.1,-611.5,2025-01-29 15:06:04,0.0
600.7999999999993,-1066.4,2301.2,-6863.4,1081.1,784.5,2025-01-29 15:06:04,0.0
116.79999999999927,-1226.4,2789.2,-6817.4,1857.1,953.5,2025-01-29 15:06:04,0.0
-735.2000000000007,-1338.4,3361.2,-6833.4,2140.1,1202.5,2025-01-29 15:06:04,0.0
-1487.2000000000007,-1386.4,3461.2,-6846.4,1818.1,1312.5,2025-01-29 15:06:04,0.0
-2099.2000000000007,-1398.4,3097.2,-6831.4,1216.1,1304.5,2025-01-29 15:06:04,0.0
-2459.2000000000007,-1250.4,3585.2,-6890.4,194.1,1008.5,2025-01-29 15:06:04,0.0
-2035.2000000000007,-1462.4,4081.2,-7071.4,-1268.9,441.5,2025-01-29 15:06:04,0.0
-1867.2000000000007,-1426.4,4157.2,-7414.4,-2585.9,-184.5,2025-01-29 15:06:04,0.0
-1355.2000000000007,-1194.4,4089.2,-8000.4,-3532.9,-670.5,2025-01-29 15:06:04,0.0
-407.2000000000007,-818.4,3685.2,-8557.4,-3635.9,-1115.5,2025-01-29 15:06:04,0.0
0.7999999999992724,49.599999999999994,2469.2,-9393.4,-2484.9,-1432.5,2025-01-29 15:06:05,0.0
-31.200000000000728,449.6,1161.1999999999998,-10462.4,-510.9,-1908.5,2025-01-29 15:06:05,0.0
-599.2000000000007,205.6,681.1999999999998,-11266.4,615.1,-2551.5,2025-01-29 15:06:05,0.0
-1231.2000000000007,-194.4,1429.1999999999998,-11856.4,660.1,-3168.5,2025-01-29 15:06:05,0.0
-1791.2000000000007,65.6,2329.2,-12145.4,-368.9,-3329.5,2025-01-29 15:06:05,0.0
-2059.2000000000007,725.6,1873.1999999999998,-12262.4,-2229.9,-2922.5,2025-01-29 15:06:05,0.0
-1607.2000000000007,1009.6,697.1999999999998,-12212.4,-3991.9,-2019.5,2025-01-29 15:06:05,0.0
-431.2000000000007,-270.4,-442.8000000000002,-12094.4,-4253.9,-1340.5,2025-01-29 15:06:05,0.0
404.7999999999993,-1686.4,-1134.8000000000002,-11989.4,-2154.9,-1395.5,2025-01-29 15:06:05,0.0
-503.2000000000007,-2358.4,-278.8000000000002,-11812.4,3333.1,-1295.5,2025-01-29 15:06:05,0.0
-1675.2000000000007,-2134.4,1305.1999999999998,-11021.4,6861.1,-896.5,2025-01-29 15:06:05,0.0
-2435.2000000000007,-1398.4,2065.2,-10113.4,7544.1,-495.5,2025-01-29 15:06:05,0.0
-2711.2000000000007,-490.4,2161.2,-9439.4,5648.1,30.5,2025-01-29 15:06:05,0.0
-2279.2000000000007,273.6,1917.1999999999998,-9256.4,1939.1,502.5,2025-01-29 15:06:05,0.0
-1215.2000000000007,1129.6,1129.1999999999998,-9546.4,-1798.9,581.5,2025-01-29 15:06:05,0.0
-167.20000000000073,2017.6,729.1999999999998,-9897.4,-3506.9,629.5,2025-01-29 15:06:05,0.0
828.7999999999993,2393.6,237.19999999999982,-10116.4,-3115.9,679.5,2025-01-29 15:06:05,0.0
1728.7999999999993,2309.6,-286.8000000000002,-10303.4,-1637.9,473.5,2025-01-29 15:06:05,0.0
2392.7999999999993,2073.6,-158.80000000000018,-10614.4,306.1,177.5,2025-01-29 15:06:05,0.0
2488.7999999999993,1369.6,381.1999999999998,-11044.4,2922.1,-376.5,2025-01-29 15:06:05,0.0
1596.7999999999993,793.6,785.1999999999998,-11374.4,4345.1,-613.5,2025-01-29 15:06:05,0.0
588.7999999999993,649.6,1425.1999999999998,-11432.4,4831.1,-1143.5,2025-01-29 15:06:05,0.0
-1343.2000000000007,1557.6,1885.1999999999998,-11510.4,5036.1,-1136.5,2025-01-29 15:06:05,0.0
-2287.2000000000007,2497.6,1649.1999999999998,-11630.4,5022.1,-717.5,2025-01-29 15:06:05,0.0
-3023.2000000000007,3173.6,1097.1999999999998,-12029.4,3766.1,53.5,2025-01-29 15:06:05,0.0
-2299.2000000000007,3753.6,17.199999999999818,-12647.4,1509.1,634.5,2025-01-29 15:06:05,0.0
-663.2000000000007,3937.6,-1102.8000000000002,-13669.4,-616.9,722.5,2025-01-29 15:06:05,0.0
848.7999999999993,3573.6,-1798.8000000000002,-15319.4,-1585.9,194.5,2025-01-29 15:06:05,0.0
1656.7999999999993,3197.6,-1694.8000000000002,-16425.4,-645.9,-404.5,2025-01-29 15:06:05,0.0
1992.7999999999993,2789.6,-1006.8000000000002,-17049.4,754.1,-927.5,2025-01-29 15:06:05,0.0
1576.7999999999993,2805.6,-626.8000000000002,-17550.4,2249.1,-1160.5,2025-01-29 15:06:05,0.0
1348.7999999999993,2145.6,-10.800000000000182,-17722.4,3801.1,-1482.5,2025-01-29 15:06:05,0.0
144.79999999999927,1365.6,1113.1999999999998,-17554.4,4509.1,-1856.5,2025-01-29 15:06:05,0.0
-631.2000000000007,977.6,1609.1999999999998,-17112.4,3859.1,-2092.5,2025-01-29 15:06:05,0.0
-1051.2000000000007,857.6,1637.1999999999998,-16697.4,2558.1,-2144.5,2025-01-29 15:06:05,0.0
-443.2000000000007,809.6,1745.1999999999998,-16270.4,1075.1,-2426.5,2025-01-29 15:06:05,0.0
236.79999999999927,633.6,1565.1999999999998,-15936.4,-374.9,-2954.5,2025-01-29 15:06:05,0.0
772.7999999999993,53.599999999999994,1585.1999999999998,-15197.4,-1661.9,-3491.5,2025-01-29 15:06:05,0.0
832.7999999999993,-502.4,2357.2,-14460.4,-1574.9,-3782.5,2025-01-29 15:06:05,0.0
1424.7999999999993,-458.4,2369.2,-13734.4,-589.9,-4154.5,2025-01-29 15:06:05,0.0
1276.7999999999993,17.599999999999994,2873.2,-13073.4,566.1,-4475.5,2025-01-29 15:06:05,0.0
692.7999999999993,441.6,3561.2,-12267.4,1038.1,-4714.5,2025-01-29 15:06:05,0.0
216.79999999999927,501.6,4621.2,-11502.4,1129.1,-4801.5,2025-01-29 15:06:05,0.0
-159.20000000000073,-390.4,5381.2,-10411.4,929.1,-4817.5,2025-01-29 15:06:05,0.0
-831.2000000000007,-1042.4,4693.2,-8985.4,1232.1,-4662.5,2025-01-29 15:06:05,0.0
-1443.2000000000007,-1630.4,3881.2,-7061.4,1812.1,-4402.5,2025-01-29 15:06:05,0.0
-3047.2000000000007,-1190.4,2037.1999999999998,-5051.4,3048.1,-3392.5,2025-01-29 15:06:05,0.0
-4003.2000000000007,-766.4,417.1999999999998,-3339.4,3917.1,-1840.5,2025-01-29 15:06:05,0.0
-3539.2000000000007,165.6,-246.80000000000018,-2237.4,3929.1,-790.5,2025-01-29 15:06:05,0.0
-1743.2000000000007,1545.6,-394.8000000000002,-2114.4,2585.1,-604.5,2025-01-29 15:06:05,0.0
-79.20000000000073,3149.6,481.1999999999998,-2537.4,185.1,-1362.5,2025-01-29 15:06:05,
508.7999999999993,3709.6,721.1999999999998,-3252.4,-1813.9,-2230.5,2025-01-29 15:06:05,0.0
428.7999999999993,3689.6,1029.1999999999998,-3902.4,-1957.9,-2794.5,2025-01-29 15:06:05,0.0
-211.20000000000073,1941.6,-1798.8000000000002,-5456.4,850.1,-3741.5,2025-01-29 15:06:05,0.0
-115.20000000000073,1285.6,-1602.8000000000002,-6242.4,610.1,-3914.5,2025-01-29 15:06:05,0.0
108.79999999999927,897.6,-1158.8000000000002,-6799.4,-228.9,-3895.5,2025-01-29 15:06:05,0.0
352.7999999999993,877.6,-666.8000000000002,-7241.4,-572.9,-3802.5,2025-01-29 15:06:05,0.0
628.7999999999993,405.6,-178.80000000000018,-7962.4,-324.9,-3793.5,2025-01-29 15:06:05,0.0
520.7999999999993,-706.4,133.19999999999982,-8752.4,279.1,-3913.5,2025-01-29 15:06:05,0.0
-83.20000000000073,-1670.4,545.1999999999998,-9313.4,840.1,-4163.5,2025-01-29 15:06:05,0.0
-975.2000000000007,-2518.4,949.1999999999998,-9629.4,921.1,-4236.5,2025-01-29 15:06:05,0.0
-1435.2000000000007,-2642.4,801.1999999999998,-9742.4,374.1,-4187.5,2025-01-29 15:06:05,0.0
-1443.2000000000007,-2586.4,785.1999999999998,-9876.4,-704.9,-4207.5,2025-01-29 15:06:05,0.0
-1751.2000000000007,-2014.4,1273.1999999999998,-10020.4,-1767.9,-4142.5,2025-01-29 15:06:05,0.0
-1351.2000000000007,-1570.4,1109.1999999999998,-10082.4,-2583.9,-4015.5,2025-01-29 15:06:05,0.0
-715.2000000000007,-1358.4,961.1999999999998,-10296.4,-3049.9,-3894.5,2025-01-29 15:06:06,0.0
-247.20000000000073,-1122.4,937.1999999999998,-10517.4,-3111.9,-3698.5,2025-01-29 15:06:06,0.0
240.79999999999927,-1002.4,1113.1999999999998,-10785.4,-2876.9,-3325.5,2025-01-29 15:06:06,0.0
636.7999999999993,-1326.4,817.1999999999998,-11071.4,-2404.9,-3012.5,2025-01-29 15:06:06,0.0
980.7999999999993,-1622.4,473.1999999999998,-11338.4,-1677.9,-2897.5,2025-01-29 15:06:06,0.0
988.7999999999993,-1798.4,189.19999999999982,-11775.4,-775.9,-2961.5,2025-01-29 15:06:06,0.0
640.7999999999993,-1450.4,693.1999999999998,-12140.4,-25.900000000000006,-3040.5,2025-01-29 15:06:06,0.0
248.79999999999927,-1294.4,865.1999999999998,-12494.4,256.1,-3035.5,2025-01-29 15:06:06,0.0
-151.20000000000073,-1250.4,1165.1999999999998,-12924.4,147.1,-2981.5,2025-01-29 15:06:06,0.0
-763.2000000000007,-934.4,901.1999999999998,-13320.4,-734.9,-2633.5,2025-01-29 15:06:06,0.0
-615.2000000000007,-1142.4,481.1999999999998,-13823.4,-1896.9,-2226.5,2025-01-29 15:06:06,0.0
-219.20000000000073,-1698.4,605.1999999999998,-14209.4,-2802.9,-1920.5,2025-01-29 15:06:06,0.0
-47.20000000000073,-2298.4,997.1999999999998,-14227.4,-2947.9,-1879.5,2025-01-29 15:06:06,0.0
-83.20000000000073,-2530.4,1409.1999999999998,-14010.4,-2235.9,-1840.5,2025-01-29 15:06:06,0.0
-179.20000000000073,-1930.4,1289.1999999999998,-13666.4,-1074.9,-1580.5,2025-01-29 15:06:06,0.0
36.79999999999927,-1830.4,809.1999999999998,-13454.4,-529.9,-1334.5,2025-01-29 15:06:06,0.0
-7.200000000000728,-2082.4,741.1999999999998,-13218.4,-41.900000000000006,-1318.5,2025-01-29 15:06:06,0.0
-195.20000000000073,-2526.4,1061.1999999999998,-12946.4,655.1,-1445.5,2025-01-29 15:06:06,0.0
-691.2000000000007,-2922.4,953.1999999999998,-12986.4,1262.1,-1616.5,2025-01-29 15:06:06,0.0
-1223.2000000000007,-3054.4,1529.1999999999998,-12981.4,830.1,-1754.5,2025-01-29 15:06:06,0.0
-1407.2000000000007,-2394.4,1825.1999999999998,-13019.4,-574.9,-1665.5,2025-01-29 15:06:06,0.0
-1211.2000000000007,-1514.4,2069.2,-13221.4,-2047.9,-1327.5,2025-01-29 15:06:06,0.0
-863.2000000000007,-1018.4,1925.1999999999998,-13423.4,-2896.9,-975.5,2025-01-29 15:06:06,0.0
-319.2000000000007,-962.4,1825.1999999999998,-13564.4,-3125.9,-620.5,2025-01-29 15:06:06,0.0
272.7999999999993,-1346.4,1333.1999999999998,-13771.4,-2600.9,-387.5,2025-01-29 15:06:06,0.0
700.7999999999993,-1890.4,1525.1999999999998,-14020.4,-1530.9,-343.5,2025-01-29 15:06:06,0.0
760.7999999999993,-2426.4,2013.1999999999998,-14211.4,-393.9,-489.5,2025-01-29 15:06:06,0.0
-343.2000000000007,-2882.4,2445.2,-13830.4,559.1,-609.5,2025-01-29 15:06:06,0.0
-1147.2000000000007,-3094.4,1985.1999999999998,-13318.4,668.1,-689.5,2025-01-29 15:06:06,0.0
-1475.2000000000007,-3310.4,1693.1999999999998,-12606.4,-610.9,-737.5,2025-01-29 15:06:06,0.0
-899.2000000000007,-2474.4,953.1999999999998,-12262.4,-2676.9,-632.5,2025-01-29 15:06:06,0.0
-95.20000000000073,-1014.4,1197.1999999999998,-12278.4,-3740.9,-112.5,2025-01-29 15:06:06,0.0
488.7999999999993,321.6,1217.1999999999998,-12188.4,-2873.9,472.5,2025-01-29 15:06:06,0.0
948.7999999999993,1141.6,553.1999999999998,-12109.4,-791.9,805.5,2025-01-29 15:06:06,0.0
864.7999999999993,1025.6,-94.80000000000018,-12160.4,1572.1,510.5,2025-01-29 15:06:06,0.0
696.7999999999993,905.6,-358.8000000000002,-12487.4,3242.1,150.5,2025-01-29 15:06:06,0.0
52.79999999999927,1109.6,561.1999999999998,-12674.4,4256.1,-95.5,2025-01-29 15:06:06,0.0
-647.2000000000007,1285.6,1737.1999999999998,-12503.4,4950.1,-153.5,2025-01-29 15:06:06,0.0
-1127.2000000000007,1133.6,2589.2,-12353.4,4867.1,-374.5,2025-01-29 15:06:06,0.0
-1507.2000000000007,589.6,2917.2,-12211.4,3215.1,-792.5,2025-01-29 15:06:06,0.0
-1451.2000000000007,369.6,2325.2,-12056.4,498.1,-1092.5,2025-01-29 15:06:06,0.0
-1059.2000000000007,605.6,1653.1999999999998,-11799.4,-1374.9,-1242.5,2025-01-29 15:06:06,0.0
232.79999999999927,1753.6,1225.1999999999998,-11749.4,-966.9,-1369.5,2025-01-29 15:06:06,0.0
1052.7999999999993,2077.6,1705.1999999999998,-11893.4,789.1,-1708.5,2025-01-29 15:06:06,0.0
808.7999999999993,1821.6,2465.2,-11837.4,2573.1,-2037.5,2025-01-29 15:06:06,0.0
-335.2000000000007,1213.6,2637.2,-11438.4,3686.1,-2165.5,2025-01-29 15:06:06,0.0
-1659.2000000000007,549.6,2337.2,-10766.4,3959.1,-1852.5,2025-01-29 15:06:06,0.0
-2251.2000000000007,-26.400000000000006,2041.1999999999998,-9975.4,3452.1,-1346.5,2025-01-29 15:06:06,0.0
-2307.2000000000007,69.6,2281.2,-9446.4,1862.1,-936.5,2025-01-29 15:06:06,0.0
-1771.2000000000007,949.6,2529.2,-8917.4,-577.9,-589.5,2025-01-29 15:06:06,0.0
-1051.2000000000007,1397.6,2473.2,-8445.4,-1957.9,-497.5,2025-01-29 15:06:06,0.0
-391.2000000000007,1289.6,2173.2,-7947.4,-2308.9,-578.5,2025-01-29 15:06:06,0.0
216.79999999999927,453.6,2033.1999999999998,-7453.4,-2113.9,-723.5,2025-01-29 15:06:06,0.0
376.7999999999993,-54.400000000000006,2153.2,-6675.4,-1455.9,-995.5,2025-01-29 15:06:06,0.0
516.7999999999993,161.6,3281.2,-5273.4,-877.9,-1295.5,2025-01-29 15:06:06,0.0
468.7999999999993,277.6,4133.2,-4046.4,-1324.9,-1614.5,2025-01-29 15:06:06,0.0
-79.20000000000073,541.6,4641.2,-2928.4,-1384.9,-1743.5,2025-01-29 15:06:06,0.0
-499.2000000000007,1097.6,3957.2,-2216.4,-1095.9,-1559.5,2025-01-29 15:06:06,0.0
-663.2000000000007,2049.6,3025.2,-1587.4,-621.9,-880.5,2025-01-29 15:06:06,0.0
-87.20000000000073,2621.6,1893.1999999999998,-1552.4,-259.9,-423.5,2025-01-29 15:06:06,0.0
812.7999999999993,3045.6,1165.1999999999998,-1853.4,115.1,-538.5,2025-01-29 15:06:07,0.0
1052.7999999999993,2981.6,753.1999999999998,-2517.4,327.1,-1302.5,2025-01-29 15:06:07,0.0
696.7999999999993,2681.6,1021.1999999999998,-2867.4,290.1,-1777.5,2025-01-29 15:06:07,0.0
264.7999999999993,2069.6,1165.1999999999998,-2990.4,-96.9,-2036.5,2025-01-29 15:06:07,0.0
-507.2000000000007,1141.6,1509.1999999999998,-2863.4,-438.9,-2086.5,2025-01-29 15:06:07,0.0
-1031.2000000000007,157.6,2289.2,-2322.4,-190.9,-1860.5,2025-01-29 15:06:07,0.0
-1167.2000000000007,-934.4,1753.1999999999998,-1557.4,-297.9,-1486.5,2025-01-29 15:06:07,0.0
-627.2000000000007,-978.4,1253.1999999999998,-1185.4,-888.9,-1368.5,2025-01-29 15:06:07,0.0
28.799999999999272,-810.4,1053.1999999999998,-934.4,-1529.9,-1375.5,2025-01-29 15:06:07,0.0
624.7999999999993,-462.4,1205.1999999999998,-650.4,-1715.9,-1403.5,2025-01-29 15:06:07,0.0
584.7999999999993,-82.4,953.1999999999998,-199.4,-756.9,-1411.5,2025-01-29 15:06:07,0.0
1052.7999999999993,-178.4,593.1999999999998,262.6,1831.1,-1581.5,2025-01-29 15:06:07,0.0
232.79999999999927,-362.4,1285.1999999999998,711.6,3971.1,-1790.5,2025-01-29 15:06:07,0.0
-1007.2000000000007,-490.4,981.1999999999998,923.6,4901.1,-1786.5,2025-01-29 15:06:07,0.0
-1683.2000000000007,-502.4,845.1999999999998,695.6,4615.1,-1775.5,2025-01-29 15:06:07,0.0
-2743.2000000000007,253.6,637.1999999999998,485.6,3618.1,-1370.5,2025-01-29 15:06:07,0.0
-2759.2000000000007,337.6,645.1999999999998,170.6,1646.1,-731.5,2025-01-29 15:06:07,0.0
-2247.2000000000007,-42.400000000000006,1073.1999999999998,48.599999999999994,-1272.9,-277.5,2025-01-29 15:06:07,0.0
-855.2000000000007,-326.4,1725.1999999999998,-43.400000000000006,-3158.9,158.5,2025-01-29 15:06:07,0.0
448.7999999999993,-790.4,1525.1999999999998,33.599999999999994,-2861.9,214.5,2025-01-29 15:06:07,0.0
1060.7999999999993,-1206.4,1813.1999999999998,348.6,-1007.9,44.5,2025-01-29 15:06:07,0.0
976.7999999999993,-1654.4,2029.1999999999998,836.6,1399.1,-106.5,2025-01-29 15:06:07,0.0
368.7999999999993,-1438.4,1797.1999999999998,1210.6,2717.1,-190.5,2025-01-29 15:06:07,0.0
-307.2000000000007,-962.4,1685.1999999999998,1412.6,2685.1,-171.5,2025-01-29 15:06:07,0.0
-987.2000000000007,-362.4,1325.1999999999998,1327.6,1874.1,-116.5,2025-01-29 15:06:07,0.0
-1219.2000000000007,37.599999999999994,1177.1999999999998,962.6,935.1,9.5,2025-01-29 15:06:07,
-1103.2000000000007,185.6,1425.1999999999998,678.6,321.1,152.5,2025-01-29 15:06:07,0.0
-751.2000000000007,197.6,1449.1999999999998,450.6,64.1,281.5,2025-01-29 15:06:07,0.0
-319.2000000000007,189.6,1821.1999999999998,185.6,141.1,242.5,2025-01-29 15:06:07,0.0
-299.2000000000007,5.599999999999994,1597.1999999999998,-88.4,430.1,131.5,2025-01-29 15:06:07,0.0
-539.2000000000007,-290.4,1417.1999999999998,-112.4,391.1,37.5,2025-01-29 15:06:07,0.0
-547.2000000000007,-454.4,1413.1999999999998,-35.400000000000006,62.099999999999994,95.5,2025-01-29 15:06:07,0.0
-447.2000000000007,-526.4,1609.1999999999998,29.599999999999994,-33.900000000000006,201.5,2025-01-29 15:06:07,0.0
-299.2000000000007,-594.4,1841.1999999999998,180.6,-12.900000000000006,273.5,2025-01-29 15:06:07,0.0
-175.20000000000073,-374.4,1485.1999999999998,340.6,43.099999999999994,267.5,2025-01-29 15:06:07,0.0
-279.2000000000007,-254.4,1125.1999999999998,394.6,260.1,191.5,2025-01-29 15:06:07,0.0
-215.20000000000073,-186.4,1077.1999999999998,509.6,520.1,142.5,2025-01-29 15:06:07,0.0
-251.20000000000073,-134.4,1121.1999999999998,568.6,632.1,86.5,2025-01-29 15:06:07,0.0
-395.2000000000007,-2.4000000000000057,1385.1999999999998,573.6,601.1,90.5,2025-01-29 15:06:07,0.0
-595.2000000000007,49.599999999999994,1505.1999999999998,505.6,363.1,100.5,2025-01-29 15:06:07,0.0
-687.2000000000007,149.6,1305.1999999999998,512.6,-62.900000000000006,177.5,2025-01-29 15:06:07,0.0
-399.2000000000007,133.6,1245.1999999999998,386.6,-460.9,170.5,2025-01-29 15:06:07,0.0
-151.20000000000073,125.6,829.1999999999998,271.6,-329.9,158.5,2025-01-29 15:06:07,0.0
-67.20000000000073,33.599999999999994,1061.1999999999998,179.6,3.0999999999999943,127.5,2025-01-29 15:06:07,0.0
-115.20000000000073,45.599999999999994,1069.1999999999998,92.6,352.1,113.5,2025-01-29 15:06:07,0.0
-219.20000000000073,53.599999999999994,957.1999999999998,27.599999999999994,521.1,75.5,2025-01-29 15:06:07,0.0
-203.20000000000073,9.599999999999994,1037.1999999999998,-13.400000000000006,507.1,47.5,2025-01-29 15:06:07,0.0
-447.2000000000007,-82.4,993.1999999999998,2.5999999999999943,389.1,55.5,2025-01-29 15:06:07,0.0
-279.2000000000007,-74.4,1065.1999999999998,15.599999999999994,296.1,41.5,2025-01-29 15:06:07,0.0
-407.2000000000007,1.5999999999999943,1149.1999999999998,20.599999999999994,326.1,14.5,2025-01-29 15:06:07,0.0
-379.2000000000007,89.6,1009.1999999999998,-94.4,359.1,-12.5,2025-01-29 15:06:07,0.0
-295.2000000000007,101.6,845.1999999999998,-130.4,318.1,-55.5,2025-01-29 15:06:07,0.0
-291.2000000000007,-78.4,1069.1999999999998,-101.4,250.1,-19.5,2025-01-29 15:06:07,0.0
-335.2000000000007,-38.400000000000006,905.1999999999998,-47.400000000000006,294.1,32.5,2025-01-29 15:06:07,0.0
-31.200000000000728,121.6,1073.1999999999998,-66.4,530.1,55.5,2025-01-29 15:06:07,0.0
-71.20000000000073,205.6,701.1999999999998,-118.4,876.1,-3.5,2025-01-29 15:06:07,0.0
-267.2000000000007,201.6,1057.1999999999998,-220.4,1092.1,-65.5,2025-01-29 15:06:07,0.0
-223.20000000000073,177.6,1081.1999999999998,-237.4,1067.1,9.5,2025-01-29 15:06:07,0.0
-611.2000000000007,17.599999999999994,1453.1999999999998,-178.4,909.1,113.5,2025-01-29 15:06:07,0.0
-307.2000000000007,25.599999999999994,1269.1999999999998,-110.4,412.1,221.5,2025-01-29 15:06:08,0.0
-143.20000000000073,109.6,1213.1999999999998,-139.4,59.099999999999994,122.5,2025-01-29 15:06:08,0.0
-179.20000000000073,45.599999999999994,861.1999999999998,-106.4,25.099999999999994,100.5,2025-01-29 15:06:08,0.0
-103.20000000000073,145.6,693.1999999999998,-66.4,261.1,28.5,2025-01-29 15:06:08,0.0
-119.20000000000073,97.6,673.1999999999998,-88.4,568.1,-4.5,2025-01-29 15:06:08,0.0
-311.2000000000007,93.6,857.1999999999998,-88.4,597.1,-14.5,2025-01-29 15:06:08,0.0
-431.2000000000007,89.6,917.1999999999998,-77.4,320.1,89.5,2025-01-29 15:06:08,0.0
-303.2000000000007,129.6,765.1999999999998,-167.4,198.1,74.5,2025-01-29 15:06:08,0.0
-175.20000000000073,281.6,721.1999999999998,-216.4,405.1,28.5,2025-01-29 15:06:08,0.0
-159.20000000000073,181.6,761.1999999999998,-180.4,547.1,8.5,2025-01-29 15:06:08,0.0
-291.2000000000007,105.6,517.1999999999998,-180.4,345.1,12.5,2025-01-29 15:06:08,0.0
-227.20000000000073,-146.4,577.1999999999998,-168.4,221.1,21.5,2025-01-29 15:06:08,0.0
-127.20000000000073,89.6,885.1999999999998,-108.4,305.1,3.5,2025-01-29 15:06:08,0.0
-95.20000000000073,213.6,881.1999999999998,-115.4,455.1,12.5,2025-01-29 15:06:08,0.0
-283.2000000000007,209.6,557.1999999999998,-98.4,472.1,62.5,2025-01-29 15:06:08,0.0
-279.2000000000007,257.6,413.1999999999998,-162.4,443.1,114.5,2025-01-29 15:06:08,0.0
-139.20000000000073,401.6,441.1999999999998,-207.4,578.1,136.5,2025-01-29 15:06:08,0.0
-115.20000000000073,585.6,177.19999999999982,-200.4,734.1,111.5,2025-01-29 15:06:08,0.0
80.79999999999927,457.6,97.19999999999982,-181.4,862.1,32.5,2025-01-29 15:06:08,0.0
84.79999999999927,381.6,113.19999999999982,-175.4,1107.1,6.5,2025-01-29 15:06:08,0.0
-399.2000000000007,581.6,249.19999999999982,-171.4,1613.1,1.5,2025-01-29 15:06:08,0.0
-787.2000000000007,1081.6,253.19999999999982,-251.4,2204.1,241.5,2025-01-29 15:06:08,0.0
-595.2000000000007,1861.6,-14.800000000000182,-443.4,2743.1,570.5,2025-01-29 15:06:08,0.0
-135.20000000000073,2329.6,-626.8000000000002,-778.4,2490.1,537.5,2025-01-29 15:06:08,0.0
204.79999999999927,2341.6,-338.8000000000002,-1087.4,1376.1,53.5,2025-01-29 15:06:08,0.0
332.7999999999993,1189.6,1385.1999999999998,-1376.4,-312.9,-589.5,2025-01-29 15:06:08,0.0
304.7999999999993,-362.4,3565.2,-759.4,-1787.9,-1434.5,2025-01-29 15:06:08,0.0
-439.2000000000007,-942.4,4401.2,474.6,-1755.9,-1423.5,2025-01-29 15:06:08,0.0
-59.20000000000073,-310.4,3669.2,1617.6,-908.9,-1085.5,2025-01-29 15:06:08,0.0
564.7999999999993,881.6,1117.1999999999998,1725.6,-690.9,-1198.5,2025-01-29 15:06:08,0.0
-127.20000000000073,1929.6,-722.8000000000002,1078.6,-705.9,-1184.5,2025-01-29 15:06:08,0.0
-275.2000000000007,2037.6,-1490.8000000000002,371.6,-571.9,-1001.5,2025-01-29 15:06:08,0.0
-119.20000000000073,2109.6,-950.8000000000002,-38.400000000000006,-170.9,-1075.5,2025-01-29 15:06:08,0.0
-115.20000000000073,1621.6,-262.8000000000002,-359.4,293.1,-1641.5,2025-01-29 15:06:08,0.0
-407.2000000000007,617.6,349.1999999999998,-460.4,-268.9,-2066.5,2025-01-29 15:06:08,0.0
-587.2000000000007,-142.4,1085.1999999999998,-253.4,-1219.9,-2242.5,2025-01-29 15:06:08,0.0
-955.2000000000007,-666.4,1381.1999999999998,-172.4,-2282.9,-2055.5,2025-01-29 15:06:08,0.0
-711.2000000000007,-638.4,1625.1999999999998,-74.4,-2687.9,-1852.5,2025-01-29 15:06:08,0.0
-579.2000000000007,-786.4,1669.1999999999998,121.6,-2125.9,-1741.5,2025-01-29 15:06:08,0.0
-167.20000000000073,-1750.4,1869.1999999999998,34.599999999999994,-815.9,-2044.5,2025-01-29 15:06:08,0.0
36.79999999999927,-2762.4,3073.2,-455.4,238.1,-2687.5,2025-01-29 15:06:08,0.0
-643.2000000000007,-3142.4,4877.2,-678.4,667.1,-2802.5,2025-01-29 15:06:08,0.0
-1319.2000000000007,-2826.4,5249.2,-391.4,814.1,-2440.5,2025-01-29 15:06:08,0.0
-1291.2000000000007,-2394.4,4105.2,17.599999999999994,304.1,-2261.5,2025-01-29 15:06:08,0.0
-1359.2000000000007,-2274.4,3797.2,243.6,-645.9,-2362.5,2025-01-29 15:06:08,0.0
-927.2000000000007,-1798.4,3781.2,615.6,-1726.9,-2486.5,2025-01-29 15:06:08,0.0
-571.2000000000007,-1374.4,3489.2,781.6,-2339.9,-2348.5,2025-01-29 15:06:08,0.0
80.79999999999927,-650.4,3317.2,715.6,-2459.9,-1984.5,2025-01-29 15:06:08,0.0
828.7999999999993,-418.4,3013.2,356.6,-2490.9,-1480.5,2025-01-29 15:06:08,0.0
1172.7999999999993,-498.4,3053.2,-170.4,-2374.9,-1042.5,2025-01-29 15:06:08,0.0
1244.7999999999993,-974.4,3377.2,-629.4,-1892.9,-745.5,2025-01-29 15:06:08,0.0
680.7999999999993,-1734.4,3993.2,-933.4,-1344.9,-188.5,2025-01-29 15:06:08,0.0
88.79999999999927,-2278.4,4809.2,-883.4,-1008.9,486.5,2025-01-29 15:06:08,0.0
-539.2000000000007,-2238.4,5097.2,-563.4,-835.9,1245.5,2025-01-29 15:06:08,0.0
-695.2000000000007,-2054.4,5157.2,-225.4,-1086.9,2056.5,2025-01-29 15:06:08,0.0
-315.2000000000007,-1810.4,4413.2,-104.4,-1647.9,2674.5,2025-01-29 15:06:08,0.0
784.7999999999993,-1638.4,3381.2,-383.4,-1933.9,2658.5,2025-01-29 15:06:08,0.0
936.7999999999993,-1322.4,2561.2,-1007.4,-719.9,2019.5,2025-01-29 15:06:08,0.0
68.79999999999927,-254.4,2037.1999999999998,-1550.4,1472.1,1443.5,2025-01-29 15:06:09,0.0
-1151.2000000000007,1105.6,2293.2,-2109.4,3594.1,1380.5,2025-01-29 15:06:09,0.0
-1495.2000000000007,77.6,2645.2,-2320.4,4982.1,1024.5,2025-01-29 15:06:09,0.0
-2003.2000000000007,-2114.4,2989.2,-2659.4,4558.1,252.5,2025-01-29 15:06:09,0.0
-3251.2000000000007,-3830.4,3265.2,-2940.4,2773.1,-743.5,2025-01-29 15:06:09,0.0
-3983.2000000000007,-2826.4,2109.2,-2880.4,230.1,-1957.5,2025-01-29 15:06:09,0.0
-4087.2000000000007,405.6,513.1999999999998,-3517.4,-1753.9,-3760.5,2025-01-29 15:06:09,0.0
-4159.200000000001,1561.6,393.1999999999998,-4892.4,-3089.9,-4642.5,2025-01-29 15:06:09,0.0
-3279.2000000000007,409.6,1989.1999999999998,-5817.4,-4218.9,-4306.5,2025-01-29 15:06:09,
-1819.2000000000007,-2146.4,2817.2,-5674.4,-5552.9,-3728.5,2025-01-29 15:06:09,0.0
-1459.2000000000007,-4890.4,3165.2,-4998.4,-6067.9,-3026.5,2025-01-29 15:06:09,0.0
-1955.2000000000007,-7250.4,3201.2,-4195.4,-4867.9,-1969.5,2025-01-29 15:06:09,0.0
-2919.2000000000007,-7234.4,4393.2,-2774.4,-2556.9,-276.5,2025-01-29 15:06:09,0.0
-2475.2000000000007,-4438.4,4765.2,-820.4,-1021.9,1682.5,2025-01-29 15:06:09,0.0
-1427.2000000000007,-2458.4,2761.2,-230.4,-975.9,3106.5,2025-01-29 15:06:09,0.0
-1227.2000000000007,-2066.4,1601.1999999999998,-196.4,-1395.9,3206.5,2025-01-29 15:06:09,0.0
-1251.2000000000007,-2202.4,893.1999999999998,459.6,-1892.9,3401.5,2025-01-29 15:06:09,0.0
-751.2000000000007,-2446.4,345.1999999999998,1419.6,-2270.9,3340.5,2025-01-29 15:06:09,0.0
104.79999999999927,-1582.4,365.1999999999998,2376.6,-2921.9,3113.5,2025-01-29 15:06:09,0.0
1612.7999999999993,-590.4,-254.80000000000018,2418.6,-3522.9,2904.5,2025-01-29 15:06:09,0.0
2956.7999999999993,849.6,-398.8000000000002,2025.6,-3909.9,2517.5,2025-01-29 15:06:09,0.0
3528.7999999999993,2149.6,-1094.8000000000002,1405.6,-3325.9,2019.5,2025-01-29 15:06:09,0.0
3508.7999999999993,2853.6,-1382.8000000000002,690.6,-1371.9,1509.5,2025-01-29 15:06:09,0.0
2440.7999999999993,2645.6,-946.8000000000002,-71.4,2346.1,934.5,2025-01-29 15:06:09,0.0
1036.7999999999993,1417.6,-446.8000000000002,-749.4,6262.1,651.5,2025-01-29 15:06:09,0.0
-1571.2000000000007,461.6,1649.1999999999998,-813.4,9167.1,821.5,2025-01-29 15:06:09,0.0
-3267.2000000000007,-658.4,2377.2,-358.4,10158.1,1539.5,2025-01-29 15:06:09,0.0
-3555.2000000000007,-1030.4,2409.2,23.599999999999994,8237.1,2254.5,2025-01-29 15:06:09,0.0
-3719.2000000000007,-590.4,2585.2,768.6,3956.1,3061.5,2025-01-29 15:06:09,0.0
-2451.2000000000007,157.6,1769.1999999999998,1292.6,-2962.9,3439.5,2025-01-29 15:06:09,0.0
-1263.2000000000007,857.6,2677.2,1127.6,-7319.9,3443.5,2025-01-29 15:06:09,0.0
716.7999999999993,945.6,2597.2,1407.6,-7376.9,3328.5,2025-01-29 15:06:09,0.0
2020.7999999999993,745.6,2793.2,1849.6,-5726.9,3104.5,2025-01-29 15:06:09,0.0
3192.7999999999993,585.6,2105.2,2155.6,-3536.9,2738.5,2025-01-29 15:06:09,0.0
3580.7999999999993,805.6,1845.1999999999998,2260.6,-813.9,2150.5,2025-01-29 15:06:09,0.0
2636.7999999999993,1241.6,2425.2,2305.6,1557.1,1827.5,2025-01-29 15:06:09,0.0
1476.7999999999993,1637.6,2437.2,2210.6,2905.1,1500.5,2025-01-29 15:06:09,0.0
884.7999999999993,1661.6,2717.2,2105.6,2416.1,967.5,2025-01-29 15:06:09,0.0
560.7999999999993,1301.6,3405.2,2029.6,1307.1,295.5,2025-01-29 15:06:09,0.0
280.7999999999993,825.6,3941.2,2062.6,301.1,-407.5,2025-01-29 15:06:09,0.0
512.7999999999993,697.6,4409.2,2159.6,-615.9,-1092.5,2025-01-29 15:06:09,0.0
744.7999999999993,493.6,3761.2,2291.6,-1385.9,-1553.5,2025-01-29 15:06:09,0.0
824.7999999999993,189.6,3737.2,2289.6,-1828.9,-1945.5,2025-01-29 15:06:09,0.0
772.7999999999993,305.6,3889.2,2426.6,-1505.9,-2380.5,2025-01-29 15:06:09,0.0
212.79999999999927,633.6,4049.2,2611.6,-746.9,-2554.5,2025-01-29 15:06:09,0.0
-407.2000000000007,869.6,4213.2,2741.6,-309.9,-2414.5,2025-01-29 15:06:09,0.0
-795.2000000000007,881.6,3845.2,2926.6,-548.9,-2248.5,2025-01-29 15:06:09,0.0
-923.2000000000007,1097.6,3477.2,3100.6,-1109.9,-2098.5,2025-01-29 15:06:09,0.0
-1055.2000000000007,933.6,2629.2,3276.6,-1493.9,-1826.5,2025-01-29 15:06:09,0.0
-1231.2000000000007,825.6,2025.1999999999998,3655.6,-866.9,-1392.5,2025-01-29 15:06:09,0.0
-1667.2000000000007,469.6,1805.1999999999998,4130.6,376.1,-552.5,2025-01-29 15:06:09,0.0
-1763.2000000000007,369.6,3661.2,4798.6,1770.1,275.5,2025-01-29 15:06:09,0.0
-2655.2000000000007,-262.4,5937.2,5390.6,2415.1,902.5,2025-01-29 15:06:09,0.0
-3943.2000000000007,-442.4,6585.2,6031.6,2555.1,1863.5,2025-01-29 15:06:09,0.0
-4271.200000000001,-374.4,5385.2,6465.6,2323.1,3110.5,2025-01-29 15:06:09,0.0
-3419.2000000000007,445.6,3861.2,7093.6,1915.1,3418.5,2025-01-29 15:06:09,0.0
-3059.2000000000007,1629.6,1485.1999999999998,7447.6,1923.1,2803.5,2025-01-29 15:06:09,0.0
-4007.2000000000007,2893.6,-806.8000000000002,7025.6,2608.1,2501.5,2025-01-29 15:06:09,0.0
-3527.2000000000007,4581.6,-1854.8000000000002,5517.6,3932.1,2586.5,2025-01-29 15:06:09,0.0
-3443.2000000000007,5945.6,-1966.8000000000002,3202.6,4476.1,2453.5,2025-01-29 15:06:09,0.0
-2707.2000000000007,5581.6,-2758.8,356.6,4189.1,1898.5,2025-01-29 15:06:09,0.0
-811.2000000000007,3313.6,-1734.8000000000002,-1983.4,2039.1,545.5,2025-01-29 15:06:09,0.0
356.7999999999993,629.6,-50.80000000000018,-2421.4,-1321.9,-1327.5,2025-01-29 15:06:09,0.0
1284.7999999999993,-794.4,629.1999999999998,-1790.4,-4505.9,-2536.5,2025-01-29 15:06:10,0.0
2336.7999999999993,-1110.4,561.1999999999998,-1119.4,-6339.9,-2963.5,2025-01-29 15:06:10,0.0
3556.7999999999993,-1382.4,-118.80000000000018,-877.4,-6081.9,-3228.5,2025-01-29 15:06:10,0.0
4088.7999999999993,-1666.4,-886.8000000000002,-910.4,-3925.9,-3357.5,2025-01-29 15:06:10,0.0
3436.7999999999993,-1706.4,-1514.8000000000002,-1056.4,303.1,-3046.5,2025-01-29 15:06:10,0.0
2132.7999999999993,-1470.4,-1098.8000000000002,-1133.4,3849.1,-2321.5,2025-01-29 15:06:10,0.0
724.7999999999993,-1778.4,-110.80000000000018,-1012.4,5905.1,-1546.5,2025-01-29 15:06:10,0.0
-79.20000000000073,-1966.4,13.199999999999818,-885.4,6496.1,-1139.5,2025-01-29 15:06:10,0.0
-1027.2000000000007,-1670.4,789.1999999999998,-720.4,5418.1,-1105.5,2025-01-29 15:06:10,0.0
-1779.2000000000007,-254.4,385.1999999999998,-912.4,2383.1,-1275.5,2025-01-29 15:06:10,0.0
-1627.2000000000007,1029.6,-526.8000000000002,-1676.4,-172.9,-1771.5,2025-01-29 15:06:10,0.0
-1415.2000000000007,1197.6,-606.8000000000002,-2872.4,-1959.9,-2405.5,2025-01-29 15:06:10,0.0
-135.20000000000073,709.6,-1210.8000000000002,-3994.4,-3451.9,-2949.5,2025-01-29 15:06:10,0.0
260.7999999999993,109.6,-1126.8000000000002,-4909.4,-5068.9,-3139.5,2025-01-29 15:06:10,0.0
640.7999999999993,-334.4,-766.8000000000002,-5671.4,-5976.9,-2928.5,2025-01-29 15:06:10,0.0
1704.7999999999993,-478.4,-190.80000000000018,-6220.4,-5292.9,-2735.5,2025-01-29 15:06:10,0.0
2180.7999999999993,-562.4,421.1999999999998,-6910.4,-3496.9,-2701.5,2025-01-29 15:06:10,0.0
2264.7999999999993,-486.4,425.1999999999998,-7404.4,-1263.9,-2728.5,2025-01-29 15:06:10,0.0
1556.7999999999993,-618.4,809.1999999999998,-7822.4,469.1,-2695.5,2025-01-29 15:06:10,0.0
688.7999999999993,-874.4,969.1999999999998,-8169.4,1274.1,-2645.5,2025-01-29 15:06:10,0.0
-535.2000000000007,-1134.4,1753.1999999999998,-8452.4,1235.1,-2528.5,2025-01-29 15:06:10,0.0
-511.2000000000007,-1354.4,1341.1999999999998,-8774.4,287.1,-2391.5,2025-01-29 15:06:10,0.0
-1043.2000000000007,-1394.4,1645.1999999999998,-9075.4,-1134.9,-2201.5,2025-01-29 15:06:10,0.0
-691.2000000000007,-1314.4,1245.1999999999998,-9372.4,-2711.9,-1750.5,2025-01-29 15:06:10,0.0
-311.2000000000007,-1038.4,841.1999999999998,-9586.4,-3944.9,-1247.5,2025-01-29 15:06:10,0.0
276.7999999999993,-602.4,501.1999999999998,-9831.4,-4260.9,-805.5,2025-01-29 15:06:10,0.0
824.7999999999993,-126.4,129.19999999999982,-10276.4,-3440.9,-573.5,2025-01-29 15:06:10,0.0
988.7999999999993,173.6,-142.80000000000018,-10879.4,-1797.9,-438.5,2025-01-29 15:06:10,0.0
948.7999999999993,649.6,197.19999999999982,-11456.4,-120.9,-390.5,2025-01-29 15:06:10,0.0
88.79999999999927,1137.6,889.1999999999998,-12108.4,932.1,137.5,2025-01-29 15:06:10,0.0
-459.2000000000007,297.6,1425.1999999999998,-12838.4,888.1,512.5,2025-01-29 15:06:10,0.0
-1199.2000000000007,-254.4,1365.1999999999998,-13631.4,64.1,489.5,2025-01-29 15:06:10,0.0
-1439.2000000000007,-1082.4,921.1999999999998,-14123.4,-1228.9,401.5,2025-01-29 15:06:10,0.0
-1135.2000000000007,-1366.4,977.1999999999998,-14266.4,-1650.9,134.5,2025-01-29 15:06:10,0.0
-311.2000000000007,-1258.4,1237.1999999999998,-14615.4,-1346.9,-370.5,2025-01-29 15:06:10,0.0
-499.2000000000007,-786.4,1589.1999999999998,-15439.4,-1108.9,-728.5,2025-01-29 15:06:10,0.0
-735.2000000000007,-62.400000000000006,1961.1999999999998,-15936.4,-1144.9,-763.5,2025-01-29 15:06:10,0.0
-1235.2000000000007,265.6,1705.1999999999998,-16280.4,-1393.9,-628.5,2025-01-29 15:06:10,0.0
-1219.2000000000007,225.6,1701.1999999999998,-16707.4,-1748.9,-583.5,2025-01-29 15:06:10,0.0
-851.2000000000007,-262.4,2317.2,-17119.4,-1831.9,-892.5,2025-01-29 15:06:10,0.0
-659.2000000000007,-1234.4,2413.2,-17464.4,-1667.9,-1081.5,2025-01-29 15:06:10,0.0
-975.2000000000007,-2270.4,2469.2,-17719.4,-1363.9,-1196.5,2025-01-29 15:06:10,0.0
-1271.2000000000007,-2806.4,2857.2,-17783.4,-1033.9,-1311.5,2025-01-29 15:06:10,0.0
-1519.2000000000007,-2474.4,2769.2,-17907.4,-1426.9,-1516.5,2025-01-29 15:06:10,0.0
-1535.2000000000007,-1714.4,1981.1999999999998,-18173.4,-2563.9,-1350.5,2025-01-29 15:06:10,0.0
-1719.2000000000007,-1014.4,1113.1999999999998,-18384.4,-3614.9,-987.5,2025-01-29 15:06:10,
-1547.2000000000007,33.599999999999994,-34.80000000000018,-18620.4,-3998.9,-554.5,2025-01-29 15:06:10,0.0
-1027.2000000000007,745.6,-854.8000000000002,-19144.4,-3137.9,-673.5,2025-01-29 15:06:10,0.0
-587.2000000000007,325.6,-786.8000000000002,-19601.4,-2087.9,-1044.5,2025-01-29 15:06:10,0.0
-247.20000000000073,-462.4,341.1999999999998,-19530.4,-1525.9,-919.5,2025-01-29 15:06:10,0.0
820.7999999999993,-1298.4,457.1999999999998,-18895.4,-766.9,-407.5,2025-01-29 15:06:10,0.0
2244.7999999999993,-1918.4,-1014.8000000000002,-18393.4,668.1,-481.5,2025-01-29 15:06:10,0.0
3088.7999999999993,-2302.4,-1722.8000000000002,-18249.4,3532.1,-1479.5,2025-01-29 15:06:10,0.0
2692.7999999999993,-2486.4,-558.8000000000002,-18224.4,6492.1,-2536.5,2025-01-29 15:06:10,0.0
1460.7999999999993,-2154.4,1521.1999999999998,-17773.4,9283.1,-3505.5,2025-01-29 15:06:10,0.0
-3.2000000000007276,-2230.4,2837.2,-16842.4,10562.1,-3846.5,2025-01-29 15:06:10,0.0
-1043.2000000000007,-1706.4,2457.2,-15434.4,9133.1,-3665.5,2025-01-29 15:06:10,0.0
-771.2000000000007,-1058.4,941.1999999999998,-14896.4,6024.1,-3555.5,2025-01-29 15:06:10,0.0
-447.2000000000007,-310.4,-330.8000000000002,-15234.4,3458.1,-3737.5,2025-01-29 15:06:10,0.0
-507.2000000000007,529.6,421.1999999999998,-15563.4,3320.1,-3529.5,2025-01-29 15:06:10,0.0
-527.2000000000007,1277.6,-110.80000000000018,-15319.4,4211.1,-2992.5,2025-01-29 15:06:11,0.0
-887.2000000000007,2005.6,-1214.8000000000002,-15587.4,4943.1,-2871.5,2025-01-29 15:06:11,0.0
-631.2000000000007,1801.6,-1290.8000000000002,-16543.4,4591.1,-3091.5,2025-01-29 15:06:11,0.0
-299.2000000000007,1513.6,-750.8000000000002,-17208.4,2818.1,-3575.5,2025-01-29 15:06:11,0.0
-303.2000000000007,1273.6,-830.8000000000002,-17647.4,1005.1,-3705.5,2025-01-29 15:06:11,0.0
684.7999999999993,921.6,-786.8000000000002,-17918.4,-123.9,-3809.5,2025-01-29 15:06:11,0.0
1152.7999999999993,705.6,-1178.8000000000002,-17802.4,-16.900000000000006,-3988.5,2025-01-29 15:06:11,0.0
1544.7999999999993,381.6,-1994.8000000000002,-17762.4,1370.1,-4183.5,2025-01-29 15:06:11,0.0
1372.7999999999993,-182.4,-1970.8000000000002,-17997.4,3175.1,-4519.5,2025-01-29 15:06:11,0.0
1320.7999999999993,-874.4,-1050.8000000000002,-18010.4,3449.1,-4708.5,2025-01-29 15:06:11,0.0
1080.7999999999993,-1622.4,-494.8000000000002,-17750.4,2711.1,-4854.5,2025-01-29 15:06:11,0.0
824.7999999999993,-1882.4,133.19999999999982,-17188.4,1566.1,-4846.5,2025-01-29 15:06:11,0.0
1012.7999999999993,-1478.4,141.19999999999982,-16479.4,895.1,-4736.5,2025-01-29 15:06:11,0.0
1508.7999999999993,-1214.4,-138.80000000000018,-16048.4,1038.1,-4740.5,2025-01-29 15:06:11,0.0
1812.7999999999993,-702.4,-1350.8000000000002,-15496.4,1567.1,-4655.5,2025-01-29 15:06:11,0.0
1456.7999999999993,69.6,-2266.8,-15230.4,2197.1,-4289.5,2025-01-29 15:06:11,0.0
1412.7999999999993,277.6,-2462.8,-15270.4,2297.1,-3601.5,2025-01-29 15:06:11,0.0
2164.7999999999993,145.6,-2146.8,-15360.4,1300.1,-3046.5,2025-01-29 15:06:11,0.0
2796.7999999999993,-94.4,-1494.8000000000002,-15543.4,150.1,-2773.5,2025-01-29 15:06:11,0.0
3876.7999999999993,-606.4,-1302.8000000000002,-15825.4,-96.9,-3179.5,2025-01-29 15:06:11,0.0
3012.7999999999993,-1302.4,-2266.8,-16317.4,1078.1,-4120.5,2025-01-29 15:06:11,0.0
1908.7999999999993,-1274.4,-4362.8,-16977.4,2639.1,-4973.5,2025-01-29 15:06:11,0.0
752.7999999999993,-874.4,-4382.8,-17380.4,3732.1,-5772.5,2025-01-29 15:06:11,0.0
132.79999999999927,-390.4,-2754.8,-17375.4,3212.1,-6073.5,2025-01-29 15:06:11,0.0
324.7999999999993,-262.4,-718.8000000000002,-16839.4,1000.1,-5699.5,2025-01-29 15:06:11,0.0
692.7999999999993,-998.4,317.1999999999998,-15912.4,-1640.9,-5129.5,2025-01-29 15:06:11,0.0
1256.7999999999993,-2286.4,393.1999999999998,-14901.4,-4462.9,-4157.5,2025-01-29 15:06:11,0.0
1768.7999999999993,-3354.4,-886.8000000000002,-14094.4,-5454.9,-3416.5,2025-01-29 15:06:11,0.0
1068.7999999999993,-3478.4,-1266.8000000000002,-12943.4,-4985.9,-2444.5,2025-01-29 15:06:11,0.0
1412.7999999999993,-3454.4,-322.8000000000002,-11591.4,-4753.9,-1514.5,2025-01-29 15:06:11,0.0
1468.7999999999993,-3366.4,597.1999999999998,-10673.4,-5225.9,-473.5,2025-01-29 15:06:11,0.0
2208.7999999999993,-2226.4,1513.1999999999998,-10540.4,-6265.9,340.5,2025-01-29 15:06:11,0.0
2956.7999999999993,-906.4,-1238.8000000000002,-10197.4,-6570.9,136.5,2025-01-29 15:06:11,0.0
1200.7999999999993,-318.4,305.1999999999998,-9733.4,-108.9,-1388.5,2025-01-29 15:06:11,0.0
-923.2000000000007,-1106.4,2313.2,-9355.4,1570.1,-1694.5,2025-01-29 15:06:11,0.0
-1975.2000000000007,-1890.4,3109.2,-9032.4,-1105.9,-1734.5,2025-01-29 15:06:11,0.0
-2111.2000000000007,-2386.4,3317.2,-8692.4,-5520.9,-1764.5,2025-01-29 15:06:11,0.0
-3239.2000000000007,-2854.4,3281.2,-8428.4,-7962.9,-998.5,2025-01-29 15:06:11,0.0
-1759.2000000000007,-3534.4,2933.2,-8163.4,-7682.9,171.5,2025-01-29 15:06:11,0.0
-667.2000000000007,-2802.4,2985.2,-8742.4,-6569.9,-130.5,2025-01-29 15:06:11,0.0
252.79999999999927,-1990.4,3241.2,-9310.4,-6433.9,-550.5,2025-01-29 15:06:11,0.0
-495.2000000000007,-1622.4,2697.2,-10694.4,-6422.9,-81.5,2025-01-29 15:06:11,0.0
-355.2000000000007,-770.4,3337.2,-11218.4,-6144.9,907.5,2025-01-29 15:06:11,0.0
-91.20000000000073,-918.4,4973.2,-11054.4,-6999.9,1939.5,2025-01-29 15:06:11,0.0
1676.7999999999993,-1534.4,5005.2,-10959.4,-8408.9,1884.5,2025-01-29 15:06:11,0.0
2052.7999999999993,-1154.4,4685.2,-11378.4,-8696.9,1248.5,2025-01-29 15:06:11,0.0
-123.20000000000073,-810.4,5041.2,-11903.4,-8043.9,1322.5,2025-01-29 15:06:11,0.0
-1311.2000000000007,-242.4,4789.2,-11783.4,-7464.9,2266.5,2025-01-29 15:06:11,0.0
-2819.2000000000007,433.6,7481.2,-11162.4,-9784.9,2505.5,2025-01-29 15:06:11,0.0
-2387.2000000000007,-586.4,9233.2,-10492.4,-15318.9,1210.5,2025-01-29 15:06:11,0.0
-2191.2000000000007,217.6,8321.2,-9166.4,-17040.9,-200.5,2025-01-29 15:06:11,0.0
-1315.2000000000007,321.6,7217.2,-8227.4,-16287.9,96.5,2025-01-29 15:06:11,0.0
-2015.2000000000007,561.6,7353.2,-8183.4,-15704.9,879.5,2025-01-29 15:06:11,0.0
-2171.2000000000007,1233.6,7389.2,-7753.4,-14401.9,1226.5,2025-01-29 15:06:11,0.0
-2559.2000000000007,1725.6,7141.2,-7275.4,-12479.9,1847.5,2025-01-29 15:06:11,0.0
-891.2000000000007,1677.6,8845.2,-6663.4,-11384.9,2456.5,2025-01-29 15:06:11,0.0
-1155.2000000000007,161.6,10393.2,-5806.4,-10908.9,2792.5,2025-01-29 15:06:11,0.0
-399.2000000000007,621.6,11485.2,-4941.4,-11149.9,2232.5,2025-01-29 15:06:11,0.0
-903.2000000000007,509.6,11173.2,-4674.4,-11058.9,1795.5,2025-01-29 15:06:11,0.0
-187.20000000000073,1121.6,11089.2,-4897.4,-11318.9,1252.5,2025-01-29 15:06:11,0.0
1008.7999999999993,1505.6,11741.2,-5010.4,-10709.9,898.5,2025-01-29 15:06:11,0.0
552.7999999999993,1753.6,12777.2,-4683.4,-10601.9,1384.5,2025-01-29 15:06:12,0.0
388.7999999999993,61.599999999999994,13801.2,-4248.4,-11344.9,2115.5,2025-01-29 15:06:12,0.0
2840.7999999999993,1149.6,14037.2,-4187.4,-11864.9,1665.5,2025-01-29 15:06:12,0.0
3028.7999999999993,961.6,14565.2,-3961.4,-10792.9,1171.5,2025-01-29 15:06:12,0.0
3960.7999999999993,541.6,15705.2,-3511.4,-10283.9,654.5,2025-01-29 15:06:12,0.0
3760.7999999999993,501.6,15277.2,-3486.4,-10455.9,677.5,2025-01-29 15:06:12,0.0
4000.7999999999993,41.599999999999994,16605.2,-3129.4,-12417.9,1292.5,2025-01-29 15:06:12,0.0
3316.7999999999993,325.6,16481.2,-3061.4,-12901.9,890.5,2025-01-29 15:06:12,0.0
1304.7999999999993,1373.6,16325.2,-3236.4,-11472.9,269.5,2025-01-29 15:06:12,0.0
772.7999999999993,1765.6,17273.2,-3063.4,-10165.9,-67.5,2025-01-29 15:06:12,0.0
1352.7999999999993,1437.6,16841.2,-2371.4,-10194.9,102.5,2025-01-29 15:06:12,0.0
996.7999999999993,1313.6,16465.2,-2254.4,-10631.9,324.5,2025-01-29 15:06:12,0.0
1060.7999999999993,865.6,17857.2,-1780.4,-11179.9,638.5,2025-01-29 15:06:12,0.0
1988.7999999999993,1709.6,18481.2,-1223.4,-11970.9,1042.5,2025-01-29 15:06:12,0.0
2328.7999999999993,1713.6,20053.2,-587.4,-11978.9,1212.5,2025-01-29 15:06:12,0.0
3364.7999999999993,1137.6,20353.2,194.6,-11731.9,1158.5,2025-01-29 15:06:12,0.0
4460.799999999999,1505.6,19153.2,513.6,-10949.9,919.5,2025-01-29 15:06:12,0.0
5460.799999999999,1761.6,17697.2,316.6,-8597.9,763.5,2025-01-29 15:06:12,0.0
6044.799999999999,2265.6,18081.2,110.6,-5829.9,551.5,2025-01-29 15:06:12,0.0
4968.799999999999,1933.6,18861.2,279.6,-3385.9,413.5,2025-01-29 15:06:12,0.0
4532.799999999999,1525.6,19273.2,414.6,-3234.9,526.5,2025-01-29 15:06:12,0.0
4040.7999999999993,1457.6,19317.2,488.6,-4124.9,951.5,2025-01-29 15:06:12,0.0
5076.799999999999,2021.6,18673.2,490.6,-4696.9,1099.5,2025-01-29 15:06:12,0.0
5568.799999999999,2157.6,18925.2,409.6,-4465.9,963.5,2025-01-29 15:06:12,0.0
6108.799999999999,1645.6,18425.2,543.6,-3753.9,937.5,2025-01-29 15:06:12,
5932.799999999999,993.6,18709.2,682.6,-2930.9,1112.5,2025-01-29 15:06:12,0.0
5832.799999999999,773.6,18873.2,752.6,-2623.9,1202.5,2025-01-29 15:06:12,0.0
6044.799999999999,1097.6,19285.2,724.6,-3078.9,1269.5,2025-01-29 15:06:12,0.0
6180.799999999999,1401.6,19381.2,809.6,-3166.9,1496.5,2025-01-29 15:06:12,0.0
6344.799999999999,1385.6,18349.2,917.6,-2363.9,1473.5,2025-01-29 15:06:12,0.0
6648.799999999999,1409.6,17961.2,759.6,-1511.9,1517.5,2025-01-29 15:06:12,0.0
6488.799999999999,1081.6,18261.2,206.6,-1092.9,1569.5,2025-01-29 15:06:12,0.0
6492.799999999999,1009.6,19125.2,-42.400000000000006,-1202.9,1704.5,2025-01-29 15:06:12,0.0
6044.799999999999,1213.6,19873.2,-163.4,-1556.9,1658.5,2025-01-29 15:06:12,0.0
5732.799999999999,1157.6,19821.2,-44.400000000000006,-2004.9,1647.5,2025-01-29 15:06:12,0.0
6300.799999999999,1017.6,19433.2,-75.4,-2351.9,1554.5,2025-01-29 15:06:12,0.0
6944.799999999999,953.6,19193.2,97.6,-1713.9,1502.5,2025-01-29 15:06:12,0.0
6784.799999999999,1329.6,19025.2,77.6,-175.9,1398.5,2025-01-29 15:06:12,0.0
6368.799999999999,1653.6,19097.2,-4.400000000000006,-300.9,1329.5,2025-01-29 15:06:12,0.0
6524.799999999999,2161.6,19093.2,-81.4,-1395.9,1372.5,2025-01-29 15:06:12,0.0
6908.799999999999,2301.6,19013.2,-197.4,-2052.9,1424.5,2025-01-29 15:06:12,0.0
7324.799999999999,2493.6,18953.2,-263.4,-2073.9,1493.5,2025-01-29 15:06:12,0.0
7844.799999999999,2597.6,18917.2,-374.4,-1425.9,1307.5,2025-01-29 15:06:12,0.0
7940.799999999999,2501.6,18649.2,-505.4,165.1,1003.5,2025-01-29 15:06:12,0.0
7028.799999999999,2885.6,19181.2,-599.4,2387.1,1318.5,2025-01-29 15:06:12,0.0
7044.799999999999,2269.6,20221.2,-460.4,3130.1,1424.5,2025-01-29 15:06:12,0.0
6576.799999999999,2149.6,19849.2,-575.4,2178.1,1277.5,2025-01-29 15:06:12,0.0
6780.799999999999,2001.6,18913.2,-824.4,1672.1,1180.5,2025-01-29 15:06:12,0.0
6636.799999999999,2169.6,19057.2,-810.4,1514.1,994.5,2025-01-29 15:06:12,0.0
6840.799999999999,2109.6,18917.2,-617.4,1373.1,735.5,2025-01-29 15:06:12,0.0
6828.799999999999,2133.6,18441.2,-659.4,1228.1,613.5,2025-01-29 15:06:12,0.0
6524.799999999999,1993.6,18533.2,-812.4,809.1,590.5,2025-01-29 15:06:12,0.0
5776.799999999999,937.6,18977.2,-834.4,107.1,784.5,2025-01-29 15:06:12,0.0
5988.799999999999,553.6,19901.2,-461.4,-682.9,776.5,2025-01-29 15:06:12,0.0
6656.799999999999,213.6,19881.2,-141.4,-1667.9,524.5,2025-01-29 15:06:12,0.0
7120.799999999999,769.6,19177.2,183.6,-2238.9,179.5,2025-01-29 15:06:12,0.0
7388.799999999999,1213.6,18745.2,312.6,-2098.9,-71.5,2025-01-29 15:06:12,0.0
7100.799999999999,1649.6,18969.2,447.6,-1515.9,-69.5,2025-01-29 15:06:12,0.0
6748.799999999999,1953.6,19041.2,718.6,-1112.9,49.5,2025-01-29 15:06:12,0.0
6368.799999999999,2117.6,18789.2,858.6,-641.9,302.5,2025-01-29 15:06:12,0.0
6348.799999999999,2385.6,18733.2,696.6,-769.9,383.5,2025-01-29 15:06:13,0.0
6504.799999999999,2389.6,18341.2,615.6,-880.9,261.5,2025-01-29 15:06:13,0.0
6436.799999999999,2389.6,18277.2,728.6,-621.9,94.5,2025-01-29 15:06:13,0.0
6652.799999999999,2213.6,17645.2,787.6,-444.9,20.5,2025-01-29 15:06:13,0.0
6584.799999999999,2229.6,17869.2,718.6,-209.9,203.5,2025-01-29 15:06:13,0.0
6528.799999999999,2393.6,18157.2,412.6,42.099999999999994,282.5,2025-01-29 15:06:13,0.0
6236.799999999999,2377.6,18709.2,174.6,196.1,374.5,2025-01-29 15:06:13,0.0
6172.799999999999,2233.6,19033.2,100.6,95.1,503.5,2025-01-29 15:06:13,0.0
6420.799999999999,1961.6,18929.2,268.6,-281.9,541.5,2025-01-29 15:06:13,0.0
6688.799999999999,1737.6,18945.2,309.6,-523.9,462.5,2025-01-29 15:06:13,0.0
6968.799999999999,1689.6,18761.2,234.6,-538.9,280.5,2025-01-29 15:06:13,0.0
7112.799999999999,1633.6,18769.2,71.6,-477.9,40.5,2025-01-29 15:06:13,0.0
7136.799999999999,1777.6,18829.2,-67.4,-377.9,-132.5,2025-01-29 15:06:13,0.0
6960.799999999999,1941.6,19101.2,-82.4,-247.9,-214.5,2025-01-29 15:06:13,0.0
6896.799999999999,2289.6,19049.2,-93.4,-177.9,-231.5,2025-01-29 15:06:13,0.0
6896.799999999999,2221.6,19165.2,-79.4,-151.9,-130.5,2025-01-29 15:06:13,0.0
6948.799999999999,2285.6,19125.2,-53.400000000000006,-105.9,-83.5,2025-01-29 15:06:13,0.0
7052.799999999999,2057.6,19113.2,6.599999999999994,-37.900000000000006,-40.5,2025-01-29 15:06:13,0.0
7132.799999999999,2133.6,19065.2,-26.400000000000006,53.099999999999994,-58.5,2025-01-29 15:06:13,0.0
7000.799999999999,2021.6,18909.2,-64.4,130.1,-115.5,2025-01-29 15:06:13,0.0
6944.799999999999,2125.6,18841.2,-112.4,207.1,-140.5,2025-01-29 15:06:13,0.0
6700.799999999999,2081.6,19009.2,-67.4,235.1,-124.5,2025-01-29 15:06:13,0.0
6804.799999999999,2045.6,19165.2,-41.400000000000006,193.1,-122.5,2025-01-29 15:06:13,0.0
6724.799999999999,1993.6,18981.2,4.599999999999994,127.1,-89.5,2025-01-29 15:06:13,0.0
6820.799999999999,2021.6,18917.2,24.599999999999994,129.1,-75.5,2025-01-29 15:06:13,0.0
6692.799999999999,1985.6,18765.2,9.599999999999994,279.1,-41.5,2025-01-29 15:06:13,0.0
6632.799999999999,2149.6,18977.2,38.599999999999994,468.1,57.5,2025-01-29 15:06:13,0.0
6692.799999999999,2089.6,19057.2,135.6,469.1,133.5,2025-01-29 15:06:13,0.0
6924.799999999999,2121.6,18589.2,64.6,359.1,83.5,2025-01-29 15:06:13,0.0
6652.799999999999,2089.6,18765.2,-65.4,262.1,43.5,2025-01-29 15:06:13,0.0
6704.799999999999,2057.6,18757.2,-24.400000000000006,205.1,9.5,2025-01-29 15:06:13,0.0
6676.799999999999,2069.6,18781.2,16.599999999999994,161.1,38.5,2025-01-29 15:06:13,0.0
6672.799999999999,2173.6,18713.2,8.599999999999994,164.1,11.5,2025-01-29 15:06:13,0.0
6600.799999999999,2237.6,18709.2,-34.400000000000006,119.1,1.5,2025-01-29 15:06:13,0.0
6600.799999999999,2105.6,18889.2,-27.400000000000006,15.099999999999994,7.5,2025-01-29 15:06:13,0.0
6672.799999999999,2085.6,18989.2,-4.400000000000006,-82.9,-47.5,2025-01-29 15:06:13,0.0
6820.799999999999,2101.6,19017.2,-55.400000000000006,-3.9000000000000057,-81.5,2025-01-29 15:06:13,0.0
6660.799999999999,2081.6,18893.2,-23.400000000000006,17.099999999999994,-155.5,2025-01-29 15:06:13,0.0
6612.799999999999,2061.6,18973.2,18.599999999999994,-90.9,-151.5,2025-01-29 15:06:13,0.0
6680.799999999999,2025.6,18901.2,18.599999999999994,-112.9,-123.5,2025-01-29 15:06:13,0.0
6728.799999999999,1837.6,18909.2,-65.4,-104.9,-37.5,2025-01-29 15:06:13,0.0
6680.799999999999,1889.6,19009.2,-23.400000000000006,-68.9,-71.5,2025-01-29 15:06:13,0.0
6660.799999999999,2025.6,18821.2,16.599999999999994,-97.9,-66.5,2025-01-29 15:06:13,0.0
6828.799999999999,1885.6,19021.2,37.599999999999994,-124.9,-56.5,2025-01-29 15:06:13,0.0
6828.799999999999,2049.6,19001.2,47.599999999999994,-139.9,-49.5,2025-01-29 15:06:13,0.0
6880.799999999999,1937.6,19017.2,58.599999999999994,-165.9,-71.5,2025-01-29 15:06:13,0.0
6984.799999999999,1853.6,18941.2,-8.400000000000006,-143.9,-75.5,2025-01-29 15:06:13,0.0
6892.799999999999,1769.6,19057.2,14.599999999999994,-101.9,-94.5,2025-01-29 15:06:13,0.0
6744.799999999999,1905.6,19185.2,48.599999999999994,-54.900000000000006,-135.5,2025-01-29 15:06:14,0.0
6748.799999999999,2001.6,19013.2,32.599999999999994,-5.900000000000006,-101.5,2025-01-29 15:06:14,0.0
6732.799999999999,1965.6,18973.2,41.599999999999994,33.099999999999994,-127.5,2025-01-29 15:06:14,0.0
6696.799999999999,2009.6,18937.2,17.599999999999994,-22.900000000000006,-117.5,2025-01-29 15:06:14,0.0
6740.799999999999,2081.6,19009.2,31.599999999999994,-40.900000000000006,-74.5,2025-01-29 15:06:14,0.0
6824.799999999999,1917.6,18961.2,13.599999999999994,-11.900000000000006,-75.5,2025-01-29 15:06:14,0.0
6800.799999999999,1929.6,19053.2,31.599999999999994,-31.900000000000006,-92.5,2025-01-29 15:06:14,0.0
6752.799999999999,1989.6,18945.2,19.599999999999994,39.099999999999994,-64.5,2025-01-29 15:06:14,0.0
6756.799999999999,1961.6,19069.2,33.599999999999994,91.1,-60.5,2025-01-29 15:06:14,0.0
6752.799999999999,1937.6,19057.2,29.599999999999994,109.1,-18.5,2025-01-29 15:06:14,0.0
6788.799999999999,2013.6,19045.2,15.599999999999994,86.1,-10.5,2025-01-29 15:06:14,0.0
6768.799999999999,1925.6,19221.2,50.599999999999994,85.1,17.5,2025-01-29 15:06:14,0.0
6776.799999999999,1917.6,19045.2,52.599999999999994,60.099999999999994,-55.5,2025-01-29 15:06:14,0.0
6756.799999999999,1881.6,18945.2,69.6,-17.900000000000006,-55.5,2025-01-29 15:06:14,0.0
6672.799999999999,1985.6,18901.2,69.6,-142.9,-17.5,2025-01-29 15:06:14,0.0
6740.799999999999,1925.6,19005.2,26.599999999999994,-270.9,-20.5,2025-01-29 15:06:14,0.0
6880.799999999999,2037.6,18905.2,45.599999999999994,-256.9,-30.5,2025-01-29 15:06:14,
6876.799999999999,1889.6,19029.2,31.599999999999994,-186.9,-17.5,2025-01-29 15:06:14,0.0
6860.799999999999,1941.6,19145.2,48.599999999999994,-120.9,-56.5,2025-01-29 15:06:14,0.0
6864.799999999999,1925.6,18957.2,16.599999999999994,-72.9,-40.5,2025-01-29 15:06:14,0.0
6708.799999999999,1945.6,18945.2,11.599999999999994,-28.900000000000006,-35.5,2025-01-29 15:06:14,0.0
6792.799999999999,1945.6,18841.2,-13.400000000000006,-36.900000000000006,-38.5,2025-01-29 15:06:14,0.0
6780.799999999999,1921.6,18993.2,-2.4000000000000057,-35.900000000000006,-17.5,2025-01-29 15:06:14,0.0
6796.799999999999,1853.6,18873.2,15.599999999999994,-121.9,-22.5,2025-01-29 15:06:14,0.0
6824.799999999999,1945.6,18969.2,30.599999999999994,-184.9,-11.5,2025-01-29 15:06:14,0.0
6904.799999999999,1949.6,18953.2,8.599999999999994,-127.9,-24.5,2025-01-29 15:06:14,0.0
6904.799999999999,1897.6,19153.2,24.599999999999994,-91.9,-15.5,2025-01-29 15:06:14,0.0
6796.799999999999,1877.6,19021.2,28.599999999999994,-20.900000000000006,-15.5,2025-01-29 15:06:14,0.0
6840.799999999999,1909.6,18873.2,18.599999999999994,55.099999999999994,-25.5,2025-01-29 15:06:14,0.0
6868.799999999999,1993.6,19217.2,14.599999999999994,28.099999999999994,-52.5,2025-01-29 15:06:14,0.0
6784.799999999999,1981.6,19049.2,-21.400000000000006,-13.900000000000006,-38.5,2025-01-29 15:06:14,0.0
6932.799999999999,1933.6,19089.2,25.599999999999994,20.099999999999994,-40.5,2025-01-29 15:06:14,0.0
6876.799999999999,1945.6,19057.2,46.599999999999994,-17.900000000000006,-36.5,2025-01-29 15:06:14,0.0
6968.799999999999,2029.6,18981.2,28.599999999999994,18.099999999999994,-22.5,2025-01-29 15:06:14,0.0
6880.799999999999,1825.6,19061.2,53.599999999999994,53.099999999999994,-20.5,2025-01-29 15:06:14,0.0
6880.799999999999,1921.6,19217.2,86.6,107.1,-23.5,2025-01-29 15:06:14,0.0
6868.799999999999,1841.6,19189.2,71.6,156.1,19.5,2025-01-29 15:06:14,0.0
6816.799999999999,1861.6,19029.2,63.599999999999994,157.1,16.5,2025-01-29 15:06:14,0.0
6828.799999999999,1985.6,18877.2,94.6,191.1,1.5,2025-01-29 15:06:14,0.0
6876.799999999999,2021.6,19033.2,54.599999999999994,149.1,-14.5,2025-01-29 15:06:14,0.0
6820.799999999999,1969.6,18949.2,50.599999999999994,104.1,8.5,2025-01-29 15:06:14,0.0
6784.799999999999,1853.6,18889.2,26.599999999999994,20.099999999999994,10.5,2025-01-29 15:06:14,0.0
6876.799999999999,1909.6,19097.2,66.6,32.099999999999994,24.5,2025-01-29 15:06:14,0.0
6892.799999999999,1965.6,19141.2,55.599999999999994,76.1,46.5,2025-01-29 15:06:14,0.0
6728.799999999999,1889.6,19029.2,72.6,92.1,28.5,2025-01-29 15:06:14,0.0
6916.799999999999,1893.6,19005.2,58.599999999999994,108.1,-18.5,2025-01-29 15:06:14,0.0
7000.799999999999,1857.6,18929.2,42.599999999999994,109.1,-62.5,2025-01-29 15:06:14,0.0
6784.799999999999,2041.6,19041.2,-7.400000000000006,175.1,-90.5,2025-01-29 15:06:14,0.0
6644.799999999999,1953.6,19133.2,78.6,93.1,-91.5,2025-01-29 15:06:14,0.0
6644.799999999999,1921.6,18969.2,122.6,-13.900000000000006,-43.5,2025-01-29 15:06:14,0.0
6860.799999999999,1921.6,18957.2,86.6,-161.9,-11.5,2025-01-29 15:06:14,0.0
6956.799999999999,1957.6,18981.2,58.599999999999994,-224.9,-13.5,2025-01-29 15:06:14,0.0
6936.799999999999,1821.6,18885.2,67.6,-142.9,-7.5,2025-01-29 15:06:14,0.0
6944.799999999999,1981.6,19121.2,45.599999999999994,-30.900000000000006,-60.5,2025-01-29 15:06:14,0.0
6924.799999999999,1965.6,19021.2,4.599999999999994,30.099999999999994,-86.5,2025-01-29 15:06:14,0.0
6808.799999999999,1913.6,19021.2,10.599999999999994,60.099999999999994,-58.5,2025-01-29 15:06:14,0.0
6808.799999999999,1893.6,19057.2,37.599999999999994,59.099999999999994,-46.5,2025-01-29 15:06:14,0.0
6736.799999999999,1973.6,18845.2,36.599999999999994,32.099999999999994,7.5,2025-01-29 15:06:14,0.0
6848.799999999999,1925.6,19009.2,41.599999999999994,-47.900000000000006,-4.5,2025-01-29 15:06:14,0.0
6876.799999999999,1865.6,18965.2,21.599999999999994,-72.9,-35.5,2025-01-29 15:06:14,0.0
6852.799999999999,1881.6,19105.2,38.599999999999994,-79.9,-17.5,2025-01-29 15:06:15,0.0
6808.799999999999,1905.6,19081.2,6.599999999999994,-27.900000000000006,-39.5,2025-01-29 15:06:15,0.0
6800.799999999999,1965.6,19157.2,28.599999999999994,24.099999999999994,-18.5,2025-01-29 15:06:15,0.0
6864.799999999999,1929.6,19053.2,31.599999999999994,44.099999999999994,-31.5,2025-01-29 15:06:15,0.0
6796.799999999999,1917.6,18993.2,31.599999999999994,21.099999999999994,-27.5,2025-01-29 15:06:15,0.0
6832.799999999999,1961.6,19025.2,12.599999999999994,14.099999999999994,-16.5,2025-01-29 15:06:15,0.0
6960.799999999999,1865.6,18885.2,10.599999999999994,-36.900000000000006,3.5,2025-01-29 15:06:15,0.0
6884.799999999999,1801.6,18993.2,24.599999999999994,-33.900000000000006,-6.5,2025-01-29 15:06:15,0.0
6980.799999999999,1909.6,19125.2,31.599999999999994,-53.900000000000006,-18.5,2025-01-29 15:06:15,0.0
6916.799999999999,1961.6,19113.2,22.599999999999994,-25.900000000000006,-2.5,2025-01-29 15:06:15,0.0
6912.799999999999,1837.6,18973.2,24.599999999999994,8.099999999999994,-17.5,2025-01-29 15:06:15,0.0
6916.799999999999,1857.6,19077.2,53.599999999999994,32.099999999999994,-20.5,2025-01-29 15:06:15,0.0
6908.799999999999,1909.6,19113.2,39.599999999999994,75.1,-29.5,2025-01-29 15:06:15,0.0
6908.799999999999,1857.6,18917.2,29.599999999999994,37.099999999999994,-26.5,2025-01-29 15:06:15,0.0
6720.799999999999,1861.6,18961.2,67.6,19.099999999999994,-23.5,2025-01-29 15:06:15,0.0
6892.799999999999,1857.6,19021.2,69.6,8.099999999999994,-23.5,2025-01-29 15:06:15,0.0
6820.799999999999,1925.6,19081.2,30.599999999999994,16.099999999999994,-33.5,2025-01-29 15:06:15,0.0
6952.799999999999,1825.6,18873.2,32.599999999999994,-42.900000000000006,-20.5,2025-01-29 15:06:15,0.0
6820.799999999999,1957.6,18985.2,64.6,-81.9,-33.5,2025-01-29 15:06:15,0.0
6820.799999999999,1849.6,19101.2,74.6,-57.900000000000006,-26.5,2025-01-29 15:06:15,0.0
6872.799999999999,1845.6,19137.2,41.599999999999994,-8.900000000000006,-17.5,2025-01-29 15:06:15,0.0
6880.799999999999,1837.6,19025.2,45.599999999999994,103.1,-33.5,2025-01-29 15:06:15,0.0
6848.799999999999,1881.6,19101.2,49.599999999999994,153.1,-13.5,2025-01-29 15:06:15,0.0
6840.799999999999,1913.6,19061.2,81.6,128.1,2.5,2025-01-29 15:06:15,0.0
6872.799999999999,1769.6,19001.2,33.599999999999994,109.1,-4.5,2025-01-29 15:06:15,0.0
6928.799999999999,1813.6,18965.2,26.599999999999994,138.1,-28.5,2025-01-29 15:06:15,0.0
6752.799999999999,1949.6,19037.2,30.599999999999994,86.1,-57.5,2025-01-29 15:06:15,0.0
6728.799999999999,1869.6,18925.2,84.6,-55.900000000000006,-30.5,2025-01-29 15:06:15,0.0
6784.799999999999,1921.6,19001.2,69.6,-191.9,33.5,2025-01-29 15:06:15,0.0
6888.799999999999,1933.6,19017.2,78.6,-250.9,10.5,2025-01-29 15:06:15,0.0
7076.799999999999,1905.6,18793.2,67.6,-132.9,21.5,2025-01-29 15:06:15,0.0
6924.799999999999,1809.6,19021.2,86.6,-46.900000000000006,-1.5,2025-01-29 15:06:15,0.0
6908.799999999999,1833.6,19277.2,61.599999999999994,-25.900000000000006,-12.5,2025-01-29 15:06:15,0.0
6904.799999999999,1865.6,19005.2,48.599999999999994,21.099999999999994,6.5,2025-01-29 15:06:15,0.0
6916.799999999999,1905.6,19105.2,51.599999999999994,47.099999999999994,-25.5,2025-01-29 15:06:15,0.0
6844.799999999999,1917.6,19085.2,67.6,13.099999999999994,0.5,2025-01-29 15:06:15,0.0
6788.799999999999,1849.6,19029.2,94.6,-23.900000000000006,-15.5,2025-01-29 15:06:15,0.0
6872.799999999999,1833.6,18977.2,36.599999999999994,-80.9,-3.5,2025-01-29 15:06:15,0.0
6944.799999999999,1873.6,19145.2,53.599999999999994,-87.9,-17.5,2025-01-29 15:06:15,0.0
6908.799999999999,1881.6,19073.2,42.599999999999994,-53.900000000000006,3.5,2025-01-29 15:06:15,0.0
6932.799999999999,1985.6,19165.2,39.599999999999994,-32.900000000000006,20.5,2025-01-29 15:06:15,0.0
6960.799999999999,2025.6,18921.2,77.6,35.099999999999994,-18.5,2025-01-29 15:06:15,0.0
6960.799999999999,1949.6,19117.2,72.6,31.099999999999994,-5.5,2025-01-29 15:06:15,0.0
6924.799999999999,1869.6,19113.2,35.599999999999994,40.099999999999994,0.5,2025-01-29 15:06:15,0.0
6936.799999999999,1933.6,18965.2,74.6,10.099999999999994,-7.5,2025-01-29 15:06:15,0.0
7004.799999999999,1945.6,19045.2,41.599999999999994,-10.900000000000006,-19.5,2025-01-29 15:06:15,0.0
6908.799999999999,1841.6,19037.2,34.599999999999994,-8.900000000000006,1.5,2025-01-29 15:06:15,0.0
6984.799999999999,1849.6,19045.2,65.6,-16.900000000000006,5.5,2025-01-29 15:06:15,0.0
6916.799999999999,1917.6,18977.2,61.599999999999994,28.099999999999994,-22.5,2025-01-29 15:06:15,0.0
6968.799999999999,1881.6,18961.2,51.599999999999994,41.099999999999994,3.5,2025-01-29 15:06:15,0.0
6896.799999999999,1785.6,19097.2,31.599999999999994,50.099999999999994,7.5,2025-01-29 15:06:15,0.0
6884.799999999999,1921.6,19221.2,61.599999999999994,101.1,6.5,2025-01-29 15:06:15,0.0
6916.799999999999,2017.6,18917.2,29.599999999999994,43.099999999999994,-33.5,2025-01-29 15:06:15,0.0
6836.799999999999,1917.6,19017.2,8.599999999999994,59.099999999999994,-20.5,2025-01-29 15:06:15,0.0
6836.799999999999,1981.6,19105.2,12.599999999999994,50.099999999999994,-17.5,2025-01-29 15:06:15,0.0
6948.799999999999,1913.6,18833.2,21.599999999999994,74.1,-37.5,2025-01-29 15:06:15,0.0
6908.799999999999,1837.6,19001.2,14.599999999999994,127.1,-27.5,2025-01-29 15:06:15,
6916.799999999999,1785.6,19133.2,57.599999999999994,121.1,-11.5,2025-01-29 15:06:15,0.0
6944.799999999999,1781.6,18917.2,-92.4,53.099999999999994,-32.5,2025-01-29 15:06:15,0.0
6808.799999999999,1953.6,18453.2,-147.4,358.1,-64.5,2025-01-29 15:06:15,0.0
6812.799999999999,1685.6,19061.2,-82.4,769.1,15.5,2025-01-29 15:06:15,0.0
6404.799999999999,1737.6,18825.2,-103.4,684.1,11.5,2025-01-29 15:06:15,0.0
6192.799999999999,2109.6,18237.2,-209.4,30.099999999999994,-58.5,2025-01-29 15:06:16,0.0
6472.799999999999,2085.6,18473.2,-396.4,-782.9,-162.5,2025-01-29 15:06:16,0.0
6844.799999999999,2145.6,18549.2,-524.4,-842.9,-215.5,2025-01-29 15:06:16,0.0
7452.799999999999,2101.6,19165.2,-327.4,-274.9,-222.5,2025-01-29 15:06:16,0.0
7428.799999999999,2421.6,18921.2,-271.4,591.1,-128.5,2025-01-29 15:06:16,0.0
7156.799999999999,1937.6,18789.2,-140.4,1656.1,-6.5,2025-01-29 15:06:16,0.0
6844.799999999999,1453.6,19261.2,20.599999999999994,2037.1,-6.5,2025-01-29 15:06:16,0.0
6752.799999999999,1213.6,19085.2,200.6,1926.1,66.5,2025-01-29 15:06:16,0.0
7072.799999999999,1341.6,18845.2,299.6,1466.1,68.5,2025-01-29 15:06:16,0.0
7308.799999999999,1705.6,18797.2,277.6,1210.1,-95.5,2025-01-29 15:06:16,0.0
7496.799999999999,1801.6,18957.2,347.6,1441.1,-224.5,2025-01-29 15:06:16,0.0
7476.799999999999,1665.6,18925.2,403.6,1546.1,-273.5,2025-01-29 15:06:16,0.0
7264.799999999999,1437.6,18873.2,381.6,1639.1,-265.5,2025-01-29 15:06:16,0.0
6848.799999999999,1425.6,18829.2,322.6,1561.1,-270.5,2025-01-29 15:06:16,0.0
6724.799999999999,1633.6,18789.2,406.6,1476.1,-237.5,2025-01-29 15:06:16,0.0
6456.799999999999,1793.6,18605.2,527.6,1374.1,-276.5,2025-01-29 15:06:16,0.0
5940.799999999999,1913.6,18925.2,601.6,1107.1,-164.5,2025-01-29 15:06:16,0.0
5748.799999999999,1845.6,19429.2,573.6,555.1,-70.5,2025-01-29 15:06:16,0.0
5800.799999999999,1937.6,19037.2,313.6,-298.9,-57.5,2025-01-29 15:06:16,0.0
5828.799999999999,1945.6,18881.2,174.6,-757.9,-133.5,2025-01-29 15:06:16,0.0
5656.799999999999,1869.6,18689.2,116.6,-1143.9,-173.5,2025-01-29 15:06:16,0.0
5640.799999999999,1729.6,18181.2,112.6,-1618.9,-149.5,2025-01-29 15:06:16,0.0
5628.799999999999,1689.6,18109.2,133.6,-1980.9,-155.5,2025-01-29 15:06:16,0.0
5696.799999999999,1837.6,18329.2,141.6,-2242.9,-49.5,2025-01-29 15:06:16,0.0
6780.799999999999,1737.6,19157.2,467.6,-2751.9,47.5,2025-01-29 15:06:16,0.0
7528.799999999999,1657.6,19425.2,855.6,-2383.9,179.5,2025-01-29 15:06:16,0.0
8148.799999999999,1869.6,19533.2,1017.6,-1918.9,123.5,2025-01-29 15:06:16,0.0
8476.8,2237.6,19493.2,948.6,-1028.9,39.5,2025-01-29 15:06:16,0.0
8508.8,2633.6,19621.2,730.6,-23.900000000000006,-148.5,2025-01-29 15:06:16,0.0
8152.799999999999,2745.6,19909.2,692.6,722.1,-266.5,2025-01-29 15:06:16,0.0
8040.799999999999,2573.6,19785.2,749.6,1165.1,-454.5,2025-01-29 15:06:16,0.0
7776.799999999999,2505.6,19485.2,828.6,1301.1,-678.5,2025-01-29 15:06:16,0.0
7604.799999999999,2373.6,18877.2,794.6,1261.1,-778.5,2025-01-29 15:06:16,0.0
7444.799999999999,2077.6,19081.2,597.6,1188.1,-867.5,2025-01-29 15:06:16,0.0
7036.799999999999,1833.6,18501.2,541.6,1506.1,-891.5,2025-01-29 15:06:16,0.0
6796.799999999999,2161.6,18645.2,574.6,2406.1,-568.5,2025-01-29 15:06:16,0.0
6568.799999999999,2353.6,18621.2,738.6,3633.1,-475.5,2025-01-29 15:06:16,0.0
7180.799999999999,2125.6,18181.2,954.6,4566.1,-696.5,2025-01-29 15:06:16,0.0
6920.799999999999,2013.6,18529.2,750.6,4362.1,-986.5,2025-01-29 15:06:16,0.0
8908.8,1789.6,17513.2,595.6,2668.1,-1333.5,2025-01-29 15:06:16,0.0
6216.799999999999,1209.6,18477.2,480.6,1808.1,-1893.5,2025-01-29 15:06:16,0.0
5060.799999999999,1017.6,18921.2,720.6,1376.1,-2079.5,2025-01-29 15:06:16,0.0
5432.799999999999,629.6,19093.2,981.6,1097.1,-1940.5,2025-01-29 15:06:16,0.0
5400.799999999999,993.6,19265.2,1163.6,1407.1,-1818.5,2025-01-29 15:06:16,0.0
4796.799999999999,1929.6,18781.2,1219.6,2273.1,-1464.5,2025-01-29 15:06:16,0.0
5256.799999999999,2237.6,18901.2,1155.6,2698.1,-1291.5,2025-01-29 15:06:16,0.0
5780.799999999999,1925.6,18689.2,691.6,2839.1,-1187.5,2025-01-29 15:06:16,0.0
5220.799999999999,1845.6,18841.2,-100.4,3504.1,-1034.5,2025-01-29 15:06:16,0.0
5812.799999999999,1577.6,20649.2,-628.4,4011.1,-1073.5,2025-01-29 15:06:16,0.0
5544.799999999999,1553.6,22409.2,-440.4,3622.1,-1026.5,2025-01-29 15:06:16,0.0
6000.799999999999,1641.6,22337.2,105.6,3234.1,-992.5,2025-01-29 15:06:16,0.0
5564.799999999999,2505.6,21557.2,369.6,2939.1,-865.5,2025-01-29 15:06:16,0.0
5160.799999999999,3245.6,21361.2,384.6,2492.1,-523.5,2025-01-29 15:06:16,0.0
5044.799999999999,3417.6,20805.2,319.6,2250.1,-103.5,2025-01-29 15:06:16,0.0
8032.799999999999,2973.6,19065.2,460.6,2371.1,343.5,2025-01-29 15:06:16,0.0
4480.799999999999,2177.6,20181.2,602.6,3568.1,251.5,2025-01-29 15:06:16,0.0
4236.799999999999,1977.6,19557.2,638.6,4987.1,125.5,2025-01-29 15:06:16,0.0
3564.7999999999993,2433.6,18581.2,531.6,5413.1,-157.5,2025-01-29 15:06:16,0.0
3312.7999999999993,3145.6,17457.2,70.6,5544.1,-279.5,2025-01-29 15:06:16,0.0
2560.7999999999993,3269.6,18037.2,-37.400000000000006,5607.1,-284.5,2025-01-29 15:06:16,0.0
2340.7999999999993,2781.6,18897.2,167.6,4881.1,-96.5,2025-01-29 15:06:17,0.0
2520.7999999999993,2729.6,18981.2,648.6,3735.1,349.5,2025-01-29 15:06:17,0.0
3660.7999999999993,2601.6,17777.2,1130.6,3422.1,489.5,2025-01-29 15:06:17,0.0
3980.7999999999993,1765.6,17105.2,1334.6,3971.1,295.5,2025-01-29 15:06:17,0.0
4708.799999999999,1429.6,15641.2,1221.6,4845.1,-68.5,2025-01-29 15:06:17,0.0
4656.799999999999,1565.6,15433.2,1164.6,5484.1,-368.5,2025-01-29 15:06:17,0.0
4236.799999999999,1933.6,15529.2,1142.6,5762.1,-427.5,2025-01-29 15:06:17,0.0
3740.7999999999993,1993.6,15877.2,833.6,5876.1,-511.5,2025-01-29 15:06:17,0.0
3128.7999999999993,2197.6,16365.2,678.6,5954.1,-469.5,2025-01-29 15:06:17,0.0
2744.7999999999993,2117.6,16117.2,772.6,5628.1,-353.5,2025-01-29 15:06:17,0.0
2980.7999999999993,1845.6,15573.2,660.6,5377.1,-221.5,2025-01-29 15:06:17,0.0
2980.7999999999993,1645.6,15265.2,626.6,5707.1,-225.5,2025-01-29 15:06:17,0.0
2856.7999999999993,1881.6,15177.2,539.6,6139.1,-298.5,2025-01-29 15:06:17,0.0
2520.7999999999993,1853.6,15085.2,385.6,6501.1,-339.5,2025-01-29 15:06:17,0.0
2780.7999999999993,2069.6,14881.2,222.6,6881.1,-475.5,2025-01-29 15:06:17,0.0
2268.7999999999993,1973.6,14217.2,261.6,7191.1,-536.5,2025-01-29 15:06:17,0.0
1928.7999999999993,1801.6,14265.2,375.6,7469.1,-608.5,2025-01-29 15:06:17,0.0
1704.7999999999993,1725.6,13953.2,300.6,7624.1,-623.5,2025-01-29 15:06:17,0.0
1772.7999999999993,1581.6,13529.2,235.6,7722.1,-623.5,2025-01-29 15:06:17,0.0
2068.7999999999993,1373.6,13281.2,109.6,7887.1,-617.5,2025-01-29 15:06:17,0.0
2400.7999999999993,1209.6,12877.2,-162.4,8451.1,-843.5,2025-01-29 15:06:17,0.0
2372.7999999999993,1297.6,12325.2,-615.4,10011.1,-1081.5,2025-01-29 15:06:17,0.0
2060.7999999999993,1669.6,12837.2,-710.4,10229.1,-1317.5,2025-01-29 15:06:17,0.0
1536.7999999999993,1797.6,12017.2,-807.4,9949.1,-1408.5,2025-01-29 15:06:17,0.0
1012.7999999999993,1893.6,11897.2,-1068.4,9893.1,-1363.5,2025-01-29 15:06:17,0.0
888.7999999999993,1769.6,12885.2,-769.4,9206.1,-1274.5,2025-01-29 15:06:17,0.0
484.7999999999993,1565.6,12061.2,-814.4,8642.1,-1144.5,2025-01-29 15:06:17,0.0
544.7999999999993,1841.6,11853.2,-868.4,7968.1,-1004.5,2025-01-29 15:06:17,0.0
292.7999999999993,1797.6,11489.2,-910.4,7455.1,-894.5,2025-01-29 15:06:17,0.0
440.7999999999993,1821.6,10789.2,-937.4,7642.1,-823.5,2025-01-29 15:06:17,0.0
496.7999999999993,1273.6,10369.2,-733.4,8262.1,-778.5,2025-01-29 15:06:17,0.0
-211.20000000000073,1001.6,9709.2,-361.4,8942.1,-613.5,2025-01-29 15:06:17,0.0
-31.200000000000728,1089.6,9385.2,-95.4,9116.1,-532.5,2025-01-29 15:06:17,0.0
-91.20000000000073,1209.6,8929.2,56.599999999999994,8811.1,-772.5,2025-01-29 15:06:17,0.0
-319.2000000000007,1497.6,8713.2,178.6,8522.1,-924.5,2025-01-29 15:06:17,
-355.2000000000007,1681.6,8725.2,242.6,8373.1,-1125.5,2025-01-29 15:06:17,0.0
-275.2000000000007,1993.6,8245.2,7.599999999999994,8249.1,-796.5,2025-01-29 15:06:17,0.0
-215.20000000000073,2121.6,8201.2,-214.4,8074.1,-647.5,2025-01-29 15:06:17,0.0
328.7999999999993,2085.6,8153.2,-98.4,7972.1,-531.5,2025-01-29 15:06:17,0.0
376.7999999999993,2085.6,6929.2,-270.4,7502.1,-512.5,2025-01-29 15:06:17,0.0
248.79999999999927,1885.6,7165.2,-344.4,6918.1,-517.5,2025-01-29 15:06:17,0.0
404.7999999999993,1641.6,7141.2,-470.4,6565.1,-505.5,2025-01-29 15:06:17,0.0
352.7999999999993,1257.6,7117.2,-682.4,6138.1,-503.5,2025-01-29 15:06:17,0.0
568.7999999999993,1213.6,6517.2,-892.4,5664.1,-550.5,2025-01-29 15:06:17,0.0
516.7999999999993,1329.6,6245.2,-1142.4,5319.1,-572.5,2025-01-29 15:06:17,0.0
508.7999999999993,1733.6,5861.2,-1431.4,5344.1,-529.5,2025-01-29 15:06:17,0.0
740.7999999999993,1949.6,5785.2,-1534.4,5652.1,-564.5,2025-01-29 15:06:17,0.0
588.7999999999993,2093.6,6373.2,-1453.4,5651.1,-419.5,2025-01-29 15:06:17,0.0
500.7999999999993,1797.6,6325.2,-1373.4,5981.1,-393.5,2025-01-29 15:06:17,0.0
288.7999999999993,1637.6,6201.2,-1385.4,6391.1,-320.5,2025-01-29 15:06:17,0.0
72.79999999999927,1877.6,5845.2,-1505.4,6579.1,-218.5,2025-01-29 15:06:17,0.0
348.7999999999993,1997.6,5365.2,-1512.4,5566.1,-143.5,2025-01-29 15:06:17,0.0
544.7999999999993,1341.6,4869.2,-1468.4,3722.1,9.5,2025-01-29 15:06:17,0.0
992.7999999999993,389.6,5105.2,-1103.4,1896.1,-156.5,2025-01-29 15:06:17,0.0
800.7999999999993,-566.4,5385.2,-410.4,890.1,-362.5,2025-01-29 15:06:17,0.0
464.7999999999993,-462.4,5469.2,311.6,1475.1,-343.5,2025-01-29 15:06:17,0.0
-131.20000000000073,-70.4,5297.2,1198.6,2113.1,-75.5,2025-01-29 15:06:17,0.0
136.79999999999927,729.6,4585.2,1935.6,2375.1,346.5,2025-01-29 15:06:17,0.0
552.7999999999993,1257.6,4273.2,2387.6,1760.1,495.5,2025-01-29 15:06:18,0.0
668.7999999999993,1541.6,4313.2,2394.6,975.1,337.5,2025-01-29 15:06:18,0.0
504.7999999999993,1777.6,4705.2,2430.6,709.1,35.5,2025-01-29 15:06:18,0.0
136.79999999999927,1521.6,4889.2,2503.6,1216.1,-206.5,2025-01-29 15:06:18,0.0
236.79999999999927,1241.6,5109.2,2847.6,1325.1,-507.5,2025-01-29 15:06:18,0.0
276.7999999999993,661.6,4949.2,3372.6,1102.1,-829.5,2025-01-29 15:06:18,0.0
64.79999999999927,529.6,4865.2,3906.6,-241.9,-1209.5,2025-01-29 15:06:18,0.0
200.79999999999927,1341.6,4281.2,4267.6,-1664.9,-1240.5,2025-01-29 15:06:18,0.0
272.7999999999993,1849.6,3889.2,4536.6,-2552.9,-1126.5,2025-01-29 15:06:18,0.0
848.7999999999993,2517.6,3141.2,4690.6,-2348.9,-1348.5,2025-01-29 15:06:18,0.0
1648.7999999999993,3137.6,2573.2,4551.6,-1675.9,-2011.5,2025-01-29 15:06:18,0.0
1976.7999999999993,3137.6,1721.1999999999998,3911.6,-912.9,-2787.5,2025-01-29 15:06:18,0.0
1364.7999999999993,2649.6,925.1999999999998,3136.6,-284.9,-3192.5,2025-01-29 15:06:18,0.0
404.7999999999993,2477.6,425.1999999999998,2480.6,1304.1,-3114.5,2025-01-29 15:06:18,0.0
-763.2000000000007,2581.6,429.1999999999998,2141.6,3834.1,-2574.5,2025-01-29 15:06:18,0.0
-1487.2000000000007,2909.6,1365.1999999999998,1943.6,6208.1,-1934.5,2025-01-29 15:06:18,0.0
-1567.2000000000007,2353.6,2817.2,1638.6,7935.1,-1601.5,2025-01-29 15:06:18,0.0
-843.2000000000007,1377.6,4365.2,1495.6,7443.1,-2229.5,2025-01-29 15:06:18,0.0
-1163.2000000000007,161.6,4481.2,1421.6,5230.1,-2984.5,2025-01-29 15:06:18,0.0
-1539.2000000000007,-1174.4,3661.2,1320.6,2586.1,-3641.5,2025-01-29 15:06:18,0.0
-5415.200000000001,1337.6,2077.2,1288.6,-1614.9,-4413.5,2025-01-29 15:06:18,0.0
-571.2000000000007,-2218.4,1729.1999999999998,1880.6,-1040.9,-3608.5,2025-01-29 15:06:18,0.0
-971.2000000000007,-2278.4,2109.2,2177.6,-2652.9,-3406.5,2025-01-29 15:06:18,0.0
-39.20000000000073,-1734.4,3105.2,1946.6,-3532.9,-2895.5,2025-01-29 15:06:18,0.0
964.7999999999993,-1426.4,4217.2,1526.6,-2917.9,-2502.5,2025-01-29 15:06:18,0.0
900.7999999999993,-958.4,4189.2,892.6,-462.9,-2106.5,2025-01-29 15:06:18,0.0
892.7999999999993,-842.4,4321.2,244.6,1618.1,-1711.5,2025-01-29 15:06:18,0.0
532.7999999999993,-798.4,4005.2,-421.4,2899.1,-1488.5,2025-01-29 15:06:18,0.0
-319.2000000000007,-1402.4,3721.2,-980.4,3699.1,-1458.5,2025-01-29 15:06:18,0.0
-655.2000000000007,-2158.4,4241.2,-1293.4,4071.1,-1711.5,2025-01-29 15:06:18,0.0
-1307.2000000000007,-3138.4,4289.2,-1214.4,4128.1,-1905.5,2025-01-29 15:06:18,0.0
-1747.2000000000007,-3818.4,4837.2,-879.4,3216.1,-2054.5,2025-01-29 15:06:18,0.0
-1711.2000000000007,-4374.4,5025.2,-252.4,1347.1,-2096.5,2025-01-29 15:06:18,0.0
-1471.2000000000007,-4198.4,4893.2,659.6,-1630.9,-1794.5,2025-01-29 15:06:18,0.0
-407.2000000000007,-3586.4,4569.2,1041.6,-3194.9,-1475.5,2025-01-29 15:06:18,0.0
348.7999999999993,-2626.4,4249.2,1105.6,-3614.9,-1303.5,2025-01-29 15:06:18,0.0
864.7999999999993,-1598.4,4141.2,1009.6,-3249.9,-905.5,2025-01-29 15:06:18,0.0
892.7999999999993,-834.4,4057.2,609.6,-1689.9,-448.5,2025-01-29 15:06:18,0.0
736.7999999999993,-882.4,4129.2,-114.4,516.1,145.5,2025-01-29 15:06:18,0.0
420.7999999999993,-1354.4,4465.2,-610.4,2257.1,598.5,2025-01-29 15:06:18,0.0
108.79999999999927,-2186.4,4689.2,-765.4,2421.1,865.5,2025-01-29 15:06:18,0.0
-223.20000000000073,-2634.4,4369.2,-776.4,1890.1,1174.5,2025-01-29 15:06:18,0.0
-247.20000000000073,-2530.4,4181.2,-482.4,1268.1,1339.5,2025-01-29 15:06:18,0.0
-179.20000000000073,-2542.4,4221.2,-597.4,1732.1,1221.5,2025-01-29 15:06:18,0.0
-483.2000000000007,-2382.4,4313.2,-1136.4,2804.1,928.5,2025-01-29 15:06:18,0.0
-1159.2000000000007,-1710.4,4169.2,-1744.4,3342.1,709.5,2025-01-29 15:06:18,0.0
-1419.2000000000007,-1054.4,4265.2,-2344.4,3230.1,421.5,2025-01-29 15:06:18,0.0
-1827.2000000000007,-1290.4,4097.2,-2961.4,2713.1,263.5,2025-01-29 15:06:18,0.0
-2379.2000000000007,-1630.4,4505.2,-3410.4,1726.1,384.5,2025-01-29 15:06:18,0.0
-2339.2000000000007,-1022.4,4849.2,-3811.4,444.1,667.5,2025-01-29 15:06:18,0.0
-2191.2000000000007,157.6,4593.2,-4683.4,-110.9,900.5,2025-01-29 15:06:18,0.0
-1895.2000000000007,437.6,4341.2,-5635.4,66.1,988.5,2025-01-29 15:06:18,0.0
-1979.2000000000007,-186.4,3269.2,-6479.4,562.1,661.5,2025-01-29 15:06:18,0.0
-2299.2000000000007,-1534.4,2981.2,-7160.4,975.1,390.5,2025-01-29 15:06:18,0.0
-2559.2000000000007,-3790.4,4257.2,-7113.4,1578.1,-208.5,2025-01-29 15:06:18,0.0
-3223.2000000000007,-5894.4,5337.2,-5813.4,1816.1,-392.5,2025-01-29 15:06:18,0.0
-3835.2000000000007,-6726.4,6177.2,-3556.4,883.1,213.5,2025-01-29 15:06:18,0.0
-3931.2000000000007,-6258.4,5621.2,-1533.4,-1246.9,1168.5,2025-01-29 15:06:18,0.0
-3263.2000000000007,-5554.4,4521.2,-216.4,-3529.9,1777.5,2025-01-29 15:06:18,0.0
-2375.2000000000007,-4518.4,4369.2,437.6,-5150.9,2056.5,2025-01-29 15:06:18,0.0
-1759.2000000000007,-3114.4,3297.2,1046.6,-5128.9,2970.5,2025-01-29 15:06:18,0.0
-931.2000000000007,-1730.4,1745.1999999999998,1256.6,-4148.9,4105.5,2025-01-29 15:06:19,0.0
396.7999999999993,-162.4,569.1999999999998,1284.6,-2875.9,4941.5,2025-01-29 15:06:19,0.0
1340.7999999999993,1149.6,-402.8000000000002,1045.6,-1372.9,4887.5,2025-01-29 15:06:19,0.0
2032.7999999999993,1869.6,-1126.8000000000002,565.6,548.1,4038.5,2025-01-29 15:06:19,0.0
2256.7999999999993,2633.6,-802.8000000000002,-278.4,2428.1,2523.5,2025-01-29 15:06:19,0.0
1392.7999999999993,2985.6,993.1999999999998,-703.4,3411.1,1342.5,2025-01-29 15:06:19,0.0
-283.2000000000007,2809.6,1861.1999999999998,-640.4,4013.1,1223.5,2025-01-29 15:06:19,0.0
-1979.2000000000007,1949.6,1817.1999999999998,-387.4,4422.1,2026.5,2025-01-29 15:06:19,0.0
-2611.2000000000007,1177.6,1557.1999999999998,-367.4,4019.1,2817.5,2025-01-29 15:06:19,0.0
-3091.2000000000007,821.6,2489.2,-220.4,2306.1,3209.5,2025-01-29 15:06:19,0.0
-2003.2000000000007,821.6,1949.1999999999998,202.6,-518.9,3249.5,2025-01-29 15:06:19,0.0
-823.2000000000007,877.6,1941.1999999999998,523.6,-3354.9,2968.5,2025-01-29 15:06:19,0.0
-727.2000000000007,1041.6,2089.2,628.6,-5255.9,2742.5,2025-01-29 15:06:19,0.0
208.79999999999927,1085.6,2285.2,801.6,-5731.9,2792.5,2025-01-29 15:06:19,0.0
1052.7999999999993,1205.6,2497.2,1079.6,-5456.9,2658.5,2025-01-29 15:06:19,0.0
1880.7999999999993,1449.6,2649.2,1267.6,-4961.9,2546.5,2025-01-29 15:06:19,
2368.7999999999993,1917.6,2277.2,1509.6,-3948.9,2223.5,2025-01-29 15:06:19,0.0
2408.7999999999993,2453.6,2065.2,1569.6,-2244.9,2014.5,2025-01-29 15:06:19,0.0
1956.7999999999993,3161.6,2365.2,1659.6,-380.9,1970.5,2025-01-29 15:06:19,0.0
1436.7999999999993,3305.6,2297.2,1728.6,1406.1,1916.5,2025-01-29 15:06:19,0.0
848.7999999999993,2821.6,2457.2,1700.6,2957.1,1832.5,2025-01-29 15:06:19,0.0
-71.20000000000073,2213.6,2925.2,1731.6,3474.1,1677.5,2025-01-29 15:06:19,0.0
-151.20000000000073,1533.6,3077.2,1702.6,2945.1,1318.5,2025-01-29 15:06:19,0.0
-271.2000000000007,1213.6,3437.2,1700.6,1422.1,930.5,2025-01-29 15:06:19,0.0
-203.20000000000073,1385.6,3773.2,1736.6,-998.9,423.5,2025-01-29 15:06:19,0.0
348.7999999999993,1721.6,4013.2,1706.6,-2328.9,-10.5,2025-01-29 15:06:19,0.0
928.7999999999993,2105.6,4141.2,1747.6,-2634.9,-518.5,2025-01-29 15:06:19,0.0
1200.7999999999993,2373.6,3941.2,1693.6,-2387.9,-680.5,2025-01-29 15:06:19,0.0
1408.7999999999993,2049.6,4117.2,1669.6,-1706.9,-866.5,2025-01-29 15:06:19,0.0
1444.7999999999993,1817.6,4281.2,1769.6,-622.9,-1175.5,2025-01-29 15:06:19,0.0
1084.7999999999993,1645.6,4369.2,1981.6,637.1,-1528.5,2025-01-29 15:06:19,0.0
404.7999999999993,1737.6,4133.2,2243.6,1761.1,-1804.5,2025-01-29 15:06:19,0.0
-419.2000000000007,1857.6,4129.2,2395.6,2167.1,-1922.5,2025-01-29 15:06:19,0.0
-963.2000000000007,2013.6,4221.2,2460.6,1662.1,-1860.5,2025-01-29 15:06:19,0.0
-967.2000000000007,2077.6,4445.2,2643.6,410.1,-1650.5,2025-01-29 15:06:19,0.0
-719.2000000000007,2245.6,4401.2,2999.6,-699.9,-1454.5,2025-01-29 15:06:19,0.0
-479.2000000000007,2161.6,4057.2,3224.6,-570.9,-1436.5,2025-01-29 15:06:19,0.0
-939.2000000000007,1809.6,4497.2,3416.6,174.1,-1387.5,2025-01-29 15:06:19,0.0
-1411.2000000000007,1457.6,5233.2,3733.6,608.1,-1160.5,2025-01-29 15:06:19,0.0
-2031.2000000000007,845.6,5425.2,4053.6,531.1,-961.5,2025-01-29 15:06:19,0.0
-2223.2000000000007,141.6,5589.2,4432.6,176.1,-719.5,2025-01-29 15:06:19,0.0
-1963.2000000000007,701.6,5229.2,5049.6,-127.9,-424.5,2025-01-29 15:06:19,0.0
-1779.2000000000007,1329.6,4893.2,5503.6,-465.9,-68.5,2025-01-29 15:06:19,0.0
-1355.2000000000007,1521.6,4533.2,5829.6,-1118.9,340.5,2025-01-29 15:06:19,0.0
-1503.2000000000007,125.6,4485.2,7028.6,1544.1,1424.5,2025-01-29 15:06:19,0.0
-1903.2000000000007,105.6,3389.2,7041.6,4280.1,1446.5,2025-01-29 15:06:19,0.0
-2727.2000000000007,705.6,2701.2,6819.6,6586.1,1041.5,2025-01-29 15:06:19,0.0
-4175.200000000001,2641.6,1969.1999999999998,6473.6,7850.1,1225.5,2025-01-29 15:06:19,0.0
-4647.200000000001,4189.6,1249.1999999999998,5831.6,7030.1,1960.5,2025-01-29 15:06:19,0.0
-4451.200000000001,5053.6,381.1999999999998,4530.6,4739.1,2503.5,2025-01-29 15:06:19,0.0
-3763.2000000000007,5089.6,-586.8000000000002,2586.6,1839.1,2481.5,2025-01-29 15:06:19,0.0
-2551.2000000000007,3993.6,-150.80000000000018,998.6,-1325.9,1502.5,2025-01-29 15:06:19,0.0
-743.2000000000007,1065.6,89.19999999999982,440.6,-4911.9,-126.5,2025-01-29 15:06:19,0.0
288.7999999999993,-354.4,1513.1999999999998,581.6,-8016.9,-1089.5,2025-01-29 15:06:19,0.0
1944.7999999999993,-570.4,2713.2,1739.6,-8571.9,-1547.5,2025-01-29 15:06:19,0.0
3052.7999999999993,-1246.4,1861.1999999999998,2936.6,-7354.9,-1797.5,2025-01-29 15:06:19,0.0
3044.7999999999993,-1882.4,881.1999999999998,3902.6,-5315.9,-1607.5,2025-01-29 15:06:19,0.0
2640.7999999999993,-2158.4,33.19999999999982,4521.6,-2255.9,-784.5,2025-01-29 15:06:19,0.0
1628.7999999999993,-1406.4,545.1999999999998,4919.6,1735.1,-69.5,2025-01-29 15:06:19,0.0
1376.7999999999993,-846.4,173.19999999999982,5137.6,5431.1,49.5,2025-01-29 15:06:19,0.0
-395.2000000000007,-334.4,785.1999999999998,5078.6,8200.1,-138.5,2025-01-29 15:06:20,0.0
-1611.2000000000007,385.6,1553.1999999999998,5051.6,8699.1,-691.5,2025-01-29 15:06:20,0.0
-2375.2000000000007,1509.6,1913.1999999999998,4544.6,6699.1,-1291.5,2025-01-29 15:06:20,0.0
-2551.2000000000007,2425.6,2189.2,3378.6,2113.1,-2027.5,2025-01-29 15:06:20,0.0
-2287.2000000000007,2205.6,837.1999999999998,2148.6,-3085.9,-2401.5,2025-01-29 15:06:20,0.0
-1279.2000000000007,1809.6,-742.8000000000002,751.6,-8389.9,-2376.5,2025-01-29 15:06:20,0.0
-519.2000000000007,1713.6,-162.80000000000018,-537.4,-11243.9,-2225.5,2025-01-29 15:06:20,0.0
56.79999999999927,1457.6,261.1999999999998,-1410.4,-11517.9,-1922.5,2025-01-29 15:06:20,0.0
1736.7999999999993,829.6,133.19999999999982,-2169.4,-9399.9,-1366.5,2025-01-29 15:06:20,0.0
3536.7999999999993,45.599999999999994,1269.1999999999998,-3276.4,-127.9,-1287.5,2025-01-29 15:06:20,0.0
2232.7999999999993,-602.4,2133.2,-3834.4,4333.1,-2004.5,2025-01-29 15:06:20,0.0
752.7999999999993,-1158.4,2445.2,-4146.4,6467.1,-2455.5,2025-01-29 15:06:20,0.0
-1287.2000000000007,-1266.4,3065.2,-4154.4,6522.1,-2445.5,2025-01-29 15:06:20,0.0
-2339.2000000000007,-1234.4,3497.2,-4234.4,4909.1,-2386.5,2025-01-29 15:06:20,0.0
-2507.2000000000007,-830.4,2937.2,-4644.4,1068.1,-2142.5,2025-01-29 15:06:20,0.0
-2043.2000000000007,-390.4,2965.2,-5067.4,-2867.9,-1729.5,2025-01-29 15:06:20,0.0
-2015.2000000000007,-74.4,3957.2,-5372.4,-4815.9,-1221.5,2025-01-29 15:06:20,0.0
-331.2000000000007,345.6,2733.2,-5686.4,-5566.9,-639.5,2025-01-29 15:06:20,0.0
804.7999999999993,745.6,2033.1999999999998,-5777.4,-4964.9,-24.5,2025-01-29 15:06:20,0.0
-191.20000000000073,1025.6,3029.2,-7593.4,3086.1,902.5,2025-01-29 15:06:20,0.0
-967.2000000000007,765.6,3705.2,-8010.4,2304.1,1046.5,2025-01-29 15:06:20,0.0
-1223.2000000000007,657.6,3301.2,-8491.4,826.1,1174.5,2025-01-29 15:06:20,0.0
-943.2000000000007,477.6,2901.2,-8913.4,-236.9,1263.5,2025-01-29 15:06:20,0.0
-495.2000000000007,337.6,2621.2,-9271.4,-336.9,1240.5,2025-01-29 15:06:20,0.0
36.79999999999927,253.6,2089.2,-9773.4,221.1,1109.5,2025-01-29 15:06:20,0.0
-187.20000000000073,289.6,2177.2,-10365.4,1099.1,822.5,2025-01-29 15:06:20,0.0
-375.2000000000007,65.6,1981.1999999999998,-10831.4,1816.1,634.5,2025-01-29 15:06:20,0.0
-647.2000000000007,-122.4,1809.1999999999998,-11275.4,2145.1,451.5,2025-01-29 15:06:20,0.0
-843.2000000000007,493.6,1705.1999999999998,-11741.4,2147.1,354.5,2025-01-29 15:06:20,0.0
-691.2000000000007,1217.6,1437.1999999999998,-12387.4,2070.1,282.5,2025-01-29 15:06:20,0.0
-755.2000000000007,1613.6,1741.1999999999998,-13232.4,2184.1,-51.5,2025-01-29 15:06:20,0.0
-959.2000000000007,1221.6,1737.1999999999998,-14132.4,2462.1,-482.5,2025-01-29 15:06:20,0.0
-1423.2000000000007,741.6,2281.2,-14970.4,2839.1,-1043.5,2025-01-29 15:06:20,0.0
-2139.2000000000007,-254.4,2529.2,-15870.4,3119.1,-1717.5,2025-01-29 15:06:20,0.0
-1815.2000000000007,-1422.4,2041.1999999999998,-16680.4,3120.1,-2549.5,2025-01-29 15:06:20,0.0
-2523.2000000000007,-1958.4,1701.1999999999998,-17494.4,2504.1,-3291.5,2025-01-29 15:06:20,0.0
-2651.2000000000007,-2186.4,841.1999999999998,-17790.4,1302.1,-3565.5,2025-01-29 15:06:20,0.0
-2915.2000000000007,-1958.4,613.1999999999998,-17918.4,-202.9,-3857.5,2025-01-29 15:06:20,0.0
-2923.2000000000007,-1146.4,449.1999999999998,-18204.4,-1973.9,-4019.5,2025-01-29 15:06:20,0.0
-2539.2000000000007,673.6,1137.1999999999998,-18842.4,-4207.9,-3899.5,2025-01-29 15:06:20,0.0
-2683.2000000000007,2045.6,1889.1999999999998,-19847.4,-6605.9,-2985.5,2025-01-29 15:06:20,0.0
-3143.2000000000007,2713.6,2545.2,-20616.4,-8730.9,-1437.5,2025-01-29 15:06:20,0.0
-2267.2000000000007,2561.6,1229.1999999999998,-21127.4,-10473.9,550.5,2025-01-29 15:06:20,0.0
-339.2000000000007,813.6,-506.8000000000002,-21532.4,-9938.9,2433.5,2025-01-29 15:06:20,0.0
2944.7999999999993,-1114.4,-1374.8000000000002,-21730.4,-6403.9,2645.5,2025-01-29 15:06:20,0.0
3856.7999999999993,-2078.4,-346.8000000000002,-21439.4,1055.1,1216.5,2025-01-29 15:06:20,0.0
2916.7999999999993,-3830.4,945.1999999999998,-20462.4,8422.1,-47.5,2025-01-29 15:06:20,0.0
1116.7999999999993,-4742.4,2705.2,-18340.4,13830.1,-1335.5,2025-01-29 15:06:20,0.0
-955.2000000000007,-4182.4,3301.2,-15833.4,15379.1,-2115.5,2025-01-29 15:06:20,0.0
-2467.2000000000007,-2682.4,2913.2,-14592.4,12475.1,-1860.5,2025-01-29 15:06:20,0.0
-2363.2000000000007,-490.4,2613.2,-14704.4,6644.1,-1312.5,2025-01-29 15:06:20,0.0
-1447.2000000000007,1605.6,1125.1999999999998,-15513.4,1159.1,-637.5,2025-01-29 15:06:20,0.0
