acceleration_x,acceleration_y,acceleration_z,gyroscope_x,gyroscope_y,gyroscope_z,timestamp,label
-10952,-648,-7856,-119,289,-284,2025-01-29 10:39:57,0.0
-11040,-692,-7984,-131,237,-234,2025-01-29 10:39:57,0.0
-10972,-608,-8084,-114,163,-177,2025-01-29 10:39:57,0.0
-10836,-728,-7876,-155,171,-190,2025-01-29 10:39:57,0.0
-10924,-744,-7852,-178,226,-160,2025-01-29 10:39:57,0.0
-10824,-580,-7884,-130,259,-134,2025-01-29 10:39:57,0.0
-10888,-544,-7832,-149,218,-182,2025-01-29 10:39:57,0.0
-10988,-632,-7888,-161,138,-164,2025-01-29 10:39:57,0.0
-10832,-680,-7864,-122,59,-164,2025-01-29 10:39:57,0.0
-10800,-720,-7920,-165,156,-211,2025-01-29 10:39:57,0.0
-10772,-728,-8032,-132,269,-219,2025-01-29 10:39:57,0.0
-10656,-648,-8268,-205,368,-205,2025-01-29 10:39:57,0.0
-10756,-688,-8248,-263,443,-217,2025-01-29 10:39:57,0.0
-10784,-784,-8304,-296,368,-219,2025-01-29 10:39:57,0.0
-11044,-704,-8140,-279,234,-114,2025-01-29 10:39:57,0.0
-10944,-924,-8104,-239,137,3,2025-01-29 10:39:57,0.0
-10836,-736,-8080,-175,77,195,2025-01-29 10:39:57,0.0
-10788,-660,-7848,-312,109,184,2025-01-29 10:39:57,0.0
-10752,-668,-7720,-233,218,272,2025-01-29 10:39:57,0.0
-10684,-668,-7960,-246,519,296,2025-01-29 10:39:57,0.0
-10636,-568,-7736,-176,842,357,2025-01-29 10:39:57,0.0
-10732,-352,-7684,-70,1053,374,2025-01-29 10:39:57,0.0
-10988,-172,-7568,-3,1244,443,2025-01-29 10:39:57,0.0
-11080,-188,-7336,167,1463,514,2025-01-29 10:39:57,0.0
-11220,116,-7688,253,1455,526,2025-01-29 10:39:57,0.0
-11412,244,-7736,252,1198,483,2025-01-29 10:39:57,0.0
-11556,288,-7688,316,751,457,2025-01-29 10:39:57,0.0
-11368,364,-7412,426,138,327,2025-01-29 10:39:57,0.0
-11512,680,-7344,492,-232,164,2025-01-29 10:39:57,0.0
-11488,740,-7712,549,-634,-62,2025-01-29 10:39:57,0.0
-11512,1036,-7884,531,-968,-128,2025-01-29 10:39:57,0.0
-11056,1140,-7732,415,-1061,-167,2025-01-29 10:39:57,0.0
-10708,984,-7592,235,-808,-345,2025-01-29 10:39:57,0.0
-10572,672,-7244,285,-243,-406,2025-01-29 10:39:57,0.0
-10560,752,-7296,339,303,-437,2025-01-29 10:39:57,0.0
-10664,852,-7568,362,475,-452,2025-01-29 10:39:57,0.0
-10988,768,-7992,330,425,-511,2025-01-29 10:39:57,0.0
-11340,164,-7868,334,360,-509,2025-01-29 10:39:57,0.0
-11136,4,-7848,513,-120,-413,2025-01-29 10:39:57,0.0
-10972,16,-7800,612,-598,-424,2025-01-29 10:39:57,0.0
-10892,68,-7736,718,-499,-656,2025-01-29 10:39:57,0.0
-10736,-192,-8100,967,-52,-877,2025-01-29 10:39:57,0.0
-10608,-120,-8204,1278,300,-1177,2025-01-29 10:39:57,0.0
-10528,-28,-8860,1492,425,-1693,2025-01-29 10:39:57,0.0
-10492,-332,-8292,1710,547,-2128,2025-01-29 10:39:57,0.0
-10536,-672,-7940,1932,770,-2264,2025-01-29 10:39:57,0.0
-10076,-1220,-7976,2103,1115,-2349,2025-01-29 10:39:57,0.0
-10032,-2000,-7636,2157,1604,-2379,2025-01-29 10:39:57,0.0
-9980,-2516,-6852,2142,2191,-2405,2025-01-29 10:39:57,0.0
-10692,-2956,-5984,2103,2786,-2341,2025-01-29 10:39:57,0.0
-11764,-2336,-5764,2010,3003,-1993,2025-01-29 10:39:57,0.0
-12036,-1952,-6684,1695,2559,-1755,2025-01-29 10:39:57,0.0
-12328,-1928,-6240,1123,1762,-1834,2025-01-29 10:39:57,0.0
-12664,-2072,-5644,782,966,-2144,2025-01-29 10:39:57,0.0
-12340,-2320,-6564,509,288,-2214,2025-01-29 10:39:57,0.0
-11908,-2492,-6980,359,112,-2164,2025-01-29 10:39:57,0.0
-11476,-2372,-6704,149,-135,-1813,2025-01-29 10:39:57,0.0
-10684,-2160,-6412,-139,-184,-1771,2025-01-29 10:39:57,0.0
-10752,-2344,-6140,-527,23,-1883,2025-01-29 10:39:57,0.0
-11092,-2756,-5820,-812,2,-1840,2025-01-29 10:39:58,0.0
-11292,-3008,-5764,-963,-43,-1587,2025-01-29 10:39:58,0.0
-11328,-2792,-5820,-1165,151,-1420,2025-01-29 10:39:58,0.0
-11600,-2420,-5872,-1513,227,-1223,2025-01-29 10:39:58,0.0
-11480,-2564,-5820,-1808,13,-1030,2025-01-29 10:39:58,0.0
-11212,-2844,-5716,-1914,-133,-1068,2025-01-29 10:39:58,0.0
-10888,-3124,-6252,-1938,-132,-1052,2025-01-29 10:39:58,0.0
-10444,-3328,-6668,-1815,324,-1053,2025-01-29 10:39:58,0.0
-10552,-2988,-7056,-1980,1064,-1136,2025-01-29 10:39:58,0.0
-11100,-2012,-7544,-2207,1659,-1349,2025-01-29 10:39:58,0.0
-12292,-1600,-7768,-2583,1833,-1388,2025-01-29 10:39:58,0.0
-12520,-2468,-7728,-2721,1485,-1322,2025-01-29 10:39:58,0.0
-12564,-3340,-7528,-2632,826,-1396,2025-01-29 10:39:58,0.0
-12760,-3372,-7212,-2568,-356,-1330,2025-01-29 10:39:58,0.0
-11852,-3124,-7256,-2666,-786,-1733,2025-01-29 10:39:58,0.0
-12408,-2740,-7204,-2981,-562,-2359,2025-01-29 10:39:58,0.0
-12864,-2144,-6956,-3668,-555,-2538,2025-01-29 10:39:58,0.0
-13200,-2040,-6416,-4662,-653,-2493,2025-01-29 10:39:58,0.0
-12792,-3304,-7136,-5165,-606,-2380,2025-01-29 10:39:58,0.0
-12836,-3912,-9468,-5191,77,-2720,2025-01-29 10:39:58,0.0
-13532,-5008,-8720,-4824,1265,-2973,2025-01-29 10:39:58,0.0
-14344,-6200,-6916,-3423,998,-3274,2025-01-29 10:39:58,0.0
-15220,-6724,-6584,-1725,-1556,-2641,2025-01-29 10:39:58,0.0
-15508,-6608,-8176,-595,-3991,-605,2025-01-29 10:39:58,0.0
-13676,-4996,-10332,30,-4358,1367,2025-01-29 10:39:58,0.0
-11424,-3144,-10556,84,-3314,1350,2025-01-29 10:39:58,0.0
-11272,-2580,-10260,-137,-3269,1028,2025-01-29 10:39:58,0.0
-10336,-3008,-9720,-669,-4139,1795,2025-01-29 10:39:58,0.0
-7764,-2060,-9168,-960,-4851,2430,2025-01-29 10:39:58,0.0
-6888,-528,-9548,-990,-3872,2615,2025-01-29 10:39:58,0.0
-6244,1112,-10284,-1406,-1875,2503,2025-01-29 10:39:58,0.0
-6056,2048,-9656,-1800,504,1784,2025-01-29 10:39:58,0.0
-6784,2024,-9448,-1761,2190,686,2025-01-29 10:39:58,0.0
-8512,1288,-9268,-2044,2750,89,2025-01-29 10:39:58,0.0
-10584,-236,-8220,-2511,3145,490,2025-01-29 10:39:58,0.0
-11560,-1296,-7672,-2262,2913,1131,2025-01-29 10:39:58,0.0
-12396,-2052,-8472,-1693,2459,1791,2025-01-29 10:39:58,0.0
-12832,-1872,-8908,-1069,1397,2541,2025-01-29 10:39:58,0.0
-13132,-1472,-8712,-619,-287,3431,2025-01-29 10:39:58,0.0
-11844,-956,-8176,-214,-2013,3985,2025-01-29 10:39:58,0.0
-10552,-396,-7336,256,-2905,3977,2025-01-29 10:39:58,
-9480,256,-7180,683,-2879,4042,2025-01-29 10:39:58,0.0
-8484,724,-6988,889,-2159,4172,2025-01-29 10:39:58,0.0
-7820,1344,-6780,894,-844,3919,2025-01-29 10:39:58,0.0
-7756,1548,-6648,762,713,3484,2025-01-29 10:39:58,0.0
-8376,1768,-7052,533,2253,2967,2025-01-29 10:39:58,0.0
-9268,1912,-7104,501,2763,2592,2025-01-29 10:39:58,0.0
-10444,1484,-7184,493,2306,2381,2025-01-29 10:39:58,0.0
-10724,1036,-7024,688,1186,2152,2025-01-29 10:39:58,0.0
-10520,840,-7280,869,89,1845,2025-01-29 10:39:58,0.0
-9984,564,-6376,1194,-803,1170,2025-01-29 10:39:58,0.0
-9336,396,-6300,1537,-742,639,2025-01-29 10:39:58,0.0
-9252,232,-6308,1851,-279,279,2025-01-29 10:39:58,0.0
-9832,296,-6196,2110,307,104,2025-01-29 10:39:58,0.0
-10364,372,-6352,2255,258,4,2025-01-29 10:39:58,0.0
-10960,544,-6256,2420,-149,-118,2025-01-29 10:39:58,0.0
-11480,824,-6992,2342,-541,-332,2025-01-29 10:39:58,0.0
-12568,1324,-6180,2248,-945,-218,2025-01-29 10:39:58,0.0
-13008,1532,-6404,2025,-1836,11,2025-01-29 10:39:58,0.0
-13152,1392,-6444,1846,-3082,152,2025-01-29 10:39:58,0.0
-12084,1388,-6612,1885,-4038,33,2025-01-29 10:39:58,0.0
-11716,1032,-6400,2008,-3510,-237,2025-01-29 10:39:59,0.0
-11568,984,-6732,1817,-2118,-17,2025-01-29 10:39:59,0.0
-11676,772,-7320,1212,-349,765,2025-01-29 10:39:59,0.0
-11196,816,-7508,680,1122,1480,2025-01-29 10:39:59,0.0
-11028,1004,-6956,902,2484,1349,2025-01-29 10:39:59,0.0
-12800,128,-6116,1754,3671,65,2025-01-29 10:39:59,0.0
-16084,-2368,-6420,2416,3589,64,2025-01-29 10:39:59,0.0
-17024,-2684,-8036,3288,2606,1148,2025-01-29 10:39:59,0.0
-16720,172,-10364,3710,1087,2287,2025-01-29 10:39:59,0.0
-15204,2720,-11324,2429,109,2914,2025-01-29 10:39:59,0.0
-13380,3744,-10168,814,-956,2435,2025-01-29 10:39:59,0.0
-11616,4248,-9848,-71,-2223,1296,2025-01-29 10:39:59,0.0
-10252,3932,-9976,-707,-2493,79,2025-01-29 10:39:59,0.0
-9756,2428,-8916,-1377,-1556,-1316,2025-01-29 10:39:59,0.0
-10300,948,-7524,-1461,-1225,-1786,2025-01-29 10:39:59,0.0
-9832,432,-6708,-1254,-1882,-1825,2025-01-29 10:39:59,0.0
-8776,-40,-7156,-1082,-2487,-2077,2025-01-29 10:39:59,0.0
-8288,-1388,-7940,-1084,-2194,-2597,2025-01-29 10:39:59,0.0
-8692,-2084,-8524,-827,-721,-2710,2025-01-29 10:39:59,0.0
-8924,-3176,-8276,-436,1125,-2326,2025-01-29 10:39:59,0.0
-8900,-3564,-7524,73,2028,-2034,2025-01-29 10:39:59,0.0
-9256,-3560,-7004,496,1712,-2067,2025-01-29 10:39:59,0.0
-9796,-2776,-7360,854,1198,-2227,2025-01-29 10:39:59,0.0
-10112,-1308,-8732,823,931,-2465,2025-01-29 10:39:59,0.0
-10300,84,-9572,119,860,-2964,2025-01-29 10:39:59,0.0
-11040,412,-9404,-847,684,-3499,2025-01-29 10:39:59,0.0
-11008,104,-9132,-1478,-82,-3916,2025-01-29 10:39:59,0.0
-10808,-612,-9240,-1775,-1170,-4164,2025-01-29 10:39:59,0.0
-10568,-1380,-8604,-2049,-2116,-4221,2025-01-29 10:39:59,0.0
-9952,-2012,-7548,-2246,-2517,-4160,2025-01-29 10:39:59,0.0
-9512,-2876,-7100,-2370,-1616,-4214,2025-01-29 10:39:59,0.0
-8700,-2884,-7468,-2333,-292,-4288,2025-01-29 10:39:59,0.0
-9080,-2956,-6516,-2287,1122,-4316,2025-01-29 10:39:59,0.0
-9656,-2848,-6440,-2275,1769,-4279,2025-01-29 10:39:59,0.0
-10172,-2600,-6848,-2248,1829,-4040,2025-01-29 10:39:59,0.0
-10692,-3024,-7524,-2444,1503,-3814,2025-01-29 10:39:59,0.0
-11596,-2956,-7680,-2641,839,-3400,2025-01-29 10:39:59,0.0
-11816,-2784,-7212,-2717,177,-2769,2025-01-29 10:39:59,0.0
-11576,-2848,-6752,-2828,-358,-2236,2025-01-29 10:39:59,0.0
-10992,-2900,-6324,-2711,-747,-1625,2025-01-29 10:39:59,0.0
-9988,-3132,-6136,-2671,-238,-1307,2025-01-29 10:39:59,0.0
-10548,-2776,-5428,-2687,580,-1233,2025-01-29 10:39:59,0.0
-10828,-2348,-5956,-2685,1195,-1056,2025-01-29 10:39:59,0.0
-11724,-1992,-6036,-2797,1364,-530,2025-01-29 10:39:59,0.0
-11792,-2140,-6060,-2900,1096,24,2025-01-29 10:39:59,0.0
-11488,-2572,-5908,-2981,856,258,2025-01-29 10:39:59,0.0
-11592,-2960,-5944,-2970,706,276,2025-01-29 10:39:59,0.0
-12280,-2668,-5548,-2905,1015,509,2025-01-29 10:39:59,0.0
-12024,-2188,-5896,-2878,1306,647,2025-01-29 10:39:59,0.0
-11412,-1792,-7028,-2853,1341,398,2025-01-29 10:39:59,0.0
-11680,-1328,-7272,-2905,1122,-787,2025-01-29 10:39:59,0.0
-13088,-880,-7032,-3499,874,-1192,2025-01-29 10:39:59,0.0
-13776,-496,-6568,-4157,843,-1230,2025-01-29 10:39:59,0.0
-14184,-472,-5896,-5093,259,-1255,2025-01-29 10:39:59,0.0
-13460,-1068,-7276,-5283,-461,-2030,2025-01-29 10:39:59,0.0
-13428,-2752,-8396,-4999,977,-3220,2025-01-29 10:39:59,0.0
-14012,-4980,-7568,-3335,3124,-4707,2025-01-29 10:39:59,0.0
-16060,-7308,-7612,-631,2673,-5102,2025-01-29 10:39:59,0.0
-18388,-8156,-9220,1549,-1366,-2114,2025-01-29 10:40:00,0.0
-18108,-7756,-9600,3017,-4032,2074,2025-01-29 10:40:00,0.0
-13164,-5768,-10492,3896,-5500,3718,2025-01-29 10:40:00,0.0
-11284,-3052,-10036,3966,-6946,3720,2025-01-29 10:40:00,0.0
-10188,-488,-9792,3679,-8334,4613,2025-01-29 10:40:00,0.0
-8600,1096,-9620,2747,-8382,5729,2025-01-29 10:40:00,0.0
-6416,2224,-9696,1737,-7076,5961,2025-01-29 10:40:00,0.0
-4756,2876,-10056,695,-4273,4824,2025-01-29 10:40:00,0.0
-4860,3300,-9236,147,366,2349,2025-01-29 10:40:00,0.0
-7236,2412,-9192,-635,3456,416,2025-01-29 10:40:00,0.0
-10420,704,-8700,-1586,4057,804,2025-01-29 10:40:00,0.0
-11144,-1292,-8356,-1651,2660,2047,2025-01-29 10:40:00,0.0
-11000,-1876,-7512,-1077,844,2658,2025-01-29 10:40:00,0.0
-10316,-1888,-6964,-324,-442,2637,2025-01-29 10:40:00,0.0
-10116,-1220,-6940,370,-741,2685,2025-01-29 10:40:00,0.0
-9300,-664,-7412,904,-369,2937,2025-01-29 10:40:00,0.0
-8840,-60,-7496,1082,624,2748,2025-01-29 10:40:00,0.0
-9808,736,-6348,1043,2183,2529,2025-01-29 10:40:00,0.0
-10848,332,-6472,1002,2598,2418,2025-01-29 10:40:00,0.0
-12256,-192,-5848,1102,1657,2662,2025-01-29 10:40:00,0.0
-12208,116,-6336,1230,634,3259,2025-01-29 10:40:00,0.0
-11648,616,-6248,1404,99,3709,2025-01-29 10:40:00,
-10828,1080,-6328,1733,27,3617,2025-01-29 10:40:00,0.0
-10040,1092,-6764,2029,396,3175,2025-01-29 10:40:00,0.0
-10100,724,-5768,2388,774,2696,2025-01-29 10:40:00,0.0
-9844,388,-5316,2710,895,2297,2025-01-29 10:40:00,0.0
-10008,292,-5412,2941,887,1968,2025-01-29 10:40:00,0.0
-9784,568,-6136,3199,1331,1671,2025-01-29 10:40:00,0.0
-10428,1816,-6456,3122,1718,1524,2025-01-29 10:40:00,0.0
-10896,2660,-7172,2585,1914,1303,2025-01-29 10:40:00,0.0
-11476,2808,-6720,2059,1549,859,2025-01-29 10:40:00,0.0
-11620,2056,-6608,1820,387,114,2025-01-29 10:40:00,0.0
-11520,916,-6004,2078,-1254,-437,2025-01-29 10:40:00,0.0
-10468,496,-5736,2443,-2218,-806,2025-01-29 10:40:00,0.0
-9876,624,-5624,2777,-1666,-1111,2025-01-29 10:40:00,0.0
-10500,776,-6156,2770,-374,-950,2025-01-29 10:40:00,0.0
-11468,1052,-6264,2391,1283,-226,2025-01-29 10:40:00,0.0
-12900,1064,-6700,2014,1521,164,2025-01-29 10:40:00,0.0
-13784,872,-6196,1972,983,426,2025-01-29 10:40:00,0.0
-14012,548,-6108,2335,-681,487,2025-01-29 10:40:00,0.0
-13492,1052,-5700,2581,-2249,459,2025-01-29 10:40:00,0.0
-13316,500,-6164,2520,-2288,419,2025-01-29 10:40:00,0.0
-13608,-124,-7884,2455,57,928,2025-01-29 10:40:00,0.0
-14220,-340,-9268,2241,3250,1576,2025-01-29 10:40:00,0.0
-15360,692,-10288,1617,5193,2158,2025-01-29 10:40:00,0.0
-16628,2312,-10084,434,5176,2926,2025-01-29 10:40:00,0.0
-16208,3500,-9868,-872,2622,3138,2025-01-29 10:40:00,0.0
-15312,3980,-10736,-1487,-407,2386,2025-01-29 10:40:00,0.0
-14224,3976,-11472,-2359,-2373,1374,2025-01-29 10:40:00,0.0
-12024,3120,-9632,-3249,-4007,181,2025-01-29 10:40:00,0.0
-9776,1744,-8508,-2793,-5404,-1120,2025-01-29 10:40:00,0.0
-7908,232,-8024,-2106,-6075,-2000,2025-01-29 10:40:00,0.0
-6348,-1448,-7012,-1095,-5097,-2839,2025-01-29 10:40:00,0.0
-5688,-2240,-7300,-159,-2808,-3274,2025-01-29 10:40:00,0.0
-5688,-2904,-8284,329,301,-3348,2025-01-29 10:40:00,0.0
-6544,-3440,-8580,675,3932,-3164,2025-01-29 10:40:00,0.0
-8112,-2660,-8976,810,6083,-2575,2025-01-29 10:40:00,0.0
-9532,-1584,-8684,670,6537,-2203,2025-01-29 10:40:00,0.0
-11164,-760,-8672,573,5504,-2331,2025-01-29 10:40:00,0.0
-12420,-692,-8788,347,2999,-2478,2025-01-29 10:40:00,0.0
-13376,-1040,-8444,99,159,-2416,2025-01-29 10:40:00,0.0
-12996,-1352,-8112,227,-1611,-2341,2025-01-29 10:40:00,0.0
-11904,-1504,-8308,350,-2923,-2721,2025-01-29 10:40:01,0.0
-10760,-1144,-7884,484,-3923,-3147,2025-01-29 10:40:01,0.0
-9716,-788,-7364,441,-3968,-3230,2025-01-29 10:40:01,0.0
-8664,-472,-6896,-32,-2926,-3216,2025-01-29 10:40:01,0.0
-8252,-900,-6436,-623,-621,-3342,2025-01-29 10:40:01,0.0
-8588,-1404,-6024,-845,1855,-3496,2025-01-29 10:40:01,0.0
-9272,-1776,-5852,-987,3025,-3650,2025-01-29 10:40:01,0.0
-10256,-1988,-5524,-1017,3040,-3833,2025-01-29 10:40:01,0.0
-11496,-2116,-5668,-1001,2498,-3732,2025-01-29 10:40:01,0.0
-11748,-2500,-6188,-1187,1322,-3059,2025-01-29 10:40:01,0.0
-11612,-2992,-6392,-1345,625,-2473,2025-01-29 10:40:01,0.0
-11540,-3256,-6116,-1545,294,-1787,2025-01-29 10:40:01,0.0
-11124,-2900,-6048,-1761,223,-1094,2025-01-29 10:40:01,0.0
-10664,-2168,-6148,-2063,462,-690,2025-01-29 10:40:01,0.0
-10972,-1492,-6544,-2479,863,-364,2025-01-29 10:40:01,0.0
-11032,-1700,-6632,-2882,1191,-69,2025-01-29 10:40:01,0.0
-11476,-1696,-6164,-3004,1347,-13,2025-01-29 10:40:01,0.0
-11804,-1848,-5612,-3062,1296,-6,2025-01-29 10:40:01,0.0
-11952,-2032,-6048,-3018,870,-2,2025-01-29 10:40:01,0.0
-11772,-1996,-6500,-2902,749,-148,2025-01-29 10:40:01,0.0
-11556,-1592,-6328,-2955,857,-478,2025-01-29 10:40:01,0.0
-11364,-1344,-5936,-2960,866,-887,2025-01-29 10:40:01,0.0
-11152,-1276,-5908,-2796,944,-1343,2025-01-29 10:40:01,0.0
-11248,-1332,-6428,-2654,1239,-1867,2025-01-29 10:40:01,0.0
-10836,-1364,-6992,-2594,1819,-2641,2025-01-29 10:40:01,0.0
-11640,-1132,-6832,-3168,2590,-3611,2025-01-29 10:40:01,0.0
-12412,-752,-6956,-3584,2300,-4443,2025-01-29 10:40:01,0.0
-13300,-812,-8840,-3403,2166,-4934,2025-01-29 10:40:01,0.0
-13632,-2196,-9856,-3282,3405,-5419,2025-01-29 10:40:01,0.0
-14096,-4440,-10712,-2767,3449,-6196,2025-01-29 10:40:01,0.0
-15476,-6464,-10032,-1682,2293,-6119,2025-01-29 10:40:01,0.0
-16960,-7500,-9628,-567,-401,-4523,2025-01-29 10:40:01,0.0
-16852,-7432,-9664,242,-3266,-1873,2025-01-29 10:40:01,0.0
-14312,-5248,-10060,567,-4635,214,2025-01-29 10:40:01,0.0
-11384,-3012,-10784,-30,-5274,1079,2025-01-29 10:40:01,0.0
-9504,-1560,-10856,-770,-5370,1441,2025-01-29 10:40:01,0.0
-7984,-124,-11040,-1611,-5114,1754,2025-01-29 10:40:01,0.0
-6212,1412,-10252,-2496,-4588,1858,2025-01-29 10:40:01,0.0
-4928,2020,-9108,-3023,-3377,1220,2025-01-29 10:40:01,0.0
-4484,1148,-7988,-3223,-1000,-264,2025-01-29 10:40:01,0.0
-6256,-84,-7428,-2723,2238,-1708,2025-01-29 10:40:01,0.0
-9804,-1308,-8232,-1972,5406,-1758,2025-01-29 10:40:01,0.0
-12164,-1476,-9348,-1665,6349,-1188,2025-01-29 10:40:01,0.0
-14436,-2024,-9544,-1887,4627,-215,2025-01-29 10:40:01,0.0
-15824,-1996,-8796,-1608,755,1390,2025-01-29 10:40:01,0.0
-14384,-1748,-9136,-1125,-3357,2958,2025-01-29 10:40:01,0.0
-12164,-1596,-8808,-847,-5155,3590,2025-01-29 10:40:01,0.0
-9696,-1048,-8112,-340,-5670,4026,2025-01-29 10:40:01,0.0
-7572,-668,-7532,88,-4862,4047,2025-01-29 10:40:01,0.0
-6496,-484,-6460,501,-2365,3790,2025-01-29 10:40:01,0.0
-6544,-88,-5932,967,849,3267,2025-01-29 10:40:01,0.0
-7488,392,-6056,1244,3643,2627,2025-01-29 10:40:01,0.0
-9396,744,-6724,1257,4758,2045,2025-01-29 10:40:01,0.0
-11028,1072,-7436,1062,4391,1838,2025-01-29 10:40:01,0.0
-12328,1344,-7236,839,2388,1656,2025-01-29 10:40:01,0.0
-12244,1280,-7212,787,-138,1479,2025-01-29 10:40:01,0.0
-11180,1140,-7008,848,-1858,1031,2025-01-29 10:40:01,0.0
-9768,580,-6860,938,-2276,495,2025-01-29 10:40:01,0.0
-9264,16,-6200,1050,-1467,188,2025-01-29 10:40:01,0.0
-9656,-384,-5748,1370,132,-122,2025-01-29 10:40:01,
-10520,-628,-5600,1638,1351,-380,2025-01-29 10:40:01,0.0
-11936,-572,-5956,1922,1370,-462,2025-01-29 10:40:02,0.0
-12880,-116,-6308,2016,538,-392,2025-01-29 10:40:02,0.0
-13032,328,-6648,1965,-1091,-277,2025-01-29 10:40:02,0.0
-12492,300,-6816,1988,-2585,-275,2025-01-29 10:40:02,0.0
-11872,276,-6164,2211,-3397,-259,2025-01-29 10:40:02,0.0
-11140,340,-5972,2356,-3630,-88,2025-01-29 10:40:02,0.0
-10608,496,-5844,2679,-2927,90,2025-01-29 10:40:02,0.0
-10308,-4,-4976,3121,-1171,134,2025-01-29 10:40:02,0.0
-10588,-608,-4616,3631,616,297,2025-01-29 10:40:02,0.0
-11292,-584,-5240,4109,2151,547,2025-01-29 10:40:02,0.0
-12260,-308,-5928,4337,2850,782,2025-01-29 10:40:02,0.0
-13204,-228,-6208,4452,2883,1122,2025-01-29 10:40:02,0.0
-13836,-104,-6652,4540,2383,1595,2025-01-29 10:40:02,0.0
-13836,20,-6648,4586,1498,2224,2025-01-29 10:40:02,0.0
-13676,192,-6456,4656,849,2819,2025-01-29 10:40:02,0.0
-13296,-432,-7464,4630,917,3330,2025-01-29 10:40:02,0.0
-12844,-748,-8552,4561,1731,3570,2025-01-29 10:40:02,0.0
-12980,332,-9936,4277,2957,3329,2025-01-29 10:40:02,0.0
-13728,1708,-11288,3365,3047,2990,2025-01-29 10:40:02,0.0
-14296,2584,-11292,2345,1718,2583,2025-01-29 10:40:02,0.0
-14112,2572,-11152,1446,-321,1977,2025-01-29 10:40:02,0.0
-13700,1864,-11364,438,-1698,1390,2025-01-29 10:40:02,0.0
-12432,300,-9968,-40,-2477,911,2025-01-29 10:40:02,0.0
-10668,-1176,-8564,91,-3237,206,2025-01-29 10:40:02,0.0
-9124,-1804,-7412,902,-3465,-565,2025-01-29 10:40:02,0.0
-8012,-2476,-7016,1545,-3321,-925,2025-01-29 10:40:02,0.0
-6900,-3600,-6884,2149,-2862,-1195,2025-01-29 10:40:02,0.0
-6700,-4796,-6516,3094,-932,-1172,2025-01-29 10:40:02,0.0
-7080,-5044,-6904,3678,1308,-522,2025-01-29 10:40:02,0.0
-8124,-4272,-7484,3677,3698,32,2025-01-29 10:40:02,0.0
-9184,-2912,-8920,3012,4854,-43,2025-01-29 10:40:02,0.0
-10916,-1864,-9036,2347,4799,-455,2025-01-29 10:40:02,0.0
-12384,-1352,-9344,2092,4044,-879,2025-01-29 10:40:02,0.0
-12844,-1428,-9772,1753,1580,-1331,2025-01-29 10:40:02,0.0
-12824,-2156,-9292,1561,-963,-1614,2025-01-29 10:40:02,0.0
-11792,-2668,-9204,1522,-2293,-1566,2025-01-29 10:40:02,0.0
-10484,-3204,-8380,1290,-2686,-1640,2025-01-29 10:40:02,0.0
-9124,-3632,-7700,1261,-2048,-1714,2025-01-29 10:40:02,0.0
-8388,-3648,-7764,1162,-784,-1636,2025-01-29 10:40:02,0.0
-8120,-3324,-7308,877,615,-1613,2025-01-29 10:40:02,0.0
-8436,-3036,-7356,574,1821,-1800,2025-01-29 10:40:02,0.0
-9536,-2728,-7144,285,2634,-1824,2025-01-29 10:40:02,0.0
-10620,-2512,-7068,-22,2708,-1786,2025-01-29 10:40:02,0.0
-11396,-2320,-7120,-444,2168,-1809,2025-01-29 10:40:02,0.0
-11508,-2580,-7736,-810,1083,-1542,2025-01-29 10:40:02,0.0
-11880,-3032,-7000,-1011,142,-1129,2025-01-29 10:40:02,0.0
-10828,-3268,-7492,-1261,-496,-905,2025-01-29 10:40:02,0.0
-10436,-3236,-7708,-1443,-430,-694,2025-01-29 10:40:02,0.0
-9704,-3068,-8020,-1569,298,-518,2025-01-29 10:40:02,0.0
-9520,-2800,-7976,-1684,1338,-602,2025-01-29 10:40:02,0.0
-12044,-2864,-8256,-2067,542,-555,2025-01-29 10:40:02,0.0
-11632,-3572,-8192,-2145,-705,-104,2025-01-29 10:40:02,0.0
-11064,-3568,-7692,-2195,-1053,170,2025-01-29 10:40:02,0.0
-10304,-3684,-7316,-2229,-734,298,2025-01-29 10:40:02,0.0
-9976,-3364,-7176,-2194,80,187,2025-01-29 10:40:02,0.0
-10520,-2740,-7204,-2390,572,12,2025-01-29 10:40:02,0.0
-11036,-1936,-7836,-2653,619,-10,2025-01-29 10:40:02,0.0
-11396,-1220,-8944,-3258,684,12,2025-01-29 10:40:03,0.0
-11280,-1668,-8940,-3428,589,-87,2025-01-29 10:40:03,0.0
-11324,-2528,-8936,-3780,152,20,2025-01-29 10:40:03,0.0
-11100,-3736,-8280,-3765,-286,518,2025-01-29 10:40:03,0.0
-10416,-3988,-8308,-3360,-485,426,2025-01-29 10:40:03,0.0
-10716,-3044,-8092,-2889,-184,201,2025-01-29 10:40:03,0.0
-11240,-2116,-8276,-2507,61,427,2025-01-29 10:40:03,0.0
-10788,-1448,-8100,-2287,-70,567,2025-01-29 10:40:03,0.0
-10504,-1232,-8008,-2072,-379,451,2025-01-29 10:40:03,0.0
-10328,-1648,-7876,-1962,-131,682,2025-01-29 10:40:03,0.0
-9892,-2088,-7840,-1688,115,833,2025-01-29 10:40:03,0.0
-9544,-1976,-8144,-1422,365,687,2025-01-29 10:40:03,0.0
-9620,-1680,-8384,-1216,551,354,2025-01-29 10:40:03,0.0
-9880,-1448,-8400,-986,511,84,2025-01-29 10:40:03,0.0
-10092,-836,-8272,-738,441,-107,2025-01-29 10:40:03,0.0
-10308,-236,-8556,-645,450,-190,2025-01-29 10:40:03,0.0
-10492,120,-8960,-824,385,-157,2025-01-29 10:40:03,0.0
-10652,-176,-8988,-1098,240,48,2025-01-29 10:40:03,0.0
-10556,-940,-8604,-1161,261,162,2025-01-29 10:40:03,0.0
-10456,-1308,-8340,-989,453,61,2025-01-29 10:40:03,0.0
-10648,-1048,-8080,-569,748,-176,2025-01-29 10:40:03,0.0
-11080,-660,-7988,-187,822,-382,2025-01-29 10:40:03,0.0
-11372,-444,-8260,181,542,-230,2025-01-29 10:40:03,0.0
-11612,-172,-7964,387,464,24,2025-01-29 10:40:03,0.0
-11584,-208,-7988,446,744,359,2025-01-29 10:40:03,0.0
-11276,-348,-7608,511,897,463,2025-01-29 10:40:03,0.0
-10840,-24,-7312,663,457,342,2025-01-29 10:40:03,0.0
-10292,20,-7336,658,193,210,2025-01-29 10:40:03,0.0
-10056,212,-7748,654,201,64,2025-01-29 10:40:03,0.0
-10080,544,-8056,437,524,59,2025-01-29 10:40:03,0.0
-10260,724,-8204,187,898,-14,2025-01-29 10:40:03,0.0
-10628,560,-8024,-16,1086,-146,2025-01-29 10:40:03,0.0
-11104,488,-8048,-202,982,-231,2025-01-29 10:40:03,0.0
-11372,408,-8020,-395,646,-362,2025-01-29 10:40:03,0.0
-11392,368,-8212,-564,68,-430,2025-01-29 10:40:03,0.0
-11072,252,-8148,-695,-416,-482,2025-01-29 10:40:03,0.0
-10824,-124,-8008,-808,-320,-540,2025-01-29 10:40:03,0.0
-10544,-448,-8016,-846,132,-570,2025-01-29 10:40:03,0.0
-10592,-788,-8112,-759,623,-625,2025-01-29 10:40:03,0.0
-10984,-948,-8044,-582,711,-641,2025-01-29 10:40:03,0.0
-11372,-780,-7920,-474,425,-624,2025-01-29 10:40:03,0.0
-11376,-688,-7916,-468,52,-629,2025-01-29 10:40:03,
-11504,-528,-7740,-524,-264,-525,2025-01-29 10:40:03,0.0
-10992,-472,-7984,-561,-376,-436,2025-01-29 10:40:03,0.0
-10700,-732,-7588,-537,26,-395,2025-01-29 10:40:03,0.0
-10712,-1160,-7536,-381,420,-322,2025-01-29 10:40:03,0.0
-10820,-1160,-7612,-227,680,-305,2025-01-29 10:40:03,0.0
-11188,-992,-7776,-190,645,-260,2025-01-29 10:40:03,0.0
-11284,-764,-7888,-162,418,-194,2025-01-29 10:40:03,0.0
-11088,-752,-8004,-133,68,-133,2025-01-29 10:40:03,0.0
-10848,-760,-7704,-50,62,-120,2025-01-29 10:40:03,0.0
-10648,-960,-7724,117,308,-153,2025-01-29 10:40:03,0.0
-10672,-1000,-7796,250,678,-209,2025-01-29 10:40:03,0.0
-10780,-1032,-7612,347,848,-286,2025-01-29 10:40:03,0.0
-10964,-904,-7988,362,772,-293,2025-01-29 10:40:03,0.0
-11116,-836,-8012,309,595,-278,2025-01-29 10:40:03,0.0
-10996,-868,-7780,250,405,-229,2025-01-29 10:40:03,0.0
-10712,-908,-7932,216,396,-201,2025-01-29 10:40:03,0.0
-10660,-1032,-8036,201,442,-152,2025-01-29 10:40:03,0.0
-10824,-1144,-8132,160,570,-83,2025-01-29 10:40:03,0.0
-10768,-1000,-8000,151,771,-90,2025-01-29 10:40:03,0.0
-11092,-924,-8004,92,794,-117,2025-01-29 10:40:04,0.0
-11312,-836,-8088,68,512,-110,2025-01-29 10:40:04,0.0
-11284,-764,-8140,24,130,-75,2025-01-29 10:40:04,0.0
-10944,-836,-8012,8,-92,-34,2025-01-29 10:40:04,0.0
-10664,-912,-7988,3,-76,-77,2025-01-29 10:40:04,0.0
-10528,-1020,-8136,5,118,-130,2025-01-29 10:40:04,0.0
-10600,-996,-8188,-17,295,-193,2025-01-29 10:40:04,0.0
-10868,-812,-8076,2,318,-190,2025-01-29 10:40:04,0.0
-11024,-848,-7928,-57,180,-182,2025-01-29 10:40:04,0.0
-10764,-936,-8008,-62,110,-174,2025-01-29 10:40:04,0.0
-10696,-996,-7960,-91,125,-192,2025-01-29 10:40:04,0.0
-10708,-804,-8072,-150,220,-191,2025-01-29 10:40:04,0.0
-10804,-772,-7992,-237,303,-242,2025-01-29 10:40:04,0.0
-10672,-996,-8092,-208,214,-271,2025-01-29 10:40:04,0.0
-10944,-932,-7788,-208,189,-268,2025-01-29 10:40:04,0.0
-10856,-1004,-8056,-172,252,-251,2025-01-29 10:40:04,0.0
-10808,-1040,-8076,-175,319,-242,2025-01-29 10:40:04,0.0
-10852,-968,-7956,-139,264,-202,2025-01-29 10:40:04,0.0
-10800,-1020,-8172,-165,234,-204,2025-01-29 10:40:04,0.0
-10744,-940,-7960,-111,280,-208,2025-01-29 10:40:04,0.0
-10808,-872,-8036,-133,261,-204,2025-01-29 10:40:04,0.0
-10972,-1004,-8232,-87,209,-205,2025-01-29 10:40:04,0.0
-10676,-924,-7948,-134,136,-155,2025-01-29 10:40:04,0.0
-10812,-1052,-8100,-80,179,-148,2025-01-29 10:40:04,0.0
-10776,-980,-7924,-35,181,-133,2025-01-29 10:40:04,0.0
-10708,-960,-8100,-69,330,-141,2025-01-29 10:40:04,0.0
-10772,-968,-8076,-86,392,-159,2025-01-29 10:40:04,0.0
-10916,-1076,-7980,-69,385,-112,2025-01-29 10:40:04,0.0
-10880,-1020,-7972,-11,324,-95,2025-01-29 10:40:04,0.0
-10812,-796,-8068,-24,299,-101,2025-01-29 10:40:04,0.0
-10724,-920,-7892,-52,321,-166,2025-01-29 10:40:04,0.0
-10696,-808,-8152,-71,345,-167,2025-01-29 10:40:04,0.0
-10748,-960,-8084,-102,340,-227,2025-01-29 10:40:04,0.0
-10960,-1064,-8076,-108,350,-222,2025-01-29 10:40:04,0.0
-10932,-892,-8132,-115,269,-185,2025-01-29 10:40:04,0.0
-10892,-928,-8004,-139,203,-162,2025-01-29 10:40:04,0.0
-10904,-948,-8032,-146,242,-161,2025-01-29 10:40:04,0.0
-10768,-1168,-8036,-128,284,-133,2025-01-29 10:40:04,0.0
-10788,-1056,-8016,-75,313,-132,2025-01-29 10:40:04,0.0
-10728,-1016,-7956,-80,295,-110,2025-01-29 10:40:04,0.0
-10628,-944,-8132,-69,315,-155,2025-01-29 10:40:04,0.0
-10464,-1000,-8416,-66,432,-153,2025-01-29 10:40:04,0.0
-10392,-1036,-8640,-55,479,-111,2025-01-29 10:40:04,0.0
-10240,-1160,-8852,-34,504,-55,2025-01-29 10:40:04,0.0
-10004,-1216,-9044,-32,610,-107,2025-01-29 10:40:04,0.0
-9996,-1124,-9388,-87,498,-348,2025-01-29 10:40:04,0.0
-10064,-1328,-9748,-43,319,-403,2025-01-29 10:40:04,0.0
-10100,-1312,-10168,97,598,-547,2025-01-29 10:40:04,0.0
-10712,-1124,-10388,120,1139,-558,2025-01-29 10:40:04,0.0
-10996,-1016,-10500,-113,1347,-474,2025-01-29 10:40:04,0.0
-11188,-1112,-10732,-436,737,-358,2025-01-29 10:40:04,0.0
-10944,-804,-10760,-734,-883,-37,2025-01-29 10:40:04,0.0
-9568,-820,-10596,-950,-2546,59,2025-01-29 10:40:04,0.0
-7704,-552,-10000,-1246,-3914,33,2025-01-29 10:40:04,0.0
-5784,-1064,-8684,-1488,-5314,189,2025-01-29 10:40:04,0.0
-3772,-836,-6012,-1443,-6790,714,2025-01-29 10:40:05,0.0
-720,-240,-3432,-1004,-8577,1475,2025-01-29 10:40:05,0.0
1400,-464,-2272,-882,-9444,1924,2025-01-29 10:40:05,0.0
1820,-236,-372,-1386,-8082,1896,2025-01-29 10:40:05,0.0
1656,168,2632,-1530,-3627,860,2025-01-29 10:40:05,0.0
56,236,4992,-587,3641,-522,2025-01-29 10:40:05,0.0
-1496,-1560,3680,556,10518,-1436,2025-01-29 10:40:05,0.0
-2580,-2808,828,1051,15016,-2272,2025-01-29 10:40:05,0.0
-6096,-2452,-1820,2088,17882,-2911,2025-01-29 10:40:05,0.0
-14524,-1692,-7616,2020,17407,-1086,2025-01-29 10:40:05,0.0
-13536,-864,-6824,1043,8538,1514,2025-01-29 10:40:05,0.0
-13240,436,-7740,803,-609,2222,2025-01-29 10:40:05,0.0
-11204,492,-8236,-191,-7103,2450,2025-01-29 10:40:05,0.0
-9036,272,-7460,-927,-9108,2285,2025-01-29 10:40:05,0.0
-7920,352,-5820,-798,-7462,1976,2025-01-29 10:40:05,0.0
-8120,900,-5508,-558,-4810,1436,2025-01-29 10:40:05,0.0
-8708,1284,-7616,-959,-3083,1457,2025-01-29 10:40:05,0.0
-9744,1288,-7656,-1734,-2506,2088,2025-01-29 10:40:05,0.0
-10068,128,-5876,-2042,-2232,2018,2025-01-29 10:40:05,0.0
-11396,-1064,-5408,-1540,-2299,388,2025-01-29 10:40:05,0.0
-14932,-908,-7280,-1634,-3124,-462,2025-01-29 10:40:05,0.0
-14744,-224,-8848,-1978,-5361,-360,2025-01-29 10:40:05,0.0
-14060,828,-10196,-2931,-7087,563,2025-01-29 10:40:05,0.0
-9324,404,-7100,-3549,-5795,871,2025-01-29 10:40:05,0.0
-9372,-1180,-5556,-2964,-4939,143,2025-01-29 10:40:05,0.0
-11004,-2456,-5648,-2241,-3681,-1041,2025-01-29 10:40:05,
-13460,-1620,-7296,-1926,-2268,-2142,2025-01-29 10:40:05,0.0
-14556,-148,-9116,-2063,-1726,-2452,2025-01-29 10:40:05,0.0
-14740,172,-9892,-2576,-2794,-2012,2025-01-29 10:40:05,0.0
-15400,528,-9432,-2730,-4033,-1792,2025-01-29 10:40:05,0.0
-17684,708,-8536,-3414,-4415,-1493,2025-01-29 10:40:05,0.0
-17584,-16,-7732,-3664,-4014,-2080,2025-01-29 10:40:05,0.0
-17636,-432,-8836,-3745,-1191,-2707,2025-01-29 10:40:05,0.0
-19784,-1600,-8788,-3937,-3136,-2454,2025-01-29 10:40:05,0.0
-21796,-2128,-9176,-3443,-1619,-1502,2025-01-29 10:40:05,0.0
-24356,-2668,-7920,-1973,-3104,-136,2025-01-29 10:40:05,0.0
-24928,-2608,-9144,-1054,-5440,845,2025-01-29 10:40:05,0.0
-23768,-976,-10160,-1220,-6210,1744,2025-01-29 10:40:05,0.0
-21104,2088,-9492,-1613,-6904,1898,2025-01-29 10:40:05,0.0
-17600,3412,-7572,-1744,-7717,1498,2025-01-29 10:40:05,0.0
-17080,3096,-5636,-1785,-6101,881,2025-01-29 10:40:05,0.0
-14788,1064,-4828,-1634,-4699,225,2025-01-29 10:40:05,0.0
-14356,-1244,-5928,-746,-1004,43,2025-01-29 10:40:05,0.0
-14584,-1420,-6540,-207,743,195,2025-01-29 10:40:05,0.0
-14936,-192,-6852,-43,962,447,2025-01-29 10:40:05,0.0
-14396,1452,-6580,-419,1296,522,2025-01-29 10:40:05,0.0
-13052,1672,-6396,-828,1494,27,2025-01-29 10:40:05,0.0
-12788,1000,-5760,-1093,1316,2,2025-01-29 10:40:05,0.0
-13704,168,-6288,-938,1497,337,2025-01-29 10:40:05,0.0
-12432,-352,-5480,-664,619,764,2025-01-29 10:40:05,0.0
-11820,-296,-4376,-219,532,504,2025-01-29 10:40:05,0.0
-11120,204,-4252,48,498,284,2025-01-29 10:40:05,0.0
-10672,1172,-4436,-86,89,91,2025-01-29 10:40:05,0.0
-10840,1524,-4136,-361,522,204,2025-01-29 10:40:05,0.0
-11284,1336,-3876,-556,700,464,2025-01-29 10:40:05,0.0
-10928,1080,-3768,-549,954,597,2025-01-29 10:40:05,0.0
-10992,1340,-4036,-531,1066,376,2025-01-29 10:40:05,0.0
-10468,1392,-4024,-532,1022,-33,2025-01-29 10:40:05,0.0
-10968,1116,-4004,-597,619,-336,2025-01-29 10:40:05,0.0
-11044,764,-3872,-513,570,-526,2025-01-29 10:40:05,0.0
-11860,320,-4396,-415,668,-435,2025-01-29 10:40:05,0.0
-12276,132,-4828,-259,442,-174,2025-01-29 10:40:05,0.0
-11904,232,-4676,-12,328,-165,2025-01-29 10:40:05,0.0
-11928,1016,-4944,120,260,-407,2025-01-29 10:40:05,0.0
-12536,1580,-5292,50,0,-573,2025-01-29 10:40:05,0.0
-13008,1484,-5140,-62,-254,-618,2025-01-29 10:40:05,0.0
-12840,1348,-4904,-181,-548,-573,2025-01-29 10:40:05,0.0
-12672,1020,-4852,-247,-274,-592,2025-01-29 10:40:05,0.0
-12512,288,-4900,-207,-141,-509,2025-01-29 10:40:06,0.0
-12120,80,-4656,-34,-147,-447,2025-01-29 10:40:06,0.0
-12256,-108,-4808,141,-19,-495,2025-01-29 10:40:06,0.0
-13004,-220,-4748,284,-39,-329,2025-01-29 10:40:06,0.0
-13252,272,-5232,297,-37,-234,2025-01-29 10:40:06,0.0
-13172,1028,-5428,69,-160,-280,2025-01-29 10:40:06,0.0
-12984,548,-4528,-95,-727,-227,2025-01-29 10:40:06,0.0
-12752,480,-4512,-141,-842,-103,2025-01-29 10:40:07,0.0
-12836,344,-4572,-184,-726,31,2025-01-29 10:40:07,0.0
-13032,388,-4364,-234,-227,354,2025-01-29 10:40:07,0.0
-12904,268,-4148,-236,133,546,2025-01-29 10:40:07,0.0
-12824,316,-3952,176,-471,-534,2025-01-29 10:40:07,0.0
-12868,508,-3940,151,-533,-606,2025-01-29 10:40:07,0.0
-13216,632,-3748,128,-558,-690,2025-01-29 10:40:07,0.0
-13300,432,-4136,73,-467,-587,2025-01-29 10:40:07,0.0
-13264,388,-3996,2,-530,-439,2025-01-29 10:40:07,0.0
-12740,252,-3660,40,195,-412,2025-01-29 10:40:07,0.0
-13004,16,-3728,37,226,-407,2025-01-29 10:40:07,0.0
-13332,-20,-3584,52,285,-359,2025-01-29 10:40:07,0.0
-13332,100,-3644,86,167,-268,2025-01-29 10:40:07,0.0
-13248,316,-3712,63,26,-195,2025-01-29 10:40:07,0.0
-13048,348,-3592,8,-48,-211,2025-01-29 10:40:07,0.0
-12860,508,-3596,-36,-79,-291,2025-01-29 10:40:07,0.0
-12864,484,-3588,-96,-10,-385,2025-01-29 10:40:07,0.0
-12796,280,-3784,-160,82,-372,2025-01-29 10:40:07,0.0
-12864,156,-3764,-190,123,-325,2025-01-29 10:40:07,0.0
-13052,176,-3608,-177,71,-308,2025-01-29 10:40:07,0.0
-13012,76,-3608,-109,48,-298,2025-01-29 10:40:07,0.0
-13028,16,-3808,-53,-18,-271,2025-01-29 10:40:07,0.0
-12992,376,-3832,-35,-91,-252,2025-01-29 10:40:07,0.0
-12916,436,-3760,-76,-106,-281,2025-01-29 10:40:07,0.0
-12916,176,-3676,-95,-90,-309,2025-01-29 10:40:07,0.0
-12892,144,-3656,-68,-47,-307,2025-01-29 10:40:07,0.0
-13104,232,-3684,-87,-8,-229,2025-01-29 10:40:07,0.0
-12936,232,-3576,-61,4,-181,2025-01-29 10:40:07,0.0
-13060,420,-3704,-71,36,-136,2025-01-29 10:40:07,0.0
-13172,304,-3752,-84,-41,-155,2025-01-29 10:40:07,0.0
-13100,360,-3748,-67,-121,-166,2025-01-29 10:40:07,0.0
-13272,152,-3492,-77,-211,-155,2025-01-29 10:40:07,0.0
-12920,-16,-3376,3,-249,-177,2025-01-29 10:40:07,0.0
-12924,36,-3256,55,-180,-229,2025-01-29 10:40:07,0.0
-12908,128,-3636,94,-105,-324,2025-01-29 10:40:07,0.0
-12800,196,-3568,107,-90,-356,2025-01-29 10:40:07,0.0
-13016,52,-3328,187,16,-299,2025-01-29 10:40:07,0.0
-13120,-116,-3576,255,5,-294,2025-01-29 10:40:07,0.0
-13120,-8,-3380,254,-43,-309,2025-01-29 10:40:07,0.0
-12972,340,-3572,225,-31,-346,2025-01-29 10:40:07,0.0
-12988,420,-3592,167,92,-413,2025-01-29 10:40:07,0.0
-13012,284,-3584,35,173,-371,2025-01-29 10:40:07,0.0
-13100,44,-3696,-22,141,-260,2025-01-29 10:40:07,0.0
-12988,-196,-3580,7,35,-187,2025-01-29 10:40:07,0.0
-12884,-136,-3432,42,7,-258,2025-01-29 10:40:07,0.0
-13060,112,-3492,68,12,-339,2025-01-29 10:40:07,0.0
-13016,216,-3708,59,-44,-339,2025-01-29 10:40:07,0.0
-12984,112,-3724,15,-61,-305,2025-01-29 10:40:07,0.0
-13028,148,-3620,-64,6,-303,2025-01-29 10:40:07,0.0
-12920,100,-3500,-91,20,-319,2025-01-29 10:40:07,0.0
-13000,-92,-3408,-113,25,-309,2025-01-29 10:40:07,
-13120,-44,-3476,-106,-2,-288,2025-01-29 10:40:07,0.0
-13156,-72,-3604,-140,21,-253,2025-01-29 10:40:07,0.0
-13188,112,-3656,-150,-23,-250,2025-01-29 10:40:07,0.0
-13084,132,-3572,-210,-40,-274,2025-01-29 10:40:07,0.0
-12832,160,-3584,-250,-51,-336,2025-01-29 10:40:08,0.0
-12892,-44,-3436,-203,-59,-400,2025-01-29 10:40:08,0.0
-12820,-92,-3400,-143,-20,-319,2025-01-29 10:40:08,0.0
-13048,-124,-3384,-45,29,-250,2025-01-29 10:40:08,0.0
-13040,-120,-3612,-47,-73,-226,2025-01-29 10:40:08,0.0
-12956,12,-3480,-85,-115,-188,2025-01-29 10:40:08,0.0
-13124,236,-3308,-146,-106,-246,2025-01-29 10:40:08,0.0
-12920,356,-3432,-260,-20,-375,2025-01-29 10:40:08,0.0
-13268,32,-3360,-294,68,-314,2025-01-29 10:40:08,0.0
-13196,-140,-3220,-239,135,-299,2025-01-29 10:40:08,0.0
-13164,-212,-3356,-139,185,-248,2025-01-29 10:40:08,0.0
-13148,-196,-3360,-66,156,-202,2025-01-29 10:40:08,0.0
-13164,-64,-3316,-60,70,-193,2025-01-29 10:40:08,0.0
-13356,32,-3300,-99,74,-209,2025-01-29 10:40:08,0.0
-13332,76,-3176,-86,94,-198,2025-01-29 10:40:08,0.0
-13444,-40,-3104,35,380,-173,2025-01-29 10:40:08,0.0
-13764,-76,-3236,57,808,-50,2025-01-29 10:40:08,0.0
-14432,-320,-3416,171,1426,108,2025-01-29 10:40:08,0.0
-15512,-180,-3780,399,2221,120,2025-01-29 10:40:08,0.0
-16752,332,-4836,335,3073,384,2025-01-29 10:40:08,0.0
-17860,724,-5684,202,3719,719,2025-01-29 10:40:08,0.0
-18436,480,-5768,244,3592,993,2025-01-29 10:40:08,0.0
-18460,352,-5668,496,3669,745,2025-01-29 10:40:08,0.0
-19144,352,-6020,810,4226,310,2025-01-29 10:40:08,0.0
-19992,600,-6672,1171,4996,-105,2025-01-29 10:40:08,0.0
-20592,420,-7268,1413,5515,-98,2025-01-29 10:40:08,0.0
-20308,728,-6996,1327,5810,10,2025-01-29 10:40:08,0.0
-19924,792,-6980,1171,6427,40,2025-01-29 10:40:08,0.0
-19108,208,-7124,1156,7292,139,2025-01-29 10:40:08,0.0
-17944,-376,-7156,1236,7821,85,2025-01-29 10:40:08,0.0
-17100,-376,-7208,1191,7915,125,2025-01-29 10:40:08,0.0
-16448,16,-6988,924,7640,36,2025-01-29 10:40:08,0.0
-15668,-64,-6516,816,7186,-169,2025-01-29 10:40:08,0.0
-15300,-268,-6164,1055,7309,-327,2025-01-29 10:40:08,0.0
-14468,-336,-6304,1083,7172,-256,2025-01-29 10:40:08,0.0
-13800,-628,-6932,1131,6975,-62,2025-01-29 10:40:08,0.0
-14036,-840,-7012,915,6992,199,2025-01-29 10:40:08,0.0
-13344,-680,-7348,779,7095,476,2025-01-29 10:40:08,0.0
-12964,-292,-7564,655,6833,627,2025-01-29 10:40:08,0.0
-12692,-136,-7876,684,6639,376,2025-01-29 10:40:08,0.0
-11816,-156,-8056,830,6527,-239,2025-01-29 10:40:08,0.0
-12496,20,-9440,682,5715,-287,2025-01-29 10:40:08,0.0
-11904,-48,-10344,48,5653,197,2025-01-29 10:40:08,0.0
-11376,-324,-10796,-620,5418,41,2025-01-29 10:40:08,0.0
-12356,60,-10420,-928,3944,-140,2025-01-29 10:40:08,0.0
-12788,512,-10500,-1064,2348,345,2025-01-29 10:40:08,0.0
-12136,196,-9676,-1253,-49,837,2025-01-29 10:40:08,0.0
-11644,160,-9132,-1280,-2418,704,2025-01-29 10:40:08,0.0
-9472,536,-7992,-1083,-5755,211,2025-01-29 10:40:08,0.0
-8700,972,-6388,-880,-8481,-237,2025-01-29 10:40:08,0.0
-7036,1152,-5280,-1079,-11398,-115,2025-01-29 10:40:08,0.0
-6196,1088,-4132,-1117,-12900,117,2025-01-29 10:40:08,0.0
-5040,736,-3396,-1009,-12423,21,2025-01-29 10:40:08,0.0
-4964,628,-2824,-810,-9464,-392,2025-01-29 10:40:08,0.0
-4632,560,-2156,-412,-5119,-866,2025-01-29 10:40:08,0.0
-3712,108,-2560,-127,-1527,-1083,2025-01-29 10:40:08,0.0
-2700,-176,-2592,-244,-816,-1003,2025-01-29 10:40:08,0.0
-2620,-68,-1864,-262,-1093,-899,2025-01-29 10:40:08,0.0
-3148,104,-1068,55,-316,-850,2025-01-29 10:40:08,0.0
-3704,-108,-580,525,1530,-988,2025-01-29 10:40:08,0.0
-3292,-340,-1144,868,2533,-1304,2025-01-29 10:40:09,0.0
-3376,-844,-2348,1164,1856,-1517,2025-01-29 10:40:09,0.0
-3536,-1224,-4288,1398,565,-1319,2025-01-29 10:40:09,0.0
-4020,-1056,-5680,1660,234,-724,2025-01-29 10:40:09,0.0
-4992,-888,-5484,1833,2180,-231,2025-01-29 10:40:09,0.0
-6264,-800,-5108,2071,6186,-139,2025-01-29 10:40:09,0.0
-7752,-1488,-6180,1827,9159,-478,2025-01-29 10:40:09,0.0
-9580,-1752,-6936,1627,10440,-910,2025-01-29 10:40:09,0.0
-11720,-960,-8492,1946,10228,-1262,2025-01-29 10:40:09,0.0
-14404,476,-10880,2462,9544,-1453,2025-01-29 10:40:09,0.0
-16380,1668,-12976,2181,7822,-1508,2025-01-29 10:40:09,0.0
-16380,2792,-13604,557,1955,-1025,2025-01-29 10:40:09,0.0
-14128,2388,-10668,-1026,-7387,-392,2025-01-29 10:40:09,0.0
-11228,1108,-8268,-1428,-11321,-546,2025-01-29 10:40:09,0.0
-7460,-56,-8980,-2424,-11358,-1052,2025-01-29 10:40:09,0.0
-6552,-800,-9816,-3298,-7358,-1554,2025-01-29 10:40:09,0.0
-7264,-1768,-9312,-3286,-416,-1695,2025-01-29 10:40:09,0.0
-7548,-2508,-8184,-2473,4897,-1886,2025-01-29 10:40:09,0.0
-10756,-2716,-6852,-1474,7201,-2502,2025-01-29 10:40:09,0.0
-13460,-2268,-6728,-995,6812,-2752,2025-01-29 10:40:09,0.0
-16192,-1480,-6980,-796,3976,-1912,2025-01-29 10:40:09,0.0
-15992,-568,-7832,-727,-694,-326,2025-01-29 10:40:09,0.0
-13464,-104,-7496,-693,-4496,121,2025-01-29 10:40:09,0.0
-10788,-576,-6632,-948,-6046,-387,2025-01-29 10:40:09,0.0
-8708,-928,-6496,-900,-5072,-680,2025-01-29 10:40:09,0.0
-8008,-1076,-7264,-610,-1795,-770,2025-01-29 10:40:09,0.0
-8340,-1452,-8028,-609,3097,-1029,2025-01-29 10:40:09,0.0
-10324,-908,-7276,-497,5547,-886,2025-01-29 10:40:09,0.0
-11804,-648,-7368,-751,5587,-738,2025-01-29 10:40:09,0.0
-13188,-676,-7332,-774,3604,-692,2025-01-29 10:40:09,0.0
-13780,-1160,-7104,-672,49,-374,2025-01-29 10:40:09,0.0
-12812,-1524,-7116,-347,-2245,225,2025-01-29 10:40:09,0.0
-11112,-1484,-7132,-107,-2194,321,2025-01-29 10:40:09,0.0
-10300,-1388,-7020,132,-1133,224,2025-01-29 10:40:09,0.0
-9876,-1212,-7200,505,395,91,2025-01-29 10:40:09,0.0
-10192,-780,-7488,593,1493,0,2025-01-29 10:40:09,
-10584,-560,-7800,477,1804,-186,2025-01-29 10:40:09,0.0
-11572,-564,-7968,249,1485,-217,2025-01-29 10:40:09,0.0
-12112,-728,-7712,134,876,-162,2025-01-29 10:40:09,0.0
-12384,-628,-7736,26,-187,12,2025-01-29 10:40:09,0.0
-11864,-384,-7348,-159,-969,65,2025-01-29 10:40:09,0.0
-11360,-460,-6984,-242,-1223,8,2025-01-29 10:40:09,0.0
-11032,-544,-6984,-284,-908,-60,2025-01-29 10:40:09,0.0
-11048,-564,-6992,-357,-394,-162,2025-01-29 10:40:09,0.0
-11328,-720,-6984,-260,-78,-12,2025-01-29 10:40:09,0.0
-11368,-884,-7188,-181,63,145,2025-01-29 10:40:09,0.0
-11468,-928,-6952,-94,-88,87,2025-01-29 10:40:09,0.0
-11712,-912,-6812,85,-337,143,2025-01-29 10:40:09,0.0
-11304,-812,-7332,322,-663,254,2025-01-29 10:40:09,0.0
-10988,-620,-7580,451,-538,180,2025-01-29 10:40:09,0.0
-11060,-644,-7140,457,-108,78,2025-01-29 10:40:09,0.0
-11400,-780,-6960,572,60,133,2025-01-29 10:40:09,0.0
-11312,-724,-7220,587,-46,212,2025-01-29 10:40:09,0.0
-11276,-556,-7428,599,-186,280,2025-01-29 10:40:09,0.0
-11104,-496,-7564,492,-250,164,2025-01-29 10:40:09,0.0
-11028,-308,-7436,406,-128,72,2025-01-29 10:40:09,0.0
-11108,-372,-7476,314,12,-28,2025-01-29 10:40:09,0.0
-11204,-396,-7452,245,-8,-47,2025-01-29 10:40:09,0.0
-11292,-480,-7456,94,17,-102,2025-01-29 10:40:09,0.0
-11392,-568,-7264,48,42,-77,2025-01-29 10:40:09,0.0
-11100,-612,-7264,-20,69,-59,2025-01-29 10:40:09,0.0
-11244,-676,-6684,-116,217,-72,2025-01-29 10:40:09,0.0
-11208,-820,-7128,-58,508,-111,2025-01-29 10:40:10,0.0
-11272,-664,-7340,45,750,-119,2025-01-29 10:40:10,0.0
-11496,-712,-7172,98,510,-114,2025-01-29 10:40:10,0.0
-11588,-600,-6980,140,233,-109,2025-01-29 10:40:10,0.0
-11512,-628,-7200,134,-31,-107,2025-01-29 10:40:10,0.0
-11264,-768,-7116,150,-3,-68,2025-01-29 10:40:10,0.0
-11124,-780,-7288,210,237,-25,2025-01-29 10:40:10,0.0
-11140,-616,-7512,215,477,6,2025-01-29 10:40:10,0.0
-11244,-636,-7428,218,675,-22,2025-01-29 10:40:10,0.0
-11332,-644,-7416,228,608,-88,2025-01-29 10:40:10,0.0
-11600,-640,-7376,243,332,-68,2025-01-29 10:40:10,0.0
-11540,-680,-7160,261,84,86,2025-01-29 10:40:10,0.0
-11436,-464,-6952,256,46,180,2025-01-29 10:40:10,0.0
-11208,-232,-7256,195,62,145,2025-01-29 10:40:10,0.0
-11216,-400,-7532,118,32,130,2025-01-29 10:40:10,0.0
-11188,-368,-7376,182,130,63,2025-01-29 10:40:10,0.0
-11340,-340,-7132,182,177,78,2025-01-29 10:40:10,0.0
-11288,-440,-7040,245,92,90,2025-01-29 10:40:10,0.0
-11220,-324,-7248,365,88,87,2025-01-29 10:40:10,0.0
-11236,-324,-7248,326,231,16,2025-01-29 10:40:10,0.0
-11228,-140,-7092,311,451,23,2025-01-29 10:40:10,0.0
-11076,-168,-7060,257,648,25,2025-01-29 10:40:10,0.0
-11068,-48,-7112,198,719,-129,2025-01-29 10:40:10,0.0
-11172,120,-7492,27,643,-300,2025-01-29 10:40:10,0.0
-11396,288,-7464,-284,485,-402,2025-01-29 10:40:10,0.0
-11484,368,-7144,-564,369,-409,2025-01-29 10:40:10,0.0
-11180,508,-7520,-767,356,-599,2025-01-29 10:40:10,0.0
-10996,344,-7824,-878,640,-937,2025-01-29 10:40:10,0.0
-11176,-52,-7592,-1018,915,-1246,2025-01-29 10:40:10,0.0
-11580,-404,-6984,-938,994,-1377,2025-01-29 10:40:10,0.0
-11652,-208,-6632,-770,986,-1375,2025-01-29 10:40:10,0.0
-11824,92,-7060,-801,596,-1522,2025-01-29 10:40:10,0.0
-11880,656,-8028,-973,-314,-1481,2025-01-29 10:40:10,0.0
-11180,1108,-9056,-1351,-1033,-1652,2025-01-29 10:40:10,0.0
-10368,1244,-9368,-2200,-1404,-2346,2025-01-29 10:40:10,0.0
-10184,528,-8756,-2751,-1480,-2893,2025-01-29 10:40:10,0.0
-10208,92,-8392,-3018,-1176,-3079,2025-01-29 10:40:10,0.0
-9908,-404,-7988,-3217,-826,-3187,2025-01-29 10:40:10,0.0
-9872,-944,-7804,-3397,-450,-3170,2025-01-29 10:40:10,0.0
-9848,-1284,-7792,-3716,46,-3102,2025-01-29 10:40:10,0.0
-10176,-1736,-7504,-4100,442,-2899,2025-01-29 10:40:10,0.0
-10640,-2232,-7412,-4367,893,-2665,2025-01-29 10:40:10,0.0
-10840,-2020,-7608,-4382,1389,-2924,2025-01-29 10:40:10,0.0
-11260,-1656,-8204,-4419,1747,-3552,2025-01-29 10:40:10,0.0
-11756,-1472,-8456,-4545,1575,-4020,2025-01-29 10:40:10,0.0
-12004,-1380,-7872,-4633,982,-4295,2025-01-29 10:40:10,0.0
-11888,-920,-7784,-4872,212,-4553,2025-01-29 10:40:10,0.0
-11148,-832,-8164,-5405,-145,-4994,2025-01-29 10:40:10,0.0
-10552,-1004,-8232,-5979,150,-5401,2025-01-29 10:40:10,0.0
-10512,-1352,-8164,-6441,610,-5768,2025-01-29 10:40:10,0.0
-10732,-1748,-8088,-6813,914,-6082,2025-01-29 10:40:10,0.0
-11024,-2060,-7876,-7131,813,-6368,2025-01-29 10:40:10,0.0
-11192,-2116,-7464,-7296,491,-6419,2025-01-29 10:40:10,0.0
-11188,-2040,-7476,-7528,-20,-6389,2025-01-29 10:40:10,0.0
-11072,-1940,-7772,-7890,-424,-6261,2025-01-29 10:40:10,0.0
-10968,-1768,-8108,-8345,-556,-6198,2025-01-29 10:40:10,0.0
-10900,-1816,-8048,-8814,-437,-6058,2025-01-29 10:40:10,0.0
-10492,-1756,-8016,-9190,-165,-6038,2025-01-29 10:40:10,0.0
-10328,-1692,-8064,-9528,-39,-6045,2025-01-29 10:40:11,0.0
-10364,-1740,-7804,-9763,19,-6102,2025-01-29 10:40:11,0.0
-10416,-1660,-8008,-9951,195,-6278,2025-01-29 10:40:11,0.0
-10784,-1924,-7884,-10050,260,-6373,2025-01-29 10:40:11,0.0
-11084,-2156,-7732,-10154,141,-6306,2025-01-29 10:40:11,0.0
-11012,-2288,-7588,-10210,-56,-6203,2025-01-29 10:40:11,0.0
-10980,-2572,-7872,-10271,-198,-6052,2025-01-29 10:40:11,0.0
-10804,-2844,-7796,-10240,-115,-5950,2025-01-29 10:40:11,0.0
-10720,-2732,-7756,-10280,321,-5984,2025-01-29 10:40:11,0.0
-10716,-2148,-7552,-10413,634,-5998,2025-01-29 10:40:11,0.0
-10560,-1876,-7644,-10593,971,-5930,2025-01-29 10:40:11,0.0
-10624,-1876,-7952,-10900,1164,-5983,2025-01-29 10:40:11,0.0
-10736,-2008,-7772,-11060,1244,-6303,2025-01-29 10:40:11,0.0
-11116,-1884,-7776,-11190,907,-6541,2025-01-29 10:40:11,0.0
-11572,-1576,-8256,-11422,244,-6471,2025-01-29 10:40:11,0.0
-11020,-1320,-9220,-11811,-307,-6268,2025-01-29 10:40:11,
-10752,-1628,-9200,-12230,-346,-6290,2025-01-29 10:40:11,0.0
-10464,-2612,-8932,-12285,74,-6633,2025-01-29 10:40:11,0.0
-10860,-3084,-8300,-12188,291,-6910,2025-01-29 10:40:11,0.0
-11140,-3584,-7676,-12134,150,-7004,2025-01-29 10:40:11,0.0
-11340,-3760,-7824,-11945,-428,-7047,2025-01-29 10:40:11,0.0
-11116,-3784,-8556,-11686,-888,-7171,2025-01-29 10:40:11,0.0
-10956,-3452,-8928,-11238,-1775,-7412,2025-01-29 10:40:11,0.0
-10752,-3684,-9676,-10987,-2869,-7266,2025-01-29 10:40:11,0.0
-9964,-2700,-9412,-10453,-3807,-6369,2025-01-29 10:40:11,0.0
-8876,-1600,-9812,-10290,-3511,-6233,2025-01-29 10:40:11,0.0
-8380,-524,-9968,-10670,-3071,-6240,2025-01-29 10:40:11,0.0
-8176,72,-10040,-11329,-2881,-6121,2025-01-29 10:40:11,0.0
-7500,136,-9960,-11887,-2498,-6154,2025-01-29 10:40:11,0.0
-7196,80,-9772,-12362,-1655,-6493,2025-01-29 10:40:11,0.0
-7612,12,-9112,-12586,-415,-7142,2025-01-29 10:40:11,0.0
-8212,-468,-8720,-12603,828,-8002,2025-01-29 10:40:11,0.0
-10164,-784,-8792,-12234,1838,-8756,2025-01-29 10:40:11,0.0
-12316,-812,-9004,-11798,2046,-8576,2025-01-29 10:40:11,0.0
-13452,-956,-9536,-11635,1332,-7484,2025-01-29 10:40:11,0.0
-13284,-400,-9788,-11947,425,-6281,2025-01-29 10:40:11,0.0
-12608,428,-9336,-12480,27,-5450,2025-01-29 10:40:11,0.0
-11740,1400,-8992,-13029,64,-4823,2025-01-29 10:40:11,0.0
-10536,2020,-8668,-13489,354,-4773,2025-01-29 10:40:11,0.0
-9712,2076,-7760,-13622,929,-5563,2025-01-29 10:40:11,0.0
-10360,1364,-7116,-13416,1399,-6315,2025-01-29 10:40:11,0.0
-10924,940,-6776,-13005,1020,-6434,2025-01-29 10:40:11,0.0
-11024,544,-6680,-12558,352,-6510,2025-01-29 10:40:11,0.0
-10948,372,-6132,-11992,-203,-6674,2025-01-29 10:40:11,0.0
-10656,240,-5940,-11417,-422,-6853,2025-01-29 10:40:11,0.0
-10200,388,-6728,-10916,-528,-7015,2025-01-29 10:40:11,0.0
-10024,708,-7816,-10806,-103,-7114,2025-01-29 10:40:11,0.0
-10072,1400,-8616,-11045,831,-7132,2025-01-29 10:40:11,0.0
-10212,1700,-8460,-11446,1533,-7346,2025-01-29 10:40:11,0.0
-10804,1992,-8104,-11632,1495,-7676,2025-01-29 10:40:11,0.0
-10776,1584,-8072,-11757,754,-8043,2025-01-29 10:40:11,0.0
-10776,1268,-7904,-11764,139,-8376,2025-01-29 10:40:11,0.0
-10692,1284,-7728,-11754,-117,-8516,2025-01-29 10:40:11,0.0
-10400,1524,-7600,-11848,-140,-8639,2025-01-29 10:40:11,0.0
-10300,1748,-7580,-12029,174,-8810,2025-01-29 10:40:11,0.0
-9944,1764,-7872,-12209,280,-9044,2025-01-29 10:40:11,0.0
-9796,1336,-8528,-12446,550,-9376,2025-01-29 10:40:11,0.0
-10008,1088,-8184,-12633,923,-9634,2025-01-29 10:40:11,0.0
-10144,416,-7896,-12658,1158,-9836,2025-01-29 10:40:11,0.0
-10596,-80,-7264,-12353,1228,-9802,2025-01-29 10:40:11,0.0
-10808,28,-6936,-11848,1305,-9415,2025-01-29 10:40:11,0.0
-10480,372,-7224,-11398,1367,-9100,2025-01-29 10:40:11,0.0
-10152,452,-7844,-11093,1218,-8992,2025-01-29 10:40:11,0.0
-10148,300,-8244,-10834,1495,-9011,2025-01-29 10:40:11,0.0
-10508,468,-8668,-10495,2165,-8886,2025-01-29 10:40:11,0.0
-10812,744,-8544,-10281,2140,-8864,2025-01-29 10:40:12,0.0
-11312,564,-8816,-10084,1370,-8778,2025-01-29 10:40:12,0.0
-11244,248,-8296,-9804,532,-8668,2025-01-29 10:40:12,0.0
-11040,-728,-8164,-9440,187,-8616,2025-01-29 10:40:12,0.0
-10976,-1020,-7876,-8957,304,-8378,2025-01-29 10:40:12,0.0
-11172,-1368,-8036,-8546,841,-7895,2025-01-29 10:40:12,0.0
-11344,-1928,-7884,-8177,1491,-7480,2025-01-29 10:40:12,0.0
-11900,-2424,-7172,-7498,1475,-7174,2025-01-29 10:40:12,0.0
-12188,-3036,-6908,-6834,677,-6792,2025-01-29 10:40:12,0.0
-11756,-2636,-6712,-5885,-625,-6303,2025-01-29 10:40:12,0.0
-10476,-1152,-6528,-5034,-1660,-6317,2025-01-29 10:40:12,0.0
-9804,40,-6936,-4163,-1104,-6476,2025-01-29 10:40:12,0.0
-10496,720,-8296,-3793,1115,-6353,2025-01-29 10:40:12,0.0
-11768,720,-9876,-4121,2773,-5895,2025-01-29 10:40:12,0.0
-13188,-80,-9372,-4740,2576,-5338,2025-01-29 10:40:12,0.0
-13160,-992,-8156,-4997,117,-4717,2025-01-29 10:40:12,0.0
-12488,-2128,-6572,-5065,-3297,-4149,2025-01-29 10:40:12,0.0
-11196,-2856,-6140,-5075,-4383,-3521,2025-01-29 10:40:12,0.0
-9572,-2088,-6412,-5097,-2735,-3030,2025-01-29 10:40:12,0.0
-8744,-1128,-7064,-5060,98,-3447,2025-01-29 10:40:12,0.0
-9120,4,-7752,-5045,2220,-4472,2025-01-29 10:40:12,0.0
-10588,444,-8704,-5585,3168,-5687,2025-01-29 10:40:12,0.0
-12032,-116,-8252,-6228,3479,-6910,2025-01-29 10:40:12,0.0
-13260,-1236,-7812,-6561,2523,-7878,2025-01-29 10:40:12,0.0
-13860,-2544,-8016,-6593,347,-8207,2025-01-29 10:40:12,0.0
-13268,-3188,-8260,-6457,-1988,-7930,2025-01-29 10:40:12,0.0
-11148,-2816,-7856,-6342,-3117,-7432,2025-01-29 10:40:12,0.0
-9168,-2312,-7448,-6535,-2735,-7425,2025-01-29 10:40:12,0.0
-8344,-2096,-6968,-6734,-1149,-7603,2025-01-29 10:40:12,0.0
-8852,-1988,-6812,-6986,713,-7644,2025-01-29 10:40:12,0.0
-9632,-2344,-6968,-7131,1750,-7711,2025-01-29 10:40:12,0.0
-10572,-2956,-6876,-6930,1401,-7734,2025-01-29 10:40:12,0.0
-11504,-3408,-6920,-6630,784,-7520,2025-01-29 10:40:12,0.0
-11928,-3736,-7016,-6319,224,-7043,2025-01-29 10:40:12,0.0
-12636,-3544,-6628,-6004,-536,-6163,2025-01-29 10:40:12,0.0
-12128,-3208,-6236,-5746,-1146,-5209,2025-01-29 10:40:12,0.0
-11320,-3000,-5968,-5569,-1481,-4817,2025-01-29 10:40:12,0.0
-10772,-3056,-6040,-5345,-1495,-4616,2025-01-29 10:40:12,0.0
-10728,-3120,-6068,-5175,-1130,-4271,2025-01-29 10:40:12,0.0
-10548,-3368,-5832,-4938,-561,-3734,2025-01-29 10:40:12,0.0
-10428,-3656,-5936,-4559,23,-3204,2025-01-29 10:40:12,0.0
-10748,-3984,-6208,-4156,602,-2801,2025-01-29 10:40:12,0.0
-10968,-3580,-6584,-3844,1103,-2404,2025-01-29 10:40:12,0.0
-11460,-2784,-6256,-3789,1427,-2244,2025-01-29 10:40:12,0.0
-12064,-1840,-6112,-3767,1257,-2278,2025-01-29 10:40:12,0.0
-12444,-1564,-6540,-4091,587,-2384,2025-01-29 10:40:12,0.0
-12668,-2164,-6412,-4429,-444,-2411,2025-01-29 10:40:12,0.0
-12080,-2684,-6836,-4481,-1341,-2408,2025-01-29 10:40:12,0.0
-11244,-3244,-6868,-4456,-1649,-2409,2025-01-29 10:40:12,0.0
-10364,-3360,-6076,-4328,-870,-2475,2025-01-29 10:40:12,0.0
-10024,-3200,-6252,-4186,598,-2680,2025-01-29 10:40:12,
-10588,-3184,-6360,-4280,1899,-2882,2025-01-29 10:40:12,0.0
-11756,-3248,-6560,-4298,2437,-2896,2025-01-29 10:40:12,0.0
-12636,-3224,-6508,-4283,1854,-3042,2025-01-29 10:40:12,0.0
-13496,-3432,-6192,-4325,619,-3272,2025-01-29 10:40:12,0.0
-14036,-3600,-5488,-4409,-695,-2899,2025-01-29 10:40:12,0.0
-13376,-3472,-6088,-4426,-1543,-2154,2025-01-29 10:40:12,0.0
-12320,-2920,-8884,-4142,-1342,-1929,2025-01-29 10:40:12,0.0
-12548,-3148,-10292,-4129,1825,-2609,2025-01-29 10:40:12,0.0
-12728,-4684,-8524,-2928,2885,-3643,2025-01-29 10:40:12,0.0
-13616,-6100,-8504,-1171,1391,-4774,2025-01-29 10:40:12,0.0
-16064,-6808,-9392,659,-1936,-4025,2025-01-29 10:40:13,0.0
-16740,-6284,-9868,1430,-3369,-1512,2025-01-29 10:40:13,0.0
-15300,-5100,-10024,1406,-3354,485,2025-01-29 10:40:13,0.0
-13152,-2920,-10800,410,-4096,1729,2025-01-29 10:40:13,0.0
-11176,-1696,-11856,-1239,-5424,2882,2025-01-29 10:40:13,0.0
-9096,-1156,-10608,-2615,-5367,4058,2025-01-29 10:40:13,0.0
-7564,-500,-10240,-2671,-4526,4789,2025-01-29 10:40:13,0.0
-6088,-132,-9712,-2649,-3515,4684,2025-01-29 10:40:13,0.0
-5056,-28,-8776,-2224,-2084,3771,2025-01-29 10:40:13,0.0
-5392,76,-7392,-1427,-40,2227,2025-01-29 10:40:13,0.0
-6940,-32,-7512,-1099,2133,1294,2025-01-29 10:40:13,0.0
-9104,-744,-7496,-1624,3728,1546,2025-01-29 10:40:13,0.0
-10824,-1248,-7524,-1646,4097,2269,2025-01-29 10:40:13,0.0
-11864,-1420,-8208,-1302,3468,2702,2025-01-29 10:40:13,0.0
-12588,-1224,-9292,-1076,1933,2848,2025-01-29 10:40:13,0.0
-13296,-504,-9356,-932,-231,3059,2025-01-29 10:40:13,0.0
-13292,176,-8900,-472,-2847,3487,2025-01-29 10:40:13,0.0
-11668,340,-8420,-355,-4423,3753,2025-01-29 10:40:13,0.0
-9980,140,-7648,-306,-4863,3889,2025-01-29 10:40:13,0.0
-8524,-8,-7040,-213,-3991,3948,2025-01-29 10:40:13,0.0
-7560,44,-6064,-44,-2279,3895,2025-01-29 10:40:13,0.0
-7708,116,-5616,182,-468,3747,2025-01-29 10:40:13,0.0
-8348,732,-5832,312,1061,3669,2025-01-29 10:40:13,0.0
-9304,1308,-6072,383,2197,3752,2025-01-29 10:40:13,0.0
-10068,1772,-6332,785,2320,3708,2025-01-29 10:40:13,0.0
-10484,1336,-6580,1400,1359,3158,2025-01-29 10:40:13,0.0
-10844,788,-6748,1797,273,2542,2025-01-29 10:40:13,0.0
-11016,464,-5500,2336,-583,2037,2025-01-29 10:40:13,0.0
-10708,368,-4108,3040,-1600,1328,2025-01-29 10:40:13,0.0
-10628,412,-4376,3730,-2810,548,2025-01-29 10:40:13,0.0
-10508,224,-4684,4458,-3893,-136,2025-01-29 10:40:13,0.0
-10276,564,-4912,4843,-4373,-513,2025-01-29 10:40:13,0.0
-9608,1884,-5104,4770,-3933,-525,2025-01-29 10:40:13,0.0
-9400,2764,-6312,4309,-2346,-502,2025-01-29 10:40:13,0.0
-10004,2944,-6764,3580,435,-329,2025-01-29 10:40:13,0.0
-10940,2108,-5524,3310,3512,-324,2025-01-29 10:40:13,0.0
-13088,340,-4672,3625,4975,-515,2025-01-29 10:40:13,0.0
-14792,-696,-5440,4131,4651,-590,2025-01-29 10:40:13,0.0
-15776,-344,-7380,4428,2289,-262,2025-01-29 10:40:13,0.0
-14884,968,-8640,4207,-640,475,2025-01-29 10:40:13,0.0
-13644,1728,-7384,3656,-2216,433,2025-01-29 10:40:13,0.0
-14024,1392,-5480,3272,-1421,426,2025-01-29 10:40:13,0.0
-15380,-152,-5264,3142,750,1312,2025-01-29 10:40:13,0.0
-15076,-2188,-6256,3284,2736,2250,2025-01-29 10:40:13,0.0
-15004,-1864,-8276,3608,3341,2514,2025-01-29 10:40:13,0.0
-15564,-556,-11272,3923,3209,2722,2025-01-29 10:40:13,0.0
-16248,2144,-13876,2645,2945,3154,2025-01-29 10:40:13,0.0
-15480,4028,-14364,280,1353,3346,2025-01-29 10:40:13,0.0
-12860,4908,-12972,-2017,-1774,2541,2025-01-29 10:40:13,0.0
-10140,3908,-11096,-3391,-3988,1114,2025-01-29 10:40:13,0.0
-7076,1104,-8748,-3825,-5377,-603,2025-01-29 10:40:13,0.0
-5416,-1904,-6324,-2490,-4906,-1894,2025-01-29 10:40:13,0.0
-5276,-3892,-5968,-293,-2687,-2580,2025-01-29 10:40:13,0.0
-5368,-5172,-7408,1038,517,-2833,2025-01-29 10:40:13,0.0
-6436,-4936,-7964,1476,2384,-2800,2025-01-29 10:40:13,0.0
-8516,-3204,-8764,1751,3837,-2464,2025-01-29 10:40:13,0.0
-10356,-1280,-9884,1167,5162,-2234,2025-01-29 10:40:13,0.0
-11300,-464,-9620,140,4833,-2332,2025-01-29 10:40:13,0.0
-12364,-508,-8924,-702,2306,-2526,2025-01-29 10:40:13,0.0
-12616,-952,-8252,-1133,-712,-2668,2025-01-29 10:40:13,0.0
-11692,-1472,-8364,-995,-2644,-2750,2025-01-29 10:40:13,0.0
-10356,-1376,-8168,-822,-3281,-2949,2025-01-29 10:40:14,0.0
-8916,-1268,-7172,-878,-3319,-3242,2025-01-29 10:40:14,0.0
-7568,-1528,-7332,-1114,-2733,-3423,2025-01-29 10:40:14,0.0
-7416,-1680,-6848,-1357,-1066,-3461,2025-01-29 10:40:14,0.0
-7440,-1804,-6732,-1558,1737,-3508,2025-01-29 10:40:14,0.0
-8496,-1668,-6532,-1897,3631,-3569,2025-01-29 10:40:14,0.0
-9236,-1180,-7396,-2153,4106,-3593,2025-01-29 10:40:14,0.0
-10484,-1364,-7776,-2575,3905,-3621,2025-01-29 10:40:14,0.0
-11136,-1532,-7860,-2898,3160,-3460,2025-01-29 10:40:14,0.0
-11620,-2052,-7960,-3129,2565,-3182,2025-01-29 10:40:14,0.0
-11920,-2280,-7476,-3218,2032,-2746,2025-01-29 10:40:14,0.0
-12252,-2448,-6700,-3116,1149,-2301,2025-01-29 10:40:14,0.0
-11816,-2544,-6224,-2908,208,-1859,2025-01-29 10:40:14,0.0
-11428,-2328,-5912,-2771,-379,-1394,2025-01-29 10:40:14,0.0
-10652,-2300,-6572,-2891,-732,-759,2025-01-29 10:40:14,0.0
-10212,-2744,-7460,-3267,-320,15,2025-01-29 10:40:14,0.0
-10332,-2868,-6864,-3630,1345,373,2025-01-29 10:40:14,0.0
-11460,-2732,-6056,-3790,1842,320,2025-01-29 10:40:14,0.0
-12208,-2352,-6160,-3615,1182,198,2025-01-29 10:40:14,0.0
-12148,-1828,-6380,-3096,-24,135,2025-01-29 10:40:14,0.0
-11348,-1532,-6972,-2801,-793,-257,2025-01-29 10:40:14,0.0
-10724,-1628,-6664,-2640,-836,-1042,2025-01-29 10:40:14,0.0
-10940,-1908,-6356,-2593,-305,-1957,2025-01-29 10:40:14,0.0
-12224,-2112,-6156,-2880,422,-2821,2025-01-29 10:40:14,0.0
-13976,-1664,-6656,-3584,1062,-2700,2025-01-29 10:40:14,0.0
-14624,-1564,-7744,-4221,1325,-2428,2025-01-29 10:40:14,0.0
-14656,-2300,-9556,-4229,1232,-2456,2025-01-29 10:40:14,0.0
-14956,-4816,-9268,-3466,921,-2762,2025-01-29 10:40:14,0.0
-15948,-6956,-7604,-1252,-792,-3083,2025-01-29 10:40:14,
-16984,-7264,-8228,1167,-3370,-1873,2025-01-29 10:40:14,0.0
-16556,-5692,-9212,2554,-5817,614,2025-01-29 10:40:14,0.0
-13248,-4108,-9372,3447,-6858,1916,2025-01-29 10:40:14,0.0
-10584,-3076,-10220,3615,-6467,1952,2025-01-29 10:40:14,0.0
-8828,-1520,-10596,3125,-5387,1874,2025-01-29 10:40:14,0.0
-7244,828,-10928,1874,-4191,2059,2025-01-29 10:40:14,0.0
-6148,2416,-10780,506,-2492,2145,2025-01-29 10:40:14,0.0
-5420,3068,-10080,-391,-70,1768,2025-01-29 10:40:14,0.0
-5908,2764,-9908,-1028,2659,893,2025-01-29 10:40:14,0.0
-7996,1356,-9328,-1687,4868,269,2025-01-29 10:40:14,0.0
-10536,120,-8500,-1654,5696,324,2025-01-29 10:40:14,0.0
-12204,-616,-7884,-1245,4812,922,2025-01-29 10:40:14,0.0
-12496,-880,-8664,-863,2106,1445,2025-01-29 10:40:14,0.0
-12444,-1164,-8872,-799,-115,1887,2025-01-29 10:40:14,0.0
-11684,-500,-8472,-811,-1080,2269,2025-01-29 10:40:14,0.0
-10712,196,-8076,-845,-1649,2325,2025-01-29 10:40:14,0.0
-10052,640,-7464,-928,-1838,2213,2025-01-29 10:40:14,0.0
-9412,992,-6784,-975,-1640,2229,2025-01-29 10:40:14,0.0
-8540,1240,-6740,-968,-988,1931,2025-01-29 10:40:14,0.0
-8484,1568,-6412,-1009,107,1436,2025-01-29 10:40:14,0.0
-8188,1552,-6776,-1070,1083,910,2025-01-29 10:40:14,0.0
-9272,1280,-6488,-1015,1945,390,2025-01-29 10:40:14,0.0
-9816,832,-6420,-1026,2125,93,2025-01-29 10:40:14,0.0
-10172,800,-6236,-996,1927,-56,2025-01-29 10:40:14,0.0
-10216,1000,-6256,-843,1385,-307,2025-01-29 10:40:14,0.0
-9992,1212,-6296,-702,808,-888,2025-01-29 10:40:14,0.0
-10028,1184,-6456,-571,247,-1584,2025-01-29 10:40:14,0.0
-10496,968,-6080,-461,-88,-1965,2025-01-29 10:40:14,0.0
-10876,788,-6336,-347,-634,-1999,2025-01-29 10:40:14,0.0
-11148,820,-6584,-153,-1275,-1855,2025-01-29 10:40:14,0.0
-11772,496,-6840,-74,-1036,-1556,2025-01-29 10:40:14,0.0
-12292,68,-5744,12,-591,-1065,2025-01-29 10:40:14,0.0
-12568,-300,-5056,344,-866,-677,2025-01-29 10:40:14,0.0
-12924,-668,-5236,1039,-1087,-337,2025-01-29 10:40:15,0.0
-13380,-684,-5864,1735,-1326,320,2025-01-29 10:40:15,0.0
-13132,-112,-6648,2253,-1447,1241,2025-01-29 10:40:15,0.0
-13004,788,-7260,2223,-1040,2046,2025-01-29 10:40:15,0.0
-12976,1380,-6992,1942,-369,2458,2025-01-29 10:40:15,0.0
-13488,1324,-5408,1870,761,2522,2025-01-29 10:40:15,0.0
-13804,320,-3400,2401,1317,2400,2025-01-29 10:40:15,0.0
-13536,-740,-5324,3394,918,2527,2025-01-29 10:40:15,0.0
-13112,-1012,-7284,3629,1146,2615,2025-01-29 10:40:15,0.0
-14044,1392,-8872,2880,1894,2648,2025-01-29 10:40:15,0.0
-15096,3884,-10416,1586,3464,2888,2025-01-29 10:40:15,0.0
-15012,5192,-12196,-230,3893,2802,2025-01-29 10:40:15,0.0
-13460,5456,-13900,-2296,2002,1744,2025-01-29 10:40:15,0.0
-12104,4560,-13052,-3365,-766,-331,2025-01-29 10:40:15,0.0
-11924,2528,-11700,-3802,-2906,-1886,2025-01-29 10:40:15,0.0
-10912,936,-10656,-3952,-4156,-1827,2025-01-29 10:40:15,0.0
-8212,-1080,-9436,-3504,-5194,-1761,2025-01-29 10:40:15,0.0
-6652,-2800,-8064,-2608,-4993,-2162,2025-01-29 10:40:15,0.0
-6036,-4868,-7056,-1618,-3126,-2413,2025-01-29 10:40:15,0.0
-6820,-5784,-6708,-116,18,-2278,2025-01-29 10:40:15,0.0
-7912,-4960,-7940,1323,3076,-1651,2025-01-29 10:40:15,0.0
-8936,-3464,-8244,2247,4852,-1133,2025-01-29 10:40:15,0.0
-9660,-1876,-8692,2469,4554,-1136,2025-01-29 10:40:15,0.0
-10904,-840,-8856,2299,3423,-1314,2025-01-29 10:40:15,0.0
-11884,-624,-8612,2005,2158,-1294,2025-01-29 10:40:15,0.0
-12020,-1020,-8460,1880,726,-1188,2025-01-29 10:40:15,0.0
-11492,-1492,-8340,1925,-627,-1111,2025-01-29 10:40:15,0.0
-9980,-1780,-8232,1879,-1749,-1161,2025-01-29 10:40:15,0.0
-8840,-1576,-7572,1794,-2221,-1553,2025-01-29 10:40:15,0.0
-8424,-1308,-7472,1654,-1572,-1962,2025-01-29 10:40:15,0.0
-8148,-792,-7900,1067,328,-2479,2025-01-29 10:40:15,0.0
-8912,-908,-7612,374,2134,-2558,2025-01-29 10:40:15,0.0
-9904,-1332,-7212,12,2924,-2429,2025-01-29 10:40:15,0.0
-10732,-1880,-7048,-147,2904,-2418,2025-01-29 10:40:15,0.0
-11812,-2588,-7048,-108,2530,-2341,2025-01-29 10:40:15,0.0
-12572,-2816,-6864,-24,1496,-1784,2025-01-29 10:40:15,0.0
-12684,-2856,-6664,85,-36,-972,2025-01-29 10:40:15,0.0
-11252,-2600,-6704,156,-1092,-411,2025-01-29 10:40:15,0.0
-10148,-2108,-6408,-27,-1394,-273,2025-01-29 10:40:15,0.0
-9656,-1336,-6612,-275,-969,-229,2025-01-29 10:40:15,0.0
-9244,-664,-6908,-812,367,-299,2025-01-29 10:40:15,0.0
-9484,-624,-7104,-1594,1701,-439,2025-01-29 10:40:15,0.0
-10848,-1236,-6352,-2282,2500,-327,2025-01-29 10:40:15,0.0
-11452,-2068,-6200,-2513,2227,-169,2025-01-29 10:40:15,0.0
-12548,-2684,-6140,-2606,1498,-144,2025-01-29 10:40:15,0.0
-11900,-2656,-6532,-2688,582,-107,2025-01-29 10:40:15,0.0
-11268,-2072,-6832,-2579,31,-193,2025-01-29 10:40:15,0.0
-10928,-1492,-6940,-2791,584,-493,2025-01-29 10:40:15,0.0
-10924,-496,-6900,-3026,1144,-1001,2025-01-29 10:40:15,0.0
-11624,-208,-6916,-3485,1355,-1401,2025-01-29 10:40:15,0.0
-12156,-792,-7060,-3767,1385,-1649,2025-01-29 10:40:15,0.0
-12556,-2440,-6912,-3910,1546,-2155,2025-01-29 10:40:15,0.0
-13424,-3348,-6268,-3879,1459,-2396,2025-01-29 10:40:15,0.0
-14104,-3400,-6152,-3633,1051,-2150,2025-01-29 10:40:15,0.0
-13792,-3140,-8128,-3047,1082,-2328,2025-01-29 10:40:15,0.0
-13940,-4264,-8840,-2254,2458,-3047,2025-01-29 10:40:15,0.0
-13880,-5340,-9372,-954,1819,-3697,2025-01-29 10:40:15,0.0
-15364,-6332,-9816,434,234,-3337,2025-01-29 10:40:15,0.0
-16596,-5928,-9968,1267,-1752,-1141,2025-01-29 10:40:15,0.0
-14708,-4272,-10804,1746,-3656,1327,2025-01-29 10:40:15,0.0
-12292,-3204,-11248,1696,-4498,2154,2025-01-29 10:40:15,0.0
-10448,-2396,-11708,1509,-5244,2289,2025-01-29 10:40:16,0.0
-8724,-1680,-11292,1289,-6199,2375,2025-01-29 10:40:16,0.0
-6620,84,-10332,705,-7076,2180,2025-01-29 10:40:16,0.0
-4972,1916,-9948,-248,-6504,1686,2025-01-29 10:40:16,0.0
-4692,3588,-9412,-1456,-3348,947,2025-01-29 10:40:16,0.0
-4464,3856,-9196,-2194,1139,-382,2025-01-29 10:40:16,
-6212,2320,-9196,-2633,4799,-2019,2025-01-29 10:40:16,0.0
-9876,336,-8576,-2704,6844,-2496,2025-01-29 10:40:16,0.0
-12556,-948,-8556,-2508,7078,-1973,2025-01-29 10:40:16,0.0
-14508,-1948,-8176,-2318,4747,-950,2025-01-29 10:40:16,0.0
-15424,-2620,-7940,-1789,1059,649,2025-01-29 10:40:16,0.0
-14592,-2948,-7788,-768,-2599,2643,2025-01-29 10:40:16,0.0
-11960,-2416,-8004,435,-4261,3706,2025-01-29 10:40:16,0.0
-10092,-1332,-8020,1303,-4135,4267,2025-01-29 10:40:16,0.0
-9072,-528,-7404,1972,-3022,4692,2025-01-29 10:40:16,0.0
-8236,176,-6864,2613,-1137,4618,2025-01-29 10:40:16,0.0
-8368,700,-6784,3109,663,4169,2025-01-29 10:40:16,0.0
-9432,932,-7516,3539,1874,3731,2025-01-29 10:40:16,0.0
-10340,792,-8048,3519,2088,3600,2025-01-29 10:40:16,0.0
-11260,1032,-8096,3271,1208,3630,2025-01-29 10:40:16,0.0
-11040,1508,-7936,3072,-72,3494,2025-01-29 10:40:16,0.0
-10272,1836,-8192,2812,-1112,3152,2025-01-29 10:40:16,0.0
-9380,1608,-8056,2494,-1769,2668,2025-01-29 10:40:16,0.0
-8780,1368,-7740,2189,-1259,2178,2025-01-29 10:40:16,0.0
-8352,1048,-7320,1899,4,1728,2025-01-29 10:40:16,0.0
-8624,656,-7184,1814,1222,1057,2025-01-29 10:40:16,0.0
-9856,320,-7100,1733,1643,524,2025-01-29 10:40:16,0.0
-10948,640,-7404,1601,1115,271,2025-01-29 10:40:16,0.0
-11560,1048,-7520,1445,359,51,2025-01-29 10:40:16,0.0
-11676,1220,-7740,1278,-538,-135,2025-01-29 10:40:16,0.0
-11604,816,-6992,1346,-1281,-512,2025-01-29 10:40:16,0.0
-11340,452,-6404,1581,-2045,-832,2025-01-29 10:40:16,0.0
-10896,380,-6520,1759,-2100,-924,2025-01-29 10:40:16,0.0
-10516,656,-6728,1956,-1706,-929,2025-01-29 10:40:16,0.0
-10396,864,-6504,1873,-1030,-756,2025-01-29 10:40:16,0.0
-10576,672,-6268,1747,-279,-616,2025-01-29 10:40:16,0.0
-10760,-156,-5200,1716,440,-580,2025-01-29 10:40:16,0.0
-11308,-756,-4876,2241,764,-611,2025-01-29 10:40:16,0.0
-11584,-740,-6060,2760,896,-740,2025-01-29 10:40:16,0.0
-12344,-1004,-6156,3102,773,-764,2025-01-29 10:40:16,0.0
-12748,-756,-6176,3422,335,-490,2025-01-29 10:40:16,0.0
-12724,-108,-6340,3589,-98,-105,2025-01-29 10:40:16,0.0
-12720,-32,-6496,3591,146,490,2025-01-29 10:40:16,0.0
-12752,-780,-5624,3747,648,911,2025-01-29 10:40:16,0.0
-13428,-1392,-5716,4174,1245,1421,2025-01-29 10:40:16,0.0
-13428,-2000,-7372,4542,2172,2080,2025-01-29 10:40:16,0.0
-13416,-496,-9004,4603,3357,2338,2025-01-29 10:40:16,0.0
-14016,1816,-10216,4135,3721,2567,2025-01-29 10:40:16,0.0
-13580,2704,-11380,3090,2498,2320,2025-01-29 10:40:16,0.0
-13208,2564,-10988,1704,133,1371,2025-01-29 10:40:16,0.0
-13180,1572,-10460,1059,-1561,950,2025-01-29 10:40:16,0.0
-12284,656,-9816,530,-2288,917,2025-01-29 10:40:16,0.0
-11492,196,-8940,260,-2843,390,2025-01-29 10:40:16,0.0
-10764,120,-8768,185,-2995,-409,2025-01-29 10:40:16,0.0
-10380,-112,-7448,406,-2831,-942,2025-01-29 10:40:16,0.0
-9988,-884,-7412,779,-2849,-1305,2025-01-29 10:40:16,0.0
-9464,-1380,-8180,946,-3206,-1428,2025-01-29 10:40:16,0.0
-8920,-1792,-8052,1050,-3146,-1228,2025-01-29 10:40:16,0.0
-8216,-2952,-7672,979,-2017,-712,2025-01-29 10:40:16,0.0
-7612,-3868,-7292,1077,-205,-372,2025-01-29 10:40:16,0.0
-7864,-4412,-7444,1426,1924,-138,2025-01-29 10:40:16,0.0
-9088,-3512,-7852,1544,3973,204,2025-01-29 10:40:17,0.0
-10092,-2108,-7996,1653,4534,35,2025-01-29 10:40:17,0.0
-11476,-940,-8772,1491,4417,-409,2025-01-29 10:40:17,0.0
-12308,-540,-8916,927,3090,-743,2025-01-29 10:40:17,0.0
-12656,-704,-8692,530,979,-1283,2025-01-29 10:40:17,0.0
-12420,-1208,-8604,436,-812,-1700,2025-01-29 10:40:17,0.0
-11420,-1824,-8132,338,-1952,-1903,2025-01-29 10:40:17,0.0
-9908,-2108,-7340,351,-2024,-1937,2025-01-29 10:40:17,0.0
-9196,-1992,-7080,270,-1366,-2003,2025-01-29 10:40:17,0.0
-8676,-2176,-7280,-53,-173,-2003,2025-01-29 10:40:17,0.0
-9028,-2512,-7684,-395,1505,-1948,2025-01-29 10:40:17,0.0
-9620,-2516,-7932,-649,2643,-1961,2025-01-29 10:40:17,0.0
-10632,-2600,-7948,-1010,3073,-2038,2025-01-29 10:40:17,0.0
-11756,-3048,-7596,-1115,2586,-2118,2025-01-29 10:40:17,0.0
-12376,-3344,-7380,-904,1443,-1885,2025-01-29 10:40:17,0.0
-12196,-3024,-7540,-680,371,-1647,2025-01-29 10:40:17,0.0
-11624,-2596,-7568,-622,-407,-1457,2025-01-29 10:40:17,0.0
-10892,-2164,-7676,-649,-759,-1151,2025-01-29 10:40:17,0.0
-9832,-2180,-7720,-911,-408,-810,2025-01-29 10:40:17,0.0
-9644,-2864,-7596,-1113,642,-680,2025-01-29 10:40:17,0.0
-9880,-3288,-7648,-992,1492,-498,2025-01-29 10:40:17,0.0
-10272,-3456,-8112,-927,1748,-384,2025-01-29 10:40:17,0.0
-11312,-3064,-7916,-859,1441,-287,2025-01-29 10:40:17,0.0
-11400,-2784,-8492,-807,745,10,2025-01-29 10:40:17,0.0
-11520,-2416,-8100,-842,12,246,2025-01-29 10:40:17,0.0
-11148,-2148,-8460,-1008,-504,347,2025-01-29 10:40:17,0.0
-10760,-2264,-8280,-975,-646,397,2025-01-29 10:40:17,0.0
-10484,-2216,-8160,-840,-478,306,2025-01-29 10:40:17,0.0
-10840,-1984,-7984,-806,-297,246,2025-01-29 10:40:17,0.0
-10696,-1664,-8276,-924,-174,230,2025-01-29 10:40:17,0.0
-11048,-1672,-8088,-1106,-137,84,2025-01-29 10:40:17,0.0
-11004,-1812,-8180,-1195,-224,85,2025-01-29 10:40:17,0.0
-10804,-2060,-8016,-1353,-363,2,2025-01-29 10:40:17,0.0
-10632,-2104,-7672,-1379,-438,-130,2025-01-29 10:40:17,0.0
-10364,-2152,-7188,-1158,-168,-193,2025-01-29 10:40:17,0.0
-10428,-2120,-7288,-947,266,-377,2025-01-29 10:40:17,0.0
-10712,-1980,-7700,-836,432,-529,2025-01-29 10:40:17,0.0
-11136,-1728,-7984,-942,413,-589,2025-01-29 10:40:17,0.0
-11056,-1596,-8172,-1092,311,-644,2025-01-29 10:40:17,0.0
-11220,-1412,-8344,-1173,74,-622,2025-01-29 10:40:17,0.0
-10848,-1396,-8260,-1168,-46,-600,2025-01-29 10:40:17,0.0
-10720,-1404,-8032,-1107,58,-620,2025-01-29 10:40:17,0.0
-10412,-1464,-8104,-1148,283,-714,2025-01-29 10:40:17,0.0
-10820,-1576,-8244,-1262,502,-706,2025-01-29 10:40:17,0.0
-10940,-1684,-7960,-1322,347,-563,2025-01-29 10:40:17,
