acceleration_x,acceleration_y,acceleration_z,gyroscope_x,gyroscope_y,gyroscope_z,timestamp,label
-10804,-896,-7936,-136,96,-161,2025-01-29 10:39:16,0.0
-10764,-980,-8064,-100,206,-175,2025-01-29 10:39:16,0.0
-10852,-764,-7832,-96,324,-156,2025-01-29 10:39:16,0.0
-10944,-880,-7932,-125,323,-167,2025-01-29 10:39:16,0.0
-11036,-732,-7636,-109,322,-162,2025-01-29 10:39:16,0.0
-11024,-772,-7752,-116,282,-155,2025-01-29 10:39:16,0.0
-10808,-816,-8020,-118,257,-151,2025-01-29 10:39:16,0.0
-10832,-808,-7832,-127,354,-198,2025-01-29 10:39:16,0.0
-10840,-844,-7808,-123,324,-148,2025-01-29 10:39:16,0.0
-10868,-924,-8036,-121,344,-170,2025-01-29 10:39:16,0.0
-10864,-872,-8100,-153,323,-177,2025-01-29 10:39:16,0.0
-10940,-820,-8012,-148,296,-158,2025-01-29 10:39:16,0.0
-10860,-776,-7988,-173,264,-170,2025-01-29 10:39:16,0.0
-11044,-896,-8184,-181,224,-138,2025-01-29 10:39:16,0.0
-10876,-836,-7872,-200,160,-138,2025-01-29 10:39:16,0.0
-10724,-856,-7892,-174,173,-156,2025-01-29 10:39:16,0.0
-10788,-860,-7924,-177,280,-192,2025-01-29 10:39:16,0.0
-10784,-1124,-7940,-128,273,-162,2025-01-29 10:39:16,0.0
-10828,-728,-8072,-108,242,-110,2025-01-29 10:39:16,0.0
-11016,-800,-8068,-128,238,-128,2025-01-29 10:39:16,0.0
-10804,-864,-7856,-138,193,-132,2025-01-29 10:39:17,0.0
-10792,-876,-8056,-183,172,-102,2025-01-29 10:39:17,0.0
-10868,-756,-8204,-220,248,-38,2025-01-29 10:39:17,0.0
-10832,-556,-8056,-261,298,-46,2025-01-29 10:39:17,0.0
-10952,-504,-7820,-311,312,65,2025-01-29 10:39:17,0.0
-10860,-588,-7728,-301,335,46,2025-01-29 10:39:17,0.0
-11020,-820,-7672,-179,369,70,2025-01-29 10:39:17,0.0
-11012,-816,-7620,-37,312,147,2025-01-29 10:39:17,0.0
-10948,-900,-7676,111,260,216,2025-01-29 10:39:17,0.0
-11056,-852,-7660,273,259,272,2025-01-29 10:39:17,0.0
-11184,-784,-7568,409,255,328,2025-01-29 10:39:17,0.0
-11208,-832,-7536,636,284,346,2025-01-29 10:39:17,0.0
-11196,-1064,-7200,868,302,315,2025-01-29 10:39:17,0.0
-11136,-704,-7264,1182,146,209,2025-01-29 10:39:17,0.0
-10948,-388,-7388,1378,-13,226,2025-01-29 10:39:17,0.0
-11024,-332,-7516,1409,-34,261,2025-01-29 10:39:17,0.0
-10816,-248,-7680,1342,210,314,2025-01-29 10:39:17,0.0
-11020,-276,-7764,1384,506,373,2025-01-29 10:39:17,0.0
-11004,-360,-7708,1299,663,439,2025-01-29 10:39:17,0.0
-11016,-500,-7972,1196,647,408,2025-01-29 10:39:17,0.0
-11196,-568,-7752,1242,600,439,2025-01-29 10:39:17,0.0
-11336,-512,-7500,1324,588,494,2025-01-29 10:39:17,0.0
-11320,-492,-7668,1364,457,497,2025-01-29 10:39:17,0.0
-11356,-440,-7724,1425,214,559,2025-01-29 10:39:17,0.0
-11340,-456,-7520,1459,150,614,2025-01-29 10:39:17,0.0
-11320,-488,-7488,1532,129,697,2025-01-29 10:39:17,0.0
-11024,-684,-7444,1671,219,711,2025-01-29 10:39:17,0.0
-10868,-668,-7340,1860,412,708,2025-01-29 10:39:17,0.0
-10952,-716,-7312,2154,632,721,2025-01-29 10:39:17,0.0
-10940,-596,-7508,2423,627,713,2025-01-29 10:39:17,0.0
-10964,-364,-7828,2487,483,619,2025-01-29 10:39:17,0.0
-11536,-300,-7936,2488,297,609,2025-01-29 10:39:17,0.0
-11596,-100,-8004,2531,-60,650,2025-01-29 10:39:17,0.0
-11796,-116,-8096,2517,-873,626,2025-01-29 10:39:17,0.0
-11712,-96,-8120,2395,-1770,705,2025-01-29 10:39:17,0.0
-11092,-36,-7932,2267,-2121,720,2025-01-29 10:39:17,0.0
-10444,208,-7732,2095,-2116,583,2025-01-29 10:39:17,0.0
-10052,-148,-7244,1997,-1270,101,2025-01-29 10:39:17,0.0
-10352,-640,-6876,2160,-245,-213,2025-01-29 10:39:17,0.0
-10532,-888,-7372,2342,304,-495,2025-01-29 10:39:17,0.0
-10540,-1092,-8200,2407,490,-984,2025-01-29 10:39:17,0.0
-10748,-1052,-8296,2362,536,-1440,2025-01-29 10:39:17,0.0
-10980,-1152,-8324,2314,443,-1727,2025-01-29 10:39:17,0.0
-10984,-1484,-8344,2133,476,-1703,2025-01-29 10:39:17,0.0
-10812,-2000,-7928,1794,274,-1565,2025-01-29 10:39:17,0.0
-10268,-2720,-7484,1577,57,-1670,2025-01-29 10:39:17,0.0
-10564,-2928,-6996,1603,199,-1631,2025-01-29 10:39:17,0.0
-10676,-2652,-6748,1616,374,-1293,2025-01-29 10:39:17,0.0
-10736,-2512,-6448,1548,711,-888,2025-01-29 10:39:17,0.0
-10112,-2532,-6636,1322,1635,-647,2025-01-29 10:39:17,0.0
-10060,-2724,-6092,1206,2827,-597,2025-01-29 10:39:17,0.0
-10476,-2648,-5588,791,3688,-890,2025-01-29 10:39:17,0.0
-11220,-2344,-5628,483,4107,-1311,2025-01-29 10:39:17,0.0
-12012,-2356,-6380,348,4079,-1646,2025-01-29 10:39:17,0.0
-12152,-2516,-6868,354,3749,-1871,2025-01-29 10:39:17,0.0
-12292,-3400,-6780,516,2758,-1850,2025-01-29 10:39:17,0.0
-12284,-3680,-6488,739,2009,-1723,2025-01-29 10:39:17,0.0
-12356,-3768,-6760,781,1396,-1471,2025-01-29 10:39:17,0.0
-11788,-4028,-6856,798,920,-1284,2025-01-29 10:39:17,0.0
-11792,-3924,-6744,806,678,-1038,2025-01-29 10:39:17,0.0
-11136,-3376,-6740,796,575,-748,2025-01-29 10:39:17,0.0
-10596,-3044,-6452,450,663,-796,2025-01-29 10:39:17,0.0
-10780,-2916,-6420,187,941,-622,2025-01-29 10:39:17,0.0
-10756,-2800,-7024,-248,1335,-289,2025-01-29 10:39:18,0.0
-10624,-2836,-7468,-805,1663,-218,2025-01-29 10:39:18,0.0
-10896,-2900,-7792,-1353,1791,-249,2025-01-29 10:39:18,0.0
-11280,-3048,-7928,-1824,1456,-385,2025-01-29 10:39:18,0.0
-11472,-3196,-7868,-2087,1184,-354,2025-01-29 10:39:18,0.0
-11588,-3192,-7388,-2210,976,-276,2025-01-29 10:39:18,0.0
-11312,-3216,-7484,-2288,671,-379,2025-01-29 10:39:18,0.0
-11788,-3180,-7448,-2461,441,-580,2025-01-29 10:39:18,0.0
-11968,-3440,-7396,-2422,207,-633,2025-01-29 10:39:18,0.0
-12096,-3512,-7356,-2393,-315,-686,2025-01-29 10:39:18,0.0
-11976,-2896,-7188,-2668,-803,-702,2025-01-29 10:39:18,0.0
-11968,-2208,-7200,-3236,-724,-827,2025-01-29 10:39:18,0.0
-11924,-1860,-7380,-4029,-336,-911,2025-01-29 10:39:18,0.0
-11132,-2568,-7544,-4576,267,-1389,2025-01-29 10:39:18,0.0
-11580,-3500,-8728,-4955,780,-2241,2025-01-29 10:39:18,0.0
-12660,-4388,-8088,-4629,1327,-2613,2025-01-29 10:39:18,0.0
-13580,-5060,-7884,-3869,887,-2662,2025-01-29 10:39:18,
-14136,-5344,-8212,-3116,-480,-2233,2025-01-29 10:39:18,0.0
-14308,-5268,-8372,-2347,-1983,-1194,2025-01-29 10:39:18,0.0
-13488,-4752,-8552,-1886,-2562,-168,2025-01-29 10:39:18,0.0
-12404,-4508,-8372,-1555,-2716,426,2025-01-29 10:39:18,0.0
-12132,-4316,-8576,-1326,-2740,725,2025-01-29 10:39:18,0.0
-12456,-4056,-8808,-1276,-2928,1701,2025-01-29 10:39:18,0.0
-11820,-3516,-8784,-1267,-3133,2703,2025-01-29 10:39:18,0.0
-10876,-3116,-9172,-1087,-3847,3237,2025-01-29 10:39:18,0.0
-9316,-2412,-9828,-830,-4806,3402,2025-01-29 10:39:18,0.0
-8592,-1628,-9068,-747,-4919,2661,2025-01-29 10:39:18,0.0
-7820,-248,-8156,-592,-4361,1895,2025-01-29 10:39:18,0.0
-7408,912,-8040,-708,-3263,1169,2025-01-29 10:39:18,0.0
-7140,1836,-8344,-1094,-2037,514,2025-01-29 10:39:18,0.0
-6964,2108,-8588,-1528,-627,-112,2025-01-29 10:39:18,0.0
-7504,1200,-9088,-1761,1317,-567,2025-01-29 10:39:18,0.0
-9276,-300,-8908,-1909,3469,-407,2025-01-29 10:39:18,0.0
-11524,-2024,-8784,-1471,4738,766,2025-01-29 10:39:18,0.0
-13088,-2376,-8256,-1102,4090,1604,2025-01-29 10:39:18,0.0
-13880,-2156,-8248,-573,2071,2743,2025-01-29 10:39:18,0.0
-13820,-1304,-8396,82,-374,3944,2025-01-29 10:39:18,0.0
-12360,-304,-8708,422,-2125,4611,2025-01-29 10:39:18,0.0
-11168,260,-7956,787,-3027,4825,2025-01-29 10:39:18,0.0
-9668,564,-7720,1016,-3362,4859,2025-01-29 10:39:18,0.0
-8288,680,-7596,1177,-3180,4734,2025-01-29 10:39:18,0.0
-7684,1016,-7412,1127,-2150,4720,2025-01-29 10:39:18,0.0
-7192,1892,-6624,947,240,4431,2025-01-29 10:39:18,0.0
-7620,2284,-7204,740,2709,3656,2025-01-29 10:39:18,0.0
-9160,2268,-7480,483,4011,2943,2025-01-29 10:39:18,0.0
-10628,2256,-8276,2,3891,2622,2025-01-29 10:39:18,0.0
-11784,1920,-7400,-364,2125,2309,2025-01-29 10:39:18,0.0
-11924,1844,-6844,-508,-892,1880,2025-01-29 10:39:18,0.0
-11352,1820,-6580,-593,-3067,1450,2025-01-29 10:39:18,0.0
-9368,1692,-6156,-399,-3590,681,2025-01-29 10:39:18,0.0
-8332,1368,-5796,-88,-2631,-126,2025-01-29 10:39:18,0.0
-8236,608,-5340,222,-1048,-577,2025-01-29 10:39:18,0.0
-8976,356,-4724,605,636,-749,2025-01-29 10:39:18,0.0
-9808,360,-4560,1052,1678,-1138,2025-01-29 10:39:18,0.0
-11272,724,-5028,1488,1357,-1658,2025-01-29 10:39:18,0.0
-12656,1000,-5504,1835,80,-1721,2025-01-29 10:39:18,0.0
-13292,1156,-6080,2155,-1700,-1419,2025-01-29 10:39:18,0.0
-13124,1020,-5540,2224,-2918,-1236,2025-01-29 10:39:18,0.0
-12452,716,-6012,2377,-3601,-1040,2025-01-29 10:39:18,0.0
-11544,-72,-6428,2510,-2709,-646,2025-01-29 10:39:18,0.0
-10776,-216,-7160,2751,-817,-239,2025-01-29 10:39:18,0.0
-11152,448,-7088,2829,1304,8,2025-01-29 10:39:19,0.0
-13060,1576,-6200,2811,3173,667,2025-01-29 10:39:19,0.0
-15012,2000,-7000,2681,4227,1445,2025-01-29 10:39:19,0.0
-15904,840,-8172,2516,4060,1761,2025-01-29 10:39:19,0.0
-16928,80,-8760,2555,3061,2073,2025-01-29 10:39:19,0.0
-17176,1612,-9860,2612,1534,2730,2025-01-29 10:39:19,0.0
-16324,3664,-11592,1657,17,3393,2025-01-29 10:39:19,0.0
-14024,4716,-11704,200,-1710,3439,2025-01-29 10:39:19,0.0
-10896,3496,-9800,-707,-2885,1568,2025-01-29 10:39:19,0.0
-10236,2304,-9260,-902,-2979,-293,2025-01-29 10:39:19,0.0
-9816,1296,-8632,-903,-2672,-988,2025-01-29 10:39:19,0.0
-8932,368,-7956,-586,-2629,-1442,2025-01-29 10:39:19,0.0
-8260,-652,-7768,-43,-2875,-1813,2025-01-29 10:39:19,0.0
-7896,-1052,-8328,364,-3202,-2029,2025-01-29 10:39:19,0.0
-7564,-1812,-8324,473,-2989,-2161,2025-01-29 10:39:19,0.0
-7484,-2412,-8512,643,-1132,-2250,2025-01-29 10:39:19,0.0
-8028,-2984,-8452,604,959,-2057,2025-01-29 10:39:19,0.0
-8624,-3512,-7932,435,2394,-1787,2025-01-29 10:39:19,0.0
-9664,-3368,-7704,468,2584,-1479,2025-01-29 10:39:19,0.0
-10300,-2392,-8004,788,2077,-1458,2025-01-29 10:39:19,0.0
-10884,-908,-8292,986,1814,-1845,2025-01-29 10:39:19,0.0
-10972,-164,-8492,694,1161,-2547,2025-01-29 10:39:19,0.0
-11016,-348,-8812,225,1,-3477,2025-01-29 10:39:19,0.0
-10796,-860,-8960,-120,-1091,-4023,2025-01-29 10:39:19,0.0
-10320,-1036,-9004,-428,-1307,-4183,2025-01-29 10:39:19,0.0
-9688,-824,-8664,-933,-941,-4312,2025-01-29 10:39:19,0.0
-9240,-880,-8540,-1625,-258,-4491,2025-01-29 10:39:19,0.0
-9388,-1232,-7840,-2182,678,-4562,2025-01-29 10:39:19,0.0
-9292,-1756,-7360,-2536,1036,-4740,2025-01-29 10:39:19,0.0
-9392,-2736,-6536,-2458,1520,-5150,2025-01-29 10:39:19,0.0
-10028,-3520,-6668,-2186,1972,-5402,2025-01-29 10:39:19,0.0
-10848,-3840,-6728,-1905,2215,-5126,2025-01-29 10:39:19,0.0
-11552,-3476,-7080,-1737,2093,-4396,2025-01-29 10:39:19,0.0
-11856,-2924,-6416,-1739,1482,-3536,2025-01-29 10:39:19,0.0
-11492,-2664,-6456,-1800,644,-2932,2025-01-29 10:39:19,0.0
-11328,-2624,-6380,-1832,116,-2561,2025-01-29 10:39:19,0.0
-11016,-2620,-6220,-1799,8,-2037,2025-01-29 10:39:19,0.0
-10576,-2532,-6380,-1883,348,-1413,2025-01-29 10:39:19,0.0
-10024,-2288,-6652,-2102,968,-1049,2025-01-29 10:39:19,0.0
-10180,-2084,-6688,-2452,1377,-807,2025-01-29 10:39:19,0.0
-10520,-1856,-6512,-2725,1652,-498,2025-01-29 10:39:19,0.0
-11024,-1844,-6124,-3040,1795,-381,2025-01-29 10:39:19,0.0
-11364,-1784,-5916,-3235,1774,-287,2025-01-29 10:39:19,0.0
-11348,-2044,-6556,-3341,1571,-515,2025-01-29 10:39:19,0.0
-11552,-2160,-6560,-3285,1082,-837,2025-01-29 10:39:19,0.0
-11228,-2132,-6636,-3252,595,-1163,2025-01-29 10:39:19,0.0
-11184,-2216,-6840,-3216,392,-1490,2025-01-29 10:39:19,0.0
-10944,-1432,-7252,-3276,682,-1697,2025-01-29 10:39:19,0.0
-11296,-1264,-7424,-3676,1449,-1880,2025-01-29 10:39:19,0.0
-11724,-2700,-6892,-4065,2315,-2563,2025-01-29 10:39:19,0.0
-13028,-3268,-6344,-4057,2478,-3284,2025-01-29 10:39:19,0.0
-14408,-3080,-6320,-3897,2109,-3322,2025-01-29 10:39:19,0.0
-14392,-1996,-7804,-3628,1198,-3453,2025-01-29 10:39:19,0.0
-13648,-1564,-9944,-3738,209,-3685,2025-01-29 10:39:19,0.0
-12800,-2544,-9840,-3580,521,-4305,2025-01-29 10:39:19,0.0
-12788,-5108,-9912,-2518,1159,-4717,2025-01-29 10:39:19,
-13848,-6584,-9944,-1151,1925,-4214,2025-01-29 10:39:19,0.0
-15432,-6616,-9900,-167,1421,-2631,2025-01-29 10:39:19,0.0
-15752,-5832,-9936,391,-297,-140,2025-01-29 10:39:19,0.0
-13996,-4628,-9940,579,-2423,1596,2025-01-29 10:39:19,0.0
-12000,-3596,-9480,501,-4300,2622,2025-01-29 10:39:19,0.0
-9900,-2568,-9076,197,-5616,3310,2025-01-29 10:39:20,0.0
-7760,-2256,-8924,-186,-5683,3461,2025-01-29 10:39:20,0.0
-6216,-1320,-9264,-412,-5820,3389,2025-01-29 10:39:20,0.0
-5288,-360,-9568,-323,-4982,3204,2025-01-29 10:39:20,0.0
-4732,748,-8512,159,-2455,2496,2025-01-29 10:39:20,0.0
-4736,1828,-8948,243,401,1229,2025-01-29 10:39:20,0.0
-6080,2408,-9208,-463,2811,-295,2025-01-29 10:39:20,0.0
-8648,2248,-9672,-1541,4173,-1013,2025-01-29 10:39:20,0.0
-11024,1364,-9952,-2395,4493,-774,2025-01-29 10:39:20,0.0
-12264,300,-10012,-2961,3574,-288,2025-01-29 10:39:20,0.0
-12964,-732,-9896,-3132,966,203,2025-01-29 10:39:20,0.0
-13032,-1916,-9408,-2630,-2636,1203,2025-01-29 10:39:20,0.0
-12104,-1880,-8456,-2103,-4081,1762,2025-01-29 10:39:20,0.0
-10920,-1792,-7784,-1663,-4534,2189,2025-01-29 10:39:20,0.0
-10096,-1600,-7036,-1005,-4547,2701,2025-01-29 10:39:20,0.0
-8892,-784,-7016,-332,-3493,2892,2025-01-29 10:39:20,0.0
-8732,192,-6804,118,-1670,3009,2025-01-29 10:39:20,0.0
-8844,976,-6728,228,-73,2873,2025-01-29 10:39:20,0.0
-9796,1076,-6364,377,625,2601,2025-01-29 10:39:20,0.0
-10928,1084,-6480,552,586,2670,2025-01-29 10:39:20,0.0
-11544,952,-6592,584,220,2957,2025-01-29 10:39:20,0.0
-11232,420,-6064,725,-701,2936,2025-01-29 10:39:20,0.0
-10860,240,-5160,1028,-1786,2367,2025-01-29 10:39:20,0.0
-9856,404,-4396,1413,-2035,1743,2025-01-29 10:39:20,0.0
-9340,584,-4540,1675,-1178,1354,2025-01-29 10:39:20,0.0
-9732,440,-4304,1871,558,1159,2025-01-29 10:39:20,0.0
-9576,-4,-4904,2156,1938,745,2025-01-29 10:39:20,0.0
-10968,-36,-5688,2499,2499,277,2025-01-29 10:39:20,0.0
-12516,140,-6108,2663,2160,161,2025-01-29 10:39:20,0.0
-13448,688,-6588,2726,561,133,2025-01-29 10:39:20,0.0
-14156,1724,-7828,2446,-1193,734,2025-01-29 10:39:20,0.0
-13308,2212,-8504,1994,-2454,1402,2025-01-29 10:39:20,0.0
-12180,2012,-8200,1492,-2842,1721,2025-01-29 10:39:20,0.0
-11200,836,-6560,1167,-2110,1828,2025-01-29 10:39:20,0.0
-11600,468,-5420,1500,-987,1893,2025-01-29 10:39:20,0.0
-12152,248,-4652,2257,112,1778,2025-01-29 10:39:20,0.0
-13492,-424,-4232,3189,974,1217,2025-01-29 10:39:20,0.0
-15640,-1036,-5300,3963,2060,1237,2025-01-29 10:39:20,0.0
-15780,212,-7588,4065,1729,2111,2025-01-29 10:39:20,0.0
-15440,2176,-10544,3041,1368,2838,2025-01-29 10:39:20,0.0
-13932,3344,-11616,1527,1413,2860,2025-01-29 10:39:20,0.0
-12584,3320,-12020,31,1309,1603,2025-01-29 10:39:20,0.0
-12756,3052,-11720,-841,836,405,2025-01-29 10:39:20,0.0
-12568,2416,-10580,-1271,-236,-281,2025-01-29 10:39:20,0.0
-11320,816,-8768,-974,-2036,-697,2025-01-29 10:39:20,0.0
-9100,-868,-7488,-263,-3324,-835,2025-01-29 10:39:20,0.0
-6800,-2376,-6852,559,-3877,-1151,2025-01-29 10:39:20,0.0
-5184,-3856,-6388,1675,-2884,-1402,2025-01-29 10:39:20,0.0
-5836,-3716,-7196,2177,-367,-1068,2025-01-29 10:39:20,0.0
-6940,-2752,-8068,1917,3890,-343,2025-01-29 10:39:20,0.0
-9148,-1648,-8200,1548,7038,-224,2025-01-29 10:39:20,0.0
-11660,-1076,-8920,1432,7487,-265,2025-01-29 10:39:20,0.0
-13600,-960,-9396,1339,4797,-118,2025-01-29 10:39:20,0.0
-14220,-1160,-9072,1310,-267,-113,2025-01-29 10:39:20,0.0
-13744,-1308,-8416,1106,-3356,-107,2025-01-29 10:39:20,0.0
-12132,-1704,-8416,1113,-4948,36,2025-01-29 10:39:20,0.0
-9508,-1844,-8784,1201,-5011,-317,2025-01-29 10:39:20,0.0
-7940,-2076,-8108,1098,-3644,-987,2025-01-29 10:39:20,0.0
-7372,-2144,-7672,1162,-1163,-1627,2025-01-29 10:39:20,0.0
-7888,-1848,-7524,1097,1134,-1918,2025-01-29 10:39:20,0.0
-9420,-1844,-6860,936,2786,-2204,2025-01-29 10:39:21,0.0
-10608,-1564,-6940,669,2999,-2543,2025-01-29 10:39:21,0.0
-11644,-1508,-6936,230,2136,-2694,2025-01-29 10:39:21,0.0
-12144,-1404,-7144,-218,1030,-2411,2025-01-29 10:39:21,0.0
-11828,-1388,-7224,-583,2,-2104,2025-01-29 10:39:21,0.0
-10544,-1464,-7256,-947,-617,-1947,2025-01-29 10:39:21,0.0
-9572,-1516,-7292,-1270,-468,-1919,2025-01-29 10:39:21,0.0
-9372,-1688,-7160,-1535,519,-1862,2025-01-29 10:39:21,0.0
-9464,-1888,-7184,-1767,1860,-1778,2025-01-29 10:39:21,0.0
-10172,-1720,-7208,-2014,2721,-1679,2025-01-29 10:39:21,0.0
-11152,-1920,-7160,-2243,2746,-1594,2025-01-29 10:39:21,0.0
-11980,-2112,-7188,-2424,2155,-1384,2025-01-29 10:39:21,0.0
-12600,-1692,-7052,-2744,929,-983,2025-01-29 10:39:21,0.0
-12068,-1276,-7036,-3131,-241,-811,2025-01-29 10:39:21,0.0
-11744,-1152,-6504,-3439,-828,-762,2025-01-29 10:39:21,0.0
-11100,-1284,-6132,-3680,-768,-800,2025-01-29 10:39:21,0.0
-10548,-1660,-6260,-3809,-323,-1143,2025-01-29 10:39:21,0.0
-10540,-2004,-6684,-3890,434,-1609,2025-01-29 10:39:21,0.0
-11252,-2104,-6648,-3903,924,-1719,2025-01-29 10:39:21,0.0
-11472,-2072,-6376,-3792,1016,-1758,2025-01-29 10:39:21,0.0
-11696,-2192,-6332,-3706,818,-2225,2025-01-29 10:39:21,0.0
-12088,-2300,-6440,-3687,605,-2679,2025-01-29 10:39:21,0.0
-12156,-2108,-5804,-3716,609,-3020,2025-01-29 10:39:21,0.0
-12260,-2004,-5776,-3715,754,-3430,2025-01-29 10:39:21,0.0
-12556,-2124,-7024,-3529,798,-4029,2025-01-29 10:39:21,0.0
-12904,-3160,-7664,-3054,1171,-4313,2025-01-29 10:39:21,0.0
-12900,-4736,-7472,-2067,1698,-4635,2025-01-29 10:39:21,0.0
-13592,-6440,-8052,-853,2150,-4667,2025-01-29 10:39:21,0.0
-14852,-7028,-8776,463,2761,-3649,2025-01-29 10:39:21,0.0
-15672,-5752,-9780,1158,2251,-1641,2025-01-29 10:39:21,0.0
-15060,-2876,-10932,996,-6,874,2025-01-29 10:39:21,0.0
-13680,-2240,-11952,399,-1729,1968,2025-01-29 10:39:21,0.0
-11812,-1756,-11480,7,-3287,2611,2025-01-29 10:39:21,0.0
-10608,-1328,-10272,-174,-4405,2852,2025-01-29 10:39:21,0.0
-8788,-728,-9748,-229,-4937,3056,2025-01-29 10:39:21,
-7008,184,-8944,-341,-5160,2991,2025-01-29 10:39:21,0.0
-5336,760,-7936,-441,-4684,2394,2025-01-29 10:39:21,0.0
-4424,716,-7164,-222,-1947,1239,2025-01-29 10:39:21,0.0
-5348,644,-6996,115,2375,217,2025-01-29 10:39:21,0.0
-7636,540,-7520,328,6197,-126,2025-01-29 10:39:21,0.0
-10192,136,-8912,194,8058,66,2025-01-29 10:39:21,0.0
-12720,-256,-9544,-249,8215,554,2025-01-29 10:39:21,0.0
-14368,-524,-9516,-400,6133,1152,2025-01-29 10:39:21,0.0
-15368,-832,-9348,-203,1489,1999,2025-01-29 10:39:21,0.0
-14344,-548,-8904,88,-3124,2972,2025-01-29 10:39:21,0.0
-11492,-252,-8416,160,-5623,3237,2025-01-29 10:39:21,0.0
-9132,76,-7336,432,-5802,3260,2025-01-29 10:39:21,0.0
-7760,468,-6756,738,-4416,2945,2025-01-29 10:39:21,0.0
-7008,324,-6672,858,-1860,2491,2025-01-29 10:39:21,0.0
-7444,320,-6676,909,1124,2130,2025-01-29 10:39:21,0.0
-8812,316,-6648,1026,3082,1933,2025-01-29 10:39:21,0.0
-10304,424,-6852,1096,3570,1900,2025-01-29 10:39:21,0.0
-11712,564,-7248,1072,2666,1800,2025-01-29 10:39:21,0.0
-12600,660,-7296,1156,451,1690,2025-01-29 10:39:21,0.0
-12548,764,-6888,1280,-1332,1714,2025-01-29 10:39:21,0.0
-11136,696,-6688,1418,-2457,1468,2025-01-29 10:39:21,0.0
-9880,368,-6324,1607,-2586,1060,2025-01-29 10:39:21,0.0
-9272,224,-6428,1711,-2021,670,2025-01-29 10:39:21,0.0
-8960,272,-6188,1721,-913,462,2025-01-29 10:39:21,0.0
-8828,564,-6104,1613,203,24,2025-01-29 10:39:21,0.0
-9148,1092,-6372,1409,863,-566,2025-01-29 10:39:21,0.0
-9908,1612,-6764,1115,1242,-1304,2025-01-29 10:39:22,0.0
-10740,1808,-6860,721,1085,-1938,2025-01-29 10:39:22,0.0
-10724,1880,-7744,398,597,-2265,2025-01-29 10:39:22,0.0
-11152,1824,-7456,36,156,-2525,2025-01-29 10:39:22,0.0
-11356,1392,-7724,-265,-158,-2785,2025-01-29 10:39:22,0.0
-11856,660,-7264,-301,127,-2710,2025-01-29 10:39:22,0.0
-12772,-800,-5988,119,767,-2141,2025-01-29 10:39:22,0.0
-13336,-2120,-5812,873,459,-1379,2025-01-29 10:39:22,0.0
-13480,-2696,-5696,1797,-495,-607,2025-01-29 10:39:22,0.0
-12916,-2552,-5272,2919,-1206,37,2025-01-29 10:39:22,0.0
-12504,-1940,-5572,3821,-1348,593,2025-01-29 10:39:22,0.0
-11848,-932,-5876,4299,-857,1067,2025-01-29 10:39:22,0.0
-11476,168,-6728,4508,-1,1297,2025-01-29 10:39:22,0.0
-11948,1000,-7392,4321,622,1569,2025-01-29 10:39:22,0.0
-13168,712,-7476,4029,1106,2299,2025-01-29 10:39:22,0.0
-13724,-36,-7816,3701,1424,2896,2025-01-29 10:39:22,0.0
-14392,-816,-8220,3589,1694,3071,2025-01-29 10:39:22,0.0
-14516,-1068,-9656,3506,1528,3122,2025-01-29 10:39:22,0.0
-14492,-344,-11308,2980,641,2998,2025-01-29 10:39:22,0.0
-14244,1584,-12144,1967,-454,3000,2025-01-29 10:39:22,0.0
-12876,2560,-12832,388,-1359,2387,2025-01-29 10:39:22,0.0
-12068,2192,-11040,-822,-1480,1291,2025-01-29 10:39:22,0.0
-11108,1040,-9664,-1137,-2090,553,2025-01-29 10:39:22,0.0
-9716,-680,-9128,-873,-2623,-169,2025-01-29 10:39:22,0.0
-8492,-2680,-7544,308,-2313,-547,2025-01-29 10:39:22,0.0
-7088,-4116,-7028,1566,-1822,-663,2025-01-29 10:39:22,0.0
-6492,-5036,-6532,2531,-821,-613,2025-01-29 10:39:22,0.0
-6836,-5044,-6360,3174,617,-86,2025-01-29 10:39:22,0.0
-7340,-4260,-7644,3291,2490,640,2025-01-29 10:39:22,0.0
-8752,-2828,-8852,3245,4170,382,2025-01-29 10:39:22,0.0
-10996,-1524,-9388,3104,5079,337,2025-01-29 10:39:22,0.0
-12120,-1096,-9832,2979,4379,108,2025-01-29 10:39:22,0.0
-12852,-1092,-9856,2636,1388,-655,2025-01-29 10:39:22,0.0
-13184,-1716,-9088,2391,-1497,-953,2025-01-29 10:39:22,0.0
-12060,-1796,-8468,2316,-3257,-881,2025-01-29 10:39:22,0.0
-10284,-1832,-8432,2116,-4180,-785,2025-01-29 10:39:22,0.0
-8980,-1788,-7968,1886,-4048,-798,2025-01-29 10:39:22,0.0
-7792,-1960,-7792,1451,-3101,-883,2025-01-29 10:39:22,0.0
-7292,-2064,-7608,1054,-1590,-1192,2025-01-29 10:39:22,0.0
-10496,-2684,-7840,193,2576,-1494,2025-01-29 10:39:22,0.0
-11380,-2196,-7708,22,2071,-1243,2025-01-29 10:39:22,0.0
-11432,-2204,-8160,-208,1291,-1004,2025-01-29 10:39:22,0.0
-11040,-2272,-8424,-406,475,-754,2025-01-29 10:39:22,0.0
-11200,-2220,-7944,-597,313,-540,2025-01-29 10:39:22,0.0
-11036,-2576,-7768,-552,364,-545,2025-01-29 10:39:22,0.0
-11268,-2780,-7992,-367,254,-577,2025-01-29 10:39:22,0.0
-11464,-2808,-7984,-192,-260,-545,2025-01-29 10:39:22,0.0
-10884,-2824,-7972,-171,-1064,-627,2025-01-29 10:39:22,0.0
-10224,-2240,-8220,-358,-876,-801,2025-01-29 10:39:22,0.0
-10764,-1632,-7892,-758,116,-925,2025-01-29 10:39:22,0.0
-10604,-1456,-8124,-1226,608,-1221,2025-01-29 10:39:22,0.0
-11464,-1576,-7116,-1714,456,-1591,2025-01-29 10:39:22,0.0
-11444,-1768,-7124,-2008,-160,-1803,2025-01-29 10:39:22,0.0
-11596,-2004,-7304,-2252,-673,-2042,2025-01-29 10:39:22,0.0
-11484,-2204,-7148,-2545,-983,-2103,2025-01-29 10:39:22,0.0
-11080,-2448,-7332,-2923,-1147,-2049,2025-01-29 10:39:22,0.0
-10688,-2404,-7136,-3301,-824,-1654,2025-01-29 10:39:22,0.0
-10552,-2176,-6888,-3559,-361,-1054,2025-01-29 10:39:22,0.0
-10800,-2232,-6920,-3846,-74,-588,2025-01-29 10:39:23,0.0
-10648,-2656,-7080,-3945,148,97,2025-01-29 10:39:23,0.0
-10568,-3096,-7280,-3882,309,670,2025-01-29 10:39:23,0.0
-10680,-3804,-7696,-3734,703,1084,2025-01-29 10:39:23,0.0
-10632,-4160,-8084,-3244,1180,1317,2025-01-29 10:39:23,0.0
-10980,-3652,-8832,-2431,1588,1202,2025-01-29 10:39:23,0.0
-11368,-2668,-9144,-1733,1304,983,2025-01-29 10:39:23,0.0
-11756,-1844,-9052,-1169,646,864,2025-01-29 10:39:23,0.0
-10780,-1144,-8828,-581,-387,727,2025-01-29 10:39:23,0.0
-9280,-968,-8864,-512,-770,356,2025-01-29 10:39:23,0.0
-8736,-1436,-8136,-662,-176,-32,2025-01-29 10:39:23,0.0
-8396,-1756,-7416,-585,1179,-179,2025-01-29 10:39:23,0.0
-8496,-1592,-7368,-482,2660,-363,2025-01-29 10:39:23,0.0
-9180,-1504,-7892,-634,3682,-570,2025-01-29 10:39:23,0.0
-10324,-1372,-8068,-828,3914,-592,2025-01-29 10:39:23,0.0
-11572,-1200,-8520,-953,3425,-286,2025-01-29 10:39:23,
-11836,-1112,-8668,-990,2370,-99,2025-01-29 10:39:23,0.0
-11728,-1480,-8756,-851,1291,-61,2025-01-29 10:39:23,0.0
-11532,-1884,-8772,-558,306,-50,2025-01-29 10:39:23,0.0
-11024,-2044,-8780,-148,10,-10,2025-01-29 10:39:23,0.0
-10944,-1948,-8500,290,684,62,2025-01-29 10:39:23,0.0
-10788,-1912,-8708,503,1657,138,2025-01-29 10:39:23,0.0
-10696,-1760,-8760,690,1640,111,2025-01-29 10:39:23,0.0
-10992,-1176,-8640,765,936,56,2025-01-29 10:39:23,0.0
-11036,60,-8912,351,259,-29,2025-01-29 10:39:23,0.0
-10928,584,-8596,-224,-180,-120,2025-01-29 10:39:23,0.0
-10604,660,-8112,-579,-286,-217,2025-01-29 10:39:23,0.0
-10252,424,-7804,-916,-61,-440,2025-01-29 10:39:23,0.0
-10096,-36,-7580,-1128,378,-591,2025-01-29 10:39:23,0.0
-10112,-632,-7520,-1172,848,-658,2025-01-29 10:39:23,0.0
-10416,-920,-7896,-1059,1197,-639,2025-01-29 10:39:23,0.0
-10616,-964,-8264,-1045,1246,-694,2025-01-29 10:39:23,0.0
-11124,-1028,-8360,-982,983,-780,2025-01-29 10:39:23,0.0
-11520,-992,-8376,-894,577,-678,2025-01-29 10:39:23,0.0
-11396,-828,-8284,-776,65,-541,2025-01-29 10:39:23,0.0
-10872,-660,-8340,-669,-301,-550,2025-01-29 10:39:23,0.0
-10660,-828,-8372,-679,-366,-583,2025-01-29 10:39:23,0.0
-10440,-944,-8252,-637,-159,-583,2025-01-29 10:39:23,0.0
-10380,-1196,-8180,-545,105,-557,2025-01-29 10:39:23,0.0
-10460,-1196,-7976,-466,313,-544,2025-01-29 10:39:23,0.0
-10672,-1180,-8136,-415,419,-524,2025-01-29 10:39:23,0.0
-10892,-976,-8328,-413,355,-401,2025-01-29 10:39:23,0.0
-10828,-892,-8136,-405,58,-290,2025-01-29 10:39:23,0.0
-10728,-804,-8156,-379,-97,-274,2025-01-29 10:39:23,0.0
-10624,-900,-7988,-381,-96,-343,2025-01-29 10:39:23,0.0
-10652,-1024,-7996,-388,-75,-365,2025-01-29 10:39:23,0.0
-10572,-1132,-8060,-380,79,-376,2025-01-29 10:39:23,0.0
-10500,-1220,-8112,-305,165,-359,2025-01-29 10:39:23,0.0
-10552,-1300,-8380,-256,212,-331,2025-01-29 10:39:23,0.0
-10752,-1476,-8428,-138,215,-350,2025-01-29 10:39:23,0.0
-10804,-1188,-8484,-80,76,-363,2025-01-29 10:39:23,0.0
-10768,-984,-8200,-124,-31,-387,2025-01-29 10:39:23,0.0
-10652,-928,-8480,-203,18,-354,2025-01-29 10:39:23,0.0
-10640,-952,-8348,-248,169,-269,2025-01-29 10:39:23,0.0
-10648,-1048,-8292,-287,294,-228,2025-01-29 10:39:23,0.0
-10748,-1136,-8184,-312,324,-207,2025-01-29 10:39:23,0.0
-10812,-1172,-8148,-299,230,-209,2025-01-29 10:39:23,0.0
-10712,-1220,-8004,-237,180,-173,2025-01-29 10:39:24,0.0
-10624,-1248,-8076,-244,397,-196,2025-01-29 10:39:24,0.0
-10688,-1128,-7964,-269,421,-251,2025-01-29 10:39:24,0.0
-10756,-1136,-8232,-273,321,-234,2025-01-29 10:39:24,0.0
-10864,-1316,-8132,-206,183,-229,2025-01-29 10:39:25,0.0
-10816,-1176,-8132,-173,86,-241,2025-01-29 10:39:25,0.0
-10716,-1376,-7928,-169,96,-240,2025-01-29 10:39:25,0.0
-10856,-1392,-7996,-165,155,-253,2025-01-29 10:39:25,0.0
-10936,-1248,-7888,-118,219,-219,2025-01-29 10:39:25,0.0
-10728,-1216,-8092,-162,268,-171,2025-01-29 10:39:25,0.0
-10704,-1312,-8420,-154,343,-163,2025-01-29 10:39:26,0.0
-10784,-1240,-8284,-178,351,-202,2025-01-29 10:39:26,0.0
-10944,-1248,-8004,-125,211,-160,2025-01-29 10:39:26,0.0
-7548,-1008,-3304,544,7013,-1779,2025-01-29 10:39:26,0.0
-8364,-1060,-4788,-211,5776,-1170,2025-01-29 10:39:26,0.0
-9388,-548,-5884,-1061,2176,-685,2025-01-29 10:39:26,0.0
-9472,-364,-5176,-1255,-1053,4,2025-01-29 10:39:26,0.0
-8472,-216,-4792,-1680,-2502,532,2025-01-29 10:39:26,0.0
-7520,-776,-4172,-1625,-3308,387,2025-01-29 10:39:26,0.0
-13044,-468,-2464,46,108,-397,2025-01-29 10:39:26,0.0
-13116,-512,-2312,147,159,-414,2025-01-29 10:39:26,0.0
-13280,-516,-2288,237,133,-363,2025-01-29 10:39:26,0.0
-13376,-292,-2336,263,86,-356,2025-01-29 10:39:26,0.0
-13320,-196,-2692,286,-39,-390,2025-01-29 10:39:26,0.0
-13408,132,-2772,182,-118,-342,2025-01-29 10:39:26,0.0
-13460,224,-2532,72,-277,-258,2025-01-29 10:39:26,0.0
-13256,176,-2428,-68,-325,-176,2025-01-29 10:39:26,0.0
-13640,-352,-2608,4,-23,-250,2025-01-29 10:39:26,0.0
-13520,-404,-2660,-2,98,-243,2025-01-29 10:39:26,0.0
-13284,-312,-2796,-17,165,-242,2025-01-29 10:39:26,0.0
-13172,-208,-2676,-146,96,-256,2025-01-29 10:39:27,0.0
-13060,-204,-2632,-457,-51,-373,2025-01-29 10:39:27,0.0
-13188,-8,-2772,-395,172,-436,2025-01-29 10:39:27,0.0
-13460,-56,-2796,-396,92,-519,2025-01-29 10:39:27,0.0
-13556,-208,-2724,-331,-253,-463,2025-01-29 10:39:27,0.0
-13284,-476,-2532,-162,-265,-310,2025-01-29 10:39:27,0.0
-13408,-456,-2440,-43,-135,-177,2025-01-29 10:39:27,0.0
-13376,-396,-2512,43,-184,-91,2025-01-29 10:39:27,0.0
-13484,-416,-2292,94,-226,-66,2025-01-29 10:39:27,0.0
-13288,-268,-2436,110,-101,-142,2025-01-29 10:39:27,0.0
-13368,104,-2556,24,-58,-221,2025-01-29 10:39:27,0.0
-13380,-188,-2460,-38,-19,-259,2025-01-29 10:39:27,0.0
-13448,-540,-2396,-61,-159,-276,2025-01-29 10:39:27,0.0
-13308,-808,-2152,30,-191,-255,2025-01-29 10:39:27,0.0
-13196,-484,-1892,73,-112,-227,2025-01-29 10:39:27,0.0
-13232,-288,-2044,44,-54,-305,2025-01-29 10:39:27,0.0
-13424,-236,-1956,6,35,-358,2025-01-29 10:39:27,0.0
-13572,-320,-1836,5,159,-389,2025-01-29 10:39:27,0.0
-13820,-536,-2188,8,56,-365,2025-01-29 10:39:27,0.0
-13560,-388,-2436,-16,-138,-326,2025-01-29 10:39:27,0.0
-13476,-292,-2424,-2,-159,-255,2025-01-29 10:39:27,0.0
-13424,-176,-2436,-68,-166,-150,2025-01-29 10:39:27,0.0
-13216,-232,-2412,-152,-183,-62,2025-01-29 10:39:27,0.0
-13188,-268,-2500,-154,-139,-74,2025-01-29 10:39:27,0.0
-13540,-468,-2408,129,-22,-236,2025-01-29 10:39:27,0.0
-13512,-220,-2320,49,-176,-221,2025-01-29 10:39:27,0.0
-13524,-120,-2336,-61,-216,-160,2025-01-29 10:39:27,0.0
-13360,-184,-2304,-177,-133,-166,2025-01-29 10:39:27,0.0
-13212,-316,-2112,-229,12,-166,2025-01-29 10:39:27,
-13272,-488,-2164,-224,177,-222,2025-01-29 10:39:27,0.0
-13344,-680,-2092,-202,255,-238,2025-01-29 10:39:27,0.0
-13152,-568,-2184,-194,122,-227,2025-01-29 10:39:27,0.0
-13036,-456,-2348,-173,147,-218,2025-01-29 10:39:27,0.0
-13224,-528,-2428,-273,206,-91,2025-01-29 10:39:28,0.0
-13280,-448,-2052,-249,218,-114,2025-01-29 10:39:28,0.0
-13644,-272,-2520,-281,285,-279,2025-01-29 10:39:28,0.0
-13556,-280,-2152,-291,95,-347,2025-01-29 10:39:28,0.0
-13288,-460,-2260,-273,65,-333,2025-01-29 10:39:28,0.0
-13276,-460,-2164,-215,208,-276,2025-01-29 10:39:28,0.0
-13492,-372,-2280,-170,186,-261,2025-01-29 10:39:28,0.0
-13476,-460,-2400,-93,62,-203,2025-01-29 10:39:28,0.0
-13452,-552,-2268,-51,13,-117,2025-01-29 10:39:28,0.0
-13492,-416,-2196,-156,240,-167,2025-01-29 10:39:28,0.0
-13484,-324,-2208,-164,194,-174,2025-01-29 10:39:28,0.0
-13452,-360,-2196,-185,131,-190,2025-01-29 10:39:28,0.0
-13424,-220,-2280,-249,110,-230,2025-01-29 10:39:28,0.0
-13532,-100,-2304,-278,150,-248,2025-01-29 10:39:28,0.0
-13484,-336,-2460,-326,85,-215,2025-01-29 10:39:28,0.0
-13312,-396,-2432,-325,31,-186,2025-01-29 10:39:28,0.0
-13304,-576,-2076,-271,44,-187,2025-01-29 10:39:28,0.0
-13412,-564,-2112,-237,16,-192,2025-01-29 10:39:28,0.0
-13408,-608,-2088,-197,132,-153,2025-01-29 10:39:28,0.0
-13460,-488,-2188,-186,234,-157,2025-01-29 10:39:28,0.0
-13512,-248,-2048,-221,199,-182,2025-01-29 10:39:28,0.0
-13480,-192,-2080,-222,126,-240,2025-01-29 10:39:28,0.0
-13432,-348,-2088,-253,134,-180,2025-01-29 10:39:28,0.0
-13308,-604,-2092,-214,175,-189,2025-01-29 10:39:28,0.0
-13228,-524,-2040,-77,168,-197,2025-01-29 10:39:28,0.0
-13420,-508,-1936,-75,170,-177,2025-01-29 10:39:28,0.0
-13304,-460,-2260,-80,151,-179,2025-01-29 10:39:28,0.0
-13368,-324,-2300,-145,142,-174,2025-01-29 10:39:28,0.0
-13480,-240,-2308,-206,96,-316,2025-01-29 10:39:28,0.0
-13348,-212,-2228,-288,66,-267,2025-01-29 10:39:28,0.0
-13416,-364,-2268,-287,140,-266,2025-01-29 10:39:28,0.0
-13424,-528,-2148,-104,-20,-115,2025-01-29 10:39:28,0.0
-13484,-392,-2128,-92,-47,-130,2025-01-29 10:39:28,0.0
-13240,-324,-2184,-117,-71,-129,2025-01-29 10:39:28,0.0
-13256,-232,-2192,-149,-51,-108,2025-01-29 10:39:28,0.0
-13452,-572,-1740,-234,119,-220,2025-01-29 10:39:28,0.0
-13516,-480,-1972,-187,122,-245,2025-01-29 10:39:28,0.0
-13376,-432,-2240,-193,82,-165,2025-01-29 10:39:28,0.0
-13392,-364,-2192,-187,51,-158,2025-01-29 10:39:29,0.0
-13420,-228,-2120,-212,-10,-190,2025-01-29 10:39:29,0.0
-13432,-136,-2080,-238,2,-230,2025-01-29 10:39:29,0.0
-13588,-476,-1896,-225,12,-232,2025-01-29 10:39:29,0.0
-13484,-416,-2088,-196,-89,-199,2025-01-29 10:39:29,0.0
-13544,-396,-1992,-192,-54,-154,2025-01-29 10:39:29,0.0
-13388,-468,-1904,-182,15,-130,2025-01-29 10:39:29,0.0
-13404,-396,-2044,-161,50,-130,2025-01-29 10:39:29,0.0
-13360,-336,-1900,-155,40,-141,2025-01-29 10:39:29,0.0
-13388,-412,-2124,-165,73,-127,2025-01-29 10:39:29,0.0
-13456,-352,-2140,-165,53,-127,2025-01-29 10:39:29,0.0
-13436,-420,-1964,-146,25,-137,2025-01-29 10:39:29,0.0
-13576,-424,-1884,-151,-28,-172,2025-01-29 10:39:29,0.0
-13396,-448,-1852,-169,2,-185,2025-01-29 10:39:29,0.0
-13172,-512,-1868,-179,39,-221,2025-01-29 10:39:29,0.0
-13280,-452,-2008,-180,65,-243,2025-01-29 10:39:29,0.0
-13356,-476,-1956,-184,72,-229,2025-01-29 10:39:29,0.0
-13392,-456,-1868,-188,134,-208,2025-01-29 10:39:29,0.0
-13408,-440,-1980,-184,130,-221,2025-01-29 10:39:29,0.0
-13400,-324,-1944,-214,90,-196,2025-01-29 10:39:29,0.0
-13556,-344,-1908,-204,80,-165,2025-01-29 10:39:29,0.0
-13524,-512,-1964,-192,48,-152,2025-01-29 10:39:29,0.0
-13340,-552,-1748,-123,50,-153,2025-01-29 10:39:29,0.0
-13252,-616,-1996,-94,127,-228,2025-01-29 10:39:29,0.0
-13392,-492,-1984,-91,125,-233,2025-01-29 10:39:29,0.0
-13520,-384,-1956,-71,107,-250,2025-01-29 10:39:29,0.0
-13436,-332,-1736,-79,134,-204,2025-01-29 10:39:29,0.0
-13372,-384,-1884,-105,166,-151,2025-01-29 10:39:29,0.0
-13368,-272,-2104,-131,157,-159,2025-01-29 10:39:29,0.0
-13416,-304,-1888,-144,153,-203,2025-01-29 10:39:29,0.0
-13440,-460,-2096,-151,212,-205,2025-01-29 10:39:29,0.0
-13420,-500,-2052,-107,326,-239,2025-01-29 10:39:29,0.0
-13432,-560,-2016,-88,694,-195,2025-01-29 10:39:29,0.0
-13440,-288,-2120,-76,958,-210,2025-01-29 10:39:29,0.0
-13928,-388,-1980,-131,1489,-270,2025-01-29 10:39:29,0.0
-15020,-608,-2120,79,2397,-458,2025-01-29 10:39:29,0.0
-17020,-156,-2760,69,4087,-748,2025-01-29 10:39:29,0.0
-19416,-64,-4784,-41,6150,-682,2025-01-29 10:39:29,0.0
-22452,-432,-4928,-165,7498,-484,2025-01-29 10:39:29,0.0
-23028,-1568,-7180,17,8677,-128,2025-01-29 10:39:29,0.0
-23508,-1704,-8112,419,9385,-201,2025-01-29 10:39:29,0.0
-24080,-1480,-7992,413,8624,-94,2025-01-29 10:39:29,0.0
-24044,-1396,-7184,350,7782,219,2025-01-29 10:39:29,0.0
-22636,-788,-7076,217,7989,530,2025-01-29 10:39:29,0.0
-20660,-260,-6752,325,9113,431,2025-01-29 10:39:29,0.0
-19280,-596,-5444,543,9287,244,2025-01-29 10:39:29,0.0
-17328,-396,-4616,636,9049,328,2025-01-29 10:39:29,0.0
-15396,-388,-4780,627,9192,575,2025-01-29 10:39:29,0.0
-13444,-168,-4624,611,9735,743,2025-01-29 10:39:29,0.0
-12436,-332,-5360,770,10712,671,2025-01-29 10:39:29,0.0
-12256,-560,-5044,947,10694,779,2025-01-29 10:39:29,0.0
-12004,-1252,-5084,1307,9099,1052,2025-01-29 10:39:29,0.0
-12100,-980,-5824,1257,8289,1396,2025-01-29 10:39:29,0.0
-12196,-900,-4944,1358,8419,1356,2025-01-29 10:39:29,0.0
-11632,-932,-5432,1539,8957,853,2025-01-29 10:39:29,0.0
-10556,-588,-6612,1646,9026,481,2025-01-29 10:39:29,0.0
-10584,184,-7708,1689,8702,494,2025-01-29 10:39:29,0.0
-10716,280,-9240,1206,8802,561,2025-01-29 10:39:29,
-10724,292,-9596,694,8550,-118,2025-01-29 10:39:29,0.0
-11744,576,-9992,511,7660,-770,2025-01-29 10:39:29,0.0
-12208,884,-10652,189,5756,-949,2025-01-29 10:39:29,0.0
-11740,808,-10508,-830,2634,-851,2025-01-29 10:39:29,0.0
-11120,420,-9532,-1376,-301,-963,2025-01-29 10:39:30,0.0
-10696,-120,-8092,-1139,-3067,-707,2025-01-29 10:39:30,0.0
-10180,-184,-8052,-986,-5334,-170,2025-01-29 10:39:30,0.0
-8272,-84,-7616,-1181,-6038,-343,2025-01-29 10:39:30,0.0
-7948,-280,-5876,-1323,-6908,-484,2025-01-29 10:39:30,0.0
-7156,-200,-5100,-1136,-8016,-466,2025-01-29 10:39:30,0.0
-7148,68,-5004,-864,-7632,-209,2025-01-29 10:39:30,0.0
-6608,-88,-4956,-911,-6106,159,2025-01-29 10:39:30,0.0
-5296,-308,-4516,-1084,-5475,323,2025-01-29 10:39:30,0.0
-3032,-668,-3156,-105,-6635,396,2025-01-29 10:39:30,0.0
-2928,-508,-2856,300,-6353,236,2025-01-29 10:39:30,0.0
-3564,-388,-2972,795,-3857,-200,2025-01-29 10:39:30,0.0
-3944,-684,-3476,1053,-101,-1093,2025-01-29 10:39:30,0.0
-4032,-912,-3088,1237,1326,-2163,2025-01-29 10:39:30,0.0
-5212,-388,-2856,1668,526,-2152,2025-01-29 10:39:30,0.0
-6284,112,-3676,1742,-157,-1443,2025-01-29 10:39:30,0.0
-6060,228,-5056,1312,68,-743,2025-01-29 10:39:30,0.0
-5964,-420,-5684,885,1358,-582,2025-01-29 10:39:30,0.0
-6428,-1416,-6080,668,3339,-892,2025-01-29 10:39:30,0.0
-7932,-1712,-5256,1022,5322,-864,2025-01-29 10:39:30,0.0
-9040,-2072,-5488,1365,5639,-552,2025-01-29 10:39:30,0.0
-10156,-2004,-6508,998,4332,-423,2025-01-29 10:39:30,0.0
-11056,-1096,-8832,571,2722,-143,2025-01-29 10:39:30,0.0
-11596,124,-9668,583,1131,543,2025-01-29 10:39:30,0.0
-10736,900,-9284,718,-632,1095,2025-01-29 10:39:30,0.0
-9176,512,-9808,449,-1288,1046,2025-01-29 10:39:30,0.0
-8288,-32,-12344,-431,435,667,2025-01-29 10:39:30,0.0
-9096,20,-12568,-1452,4288,-45,2025-01-29 10:39:30,0.0
-11000,144,-9884,-1813,7272,-990,2025-01-29 10:39:30,0.0
-13168,456,-9180,-1836,8180,-1875,2025-01-29 10:39:30,0.0
-14300,56,-11192,-1224,7179,-2668,2025-01-29 10:39:30,0.0
-15200,-960,-10032,-776,2229,-2472,2025-01-29 10:39:30,0.0
-15068,-1312,-8504,-1068,-2576,-780,2025-01-29 10:39:30,0.0
-12056,-1936,-6964,-1201,-4735,378,2025-01-29 10:39:30,0.0
-9036,-2116,-7148,-821,-5039,287,2025-01-29 10:39:30,0.0
-8252,-1556,-6928,-903,-3369,-264,2025-01-29 10:39:30,0.0
-8556,-644,-6512,-902,-637,-456,2025-01-29 10:39:30,0.0
-9068,-208,-6184,-595,2041,-652,2025-01-29 10:39:30,0.0
-10436,-232,-6320,-264,3178,-1203,2025-01-29 10:39:30,0.0
-12268,0,-7044,-194,2168,-1104,2025-01-29 10:39:30,0.0
-12920,-260,-8120,-563,251,-572,2025-01-29 10:39:30,0.0
-12256,-580,-8988,-969,-945,-142,2025-01-29 10:39:30,0.0
-11308,-916,-9224,-1268,-1029,-150,2025-01-29 10:39:30,0.0
-10392,-1340,-8352,-1188,-918,-414,2025-01-29 10:39:30,0.0
-10304,-1736,-8016,-819,-338,-596,2025-01-29 10:39:30,0.0
-11384,-448,-7904,-765,-397,-648,2025-01-29 10:39:30,0.0
-11160,-864,-7064,-466,-1016,-742,2025-01-29 10:39:30,0.0
-10940,-988,-6996,-178,-1171,-729,2025-01-29 10:39:30,0.0
-10788,-676,-7320,-91,-722,-521,2025-01-29 10:39:30,0.0
-10532,-340,-7484,-125,-198,-414,2025-01-29 10:39:30,0.0
-10912,-348,-7724,-177,51,-381,2025-01-29 10:39:30,0.0
-11040,-708,-7692,-1,-19,-379,2025-01-29 10:39:30,0.0
-11248,-1184,-7572,363,-187,-389,2025-01-29 10:39:30,0.0
-11244,-1460,-7264,926,-248,-285,2025-01-29 10:39:31,0.0
-11276,-1520,-7364,1361,-36,-187,2025-01-29 10:39:31,0.0
-11280,-1232,-7636,1631,-29,-13,2025-01-29 10:39:31,0.0
-11136,-664,-8048,1645,-191,151,2025-01-29 10:39:31,0.0
-11112,-276,-8220,1540,-363,187,2025-01-29 10:39:31,0.0
-10976,-40,-8264,1341,-614,112,2025-01-29 10:39:31,0.0
-10812,-8,-8012,1199,-687,-90,2025-01-29 10:39:31,0.0
-10840,92,-8168,1077,-664,-217,2025-01-29 10:39:31,0.0
-10764,-76,-8260,854,-628,-451,2025-01-29 10:39:31,0.0
-10960,-308,-7980,669,-358,-594,2025-01-29 10:39:31,0.0
-10932,-168,-7740,466,-341,-802,2025-01-29 10:39:31,0.0
-10888,-228,-8020,184,-518,-922,2025-01-29 10:39:31,0.0
-10724,-312,-8320,-33,-664,-1080,2025-01-29 10:39:31,0.0
-10524,-180,-8308,-315,-598,-1355,2025-01-29 10:39:31,0.0
-10500,-56,-8272,-548,-514,-1787,2025-01-29 10:39:31,0.0
-10588,-164,-8324,-876,-524,-2158,2025-01-29 10:39:31,0.0
-10752,-196,-7856,-1070,-409,-2506,2025-01-29 10:39:31,0.0
-10520,-256,-8340,-1333,-351,-2973,2025-01-29 10:39:31,0.0
-10612,-552,-8636,-1767,-153,-3432,2025-01-29 10:39:31,0.0
-10788,-564,-8964,-2115,-41,-3594,2025-01-29 10:39:31,0.0
-10956,-500,-9244,-2620,-202,-3649,2025-01-29 10:39:31,0.0
-11040,-684,-9012,-3121,-469,-3784,2025-01-29 10:39:31,0.0
-10964,-1052,-8808,-3421,-771,-3877,2025-01-29 10:39:31,0.0
-10852,-1324,-8896,-3537,-1221,-4089,2025-01-29 10:39:31,0.0
-10844,-1608,-8624,-3565,-1645,-4216,2025-01-29 10:39:31,0.0
-10748,-1672,-8172,-3675,-1920,-4152,2025-01-29 10:39:31,0.0
-10560,-1852,-7744,-3798,-2026,-3941,2025-01-29 10:39:31,0.0
-10152,-1968,-7436,-3946,-1805,-3822,2025-01-29 10:39:31,0.0
-10056,-1708,-7352,-4163,-1332,-3703,2025-01-29 10:39:31,0.0
-9744,-2040,-7572,-4473,-617,-3534,2025-01-29 10:39:31,0.0
-9952,-2712,-7016,-4752,312,-3510,2025-01-29 10:39:31,0.0
-10696,-3092,-6692,-4843,803,-3375,2025-01-29 10:39:31,0.0
-11220,-3040,-6832,-5003,890,-3238,2025-01-29 10:39:31,0.0
-11588,-2672,-7032,-5088,712,-3301,2025-01-29 10:39:31,0.0
-11756,-2404,-7108,-5113,442,-3580,2025-01-29 10:39:31,0.0
-11740,-2200,-7028,-5291,53,-4051,2025-01-29 10:39:31,0.0
-11640,-1920,-7300,-5634,-333,-4433,2025-01-29 10:39:31,0.0
-11488,-1676,-7660,-6029,-563,-4837,2025-01-29 10:39:31,0.0
-11216,-2024,-7720,-6514,-566,-5234,2025-01-29 10:39:31,0.0
-10956,-2316,-7568,-6828,-612,-5497,2025-01-29 10:39:31,0.0
-10896,-2596,-7404,-7056,-560,-5608,2025-01-29 10:39:31,0.0
-10932,-2664,-7248,-7254,-291,-5686,2025-01-29 10:39:31,0.0
-10788,-3068,-6600,-7296,19,-5810,2025-01-29 10:39:31,
-10852,-3428,-6452,-7156,185,-5872,2025-01-29 10:39:31,0.0
-11208,-3564,-6656,-7004,180,-5817,2025-01-29 10:39:31,0.0
-11484,-3404,-6824,-6860,130,-5577,2025-01-29 10:39:31,0.0
-11504,-3204,-6992,-6856,46,-5281,2025-01-29 10:39:31,0.0
-11636,-3124,-6984,-6919,-110,-5070,2025-01-29 10:39:31,0.0
-11604,-2900,-6968,-6999,-480,-4769,2025-01-29 10:39:31,0.0
-11608,-2732,-6856,-7143,-879,-4315,2025-01-29 10:39:31,0.0
-11260,-2848,-7264,-7273,-1094,-4074,2025-01-29 10:39:31,0.0
-11020,-3180,-7312,-7406,-1140,-3930,2025-01-29 10:39:31,0.0
-10892,-3152,-7076,-7407,-941,-3925,2025-01-29 10:39:31,0.0
-11084,-3116,-7228,-7405,-745,-3903,2025-01-29 10:39:31,0.0
-11264,-2996,-7112,-7437,-609,-3739,2025-01-29 10:39:31,0.0
-11336,-2740,-7076,-7523,-549,-3433,2025-01-29 10:39:31,0.0
-10872,-2568,-7360,-7700,-630,-3228,2025-01-29 10:39:31,0.0
-10736,-2812,-7316,-7818,-387,-3180,2025-01-29 10:39:31,0.0
-10784,-2960,-6968,-7777,148,-3268,2025-01-29 10:39:31,0.0
-10668,-2728,-6816,-7758,643,-3405,2025-01-29 10:39:31,0.0
-10940,-2292,-7032,-7911,969,-3520,2025-01-29 10:39:31,0.0
-11240,-2228,-7800,-8102,913,-3614,2025-01-29 10:39:31,0.0
-11388,-2556,-7824,-8188,714,-3734,2025-01-29 10:39:31,0.0
-11476,-2668,-7800,-8243,438,-3990,2025-01-29 10:39:31,0.0
-11492,-2648,-6916,-8386,117,-4266,2025-01-29 10:39:32,0.0
-11468,-2584,-6908,-8556,-289,-4386,2025-01-29 10:39:32,0.0
-11064,-2412,-6868,-8774,-443,-4450,2025-01-29 10:39:32,0.0
-10784,-2364,-7160,-9057,-226,-4471,2025-01-29 10:39:32,0.0
-10720,-2640,-7344,-9308,42,-4426,2025-01-29 10:39:32,0.0
-10876,-3024,-7876,-9335,298,-4583,2025-01-29 10:39:32,0.0
-10876,-3264,-8832,-9262,619,-4831,2025-01-29 10:39:32,0.0
-11020,-2876,-8948,-8873,603,-5151,2025-01-29 10:39:32,0.0
-11416,-2960,-8616,-8335,-138,-5378,2025-01-29 10:39:32,0.0
-11172,-3232,-8452,-7619,-1245,-5201,2025-01-29 10:39:32,0.0
-10400,-2852,-9392,-7146,-1697,-5007,2025-01-29 10:39:32,0.0
-10180,-2292,-9572,-7125,-1493,-4689,2025-01-29 10:39:32,0.0
-9864,-1992,-8896,-7125,-583,-4518,2025-01-29 10:39:32,0.0
-10064,-1780,-8508,-7204,248,-4536,2025-01-29 10:39:32,0.0
-10704,-1900,-9012,-7505,445,-4194,2025-01-29 10:39:32,0.0
-10916,-1960,-9208,-7685,-110,-3203,2025-01-29 10:39:32,0.0
-10180,-2036,-9332,-7792,-153,-3057,2025-01-29 10:39:32,0.0
-10320,-1856,-9384,-7898,359,-3231,2025-01-29 10:39:32,0.0
-10772,-1140,-9400,-7741,798,-2908,2025-01-29 10:39:32,0.0
-10576,24,-9608,-7755,1277,-2475,2025-01-29 10:39:32,0.0
-10060,1052,-9880,-8235,1895,-2373,2025-01-29 10:39:32,0.0
-9368,1876,-9912,-8965,2331,-2805,2025-01-29 10:39:32,0.0
-9052,2104,-9640,-9745,2307,-3569,2025-01-29 10:39:32,0.0
-8944,2032,-9672,-10404,2356,-4368,2025-01-29 10:39:32,0.0
-8676,1480,-9668,-10895,2327,-5133,2025-01-29 10:39:32,0.0
-8976,1340,-9188,-11293,2069,-5741,2025-01-29 10:39:32,0.0
-9120,1428,-8404,-11498,1668,-6137,2025-01-29 10:39:32,0.0
-9196,1208,-7860,-11390,1575,-6459,2025-01-29 10:39:32,0.0
-9340,996,-8108,-11344,1832,-6939,2025-01-29 10:39:32,0.0
-9812,1256,-8696,-11538,1752,-7158,2025-01-29 10:39:32,0.0
-10336,1652,-9520,-11886,1314,-7174,2025-01-29 10:39:32,0.0
-10824,1808,-9424,-12070,1391,-7141,2025-01-29 10:39:32,0.0
-10776,1572,-9820,-12163,1606,-7221,2025-01-29 10:39:32,0.0
-11276,816,-9952,-12268,1686,-7377,2025-01-29 10:39:32,0.0
-11532,380,-9652,-12313,1195,-7286,2025-01-29 10:39:32,0.0
-11220,92,-9044,-12412,23,-7165,2025-01-29 10:39:32,0.0
-11084,548,-8348,-12440,-893,-7066,2025-01-29 10:39:32,0.0
-10928,1268,-8416,-12447,-947,-6923,2025-01-29 10:39:32,0.0
-10064,1556,-8504,-12413,-1000,-6989,2025-01-29 10:39:32,0.0
-9696,1564,-8664,-12402,-1089,-7347,2025-01-29 10:39:32,0.0
-9612,1272,-8092,-12274,-1208,-7843,2025-01-29 10:39:32,0.0
-9728,756,-8068,-12073,-1558,-8232,2025-01-29 10:39:32,0.0
-9592,496,-7816,-11861,-1637,-8358,2025-01-29 10:39:32,0.0
-9620,416,-7936,-11522,-1502,-8233,2025-01-29 10:39:32,0.0
-9196,632,-8172,-11270,-1197,-8198,2025-01-29 10:39:32,0.0
-9120,1100,-8480,-11111,-603,-8375,2025-01-29 10:39:32,0.0
-9500,1636,-8360,-11007,120,-8608,2025-01-29 10:39:32,0.0
-9952,1896,-8864,-11085,362,-8688,2025-01-29 10:39:32,0.0
-9788,2272,-9296,-11134,67,-8827,2025-01-29 10:39:32,0.0
-9296,2448,-9828,-11247,-269,-9089,2025-01-29 10:39:32,0.0
-8960,2472,-10160,-11506,-427,-9469,2025-01-29 10:39:32,0.0
-9156,2272,-9836,-11771,-208,-9712,2025-01-29 10:39:32,0.0
-9668,1976,-9192,-11970,367,-9733,2025-01-29 10:39:32,0.0
-10452,1344,-8296,-11893,789,-9640,2025-01-29 10:39:32,0.0
-10760,916,-7784,-11613,303,-9542,2025-01-29 10:39:32,0.0
-11020,744,-7648,-11185,-332,-9220,2025-01-29 10:39:32,0.0
-10616,456,-7720,-10514,-475,-8766,2025-01-29 10:39:32,0.0
-10348,-16,-7588,-9690,-188,-8547,2025-01-29 10:39:32,0.0
-10684,-432,-7340,-8934,277,-8462,2025-01-29 10:39:32,0.0
-11520,-1016,-7248,-8170,521,-8082,2025-01-29 10:39:32,0.0
-12276,-920,-6692,-7186,6,-7276,2025-01-29 10:39:32,0.0
-12192,-728,-6664,-6484,-953,-6637,2025-01-29 10:39:33,0.0
-11868,-536,-6480,-5783,-1589,-6230,2025-01-29 10:39:33,0.0
-11396,-584,-6804,-5086,-1480,-5863,2025-01-29 10:39:33,0.0
-11088,-784,-6984,-4492,-716,-5437,2025-01-29 10:39:33,0.0
-11416,-436,-7036,-4044,447,-5035,2025-01-29 10:39:33,0.0
-12196,316,-7024,-3619,1135,-4419,2025-01-29 10:39:33,0.0
-12552,384,-7744,-3429,973,-3620,2025-01-29 10:39:33,0.0
-11948,604,-8708,-3221,290,-3165,2025-01-29 10:39:33,0.0
-11084,916,-8568,-3135,-794,-3159,2025-01-29 10:39:33,0.0
-10436,980,-8044,-3110,-1502,-3577,2025-01-29 10:39:33,0.0
-10104,808,-7572,-3061,-1254,-3754,2025-01-29 10:39:33,0.0
-9924,696,-7672,-3104,-559,-4059,2025-01-29 10:39:33,0.0
-10304,408,-7740,-3098,72,-4322,2025-01-29 10:39:33,0.0
-10628,36,-7812,-3320,152,-4545,2025-01-29 10:39:33,0.0
-10928,140,-7636,-3460,-540,-4674,2025-01-29 10:39:33,0.0
-10488,408,-8536,-3953,-1294,-4969,2025-01-29 10:39:33,0.0
-10248,636,-8644,-4596,-1520,-5153,2025-01-29 10:39:33,0.0
-10012,168,-8352,-5247,-1244,-5271,2025-01-29 10:39:33,
-9756,-608,-8124,-5735,-669,-5737,2025-01-29 10:39:33,0.0
-10240,-1600,-8316,-6143,-222,-6342,2025-01-29 10:39:33,0.0
-10848,-2104,-7880,-6412,-185,-6572,2025-01-29 10:39:33,0.0
-11044,-2352,-7916,-6875,-464,-6561,2025-01-29 10:39:33,0.0
-11004,-2084,-8232,-7548,-617,-6308,2025-01-29 10:39:33,0.0
-10824,-2376,-8716,-8174,-43,-6185,2025-01-29 10:39:33,0.0
-11092,-2432,-8700,-8463,807,-6040,2025-01-29 10:39:33,0.0
-11540,-2860,-8000,-8372,1191,-5996,2025-01-29 10:39:33,0.0
-11856,-3656,-7440,-8013,917,-6196,2025-01-29 10:39:33,0.0
-12420,-4152,-6804,-7371,265,-6509,2025-01-29 10:39:33,0.0
-13020,-4568,-6808,-6657,-552,-6420,2025-01-29 10:39:33,0.0
-13004,-4232,-6840,-6096,-1418,-5834,2025-01-29 10:39:33,0.0
-12116,-3604,-6564,-5773,-2065,-5357,2025-01-29 10:39:33,0.0
-11448,-2924,-6540,-5549,-2283,-5163,2025-01-29 10:39:33,0.0
-10704,-2876,-6248,-5552,-2032,-4917,2025-01-29 10:39:33,0.0
-10464,-3016,-6056,-5448,-1331,-4610,2025-01-29 10:39:33,0.0
-10276,-3120,-6212,-5309,-212,-4213,2025-01-29 10:39:33,0.0
-10144,-3036,-6408,-5049,594,-4095,2025-01-29 10:39:33,0.0
-10652,-2820,-6720,-4838,797,-3986,2025-01-29 10:39:33,0.0
-11192,-2680,-6824,-4686,978,-3781,2025-01-29 10:39:33,0.0
-11392,-2652,-6652,-4553,1064,-3526,2025-01-29 10:39:33,0.0
-11436,-2772,-6528,-4445,922,-3501,2025-01-29 10:39:33,0.0
-11844,-3100,-7000,-4315,709,-3233,2025-01-29 10:39:33,0.0
-11528,-3156,-7144,-3958,740,-3108,2025-01-29 10:39:33,0.0
-11476,-2916,-6788,-3589,518,-3078,2025-01-29 10:39:33,0.0
-11412,-2760,-6556,-3270,332,-3048,2025-01-29 10:39:33,0.0
-11368,-2556,-6600,-3108,429,-3003,2025-01-29 10:39:33,0.0
-11304,-2472,-6528,-3050,599,-2773,2025-01-29 10:39:33,0.0
-11280,-2464,-6248,-3096,740,-2588,2025-01-29 10:39:33,0.0
-11372,-2872,-6260,-3033,749,-2374,2025-01-29 10:39:33,0.0
-11164,-3180,-6300,-2801,838,-2197,2025-01-29 10:39:33,0.0
-11160,-3388,-6164,-2459,983,-2131,2025-01-29 10:39:33,0.0
-11284,-3216,-6200,-2185,1044,-2021,2025-01-29 10:39:33,0.0
-11416,-2996,-6568,-1958,934,-1783,2025-01-29 10:39:33,0.0
-11380,-2644,-6296,-1962,966,-1482,2025-01-29 10:39:33,0.0
-11328,-1920,-6472,-2078,906,-1273,2025-01-29 10:39:33,0.0
-11608,-1632,-6512,-2380,854,-1151,2025-01-29 10:39:33,0.0
-11792,-1976,-6392,-2580,763,-1059,2025-01-29 10:39:33,0.0
-11596,-2352,-6252,-2479,508,-1064,2025-01-29 10:39:33,0.0
-11552,-2596,-6060,-2364,346,-1160,2025-01-29 10:39:33,0.0
-11456,-2416,-6100,-2249,81,-995,2025-01-29 10:39:33,0.0
-11120,-2052,-6316,-2333,265,-894,2025-01-29 10:39:33,0.0
-10944,-1752,-6132,-2540,852,-1024,2025-01-29 10:39:33,0.0
-11140,-1804,-5860,-2733,1381,-1144,2025-01-29 10:39:33,0.0
-11488,-1976,-5792,-2932,1465,-1340,2025-01-29 10:39:33,0.0
-11956,-2032,-6248,-3195,1269,-1497,2025-01-29 10:39:34,0.0
-12188,-2020,-6412,-3268,676,-1516,2025-01-29 10:39:34,0.0
-11892,-2304,-6472,-3367,158,-1550,2025-01-29 10:39:34,0.0
-11520,-2332,-6476,-3555,118,-1874,2025-01-29 10:39:34,0.0
-11568,-2532,-6440,-3846,266,-2194,2025-01-29 10:39:34,0.0
-12164,-2984,-6028,-4073,524,-2493,2025-01-29 10:39:34,0.0
-12704,-3160,-5676,-4146,469,-2484,2025-01-29 10:39:34,0.0
-12516,-2532,-6496,-3853,85,-2511,2025-01-29 10:39:34,0.0
-12316,-2864,-7684,-3543,133,-2786,2025-01-29 10:39:34,0.0
-12344,-4664,-7212,-2286,654,-3135,2025-01-29 10:39:34,0.0
-12684,-5984,-7452,-603,755,-3432,2025-01-29 10:39:34,0.0
-13340,-6580,-8376,639,796,-3289,2025-01-29 10:39:34,0.0
-14560,-6468,-8628,1329,322,-2432,2025-01-29 10:39:34,0.0
-15652,-4980,-9160,1737,-714,-519,2025-01-29 10:39:34,0.0
-15084,-2800,-9480,1275,-2084,1628,2025-01-29 10:39:34,0.0
-13128,-1484,-9856,105,-3399,2653,2025-01-29 10:39:34,0.0
-12464,-1516,-9256,-750,-4070,3376,2025-01-29 10:39:34,0.0
-11200,-1792,-8952,-1018,-4118,3902,2025-01-29 10:39:34,0.0
-9748,-1776,-9040,-838,-3643,4100,2025-01-29 10:39:34,0.0
-8492,-1388,-8952,-475,-3177,3745,2025-01-29 10:39:34,0.0
-7348,-420,-9092,-319,-2472,2966,2025-01-29 10:39:34,0.0
-6648,348,-9164,-584,-1504,2083,2025-01-29 10:39:34,0.0
-7076,1728,-9048,-1087,-186,1179,2025-01-29 10:39:34,0.0
-8192,2240,-8852,-1863,1588,468,2025-01-29 10:39:34,0.0
-9604,2072,-9216,-2477,2825,172,2025-01-29 10:39:34,0.0
-11296,992,-9668,-2771,3226,365,2025-01-29 10:39:34,0.0
-12212,-420,-9524,-2875,2636,748,2025-01-29 10:39:34,0.0
-12728,-1812,-8580,-2591,1389,1097,2025-01-29 10:39:34,0.0
-12944,-2492,-7888,-2129,6,1765,2025-01-29 10:39:34,0.0
-12552,-2136,-7196,-1707,-1138,2558,2025-01-29 10:39:34,0.0
-11524,-1236,-7224,-1381,-1995,3030,2025-01-29 10:39:34,0.0
-10532,-152,-6956,-1045,-2430,3196,2025-01-29 10:39:34,0.0
-9972,788,-6784,-688,-2295,3241,2025-01-29 10:39:34,0.0
-9028,1132,-6648,-331,-1454,2937,2025-01-29 10:39:34,0.0
-8620,1116,-6656,35,-368,2343,2025-01-29 10:39:34,0.0
-8936,792,-6704,318,819,1790,2025-01-29 10:39:34,0.0
-9936,808,-6448,493,1665,1643,2025-01-29 10:39:34,0.0
-10932,1040,-6840,626,1760,1857,2025-01-29 10:39:34,0.0
-11016,1404,-7264,595,1258,1998,2025-01-29 10:39:34,0.0
-10964,1732,-7440,452,224,1807,2025-01-29 10:39:34,0.0
-10804,1636,-7560,438,-712,1428,2025-01-29 10:39:34,0.0
-10660,1480,-7364,483,-1383,993,2025-01-29 10:39:34,0.0
-10324,1156,-6960,624,-1571,419,2025-01-29 10:39:34,0.0
-10080,740,-6364,728,-1481,-88,2025-01-29 10:39:34,0.0
-9896,516,-6116,913,-1194,-295,2025-01-29 10:39:34,0.0
-9664,832,-6124,970,-822,-642,2025-01-29 10:39:34,0.0
-10176,1152,-6504,910,-714,-762,2025-01-29 10:39:34,0.0
-10232,1644,-6548,820,-723,-641,2025-01-29 10:39:34,0.0
-10060,1460,-6140,722,-830,-708,2025-01-29 10:39:34,0.0
-10148,664,-5596,795,-709,-976,2025-01-29 10:39:34,0.0
-10256,316,-5244,980,-27,-1232,2025-01-29 10:39:34,0.0
-10760,804,-5628,1216,719,-1477,2025-01-29 10:39:34,0.0
-11652,1192,-6396,1245,1440,-1453,2025-01-29 10:39:34,0.0
-12464,1404,-7016,1162,1568,-1212,2025-01-29 10:39:34,0.0
-12792,336,-7328,1149,1194,-941,2025-01-29 10:39:34,
-13196,-1560,-6684,1419,496,-460,2025-01-29 10:39:34,0.0
-12936,-2712,-5792,2040,185,102,2025-01-29 10:39:34,0.0
-12420,-2200,-5972,2820,379,551,2025-01-29 10:39:34,0.0
-12180,-732,-6096,3315,958,794,2025-01-29 10:39:34,0.0
-12892,492,-6564,3767,1826,1037,2025-01-29 10:39:35,0.0
-13544,672,-7788,3742,3225,1527,2025-01-29 10:39:35,0.0
-14132,176,-9152,3444,4108,1873,2025-01-29 10:39:35,0.0
-14884,212,-10196,2830,4245,2215,2025-01-29 10:39:35,0.0
-15192,860,-10616,1985,3179,2528,2025-01-29 10:39:35,0.0
-15284,2104,-10876,944,1601,2643,2025-01-29 10:39:35,0.0
-14680,2948,-10680,-71,-449,2517,2025-01-29 10:39:35,0.0
-13096,3008,-9068,-659,-2714,1740,2025-01-29 10:39:35,0.0
-11440,2048,-8644,-736,-4437,250,2025-01-29 10:39:35,0.0
-9684,1252,-8560,-750,-5115,-1014,2025-01-29 10:39:35,0.0
-8392,364,-7852,-552,-4333,-1839,2025-01-29 10:39:35,0.0
-7940,-604,-6732,-113,-2935,-2315,2025-01-29 10:39:35,0.0
-7100,-1080,-7160,23,-1507,-2419,2025-01-29 10:39:35,0.0
-7248,-1872,-7272,-296,-242,-2435,2025-01-29 10:39:35,0.0
-8108,-2060,-8008,-233,1548,-1838,2025-01-29 10:39:35,0.0
-8432,-2216,-9496,-305,3410,-1337,2025-01-29 10:39:35,0.0
-9516,-2304,-9852,-446,4370,-1534,2025-01-29 10:39:35,0.0
-11028,-2472,-9388,-168,3602,-1805,2025-01-29 10:39:35,0.0
-11872,-2208,-9524,191,2226,-1859,2025-01-29 10:39:35,0.0
-12228,-1972,-9140,506,420,-1803,2025-01-29 10:39:35,0.0
-12024,-1728,-9016,539,-1406,-1686,2025-01-29 10:39:35,0.0
-11196,-1360,-8760,307,-2635,-1649,2025-01-29 10:39:35,0.0
-9968,-1112,-8460,134,-2899,-1780,2025-01-29 10:39:35,0.0
-9336,-988,-8176,-23,-2388,-2146,2025-01-29 10:39:35,0.0
-9144,-1012,-7992,-209,-1526,-2333,2025-01-29 10:39:35,0.0
-9088,-1000,-7644,-408,-410,-2493,2025-01-29 10:39:35,0.0
-9268,-1152,-7064,-673,521,-2910,2025-01-29 10:39:35,0.0
-10208,-1660,-7068,-770,833,-3220,2025-01-29 10:39:35,0.0
-11016,-2064,-6844,-878,841,-3203,2025-01-29 10:39:35,0.0
-11616,-2088,-6816,-909,569,-3014,2025-01-29 10:39:35,0.0
-11556,-2088,-6984,-1049,11,-2838,2025-01-29 10:39:35,0.0
-11476,-2032,-6776,-1153,-568,-2653,2025-01-29 10:39:35,0.0
-10868,-2260,-6572,-1283,-752,-2309,2025-01-29 10:39:35,0.0
-10312,-2660,-6472,-1265,-338,-2073,2025-01-29 10:39:35,0.0
-10104,-2864,-6412,-1177,431,-1894,2025-01-29 10:39:35,0.0
-10308,-3044,-6164,-1047,1235,-1719,2025-01-29 10:39:35,0.0
-10572,-3028,-5984,-915,1635,-1394,2025-01-29 10:39:35,0.0
-10964,-2796,-6100,-832,1766,-1032,2025-01-29 10:39:35,0.0
-11268,-2188,-6620,-947,1562,-715,2025-01-29 10:39:35,0.0
-11604,-1832,-6476,-1164,1241,-407,2025-01-29 10:39:35,0.0
-11288,-1916,-7128,-1556,1001,-127,2025-01-29 10:39:35,0.0
-11328,-1984,-6656,-1771,838,-6,2025-01-29 10:39:35,0.0
-11180,-1976,-6972,-1980,689,-127,2025-01-29 10:39:35,0.0
-11200,-1704,-6776,-2143,720,-185,2025-01-29 10:39:35,0.0
-11132,-1456,-6684,-2279,761,-29,2025-01-29 10:39:35,0.0
-10900,-1500,-7032,-2579,1280,89,2025-01-29 10:39:35,0.0
-11004,-2420,-7108,-2990,1911,-35,2025-01-29 10:39:35,0.0
-11080,-2832,-6676,-3055,1914,-237,2025-01-29 10:39:35,0.0
-11548,-2996,-6532,-2892,1638,-410,2025-01-29 10:39:35,0.0
-11604,-2328,-6800,-2666,1365,-392,2025-01-29 10:39:35,0.0
-10848,-1340,-7456,-2670,1260,-709,2025-01-29 10:39:35,0.0
-10888,-996,-7652,-2956,1549,-1071,2025-01-29 10:39:35,0.0
-11408,-1780,-8068,-3484,1684,-1054,2025-01-29 10:39:35,0.0
-12236,-2504,-7596,-4016,1311,-984,2025-01-29 10:39:35,0.0
-13356,-2720,-6468,-4082,1026,-806,2025-01-29 10:39:35,0.0
-14252,-2936,-6096,-4151,672,-392,2025-01-29 10:39:35,0.0
-13712,-3264,-6388,-4253,-75,34,2025-01-29 10:39:36,0.0
-12268,-3168,-7668,-3763,-315,-379,2025-01-29 10:39:36,0.0
-12104,-2544,-8908,-3155,578,-1091,2025-01-29 10:39:36,0.0
-12680,-2740,-9196,-2203,1525,-1139,2025-01-29 10:39:36,0.0
-13508,-2916,-9260,-1222,1511,-875,2025-01-29 10:39:36,0.0
-13956,-2864,-9548,-533,656,-523,2025-01-29 10:39:36,0.0
-14416,-3080,-9896,-130,-1079,157,2025-01-29 10:39:36,0.0
-13548,-3696,-9908,494,-2744,717,2025-01-29 10:39:36,0.0
-12228,-3780,-9876,1121,-3828,820,2025-01-29 10:39:36,0.0
-9028,-1316,-9008,618,-5356,2082,2025-01-29 10:39:36,0.0
-6740,392,-9196,-146,-4535,2178,2025-01-29 10:39:36,0.0
-5684,1800,-9516,-820,-2632,1727,2025-01-29 10:39:36,0.0
-6216,2720,-9612,-1314,383,1321,2025-01-29 10:39:36,0.0
-7176,2556,-8800,-1494,3284,708,2025-01-29 10:39:36,0.0
-8756,1628,-8848,-1201,4540,59,2025-01-29 10:39:36,0.0
-10308,880,-9536,-1078,4416,-241,2025-01-29 10:39:36,0.0
-11136,224,-9736,-1263,2937,-316,2025-01-29 10:39:36,0.0
-11596,180,-9092,-1363,1112,-80,2025-01-29 10:39:36,0.0
-11476,172,-9252,-1390,-72,211,2025-01-29 10:39:36,0.0
-11076,-52,-9612,-1543,-463,481,2025-01-29 10:39:36,0.0
-11020,-428,-8800,-1488,-806,599,2025-01-29 10:39:36,0.0
-10920,-640,-8384,-1282,-1154,946,2025-01-29 10:39:36,0.0
-10608,-520,-7744,-986,-1364,1307,2025-01-29 10:39:36,0.0
-9948,-352,-7240,-579,-1410,1366,2025-01-29 10:39:36,0.0
-9568,16,-6876,-76,-1092,1248,2025-01-29 10:39:36,0.0
-9528,268,-7016,236,-648,1078,2025-01-29 10:39:36,0.0
-9908,500,-6880,388,-191,963,2025-01-29 10:39:36,0.0
-10424,684,-6972,455,-137,990,2025-01-29 10:39:36,0.0
-10548,680,-7192,502,-366,1086,2025-01-29 10:39:36,0.0
-10632,784,-7492,540,-564,1080,2025-01-29 10:39:36,0.0
-10500,820,-7260,599,-772,934,2025-01-29 10:39:36,0.0
-10300,936,-7452,706,-870,698,2025-01-29 10:39:36,0.0
-10100,1164,-7196,744,-1031,398,2025-01-29 10:39:36,0.0
-9960,1108,-6808,780,-963,76,2025-01-29 10:39:36,0.0
-9888,704,-6480,772,-527,-145,2025-01-29 10:39:36,0.0
-9720,488,-6156,842,-2,-294,2025-01-29 10:39:36,0.0
-10024,308,-5980,1103,694,-434,2025-01-29 10:39:36,0.0
-10656,280,-5952,1502,1237,-368,2025-01-29 10:39:36,0.0
-11068,444,-6480,1818,1353,-268,2025-01-29 10:39:36,0.0
-11156,836,-7616,1825,625,-385,2025-01-29 10:39:36,
-11396,1296,-7624,1691,-210,-727,2025-01-29 10:39:36,0.0
-11520,1128,-7552,1513,-496,-751,2025-01-29 10:39:36,0.0
-11372,844,-6668,1339,-557,-679,2025-01-29 10:39:36,0.0
-11496,156,-6168,1396,-56,-751,2025-01-29 10:39:36,0.0
-12268,-460,-5676,1581,444,-460,2025-01-29 10:39:36,0.0
-12772,-628,-6004,1876,605,74,2025-01-29 10:39:36,0.0
-12828,-916,-6028,2057,350,503,2025-01-29 10:39:36,0.0
-13216,-1176,-5752,2264,-179,855,2025-01-29 10:39:36,0.0
-13032,-1340,-5768,2691,-260,1333,2025-01-29 10:39:36,0.0
-12668,-1068,-5700,3333,-218,1903,2025-01-29 10:39:36,0.0
-12304,-868,-5620,3656,-139,2461,2025-01-29 10:39:36,0.0
-12000,-304,-5836,4014,377,3238,2025-01-29 10:39:36,0.0
-11992,268,-6808,3748,1964,3896,2025-01-29 10:39:36,0.0
-11600,-32,-7808,3325,3595,4138,2025-01-29 10:39:36,0.0
-12560,408,-9068,3039,4467,4114,2025-01-29 10:39:36,0.0
-13332,1780,-10480,2378,4686,4042,2025-01-29 10:39:36,0.0
-13968,3484,-12000,1250,4089,3801,2025-01-29 10:39:36,0.0
-13896,4420,-12172,7,2435,3099,2025-01-29 10:39:36,0.0
-13260,4440,-11016,-844,100,1793,2025-01-29 10:39:36,0.0
-12308,3280,-10692,-1304,-2203,7,2025-01-29 10:39:36,0.0
-11388,1220,-10188,-1503,-3423,-1063,2025-01-29 10:39:36,0.0
-10172,60,-8588,-1064,-3703,-1482,2025-01-29 10:39:36,0.0
-9056,-564,-7524,-471,-3214,-1931,2025-01-29 10:39:36,0.0
-8296,-972,-8076,48,-3073,-2129,2025-01-29 10:39:36,0.0
-7656,-1288,-8564,425,-3052,-2149,2025-01-29 10:39:36,0.0
-7580,-1848,-9068,587,-2131,-1871,2025-01-29 10:39:36,0.0
-7908,-2504,-8144,683,-362,-1505,2025-01-29 10:39:36,0.0
-7868,-3056,-8524,988,1592,-1134,2025-01-29 10:39:37,0.0
-8984,-3140,-8352,1194,3072,-1109,2025-01-29 10:39:37,0.0
-10272,-2292,-8764,1356,2962,-1047,2025-01-29 10:39:37,0.0
-11156,-1548,-8760,1338,2062,-885,2025-01-29 10:39:37,0.0
-11220,-912,-8748,1228,831,-1038,2025-01-29 10:39:37,0.0
-10988,-592,-9044,1038,-42,-1663,2025-01-29 10:39:37,0.0
-11112,-536,-9136,838,-688,-2300,2025-01-29 10:39:37,0.0
-10848,-556,-9188,622,-1047,-2672,2025-01-29 10:39:37,0.0
-10544,-544,-8720,222,-1183,-2916,2025-01-29 10:39:37,0.0
-10188,-728,-8252,-501,-1012,-2832,2025-01-29 10:39:37,0.0
-9472,-1104,-7784,-937,-651,-3092,2025-01-29 10:39:37,0.0
-9796,-1684,-6992,-1116,-152,-3338,2025-01-29 10:39:37,0.0
-10256,-2140,-6564,-1126,463,-3300,2025-01-29 10:39:37,0.0
-10204,-2556,-6188,-1037,998,-3250,2025-01-29 10:39:37,0.0
-10804,-2844,-6072,-841,1369,-3175,2025-01-29 10:39:37,0.0
-11248,-2876,-6460,-660,1224,-2748,2025-01-29 10:39:37,0.0
-11252,-2852,-6444,-509,1076,-2150,2025-01-29 10:39:37,0.0
-10840,-2516,-6620,-526,1128,-1801,2025-01-29 10:39:37,0.0
-10632,-2212,-6776,-642,1130,-1558,2025-01-29 10:39:37,0.0
-10628,-1960,-7032,-795,1256,-1247,2025-01-29 10:39:37,0.0
-10720,-1804,-6864,-984,1494,-924,2025-01-29 10:39:37,0.0
-10944,-1340,-6948,-1234,1584,-668,2025-01-29 10:39:37,0.0
-10880,-1148,-6932,-1608,1439,-403,2025-01-29 10:39:37,0.0
-10832,-1136,-7108,-2016,1233,-216,2025-01-29 10:39:37,0.0
-11180,-1432,-7036,-2353,1080,-104,2025-01-29 10:39:37,0.0
-11140,-1844,-6852,-2621,868,120,2025-01-29 10:39:37,0.0
-11240,-2256,-6472,-2701,796,235,2025-01-29 10:39:37,0.0
-11484,-2172,-6272,-2677,885,355,2025-01-29 10:39:37,0.0
-11492,-2184,-6304,-2626,1073,334,2025-01-29 10:39:37,0.0
-11304,-2116,-6764,-2561,1018,35,2025-01-29 10:39:37,0.0
-11676,-1804,-6808,-2525,820,-169,2025-01-29 10:39:37,0.0
-11736,-920,-6788,-2622,559,-263,2025-01-29 10:39:37,0.0
-11396,-176,-7524,-3015,364,-604,2025-01-29 10:39:37,0.0
-11492,-1012,-6896,-3369,533,-1132,2025-01-29 10:39:37,0.0
-11872,-2156,-6900,-3416,517,-2075,2025-01-29 10:39:37,0.0
-12620,-2204,-6712,-3651,172,-2788,2025-01-29 10:39:37,0.0
-13152,-1900,-6796,-3660,-237,-3311,2025-01-29 10:39:37,0.0
-12964,-1452,-7728,-3495,-681,-3667,2025-01-29 10:39:37,0.0
-12172,-2012,-8180,-3092,-526,-4050,2025-01-29 10:39:37,0.0
-11436,-3144,-7944,-2381,-603,-4708,2025-01-29 10:39:37,0.0
-11488,-4228,-7768,-1395,-388,-5100,2025-01-29 10:39:37,0.0
-12492,-5456,-7960,-244,329,-4804,2025-01-29 10:39:37,0.0
-13592,-5968,-9792,490,1337,-3585,2025-01-29 10:39:37,0.0
-15152,-4680,-10680,488,1130,-1357,2025-01-29 10:39:37,0.0
-14580,-3296,-10180,111,-335,959,2025-01-29 10:39:37,0.0
-12192,-2564,-10260,-85,-2004,1975,2025-01-29 10:39:37,0.0
-11140,-2268,-9756,-132,-3163,2315,2025-01-29 10:39:37,0.0
-9760,-2180,-9564,-117,-3546,2587,2025-01-29 10:39:37,0.0
-8616,-2048,-9764,-78,-3378,2668,2025-01-29 10:39:37,0.0
-7692,-1424,-9472,145,-2905,2711,2025-01-29 10:39:37,0.0
-7072,-720,-9356,185,-1890,2563,2025-01-29 10:39:37,0.0
-6880,400,-8784,185,-498,2276,2025-01-29 10:39:37,0.0
-7084,1864,-9012,113,657,1825,2025-01-29 10:39:37,0.0
-7132,2596,-9572,-265,1539,1036,2025-01-29 10:39:37,0.0
-8920,2012,-8808,-720,2137,42,2025-01-29 10:39:37,0.0
-11092,764,-9036,-1003,2707,-202,2025-01-29 10:39:37,0.0
-12684,-400,-9060,-1064,2518,215,2025-01-29 10:39:37,0.0
-13804,-876,-8808,-1022,1299,863,2025-01-29 10:39:37,0.0
-14336,-980,-8548,-939,-712,1914,2025-01-29 10:39:37,0.0
-13136,-680,-8884,-882,-2788,2789,2025-01-29 10:39:37,0.0
-11268,-600,-8648,-801,-3729,3196,2025-01-29 10:39:37,0.0
-9368,-488,-7752,-313,-3483,3314,2025-01-29 10:39:38,0.0
-8348,-564,-7092,243,-2339,3200,2025-01-29 10:39:38,0.0
-7792,-552,-6512,873,-578,2909,2025-01-29 10:39:38,0.0
-8192,-260,-6792,1388,1158,2630,2025-01-29 10:39:38,0.0
-9300,492,-6788,1665,2464,2445,2025-01-29 10:39:38,0.0
-10492,1192,-7176,1716,2470,2350,2025-01-29 10:39:38,0.0
-11216,1728,-7692,1559,1613,2094,2025-01-29 10:39:38,0.0
-11140,1884,-8052,1264,238,1735,2025-01-29 10:39:38,0.0
-11136,1692,-7748,1156,-705,1516,2025-01-29 10:39:38,0.0
-10480,1440,-7304,1139,-1000,1297,2025-01-29 10:39:38,0.0
-10104,608,-6688,1217,-766,1055,2025-01-29 10:39:38,0.0
-9696,-76,-6924,1375,157,741,2025-01-29 10:39:38,
-10256,-676,-6840,1659,1114,590,2025-01-29 10:39:38,0.0
-11048,-692,-6656,2050,1495,683,2025-01-29 10:39:38,0.0
-11928,-420,-6680,2239,1394,807,2025-01-29 10:39:38,0.0
-12192,8,-7056,2403,696,971,2025-01-29 10:39:38,0.0
-12760,196,-6940,2387,-489,1158,2025-01-29 10:39:38,0.0
-12196,256,-7092,2428,-1638,1324,2025-01-29 10:39:38,0.0
-11840,308,-6508,2504,-2555,1268,2025-01-29 10:39:38,0.0
-10872,664,-6912,2603,-3068,1199,2025-01-29 10:39:38,0.0
-10632,672,-6192,2745,-2813,1214,2025-01-29 10:39:38,0.0
-10268,552,-6468,2877,-2201,1130,2025-01-29 10:39:38,0.0
-10476,360,-6116,3054,-1552,831,2025-01-29 10:39:38,0.0
-10984,500,-6240,3192,-1156,653,2025-01-29 10:39:38,0.0
-11676,832,-6592,3170,-838,853,2025-01-29 10:39:38,0.0
-12088,1032,-6776,3019,-797,1130,2025-01-29 10:39:38,0.0
-12168,1136,-6580,2826,-801,1416,2025-01-29 10:39:38,0.0
-12176,660,-6104,2825,-775,1551,2025-01-29 10:39:38,0.0
-12164,388,-5464,3159,-760,1622,2025-01-29 10:39:38,0.0
-12392,452,-5816,3453,-811,1622,2025-01-29 10:39:38,0.0
-12276,324,-5204,3676,-676,1892,2025-01-29 10:39:38,0.0
-11588,392,-5004,4032,-148,2039,2025-01-29 10:39:38,0.0
-10640,620,-5392,4418,756,1461,2025-01-29 10:39:38,0.0
-11292,436,-5304,4842,2141,788,2025-01-29 10:39:38,0.0
-12420,92,-6904,5027,3444,958,2025-01-29 10:39:38,0.0
-13320,60,-8456,4878,4615,1438,2025-01-29 10:39:38,0.0
-14120,884,-10052,4188,5078,1969,2025-01-29 10:39:38,0.0
-14660,1732,-11348,3035,4105,2350,2025-01-29 10:39:38,0.0
-14624,2312,-11664,1719,1902,2414,2025-01-29 10:39:38,0.0
-13776,2556,-11280,691,-589,2082,2025-01-29 10:39:38,0.0
-12468,2096,-9724,-63,-2207,1365,2025-01-29 10:39:38,0.0
-10544,1284,-8284,-2,-2718,445,2025-01-29 10:39:38,0.0
-9516,644,-8164,334,-2832,-537,2025-01-29 10:39:38,0.0
-9072,136,-7588,630,-1968,-1389,2025-01-29 10:39:38,0.0
-8844,88,-8064,640,-767,-2016,2025-01-29 10:39:38,0.0
-8948,-312,-8432,282,-125,-2303,2025-01-29 10:39:38,0.0
-9352,-1036,-8352,-172,322,-2377,2025-01-29 10:39:38,0.0
-10020,-1548,-8040,-580,501,-2354,2025-01-29 10:39:38,0.0
-10188,-2160,-7948,-527,258,-2007,2025-01-29 10:39:38,0.0
-9716,-2844,-7796,-277,246,-1876,2025-01-29 10:39:38,0.0
-9324,-3592,-7952,143,476,-2031,2025-01-29 10:39:38,0.0
-9596,-3696,-8368,500,784,-1929,2025-01-29 10:39:38,0.0
-9948,-3820,-8592,784,1480,-1684,2025-01-29 10:39:38,0.0
-10640,-3348,-8956,1015,1887,-1374,2025-01-29 10:39:38,0.0
-11052,-2852,-9036,866,1295,-982,2025-01-29 10:39:38,0.0
-11184,-2012,-8320,680,126,-715,2025-01-29 10:39:38,0.0
-10660,-1700,-7980,380,-705,-775,2025-01-29 10:39:38,0.0
-10436,-1792,-7744,158,-787,-1001,2025-01-29 10:39:38,0.0
-9796,-2468,-7948,119,-669,-1498,2025-01-29 10:39:38,0.0
-9688,-2976,-7980,272,-583,-2070,2025-01-29 10:39:38,0.0
-9828,-3252,-7844,478,-673,-2077,2025-01-29 10:39:38,0.0
-9468,-3456,-7764,582,-267,-1723,2025-01-29 10:39:39,0.0
-8864,-3528,-8060,576,684,-1524,2025-01-29 10:39:39,0.0
-8908,-3512,-8468,606,1908,-1463,2025-01-29 10:39:39,0.0
-9744,-3112,-8404,788,3011,-1281,2025-01-29 10:39:39,0.0
-10684,-2652,-8184,853,3513,-1105,2025-01-29 10:39:39,0.0
-11456,-2740,-8536,652,3209,-1077,2025-01-29 10:39:39,0.0
-12192,-2884,-8460,689,1789,-1142,2025-01-29 10:39:39,0.0
-12400,-3192,-7840,949,375,-877,2025-01-29 10:39:39,0.0
-11684,-3408,-7524,1188,-412,-702,2025-01-29 10:39:39,0.0
-11072,-3508,-7152,1426,-811,-677,2025-01-29 10:39:39,0.0
-10560,-3328,-7324,1534,-776,-547,2025-01-29 10:39:39,0.0
-10048,-2924,-7520,1386,-368,-579,2025-01-29 10:39:39,0.0
-10252,-2348,-7732,1178,360,-488,2025-01-29 10:39:39,0.0
-9988,-1888,-7308,763,1157,-170,2025-01-29 10:39:39,0.0
-9896,-1892,-7500,360,1982,-25,2025-01-29 10:39:39,0.0
-10296,-2496,-6988,219,2785,157,2025-01-29 10:39:39,0.0
-10548,-2820,-8004,96,2974,198,2025-01-29 10:39:39,0.0
-11356,-2248,-8324,-190,2770,675,2025-01-29 10:39:39,0.0
-11524,-2056,-8264,-549,2023,1455,2025-01-29 10:39:39,0.0
-11276,-2272,-8104,-1155,1036,1909,2025-01-29 10:39:39,0.0
-10732,-2180,-8648,-1697,234,1741,2025-01-29 10:39:39,0.0
-10696,-2064,-9528,-2173,130,1057,2025-01-29 10:39:39,0.0
-10680,-696,-10088,-2382,252,604,2025-01-29 10:39:39,0.0
-10680,-220,-9540,-2575,368,336,2025-01-29 10:39:39,0.0
-9928,-460,-9824,-2461,-90,-64,2025-01-29 10:39:39,0.0
-9788,-564,-9100,-2546,-438,-349,2025-01-29 10:39:39,0.0
-9028,-1616,-8312,-2103,-287,-443,2025-01-29 10:39:39,0.0
-8248,-2748,-8364,-1735,412,-656,2025-01-29 10:39:39,0.0
-8228,-2892,-8680,-1287,1663,-888,2025-01-29 10:39:39,0.0
-8516,-2368,-8928,-915,3025,-1240,2025-01-29 10:39:39,0.0
-9476,-1616,-8388,-769,3639,-1523,2025-01-29 10:39:39,0.0
-10512,-1292,-8208,-421,3527,-1530,2025-01-29 10:39:39,0.0
-11400,-1352,-8564,-208,2752,-1287,2025-01-29 10:39:39,0.0
-11664,-1664,-8616,-43,1470,-962,2025-01-29 10:39:39,0.0
-11292,-1664,-8816,27,556,-511,2025-01-29 10:39:39,0.0
-10892,-1424,-9184,-95,287,-195,2025-01-29 10:39:39,0.0
-10460,-880,-9284,-121,276,-101,2025-01-29 10:39:39,0.0
-10048,-348,-9268,-125,599,-286,2025-01-29 10:39:39,0.0
-10056,-264,-8200,-95,934,-674,2025-01-29 10:39:39,0.0
-10252,-1136,-7712,120,920,-919,2025-01-29 10:39:39,0.0
-10528,-1808,-8140,394,856,-800,2025-01-29 10:39:39,0.0
-10156,-1860,-9024,533,840,-534,2025-01-29 10:39:39,0.0
-10344,-1204,-9200,382,951,-393,2025-01-29 10:39:39,0.0
-10332,-568,-9268,195,1257,-366,2025-01-29 10:39:39,0.0
-10600,8,-9268,-166,1291,-539,2025-01-29 10:39:39,0.0
-10964,-120,-9108,-522,689,-590,2025-01-29 10:39:39,0.0
-10944,-748,-8964,-739,-165,-548,2025-01-29 10:39:39,0.0
-10588,-1512,-9020,-776,-732,-631,2025-01-29 10:39:39,0.0
-10272,-1952,-9016,-685,-910,-692,2025-01-29 10:39:39,0.0
-10196,-2092,-8768,-583,-852,-655,2025-01-29 10:39:39,0.0
-9856,-1800,-8552,-559,-683,-459,2025-01-29 10:39:39,
-9436,-1276,-8676,-754,-322,-400,2025-01-29 10:39:39,0.0
-9460,-1340,-8840,-978,192,-456,2025-01-29 10:39:39,0.0
-9872,-1656,-8808,-1089,683,-498,2025-01-29 10:39:39,0.0
-10484,-2028,-9028,-1028,788,-493,2025-01-29 10:39:39,0.0
-10616,-2040,-9284,-923,340,-570,2025-01-29 10:39:39,0.0
-10612,-1844,-8896,-890,-185,-682,2025-01-29 10:39:39,0.0
-10384,-1744,-8804,-861,-499,-687,2025-01-29 10:39:39,0.0
-10136,-1760,-8416,-834,-454,-583,2025-01-29 10:39:39,0.0
-9848,-1784,-8368,-821,-104,-601,2025-01-29 10:39:39,0.0
-9972,-2000,-8532,-780,442,-644,2025-01-29 10:39:39,0.0
-10268,-2120,-8776,-579,870,-618,2025-01-29 10:39:40,0.0
-10424,-1660,-8868,-429,852,-587,2025-01-29 10:39:40,0.0
-10752,-1452,-9100,-465,590,-537,2025-01-29 10:39:40,0.0
-10744,-1552,-8716,-474,277,-440,2025-01-29 10:39:40,0.0
-10640,-1552,-8324,-406,-43,-353,2025-01-29 10:39:40,0.0
-10296,-1600,-8500,-301,-208,-344,2025-01-29 10:39:40,0.0
-10252,-1824,-8736,-263,-49,-336,2025-01-29 10:39:40,0.0
-10216,-1840,-8532,-179,224,-304,2025-01-29 10:39:40,0.0
-10256,-1984,-8476,-95,364,-236,2025-01-29 10:39:40,0.0
-10372,-1792,-8396,-50,302,-191,2025-01-29 10:39:40,0.0
-10328,-1680,-8736,-78,257,-194,2025-01-29 10:39:40,0.0
-10264,-1404,-8580,-76,188,-227,2025-01-29 10:39:40,0.0
-10304,-1348,-8576,-127,157,-251,2025-01-29 10:39:40,0.0
-10288,-1424,-8648,-232,137,-337,2025-01-29 10:39:40,0.0
-10336,-1540,-8784,-346,141,-304,2025-01-29 10:39:40,0.0
-10164,-1816,-8652,-367,131,-305,2025-01-29 10:39:40,0.0
-10364,-2000,-8504,-355,289,-293,2025-01-29 10:39:40,0.0
-10416,-1892,-8556,-260,400,-225,2025-01-29 10:39:40,0.0
-10360,-1600,-8824,-232,374,-202,2025-01-29 10:39:40,0.0
-10396,-1668,-8368,-265,259,-242,2025-01-29 10:39:40,0.0
-10412,-1776,-8212,-169,177,-203,2025-01-29 10:39:40,0.0
-10232,-2020,-8296,-40,165,-158,2025-01-29 10:39:40,0.0
-10060,-1844,-8360,18,263,-117,2025-01-29 10:39:40,0.0
-10088,-1664,-8484,56,491,-111,2025-01-29 10:39:40,0.0
-10328,-1608,-8580,108,756,-156,2025-01-29 10:39:40,0.0
-10492,-1676,-9056,155,743,-115,2025-01-29 10:39:40,0.0
-10816,-1808,-8844,194,593,-63,2025-01-29 10:39:40,0.0
-10864,-1596,-8840,184,195,47,2025-01-29 10:39:40,0.0
-10604,-1508,-8700,94,-187,73,2025-01-29 10:39:40,0.0
-10416,-1324,-8936,-60,-440,52,2025-01-29 10:39:40,0.0
-10072,-1284,-8804,-186,-375,-35,2025-01-29 10:39:40,0.0
-9960,-1452,-8456,-249,-6,-139,2025-01-29 10:39:40,0.0
-9848,-1452,-8656,-249,308,-291,2025-01-29 10:39:40,0.0
-10028,-1692,-9004,-352,399,-375,2025-01-29 10:39:40,0.0
-10096,-1572,-8888,-387,359,-433,2025-01-29 10:39:40,0.0
-10192,-1544,-9044,-459,318,-506,2025-01-29 10:39:40,0.0
-10224,-1656,-8580,-534,327,-566,2025-01-29 10:39:40,0.0
-10396,-1612,-8556,-586,219,-577,2025-01-29 10:39:40,0.0
-10268,-1536,-8772,-651,48,-617,2025-01-29 10:39:40,0.0
-10384,-1404,-8668,-697,-2,-648,2025-01-29 10:39:40,0.0
-10324,-1612,-8616,-643,58,-551,2025-01-29 10:39:40,0.0
-10440,-1864,-8408,-562,167,-501,2025-01-29 10:39:40,0.0
-10556,-2040,-8376,-466,228,-435,2025-01-29 10:39:40,0.0
-10428,-1756,-8780,-465,196,-370,2025-01-29 10:39:40,0.0
-10452,-1644,-8780,-482,62,-362,2025-01-29 10:39:40,0.0
-10300,-1648,-8504,-386,-66,-367,2025-01-29 10:39:40,0.0
-10356,-1848,-8296,-293,30,-315,2025-01-29 10:39:40,0.0
-10352,-1748,-8448,-200,96,-300,2025-01-29 10:39:40,0.0
-10456,-1844,-8412,-121,50,-227,2025-01-29 10:39:40,0.0
-10280,-1704,-8552,-136,29,-211,2025-01-29 10:39:40,0.0
-10564,-1676,-8504,-84,65,-157,2025-01-29 10:39:40,0.0
-10424,-1724,-8440,-47,70,-117,2025-01-29 10:39:40,0.0
-10388,-1760,-8568,-25,68,-116,2025-01-29 10:39:40,0.0
-10400,-1868,-8708,52,60,-70,2025-01-29 10:39:40,0.0
-10408,-1688,-8960,24,-30,-33,2025-01-29 10:39:40,0.0
-10380,-1772,-8756,-47,-79,-83,2025-01-29 10:39:40,0.0
-10416,-1712,-8356,-77,-188,-7,2025-01-29 10:39:40,0.0
-10264,-1676,-8652,-40,-150,-13,2025-01-29 10:39:40,0.0
-10204,-1744,-8500,-133,-35,-72,2025-01-29 10:39:40,0.0
-10152,-1820,-8388,-110,91,-129,2025-01-29 10:39:40,0.0
-10248,-1660,-8496,-89,134,-150,2025-01-29 10:39:40,0.0
-10108,-1860,-8616,-78,161,-167,2025-01-29 10:39:41,0.0
-10408,-1920,-8556,-3,263,-183,2025-01-29 10:39:41,0.0
-10336,-1872,-8640,77,242,-108,2025-01-29 10:39:41,0.0
-10520,-1848,-8716,40,128,-83,2025-01-29 10:39:41,0.0
-10448,-1756,-8484,37,79,-83,2025-01-29 10:39:41,0.0
-10352,-1580,-8452,78,104,-58,2025-01-29 10:39:41,0.0
-10340,-1684,-8708,42,74,-48,2025-01-29 10:39:41,0.0
-10272,-1684,-8424,18,61,-33,2025-01-29 10:39:41,0.0
-10372,-1708,-8496,-24,23,-29,2025-01-29 10:39:41,0.0
-10356,-1840,-8460,0,57,-79,2025-01-29 10:39:41,0.0
-10308,-1852,-8460,32,48,-62,2025-01-29 10:39:41,0.0
-10208,-1832,-8580,52,53,-50,2025-01-29 10:39:41,0.0
-10328,-1740,-8772,14,45,-37,2025-01-29 10:39:41,0.0
-10272,-1728,-8656,-77,204,-55,2025-01-29 10:39:41,0.0
-10468,-1728,-8460,-71,308,-59,2025-01-29 10:39:41,0.0
-10396,-1692,-8504,-41,358,-115,2025-01-29 10:39:41,0.0
-10440,-1708,-8416,6,138,-107,2025-01-29 10:39:41,0.0
-10536,-1796,-8540,28,-1,-65,2025-01-29 10:39:41,0.0
-10524,-1760,-8596,11,-2,-54,2025-01-29 10:39:41,0.0
-10312,-1612,-8592,-49,85,-81,2025-01-29 10:39:41,0.0
-10420,-1708,-8600,-95,162,-128,2025-01-29 10:39:41,0.0
-10448,-1800,-8560,-110,200,-128,2025-01-29 10:39:41,0.0
-10436,-1608,-8564,-99,137,-126,2025-01-29 10:39:41,0.0
-10428,-1580,-8548,-157,36,-153,2025-01-29 10:39:41,0.0
-10348,-1608,-8552,-209,21,-176,2025-01-29 10:39:41,0.0
-10452,-1624,-8360,-210,92,-249,2025-01-29 10:39:41,0.0
-10440,-1800,-8356,-179,117,-239,2025-01-29 10:39:41,0.0
-10492,-1952,-8548,-207,151,-240,2025-01-29 10:39:41,0.0
-10616,-1816,-8336,-152,162,-183,2025-01-29 10:39:41,
