acceleration_x,acceleration_y,acceleration_z,gyroscope_x,gyroscope_y,gyroscope_z,timestamp,label
-11944,-1080,-6156,179,211,-230,2025-01-29 10:47:29,0.0
-12004,-1032,-6212,240,301,-195,2025-01-29 10:47:29,0.0
-11904,-1268,-6332,236,330,-174,2025-01-29 10:47:29,0.0
-11856,-1116,-6328,285,268,-122,2025-01-29 10:47:29,0.0
-11804,-1224,-6272,341,270,-135,2025-01-29 10:47:29,0.0
-11800,-1160,-6280,414,403,-109,2025-01-29 10:47:29,0.0
-11852,-1184,-6348,443,528,-89,2025-01-29 10:47:29,0.0
-11896,-1184,-6372,433,470,-106,2025-01-29 10:47:29,0.0
-11972,-1040,-6492,354,266,-86,2025-01-29 10:47:29,0.0
-11784,-960,-6496,271,221,-71,2025-01-29 10:47:29,0.0
-11632,-876,-6680,148,291,-42,2025-01-29 10:47:29,0.0
-11564,-888,-6724,54,366,-56,2025-01-29 10:47:29,0.0
-11620,-1012,-6628,-30,476,-51,2025-01-29 10:47:29,0.0
-11712,-1136,-6660,-143,520,-90,2025-01-29 10:47:29,0.0
-12104,-1000,-6348,-104,494,-35,2025-01-29 10:47:29,0.0
-12096,-980,-6172,-148,283,-8,2025-01-29 10:47:29,0.0
-12128,-1096,-6072,-142,-13,74,2025-01-29 10:47:29,0.0
-11800,-1364,-6024,1,-68,142,2025-01-29 10:47:29,0.0
-11852,-1248,-5880,166,112,186,2025-01-29 10:47:29,0.0
-11632,-1260,-5904,420,348,144,2025-01-29 10:47:29,0.0
-11940,-1016,-5888,596,477,132,2025-01-29 10:47:29,0.0
-12000,-1004,-5788,809,489,162,2025-01-29 10:47:29,0.0
-12088,-968,-5984,898,459,116,2025-01-29 10:47:29,0.0
-12020,-968,-5952,1031,338,51,2025-01-29 10:47:29,0.0
-12064,-792,-6156,1126,247,-51,2025-01-29 10:47:29,0.0
-12060,-680,-6088,1195,134,-142,2025-01-29 10:47:29,0.0
-11924,-424,-6368,1188,138,-242,2025-01-29 10:47:29,0.0
-11960,-364,-6524,1035,222,-341,2025-01-29 10:47:29,0.0
-12220,-208,-6384,936,225,-359,2025-01-29 10:47:29,0.0
-12148,-132,-5988,840,92,-442,2025-01-29 10:47:29,0.0
-12084,-336,-6128,767,-27,-502,2025-01-29 10:47:29,0.0
-11932,-448,-5848,809,-71,-599,2025-01-29 10:47:29,0.0
-11920,-572,-5876,809,-39,-781,2025-01-29 10:47:29,0.0
-12040,-724,-5496,915,121,-869,2025-01-29 10:47:29,0.0
-11936,-568,-5460,1073,280,-994,2025-01-29 10:47:29,0.0
-12016,-600,-6144,1121,280,-1231,2025-01-29 10:47:29,0.0
-12052,-732,-6412,1038,213,-1480,2025-01-29 10:47:29,0.0
-11756,-568,-6672,1021,2,-1620,2025-01-29 10:47:29,0.0
-11344,-488,-6868,897,199,-1869,2025-01-29 10:47:30,0.0
-11436,-472,-6720,756,576,-2053,2025-01-29 10:47:30,0.0
-11008,-760,-6664,711,1039,-2098,2025-01-29 10:47:30,0.0
-10660,-860,-6212,704,1268,-2168,2025-01-29 10:47:30,0.0
-10496,-1292,-6524,692,1926,-1846,2025-01-29 10:47:30,0.0
-9892,-2144,-6244,578,2638,-1456,2025-01-29 10:47:30,0.0
-12140,-3044,-5556,746,2297,43,2025-01-29 10:47:30,0.0
-11160,-2796,-5876,1195,2123,48,2025-01-29 10:47:30,0.0
-10924,-1864,-6884,575,2667,-1019,2025-01-29 10:47:30,0.0
-12568,-212,-6888,157,2529,-2981,2025-01-29 10:47:30,0.0
-13584,-976,-5516,-707,2025,-1898,2025-01-29 10:47:30,0.0
-12460,-2096,-5280,-650,1723,-1642,2025-01-29 10:47:30,0.0
-11948,-2720,-5788,-812,1959,-2668,2025-01-29 10:47:30,0.0
-13612,-3356,-5492,-783,1880,-3048,2025-01-29 10:47:30,0.0
-12716,-3852,-5560,-451,1447,-2809,2025-01-29 10:47:30,0.0
-12036,-3708,-6472,-535,1640,-3024,2025-01-29 10:47:30,0.0
-12924,-3716,-6600,-1028,1982,-2449,2025-01-29 10:47:30,0.0
-13052,-3376,-4900,-918,998,-1731,2025-01-29 10:47:30,0.0
-11816,-3408,-5140,-684,-451,-1931,2025-01-29 10:47:30,0.0
-12196,-3456,-6252,-794,-929,-1650,2025-01-29 10:47:30,0.0
-11960,-3608,-5020,-613,-977,-1173,2025-01-29 10:47:30,0.0
-11776,-3280,-5104,83,-1313,-557,2025-01-29 10:47:30,0.0
-10500,-2900,-5284,-533,-1628,-395,2025-01-29 10:47:30,0.0
-10344,-2896,-5396,-203,-1126,-910,2025-01-29 10:47:30,0.0
-10924,-2912,-5344,-387,-318,-958,2025-01-29 10:47:30,0.0
-11224,-3156,-4772,-372,94,-755,2025-01-29 10:47:30,0.0
-11640,-3288,-5220,-459,64,-420,2025-01-29 10:47:30,0.0
-11256,-3260,-5024,-876,-69,63,2025-01-29 10:47:30,0.0
-11412,-3124,-5416,-1044,22,113,2025-01-29 10:47:30,0.0
-11864,-2868,-5700,-1494,-212,120,2025-01-29 10:47:30,0.0
-12088,-2760,-5720,-1942,-1107,296,2025-01-29 10:47:30,0.0
-11984,-2388,-5204,-2024,-2043,303,2025-01-29 10:47:30,0.0
-12416,-2688,-5144,-1849,-3033,346,2025-01-29 10:47:30,0.0
-12836,-3048,-4644,-1789,-4158,645,2025-01-29 10:47:30,0.0
-12632,-3176,-4800,-1681,-4587,644,2025-01-29 10:47:30,0.0
-12324,-3068,-4844,-1744,-4234,356,2025-01-29 10:47:30,0.0
-12584,-2768,-4328,-1750,-3970,246,2025-01-29 10:47:30,0.0
-12324,-2556,-4180,-1444,-3247,88,2025-01-29 10:47:30,0.0
-12580,-2676,-5096,-1788,-1415,75,2025-01-29 10:47:30,0.0
-12404,-2724,-4436,-2341,109,-360,2025-01-29 10:47:30,0.0
-13000,-2532,-4820,-2962,260,-1199,2025-01-29 10:47:30,0.0
-14152,-3108,-3760,-3202,-215,-1449,2025-01-29 10:47:30,0.0
-14932,-3584,-3652,-2780,-746,-880,2025-01-29 10:47:30,0.0
-15016,-4316,-4856,-2377,-977,-376,2025-01-29 10:47:30,0.0
-15380,-4536,-5072,-2554,-1324,-683,2025-01-29 10:47:30,0.0
-15888,-4436,-5232,-2280,-945,-1411,2025-01-29 10:47:30,0.0
-16488,-4460,-4716,-2194,-1249,-1603,2025-01-29 10:47:30,0.0
-16536,-4604,-4524,-1900,-2338,-1159,2025-01-29 10:47:30,0.0
-16512,-4560,-4364,-1536,-3439,-345,2025-01-29 10:47:30,0.0
-15560,-4380,-3960,-943,-4128,602,2025-01-29 10:47:30,0.0
-14700,-4140,-3648,-412,-4527,977,2025-01-29 10:47:30,0.0
-13968,-3248,-3632,-61,-5542,1361,2025-01-29 10:47:30,0.0
-13112,-2932,-4264,-102,-6305,1769,2025-01-29 10:47:30,0.0
-11492,-2264,-5020,322,-6037,2102,2025-01-29 10:47:30,0.0
-10632,-1928,-5552,213,-5434,2379,2025-01-29 10:47:30,0.0
-10564,-1616,-6920,357,-4668,2934,2025-01-29 10:47:30,0.0
-10260,-1280,-7184,368,-3383,3448,2025-01-29 10:47:30,0.0
-10572,-460,-6992,475,-1913,3659,2025-01-29 10:47:30,0.0
-11180,128,-6272,195,-1440,3733,2025-01-29 10:47:30,0.0
-11916,292,-5852,130,-1204,3830,2025-01-29 10:47:30,0.0
-12500,1548,-6424,253,-373,3243,2025-01-29 10:47:31,0.0
-12108,484,-5364,465,951,2576,2025-01-29 10:47:31,
-11972,-232,-5028,528,2623,2269,2025-01-29 10:47:31,0.0
-11924,-260,-5204,81,2860,2199,2025-01-29 10:47:31,0.0
-11980,-136,-5196,-487,1053,2246,2025-01-29 10:47:31,0.0
-11420,684,-4928,-856,-734,2100,2025-01-29 10:47:31,0.0
-11632,1300,-3680,-644,-995,1632,2025-01-29 10:47:31,0.0
-12216,1280,-2576,-186,-1070,1511,2025-01-29 10:47:31,0.0
-12260,1004,-2296,256,-949,1727,2025-01-29 10:47:31,0.0
-11632,968,-3196,392,-926,1856,2025-01-29 10:47:31,0.0
-11152,240,-4332,322,-853,2210,2025-01-29 10:47:31,0.0
-11236,-16,-4852,-463,83,1975,2025-01-29 10:47:31,0.0
-11576,-396,-3452,-678,392,1704,2025-01-29 10:47:31,0.0
-11596,-500,-2636,-841,104,1571,2025-01-29 10:47:31,0.0
-12044,-784,-1520,-268,-483,1173,2025-01-29 10:47:31,0.0
-12752,-124,-1136,371,-1009,952,2025-01-29 10:47:31,0.0
-12588,-356,-1060,824,-1731,705,2025-01-29 10:47:31,0.0
-11688,-36,-1528,1285,-2147,302,2025-01-29 10:47:31,0.0
-11592,200,-1480,2263,-1697,-31,2025-01-29 10:47:31,0.0
-11408,320,-1912,2268,-846,-220,2025-01-29 10:47:31,0.0
-11772,748,-1028,2589,-98,-389,2025-01-29 10:47:31,0.0
-11068,68,-2428,2762,461,-1184,2025-01-29 10:47:31,0.0
-11804,172,-2512,2505,61,-1912,2025-01-29 10:47:31,0.0
-13064,52,-2744,2324,218,-1713,2025-01-29 10:47:31,0.0
-14364,-96,-2076,2451,1548,-1217,2025-01-29 10:47:31,0.0
-16012,424,-1940,2616,2144,-840,2025-01-29 10:47:31,0.0
-16208,1320,-3116,2531,1238,-735,2025-01-29 10:47:31,0.0
-17492,1820,-1720,3519,-298,-280,2025-01-29 10:47:31,0.0
-15332,1800,-3196,4151,-584,910,2025-01-29 10:47:31,0.0
-14420,924,-5072,3983,-568,1674,2025-01-29 10:47:31,0.0
-14640,1192,-6288,2786,34,951,2025-01-29 10:47:31,0.0
-15696,1700,-7432,1626,1061,-49,2025-01-29 10:47:31,0.0
-17324,1152,-9720,413,1247,-557,2025-01-29 10:47:31,0.0
-18916,940,-8736,-1264,1009,340,2025-01-29 10:47:31,0.0
-18276,1212,-6360,-1975,-358,1004,2025-01-29 10:47:31,0.0
-13648,1256,-5416,-1315,-2640,466,2025-01-29 10:47:31,0.0
-11472,-456,-6500,-1081,-4426,-610,2025-01-29 10:47:31,0.0
-10472,-1900,-6056,-486,-3323,-1209,2025-01-29 10:47:31,0.0
-10052,-2308,-5868,-474,-1175,-1180,2025-01-29 10:47:31,0.0
-9480,-2692,-4724,-448,139,-1737,2025-01-29 10:47:31,0.0
-10180,-3716,-4732,-359,1387,-2079,2025-01-29 10:47:31,0.0
-11704,-3708,-3704,-539,2879,-2015,2025-01-29 10:47:31,0.0
-12480,-1376,-2832,7,3080,-1924,2025-01-29 10:47:31,0.0
-12852,-1116,-3868,450,2187,-1677,2025-01-29 10:47:31,0.0
-12224,-1100,-4620,504,1022,-1755,2025-01-29 10:47:31,0.0
-11380,-832,-4864,198,330,-2022,2025-01-29 10:47:31,0.0
-11004,-1204,-4532,-55,618,-2266,2025-01-29 10:47:31,0.0
-11060,-1644,-4248,-277,509,-2332,2025-01-29 10:47:31,0.0
-10996,-2036,-4480,-657,261,-2196,2025-01-29 10:47:31,0.0
-11168,-2280,-4012,-1053,-177,-2123,2025-01-29 10:47:31,0.0
-11268,-2448,-3424,-1246,-152,-1888,2025-01-29 10:47:31,0.0
-11056,-2588,-3416,-1255,423,-1692,2025-01-29 10:47:31,0.0
-10876,-2428,-3628,-1243,819,-1433,2025-01-29 10:47:31,0.0
-10928,-2336,-3752,-1223,1162,-1172,2025-01-29 10:47:31,0.0
-11444,-2672,-3296,-1255,2018,-802,2025-01-29 10:47:31,0.0
-11868,-2620,-3404,-1233,2369,-431,2025-01-29 10:47:31,0.0
-12228,-2684,-3584,-1324,2283,-353,2025-01-29 10:47:31,0.0
-12860,-2168,-3500,-1335,1877,-181,2025-01-29 10:47:31,0.0
-12588,-1848,-3148,-1077,1427,-58,2025-01-29 10:47:31,0.0
-12056,-1696,-3092,-775,1363,-80,2025-01-29 10:47:31,0.0
-11764,-1864,-2736,-756,1321,-194,2025-01-29 10:47:32,0.0
-11844,-2016,-2888,-875,1500,-280,2025-01-29 10:47:32,0.0
-11860,-2224,-2724,-990,2762,-505,2025-01-29 10:47:32,0.0
-11600,-2272,-2956,-1240,4489,-819,2025-01-29 10:47:32,0.0
-12284,-2352,-3068,-1835,4525,-1373,2025-01-29 10:47:32,0.0
-13456,-2148,-3060,-2330,3527,-1400,2025-01-29 10:47:32,0.0
-13716,-2004,-3348,-2368,2314,-1285,2025-01-29 10:47:32,0.0
-13856,-1776,-4236,-2296,1798,-1200,2025-01-29 10:47:32,0.0
-14340,-2260,-4592,-1984,1859,-1254,2025-01-29 10:47:32,0.0
-14636,-3144,-4528,-1956,1414,-1177,2025-01-29 10:47:32,0.0
-15320,-3292,-3680,-1841,371,-1206,2025-01-29 10:47:32,0.0
-15872,-2960,-3368,-1561,-500,-1225,2025-01-29 10:47:32,0.0
-16056,-2640,-1692,-1179,-1167,-1342,2025-01-29 10:47:32,0.0
-16012,-2916,-1532,-478,-2203,-1461,2025-01-29 10:47:32,0.0
-15264,-3436,-3540,-240,-3499,-1540,2025-01-29 10:47:32,0.0
-15316,-3644,-5488,-810,-3078,-1707,2025-01-29 10:47:32,0.0
-15408,-3756,-5472,-1448,-1579,-1855,2025-01-29 10:47:32,0.0
-16480,-3732,-5428,-1319,-843,-1452,2025-01-29 10:47:32,0.0
-16340,-3036,-6228,-1224,-771,-431,2025-01-29 10:47:32,0.0
-15048,-2944,-7364,-807,-951,333,2025-01-29 10:47:32,0.0
-13720,-3040,-7108,-357,-603,618,2025-01-29 10:47:32,0.0
-10072,-864,-7200,395,-4073,657,2025-01-29 10:47:32,0.0
-10468,-632,-6728,714,-4062,368,2025-01-29 10:47:32,0.0
-10660,-100,-6576,998,-2632,687,2025-01-29 10:47:32,0.0
-10468,248,-6800,913,-1168,1025,2025-01-29 10:47:32,0.0
-11780,744,-7120,915,511,1463,2025-01-29 10:47:32,0.0
-12220,-644,-5896,455,1956,1888,2025-01-29 10:47:32,0.0
-12276,-1044,-5756,143,2196,2716,2025-01-29 10:47:32,0.0
-12012,-1100,-5292,-427,2033,3141,2025-01-29 10:47:32,0.0
-12420,-980,-4820,-612,1489,3113,2025-01-29 10:47:32,0.0
-13092,-952,-5076,-678,52,3219,2025-01-29 10:47:32,0.0
-12296,-628,-4340,-491,-1244,3013,2025-01-29 10:47:32,0.0
-11424,96,-3972,-100,-2352,2570,2025-01-29 10:47:32,0.0
-10992,692,-3580,324,-2593,1981,2025-01-29 10:47:32,0.0
-10924,492,-3192,973,-2214,1813,2025-01-29 10:47:32,0.0
-10864,496,-2500,1453,-1774,1840,2025-01-29 10:47:32,0.0
-10508,180,-2820,1532,-1398,1756,2025-01-29 10:47:32,0.0
-10364,124,-3268,1367,-998,1560,2025-01-29 10:47:32,0.0
-10736,-76,-3412,1179,-495,1383,2025-01-29 10:47:32,0.0
-11136,112,-3432,1001,-83,1245,2025-01-29 10:47:32,0.0
-11268,388,-3396,722,33,821,2025-01-29 10:47:32,0.0
-12004,496,-2888,540,63,289,2025-01-29 10:47:32,
-12484,316,-2560,585,-266,-81,2025-01-29 10:47:32,0.0
-12712,472,-2488,644,-864,-120,2025-01-29 10:47:32,0.0
-11712,440,-2336,800,-1315,-359,2025-01-29 10:47:32,0.0
-11288,404,-2200,875,-1294,-899,2025-01-29 10:47:32,0.0
-11108,228,-2028,1003,-1048,-1529,2025-01-29 10:47:32,0.0
-12148,128,-1500,1293,-484,-1676,2025-01-29 10:47:32,0.0
-13164,-224,-2860,1473,-491,-1431,2025-01-29 10:47:32,0.0
-13752,-344,-4188,1076,-464,-678,2025-01-29 10:47:32,0.0
-13464,84,-4432,631,25,-76,2025-01-29 10:47:32,0.0
-12936,520,-2444,986,1365,101,2025-01-29 10:47:32,0.0
-13940,-1804,-2388,1732,3240,637,2025-01-29 10:47:32,0.0
-14716,-1304,-2376,2251,5525,1308,2025-01-29 10:47:32,0.0
-16288,-32,-1672,2930,5961,1540,2025-01-29 10:47:32,0.0
-17264,524,-2372,3475,4377,1917,2025-01-29 10:47:32,0.0
-17012,508,-3844,3545,2597,2320,2025-01-29 10:47:32,0.0
-16956,1268,-5392,3196,1220,2226,2025-01-29 10:47:32,0.0
-15736,2192,-6940,2802,1177,1800,2025-01-29 10:47:32,0.0
-15680,2420,-8268,2167,977,1401,2025-01-29 10:47:32,0.0
-16636,2484,-8156,1466,974,1479,2025-01-29 10:47:33,0.0
-17032,2228,-8328,571,1227,1979,2025-01-29 10:47:33,0.0
-13768,1924,-5588,-163,82,1589,2025-01-29 10:47:33,0.0
-10372,256,-4988,157,-3200,-521,2025-01-29 10:47:33,0.0
-10180,-1196,-5568,555,-5012,-1767,2025-01-29 10:47:33,0.0
-10176,-2156,-6648,364,-4517,-1574,2025-01-29 10:47:33,0.0
-9040,-2284,-5996,87,-2120,-1872,2025-01-29 10:47:33,0.0
-9524,-2940,-5304,-1,-150,-2047,2025-01-29 10:47:33,0.0
-10380,-3264,-5544,-57,1852,-1551,2025-01-29 10:47:33,0.0
-10952,-3032,-5884,-163,3430,-884,2025-01-29 10:47:33,0.0
-11524,-2072,-4972,84,3875,-747,2025-01-29 10:47:33,0.0
-12092,-1348,-4764,572,3497,-1321,2025-01-29 10:47:33,0.0
-12752,-964,-4196,1069,2262,-2057,2025-01-29 10:47:33,0.0
-13304,-764,-5096,1261,776,-2512,2025-01-29 10:47:33,0.0
-13032,-896,-5104,933,-971,-2625,2025-01-29 10:47:33,0.0
-12640,-1176,-4876,605,-2258,-2201,2025-01-29 10:47:33,0.0
-11392,-1496,-4512,321,-2676,-1751,2025-01-29 10:47:33,0.0
-10232,-1504,-4832,23,-2098,-1631,2025-01-29 10:47:33,0.0
-9944,-1496,-4852,-672,-968,-2064,2025-01-29 10:47:33,0.0
-11008,-1596,-3916,-1072,-107,-2155,2025-01-29 10:47:33,0.0
-11124,-1984,-3496,-1123,82,-1831,2025-01-29 10:47:33,0.0
-11080,-2168,-4696,-1251,101,-1470,2025-01-29 10:47:33,0.0
-11464,-2712,-3096,-1015,560,-1117,2025-01-29 10:47:33,0.0
-11492,-2756,-4044,-1052,1319,-669,2025-01-29 10:47:33,0.0
-11764,-3000,-3944,-1326,1556,-415,2025-01-29 10:47:33,0.0
-12516,-2552,-3436,-1534,1204,-267,2025-01-29 10:47:33,0.0
-12872,-1992,-3156,-1386,628,-151,2025-01-29 10:47:33,0.0
-13008,-1668,-3116,-1155,71,-9,2025-01-29 10:47:33,0.0
-12988,-1628,-3316,-1095,-522,129,2025-01-29 10:47:33,0.0
-12608,-1692,-3644,-1138,-969,150,2025-01-29 10:47:33,0.0
-12268,-1820,-3680,-1356,-1274,214,2025-01-29 10:47:33,0.0
-11832,-1824,-3564,-1537,-1379,267,2025-01-29 10:47:33,0.0
-11588,-1728,-3844,-1897,-1207,93,2025-01-29 10:47:33,0.0
-11732,-1744,-2964,-2356,-518,-117,2025-01-29 10:47:33,0.0
-12084,-1960,-3296,-2508,421,-156,2025-01-29 10:47:33,0.0
-12328,-2300,-3192,-2741,1279,-248,2025-01-29 10:47:33,0.0
-12640,-2392,-3712,-3080,1780,-582,2025-01-29 10:47:33,0.0
-14040,-1980,-4040,-3453,2467,-850,2025-01-29 10:47:33,0.0
-14488,-1196,-4252,-3481,3407,-965,2025-01-29 10:47:33,0.0
-14716,-1168,-3760,-3597,3670,-1342,2025-01-29 10:47:33,0.0
-15712,-2388,-4256,-4263,2952,-1511,2025-01-29 10:47:33,0.0
-16444,-2404,-3324,-4094,848,-1118,2025-01-29 10:47:33,0.0
-15808,-2128,-4080,-4084,-1130,-987,2025-01-29 10:47:33,0.0
-15516,-1744,-4016,-4047,-2055,-1252,2025-01-29 10:47:33,0.0
-15096,-2052,-4448,-3542,-2142,-1590,2025-01-29 10:47:33,0.0
-15048,-2604,-5072,-2919,-2104,-1577,2025-01-29 10:47:33,0.0
-15112,-3192,-5692,-2068,-2092,-1357,2025-01-29 10:47:33,0.0
-15304,-3308,-7132,-1271,-2305,-852,2025-01-29 10:47:33,0.0
-15088,-3316,-7124,-818,-2894,-556,2025-01-29 10:47:33,0.0
-14200,-3136,-6984,-510,-4099,337,2025-01-29 10:47:33,0.0
-11712,-2272,-7048,-1152,-4827,1102,2025-01-29 10:47:33,0.0
-9236,-384,-5460,-1840,-4371,740,2025-01-29 10:47:33,0.0
-8700,1184,-4968,-1903,-3176,-749,2025-01-29 10:47:33,0.0
-10424,1536,-5548,-1354,-2422,-1532,2025-01-29 10:47:33,0.0
-12068,1532,-6352,-1365,-630,-1365,2025-01-29 10:47:33,0.0
-12596,1196,-5240,-1302,983,-1482,2025-01-29 10:47:33,0.0
-13280,120,-4844,-1460,1868,-1133,2025-01-29 10:47:33,0.0
-13916,-1288,-3828,-1660,1749,-241,2025-01-29 10:47:33,0.0
-14404,-2112,-3340,-1118,1011,1184,2025-01-29 10:47:33,0.0
-14132,-1636,-4560,-900,-15,2655,2025-01-29 10:47:33,0.0
-12708,-1192,-4960,-1072,-611,3299,2025-01-29 10:47:33,0.0
-11700,-260,-5104,-1101,-1174,3125,2025-01-29 10:47:34,0.0
-10788,856,-4680,-1033,-1420,2587,2025-01-29 10:47:34,0.0
-10652,1280,-3528,-582,-1616,1856,2025-01-29 10:47:34,0.0
-11016,948,-2896,9,-1318,1644,2025-01-29 10:47:34,0.0
-11240,752,-2596,340,-1206,1489,2025-01-29 10:47:34,0.0
-11272,480,-2764,628,-1019,1304,2025-01-29 10:47:34,0.0
-10812,296,-3344,851,-29,1165,2025-01-29 10:47:34,0.0
-10756,704,-3304,888,1093,741,2025-01-29 10:47:34,0.0
-11596,1192,-3308,731,2082,256,2025-01-29 10:47:34,0.0
-12728,1128,-3320,523,2487,49,2025-01-29 10:47:34,0.0
-13404,560,-3372,538,2399,-150,2025-01-29 10:47:34,0.0
-14240,-64,-3092,647,1788,-157,2025-01-29 10:47:34,0.0
-14108,-348,-2856,817,656,68,2025-01-29 10:47:34,0.0
-13088,-72,-2928,852,114,53,2025-01-29 10:47:34,0.0
-12560,228,-2896,1032,224,-234,2025-01-29 10:47:34,0.0
-12756,680,-2844,1222,459,-266,2025-01-29 10:47:34,0.0
-13500,844,-2864,1547,503,-16,2025-01-29 10:47:34,0.0
-13852,740,-2972,1901,348,356,2025-01-29 10:47:34,0.0
-14012,696,-3204,2032,-275,709,2025-01-29 10:47:34,0.0
-13640,320,-2900,2131,-567,796,2025-01-29 10:47:34,0.0
-13172,444,-2376,2427,-992,705,2025-01-29 10:47:34,
-13020,132,-2216,2857,-1174,741,2025-01-29 10:47:34,0.0
-13036,96,-2372,3239,-1310,931,2025-01-29 10:47:34,0.0
-12816,-492,-3952,3152,-1404,974,2025-01-29 10:47:34,0.0
-13300,-280,-5236,3158,-934,851,2025-01-29 10:47:34,0.0
-13444,88,-6112,3119,226,835,2025-01-29 10:47:34,0.0
-13692,128,-6668,2782,885,938,2025-01-29 10:47:34,0.0
-13736,124,-6404,2812,1153,822,2025-01-29 10:47:34,0.0
-13360,-188,-6364,2673,752,431,2025-01-29 10:47:34,0.0
-12708,-548,-5876,2821,77,-234,2025-01-29 10:47:34,0.0
-12892,-972,-5048,3117,-185,-508,2025-01-29 10:47:34,0.0
-12676,-1360,-4452,3413,-124,-537,2025-01-29 10:47:34,0.0
-12320,-1384,-4644,3440,-163,-640,2025-01-29 10:47:34,0.0
-12208,-1748,-4720,3190,92,-735,2025-01-29 10:47:34,0.0
-11920,-2040,-4824,2809,509,-859,2025-01-29 10:47:34,0.0
-11848,-2184,-5188,2158,1020,-1151,2025-01-29 10:47:34,0.0
-12312,-1700,-5040,1585,1679,-1706,2025-01-29 10:47:34,0.0
-12968,-1332,-4744,1199,2006,-2135,2025-01-29 10:47:34,0.0
-13412,-1244,-4428,930,1394,-2214,2025-01-29 10:47:34,0.0
-13060,-1412,-4468,830,425,-2095,2025-01-29 10:47:34,0.0
-13120,-1684,-4532,664,-667,-1787,2025-01-29 10:47:34,0.0
-12004,-2488,-4336,495,-1336,-1722,2025-01-29 10:47:34,0.0
-11480,-2592,-4812,391,-1406,-1282,2025-01-29 10:47:34,0.0
-10968,-2836,-4896,84,-545,-1024,2025-01-29 10:47:34,0.0
-10772,-2656,-5064,-322,543,-1128,2025-01-29 10:47:34,0.0
-11232,-2152,-4876,-645,1589,-1207,2025-01-29 10:47:34,0.0
-12200,-1808,-4484,-923,1943,-1199,2025-01-29 10:47:34,0.0
-12748,-1644,-4284,-1029,1985,-1347,2025-01-29 10:47:34,0.0
-14228,-1188,-3996,-900,2273,-964,2025-01-29 10:47:34,0.0
-13128,-2160,-3884,-1511,1917,-718,2025-01-29 10:47:34,0.0
-14032,-1652,-4248,-1353,249,-962,2025-01-29 10:47:34,0.0
-14088,-1936,-3968,-1367,-545,-356,2025-01-29 10:47:34,0.0
-12848,-1952,-4128,-1322,-594,371,2025-01-29 10:47:34,0.0
-12044,-2204,-3596,-1501,-103,859,2025-01-29 10:47:34,0.0
-11760,-2268,-3208,-1583,486,1046,2025-01-29 10:47:34,0.0
-12368,-2212,-2816,-1512,618,1082,2025-01-29 10:47:34,0.0
-13300,-2100,-2804,-1290,404,1331,2025-01-29 10:47:34,0.0
-14004,-1744,-3736,-979,428,1794,2025-01-29 10:47:34,0.0
-13468,-1176,-4528,-718,527,1666,2025-01-29 10:47:34,0.0
-13240,-596,-5292,-443,549,1282,2025-01-29 10:47:34,0.0
-12116,-792,-5016,-421,598,670,2025-01-29 10:47:34,0.0
-12368,-624,-5080,-390,541,136,2025-01-29 10:47:35,0.0
-12456,-680,-5260,-415,350,-149,2025-01-29 10:47:35,0.0
-12352,-684,-5484,-691,-193,-650,2025-01-29 10:47:35,0.0
-12600,-520,-5192,-871,-905,-1088,2025-01-29 10:47:35,0.0
-12800,-548,-4140,-906,-1637,-1222,2025-01-29 10:47:35,0.0
-12452,-684,-3636,-718,-1438,-949,2025-01-29 10:47:35,0.0
-12104,-752,-3684,-634,-398,-744,2025-01-29 10:47:35,0.0
-12540,-592,-4432,-1017,945,-630,2025-01-29 10:47:35,0.0
-12752,-320,-4488,-1313,2436,-838,2025-01-29 10:47:35,0.0
-13644,-552,-4888,-1330,2931,-78,2025-01-29 10:47:35,0.0
-13412,-1016,-3880,-1273,2103,-278,2025-01-29 10:47:35,0.0
-14260,-900,-4156,-783,774,-145,2025-01-29 10:47:35,0.0
-13260,-680,-4112,-670,280,332,2025-01-29 10:47:35,0.0
-12268,-724,-4208,-594,394,200,2025-01-29 10:47:35,0.0
-12096,-928,-4504,-561,827,-33,2025-01-29 10:47:35,0.0
-12384,-992,-4380,-567,1120,-212,2025-01-29 10:47:35,0.0
-12836,-956,-4460,-496,1369,-304,2025-01-29 10:47:35,0.0
-13136,-676,-4104,-309,1210,-322,2025-01-29 10:47:35,0.0
-13248,-680,-4148,-143,940,-267,2025-01-29 10:47:35,0.0
-13216,-608,-3856,61,499,-145,2025-01-29 10:47:35,0.0
-13016,-460,-3764,233,405,-136,2025-01-29 10:47:35,0.0
-12756,-420,-3924,353,446,-199,2025-01-29 10:47:35,0.0
-12556,-560,-4128,318,257,-300,2025-01-29 10:47:35,0.0
-12688,-532,-4312,296,161,-343,2025-01-29 10:47:35,0.0
-12600,-652,-4324,171,240,-311,2025-01-29 10:47:35,0.0
-12624,-716,-4360,177,281,-273,2025-01-29 10:47:35,0.0
-12684,-856,-4656,102,317,-142,2025-01-29 10:47:35,0.0
-12556,-808,-4292,102,445,-129,2025-01-29 10:47:35,0.0
-12512,-668,-4648,87,722,-185,2025-01-29 10:47:35,0.0
-12772,-556,-4944,-4,727,-249,2025-01-29 10:47:35,0.0
-12768,-596,-4468,-124,896,-322,2025-01-29 10:47:35,0.0
-12900,-832,-4296,-224,854,-430,2025-01-29 10:47:35,0.0
-13056,-920,-4036,-290,612,-563,2025-01-29 10:47:35,0.0
-13104,-764,-3968,-293,311,-580,2025-01-29 10:47:35,0.0
-13092,-744,-3908,-260,147,-483,2025-01-29 10:47:35,0.0
-12696,-672,-4456,-334,127,-385,2025-01-29 10:47:35,0.0
-12828,-864,-4244,-295,448,-252,2025-01-29 10:47:35,0.0
-12636,-1100,-4412,-337,750,-143,2025-01-29 10:47:35,0.0
-12800,-1152,-4380,-404,660,-19,2025-01-29 10:47:35,0.0
-12956,-1124,-4296,-444,476,266,2025-01-29 10:47:35,0.0
-12412,-1292,-4784,-457,369,322,2025-01-29 10:47:38,0.0
-3352,-1392,3972,323,-783,-521,2025-01-29 10:47:38,0.0
-4920,-1236,4316,884,-2944,-862,2025-01-29 10:47:38,0.0
-8708,76,3560,1454,-4420,682,2025-01-29 10:47:38,0.0
-7288,-1216,2868,2388,-5091,1511,2025-01-29 10:47:38,0.0
-8824,-260,-436,3221,-2435,2439,2025-01-29 10:47:38,0.0
-7448,-1576,-2032,1560,-1826,2865,2025-01-29 10:47:38,0.0
-11960,-1456,-3432,520,-447,1128,2025-01-29 10:47:38,0.0
-18864,-1244,-3668,-654,-403,-102,2025-01-29 10:47:38,0.0
-12432,-1188,-5796,-10629,194,-5889,2025-01-29 10:47:38,0.0
-12592,900,-6120,-12030,-1829,-4727,2025-01-29 10:47:38,0.0
-11372,1748,-6324,-12748,-2509,-3662,2025-01-29 10:47:39,0.0
-9928,1860,-7552,-13263,-1124,-3633,2025-01-29 10:47:39,0.0
-9456,1952,-7624,-13968,1290,-4380,2025-01-29 10:47:39,0.0
-10040,2016,-6768,-14110,3260,-5385,2025-01-29 10:47:39,0.0
-11892,1756,-6232,-13911,3883,-5895,2025-01-29 10:47:39,0.0
-13592,1820,-6252,-13743,3340,-5774,2025-01-29 10:47:39,0.0
-14744,1764,-6836,-13917,1565,-5315,2025-01-29 10:47:39,0.0
-14492,1532,-7040,-14294,-150,-5043,2025-01-29 10:47:39,0.0
-13436,852,-6352,-14609,-1546,-5041,2025-01-29 10:47:39,
-12564,164,-5620,-14570,-2199,-5245,2025-01-29 10:47:39,0.0
-11668,-596,-4616,-14011,-1631,-5315,2025-01-29 10:47:39,0.0
-11412,-400,-4312,-13172,-672,-5065,2025-01-29 10:47:39,0.0
-11336,104,-5016,-12340,428,-4773,2025-01-29 10:47:39,0.0
-11112,688,-5824,-11791,1041,-4810,2025-01-29 10:47:39,0.0
-11248,1068,-6404,-11647,1110,-5024,2025-01-29 10:47:39,0.0
-11564,1452,-6128,-11723,862,-5041,2025-01-29 10:47:39,0.0
-11644,1512,-5380,-11543,1165,-5092,2025-01-29 10:47:39,0.0
-12008,1756,-5300,-11519,1300,-5141,2025-01-29 10:47:39,0.0
-12008,1680,-5748,-11600,978,-5309,2025-01-29 10:47:39,0.0
-12040,1688,-6560,-11675,237,-5677,2025-01-29 10:47:39,0.0
-11980,1772,-7132,-11988,-582,-6111,2025-01-29 10:47:39,0.0
-12156,2168,-6380,-12346,-1170,-6420,2025-01-29 10:47:39,0.0
-11620,2164,-5692,-12541,-1491,-6501,2025-01-29 10:47:39,0.0
-11148,2148,-5560,-12736,-1221,-6625,2025-01-29 10:47:39,0.0
-10788,1736,-5664,-12997,-870,-6750,2025-01-29 10:47:39,0.0
-10432,1232,-6728,-13148,-410,-6906,2025-01-29 10:47:39,0.0
-10620,1200,-6576,-13108,501,-6973,2025-01-29 10:47:39,0.0
-10996,1308,-6596,-13050,1408,-7026,2025-01-29 10:47:39,0.0
-11796,1196,-6340,-13095,1636,-7070,2025-01-29 10:47:39,0.0
-12104,1016,-6224,-13026,1451,-7145,2025-01-29 10:47:39,0.0
-12340,1072,-6176,-12937,776,-7264,2025-01-29 10:47:39,0.0
-12652,1076,-6024,-13061,-112,-7317,2025-01-29 10:47:39,0.0
-12352,1256,-5420,-12910,-747,-7273,2025-01-29 10:47:39,0.0
-12100,892,-5352,-12596,-606,-7250,2025-01-29 10:47:39,0.0
-11732,620,-5300,-12464,-130,-7216,2025-01-29 10:47:39,0.0
-11632,108,-4792,-12150,156,-7204,2025-01-29 10:47:39,0.0
-11784,-296,-4848,-11532,240,-7088,2025-01-29 10:47:39,0.0
-11600,-172,-4892,-10953,506,-6891,2025-01-29 10:47:39,0.0
-11936,184,-5368,-10497,906,-6782,2025-01-29 10:47:39,0.0
-11704,380,-5640,-10275,1241,-6615,2025-01-29 10:47:39,0.0
-12040,-96,-5052,-9995,1537,-6646,2025-01-29 10:47:39,0.0
-12244,-812,-4616,-9604,1430,-6697,2025-01-29 10:47:39,0.0
-12608,-1584,-4424,-8994,1206,-6627,2025-01-29 10:47:39,0.0
-13012,-1932,-4080,-8208,922,-6350,2025-01-29 10:47:39,0.0
-13120,-2248,-4116,-7277,541,-5925,2025-01-29 10:47:39,0.0
-13192,-2108,-4464,-6565,388,-5435,2025-01-29 10:47:39,0.0
-13232,-1696,-4156,-5969,696,-4591,2025-01-29 10:47:39,0.0
-12868,-924,-4140,-5645,690,-4163,2025-01-29 10:47:39,0.0
-13068,-284,-4552,-5424,329,-3965,2025-01-29 10:47:39,0.0
-13340,768,-6144,-5317,152,-3448,2025-01-29 10:47:39,0.0
-13188,1244,-7664,-5692,622,-2918,2025-01-29 10:47:39,0.0
-12480,160,-5896,-5773,968,-2984,2025-01-29 10:47:39,0.0
-12392,-1380,-4452,-5427,64,-3236,2025-01-29 10:47:39,0.0
-12084,-1872,-5180,-4996,-911,-3169,2025-01-29 10:47:39,0.0
-11660,-1728,-6464,-4895,-437,-3230,2025-01-29 10:47:39,0.0
-11068,-756,-7220,-4598,839,-3639,2025-01-29 10:47:39,0.0
-11052,604,-7924,-4802,1933,-4411,2025-01-29 10:47:39,0.0
-11656,1268,-7960,-5335,1940,-5047,2025-01-29 10:47:39,0.0
-12060,1256,-7484,-5869,1456,-5420,2025-01-29 10:47:40,0.0
-12088,228,-6980,-6402,662,-5878,2025-01-29 10:47:40,0.0
-12288,-768,-6308,-6716,75,-6020,2025-01-29 10:47:40,0.0
-11984,-1864,-6092,-6689,-153,-5994,2025-01-29 10:47:40,0.0
-11608,-2496,-5752,-6577,-261,-5979,2025-01-29 10:47:40,0.0
-11536,-2412,-5720,-6376,-97,-5783,2025-01-29 10:47:40,0.0
-11540,-2188,-6180,-6162,76,-5468,2025-01-29 10:47:40,0.0
-11508,-1872,-6256,-5998,390,-5258,2025-01-29 10:47:40,0.0
-12212,-1728,-6072,-6092,867,-5016,2025-01-29 10:47:40,0.0
-12584,-1352,-5876,-6058,924,-4762,2025-01-29 10:47:40,0.0
-12736,-1084,-6092,-6147,593,-4739,2025-01-29 10:47:40,0.0
-12728,-1252,-5828,-6403,-7,-4812,2025-01-29 10:47:40,0.0
-12380,-1780,-5764,-6581,-613,-4977,2025-01-29 10:47:40,0.0
-11960,-2416,-5736,-6441,-962,-5239,2025-01-29 10:47:40,0.0
-11720,-2820,-6212,-6309,-1104,-5354,2025-01-29 10:47:40,0.0
-11852,-2760,-5812,-6305,-978,-5017,2025-01-29 10:47:40,0.0
-11608,-2472,-5616,-6230,-563,-4623,2025-01-29 10:47:40,0.0
-11476,-2388,-5208,-6125,-194,-4503,2025-01-29 10:47:40,0.0
-11816,-2436,-5100,-6132,53,-4461,2025-01-29 10:47:40,0.0
-11996,-2340,-4908,-6096,87,-4441,2025-01-29 10:47:40,0.0
-12252,-2560,-5172,-6131,-30,-4375,2025-01-29 10:47:40,0.0
-12620,-2676,-5040,-5997,-297,-4097,2025-01-29 10:47:40,0.0
-12352,-2588,-4708,-2428,766,-1024,2025-01-29 10:47:40,0.0
-12816,-1848,-4012,-2455,649,-893,2025-01-29 10:47:40,0.0
-13312,-1536,-3816,-2607,-281,-385,2025-01-29 10:47:40,0.0
-12888,-1652,-3880,-2791,-1282,-61,2025-01-29 10:47:40,0.0
-12420,-1852,-4220,-2748,-1727,-311,2025-01-29 10:47:40,0.0
-11840,-2180,-4792,-2822,-1473,-575,2025-01-29 10:47:40,0.0
-11284,-2260,-4688,-2932,-372,-779,2025-01-29 10:47:40,0.0
-11252,-2552,-4320,-3174,953,-1275,2025-01-29 10:47:40,0.0
-11936,-2752,-4136,-3133,1421,-1545,2025-01-29 10:47:40,0.0
-12524,-2748,-4468,-2921,1349,-1710,2025-01-29 10:47:40,0.0
-12856,-2676,-4524,-2889,1031,-1841,2025-01-29 10:47:40,0.0
-13080,-2500,-4456,-2898,781,-1953,2025-01-29 10:47:40,0.0
-13132,-1900,-4540,-3114,563,-1842,2025-01-29 10:47:40,0.0
-13132,-1804,-4836,-3476,354,-1861,2025-01-29 10:47:40,0.0
-13076,-1896,-4560,-3835,384,-1846,2025-01-29 10:47:40,0.0
-13200,-2288,-3844,-4040,415,-1851,2025-01-29 10:47:40,0.0
-13296,-3044,-4116,-4002,602,-1949,2025-01-29 10:47:40,0.0
-13864,-3548,-5376,-3583,1495,-2345,2025-01-29 10:47:40,0.0
-14628,-3924,-6264,-3084,2710,-2899,2025-01-29 10:47:40,0.0
-15120,-4908,-6700,-1916,3198,-3786,2025-01-29 10:47:40,0.0
-16156,-5468,-7056,-699,1083,-3790,2025-01-29 10:47:40,0.0
-16700,-5892,-7068,53,-1607,-2517,2025-01-29 10:47:40,0.0
-16200,-5680,-6560,444,-2966,-561,2025-01-29 10:47:40,0.0
-14924,-4032,-5880,621,-3171,1326,2025-01-29 10:47:40,0.0
-12948,-2288,-6516,258,-3035,2523,2025-01-29 10:47:40,0.0
-11384,-1964,-7212,-609,-2324,3188,2025-01-29 10:47:40,0.0
-10232,-1976,-7140,-777,-1648,3421,2025-01-29 10:47:40,0.0
-9516,-1912,-7528,-595,-1165,3207,2025-01-29 10:47:40,0.0
-9512,-1328,-7628,-598,-525,2922,2025-01-29 10:47:40,
-9936,320,-7868,-555,34,2887,2025-01-29 10:47:40,0.0
-10216,1988,-8104,-826,792,2915,2025-01-29 10:47:40,0.0
-10376,3072,-8148,-1236,1286,2530,2025-01-29 10:47:41,0.0
-10660,2796,-8396,-1778,1229,1879,2025-01-29 10:47:41,0.0
-11544,1028,-7624,-2425,1260,1215,2025-01-29 10:47:41,0.0
-12560,-464,-7032,-2549,918,1315,2025-01-29 10:47:41,0.0
-12720,-1652,-6492,-2212,308,1832,2025-01-29 10:47:41,0.0
-12476,-2152,-6580,-1793,-439,2296,2025-01-29 10:47:41,0.0
-11804,-1872,-6476,-1252,-968,2668,2025-01-29 10:47:41,0.0
-11424,-1268,-5924,-768,-1373,2989,2025-01-29 10:47:41,0.0
-11276,-376,-5364,-440,-1915,3463,2025-01-29 10:47:41,0.0
-10560,580,-4912,-303,-2220,3804,2025-01-29 10:47:41,0.0
-9708,1476,-5260,-275,-2139,3814,2025-01-29 10:47:41,0.0
-9048,1840,-5404,-360,-1296,3485,2025-01-29 10:47:41,0.0
-8648,1808,-5344,-299,35,2729,2025-01-29 10:47:41,0.0
-9676,1492,-5192,-357,1735,1536,2025-01-29 10:47:41,0.0
-11212,1376,-5008,-460,2111,1359,2025-01-29 10:47:41,0.0
-12508,1524,-4800,-504,1630,1548,2025-01-29 10:47:41,0.0
-12448,1648,-4952,-639,438,1541,2025-01-29 10:47:41,0.0
-12020,1632,-5228,-757,-1121,998,2025-01-29 10:47:41,0.0
-11612,1372,-5228,-870,-2011,443,2025-01-29 10:47:41,0.0
-11180,1060,-4464,-835,-2050,303,2025-01-29 10:47:41,0.0
-11088,556,-3200,-402,-1392,233,2025-01-29 10:47:41,0.0
-11476,-212,-2520,313,-394,-51,2025-01-29 10:47:41,0.0
-12088,-556,-3032,890,-234,-425,2025-01-29 10:47:41,0.0
-12324,-424,-3076,1517,-1037,-764,2025-01-29 10:47:41,0.0
-12088,584,-3092,2572,-2039,-808,2025-01-29 10:47:41,0.0
-11800,1396,-3988,3164,-2077,-330,2025-01-29 10:47:41,0.0
-11196,1628,-4708,3080,-1206,287,2025-01-29 10:47:41,0.0
-10756,880,-4404,3186,725,663,2025-01-29 10:47:41,0.0
-11888,-56,-3980,3496,3224,953,2025-01-29 10:47:41,0.0
-12952,-276,-5268,3746,4990,1106,2025-01-29 10:47:41,0.0
-14384,64,-5964,4041,6234,1248,2025-01-29 10:47:41,0.0
-15584,720,-6164,4183,6515,1507,2025-01-29 10:47:41,0.0
-16352,1756,-5504,4133,4331,2038,2025-01-29 10:47:41,0.0
-16180,2100,-4336,3991,736,2388,2025-01-29 10:47:41,0.0
-16272,1980,-5800,4111,-547,2642,2025-01-29 10:47:41,0.0
-15884,1396,-7220,3944,-8,2754,2025-01-29 10:47:41,0.0
-14904,1724,-6964,3539,-170,2472,2025-01-29 10:47:41,0.0
-13792,3116,-6776,3090,-469,1842,2025-01-29 10:47:41,0.0
-12672,4268,-7472,2214,-335,924,2025-01-29 10:47:41,0.0
-12624,4424,-8872,1166,-456,-70,2025-01-29 10:47:41,0.0
-12688,3080,-9952,454,-804,-847,2025-01-29 10:47:41,0.0
-12344,1560,-9232,-294,-1393,-962,2025-01-29 10:47:41,0.0
-10772,640,-7568,-211,-2059,-1060,2025-01-29 10:47:41,0.0
-8820,24,-6944,-70,-2860,-1631,2025-01-29 10:47:41,0.0
-8284,-1068,-6784,-74,-2864,-2297,2025-01-29 10:47:41,0.0
-8316,-2584,-7924,7,-1021,-2406,2025-01-29 10:47:41,0.0
-8688,-3096,-9048,-169,1639,-2283,2025-01-29 10:47:41,0.0
-9600,-2544,-9052,-376,3732,-2158,2025-01-29 10:47:41,0.0
-10704,-1700,-8428,-647,4122,-2346,2025-01-29 10:47:41,0.0
-11656,-752,-8024,-940,3441,-2788,2025-01-29 10:47:41,0.0
-11872,-240,-8364,-1275,2240,-3217,2025-01-29 10:47:41,0.0
-12104,-276,-8216,-1605,640,-3790,2025-01-29 10:47:41,0.0
-11912,-416,-7648,-1826,-1099,-4010,2025-01-29 10:47:41,0.0
-11192,-680,-7196,-1974,-2646,-4002,2025-01-29 10:47:41,0.0
-10372,-916,-6376,-2120,-3426,-3891,2025-01-29 10:47:41,0.0
-9788,-1336,-5656,-2296,-3460,-3715,2025-01-29 10:47:41,0.0
-8956,-1784,-4840,-2313,-2151,-3506,2025-01-29 10:47:41,0.0
-8664,-2444,-4432,-2293,-19,-3508,2025-01-29 10:47:41,0.0
-9420,-3020,-4276,-2010,1738,-3300,2025-01-29 10:47:41,0.0
-10300,-3044,-4868,-1848,2710,-2831,2025-01-29 10:47:41,0.0
-11604,-2668,-5140,-1764,3320,-2260,2025-01-29 10:47:41,0.0
-12544,-2228,-5184,-1616,3295,-1638,2025-01-29 10:47:42,0.0
-13008,-1836,-5624,-1500,2264,-1250,2025-01-29 10:47:42,0.0
-12964,-1940,-5640,-1430,527,-1075,2025-01-29 10:47:42,0.0
-12532,-1984,-5380,-1423,-191,-970,2025-01-29 10:47:42,0.0
-11748,-1988,-5244,-1445,-463,-779,2025-01-29 10:47:42,0.0
-11100,-1572,-4964,-1533,-221,-519,2025-01-29 10:47:42,0.0
-10676,-1180,-4584,-1815,250,-367,2025-01-29 10:47:42,0.0
-10704,-1320,-4628,-2160,863,-309,2025-01-29 10:47:42,0.0
-10908,-1528,-5124,-2670,1358,-423,2025-01-29 10:47:42,0.0
-11280,-1336,-5368,-2989,1585,-894,2025-01-29 10:47:42,0.0
-12488,-924,-5124,-3264,1311,-973,2025-01-29 10:47:42,0.0
-13332,-1136,-4984,-3518,749,-581,2025-01-29 10:47:42,0.0
-13656,-1388,-4508,-3666,414,-362,2025-01-29 10:47:42,0.0
-13652,-1836,-4724,-3696,436,-580,2025-01-29 10:47:42,0.0
-13544,-2144,-5308,-3578,283,-1161,2025-01-29 10:47:42,0.0
-13844,-1456,-5960,-3253,-251,-1938,2025-01-29 10:47:42,0.0
-14380,-1168,-5344,-3253,-452,-2422,2025-01-29 10:47:42,0.0
-14348,-1684,-4552,-3571,-600,-2967,2025-01-29 10:47:42,0.0
-14540,-1680,-6616,-3549,-591,-3922,2025-01-29 10:47:42,0.0
-15440,-1504,-8128,-3395,-60,-4205,2025-01-29 10:47:42,0.0
-15688,-2900,-8100,-2578,52,-4376,2025-01-29 10:47:42,0.0
-16156,-4708,-7940,-1205,-802,-4439,2025-01-29 10:47:42,0.0
-17872,-5704,-9004,-887,-2794,-2977,2025-01-29 10:47:42,0.0
-17424,-5112,-9332,-1296,-5107,161,2025-01-29 10:47:42,0.0
-12916,-3536,-8396,-877,-7073,1142,2025-01-29 10:47:42,0.0
-10252,-1780,-7592,-712,-8623,924,2025-01-29 10:47:42,0.0
-8300,-264,-6976,-732,-9173,708,2025-01-29 10:47:42,0.0
-7076,1028,-6588,-1025,-7549,249,2025-01-29 10:47:43,0.0
-7492,1816,-7132,-1715,-4114,-135,2025-01-29 10:47:43,0.0
-8856,1808,-7684,-2561,-257,24,2025-01-29 10:47:43,0.0
-10500,860,-7836,-2765,2647,528,2025-01-29 10:47:43,0.0
-11928,-376,-7320,-2427,4267,712,2025-01-29 10:47:43,0.0
-13184,-888,-6496,-1709,4109,701,2025-01-29 10:47:43,0.0
-13460,-2468,-6404,-12,-2047,1980,2025-01-29 10:47:43,0.0
-12220,-2444,-6076,569,-2377,2753,2025-01-29 10:47:43,0.0
-10500,-1760,-5660,1325,-2460,3225,2025-01-29 10:47:43,0.0
-9288,1116,-10140,99,-4713,1839,2025-01-29 10:47:43,
-7908,2428,-9152,-951,-3092,1755,2025-01-29 10:47:43,0.0
-7300,3364,-9208,-1877,-569,1033,2025-01-29 10:47:43,0.0
-7956,3440,-8924,-2797,1939,-37,2025-01-29 10:47:43,0.0
-9548,2552,-8512,-3447,3447,-1183,2025-01-29 10:47:43,0.0
-12148,724,-7932,-3755,3536,-1180,2025-01-29 10:47:43,0.0
-13484,-824,-7288,-3593,3001,-335,2025-01-29 10:47:43,0.0
-13888,-1908,-7020,-3332,1863,333,2025-01-29 10:47:43,0.0
-14308,-2236,-6880,-2879,786,1318,2025-01-29 10:47:44,0.0
-12928,-1724,-7220,-2355,-820,1985,2025-01-29 10:47:44,0.0
-11740,-1412,-6440,-1871,-2018,2081,2025-01-29 10:47:44,0.0
-10768,-680,-5944,-1383,-2781,2392,2025-01-29 10:47:44,0.0
-9828,-340,-5592,-969,-2956,2532,2025-01-29 10:47:44,0.0
-8900,332,-5180,-763,-2177,2422,2025-01-29 10:47:44,0.0
-8620,848,-4740,-518,-584,2123,2025-01-29 10:47:44,0.0
-8704,1044,-4604,-345,1164,1600,2025-01-29 10:47:44,0.0
-9612,1136,-4704,-277,2381,985,2025-01-29 10:47:44,0.0
-11004,1288,-5092,-349,2614,707,2025-01-29 10:47:44,0.0
-11504,1176,-5408,-302,2319,429,2025-01-29 10:47:44,0.0
-11732,1292,-5364,-179,1577,-115,2025-01-29 10:47:44,0.0
-12124,1036,-5424,-166,785,-817,2025-01-29 10:47:44,0.0
-12348,576,-5536,-174,351,-998,2025-01-29 10:47:44,0.0
-12068,176,-5480,-138,150,-952,2025-01-29 10:47:44,0.0
-11968,-136,-5128,-53,229,-884,2025-01-29 10:47:44,0.0
-12072,-584,-5184,195,670,-717,2025-01-29 10:47:44,0.0
-11996,-604,-5280,609,886,-453,2025-01-29 10:47:44,0.0
-12876,-380,-4892,1117,568,-204,2025-01-29 10:47:44,0.0
-12820,-168,-5488,1443,-69,195,2025-01-29 10:47:44,0.0
-12696,-52,-4956,1823,-385,516,2025-01-29 10:47:44,0.0
-12224,-176,-4832,2095,-527,677,2025-01-29 10:47:44,0.0
-11872,-84,-4400,2487,-474,723,2025-01-29 10:47:44,0.0
-11760,-40,-4584,2817,-227,646,2025-01-29 10:47:44,0.0
-12052,152,-4996,2920,152,821,2025-01-29 10:47:44,0.0
-12308,372,-4876,3111,645,1215,2025-01-29 10:47:44,0.0
-12736,216,-4620,3212,1091,1474,2025-01-29 10:47:44,0.0
-13312,-40,-3900,3437,1227,1689,2025-01-29 10:47:44,0.0
-13532,-168,-3880,3734,753,1987,2025-01-29 10:47:44,0.0
-13348,-244,-4960,3961,-54,2141,2025-01-29 10:47:44,0.0
-12912,280,-6216,3948,-242,1981,2025-01-29 10:47:44,0.0
-13044,996,-7548,3438,-24,1983,2025-01-29 10:47:44,0.0
-12860,1948,-8340,2493,45,2076,2025-01-29 10:47:44,0.0
-12556,2560,-8952,1577,325,1572,2025-01-29 10:47:44,0.0
-12968,2344,-10396,863,1087,458,2025-01-29 10:47:44,0.0
-13852,1904,-11164,-143,1031,-166,2025-01-29 10:47:44,0.0
-13844,1512,-9504,-1055,427,-295,2025-01-29 10:47:44,0.0
-12792,800,-8232,-1184,44,-673,2025-01-29 10:47:44,0.0
-11264,144,-7568,-973,-523,-1462,2025-01-29 10:47:44,0.0
-9892,-636,-7188,-588,-1050,-2273,2025-01-29 10:47:44,0.0
-8764,-1228,-6696,-125,-1473,-2927,2025-01-29 10:47:44,0.0
-8352,-1828,-6900,228,-1465,-3215,2025-01-29 10:47:44,0.0
-8624,-2360,-6528,285,-190,-2920,2025-01-29 10:47:44,0.0
-9632,-2404,-6600,-143,1710,-2168,2025-01-29 10:47:44,0.0
-10316,-2012,-6420,-514,3106,-1571,2025-01-29 10:47:44,0.0
-11528,-2356,-7028,-673,3486,-1527,2025-01-29 10:47:44,0.0
-12608,-2484,-7608,-575,3261,-1553,2025-01-29 10:47:44,0.0
-13356,-2816,-7632,-295,2092,-1552,2025-01-29 10:47:44,0.0
-13616,-2980,-7128,120,217,-1278,2025-01-29 10:47:44,0.0
-12844,-2592,-7200,323,-1150,-1218,2025-01-29 10:47:44,0.0
-11740,-2120,-7136,241,-2036,-1565,2025-01-29 10:47:44,0.0
-10884,-1820,-7532,42,-2693,-1636,2025-01-29 10:47:44,0.0
-9728,-1444,-7344,-96,-2617,-1644,2025-01-29 10:47:44,0.0
-8812,-1264,-7648,-507,-1555,-1847,2025-01-29 10:47:44,0.0
-8552,-1220,-7656,-1052,214,-2112,2025-01-29 10:47:44,0.0
-9632,-1320,-7680,-1773,2371,-2376,2025-01-29 10:47:44,0.0
-11016,-1572,-7208,-2180,3102,-2317,2025-01-29 10:47:44,0.0
-11984,-1860,-6760,-2430,2954,-2354,2025-01-29 10:47:44,0.0
-12900,-2308,-6656,-2405,1902,-2262,2025-01-29 10:47:44,0.0
-13180,-2584,-6504,-2157,486,-1903,2025-01-29 10:47:44,0.0
-12436,-2620,-6400,-1953,-386,-1522,2025-01-29 10:47:44,0.0
-11316,-2968,-6320,-1708,-900,-1305,2025-01-29 10:47:45,0.0
-10912,-2940,-6228,-1414,-689,-1075,2025-01-29 10:47:45,0.0
-10680,-2616,-6480,-1161,45,-741,2025-01-29 10:47:45,0.0
-10860,-2556,-6760,-1164,890,-439,2025-01-29 10:47:45,0.0
-11416,-2452,-6940,-1168,1270,-304,2025-01-29 10:47:45,0.0
-12108,-2068,-7252,-1273,1092,7,2025-01-29 10:47:45,0.0
-12352,-1636,-7212,-1421,466,344,2025-01-29 10:47:45,0.0
-12516,-1580,-7172,-1485,-236,617,2025-01-29 10:47:45,0.0
-12260,-1688,-6876,-1466,-1012,1081,2025-01-29 10:47:45,0.0
-11308,-1604,-7320,-1662,-1445,1125,2025-01-29 10:47:45,0.0
-10780,-1568,-7180,-1820,-1227,723,2025-01-29 10:47:45,0.0
-11020,-1720,-7088,-1794,-691,418,2025-01-29 10:47:45,0.0
-11040,-1968,-7148,-1696,-41,206,2025-01-29 10:47:45,0.0
-11076,-1696,-6892,-1437,447,-70,2025-01-29 10:47:45,0.0
-11388,-1440,-6936,-1250,648,-275,2025-01-29 10:47:45,0.0
-11532,-1280,-6932,-1090,651,-542,2025-01-29 10:47:45,0.0
-11728,-788,-7000,-1028,565,-714,2025-01-29 10:47:45,0.0
-11764,-416,-6892,-1346,142,-757,2025-01-29 10:47:45,0.0
-11676,-744,-6580,-1661,-218,-696,2025-01-29 10:47:45,0.0
-11280,-1100,-6572,-1678,-178,-680,2025-01-29 10:47:45,0.0
-11076,-1256,-6600,-1633,304,-754,2025-01-29 10:47:45,0.0
-11208,-1224,-6292,-1461,942,-742,2025-01-29 10:47:45,0.0
-11432,-1116,-6528,-1412,1286,-719,2025-01-29 10:47:45,0.0
-12076,-1124,-6340,-1331,1225,-735,2025-01-29 10:47:45,0.0
-12364,-1132,-6688,-1267,846,-672,2025-01-29 10:47:45,0.0
-12396,-1136,-6776,-1221,354,-647,2025-01-29 10:47:45,0.0
-12168,-1160,-6548,-1146,-83,-664,2025-01-29 10:47:45,0.0
-11860,-1052,-6432,-1038,-297,-557,2025-01-29 10:47:45,0.0
-11360,-1196,-6092,-1011,14,-452,2025-01-29 10:47:45,0.0
-11248,-1176,-6312,-912,532,-420,2025-01-29 10:47:45,0.0
-11468,-1272,-6432,-857,883,-257,2025-01-29 10:47:45,0.0
-11576,-1384,-6376,-728,961,-157,2025-01-29 10:47:45,
