acceleration_x,acceleration_y,acceleration_z,gyroscope_x,gyroscope_y,gyroscope_z,timestamp,label
-12789.25,-816.3,-26709.0,-285.675,25.652500000000003,-371.1825,2025-01-29 10:38:40,0.0
-12865.25,-588.3,-26621.0,-288.675,42.6525,-378.1825,2025-01-29 10:38:40,0.0
-12929.25,-776.3,-26809.0,-347.675,-23.347499999999997,-387.1825,2025-01-29 10:38:40,0.0
-12869.25,-640.3,-26657.0,-342.675,-41.3475,-341.1825,2025-01-29 10:38:40,0.0
-12825.25,-780.3,-26785.0,-316.675,-61.3475,-347.1825,2025-01-29 10:38:40,0.0
-12753.25,-796.3,-26773.0,-295.675,-32.3475,-346.1825,2025-01-29 10:38:40,0.0
-12949.25,-644.3,-26645.0,-325.675,-28.347499999999997,-381.1825,2025-01-29 10:38:40,0.0
-12857.25,-684.3,-26713.0,-285.675,-33.3475,-357.1825,2025-01-29 10:38:40,0.0
-12893.25,-780.3,-26637.0,-340.675,-47.3475,-370.1825,2025-01-29 10:38:40,0.0
-12741.25,-692.3,-26693.0,-346.675,-42.3475,-361.1825,2025-01-29 10:38:40,0.0
-12869.25,-636.3,-26617.0,-353.675,-25.347499999999997,-353.1825,2025-01-29 10:38:40,0.0
-12789.25,-684.3,-26685.0,-350.675,7.652500000000003,-366.1825,2025-01-29 10:38:40,0.0
-12741.25,-832.3,-26745.0,-318.675,34.6525,-348.1825,2025-01-29 10:38:40,0.0
-12825.25,-748.3,-26809.0,-333.675,16.652500000000003,-362.1825,2025-01-29 10:38:40,0.0
-12837.25,-772.3,-26817.0,-335.675,51.6525,-348.1825,2025-01-29 10:38:40,0.0
-12905.25,-712.3,-26649.0,-289.675,43.6525,-346.1825,2025-01-29 10:38:40,0.0
-12913.25,-684.3,-26841.0,-317.675,46.6525,-343.1825,2025-01-29 10:38:40,0.0
-12841.25,-716.3,-26773.0,-338.675,17.652500000000003,-356.1825,2025-01-29 10:38:40,0.0
-12897.25,-716.3,-26697.0,-366.675,-65.3475,-348.1825,2025-01-29 10:38:40,0.0
-12965.25,-740.3,-26905.0,-394.675,-86.3475,-342.1825,2025-01-29 10:38:40,0.0
-12753.25,-704.3,-26669.0,-391.675,-50.3475,-346.1825,2025-01-29 10:38:40,0.0
-12865.25,-724.3,-26649.0,-369.675,48.6525,-364.1825,2025-01-29 10:38:40,0.0
-12869.25,-860.3,-26757.0,-326.675,-6.347499999999997,-363.1825,2025-01-29 10:38:40,0.0
-12901.25,-844.3,-26781.0,-313.675,-82.3475,-329.1825,2025-01-29 10:38:40,0.0
-12861.25,-832.3,-26761.0,-317.675,-125.3475,-345.1825,2025-01-29 10:38:40,0.0
-12837.25,-804.3,-26737.0,-302.675,-112.3475,-334.1825,2025-01-29 10:38:40,0.0
-12809.25,-596.3,-26613.0,-252.675,-109.3475,-302.1825,2025-01-29 10:38:40,0.0
-12837.25,-612.3,-26617.0,-246.675,-75.3475,-295.1825,2025-01-29 10:38:40,0.0
-12861.25,-808.3,-26461.0,-241.675,-44.3475,-283.1825,2025-01-29 10:38:40,0.0
-12849.25,-852.3,-26513.0,-188.675,2.6525000000000034,-291.1825,2025-01-29 10:38:40,0.0
-12941.25,-924.3,-26705.0,-172.675,11.652500000000003,-282.1825,2025-01-29 10:38:40,0.0
-12869.25,-696.3,-26537.0,-115.67500000000001,-22.347499999999997,-303.1825,2025-01-29 10:38:40,0.0
-12929.25,-644.3,-26673.0,-160.675,-84.3475,-273.1825,2025-01-29 10:38:40,0.0
-12869.25,-728.3,-26617.0,-133.675,-96.3475,-252.1825,2025-01-29 10:38:40,0.0
-12869.25,-736.3,-26461.0,-184.675,6.652500000000003,-267.1825,2025-01-29 10:38:41,0.0
-12753.25,-736.3,-26657.0,-189.675,86.6525,-290.1825,2025-01-29 10:38:41,0.0
-12869.25,-728.3,-26701.0,-180.675,89.6525,-307.1825,2025-01-29 10:38:41,0.0
-12857.25,-748.3,-26793.0,-226.675,58.6525,-314.1825,2025-01-29 10:38:41,0.0
-12909.25,-736.3,-26861.0,-228.675,35.6525,-308.1825,2025-01-29 10:38:41,0.0
-12957.25,-772.3,-26785.0,-254.675,24.652500000000003,-315.1825,2025-01-29 10:38:41,0.0
-12837.25,-728.3,-26625.0,-246.675,0.6525000000000034,-322.1825,2025-01-29 10:38:41,0.0
-12921.25,-788.3,-26617.0,-269.675,-26.347499999999997,-326.1825,2025-01-29 10:38:41,0.0
-12825.25,-784.3,-26701.0,-276.675,-17.347499999999997,-326.1825,2025-01-29 10:38:41,0.0
-12845.25,-840.3,-26729.0,-269.675,8.652500000000003,-334.1825,2025-01-29 10:38:41,0.0
-12937.25,-768.3,-26629.0,-205.675,33.6525,-287.1825,2025-01-29 10:38:41,0.0
-12853.25,-840.3,-26725.0,-210.675,85.6525,-261.1825,2025-01-29 10:38:41,0.0
-12877.25,-828.3,-26637.0,-192.675,155.6525,-283.1825,2025-01-29 10:38:41,0.0
-12913.25,-860.3,-26717.0,-157.675,133.6525,-257.1825,2025-01-29 10:38:41,0.0
-12841.25,-748.3,-26817.0,-170.675,126.6525,-267.1825,2025-01-29 10:38:41,0.0
-12973.25,-668.3,-26637.0,-177.675,125.6525,-255.1825,2025-01-29 10:38:41,0.0
-12913.25,-660.3,-26773.0,-154.675,117.6525,-188.1825,2025-01-29 10:38:41,0.0
-12845.25,-696.3,-27049.0,-94.67500000000001,132.6525,-145.1825,2025-01-29 10:38:41,0.0
-12949.25,-648.3,-26813.0,-118.67500000000001,144.6525,-148.1825,2025-01-29 10:38:41,0.0
-13029.25,-548.3,-26829.0,-107.67500000000001,170.6525,-56.182500000000005,2025-01-29 10:38:41,0.0
-12705.25,-484.3,-26789.0,-143.675,232.6525,-26.182500000000005,2025-01-29 10:38:41,0.0
-12689.25,-476.3,-27137.0,-239.675,330.65250000000003,1.8174999999999955,2025-01-29 10:38:41,0.0
-12581.25,-152.3,-27309.0,-195.675,580.6525,78.8175,2025-01-29 10:38:41,0.0
-12625.25,239.7,-26993.0,-224.675,831.6525,57.817499999999995,2025-01-29 10:38:41,0.0
-12985.25,383.7,-26725.0,-358.675,996.6525,105.8175,2025-01-29 10:38:41,0.0
-13409.25,-24.30000000000001,-26281.0,-454.675,1056.6525,136.8175,2025-01-29 10:38:41,0.0
-13841.25,-300.3,-25745.0,-203.675,640.6525,250.8175,2025-01-29 10:38:41,0.0
-13709.25,-336.3,-26157.0,35.32499999999999,-285.34749999999997,286.8175,2025-01-29 10:38:41,0.0
-13249.25,-260.3,-26277.0,206.325,-1091.3475,220.8175,2025-01-29 10:38:41,0.0
-12993.25,-36.30000000000001,-26073.0,527.325,-1467.3475,114.8175,2025-01-29 10:38:41,0.0
-12477.25,203.7,-25973.0,850.325,-1393.3475,80.8175,2025-01-29 10:38:41,0.0
-12153.25,279.7,-25929.0,1019.325,-940.3475,-105.1825,2025-01-29 10:38:41,0.0
-12361.25,331.7,-26057.0,1013.325,-428.34749999999997,-281.1825,2025-01-29 10:38:41,0.0
-12453.25,243.7,-26493.0,966.325,97.6525,-430.1825,2025-01-29 10:38:41,0.0
-12713.25,71.69999999999999,-26493.0,933.325,454.65250000000003,-567.1825,2025-01-29 10:38:41,0.0
-12861.25,-128.3,-26693.0,963.325,577.6525,-592.1825,2025-01-29 10:38:41,0.0
-12997.25,39.69999999999999,-26797.0,1060.325,428.65250000000003,-662.1825,2025-01-29 10:38:41,0.0
-13209.25,-84.30000000000001,-27109.0,952.325,237.6525,-773.1825,2025-01-29 10:38:41,0.0
-13461.25,-260.3,-27197.0,902.325,-46.3475,-734.1825,2025-01-29 10:38:41,0.0
-13445.25,-528.3,-26925.0,909.325,-403.34749999999997,-683.1825,2025-01-29 10:38:41,0.0
-13413.25,-656.3,-26865.0,891.325,-756.3475,-680.1825,2025-01-29 10:38:41,0.0
-13525.25,-860.3,-26301.0,1029.325,-964.3475,-618.1825,2025-01-29 10:38:41,0.0
-13325.25,-988.3,-26473.0,1313.325,-1307.3475,-614.1825,2025-01-29 10:38:41,0.0
-13137.25,-1104.3,-26509.0,1529.325,-1528.3475,-586.1825,2025-01-29 10:38:41,0.0
-12989.25,-1136.3,-26381.0,1713.325,-1379.3475,-598.1825,2025-01-29 10:38:41,0.0
-12985.25,-860.3,-26221.0,1816.325,-1111.3475,-644.1825,2025-01-29 10:38:41,0.0
-12925.25,-612.3,-26753.0,1710.325,-1143.3475,-882.1825,2025-01-29 10:38:41,0.0
-12925.25,-376.3,-26969.0,1486.325,-1268.3475,-1249.1825,2025-01-29 10:38:41,0.0
-13029.25,-476.3,-27141.0,1289.325,-1385.3475,-1432.1825,2025-01-29 10:38:41,0.0
-13097.25,-716.3,-27145.0,1083.325,-1341.3475,-1588.1825,2025-01-29 10:38:41,0.0
-12993.25,-1176.3,-26649.0,896.325,-1333.3475,-1740.1825,2025-01-29 10:38:41,0.0
-12973.25,-1228.3,-26237.0,899.325,-1523.3475,-1935.1825,2025-01-29 10:38:41,0.0
-12953.25,-1308.3,-26121.0,957.325,-1595.3475,-1950.1825,2025-01-29 10:38:41,0.0
-12837.25,-1484.3,-25597.0,1066.325,-1352.3475,-2009.1825,2025-01-29 10:38:41,0.0
-12749.25,-1840.3,-25329.0,1213.325,-998.3475,-2051.1825,2025-01-29 10:38:41,0.0
-12809.25,-2128.3,-25117.0,1353.325,-507.34749999999997,-2083.1825,2025-01-29 10:38:41,0.0
-12765.25,-2540.3,-25017.0,1368.325,-145.3475,-2009.1825,2025-01-29 10:38:41,0.0
-13133.25,-3044.3,-25437.0,1492.325,129.6525,-1735.1825,2025-01-29 10:38:41,0.0
-13297.25,-3428.3,-25201.0,1555.325,578.6525,-1297.1825,2025-01-29 10:38:41,0.0
-13341.25,-3428.3,-25077.0,1585.325,804.6525,-955.1825,2025-01-29 10:38:41,0.0
-13685.25,-3480.3,-25053.0,1558.325,557.6525,-761.1825,2025-01-29 10:38:41,0.0
-14005.25,-3280.3,-25061.0,1533.325,260.65250000000003,-489.1825,2025-01-29 10:38:41,0.0
-13809.25,-3232.3,-25281.0,1287.325,-73.3475,-400.1825,2025-01-29 10:38:41,0.0
-13661.25,-3060.3,-25041.0,1085.325,-370.34749999999997,-524.1825,2025-01-29 10:38:41,0.0
-13641.25,-2596.3,-24809.0,924.325,-241.3475,-711.1825,2025-01-29 10:38:41,0.0
-13433.25,-2908.3,-24881.0,833.325,76.6525,-897.1825,2025-01-29 10:38:42,
-13449.25,-3368.3,-24685.0,886.325,369.65250000000003,-1007.1825,2025-01-29 10:38:42,0.0
-13409.25,-4104.3,-24513.0,992.325,787.6525,-933.1825,2025-01-29 10:38:42,0.0
-13401.25,-4280.3,-24445.0,1138.325,1012.6525,-806.1825,2025-01-29 10:38:42,0.0
-13517.25,-4132.3,-24829.0,1282.325,889.6525,-604.1825,2025-01-29 10:38:42,0.0
-13457.25,-3704.3,-24797.0,1175.325,620.6525,-369.1825,2025-01-29 10:38:42,0.0
-13189.25,-3292.3,-25089.0,980.325,569.6525,-262.1825,2025-01-29 10:38:42,0.0
-13017.25,-2932.3,-25017.0,761.325,791.6525,-248.1825,2025-01-29 10:38:42,0.0
-12977.25,-2864.3,-25085.0,444.325,977.6525,-229.1825,2025-01-29 10:38:42,0.0
-12933.25,-2844.3,-25397.0,120.32499999999999,1206.6525,-188.1825,2025-01-29 10:38:42,0.0
-12973.25,-3060.3,-25553.0,-143.675,1327.6525,-140.1825,2025-01-29 10:38:42,0.0
-13069.25,-3068.3,-25593.0,-403.675,1437.6525,-226.1825,2025-01-29 10:38:42,0.0
-13409.25,-2652.3,-25485.0,-696.675,1375.6525,-273.1825,2025-01-29 10:38:42,0.0
-13549.25,-2452.3,-25389.0,-1045.675,1161.6525,-468.1825,2025-01-29 10:38:42,0.0
-13801.25,-2220.3,-25477.0,-1374.675,883.6525,-683.1825,2025-01-29 10:38:42,0.0
-13733.25,-2372.3,-25697.0,-1672.675,839.6525,-997.1825,2025-01-29 10:38:42,0.0
-13821.25,-2384.3,-25789.0,-1939.675,705.6525,-1276.1825,2025-01-29 10:38:42,0.0
-13717.25,-2392.3,-25597.0,-2235.675,435.65250000000003,-1622.1825,2025-01-29 10:38:42,0.0
-13725.25,-2376.3,-25209.0,-2667.675,213.6525,-1870.1825,2025-01-29 10:38:42,0.0
-13709.25,-2368.3,-25045.0,-2968.675,106.6525,-1985.1825,2025-01-29 10:38:42,0.0
-13497.25,-2472.3,-24833.0,-3222.675,101.6525,-2227.1825,2025-01-29 10:38:42,0.0
-13565.25,-2368.3,-24801.0,-3476.675,130.6525,-2453.1825,2025-01-29 10:38:42,0.0
-13809.25,-2660.3,-24821.0,-3702.675,-41.3475,-2502.1825,2025-01-29 10:38:42,0.0
-13845.25,-2988.3,-25025.0,-3921.675,-14.347499999999997,-2505.1825,2025-01-29 10:38:42,0.0
-14057.25,-3480.3,-25213.0,-4276.675,181.6525,-2559.1825,2025-01-29 10:38:42,0.0
-14149.25,-3960.3,-25361.0,-4445.675,416.65250000000003,-2736.1825,2025-01-29 10:38:42,0.0
-14065.25,-4176.3,-25801.0,-4441.675,470.65250000000003,-3054.1825,2025-01-29 10:38:42,0.0
-14221.25,-3972.3,-26041.0,-4087.675,364.65250000000003,-3428.1825,2025-01-29 10:38:42,0.0
-14621.25,-4164.3,-26125.0,-3765.675,210.6525,-3472.1825,2025-01-29 10:38:42,0.0
-14669.25,-4628.3,-26089.0,-3500.675,-209.3475,-3290.1825,2025-01-29 10:38:42,0.0
-14669.25,-5288.3,-26353.0,-3069.675,-568.3475,-2945.1825,2025-01-29 10:38:42,0.0
-14945.25,-5788.3,-26677.0,-2937.675,-497.34749999999997,-2152.1825,2025-01-29 10:38:42,0.0
-15013.25,-5680.3,-26689.0,-2942.675,-413.34749999999997,-1140.1825,2025-01-29 10:38:42,0.0
-14813.25,-5456.3,-26153.0,-2676.675,-741.3475,-241.1825,2025-01-29 10:38:42,0.0
-14765.25,-5032.3,-25789.0,-2195.675,-967.3475,463.8175,2025-01-29 10:38:42,0.0
-14845.25,-4292.3,-26101.0,-1700.675,-773.3475,1088.8175,2025-01-29 10:38:42,0.0
-14933.25,-3948.3,-26533.0,-1297.675,-1076.3475,1899.8175,2025-01-29 10:38:42,0.0
-14705.25,-3744.3,-26209.0,-984.675,-2141.3475,2709.8175,2025-01-29 10:38:42,0.0
-14121.25,-3728.3,-25409.0,-684.675,-2940.3475,3320.8175,2025-01-29 10:38:42,0.0
-13069.25,-4064.3,-24573.0,-189.675,-3129.3475,3655.8175,2025-01-29 10:38:42,0.0
-12101.25,-3936.3,-24861.0,295.325,-2982.3475,3773.8175,2025-01-29 10:38:42,0.0
-11097.25,-2712.3,-25733.0,679.325,-2316.3475,3778.8175,2025-01-29 10:38:42,0.0
-10561.25,-1252.3,-27037.0,797.325,-1104.3475,3910.8175,2025-01-29 10:38:42,0.0
-10413.25,527.7,-28421.0,392.325,642.6525,3905.8175,2025-01-29 10:38:42,0.0
-10565.25,1583.7,-28309.0,-29.67500000000001,2108.6525,3554.8175,2025-01-29 10:38:42,0.0
-11729.25,1803.7,-27585.0,-123.67500000000001,2799.6525,3049.8175,2025-01-29 10:38:42,0.0
-12833.25,1287.7,-26981.0,-18.67500000000001,2817.6525,3015.8175,2025-01-29 10:38:42,0.0
-13141.25,-84.30000000000001,-26733.0,-59.67500000000001,2740.6525,3130.8175,2025-01-29 10:38:42,0.0
-13625.25,-1728.3,-25349.0,249.325,3064.6525,3293.8175,2025-01-29 10:38:42,0.0
-13957.25,-3068.3,-24533.0,793.325,3097.6525,3551.8175,2025-01-29 10:38:42,0.0
-14533.25,-3152.3,-25009.0,1669.325,2746.6525,4071.8175,2025-01-29 10:38:42,0.0
-14437.25,-1972.3,-26157.0,2436.325,1910.6525,4757.8175,2025-01-29 10:38:42,0.0
-13973.25,-416.3,-27417.0,2668.325,1029.6525,5044.8175,2025-01-29 10:38:42,0.0
-13849.25,1243.7,-27669.0,2809.325,270.65250000000003,5126.8175,2025-01-29 10:38:42,0.0
-12993.25,2543.7,-28329.0,2600.325,-666.3475,4991.8175,2025-01-29 10:38:42,0.0
-11813.25,2979.7,-28053.0,1786.325,-1458.3475,4421.8175,2025-01-29 10:38:42,0.0
-10953.25,2639.7,-27525.0,1007.325,-1823.3475,3811.8175,2025-01-29 10:38:42,0.0
-9949.25,2223.7,-26693.0,329.325,-1984.3475,3188.8175,2025-01-29 10:38:42,0.0
-9477.25,2007.7,-26781.0,-188.675,-1700.3475,2570.8175,2025-01-29 10:38:42,0.0
-9645.25,1815.7,-26689.0,-494.675,-876.3475,2017.8175,2025-01-29 10:38:42,0.0
-10589.25,1455.7,-26453.0,-624.675,52.6525,1519.8175,2025-01-29 10:38:43,0.0
-11829.25,475.7,-25961.0,-517.675,150.6525,1083.8175,2025-01-29 10:38:43,0.0
-12973.25,-688.3,-25137.0,-289.675,-813.3475,983.8175,2025-01-29 10:38:43,0.0
-13005.25,-512.3,-25257.0,79.32499999999999,-1405.3475,990.8175,2025-01-29 10:38:43,0.0
-12941.25,419.7,-25297.0,131.325,-1470.3475,832.8175,2025-01-29 10:38:43,0.0
-13333.25,1215.7,-25753.0,-27.67500000000001,-1206.3475,892.8175,2025-01-29 10:38:43,0.0
-13149.25,983.7,-25525.0,-95.67500000000001,-1036.3475,600.8175,2025-01-29 10:38:43,0.0
-13717.25,967.7,-25569.0,-83.67500000000001,-1458.3475,-95.1825,2025-01-29 10:38:43,0.0
-14049.25,1515.7,-25589.0,-39.67500000000001,-2836.3475,-792.1825,2025-01-29 10:38:43,0.0
-14237.25,1911.7,-24901.0,26.32499999999999,-4185.3475,-1218.1825,2025-01-29 10:38:43,0.0
-14045.25,1751.7,-24381.0,91.32499999999999,-5552.3475,-1328.1825,2025-01-29 10:38:43,0.0
-13421.25,1247.7,-23525.0,270.325,-6242.3475,-1218.1825,2025-01-29 10:38:43,0.0
-12505.25,831.7,-23225.0,834.325,-5581.3475,-1061.1825,2025-01-29 10:38:43,0.0
-11641.25,499.7,-23565.0,1503.325,-3359.3475,-1091.1825,2025-01-29 10:38:43,0.0
-11569.25,267.7,-24289.0,1894.325,126.6525,-1196.1825,2025-01-29 10:38:43,0.0
-12277.25,-124.30000000000001,-25401.0,2229.325,3525.6525,-1266.1825,2025-01-29 10:38:43,0.0
-14569.25,691.7,-26617.0,2489.325,4926.6525,-1316.1825,2025-01-29 10:38:43,0.0
-17825.25,2027.7,-26233.0,2038.325,3608.6525,-472.1825,2025-01-29 10:38:43,0.0
-19841.25,1847.7,-24661.0,1771.325,590.6525,670.8175,2025-01-29 10:38:43,0.0
-19593.25,375.7,-24005.0,2029.325,-1880.3475,1464.8175,2025-01-29 10:38:43,0.0
-17997.25,-2536.3,-22753.0,3009.325,-3097.3475,1601.8175,2025-01-29 10:38:43,0.0
-15733.25,-2352.3,-23437.0,4764.325,-3612.3475,1567.8175,2025-01-29 10:38:43,0.0
-13801.25,-320.3,-25997.0,5330.325,-2582.3475,1304.8175,2025-01-29 10:38:43,0.0
-13077.25,1655.7,-27477.0,4894.325,-647.3475,807.8175,2025-01-29 10:38:43,0.0
-13169.25,2899.7,-29605.0,3696.325,910.6525,513.8175,2025-01-29 10:38:43,0.0
-13629.25,3859.7,-30633.0,1372.325,1406.6525,352.8175,2025-01-29 10:38:43,0.0
-13697.25,3483.7,-29433.0,-590.675,1268.6525,285.8175,2025-01-29 10:38:43,0.0
-12909.25,1431.7,-27061.0,-1182.675,204.6525,-95.1825,2025-01-29 10:38:43,0.0
-12057.25,-632.3,-25549.0,-331.675,-1332.3475,-762.1825,2025-01-29 10:38:43,0.0
-11093.25,-2132.3,-25989.0,552.325,-2447.3475,-1272.1825,2025-01-29 10:38:43,0.0
-10245.25,-3404.3,-26309.0,1137.325,-2923.3475,-1528.1825,2025-01-29 10:38:43,0.0
-10529.25,-3972.3,-26445.0,1665.325,-1391.3475,-1101.1825,2025-01-29 10:38:43,0.0
-11181.25,-3676.3,-26097.0,2037.325,1505.6525,-267.1825,2025-01-29 10:38:43,0.0
-11273.25,-2680.3,-26425.0,2329.325,2985.6525,83.8175,2025-01-29 10:38:43,0.0
-12161.25,-1488.3,-26421.0,2232.325,2567.6525,-227.1825,2025-01-29 10:38:43,0.0
-13273.25,-872.3,-26865.0,2001.325,1853.6525,-553.1825,2025-01-29 10:38:43,0.0
-13885.25,-364.3,-26685.0,1691.325,973.6525,-684.1825,2025-01-29 10:38:43,0.0
-13641.25,-452.3,-26717.0,1343.325,-312.34749999999997,-961.1825,2025-01-29 10:38:43,0.0
-13073.25,-896.3,-27177.0,955.325,-1130.3475,-1609.1825,2025-01-29 10:38:43,0.0
-12785.25,-1624.3,-26861.0,721.325,-1214.3475,-2011.1825,2025-01-29 10:38:43,0.0
-12393.25,-1764.3,-26417.0,672.325,-788.3475,-2105.1825,2025-01-29 10:38:43,
-11997.25,-1412.3,-25841.0,412.325,-207.3475,-2226.1825,2025-01-29 10:38:43,0.0
-11949.25,-1656.3,-25869.0,56.32499999999999,486.65250000000003,-2425.1825,2025-01-29 10:38:43,0.0
-12149.25,-1828.3,-25213.0,-284.675,829.6525,-2856.1825,2025-01-29 10:38:43,0.0
-12281.25,-2160.3,-25133.0,-479.675,1267.6525,-3473.1825,2025-01-29 10:38:43,0.0
-12833.25,-2360.3,-25537.0,-620.675,1394.6525,-3594.1825,2025-01-29 10:38:43,0.0
-12957.25,-2468.3,-25529.0,-835.675,1424.6525,-3737.1825,2025-01-29 10:38:43,0.0
-13057.25,-2396.3,-25429.0,-952.675,1083.6525,-3803.1825,2025-01-29 10:38:43,0.0
-13337.25,-2068.3,-25317.0,-1180.675,903.6525,-3713.1825,2025-01-29 10:38:43,0.0
-13169.25,-1772.3,-25493.0,-1542.675,641.6525,-3568.1825,2025-01-29 10:38:43,0.0
-13069.25,-1388.3,-25489.0,-2131.675,586.6525,-3325.1825,2025-01-29 10:38:43,0.0
-12817.25,-1616.3,-25465.0,-2826.675,757.6525,-3137.1825,2025-01-29 10:38:43,0.0
-12709.25,-1896.3,-25301.0,-3275.675,916.6525,-2968.1825,2025-01-29 10:38:43,0.0
-12665.25,-2236.3,-25569.0,-3656.675,1077.6525,-2677.1825,2025-01-29 10:38:43,0.0
-12549.25,-2140.3,-25593.0,-3952.675,1322.6525,-2357.1825,2025-01-29 10:38:43,0.0
-12621.25,-1776.3,-25393.0,-4239.675,1577.6525,-2271.1825,2025-01-29 10:38:43,0.0
-13029.25,-1684.3,-25349.0,-4482.675,1948.6525,-2402.1825,2025-01-29 10:38:43,0.0
-13541.25,-2300.3,-25021.0,-4509.675,2215.6525,-2463.1825,2025-01-29 10:38:43,0.0
-13609.25,-3084.3,-24769.0,-4244.675,2122.6525,-2604.1825,2025-01-29 10:38:43,0.0
-13949.25,-3708.3,-25113.0,-3993.675,1695.6525,-2809.1825,2025-01-29 10:38:43,0.0
-14017.25,-3808.3,-25617.0,-3722.675,990.6525,-2775.1825,2025-01-29 10:38:43,0.0
-13893.25,-3204.3,-25777.0,-3484.675,504.65250000000003,-2706.1825,2025-01-29 10:38:43,0.0
-13541.25,-2056.3,-25853.0,-3654.675,421.65250000000003,-2897.1825,2025-01-29 10:38:44,0.0
-13417.25,-1336.3,-26133.0,-4164.675,512.6525,-3077.1825,2025-01-29 10:38:44,0.0
-12889.25,-2136.3,-25453.0,-4369.675,1038.6525,-3246.1825,2025-01-29 10:38:44,0.0
-13001.25,-3340.3,-25305.0,-4418.675,1029.6525,-3714.1825,2025-01-29 10:38:44,0.0
-13281.25,-4096.3,-25337.0,-4274.675,985.6525,-3628.1825,2025-01-29 10:38:44,0.0
-13365.25,-3856.3,-25221.0,-4054.675,1032.6525,-3475.1825,2025-01-29 10:38:44,0.0
-13253.25,-3056.3,-25173.0,-4132.675,1418.6525,-3686.1825,2025-01-29 10:38:44,0.0
-13361.25,-3052.3,-25629.0,-3997.675,2032.6525,-4395.1825,2025-01-29 10:38:44,0.0
-14201.25,-3660.3,-27417.0,-3775.675,3106.6525,-5110.1825,2025-01-29 10:38:44,0.0
-15393.25,-4988.3,-27905.0,-3281.675,3936.6525,-5667.1825,2025-01-29 10:38:44,0.0
-17337.25,-6448.3,-27489.0,-2355.675,3537.6525,-5723.1825,2025-01-29 10:38:44,0.0
-18825.25,-6668.3,-26853.0,-915.675,459.65250000000003,-4551.1825,2025-01-29 10:38:44,0.0
-18965.25,-5760.3,-27721.0,-244.675,-3079.3475,-2427.1825,2025-01-29 10:38:44,0.0
-17045.25,-4132.3,-28421.0,-336.675,-4776.3475,-430.1825,2025-01-29 10:38:44,0.0
-14601.25,-2804.3,-28501.0,-699.675,-4827.3475,310.8175,2025-01-29 10:38:44,0.0
-13245.25,-1472.3,-28437.0,-1473.675,-4286.3475,949.8175,2025-01-29 10:38:44,0.0
-11737.25,-1444.3,-27993.0,-2829.675,-3062.3475,2129.8175,2025-01-29 10:38:44,0.0
-10417.25,-2212.3,-26953.0,-3440.675,-1952.3475,2325.8175,2025-01-29 10:38:44,0.0
-10761.25,-2968.3,-26709.0,-3092.675,-1636.3475,2381.8175,2025-01-29 10:38:44,0.0
-10709.25,-2872.3,-27445.0,-2248.675,-1809.3475,2317.8175,2025-01-29 10:38:44,0.0
-10797.25,-1364.3,-27449.0,-1148.675,-2942.3475,2142.8175,2025-01-29 10:38:44,0.0
-10301.25,239.7,-28597.0,-841.675,-3942.3475,2175.8175,2025-01-29 10:38:44,0.0
-9445.25,1251.7,-29941.0,-1666.675,-3696.3475,2286.8175,2025-01-29 10:38:44,0.0
-9401.25,2043.7,-29485.0,-2766.675,-2274.3475,2491.8175,2025-01-29 10:38:44,0.0
-9885.25,1839.7,-28217.0,-3865.675,-94.3475,2451.8175,2025-01-29 10:38:44,0.0
-11277.25,1119.7,-26789.0,-4691.675,1473.6525,2310.8175,2025-01-29 10:38:44,0.0
-12549.25,15.699999999999989,-26169.0,-4889.675,1014.6525,2205.8175,2025-01-29 10:38:44,0.0
-13689.25,-736.3,-25821.0,-4579.675,58.6525,1900.8175,2025-01-29 10:38:44,0.0
-14681.25,-1428.3,-25409.0,-3598.675,-807.3475,1502.8175,2025-01-29 10:38:44,0.0
-15125.25,-1500.3,-25357.0,-2526.675,-1485.3475,1247.8175,2025-01-29 10:38:44,0.0
-14781.25,-1376.3,-26137.0,-1404.675,-2408.3475,983.8175,2025-01-29 10:38:44,0.0
-14905.25,-460.3,-26033.0,-509.675,-3243.3475,976.8175,2025-01-29 10:38:44,0.0
-14385.25,447.7,-25653.0,-191.675,-3898.3475,1135.8175,2025-01-29 10:38:44,0.0
-13289.25,1099.7,-25433.0,-183.675,-3866.3475,1474.8175,2025-01-29 10:38:44,0.0
-12437.25,915.7,-25273.0,-442.675,-3063.3475,1874.8175,2025-01-29 10:38:44,0.0
-11681.25,475.7,-25173.0,-707.675,-1680.3475,2118.8175,2025-01-29 10:38:44,0.0
-11673.25,59.69999999999999,-24789.0,-662.675,-183.3475,1998.8175,2025-01-29 10:38:44,0.0
-12697.25,-176.3,-24953.0,-95.67500000000001,563.6525,1709.8175,2025-01-29 10:38:44,0.0
-13457.25,-56.30000000000001,-24877.0,377.325,68.6525,1637.8175,2025-01-29 10:38:44,0.0
-13937.25,139.7,-24757.0,726.325,-773.3475,1592.8175,2025-01-29 10:38:44,0.0
-13897.25,387.7,-24637.0,1109.325,-1957.3475,1460.8175,2025-01-29 10:38:44,0.0
-13533.25,415.7,-24325.0,1551.325,-3049.3475,1338.8175,2025-01-29 10:38:44,0.0
-12765.25,219.7,-23725.0,2018.325,-3499.3475,1199.8175,2025-01-29 10:38:44,0.0
-12145.25,115.69999999999999,-22985.0,2501.325,-3279.3475,1144.8175,2025-01-29 10:38:44,0.0
-11489.25,-280.3,-22885.0,3077.325,-2252.3475,920.8175,2025-01-29 10:38:44,0.0
-11425.25,359.7,-22821.0,3500.325,-1036.3475,371.8175,2025-01-29 10:38:44,0.0
-12217.25,1187.7,-22877.0,3815.325,-336.34749999999997,-214.1825,2025-01-29 10:38:44,0.0
-12669.25,1971.7,-23497.0,3904.325,-254.3475,-635.1825,2025-01-29 10:38:44,0.0
-12973.25,2483.7,-23861.0,3784.325,-323.34749999999997,-882.1825,2025-01-29 10:38:44,0.0
-13281.25,2255.7,-23813.0,3416.325,69.6525,-973.1825,2025-01-29 10:38:44,0.0
-13765.25,1263.7,-23717.0,3171.325,712.6525,-901.1825,2025-01-29 10:38:44,0.0
-14669.25,-52.30000000000001,-23785.0,3147.325,1664.6525,-562.1825,2025-01-29 10:38:44,0.0
-15705.25,-540.3,-24001.0,3289.325,2438.6525,-251.1825,2025-01-29 10:38:44,0.0
-16829.25,-132.3,-25361.0,3650.325,2684.6525,458.8175,2025-01-29 10:38:44,0.0
-17041.25,943.7,-25517.0,3504.325,2270.6525,1028.8175,2025-01-29 10:38:44,0.0
-16485.25,1895.7,-24277.0,3098.325,617.6525,1079.8175,2025-01-29 10:38:44,0.0
-16301.25,2111.7,-24421.0,2771.325,9.652500000000003,940.8175,2025-01-29 10:38:44,0.0
-16393.25,639.7,-25541.0,2100.325,2057.6525,930.8175,2025-01-29 10:38:44,0.0
-16897.25,-148.3,-25965.0,1734.325,3409.6525,1002.8175,2025-01-29 10:38:44,0.0
-17429.25,-300.3,-27377.0,1295.325,2809.6525,1135.8175,2025-01-29 10:38:44,0.0
-17305.25,767.7,-28317.0,411.325,1501.6525,1600.8175,2025-01-29 10:38:45,0.0
-15625.25,1883.7,-27649.0,-358.675,113.6525,1467.8175,2025-01-29 10:38:45,0.0
-14457.25,2027.7,-28025.0,-775.675,-652.3475,712.8175,2025-01-29 10:38:45,0.0
-13413.25,655.7,-29465.0,-1212.675,-393.34749999999997,-258.1825,2025-01-29 10:38:45,0.0
-13297.25,-128.3,-29153.0,-1388.675,111.6525,-405.1825,2025-01-29 10:38:45,0.0
-11873.25,-764.3,-28861.0,-1395.675,-397.34749999999997,-354.1825,2025-01-29 10:38:45,0.0
-10449.25,-1180.3,-27497.0,-984.675,-1116.3475,-624.1825,2025-01-29 10:38:45,0.0
-9029.25,-1692.3,-26733.0,-436.675,-1024.3475,-1174.1825,2025-01-29 10:38:45,0.0
-8665.25,-2216.3,-26785.0,-74.67500000000001,244.6525,-1769.1825,2025-01-29 10:38:45,0.0
-9289.25,-2616.3,-27373.0,109.32499999999999,2422.6525,-2104.1825,2025-01-29 10:38:45,0.0
-10281.25,-2376.3,-27677.0,292.325,4087.6525,-2241.1825,2025-01-29 10:38:45,0.0
-11529.25,-1652.3,-27561.0,301.325,4472.6525,-2447.1825,2025-01-29 10:38:45,0.0
-12489.25,-1308.3,-27505.0,144.325,3548.6525,-2684.1825,2025-01-29 10:38:45,0.0
-13365.25,-1128.3,-27025.0,-5.675000000000011,2254.6525,-2973.1825,2025-01-29 10:38:45,0.0
-13909.25,-1596.3,-27009.0,-168.675,994.6525,-2963.1825,2025-01-29 10:38:45,0.0
-13797.25,-1920.3,-26589.0,-23.67500000000001,39.6525,-2638.1825,2025-01-29 10:38:45,0.0
-12449.25,-2392.3,-26913.0,174.325,-767.3475,-2575.1825,2025-01-29 10:38:45,0.0
-12281.25,-2516.3,-26537.0,402.325,-769.3475,-2633.1825,2025-01-29 10:38:45,0.0
-11981.25,-2324.3,-26353.0,502.325,-538.3475,-2492.1825,2025-01-29 10:38:45,
-12257.25,-2160.3,-25901.0,404.325,-104.3475,-2240.1825,2025-01-29 10:38:45,0.0
-12377.25,-2068.3,-25665.0,238.325,598.6525,-2066.1825,2025-01-29 10:38:45,0.0
-12857.25,-2004.3,-25765.0,138.325,1074.6525,-1896.1825,2025-01-29 10:38:45,0.0
-13089.25,-2060.3,-25589.0,196.325,890.6525,-1832.1825,2025-01-29 10:38:45,0.0
-13245.25,-2024.3,-25577.0,382.325,349.65250000000003,-1809.1825,2025-01-29 10:38:45,0.0
-13273.25,-2016.3,-25469.0,495.325,69.6525,-1661.1825,2025-01-29 10:38:45,0.0
-13017.25,-2044.3,-25389.0,534.325,15.652500000000003,-1401.1825,2025-01-29 10:38:45,0.0
-12605.25,-1752.3,-25401.0,489.325,16.652500000000003,-1182.1825,2025-01-29 10:38:45,0.0
-12433.25,-1908.3,-25249.0,338.325,320.65250000000003,-1049.1825,2025-01-29 10:38:45,0.0
-12449.25,-2148.3,-25457.0,97.32499999999999,897.6525,-915.1825,2025-01-29 10:38:45,0.0
-13069.25,-2076.3,-25365.0,-128.675,1122.6525,-671.1825,2025-01-29 10:38:45,0.0
-13173.25,-1844.3,-25601.0,-390.675,1066.6525,-387.1825,2025-01-29 10:38:45,0.0
-13433.25,-1616.3,-25433.0,-707.675,732.6525,-83.1825,2025-01-29 10:38:45,0.0
-13489.25,-1768.3,-25433.0,-986.675,212.6525,290.8175,2025-01-29 10:38:45,0.0
-13309.25,-1960.3,-25229.0,-1207.675,144.6525,448.8175,2025-01-29 10:38:45,0.0
-13453.25,-2056.3,-24885.0,-1360.675,253.6525,538.8175,2025-01-29 10:38:45,0.0
-13493.25,-2048.3,-25221.0,-1556.675,374.65250000000003,656.8175,2025-01-29 10:38:45,0.0
-13645.25,-1980.3,-25421.0,-1694.675,229.6525,717.8175,2025-01-29 10:38:45,0.0
-13721.25,-1984.3,-25397.0,-1842.675,-74.3475,729.8175,2025-01-29 10:38:45,0.0
-13437.25,-2160.3,-25453.0,-1822.675,-308.34749999999997,628.8175,2025-01-29 10:38:45,0.0
-13197.25,-2320.3,-25685.0,-1886.675,-421.34749999999997,339.8175,2025-01-29 10:38:45,0.0
-13121.25,-1420.3,-25417.0,-2141.675,-158.3475,109.8175,2025-01-29 10:38:45,0.0
-12929.25,-444.3,-25281.0,-2509.675,297.65250000000003,-432.1825,2025-01-29 10:38:45,0.0
-12741.25,535.7,-25737.0,-2995.675,622.6525,-1220.1825,2025-01-29 10:38:45,0.0
-12801.25,927.7,-26385.0,-3679.675,688.6525,-2073.1825,2025-01-29 10:38:45,0.0
-13253.25,-488.3,-25701.0,-4371.675,1005.6525,-3044.1825,2025-01-29 10:38:45,0.0
-13445.25,-1480.3,-25461.0,-4486.675,1014.6525,-3849.1825,2025-01-29 10:38:45,0.0
-14825.25,-1620.3,-25065.0,-4751.675,841.6525,-4239.1825,2025-01-29 10:38:45,0.0
-14737.25,-2152.3,-25397.0,-4598.675,643.6525,-4336.1825,2025-01-29 10:38:45,0.0
-14253.25,-2792.3,-26169.0,-4159.675,667.6525,-4723.1825,2025-01-29 10:38:45,0.0
-13945.25,-3808.3,-26301.0,-3059.675,1072.6525,-5219.1825,2025-01-29 10:38:45,0.0
-14341.25,-4936.3,-26553.0,-1781.675,1173.6525,-5388.1825,2025-01-29 10:38:45,0.0
-15465.25,-5872.3,-26705.0,-708.675,1468.6525,-4834.1825,2025-01-29 10:38:45,0.0
-16413.25,-6232.3,-26345.0,333.325,832.6525,-3648.1825,2025-01-29 10:38:45,0.0
-17133.25,-5996.3,-26237.0,1517.325,-730.3475,-1469.1825,2025-01-29 10:38:45,0.0
-16613.25,-5516.3,-27061.0,2127.325,-1620.3475,592.8175,2025-01-29 10:38:45,0.0
-15533.25,-5132.3,-27669.0,2428.325,-1834.3475,1851.8175,2025-01-29 10:38:45,0.0
-14849.25,-4568.3,-28133.0,2648.325,-1744.3475,2766.8175,2025-01-29 10:38:45,0.0
-13653.25,-3436.3,-28397.0,2582.325,-2129.3475,3592.8175,2025-01-29 10:38:45,0.0
-12957.25,-2292.3,-28793.0,2298.325,-2398.3475,4034.8175,2025-01-29 10:38:45,0.0
-11773.25,-1656.3,-29037.0,1885.325,-2370.3475,4405.8175,2025-01-29 10:38:45,0.0
-10269.25,-592.3,-29225.0,1437.325,-2247.3475,4609.8175,2025-01-29 10:38:46,0.0
-8409.25,431.7,-29505.0,820.325,-1963.3475,4512.8175,2025-01-29 10:38:46,0.0
-7425.25,1391.7,-28341.0,202.325,-1018.3475,3796.8175,2025-01-29 10:38:46,0.0
-7125.25,1831.7,-27449.0,-265.675,616.6525,2448.8175,2025-01-29 10:38:46,0.0
-8213.25,1775.7,-27209.0,-762.675,2753.6525,965.8175,2025-01-29 10:38:46,0.0
-10817.25,1011.7,-27357.0,-1102.675,4466.6525,27.817499999999995,2025-01-29 10:38:46,0.0
-13237.25,291.7,-27745.0,-1267.675,5035.6525,-17.182500000000005,2025-01-29 10:38:46,0.0
-14997.25,-548.3,-28349.0,-1690.675,4140.6525,131.8175,2025-01-29 10:38:46,0.0
-16493.25,-892.3,-27845.0,-1928.675,1799.6525,664.8175,2025-01-29 10:38:46,0.0
-16769.25,-1272.3,-27561.0,-2023.675,-1481.3475,1671.8175,2025-01-29 10:38:46,0.0
-15169.25,-1248.3,-27725.0,-1718.675,-3894.3475,2360.8175,2025-01-29 10:38:46,0.0
-13341.25,-1024.3,-26709.0,-1538.675,-4979.3475,2466.8175,2025-01-29 10:38:46,0.0
-11697.25,-812.3,-26161.0,-1111.675,-5038.3475,2338.8175,2025-01-29 10:38:46,0.0
-10421.25,-800.3,-24885.0,-757.675,-4142.3475,1915.8175,2025-01-29 10:38:46,0.0
-10109.25,-792.3,-23993.0,-346.675,-2540.3475,1388.8175,2025-01-29 10:38:46,0.0
-10525.25,-428.3,-24045.0,54.32499999999999,-419.34749999999997,1410.8175,2025-01-29 10:38:46,0.0
-11025.25,259.7,-24941.0,206.325,1444.6525,1365.8175,2025-01-29 10:38:46,0.0
-12049.25,747.7,-25221.0,196.325,2162.6525,1108.8175,2025-01-29 10:38:46,0.0
-13117.25,1023.7,-25137.0,118.32499999999999,1821.6525,905.8175,2025-01-29 10:38:46,0.0
-13341.25,1115.7,-25281.0,190.325,759.6525,675.8175,2025-01-29 10:38:46,0.0
-13013.25,1107.7,-24853.0,327.325,-559.3475,273.8175,2025-01-29 10:38:46,0.0
-12241.25,879.7,-24117.0,575.325,-1482.3475,-377.1825,2025-01-29 10:38:46,0.0
-10945.25,395.7,-23849.0,944.325,-1469.3475,-1160.1825,2025-01-29 10:38:46,0.0
-10213.25,539.7,-24209.0,1259.325,-687.3475,-1722.1825,2025-01-29 10:38:46,0.0
-10309.25,811.7,-24889.0,1460.325,1141.6525,-2307.1825,2025-01-29 10:38:46,0.0
-11737.25,819.7,-25921.0,1347.325,2669.6525,-2622.1825,2025-01-29 10:38:46,0.0
-14093.25,-120.30000000000001,-25705.0,1154.325,3192.6525,-2463.1825,2025-01-29 10:38:46,0.0
-14857.25,-1028.3,-26169.0,1477.325,2337.6525,-2055.1825,2025-01-29 10:38:46,0.0
-15737.25,-1344.3,-26457.0,2000.325,1393.6525,-1611.1825,2025-01-29 10:38:46,0.0
-16617.25,-1440.3,-25717.0,2585.325,422.65250000000003,-955.1825,2025-01-29 10:38:46,0.0
-17081.25,-1824.3,-24561.0,2828.325,-837.3475,-128.1825,2025-01-29 10:38:46,0.0
-16489.25,-1928.3,-24437.0,3142.325,-1697.3475,639.8175,2025-01-29 10:38:46,0.0
-15197.25,-1592.3,-25261.0,3277.325,-2001.3475,1182.8175,2025-01-29 10:38:46,0.0
-14133.25,-1084.3,-25029.0,3430.325,-1560.3475,1513.8175,2025-01-29 10:38:46,0.0
-14017.25,-400.3,-24133.0,3842.325,-412.34749999999997,1871.8175,2025-01-29 10:38:46,0.0
-15029.25,-644.3,-24841.0,4010.325,1095.6525,2318.8175,2025-01-29 10:38:46,0.0
-15769.25,-1728.3,-26037.0,4206.325,1889.6525,3249.8175,2025-01-29 10:38:46,0.0
-15645.25,-1648.3,-26777.0,4146.325,1395.6525,3488.8175,2025-01-29 10:38:46,0.0
-15361.25,-344.3,-28113.0,3957.325,426.65250000000003,3727.8175,2025-01-29 10:38:46,0.0
-14773.25,1555.7,-28833.0,3487.325,385.65250000000003,3542.8175,2025-01-29 10:38:46,0.0
-14417.25,2587.7,-29349.0,2889.325,647.6525,2773.8175,2025-01-29 10:38:46,0.0
-14273.25,2443.7,-30297.0,2151.325,372.65250000000003,1732.8175,2025-01-29 10:38:46,0.0
-14949.25,935.7,-29633.0,1262.325,276.65250000000003,850.8175,2025-01-29 10:38:46,0.0
-14605.25,279.7,-28373.0,973.325,-441.34749999999997,672.8175,2025-01-29 10:38:46,0.0
-13649.25,155.7,-27373.0,1074.325,-1871.3475,-33.182500000000005,2025-01-29 10:38:46,0.0
-13045.25,195.7,-26981.0,1372.325,-3475.3475,-860.1825,2025-01-29 10:38:46,0.0
-12321.25,55.69999999999999,-26677.0,1515.325,-4540.3475,-1116.1825,2025-01-29 10:38:46,0.0
-10789.25,-664.3,-26721.0,1381.325,-5535.3475,-1426.1825,2025-01-29 10:38:46,0.0
-10033.25,-1512.3,-25949.0,1165.325,-5561.3475,-1656.1825,2025-01-29 10:38:46,0.0
-9325.25,-2960.3,-25185.0,1194.325,-4080.3475,-1387.1825,2025-01-29 10:38:46,0.0
-9029.25,-3924.3,-25485.0,1361.325,-1133.3475,-1102.1825,2025-01-29 10:38:46,0.0
-9509.25,-4152.3,-26529.0,1416.325,1426.6525,-899.1825,2025-01-29 10:38:46,0.0
-10181.25,-3516.3,-27337.0,1504.325,2645.6525,-893.1825,2025-01-29 10:38:46,0.0
-11457.25,-2868.3,-27481.0,1600.325,3630.6525,-932.1825,2025-01-29 10:38:46,0.0
-12689.25,-2020.3,-26973.0,1722.325,3850.6525,-1182.1825,2025-01-29 10:38:46,0.0
-13821.25,-1500.3,-27665.0,1450.325,2650.6525,-1694.1825,2025-01-29 10:38:46,0.0
-14633.25,-1396.3,-27665.0,1109.325,476.65250000000003,-2131.1825,2025-01-29 10:38:46,0.0
-14325.25,-1840.3,-27513.0,998.325,-1118.3475,-2345.1825,2025-01-29 10:38:46,0.0
-13081.25,-2344.3,-27337.0,797.325,-2115.3475,-2657.1825,2025-01-29 10:38:46,
-12097.25,-2464.3,-26985.0,601.325,-2624.3475,-2942.1825,2025-01-29 10:38:46,0.0
-11365.25,-2240.3,-26425.0,229.325,-2405.3475,-2791.1825,2025-01-29 10:38:46,0.0
-10565.25,-2088.3,-26341.0,-364.675,-1250.3475,-2854.1825,2025-01-29 10:38:47,0.0
-10689.25,-2324.3,-26241.0,-902.675,204.6525,-2923.1825,2025-01-29 10:38:47,0.0
-11209.25,-2684.3,-26073.0,-1243.675,1451.6525,-2911.1825,2025-01-29 10:38:47,0.0
-12153.25,-3364.3,-25665.0,-1559.675,2072.6525,-2995.1825,2025-01-29 10:38:47,0.0
-13445.25,-4304.3,-25485.0,-1470.675,1561.6525,-2797.1825,2025-01-29 10:38:47,0.0
-14237.25,-4892.3,-25537.0,-1292.675,647.6525,-2087.1825,2025-01-29 10:38:47,0.0
-14245.25,-4824.3,-25429.0,-1152.675,-294.34749999999997,-1302.1825,2025-01-29 10:38:47,0.0
-13681.25,-4348.3,-25749.0,-1102.675,-818.3475,-822.1825,2025-01-29 10:38:47,0.0
-13033.25,-3436.3,-26029.0,-1171.675,-964.3475,-640.1825,2025-01-29 10:38:47,0.0
-12661.25,-2512.3,-26209.0,-1338.675,-805.3475,-427.1825,2025-01-29 10:38:47,0.0
-12241.25,-2076.3,-25969.0,-1710.675,-158.3475,-424.1825,2025-01-29 10:38:47,0.0
-12389.25,-1976.3,-25565.0,-2025.675,565.6525,-666.1825,2025-01-29 10:38:47,0.0
-13129.25,-2304.3,-25445.0,-2197.675,1033.6525,-791.1825,2025-01-29 10:38:47,0.0
-13789.25,-2828.3,-25889.0,-2353.675,891.6525,-719.1825,2025-01-29 10:38:47,0.0
-14141.25,-3152.3,-25701.0,-2443.675,249.6525,-808.1825,2025-01-29 10:38:47,0.0
-14225.25,-3352.3,-25973.0,-2507.675,-414.34749999999997,-804.1825,2025-01-29 10:38:47,0.0
-14169.25,-3016.3,-25533.0,-2606.675,-1054.3475,-721.1825,2025-01-29 10:38:47,0.0
-13617.25,-2940.3,-25389.0,-2628.675,-1562.3475,-539.1825,2025-01-29 10:38:47,0.0
-12785.25,-3188.3,-25265.0,-2745.675,-1412.3475,-520.1825,2025-01-29 10:38:47,0.0
-12485.25,-3424.3,-24893.0,-2611.675,-666.3475,-559.1825,2025-01-29 10:38:47,0.0
-12609.25,-3240.3,-24933.0,-2415.675,166.6525,-434.1825,2025-01-29 10:38:47,0.0
-13157.25,-3252.3,-25205.0,-2417.675,800.6525,-470.1825,2025-01-29 10:38:47,0.0
-13701.25,-3088.3,-25533.0,-2358.675,745.6525,-394.1825,2025-01-29 10:38:47,0.0
-14101.25,-3068.3,-25513.0,-2364.675,263.65250000000003,-327.1825,2025-01-29 10:38:47,0.0
-14441.25,-3200.3,-25309.0,-2321.675,-362.34749999999997,-176.1825,2025-01-29 10:38:47,0.0
-14081.25,-3392.3,-25197.0,-2446.675,-823.3475,3.8174999999999955,2025-01-29 10:38:47,0.0
-14045.25,-3436.3,-25425.0,-2601.675,-792.3475,43.817499999999995,2025-01-29 10:38:47,0.0
-13985.25,-2736.3,-25553.0,-2640.675,-534.3475,125.8175,2025-01-29 10:38:47,0.0
-13681.25,-2508.3,-26005.0,-2613.675,-341.34749999999997,52.817499999999995,2025-01-29 10:38:47,0.0
-13645.25,-2808.3,-26201.0,-2689.675,-252.3475,11.817499999999995,2025-01-29 10:38:47,0.0
-13641.25,-3492.3,-26069.0,-2584.675,-356.34749999999997,405.8175,2025-01-29 10:38:47,0.0
-13253.25,-3612.3,-26865.0,-2417.675,-278.34749999999997,750.8175,2025-01-29 10:38:47,0.0
-13357.25,-3540.3,-27229.0,-2042.675,459.65250000000003,756.8175,2025-01-29 10:38:47,0.0
-15281.25,-2756.3,-27689.0,-1028.675,1338.6525,940.8175,2025-01-29 10:38:47,0.0
-15333.25,-2728.3,-28453.0,-1168.675,-628.3475,1569.8175,2025-01-29 10:38:47,0.0
-14153.25,-2452.3,-27945.0,-1040.675,-2620.3475,2099.8175,2025-01-29 10:38:47,0.0
-12253.25,-1576.3,-27345.0,-919.675,-3408.3475,2259.8175,2025-01-29 10:38:47,0.0
-10625.25,-248.3,-26729.0,-1023.675,-2747.3475,1954.8175,2025-01-29 10:38:47,0.0
-10069.25,847.7,-26633.0,-1288.675,-1091.3475,1520.8175,2025-01-29 10:38:47,0.0
-10137.25,1715.7,-26673.0,-1648.675,594.6525,1091.8175,2025-01-29 10:38:47,0.0
-10909.25,2135.7,-26869.0,-2047.675,2111.6525,421.8175,2025-01-29 10:38:47,0.0
-12185.25,1815.7,-26365.0,-2292.675,2271.6525,-169.1825,2025-01-29 10:38:47,0.0
-13325.25,1223.7,-25997.0,-2322.675,1760.6525,-390.1825,2025-01-29 10:38:47,0.0
-14393.25,731.7,-26137.0,-2238.675,1198.6525,-100.1825,2025-01-29 10:38:47,0.0
-14189.25,787.7,-26897.0,-2172.675,923.6525,174.8175,2025-01-29 10:38:47,0.0
-14145.25,1015.7,-27573.0,-2393.675,944.6525,188.8175,2025-01-29 10:38:47,0.0
-13485.25,907.7,-27513.0,-2969.675,157.6525,32.817499999999995,2025-01-29 10:38:47,0.0
-13077.25,955.7,-27021.0,-3277.675,-713.3475,-219.1825,2025-01-29 10:38:47,0.0
-12225.25,971.7,-26525.0,-3333.675,-1086.3475,-341.1825,2025-01-29 10:38:47,0.0
-11505.25,951.7,-26277.0,-3188.675,-785.3475,-566.1825,2025-01-29 10:38:47,0.0
-11269.25,767.7,-26105.0,-2959.675,269.65250000000003,-800.1825,2025-01-29 10:38:47,0.0
-11301.25,639.7,-26213.0,-2718.675,1121.6525,-958.1825,2025-01-29 10:38:47,0.0
-11801.25,811.7,-25969.0,-2453.675,1870.6525,-954.1825,2025-01-29 10:38:47,0.0
-12785.25,1099.7,-26285.0,-2268.675,2148.6525,-996.1825,2025-01-29 10:38:47,0.0
-13717.25,1055.7,-26241.0,-2157.675,1972.6525,-899.1825,2025-01-29 10:38:47,0.0
-14393.25,907.7,-26421.0,-2074.675,1377.6525,-824.1825,2025-01-29 10:38:47,0.0
-15009.25,251.7,-26257.0,-1875.675,106.6525,-741.1825,2025-01-29 10:38:47,0.0
-15261.25,-604.3,-25809.0,-1482.675,-971.3475,-416.1825,2025-01-29 10:38:47,0.0
-14261.25,-720.3,-25257.0,-953.675,-1780.3475,-187.1825,2025-01-29 10:38:47,0.0
-12981.25,-460.3,-24565.0,-200.675,-2315.3475,-205.1825,2025-01-29 10:38:47,0.0
-11981.25,-304.3,-23937.0,688.325,-2304.3475,-336.1825,2025-01-29 10:38:47,0.0
-11025.25,-376.3,-23453.0,1610.325,-1340.3475,-613.1825,2025-01-29 10:38:48,0.0
-10441.25,-272.3,-23549.0,2556.325,310.65250000000003,-1082.1825,2025-01-29 10:38:48,0.0
-11025.25,275.7,-24013.0,3171.325,2041.6525,-1486.1825,2025-01-29 10:38:48,0.0
-12001.25,219.7,-25053.0,3277.325,3347.6525,-1979.1825,2025-01-29 10:38:48,0.0
-13745.25,-148.3,-25953.0,3067.325,3923.6525,-2251.1825,2025-01-29 10:38:48,0.0
-15137.25,103.69999999999999,-27597.0,2679.325,3157.6525,-2137.1825,2025-01-29 10:38:48,0.0
-15657.25,315.7,-28461.0,2161.325,1487.6525,-1450.1825,2025-01-29 10:38:48,0.0
-14845.25,463.7,-29273.0,1352.325,-306.34749999999997,-718.1825,2025-01-29 10:38:48,0.0
-13873.25,-24.30000000000001,-28929.0,649.325,-1049.3475,-443.1825,2025-01-29 10:38:48,0.0
-12717.25,-964.3,-27901.0,347.325,-1458.3475,-62.182500000000005,2025-01-29 10:38:48,0.0
-11717.25,-1136.3,-26689.0,636.325,-1059.3475,113.8175,2025-01-29 10:38:48,0.0
-11181.25,-900.3,-26857.0,908.325,300.65250000000003,-83.1825,2025-01-29 10:38:48,0.0
-11457.25,-852.3,-27393.0,889.325,1524.6525,-310.1825,2025-01-29 10:38:48,0.0
-12589.25,-1004.3,-27445.0,574.325,1864.6525,-516.1825,2025-01-29 10:38:48,0.0
-13457.25,-1004.3,-27213.0,286.325,1077.6525,-464.1825,2025-01-29 10:38:48,0.0
-13725.25,-1124.3,-26913.0,8.324999999999989,-202.3475,-345.1825,2025-01-29 10:38:48,0.0
-13389.25,-1588.3,-26281.0,-21.67500000000001,-1112.3475,-301.1825,2025-01-29 10:38:48,0.0
-12705.25,-1700.3,-25981.0,252.325,-1038.3475,-157.1825,2025-01-29 10:38:48,0.0
-12009.25,-1816.3,-26337.0,422.325,-314.34749999999997,-143.1825,2025-01-29 10:38:48,0.0
-12065.25,-1668.3,-26405.0,600.325,748.6525,-206.1825,2025-01-29 10:38:48,0.0
-12229.25,-1452.3,-26569.0,799.325,1654.6525,-184.1825,2025-01-29 10:38:48,0.0
-12725.25,-1364.3,-27061.0,681.325,2044.6525,-284.1825,2025-01-29 10:38:48,0.0
-13509.25,-1560.3,-27597.0,478.325,1977.6525,-131.1825,2025-01-29 10:38:48,0.0
-13757.25,-1300.3,-27761.0,222.325,1369.6525,117.8175,2025-01-29 10:38:48,0.0
-13549.25,-952.3,-27385.0,7.324999999999989,279.65250000000003,176.8175,2025-01-29 10:38:48,0.0
-13213.25,-1092.3,-26669.0,-254.675,-542.3475,26.817499999999995,2025-01-29 10:38:48,0.0
-13105.25,-1496.3,-25881.0,-287.675,-702.3475,-142.1825,2025-01-29 10:38:48,0.0
-12793.25,-1528.3,-26401.0,-77.67500000000001,-604.3475,-298.1825,2025-01-29 10:38:48,0.0
-12381.25,-1676.3,-26645.0,-6.675000000000011,-174.3475,-496.1825,2025-01-29 10:38:48,0.0
-12681.25,-1700.3,-26725.0,37.32499999999999,339.65250000000003,-504.1825,2025-01-29 10:38:48,0.0
-13009.25,-1372.3,-26937.0,-16.67500000000001,576.6525,-279.1825,2025-01-29 10:38:48,0.0
-13069.25,-892.3,-26677.0,-241.675,391.65250000000003,-159.1825,2025-01-29 10:38:48,0.0
-13133.25,-1052.3,-26373.0,-356.675,59.6525,-166.1825,2025-01-29 10:38:48,0.0
-12973.25,-1460.3,-26497.0,-300.675,-81.3475,-184.1825,2025-01-29 10:38:48,0.0
-12881.25,-1568.3,-26713.0,-188.675,112.6525,-223.1825,2025-01-29 10:38:48,0.0
-12753.25,-1456.3,-26789.0,-178.675,343.65250000000003,-300.1825,2025-01-29 10:38:48,0.0
-12941.25,-1260.3,-26749.0,-285.675,384.65250000000003,-397.1825,2025-01-29 10:38:48,
-13345.25,-912.3,-26573.0,-376.675,349.65250000000003,-343.1825,2025-01-29 10:38:48,0.0
-13341.25,-748.3,-26705.0,-485.675,-33.3475,-254.1825,2025-01-29 10:38:48,0.0
-13177.25,-832.3,-26593.0,-566.675,-321.34749999999997,-304.1825,2025-01-29 10:38:48,0.0
-12993.25,-1112.3,-26541.0,-548.675,-279.34749999999997,-319.1825,2025-01-29 10:38:48,0.0
-12989.25,-1304.3,-26405.0,-408.675,-204.3475,-293.1825,2025-01-29 10:38:48,0.0
-13201.25,-1164.3,-26125.0,-383.675,-140.3475,-318.1825,2025-01-29 10:38:48,0.0
-13201.25,-852.3,-26225.0,-502.675,-138.3475,-322.1825,2025-01-29 10:38:48,0.0
-13193.25,-732.3,-26281.0,-589.675,-271.34749999999997,-396.1825,2025-01-29 10:38:48,0.0
-13149.25,-1128.3,-26201.0,-630.675,-351.34749999999997,-373.1825,2025-01-29 10:38:48,0.0
-12993.25,-1260.3,-26273.0,-625.675,-303.34749999999997,-316.1825,2025-01-29 10:38:48,0.0
-13001.25,-1364.3,-26361.0,-563.675,-92.3475,-316.1825,2025-01-29 10:38:48,0.0
-13117.25,-1368.3,-26293.0,-425.675,7.652500000000003,-264.1825,2025-01-29 10:38:48,0.0
-13205.25,-1228.3,-26333.0,-356.675,-63.3475,-314.1825,2025-01-29 10:38:48,0.0
-13253.25,-1160.3,-26401.0,-311.675,-278.34749999999997,-308.1825,2025-01-29 10:38:48,0.0
-12933.25,-1240.3,-26321.0,-309.675,-318.34749999999997,-261.1825,2025-01-29 10:38:48,0.0
-12729.25,-1056.3,-26061.0,-286.675,-53.3475,-295.1825,2025-01-29 10:38:48,0.0
-12893.25,-1056.3,-26421.0,-295.675,222.6525,-319.1825,2025-01-29 10:38:48,0.0
-12861.25,-876.3,-26557.0,-301.675,424.65250000000003,-321.1825,2025-01-29 10:38:48,0.0
-13093.25,-880.3,-26557.0,-341.675,409.65250000000003,-414.1825,2025-01-29 10:38:48,0.0
-13297.25,-804.3,-26605.0,-382.675,184.6525,-436.1825,2025-01-29 10:38:48,0.0
-13357.25,-864.3,-26757.0,-498.675,-174.3475,-414.1825,2025-01-29 10:38:48,0.0
-13037.25,-820.3,-26273.0,-560.675,-281.34749999999997,-372.1825,2025-01-29 10:38:48,0.0
-12845.25,-940.3,-26397.0,-571.675,-171.3475,-399.1825,2025-01-29 10:38:48,0.0
-12805.25,-988.3,-26265.0,-557.675,51.6525,-427.1825,2025-01-29 10:38:48,0.0
-12905.25,-1260.3,-26469.0,-516.675,214.6525,-451.1825,2025-01-29 10:38:49,0.0
-12957.25,-1204.3,-26529.0,-406.675,252.6525,-412.1825,2025-01-29 10:38:49,0.0
-13025.25,-1120.3,-26697.0,-397.675,269.65250000000003,-412.1825,2025-01-29 10:38:49,0.0
-13021.25,-1016.3,-26581.0,-400.675,187.6525,-389.1825,2025-01-29 10:38:49,0.0
-13061.25,-1104.3,-26541.0,-380.675,120.6525,-322.1825,2025-01-29 10:38:49,0.0
-12881.25,-952.3,-26501.0,-352.675,173.6525,-357.1825,2025-01-29 10:38:49,0.0
-12905.25,-948.3,-26425.0,-353.675,308.65250000000003,-355.1825,2025-01-29 10:38:49,0.0
-13029.25,-1064.3,-26569.0,-355.675,381.65250000000003,-370.1825,2025-01-29 10:38:49,0.0
-13105.25,-1016.3,-26669.0,-273.675,375.65250000000003,-324.1825,2025-01-29 10:38:49,0.0
-13129.25,-1036.3,-26505.0,-280.675,271.65250000000003,-311.1825,2025-01-29 10:38:49,0.0
-12985.25,-976.3,-26561.0,-314.675,151.6525,-291.1825,2025-01-29 10:38:49,0.0
-12949.25,-1128.3,-26565.0,-295.675,129.6525,-264.1825,2025-01-29 10:38:49,0.0
-12969.25,-1008.3,-26473.0,-269.675,118.6525,-235.1825,2025-01-29 10:38:49,0.0
-12789.25,-932.3,-26421.0,-239.675,280.65250000000003,-265.1825,2025-01-29 10:38:49,0.0
-12805.25,-924.3,-26393.0,-184.675,433.65250000000003,-283.1825,2025-01-29 10:38:49,0.0
-12945.25,-1032.3,-26469.0,-195.675,561.6525,-309.1825,2025-01-29 10:38:49,0.0
-13097.25,-956.3,-26509.0,-158.675,601.6525,-322.1825,2025-01-29 10:38:49,0.0
-13193.25,-924.3,-26433.0,-206.675,510.65250000000003,-306.1825,2025-01-29 10:38:49,0.0
-13041.25,-976.3,-26557.0,-219.675,273.65250000000003,-286.1825,2025-01-29 10:38:49,0.0
-12925.25,-932.3,-26745.0,-266.675,126.6525,-268.1825,2025-01-29 10:38:49,0.0
-12849.25,-1000.3,-26673.0,-326.675,244.6525,-330.1825,2025-01-29 10:38:49,0.0
-12849.25,-832.3,-26353.0,-356.675,405.65250000000003,-408.1825,2025-01-29 10:38:49,0.0
-13025.25,-952.3,-26705.0,-342.675,354.65250000000003,-440.1825,2025-01-29 10:38:49,0.0
-13181.25,-940.3,-26741.0,-361.675,239.6525,-439.1825,2025-01-29 10:38:49,0.0
-12993.25,-1036.3,-26513.0,-450.675,66.6525,-435.1825,2025-01-29 10:38:49,0.0
-13121.25,-984.3,-26349.0,-457.675,-25.347499999999997,-458.1825,2025-01-29 10:38:49,0.0
-13013.25,-1128.3,-26489.0,-429.675,58.6525,-512.1825,2025-01-29 10:38:49,0.0
-13109.25,-1064.3,-26285.0,-363.675,81.6525,-559.1825,2025-01-29 10:38:49,0.0
-13193.25,-1060.3,-26445.0,-320.675,140.6525,-529.1825,2025-01-29 10:38:49,0.0
-13029.25,-1164.3,-26725.0,-338.675,180.6525,-542.1825,2025-01-29 10:38:49,0.0
-13237.25,-1216.3,-26689.0,-375.675,73.6525,-485.1825,2025-01-29 10:38:49,0.0
-13077.25,-1408.3,-26605.0,-234.675,116.6525,-392.1825,2025-01-29 10:38:49,0.0
-13017.25,-1408.3,-26729.0,28.32499999999999,215.6525,-476.1825,2025-01-29 10:38:49,0.0
-13533.25,-1224.3,-26941.0,108.32499999999999,191.6525,-283.1825,2025-01-29 10:38:49,0.0
-13737.25,-904.3,-26893.0,43.32499999999999,-524.3475,296.8175,2025-01-29 10:38:49,0.0
-13269.25,-784.3,-26841.0,-164.675,-1277.3475,984.8175,2025-01-29 10:38:49,0.0
-11593.25,-848.3,-26693.0,-290.675,-1195.3475,748.8175,2025-01-29 10:38:49,0.0
-11549.25,-828.3,-26293.0,-282.675,-252.3475,-14.182500000000005,2025-01-29 10:38:49,0.0
-12257.25,-1332.3,-26137.0,-166.675,617.6525,-229.1825,2025-01-29 10:38:49,0.0
-12949.25,-1668.3,-26045.0,284.325,1276.6525,6.8174999999999955,2025-01-29 10:38:49,0.0
-13461.25,-1352.3,-26377.0,632.325,1143.6525,242.8175,2025-01-29 10:38:49,0.0
-13521.25,-960.3,-26817.0,596.325,563.6525,118.8175,2025-01-29 10:38:49,0.0
-13685.25,-784.3,-27133.0,473.325,64.6525,128.8175,2025-01-29 10:38:49,0.0
-13045.25,-952.3,-27257.0,378.325,-350.34749999999997,265.8175,2025-01-29 10:38:49,0.0
-12105.25,-1312.3,-27141.0,369.325,-440.34749999999997,275.8175,2025-01-29 10:38:49,0.0
-11705.25,-1472.3,-27081.0,440.325,15.652500000000003,280.8175,2025-01-29 10:38:49,0.0
-11353.25,-1276.3,-27313.0,485.325,856.6525,430.8175,2025-01-29 10:38:49,0.0
-11113.25,-932.3,-27677.0,447.325,1213.6525,557.8175,2025-01-29 10:38:49,0.0
-10989.25,-604.3,-27657.0,273.325,1277.6525,689.8175,2025-01-29 10:38:49,0.0
-10693.25,-368.3,-27589.0,-38.67500000000001,991.6525,877.8175,2025-01-29 10:38:49,0.0
-10153.25,-156.3,-27429.0,-436.675,546.6525,898.8175,2025-01-29 10:38:49,0.0
-9301.25,83.69999999999999,-27389.0,-979.675,113.6525,743.8175,2025-01-29 10:38:49,0.0
-8657.25,411.7,-26837.0,-1368.675,-324.34749999999997,707.8175,2025-01-29 10:38:49,0.0
-7701.25,347.7,-26005.0,-1731.675,-888.3475,569.8175,2025-01-29 10:38:49,0.0
-7565.25,-632.3,-22525.0,-2403.675,-54.3475,263.8175,2025-01-29 10:38:49,0.0
-6649.25,-944.3,-21521.0,-2299.675,490.65250000000003,47.817499999999995,2025-01-29 10:38:49,0.0
-5617.25,-1040.3,-21161.0,-1924.675,749.6525,-279.1825,2025-01-29 10:38:49,0.0
-5093.25,-484.3,-20373.0,-1064.675,828.6525,-725.1825,2025-01-29 10:38:49,0.0
-5185.25,-200.3,-20229.0,-574.675,1396.6525,-979.1825,2025-01-29 10:38:49,0.0
-5801.25,-772.3,-19733.0,-937.675,3720.6525,-1092.1825,2025-01-29 10:38:50,0.0
-6877.25,-1092.3,-19937.0,-494.675,6034.6525,-1790.1825,2025-01-29 10:38:50,0.0
-9585.25,-740.3,-21761.0,-66.67500000000001,6945.6525,-1874.1825,2025-01-29 10:38:50,0.0
-11525.25,-324.3,-23569.0,-18.67500000000001,5470.6525,-1534.1825,2025-01-29 10:38:50,0.0
-12065.25,251.7,-25121.0,-1322.675,1434.6525,-114.1825,2025-01-29 10:38:50,0.0
-10853.25,135.7,-24761.0,-1925.675,-1249.3475,678.8175,2025-01-29 10:38:50,0.0
-9929.25,-648.3,-24521.0,-1880.675,-2182.3475,752.8175,2025-01-29 10:38:50,0.0
-9485.25,-1384.3,-23997.0,-1953.675,-3084.3475,-44.182500000000005,2025-01-29 10:38:50,0.0
-10133.25,-1512.3,-23089.0,-1687.675,-3808.3475,-951.1825,2025-01-29 10:38:50,0.0
-10361.25,-788.3,-23873.0,-1429.675,-3620.3475,-1183.1825,2025-01-29 10:38:50,0.0
-9921.25,-12.300000000000011,-25381.0,-1645.675,-2892.3475,-689.1825,2025-01-29 10:38:50,0.0
-10053.25,207.7,-25477.0,-2023.675,-2161.3475,-644.1825,2025-01-29 10:38:50,0.0
-12769.25,-112.30000000000001,-23845.0,-1812.675,-2656.3475,-1631.1825,2025-01-29 10:38:50,0.0
-18701.25,-348.3,-24417.0,-1481.675,-3896.3475,-2206.1825,2025-01-29 10:38:50,0.0
-18701.25,-128.3,-26985.0,-1752.675,-6613.3475,-1702.1825,2025-01-29 10:38:50,0.0
-15697.25,-136.3,-29385.0,-1834.675,-9816.3475,-316.1825,2025-01-29 10:38:50,0.0
-12909.25,235.7,-28445.0,-2442.675,-10692.3475,686.8175,2025-01-29 10:38:50,
-11769.25,-1256.3,-26213.0,-2564.675,-9109.3475,168.8175,2025-01-29 10:38:50,0.0
-13305.25,-1120.3,-25561.0,-1753.675,-6292.3475,-1104.1825,2025-01-29 10:38:50,0.0
-13177.25,79.69999999999999,-25225.0,-1468.675,-6386.3475,-1816.1825,2025-01-29 10:38:50,0.0
-16241.25,1419.7,-26277.0,-1779.675,-6312.3475,-1582.1825,2025-01-29 10:38:50,0.0
-17901.25,1967.7,-25901.0,-2152.675,-4502.3475,-886.1825,2025-01-29 10:38:50,0.0
-19617.25,155.7,-25969.0,-1900.675,-4816.3475,-372.1825,2025-01-29 10:38:50,0.0
-16101.25,-2968.3,-24897.0,-1465.675,-5039.3475,41.817499999999995,2025-01-29 10:38:50,0.0
-16929.25,-1360.3,-28973.0,-857.675,-4642.3475,-1482.1825,2025-01-29 10:38:50,0.0
-19189.25,-904.3,-28625.0,-804.675,-4479.3475,-1455.1825,2025-01-29 10:38:50,0.0
-22877.25,-404.3,-26733.0,-834.675,-6023.3475,-1209.1825,2025-01-29 10:38:50,0.0
-23413.25,-16.30000000000001,-27609.0,-1036.675,-8152.3475,-36.182500000000005,2025-01-29 10:38:50,0.0
-22665.25,-776.3,-26181.0,-1567.675,-8344.3475,2172.8175,2025-01-29 10:38:50,0.0
-22453.25,-300.3,-26421.0,-1342.675,-4809.3475,2418.8175,2025-01-29 10:38:50,0.0
-21773.25,499.7,-26765.0,-1426.675,-4927.3475,1461.8175,2025-01-29 10:38:50,0.0
-22961.25,1611.7,-25649.0,-1450.675,-4241.3475,1617.8175,2025-01-29 10:38:50,0.0
-22361.25,1559.7,-25997.0,-1415.675,-5820.3475,1192.8175,2025-01-29 10:38:50,0.0
-20793.25,351.7,-24457.0,-1036.675,-6119.3475,558.8175,2025-01-29 10:38:50,0.0
-20193.25,843.7,-25613.0,-1064.675,-3910.3475,-206.1825,2025-01-29 10:38:50,0.0
-17513.25,1431.7,-25549.0,-1211.675,-5423.3475,-852.1825,2025-01-29 10:38:50,0.0
-17633.25,507.7,-25509.0,-986.675,-3682.3475,-1102.1825,2025-01-29 10:38:50,0.0
-17481.25,-1200.3,-24329.0,-723.675,-1723.3475,-1208.1825,2025-01-29 10:38:50,0.0
-17505.25,-1676.3,-23309.0,-270.675,-749.3475,-1170.1825,2025-01-29 10:38:50,0.0
-16981.25,-1192.3,-23253.0,288.325,-372.34749999999997,-1211.1825,2025-01-29 10:38:50,0.0
-16769.25,331.7,-23037.0,730.325,169.6525,-1013.1825,2025-01-29 10:38:50,0.0
-16073.25,2255.7,-23813.0,413.325,-88.3475,-758.1825,2025-01-29 10:38:50,0.0
-15629.25,2207.7,-23349.0,-217.675,-622.3475,-239.1825,2025-01-29 10:38:50,0.0
-14509.25,803.7,-22213.0,-456.675,-212.3475,299.8175,2025-01-29 10:38:50,0.0
-13725.25,-236.3,-21005.0,-395.675,371.65250000000003,708.8175,2025-01-29 10:38:50,0.0
-13185.25,-880.3,-20341.0,7.324999999999989,1441.6525,618.8175,2025-01-29 10:38:50,0.0
-11945.25,-628.3,-20829.0,470.325,2181.6525,-0.18250000000000455,2025-01-29 10:38:50,0.0
-12573.25,251.7,-21193.0,518.325,2307.6525,-337.1825,2025-01-29 10:38:50,0.0
-13845.25,1123.7,-21713.0,266.325,1887.6525,-430.1825,2025-01-29 10:38:50,0.0
-14417.25,599.7,-21961.0,38.32499999999999,1202.6525,-707.1825,2025-01-29 10:38:50,0.0
-14925.25,-108.30000000000001,-21965.0,-40.67500000000001,445.65250000000003,-722.1825,2025-01-29 10:38:50,0.0
-14797.25,-288.3,-21581.0,-237.675,-71.3475,-602.1825,2025-01-29 10:38:50,0.0
-14409.25,-32.30000000000001,-21537.0,-370.675,-179.3475,-761.1825,2025-01-29 10:38:50,0.0
-14285.25,-48.30000000000001,-21721.0,-285.675,374.65250000000003,-1074.1825,2025-01-29 10:38:50,0.0
-14709.25,-208.3,-21913.0,-238.675,706.6525,-1113.1825,2025-01-29 10:38:50,0.0
-15757.25,-516.3,-22249.0,-223.675,319.65250000000003,-783.1825,2025-01-29 10:38:50,0.0
-15945.25,-436.3,-22465.0,-148.675,-286.34749999999997,-452.1825,2025-01-29 10:38:50,0.0
-16105.25,-448.3,-22289.0,12.324999999999989,-718.3475,-200.1825,2025-01-29 10:38:50,0.0
-15937.25,-524.3,-22197.0,115.32499999999999,-1002.3475,12.817499999999995,2025-01-29 10:38:50,0.0
-15637.25,-420.3,-22021.0,218.325,-1353.3475,43.817499999999995,2025-01-29 10:38:50,0.0
-15141.25,79.69999999999999,-22329.0,122.32499999999999,-1445.3475,-29.182500000000005,2025-01-29 10:38:50,0.0
-14729.25,571.7,-22233.0,24.32499999999999,-1178.3475,-289.1825,2025-01-29 10:38:50,0.0
-14657.25,511.7,-22341.0,-178.675,-821.3475,-516.1825,2025-01-29 10:38:51,0.0
-14673.25,75.69999999999999,-22153.0,-284.675,-631.3475,-697.1825,2025-01-29 10:38:51,0.0
-15081.25,-304.3,-22577.0,-279.675,-406.34749999999997,-778.1825,2025-01-29 10:38:51,0.0
-15205.25,-764.3,-22533.0,-157.675,-524.3475,-680.1825,2025-01-29 10:38:51,0.0
-15377.25,-900.3,-22433.0,27.32499999999999,-484.34749999999997,-538.1825,2025-01-29 10:38:51,0.0
-15365.25,-876.3,-22461.0,256.325,-270.34749999999997,-491.1825,2025-01-29 10:38:51,0.0
-15069.25,-424.3,-22289.0,442.325,-164.3475,-534.1825,2025-01-29 10:38:51,0.0
-15309.25,191.7,-22429.0,399.325,-121.3475,-593.1825,2025-01-29 10:38:51,0.0
-15325.25,859.7,-22645.0,102.32499999999999,-238.3475,-611.1825,2025-01-29 10:38:51,0.0
-15293.25,1007.7,-22741.0,-231.675,-375.34749999999997,-565.1825,2025-01-29 10:38:51,0.0
-15197.25,559.7,-22401.0,-422.675,-403.34749999999997,-476.1825,2025-01-29 10:38:51,0.0
-15233.25,-208.3,-22093.0,-414.675,-329.34749999999997,-406.1825,2025-01-29 10:38:51,0.0
-15149.25,-820.3,-21701.0,-144.675,-248.3475,-301.1825,2025-01-29 10:38:51,0.0
-15061.25,-1004.3,-21605.0,174.325,88.6525,-245.1825,2025-01-29 10:38:51,0.0
-15133.25,-644.3,-21905.0,393.325,355.65250000000003,-204.1825,2025-01-29 10:38:51,0.0
-15049.25,-104.30000000000001,-22553.0,379.325,327.65250000000003,-173.1825,2025-01-29 10:38:51,0.0
-15145.25,495.7,-22965.0,151.325,210.6525,-198.1825,2025-01-29 10:38:51,0.0
-15361.25,887.7,-22921.0,-186.675,-141.3475,-246.1825,2025-01-29 10:38:51,0.0
-15453.25,535.7,-22433.0,-417.675,-526.3475,-210.1825,2025-01-29 10:38:51,0.0
-15057.25,-312.3,-21921.0,-470.675,-441.34749999999997,-197.1825,2025-01-29 10:38:51,0.0
-15257.25,19.69999999999999,-22413.0,17.32499999999999,-240.3475,-271.1825,2025-01-29 10:38:51,0.0
-15201.25,83.69999999999999,-22469.0,-29.67500000000001,-366.34749999999997,-226.1825,2025-01-29 10:38:51,0.0
-15385.25,147.7,-22289.0,-163.675,-292.34749999999997,-202.1825,2025-01-29 10:38:51,0.0
-15233.25,203.7,-22105.0,-208.675,-246.3475,-194.1825,2025-01-29 10:38:51,0.0
-15405.25,55.69999999999999,-21929.0,-215.675,-194.3475,-210.1825,2025-01-29 10:38:51,0.0
-15629.25,79.69999999999999,-21661.0,-202.675,-193.3475,-177.1825,2025-01-29 10:38:51,0.0
-15465.25,259.7,-21729.0,-247.675,-247.3475,-98.1825,2025-01-29 10:38:51,0.0
-15545.25,331.7,-22005.0,-318.675,-224.3475,-68.1825,2025-01-29 10:38:51,0.0
-14961.25,-100.30000000000001,-21793.0,-306.675,-114.3475,-287.1825,2025-01-29 10:38:51,0.0
-14925.25,-84.30000000000001,-21821.0,-261.675,-32.3475,-468.1825,2025-01-29 10:38:51,0.0
-15101.25,127.69999999999999,-21945.0,-306.675,-71.3475,-622.1825,2025-01-29 10:38:51,0.0
-15177.25,39.69999999999999,-21957.0,-418.675,-241.3475,-731.1825,2025-01-29 10:38:51,0.0
-15177.25,-96.30000000000001,-21777.0,-498.675,-354.34749999999997,-754.1825,2025-01-29 10:38:51,0.0
-15057.25,-508.3,-21473.0,-424.675,-168.3475,-775.1825,2025-01-29 10:38:51,0.0
-15385.25,-668.3,-21545.0,-280.675,11.652500000000003,-703.1825,2025-01-29 10:38:51,0.0
-15413.25,-324.3,-21745.0,-223.675,267.65250000000003,-502.1825,2025-01-29 10:38:51,0.0
-15325.25,-24.30000000000001,-21901.0,-291.675,339.65250000000003,-408.1825,2025-01-29 10:38:51,0.0
-15289.25,-24.30000000000001,-21969.0,-361.675,192.6525,-404.1825,2025-01-29 10:38:51,0.0
-15165.25,139.7,-22021.0,-415.675,-44.3475,-502.1825,2025-01-29 10:38:51,0.0
-15249.25,27.69999999999999,-21857.0,-458.675,-292.34749999999997,-616.1825,2025-01-29 10:38:51,0.0
-15297.25,-100.30000000000001,-21977.0,-429.675,-530.3475,-691.1825,2025-01-29 10:38:51,0.0
-15133.25,-496.3,-21785.0,-321.675,-399.34749999999997,-660.1825,2025-01-29 10:38:51,0.0
-14965.25,-752.3,-21601.0,-135.675,80.6525,-595.1825,2025-01-29 10:38:51,0.0
-14965.25,-484.3,-21729.0,-14.675000000000011,225.6525,-597.1825,2025-01-29 10:38:51,0.0
-15081.25,-264.3,-22081.0,-17.67500000000001,138.6525,-648.1825,2025-01-29 10:38:51,0.0
-15397.25,187.7,-22357.0,-132.675,-85.3475,-648.1825,2025-01-29 10:38:51,0.0
-15493.25,591.7,-22361.0,-411.675,-338.34749999999997,-626.1825,2025-01-29 10:38:52,0.0
-15361.25,379.7,-22093.0,-592.675,-581.3475,-582.1825,2025-01-29 10:38:52,0.0
-15269.25,-576.3,-21785.0,-564.675,-388.34749999999997,-430.1825,2025-01-29 10:38:52,0.0
-15277.25,-1132.3,-21505.0,-358.675,-27.347499999999997,-213.1825,2025-01-29 10:38:52,0.0
-15461.25,-864.3,-21485.0,-134.675,129.6525,-86.1825,2025-01-29 10:38:52,0.0
-15265.25,-156.3,-21773.0,-2.6750000000000114,31.652500000000003,-208.1825,2025-01-29 10:38:52,0.0
-15241.25,107.69999999999999,-22157.0,-61.67500000000001,-66.3475,-334.1825,2025-01-29 10:38:52,0.0
-15141.25,63.69999999999999,-22273.0,-141.675,-251.3475,-378.1825,2025-01-29 10:38:52,0.0
-15229.25,-128.3,-22193.0,-191.675,-239.3475,-396.1825,2025-01-29 10:38:52,
-15233.25,-388.3,-21745.0,-180.675,-191.3475,-385.1825,2025-01-29 10:38:52,0.0
-15145.25,-668.3,-21441.0,-136.675,-32.3475,-456.1825,2025-01-29 10:38:52,0.0
-15161.25,-660.3,-21385.0,-33.67500000000001,114.6525,-512.1825,2025-01-29 10:38:52,0.0
-15113.25,-564.3,-21609.0,7.324999999999989,162.6525,-585.1825,2025-01-29 10:38:52,0.0
-15341.25,-276.3,-22049.0,-79.67500000000001,54.6525,-562.1825,2025-01-29 10:38:52,0.0
-15401.25,-224.3,-21917.0,-221.675,-266.34749999999997,-555.1825,2025-01-29 10:38:52,0.0
-15361.25,-112.30000000000001,-21877.0,-318.675,-409.34749999999997,-544.1825,2025-01-29 10:38:52,0.0
-15013.25,-344.3,-21785.0,-387.675,-276.34749999999997,-534.1825,2025-01-29 10:38:52,0.0
-15069.25,-684.3,-21609.0,-294.675,-132.3475,-472.1825,2025-01-29 10:38:52,0.0
-15141.25,-608.3,-21757.0,-182.675,42.6525,-456.1825,2025-01-29 10:38:52,0.0
-15185.25,-356.3,-21945.0,-137.675,-76.3475,-456.1825,2025-01-29 10:38:52,0.0
-15253.25,-72.30000000000001,-21761.0,-183.675,-165.3475,-453.1825,2025-01-29 10:38:52,0.0
-15325.25,11.699999999999989,-22049.0,-325.675,-289.34749999999997,-424.1825,2025-01-29 10:38:52,0.0
-15305.25,-144.3,-21961.0,-359.675,-370.34749999999997,-391.1825,2025-01-29 10:38:52,0.0
-15213.25,-396.3,-21785.0,-385.675,-325.34749999999997,-375.1825,2025-01-29 10:38:52,0.0
-15161.25,-632.3,-21653.0,-318.675,-179.3475,-362.1825,2025-01-29 10:38:52,0.0
-15085.25,-688.3,-21705.0,-248.675,-105.3475,-347.1825,2025-01-29 10:38:52,0.0
-15217.25,-436.3,-21773.0,-195.675,-59.3475,-411.1825,2025-01-29 10:38:52,0.0
-15069.25,-220.3,-21665.0,-261.675,-2.3474999999999966,-529.1825,2025-01-29 10:38:52,0.0
-15625.25,-156.3,-21657.0,-313.675,-42.3475,-481.1825,2025-01-29 10:38:52,0.0
-15665.25,-312.3,-21541.0,-437.675,-227.3475,-394.1825,2025-01-29 10:38:52,0.0
-15445.25,-452.3,-21457.0,-449.675,-328.34749999999997,-367.1825,2025-01-29 10:38:52,0.0
-15285.25,-284.3,-21457.0,-484.675,-195.3475,-477.1825,2025-01-29 10:38:52,0.0
-15137.25,-104.30000000000001,-21341.0,-513.675,1.6525000000000034,-531.1825,2025-01-29 10:38:52,0.0
-15345.25,-276.3,-21557.0,-555.675,159.6525,-544.1825,2025-01-29 10:38:52,0.0
-15457.25,-384.3,-21441.0,-586.675,116.6525,-553.1825,2025-01-29 10:38:52,0.0
-15397.25,-392.3,-21525.0,-540.675,-226.3475,-498.1825,2025-01-29 10:38:52,0.0
-15221.25,-344.3,-21421.0,-523.675,-484.34749999999997,-392.1825,2025-01-29 10:38:52,0.0
-15045.25,-408.3,-21465.0,-514.675,-316.34749999999997,-399.1825,2025-01-29 10:38:52,0.0
-15189.25,-556.3,-21401.0,-469.675,-131.3475,-407.1825,2025-01-29 10:38:52,0.0
-15201.25,-536.3,-21561.0,-380.675,-84.3475,-387.1825,2025-01-29 10:38:52,0.0
-15237.25,-596.3,-21641.0,-351.675,-144.3475,-328.1825,2025-01-29 10:38:52,0.0
-15093.25,-408.3,-21589.0,-340.675,-251.3475,-288.1825,2025-01-29 10:38:52,0.0
-15013.25,-396.3,-21925.0,-298.675,-283.34749999999997,-280.1825,2025-01-29 10:38:52,0.0
-15273.25,-132.3,-21669.0,-337.675,-202.3475,-306.1825,2025-01-29 10:38:52,0.0
-15245.25,-140.3,-21809.0,-374.675,-110.3475,-310.1825,2025-01-29 10:38:52,0.0
-15405.25,-148.3,-21881.0,-414.675,54.6525,-314.1825,2025-01-29 10:38:52,0.0
-15297.25,-292.3,-21565.0,-400.675,25.652500000000003,-363.1825,2025-01-29 10:38:52,0.0
-15321.25,-356.3,-21837.0,-382.675,-104.3475,-420.1825,2025-01-29 10:38:52,0.0
-15277.25,-232.3,-21701.0,-362.675,-250.3475,-401.1825,2025-01-29 10:38:52,0.0
-15325.25,-176.3,-21549.0,-394.675,-274.34749999999997,-401.1825,2025-01-29 10:38:52,0.0
-15445.25,-528.3,-21537.0,-322.675,-78.3475,-366.1825,2025-01-29 10:38:52,0.0
-15433.25,-676.3,-21593.0,-239.675,67.6525,-349.1825,2025-01-29 10:38:52,0.0
-15381.25,-368.3,-21769.0,-169.675,85.6525,-309.1825,2025-01-29 10:38:52,0.0
-15513.25,-64.30000000000001,-21717.0,-194.675,9.652500000000003,-251.1825,2025-01-29 10:38:52,0.0
-15533.25,-184.3,-21541.0,-264.675,-59.3475,-237.1825,2025-01-29 10:38:52,0.0
-15561.25,-100.30000000000001,-21425.0,-271.675,-171.3475,-235.1825,2025-01-29 10:38:52,0.0
-15373.25,-216.3,-21373.0,-237.675,-214.3475,-300.1825,2025-01-29 10:38:52,0.0
-15161.25,-352.3,-21505.0,-213.675,-185.3475,-315.1825,2025-01-29 10:38:52,0.0
-15305.25,-500.3,-21449.0,-176.675,15.652500000000003,-319.1825,2025-01-29 10:38:52,0.0
-15165.25,-464.3,-21481.0,-112.67500000000001,-38.3475,-291.1825,2025-01-29 10:38:52,0.0
-15173.25,-372.3,-21521.0,-96.67500000000001,-43.3475,-280.1825,2025-01-29 10:38:52,0.0
-15325.25,-244.3,-21637.0,-130.675,-61.3475,-227.1825,2025-01-29 10:38:52,0.0
-15373.25,-284.3,-21669.0,-250.675,-102.3475,-156.1825,2025-01-29 10:38:53,0.0
-15397.25,39.69999999999999,-21837.0,-357.675,84.6525,-100.1825,2025-01-29 10:38:53,0.0
-15337.25,-108.30000000000001,-21845.0,-498.675,411.65250000000003,64.8175,2025-01-29 10:38:53,0.0
-15249.25,-164.3,-21261.0,-524.675,146.6525,-101.1825,2025-01-29 10:38:53,0.0
-15309.25,-484.3,-21325.0,-453.675,87.6525,-239.1825,2025-01-29 10:38:53,0.0
-15437.25,-448.3,-21569.0,-408.675,101.6525,-125.1825,2025-01-29 10:38:53,0.0
-15521.25,-224.3,-21681.0,-406.675,117.6525,-41.182500000000005,2025-01-29 10:38:53,0.0
-15413.25,-160.3,-21749.0,-451.675,40.6525,-16.182500000000005,2025-01-29 10:38:53,0.0
-15125.25,-204.3,-21421.0,-432.675,-46.3475,-120.1825,2025-01-29 10:38:53,0.0
-14925.25,-444.3,-21457.0,-351.675,-136.3475,-276.1825,2025-01-29 10:38:53,0.0
-15133.25,-404.3,-21317.0,-265.675,-106.3475,-415.1825,2025-01-29 10:38:53,0.0
-15273.25,-232.3,-21585.0,-217.675,-208.3475,-562.1825,2025-01-29 10:38:53,0.0
-15321.25,-276.3,-21549.0,-221.675,-245.3475,-600.1825,2025-01-29 10:38:53,0.0
-15285.25,-212.3,-21709.0,-230.675,-366.34749999999997,-645.1825,2025-01-29 10:38:53,0.0
-15465.25,-324.3,-21441.0,-262.675,-376.34749999999997,-626.1825,2025-01-29 10:38:53,0.0
-15245.25,-484.3,-21589.0,-262.675,-221.3475,-559.1825,2025-01-29 10:38:53,0.0
-15477.25,-368.3,-21537.0,-222.675,-206.3475,-528.1825,2025-01-29 10:38:53,0.0
-15389.25,-420.3,-21517.0,-207.675,-262.34749999999997,-514.1825,2025-01-29 10:38:53,0.0
-15509.25,-360.3,-21565.0,-220.675,-220.3475,-437.1825,2025-01-29 10:38:53,0.0
-15389.25,-224.3,-21717.0,-259.675,-265.34749999999997,-359.1825,2025-01-29 10:38:53,0.0
-15365.25,-176.3,-21433.0,-269.675,-287.34749999999997,-317.1825,2025-01-29 10:38:53,0.0
-15293.25,-276.3,-21549.0,-289.675,-268.34749999999997,-301.1825,2025-01-29 10:38:53,0.0
-15341.25,-276.3,-21589.0,-298.675,-257.34749999999997,-294.1825,2025-01-29 10:38:53,0.0
-15225.25,-252.3,-21421.0,-267.675,-133.3475,-329.1825,2025-01-29 10:38:53,0.0
-15297.25,-348.3,-21393.0,-235.675,25.652500000000003,-353.1825,2025-01-29 10:38:53,0.0
-15297.25,-432.3,-21413.0,-209.675,101.6525,-347.1825,2025-01-29 10:38:53,0.0
-15525.25,-392.3,-21493.0,-207.675,34.6525,-310.1825,2025-01-29 10:38:53,0.0
-15513.25,-156.3,-21545.0,-245.675,-132.3475,-260.1825,2025-01-29 10:38:53,0.0
-15429.25,-152.3,-21661.0,-259.675,-243.3475,-243.1825,2025-01-29 10:38:53,0.0
-15289.25,-404.3,-21617.0,-305.675,-303.34749999999997,-287.1825,2025-01-29 10:38:53,0.0
-15297.25,-224.3,-21329.0,-315.675,-170.3475,-296.1825,2025-01-29 10:38:53,0.0
-15153.25,-128.3,-21513.0,-339.675,26.652500000000003,-304.1825,2025-01-29 10:38:53,0.0
-15233.25,-112.30000000000001,-21265.0,-382.675,249.6525,-299.1825,2025-01-29 10:38:53,0.0
-15413.25,-208.3,-21381.0,-384.675,298.65250000000003,-348.1825,2025-01-29 10:38:53,0.0
-15769.25,-420.3,-21429.0,-360.675,146.6525,-383.1825,2025-01-29 10:38:53,0.0
-15985.25,-320.3,-21697.0,-414.675,179.6525,-182.1825,2025-01-29 10:38:53,0.0
-16189.25,-212.3,-22017.0,-591.675,358.65250000000003,174.8175,2025-01-29 10:38:53,0.0
-16333.25,-124.30000000000001,-21821.0,-825.675,922.6525,640.8175,2025-01-29 10:38:53,0.0
-15393.25,-380.3,-21317.0,-845.675,758.6525,563.8175,2025-01-29 10:38:53,0.0
-14925.25,-424.3,-21105.0,-765.675,461.65250000000003,249.8175,2025-01-29 10:38:53,0.0
-15141.25,-44.30000000000001,-21685.0,-772.675,513.6525,57.817499999999995,2025-01-29 10:38:53,0.0
-15717.25,-96.30000000000001,-21413.0,-735.675,596.6525,-1.1825000000000045,2025-01-29 10:38:53,0.0
-15585.25,-300.3,-21153.0,-562.675,-81.3475,-115.1825,2025-01-29 10:38:53,0.0
-15609.25,-276.3,-21373.0,-530.675,-163.3475,-191.1825,2025-01-29 10:38:53,0.0
-15241.25,-252.3,-21565.0,-579.675,261.65250000000003,-306.1825,2025-01-29 10:38:53,0.0
-15049.25,-88.30000000000001,-21381.0,-562.675,371.65250000000003,-511.1825,2025-01-29 10:38:53,0.0
-15217.25,-236.3,-21677.0,-520.675,426.65250000000003,-537.1825,2025-01-29 10:38:53,
-15381.25,-356.3,-21825.0,-482.675,678.6525,-471.1825,2025-01-29 10:38:53,0.0
-16025.25,-80.30000000000001,-21937.0,-377.675,957.6525,-527.1825,2025-01-29 10:38:53,0.0
-16449.25,399.7,-22193.0,-472.675,1030.6525,-562.1825,2025-01-29 10:38:53,0.0
-17097.25,487.7,-22285.0,-588.675,1287.6525,-526.1825,2025-01-29 10:38:53,0.0
-17501.25,-28.30000000000001,-22081.0,-447.675,1341.6525,-523.1825,2025-01-29 10:38:53,0.0
-17909.25,-728.3,-22153.0,-157.675,1291.6525,-353.1825,2025-01-29 10:38:53,0.0
-18761.25,-1176.3,-22617.0,50.32499999999999,1888.6525,136.8175,2025-01-29 10:38:53,0.0
-18625.25,-1148.3,-22697.0,261.325,2274.6525,560.8175,2025-01-29 10:38:53,0.0
-17657.25,-792.3,-21773.0,376.325,1867.6525,289.8175,2025-01-29 10:38:53,0.0
-17949.25,555.7,-21817.0,373.325,2966.6525,-506.1825,2025-01-29 10:38:53,0.0
-19461.25,1283.7,-22793.0,57.32499999999999,4771.6525,-1243.1825,2025-01-29 10:38:53,0.0
-20357.25,607.7,-23361.0,157.325,5482.6525,-1374.1825,2025-01-29 10:38:53,0.0
-19853.25,-256.3,-24161.0,305.325,5861.6525,-1220.1825,2025-01-29 10:38:54,0.0
-19573.25,-1076.3,-24657.0,315.325,6202.6525,-1007.1825,2025-01-29 10:38:54,0.0
-18869.25,-1408.3,-25237.0,460.325,6680.6525,-1146.1825,2025-01-29 10:38:55,0.0
-18653.25,-968.3,-25785.0,738.325,7735.6525,-1475.1825,2025-01-29 10:38:55,0.0
-19285.25,-156.3,-26757.0,810.325,8879.6525,-1769.1825,2025-01-29 10:38:55,0.0
-19541.25,195.7,-27353.0,762.325,9248.6525,-1613.1825,2025-01-29 10:38:55,0.0
-19305.25,347.7,-27229.0,819.325,8576.6525,-1386.1825,2025-01-29 10:38:55,0.0
-18845.25,231.7,-27021.0,735.325,8247.6525,-1091.1825,2025-01-29 10:38:55,0.0
-16125.25,-1100.3,-26465.0,547.325,7878.6525,-353.1825,2025-01-29 10:38:55,0.0
-15641.25,-964.3,-25821.0,483.325,7761.6525,-155.1825,2025-01-29 10:38:55,0.0
-14777.25,191.7,-29045.0,-822.675,5341.6525,-315.1825,2025-01-29 10:38:55,0.0
-13297.25,-576.3,-26265.0,-72.67500000000001,-156.3475,-114.1825,2025-01-29 10:38:55,0.0
-13349.25,-500.3,-26273.0,-123.67500000000001,-138.3475,-90.1825,2025-01-29 10:38:55,0.0
-13173.25,-624.3,-26105.0,-98.67500000000001,-27.347499999999997,-100.1825,2025-01-29 10:38:55,0.0
-13225.25,-380.3,-26065.0,-50.67500000000001,11.652500000000003,-112.1825,2025-01-29 10:38:55,0.0
-13133.25,-360.3,-26289.0,-116.67500000000001,52.6525,-109.1825,2025-01-29 10:38:55,0.0
-13217.25,-300.3,-26297.0,-173.675,49.6525,-120.1825,2025-01-29 10:38:55,0.0
-13253.25,-352.3,-26217.0,-221.675,72.6525,-125.1825,2025-01-29 10:38:55,0.0
-13253.25,-244.3,-26225.0,-318.675,-7.347499999999997,-150.1825,2025-01-29 10:38:55,0.0
-13269.25,-148.3,-26213.0,-440.675,-96.3475,-140.1825,2025-01-29 10:38:55,0.0
-13105.25,83.69999999999999,-26205.0,-546.675,-162.3475,-191.1825,2025-01-29 10:38:55,0.0
-12829.25,139.7,-26181.0,-627.675,-63.3475,-292.1825,2025-01-29 10:38:55,0.0
-12709.25,39.69999999999999,-26049.0,-627.675,177.6525,-404.1825,2025-01-29 10:38:55,0.0
-12745.25,-92.30000000000001,-25765.0,-562.675,523.6525,-571.1825,2025-01-29 10:38:55,0.0
-12889.25,187.7,-25905.0,-579.675,773.6525,-669.1825,2025-01-29 10:38:55,0.0
-12777.25,351.7,-26317.0,-749.675,961.6525,-768.1825,2025-01-29 10:38:55,0.0
-12873.25,463.7,-26301.0,-967.675,1268.6525,-831.1825,2025-01-29 10:38:55,0.0
-13001.25,783.7,-26713.0,-1243.675,1427.6525,-890.1825,2025-01-29 10:38:55,0.0
-13293.25,995.7,-26533.0,-1587.675,1408.6525,-962.1825,2025-01-29 10:38:55,0.0
-13249.25,1099.7,-26693.0,-1937.675,1054.6525,-1162.1825,2025-01-29 10:38:55,0.0
-13433.25,931.7,-26625.0,-2146.675,525.6525,-1497.1825,2025-01-29 10:38:55,0.0
-13525.25,1123.7,-26373.0,-2319.675,45.6525,-1611.1825,2025-01-29 10:38:55,0.0
-13533.25,1267.7,-26453.0,-2594.675,-315.34749999999997,-1668.1825,2025-01-29 10:38:55,0.0
-13261.25,1655.7,-26653.0,-3035.675,-566.3475,-1831.1825,2025-01-29 10:38:55,0.0
-12877.25,1519.7,-26789.0,-3447.675,-835.3475,-2143.1825,2025-01-29 10:38:55,0.0
-12801.25,1099.7,-26929.0,-3743.675,-900.3475,-2685.1825,2025-01-29 10:38:56,0.0
-12929.25,979.7,-27105.0,-4139.675,-884.3475,-3151.1825,2025-01-29 10:38:56,0.0
-13305.25,703.7,-26397.0,-4407.675,-865.3475,-3438.1825,2025-01-29 10:38:56,0.0
-13413.25,755.7,-26845.0,-4743.675,-1053.3475,-3533.1825,2025-01-29 10:38:56,0.0
-13141.25,979.7,-26985.0,-5188.675,-1341.3475,-3689.1825,2025-01-29 10:38:56,0.0
-12789.25,983.7,-26717.0,-5550.675,-1670.3475,-4035.1825,2025-01-29 10:38:56,0.0
-11969.25,591.7,-27029.0,-5836.675,-1902.3475,-4552.1825,2025-01-29 10:38:56,0.0
-11141.25,-100.30000000000001,-27181.0,-5940.675,-1607.3475,-5153.1825,2025-01-29 10:38:56,0.0
-10005.25,-356.3,-28145.0,-6277.675,-826.3475,-5604.1825,2025-01-29 10:38:56,0.0
-9421.25,-576.3,-28573.0,-6890.675,339.65250000000003,-5865.1825,2025-01-29 10:38:56,0.0
-9481.25,-1268.3,-27757.0,-7288.675,1905.6525,-6245.1825,2025-01-29 10:38:56,0.0
-10465.25,-1908.3,-27165.0,-7615.675,3060.6525,-6434.1825,2025-01-29 10:38:56,0.0
-12017.25,-2280.3,-26665.0,-7994.675,4084.6525,-6256.1825,2025-01-29 10:38:56,0.0
-13033.25,-2656.3,-27281.0,-8105.675,4278.6525,-6068.1825,2025-01-29 10:38:56,0.0
-13601.25,-2564.3,-27529.0,-8175.675,3548.6525,-6348.1825,2025-01-29 10:38:56,0.0
-14577.25,-2376.3,-27197.0,-8131.675,2743.6525,-7157.1825,2025-01-29 10:38:56,0.0
-15613.25,-2016.3,-26589.0,-8012.675,1682.6525,-7823.1825,2025-01-29 10:38:56,0.0
-15809.25,-1824.3,-26561.0,-7975.675,551.6525,-8046.1825,2025-01-29 10:38:56,0.0
-15225.25,-2136.3,-26705.0,-8202.675,-484.34749999999997,-8210.1825,2025-01-29 10:38:56,0.0
-14317.25,-2816.3,-26937.0,-8696.675,-996.3475,-8373.1825,2025-01-29 10:38:56,0.0
-13397.25,-3244.3,-26549.0,-9090.675,-1154.3475,-8464.1825,2025-01-29 10:38:56,0.0
-12493.25,-3248.3,-26365.0,-9198.675,-640.3475,-8610.1825,2025-01-29 10:38:56,0.0
-12165.25,-3256.3,-26445.0,-9191.675,-15.347499999999997,-8615.1825,2025-01-29 10:38:56,0.0
-11893.25,-2956.3,-26577.0,-9176.675,461.65250000000003,-8492.1825,2025-01-29 10:38:56,0.0
-11813.25,-2560.3,-26169.0,-9142.675,775.6525,-8484.1825,2025-01-29 10:38:56,0.0
-12149.25,-2384.3,-26005.0,-9197.675,843.6525,-8511.1825,2025-01-29 10:38:56,0.0
-12485.25,-2644.3,-26041.0,-9298.675,462.65250000000003,-8394.1825,2025-01-29 10:38:56,0.0
-12501.25,-3068.3,-26561.0,-9244.675,-81.3475,-8215.1825,2025-01-29 10:38:56,0.0
-12433.25,-3532.3,-27357.0,-9342.675,-717.3475,-7950.1825,2025-01-29 10:38:56,0.0
-12197.25,-3900.3,-27765.0,-9490.675,-1188.3475,-7430.1825,2025-01-29 10:38:56,0.0
-12337.25,-4396.3,-27637.0,-9561.675,-680.3475,-6920.1825,2025-01-29 10:38:56,0.0
-12841.25,-4812.3,-26625.0,-9478.675,-175.3475,-6464.1825,2025-01-29 10:38:56,0.0
-13401.25,-4296.3,-25473.0,-9257.675,-148.3475,-6094.1825,2025-01-29 10:38:56,0.0
-13417.25,-3592.3,-25797.0,-9086.675,-734.3475,-5573.1825,2025-01-29 10:38:56,0.0
-13309.25,-2936.3,-26701.0,-9180.675,-1327.3475,-4770.1825,2025-01-29 10:38:56,0.0
-11873.25,-3036.3,-27225.0,-9554.675,-1017.3475,-4720.1825,2025-01-29 10:38:56,0.0
-11201.25,-3076.3,-26637.0,-9952.675,204.6525,-5689.1825,2025-01-29 10:38:56,0.0
-12229.25,-3148.3,-26281.0,-10331.675,1034.6525,-6525.1825,2025-01-29 10:38:56,0.0
-13605.25,-3096.3,-26269.0,-10564.675,799.6525,-6542.1825,2025-01-29 10:38:56,0.0
-14453.25,-3376.3,-26309.0,-10687.675,36.6525,-6335.1825,2025-01-29 10:38:56,0.0
-15221.25,-3352.3,-26209.0,-10721.675,-1353.3475,-6139.1825,2025-01-29 10:38:56,0.0
-15057.25,-3356.3,-26893.0,-10666.675,-3136.3475,-5886.1825,2025-01-29 10:38:56,0.0
-14345.25,-2836.3,-28465.0,-10375.675,-4752.3475,-5454.1825,2025-01-29 10:38:56,0.0
-13233.25,-2352.3,-28649.0,-10325.675,-5790.3475,-4797.1825,2025-01-29 10:38:56,0.0
-11681.25,-1752.3,-27313.0,-9822.675,-5699.3475,-4247.1825,2025-01-29 10:38:56,0.0
-10553.25,-1144.3,-26801.0,-9397.675,-4454.3475,-4517.1825,2025-01-29 10:38:56,0.0
-10253.25,-384.3,-27093.0,-9281.675,-2083.3475,-5152.1825,2025-01-29 10:38:56,0.0
-11133.25,-40.30000000000001,-26913.0,-9475.675,328.65250000000003,-5628.1825,2025-01-29 10:38:56,0.0
-11677.25,163.7,-26305.0,-9335.675,1221.6525,-5583.1825,2025-01-29 10:38:56,0.0
-11845.25,583.7,-26957.0,-9339.675,1317.6525,-5451.1825,2025-01-29 10:38:56,0.0
-12049.25,971.7,-27757.0,-9698.675,1320.6525,-5443.1825,2025-01-29 10:38:56,0.0
-12429.25,1291.7,-27953.0,-10173.675,1406.6525,-5670.1825,2025-01-29 10:38:56,0.0
-13321.25,1843.7,-27765.0,-10702.675,948.6525,-5662.1825,2025-01-29 10:38:56,
-13725.25,1851.7,-26849.0,-11106.675,209.6525,-5525.1825,2025-01-29 10:38:56,0.0
-13933.25,2203.7,-26649.0,-11444.675,-552.3475,-5470.1825,2025-01-29 10:38:56,0.0
-13981.25,2655.7,-27661.0,-12082.675,-772.3475,-5491.1825,2025-01-29 10:38:56,0.0
-13789.25,2543.7,-28449.0,-12938.675,-461.34749999999997,-5621.1825,2025-01-29 10:38:56,0.0
-13713.25,1167.7,-28101.0,-13616.675,-238.3475,-5821.1825,2025-01-29 10:38:56,0.0
-13873.25,-700.3,-26461.0,-13549.675,-247.3475,-5883.1825,2025-01-29 10:38:56,0.0
-13981.25,-1672.3,-25433.0,-12841.675,-567.3475,-5702.1825,2025-01-29 10:38:56,0.0
-13653.25,-1792.3,-24717.0,-12043.675,-978.3475,-5334.1825,2025-01-29 10:38:56,0.0
-13145.25,-1540.3,-24461.0,-11156.675,-1180.3475,-5008.1825,2025-01-29 10:38:57,0.0
-12753.25,-612.3,-24605.0,-10261.675,-1082.3475,-4741.1825,2025-01-29 10:38:57,0.0
-12677.25,311.7,-24893.0,-9721.675,-696.3475,-4513.1825,2025-01-29 10:38:57,0.0
-12649.25,1043.7,-25093.0,-9296.675,-140.3475,-4439.1825,2025-01-29 10:38:57,0.0
-12937.25,1563.7,-25381.0,-8921.675,256.65250000000003,-4389.1825,2025-01-29 10:38:57,0.0
-13001.25,1679.7,-25941.0,-8615.675,332.65250000000003,-4329.1825,2025-01-29 10:38:57,0.0
-13081.25,1571.7,-26225.0,-8605.675,54.6525,-4518.1825,2025-01-29 10:38:57,0.0
-13069.25,1203.7,-25605.0,-8487.675,-502.34749999999997,-4589.1825,2025-01-29 10:38:57,0.0
-12937.25,1159.7,-25485.0,-8171.675,-664.3475,-4393.1825,2025-01-29 10:38:57,0.0
-12373.25,1339.7,-25517.0,-8027.675,-88.3475,-4203.1825,2025-01-29 10:38:57,0.0
-12153.25,1595.7,-25589.0,-7798.675,756.6525,-4261.1825,2025-01-29 10:38:57,0.0
-12165.25,1835.7,-26201.0,-7726.675,1502.6525,-4398.1825,2025-01-29 10:38:57,0.0
-12417.25,1995.7,-26769.0,-7778.675,1838.6525,-4650.1825,2025-01-29 10:38:57,0.0
-12765.25,1951.7,-26845.0,-7971.675,1853.6525,-4887.1825,2025-01-29 10:38:57,0.0
-13045.25,1971.7,-26585.0,-8111.675,1433.6525,-5080.1825,2025-01-29 10:38:57,0.0
-13277.25,1875.7,-26525.0,-8268.675,453.65250000000003,-5263.1825,2025-01-29 10:38:57,0.0
-12809.25,1715.7,-26781.0,-8399.675,-239.3475,-5398.1825,2025-01-29 10:38:57,0.0
-12521.25,1739.7,-26741.0,-8573.675,-707.3475,-5595.1825,2025-01-29 10:38:57,0.0
-12433.25,1883.7,-26841.0,-8757.675,-553.3475,-5664.1825,2025-01-29 10:38:57,0.0
-12073.25,2303.7,-27025.0,-8927.675,-223.3475,-5692.1825,2025-01-29 10:38:57,0.0
-12029.25,2607.7,-26573.0,-9289.675,-128.3475,-6101.1825,2025-01-29 10:38:57,0.0
-12245.25,2663.7,-26577.0,-9402.675,-62.3475,-6475.1825,2025-01-29 10:38:57,0.0
-12333.25,2287.7,-26581.0,-9316.675,-132.3475,-6680.1825,2025-01-29 10:38:57,0.0
-12337.25,1651.7,-27141.0,-9254.675,-121.3475,-6865.1825,2025-01-29 10:38:57,0.0
-12989.25,1371.7,-26613.0,-9161.675,-69.3475,-6914.1825,2025-01-29 10:38:57,0.0
-13365.25,1279.7,-26237.0,-8888.675,90.6525,-6755.1825,2025-01-29 10:38:57,0.0
-13249.25,1023.7,-26333.0,-8806.675,53.6525,-6696.1825,2025-01-29 10:38:57,0.0
-13229.25,1019.7,-26169.0,-8745.675,-92.3475,-6593.1825,2025-01-29 10:38:57,0.0
-13045.25,1135.7,-26017.0,-8479.675,-180.3475,-6469.1825,2025-01-29 10:38:57,0.0
-12817.25,995.7,-25713.0,-8224.675,50.6525,-6508.1825,2025-01-29 10:38:57,0.0
-13077.25,647.7,-25481.0,-7948.675,311.65250000000003,-6551.1825,2025-01-29 10:38:57,0.0
-13433.25,483.7,-25197.0,-7492.675,266.65250000000003,-6496.1825,2025-01-29 10:38:57,0.0
-13621.25,211.7,-24797.0,-7088.675,185.6525,-6376.1825,2025-01-29 10:38:57,0.0
-13605.25,215.7,-24309.0,-6623.675,1.6525000000000034,-6177.1825,2025-01-29 10:38:57,0.0
-13361.25,7.699999999999989,-24493.0,-5903.675,-69.3475,-5910.1825,2025-01-29 10:38:57,0.0
-12741.25,-108.30000000000001,-24773.0,-5162.675,102.6525,-5790.1825,2025-01-29 10:38:57,0.0
-12385.25,-196.3,-24757.0,-4505.675,352.65250000000003,-5891.1825,2025-01-29 10:38:57,0.0
-12397.25,-424.3,-24445.0,-4013.675,583.6525,-6029.1825,2025-01-29 10:38:57,0.0
-12437.25,-648.3,-24093.0,-3275.675,1133.6525,-6098.1825,2025-01-29 10:38:57,0.0
-12481.25,-876.3,-24681.0,-2283.675,2500.6525,-5915.1825,2025-01-29 10:38:57,0.0
-12785.25,-1804.3,-26165.0,-1591.675,4457.6525,-5779.1825,2025-01-29 10:38:57,0.0
-14541.25,-1648.3,-27349.0,-1006.675,6334.6525,-5045.1825,2025-01-29 10:38:57,0.0
-15853.25,-512.3,-29413.0,-930.675,7862.6525,-3640.1825,2025-01-29 10:38:57,0.0
-16701.25,631.7,-29629.0,-1637.675,7647.6525,-2801.1825,2025-01-29 10:38:57,0.0
-17105.25,1503.7,-28065.0,-1994.675,4383.6525,-2269.1825,2025-01-29 10:38:57,0.0
-15553.25,1471.7,-26961.0,-2032.675,-1533.3475,-2635.1825,2025-01-29 10:38:57,0.0
-14001.25,-328.3,-25577.0,-2166.675,-6761.3475,-3321.1825,2025-01-29 10:38:57,0.0
-11881.25,-1752.3,-25181.0,-1861.675,-7419.3475,-3308.1825,2025-01-29 10:38:57,0.0
-10929.25,-2564.3,-24905.0,-1452.675,-5324.3475,-3294.1825,2025-01-29 10:38:57,0.0
-11029.25,-2348.3,-24801.0,-1200.675,-1805.3475,-2800.1825,2025-01-29 10:38:57,0.0
-10929.25,-1192.3,-25045.0,-1277.675,533.6525,-2264.1825,2025-01-29 10:38:57,0.0
-11369.25,67.69999999999999,-25453.0,-1735.675,1105.6525,-2036.1825,2025-01-29 10:38:57,0.0
-11989.25,1015.7,-26337.0,-2674.675,1153.6525,-2094.1825,2025-01-29 10:38:57,0.0
-12333.25,1123.7,-27349.0,-3827.675,1291.6525,-2599.1825,2025-01-29 10:38:57,0.0
-12749.25,247.7,-28141.0,-4921.675,1563.6525,-3659.1825,2025-01-29 10:38:57,0.0
-13809.25,-1004.3,-28373.0,-5768.675,1470.6525,-4780.1825,2025-01-29 10:38:57,0.0
-14845.25,-2552.3,-28697.0,-6065.675,837.6525,-5383.1825,2025-01-29 10:38:57,0.0
-15429.25,-3512.3,-28137.0,-5871.675,-13.347499999999997,-5617.1825,2025-01-29 10:38:57,0.0
-15241.25,-3376.3,-26837.0,-5434.675,-1103.3475,-5739.1825,2025-01-29 10:38:57,0.0
-14701.25,-2704.3,-26125.0,-5269.675,-1570.3475,-5712.1825,2025-01-29 10:38:57,0.0
-13797.25,-2224.3,-25713.0,-5154.675,-1700.3475,-5675.1825,2025-01-29 10:38:57,0.0
-12649.25,-1900.3,-25437.0,-5284.675,-1666.3475,-5836.1825,2025-01-29 10:38:57,0.0
-12213.25,-1784.3,-25089.0,-5615.675,-1330.3475,-6123.1825,2025-01-29 10:38:58,0.0
-12181.25,-1808.3,-25093.0,-6088.675,-801.3475,-6491.1825,2025-01-29 10:38:58,0.0
-12349.25,-1848.3,-25121.0,-6582.675,-368.34749999999997,-6808.1825,2025-01-29 10:38:58,0.0
-12725.25,-1596.3,-25569.0,-7006.675,-211.3475,-7099.1825,2025-01-29 10:38:58,0.0
-13277.25,-1044.3,-25805.0,-7417.675,-385.34749999999997,-7166.1825,2025-01-29 10:38:58,0.0
-13493.25,-812.3,-25841.0,-7848.675,-849.3475,-6970.1825,2025-01-29 10:38:58,0.0
-13533.25,-1072.3,-25585.0,-8221.675,-1142.3475,-6716.1825,2025-01-29 10:38:58,0.0
-13297.25,-1560.3,-25353.0,-8490.675,-1426.3475,-6593.1825,2025-01-29 10:38:58,0.0
-13213.25,-2288.3,-25257.0,-8563.675,-1644.3475,-6572.1825,2025-01-29 10:38:58,0.0
-13113.25,-2784.3,-25217.0,-8404.675,-1432.3475,-6405.1825,2025-01-29 10:38:58,0.0
-12953.25,-2820.3,-25157.0,-8173.675,-400.34749999999997,-6262.1825,2025-01-29 10:38:58,0.0
-13249.25,-2688.3,-25169.0,-7915.675,479.65250000000003,-5925.1825,2025-01-29 10:38:58,0.0
-13549.25,-2860.3,-25257.0,-7648.675,728.6525,-5434.1825,2025-01-29 10:38:58,0.0
-14165.25,-3228.3,-25049.0,-7391.675,659.6525,-5139.1825,2025-01-29 10:38:58,0.0
-14701.25,-3360.3,-25185.0,-7215.675,244.6525,-4792.1825,2025-01-29 10:38:58,0.0
-14709.25,-3004.3,-24713.0,-6817.675,-668.3475,-4358.1825,2025-01-29 10:38:58,0.0
-14345.25,-2708.3,-24229.0,-6346.675,-1191.3475,-4243.1825,2025-01-29 10:38:58,0.0
-14077.25,-2568.3,-23597.0,-5777.675,-1569.3475,-3970.1825,2025-01-29 10:38:58,0.0
-13445.25,-2820.3,-23605.0,-5193.675,-1529.3475,-3604.1825,2025-01-29 10:38:58,0.0
-12949.25,-3688.3,-24309.0,-4791.675,-760.3475,-3512.1825,2025-01-29 10:38:58,0.0
-13189.25,-3940.3,-24813.0,-4553.675,209.6525,-3399.1825,2025-01-29 10:38:58,0.0
-13581.25,-3728.3,-24885.0,-4393.675,490.65250000000003,-3248.1825,2025-01-29 10:38:58,0.0
-14005.25,-2836.3,-24821.0,-4297.675,300.65250000000003,-2916.1825,2025-01-29 10:38:58,0.0
-13817.25,-1688.3,-25429.0,-4357.675,180.6525,-2678.1825,2025-01-29 10:38:58,0.0
-13765.25,-1676.3,-25285.0,-4516.675,63.6525,-2542.1825,2025-01-29 10:38:58,0.0
-13313.25,-1776.3,-25041.0,-4595.675,147.6525,-2548.1825,2025-01-29 10:38:58,0.0
-13157.25,-2272.3,-25017.0,-4577.675,446.65250000000003,-2747.1825,2025-01-29 10:38:58,0.0
-13409.25,-2580.3,-24733.0,-4651.675,497.65250000000003,-2918.1825,2025-01-29 10:38:58,0.0
-13725.25,-2580.3,-24693.0,-4532.675,135.6525,-2958.1825,2025-01-29 10:38:58,0.0
-13465.25,-1964.3,-24405.0,-4551.675,-9.347499999999997,-2984.1825,2025-01-29 10:38:58,
-13345.25,-1420.3,-24721.0,-4731.675,-83.3475,-2886.1825,2025-01-29 10:38:58,0.0
-13153.25,-1420.3,-24901.0,-5075.675,342.65250000000003,-2962.1825,2025-01-29 10:38:58,0.0
-13121.25,-2064.3,-24785.0,-5337.675,913.6525,-3140.1825,2025-01-29 10:38:58,0.0
-13369.25,-2940.3,-24553.0,-5290.675,1293.6525,-3254.1825,2025-01-29 10:38:58,0.0
-13405.25,-3420.3,-24413.0,-5104.675,1461.6525,-3287.1825,2025-01-29 10:38:58,0.0
-13613.25,-3168.3,-24869.0,-5107.675,1864.6525,-3444.1825,2025-01-29 10:38:58,0.0
-14045.25,-2536.3,-25141.0,-5211.675,2140.6525,-3599.1825,2025-01-29 10:38:58,0.0
-14597.25,-2280.3,-25345.0,-5463.675,1967.6525,-3551.1825,2025-01-29 10:38:58,0.0
-14449.25,-1712.3,-26457.0,-5307.675,1573.6525,-3686.1825,2025-01-29 10:38:58,0.0
-14353.25,-1724.3,-27665.0,-4996.675,1385.6525,-4080.1825,2025-01-29 10:38:58,0.0
-14801.25,-4072.3,-26225.0,-3763.675,2053.6525,-4887.1825,2025-01-29 10:38:58,0.0
-15381.25,-5720.3,-26437.0,-2316.675,1960.6525,-5491.1825,2025-01-29 10:38:58,0.0
-16617.25,-6536.3,-26561.0,-1215.675,1076.6525,-5077.1825,2025-01-29 10:38:58,0.0
-17449.25,-6380.3,-27105.0,-406.675,-379.34749999999997,-3575.1825,2025-01-29 10:38:58,0.0
-17129.25,-4808.3,-27925.0,-251.675,-1503.3475,-1199.1825,2025-01-29 10:38:58,0.0
-15689.25,-3168.3,-27657.0,-589.675,-1950.3475,219.8175,2025-01-29 10:38:58,0.0
-15017.25,-2648.3,-27685.0,-1007.675,-2684.3475,1191.8175,2025-01-29 10:38:58,0.0
-14069.25,-2680.3,-27221.0,-1322.675,-2784.3475,1998.8175,2025-01-29 10:38:58,0.0
-13741.25,-2592.3,-27237.0,-1289.675,-2419.3475,2376.8175,2025-01-29 10:38:58,0.0
-13073.25,-2164.3,-28049.0,-1354.675,-2647.3475,2699.8175,2025-01-29 10:38:58,0.0
-12121.25,-2160.3,-28089.0,-1516.675,-2896.3475,2770.8175,2025-01-29 10:38:58,0.0
-11189.25,-1492.3,-28085.0,-1663.675,-3275.3475,2623.8175,2025-01-29 10:38:58,0.0
-10037.25,239.7,-27401.0,-2121.675,-3510.3475,2222.8175,2025-01-29 10:38:58,0.0
-8957.25,1555.7,-27757.0,-2673.675,-3182.3475,1651.8175,2025-01-29 10:38:58,0.0
-8057.25,2471.7,-28041.0,-3483.675,-1756.3475,746.8175,2025-01-29 10:38:58,0.0
-8645.25,1671.7,-27569.0,-3991.675,727.6525,-282.1825,2025-01-29 10:38:58,0.0
-10589.25,75.69999999999999,-26829.0,-3896.675,2873.6525,-492.1825,2025-01-29 10:38:58,0.0
-12161.25,-1360.3,-26617.0,-3377.675,4530.6525,-293.1825,2025-01-29 10:38:58,0.0
-13401.25,-2344.3,-26973.0,-2832.675,5051.6525,-52.182500000000005,2025-01-29 10:38:58,0.0
-14873.25,-2904.3,-27337.0,-2259.675,3954.6525,523.8175,2025-01-29 10:38:59,0.0
-15733.25,-2628.3,-26733.0,-1686.675,1829.6525,1408.8175,2025-01-29 10:38:59,0.0
-15685.25,-1376.3,-26697.0,-1276.675,-511.34749999999997,2180.8175,2025-01-29 10:38:59,0.0
-15105.25,-460.3,-26721.0,-1199.675,-2395.3475,2880.8175,2025-01-29 10:38:59,0.0
-13701.25,667.7,-26777.0,-1085.675,-3876.3475,3390.8175,2025-01-29 10:38:59,0.0
-11933.25,1203.7,-26173.0,-890.675,-4189.3475,3540.8175,2025-01-29 10:38:59,0.0
-10589.25,1215.7,-25361.0,-744.675,-2976.3475,2981.8175,2025-01-29 10:38:59,0.0
-10401.25,911.7,-24773.0,-510.675,-1134.3475,2251.8175,2025-01-29 10:38:59,0.0
-10969.25,679.7,-24869.0,-238.675,525.6525,1893.8175,2025-01-29 10:38:59,0.0
-12041.25,619.7,-25289.0,-124.67500000000001,1400.6525,1889.8175,2025-01-29 10:38:59,0.0
-12721.25,635.7,-25301.0,23.32499999999999,1355.6525,1886.8175,2025-01-29 10:38:59,0.0
-13069.25,619.7,-25261.0,153.325,602.6525,1577.8175,2025-01-29 10:38:59,0.0
-13173.25,927.7,-25289.0,302.325,-955.3475,1285.8175,2025-01-29 10:38:59,0.0
-12669.25,1267.7,-24857.0,363.325,-2013.3475,1035.8175,2025-01-29 10:38:59,0.0
-11869.25,1503.7,-24769.0,490.325,-2504.3475,474.8175,2025-01-29 10:38:59,0.0
-11749.25,1799.7,-24729.0,706.325,-2658.3475,-190.1825,2025-01-29 10:38:59,0.0
-11573.25,1695.7,-24869.0,924.325,-2828.3475,-937.1825,2025-01-29 10:38:59,0.0
-12061.25,1579.7,-24385.0,1215.325,-2836.3475,-1487.1825,2025-01-29 10:38:59,0.0
-12037.25,1363.7,-24801.0,1508.325,-3064.3475,-2006.1825,2025-01-29 10:38:59,0.0
-12205.25,1079.7,-24769.0,1617.325,-3231.3475,-2555.1825,2025-01-29 10:38:59,0.0
-13157.25,935.7,-24293.0,1754.325,-3039.3475,-2603.1825,2025-01-29 10:38:59,0.0
-13933.25,779.7,-23481.0,1838.325,-1919.3475,-1681.1825,2025-01-29 10:38:59,0.0
-14105.25,323.7,-22993.0,1637.325,-338.34749999999997,-703.1825,2025-01-29 10:38:59,0.0
-14169.25,-268.3,-22761.0,1684.325,1398.6525,-102.1825,2025-01-29 10:38:59,0.0
-14793.25,-756.3,-23265.0,2099.325,3003.6525,261.8175,2025-01-29 10:38:59,0.0
-15465.25,-956.3,-24057.0,2760.325,3826.6525,607.8175,2025-01-29 10:38:59,0.0
-16341.25,-1796.3,-24689.0,3482.325,3548.6525,850.8175,2025-01-29 10:38:59,0.0
-17529.25,-1552.3,-24397.0,4308.325,1788.6525,1212.8175,2025-01-29 10:38:59,0.0
-18181.25,911.7,-24493.0,4403.325,26.652500000000003,1854.8175,2025-01-29 10:38:59,0.0
-16665.25,1707.7,-23429.0,4325.325,-1344.3475,2006.8175,2025-01-29 10:38:59,0.0
-15533.25,1227.7,-23913.0,4231.325,-1370.3475,1720.8175,2025-01-29 10:38:59,0.0
-14901.25,-584.3,-25465.0,4018.325,403.65250000000003,1763.8175,2025-01-29 10:38:59,0.0
-15965.25,-460.3,-26489.0,3704.325,3020.6525,1788.8175,2025-01-29 10:38:59,0.0
-17101.25,1543.7,-27785.0,2826.325,4494.6525,2316.8175,2025-01-29 10:38:59,0.0
-18377.25,3395.7,-30057.0,1346.325,4681.6525,3168.8175,2025-01-29 10:38:59,0.0
-17885.25,4607.7,-32249.0,-599.675,3629.6525,3374.8175,2025-01-29 10:38:59,0.0
-16473.25,4711.7,-32421.0,-3005.675,1579.6525,2417.8175,2025-01-29 10:38:59,0.0
-13281.25,2247.7,-29165.0,-4421.675,-3062.3475,-46.182500000000005,2025-01-29 10:38:59,0.0
-11661.25,-480.3,-26937.0,-4069.675,-5676.3475,-1332.1825,2025-01-29 10:38:59,0.0
-9357.25,-2020.3,-25089.0,-2949.675,-6589.3475,-1880.1825,2025-01-29 10:38:59,0.0
-7953.25,-3284.3,-23909.0,-1414.675,-5950.3475,-2281.1825,2025-01-29 10:38:59,0.0
-7397.25,-4172.3,-24341.0,17.32499999999999,-4028.3475,-2303.1825,2025-01-29 10:38:59,0.0
-7277.25,-4780.3,-26349.0,1128.325,-465.34749999999997,-2332.1825,2025-01-29 10:38:59,0.0
-8617.25,-4176.3,-28101.0,1649.325,4471.6525,-2648.1825,2025-01-29 10:38:59,0.0
-10501.25,-2652.3,-29141.0,1481.325,6803.6525,-2820.1825,2025-01-29 10:38:59,0.0
-12565.25,-1228.3,-29317.0,841.325,6943.6525,-2826.1825,2025-01-29 10:38:59,0.0
-14569.25,-516.3,-28513.0,69.32499999999999,5093.6525,-2745.1825,2025-01-29 10:38:59,0.0
-15325.25,-144.3,-27601.0,-431.675,1848.6525,-2728.1825,2025-01-29 10:38:59,0.0
-15157.25,-652.3,-27393.0,-691.675,-1745.3475,-2936.1825,2025-01-29 10:38:59,0.0
-14205.25,-1272.3,-27537.0,-701.675,-3878.3475,-3171.1825,2025-01-29 10:38:59,0.0
-12065.25,-1864.3,-28169.0,-575.675,-5276.3475,-3159.1825,2025-01-29 10:38:59,0.0
-11105.25,-2056.3,-27181.0,-528.675,-5188.3475,-3090.1825,2025-01-29 10:38:59,0.0
-10005.25,-1804.3,-26301.0,-525.675,-3695.3475,-3024.1825,2025-01-29 10:38:59,0.0
-9329.25,-1456.3,-25845.0,-866.675,-1031.3475,-3172.1825,2025-01-29 10:38:59,0.0
-9809.25,-1464.3,-25357.0,-1157.675,1429.6525,-3521.1825,2025-01-29 10:38:59,0.0
-11173.25,-1648.3,-25409.0,-1346.675,3023.6525,-3868.1825,2025-01-29 10:38:59,0.0
-12305.25,-1700.3,-25537.0,-1491.675,3258.6525,-4048.1825,2025-01-29 10:38:59,0.0
-13449.25,-2336.3,-25845.0,-1659.675,2764.6525,-4064.1825,2025-01-29 10:38:59,0.0
-13993.25,-2992.3,-25621.0,-1635.675,1820.6525,-3650.1825,2025-01-29 10:38:59,0.0
-14089.25,-3188.3,-25349.0,-1384.675,780.6525,-3071.1825,2025-01-29 10:38:59,0.0
-13405.25,-2892.3,-25477.0,-1193.675,84.6525,-2449.1825,2025-01-29 10:38:59,0.0
-12881.25,-2488.3,-25549.0,-1307.675,-57.3475,-2291.1825,2025-01-29 10:38:59,0.0
-12753.25,-1504.3,-25321.0,-1648.675,215.6525,-2210.1825,2025-01-29 10:39:00,0.0
-12885.25,-988.3,-25325.0,-2032.675,434.65250000000003,-2043.1825,2025-01-29 10:39:00,0.0
-13193.25,-924.3,-25357.0,-2524.675,734.6525,-1811.1825,2025-01-29 10:39:00,0.0
-13593.25,-1488.3,-25025.0,-2868.675,801.6525,-1582.1825,2025-01-29 10:39:00,0.0
-13841.25,-2212.3,-24661.0,-3007.675,459.65250000000003,-1370.1825,2025-01-29 10:39:00,0.0
-13777.25,-2960.3,-24557.0,-2962.675,-89.3475,-1151.1825,2025-01-29 10:39:00,0.0
-13689.25,-3052.3,-23977.0,-2807.675,-810.3475,-1040.1825,2025-01-29 10:39:00,0.0
-13189.25,-3084.3,-24197.0,-2663.675,-1054.3475,-593.1825,2025-01-29 10:39:00,0.0
-11821.25,-3116.3,-24841.0,-2538.675,-301.34749999999997,-523.1825,2025-01-29 10:39:00,
-11977.25,-2508.3,-24945.0,-2546.675,1320.6525,-833.1825,2025-01-29 10:39:00,0.0
-12653.25,-2032.3,-24989.0,-2624.675,2589.6525,-945.1825,2025-01-29 10:39:00,0.0
-13409.25,-1736.3,-25289.0,-2740.675,2794.6525,-1194.1825,2025-01-29 10:39:00,0.0
-13745.25,-2164.3,-25633.0,-2936.675,2188.6525,-1682.1825,2025-01-29 10:39:00,0.0
-14077.25,-2404.3,-25573.0,-3145.675,1386.6525,-2115.1825,2025-01-29 10:39:00,0.0
-14629.25,-1972.3,-25617.0,-3295.675,775.6525,-2789.1825,2025-01-29 10:39:00,0.0
-15261.25,-1668.3,-25129.0,-3553.675,62.6525,-3457.1825,2025-01-29 10:39:00,0.0
-16129.25,-2040.3,-24581.0,-3857.675,-866.3475,-3814.1825,2025-01-29 10:39:00,0.0
-16333.25,-3140.3,-25409.0,-3854.675,-1541.3475,-4005.1825,2025-01-29 10:39:00,0.0
-16037.25,-4648.3,-26653.0,-3376.675,-1037.3475,-4066.1825,2025-01-29 10:39:00,0.0
-15961.25,-6096.3,-26657.0,-1924.675,4.652500000000003,-4111.1825,2025-01-29 10:39:00,0.0
-16385.25,-7060.3,-27561.0,-148.675,344.65250000000003,-3992.1825,2025-01-29 10:39:00,0.0
-17877.25,-6792.3,-27677.0,1249.325,-184.3475,-3070.1825,2025-01-29 10:39:00,0.0
-19145.25,-5260.3,-28601.0,1694.325,-2379.3475,-807.1825,2025-01-29 10:39:00,0.0
-18005.25,-3612.3,-29141.0,995.325,-4315.3475,1471.8175,2025-01-29 10:39:00,0.0
-15153.25,-2080.3,-28493.0,341.325,-5817.3475,2297.8175,2025-01-29 10:39:00,0.0
-12709.25,-1684.3,-28285.0,-473.675,-7230.3475,2814.8175,2025-01-29 10:39:00,0.0
-9785.25,-1356.3,-28169.0,-970.675,-7412.3475,3025.8175,2025-01-29 10:39:00,0.0
-7725.25,-148.3,-27997.0,-1253.675,-5724.3475,2725.8175,2025-01-29 10:39:00,0.0
-7293.25,767.7,-27781.0,-1286.675,-2510.3475,2074.8175,2025-01-29 10:39:00,0.0
-7517.25,987.7,-27349.0,-1140.675,1926.6525,1091.8175,2025-01-29 10:39:00,0.0
-8693.25,859.7,-27413.0,-853.675,5602.6525,195.8175,2025-01-29 10:39:00,0.0
-11121.25,-164.3,-27277.0,-739.675,7021.6525,-11.182500000000005,2025-01-29 10:39:00,0.0
-13209.25,-976.3,-27549.0,-843.675,6939.6525,390.8175,2025-01-29 10:39:00,0.0
-14245.25,-1480.3,-27789.0,-984.675,5296.6525,1042.8175,2025-01-29 10:39:00,0.0
-14797.25,-1752.3,-27877.0,-740.675,2392.6525,1537.8175,2025-01-29 10:39:00,0.0
-15493.25,-1716.3,-27777.0,-590.675,94.6525,2130.8175,2025-01-29 10:39:00,0.0
-14809.25,-944.3,-27533.0,-443.675,-1828.3475,3010.8175,2025-01-29 10:39:00,0.0
-13205.25,-284.3,-27481.0,-446.675,-3095.3475,3694.8175,2025-01-29 10:39:00,0.0
-11981.25,267.7,-26529.0,-312.675,-3724.3475,3877.8175,2025-01-29 10:39:00,0.0
-10305.25,515.7,-25949.0,-257.675,-3134.3475,3524.8175,2025-01-29 10:39:00,0.0
-9769.25,351.7,-25517.0,-137.675,-1737.3475,2850.8175,2025-01-29 10:39:00,0.0
-9581.25,267.7,-25117.0,-8.675000000000011,233.6525,2148.8175,2025-01-29 10:39:00,0.0
-11029.25,115.69999999999999,-24889.0,150.325,1828.6525,1610.8175,2025-01-29 10:39:00,0.0
-12105.25,239.7,-25469.0,142.325,2471.6525,1538.8175,2025-01-29 10:39:00,0.0
-12989.25,483.7,-25537.0,171.325,2147.6525,1678.8175,2025-01-29 10:39:00,0.0
-13873.25,759.7,-24813.0,167.325,1152.6525,1534.8175,2025-01-29 10:39:00,0.0
-13345.25,787.7,-25933.0,390.325,-612.3475,1014.8175,2025-01-29 10:39:00,0.0
-13085.25,443.7,-25973.0,370.325,-1759.3475,538.8175,2025-01-29 10:39:00,0.0
-12589.25,299.7,-25189.0,405.325,-2462.3475,280.8175,2025-01-29 10:39:00,0.0
-12141.25,211.7,-24545.0,451.325,-2546.3475,-23.182500000000005,2025-01-29 10:39:00,0.0
-12001.25,-52.30000000000001,-24173.0,555.325,-2092.3475,-277.1825,2025-01-29 10:39:00,0.0
-12049.25,-192.3,-24073.0,738.325,-1347.3475,-606.1825,2025-01-29 10:39:00,0.0
-12689.25,-36.30000000000001,-23741.0,1012.325,-777.3475,-862.1825,2025-01-29 10:39:00,0.0
-13369.25,71.69999999999999,-23829.0,1207.325,-665.3475,-1029.1825,2025-01-29 10:39:00,0.0
-14413.25,307.7,-24389.0,1341.325,-989.3475,-996.1825,2025-01-29 10:39:00,0.0
-15041.25,655.7,-24825.0,1418.325,-1696.3475,-600.1825,2025-01-29 10:39:00,0.0
-15357.25,407.7,-24193.0,1612.325,-2943.3475,-123.1825,2025-01-29 10:39:00,0.0
-14933.25,-60.30000000000001,-23981.0,2017.325,-4199.3475,278.8175,2025-01-29 10:39:00,0.0
-13985.25,-300.3,-23977.0,2359.325,-4809.3475,634.8175,2025-01-29 10:39:00,0.0
-12985.25,-300.3,-23501.0,2697.325,-4425.3475,749.8175,2025-01-29 10:39:00,0.0
-12497.25,-1188.3,-23273.0,2860.325,-2751.3475,661.8175,2025-01-29 10:39:00,0.0
-12993.25,-1116.3,-22869.0,3407.325,186.6525,859.8175,2025-01-29 10:39:01,0.0
-14581.25,335.7,-23757.0,3591.325,2749.6525,1568.8175,2025-01-29 10:39:01,0.0
-15325.25,855.7,-24173.0,3549.325,3482.6525,2196.8175,2025-01-29 10:39:01,0.0
-15913.25,547.7,-23677.0,3565.325,3503.6525,2124.8175,2025-01-29 10:39:01,0.0
-17033.25,-1216.3,-24221.0,3776.325,3427.6525,1923.8175,2025-01-29 10:39:01,0.0
-17745.25,-1616.3,-25201.0,4275.325,3329.6525,2075.8175,2025-01-29 10:39:01,0.0
-18073.25,823.7,-27613.0,4124.325,3407.6525,2804.8175,2025-01-29 10:39:01,0.0
-17505.25,3399.7,-30721.0,2150.325,3362.6525,3463.8175,2025-01-29 10:39:01,0.0
-16713.25,4907.7,-31609.0,-236.675,2966.6525,3386.8175,2025-01-29 10:39:01,0.0
-15213.25,4903.7,-30917.0,-2076.675,1425.6525,2126.8175,2025-01-29 10:39:01,0.0
-14425.25,3567.7,-29381.0,-3098.675,-474.34749999999997,53.817499999999995,2025-01-29 10:39:01,0.0
-14405.25,2243.7,-28509.0,-3481.675,-1638.3475,-986.1825,2025-01-29 10:39:01,0.0
-13153.25,239.7,-27385.0,-3181.675,-2579.3475,-1241.1825,2025-01-29 10:39:01,0.0
-11261.25,-1380.3,-25801.0,-2131.675,-3564.3475,-1684.1825,2025-01-29 10:39:01,0.0
-9369.25,-2984.3,-24709.0,-670.675,-4342.3475,-2545.1825,2025-01-29 10:39:01,0.0
-9229.25,-3832.3,-24021.0,832.325,-4074.3475,-2437.1825,2025-01-29 10:39:01,0.0
-9229.25,-4744.3,-24497.0,1805.325,-2045.3475,-1587.1825,2025-01-29 10:39:01,0.0
-9429.25,-5260.3,-26413.0,2245.325,2035.6525,-740.1825,2025-01-29 10:39:01,0.0
-10265.25,-4564.3,-27169.0,2218.325,5843.6525,-331.1825,2025-01-29 10:39:01,0.0
-12033.25,-3056.3,-27457.0,2453.325,7447.6525,-206.1825,2025-01-29 10:39:01,0.0
-13417.25,-1536.3,-28505.0,2405.325,6632.6525,-284.1825,2025-01-29 10:39:01,0.0
-14405.25,-396.3,-28329.0,2017.325,3509.6525,-700.1825,2025-01-29 10:39:01,0.0
-15093.25,-260.3,-27849.0,1550.325,96.6525,-1140.1825,2025-01-29 10:39:01,0.0
-14985.25,-568.3,-27189.0,1004.325,-2143.3475,-1421.1825,2025-01-29 10:39:01,0.0
-13689.25,-976.3,-27501.0,913.325,-3329.3475,-1695.1825,2025-01-29 10:39:01,0.0
-12345.25,-1168.3,-27901.0,733.325,-4003.3475,-1835.1825,2025-01-29 10:39:01,0.0
-11573.25,-1436.3,-27009.0,487.325,-3996.3475,-1849.1825,2025-01-29 10:39:01,0.0
-10773.25,-1388.3,-26197.0,58.32499999999999,-3026.3475,-2067.1825,2025-01-29 10:39:01,0.0
-11085.25,-1368.3,-24801.0,-448.675,-1681.3475,-2341.1825,2025-01-29 10:39:01,0.0
-11129.25,-1624.3,-24909.0,-945.675,-324.34749999999997,-2537.1825,2025-01-29 10:39:01,0.0
-12117.25,-1904.3,-24249.0,-1262.675,666.6525,-2751.1825,2025-01-29 10:39:01,0.0
-13077.25,-1952.3,-24197.0,-1391.675,814.6525,-2877.1825,2025-01-29 10:39:01,0.0
-13889.25,-1760.3,-24001.0,-1500.675,589.6525,-2799.1825,2025-01-29 10:39:01,0.0
-14173.25,-1916.3,-23965.0,-1554.675,82.6525,-2713.1825,2025-01-29 10:39:01,0.0
-13753.25,-2180.3,-24333.0,-1662.675,-276.34749999999997,-2549.1825,2025-01-29 10:39:01,0.0
-13121.25,-2668.3,-24513.0,-1819.675,-593.3475,-2465.1825,2025-01-29 10:39:01,0.0
-13145.25,-2684.3,-23661.0,-1964.675,-283.34749999999997,-2157.1825,2025-01-29 10:39:01,0.0
-13081.25,-2208.3,-23741.0,-2146.675,245.6525,-1825.1825,2025-01-29 10:39:01,0.0
-13149.25,-1528.3,-23925.0,-2436.675,644.6525,-1619.1825,2025-01-29 10:39:01,0.0
-13381.25,-1000.3,-23793.0,-2992.675,812.6525,-1345.1825,2025-01-29 10:39:01,0.0
-13673.25,-968.3,-23761.0,-3483.675,548.6525,-1081.1825,2025-01-29 10:39:01,0.0
-13625.25,-1596.3,-23665.0,-3668.675,10.652500000000003,-917.1825,2025-01-29 10:39:01,0.0
-13361.25,-2476.3,-24137.0,-3911.675,109.6525,-1101.1825,2025-01-29 10:39:01,0.0
-13521.25,-2776.3,-24121.0,-3902.675,291.65250000000003,-1460.1825,2025-01-29 10:39:01,0.0
-14069.25,-2772.3,-24937.0,-3637.675,156.6525,-1593.1825,2025-01-29 10:39:01,0.0
-14137.25,-2444.3,-25141.0,-3378.675,242.6525,-1580.1825,2025-01-29 10:39:01,0.0
-14301.25,-2288.3,-24773.0,-3345.675,249.6525,-1594.1825,2025-01-29 10:39:01,0.0
-14313.25,-2368.3,-24377.0,-3328.675,160.6525,-2051.1825,2025-01-29 10:39:01,
-14793.25,-2768.3,-24185.0,-3495.675,-58.3475,-2689.1825,2025-01-29 10:39:01,0.0
-15113.25,-2940.3,-23741.0,-3631.675,-989.3475,-3216.1825,2025-01-29 10:39:01,0.0
-15105.25,-2928.3,-24469.0,-3314.675,-1074.3475,-3572.1825,2025-01-29 10:39:01,0.0
-14997.25,-2460.3,-25817.0,-3145.675,-5.347499999999997,-3794.1825,2025-01-29 10:39:01,0.0
-14941.25,-3752.3,-25553.0,-2934.675,1490.6525,-4058.1825,2025-01-29 10:39:01,0.0
-15517.25,-6096.3,-26233.0,-2271.675,2765.6525,-4418.1825,2025-01-29 10:39:01,0.0
-17217.25,-7684.3,-26989.0,-1207.675,3213.6525,-3660.1825,2025-01-29 10:39:01,0.0
-19045.25,-7080.3,-27901.0,222.325,1865.6525,-1036.1825,2025-01-29 10:39:01,0.0
-18005.25,-5212.3,-28813.0,1177.325,240.6525,768.8175,2025-01-29 10:39:01,0.0
-16617.25,-3264.3,-30121.0,1352.325,-2278.3475,929.8175,2025-01-29 10:39:01,0.0
-15957.25,-1508.3,-30405.0,766.325,-4869.3475,1373.8175,2025-01-29 10:39:01,0.0
-14289.25,-444.3,-30481.0,-297.675,-6754.3475,2353.8175,2025-01-29 10:39:01,0.0
-11805.25,99.69999999999999,-29929.0,-1388.675,-7336.3475,3305.8175,2025-01-29 10:39:01,0.0
-9465.25,803.7,-29001.0,-1926.675,-6843.3475,3711.8175,2025-01-29 10:39:01,0.0
-7341.25,1491.7,-28113.0,-2449.675,-4868.3475,3297.8175,2025-01-29 10:39:02,0.0
-6201.25,1739.7,-27121.0,-2926.675,-1799.3475,1992.8175,2025-01-29 10:39:02,0.0
-6609.25,1271.7,-25677.0,-2664.675,2097.6525,-60.182500000000005,2025-01-29 10:39:02,0.0
-9309.25,155.7,-25661.0,-2211.675,4910.6525,-1114.1825,2025-01-29 10:39:02,0.0
-12085.25,-704.3,-26113.0,-1861.675,6542.6525,-919.1825,2025-01-29 10:39:02,0.0
-14017.25,-956.3,-27001.0,-1787.675,7108.6525,-471.1825,2025-01-29 10:39:02,0.0
-15865.25,-996.3,-27445.0,-1710.675,5759.6525,53.817499999999995,2025-01-29 10:39:02,0.0
-17197.25,-1232.3,-27361.0,-1442.675,2726.6525,879.8175,2025-01-29 10:39:02,0.0
-16949.25,-812.3,-26825.0,-1057.675,-1420.3475,2280.8175,2025-01-29 10:39:02,0.0
-14569.25,-360.3,-27061.0,-943.675,-4331.3475,2933.8175,2025-01-29 10:39:02,0.0
-12381.25,-132.3,-25793.0,-842.675,-5208.3475,3016.8175,2025-01-29 10:39:02,0.0
-10685.25,-136.3,-24725.0,-386.675,-4327.3475,2676.8175,2025-01-29 10:39:02,0.0
-9613.25,163.7,-23785.0,57.32499999999999,-2153.3475,2201.8175,2025-01-29 10:39:02,0.0
-9341.25,195.7,-24249.0,405.325,574.6525,1714.8175,2025-01-29 10:39:02,0.0
-10709.25,319.7,-24501.0,743.325,3132.6525,1277.8175,2025-01-29 10:39:02,0.0
-12305.25,335.7,-25161.0,953.325,3978.6525,1290.8175,2025-01-29 10:39:02,0.0
-13345.25,627.7,-25717.0,941.325,3419.6525,1363.8175,2025-01-29 10:39:02,0.0
-13989.25,951.7,-25653.0,1024.325,1715.6525,1179.8175,2025-01-29 10:39:02,0.0
-14201.25,1023.7,-25749.0,1158.325,-183.3475,957.8175,2025-01-29 10:39:02,0.0
-13225.25,1151.7,-25413.0,1166.325,-1656.3475,644.8175,2025-01-29 10:39:02,0.0
-12689.25,823.7,-24661.0,1168.325,-2143.3475,163.8175,2025-01-29 10:39:02,0.0
-12449.25,135.7,-24193.0,1372.325,-1818.3475,-166.1825,2025-01-29 10:39:02,0.0
-12385.25,-168.3,-24257.0,1585.325,-1037.3475,-333.1825,2025-01-29 10:39:02,0.0
-12577.25,-192.3,-24373.0,1797.325,-52.3475,-466.1825,2025-01-29 10:39:02,0.0
-13329.25,395.7,-24981.0,1927.325,533.6525,-509.1825,2025-01-29 10:39:02,0.0
-14089.25,659.7,-25085.0,1924.325,571.6525,-596.1825,2025-01-29 10:39:02,0.0
-14801.25,779.7,-24957.0,2017.325,-260.34749999999997,-463.1825,2025-01-29 10:39:02,0.0
-14789.25,555.7,-24601.0,2315.325,-1874.3475,-385.1825,2025-01-29 10:39:02,0.0
-13985.25,279.7,-24421.0,2778.325,-3070.3475,-409.1825,2025-01-29 10:39:02,0.0
-13553.25,-444.3,-24477.0,3164.325,-2958.3475,-391.1825,2025-01-29 10:39:02,0.0
-13169.25,-248.3,-24669.0,3276.325,-2093.3475,-244.1825,2025-01-29 10:39:02,0.0
-13097.25,19.69999999999999,-24741.0,3034.325,-1241.3475,66.8175,2025-01-29 10:39:02,0.0
-13253.25,139.7,-24549.0,2768.325,-288.34749999999997,300.8175,2025-01-29 10:39:02,0.0
-13817.25,299.7,-24973.0,2537.325,676.6525,589.8175,2025-01-29 10:39:02,0.0
-14653.25,411.7,-24649.0,2407.325,1452.6525,711.8175,2025-01-29 10:39:02,0.0
-15965.25,607.7,-24285.0,2444.325,1051.6525,890.8175,2025-01-29 10:39:02,0.0
-16405.25,547.7,-24069.0,2633.325,-470.34749999999997,979.8175,2025-01-29 10:39:02,0.0
-16493.25,483.7,-23749.0,2995.325,-1517.3475,1049.8175,2025-01-29 10:39:02,0.0
-15941.25,-1156.3,-24945.0,3330.325,-1138.3475,1244.8175,2025-01-29 10:39:02,0.0
-15233.25,-1712.3,-25541.0,3533.325,166.6525,1508.8175,2025-01-29 10:39:02,0.0
-14941.25,-992.3,-27109.0,3483.325,1646.6525,1705.8175,2025-01-29 10:39:02,0.0
-15125.25,131.7,-28301.0,3081.325,3004.6525,1756.8175,2025-01-29 10:39:02,0.0
-15917.25,1191.7,-28725.0,2176.325,3323.6525,1743.8175,2025-01-29 10:39:02,0.0
-15797.25,1215.7,-28393.0,1353.325,1804.6525,1069.8175,2025-01-29 10:39:02,0.0
-15613.25,827.7,-28669.0,991.325,-14.347499999999997,305.8175,2025-01-29 10:39:02,0.0
-15657.25,-116.30000000000001,-28481.0,789.325,-1003.3475,436.8175,2025-01-29 10:39:02,0.0
-13737.25,-804.3,-27029.0,827.325,-1451.3475,572.8175,2025-01-29 10:39:02,0.0
-11765.25,-1060.3,-25969.0,1224.325,-2091.3475,31.817499999999995,2025-01-29 10:39:02,0.0
-10745.25,-1684.3,-25945.0,1795.325,-2086.3475,-280.1825,2025-01-29 10:39:02,0.0
-9773.25,-2660.3,-26081.0,2148.325,-1141.3475,-652.1825,2025-01-29 10:39:02,0.0
-9497.25,-3720.3,-26137.0,2724.325,86.6525,-1025.1825,2025-01-29 10:39:02,0.0
-10501.25,-4080.3,-26869.0,3139.325,1287.6525,-950.1825,2025-01-29 10:39:02,0.0
-11425.25,-3968.3,-27681.0,3158.325,2431.6525,-376.1825,2025-01-29 10:39:02,0.0
-12249.25,-3080.3,-27377.0,3347.325,2391.6525,196.8175,2025-01-29 10:39:02,0.0
-12809.25,-1940.3,-27469.0,3237.325,1975.6525,452.8175,2025-01-29 10:39:02,0.0
-13273.25,-812.3,-28049.0,2672.325,1786.6525,185.8175,2025-01-29 10:39:02,0.0
-13785.25,-56.30000000000001,-28701.0,1922.325,983.6525,-267.1825,2025-01-29 10:39:02,0.0
-14017.25,-300.3,-29001.0,1135.325,-946.3475,-893.1825,2025-01-29 10:39:02,0.0
-13741.25,-1412.3,-28577.0,239.325,-3675.3475,-1223.1825,2025-01-29 10:39:02,0.0
-12849.25,-2236.3,-27093.0,-246.675,-5416.3475,-1023.1825,2025-01-29 10:39:02,0.0
-10749.25,-2852.3,-25401.0,-303.675,-5135.3475,-1054.1825,2025-01-29 10:39:03,0.0
-9421.25,-3072.3,-24445.0,-183.675,-3130.3475,-1401.1825,2025-01-29 10:39:03,0.0
-8977.25,-3296.3,-24501.0,-64.67500000000001,-131.3475,-1742.1825,2025-01-29 10:39:03,0.0
-9541.25,-3376.3,-25013.0,-71.67500000000001,2851.6525,-2081.1825,2025-01-29 10:39:03,0.0
-11369.25,-3392.3,-25869.0,-315.675,4864.6525,-2225.1825,2025-01-29 10:39:03,0.0
-13525.25,-2784.3,-26321.0,-615.675,4966.6525,-2063.1825,2025-01-29 10:39:03,0.0
-15093.25,-2648.3,-26133.0,-822.675,3139.6525,-1905.1825,2025-01-29 10:39:03,0.0
-15481.25,-2944.3,-25685.0,-768.675,343.65250000000003,-1608.1825,2025-01-29 10:39:03,0.0
-14329.25,-2964.3,-26053.0,-747.675,-1387.3475,-1368.1825,2025-01-29 10:39:03,0.0
-12921.25,-2540.3,-26193.0,-870.675,-1428.3475,-1473.1825,2025-01-29 10:39:03,0.0
-12281.25,-2180.3,-26345.0,-1102.675,-683.3475,-1444.1825,2025-01-29 10:39:03,0.0
-11989.25,-2072.3,-26269.0,-1388.675,290.65250000000003,-1327.1825,2025-01-29 10:39:03,0.0
-11785.25,-2324.3,-26249.0,-1669.675,1007.6525,-1267.1825,2025-01-29 10:39:03,0.0
-12713.25,-2508.3,-26129.0,-1824.675,1303.6525,-1157.1825,2025-01-29 10:39:03,0.0
-13473.25,-2728.3,-26421.0,-1904.675,1093.6525,-926.1825,2025-01-29 10:39:03,0.0
-13893.25,-2516.3,-26853.0,-2011.675,441.65250000000003,-616.1825,2025-01-29 10:39:03,0.0
-14229.25,-2516.3,-26761.0,-2217.675,-512.3475,-158.1825,2025-01-29 10:39:03,0.0
-14189.25,-3056.3,-26041.0,-2417.675,-1526.3475,426.8175,2025-01-29 10:39:03,0.0
-13341.25,-2884.3,-25689.0,-2443.675,-2089.3475,1087.8175,2025-01-29 10:39:03,0.0
-12533.25,-2752.3,-25901.0,-2303.675,-1706.3475,1152.8175,2025-01-29 10:39:03,0.0
-12565.25,-2220.3,-25793.0,-1787.675,-356.34749999999997,749.8175,2025-01-29 10:39:03,0.0
-13037.25,-1408.3,-26081.0,-1123.675,900.6525,189.8175,2025-01-29 10:39:03,0.0
-13885.25,-676.3,-26213.0,-907.675,804.6525,-316.1825,2025-01-29 10:39:03,0.0
-14261.25,-952.3,-26101.0,-1249.675,-473.34749999999997,-524.1825,2025-01-29 10:39:03,0.0
-13949.25,-1844.3,-25817.0,-1463.675,-1361.3475,-511.1825,2025-01-29 10:39:03,0.0
-13429.25,-2192.3,-25461.0,-1686.675,-1479.3475,-556.1825,2025-01-29 10:39:03,
