acceleration_x,acceleration_y,acceleration_z,gyroscope_x,gyroscope_y,gyroscope_z,timestamp,label
372,448,18276,-279,234,-250,2025-01-29 11:13:37,0.0
376,504,18324,-294,104,-291,2025-01-29 11:13:37,0.0
472,520,18172,-213,-2,-349,2025-01-29 11:13:37,0.0
492,276,18344,-224,61,-292,2025-01-29 11:13:37,0.0
460,424,18404,-305,283,-247,2025-01-29 11:13:37,0.0
600,436,18588,-307,440,-266,2025-01-29 11:13:37,0.0
428,404,18344,-231,276,-305,2025-01-29 11:13:37,0.0
300,448,18376,-177,313,-158,2025-01-29 11:13:37,0.0
260,524,18560,-95,424,-4,2025-01-29 11:13:37,0.0
400,388,18628,-82,179,34,2025-01-29 11:13:37,0.0
492,228,18380,-134,76,-43,2025-01-29 11:13:37,0.0
692,336,18224,-256,202,-208,2025-01-29 11:13:37,0.0
496,284,18168,-323,363,-332,2025-01-29 11:13:37,0.0
96,400,18264,-407,424,-277,2025-01-29 11:13:37,0.0
248,476,18536,-363,142,-131,2025-01-29 11:13:37,0.0
344,360,18492,-223,1,-190,2025-01-29 11:13:37,0.0
616,380,18508,-102,-105,-321,2025-01-29 11:13:37,0.0
524,392,18412,-31,-217,-463,2025-01-29 11:13:37,0.0
340,504,18456,-57,222,-379,2025-01-29 11:13:37,0.0
312,576,18592,-105,334,-203,2025-01-29 11:13:37,0.0
176,496,18552,-179,252,-49,2025-01-29 11:13:38,0.0
408,308,18644,-180,371,26,2025-01-29 11:13:38,0.0
708,472,18632,-148,145,-47,2025-01-29 11:13:38,0.0
516,220,18412,-78,212,-157,2025-01-29 11:13:38,0.0
492,404,18324,-116,502,-235,2025-01-29 11:13:38,0.0
392,416,18196,-140,531,-182,2025-01-29 11:13:38,0.0
224,304,18332,-211,386,-36,2025-01-29 11:13:38,0.0
208,228,18212,-253,396,-31,2025-01-29 11:13:38,0.0
212,196,18152,-247,152,-111,2025-01-29 11:13:38,0.0
412,336,18328,-165,135,-199,2025-01-29 11:13:38,0.0
584,488,18552,-83,180,-280,2025-01-29 11:13:38,0.0
452,444,18356,-32,233,-364,2025-01-29 11:13:38,0.0
316,432,18392,-103,214,-274,2025-01-29 11:13:38,0.0
340,440,18468,-138,98,-185,2025-01-29 11:13:38,0.0
400,388,18428,-175,115,-128,2025-01-29 11:13:38,0.0
456,324,18432,-280,199,-112,2025-01-29 11:13:38,0.0
520,344,18368,-350,341,-62,2025-01-29 11:13:38,0.0
520,424,18468,-236,400,-167,2025-01-29 11:13:38,0.0
460,252,18492,-148,259,-212,2025-01-29 11:13:38,0.0
320,304,18488,-73,182,-231,2025-01-29 11:13:38,0.0
264,316,18524,-83,427,-307,2025-01-29 11:13:38,0.0
364,340,18292,-133,463,-343,2025-01-29 11:13:38,0.0
252,440,18320,-149,177,-366,2025-01-29 11:13:38,0.0
36,436,18560,-101,115,-289,2025-01-29 11:13:38,0.0
268,472,18620,-64,130,-173,2025-01-29 11:13:38,0.0
356,344,18396,-87,250,-114,2025-01-29 11:13:38,0.0
228,512,18356,-124,468,-60,2025-01-29 11:13:38,0.0
156,304,18432,-186,431,24,2025-01-29 11:13:38,0.0
408,320,18436,-238,218,-37,2025-01-29 11:13:38,0.0
432,372,18396,-231,263,-146,2025-01-29 11:13:38,0.0
276,428,18428,-155,441,-224,2025-01-29 11:13:38,0.0
168,376,18348,-73,331,-141,2025-01-29 11:13:38,0.0
260,404,18300,-74,104,-127,2025-01-29 11:13:38,0.0
424,316,18412,-76,29,-210,2025-01-29 11:13:38,0.0
424,320,18228,-84,5,-366,2025-01-29 11:13:38,0.0
112,480,18232,-116,253,-240,2025-01-29 11:13:38,0.0
220,388,18116,-322,291,-65,2025-01-29 11:13:38,0.0
472,304,18484,-333,-80,-143,2025-01-29 11:13:38,0.0
408,440,18584,-238,-210,-297,2025-01-29 11:13:38,0.0
568,440,18540,-26,49,-412,2025-01-29 11:13:38,0.0
328,456,18316,50,247,-435,2025-01-29 11:13:38,0.0
200,460,18260,3,403,-353,2025-01-29 11:13:38,0.0
-12,416,18472,-81,261,-131,2025-01-29 11:13:38,0.0
-60,408,18300,-155,99,66,2025-01-29 11:13:38,0.0
344,388,18512,-122,-52,92,2025-01-29 11:13:38,0.0
404,496,18640,-15,-97,38,2025-01-29 11:13:38,0.0
428,364,18648,121,95,-68,2025-01-29 11:13:38,0.0
364,372,18292,63,288,-33,2025-01-29 11:13:38,0.0
344,456,18260,-36,301,-18,2025-01-29 11:13:38,0.0
480,348,18396,-48,183,-86,2025-01-29 11:13:38,0.0
428,412,18428,43,333,-294,2025-01-29 11:13:38,0.0
188,528,18508,195,412,-329,2025-01-29 11:13:38,0.0
140,696,18412,231,215,-438,2025-01-29 11:13:38,0.0
240,744,18524,270,-38,-437,2025-01-29 11:13:38,0.0
172,604,18364,115,-141,-217,2025-01-29 11:13:38,0.0
272,640,18104,-175,178,21,2025-01-29 11:13:38,0.0
336,532,18440,-352,386,109,2025-01-29 11:13:38,0.0
408,436,18600,-346,352,46,2025-01-29 11:13:38,0.0
348,476,18504,-371,389,57,2025-01-29 11:13:38,0.0
296,228,18016,-438,458,-59,2025-01-29 11:13:38,0.0
400,188,18296,-436,275,-342,2025-01-29 11:13:39,0.0
232,280,18392,-313,411,-469,2025-01-29 11:13:39,0.0
136,380,18236,-223,472,-432,2025-01-29 11:13:39,0.0
-116,388,18128,-245,309,-292,2025-01-29 11:13:39,0.0
-28,416,18084,-292,70,-196,2025-01-29 11:13:39,0.0
44,444,18268,-229,-87,-155,2025-01-29 11:13:39,0.0
112,612,18408,23,-299,-163,2025-01-29 11:13:39,0.0
128,556,18348,90,-245,-109,2025-01-29 11:13:39,0.0
172,428,18344,-4,-58,61,2025-01-29 11:13:39,0.0
300,760,18444,-68,-30,115,2025-01-29 11:13:39,0.0
360,740,18292,-151,-80,146,2025-01-29 11:13:39,0.0
372,504,18244,-347,-108,117,2025-01-29 11:13:39,0.0
348,344,18128,-638,-233,-59,2025-01-29 11:13:39,0.0
512,320,18332,-860,-17,-119,2025-01-29 11:13:39,0.0
656,288,18596,-1020,35,-276,2025-01-29 11:13:39,0.0
484,180,18644,-984,149,-369,2025-01-29 11:13:39,0.0
240,308,18800,-722,295,-352,2025-01-29 11:13:39,0.0
216,252,18816,-395,293,-360,2025-01-29 11:13:39,0.0
304,288,18792,-38,66,-435,2025-01-29 11:13:39,0.0
232,384,18600,178,-230,-518,2025-01-29 11:13:39,
92,520,18324,215,-71,-344,2025-01-29 11:13:39,0.0
-16,504,18448,140,120,-57,2025-01-29 11:13:39,0.0
132,400,18320,-12,204,105,2025-01-29 11:13:39,0.0
408,416,18432,-121,-8,218,2025-01-29 11:13:39,0.0
768,360,18496,-192,-39,107,2025-01-29 11:13:39,0.0
852,352,18468,-222,224,-75,2025-01-29 11:13:39,0.0
604,356,18184,-245,529,-219,2025-01-29 11:13:39,0.0
208,432,18332,-237,712,-210,2025-01-29 11:13:39,0.0
84,268,18352,-239,394,-37,2025-01-29 11:13:39,0.0
144,276,18376,-306,16,95,2025-01-29 11:13:39,0.0
320,208,18104,-284,-4,40,2025-01-29 11:13:39,0.0
584,124,18388,-231,51,-184,2025-01-29 11:13:39,0.0
556,340,18580,-173,96,-363,2025-01-29 11:13:39,0.0
368,288,18368,-156,284,-388,2025-01-29 11:13:39,0.0
152,316,18260,-223,295,-361,2025-01-29 11:13:39,0.0
248,472,18300,-210,65,-266,2025-01-29 11:13:39,0.0
300,500,18356,-227,-201,-148,2025-01-29 11:13:39,0.0
496,388,18288,-241,102,-90,2025-01-29 11:13:39,0.0
580,304,18268,-293,353,-111,2025-01-29 11:13:39,0.0
388,276,18416,-286,292,-262,2025-01-29 11:13:39,0.0
104,332,18268,-265,93,-175,2025-01-29 11:13:39,0.0
208,456,18148,-174,-171,-56,2025-01-29 11:13:39,0.0
352,312,18236,-130,-227,12,2025-01-29 11:13:39,0.0
320,496,18476,-99,-89,79,2025-01-29 11:13:39,0.0
376,524,18544,10,69,132,2025-01-29 11:13:39,0.0
724,376,18536,12,-79,33,2025-01-29 11:13:39,0.0
656,328,18528,-42,-67,-156,2025-01-29 11:13:39,0.0
632,384,18672,-188,78,-212,2025-01-29 11:13:39,0.0
580,308,18480,-327,277,-361,2025-01-29 11:13:39,0.0
428,380,18212,-465,424,-435,2025-01-29 11:13:39,0.0
356,468,18480,-537,456,-426,2025-01-29 11:13:39,0.0
320,416,18512,-451,330,-426,2025-01-29 11:13:39,0.0
208,324,18616,-397,192,-377,2025-01-29 11:13:39,0.0
232,344,18408,-334,240,-340,2025-01-29 11:13:39,0.0
24,232,18332,-367,435,-187,2025-01-29 11:13:39,0.0
264,288,18456,-306,288,-84,2025-01-29 11:13:39,0.0
324,348,18672,-142,70,-141,2025-01-29 11:13:39,0.0
384,368,18632,99,-47,-185,2025-01-29 11:13:39,0.0
540,248,18240,94,268,-304,2025-01-29 11:13:39,0.0
456,316,18124,54,517,-319,2025-01-29 11:13:39,0.0
340,384,18148,-19,454,-291,2025-01-29 11:13:39,0.0
240,320,18276,-201,178,-166,2025-01-29 11:13:39,0.0
408,324,18404,-299,-128,-183,2025-01-29 11:13:39,0.0
396,484,18544,-237,-25,-153,2025-01-29 11:13:40,0.0
492,368,18412,-201,258,-128,2025-01-29 11:13:40,0.0
656,304,18568,-134,460,-197,2025-01-29 11:13:40,0.0
424,228,18288,-43,443,-215,2025-01-29 11:13:40,0.0
488,396,18244,-14,455,-84,2025-01-29 11:13:40,0.0
600,348,18192,-63,132,-154,2025-01-29 11:13:40,0.0
688,140,18476,36,-354,-370,2025-01-29 11:13:40,0.0
632,260,18468,55,-548,-554,2025-01-29 11:13:40,0.0
860,460,18648,148,-643,-673,2025-01-29 11:13:40,0.0
980,384,19128,289,-1439,-885,2025-01-29 11:13:40,0.0
1344,604,19148,395,-2479,-1376,2025-01-29 11:13:40,0.0
1268,148,18196,-112,-4252,-1622,2025-01-29 11:13:40,0.0
320,340,19276,-1113,-7721,-1481,2025-01-29 11:13:40,0.0
180,756,22216,-1564,-14480,-1279,2025-01-29 11:13:40,0.0
-1036,484,25008,-325,-24957,-186,2025-01-29 11:13:40,0.0
124,-104,21060,106,-32768,1757,2025-01-29 11:13:40,0.0
48,3164,27788,-1747,-32768,5486,2025-01-29 11:13:40,0.0
4516,2132,20312,-1345,-32768,8413,2025-01-29 11:13:40,0.0
11632,964,19380,-612,-32768,6305,2025-01-29 11:13:40,0.0
14084,-1504,14916,-795,-32768,1225,2025-01-29 11:13:40,0.0
13988,204,11700,-4815,-32768,-2522,2025-01-29 11:13:40,0.0
13180,648,15772,-6720,-32768,-4193,2025-01-29 11:13:40,0.0
12592,936,16740,-4885,-32768,-4715,2025-01-29 11:13:40,0.0
10540,260,12508,-3124,-32768,-3902,2025-01-29 11:13:40,0.0
7868,-236,7504,-1512,-32768,-2325,2025-01-29 11:13:40,0.0
4204,376,3216,1714,-32768,-1773,2025-01-29 11:13:40,0.0
5944,936,-3792,3816,-32768,-2869,2025-01-29 11:13:40,0.0
7992,-1212,-10760,3785,-32768,-7034,2025-01-29 11:13:40,0.0
2672,-444,-9728,2954,-32768,-10268,2025-01-29 11:13:40,0.0
-1884,-552,-13824,2825,-32768,-11586,2025-01-29 11:13:40,0.0
-9004,-2072,-19616,3377,-32768,-10019,2025-01-29 11:13:40,0.0
-10396,-2860,-21048,3319,-30160,-6980,2025-01-29 11:13:40,0.0
-4636,-1516,-18436,2897,-16650,-4182,2025-01-29 11:13:40,0.0
-3720,1088,-16764,2467,-15109,-2174,2025-01-29 11:13:40,0.0
-2680,1324,-19084,1818,-9224,-147,2025-01-29 11:13:40,0.0
-3584,-1012,-19292,562,-2613,-114,2025-01-29 11:13:40,0.0
-4632,-1740,-18468,-250,838,804,2025-01-29 11:13:40,0.0
-3924,-1976,-16868,217,2523,2073,2025-01-29 11:13:40,0.0
-2064,-1380,-16672,1345,1812,2625,2025-01-29 11:13:40,0.0
-864,-944,-17348,1794,1212,2730,2025-01-29 11:13:40,0.0
-740,-844,-16536,1860,2005,2312,2025-01-29 11:13:40,0.0
312,-692,-16660,1477,127,2470,2025-01-29 11:13:40,0.0
-40,-108,-15864,1388,-2442,2296,2025-01-29 11:13:40,0.0
-1012,-408,-15800,1387,-1030,1462,2025-01-29 11:13:40,0.0
-1168,-132,-15652,1363,1667,1454,2025-01-29 11:13:40,0.0
-336,-232,-15604,1061,3719,1188,2025-01-29 11:13:40,0.0
-544,28,-14316,819,3765,1236,2025-01-29 11:13:40,0.0
-416,-100,-13340,1039,2682,972,2025-01-29 11:13:40,0.0
-1072,-492,-13776,1107,1316,87,2025-01-29 11:13:40,0.0
-1644,-720,-14948,912,1059,-282,2025-01-29 11:13:40,0.0
-596,-1000,-16180,172,1866,-535,2025-01-29 11:13:40,0.0
-8,-1052,-15748,-429,3060,-732,2025-01-29 11:13:40,0.0
-448,-612,-14972,-700,4666,-137,2025-01-29 11:13:40,0.0
-428,-724,-13948,-445,4281,1098,2025-01-29 11:13:40,0.0
-1152,-920,-14140,-13,1401,605,2025-01-29 11:13:40,0.0
-784,-944,-14704,-155,1140,36,2025-01-29 11:13:40,0.0
380,-664,-16016,-365,1630,-205,2025-01-29 11:13:40,
3856,-1344,-18332,-383,759,-332,2025-01-29 11:13:40,0.0
-132,-4,-14568,35,1233,543,2025-01-29 11:13:40,0.0
-152,-1468,-14924,-185,500,349,2025-01-29 11:13:41,0.0
-696,-140,-14816,-502,1344,586,2025-01-29 11:13:41,0.0
444,-596,-14932,-720,1259,64,2025-01-29 11:13:41,0.0
796,-512,-16196,-1348,1836,-803,2025-01-29 11:13:41,0.0
432,-132,-14652,-1191,2487,-780,2025-01-29 11:13:41,0.0
520,-584,-14188,-382,756,-425,2025-01-29 11:13:41,0.0
52,-732,-14996,336,-273,327,2025-01-29 11:13:41,0.0
-368,-792,-15032,460,327,488,2025-01-29 11:13:41,0.0
12,-492,-14788,559,1647,364,2025-01-29 11:13:41,0.0
604,-592,-15128,519,1713,65,2025-01-29 11:13:41,0.0
488,-796,-15508,352,649,-49,2025-01-29 11:13:41,0.0
368,-776,-15268,331,577,75,2025-01-29 11:13:41,0.0
216,-924,-15048,193,564,47,2025-01-29 11:13:41,0.0
-184,-788,-14180,-54,1008,42,2025-01-29 11:13:41,0.0
676,-684,-15208,-156,987,-39,2025-01-29 11:13:41,0.0
256,-680,-15124,-310,1071,-132,2025-01-29 11:13:41,0.0
416,-660,-15208,-345,1173,-219,2025-01-29 11:13:41,0.0
480,-700,-15000,8,597,-204,2025-01-29 11:13:41,0.0
200,-728,-15168,81,522,-150,2025-01-29 11:13:41,0.0
324,-876,-15052,2,1181,-139,2025-01-29 11:13:41,0.0
504,-660,-15032,-110,1523,-276,2025-01-29 11:13:41,0.0
768,-828,-15612,-158,2471,-515,2025-01-29 11:13:41,0.0
636,-872,-15428,1,3504,-594,2025-01-29 11:13:41,0.0
600,-892,-15716,339,4773,-292,2025-01-29 11:13:41,0.0
892,-544,-16216,89,6783,396,2025-01-29 11:13:41,0.0
1024,-420,-17052,-775,10008,1002,2025-01-29 11:13:41,0.0
1336,-488,-19128,-1791,16486,1647,2025-01-29 11:13:41,0.0
1288,-440,-21076,-3422,26768,2494,2025-01-29 11:13:41,0.0
2044,-220,-21100,-5047,32767,3025,2025-01-29 11:13:41,0.0
4788,-32,-18512,-5244,32767,2034,2025-01-29 11:13:41,0.0
5144,-464,-16428,-3935,32767,969,2025-01-29 11:13:41,0.0
5640,-1048,-13416,-772,32767,1928,2025-01-29 11:13:41,0.0
10356,-108,-9920,2300,32767,1794,2025-01-29 11:13:41,0.0
13592,544,-4308,6196,32767,560,2025-01-29 11:13:41,0.0
12668,1040,-392,7834,32767,1520,2025-01-29 11:13:41,0.0
10224,-2052,4424,5189,32767,723,2025-01-29 11:13:41,0.0
11968,1264,16740,5892,32767,2744,2025-01-29 11:13:41,0.0
15232,-748,23020,8506,32767,4819,2025-01-29 11:13:41,0.0
23052,-2100,22060,9749,32767,4861,2025-01-29 11:13:41,0.0
20584,-2448,17720,10556,32767,3207,2025-01-29 11:13:41,0.0
13196,-3136,13812,11371,32767,-2396,2025-01-29 11:13:41,0.0
2044,256,10224,7399,30745,-6462,2025-01-29 11:13:41,0.0
-5524,2596,11368,3337,29410,-8656,2025-01-29 11:13:41,0.0
-6472,2048,13988,1878,25314,-8623,2025-01-29 11:13:41,0.0
-5068,-840,14124,-1076,18458,-5851,2025-01-29 11:13:41,0.0
-3288,-2448,16244,-4336,10637,-4340,2025-01-29 11:13:41,0.0
-1972,1120,20520,-4039,890,-4188,2025-01-29 11:13:41,0.0
-2352,2036,18508,-2608,-1331,-4072,2025-01-29 11:13:41,0.0
-2484,152,17324,-2593,191,-3980,2025-01-29 11:13:41,0.0
-2048,-396,18260,-3689,-693,-3446,2025-01-29 11:13:41,0.0
-2440,136,20180,-3005,-2142,-2928,2025-01-29 11:13:41,0.0
-2652,340,19608,-2292,-1767,-2063,2025-01-29 11:13:41,0.0
-2412,564,19628,-1045,-1582,-1036,2025-01-29 11:13:41,0.0
-2516,60,19332,-446,-2328,-236,2025-01-29 11:13:41,0.0
-2100,-72,19676,208,-3276,68,2025-01-29 11:13:41,0.0
-1264,-232,18528,419,-3073,383,2025-01-29 11:13:41,0.0
-72,-372,17864,143,-2059,321,2025-01-29 11:13:41,0.0
100,-216,18464,197,-2074,-93,2025-01-29 11:13:41,0.0
-424,-36,18612,481,-1237,-183,2025-01-29 11:13:41,0.0
-460,0,18332,529,-950,-72,2025-01-29 11:13:41,0.0
-264,-88,18492,317,-828,-60,2025-01-29 11:13:41,0.0
272,-172,18020,-104,-1501,-236,2025-01-29 11:13:41,0.0
172,-104,18004,-189,-1773,-297,2025-01-29 11:13:41,0.0
-148,204,18188,8,-968,-97,2025-01-29 11:13:42,0.0
68,216,17748,238,-230,5,2025-01-29 11:13:42,0.0
-420,104,17960,265,-288,135,2025-01-29 11:13:42,0.0
-4,168,18016,414,-1323,250,2025-01-29 11:13:42,0.0
0,-60,18048,225,-2264,231,2025-01-29 11:13:42,0.0
-336,108,18232,2,-1940,346,2025-01-29 11:13:42,0.0
-88,104,18244,-166,-1363,319,2025-01-29 11:13:42,0.0
280,0,18224,-155,-1085,307,2025-01-29 11:13:42,0.0
620,80,18288,-90,-866,272,2025-01-29 11:13:42,0.0
360,92,18196,-121,-377,135,2025-01-29 11:13:42,0.0
464,-84,18420,-213,-539,110,2025-01-29 11:13:42,0.0
552,-88,18688,-452,-761,71,2025-01-29 11:13:42,0.0
636,-16,18656,-341,-49,-184,2025-01-29 11:13:42,0.0
228,-192,18436,-365,178,-501,2025-01-29 11:13:42,0.0
-168,-172,18220,-549,-2,-477,2025-01-29 11:13:42,0.0
-136,-76,18276,-646,-310,-324,2025-01-29 11:13:42,0.0
440,80,18696,-423,-667,-430,2025-01-29 11:13:42,0.0
472,-96,18480,-162,-693,-704,2025-01-29 11:13:42,0.0
328,-108,18164,-239,-81,-455,2025-01-29 11:13:42,0.0
-108,-44,18140,-530,243,100,2025-01-29 11:13:42,0.0
256,-168,18548,-572,62,327,2025-01-29 11:13:42,0.0
456,-124,18936,-197,33,69,2025-01-29 11:13:42,0.0
392,-220,18540,-98,219,-48,2025-01-29 11:13:42,0.0
168,-104,18316,-95,485,120,2025-01-29 11:13:42,0.0
300,-96,18140,-61,357,26,2025-01-29 11:13:42,0.0
304,-128,18124,-137,245,-323,2025-01-29 11:13:42,0.0
556,64,18236,-302,191,-543,2025-01-29 11:13:42,0.0
576,20,18556,-311,183,-465,2025-01-29 11:13:42,0.0
516,-100,18472,-253,105,-509,2025-01-29 11:13:42,0.0
156,-128,18216,-393,164,-516,2025-01-29 11:13:42,0.0
-288,112,18260,-627,105,-323,2025-01-29 11:13:42,0.0
176,92,18468,-773,-102,-77,2025-01-29 11:13:42,0.0
296,-136,18420,-704,-436,-74,2025-01-29 11:13:42,0.0
372,-52,18580,-599,-40,50,2025-01-29 11:13:42,0.0
488,-200,18808,-465,387,92,2025-01-29 11:13:42,
548,-308,18556,-324,485,-31,2025-01-29 11:13:42,0.0
340,-212,18308,-119,483,-404,2025-01-29 11:13:42,0.0
96,-184,18396,88,341,-716,2025-01-29 11:13:42,0.0
256,-272,18444,86,162,-570,2025-01-29 11:13:42,0.0
280,-176,18204,-205,38,-324,2025-01-29 11:13:42,0.0
532,-80,18608,-195,171,-291,2025-01-29 11:13:42,0.0
480,28,18536,-144,-79,-485,2025-01-29 11:13:42,0.0
540,-72,18316,-38,-47,-487,2025-01-29 11:13:42,0.0
480,-248,18152,-158,304,-380,2025-01-29 11:13:42,0.0
392,-220,18232,-239,589,-413,2025-01-29 11:13:42,0.0
212,-44,18316,-243,607,-416,2025-01-29 11:13:42,0.0
132,-108,18564,-161,456,-430,2025-01-29 11:13:42,0.0
360,-260,18412,-96,152,-409,2025-01-29 11:13:42,0.0
204,-188,18452,-218,148,-312,2025-01-29 11:13:42,0.0
188,-148,18324,-327,163,-79,2025-01-29 11:13:42,0.0
388,-76,18664,-364,-156,-56,2025-01-29 11:13:42,0.0
456,-232,18460,-297,-176,-161,2025-01-29 11:13:42,0.0
300,-168,18680,-182,94,-152,2025-01-29 11:13:42,0.0
364,-140,18196,-254,92,-102,2025-01-29 11:13:42,0.0
284,-312,18280,-489,46,-31,2025-01-29 11:13:42,0.0
476,-108,18248,-492,-84,62,2025-01-29 11:13:42,0.0
304,-244,18160,-550,-166,0,2025-01-29 11:13:42,0.0
436,-288,17972,-534,-300,-25,2025-01-29 11:13:42,0.0
240,-180,18496,-457,-568,-123,2025-01-29 11:13:42,0.0
580,-196,18656,-284,-973,-277,2025-01-29 11:13:42,0.0
592,-232,18728,-129,-886,-178,2025-01-29 11:13:42,0.0
696,-392,18536,-220,-282,-83,2025-01-29 11:13:43,0.0
792,-316,18508,-264,140,-183,2025-01-29 11:13:43,0.0
720,-280,18688,-249,126,-452,2025-01-29 11:13:43,0.0
792,-292,18920,-104,187,-609,2025-01-29 11:13:43,0.0
732,-296,18808,-46,271,-626,2025-01-29 11:13:43,0.0
580,-108,18492,-90,456,-409,2025-01-29 11:13:43,0.0
144,-108,18212,-237,273,-146,2025-01-29 11:13:43,0.0
52,-196,18404,-244,53,91,2025-01-29 11:13:43,0.0
24,-272,18324,-189,35,258,2025-01-29 11:13:43,0.0
404,-188,18172,-216,-323,442,2025-01-29 11:13:43,0.0
536,-272,18420,-199,-299,525,2025-01-29 11:13:43,0.0
1088,-328,18676,-49,-135,391,2025-01-29 11:13:43,0.0
652,-548,18376,-103,480,89,2025-01-29 11:13:43,0.0
652,-352,18220,-223,733,-87,2025-01-29 11:13:43,0.0
604,-248,18256,-350,445,-259,2025-01-29 11:13:43,0.0
396,-336,18272,-492,146,-380,2025-01-29 11:13:43,0.0
504,-212,18488,-477,16,-435,2025-01-29 11:13:43,0.0
392,-196,18624,-245,-149,-429,2025-01-29 11:13:43,0.0
388,-260,18404,-178,-356,-258,2025-01-29 11:13:43,0.0
704,-152,18436,-351,-289,-36,2025-01-29 11:13:43,0.0
800,-236,18476,-351,133,52,2025-01-29 11:13:43,0.0
832,-364,18476,-188,462,-276,2025-01-29 11:13:43,0.0
532,-372,18404,-42,655,-419,2025-01-29 11:13:43,0.0
560,-236,18276,-79,425,-411,2025-01-29 11:13:43,0.0
560,-476,18396,-119,159,-297,2025-01-29 11:13:43,0.0
416,-304,18444,-224,-32,-133,2025-01-29 11:13:43,0.0
524,-204,18600,-271,231,-96,2025-01-29 11:13:43,0.0
720,-208,18556,-232,488,-159,2025-01-29 11:13:43,0.0
696,-304,18612,-73,465,-313,2025-01-29 11:13:43,0.0
376,-328,18208,-46,781,-395,2025-01-29 11:13:43,0.0
392,-444,18232,-244,446,-354,2025-01-29 11:13:43,0.0
56,-264,18384,-358,-24,-179,2025-01-29 11:13:43,0.0
576,-396,18724,-275,190,-238,2025-01-29 11:13:43,0.0
792,-480,18504,-239,217,-497,2025-01-29 11:13:43,0.0
376,-380,18160,-245,491,-546,2025-01-29 11:13:43,0.0
360,-612,17968,-481,299,-530,2025-01-29 11:13:43,0.0
-124,-476,18164,-701,246,-170,2025-01-29 11:13:43,0.0
232,-264,18432,-682,-119,32,2025-01-29 11:13:43,0.0
520,-304,18756,-478,-644,-38,2025-01-29 11:13:43,0.0
948,-292,18884,-116,-670,-297,2025-01-29 11:13:43,0.0
804,-340,18660,119,-149,-516,2025-01-29 11:13:43,0.0
580,-556,18708,21,109,-471,2025-01-29 11:13:43,0.0
280,-432,18348,-268,-91,-145,2025-01-29 11:13:43,0.0
644,-320,18368,-627,-534,52,2025-01-29 11:13:43,0.0
896,-216,18568,-697,-367,-204,2025-01-29 11:13:43,0.0
652,-332,18604,-424,201,-324,2025-01-29 11:13:43,0.0
644,-352,18340,-485,321,-363,2025-01-29 11:13:43,0.0
364,-452,18276,-714,100,-76,2025-01-29 11:13:43,0.0
404,-500,18296,-859,-43,123,2025-01-29 11:13:43,0.0
648,-484,18408,-875,-39,20,2025-01-29 11:13:43,0.0
820,-480,18752,-496,75,-268,2025-01-29 11:13:43,0.0
904,-320,18760,-115,-104,-561,2025-01-29 11:13:43,0.0
632,-504,18528,-2,-398,-765,2025-01-29 11:13:43,0.0
444,-544,18036,-111,-33,-679,2025-01-29 11:13:43,0.0
400,-444,18340,-326,75,-321,2025-01-29 11:13:43,0.0
816,-364,18688,-415,177,13,2025-01-29 11:13:43,0.0
852,-376,18552,-422,465,42,2025-01-29 11:13:43,0.0
660,-412,18260,-353,601,-125,2025-01-29 11:13:43,0.0
284,-452,18400,-160,299,-262,2025-01-29 11:13:43,0.0
424,-436,18520,-108,112,-194,2025-01-29 11:13:43,0.0
576,-636,18488,-175,210,-29,2025-01-29 11:13:44,0.0
680,-484,18484,-232,574,134,2025-01-29 11:13:44,0.0
824,-440,18448,-187,457,-101,2025-01-29 11:13:44,0.0
784,-468,18480,96,43,-440,2025-01-29 11:13:44,0.0
716,-440,18236,232,-371,-751,2025-01-29 11:13:44,0.0
444,-436,18232,146,-772,-631,2025-01-29 11:13:44,0.0
240,-268,18308,-101,-606,-23,2025-01-29 11:13:44,0.0
896,-384,18140,-306,-97,229,2025-01-29 11:13:44,0.0
704,-252,18388,-114,306,140,2025-01-29 11:13:44,0.0
528,-412,18560,123,-788,-78,2025-01-29 11:13:44,0.0
336,-404,18872,290,-2007,-39,2025-01-29 11:13:44,0.0
304,-352,18792,422,-3033,253,2025-01-29 11:13:44,0.0
408,-244,18608,303,-3297,764,2025-01-29 11:13:44,0.0
1392,-372,18472,173,-3148,920,2025-01-29 11:13:44,
1488,-172,18692,388,-2900,704,2025-01-29 11:13:44,0.0
956,-304,18992,620,-2073,619,2025-01-29 11:13:44,0.0
1200,-148,19576,1246,-2179,244,2025-01-29 11:13:44,0.0
1068,-112,20348,2267,-2740,-456,2025-01-29 11:13:44,0.0
1160,-124,20520,3271,-3310,-450,2025-01-29 11:13:44,0.0
1052,244,21752,4564,-3925,-255,2025-01-29 11:13:44,0.0
336,540,23396,7533,-3374,-18,2025-01-29 11:13:44,0.0
-648,1456,24624,11248,-511,508,2025-01-29 11:13:44,0.0
764,1320,24360,14924,224,-219,2025-01-29 11:13:44,0.0
-604,212,24756,16905,-2672,-101,2025-01-29 11:13:44,0.0
1188,1332,25080,20698,-3781,1153,2025-01-29 11:13:44,0.0
1748,1120,26096,23107,-8177,2708,2025-01-29 11:13:44,0.0
2780,2912,24928,25352,-12123,3823,2025-01-29 11:13:44,0.0
-560,2908,22596,27828,-11606,4682,2025-01-29 11:13:44,0.0
1704,6232,23728,31771,-4347,4876,2025-01-29 11:13:44,0.0
5392,2960,23356,32767,-1153,3919,2025-01-29 11:13:44,0.0
5304,3048,20756,32767,-2288,3161,2025-01-29 11:13:44,0.0
3736,4392,19784,32767,-6381,2553,2025-01-29 11:13:44,0.0
-808,5056,16596,32767,-9843,3774,2025-01-29 11:13:44,0.0
-1280,4532,15220,32767,-9095,6251,2025-01-29 11:13:44,0.0
4800,4932,13900,32767,-817,6023,2025-01-29 11:13:44,0.0
11948,4964,10576,32767,10150,4144,2025-01-29 11:13:44,0.0
14020,1436,8664,32767,16096,7752,2025-01-29 11:13:44,0.0
10172,312,5600,32767,7245,13448,2025-01-29 11:13:44,0.0
8664,572,3204,32767,-5185,18036,2025-01-29 11:13:44,0.0
5084,1900,-284,32767,-12485,20887,2025-01-29 11:13:44,0.0
-5812,15620,-1148,32767,-9648,10515,2025-01-29 11:13:44,0.0
2008,4204,-1032,32767,-32768,10630,2025-01-29 11:13:44,0.0
1808,-348,684,32767,-29351,11710,2025-01-29 11:13:44,0.0
6712,-3400,600,32767,-26405,12352,2025-01-29 11:13:44,0.0
9192,-4496,1224,32767,-26771,10463,2025-01-29 11:13:44,0.0
11672,-3668,-708,32767,-27608,3204,2025-01-29 11:13:44,0.0
15252,-4900,-5332,32767,-27911,-9451,2025-01-29 11:13:44,0.0
13912,-7964,-9924,32767,-27249,-23725,2025-01-29 11:13:44,0.0
9436,-10300,-13552,32767,-25180,-32768,2025-01-29 11:13:44,0.0
-1736,-8648,-30512,32767,-20542,-32768,2025-01-29 11:13:44,0.0
-13992,-6928,-32336,32767,-9522,-32768,2025-01-29 11:13:44,0.0
-14856,-8172,-32768,24209,-2667,-22975,2025-01-29 11:13:44,0.0
-11816,-9624,-32768,9314,4236,-13415,2025-01-29 11:13:44,0.0
-2672,-7616,-24220,-1803,6559,-5917,2025-01-29 11:13:44,0.0
540,-4864,-17232,-3260,5091,-3216,2025-01-29 11:13:44,0.0
1056,-3580,-14640,-776,3818,-855,2025-01-29 11:13:44,0.0
3132,-4208,-17792,-759,4214,338,2025-01-29 11:13:44,0.0
4268,-4532,-19176,-1572,3881,314,2025-01-29 11:13:44,0.0
3972,-5044,-20052,-3879,3569,-179,2025-01-29 11:13:44,0.0
3740,-4056,-17484,-5050,2092,-1327,2025-01-29 11:13:44,0.0
1604,-2952,-16904,-5635,69,-2025,2025-01-29 11:13:44,0.0
916,-2488,-16028,-5803,-945,-2119,2025-01-29 11:13:44,0.0
1028,-2572,-16728,-6014,-1462,-1512,2025-01-29 11:13:44,0.0
1820,-1164,-14300,-4435,-1759,-1227,2025-01-29 11:13:45,0.0
1772,-1056,-14248,-2180,-2368,-782,2025-01-29 11:13:45,0.0
2496,-2068,-15652,-1759,-2341,-1108,2025-01-29 11:13:45,0.0
1144,-1776,-15240,-1964,-2005,-896,2025-01-29 11:13:45,0.0
1216,-1164,-13704,-999,-2139,-147,2025-01-29 11:13:45,0.0
1756,-1156,-13848,1057,-2512,450,2025-01-29 11:13:45,0.0
1612,-1000,-14880,1519,-1778,454,2025-01-29 11:13:45,0.0
1260,-1536,-15968,487,-673,376,2025-01-29 11:13:45,0.0
1620,-2104,-14912,-458,5,96,2025-01-29 11:13:45,0.0
1000,-1672,-14200,-738,498,186,2025-01-29 11:13:45,0.0
1148,-2220,-14164,-403,577,656,2025-01-29 11:13:45,0.0
1132,-2548,-14660,-246,728,1306,2025-01-29 11:13:45,0.0
1468,-1920,-14956,-384,775,1721,2025-01-29 11:13:45,0.0
1888,-1380,-14716,-641,934,1646,2025-01-29 11:13:45,0.0
2240,-1288,-14540,-446,903,1264,2025-01-29 11:13:45,0.0
2556,-1224,-15024,-597,1133,677,2025-01-29 11:13:45,0.0
2516,-1188,-14912,-772,1302,212,2025-01-29 11:13:45,0.0
2180,-1164,-14248,-448,1179,257,2025-01-29 11:13:45,0.0
1468,-1240,-14084,507,863,492,2025-01-29 11:13:45,0.0
1452,-1472,-14972,1055,751,1099,2025-01-29 11:13:45,0.0
1948,-1768,-15528,838,1103,1320,2025-01-29 11:13:45,0.0
2808,-1752,-15700,255,969,741,2025-01-29 11:13:45,0.0
3176,-1688,-15224,-374,812,-421,2025-01-29 11:13:45,0.0
2092,-1876,-14724,-432,411,-1042,2025-01-29 11:13:45,0.0
1504,-1852,-14968,-338,328,-967,2025-01-29 11:13:45,0.0
728,-2036,-15048,-108,689,-334,2025-01-29 11:13:45,0.0
760,-2032,-14772,147,850,506,2025-01-29 11:13:45,0.0
1204,-1596,-14780,498,786,1193,2025-01-29 11:13:45,0.0
2484,-1396,-15116,576,1164,1406,2025-01-29 11:13:45,0.0
2784,-1476,-14832,662,1585,1093,2025-01-29 11:13:45,0.0
2708,-1688,-14932,553,1660,707,2025-01-29 11:13:45,0.0
2328,-1880,-14948,483,1531,390,2025-01-29 11:13:45,0.0
2048,-1756,-15052,591,1519,431,2025-01-29 11:13:45,0.0
2280,-1756,-15296,684,1411,761,2025-01-29 11:13:45,0.0
3304,-2088,-15464,851,1347,651,2025-01-29 11:13:45,0.0
3236,-1912,-15332,956,970,235,2025-01-29 11:13:45,0.0
2772,-2100,-15680,639,590,75,2025-01-29 11:13:45,0.0
1928,-2544,-14920,533,-236,262,2025-01-29 11:13:45,0.0
1904,-2908,-15016,488,-753,676,2025-01-29 11:13:45,0.0
2088,-2692,-15528,54,-713,677,2025-01-29 11:13:45,0.0
3344,-1956,-16124,-1229,-128,79,2025-01-29 11:13:45,0.0
4692,-1860,-16164,-2416,-593,-1615,2025-01-29 11:13:45,0.0
2912,-1876,-15448,-3149,-1317,-2631,2025-01-29 11:13:45,0.0
1504,-1828,-15120,-3223,-1208,-2439,2025-01-29 11:13:45,0.0
360,-2076,-15264,-3083,-517,-1211,2025-01-29 11:13:45,0.0
656,-2068,-15540,-3019,-656,-42,2025-01-29 11:13:45,0.0
532,-1320,-15188,-2955,232,618,2025-01-29 11:13:45,0.0
1528,-1060,-15160,-2756,1121,652,2025-01-29 11:13:45,0.0
2340,-1160,-15552,-2557,1409,221,2025-01-29 11:13:45,0.0
3088,-1392,-16020,-2515,905,-499,2025-01-29 11:13:45,0.0
2684,-1108,-16096,-2744,386,-1385,2025-01-29 11:13:45,
1984,-664,-16392,-3231,644,-1527,2025-01-29 11:13:45,0.0
-3936,-440,-6364,-1173,1130,218,2025-01-29 11:13:45,0.0
2428,704,-16500,3947,-621,3182,2025-01-29 11:13:45,0.0
-1988,-368,-26752,-4141,722,2102,2025-01-29 11:13:45,0.0
1792,-2924,-28324,-13744,2555,3324,2025-01-29 11:13:45,0.0
3112,-3152,-29784,-23492,3309,3974,2025-01-29 11:13:45,0.0
4568,-2220,-27008,-32768,4421,4065,2025-01-29 11:13:45,0.0
3272,336,-23624,-32768,3470,3688,2025-01-29 11:13:46,0.0
3504,1996,-19992,-32768,2179,3353,2025-01-29 11:13:46,0.0
-440,804,-21680,-32768,2781,4642,2025-01-29 11:13:46,0.0
3384,-280,-20256,-32768,2026,5562,2025-01-29 11:13:46,0.0
212,-1124,-16832,-32768,3620,6998,2025-01-29 11:13:46,0.0
2304,-1624,-13464,-32768,3947,7943,2025-01-29 11:13:46,0.0
4748,464,-9232,-32768,3628,5459,2025-01-29 11:13:46,0.0
7884,44,-4844,-32768,4473,1862,2025-01-29 11:13:46,0.0
4948,-1800,-3008,-32768,5033,-493,2025-01-29 11:13:46,0.0
5172,-4928,-3408,-32768,4395,-744,2025-01-29 11:13:46,0.0
3600,-8948,2144,-32768,6141,-336,2025-01-29 11:13:46,0.0
4148,-9116,6548,-32768,9099,-438,2025-01-29 11:13:46,0.0
2880,-5756,11392,-32768,7563,-1718,2025-01-29 11:13:46,0.0
2788,-5172,10712,-32768,1144,-2271,2025-01-29 11:13:46,0.0
3904,-5444,8444,-32768,-3484,-1872,2025-01-29 11:13:46,0.0
3340,-4884,10144,-32768,-4323,-609,2025-01-29 11:13:46,0.0
5012,-5148,13188,-32768,-4622,1427,2025-01-29 11:13:46,0.0
5520,-6584,18288,-32768,-4070,1387,2025-01-29 11:13:46,0.0
3328,-6584,25908,-32768,-3895,3,2025-01-29 11:13:46,0.0
1204,-4048,32767,-32768,1820,-3009,2025-01-29 11:13:46,0.0
-1252,-964,32767,-25144,5339,-3808,2025-01-29 11:13:46,0.0
-1036,-2308,32767,-15737,6699,-3919,2025-01-29 11:13:46,0.0
5660,-3420,32767,-9243,2675,-4172,2025-01-29 11:13:46,0.0
4220,-2796,32767,-2981,1311,-3874,2025-01-29 11:13:46,0.0
2328,-3008,30328,1223,2890,-2116,2025-01-29 11:13:46,0.0
4288,-3368,30712,4932,3789,-1138,2025-01-29 11:13:46,0.0
5004,-3040,27380,7503,5164,-972,2025-01-29 11:13:46,0.0
6888,-2476,22092,6944,6959,-2771,2025-01-29 11:13:46,0.0
4004,-3068,17580,7878,6930,-4017,2025-01-29 11:13:46,0.0
1120,-2476,13712,4436,4538,-3523,2025-01-29 11:13:46,0.0
2952,-496,15248,31,375,-2725,2025-01-29 11:13:46,0.0
584,-1756,16976,-252,-2337,-810,2025-01-29 11:13:46,0.0
3056,8,16520,1092,-2041,447,2025-01-29 11:13:46,0.0
2180,-540,16560,165,-1035,879,2025-01-29 11:13:46,0.0
3004,-1372,18108,-1571,97,666,2025-01-29 11:13:46,0.0
1940,-648,20084,-1667,998,-1208,2025-01-29 11:13:46,0.0
2284,-484,18716,-1083,1212,-1721,2025-01-29 11:13:46,0.0
4576,-232,18680,701,-36,-2731,2025-01-29 11:13:46,0.0
5008,-548,16928,2282,-644,-3029,2025-01-29 11:13:46,0.0
4656,-1340,17912,2454,-1425,-1414,2025-01-29 11:13:46,0.0
3716,-1108,18800,1112,-2273,-1362,2025-01-29 11:13:46,0.0
1276,-940,20844,-89,-1453,-924,2025-01-29 11:13:46,0.0
820,-668,20860,187,-787,-160,2025-01-29 11:13:46,0.0
1452,-700,19728,1443,839,696,2025-01-29 11:13:46,0.0
3888,-672,17196,1939,2292,652,2025-01-29 11:13:46,0.0
5152,-664,16620,1639,338,434,2025-01-29 11:13:46,0.0
4584,-956,17580,725,-1144,160,2025-01-29 11:13:46,0.0
4200,-932,18328,-138,-285,-572,2025-01-29 11:13:46,0.0
2912,-764,19108,-636,1364,-1176,2025-01-29 11:13:46,0.0
1872,-876,19952,-582,2198,-973,2025-01-29 11:13:46,0.0
2492,-584,19328,-435,2342,-999,2025-01-29 11:13:46,0.0
2992,-788,18216,-120,2423,-627,2025-01-29 11:13:46,0.0
3340,-564,16780,24,1745,-346,2025-01-29 11:13:46,0.0
3196,-288,16612,-455,740,-483,2025-01-29 11:13:46,0.0
3020,-380,17848,-853,782,-880,2025-01-29 11:13:46,0.0
2696,-652,18856,-917,1596,-1357,2025-01-29 11:13:46,0.0
1544,-680,19948,-825,2030,-1298,2025-01-29 11:13:46,0.0
1580,-788,19024,-503,1654,-1085,2025-01-29 11:13:46,0.0
1896,-1052,18584,-63,1630,-961,2025-01-29 11:13:46,0.0
2260,-840,18532,664,1488,-898,2025-01-29 11:13:46,0.0
1836,-884,18004,1432,930,-890,2025-01-29 11:13:46,0.0
1352,-1204,16632,1073,268,-545,2025-01-29 11:13:46,0.0
1592,-1032,16252,-372,-59,-334,2025-01-29 11:13:46,0.0
2232,-1060,16808,-2129,415,-363,2025-01-29 11:13:47,0.0
2096,-1040,18628,-2346,2885,-361,2025-01-29 11:13:47,0.0
1820,-652,20344,-1541,3941,-64,2025-01-29 11:13:47,0.0
1464,-392,20064,95,2578,239,2025-01-29 11:13:47,0.0
3012,-768,18540,-255,1384,800,2025-01-29 11:13:47,0.0
3528,-784,17932,-836,-1667,641,2025-01-29 11:13:47,0.0
2984,-536,18316,-1278,-1029,699,2025-01-29 11:13:47,0.0
2792,-576,18904,-1360,442,450,2025-01-29 11:13:47,0.0
3376,-1188,18428,-1936,-367,33,2025-01-29 11:13:47,0.0
2948,-784,21184,-1476,-2813,-524,2025-01-29 11:13:47,0.0
1052,-468,20968,257,-2381,-561,2025-01-29 11:13:47,0.0
1252,-1316,19032,1261,-948,-503,2025-01-29 11:13:47,0.0
1660,-720,19884,2097,1321,-963,2025-01-29 11:13:47,0.0
1208,-268,18564,2663,3332,-906,2025-01-29 11:13:47,0.0
2384,676,18864,1846,1651,1043,2025-01-29 11:13:47,0.0
3116,-452,19356,2659,-857,970,2025-01-29 11:13:47,0.0
1844,-544,19152,2895,-368,1014,2025-01-29 11:13:47,0.0
1180,-728,19004,2794,1982,896,2025-01-29 11:13:47,0.0
588,-1068,18396,2235,3287,1064,2025-01-29 11:13:47,0.0
900,-564,19204,2000,3211,1084,2025-01-29 11:13:47,0.0
2124,496,19464,2958,1987,1411,2025-01-29 11:13:47,0.0
3408,220,17368,2853,140,1579,2025-01-29 11:13:47,0.0
3272,696,16912,1689,-883,1253,2025-01-29 11:13:47,0.0
2188,988,18364,1460,-1551,1228,2025-01-29 11:13:47,0.0
1292,568,18444,1609,-631,1647,2025-01-29 11:13:47,0.0
1488,68,17980,1023,839,1952,2025-01-29 11:13:47,0.0
2312,252,18740,758,1729,1643,2025-01-29 11:13:47,0.0
2420,272,18292,808,1707,1421,2025-01-29 11:13:47,0.0
2516,992,18284,938,930,1416,2025-01-29 11:13:47,0.0
2596,1044,17772,846,485,1357,2025-01-29 11:13:47,
2700,724,17796,399,-21,1105,2025-01-29 11:13:47,0.0
1592,624,18008,219,-595,1416,2025-01-29 11:13:47,0.0
1668,816,19324,299,1289,1325,2025-01-29 11:13:47,0.0
2968,872,19868,947,1124,1226,2025-01-29 11:13:47,0.0
3332,700,19380,2130,-110,456,2025-01-29 11:13:47,0.0
3364,908,18448,2116,10,-515,2025-01-29 11:13:47,0.0
2640,572,18100,1614,-1821,-632,2025-01-29 11:13:47,0.0
2332,752,17724,1064,-2263,-741,2025-01-29 11:13:47,0.0
1680,916,18172,865,-1349,-689,2025-01-29 11:13:47,0.0
928,652,18456,1097,-787,-431,2025-01-29 11:13:47,0.0
560,396,18744,1103,480,16,2025-01-29 11:13:47,0.0
1184,188,17480,319,179,374,2025-01-29 11:13:47,0.0
2328,416,16848,-509,-72,-50,2025-01-29 11:13:47,0.0
2456,184,16724,-1323,-543,-551,2025-01-29 11:13:47,0.0
2736,648,17856,-1042,371,-1352,2025-01-29 11:13:47,0.0
3636,148,17900,-1601,-1628,-1229,2025-01-29 11:13:47,0.0
3080,376,17100,-2022,-2073,-1907,2025-01-29 11:13:47,0.0
3012,384,16744,-3087,-3071,-2251,2025-01-29 11:13:47,0.0
2784,796,16256,-4239,-3294,-2394,2025-01-29 11:13:47,0.0
2548,572,16400,-5166,-2855,-2376,2025-01-29 11:13:47,0.0
1960,704,15968,-6524,-3130,-1942,2025-01-29 11:13:47,0.0
1248,864,17612,-7080,-2711,-1573,2025-01-29 11:13:47,0.0
932,1016,19808,-5311,-1143,-960,2025-01-29 11:13:47,0.0
1464,1076,18916,-3925,-1876,555,2025-01-29 11:13:47,0.0
3356,-220,18876,-3783,-1256,1243,2025-01-29 11:13:47,0.0
4024,-1024,21440,-3063,-125,403,2025-01-29 11:13:47,0.0
2556,-1636,20940,-2279,-633,-122,2025-01-29 11:13:47,0.0
1832,-1444,20580,-1431,200,445,2025-01-29 11:13:47,0.0
3264,-572,19912,-282,1420,921,2025-01-29 11:13:47,0.0
3716,-280,20192,1444,1878,498,2025-01-29 11:13:47,0.0
6088,88,17684,2086,-465,-713,2025-01-29 11:13:47,0.0
5820,-688,14312,-700,-2529,-1935,2025-01-29 11:13:47,0.0
1676,-344,16240,-2845,908,-1985,2025-01-29 11:13:48,0.0
1088,-1240,17192,-4457,2580,-1304,2025-01-29 11:13:48,0.0
896,-1752,17440,-5546,3307,-469,2025-01-29 11:13:48,0.0
1096,-824,18584,-4936,2448,286,2025-01-29 11:13:48,0.0
1240,-1896,19388,-4221,3672,1369,2025-01-29 11:13:48,0.0
2680,-1472,18480,-3963,3983,1213,2025-01-29 11:13:48,0.0
2068,-912,21176,-2412,3596,605,2025-01-29 11:13:48,0.0
1628,-1360,20048,-1219,653,802,2025-01-29 11:13:48,0.0
112,-1268,19632,-387,124,1386,2025-01-29 11:13:48,0.0
688,-1524,19332,525,705,2199,2025-01-29 11:13:48,0.0
2476,-2364,20724,1327,689,2590,2025-01-29 11:13:48,0.0
4544,-2704,22360,2532,-804,1801,2025-01-29 11:13:48,0.0
4540,-2456,20420,3772,-3224,99,2025-01-29 11:13:48,0.0
3316,-2012,17856,3527,-1492,-541,2025-01-29 11:13:48,0.0
3308,-920,18292,2467,758,-680,2025-01-29 11:13:48,0.0
3908,-720,17816,1557,1059,-812,2025-01-29 11:13:48,0.0
2376,132,16840,637,2585,-1088,2025-01-29 11:13:48,0.0
2440,588,17084,165,3446,-910,2025-01-29 11:13:48,0.0
2820,-576,16892,-835,3318,-634,2025-01-29 11:13:48,0.0
2320,-1044,18156,-1544,2779,-584,2025-01-29 11:13:48,0.0
1452,-1020,19612,-1209,1026,-376,2025-01-29 11:13:48,0.0
1696,-1512,18780,-660,0,-670,2025-01-29 11:13:48,0.0
1600,-1172,18716,-339,71,-779,2025-01-29 11:13:48,0.0
1272,-928,18460,-102,691,-667,2025-01-29 11:13:48,0.0
880,-1116,17944,-340,1231,-328,2025-01-29 11:13:48,0.0
1060,-1544,18464,-668,619,80,2025-01-29 11:13:48,0.0
1644,-1256,18872,-614,312,186,2025-01-29 11:13:48,0.0
1872,-1244,19284,-195,293,325,2025-01-29 11:13:48,0.0
2524,-1088,19216,350,504,81,2025-01-29 11:13:48,0.0
2208,-1412,18572,561,588,-373,2025-01-29 11:13:48,0.0
1996,-808,18600,628,520,-435,2025-01-29 11:13:48,0.0
2392,-1676,18600,729,468,-523,2025-01-29 11:13:48,0.0
2244,-1636,18588,391,-45,-645,2025-01-29 11:13:48,0.0
1668,-1280,18496,-23,45,-489,2025-01-29 11:13:48,0.0
1584,-972,18852,55,-543,-384,2025-01-29 11:13:48,0.0
1572,-732,19116,512,-1316,-431,2025-01-29 11:13:48,0.0
1612,-908,18700,905,-1663,-352,2025-01-29 11:13:48,0.0
1724,-556,18208,809,-1084,-149,2025-01-29 11:13:48,0.0
2112,-28,17096,388,589,165,2025-01-29 11:13:48,0.0
2416,-1020,18344,-245,1220,255,2025-01-29 11:13:48,0.0
2336,-812,18932,-268,983,19,2025-01-29 11:13:48,0.0
2080,-744,18504,-171,245,-181,2025-01-29 11:13:48,0.0
1824,-1148,18380,-393,65,-97,2025-01-29 11:13:48,0.0
2060,-1344,18840,-655,-544,-477,2025-01-29 11:13:48,0.0
1780,-1056,18596,-52,-347,-414,2025-01-29 11:13:48,0.0
2052,-888,18720,26,127,-424,2025-01-29 11:13:48,0.0
1800,-844,19340,378,-42,-386,2025-01-29 11:13:48,0.0
1868,-776,19272,740,-703,-269,2025-01-29 11:13:48,0.0
2040,-864,18624,1044,-1164,-209,2025-01-29 11:13:48,0.0
2236,-928,18436,955,-1806,-396,2025-01-29 11:13:48,0.0
2152,-704,17420,598,-1885,-438,2025-01-29 11:13:48,0.0
2356,-140,17792,279,39,-522,2025-01-29 11:13:48,0.0
2244,-572,18496,347,1321,-646,2025-01-29 11:13:48,0.0
1636,-1036,18176,40,1394,-397,2025-01-29 11:13:48,0.0
2200,-904,18300,-413,980,-97,2025-01-29 11:13:49,0.0
2084,-772,18520,-558,297,12,2025-01-29 11:13:49,0.0
2884,-564,18384,-697,104,-88,2025-01-29 11:13:49,0.0
2480,-704,18864,-789,224,-323,2025-01-29 11:13:49,0.0
2296,-612,18984,-662,703,-477,2025-01-29 11:13:49,0.0
1764,-716,18956,-462,819,-284,2025-01-29 11:13:49,0.0
1684,-704,18936,-254,860,63,2025-01-29 11:13:49,0.0
1940,-896,18920,-162,896,234,2025-01-29 11:13:49,0.0
2240,-808,18524,-190,1014,195,2025-01-29 11:13:49,0.0
2424,-812,18788,-158,1518,-58,2025-01-29 11:13:49,0.0
2236,-716,19096,184,1452,-201,2025-01-29 11:13:49,0.0
1876,-900,18708,352,1423,-402,2025-01-29 11:13:49,0.0
1484,-824,18572,412,1004,-251,2025-01-29 11:13:49,0.0
1372,-624,18540,391,812,-27,2025-01-29 11:13:49,
1660,-856,18376,243,719,91,2025-01-29 11:13:49,0.0
1692,-892,18220,-118,818,121,2025-01-29 11:13:49,0.0
1888,-736,18740,-66,635,19,2025-01-29 11:13:49,0.0
1912,-772,18676,40,648,-288,2025-01-29 11:13:49,0.0
1740,-460,18404,55,804,-247,2025-01-29 11:13:49,0.0
1296,-756,18208,-77,720,-119,2025-01-29 11:13:49,0.0
1320,-672,18296,-213,892,58,2025-01-29 11:13:49,0.0
1372,-664,18180,-256,925,201,2025-01-29 11:13:49,0.0
1508,-588,18612,-162,574,372,2025-01-29 11:13:49,0.0
2084,-880,18368,-216,186,416,2025-01-29 11:13:49,0.0
2568,-1344,18120,-780,-325,344,2025-01-29 11:13:49,0.0
1044,-1128,18736,-1011,-332,-252,2025-01-29 11:13:49,0.0
964,-1108,19000,-606,665,14,2025-01-29 11:13:49,0.0
616,-512,19796,197,410,493,2025-01-29 11:13:49,0.0
1332,-456,19808,1158,892,875,2025-01-29 11:13:49,0.0
2220,-656,19840,1565,-187,980,2025-01-29 11:13:49,0.0
2168,-156,20724,2484,-622,844,2025-01-29 11:13:49,0.0
2456,-192,20580,3645,758,858,2025-01-29 11:13:49,0.0
2492,32,20476,4528,782,1322,2025-01-29 11:13:49,0.0
-332,1440,20180,5633,2171,2845,2025-01-29 11:13:49,0.0
-3424,3404,20192,6276,3855,7688,2025-01-29 11:13:49,0.0
-7708,5272,21496,6580,-2839,18453,2025-01-29 11:13:49,0.0
-10228,2004,20272,5486,-12354,31841,2025-01-29 11:13:49,0.0
-12084,-1848,18156,6191,-19719,32767,2025-01-29 11:13:49,0.0
-11096,-4504,12440,3504,-18763,32767,2025-01-29 11:13:49,0.0
-7204,-5600,12484,1938,-15876,32767,2025-01-29 11:13:49,0.0
-3424,-8128,11292,1349,-9751,32767,2025-01-29 11:13:49,0.0
-10736,-15392,13948,-3132,3817,32767,2025-01-29 11:13:49,0.0
-11568,-25396,14600,-9086,3667,32767,2025-01-29 11:13:49,0.0
-10944,-31284,13896,-13329,4211,32767,2025-01-29 11:13:49,0.0
-9152,-32768,12684,-16214,-2364,32767,2025-01-29 11:13:49,0.0
6180,-32768,15544,-12489,-14213,32767,2025-01-29 11:13:49,0.0
22796,-24552,24032,844,-14804,32767,2025-01-29 11:13:49,0.0
25828,-13744,28000,17299,-1939,32767,2025-01-29 11:13:49,0.0
24532,-12616,23160,28751,-98,32767,2025-01-29 11:13:49,0.0
10800,-9544,20136,30157,-15911,20952,2025-01-29 11:13:49,0.0
2900,-5912,17820,25081,-27481,7121,2025-01-29 11:13:49,0.0
-740,-2412,9820,15993,-32768,3397,2025-01-29 11:13:49,0.0
-2948,-1028,2452,4452,-32768,9364,2025-01-29 11:13:49,0.0
5932,-1984,15532,-3899,-21755,20409,2025-01-29 11:13:49,0.0
14484,-3112,20932,1403,4971,24420,2025-01-29 11:13:49,0.0
22168,-2988,14804,6727,11196,22712,2025-01-29 11:13:49,0.0
17472,1932,12008,3423,14264,19269,2025-01-29 11:13:49,0.0
12064,472,21184,3361,7647,15230,2025-01-29 11:13:49,0.0
5900,-1980,19848,1211,8220,12485,2025-01-29 11:13:49,0.0
4572,-1904,17356,-1951,5720,10146,2025-01-29 11:13:49,0.0
5236,-1224,20864,-1694,-795,9684,2025-01-29 11:13:49,0.0
7268,-504,20772,1332,-4511,8113,2025-01-29 11:13:49,0.0
7220,700,18540,1053,-1717,6849,2025-01-29 11:13:49,0.0
8028,568,17976,-801,3979,6406,2025-01-29 11:13:49,0.0
8284,-568,19544,-1800,6134,5625,2025-01-29 11:13:49,0.0
7132,-452,19772,-1475,5747,4621,2025-01-29 11:13:49,0.0
5508,-664,19304,-236,2614,2725,2025-01-29 11:13:49,0.0
4072,-1196,18532,-134,1073,1635,2025-01-29 11:13:50,0.0
3700,-900,17816,-906,770,1646,2025-01-29 11:13:50,0.0
4772,-1016,18308,-554,292,2142,2025-01-29 11:13:50,0.0
5232,-1184,18612,332,37,2272,2025-01-29 11:13:50,0.0
5832,-1320,18128,654,-789,1839,2025-01-29 11:13:50,0.0
5272,-720,18036,654,-1110,1072,2025-01-29 11:13:50,0.0
4500,-988,17380,521,-516,951,2025-01-29 11:13:50,0.0
5124,-324,17576,93,1104,231,2025-01-29 11:13:50,0.0
5236,-88,17880,-491,2229,-213,2025-01-29 11:13:50,0.0
4324,-440,18292,-545,4352,-206,2025-01-29 11:13:50,0.0
4900,-836,17760,1286,2719,277,2025-01-29 11:13:50,0.0
4620,-860,17508,322,3210,538,2025-01-29 11:13:50,0.0
3644,-656,19236,236,2653,573,2025-01-29 11:13:50,0.0
3596,-612,19384,867,1824,391,2025-01-29 11:13:50,0.0
3392,-764,18032,733,786,776,2025-01-29 11:13:50,0.0
4772,-444,18376,259,1085,1014,2025-01-29 11:13:50,0.0
5148,-704,18272,135,1392,615,2025-01-29 11:13:50,0.0
4772,-636,18408,26,1441,384,2025-01-29 11:13:50,0.0
4424,-512,17924,-205,1836,320,2025-01-29 11:13:50,0.0
4320,-88,18280,-118,2005,603,2025-01-29 11:13:50,0.0
3792,-492,18492,289,1767,971,2025-01-29 11:13:50,0.0
3944,-592,18700,494,946,632,2025-01-29 11:13:50,0.0
3532,-600,18876,400,1085,209,2025-01-29 11:13:50,0.0
3760,-548,18696,180,733,61,2025-01-29 11:13:50,0.0
3956,-904,18532,-82,175,35,2025-01-29 11:13:50,0.0
4048,-272,18900,-561,448,-84,2025-01-29 11:13:50,0.0
3624,-252,18780,-278,-278,-180,2025-01-29 11:13:50,0.0
3640,-196,18576,-307,98,354,2025-01-29 11:13:50,0.0
3828,-280,18488,-248,-50,292,2025-01-29 11:13:50,0.0
3884,-468,18720,-82,66,113,2025-01-29 11:13:50,0.0
3692,-344,18728,82,52,-112,2025-01-29 11:13:50,0.0
3732,-424,18576,144,105,-43,2025-01-29 11:13:50,0.0
3776,-476,18872,239,97,-17,2025-01-29 11:13:50,0.0
3716,-176,18748,497,311,81,2025-01-29 11:13:50,0.0
3576,-116,18740,598,776,289,2025-01-29 11:13:50,0.0
4360,-264,18432,704,970,341,2025-01-29 11:13:50,0.0
4180,-428,18356,551,1011,-117,2025-01-29 11:13:50,0.0
3784,-420,18596,429,1010,-492,2025-01-29 11:13:50,0.0
3724,-308,18816,808,377,-580,2025-01-29 11:13:50,0.0
3776,-232,18608,1178,84,-468,2025-01-29 11:13:50,0.0
3716,80,18584,1370,364,-248,2025-01-29 11:13:50,0.0
3592,128,18232,1124,1050,-147,2025-01-29 11:13:50,0.0
3456,-72,18516,787,1327,51,2025-01-29 11:13:50,0.0
3744,-184,18908,682,512,47,2025-01-29 11:13:50,0.0
3644,48,18888,654,33,-209,2025-01-29 11:13:50,0.0
3668,160,18808,500,-102,-302,2025-01-29 11:13:50,0.0
3700,372,18900,525,91,-171,2025-01-29 11:13:50,
3844,392,18628,643,121,-15,2025-01-29 11:13:50,0.0
4016,260,18552,596,283,97,2025-01-29 11:13:50,0.0
3876,336,18180,469,518,277,2025-01-29 11:13:50,0.0
3536,460,18032,17,591,178,2025-01-29 11:13:50,0.0
3596,324,18460,-438,537,131,2025-01-29 11:13:50,0.0
3308,464,18672,-608,695,56,2025-01-29 11:13:50,0.0
3708,504,18620,-544,891,95,2025-01-29 11:13:50,0.0
3740,408,18900,-9,1201,24,2025-01-29 11:13:50,0.0
3576,448,18652,377,1699,90,2025-01-29 11:13:50,0.0
3636,644,18556,34,2418,335,2025-01-29 11:13:50,0.0
4220,0,18512,140,2230,-321,2025-01-29 11:13:50,0.0
4668,-632,18632,245,1552,-1404,2025-01-29 11:13:50,0.0
4364,-36,19392,648,567,-2314,2025-01-29 11:13:50,0.0
6660,-616,19932,1338,-518,-4523,2025-01-29 11:13:50,0.0
10072,-556,20076,2107,-1985,-9586,2025-01-29 11:13:50,0.0
11068,860,20444,3163,-3115,-15448,2025-01-29 11:13:51,0.0
14136,-1820,20788,4518,-6439,-22991,2025-01-29 11:13:51,0.0
14048,-1760,19064,2404,-10644,-31506,2025-01-29 11:13:51,0.0
14572,-1256,20796,-364,-10507,-32768,2025-01-29 11:13:51,0.0
14244,-1060,18568,-4192,-4493,-32768,2025-01-29 11:13:51,0.0
14860,-2708,14460,-8571,4638,-32768,2025-01-29 11:13:51,0.0
15660,-7460,13644,-12656,9587,-32768,2025-01-29 11:13:51,0.0
11592,-15404,13296,-17253,11567,-32768,2025-01-29 11:13:51,0.0
11000,-19544,12260,-21855,6708,-32768,2025-01-29 11:13:51,0.0
5680,-24580,12052,-28476,6693,-32768,2025-01-29 11:13:51,0.0
10752,-27384,13836,-30987,5817,-32768,2025-01-29 11:13:51,0.0
10212,-29188,11996,-31121,-520,-32768,2025-01-29 11:13:51,0.0
5064,-31536,11024,-29309,4421,-32768,2025-01-29 11:13:51,0.0
-6488,-27944,9456,-26180,16879,-32768,2025-01-29 11:13:51,0.0
-3928,-24484,10268,-17571,27395,-32768,2025-01-29 11:13:51,0.0
-8284,-20524,9480,-11376,32767,-32768,2025-01-29 11:13:51,0.0
-8684,-15508,13300,-5774,32767,-32768,2025-01-29 11:13:51,0.0
-10316,-12264,20024,-636,32767,-32768,2025-01-29 11:13:51,0.0
-16236,-10584,20680,275,31121,-32768,2025-01-29 11:13:51,0.0
-18828,-7724,17972,-3130,15318,-20795,2025-01-29 11:13:51,0.0
-9020,-6760,25296,-1153,1619,-2286,2025-01-29 11:13:51,0.0
-4840,-6680,19984,451,-8042,8009,2025-01-29 11:13:51,0.0
1112,-6108,20304,2074,-10287,11320,2025-01-29 11:13:51,0.0
5176,-6608,20692,5230,-10427,9301,2025-01-29 11:13:51,0.0
7776,-6916,18884,8752,-4115,3374,2025-01-29 11:13:51,0.0
7548,-5736,18848,11817,3120,-2347,2025-01-29 11:13:51,0.0
4740,-4400,17140,11660,9013,-6745,2025-01-29 11:13:51,0.0
1388,-4532,15884,11059,12111,-6673,2025-01-29 11:13:51,0.0
104,-3296,15576,8225,11100,-6981,2025-01-29 11:13:51,0.0
-1544,-1028,16792,4782,7508,-6664,2025-01-29 11:13:51,0.0
-2584,-1848,18604,2823,3686,-4370,2025-01-29 11:13:51,0.0
-2684,-1820,18144,1367,65,-1888,2025-01-29 11:13:51,0.0
-1356,-1436,18372,667,-1057,-1023,2025-01-29 11:13:51,0.0
-724,-1116,19036,1006,-1455,-857,2025-01-29 11:13:51,0.0
-664,-1868,18608,1200,-1776,-14,2025-01-29 11:13:51,0.0
544,-2060,17932,663,-1897,892,2025-01-29 11:13:51,0.0
828,-2664,17920,460,-1878,1255,2025-01-29 11:13:51,0.0
1244,-2596,18132,773,-1506,1051,2025-01-29 11:13:51,0.0
1520,-2400,18228,966,-1458,557,2025-01-29 11:13:51,0.0
1768,-2220,18720,1432,-1480,-61,2025-01-29 11:13:51,0.0
1812,-2060,18308,1788,-1334,-218,2025-01-29 11:13:51,0.0
1440,-2156,18008,1370,-1242,80,2025-01-29 11:13:51,0.0
1580,-2132,17880,881,-1299,498,2025-01-29 11:13:51,0.0
2056,-2268,17920,414,-1043,601,2025-01-29 11:13:51,0.0
2096,-1936,18396,517,-281,257,2025-01-29 11:13:51,0.0
1804,-1724,18776,981,446,-104,2025-01-29 11:13:51,0.0
1540,-1576,18792,1200,525,-365,2025-01-29 11:13:51,0.0
1176,-1696,18792,1203,343,-290,2025-01-29 11:13:51,0.0
1724,-1772,19072,1485,466,-268,2025-01-29 11:13:51,0.0
1372,-1688,18032,1533,1066,-321,2025-01-29 11:13:51,0.0
956,-1640,17880,694,914,42,2025-01-29 11:13:51,0.0
1088,-1444,18684,411,78,267,2025-01-29 11:13:51,0.0
1476,-1548,18676,587,-475,86,2025-01-29 11:13:51,0.0
1772,-1556,18224,600,-512,-225,2025-01-29 11:13:51,0.0
1512,-1412,18044,215,-215,-136,2025-01-29 11:13:51,0.0
1292,-1380,18280,-287,-316,52,2025-01-29 11:13:51,0.0
1512,-1560,18180,-334,-153,256,2025-01-29 11:13:51,0.0
1892,-1416,18868,-24,191,129,2025-01-29 11:13:51,0.0
1596,-1184,18700,202,375,-117,2025-01-29 11:13:51,0.0
1588,-1304,18888,384,381,-485,2025-01-29 11:13:51,0.0
1368,-1352,18764,624,196,-686,2025-01-29 11:13:51,0.0
1240,-1348,18516,429,-58,-420,2025-01-29 11:13:52,0.0
1424,-1372,18420,109,360,-151,2025-01-29 11:13:52,0.0
1392,-1540,18260,84,957,-176,2025-01-29 11:13:52,0.0
1028,-1376,18216,152,1080,-98,2025-01-29 11:13:52,0.0
1032,-1120,18548,356,317,-165,2025-01-29 11:13:52,0.0
1400,-1444,18352,259,-533,-364,2025-01-29 11:13:52,0.0
1580,-1460,18512,157,-771,-348,2025-01-29 11:13:52,0.0
1444,-1232,19012,323,-807,-344,2025-01-29 11:13:52,0.0
1692,-1148,18760,370,-452,-264,2025-01-29 11:13:52,0.0
1660,-1088,18628,294,205,-214,2025-01-29 11:13:52,0.0
1544,-1184,18764,221,412,-216,2025-01-29 11:13:52,0.0
1600,-1124,18664,330,397,-262,2025-01-29 11:13:52,0.0
1484,-1208,18364,250,392,-290,2025-01-29 11:13:52,0.0
1364,-1080,18560,210,248,-271,2025-01-29 11:13:52,0.0
1320,-1100,18580,43,-137,-77,2025-01-29 11:13:52,0.0
1420,-1212,18396,-117,-188,183,2025-01-29 11:13:52,0.0
1836,-1292,18512,-89,197,94,2025-01-29 11:13:52,0.0
1764,-1328,18512,188,753,-304,2025-01-29 11:13:52,0.0
1300,-1152,18760,395,670,-483,2025-01-29 11:13:52,0.0
1376,-1208,18640,525,342,-558,2025-01-29 11:13:52,0.0
1520,-1160,18400,681,343,-636,2025-01-29 11:13:52,0.0
1136,-1160,18368,770,194,-465,2025-01-29 11:13:52,0.0
1056,-752,18364,600,16,-228,2025-01-29 11:13:52,0.0
1360,-748,18384,446,-277,4,2025-01-29 11:13:52,
1612,-856,18380,274,103,198,2025-01-29 11:13:52,0.0
1720,-884,18720,364,314,2,2025-01-29 11:13:52,0.0
1836,-968,18448,337,202,-204,2025-01-29 11:13:52,0.0
1780,-996,18136,199,508,-372,2025-01-29 11:13:52,0.0
1496,-848,18792,222,131,-406,2025-01-29 11:13:52,0.0
1680,-776,18520,107,-38,-227,2025-01-29 11:13:52,0.0
1844,-688,18792,20,93,-356,2025-01-29 11:13:52,0.0
1812,-928,18540,-106,175,-379,2025-01-29 11:13:52,0.0
1684,-1132,18412,-181,760,-500,2025-01-29 11:13:52,0.0
1336,-1068,18692,-8,588,-623,2025-01-29 11:13:52,0.0
1048,-972,18228,-24,460,-455,2025-01-29 11:13:52,0.0
1400,-800,18624,-86,376,-350,2025-01-29 11:13:52,0.0
1188,-948,18360,-82,412,-338,2025-01-29 11:13:52,0.0
1160,-844,18544,-61,245,-351,2025-01-29 11:13:52,0.0
1020,-856,18172,-71,-250,-125,2025-01-29 11:13:52,0.0
1008,-960,18064,-182,-416,-68,2025-01-29 11:13:52,0.0
888,-936,18180,-272,-705,114,2025-01-29 11:13:52,0.0
1088,-972,18348,-284,-1072,317,2025-01-29 11:13:52,0.0
1740,-824,18620,-208,-800,212,2025-01-29 11:13:52,0.0
1828,-724,18636,-53,-500,100,2025-01-29 11:13:52,0.0
1760,-660,18956,-26,-540,184,2025-01-29 11:13:52,0.0
2068,-704,18720,-37,-331,174,2025-01-29 11:13:52,0.0
2236,-784,19036,132,-219,-29,2025-01-29 11:13:52,0.0
2112,-892,18688,81,374,-74,2025-01-29 11:13:52,0.0
2024,-904,18608,71,873,-233,2025-01-29 11:13:52,0.0
1508,-688,18648,185,887,-184,2025-01-29 11:13:52,0.0
1304,-668,18328,256,471,-271,2025-01-29 11:13:52,0.0
1384,-848,18304,34,291,-174,2025-01-29 11:13:52,0.0
1500,-788,18524,-123,159,-153,2025-01-29 11:13:52,0.0
1620,-864,18404,-166,60,-179,2025-01-29 11:13:52,0.0
1536,-804,18100,-226,302,-105,2025-01-29 11:13:52,0.0
1180,-776,17924,-457,577,-32,2025-01-29 11:13:52,0.0
920,-724,18312,-593,298,176,2025-01-29 11:13:52,0.0
964,-692,18148,-635,-364,341,2025-01-29 11:13:52,0.0
1040,-860,18188,-712,-780,477,2025-01-29 11:13:53,0.0
1584,-888,18352,-649,-1139,453,2025-01-29 11:13:53,0.0
1848,-868,18436,-533,-1135,377,2025-01-29 11:13:53,0.0
2296,-1024,18616,-645,-685,202,2025-01-29 11:13:53,0.0
2196,-1056,18980,-546,-195,51,2025-01-29 11:13:53,0.0
1992,-1020,19088,-296,6,-82,2025-01-29 11:13:53,0.0
2028,-900,18996,-115,-85,-93,2025-01-29 11:13:53,0.0
1988,-860,18992,41,162,-171,2025-01-29 11:13:53,0.0
1912,-872,18784,248,355,-255,2025-01-29 11:13:53,0.0
1712,-764,18760,321,598,-232,2025-01-29 11:13:53,0.0
1584,-784,18864,330,581,-109,2025-01-29 11:13:53,0.0
1620,-648,18496,384,507,-134,2025-01-29 11:13:53,0.0
1692,-896,18272,349,536,-217,2025-01-29 11:13:53,0.0
1620,-812,18400,433,377,-278,2025-01-29 11:13:53,0.0
1616,-692,18304,372,225,-292,2025-01-29 11:13:53,0.0
1736,-724,18304,376,362,-408,2025-01-29 11:13:53,0.0
1556,-788,18020,254,561,-500,2025-01-29 11:13:53,0.0
1284,-660,18508,143,514,-210,2025-01-29 11:13:53,0.0
1216,-672,18592,16,265,65,2025-01-29 11:13:53,0.0
1424,-764,18748,-7,88,59,2025-01-29 11:13:53,0.0
1688,-792,18848,285,-141,-257,2025-01-29 11:13:53,0.0
1860,-732,18836,428,-137,-355,2025-01-29 11:13:53,0.0
2044,-544,18756,444,346,-448,2025-01-29 11:13:53,0.0
1496,-548,18392,408,1012,-534,2025-01-29 11:13:53,0.0
1160,-548,18552,234,776,-288,2025-01-29 11:13:53,0.0
1356,-524,18284,2,424,-109,2025-01-29 11:13:53,0.0
1460,-616,18500,-196,302,-71,2025-01-29 11:13:53,0.0
1488,-584,18448,-359,405,-34,2025-01-29 11:13:53,0.0
1576,-644,18544,-415,297,-83,2025-01-29 11:13:53,0.0
1624,-612,18676,-357,257,-86,2025-01-29 11:13:53,0.0
1800,-620,18640,-246,443,-127,2025-01-29 11:13:53,0.0
1732,-728,18732,-202,672,-203,2025-01-29 11:13:53,0.0
1616,-772,18704,-9,708,-269,2025-01-29 11:13:53,0.0
1308,-488,18568,150,541,-231,2025-01-29 11:13:53,0.0
1400,-528,18456,201,358,-253,2025-01-29 11:13:53,0.0
1544,-532,18520,330,248,-381,2025-01-29 11:13:53,0.0
1428,-416,18304,327,232,-380,2025-01-29 11:13:53,0.0
1564,-604,17964,82,709,-473,2025-01-29 11:13:53,0.0
1068,-612,18292,36,873,-444,2025-01-29 11:13:53,0.0
976,-424,18420,46,178,-175,2025-01-29 11:13:53,0.0
1180,-556,18152,-184,-218,27,2025-01-29 11:13:53,0.0
1916,-588,18480,-238,37,-121,2025-01-29 11:13:53,0.0
1540,-580,18844,-89,23,-214,2025-01-29 11:13:53,0.0
1416,-544,18544,-157,-52,-124,2025-01-29 11:13:53,0.0
1512,-640,18760,-177,-190,-6,2025-01-29 11:13:53,0.0
1644,-744,18348,-259,-7,80,2025-01-29 11:13:53,0.0
1804,-772,18496,-143,460,-123,2025-01-29 11:13:53,0.0
1368,-600,18904,-20,336,-261,2025-01-29 11:13:53,0.0
1360,-624,18300,-257,-7,-70,2025-01-29 11:13:53,0.0
1424,-700,18392,-373,113,4,2025-01-29 11:13:53,0.0
1596,-632,18792,-112,-363,-15,2025-01-29 11:13:53,0.0
1756,-508,18028,-170,4,-72,2025-01-29 11:13:53,0.0
1616,-692,18428,-163,615,-388,2025-01-29 11:13:53,0.0
1256,-564,18664,-20,527,-279,2025-01-29 11:13:53,0.0
1340,-524,18456,-124,-69,3,2025-01-29 11:13:53,0.0
1880,-712,18508,-281,150,-155,2025-01-29 11:13:53,0.0
1584,-524,19008,-97,243,-270,2025-01-29 11:13:53,0.0
1320,-256,18744,167,-154,-127,2025-01-29 11:13:53,0.0
1768,-448,18368,143,334,-414,2025-01-29 11:13:53,0.0
1328,-564,18448,162,593,-385,2025-01-29 11:13:53,0.0
1176,-476,18508,-4,237,-97,2025-01-29 11:13:53,0.0
1396,-480,18392,-262,-19,132,2025-01-29 11:13:53,0.0
1608,-540,18704,-312,338,-28,2025-01-29 11:13:53,0.0
1396,-484,18896,-140,397,-82,2025-01-29 11:13:54,0.0
1452,-424,18888,-9,183,-180,2025-01-29 11:13:54,0.0
1428,-436,18604,-20,432,-106,2025-01-29 11:13:54,
