acceleration_x,acceleration_y,acceleration_z,gyroscope_x,gyroscope_y,gyroscope_z,timestamp,label
-11968,-1552,-5576,-221,288,-194,2025-01-29 11:55:01,0.0
-12280,-1504,-5632,-219,378,-196,2025-01-29 11:55:01,0.0
-12216,-1548,-5772,-174,204,-191,2025-01-29 11:55:01,0.0
-12208,-1580,-5876,-177,96,-197,2025-01-29 11:55:01,0.0
-12236,-1720,-5712,-169,51,-190,2025-01-29 11:55:01,0.0
-12180,-1656,-5672,-128,53,-149,2025-01-29 11:55:01,0.0
-12108,-1588,-5792,-96,100,-149,2025-01-29 11:55:01,0.0
-12164,-1480,-5712,-132,155,-159,2025-01-29 11:55:01,0.0
-12120,-1500,-5548,-101,185,-151,2025-01-29 11:55:01,0.0
-12096,-1544,-5548,-135,240,-155,2025-01-29 11:55:01,0.0
-12128,-1444,-5752,-155,240,-179,2025-01-29 11:55:01,0.0
-12196,-1388,-5776,-189,219,-205,2025-01-29 11:55:01,0.0
-12128,-1468,-5884,-204,143,-195,2025-01-29 11:55:01,0.0
-12224,-1496,-5716,-223,106,-189,2025-01-29 11:55:01,0.0
-12052,-1428,-5668,-278,170,-207,2025-01-29 11:55:01,0.0
-12056,-1404,-5584,-293,188,-202,2025-01-29 11:55:01,0.0
-12084,-1440,-5692,-294,194,-196,2025-01-29 11:55:01,0.0
-12092,-1548,-5616,-296,159,-208,2025-01-29 11:55:01,0.0
-12200,-1532,-5700,-270,115,-205,2025-01-29 11:55:01,0.0
-12204,-1604,-5608,-233,103,-208,2025-01-29 11:55:01,0.0
-12164,-1536,-5540,-204,145,-211,2025-01-29 11:55:01,0.0
-12120,-1524,-5468,-213,167,-184,2025-01-29 11:55:01,0.0
-12232,-1536,-5748,-228,181,-170,2025-01-29 11:55:01,0.0
-12192,-1600,-5796,-189,168,-170,2025-01-29 11:55:01,0.0
-12104,-1500,-5664,-194,206,-157,2025-01-29 11:55:01,0.0
-12112,-1476,-5768,-241,258,-163,2025-01-29 11:55:01,0.0
-12240,-1440,-5704,-251,224,-197,2025-01-29 11:55:01,0.0
-12136,-1472,-5688,-262,233,-198,2025-01-29 11:55:01,0.0
-12164,-1524,-5680,-260,170,-212,2025-01-29 11:55:01,0.0
-12020,-1524,-5804,-261,167,-193,2025-01-29 11:55:01,0.0
-11988,-1448,-5844,-273,182,-177,2025-01-29 11:55:01,0.0
-12092,-1532,-5576,-255,230,-164,2025-01-29 11:55:01,0.0
-12152,-1552,-5696,-265,274,-109,2025-01-29 11:55:01,0.0
-12044,-1588,-5676,-268,354,-133,2025-01-29 11:55:01,0.0
-12120,-1680,-5632,-266,389,-113,2025-01-29 11:55:01,0.0
-12116,-1460,-5760,-228,389,-53,2025-01-29 11:55:01,0.0
-12104,-1492,-5576,-239,470,3,2025-01-29 11:55:01,0.0
-12096,-1448,-5508,-182,560,31,2025-01-29 11:55:01,0.0
-12136,-1552,-5588,-122,717,136,2025-01-29 11:55:01,0.0
-12160,-1516,-5640,-77,952,286,2025-01-29 11:55:01,0.0
-11888,-1412,-6036,-37,1328,405,2025-01-29 11:55:01,0.0
-11964,-1244,-6152,-68,1846,594,2025-01-29 11:55:01,0.0
-12176,-1144,-6400,-240,2108,718,2025-01-29 11:55:01,0.0
-12532,-1008,-6476,-460,1853,811,2025-01-29 11:55:01,0.0
-12384,-1088,-6004,-532,1174,703,2025-01-29 11:55:01,0.0
-11980,-1176,-5536,-461,68,369,2025-01-29 11:55:01,0.0
-11628,-1152,-5628,-265,-809,52,2025-01-29 11:55:01,0.0
-11944,-1192,-5588,142,-498,-23,2025-01-29 11:55:01,0.0
-11912,-884,-5296,452,271,36,2025-01-29 11:55:01,0.0
-11956,-660,-5332,432,369,-215,2025-01-29 11:55:02,0.0
-12556,-592,-5272,234,272,-338,2025-01-29 11:55:02,0.0
-12756,-928,-5132,319,113,-377,2025-01-29 11:55:02,0.0
-12808,-960,-5148,528,-72,-382,2025-01-29 11:55:02,0.0
-12488,-788,-5380,679,-248,-493,2025-01-29 11:55:02,0.0
-12340,-644,-5644,768,-419,-597,2025-01-29 11:55:02,0.0
-12304,-560,-5496,992,-535,-676,2025-01-29 11:55:02,0.0
-12132,-420,-5788,1099,-700,-830,2025-01-29 11:55:02,0.0
-12140,-264,-6280,1052,-749,-1136,2025-01-29 11:55:02,0.0
-12504,-28,-6224,859,-840,-1381,2025-01-29 11:55:02,0.0
-12284,-336,-5932,819,-796,-1530,2025-01-29 11:55:02,0.0
-12336,-408,-5452,783,-1034,-1590,2025-01-29 11:55:02,0.0
-12256,-284,-5148,645,-1379,-1436,2025-01-29 11:55:02,0.0
-12012,-300,-5512,487,-1385,-1244,2025-01-29 11:55:02,0.0
-11832,-628,-5228,292,-961,-1058,2025-01-29 11:55:02,0.0
-11880,-1156,-4660,230,-492,-1067,2025-01-29 11:55:02,0.0
-12148,-884,-4704,179,-129,-1143,2025-01-29 11:55:02,0.0
-12236,-868,-5128,115,-8,-1361,2025-01-29 11:55:02,0.0
-12512,-820,-5396,-126,105,-1482,2025-01-29 11:55:02,0.0
-12564,-892,-5348,-311,30,-1696,2025-01-29 11:55:02,0.0
-12540,-1088,-4996,-648,-179,-1862,2025-01-29 11:55:02,0.0
-12584,-1168,-4972,-757,-430,-1967,2025-01-29 11:55:02,0.0
-12180,-1892,-5112,-880,-764,-2062,2025-01-29 11:55:02,0.0
-11864,-2440,-4680,-901,-745,-2152,2025-01-29 11:55:02,0.0
-11648,-2812,-4748,-698,-469,-2279,2025-01-29 11:55:02,0.0
-11480,-3396,-4920,-462,-30,-2338,2025-01-29 11:55:02,0.0
-11496,-3904,-4840,36,659,-2270,2025-01-29 11:55:02,0.0
-11712,-4544,-4800,383,1478,-2001,2025-01-29 11:55:02,0.0
-11964,-4788,-4396,395,1998,-1783,2025-01-29 11:55:02,0.0
-12504,-4392,-4504,354,2076,-1487,2025-01-29 11:55:02,0.0
-12820,-3828,-4532,306,1994,-1217,2025-01-29 11:55:02,0.0
-12868,-3052,-4768,43,1671,-1302,2025-01-29 11:55:02,0.0
-13044,-2768,-5008,-357,1301,-1574,2025-01-29 11:55:02,0.0
-12776,-3080,-4852,-560,886,-2091,2025-01-29 11:55:02,0.0
-12752,-3692,-4724,-504,603,-2145,2025-01-29 11:55:02,0.0
-12100,-4124,-4692,-299,403,-2236,2025-01-29 11:55:02,0.0
-11928,-4472,-4164,-189,301,-2096,2025-01-29 11:55:02,0.0
-11552,-4652,-4060,-30,415,-1789,2025-01-29 11:55:02,0.0
-11380,-4524,-4148,112,730,-1462,2025-01-29 11:55:02,0.0
-11112,-4092,-4516,197,1138,-1153,2025-01-29 11:55:02,0.0
-11276,-3908,-4124,88,1523,-946,2025-01-29 11:55:02,0.0
-11456,-3524,-4132,-114,1739,-667,2025-01-29 11:55:02,0.0
-11836,-3312,-4300,-458,1863,-221,2025-01-29 11:55:02,0.0
-12228,-3308,-4592,-972,1573,127,2025-01-29 11:55:02,0.0
-12556,-3392,-4600,-1311,1006,347,2025-01-29 11:55:02,0.0
-12692,-3412,-4204,-1510,415,386,2025-01-29 11:55:02,0.0
-12792,-3524,-4404,-1569,-183,431,2025-01-29 11:55:02,0.0
-12788,-3356,-4732,-1570,-475,482,2025-01-29 11:55:02,0.0
-12312,-3264,-5324,-1571,-404,308,2025-01-29 11:55:02,0.0
-11900,-3156,-5396,-1786,-4,-215,2025-01-29 11:55:02,0.0
-12412,-3260,-5096,-2112,484,-590,2025-01-29 11:55:02,
-12764,-3680,-4812,-2356,622,-626,2025-01-29 11:55:02,0.0
-12860,-4096,-5108,-2546,411,-633,2025-01-29 11:55:02,0.0
-12708,-3996,-4708,-2823,-27,-738,2025-01-29 11:55:02,0.0
-12616,-3716,-4536,-3114,-339,-1047,2025-01-29 11:55:02,0.0
-12776,-3368,-4192,-3636,-237,-1266,2025-01-29 11:55:02,0.0
-13020,-3104,-4124,-4123,-268,-1231,2025-01-29 11:55:02,0.0
-12996,-3432,-3840,-4785,-483,-1158,2025-01-29 11:55:02,0.0
-13456,-4380,-5648,-5005,-402,-1442,2025-01-29 11:55:02,0.0
-14324,-4864,-6788,-5111,127,-1443,2025-01-29 11:55:02,0.0
-14764,-6060,-6720,-4312,-382,-1271,2025-01-29 11:55:02,0.0
-14924,-6820,-6092,-2560,-2170,-922,2025-01-29 11:55:03,0.0
-14588,-6692,-6512,-623,-3647,-204,2025-01-29 11:55:03,0.0
-13224,-5836,-7136,523,-3418,108,2025-01-29 11:55:03,0.0
-12736,-5036,-7048,944,-2536,208,2025-01-29 11:55:03,0.0
-12604,-3900,-7120,863,-2273,1018,2025-01-29 11:55:03,0.0
-11928,-2740,-7404,168,-2941,2157,2025-01-29 11:55:03,0.0
-11072,-1324,-7364,-496,-3306,3091,2025-01-29 11:55:03,0.0
-9828,-252,-7592,-1029,-2872,3628,2025-01-29 11:55:03,0.0
-8776,664,-7188,-1670,-2057,3222,2025-01-29 11:55:03,0.0
-8424,1040,-6408,-1866,-714,2040,2025-01-29 11:55:03,0.0
-9168,1108,-5284,-1575,858,599,2025-01-29 11:55:03,0.0
-11132,604,-5260,-1254,1454,-107,2025-01-29 11:55:03,0.0
-12624,-392,-5400,-1247,1313,-25,2025-01-29 11:55:03,0.0
-12540,-1192,-6256,-1271,907,133,2025-01-29 11:55:03,0.0
-13132,-1728,-6160,-1212,475,311,2025-01-29 11:55:03,0.0
-13500,-2252,-6184,-1147,-179,540,2025-01-29 11:55:03,0.0
-13140,-1876,-6416,-900,-828,793,2025-01-29 11:55:03,0.0
-13108,-1188,-6040,-823,-1440,951,2025-01-29 11:55:03,0.0
-12756,-864,-5396,-720,-2060,1085,2025-01-29 11:55:03,0.0
-11984,-688,-5368,-644,-2325,1387,2025-01-29 11:55:03,0.0
-11352,-908,-4592,-556,-1980,1393,2025-01-29 11:55:03,0.0
-10772,-988,-4140,-185,-936,1357,2025-01-29 11:55:03,0.0
-11004,-708,-4204,139,62,1553,2025-01-29 11:55:03,0.0
-11276,-196,-4788,216,662,1972,2025-01-29 11:55:03,0.0
-11596,52,-5020,197,1113,2274,2025-01-29 11:55:03,0.0
-11248,208,-5028,161,1397,1985,2025-01-29 11:55:03,0.0
-11860,280,-4640,323,1491,1330,2025-01-29 11:55:03,0.0
-11864,-168,-4108,502,1243,719,2025-01-29 11:55:03,0.0
-12208,-184,-3812,721,741,298,2025-01-29 11:55:03,0.0
-12128,-368,-3648,739,326,35,2025-01-29 11:55:03,0.0
-12264,-792,-3720,793,-100,-345,2025-01-29 11:55:03,0.0
-12876,-1040,-3808,925,-381,-486,2025-01-29 11:55:03,0.0
-13248,-1252,-3596,1122,-804,-430,2025-01-29 11:55:03,0.0
-13220,-1268,-3200,1199,-1746,-444,2025-01-29 11:55:03,0.0
-12992,-1212,-3416,1172,-2652,-400,2025-01-29 11:55:03,0.0
-12420,-768,-3864,1033,-3014,-360,2025-01-29 11:55:03,0.0
-12292,-132,-4084,857,-2026,-12,2025-01-29 11:55:03,0.0
-12596,-64,-3964,797,-418,327,2025-01-29 11:55:03,0.0
-13188,-308,-3668,838,398,571,2025-01-29 11:55:03,0.0
-14296,-932,-2940,1181,364,952,2025-01-29 11:55:03,0.0
-14956,-1856,-2084,1849,-196,1438,2025-01-29 11:55:03,0.0
-15064,-3068,-1808,3019,-1098,2030,2025-01-29 11:55:03,0.0
-13380,-3608,-3132,4533,-2418,2361,2025-01-29 11:55:03,0.0
-12200,-2344,-4332,5635,-2671,2095,2025-01-29 11:55:03,0.0
-12608,-532,-6352,5881,-1344,2566,2025-01-29 11:55:03,0.0
-13460,1800,-7900,5275,866,3810,2025-01-29 11:55:03,0.0
-14432,3372,-8132,4314,2899,4481,2025-01-29 11:55:03,0.0
-14496,4084,-8708,2751,3268,3660,2025-01-29 11:55:03,0.0
-13016,3360,-7772,1124,720,587,2025-01-29 11:55:03,0.0
-13052,900,-7120,706,-3919,-2421,2025-01-29 11:55:03,0.0
-11468,-1160,-7004,977,-5809,-2919,2025-01-29 11:55:03,0.0
-9756,-2764,-6284,1526,-4903,-2781,2025-01-29 11:55:03,0.0
-8600,-4164,-5644,2077,-2077,-2325,2025-01-29 11:55:03,0.0
-8636,-5148,-5232,2370,2458,-1385,2025-01-29 11:55:03,0.0
-10232,-4736,-4688,2497,5708,-532,2025-01-29 11:55:03,0.0
-12180,-3352,-5408,2703,6288,29,2025-01-29 11:55:03,0.0
-13988,-2464,-5648,2293,5371,-173,2025-01-29 11:55:03,0.0
-14768,-2204,-5104,2057,3348,-989,2025-01-29 11:55:03,0.0
-14984,-2368,-5188,2147,763,-1628,2025-01-29 11:55:03,0.0
-14532,-2236,-5124,2232,-1233,-1821,2025-01-29 11:55:03,0.0
-12652,-2084,-5236,2077,-2134,-1829,2025-01-29 11:55:04,0.0
-11640,-2336,-4412,1675,-1595,-1877,2025-01-29 11:55:04,0.0
-10744,-2568,-4700,1499,-393,-1687,2025-01-29 11:55:04,0.0
-10112,-2440,-4340,1438,865,-1415,2025-01-29 11:55:04,0.0
-9916,-2180,-4688,1094,1960,-1087,2025-01-29 11:55:04,0.0
-10376,-2160,-4552,610,2754,-1006,2025-01-29 11:55:04,0.0
-11000,-2528,-4464,215,3192,-1081,2025-01-29 11:55:04,0.0
-12304,-3140,-4040,-7,3177,-1006,2025-01-29 11:55:04,0.0
-13172,-3796,-3964,-11,2630,-653,2025-01-29 11:55:04,0.0
-13496,-3996,-4176,-73,1647,-144,2025-01-29 11:55:04,0.0
-13356,-3480,-4196,-241,559,367,2025-01-29 11:55:04,0.0
-13148,-2740,-3992,-325,-151,623,2025-01-29 11:55:04,0.0
-12584,-2348,-3816,-439,-567,886,2025-01-29 11:55:04,0.0
-12156,-2332,-3988,-569,-468,1099,2025-01-29 11:55:04,0.0
-12112,-2664,-3844,-645,-41,1332,2025-01-29 11:55:04,0.0
-12476,-3112,-3476,-640,339,1365,2025-01-29 11:55:04,0.0
-12688,-3500,-3668,-506,-3,1086,2025-01-29 11:55:04,0.0
-12856,-3668,-3596,-192,-719,745,2025-01-29 11:55:04,0.0
-12548,-3504,-3768,120,-1061,445,2025-01-29 11:55:04,0.0
-12548,-2804,-4116,26,-1212,-8,2025-01-29 11:55:04,0.0
-13016,-2196,-3580,-402,-1185,-239,2025-01-29 11:55:04,0.0
-13244,-2532,-3740,-1014,-1444,-409,2025-01-29 11:55:04,0.0
-13240,-2860,-5044,-1461,-2049,-686,2025-01-29 11:55:04,0.0
-13176,-3236,-5532,-1504,-2361,-949,2025-01-29 11:55:04,0.0
-13472,-3172,-5516,-1378,-2641,-1199,2025-01-29 11:55:04,0.0
-13916,-3072,-4516,-1050,-2852,-1105,2025-01-29 11:55:04,0.0
-14728,-2688,-5788,-1066,-2884,-591,2025-01-29 11:55:04,0.0
-14540,-3148,-8288,-1523,-2717,396,2025-01-29 11:55:04,0.0
-13048,-4200,-9440,-1296,-2321,686,2025-01-29 11:55:04,0.0
-12296,-4084,-8580,-823,-1973,606,2025-01-29 11:55:04,
-11228,-2716,-8176,-773,-1683,341,2025-01-29 11:55:04,0.0
-11084,-932,-7704,-965,-1290,303,2025-01-29 11:55:04,0.0
-11480,568,-6536,-1139,-416,369,2025-01-29 11:55:04,0.0
-12984,1288,-5020,-1444,1042,721,2025-01-29 11:55:04,0.0
-15256,712,-5412,-2086,2449,1774,2025-01-29 11:55:04,0.0
-17340,-532,-6260,-2509,3446,3490,2025-01-29 11:55:04,0.0
-19032,-1408,-7420,-3335,2130,6484,2025-01-29 11:55:04,0.0
-17640,-536,-5968,-4094,-1643,8123,2025-01-29 11:55:04,0.0
-15452,808,-4692,-4581,-6250,8115,2025-01-29 11:55:04,0.0
-13568,1464,-4108,-5020,-9031,7072,2025-01-29 11:55:04,0.0
-12416,876,-4152,-5352,-9697,6244,2025-01-29 11:55:04,0.0
-13556,-636,-5024,-5924,-8868,7010,2025-01-29 11:55:04,0.0
-14204,-4440,-8180,-7299,-5792,8770,2025-01-29 11:55:04,0.0
-15840,-4884,-916,-10362,-470,10742,2025-01-29 11:55:04,0.0
-13728,840,556,-6363,-2483,14797,2025-01-29 11:55:04,0.0
-10796,4880,-1596,-3993,-4437,14113,2025-01-29 11:55:04,0.0
-13916,3108,-4824,-5130,-2411,12102,2025-01-29 11:55:04,0.0
-15476,508,-2832,-6864,-272,9653,2025-01-29 11:55:04,0.0
-11568,2832,-1772,-6008,1070,7862,2025-01-29 11:55:04,0.0
-11488,3952,-892,-5322,2922,7912,2025-01-29 11:55:04,0.0
-9972,3976,-2260,-4901,5067,8310,2025-01-29 11:55:04,0.0
-9252,4464,-1904,-5075,6984,7653,2025-01-29 11:55:04,0.0
-8020,5356,-1948,-4496,6195,6570,2025-01-29 11:55:04,0.0
-6852,6724,-1796,-3226,2910,5105,2025-01-29 11:55:04,0.0
-7828,6640,-1920,-2924,727,4101,2025-01-29 11:55:04,0.0
-8996,6664,-276,-3495,2319,3241,2025-01-29 11:55:04,0.0
-8292,6784,-992,-3649,4555,1863,2025-01-29 11:55:04,0.0
-9804,5576,-1164,-3737,5756,810,2025-01-29 11:55:04,0.0
-10344,5024,-1040,-3399,5375,222,2025-01-29 11:55:04,0.0
-10560,5308,-1164,-2811,4002,255,2025-01-29 11:55:04,0.0
-10240,6236,-628,-2309,2836,280,2025-01-29 11:55:04,0.0
-11060,5992,-1140,-1683,3219,-434,2025-01-29 11:55:04,0.0
-11436,5280,-2388,-1389,3132,-1194,2025-01-29 11:55:04,0.0
-12180,4960,-2828,-1074,2263,-1606,2025-01-29 11:55:05,0.0
-12192,4368,-1868,-315,859,-1623,2025-01-29 11:55:05,0.0
-11756,4096,-1664,221,574,-1242,2025-01-29 11:55:05,0.0
-11684,4720,-1556,637,948,-872,2025-01-29 11:55:05,0.0
-11108,4620,-1856,660,1372,-337,2025-01-29 11:55:05,0.0
-10428,4520,-2180,875,1627,-138,2025-01-29 11:55:05,0.0
-11292,4388,-2472,991,1620,259,2025-01-29 11:55:05,0.0
-11732,4704,-2252,1194,1106,938,2025-01-29 11:55:05,0.0
-11636,5140,-1988,1342,994,1193,2025-01-29 11:55:05,0.0
-19880,8552,-9184,-231,9544,514,2025-01-29 11:55:05,0.0
-20088,6792,-7212,277,11203,1413,2025-01-29 11:55:05,0.0
-18320,7896,-5108,1630,11585,2538,2025-01-29 11:55:05,0.0
-15804,7124,-6948,3113,7673,5553,2025-01-29 11:55:05,0.0
-16692,8644,-8820,4328,8108,8669,2025-01-29 11:55:05,0.0
-21248,10156,-14904,1931,14143,8616,2025-01-29 11:55:05,0.0
-20968,12076,-17172,-1177,20302,5944,2025-01-29 11:55:05,0.0
-14232,16272,-13816,2747,17343,1150,2025-01-29 11:55:05,0.0
-12100,11108,-11836,8124,8192,-2600,2025-01-29 11:55:05,0.0
-9172,6444,-10208,9624,3354,-2791,2025-01-29 11:55:05,0.0
-6208,5036,-7576,9391,2347,-2207,2025-01-29 11:55:05,0.0
-6512,5808,-7876,8308,3329,-1806,2025-01-29 11:55:05,0.0
-7932,7200,-9024,7286,1833,-1736,2025-01-29 11:55:05,0.0
-9396,8188,-10164,6826,-2580,-2572,2025-01-29 11:55:05,0.0
-9856,8500,-9304,6990,-8562,-4169,2025-01-29 11:55:05,0.0
-11140,3080,-4140,9897,-10028,-5995,2025-01-29 11:55:05,0.0
-6240,1772,-11576,11474,-11816,-8001,2025-01-29 11:55:05,0.0
-6544,268,-9072,7851,-11246,-10394,2025-01-29 11:55:05,0.0
-7492,-868,-6436,5029,-8357,-11447,2025-01-29 11:55:05,0.0
-7592,-420,-5456,5729,-5468,-9615,2025-01-29 11:55:05,0.0
-6404,-612,-7512,5648,-3662,-7518,2025-01-29 11:55:05,0.0
-5280,-20,-9276,3658,-977,-5641,2025-01-29 11:55:05,0.0
-6728,1028,-6660,2637,1124,-4124,2025-01-29 11:55:05,0.0
-7152,1032,-6652,3382,2817,-3617,2025-01-29 11:55:05,0.0
-8184,696,-7192,4764,4850,-4719,2025-01-29 11:55:05,0.0
-9300,176,-7076,5431,3945,-5876,2025-01-29 11:55:05,0.0
-9836,-1140,-9636,5094,1666,-5773,2025-01-29 11:55:05,0.0
-13712,-3248,-8848,4190,-3236,-4503,2025-01-29 11:55:05,0.0
-9120,-2784,-9936,3429,-2059,-2777,2025-01-29 11:55:05,0.0
-9444,-2920,-9068,2406,-163,-2524,2025-01-29 11:55:05,0.0
-9116,-1272,-7372,1918,1245,-1809,2025-01-29 11:55:05,0.0
-9240,-672,-6240,1573,1527,-1242,2025-01-29 11:55:05,0.0
-7924,0,-6572,1421,1103,-1618,2025-01-29 11:55:05,0.0
-7300,1524,-6708,1832,1389,-3566,2025-01-29 11:55:05,0.0
-7672,1504,-7104,2595,1315,-4694,2025-01-29 11:55:05,0.0
-8292,284,-7668,2981,1902,-5930,2025-01-29 11:55:05,0.0
-9156,-1072,-7148,2584,-468,-6099,2025-01-29 11:55:05,0.0
-9956,-2892,-7348,1945,-3936,-5014,2025-01-29 11:55:05,0.0
-9136,-3096,-6952,1643,-3607,-4405,2025-01-29 11:55:05,0.0
-8064,-4220,-7940,1548,-2811,-4281,2025-01-29 11:55:05,0.0
-9132,-3784,-6788,1308,-3604,-3294,2025-01-29 11:55:05,0.0
-10032,-3632,-7428,842,-3579,-2286,2025-01-29 11:55:05,0.0
-9948,-2500,-7336,315,-3879,-1279,2025-01-29 11:55:05,0.0
-9080,-996,-7152,-325,-6064,-1130,2025-01-29 11:55:06,0.0
-9412,-588,-6932,-775,-7671,-1014,2025-01-29 11:55:06,0.0
-9256,-324,-6848,-1510,-8501,-775,2025-01-29 11:55:06,0.0
-8344,-1128,-6240,-2198,-9419,-789,2025-01-29 11:55:06,0.0
-8348,-1596,-5020,-1993,-10364,-402,2025-01-29 11:55:06,0.0
-8536,-1816,-4272,-1694,-10668,-826,2025-01-29 11:55:06,0.0
-8540,-1644,-3100,-2305,-11688,-633,2025-01-29 11:55:06,0.0
-7704,-1624,-3664,-1865,-14772,-693,2025-01-29 11:55:06,0.0
-7852,-2408,-3792,-2378,-17346,-993,2025-01-29 11:55:06,0.0
-8348,-2592,-4520,-2666,-18423,-1397,2025-01-29 11:55:06,0.0
-8324,-2744,-4340,-3578,-14594,-963,2025-01-29 11:55:06,0.0
-8212,-1204,-12,-3653,-10980,-1985,2025-01-29 11:55:06,0.0
-10664,-1356,1132,-3168,-9344,-2577,2025-01-29 11:55:06,0.0
-12104,-2232,-544,-2743,-7905,-1371,2025-01-29 11:55:06,0.0
-10520,-3160,-4160,-3047,-7936,-106,2025-01-29 11:55:06,
-9768,-3800,-4868,-4111,-8730,325,2025-01-29 11:55:06,0.0
-9096,-3808,-1676,-5044,-9544,263,2025-01-29 11:55:06,0.0
-11444,-1480,5392,-3911,-7291,-406,2025-01-29 11:55:06,0.0
-11184,-1208,8316,-1335,-7389,24,2025-01-29 11:55:06,0.0
-11372,-2356,140,57,-10736,163,2025-01-29 11:55:06,0.0
-11472,-3444,-5620,-1385,-12040,966,2025-01-29 11:55:06,0.0
-8444,-4076,-3032,-3037,-10031,605,2025-01-29 11:55:06,0.0
-8976,-252,4036,-2803,-4568,-1102,2025-01-29 11:55:06,0.0
-9500,-144,5872,-1435,821,-2004,2025-01-29 11:55:06,0.0
-9396,-1212,288,-1257,-742,-2258,2025-01-29 11:55:06,0.0
-9176,-1872,-4576,-3157,-3585,-2550,2025-01-29 11:55:06,0.0
-8056,-2276,-3988,-5242,-4151,-2753,2025-01-29 11:55:06,0.0
-7404,-2512,1932,-3847,2958,-5629,2025-01-29 11:55:06,0.0
-9064,-216,5892,-285,12397,-6367,2025-01-29 11:55:06,0.0
-5796,1624,2072,1045,11621,-5726,2025-01-29 11:55:06,0.0
-6656,972,-4328,-749,5557,-4434,2025-01-29 11:55:06,0.0
2616,-4080,-11620,-7882,-10010,-468,2025-01-29 11:55:06,0.0
-9008,448,1228,-7356,-12909,-1149,2025-01-29 11:55:06,0.0
-10144,-960,4860,-3665,-3648,4633,2025-01-29 11:55:06,0.0
-6892,-1328,4128,-2787,2404,9636,2025-01-29 11:55:06,0.0
-4776,-128,-712,-1607,4377,12886,2025-01-29 11:55:06,0.0
-3192,-392,-2372,-3471,5601,12414,2025-01-29 11:55:06,0.0
-5060,84,-744,-6529,6175,10211,2025-01-29 11:55:06,0.0
-9188,1520,2376,-8574,4684,9654,2025-01-29 11:55:06,0.0
-13752,2436,-1660,-6489,2100,9167,2025-01-29 11:55:06,0.0
-20956,-676,-14068,-5550,3686,8306,2025-01-29 11:55:06,0.0
-25012,-1848,-23024,-10045,6896,8900,2025-01-29 11:55:06,0.0
-28044,1140,-11252,-11170,6682,7864,2025-01-29 11:55:06,0.0
-32768,10408,11976,-3789,14843,5146,2025-01-29 11:55:06,0.0
-32768,11740,5240,7227,20129,3281,2025-01-29 11:55:06,0.0
-32768,5308,-7528,6501,5276,5452,2025-01-29 11:55:06,0.0
-27664,-428,-12248,2983,-5809,6503,2025-01-29 11:55:06,0.0
-17376,-4684,-6744,2906,-12054,4752,2025-01-29 11:55:06,0.0
-9360,-2340,-2236,4600,-14939,1197,2025-01-29 11:55:06,0.0
-7904,-2496,-1924,5913,-14105,-5007,2025-01-29 11:55:06,0.0
-12748,-3616,-2952,5265,-7338,-9557,2025-01-29 11:55:06,0.0
-19528,-2652,-6132,4746,-1658,-9502,2025-01-29 11:55:06,0.0
-25128,-2916,-5192,3348,3429,-6232,2025-01-29 11:55:06,0.0
-26672,932,2096,3043,7770,-1169,2025-01-29 11:55:06,0.0
-21732,5668,3264,4776,7962,1816,2025-01-29 11:55:06,0.0
-17904,4040,-2580,4682,8374,2882,2025-01-29 11:55:06,0.0
-15092,3604,-6092,4256,6316,2626,2025-01-29 11:55:06,0.0
-15084,3828,-5236,2918,4283,1251,2025-01-29 11:55:06,0.0
-14576,2804,-2788,2832,2701,-813,2025-01-29 11:55:06,0.0
-15560,72,-4700,2152,2182,-1858,2025-01-29 11:55:06,0.0
-17380,-488,-3560,1398,3286,-1484,2025-01-29 11:55:06,0.0
-17616,588,-2608,1639,4838,-623,2025-01-29 11:55:07,0.0
-16864,480,-3704,1690,7568,813,2025-01-29 11:55:07,0.0
-15144,276,-5028,619,9153,1371,2025-01-29 11:55:07,0.0
-14644,12,-5200,131,10480,1153,2025-01-29 11:55:07,0.0
-15312,-356,-5416,-23,11283,905,2025-01-29 11:55:07,0.0
-15568,44,-5280,31,10364,1015,2025-01-29 11:55:07,0.0
-15184,1324,-5112,554,8643,2238,2025-01-29 11:55:07,0.0
-14172,2640,-5380,412,8479,2831,2025-01-29 11:55:07,0.0
-14168,2604,-5808,-48,9739,4159,2025-01-29 11:55:07,0.0
-13804,1232,-4536,-215,10258,5903,2025-01-29 11:55:07,0.0
-13820,-348,-3552,351,11029,7739,2025-01-29 11:55:07,0.0
-12724,-724,-1740,618,12044,10253,2025-01-29 11:55:07,0.0
-10648,-52,-1320,1726,11591,12104,2025-01-29 11:55:07,0.0
-8048,-72,-2692,2571,9911,12232,2025-01-29 11:55:07,0.0
-6164,268,-4120,2421,9595,11146,2025-01-29 11:55:07,0.0
-3404,676,-5248,1909,7904,8472,2025-01-29 11:55:07,0.0
-2188,3644,-4656,1560,2363,4528,2025-01-29 11:55:07,0.0
-2640,6284,-4824,1106,-3528,828,2025-01-29 11:55:07,0.0
-6144,7568,-4696,-32,-6867,-2040,2025-01-29 11:55:07,0.0
-9588,6292,-4828,-876,-7084,-2560,2025-01-29 11:55:07,0.0
-11800,4120,-5248,-1361,-5317,-1743,2025-01-29 11:55:07,0.0
-12288,1532,-6452,-1508,-3397,-869,2025-01-29 11:55:07,0.0
-12192,840,-6972,-2076,-2104,-470,2025-01-29 11:55:07,0.0
-10092,2732,-7544,-2594,-2742,-30,2025-01-29 11:55:07,0.0
-8280,3748,-8440,-3027,-3923,-1010,2025-01-29 11:55:07,0.0
-6992,4584,-8184,-3123,-4250,-2640,2025-01-29 11:55:07,0.0
-8116,4972,-8120,-3113,-4305,-4285,2025-01-29 11:55:07,0.0
-10596,3932,-6692,-3624,-2697,-4992,2025-01-29 11:55:07,0.0
-13180,1416,-4704,-3666,-2291,-4724,2025-01-29 11:55:07,0.0
-15160,456,-3764,-2470,-3072,-3043,2025-01-29 11:55:07,0.0
-14392,832,-4972,-2191,-4350,-1361,2025-01-29 11:55:07,0.0
-13768,1564,-4276,-2539,-5215,-191,2025-01-29 11:55:07,0.0
-11756,1848,-2520,-1997,-5228,206,2025-01-29 11:55:07,0.0
-11388,2380,-3192,-1120,-4710,-251,2025-01-29 11:55:07,0.0
-11360,2184,-3668,-596,-3014,-473,2025-01-29 11:55:07,0.0
-11712,1952,-4240,447,-2584,-348,2025-01-29 11:55:07,0.0
-12024,1836,-3684,1302,-2907,130,2025-01-29 11:55:07,0.0
-11936,3000,-2768,2072,-3559,383,2025-01-29 11:55:07,0.0
-10820,3316,-2620,3266,-1556,-725,2025-01-29 11:55:07,0.0
-11256,2312,-3564,2861,-1083,-1276,2025-01-29 11:55:07,0.0
-11380,2180,-2760,2814,-719,-1377,2025-01-29 11:55:07,0.0
-11480,2460,-1692,3222,-579,-1453,2025-01-29 11:55:07,0.0
-11140,2920,-1580,3734,-127,-1967,2025-01-29 11:55:07,0.0
-10892,2732,-1944,3018,420,-2344,2025-01-29 11:55:07,0.0
-10756,2760,-1732,2784,1364,-2848,2025-01-29 11:55:07,0.0
-11196,2244,-2336,2133,1826,-3428,2025-01-29 11:55:07,0.0
-12552,1340,-2172,1809,1799,-3872,2025-01-29 11:55:07,0.0
-13896,1076,-2088,1945,1338,-3831,2025-01-29 11:55:07,0.0
-15024,1176,-2460,2561,823,-3172,2025-01-29 11:55:07,0.0
-14904,1876,-3248,3016,545,-2373,2025-01-29 11:55:07,0.0
-14496,2560,-4276,2677,214,-1907,2025-01-29 11:55:07,0.0
-14100,2184,-3572,2283,-466,-1894,2025-01-29 11:55:07,0.0
-14516,996,-2852,2343,-1193,-1772,2025-01-29 11:55:07,0.0
-13332,-312,-1932,2828,-1614,-1566,2025-01-29 11:55:07,
-13572,-1360,-1656,4369,-976,-2006,2025-01-29 11:55:07,0.0
-14400,-1028,-972,5518,-314,-1653,2025-01-29 11:55:07,0.0
-16088,528,-2640,6576,694,-1167,2025-01-29 11:55:07,0.0
-18112,620,-5000,6555,3107,-243,2025-01-29 11:55:07,0.0
-20240,1848,-7000,5759,3600,1470,2025-01-29 11:55:07,0.0
-20476,3116,-7796,4310,2381,4056,2025-01-29 11:55:08,0.0
-18040,3416,-8200,3416,1087,5437,2025-01-29 11:55:08,0.0
-14968,2460,-6940,3218,111,5141,2025-01-29 11:55:08,0.0
-12144,1988,-6296,4052,-114,3647,2025-01-29 11:55:08,0.0
-10396,1896,-6852,4701,73,1562,2025-01-29 11:55:08,0.0
-10128,1428,-6776,5083,213,-1005,2025-01-29 11:55:08,0.0
-10844,144,-6604,5052,-673,-2651,2025-01-29 11:55:08,0.0
-11356,-520,-6080,4639,-2590,-3057,2025-01-29 11:55:08,0.0
-11252,-1160,-6032,3876,-3833,-3013,2025-01-29 11:55:08,0.0
-11004,-1892,-5808,3185,-3766,-3016,2025-01-29 11:55:08,0.0
-10824,-2584,-5040,2920,-2093,-2938,2025-01-29 11:55:08,0.0
-10656,-2236,-4900,3092,-420,-2836,2025-01-29 11:55:08,0.0
-10580,-1764,-6288,3011,1172,-2771,2025-01-29 11:55:08,0.0
-12020,-944,-7144,2748,3079,-2632,2025-01-29 11:55:08,0.0
-12772,-512,-7836,2675,4021,-2422,2025-01-29 11:55:08,0.0
-13316,224,-7184,2078,3235,-2374,2025-01-29 11:55:08,0.0
-13344,632,-6180,1790,1607,-2229,2025-01-29 11:55:08,0.0
-12692,388,-5440,1597,-486,-2132,2025-01-29 11:55:08,0.0
-10900,-200,-5496,1115,-2185,-2323,2025-01-29 11:55:08,0.0
-9708,-800,-5924,327,-2768,-2792,2025-01-29 11:55:08,0.0
-9232,-1336,-5356,-444,-2112,-3183,2025-01-29 11:55:08,0.0
-8556,-1808,-5136,-890,-1066,-3382,2025-01-29 11:55:08,0.0
-9132,-2388,-5688,-1174,-330,-3864,2025-01-29 11:55:08,0.0
-10136,-2604,-5644,-1724,1707,-3571,2025-01-29 11:55:08,0.0
-10844,-2576,-5564,-1855,2406,-3648,2025-01-29 11:55:08,0.0
-12280,-2492,-5224,-2076,2785,-3347,2025-01-29 11:55:08,0.0
-13172,-2172,-5028,-2115,2730,-2724,2025-01-29 11:55:08,0.0
-13588,-1952,-5052,-2168,1835,-1823,2025-01-29 11:55:08,0.0
-13080,-1836,-5028,-2353,549,-1452,2025-01-29 11:55:08,0.0
-12332,-1468,-4616,-2595,-462,-1362,2025-01-29 11:55:08,0.0
-11532,-1464,-4476,-2902,-1125,-1350,2025-01-29 11:55:08,0.0
-11148,-1320,-4500,-3163,-966,-1280,2025-01-29 11:55:08,0.0
-11292,-1564,-4300,-3765,-149,-1145,2025-01-29 11:55:08,0.0
-11152,-1936,-3764,-4187,878,-1090,2025-01-29 11:55:08,0.0
-11304,-2392,-3524,-4282,1262,-1335,2025-01-29 11:55:08,0.0
-12064,-2400,-3308,-4261,1253,-1292,2025-01-29 11:55:08,0.0
-12212,-2456,-3576,-4203,932,-1151,2025-01-29 11:55:08,0.0
-12572,-2352,-4220,-4252,833,-891,2025-01-29 11:55:08,0.0
-12860,-2300,-4668,-4390,783,-493,2025-01-29 11:55:08,0.0
-12972,-2392,-4540,-4283,582,-297,2025-01-29 11:55:08,0.0
-12540,-2492,-4452,-4135,46,-406,2025-01-29 11:55:08,0.0
-12492,-2592,-4372,-4044,-244,-954,2025-01-29 11:55:08,0.0
-12656,-2352,-4452,-4108,-398,-1680,2025-01-29 11:55:08,0.0
-13176,-1632,-4024,-4281,-607,-2527,2025-01-29 11:55:08,0.0
-14376,-860,-3400,-4764,-786,-3130,2025-01-29 11:55:08,0.0
-14568,-1232,-5064,-5048,-507,-4135,2025-01-29 11:55:08,0.0
-15140,-3444,-7252,-5265,859,-4735,2025-01-29 11:55:08,0.0
-15300,-6360,-6152,-5095,1847,-5212,2025-01-29 11:55:08,0.0
-16016,-8000,-5288,-4114,1155,-4543,2025-01-29 11:55:08,0.0
-16636,-6892,-3568,-2030,-382,-2225,2025-01-29 11:55:08,0.0
-15888,-4592,-4868,87,-1738,-455,2025-01-29 11:55:08,0.0
-14400,-1416,-7768,165,-2633,174,2025-01-29 11:55:08,0.0
-13568,412,-8096,-811,-2896,319,2025-01-29 11:55:08,0.0
-12104,576,-7976,-1697,-3692,452,2025-01-29 11:55:08,0.0
-10272,148,-7884,-2105,-4306,173,2025-01-29 11:55:08,0.0
-8728,16,-7400,-2011,-3939,-727,2025-01-29 11:55:08,0.0
-8192,-504,-7500,-1696,-2690,-1813,2025-01-29 11:55:08,0.0
-8512,-632,-7448,-1589,-566,-2808,2025-01-29 11:55:08,0.0
-9612,-84,-7032,-1513,1344,-2822,2025-01-29 11:55:08,0.0
-11268,1008,-7212,-1871,2789,-2167,2025-01-29 11:55:08,0.0
-12600,1872,-7644,-2961,3262,-1339,2025-01-29 11:55:08,0.0
-13696,1540,-7828,-4487,2420,-517,2025-01-29 11:55:09,0.0
-13896,436,-7332,-5216,987,109,2025-01-29 11:55:09,0.0
-13184,-196,-7448,-5498,-283,233,2025-01-29 11:55:09,0.0
-12836,-116,-7332,-5778,-500,243,2025-01-29 11:55:09,0.0
-12292,496,-7220,-6056,-303,427,2025-01-29 11:55:09,0.0
-11760,988,-7356,-6613,157,745,2025-01-29 11:55:09,0.0
-10928,1664,-6540,-7089,-89,394,2025-01-29 11:55:09,0.0
-10536,2132,-6232,-7475,-744,-145,2025-01-29 11:55:09,0.0
-10300,2148,-5856,-7900,-890,-806,2025-01-29 11:55:09,0.0
-10536,1240,-5196,-7952,-143,-1516,2025-01-29 11:55:09,0.0
-10760,428,-5212,-7670,560,-1626,2025-01-29 11:55:09,0.0
-10872,-164,-5172,-7562,1322,-1796,2025-01-29 11:55:09,0.0
-10980,-924,-4576,-7520,1503,-2140,2025-01-29 11:55:09,0.0
-10980,-1124,-4764,-7407,1141,-2635,2025-01-29 11:55:09,0.0
-11092,-664,-4972,-7272,1135,-3059,2025-01-29 11:55:09,0.0
-11220,736,-5524,-7373,1121,-3440,2025-01-29 11:55:09,0.0
-11180,1812,-6116,-7950,1051,-3688,2025-01-29 11:55:09,0.0
-11240,2304,-6200,-8827,1077,-4048,2025-01-29 11:55:09,0.0
-11188,1876,-5828,-9475,758,-4542,2025-01-29 11:55:09,0.0
-11084,1504,-6072,-9787,81,-4988,2025-01-29 11:55:09,0.0
-11204,1096,-6308,-10257,-178,-5295,2025-01-29 11:55:09,0.0
-11180,548,-5856,-10580,-34,-5601,2025-01-29 11:55:09,0.0
-11808,148,-5128,-10497,111,-5733,2025-01-29 11:55:09,0.0
-11864,-368,-4788,-10065,-79,-5848,2025-01-29 11:55:09,0.0
-12528,-776,-3508,-9299,-516,-5940,2025-01-29 11:55:09,0.0
-13388,-1556,-2988,-8294,-997,-5765,2025-01-29 11:55:09,0.0
-13176,-1996,-2768,-7238,-1541,-5648,2025-01-29 11:55:09,0.0
-13368,-2232,-2540,-6319,-1666,-5522,2025-01-29 11:55:09,0.0
-13904,-1952,-1932,-5192,-1444,-5014,2025-01-29 11:55:09,0.0
-14368,-1652,-1560,-4159,-948,-4206,2025-01-29 11:55:09,0.0
-14180,-1948,-1456,-3238,-348,-3376,2025-01-29 11:55:09,0.0
-13616,-2500,-2452,-2442,313,-2484,2025-01-29 11:55:09,0.0
-14920,44,-8652,-1107,5021,-846,2025-01-29 11:55:09,0.0
-15232,1216,-10176,-2297,5828,-84,2025-01-29 11:55:09,
-15960,1996,-10188,-3682,4914,638,2025-01-29 11:55:09,0.0
-15740,1848,-7832,-4882,1079,1144,2025-01-29 11:55:09,0.0
-12968,1556,-6584,-4532,-3083,186,2025-01-29 11:55:09,0.0
-11180,1452,-7724,-4078,-4094,-1464,2025-01-29 11:55:09,0.0
-9956,1608,-9232,-4583,-3339,-2866,2025-01-29 11:55:09,0.0
-8752,1772,-9168,-5458,-2470,-4134,2025-01-29 11:55:09,0.0
-9132,1936,-7400,-6549,-1966,-5428,2025-01-29 11:55:09,0.0
-8580,1140,-7072,-7596,-1383,-5910,2025-01-29 11:55:09,0.0
-9220,-400,-7668,-8172,158,-6567,2025-01-29 11:55:09,0.0
-10120,-2340,-8188,-8686,2044,-7545,2025-01-29 11:55:09,0.0
-11912,-4412,-6832,-8553,2902,-8436,2025-01-29 11:55:09,0.0
-13572,-5312,-6136,-7503,2265,-8487,2025-01-29 11:55:09,0.0
-13712,-4508,-6648,-6647,-211,-7940,2025-01-29 11:55:09,0.0
-11860,-2152,-7232,-6507,-1751,-7570,2025-01-29 11:55:09,0.0
-11040,-580,-7820,-6773,-1356,-7488,2025-01-29 11:55:09,0.0
-10204,-124,-8172,-7441,-358,-7429,2025-01-29 11:55:09,0.0
-10084,480,-7296,-8083,-364,-7414,2025-01-29 11:55:09,0.0
-9872,968,-8312,-9309,-893,-7427,2025-01-29 11:55:09,0.0
-9784,956,-7604,-10986,-859,-7584,2025-01-29 11:55:09,0.0
-10600,52,-7452,-12215,-616,-8210,2025-01-29 11:55:09,0.0
-10824,-628,-7088,-12845,-1642,-10327,2025-01-29 11:55:09,0.0
-15620,-884,-9860,-14300,-4725,-11176,2025-01-29 11:55:09,0.0
-15596,-1896,-8380,-15974,-5374,-8490,2025-01-29 11:55:09,0.0
-12508,-2660,-6604,-16176,-6099,-7183,2025-01-29 11:55:09,0.0
-10048,-3732,-6148,-16630,-6504,-7589,2025-01-29 11:55:09,0.0
-9288,-4388,-5936,-16951,-5557,-8235,2025-01-29 11:55:10,0.0
-9724,-4404,-6032,-16888,-4039,-8387,2025-01-29 11:55:10,0.0
-9984,-4016,-5976,-16799,-3135,-8388,2025-01-29 11:55:10,0.0
-10704,-3596,-6112,-16616,-2403,-8378,2025-01-29 11:55:10,0.0
-11632,-3344,-6124,-16591,-1535,-8056,2025-01-29 11:55:10,0.0
-11652,-3108,-6412,-16795,-1319,-7678,2025-01-29 11:55:10,0.0
-11832,-3340,-6516,-17100,-1672,-7285,2025-01-29 11:55:10,0.0
-11408,-3548,-5680,-17147,-2041,-7161,2025-01-29 11:55:10,0.0
-11404,-3856,-5408,-17110,-2722,-7166,2025-01-29 11:55:10,0.0
-11344,-4428,-5244,-16822,-3024,-7347,2025-01-29 11:55:10,0.0
-11716,-4496,-5332,-16525,-2744,-7254,2025-01-29 11:55:10,0.0
-12184,-4060,-5968,-16145,-2731,-6901,2025-01-29 11:55:10,0.0
-11780,-3872,-5780,-16289,-3008,-6620,2025-01-29 11:55:10,0.0
-11180,-4072,-5588,-15991,-2671,-6651,2025-01-29 11:55:10,0.0
-10672,-3416,-5472,-16017,-1801,-6669,2025-01-29 11:55:10,0.0
-10480,-2600,-5864,-16358,-1179,-6908,2025-01-29 11:55:10,0.0
-10856,-2308,-6468,-17020,-553,-7037,2025-01-29 11:55:10,0.0
-11304,-2036,-6536,-17715,-447,-7095,2025-01-29 11:55:10,0.0
-11736,-2388,-6688,-18218,-645,-7136,2025-01-29 11:55:10,0.0
-11928,-2796,-6516,-18289,-906,-7350,2025-01-29 11:55:10,0.0
-11120,-3704,-6028,-18331,-1560,-8299,2025-01-29 11:55:10,0.0
-10220,-4768,-5572,-18064,-2710,-9809,2025-01-29 11:55:10,0.0
-9544,-6148,-6560,-17809,-2980,-11241,2025-01-29 11:55:10,0.0
-11196,-5812,-8048,-18414,-1916,-11069,2025-01-29 11:55:10,0.0
-12148,-3760,-8504,-19449,531,-9485,2025-01-29 11:55:10,0.0
-11960,-1884,-8644,-20464,1137,-8603,2025-01-29 11:55:10,0.0
-11872,-1324,-9172,-22005,-259,-8029,2025-01-29 11:55:10,0.0
-11636,-3800,-7724,-23072,-1270,-7671,2025-01-29 11:55:10,0.0
-10996,-7120,-5984,-22465,-1477,-8121,2025-01-29 11:55:10,0.0
-11136,-9020,-6132,-21275,-1660,-8766,2025-01-29 11:55:10,0.0
-11436,-7516,-7228,-20299,-1711,-8170,2025-01-29 11:55:10,0.0
-10676,-5284,-8616,-19976,-1782,-7680,2025-01-29 11:55:10,0.0
-9992,-3672,-9852,-19811,-1528,-7643,2025-01-29 11:55:10,0.0
-10632,-2304,-12616,-19261,-1091,-7506,2025-01-29 11:55:10,0.0
-11288,-1128,-12016,-19853,-417,-7415,2025-01-29 11:55:10,0.0
-10484,-92,-8228,-19697,-426,-8612,2025-01-29 11:55:10,0.0
-9932,1136,-6296,-18677,-2127,-10531,2025-01-29 11:55:10,0.0
-10752,400,-9016,-19337,-2922,-10480,2025-01-29 11:55:10,0.0
-8940,-688,-9976,-20249,-1466,-9364,2025-01-29 11:55:10,0.0
-7616,-1528,-10752,-21321,1456,-9014,2025-01-29 11:55:10,0.0
-8252,-1664,-10140,-22023,5378,-8982,2025-01-29 11:55:10,0.0
-9876,-1560,-9700,-22173,7991,-8887,2025-01-29 11:55:10,0.0
-11556,-2004,-9692,-22344,7575,-9455,2025-01-29 11:55:10,0.0
-13688,-2644,-9176,-21956,5401,-9381,2025-01-29 11:55:10,0.0
-13896,-2520,-7292,-21437,2346,-8479,2025-01-29 11:55:10,0.0
-12312,-1260,-6444,-20487,-1323,-8681,2025-01-29 11:55:10,0.0
-11672,-712,-7408,-20157,-2469,-9265,2025-01-29 11:55:10,0.0
-10764,-464,-8368,-20388,-2752,-9627,2025-01-29 11:55:10,0.0
-9128,-1468,-9444,-20606,-3404,-10367,2025-01-29 11:55:10,0.0
-8132,-1276,-8536,-20926,-3496,-10724,2025-01-29 11:55:10,0.0
-7524,-1336,-7768,-20597,-3140,-11095,2025-01-29 11:55:10,0.0
-7508,-1484,-7040,-20109,-2187,-10855,2025-01-29 11:55:10,0.0
-7140,-1724,-6116,-18963,792,-10975,2025-01-29 11:55:10,0.0
-7560,-2284,-7060,-17934,3115,-10963,2025-01-29 11:55:10,0.0
-9060,-2608,-8344,-17535,3734,-11149,2025-01-29 11:55:10,0.0
-10236,-3124,-8692,-17053,4026,-10726,2025-01-29 11:55:10,0.0
-11216,-3848,-8148,-15195,3222,-11060,2025-01-29 11:55:10,0.0
-11716,-3716,-7648,-13275,3396,-10486,2025-01-29 11:55:10,0.0
-11332,-2900,-8376,-11312,3601,-9505,2025-01-29 11:55:10,0.0
-11184,-1580,-8152,-10886,1611,-8187,2025-01-29 11:55:10,0.0
-10148,-1664,-6556,-10293,-884,-6874,2025-01-29 11:55:10,0.0
-9772,-2864,-5760,-9302,-1488,-5664,2025-01-29 11:55:11,0.0
-7452,-2720,-6140,-8315,-541,-5457,2025-01-29 11:55:11,0.0
-7452,-1208,-6236,-7405,442,-5400,2025-01-29 11:55:11,0.0
-7244,-32,-6484,-6907,1935,-4592,2025-01-29 11:55:11,0.0
-7896,276,-6344,-7366,1760,-4236,2025-01-29 11:55:11,0.0
-9272,-68,-5012,-8569,-1407,-4107,2025-01-29 11:55:11,0.0
-8680,-2180,-3856,-8192,-2040,-2949,2025-01-29 11:55:11,0.0
-7084,-1852,-4936,-8182,-4139,-3645,2025-01-29 11:55:11,0.0
-8080,-1084,-4560,-8014,-7006,-6047,2025-01-29 11:55:11,0.0
-11792,-1100,-4632,-7659,-10192,-7890,2025-01-29 11:55:11,0.0
-14008,-912,-5692,-9027,-8199,-5728,2025-01-29 11:55:11,0.0
-17132,-1696,-6372,-9713,-5582,-3173,2025-01-29 11:55:11,0.0
-17936,-1572,-5452,-12254,-1904,1180,2025-01-29 11:55:11,0.0
-13816,-2688,-1412,-10916,1147,3630,2025-01-29 11:55:11,
-10500,-2556,-4400,-9523,-2298,4421,2025-01-29 11:55:11,0.0
-7872,-652,-3628,-9482,-3475,2994,2025-01-29 11:55:11,0.0
-6108,492,-3860,-7527,-3853,186,2025-01-29 11:55:11,0.0
-5192,-236,-5448,-6149,-1498,-2694,2025-01-29 11:55:11,0.0
-13336,-1356,-5496,-5123,-1761,-2980,2025-01-29 11:55:11,0.0
-12928,-1140,-6668,-4522,-4669,-2545,2025-01-29 11:55:11,0.0
-14144,-684,-4200,-2948,-10674,-2090,2025-01-29 11:55:11,0.0
-15656,-60,-6936,-2560,-12711,-1180,2025-01-29 11:55:11,0.0
-15680,432,-5732,-3717,-12859,-397,2025-01-29 11:55:11,0.0
-12448,1100,-3568,-2970,-19819,-375,2025-01-29 11:55:11,0.0
-16364,204,-8028,-3210,-19756,-142,2025-01-29 11:55:11,0.0
-11512,-1160,-6496,-6493,-10138,854,2025-01-29 11:55:11,0.0
-10920,844,-700,-4327,-6891,-482,2025-01-29 11:55:11,0.0
-11284,-488,-1704,-2331,-3575,458,2025-01-29 11:55:11,0.0
-12308,-1128,-1552,-2169,-492,927,2025-01-29 11:55:11,0.0
-15172,-548,-448,-1400,1677,2106,2025-01-29 11:55:11,0.0
-13952,-904,-2072,-204,174,2109,2025-01-29 11:55:11,0.0
-15064,1704,-928,405,-831,812,2025-01-29 11:55:11,0.0
-16320,2168,-748,979,-3224,-104,2025-01-29 11:55:11,0.0
-15204,1376,-1440,829,-6281,-140,2025-01-29 11:55:11,0.0
-15776,2132,648,311,-7124,147,2025-01-29 11:55:11,0.0
-14848,2648,-172,-288,-6443,389,2025-01-29 11:55:11,0.0
-15472,2236,-272,-848,-4815,207,2025-01-29 11:55:11,0.0
-15552,1036,20,-1319,-5107,307,2025-01-29 11:55:11,0.0
-16236,224,1492,-1034,-6769,891,2025-01-29 11:55:11,0.0
-13472,1528,1428,-537,-8804,3,2025-01-29 11:55:11,0.0
-13092,2680,2080,-224,-9333,-1922,2025-01-29 11:55:11,0.0
-15532,1776,1160,-772,-8467,-2095,2025-01-29 11:55:11,0.0
-18372,872,1172,-1099,-9061,-1331,2025-01-29 11:55:11,0.0
-17036,1260,1264,-174,-10020,-831,2025-01-29 11:55:11,0.0
-16100,2080,1712,218,-10353,-1151,2025-01-29 11:55:11,0.0
-17076,1296,1552,-168,-10669,-1269,2025-01-29 11:55:11,0.0
-15768,936,2772,-400,-11935,-1838,2025-01-29 11:55:11,0.0
-15116,884,3244,-18,-11960,-2718,2025-01-29 11:55:11,0.0
-15584,672,3016,298,-11128,-3157,2025-01-29 11:55:11,0.0
-16820,292,2720,-71,-9930,-2651,2025-01-29 11:55:11,0.0
-14544,1076,2624,-364,-9619,-2374,2025-01-29 11:55:11,0.0
-12764,1308,3052,-727,-9925,-3952,2025-01-29 11:55:11,0.0
-13888,1488,3500,-1032,-9102,-5540,2025-01-29 11:55:11,0.0
-14780,2292,5492,-966,-8639,-7138,2025-01-29 11:55:11,0.0
-15948,1664,5924,-640,-8026,-7513,2025-01-29 11:55:11,0.0
-16788,1408,6128,-56,-6872,-6452,2025-01-29 11:55:11,0.0
-16424,1468,5828,-676,-8653,-4050,2025-01-29 11:55:11,0.0
-14464,1276,7016,105,-9316,-2862,2025-01-29 11:55:11,0.0
-13424,1464,6288,764,-9489,-2280,2025-01-29 11:55:11,0.0
-14220,2192,5856,-340,-10220,-1486,2025-01-29 11:55:11,0.0
-13512,1160,5548,-1311,-8516,-1563,2025-01-29 11:55:12,0.0
-12784,112,5800,-2285,-6521,-1838,2025-01-29 11:55:12,0.0
-12676,-696,7580,-2550,-6070,-2026,2025-01-29 11:55:12,0.0
-12056,-1960,7664,-2671,-5890,-1992,2025-01-29 11:55:12,0.0
-12296,-2204,7980,-2397,-5393,-1681,2025-01-29 11:55:12,0.0
-11920,-2348,8368,-1457,-4798,-1336,2025-01-29 11:55:12,0.0
-12232,-2072,8340,-874,-4257,-1002,2025-01-29 11:55:12,0.0
-11884,-1444,7884,-924,-3832,-875,2025-01-29 11:55:12,0.0
-12076,-872,7712,-1004,-3632,-1204,2025-01-29 11:55:12,0.0
-11904,-228,8416,-1340,-4217,-1902,2025-01-29 11:55:12,0.0
-12164,-812,10060,-1658,-4786,-2724,2025-01-29 11:55:12,0.0
-12212,-1312,10772,-1828,-5447,-3283,2025-01-29 11:55:12,0.0
-12680,-1952,11020,-1681,-5707,-2979,2025-01-29 11:55:12,0.0
-11360,-2632,9932,-1376,-5105,-1921,2025-01-29 11:55:12,0.0
-10608,-3436,10352,-1282,-3995,-1116,2025-01-29 11:55:12,0.0
-10672,-3780,9828,-1162,-2308,-663,2025-01-29 11:55:12,0.0
-11268,-3364,9640,-889,-928,-449,2025-01-29 11:55:12,0.0
-12096,-2976,10124,-712,-445,-808,2025-01-29 11:55:12,0.0
-12432,-2700,10216,-609,-535,-750,2025-01-29 11:55:12,0.0
-13088,-2444,9976,-670,-846,-432,2025-01-29 11:55:12,0.0
-12636,-2624,10108,-737,-1370,-169,2025-01-29 11:55:12,0.0
-12044,-2668,10308,-612,-2201,-26,2025-01-29 11:55:12,0.0
-11372,-3016,10360,-457,-2876,365,2025-01-29 11:55:12,0.0
-10448,-2908,10320,-296,-2883,694,2025-01-29 11:55:12,0.0
-10484,-2564,10400,-284,-2268,992,2025-01-29 11:55:12,0.0
-10304,-2412,10652,-223,-1440,1215,2025-01-29 11:55:12,0.0
-10160,-2080,10372,-224,-550,1312,2025-01-29 11:55:12,0.0
-10816,-1708,10380,-342,506,1003,2025-01-29 11:55:12,0.0
-11480,-1488,10316,-461,660,740,2025-01-29 11:55:12,0.0
-12068,-1576,10076,-615,70,720,2025-01-29 11:55:12,0.0
-11824,-1892,10244,-688,-702,779,2025-01-29 11:55:12,0.0
-11664,-1892,10380,-626,-1510,1004,2025-01-29 11:55:12,0.0
-11196,-1648,10728,-565,-1677,1461,2025-01-29 11:55:12,0.0
-10612,-1528,10784,-355,-1071,1478,2025-01-29 11:55:12,0.0
-10472,-1092,10660,-483,-23,845,2025-01-29 11:55:12,0.0
-10992,-840,11008,-717,654,60,2025-01-29 11:55:12,0.0
-11812,-1144,11232,-837,466,-290,2025-01-29 11:55:12,0.0
-12132,-1516,10876,-491,-152,513,2025-01-29 11:55:12,0.0
-11356,-1516,10328,-160,-310,1178,2025-01-29 11:55:12,0.0
-10468,-1164,9968,-86,62,1255,2025-01-29 11:55:12,0.0
-10536,-836,9924,-178,392,973,2025-01-29 11:55:12,0.0
-10840,-728,10440,-299,562,674,2025-01-29 11:55:12,0.0
-11276,-876,10740,-395,475,499,2025-01-29 11:55:12,0.0
-11468,-1032,10864,-484,192,436,2025-01-29 11:55:12,0.0
-11428,-1100,11088,-479,170,284,2025-01-29 11:55:12,0.0
-11260,-1332,10780,-522,364,156,2025-01-29 11:55:12,0.0
-11484,-1480,10252,-552,564,82,2025-01-29 11:55:12,0.0
-11388,-1700,10204,-558,633,186,2025-01-29 11:55:12,0.0
-11684,-1692,10084,-399,623,388,2025-01-29 11:55:12,0.0
-11524,-1516,10116,-311,471,484,2025-01-29 11:55:12,0.0
-11468,-1236,10100,-382,275,349,2025-01-29 11:55:12,0.0
-11308,-1204,10356,-403,241,177,2025-01-29 11:55:12,0.0
-11360,-1284,10512,-402,352,5,2025-01-29 11:55:12,0.0
-11548,-1228,10412,-399,295,19,2025-01-29 11:55:12,
-11608,-1032,10216,-369,364,100,2025-01-29 11:55:12,0.0
-11632,-784,10280,-392,567,131,2025-01-29 11:55:12,0.0
-11696,-756,9956,-470,600,82,2025-01-29 11:55:12,0.0
-11712,-820,9632,-460,434,5,2025-01-29 11:55:12,0.0
-11752,-900,9904,-428,342,-88,2025-01-29 11:55:12,0.0
-11720,-1032,9948,-443,300,-152,2025-01-29 11:55:12,0.0
-11840,-1028,10028,-425,142,-130,2025-01-29 11:55:13,0.0
-11708,-1164,10160,-404,79,-169,2025-01-29 11:55:13,0.0
-11576,-1264,10008,-382,134,-239,2025-01-29 11:55:13,0.0
-11640,-1320,10180,-401,177,-344,2025-01-29 11:55:13,0.0
-11540,-1508,10128,-368,305,-449,2025-01-29 11:55:13,0.0
-11764,-1416,10064,-349,321,-488,2025-01-29 11:55:13,0.0
-11708,-1348,9928,-313,219,-397,2025-01-29 11:55:13,0.0
-11808,-1408,10080,-290,202,-311,2025-01-29 11:55:13,0.0
-11816,-1436,10136,-297,131,-259,2025-01-29 11:55:13,0.0
-11560,-1328,10132,-345,100,-284,2025-01-29 11:55:13,0.0
-11600,-1376,10268,-359,114,-326,2025-01-29 11:55:13,0.0
-11524,-1416,10260,-379,171,-377,2025-01-29 11:55:13,0.0
-11624,-1380,10204,-342,155,-421,2025-01-29 11:55:13,0.0
-11624,-1508,10140,-324,176,-428,2025-01-29 11:55:13,0.0
-11640,-1416,10216,-308,205,-376,2025-01-29 11:55:13,0.0
-11696,-1448,10028,-271,232,-331,2025-01-29 11:55:13,0.0
-11560,-1364,10152,-270,148,-339,2025-01-29 11:55:13,0.0
-11572,-1484,10164,-245,112,-372,2025-01-29 11:55:13,0.0
-11616,-1524,10296,-220,63,-397,2025-01-29 11:55:13,0.0
-11552,-1536,10348,-216,56,-421,2025-01-29 11:55:13,0.0
-11592,-1532,10172,-232,74,-420,2025-01-29 11:55:13,0.0
-11636,-1508,10152,-170,132,-375,2025-01-29 11:55:13,0.0
-11584,-1472,10096,-129,145,-373,2025-01-29 11:55:13,0.0
-11612,-1504,10092,-140,207,-355,2025-01-29 11:55:13,0.0
-11628,-1612,10184,-86,194,-345,2025-01-29 11:55:13,0.0
-11596,-1560,10108,-60,172,-284,2025-01-29 11:55:13,0.0
-11500,-1360,10136,77,-16,-285,2025-01-29 11:55:13,0.0
-11568,-1332,10152,45,7,-367,2025-01-29 11:55:13,0.0
-11620,-1392,10292,51,8,-376,2025-01-29 11:55:13,0.0
-11624,-1348,10216,35,24,-308,2025-01-29 11:55:13,0.0
-11588,-1308,10292,23,98,-306,2025-01-29 11:55:13,0.0
-11616,-1392,10328,-25,-51,-323,2025-01-29 11:55:13,0.0
-11752,-1488,10428,-62,-160,-425,2025-01-29 11:55:13,0.0
-11816,-1588,9936,37,-77,-432,2025-01-29 11:55:13,0.0
-11920,-1372,9804,214,210,-355,2025-01-29 11:55:13,0.0
-12180,-1264,10460,405,48,-291,2025-01-29 11:55:13,0.0
-12052,-1288,10040,485,-111,-394,2025-01-29 11:55:13,0.0
-11624,-792,9884,278,230,-595,2025-01-29 11:55:13,0.0
-12044,-1260,10028,158,669,-815,2025-01-29 11:55:13,0.0
-11160,-1400,9488,-226,-662,-1046,2025-01-29 11:55:13,0.0
-12408,-1580,9672,-478,-614,-1245,2025-01-29 11:55:13,0.0
-12408,-1636,9636,-631,-911,-1139,2025-01-29 11:55:13,0.0
-11744,-1488,9752,-732,-1930,-554,2025-01-29 11:55:13,0.0
-10536,-900,9844,-754,-2670,-91,2025-01-29 11:55:13,0.0
-9684,-636,10248,-841,-2376,-105,2025-01-29 11:55:13,0.0
-9572,-1092,10592,-939,-856,-218,2025-01-29 11:55:13,0.0
-10040,-1268,10424,-884,410,-30,2025-01-29 11:55:13,0.0
-10384,-1532,10172,-1097,972,120,2025-01-29 11:55:13,0.0
-10904,-1364,10040,-1318,853,302,2025-01-29 11:55:13,0.0
-11072,-1280,10536,-1629,974,320,2025-01-29 11:55:13,0.0
-11024,-1512,10632,-1816,1005,10,2025-01-29 11:55:13,0.0
-11388,-1628,10728,-1796,646,-247,2025-01-29 11:55:13,0.0
-11468,-1976,10768,-1743,434,-356,2025-01-29 11:55:13,0.0
-11328,-2072,10612,-1743,202,-205,2025-01-29 11:55:14,0.0
-10948,-2168,10612,-1602,228,123,2025-01-29 11:55:14,0.0
-10588,-1836,10428,-1434,479,274,2025-01-29 11:55:14,0.0
-10728,-1460,10000,-1527,1015,203,2025-01-29 11:55:14,0.0
-11156,-1464,9664,-1760,1295,-20,2025-01-29 11:55:14,0.0
-11860,-2012,10012,-1630,1002,8,2025-01-29 11:55:14,0.0
-12740,-2376,10956,-1084,232,507,2025-01-29 11:55:14,0.0
-12360,-2532,10796,-580,-684,930,2025-01-29 11:55:14,0.0
-11688,-2440,10036,-570,-1149,1044,2025-01-29 11:55:14,0.0
-11180,-2076,10008,-675,-743,1030,2025-01-29 11:55:14,0.0
-11128,-1868,10260,-817,202,876,2025-01-29 11:55:14,0.0
-11276,-1812,10992,-902,922,895,2025-01-29 11:55:14,0.0
-11116,-1884,11260,-946,1508,1203,2025-01-29 11:55:14,0.0
-11188,-2072,11172,-731,2134,1590,2025-01-29 11:55:14,0.0
-10960,-2164,10692,-565,2815,1956,2025-01-29 11:55:14,0.0
-10972,-2084,10764,-514,3374,2256,2025-01-29 11:55:14,0.0
-11092,-2092,10972,-477,3764,2346,2025-01-29 11:55:14,0.0
-11060,-1960,11536,-697,4070,2075,2025-01-29 11:55:14,0.0
-10680,-2392,11908,-752,4425,1741,2025-01-29 11:55:14,0.0
-11084,-2684,11036,-343,5438,1526,2025-01-29 11:55:14,0.0
-10972,-3352,9120,489,7123,1045,2025-01-29 11:55:14,0.0
-11872,-3700,8504,1403,7505,502,2025-01-29 11:55:14,0.0
-12624,-4036,9180,2025,6283,212,2025-01-29 11:55:14,0.0
-12688,-3656,10676,2520,4667,15,2025-01-29 11:55:14,0.0
-12832,-2372,11164,3316,4930,321,2025-01-29 11:55:14,0.0
-12736,-928,10444,3868,6694,724,2025-01-29 11:55:14,0.0
-13384,680,9372,3844,8328,1206,2025-01-29 11:55:14,0.0
-13032,2152,8088,3206,9102,1699,2025-01-29 11:55:14,0.0
-12680,1628,6796,1053,9809,3216,2025-01-29 11:55:14,0.0
-13212,372,7008,641,10803,3902,2025-01-29 11:55:14,0.0
-13532,-668,8588,909,11401,4064,2025-01-29 11:55:14,0.0
-14376,-1016,8376,1734,12498,3904,2025-01-29 11:55:14,0.0
-13696,-512,8280,2126,13160,3740,2025-01-29 11:55:14,0.0
-14240,672,8132,2342,13501,3343,2025-01-29 11:55:14,0.0
-14528,1700,7116,2415,12652,1914,2025-01-29 11:55:14,0.0
-15108,344,6528,1671,12733,1267,2025-01-29 11:55:14,0.0
-17584,-400,6740,905,13664,1398,2025-01-29 11:55:14,0.0
-17488,-948,5460,705,13673,1573,2025-01-29 11:55:14,0.0
-20700,16,7580,1484,15134,948,2025-01-29 11:55:14,0.0
-16352,76,3388,714,10422,1329,2025-01-29 11:55:14,0.0
-16124,-308,4044,1330,10641,915,2025-01-29 11:55:14,
-16648,596,3372,2064,10538,661,2025-01-29 11:55:14,0.0
-17588,1272,3096,1976,10254,561,2025-01-29 11:55:14,0.0
-17016,1480,2312,2332,10114,161,2025-01-29 11:55:14,0.0
-16124,1764,412,2705,9880,32,2025-01-29 11:55:14,0.0
-15324,1588,200,2708,9046,373,2025-01-29 11:55:14,0.0
-14704,1812,80,2527,8222,171,2025-01-29 11:55:14,0.0
-14780,1784,-220,2569,8036,-291,2025-01-29 11:55:14,0.0
-14764,1556,-216,2870,7850,-464,2025-01-29 11:55:14,0.0
-15240,1128,-220,3198,6856,-642,2025-01-29 11:55:14,0.0
-15488,716,-380,3422,5257,-383,2025-01-29 11:55:14,0.0
-15096,1036,-24,3382,3852,78,2025-01-29 11:55:14,0.0
-15236,1384,-500,3077,4346,582,2025-01-29 11:55:14,0.0
-15584,1128,-1588,2569,6123,1675,2025-01-29 11:55:14,0.0
-13864,1236,-2420,2475,5421,1463,2025-01-29 11:55:14,0.0
-14900,1424,-2652,2769,2874,134,2025-01-29 11:55:14,0.0
-16064,1328,-2736,3066,1835,-325,2025-01-29 11:55:14,0.0
-16664,1308,-2096,3127,1586,-90,2025-01-29 11:55:14,0.0
-15796,1292,-2944,2855,1581,232,2025-01-29 11:55:14,0.0
-15288,1772,-2640,2062,1836,193,2025-01-29 11:55:14,0.0
-14104,1940,-2108,1499,2046,-475,2025-01-29 11:55:15,0.0
-13296,2112,-828,1777,2325,-1381,2025-01-29 11:55:15,0.0
-13048,1736,-688,2574,2555,-1899,2025-01-29 11:55:15,0.0
-12824,1296,-1156,3079,3183,-2350,2025-01-29 11:55:15,0.0
-12540,1016,-1944,3082,4173,-2768,2025-01-29 11:55:15,0.0
-12656,684,-2264,2933,3924,-2670,2025-01-29 11:55:15,0.0
-13044,-100,-1540,3024,3805,-2634,2025-01-29 11:55:15,0.0
-12964,-700,-948,3410,3517,-2781,2025-01-29 11:55:15,0.0
-13516,-1412,-208,4255,3367,-3127,2025-01-29 11:55:15,0.0
-13848,-1264,-1384,5199,4114,-2889,2025-01-29 11:55:15,0.0
-12624,-1616,-2108,5850,5735,-2082,2025-01-29 11:55:15,0.0
-12284,-632,-2544,5952,2900,-1066,2025-01-29 11:55:15,0.0
-13004,-28,-2376,6536,2506,279,2025-01-29 11:55:15,0.0
-11920,-36,-3920,6813,-699,1843,2025-01-29 11:55:15,0.0
-12484,2484,-6780,6138,-4594,2674,2025-01-29 11:55:15,0.0
-11336,464,-3192,3822,738,1899,2025-01-29 11:55:15,0.0
-10740,-340,-3072,2394,2713,334,2025-01-29 11:55:15,0.0
-10596,-152,-3696,2146,781,-1089,2025-01-29 11:55:15,0.0
-10560,-532,-5456,1566,-8,-2385,2025-01-29 11:55:15,0.0
-9756,-764,-5180,561,-1348,-2953,2025-01-29 11:55:15,0.0
-8972,-1772,-4968,-100,-2031,-3303,2025-01-29 11:55:15,0.0
-7548,-2792,-4244,-228,-2346,-3355,2025-01-29 11:55:15,0.0
-7420,-2836,-3692,409,-1811,-3307,2025-01-29 11:55:15,0.0
-7836,-2276,-3228,1120,-700,-3369,2025-01-29 11:55:15,0.0
-8236,-2232,-3200,1027,-700,-3381,2025-01-29 11:55:15,0.0
-8296,-2192,-2940,774,-1291,-3414,2025-01-29 11:55:15,0.0
-9092,-2620,-2288,669,-2678,-3295,2025-01-29 11:55:15,0.0
-9960,-3112,-2780,544,-680,-2840,2025-01-29 11:55:15,0.0
-10052,-3284,-2304,796,1785,-1791,2025-01-29 11:55:15,0.0
-10424,-3876,-2208,1674,2932,-1215,2025-01-29 11:55:15,0.0
-12332,-4312,-1396,2563,2116,-1024,2025-01-29 11:55:15,0.0
-12212,-4476,-1644,2600,3075,-756,2025-01-29 11:55:15,0.0
-12272,-3588,-2224,2661,3932,-656,2025-01-29 11:55:15,0.0
-12488,-2824,-2600,1926,3977,-592,2025-01-29 11:55:15,0.0
-12188,-2500,-2268,1334,3414,-269,2025-01-29 11:55:15,0.0
-11664,-2656,-2296,969,1998,-600,2025-01-29 11:55:15,0.0
-13052,-2728,-2052,1170,1452,-352,2025-01-29 11:55:15,0.0
-13956,-3340,-1544,1829,2215,1640,2025-01-29 11:55:15,0.0
-12164,-3536,-2412,2454,2275,2390,2025-01-29 11:55:15,0.0
-12012,-3528,-3232,2641,2079,1775,2025-01-29 11:55:15,0.0
-12684,-3084,-2404,1968,1646,1134,2025-01-29 11:55:15,0.0
-13928,-2428,-1252,1231,1459,925,2025-01-29 11:55:15,0.0
-14960,-2280,-1112,1037,58,977,2025-01-29 11:55:15,0.0
-15784,-1704,-2444,1121,-891,2017,2025-01-29 11:55:15,0.0
-14196,-3140,-1388,329,-3029,2006,2025-01-29 11:55:15,0.0
-14516,-3520,-1284,678,-5062,1844,2025-01-29 11:55:15,0.0
-13440,-3356,-976,436,-7133,1363,2025-01-29 11:55:15,0.0
-12728,-3532,-128,648,-9056,448,2025-01-29 11:55:15,0.0
-12580,-4428,-68,768,-9823,177,2025-01-29 11:55:15,0.0
-11828,-4604,812,414,-9693,-406,2025-01-29 11:55:15,0.0
-12192,-5032,1792,731,-8975,-853,2025-01-29 11:55:15,0.0
-13124,-5032,1836,1237,-6738,-718,2025-01-29 11:55:15,0.0
-13016,-4540,684,531,-1366,-687,2025-01-29 11:55:15,0.0
-14400,-4372,1756,1141,808,-198,2025-01-29 11:55:15,0.0
-14140,-3788,1936,917,2649,220,2025-01-29 11:55:15,0.0
-15212,-4096,3016,2455,3992,-140,2025-01-29 11:55:15,0.0
-15832,-4344,-140,4009,5375,-1368,2025-01-29 11:55:15,0.0
-17292,-6384,-2476,4423,7463,-2316,2025-01-29 11:55:15,0.0
-18704,-8436,-5876,4251,8429,-2020,2025-01-29 11:55:15,0.0
-19288,-9056,-6880,4106,9095,-155,2025-01-29 11:55:15,0.0
-16952,-7072,-6596,4050,6975,1945,2025-01-29 11:55:16,0.0
-13916,-4144,-9664,4099,3638,2134,2025-01-29 11:55:16,0.0
-12692,-1300,-11104,3322,2058,2116,2025-01-29 11:55:16,0.0
-12424,1228,-8428,3087,-281,2484,2025-01-29 11:55:16,0.0
-11712,2228,-7360,3372,-2880,3358,2025-01-29 11:55:16,0.0
-10632,2376,-8548,2834,-4812,3164,2025-01-29 11:55:16,0.0
-11064,1904,-8800,1598,-3971,2313,2025-01-29 11:55:16,0.0
-11048,248,-7712,767,-2019,1781,2025-01-29 11:55:16,0.0
-10624,-1624,-6376,909,-783,1608,2025-01-29 11:55:16,0.0
-11516,-2376,-5348,1128,206,2313,2025-01-29 11:55:16,0.0
-10596,-1708,-4152,2062,1003,3672,2025-01-29 11:55:16,0.0
-10176,-2092,-4308,2346,1412,3387,2025-01-29 11:55:16,0.0
-10456,-2376,-3276,2394,2890,3234,2025-01-29 11:55:16,0.0
-10972,-2304,-1596,3426,3315,3262,2025-01-29 11:55:16,0.0
-11824,-2284,-1900,4414,3345,3419,2025-01-29 11:55:16,0.0
-12720,-1964,-2012,5114,3514,3839,2025-01-29 11:55:16,0.0
-12828,-1528,-3100,5807,2830,4326,2025-01-29 11:55:16,0.0
-12888,-1680,-3504,6064,2681,4528,2025-01-29 11:55:16,0.0
-12588,-2076,-3040,6674,3149,4667,2025-01-29 11:55:16,0.0
-12244,-2020,-3136,7442,2879,4701,2025-01-29 11:55:16,0.0
-12516,-1556,-2688,8095,2269,4740,2025-01-29 11:55:16,
-12600,-652,-2784,8987,1393,4934,2025-01-29 11:55:16,0.0
-12624,-180,-3644,9497,874,5104,2025-01-29 11:55:16,0.0
-12476,-88,-4152,9453,938,5178,2025-01-29 11:55:16,0.0
-11712,-504,-4084,9461,1234,5083,2025-01-29 11:55:16,0.0
-10764,-1036,-4164,9744,1548,4812,2025-01-29 11:55:16,0.0
-10496,-936,-4876,9914,1927,4445,2025-01-29 11:55:16,0.0
-10592,-168,-4992,10026,2794,4062,2025-01-29 11:55:16,0.0
-11380,616,-5232,10141,3791,3529,2025-01-29 11:55:16,0.0
-12088,1572,-5776,9802,4366,3414,2025-01-29 11:55:16,0.0
-13772,2340,-5404,8194,3843,3695,2025-01-29 11:55:16,0.0
-13444,2716,-5472,6809,3670,3650,2025-01-29 11:55:16,0.0
-13276,1716,-4328,6120,2994,3292,2025-01-29 11:55:16,0.0
-13756,384,-3084,5633,1381,3316,2025-01-29 11:55:16,0.0
-13368,-700,-2824,5965,216,3603,2025-01-29 11:55:16,0.0
-12088,-1172,-3052,6537,-404,3679,2025-01-29 11:55:16,0.0
-11528,-1200,-3012,7004,-558,3290,2025-01-29 11:55:16,0.0
-11536,-704,-2812,7261,-605,2149,2025-01-29 11:55:16,0.0
-12368,-444,-3384,7097,-1348,-182,2025-01-29 11:55:16,0.0
-14020,-960,-3736,7281,-615,-725,2025-01-29 11:55:16,0.0
-15316,-1268,-5960,7710,-484,-860,2025-01-29 11:55:16,0.0
-16164,-1524,-9568,7340,354,-838,2025-01-29 11:55:16,0.0
-16452,-1160,-11052,6183,682,126,2025-01-29 11:55:16,0.0
-14496,-60,-9404,5207,-849,1017,2025-01-29 11:55:16,0.0
-11212,-140,-6052,5222,-3917,642,2025-01-29 11:55:16,0.0
-9248,-1356,-3932,5216,-5982,-501,2025-01-29 11:55:16,0.0
-8388,-2644,-2928,5624,-5850,-2057,2025-01-29 11:55:16,0.0
-8888,-3624,-2196,6729,-4124,-2614,2025-01-29 11:55:16,0.0
-10152,-3348,-4696,7447,-2112,-2724,2025-01-29 11:55:16,0.0
-11836,-1964,-6896,6723,758,-2498,2025-01-29 11:55:16,0.0
-14484,-880,-7352,5611,4204,-1908,2025-01-29 11:55:16,0.0
-15272,-1104,-6512,4798,5992,-877,2025-01-29 11:55:16,0.0
-14788,-1820,-4580,3947,4032,-879,2025-01-29 11:55:16,0.0
-13872,-2336,-2920,3914,1022,-1054,2025-01-29 11:55:16,0.0
-12912,-3252,-2804,4399,-1082,-1295,2025-01-29 11:55:16,0.0
-11468,-3644,-4092,4372,-1957,-1440,2025-01-29 11:55:16,0.0
-10212,-3344,-3872,4097,-1765,-1305,2025-01-29 11:55:16,0.0
-9316,-2888,-3852,3615,-1222,-1291,2025-01-29 11:55:16,0.0
-9060,-2696,-4176,3034,711,-1197,2025-01-29 11:55:16,0.0
-9804,-2720,-3848,2160,2967,-1196,2025-01-29 11:55:16,0.0
-11376,-2804,-3292,1587,4443,-814,2025-01-29 11:55:16,0.0
-12760,-2816,-3104,1328,4435,52,2025-01-29 11:55:17,0.0
-13052,-2652,-3992,895,4286,1017,2025-01-29 11:55:17,0.0
-12996,-2544,-4120,236,4856,1478,2025-01-29 11:55:17,0.0
-13092,-2280,-3976,-290,5142,1663,2025-01-29 11:55:17,0.0
-13488,-1736,-3648,-768,5030,1796,2025-01-29 11:55:17,0.0
-13648,-1764,-3324,-1106,4127,1814,2025-01-29 11:55:17,0.0
-13572,-2632,-4200,-1197,2940,1419,2025-01-29 11:55:17,0.0
-13400,-3256,-4292,-1202,1742,690,2025-01-29 11:55:17,0.0
-13736,-3696,-3704,-1174,531,260,2025-01-29 11:55:17,0.0
-13512,-3280,-3060,-1076,-835,207,2025-01-29 11:55:17,0.0
-14012,-1680,-4616,-2478,-2764,1186,2025-01-29 11:55:17,0.0
-14576,-2744,-6872,-3049,-1567,1283,2025-01-29 11:55:17,0.0
-14036,-4600,-8812,-3384,364,1615,2025-01-29 11:55:17,0.0
-12540,-4932,-9568,-3111,1309,888,2025-01-29 11:55:17,0.0
-11460,-4232,-10304,-2575,1457,-207,2025-01-29 11:55:17,0.0
-12364,-3576,-8700,-1890,689,-1199,2025-01-29 11:55:17,0.0
-12916,-1460,-7584,-1757,-470,-1225,2025-01-29 11:55:17,0.0
-12772,536,-5768,-2127,-1918,-1120,2025-01-29 11:55:17,0.0
-13676,2572,-4516,-2403,-3206,-332,2025-01-29 11:55:17,0.0
-11880,1912,-5904,-2969,-3077,339,2025-01-29 11:55:17,0.0
-13588,-996,-7244,-3616,-781,352,2025-01-29 11:55:17,0.0
-13336,-2608,-5748,-3492,1607,1384,2025-01-29 11:55:17,0.0
-12648,-2564,-5316,-2676,1903,1706,2025-01-29 11:55:17,0.0
-11988,-1532,-4796,-2528,1834,1814,2025-01-29 11:55:17,0.0
-11772,-408,-4592,-2237,1328,1523,2025-01-29 11:55:17,0.0
-11936,268,-5084,-2280,778,1298,2025-01-29 11:55:17,0.0
-11856,104,-4748,-2305,-173,879,2025-01-29 11:55:17,0.0
-11104,-532,-4436,-2008,-916,804,2025-01-29 11:55:17,0.0
-11248,-944,-3252,-1243,-1503,707,2025-01-29 11:55:17,0.0
-10440,-872,-2984,-30,-1996,369,2025-01-29 11:55:17,0.0
-10552,-564,-3800,283,-1714,263,2025-01-29 11:55:17,0.0
-10448,-136,-3428,477,-615,213,2025-01-29 11:55:17,0.0
-10852,-52,-3312,956,396,-46,2025-01-29 11:55:17,0.0
-11460,40,-3380,1004,739,-180,2025-01-29 11:55:17,0.0
-11784,-76,-3356,1065,570,-455,2025-01-29 11:55:17,0.0
-12300,120,-3724,1252,-155,-678,2025-01-29 11:55:17,0.0
-12724,272,-3936,1134,-163,-699,2025-01-29 11:55:17,0.0
-12948,476,-4036,719,269,-669,2025-01-29 11:55:17,0.0
-13456,448,-3280,513,195,-610,2025-01-29 11:55:17,0.0
-13660,228,-2516,509,-1018,-591,2025-01-29 11:55:17,0.0
-13644,-164,-2740,432,-2644,-526,2025-01-29 11:55:17,0.0
-13236,-52,-2472,511,-3504,-503,2025-01-29 11:55:17,0.0
-13000,428,-2244,770,-3929,-809,2025-01-29 11:55:17,0.0
-12524,1004,-3228,957,-3909,-1144,2025-01-29 11:55:17,0.0
-12200,768,-4960,878,-3122,-1244,2025-01-29 11:55:17,0.0
-11940,-252,-5100,773,-2367,-1644,2025-01-29 11:55:17,0.0
-12540,-1616,-4900,1007,-2386,-2422,2025-01-29 11:55:17,0.0
-13428,-2080,-7752,1173,-1188,-3125,2025-01-29 11:55:17,0.0
-14072,-2112,-12076,1624,1228,-3488,2025-01-29 11:55:17,0.0
-16248,-1900,-13504,1439,2905,-2558,2025-01-29 11:55:17,0.0
-14760,-1644,-8372,1756,2128,-1389,2025-01-29 11:55:17,0.0
-12572,-2488,-5496,2640,-44,-2008,2025-01-29 11:55:17,0.0
-11504,-3132,-4596,3464,-1398,-3593,2025-01-29 11:55:17,0.0
-11748,-3416,-5592,3771,-1563,-5276,2025-01-29 11:55:17,0.0
-12372,-3484,-7036,3537,-884,-6535,2025-01-29 11:55:17,0.0
-13832,-2660,-7304,3691,841,-6999,2025-01-29 11:55:17,0.0
-13992,-2616,-7204,3792,2307,-6929,2025-01-29 11:55:17,0.0
-13284,-3084,-5912,3336,1946,-6512,2025-01-29 11:55:17,0.0
-12080,-2936,-3600,2920,869,-6336,2025-01-29 11:55:17,0.0
-10980,-2928,-3800,3351,-1873,-7336,2025-01-29 11:55:18,
-12584,-3328,-4960,3852,-5140,-8576,2025-01-29 11:55:18,0.0
-12636,-3600,-3576,2411,-3876,-8979,2025-01-29 11:55:18,0.0
-11840,-5008,-2520,2784,-4346,-10659,2025-01-29 11:55:18,0.0
-13868,-6608,-3592,2644,-3856,-11843,2025-01-29 11:55:18,0.0
-15504,-7236,-3116,2767,-2635,-10709,2025-01-29 11:55:18,0.0
-15296,-7136,-2336,3067,-3359,-9405,2025-01-29 11:55:18,0.0
-14864,-6276,-1924,3890,-4792,-8736,2025-01-29 11:55:18,0.0
-14152,-5564,-2524,4216,-6695,-8140,2025-01-29 11:55:18,0.0
-14100,-5056,-2568,4343,-7832,-8513,2025-01-29 11:55:18,0.0
-14044,-6196,-2548,4034,-8098,-7880,2025-01-29 11:55:18,0.0
-11088,-8104,-1600,2836,-10519,-6123,2025-01-29 11:55:18,0.0
-9440,-7852,348,2725,-13380,-3914,2025-01-29 11:55:18,0.0
-7320,-7076,-348,2546,-15562,-2945,2025-01-29 11:55:18,0.0
-6908,-6492,-512,1134,-17698,-2097,2025-01-29 11:55:18,0.0
-6392,-6376,128,-955,-20693,-1133,2025-01-29 11:55:18,0.0
-9320,-6636,1900,-1217,-20004,-172,2025-01-29 11:55:18,0.0
-11404,-7240,796,1416,-3903,1027,2025-01-29 11:55:18,0.0
-5660,-9444,-736,1934,16810,976,2025-01-29 11:55:18,0.0
-7920,-6660,5120,-855,14081,-3394,2025-01-29 11:55:18,0.0
-17672,-8144,7400,1565,4062,-736,2025-01-29 11:55:18,0.0
-15708,-8036,4012,2490,5383,1541,2025-01-29 11:55:18,0.0
-14804,-6652,-388,2332,-380,602,2025-01-29 11:55:18,0.0
-15152,-7168,408,607,-3578,2582,2025-01-29 11:55:18,0.0
-10720,-7108,2504,680,-3729,2260,2025-01-29 11:55:18,0.0
-8656,-6660,2412,-290,-2578,1641,2025-01-29 11:55:18,0.0
-8184,-6412,3156,-543,-2150,390,2025-01-29 11:55:18,0.0
-11392,-6992,2572,-28,-1057,154,2025-01-29 11:55:18,0.0
-11996,-7720,1784,-255,-227,564,2025-01-29 11:55:18,0.0
-11868,-7936,1636,-407,687,280,2025-01-29 11:55:18,0.0
-12368,-7648,1992,-808,962,134,2025-01-29 11:55:18,0.0
-12924,-7820,2308,-726,323,738,2025-01-29 11:55:18,0.0
-11752,-7308,2016,-450,847,789,2025-01-29 11:55:18,0.0
-11808,-7216,1680,-1003,1463,319,2025-01-29 11:55:18,0.0
-12620,-6948,1588,-1401,1214,238,2025-01-29 11:55:18,0.0
-12404,-6988,1256,-1386,1142,590,2025-01-29 11:55:18,0.0
-11264,-7572,652,-1569,1267,550,2025-01-29 11:55:18,0.0
-10944,-7580,452,-1807,1578,144,2025-01-29 11:55:18,0.0
-11040,-7312,1140,-1865,1368,-49,2025-01-29 11:55:18,0.0
-11376,-7120,1924,-1589,1188,-117,2025-01-29 11:55:18,0.0
-11424,-6860,2328,-1457,1162,-131,2025-01-29 11:55:18,0.0
-10704,-7228,2308,-1382,1320,289,2025-01-29 11:55:18,0.0
-10344,-8124,2196,-1004,2517,11,2025-01-29 11:55:18,0.0
-11168,-8188,2044,-604,3064,-182,2025-01-29 11:55:18,0.0
-12140,-7632,1256,-521,2503,178,2025-01-29 11:55:18,0.0
-12408,-7036,1432,-618,2128,814,2025-01-29 11:55:18,0.0
-12060,-6856,1048,-958,1780,1418,2025-01-29 11:55:18,0.0
-11256,-7572,1112,-1505,1764,1478,2025-01-29 11:55:18,0.0
-12044,-8164,748,-1236,2858,819,2025-01-29 11:55:18,0.0
-15464,-9256,560,-669,4002,-35,2025-01-29 11:55:18,0.0
-18416,-9656,1224,-549,3757,527,2025-01-29 11:55:18,0.0
-18944,-8908,1888,-500,1437,1349,2025-01-29 11:55:18,0.0
-17324,-7908,1980,-635,-899,2136,2025-01-29 11:55:18,0.0
-14840,-7892,1376,-1022,-533,2272,2025-01-29 11:55:18,0.0
-13408,-8732,-112,-1703,839,2048,2025-01-29 11:55:18,0.0
-12376,-9940,-600,-2152,2264,1045,2025-01-29 11:55:18,0.0
-14112,-10056,-1268,-2279,4759,-275,2025-01-29 11:55:18,0.0
-17456,-10236,-2428,-2470,7513,-983,2025-01-29 11:55:18,0.0
-21120,-10892,-3348,-2490,8318,-1378,2025-01-29 11:55:19,0.0
-22672,-9444,-5448,-2582,8756,206,2025-01-29 11:55:19,0.0
-19916,-9264,-7912,-3450,8249,-309,2025-01-29 11:55:19,0.0
-19052,-8560,-9748,-4316,7364,-1352,2025-01-29 11:55:19,0.0
-18980,-8384,-8292,-6096,6490,-1897,2025-01-29 11:55:19,0.0
-20908,-7388,-2620,-7963,7902,744,2025-01-29 11:55:19,0.0
-16272,-7584,304,-6807,7217,3350,2025-01-29 11:55:19,0.0
-13000,-7592,184,-4859,4567,4194,2025-01-29 11:55:19,0.0
-12364,-7788,-284,-3617,3493,4317,2025-01-29 11:55:19,0.0
-12728,-6704,-1352,-3088,2982,5275,2025-01-29 11:55:19,0.0
-12960,-5216,-1172,-3222,2840,6135,2025-01-29 11:55:19,0.0
-12596,-4504,-844,-2942,2073,5974,2025-01-29 11:55:19,0.0
-12164,-4284,-684,-1278,1032,5106,2025-01-29 11:55:19,0.0
-12312,-3876,-2152,951,1394,4923,2025-01-29 11:55:19,0.0
-11372,-4084,-3280,1323,1657,5945,2025-01-29 11:55:19,0.0
-9984,-4404,-3940,927,1496,6672,2025-01-29 11:55:19,0.0
-8676,-3948,-4548,826,1848,6352,2025-01-29 11:55:19,0.0
-9096,-3740,-5156,584,3085,5484,2025-01-29 11:55:19,0.0
-9904,-3556,-5392,84,3967,5128,2025-01-29 11:55:19,0.0
-10328,-2872,-5448,-188,4663,5177,2025-01-29 11:55:19,0.0
-10460,-2468,-5300,-181,5116,4950,2025-01-29 11:55:19,0.0
-10308,-2376,-5120,-88,4849,4330,2025-01-29 11:55:19,0.0
-10756,-3204,-4480,491,5205,3228,2025-01-29 11:55:19,0.0
-10472,-4196,-4816,882,4440,2408,2025-01-29 11:55:19,0.0
-10880,-3764,-5064,1087,2409,2183,2025-01-29 11:55:19,0.0
-11480,-2188,-4984,1217,-150,2686,2025-01-29 11:55:19,0.0
-10760,-1580,-4848,1339,-2111,3187,2025-01-29 11:55:19,0.0
-10264,-1420,-4952,1182,-2216,3192,2025-01-29 11:55:19,0.0
-10036,-1052,-4432,906,-636,2932,2025-01-29 11:55:19,0.0
-10064,-484,-3640,305,2167,3126,2025-01-29 11:55:19,0.0
-10128,-848,-3076,-131,5019,3313,2025-01-29 11:55:19,0.0
-11688,-1512,-4692,249,6224,3574,2025-01-29 11:55:19,0.0
-11984,-2120,-6772,324,3024,4268,2025-01-29 11:55:19,0.0
-11740,-2072,-6456,30,-406,5658,2025-01-29 11:55:19,0.0
-9944,-2240,-4736,47,-1925,6748,2025-01-29 11:55:19,0.0
-7492,-2136,-3464,368,-2671,7030,2025-01-29 11:55:19,0.0
-6604,-1932,-1936,860,-2694,6408,2025-01-29 11:55:19,0.0
-6480,-936,-2052,1270,-2372,5764,2025-01-29 11:55:19,0.0
-7156,312,-3088,865,-2711,5509,2025-01-29 11:55:19,0.0
-6552,752,-2888,706,-2761,5547,2025-01-29 11:55:19,0.0
-5872,540,-2744,716,-2345,4251,2025-01-29 11:55:19,0.0
-6192,396,-2912,840,-1211,2728,2025-01-29 11:55:19,0.0
-6092,160,-2908,1034,-165,1483,2025-01-29 11:55:19,
-6176,-276,-2396,1289,418,438,2025-01-29 11:55:19,0.0
-6300,-388,-2448,1868,1154,-794,2025-01-29 11:55:19,0.0
-6676,-232,-1340,2232,2347,-1807,2025-01-29 11:55:19,0.0
-8112,-600,-2056,2891,3736,-2160,2025-01-29 11:55:19,0.0
-9136,-12,-3920,3508,4732,-2070,2025-01-29 11:55:19,0.0
-10692,-140,-6244,2786,4322,-1738,2025-01-29 11:55:19,0.0
-11452,-696,-6500,1172,3021,-817,2025-01-29 11:55:19,0.0
-10764,-476,-4248,710,752,216,2025-01-29 11:55:19,0.0
-8740,-1192,-3464,1335,-1270,676,2025-01-29 11:55:19,0.0
-8176,-736,-3640,1381,-822,70,2025-01-29 11:55:19,0.0
-8832,-4292,-1292,-1624,1258,-8065,2025-01-29 11:55:20,0.0
-9952,-5408,-4996,-1072,-1144,-9297,2025-01-29 11:55:20,0.0
-14092,-6632,-1760,9,-2867,-6265,2025-01-29 11:55:20,0.0
-12276,-6516,1092,3169,-3834,-3114,2025-01-29 11:55:20,0.0
-10716,-5440,1020,5243,-4207,-1559,2025-01-29 11:55:20,0.0
-9232,-3304,-548,6168,-2048,-749,2025-01-29 11:55:20,0.0
-7536,-2188,-1532,6262,-386,-1550,2025-01-29 11:55:20,0.0
-8316,-3492,-556,6809,612,-2383,2025-01-29 11:55:20,0.0
-9052,-4028,1520,8253,542,-2557,2025-01-29 11:55:20,0.0
-10104,-3408,1720,10171,-70,-1861,2025-01-29 11:55:20,0.0
-8208,-2792,-88,10882,-961,-1191,2025-01-29 11:55:20,0.0
-5200,-840,-1012,9809,-343,-2164,2025-01-29 11:55:20,0.0
-4624,880,-216,9704,3940,-4001,2025-01-29 11:55:20,0.0
-4128,-1732,-3836,10016,3308,-6056,2025-01-29 11:55:20,0.0
-4020,-7140,-9188,8800,2521,-8019,2025-01-29 11:55:20,0.0
-7968,-8068,-17872,5970,3323,-10701,2025-01-29 11:55:20,0.0
-13844,-5116,-19908,2371,11930,-11532,2025-01-29 11:55:20,0.0
-20032,-5576,-21072,-1457,16073,-10210,2025-01-29 11:55:20,0.0
-27572,-8776,-15912,-3947,21704,-8095,2025-01-29 11:55:20,0.0
-31940,-13696,-8908,-2921,15812,-5710,2025-01-29 11:55:20,0.0
-32768,-18240,-12452,-930,2676,153,2025-01-29 11:55:20,0.0
-31868,-15288,-13412,-1171,-4035,5507,2025-01-29 11:55:20,0.0
-22528,-12324,-11044,-1044,-6286,6905,2025-01-29 11:55:20,0.0
-14900,-10924,-7488,256,-7902,5763,2025-01-29 11:55:20,0.0
-10460,-9752,-7340,1394,-7324,3309,2025-01-29 11:55:20,0.0
-8188,-7532,-10068,1655,-4628,492,2025-01-29 11:55:20,0.0
-10956,-4756,-12356,664,390,-591,2025-01-29 11:55:20,0.0
-12888,-4396,-10620,-1156,5131,-507,2025-01-29 11:55:20,0.0
-14776,-6108,-9052,-3020,6534,-246,2025-01-29 11:55:20,0.0
-15496,-7288,-7864,-4046,5485,532,2025-01-29 11:55:20,0.0
-14576,-7712,-6148,-3881,3352,482,2025-01-29 11:55:20,0.0
-13884,-6936,-5852,-2950,785,-641,2025-01-29 11:55:20,0.0
-13904,-5828,-8416,-2784,-591,-976,2025-01-29 11:55:20,0.0
-13064,-5884,-8532,-3341,591,-769,2025-01-29 11:55:20,0.0
-12084,-5864,-8472,-3615,1943,-815,2025-01-29 11:55:20,0.0
-10844,-8316,-6636,-4169,1969,-1593,2025-01-29 11:55:20,0.0
-11308,-9812,-4276,-3597,2390,-2511,2025-01-29 11:55:20,0.0
-12324,-9104,-3876,-1662,2661,-1882,2025-01-29 11:55:20,0.0
-11504,-8416,-5300,-5,3784,-1796,2025-01-29 11:55:20,0.0
-11080,-6908,-7624,-49,3116,-2291,2025-01-29 11:55:20,0.0
-11324,-6240,-8416,-1053,2776,-2156,2025-01-29 11:55:20,0.0
-11332,-5976,-8104,-1701,2829,-1677,2025-01-29 11:55:20,0.0
-11908,-5840,-7448,-2690,2567,-211,2025-01-29 11:55:20,0.0
-10780,-6196,-6728,-3585,3126,869,2025-01-29 11:55:20,0.0
-10052,-6528,-5988,-2761,1831,-137,2025-01-29 11:55:20,0.0
-11440,-6648,-7632,-2469,428,-1049,2025-01-29 11:55:20,0.0
-12040,-7364,-8056,-2745,-885,-836,2025-01-29 11:55:20,0.0
-10640,-7848,-6936,-2527,-2577,-470,2025-01-29 11:55:20,0.0
-8792,-7800,-5980,-2062,-4290,-421,2025-01-29 11:55:20,0.0
-8020,-6868,-5072,-1824,-4765,-984,2025-01-29 11:55:20,0.0
-7172,-5848,-4860,-1701,-3855,-1193,2025-01-29 11:55:20,0.0
-7340,-5200,-3784,-1191,-2232,-1465,2025-01-29 11:55:20,0.0
-7928,-5380,-4104,-820,-1946,-1621,2025-01-29 11:55:20,0.0
-8320,-6008,-4420,-611,-1757,-1334,2025-01-29 11:55:20,0.0
-7900,-6672,-4196,-376,-1660,-884,2025-01-29 11:55:20,0.0
-7992,-7180,-3900,192,-1499,-286,2025-01-29 11:55:20,0.0
-7228,-6800,-4896,586,-1642,159,2025-01-29 11:55:20,0.0
-7380,-6256,-5488,141,-1635,136,2025-01-29 11:55:20,0.0
-8532,-5332,-5120,-379,-587,138,2025-01-29 11:55:20,0.0
-10120,-4448,-4552,-608,-842,797,2025-01-29 11:55:20,0.0
-10884,-4544,-4112,-689,-1736,1882,2025-01-29 11:55:21,0.0
-10968,-4696,-4124,-357,-2816,2441,2025-01-29 11:55:21,0.0
-10932,-4932,-5436,-365,-3090,2989,2025-01-29 11:55:21,0.0
-10184,-4388,-5356,-1078,-2156,3488,2025-01-29 11:55:21,0.0
-10316,-4092,-5504,-1664,-2594,3607,2025-01-29 11:55:21,0.0
-10572,-4004,-4100,-2110,-3839,3746,2025-01-29 11:55:21,0.0
-11540,-4108,-4212,-2321,-5984,3416,2025-01-29 11:55:21,0.0
-13092,-4976,-4664,-2708,-6744,4464,2025-01-29 11:55:21,0.0
-12876,-5252,-5252,-2403,-5300,7096,2025-01-29 11:55:21,0.0
-9044,-5244,-4600,-2640,-4501,7347,2025-01-29 11:55:21,0.0
-7576,-5124,-2836,-3421,-5038,5966,2025-01-29 11:55:21,0.0
-7160,-4528,-2388,-4117,-6075,4512,2025-01-29 11:55:21,0.0
-9316,-3364,-2332,-4692,-7110,3317,2025-01-29 11:55:21,0.0
-13008,-2776,-1852,-5472,-8437,3350,2025-01-29 11:55:21,0.0
-16828,-3304,-1464,-5504,-10087,4636,2025-01-29 11:55:21,0.0
-18972,-4196,-1696,-3945,-10646,8053,2025-01-29 11:55:21,0.0
-13888,-3876,-1560,-2788,-11478,9125,2025-01-29 11:55:21,0.0
-9072,-4184,-1156,-2510,-11574,7792,2025-01-29 11:55:21,0.0
-4632,-2296,888,-1093,-10738,3943,2025-01-29 11:55:21,0.0
-5916,-2072,820,-1290,-8581,-1045,2025-01-29 11:55:21,0.0
-12788,-3780,-2564,-2489,-1907,-4197,2025-01-29 11:55:21,0.0
-17540,-5328,-3380,-3818,2312,-3170,2025-01-29 11:55:21,0.0
-17340,-3328,-792,-2551,530,-652,2025-01-29 11:55:21,0.0
-15660,-2084,524,-929,-1289,516,2025-01-29 11:55:21,0.0
-15516,-1776,1108,-217,1216,51,2025-01-29 11:55:21,0.0
-19408,-2152,560,-162,5673,-333,2025-01-29 11:55:21,0.0
-21440,-2636,-592,-24,7074,1138,2025-01-29 11:55:21,0.0
-21352,-4152,-3224,-95,7459,2669,2025-01-29 11:55:21,0.0
-19300,-5172,-2364,448,6491,2906,2025-01-29 11:55:21,0.0
-16328,-4712,-1632,1633,4719,2046,2025-01-29 11:55:21,
-14948,-4532,-2004,2553,2748,642,2025-01-29 11:55:21,0.0
-14376,-3104,-3840,2600,96,-898,2025-01-29 11:55:21,0.0
-15220,-1248,-5900,1625,-2705,-915,2025-01-29 11:55:21,0.0
-13484,-620,-7484,268,-4861,173,2025-01-29 11:55:21,0.0
-11244,-472,-8236,-923,-5993,1032,2025-01-29 11:55:21,0.0
-9220,324,-7376,-1368,-5209,1229,2025-01-29 11:55:21,0.0
-9052,544,-6724,-1020,-1884,401,2025-01-29 11:55:21,0.0
-10624,-640,-5912,-1455,3325,195,2025-01-29 11:55:21,0.0
-11852,-1556,-4232,-1479,6166,714,2025-01-29 11:55:21,0.0
-13152,-1636,-3288,-265,5875,798,2025-01-29 11:55:21,0.0
-14120,-1096,-3744,-27,4370,1119,2025-01-29 11:55:21,0.0
-14812,-588,-4196,-626,2258,1464,2025-01-29 11:55:21,0.0
-14724,-336,-4724,-1574,659,1831,2025-01-29 11:55:21,0.0
-14240,-196,-4420,-2375,-878,2179,2025-01-29 11:55:21,0.0
-13376,-348,-3748,-2212,-1976,2635,2025-01-29 11:55:21,0.0
-12336,-552,-2780,-2097,-2776,2761,2025-01-29 11:55:21,0.0
-10668,-852,-3032,-1234,-2440,2803,2025-01-29 11:55:21,0.0
-9940,-1380,-2944,-456,-1478,2645,2025-01-29 11:55:21,0.0
-10100,-1700,-2360,318,456,2404,2025-01-29 11:55:21,0.0
-10720,-2076,-1988,1406,2125,1365,2025-01-29 11:55:21,0.0
-12260,-1596,-1936,2095,3070,1585,2025-01-29 11:55:21,0.0
-12564,-1344,-2324,2479,3057,1811,2025-01-29 11:55:21,0.0
-12388,-852,-2340,2792,2119,1739,2025-01-29 11:55:21,0.0
-12216,-496,-2564,3225,930,1309,2025-01-29 11:55:21,0.0
-11788,-156,-3216,3375,-36,804,2025-01-29 11:55:21,0.0
-12080,80,-2632,3430,-341,302,2025-01-29 11:55:21,0.0
-12060,404,-2112,3324,-564,15,2025-01-29 11:55:21,0.0
-11752,192,-2224,3087,-520,-284,2025-01-29 11:55:21,0.0
-12300,356,-1760,2837,-295,-721,2025-01-29 11:55:21,0.0
-12316,440,-1928,2605,147,-1101,2025-01-29 11:55:21,0.0
-12432,652,-2152,2246,357,-1412,2025-01-29 11:55:22,0.0
-12488,432,-2384,2093,1267,-1524,2025-01-29 11:55:22,0.0
-12288,-248,-2012,2136,2463,-1961,2025-01-29 11:55:22,0.0
-12640,-776,-2552,2588,3453,-2313,2025-01-29 11:55:22,0.0
-12960,-664,-3572,2854,2758,-2389,2025-01-29 11:55:22,0.0
-13356,-776,-3332,2538,2169,-1823,2025-01-29 11:55:22,0.0
-13216,-624,-3308,2362,2613,-1449,2025-01-29 11:55:22,0.0
-12688,-588,-4052,1990,3012,-1315,2025-01-29 11:55:22,0.0
-13912,-480,-4036,1830,2611,-1503,2025-01-29 11:55:22,0.0
-14976,-500,-3036,1880,2124,-1180,2025-01-29 11:55:22,0.0
-15976,-884,-1964,1936,382,-637,2025-01-29 11:55:22,0.0
-15936,-1812,-1928,2640,-1143,180,2025-01-29 11:55:22,0.0
-15624,-2420,-2640,3239,-1537,1275,2025-01-29 11:55:22,0.0
-15072,-2984,-4432,3524,-293,2026,2025-01-29 11:55:22,0.0
-14340,-1120,-5324,3633,1352,2410,2025-01-29 11:55:22,0.0
-15936,1148,-6720,2792,1968,1759,2025-01-29 11:55:22,0.0
-17316,1492,-7196,1547,1699,1873,2025-01-29 11:55:22,0.0
-17108,968,-6340,422,218,2304,2025-01-29 11:55:22,0.0
-16176,612,-5276,-364,-2413,2140,2025-01-29 11:55:22,0.0
-14108,-204,-5124,-409,-4771,1868,2025-01-29 11:55:22,0.0
-11344,-2004,-5124,22,-5833,1168,2025-01-29 11:55:22,0.0
-8700,-3528,-4800,1020,-5839,270,2025-01-29 11:55:22,0.0
-6880,-4100,-4760,2024,-4405,-696,2025-01-29 11:55:22,0.0
-6104,-3644,-3824,2837,-3256,-2605,2025-01-29 11:55:22,0.0
-8868,-3192,-3936,2940,-2859,-3739,2025-01-29 11:55:22,0.0
-11288,-2664,-5496,2753,228,-2360,2025-01-29 11:55:22,0.0
-13176,-1996,-6404,1654,3730,219,2025-01-29 11:55:22,0.0
-12936,-1636,-5852,945,3470,437,2025-01-29 11:55:22,0.0
-13676,-1692,-4764,1122,3005,113,2025-01-29 11:55:22,0.0
-12632,-2620,-5272,1518,2600,-313,2025-01-29 11:55:22,0.0
-12828,-2000,-5992,751,1167,-1502,2025-01-29 11:55:22,0.0
-13192,-1192,-6884,-86,-214,-2034,2025-01-29 11:55:22,0.0
-12920,-352,-7364,-1344,-807,-2103,2025-01-29 11:55:22,0.0
-12064,248,-6340,-2726,-747,-2069,2025-01-29 11:55:22,0.0
-10968,-104,-6000,-4461,-998,-2398,2025-01-29 11:55:22,0.0
-10696,-528,-5240,-5549,-484,-2654,2025-01-29 11:55:22,0.0
-11052,-884,-5096,-6721,42,-2948,2025-01-29 11:55:22,0.0
-11392,-1424,-5512,-7832,133,-3286,2025-01-29 11:55:22,0.0
-11960,-2044,-5496,-8533,392,-3503,2025-01-29 11:55:22,0.0
-12440,-3136,-5416,-9076,774,-3786,2025-01-29 11:55:22,0.0
-12556,-3508,-4784,-9301,944,-4073,2025-01-29 11:55:22,0.0
-12424,-3004,-5264,-9447,596,-4378,2025-01-29 11:55:22,0.0
-12672,-1856,-5468,-9915,-251,-4540,2025-01-29 11:55:22,0.0
-12280,-792,-5660,-10628,-1273,-4479,2025-01-29 11:55:22,0.0
-12196,-780,-5660,-11305,-1721,-4267,2025-01-29 11:55:22,0.0
-11652,-1128,-5824,-12037,-1692,-4035,2025-01-29 11:55:22,0.0
-11632,-1396,-5784,-12600,-1801,-3856,2025-01-29 11:55:22,0.0
-11688,-2272,-5136,-12901,-1833,-3570,2025-01-29 11:55:22,0.0
-11264,-2664,-4888,-12882,-780,-3238,2025-01-29 11:55:22,0.0
-11080,-2692,-4860,-13349,177,-3454,2025-01-29 11:55:22,0.0
-11932,-2340,-5008,-13856,444,-3492,2025-01-29 11:55:22,0.0
-12924,-1900,-5512,-14277,420,-3338,2025-01-29 11:55:22,0.0
-13652,-1860,-5728,-14683,297,-3217,2025-01-29 11:55:22,0.0
-14124,-2820,-5532,-15042,5,-3326,2025-01-29 11:55:22,0.0
-13932,-3764,-4736,-15134,-796,-3700,2025-01-29 11:55:22,0.0
-13676,-4804,-4056,-14781,-1961,-3964,2025-01-29 11:55:22,0.0
-12184,-4684,-4100,-14051,-2415,-4119,2025-01-29 11:55:22,0.0
-12192,-4540,-4648,-14063,-2463,-4235,2025-01-29 11:55:22,0.0
-12040,-4056,-4520,-14021,-2079,-4261,2025-01-29 11:55:22,0.0
-12660,-3932,-4332,-14418,-1966,-4431,2025-01-29 11:55:22,0.0
-13212,-3336,-3592,-15019,-2298,-4468,2025-01-29 11:55:22,0.0
-13044,-3104,-2672,-15697,-4069,-4404,2025-01-29 11:55:22,0.0
-11932,-3632,-2216,-16409,-5078,-4125,2025-01-29 11:55:22,0.0
-11432,-3876,-2472,-16657,-4733,-4266,2025-01-29 11:55:23,0.0
-11036,-3568,-4660,-16656,-3042,-4544,2025-01-29 11:55:23,0.0
-11648,-2864,-6568,-16470,-1077,-5098,2025-01-29 11:55:23,0.0
-12480,-2892,-7736,-16032,-338,-5949,2025-01-29 11:55:23,0.0
-13512,-4232,-7184,-15218,118,-6550,2025-01-29 11:55:23,0.0
-13560,-4860,-5456,-13951,-60,-6747,2025-01-29 11:55:23,0.0
-13832,-3904,-5528,-13465,-444,-6080,2025-01-29 11:55:23,
-13996,-1700,-6288,-14250,-990,-4264,2025-01-29 11:55:23,0.0
-12640,-704,-6452,-15322,-1593,-2495,2025-01-29 11:55:23,0.0
-11492,-1316,-6144,-15655,-1374,-2402,2025-01-29 11:55:23,0.0
-11104,-2280,-6196,-15438,451,-3075,2025-01-29 11:55:23,0.0
-11336,-2252,-5736,-15193,2488,-4127,2025-01-29 11:55:23,0.0
-12956,-384,-5224,-15517,2314,-4882,2025-01-29 11:55:23,0.0
-13552,1180,-4636,-15665,861,-4292,2025-01-29 11:55:23,0.0
-12924,2752,-4760,-15968,-93,-3161,2025-01-29 11:55:23,0.0
-11728,3548,-5700,-16909,-54,-2731,2025-01-29 11:55:23,0.0
-10160,3044,-6504,-18011,925,-3738,2025-01-29 11:55:23,0.0
-10752,680,-6064,-19527,2417,-5706,2025-01-29 11:55:23,0.0
-11876,-568,-4488,-19522,2775,-6113,2025-01-29 11:55:23,0.0
-12524,-1420,-3812,-19162,2293,-6499,2025-01-29 11:55:23,0.0
-14044,-1716,-3860,-18697,1465,-6575,2025-01-29 11:55:23,0.0
-13940,-1748,-4464,-18233,747,-6251,2025-01-29 11:55:23,0.0
-13820,-1244,-4280,-17992,-470,-5969,2025-01-29 11:55:23,0.0
-12552,-828,-3508,-18034,-1762,-6193,2025-01-29 11:55:23,0.0
-11984,-968,-3372,-17754,-1639,-6538,2025-01-29 11:55:23,0.0
-12136,-1032,-3640,-17380,-417,-6387,2025-01-29 11:55:23,0.0
-11928,-1528,-4108,-17161,1007,-6110,2025-01-29 11:55:23,0.0
-12696,-1820,-3404,-16232,1716,-5629,2025-01-29 11:55:23,0.0
-12228,-1580,-3876,-15028,2498,-5427,2025-01-29 11:55:23,0.0
-12008,-644,-4708,-14858,2330,-5775,2025-01-29 11:55:23,0.0
-11876,-28,-5092,-15496,839,-6724,2025-01-29 11:55:23,0.0
-12016,276,-4756,-15411,-75,-7312,2025-01-29 11:55:23,0.0
-11948,960,-5500,-15308,-1164,-7603,2025-01-29 11:55:23,0.0
-11276,1916,-7012,-15706,-1709,-7740,2025-01-29 11:55:23,0.0
-11416,1960,-7168,-16291,-975,-7856,2025-01-29 11:55:23,0.0
-11104,472,-6628,-16934,507,-8094,2025-01-29 11:55:23,0.0
-10772,-544,-4748,-16633,813,-8508,2025-01-29 11:55:23,0.0
-10664,-1876,-4864,-15722,488,-8866,2025-01-29 11:55:23,0.0
-10912,-2628,-5620,-14928,435,-8572,2025-01-29 11:55:23,0.0
-11040,-2352,-6828,-13989,926,-7835,2025-01-29 11:55:23,0.0
-11208,-1440,-7392,-13162,1934,-7445,2025-01-29 11:55:23,0.0
-11292,-1448,-7604,-13375,2519,-7643,2025-01-29 11:55:23,0.0
-12104,-2052,-4932,-13783,2422,-7898,2025-01-29 11:55:23,0.0
-12636,-3176,-3648,-12791,2301,-8097,2025-01-29 11:55:23,0.0
-13048,-4364,-3640,-11552,2151,-8961,2025-01-29 11:55:23,0.0
-14888,-4292,-4940,-10924,1038,-9014,2025-01-29 11:55:23,0.0
-16020,-4588,-6700,-10297,400,-7771,2025-01-29 11:55:23,0.0
-16352,-4644,-6164,-9073,998,-5889,2025-01-29 11:55:23,0.0
-14852,-4416,-4292,-7098,1356,-4470,2025-01-29 11:55:23,0.0
-12692,-4668,-3440,-5684,695,-4511,2025-01-29 11:55:23,0.0
-11480,-5036,-3688,-4539,-319,-5317,2025-01-29 11:55:23,0.0
-12052,-248,-4828,-7928,-679,-5088,2025-01-29 11:55:23,0.0
-12036,-2028,-5100,-9104,-637,-5896,2025-01-29 11:55:23,0.0
-12448,-3348,-5072,-9907,-1209,-6315,2025-01-29 11:55:23,0.0
-12616,-4428,-5136,-9941,-2077,-6291,2025-01-29 11:55:23,0.0
-12352,-4824,-5736,-9648,-2165,-5838,2025-01-29 11:55:23,0.0
-11548,-4784,-6168,-9406,-1619,-5538,2025-01-29 11:55:24,0.0
-11028,-4124,-6256,-9323,-1601,-5514,2025-01-29 11:55:24,0.0
-10944,-3632,-5728,-9403,-1643,-5614,2025-01-29 11:55:24,0.0
-11756,-2976,-5104,-8959,-1084,-5438,2025-01-29 11:55:24,0.0
-12524,-1984,-5336,-8821,-1139,-4779,2025-01-29 11:55:24,0.0
-12400,-1216,-5880,-9396,-1924,-4180,2025-01-29 11:55:24,0.0
-12016,-1092,-5720,-10108,-2327,-3798,2025-01-29 11:55:24,0.0
-11392,-2268,-5556,-10527,-1623,-3548,2025-01-29 11:55:24,0.0
-11140,-3704,-5160,-11105,-1234,-3228,2025-01-29 11:55:24,0.0
-11548,-4336,-5132,-11171,-1355,-2871,2025-01-29 11:55:24,0.0
-12164,-4260,-5348,-10929,-1395,-2370,2025-01-29 11:55:24,0.0
-12912,-4712,-4928,-10395,-1144,-2008,2025-01-29 11:55:24,0.0
-13624,-4144,-4960,-9359,-900,-1553,2025-01-29 11:55:24,0.0
-14120,-3420,-4444,-8920,-982,-1384,2025-01-29 11:55:24,0.0
-14524,-2880,-3888,-8505,-2053,-1061,2025-01-29 11:55:24,0.0
-14216,-2944,-3464,-8201,-3718,-789,2025-01-29 11:55:24,0.0
-13144,-3084,-3576,-7641,-4978,-760,2025-01-29 11:55:24,0.0
-11832,-3196,-4188,-6952,-5391,-710,2025-01-29 11:55:24,0.0
-10196,-3696,-5248,-6089,-4117,-1168,2025-01-29 11:55:24,0.0
-9416,-3968,-6012,-5176,-2162,-1849,2025-01-29 11:55:24,0.0
-9420,-3580,-6548,-4433,141,-2275,2025-01-29 11:55:24,0.0
-10636,-2768,-6712,-4108,1877,-2290,2025-01-29 11:55:24,0.0
-12336,-2248,-6904,-4141,2808,-1914,2025-01-29 11:55:24,0.0
-13872,-2360,-6552,-4173,2396,-1277,2025-01-29 11:55:24,0.0
-14416,-2864,-5296,-3944,234,-876,2025-01-29 11:55:24,0.0
-13832,-3192,-4484,-3128,-2840,-516,2025-01-29 11:55:24,0.0
-12452,-3380,-4940,-2347,-4192,-320,2025-01-29 11:55:24,0.0
-11360,-3364,-5080,-1695,-3861,-197,2025-01-29 11:55:24,0.0
-10596,-2872,-4624,-882,-1995,-161,2025-01-29 11:55:24,0.0
-10604,-2264,-5304,-480,62,-383,2025-01-29 11:55:24,0.0
-11568,-1740,-4700,-714,1372,-627,2025-01-29 11:55:24,0.0
-12244,-1344,-4820,-637,1228,-745,2025-01-29 11:55:24,0.0
-12568,-1240,-5224,-620,580,-846,2025-01-29 11:55:24,0.0
-13024,-1812,-4976,-651,164,-950,2025-01-29 11:55:24,0.0
-12436,-1744,-5116,-718,121,-851,2025-01-29 11:55:24,0.0
-12384,-1508,-5208,-913,194,-867,2025-01-29 11:55:24,0.0
-12592,-1404,-5388,-1136,390,-743,2025-01-29 11:55:24,0.0
-12248,-1064,-5208,-1323,481,-541,2025-01-29 11:55:24,0.0
-12140,-1716,-5516,-1887,436,-244,2025-01-29 11:55:24,0.0
-11996,-2276,-5068,-1977,529,-73,2025-01-29 11:55:24,0.0
-12268,-2696,-4788,-1815,839,61,2025-01-29 11:55:24,0.0
-12536,-2892,-4616,-1507,1241,76,2025-01-29 11:55:24,0.0
-13044,-2752,-4548,-1027,1159,157,2025-01-29 11:55:24,0.0
-13528,-2184,-4264,-718,626,320,2025-01-29 11:55:24,0.0
-13528,-1720,-4088,-746,-73,469,2025-01-29 11:55:24,0.0
-13436,-1820,-4144,-814,-966,832,2025-01-29 11:55:24,0.0
-13032,-1848,-4560,-501,-1416,1310,2025-01-29 11:55:24,0.0
-12480,-1796,-4804,-361,-1151,1544,2025-01-29 11:55:24,0.0
-12260,-1740,-4552,-330,-342,1316,2025-01-29 11:55:24,0.0
-13356,-1600,-4416,-208,-6,1280,2025-01-29 11:55:24,0.0
-13928,-1708,-4716,-92,-596,1442,2025-01-29 11:55:24,
-14516,-1268,-5184,131,-1820,1818,2025-01-29 11:55:24,0.0
-13904,-340,-5576,186,-3451,2214,2025-01-29 11:55:24,0.0
-12236,324,-5936,-247,-4371,2218,2025-01-29 11:55:24,0.0
-10468,876,-5224,-915,-4828,1619,2025-01-29 11:55:24,0.0
-9532,1412,-3628,-1453,-3828,597,2025-01-29 11:55:24,0.0
-9916,1572,-1604,-1556,-1275,-475,2025-01-29 11:55:25,0.0
-11880,864,-2236,-2005,1029,-1365,2025-01-29 11:55:25,0.0
-14240,124,-2772,-2264,2153,-1112,2025-01-29 11:55:25,0.0
-15284,-840,-2912,-2315,2337,-413,2025-01-29 11:55:25,0.0
-15224,-1284,-1652,-2150,1166,412,2025-01-29 11:55:25,0.0
-14904,-1480,-324,-1366,367,916,2025-01-29 11:55:25,0.0
-14800,-1136,-624,-480,942,1705,2025-01-29 11:55:25,0.0
-14248,-596,-2072,121,1410,2518,2025-01-29 11:55:25,0.0
-13592,428,-3280,-62,1426,2893,2025-01-29 11:55:25,0.0
-13348,1356,-2748,-656,638,3092,2025-01-29 11:55:25,0.0
-12840,1576,-1908,-891,-300,2863,2025-01-29 11:55:25,0.0
-12680,1404,-1272,-759,-1133,2211,2025-01-29 11:55:25,0.0
-11992,1224,-800,-573,-1822,1572,2025-01-29 11:55:25,0.0
-11640,788,-784,-369,-2247,1101,2025-01-29 11:55:25,0.0
-10704,396,-552,65,-2099,611,2025-01-29 11:55:25,0.0
-9920,-172,-604,462,-1028,-181,2025-01-29 11:55:25,0.0
-10668,-420,-648,848,721,-621,2025-01-29 11:55:25,0.0
-11904,-188,-1012,1371,2344,-741,2025-01-29 11:55:25,0.0
-13864,140,-916,1728,3337,-639,2025-01-29 11:55:25,0.0
-15292,-72,-972,1920,3086,-210,2025-01-29 11:55:25,0.0
-15992,-688,-740,2539,1785,34,2025-01-29 11:55:25,0.0
-15780,-1960,-1520,3059,-141,328,2025-01-29 11:55:25,0.0
-15040,-1432,-1516,3493,-1269,876,2025-01-29 11:55:25,0.0
-14448,712,-1632,3890,-1502,1442,2025-01-29 11:55:25,0.0
-15276,2244,-3120,3739,-472,2309,2025-01-29 11:55:25,0.0
-15292,1388,-3848,3302,1455,3407,2025-01-29 11:55:25,0.0
-16296,1024,-3980,2731,1907,2818,2025-01-29 11:55:25,0.0
-18300,2476,-3880,2787,1350,2451,2025-01-29 11:55:25,0.0
-19972,3576,-4528,3714,300,2691,2025-01-29 11:55:25,0.0
-20076,4124,-5836,2973,-1493,3967,2025-01-29 11:55:25,0.0
-17036,4156,-6920,1207,-2842,4771,2025-01-29 11:55:25,0.0
-12912,3868,-6140,-672,-2697,3003,2025-01-29 11:55:25,0.0
-9232,4360,-5204,-1978,-2743,-546,2025-01-29 11:55:25,0.0
-8192,2936,-4724,-1227,-1808,-4064,2025-01-29 11:55:25,0.0
-8852,1548,-6048,-1224,-802,-5680,2025-01-29 11:55:25,0.0
-9556,636,-6232,-1364,-752,-6390,2025-01-29 11:55:25,0.0
-10008,-216,-6008,-1375,-824,-6822,2025-01-29 11:55:25,0.0
-10268,-980,-6452,-1697,-666,-6477,2025-01-29 11:55:25,0.0
-10704,-2176,-6016,-2300,-633,-5724,2025-01-29 11:55:25,0.0
-10100,-3540,-5044,-2539,-504,-4833,2025-01-29 11:55:25,0.0
-10928,-4444,-4052,-1986,-13,-4256,2025-01-29 11:55:25,0.0
-11804,-4432,-3592,-1159,1331,-3351,2025-01-29 11:55:25,0.0
-12316,-3388,-3560,-86,2673,-2410,2025-01-29 11:55:25,0.0
-12632,-2200,-4244,159,2607,-2443,2025-01-29 11:55:25,0.0
-13108,-1104,-5308,134,1923,-2794,2025-01-29 11:55:25,0.0
-13644,-800,-5952,-160,944,-3191,2025-01-29 11:55:25,0.0
-13560,-748,-5464,-676,25,-3192,2025-01-29 11:55:25,0.0
-12696,-900,-4676,-1078,-778,-3016,2025-01-29 11:55:25,0.0
-11832,-1196,-4512,-1509,-1245,-2869,2025-01-29 11:55:25,0.0
-10768,-1496,-4472,-2069,-759,-2965,2025-01-29 11:55:25,0.0
-10276,-1900,-4180,-2453,23,-3317,2025-01-29 11:55:25,0.0
-10392,-2272,-3636,-2559,841,-3743,2025-01-29 11:55:25,0.0
-10868,-2696,-3412,-2628,1451,-3962,2025-01-29 11:55:25,0.0
-11492,-3456,-2872,-2579,2037,-4062,2025-01-29 11:55:25,0.0
-12228,-3960,-2732,-2409,2208,-3942,2025-01-29 11:55:25,0.0
-13456,-4176,-2648,-2088,1861,-3304,2025-01-29 11:55:25,0.0
-13740,-4208,-2816,-1884,1269,-2177,2025-01-29 11:55:25,0.0
-13360,-3848,-2936,-1605,685,-1004,2025-01-29 11:55:25,0.0
-12600,-3100,-3028,-1488,343,-250,2025-01-29 11:55:25,0.0
-12012,-2620,-3084,-1665,478,318,2025-01-29 11:55:25,0.0
-11540,-1928,-2724,-1969,667,768,2025-01-29 11:55:25,0.0
-11684,-1444,-2696,-2368,722,957,2025-01-29 11:55:25,0.0
-11676,-1828,-2672,-2925,737,1065,2025-01-29 11:55:25,0.0
-11396,-2412,-2652,-3310,596,863,2025-01-29 11:55:25,0.0
-11760,-2792,-2912,-3543,442,481,2025-01-29 11:55:25,0.0
-12492,-2496,-2912,-3830,274,25,2025-01-29 11:55:26,0.0
-12408,-1924,-3364,-3996,507,-366,2025-01-29 11:55:26,0.0
-12848,-1656,-4456,-4384,840,-937,2025-01-29 11:55:26,0.0
-14312,-2388,-2780,-4588,1194,-990,2025-01-29 11:55:26,0.0
-14908,-3712,-2628,-4455,1041,-1545,2025-01-29 11:55:26,0.0
-15692,-4724,-2824,-4534,244,-2006,2025-01-29 11:55:26,0.0
-16384,-5248,-2348,-3917,-1140,-2125,2025-01-29 11:55:26,0.0
-16176,-5392,-3312,-3360,-1945,-1724,2025-01-29 11:55:26,0.0
-15416,-3792,-5796,-2001,-1136,-2157,2025-01-29 11:55:26,0.0
-16576,-3732,-5680,-1992,299,-2797,2025-01-29 11:55:26,0.0
-16376,-5856,-4728,-458,-497,-3708,2025-01-29 11:55:26,0.0
-17644,-7056,-8264,1273,-2410,-3147,2025-01-29 11:55:26,0.0
-18984,-6480,-9980,1168,-3876,339,2025-01-29 11:55:26,0.0
-15720,-3980,-10496,1104,-5094,3943,2025-01-29 11:55:26,0.0
-11376,-1772,-11132,802,-6304,4940,2025-01-29 11:55:26,0.0
-9664,456,-10632,177,-6448,4978,2025-01-29 11:55:26,0.0
-8976,3048,-8832,-949,-5709,4142,2025-01-29 11:55:26,0.0
-10512,3876,-8656,-1895,-2680,3375,2025-01-29 11:55:26,0.0
-11996,1060,-7812,-3259,1162,3128,2025-01-29 11:55:26,0.0
-13832,-1868,-6456,-3008,2069,2984,2025-01-29 11:55:26,0.0
-16160,-3976,-4880,-2293,1484,3289,2025-01-29 11:55:26,0.0
-17632,-4060,-4196,-1321,-1112,4308,2025-01-29 11:55:26,0.0
-16696,-2832,-3920,76,-4416,5489,2025-01-29 11:55:26,0.0
-14828,-1736,-5132,625,-7056,6370,2025-01-29 11:55:26,0.0
-14296,-12,-5172,847,-8280,7467,2025-01-29 11:55:26,0.0
-12580,1056,-4996,1288,-7635,9136,2025-01-29 11:55:26,0.0
-12308,3016,-5780,259,-7196,10241,2025-01-29 11:55:26,0.0
-11672,2708,-3772,-1400,-8519,9701,2025-01-29 11:55:26,0.0
-12892,3540,-2492,-2128,-9238,8698,2025-01-29 11:55:26,0.0
-14636,4024,-2700,-1456,-9268,8696,2025-01-29 11:55:26,
-11124,2576,-4444,-545,-6601,10679,2025-01-29 11:55:26,0.0
-9148,-816,-3832,-615,-3827,9359,2025-01-29 11:55:26,0.0
-13876,-8,-1932,-1165,-7790,6555,2025-01-29 11:55:26,0.0
-13976,1204,-2336,-2120,-7401,4610,2025-01-29 11:55:26,0.0
-15568,2100,-972,-3477,-4320,3042,2025-01-29 11:55:26,0.0
-14324,3416,-280,-3341,-3437,2568,2025-01-29 11:55:26,0.0
-10940,4428,848,-3191,-5900,2797,2025-01-29 11:55:26,0.0
-9304,4236,508,-2951,-5677,2655,2025-01-29 11:55:26,0.0
-7324,5188,3824,250,-5531,2397,2025-01-29 11:55:26,0.0
-8752,5232,1452,3977,-9135,3786,2025-01-29 11:55:26,0.0
-9060,4596,-2396,1895,-8291,3430,2025-01-29 11:55:26,0.0
-9240,4316,-188,316,-10627,3508,2025-01-29 11:55:26,0.0
-9984,4060,2696,114,-13719,4383,2025-01-29 11:55:26,0.0
-10780,4364,2900,868,-14128,5400,2025-01-29 11:55:26,0.0
-11536,5004,3752,1539,-12050,6044,2025-01-29 11:55:26,0.0
-11652,4864,4092,2348,-8088,5600,2025-01-29 11:55:26,0.0
-10308,4672,4592,3180,-4393,4463,2025-01-29 11:55:26,0.0
-10744,4496,3700,2702,-2618,3160,2025-01-29 11:55:26,0.0
-11092,4668,2876,963,-1678,2164,2025-01-29 11:55:26,0.0
-12280,4976,3800,1103,-1191,2172,2025-01-29 11:55:26,0.0
-11484,5580,4272,1336,-700,1906,2025-01-29 11:55:26,0.0
-9240,7144,7192,3338,-1286,430,2025-01-29 11:55:26,0.0
-12160,6512,316,2250,1565,-902,2025-01-29 11:55:26,0.0
-11704,5464,3364,1177,1922,-1380,2025-01-29 11:55:26,0.0
-11544,4268,2612,1902,-837,-889,2025-01-29 11:55:26,0.0
-10248,5012,3452,1852,-961,-1235,2025-01-29 11:55:26,0.0
-9280,5116,3308,1506,322,-1671,2025-01-29 11:55:26,0.0
-9320,5440,3668,1292,1652,-1844,2025-01-29 11:55:26,0.0
-10756,5044,3332,1403,2459,-1701,2025-01-29 11:55:26,0.0
-11548,3740,3048,1229,3178,-849,2025-01-29 11:55:26,0.0
-11688,3128,3612,2344,3533,-718,2025-01-29 11:55:27,0.0
-12656,4096,3384,1986,3763,-851,2025-01-29 11:55:27,0.0
-13320,5360,3916,1345,4251,-1022,2025-01-29 11:55:27,0.0
-13624,5460,3392,828,4703,-843,2025-01-29 11:55:27,0.0
-14492,5512,3064,1151,4882,-429,2025-01-29 11:55:27,0.0
-13656,5008,1636,1295,4982,-663,2025-01-29 11:55:27,0.0
-14084,5464,1596,1257,5224,-1103,2025-01-29 11:55:27,0.0
-15576,5780,1404,1147,5517,-1485,2025-01-29 11:55:27,0.0
-21168,6092,-1012,135,6123,-786,2025-01-29 11:55:27,0.0
-24656,5976,1352,-656,5533,1187,2025-01-29 11:55:27,0.0
-23212,4892,3304,-334,4076,3088,2025-01-29 11:55:27,0.0
-17452,6004,3612,1849,3415,3168,2025-01-29 11:55:27,0.0
-16536,6640,3732,3543,4995,1477,2025-01-29 11:55:27,0.0
-20860,5868,1400,4317,7735,1016,2025-01-29 11:55:27,0.0
-25064,8340,-148,5111,6931,1313,2025-01-29 11:55:27,0.0
-26528,9972,-2812,5366,5769,454,2025-01-29 11:55:27,0.0
-23140,9088,-3928,3363,6771,-1944,2025-01-29 11:55:27,0.0
-14736,7304,-688,3183,4038,-5313,2025-01-29 11:55:27,0.0
-11136,4992,-428,2919,-2167,-7576,2025-01-29 11:55:27,0.0
-10428,4944,-896,2697,-6226,-9139,2025-01-29 11:55:27,0.0
-10372,4228,388,3083,-5415,-10297,2025-01-29 11:55:27,0.0
-12876,5072,512,3667,-905,-10459,2025-01-29 11:55:27,0.0
-14864,5260,-208,4026,2497,-9382,2025-01-29 11:55:27,0.0
-14988,5600,-1208,4084,4199,-7230,2025-01-29 11:55:27,0.0
-13660,4900,-2136,2446,3397,-5788,2025-01-29 11:55:27,0.0
-11340,3752,-2324,89,1396,-6001,2025-01-29 11:55:27,0.0
-11248,1832,-3320,-1622,385,-6517,2025-01-29 11:55:27,0.0
-10416,-184,-3212,-3052,689,-8316,2025-01-29 11:55:27,0.0
-11712,-708,-864,-1447,-1219,-8962,2025-01-29 11:55:27,0.0
-12472,-1124,-1868,217,-2902,-7817,2025-01-29 11:55:27,0.0
-12296,-1412,-1684,1072,-3105,-6436,2025-01-29 11:55:27,0.0
-11344,-1916,-2848,1070,-1935,-5951,2025-01-29 11:55:27,0.0
-10692,-1448,-2300,971,116,-6000,2025-01-29 11:55:27,0.0
-11748,-1052,-1968,1254,1928,-6158,2025-01-29 11:55:27,0.0
-13592,-1028,-2256,1079,3389,-5823,2025-01-29 11:55:27,0.0
-14488,-564,-3096,457,4603,-5275,2025-01-29 11:55:27,0.0
-14432,-148,-3540,119,4286,-5379,2025-01-29 11:55:27,0.0
-14480,-328,-3864,-511,3744,-6097,2025-01-29 11:55:27,0.0
-14644,-948,-2992,-806,3062,-6844,2025-01-29 11:55:27,0.0
-15240,-1540,-1468,-753,2650,-6541,2025-01-29 11:55:27,0.0
-14176,-2136,-2440,-448,1305,-5223,2025-01-29 11:55:27,0.0
-15016,-2356,-1192,-541,182,-4275,2025-01-29 11:55:27,0.0
-12776,-2784,-1460,-209,-869,-4125,2025-01-29 11:55:27,0.0
-11500,-2428,-2060,-399,-1583,-4354,2025-01-29 11:55:27,0.0
-11608,-2476,228,-812,-1601,-5527,2025-01-29 11:55:27,0.0
-12428,-2916,268,-337,-2126,-5682,2025-01-29 11:55:27,0.0
-12040,-2248,1240,-271,-1906,-5491,2025-01-29 11:55:27,0.0
-11112,-1908,-436,-548,-2523,-4989,2025-01-29 11:55:27,0.0
-9424,-1456,-644,-1196,-3007,-4777,2025-01-29 11:55:27,0.0
-7588,-1536,92,-1761,-2006,-5281,2025-01-29 11:55:27,0.0
-6676,-1240,284,-2397,-913,-5967,2025-01-29 11:55:27,0.0
-7100,-2052,1444,-2112,-281,-6182,2025-01-29 11:55:27,0.0
-7716,-3052,1924,-1260,-376,-5545,2025-01-29 11:55:27,0.0
-8284,-3492,240,-703,-221,-4265,2025-01-29 11:55:27,0.0
-8324,-3340,-1932,-986,286,-3096,2025-01-29 11:55:27,0.0
-7884,-2884,-2588,-2070,1588,-2467,2025-01-29 11:55:27,0.0
-8764,-2956,-616,-2405,3208,-2126,2025-01-29 11:55:27,0.0
-10108,-3204,1164,-1998,3386,-1461,2025-01-29 11:55:27,0.0
-10656,-3364,1792,-1612,2268,-485,2025-01-29 11:55:27,0.0
-10872,-3564,628,-1350,1468,263,2025-01-29 11:55:27,0.0
-9904,-4268,-404,-1523,179,515,2025-01-29 11:55:27,0.0
-9876,-4992,-640,-1516,26,825,2025-01-29 11:55:27,0.0
-9472,-4592,-1140,-1837,-88,872,2025-01-29 11:55:28,0.0
-9336,-4032,-1652,-2553,-856,918,2025-01-29 11:55:28,0.0
-9644,-3372,-784,-3100,-1274,1110,2025-01-29 11:55:28,0.0
-9532,-2340,736,-2927,-1556,1627,2025-01-29 11:55:28,0.0
-9256,-2032,1052,-2424,-1520,2387,2025-01-29 11:55:28,0.0
-7060,-2060,-356,-3034,-2075,2648,2025-01-29 11:55:28,0.0
-5764,-2628,716,-3727,-2199,1647,2025-01-29 11:55:28,0.0
-5116,-2708,2712,-3324,-1772,237,2025-01-29 11:55:28,
-4008,-2536,3052,-2951,-3136,-1614,2025-01-29 11:55:28,0.0
-3604,-1844,4224,-3620,-5889,-3687,2025-01-29 11:55:28,0.0
-6244,-1160,4808,-3448,-8065,-4916,2025-01-29 11:55:28,0.0
-9308,-804,5460,-2996,-7484,-4315,2025-01-29 11:55:28,0.0
-11240,-1664,2668,-2531,-6772,-1992,2025-01-29 11:55:28,0.0
-12088,-2636,-2388,-4136,-6293,916,2025-01-29 11:55:28,0.0
-10924,-3520,-6120,-7342,-5438,3547,2025-01-29 11:55:28,0.0
-7964,-2848,-4128,-10598,-4443,4105,2025-01-29 11:55:28,0.0
-8008,-2140,-652,-11554,-1921,2539,2025-01-29 11:55:28,0.0
-10188,-1208,2852,-10832,275,1926,2025-01-29 11:55:28,0.0
-12068,-1936,-3248,-10921,-389,3552,2025-01-29 11:55:28,0.0
-12420,-2048,-7948,-12568,-1846,5120,2025-01-29 11:55:28,0.0
-13000,-1356,-4792,-13375,203,7517,2025-01-29 11:55:28,0.0
-13276,1940,8872,-9772,3693,10567,2025-01-29 11:55:28,0.0
-10200,1376,16348,-1156,5460,15477,2025-01-29 11:55:28,0.0
-7008,-3496,11128,4760,4449,21456,2025-01-29 11:55:28,0.0
-1436,-5140,280,7213,-1023,22770,2025-01-29 11:55:28,0.0
-2544,-7944,-5480,5436,-3330,16647,2025-01-29 11:55:28,0.0
-10520,-5836,4516,25,1289,5238,2025-01-29 11:55:28,0.0
-12948,-1344,4120,-501,3956,1919,2025-01-29 11:55:28,0.0
-17240,1024,-7140,-2011,9539,-504,2025-01-29 11:55:28,0.0
-20520,1188,-11384,-4383,16582,-1914,2025-01-29 11:55:28,0.0
-24724,488,-10880,-6009,22533,-4856,2025-01-29 11:55:28,0.0
-30888,3476,-2024,-3459,18892,-6559,2025-01-29 11:55:28,0.0
-32768,12384,-6332,-1899,10806,-4992,2025-01-29 11:55:28,0.0
-32768,13812,-8232,-2001,7623,748,2025-01-29 11:55:28,0.0
-31532,3900,-10708,225,-7973,1826,2025-01-29 11:55:28,0.0
-26184,-1864,-8676,-55,-11633,1204,2025-01-29 11:55:28,0.0
-17444,-3904,-2572,148,-11575,1134,2025-01-29 11:55:28,0.0
-10188,-3408,-4364,1402,-11563,-1450,2025-01-29 11:55:28,0.0
-10792,-2300,-5240,872,-8728,-2510,2025-01-29 11:55:28,0.0
-14568,852,-404,576,-2317,-2155,2025-01-29 11:55:28,0.0
-18420,3856,548,1887,3140,-1276,2025-01-29 11:55:28,0.0
-18648,3544,-1700,1499,5119,1090,2025-01-29 11:55:28,0.0
-16844,1264,-1576,1736,6487,3179,2025-01-29 11:55:28,0.0
-13932,68,-4068,2747,8156,3808,2025-01-29 11:55:28,0.0
-12860,380,-6344,2504,8809,2116,2025-01-29 11:55:28,0.0
-14456,1132,-5744,1832,9147,104,2025-01-29 11:55:28,0.0
-17260,2168,-4940,1695,8970,-1057,2025-01-29 11:55:28,0.0
-19984,3556,-5252,1487,7761,-758,2025-01-29 11:55:28,0.0
-19660,3896,-5916,1182,5943,986,2025-01-29 11:55:28,0.0
-16792,3312,-6276,895,4111,1901,2025-01-29 11:55:28,0.0
-15116,1788,-6636,377,4044,1321,2025-01-29 11:55:28,0.0
-15384,1764,-6248,285,5066,629,2025-01-29 11:55:28,0.0
-16752,2488,-5616,41,5190,466,2025-01-29 11:55:28,0.0
-17540,3560,-3952,-18,4531,674,2025-01-29 11:55:28,0.0
-17788,4268,-2664,427,2499,1216,2025-01-29 11:55:28,0.0
-17384,3656,-1488,1530,468,2403,2025-01-29 11:55:28,0.0
-15044,2184,-2640,2286,-1388,3211,2025-01-29 11:55:28,0.0
-12616,564,-4396,1800,-2856,3321,2025-01-29 11:55:28,0.0
-11440,-216,-4140,872,-2667,2973,2025-01-29 11:55:28,0.0
-11328,124,-4188,-15,-602,2472,2025-01-29 11:55:28,0.0
-12044,932,-2920,-397,2280,2125,2025-01-29 11:55:28,0.0
-12304,1756,-2328,-155,4169,1985,2025-01-29 11:55:29,0.0
-11940,2404,-3352,-206,4480,2162,2025-01-29 11:55:29,0.0
-11540,2584,-3748,-80,3519,2122,2025-01-29 11:55:29,0.0
-11684,2788,-4996,13,2846,2131,2025-01-29 11:55:29,0.0
-11496,1936,-5320,-175,2997,2301,2025-01-29 11:55:29,0.0
-11180,1736,-4844,-584,2496,2594,2025-01-29 11:55:29,0.0
-10164,1628,-3368,-990,1212,3027,2025-01-29 11:55:29,0.0
-9092,1088,-2180,-1056,14,3061,2025-01-29 11:55:29,0.0
-8088,664,-1864,-1057,-979,2965,2025-01-29 11:55:29,0.0
-6724,68,-2164,-873,-1206,2522,2025-01-29 11:55:29,0.0
-6680,696,-1916,-713,-305,1868,2025-01-29 11:55:29,0.0
-7056,1660,-1752,-365,622,991,2025-01-29 11:55:29,0.0
-8264,3076,-2408,-387,783,337,2025-01-29 11:55:29,0.0
-9312,3556,-3176,-719,165,400,2025-01-29 11:55:29,0.0
-9996,4120,-3176,-969,-1430,435,2025-01-29 11:55:29,0.0
-9224,3444,-4180,-1082,-2723,27,2025-01-29 11:55:29,0.0
-8176,2272,-5584,-1115,-3306,-794,2025-01-29 11:55:29,0.0
-8628,2324,-4452,-1227,-2648,-1248,2025-01-29 11:55:29,0.0
-7296,2516,-4020,-1608,-1878,-2027,2025-01-29 11:55:29,0.0
-10252,2520,-3600,-1987,147,-2319,2025-01-29 11:55:29,0.0
-11012,1872,-656,-1794,3441,-2117,2025-01-29 11:55:29,0.0
-12332,1316,-1964,-805,5561,-1737,2025-01-29 11:55:29,0.0
-14308,1056,-2000,-642,7020,-828,2025-01-29 11:55:29,0.0
-12772,1012,-4076,-1041,5996,97,2025-01-29 11:55:29,0.0
-11988,1448,-4696,-1036,3004,-841,2025-01-29 11:55:29,0.0
-12624,564,-1824,992,-3959,-1368,2025-01-29 11:55:29,0.0
-11404,1428,-520,3997,-3404,-2395,2025-01-29 11:55:29,0.0
-10824,2952,-2380,4797,-3364,-4126,2025-01-29 11:55:29,0.0
-11040,3020,-3568,3082,-5642,-4966,2025-01-29 11:55:29,0.0
-11768,2388,-2348,2011,-6962,-5222,2025-01-29 11:55:29,0.0
-12052,520,400,2807,-5310,-5785,2025-01-29 11:55:29,0.0
-14148,748,3124,5453,48,-6373,2025-01-29 11:55:29,0.0
-14880,1496,780,6701,5032,-7223,2025-01-29 11:55:29,0.0
-16596,2392,-2288,6102,2893,-6830,2025-01-29 11:55:29,0.0
-17296,1356,-4544,4174,-2975,-4792,2025-01-29 11:55:29,0.0
-17140,-288,-2988,3717,-6712,-3190,2025-01-29 11:55:29,0.0
-16884,-612,-2112,4730,-3695,-2560,2025-01-29 11:55:29,0.0
-16928,440,-188,6306,498,-2199,2025-01-29 11:55:29,0.0
-17360,1680,-3580,4762,1707,-1957,2025-01-29 11:55:29,0.0
-18712,1068,-3612,2402,732,-1521,2025-01-29 11:55:29,0.0
-19548,-180,-2256,2035,1335,-839,2025-01-29 11:55:29,0.0
-17716,-2020,100,2175,-407,-1801,2025-01-29 11:55:29,0.0
-17920,-4368,1508,4344,-2204,-2262,2025-01-29 11:55:29,0.0
-18608,-5572,3080,6330,-2383,-1805,2025-01-29 11:55:29,0.0
-16100,-3508,2284,9234,-2119,-1009,2025-01-29 11:55:29,0.0
-15900,-2100,-1772,10437,-1635,-608,2025-01-29 11:55:29,0.0
-17404,-948,-7464,8524,3719,-322,2025-01-29 11:55:29,
-19312,1100,-4704,7569,3327,1049,2025-01-29 11:55:29,0.0
-17328,1408,-4792,7639,-887,2470,2025-01-29 11:55:29,0.0
-14172,1592,-6912,6956,-4641,2931,2025-01-29 11:55:29,0.0
-10180,716,-7644,5977,-7500,1802,2025-01-29 11:55:29,0.0
-7680,-824,-6748,5255,-7933,-65,2025-01-29 11:55:29,0.0
-6668,-2432,-6184,4707,-6702,-1681,2025-01-29 11:55:29,0.0
-7000,-2360,-6064,3935,-4997,-2470,2025-01-29 11:55:29,0.0
-7724,-1044,-5900,3273,-3319,-3156,2025-01-29 11:55:29,0.0
-10212,116,-6804,2037,-124,-3741,2025-01-29 11:55:29,0.0
-12336,616,-5716,706,4160,-3481,2025-01-29 11:55:29,0.0
-14884,-420,-4584,624,4970,-2726,2025-01-29 11:55:29,0.0
-15472,-1920,-4124,492,2852,-1441,2025-01-29 11:55:29,0.0
-15072,-2512,-4672,-263,500,-448,2025-01-29 11:55:30,0.0
-13624,-3100,-4800,-949,-1030,-23,2025-01-29 11:55:30,0.0
-12740,-2828,-4340,-1836,-814,-383,2025-01-29 11:55:30,0.0
-11432,-3304,-3376,-1861,-387,-1155,2025-01-29 11:55:30,0.0
-11348,-2880,-2872,-1788,-722,-1736,2025-01-29 11:55:30,0.0
-10796,-2348,-3844,-2031,-1046,-2558,2025-01-29 11:55:30,0.0
-11724,-1904,-4264,-2877,21,-3530,2025-01-29 11:55:30,0.0
-11008,-2092,-3704,-4338,1750,-4982,2025-01-29 11:55:30,0.0
-12592,-2620,-3380,-4300,2183,-5154,2025-01-29 11:55:30,0.0
-12572,-2924,-2772,-4555,2451,-4883,2025-01-29 11:55:30,0.0
-11688,-3324,-2268,-4886,2887,-4806,2025-01-29 11:55:30,0.0
-10920,-3584,-1652,-4806,2353,-5108,2025-01-29 11:55:30,0.0
-11144,-3988,-1116,-4297,1670,-4788,2025-01-29 11:55:30,0.0
-11532,-4064,-916,-3782,1293,-4181,2025-01-29 11:55:30,0.0
-12152,-3936,-1276,-3295,721,-3210,2025-01-29 11:55:30,0.0
-13316,-3524,-2032,-2762,613,-1391,2025-01-29 11:55:30,0.0
-12960,-2576,-2456,-2672,603,460,2025-01-29 11:55:30,0.0
-12420,-2208,-2620,-2888,986,1526,2025-01-29 11:55:30,0.0
-11676,-2328,-2304,-3127,1325,2048,2025-01-29 11:55:30,0.0
-11588,-2664,-1832,-2992,1492,2366,2025-01-29 11:55:30,0.0
-12080,-2996,-1388,-2791,1680,2259,2025-01-29 11:55:30,0.0
-12644,-3300,-952,-2551,1778,1894,2025-01-29 11:55:30,0.0
-13408,-3720,-1140,-2184,1288,1675,2025-01-29 11:55:30,0.0
-14560,-3832,-1856,-2217,511,1906,2025-01-29 11:55:30,0.0
-14756,-3968,-2280,-2489,-305,2404,2025-01-29 11:55:30,0.0
-14176,-3836,-2364,-2665,-660,2625,2025-01-29 11:55:30,0.0
-13104,-2868,-2448,-3037,-384,2044,2025-01-29 11:55:30,0.0
-12564,-2332,-2416,-3151,-525,982,2025-01-29 11:55:30,0.0
-12796,-1892,-2120,-3157,-800,-482,2025-01-29 11:55:30,0.0
-13088,-1652,-2492,-3290,-1353,-1646,2025-01-29 11:55:30,0.0
-13504,-1864,-2136,-3875,-1994,-2534,2025-01-29 11:55:30,0.0
-13948,-2132,-1416,-4125,-2762,-3071,2025-01-29 11:55:30,0.0
-14508,-2468,-3464,-4221,-2518,-3262,2025-01-29 11:55:30,0.0
-15224,-4888,-4096,-4894,-279,-3220,2025-01-29 11:55:30,0.0
-15108,-7112,-3036,-4230,1356,-2970,2025-01-29 11:55:30,0.0
-15256,-7520,-4412,-3615,1985,-2551,2025-01-29 11:55:30,0.0
-14132,-6872,-5052,-2850,1375,-2994,2025-01-29 11:55:30,0.0
-14444,-6292,-6068,-2207,1519,-4266,2025-01-29 11:55:30,0.0
-16628,-4484,-6036,-2308,1572,-4520,2025-01-29 11:55:30,0.0
-18732,-3136,-5888,-2387,449,-2376,2025-01-29 11:55:30,0.0
-17880,-1372,-4568,-1736,-2046,454,2025-01-29 11:55:30,0.0
-15368,-992,-5748,-715,-4175,2168,2025-01-29 11:55:30,0.0
-12528,-476,-5840,-1227,-5243,3295,2025-01-29 11:55:30,0.0
-10168,-164,-4728,-1673,-5096,2967,2025-01-29 11:55:30,0.0
-8612,-208,-4344,-1919,-4603,1711,2025-01-29 11:55:30,0.0
-9404,-452,-4024,-1712,-3519,992,2025-01-29 11:55:30,0.0
-9744,-168,-5256,-1315,-1829,876,2025-01-29 11:55:30,0.0
-11088,76,-5468,-1111,812,741,2025-01-29 11:55:30,0.0
-12064,-32,-6588,-1415,3044,891,2025-01-29 11:55:30,0.0
-12984,-232,-6364,-1896,4958,1336,2025-01-29 11:55:30,0.0
-13688,-608,-5220,-2298,5618,1657,2025-01-29 11:55:30,0.0
-13368,-988,-4536,-2277,4956,1855,2025-01-29 11:55:30,0.0
-13428,-1860,-4400,-1870,3572,2051,2025-01-29 11:55:30,0.0
-13812,-1824,-4692,-1539,2075,2674,2025-01-29 11:55:30,0.0
-13112,-1396,-4972,-1236,552,2990,2025-01-29 11:55:30,0.0
-12156,-1168,-5148,-991,-654,2975,2025-01-29 11:55:30,0.0
-11480,-952,-4352,-856,-570,3230,2025-01-29 11:55:30,0.0
-10588,-284,-3812,-489,-135,3271,2025-01-29 11:55:30,0.0
-9872,712,-3340,4,394,2131,2025-01-29 11:55:30,0.0
-10288,1156,-3876,253,1416,645,2025-01-29 11:55:30,0.0
-11224,600,-3284,597,2321,-191,2025-01-29 11:55:31,0.0
-12012,164,-3968,894,2531,-291,2025-01-29 11:55:31,0.0
-11876,552,-3600,1505,1794,-343,2025-01-29 11:55:31,0.0
-12484,-124,-4800,1204,494,-538,2025-01-29 11:55:31,0.0
-12540,-884,-4664,1176,618,-445,2025-01-29 11:55:31,0.0
-12260,-1376,-4016,1766,817,-480,2025-01-29 11:55:31,0.0
-12476,-1504,-4132,2517,1171,-276,2025-01-29 11:55:31,0.0
-12616,-1304,-4552,2922,1265,97,2025-01-29 11:55:31,0.0
-12984,-840,-5192,2995,1147,344,2025-01-29 11:55:31,0.0
-13264,-368,-5184,3090,1506,586,2025-01-29 11:55:31,0.0
-13508,80,-4920,3292,1669,758,2025-01-29 11:55:31,0.0
-13824,240,-4972,3182,1517,821,2025-01-29 11:55:31,0.0
-13884,424,-4772,3128,967,1044,2025-01-29 11:55:31,0.0
-13436,80,-4392,3519,-285,1432,2025-01-29 11:55:31,0.0
-12384,-244,-4176,3998,-1014,1517,2025-01-29 11:55:31,0.0
-11568,-452,-3976,4341,-776,1365,2025-01-29 11:55:31,0.0
-10972,-272,-4060,4642,-274,969,2025-01-29 11:55:31,0.0
-10872,20,-4144,4911,289,477,2025-01-29 11:55:31,0.0
-10800,-164,-4312,4993,1002,-33,2025-01-29 11:55:31,0.0
-11668,-536,-3920,5097,1321,-486,2025-01-29 11:55:31,0.0
-12040,-908,-3812,5392,842,-911,2025-01-29 11:55:31,0.0
-12444,-1408,-4308,5565,722,-1193,2025-01-29 11:55:31,0.0
-12824,-1792,-5148,5300,1396,-1502,2025-01-29 11:55:31,0.0
-13516,-1304,-5960,4981,1819,-1540,2025-01-29 11:55:31,0.0
-14228,-684,-6792,4450,1846,-1295,2025-01-29 11:55:31,0.0
-15112,-248,-8116,3546,1203,-661,2025-01-29 11:55:31,0.0
-14208,-100,-7260,2462,-298,-138,2025-01-29 11:55:31,0.0
-13184,-472,-5940,1870,-1851,-151,2025-01-29 11:55:31,
-12496,-1272,-5456,1618,-2525,-180,2025-01-29 11:55:31,0.0
-10596,-2144,-5552,1481,-2491,-454,2025-01-29 11:55:31,0.0
-10148,-3024,-4948,1232,-1360,-749,2025-01-29 11:55:31,0.0
-10460,-3044,-4008,1114,302,-707,2025-01-29 11:55:31,0.0
-11280,-2852,-3492,1043,1654,-404,2025-01-29 11:55:31,0.0
-11948,-2596,-3448,1132,2140,-246,2025-01-29 11:55:31,0.0
-13068,-2164,-4208,1153,2185,-99,2025-01-29 11:55:31,0.0
-13444,-1896,-4876,962,1960,-101,2025-01-29 11:55:31,0.0
-13344,-2188,-5352,677,1629,-385,2025-01-29 11:55:31,0.0
-13448,-2128,-4940,561,1124,-625,2025-01-29 11:55:31,0.0
-13120,-2404,-5000,336,592,-583,2025-01-29 11:55:31,0.0
-13264,-2440,-4484,157,297,-399,2025-01-29 11:55:31,0.0
-12712,-2316,-4556,116,87,-144,2025-01-29 11:55:31,0.0
-12320,-2344,-4500,6,192,97,2025-01-29 11:55:31,0.0
-12124,-2408,-4320,35,573,274,2025-01-29 11:55:31,0.0
-11824,-2816,-4152,33,915,277,2025-01-29 11:55:31,0.0
-12164,-3144,-4040,114,1338,85,2025-01-29 11:55:31,0.0
-12664,-2800,-3800,251,1557,-120,2025-01-29 11:55:31,0.0
-13060,-2432,-3928,270,1511,-232,2025-01-29 11:55:31,0.0
-13428,-2108,-3980,189,1042,-222,2025-01-29 11:55:31,0.0
-13348,-2048,-4448,233,462,-42,2025-01-29 11:55:31,0.0
-12868,-1928,-4464,199,59,132,2025-01-29 11:55:31,0.0
-12416,-1924,-4736,-6,79,33,2025-01-29 11:55:31,0.0
-12128,-2080,-4856,-192,345,-84,2025-01-29 11:55:31,0.0
-11808,-2260,-4776,-369,712,-215,2025-01-29 11:55:31,0.0
-12072,-2360,-4672,-413,1002,-250,2025-01-29 11:55:31,0.0
-12276,-2552,-4500,-376,1113,-236,2025-01-29 11:55:31,0.0
-12480,-2564,-4236,-289,1248,-217,2025-01-29 11:55:31,0.0
-12668,-2472,-4360,-130,1289,-152,2025-01-29 11:55:31,0.0
-12712,-2192,-4344,-41,1068,-85,2025-01-29 11:55:31,0.0
-12820,-2052,-4508,-159,895,-28,2025-01-29 11:55:31,0.0
-12776,-2232,-4856,-87,731,-7,2025-01-29 11:55:31,0.0
-12728,-2296,-5024,-78,804,-51,2025-01-29 11:55:31,0.0
-12768,-1996,-4844,-164,767,-141,2025-01-29 11:55:31,0.0
-12872,-1732,-4680,-280,623,-129,2025-01-29 11:55:31,0.0
-12996,-1588,-4644,-380,231,21,2025-01-29 11:55:32,0.0
-12852,-1648,-4772,-541,-33,273,2025-01-29 11:55:32,0.0
-12580,-1848,-5340,-747,-134,493,2025-01-29 11:55:32,0.0
-12420,-1772,-5360,-1028,-53,598,2025-01-29 11:55:32,0.0
-12376,-2040,-5172,-1075,-51,600,2025-01-29 11:55:32,0.0
-12568,-1888,-5336,-1042,-136,724,2025-01-29 11:55:32,0.0
-12736,-1840,-6104,-1214,-662,1089,2025-01-29 11:55:32,0.0
-11980,-932,-6160,-1357,-1363,1404,2025-01-29 11:55:32,0.0
-11284,-620,-6244,-1676,-1880,1505,2025-01-29 11:55:32,0.0
-10224,-576,-6292,-2024,-2403,1593,2025-01-29 11:55:32,0.0
-9068,-536,-6120,-2159,-2669,1635,2025-01-29 11:55:32,0.0
-7636,-776,-5324,-2256,-2730,1538,2025-01-29 11:55:32,0.0
-6508,-1500,-3256,-2213,-1495,1041,2025-01-29 11:55:32,0.0
-6156,-1404,-1568,-2102,-45,339,2025-01-29 11:55:32,0.0
-6136,-1104,-1568,-2120,781,-530,2025-01-29 11:55:32,0.0
-6088,-1040,-1880,-2048,1444,-994,2025-01-29 11:55:32,0.0
-6012,-1072,-1728,-1860,1865,-1087,2025-01-29 11:55:32,0.0
-5596,-1304,-1828,-1680,1963,-1242,2025-01-29 11:55:32,0.0
-4944,-1504,-1456,-1553,2636,-1599,2025-01-29 11:55:32,0.0
-5564,-1688,-1564,-1167,4394,-1991,2025-01-29 11:55:32,0.0
-6780,-1516,-2036,-1016,5780,-1989,2025-01-29 11:55:32,0.0
-8244,-1316,-1872,-849,6364,-1385,2025-01-29 11:55:32,0.0
-9548,-1444,-2200,-627,6174,-766,2025-01-29 11:55:32,0.0
-11328,-1672,-2388,-177,2906,-603,2025-01-29 11:55:32,0.0
-12276,-1388,-2436,-252,1336,273,2025-01-29 11:55:32,0.0
-11308,-1968,-3080,39,178,660,2025-01-29 11:55:32,0.0
-11748,-2768,-3416,324,-1263,818,2025-01-29 11:55:32,0.0
-12392,-3084,-2956,651,-2765,1338,2025-01-29 11:55:32,0.0
-11268,-3400,-4120,990,-4162,1674,2025-01-29 11:55:32,0.0
-9492,-2680,-6148,1171,-5023,1170,2025-01-29 11:55:32,0.0
-9680,-1396,-6420,1085,-3501,677,2025-01-29 11:55:32,0.0
-11616,-20,-5224,520,-1968,784,2025-01-29 11:55:32,0.0
-13572,724,-3792,-257,-258,907,2025-01-29 11:55:32,0.0
-14632,316,-3680,-626,241,1078,2025-01-29 11:55:32,0.0
-14944,-972,-4976,-387,-1471,1725,2025-01-29 11:55:32,0.0
-15616,-2092,-5576,-456,-1591,2236,2025-01-29 11:55:32,0.0
-14568,-1984,-6244,-670,545,1704,2025-01-29 11:55:32,0.0
-15324,-1212,-4848,-420,-1416,1459,2025-01-29 11:55:32,0.0
-17308,-200,-5304,-120,-2871,1990,2025-01-29 11:55:32,0.0
-18668,656,-5364,-582,-3361,2883,2025-01-29 11:55:32,0.0
-17116,-620,-4876,-417,-5345,2753,2025-01-29 11:55:32,0.0
-14100,-1580,-4888,-39,-8191,1505,2025-01-29 11:55:32,0.0
-14144,-840,-4404,-295,-7553,643,2025-01-29 11:55:32,0.0
-12392,-384,-2584,-519,-7108,700,2025-01-29 11:55:32,0.0
-14432,-344,-2292,-322,-6388,1303,2025-01-29 11:55:32,0.0
-16256,128,-1352,-636,-6879,3156,2025-01-29 11:55:32,0.0
-14868,-660,-1340,-579,-7183,2797,2025-01-29 11:55:32,0.0
-13612,-64,-2032,-835,-6656,1908,2025-01-29 11:55:32,0.0
-13296,-40,-2040,-1271,-4301,1560,2025-01-29 11:55:32,0.0
-14360,184,-1672,-1119,-2124,1693,2025-01-29 11:55:32,0.0
-16424,8,-1384,-729,-1133,1906,2025-01-29 11:55:32,0.0
-17224,248,-1064,-645,-2680,1634,2025-01-29 11:55:32,0.0
-16996,332,-188,-193,-3996,1234,2025-01-29 11:55:32,0.0
-16280,620,-952,197,-2791,1079,2025-01-29 11:55:32,0.0
-15312,812,-780,312,205,1107,2025-01-29 11:55:32,0.0
-14380,1628,-2032,-122,2565,486,2025-01-29 11:55:32,0.0
-15856,1756,-2712,-738,2504,-298,2025-01-29 11:55:32,0.0
-18568,1348,-3016,-1068,-2,-195,2025-01-29 11:55:32,0.0
-19504,1064,-4724,-1462,-4408,-260,2025-01-29 11:55:32,0.0
-18392,1072,-4304,-1566,-7252,-391,2025-01-29 11:55:32,0.0
-17180,1288,-3064,-1898,-8383,-973,2025-01-29 11:55:32,0.0
-14500,904,-2012,-2316,-8048,-1769,2025-01-29 11:55:33,0.0
-14068,-472,-980,-2263,-5611,-2134,2025-01-29 11:55:33,0.0
-14628,-1624,-800,-1823,-2078,-2317,2025-01-29 11:55:33,0.0
-16076,-2584,-80,-984,154,-2245,2025-01-29 11:55:33,
-17424,-2732,-140,-184,660,-2341,2025-01-29 11:55:33,0.0
-17716,-1892,-868,503,437,-2359,2025-01-29 11:55:33,0.0
-18500,124,-1356,596,159,-1585,2025-01-29 11:55:33,0.0
-16832,608,-304,467,-478,-947,2025-01-29 11:55:33,0.0
-15556,332,348,495,-803,-434,2025-01-29 11:55:33,0.0
-14140,-384,548,408,154,-177,2025-01-29 11:55:33,0.0
-13836,-1416,396,599,1258,-294,2025-01-29 11:55:33,0.0
-14504,-1444,-332,662,1494,-480,2025-01-29 11:55:33,0.0
-13892,-712,-732,851,775,-1123,2025-01-29 11:55:33,0.0
-14316,-452,-824,984,674,-1625,2025-01-29 11:55:33,0.0
-14576,-376,-1136,973,133,-1524,2025-01-29 11:55:33,0.0
-13936,-372,-1216,834,-374,-1274,2025-01-29 11:55:33,0.0
-12540,-504,-884,704,-324,-1219,2025-01-29 11:55:33,0.0
-12252,-856,-704,598,359,-1186,2025-01-29 11:55:33,0.0
-12052,-984,-80,650,988,-1044,2025-01-29 11:55:33,0.0
-12312,-1060,280,724,1288,-849,2025-01-29 11:55:33,0.0
-12756,-928,536,719,1448,-638,2025-01-29 11:55:33,0.0
-12956,-532,388,657,1315,-455,2025-01-29 11:55:33,0.0
-13428,32,-200,453,617,-241,2025-01-29 11:55:33,0.0
-13652,192,-748,217,-490,-175,2025-01-29 11:55:33,0.0
-13908,-116,-500,-111,-1089,-73,2025-01-29 11:55:33,0.0
-13496,-552,8,-120,-1045,-60,2025-01-29 11:55:33,0.0
-13000,-992,-96,-12,-597,-143,2025-01-29 11:55:33,0.0
-13044,-1080,-176,160,134,-442,2025-01-29 11:55:33,0.0
-13184,-768,-784,188,465,-589,2025-01-29 11:55:33,0.0
-13300,-624,-880,78,598,-462,2025-01-29 11:55:33,0.0
-13620,-648,-1048,-13,517,-350,2025-01-29 11:55:33,0.0
-14184,-432,-1372,-164,199,-217,2025-01-29 11:55:33,0.0
-14588,-52,-1244,-373,-158,-107,2025-01-29 11:55:33,0.0
-14528,-168,-996,-602,-683,-55,2025-01-29 11:55:33,0.0
-13976,-752,-600,-600,-854,-133,2025-01-29 11:55:33,0.0
-14036,-1068,-260,-492,-570,-181,2025-01-29 11:55:33,0.0
-14140,-1040,8,-365,-225,-186,2025-01-29 11:55:33,0.0
-14232,-860,-100,-244,54,-178,2025-01-29 11:55:33,0.0
-14132,-844,-208,-145,68,-192,2025-01-29 11:55:33,0.0
-13956,-824,-380,-108,44,-145,2025-01-29 11:55:33,0.0
-13752,-692,-764,-156,-79,-119,2025-01-29 11:55:33,0.0
-13648,-556,-836,-248,-149,-106,2025-01-29 11:55:33,0.0
-13500,-568,-772,-351,-130,-167,2025-01-29 11:55:33,0.0
-13452,-680,-540,-382,-105,-226,2025-01-29 11:55:33,0.0
-13488,-688,-148,-366,-27,-284,2025-01-29 11:55:33,0.0
-13376,-780,-108,-400,194,-203,2025-01-29 11:55:33,0.0
-13572,-760,76,-477,565,-5,2025-01-29 11:55:33,0.0
-13436,-604,8,-498,903,119,2025-01-29 11:55:33,0.0
-13476,-512,12,-522,1322,205,2025-01-29 11:55:33,0.0
-13456,-640,-160,-461,1630,206,2025-01-29 11:55:33,0.0
-13696,-792,-368,-308,1439,135,2025-01-29 11:55:33,0.0
-13964,-968,-352,-215,1005,111,2025-01-29 11:55:33,0.0
-13984,-840,-536,-116,423,-10,2025-01-29 11:55:33,0.0
-13820,-784,-304,-104,-7,-148,2025-01-29 11:55:33,0.0
-13760,-620,-384,-134,-199,-204,2025-01-29 11:55:33,0.0
-13864,-564,-488,-174,-196,-194,2025-01-29 11:55:33,0.0
-13664,-604,-300,-255,-35,-205,2025-01-29 11:55:33,0.0
-13624,-488,-280,-304,282,-225,2025-01-29 11:55:33,0.0
-13676,-508,-612,-359,533,-245,2025-01-29 11:55:33,0.0
-13740,-588,-592,-405,459,-263,2025-01-29 11:55:33,0.0
-13864,-840,-424,-357,257,-228,2025-01-29 11:55:33,0.0
-14176,-780,-508,-291,167,-189,2025-01-29 11:55:34,0.0
-13992,-764,-920,-257,-89,-138,2025-01-29 11:55:34,0.0
-13692,-620,-764,-237,-223,-87,2025-01-29 11:55:34,0.0
-13612,-620,-552,-224,-184,-85,2025-01-29 11:55:34,0.0
-13624,-580,-204,-250,-133,-96,2025-01-29 11:55:34,0.0
-13704,-660,-304,-239,-9,-120,2025-01-29 11:55:34,0.0
-13812,-616,-368,-237,83,-103,2025-01-29 11:55:34,0.0
-13832,-532,-316,-313,166,-85,2025-01-29 11:55:34,0.0
-13604,-596,-196,-335,210,-45,2025-01-29 11:55:34,0.0
-13752,-688,-164,-242,327,-59,2025-01-29 11:55:34,0.0
-13704,-820,-340,-167,188,-91,2025-01-29 11:55:34,0.0
-13652,-880,-228,-96,108,-42,2025-01-29 11:55:34,0.0
-13552,-760,-232,-82,179,-31,2025-01-29 11:55:34,0.0
-13580,-460,-412,-110,352,-78,2025-01-29 11:55:34,0.0
-13504,-244,-368,-227,548,-175,2025-01-29 11:55:34,0.0
-13460,-104,-512,-329,788,-298,2025-01-29 11:55:34,0.0
-13352,-288,-352,-354,1175,-319,2025-01-29 11:55:34,0.0
-13544,-552,-220,-395,1503,-260,2025-01-29 11:55:34,0.0
-13808,-756,-232,-372,1843,-173,2025-01-29 11:55:34,0.0
-14128,-832,-644,-274,1818,-91,2025-01-29 11:55:34,0.0
-14264,-740,-1068,-172,1264,10,2025-01-29 11:55:34,0.0
-14080,-524,-1836,-197,213,115,2025-01-29 11:55:34,0.0
-13356,-620,-996,-98,570,25,2025-01-29 11:55:34,0.0
-13792,-520,-820,-128,496,-11,2025-01-29 11:55:34,0.0
-13544,-444,-952,-176,465,-66,2025-01-29 11:55:34,0.0
-13776,-576,-836,-167,416,-137,2025-01-29 11:55:34,0.0
-13704,-724,-1000,-132,480,-168,2025-01-29 11:55:34,0.0
-13760,-736,-896,-94,369,-221,2025-01-29 11:55:34,0.0
-13684,-452,-1036,-150,354,-201,2025-01-29 11:55:34,0.0
-13552,-344,-892,-233,408,-194,2025-01-29 11:55:34,0.0
-13512,-484,-1016,-248,458,-168,2025-01-29 11:55:34,0.0
-13652,-632,-1088,-217,385,-183,2025-01-29 11:55:34,0.0
-13584,-672,-1208,-170,221,-146,2025-01-29 11:55:34,0.0
-13668,-576,-1024,-116,74,-122,2025-01-29 11:55:34,0.0
-13604,-424,-944,-98,165,-117,2025-01-29 11:55:34,0.0
-13616,-328,-912,-190,220,-188,2025-01-29 11:55:34,0.0
-13488,-236,-736,-209,188,-178,2025-01-29 11:55:34,0.0
-13604,-508,-576,-185,288,-181,2025-01-29 11:55:34,0.0
-13680,-648,-860,-154,461,-132,2025-01-29 11:55:34,0.0
-13688,-628,-920,-139,432,-57,2025-01-29 11:55:34,0.0
-13600,-556,-928,-98,246,-58,2025-01-29 11:55:34,0.0
-13808,-536,-992,-35,256,-126,2025-01-29 11:55:34,0.0
-13716,-476,-1152,-10,187,-153,2025-01-29 11:55:34,
-13464,-440,-1148,-14,176,-128,2025-01-29 11:55:34,0.0
-13784,-416,-588,42,358,-140,2025-01-29 11:55:34,0.0
-13900,-532,-560,144,425,-203,2025-01-29 11:55:34,0.0
-14024,-644,-652,175,545,-242,2025-01-29 11:55:34,0.0
-13848,-672,-792,146,669,-167,2025-01-29 11:55:34,0.0
-13496,-552,-924,59,785,-84,2025-01-29 11:55:34,0.0
-13444,-440,-912,-1,833,-43,2025-01-29 11:55:34,0.0
-13468,-300,-1104,-88,842,8,2025-01-29 11:55:34,0.0
-13476,-468,-1052,-132,636,36,2025-01-29 11:55:35,0.0
-13400,-588,-1320,-128,371,18,2025-01-29 11:55:35,0.0
-13496,-588,-1096,-82,55,-75,2025-01-29 11:55:35,0.0
-13596,-540,-1008,-54,-138,-153,2025-01-29 11:55:35,0.0
-13624,-620,-1068,-34,-99,-251,2025-01-29 11:55:35,0.0
-13564,-440,-1228,-56,-68,-298,2025-01-29 11:55:35,0.0
-13524,-516,-960,-66,11,-346,2025-01-29 11:55:35,0.0
-13528,-368,-1188,-133,89,-370,2025-01-29 11:55:35,0.0
-13528,-528,-1084,-142,177,-343,2025-01-29 11:55:35,0.0
-18812,-776,-3824,-820,1635,369,2025-01-29 11:55:35,0.0
-20288,-1300,-2792,-931,1764,702,2025-01-29 11:55:35,0.0
-20132,-1580,-2800,-655,1948,723,2025-01-29 11:55:35,0.0
-19968,-1040,-3476,-371,2681,65,2025-01-29 11:55:35,0.0
-19612,-640,-4144,-118,3843,-753,2025-01-29 11:55:35,0.0
-19892,-416,-4608,-397,4737,-1008,2025-01-29 11:55:35,0.0
-19632,-256,-4976,-693,5489,-993,2025-01-29 11:55:35,0.0
-19616,-344,-5104,-687,6395,-1116,2025-01-29 11:55:35,0.0
-19220,-524,-5728,-836,6605,-1391,2025-01-29 11:55:35,0.0
-18764,-416,-5136,-951,6218,-1787,2025-01-29 11:55:35,0.0
-17864,-120,-4040,-1109,6013,-2230,2025-01-29 11:55:35,0.0
-17188,-380,-2848,-1252,6086,-2506,2025-01-29 11:55:35,0.0
-16696,-792,-2428,-1241,6330,-2365,2025-01-29 11:55:35,0.0
-15688,-1396,-2452,-954,6383,-2030,2025-01-29 11:55:35,0.0
-14772,-1848,-2912,-607,6167,-1723,2025-01-29 11:55:35,0.0
-13272,-1592,-3280,-499,5011,-1598,2025-01-29 11:55:35,0.0
-11916,-1412,-3108,-252,2772,-1809,2025-01-29 11:55:35,0.0
-11736,-1208,-2884,-135,737,-2079,2025-01-29 11:55:35,0.0
-11952,-496,-3168,-223,175,-1996,2025-01-29 11:55:35,0.0
-12736,16,-3828,-160,2237,-1249,2025-01-29 11:55:35,0.0
-13044,132,-4164,-323,3935,-808,2025-01-29 11:55:35,0.0
-13560,-124,-4620,-640,3924,-780,2025-01-29 11:55:35,0.0
-14400,-660,-4396,-672,3297,-927,2025-01-29 11:55:35,0.0
-14916,-1464,-4712,-491,3350,-554,2025-01-29 11:55:35,0.0
-13816,-2264,-5008,-86,669,-62,2025-01-29 11:55:35,0.0
-13428,-1908,-4684,150,-1001,476,2025-01-29 11:55:35,0.0
-12344,-1560,-4852,638,-1128,511,2025-01-29 11:55:35,0.0
-12432,-736,-4264,1497,114,146,2025-01-29 11:55:35,0.0
-12476,-340,-3532,1992,1116,-401,2025-01-29 11:55:35,0.0
-11916,-472,-4100,2160,928,-1150,2025-01-29 11:55:35,0.0
-10968,-616,-5340,1966,-433,-1417,2025-01-29 11:55:35,0.0
-10652,-628,-6000,1484,-1567,-1375,2025-01-29 11:55:35,0.0
-10752,-584,-6164,890,-1511,-1300,2025-01-29 11:55:35,0.0
-10996,-60,-6244,336,-440,-1071,2025-01-29 11:55:35,0.0
-10836,-488,-5128,-368,80,-812,2025-01-29 11:55:35,0.0
-10616,-1256,-2968,-726,148,-589,2025-01-29 11:55:35,0.0
-9916,-1860,-2076,-643,-888,-298,2025-01-29 11:55:35,0.0
-9400,-2276,-1596,-402,-2352,156,2025-01-29 11:55:35,0.0
-8612,-2040,-1424,348,-2736,502,2025-01-29 11:55:35,0.0
-8404,-1476,-1644,983,-2174,592,2025-01-29 11:55:35,0.0
-7852,-640,-2368,1399,-1656,726,2025-01-29 11:55:35,0.0
-7820,-176,-2204,1171,-1904,913,2025-01-29 11:55:35,0.0
-7240,32,-1676,669,-2501,922,2025-01-29 11:55:35,0.0
-7076,100,-744,23,-2668,682,2025-01-29 11:55:35,0.0
-7516,-184,-892,-335,-1716,604,2025-01-29 11:55:35,0.0
-7464,-1092,-1128,-555,-98,614,2025-01-29 11:55:35,0.0
-7456,-1936,-1660,-459,1560,462,2025-01-29 11:55:35,0.0
-7744,-2188,-2788,-400,2493,283,2025-01-29 11:55:35,0.0
-8536,-1368,-3940,-417,2861,340,2025-01-29 11:55:35,0.0
-9604,-196,-4300,-480,3058,715,2025-01-29 11:55:35,0.0
-9860,1136,-5408,-233,3504,949,2025-01-29 11:55:35,0.0
-9020,988,-5156,-583,2354,440,2025-01-29 11:55:36,0.0
-8852,-312,-4208,-1065,90,-592,2025-01-29 11:55:36,0.0
-9236,-1980,-3388,-1244,-1616,-1480,2025-01-29 11:55:36,0.0
-10028,-3076,-3304,-1061,-1759,-2080,2025-01-29 11:55:36,0.0
-10092,-3512,-3684,-302,-1028,-2312,2025-01-29 11:55:36,0.0
-11064,-2500,-4428,811,664,-2048,2025-01-29 11:55:36,0.0
-12656,-944,-4368,1173,1677,-1370,2025-01-29 11:55:36,0.0
-13968,-476,-5376,539,3465,-549,2025-01-29 11:55:36,0.0
-12792,-1256,-6948,-77,4829,-391,2025-01-29 11:55:36,0.0
-12348,-1796,-8340,-418,3859,-955,2025-01-29 11:55:36,0.0
-13100,-1920,-7720,172,1334,-1321,2025-01-29 11:55:36,0.0
-14328,-1992,-6840,262,359,-656,2025-01-29 11:55:36,0.0
