acceleration_x,acceleration_y,acceleration_z,gyroscope_x,gyroscope_y,gyroscope_z,timestamp,label
-11980,-2268,-5948,-281,129,-236,2025-01-29 12:01:45,0.0
-11932,-2176,-6028,-217,121,-193,2025-01-29 12:01:45,0.0
-11800,-2208,-6044,-195,103,-180,2025-01-29 12:01:45,0.0
-11796,-2160,-5992,-182,146,-183,2025-01-29 12:01:45,0.0
-11808,-2124,-6288,-169,216,-187,2025-01-29 12:01:45,0.0
-11784,-2136,-5988,-156,278,-187,2025-01-29 12:01:45,0.0
-11944,-2160,-5896,-118,296,-205,2025-01-29 12:01:45,0.0
-11952,-2160,-6124,-115,230,-169,2025-01-29 12:01:45,0.0
-11888,-2140,-6056,-98,146,-137,2025-01-29 12:01:45,0.0
-11868,-2140,-6200,-104,120,-138,2025-01-29 12:01:45,0.0
-11948,-2136,-6044,-131,129,-141,2025-01-29 12:01:45,0.0
-11820,-2048,-6148,-140,191,-153,2025-01-29 12:01:45,0.0
-11748,-2104,-6208,-137,215,-173,2025-01-29 12:01:45,0.0
-11888,-2152,-5908,-181,265,-192,2025-01-29 12:01:45,0.0
-11944,-2112,-6252,-148,251,-204,2025-01-29 12:01:45,0.0
-11888,-2160,-6156,-184,185,-186,2025-01-29 12:01:45,0.0
-11964,-2148,-6232,-196,107,-206,2025-01-29 12:01:45,0.0
-11840,-2104,-6100,-229,102,-188,2025-01-29 12:01:45,0.0
-11884,-2140,-5932,-217,187,-214,2025-01-29 12:01:45,0.0
-11860,-2160,-6148,-157,171,-192,2025-01-29 12:01:45,0.0
-11860,-2196,-6144,-158,195,-197,2025-01-29 12:01:45,0.0
-11772,-2232,-6136,-187,224,-216,2025-01-29 12:01:45,0.0
-11800,-2096,-6104,-133,218,-232,2025-01-29 12:01:45,0.0
-11776,-2072,-6012,-208,187,-212,2025-01-29 12:01:45,0.0
-12032,-2096,-5916,-247,154,-192,2025-01-29 12:01:45,0.0
-11948,-2136,-5956,-257,76,-197,2025-01-29 12:01:45,0.0
-11744,-2240,-5992,-276,118,-201,2025-01-29 12:01:45,0.0
-11732,-2196,-5952,-258,161,-264,2025-01-29 12:01:45,0.0
-11788,-2132,-6128,-214,282,-272,2025-01-29 12:01:45,0.0
-11696,-2080,-6180,-275,342,-282,2025-01-29 12:01:46,0.0
-11720,-2084,-6196,-316,410,-332,2025-01-29 12:01:46,0.0
-11680,-2172,-6164,-359,467,-433,2025-01-29 12:01:46,0.0
-11500,-2292,-6120,-383,603,-543,2025-01-29 12:01:46,0.0
-11620,-2392,-6292,-440,759,-610,2025-01-29 12:01:46,0.0
-11668,-2420,-6192,-426,865,-659,2025-01-29 12:01:46,0.0
-11620,-2440,-6376,-499,911,-822,2025-01-29 12:01:46,0.0
-11852,-2168,-6384,-692,793,-1008,2025-01-29 12:01:46,0.0
-12100,-2136,-6376,-826,581,-1047,2025-01-29 12:01:46,0.0
-12196,-2380,-6272,-794,345,-989,2025-01-29 12:01:46,0.0
-11896,-2716,-6548,-729,264,-1002,2025-01-29 12:01:46,0.0
-11676,-2864,-6436,-751,276,-1096,2025-01-29 12:01:46,0.0
-11756,-2900,-6260,-781,236,-1123,2025-01-29 12:01:46,0.0
-11904,-3016,-6084,-734,62,-967,2025-01-29 12:01:46,0.0
-12100,-2860,-5872,-746,-194,-705,2025-01-29 12:01:46,0.0
-12224,-2432,-5880,-896,-736,-124,2025-01-29 12:01:46,0.0
-11900,-2600,-5980,-984,-1180,459,2025-01-29 12:01:46,0.0
-11536,-2564,-6252,-1273,-974,434,2025-01-29 12:01:46,0.0
-11776,-2752,-5956,-1383,-436,313,2025-01-29 12:01:46,0.0
-12252,-3164,-5732,-1317,-99,264,2025-01-29 12:01:46,0.0
-12892,-3260,-5244,-1220,-219,333,2025-01-29 12:01:46,0.0
-13440,-3128,-5300,-1060,-765,756,2025-01-29 12:01:46,0.0
-13168,-2852,-5548,-943,-1434,1381,2025-01-29 12:01:46,0.0
-12464,-2540,-6236,-1141,-1754,1691,2025-01-29 12:01:46,0.0
-11432,-2292,-6728,-1214,-1674,1908,2025-01-29 12:01:46,0.0
-10368,-2016,-7076,-1045,-724,1745,2025-01-29 12:01:46,0.0
-9800,-1480,-7984,-1261,543,1191,2025-01-29 12:01:46,0.0
-10152,-900,-7204,-1800,1824,537,2025-01-29 12:01:46,0.0
-10944,-16,-6520,-1983,2273,136,2025-01-29 12:01:46,0.0
-12116,1200,-6812,-2243,2145,517,2025-01-29 12:01:46,0.0
-11816,1688,-6656,-2636,1887,523,2025-01-29 12:01:46,0.0
-11428,1104,-6360,-3371,1457,-328,2025-01-29 12:01:46,0.0
-12108,-48,-5328,-3808,1312,-1144,2025-01-29 12:01:46,0.0
-12880,-1304,-2620,-3484,1165,-1086,2025-01-29 12:01:46,0.0
-13776,-1640,-1232,-2113,1501,-508,2025-01-29 12:01:46,0.0
-14440,-1912,-892,-702,2357,379,2025-01-29 12:01:46,0.0
-14572,-1776,-2756,384,2546,1048,2025-01-29 12:01:46,0.0
-14356,-576,-4400,880,2127,1590,2025-01-29 12:01:46,0.0
-13968,756,-5296,716,1266,2201,2025-01-29 12:01:46,0.0
-12732,1476,-5016,452,137,2396,2025-01-29 12:01:46,0.0
-11632,1324,-4096,406,-591,2051,2025-01-29 12:01:46,0.0
-11356,348,-3344,688,-394,1407,2025-01-29 12:01:46,0.0
-11448,-740,-2480,1263,185,818,2025-01-29 12:01:46,0.0
-12452,-1344,-2884,2104,680,452,2025-01-29 12:01:46,0.0
-13376,-1224,-3444,2797,1021,386,2025-01-29 12:01:46,0.0
-14284,-956,-3508,3215,558,447,2025-01-29 12:01:46,0.0
-14036,-324,-2448,3458,-1086,277,2025-01-29 12:01:46,0.0
-12716,1044,-2620,3657,-3405,-373,2025-01-29 12:01:46,0.0
-11824,948,-4640,3598,-4087,-665,2025-01-29 12:01:46,0.0
-11476,84,-6496,3706,-2203,-442,2025-01-29 12:01:46,0.0
-11512,236,-9432,3406,530,-112,2025-01-29 12:01:46,0.0
-12468,772,-10020,1845,2710,834,2025-01-29 12:01:46,0.0
-12344,808,-9088,487,2884,1570,2025-01-29 12:01:46,0.0
-11524,-324,-8072,-575,549,1168,2025-01-29 12:01:46,0.0
-11192,-2184,-7048,-610,-1599,-437,2025-01-29 12:01:46,0.0
-11616,-3160,-7612,326,-1197,-1874,2025-01-29 12:01:46,0.0
-12120,-3124,-8488,873,-532,-2808,2025-01-29 12:01:46,0.0
-13012,-2488,-8172,1084,-222,-3355,2025-01-29 12:01:46,0.0
-13612,-1516,-7732,983,-1189,-2844,2025-01-29 12:01:46,0.0
-13492,-1020,-7120,374,-2925,-2135,2025-01-29 12:01:46,0.0
-12164,-1780,-5944,-337,-4111,-2274,2025-01-29 12:01:46,0.0
-11520,-2684,-5060,-803,-3832,-2752,2025-01-29 12:01:46,0.0
-11084,-3376,-4412,-823,-2788,-3076,2025-01-29 12:01:47,0.0
-10388,-3860,-4652,-531,-1668,-3115,2025-01-29 12:01:47,0.0
-10068,-3892,-5216,-190,-596,-3217,2025-01-29 12:01:47,0.0
-10144,-3588,-5240,6,665,-3176,2025-01-29 12:01:47,0.0
-10636,-3248,-5296,311,1937,-3243,2025-01-29 12:01:47,0.0
-11436,-3104,-4768,541,2487,-3484,2025-01-29 12:01:47,0.0
-12028,-3232,-4656,768,2002,-3722,2025-01-29 12:01:47,0.0
-12800,-3516,-4660,990,880,-3414,2025-01-29 12:01:47,0.0
-13260,-3460,-4704,1023,56,-2562,2025-01-29 12:01:47,
-12812,-3508,-4668,859,-561,-1658,2025-01-29 12:01:47,0.0
-11740,-3256,-4588,627,-805,-1285,2025-01-29 12:01:47,0.0
-11196,-2972,-4452,296,-702,-1267,2025-01-29 12:01:47,0.0
-10940,-3008,-4484,-70,-260,-999,2025-01-29 12:01:47,0.0
-11148,-3260,-4116,-464,557,-565,2025-01-29 12:01:47,0.0
-11392,-3500,-4148,-763,1216,-293,2025-01-29 12:01:47,0.0
-11984,-3280,-3860,-909,1475,-115,2025-01-29 12:01:47,0.0
-12604,-2964,-4276,-1085,1286,31,2025-01-29 12:01:47,0.0
-12800,-2548,-4296,-1515,677,114,2025-01-29 12:01:47,0.0
-12956,-2360,-4632,-1923,-67,178,2025-01-29 12:01:47,0.0
-12616,-2648,-4520,-2316,-576,274,2025-01-29 12:01:47,0.0
-12092,-3236,-4820,-2557,-602,104,2025-01-29 12:01:47,0.0
-11912,-3708,-4632,-2825,-254,-261,2025-01-29 12:01:47,0.0
-12048,-3480,-4392,-2955,-73,-667,2025-01-29 12:01:47,0.0
-12104,-3472,-4268,-2889,156,-947,2025-01-29 12:01:47,0.0
-11916,-3588,-4412,-2639,569,-1362,2025-01-29 12:01:47,0.0
-12092,-3616,-4236,-2712,760,-1827,2025-01-29 12:01:47,0.0
-12452,-3544,-4384,-2904,699,-2137,2025-01-29 12:01:47,0.0
-13260,-2964,-4640,-3387,633,-2377,2025-01-29 12:01:47,0.0
-13980,-2552,-4576,-3921,629,-2558,2025-01-29 12:01:47,0.0
-14348,-2752,-4476,-4731,552,-2547,2025-01-29 12:01:47,0.0
-14396,-3976,-3384,-5229,419,-2086,2025-01-29 12:01:47,0.0
-13308,-5060,-3632,-4849,329,-2136,2025-01-29 12:01:47,0.0
-12664,-5816,-5316,-3746,594,-2865,2025-01-29 12:01:47,0.0
-13356,-6592,-5516,-2650,2002,-3824,2025-01-29 12:01:47,0.0
-14912,-6380,-5136,-891,2241,-4144,2025-01-29 12:01:47,0.0
-16544,-6268,-6208,708,1653,-2825,2025-01-29 12:01:47,0.0
-16908,-6360,-7828,1428,604,-1288,2025-01-29 12:01:47,0.0
-16756,-6892,-8072,1512,-832,106,2025-01-29 12:01:47,0.0
-15828,-6376,-7988,1543,-3184,2048,2025-01-29 12:01:47,0.0
-12916,-4976,-8216,1542,-5781,4318,2025-01-29 12:01:47,0.0
-10084,-3428,-8600,1011,-7434,5856,2025-01-29 12:01:47,0.0
-7816,-1584,-9360,200,-6217,6501,2025-01-29 12:01:47,0.0
-6128,80,-9928,-870,-3348,5983,2025-01-29 12:01:47,0.0
-5076,1108,-8468,-1421,-130,4041,2025-01-29 12:01:47,0.0
-5016,1216,-6712,-746,2630,600,2025-01-29 12:01:47,0.0
-8776,-792,-6896,-813,4460,-1863,2025-01-29 12:01:47,0.0
-11744,-2252,-6256,-869,6285,-1888,2025-01-29 12:01:47,0.0
-13896,-3380,-5832,-539,6706,-812,2025-01-29 12:01:47,0.0
-14788,-3612,-6064,-106,5253,540,2025-01-29 12:01:47,0.0
-15168,-3652,-6576,704,2144,2320,2025-01-29 12:01:47,0.0
-14216,-3284,-6952,1549,-1254,3786,2025-01-29 12:01:47,0.0
-12848,-2656,-7140,1942,-2920,4687,2025-01-29 12:01:47,0.0
-11272,-1924,-5932,2187,-3059,5280,2025-01-29 12:01:47,0.0
-9628,-1492,-5144,2560,-2537,5391,2025-01-29 12:01:47,0.0
-8332,-1356,-4976,2792,-1471,5013,2025-01-29 12:01:47,0.0
-7816,-1140,-5236,2967,152,4104,2025-01-29 12:01:47,0.0
-8296,-760,-5444,3092,1798,3240,2025-01-29 12:01:47,0.0
-9408,-144,-5680,2840,2740,2625,2025-01-29 12:01:47,0.0
-10460,464,-5328,2484,3115,2274,2025-01-29 12:01:47,0.0
-11372,836,-5432,2257,2799,1936,2025-01-29 12:01:47,0.0
-11456,712,-5712,2077,1689,1252,2025-01-29 12:01:47,0.0
-10580,-176,-5528,1921,793,158,2025-01-29 12:01:48,0.0
-10416,-1020,-4940,1788,675,-638,2025-01-29 12:01:48,0.0
-10428,-1008,-3944,1654,645,-1317,2025-01-29 12:01:48,0.0
-10416,-668,-3560,1439,663,-1912,2025-01-29 12:01:48,0.0
-11060,-108,-3988,1157,740,-2198,2025-01-29 12:01:48,0.0
-11412,-80,-5280,805,710,-2217,2025-01-29 12:01:48,0.0
-11616,-424,-7060,-170,356,-2291,2025-01-29 12:01:48,0.0
-12104,-1140,-6028,-575,441,-2071,2025-01-29 12:01:48,0.0
-12496,-1980,-4784,-208,795,-1561,2025-01-29 12:01:48,0.0
-12816,-2556,-4176,315,1236,-1128,2025-01-29 12:01:48,0.0
-13644,-2236,-3612,1069,1567,-873,2025-01-29 12:01:48,0.0
-14624,-1608,-3932,1871,1628,-752,2025-01-29 12:01:48,0.0
-15700,-1504,-4508,2149,986,-265,2025-01-29 12:01:48,0.0
-16436,-1764,-4240,2239,-442,756,2025-01-29 12:01:48,0.0
-16088,-2748,-4672,2378,-2231,1979,2025-01-29 12:01:48,0.0
-15376,-2876,-4120,2713,-3577,3095,2025-01-29 12:01:48,0.0
-14144,-2480,-3680,3196,-4188,4244,2025-01-29 12:01:48,0.0
-13236,-2536,-1908,3903,-3680,5047,2025-01-29 12:01:48,0.0
-11968,-2476,-1072,5199,-2315,5532,2025-01-29 12:01:48,0.0
-11632,-2936,-3012,6120,-1115,5626,2025-01-29 12:01:48,0.0
-11784,-3092,-5892,6813,2092,5312,2025-01-29 12:01:48,0.0
-14468,-1084,-9056,6874,6165,5323,2025-01-29 12:01:48,0.0
-16932,1460,-12040,6062,10783,5847,2025-01-29 12:01:48,0.0
-17608,3272,-13228,3262,14640,5830,2025-01-29 12:01:48,0.0
-14700,3648,-12736,392,14666,4269,2025-01-29 12:01:48,0.0
-11360,2136,-13756,-796,10330,1747,2025-01-29 12:01:48,0.0
-9080,12,-15308,-1097,3141,-951,2025-01-29 12:01:48,0.0
-8404,-2032,-13416,-488,-6088,-2549,2025-01-29 12:01:48,0.0
-8192,-4040,-11584,521,-16582,-3009,2025-01-29 12:01:48,0.0
-7840,-5976,-9148,847,-29081,-3422,2025-01-29 12:01:48,0.0
-8092,-5224,2016,166,-13453,-2399,2025-01-29 12:01:48,0.0
-5280,-5556,-2860,5148,-3484,-788,2025-01-29 12:01:48,0.0
-4712,-2452,-9464,4698,2673,-748,2025-01-29 12:01:48,0.0
-6140,156,-10332,2265,8203,-2085,2025-01-29 12:01:48,0.0
-9000,568,-8876,-355,12049,-4984,2025-01-29 12:01:48,0.0
-12288,-568,-7356,-537,10879,-7000,2025-01-29 12:01:48,0.0
-14916,-1812,-7720,-165,6504,-7459,2025-01-29 12:01:48,0.0
-16464,-3096,-8296,-488,201,-5790,2025-01-29 12:01:48,0.0
-15284,-4040,-7676,-923,-6598,-3422,2025-01-29 12:01:48,0.0
-12556,-3876,-5576,-943,-6628,-2207,2025-01-29 12:01:48,0.0
-9212,-3740,-6264,-1241,-6078,-2498,2025-01-29 12:01:48,0.0
-7488,-3276,-5932,-1307,-4778,-3091,2025-01-29 12:01:48,0.0
-7364,-3204,-5476,-1297,-2099,-3648,2025-01-29 12:01:48,0.0
-7956,-3648,-5200,-1531,1855,-4451,2025-01-29 12:01:48,0.0
-9220,-3652,-4696,-1568,3540,-4946,2025-01-29 12:01:48,0.0
-10820,-3708,-4888,-1623,3910,-5306,2025-01-29 12:01:48,0.0
-12508,-3852,-5288,-1686,3222,-5327,2025-01-29 12:01:48,0.0
-13360,-4024,-5684,-1790,1834,-4576,2025-01-29 12:01:48,
-14176,-4440,-5092,-1941,289,-3341,2025-01-29 12:01:48,0.0
-13080,-4684,-5172,-1892,-1023,-2020,2025-01-29 12:01:48,0.0
-11372,-4736,-5140,-1787,-1561,-1640,2025-01-29 12:01:48,0.0
-10440,-4332,-5156,-1781,-1440,-1579,2025-01-29 12:01:48,0.0
-10192,-3876,-5380,-1939,-737,-1596,2025-01-29 12:01:48,0.0
-10456,-3100,-5396,-2287,414,-1473,2025-01-29 12:01:48,0.0
-10788,-3012,-5364,-2763,1117,-1375,2025-01-29 12:01:48,0.0
-11384,-3052,-5272,-3121,1337,-1307,2025-01-29 12:01:48,0.0
-11076,-3788,-4904,-3210,1283,-1400,2025-01-29 12:01:48,0.0
-11044,-4584,-4400,-2977,1211,-1693,2025-01-29 12:01:48,0.0
-10788,-5396,-4172,-2640,1257,-2039,2025-01-29 12:01:48,0.0
-10864,-5656,-4092,-2374,1754,-2350,2025-01-29 12:01:48,0.0
-11372,-5200,-4096,-2105,2031,-2626,2025-01-29 12:01:48,0.0
-12056,-4888,-4324,-1951,1474,-2660,2025-01-29 12:01:49,0.0
-12328,-4912,-4344,-1986,518,-2581,2025-01-29 12:01:49,0.0
-12356,-4608,-4400,-1976,-229,-2309,2025-01-29 12:01:49,0.0
-12216,-3912,-3920,-2026,-1129,-1656,2025-01-29 12:01:49,0.0
-10976,-3504,-3604,-2265,-1873,-915,2025-01-29 12:01:49,0.0
-8744,-3236,-3856,-2652,-1813,-786,2025-01-29 12:01:49,0.0
-7792,-3116,-3988,-3195,-1173,-1011,2025-01-29 12:01:49,0.0
-7404,-3568,-3716,-3694,323,-1440,2025-01-29 12:01:49,0.0
-7808,-4064,-2680,-3816,1135,-1769,2025-01-29 12:01:49,0.0
-8756,-4720,-892,-3319,363,-2157,2025-01-29 12:01:49,0.0
-9820,-5816,164,-2432,44,-2161,2025-01-29 12:01:49,0.0
-10788,-6568,492,-1005,276,-1401,2025-01-29 12:01:49,0.0
-10932,-6972,-1912,552,-331,-274,2025-01-29 12:01:49,0.0
-12172,-5748,-2452,1475,-1000,864,2025-01-29 12:01:49,0.0
-12704,-3748,-1312,3012,-1891,2940,2025-01-29 12:01:49,0.0
-9828,-3584,-2620,5440,-3501,5762,2025-01-29 12:01:49,0.0
-6136,-4596,-5116,6986,-2557,6810,2025-01-29 12:01:49,0.0
-3120,-4448,-7492,6906,-990,5549,2025-01-29 12:01:49,0.0
-2440,-2424,-7764,5739,1260,2550,2025-01-29 12:01:49,0.0
-3868,-520,-9308,4321,2734,-364,2025-01-29 12:01:49,0.0
-7952,-440,-10568,3256,1770,-2243,2025-01-29 12:01:49,0.0
-14208,216,-11256,2294,-754,-3863,2025-01-29 12:01:49,0.0
-18852,292,-11300,1152,-2034,-4731,2025-01-29 12:01:49,0.0
-20452,-764,-11708,929,-3728,-6731,2025-01-29 12:01:49,0.0
-19424,-1496,-15052,1019,-5970,-10036,2025-01-29 12:01:49,0.0
-17312,-5988,-18272,-865,-15506,-6600,2025-01-29 12:01:49,0.0
-12664,-10596,-15288,-3907,-29102,5130,2025-01-29 12:01:49,0.0
-7888,-11140,-17444,-4288,-19335,6427,2025-01-29 12:01:49,0.0
-3696,-11540,-16856,-6220,-8543,2367,2025-01-29 12:01:49,0.0
-4428,-12472,-9316,-6902,-2485,-5596,2025-01-29 12:01:49,0.0
-18540,-9232,-3488,-7090,1362,-7502,2025-01-29 12:01:49,0.0
-23624,-5128,3068,-6015,162,-2328,2025-01-29 12:01:49,0.0
-11880,-4556,-4376,-1478,286,1288,2025-01-29 12:01:49,0.0
-12228,-6908,-3568,-802,930,1247,2025-01-29 12:01:49,0.0
-12764,-5704,-3852,-169,1920,1694,2025-01-29 12:01:49,0.0
-10212,-3232,-6612,-474,1772,2141,2025-01-29 12:01:49,0.0
-10096,-2292,-5512,-1082,1551,1795,2025-01-29 12:01:49,0.0
-10648,-2956,-5620,-1569,1538,1180,2025-01-29 12:01:49,0.0
-11192,-4352,-5700,-1628,1546,734,2025-01-29 12:01:49,0.0
-11188,-5296,-5876,-1688,1557,554,2025-01-29 12:01:49,0.0
-11192,-5976,-5496,-1373,1642,85,2025-01-29 12:01:49,0.0
-11796,-6024,-4648,-880,1720,-155,2025-01-29 12:01:49,0.0
-11504,-6008,-4816,-603,1632,-173,2025-01-29 12:01:49,0.0
-11508,-5880,-4996,-945,1873,-16,2025-01-29 12:01:49,0.0
-11496,-5312,-4228,-1402,2489,72,2025-01-29 12:01:49,0.0
-11752,-5176,-3692,-1387,3055,244,2025-01-29 12:01:49,0.0
-12160,-5992,-4676,-1415,3064,223,2025-01-29 12:01:49,0.0
-13228,-7804,-4684,-1343,3253,389,2025-01-29 12:01:49,0.0
-13832,-9156,-5624,-1276,3123,1262,2025-01-29 12:01:50,0.0
-13856,-9164,-7636,-1342,2277,1599,2025-01-29 12:01:50,0.0
-12968,-5480,-9292,-2405,1677,1019,2025-01-29 12:01:50,0.0
-12144,-1844,-6052,-3644,556,-153,2025-01-29 12:01:50,0.0
-10480,1796,-2928,-4210,955,-1737,2025-01-29 12:01:50,0.0
-9384,4244,-696,-4602,3334,-3790,2025-01-29 12:01:50,0.0
-8228,-112,-984,-4052,6762,-7233,2025-01-29 12:01:50,0.0
-12656,-5032,-2096,-3165,8639,-9291,2025-01-29 12:01:50,0.0
-16288,-8252,-5804,-2112,8406,-9441,2025-01-29 12:01:50,0.0
-22796,-9320,-7080,-3401,6553,-6068,2025-01-29 12:01:50,0.0
-25076,-7572,-3192,-3061,4216,-2566,2025-01-29 12:01:50,0.0
-21696,-5440,-2580,-2470,2169,593,2025-01-29 12:01:50,0.0
-17580,-3028,-3116,-2491,2015,2290,2025-01-29 12:01:50,0.0
-14264,-2220,-4052,-3108,3011,2748,2025-01-29 12:01:50,0.0
-13236,-2004,-4732,-3906,4833,2374,2025-01-29 12:01:50,0.0
-14480,-2776,-3300,-3901,5933,1266,2025-01-29 12:01:50,0.0
-15228,-3012,-3908,-3156,5134,1043,2025-01-29 12:01:50,0.0
-14860,-2244,-3520,-2077,5180,1612,2025-01-29 12:01:50,0.0
-12608,-2892,-4128,-568,5215,2318,2025-01-29 12:01:50,0.0
-9996,-5784,-5008,898,6224,1935,2025-01-29 12:01:50,0.0
-8820,-8272,-6364,2906,7342,1295,2025-01-29 12:01:50,0.0
-9168,-8892,-9292,4797,7897,672,2025-01-29 12:01:50,0.0
-10272,-6900,-8952,5331,6452,1165,2025-01-29 12:01:50,0.0
-11072,-4400,-9168,5367,3718,2700,2025-01-29 12:01:50,0.0
-11476,-2244,-11660,4268,321,4701,2025-01-29 12:01:50,0.0
-10708,-804,-12844,1573,-3444,6526,2025-01-29 12:01:50,0.0
-8964,-112,-11436,-261,-5128,6704,2025-01-29 12:01:50,0.0
-7080,-260,-10472,-936,-5376,5342,2025-01-29 12:01:50,0.0
-5896,-1140,-9216,-1172,-5149,3593,2025-01-29 12:01:50,0.0
-5688,-1908,-7700,-1134,-3768,1978,2025-01-29 12:01:50,0.0
-6556,-2956,-6996,-886,-1105,1069,2025-01-29 12:01:50,0.0
-7500,-3672,-7208,-774,822,1359,2025-01-29 12:01:50,0.0
-8180,-4320,-7460,-698,2304,1947,2025-01-29 12:01:50,0.0
-9140,-4684,-7144,-376,3308,2542,2025-01-29 12:01:50,0.0
-9856,-4352,-6800,161,3104,3123,2025-01-29 12:01:50,0.0
-10588,-3668,-6400,667,1854,3830,2025-01-29 12:01:50,0.0
-11064,-2856,-6288,1261,147,4668,2025-01-29 12:01:50,0.0
-11020,-1908,-6876,1874,-1594,5407,2025-01-29 12:01:50,0.0
-10564,-1352,-7932,2033,-3089,5845,2025-01-29 12:01:50,
-8832,-1644,-8416,1899,-4336,5526,2025-01-29 12:01:50,0.0
-7872,-2092,-7848,1603,-4994,4619,2025-01-29 12:01:50,0.0
-7472,-1852,-6980,1576,-4486,3765,2025-01-29 12:01:50,0.0
-7644,-1208,-6392,1635,-3195,3409,2025-01-29 12:01:50,0.0
-8204,-368,-7080,1300,-2120,3667,2025-01-29 12:01:50,0.0
-9084,504,-7560,573,-1099,4111,2025-01-29 12:01:50,0.0
-9388,996,-7548,-155,77,4100,2025-01-29 12:01:50,0.0
-9580,1284,-7608,-685,531,3524,2025-01-29 12:01:50,0.0
-9408,708,-7692,-843,21,2267,2025-01-29 12:01:50,0.0
-9288,-584,-7144,-519,-1265,567,2025-01-29 12:01:50,0.0
-10476,-1696,-6444,-60,-1947,-386,2025-01-29 12:01:50,0.0
-11072,-2332,-5740,470,-2125,-384,2025-01-29 12:01:50,0.0
-11632,-2224,-5096,1094,-2022,51,2025-01-29 12:01:50,0.0
-11796,-1736,-5440,1640,-2350,740,2025-01-29 12:01:50,0.0
-11696,-1360,-5312,1481,-2856,1053,2025-01-29 12:01:50,0.0
-12040,-1088,-4616,1432,-3044,1076,2025-01-29 12:01:50,0.0
-11844,-900,-4616,1557,-3506,986,2025-01-29 12:01:50,0.0
-11092,-912,-4964,1916,-3999,878,2025-01-29 12:01:50,0.0
-10632,-880,-5212,2166,-3837,581,2025-01-29 12:01:50,0.0
-10616,-1004,-4304,2322,-2939,-1,2025-01-29 12:01:50,0.0
-11100,-996,-3548,2844,-1862,-37,2025-01-29 12:01:51,0.0
-11476,-1172,-3428,3135,-1232,83,2025-01-29 12:01:51,0.0
-12132,-1280,-2776,3247,-1065,204,2025-01-29 12:01:51,0.0
-11888,-1416,-3180,3391,-1190,84,2025-01-29 12:01:51,0.0
-12108,-960,-3304,3562,-1086,40,2025-01-29 12:01:51,0.0
-12256,-592,-4688,3550,-679,232,2025-01-29 12:01:51,0.0
-12824,-636,-5304,3407,-255,700,2025-01-29 12:01:51,0.0
-13128,-500,-5516,2990,-93,1149,2025-01-29 12:01:51,0.0
-13724,-532,-4896,2503,-323,1449,2025-01-29 12:01:51,0.0
-13904,-528,-4420,2120,-602,1756,2025-01-29 12:01:51,0.0
-14064,-580,-3800,2129,-1222,2300,2025-01-29 12:01:51,0.0
-13352,-832,-3604,2120,-1441,2612,2025-01-29 12:01:51,0.0
-12976,-940,-2788,2407,-1180,2664,2025-01-29 12:01:51,0.0
-13100,-1228,-3272,2736,-260,2895,2025-01-29 12:01:51,0.0
-13024,-2756,-4252,2864,1579,3064,2025-01-29 12:01:51,0.0
-13116,-3012,-4720,3379,3434,2940,2025-01-29 12:01:51,0.0
-13864,-1144,-7432,3217,5071,3018,2025-01-29 12:01:51,0.0
-14580,1028,-10048,2178,5996,4025,2025-01-29 12:01:51,0.0
-14544,3144,-11396,650,6146,5154,2025-01-29 12:01:51,0.0
-13284,3664,-11308,-768,6068,4896,2025-01-29 12:01:51,0.0
-11748,3044,-9968,-1808,4973,2669,2025-01-29 12:01:51,0.0
-11052,772,-8372,-1836,2103,-1368,2025-01-29 12:01:51,0.0
-13176,-1564,-7004,-1098,-851,-3276,2025-01-29 12:01:51,0.0
-13492,-2840,-6092,178,-3368,-2855,2025-01-29 12:01:51,0.0
-11200,-3320,-8084,1144,-4765,-2453,2025-01-29 12:01:51,0.0
-10164,-2988,-9172,1031,-3902,-2357,2025-01-29 12:01:51,0.0
-10000,-2484,-8336,824,-553,-1713,2025-01-29 12:01:51,0.0
-10052,-2260,-6812,1080,2574,-649,2025-01-29 12:01:51,0.0
-10284,-2084,-6560,1329,2906,-426,2025-01-29 12:01:51,0.0
-10536,-2128,-6936,1733,2337,-351,2025-01-29 12:01:51,0.0
-10956,-2292,-7284,2180,1705,-382,2025-01-29 12:01:51,0.0
-11456,-1976,-7728,2112,1224,-409,2025-01-29 12:01:51,0.0
-11680,-1548,-7280,1723,901,-697,2025-01-29 12:01:51,0.0
-11860,-1140,-7020,1768,566,-1230,2025-01-29 12:01:51,0.0
-11712,-1080,-7624,1672,-182,-1762,2025-01-29 12:01:51,0.0
-11560,-1312,-7468,1471,-1252,-2220,2025-01-29 12:01:51,0.0
-11272,-1820,-7276,1252,-2018,-2568,2025-01-29 12:01:51,0.0
-10840,-2736,-6512,901,-2251,-2780,2025-01-29 12:01:51,0.0
-10308,-3440,-5904,787,-1678,-2952,2025-01-29 12:01:51,0.0
-10368,-3632,-5852,914,-801,-2918,2025-01-29 12:01:51,0.0
-10384,-3148,-6184,981,-216,-2579,2025-01-29 12:01:51,0.0
-10288,-2608,-6516,667,30,-2333,2025-01-29 12:01:51,0.0
-10308,-2380,-6392,355,343,-2406,2025-01-29 12:01:51,0.0
-10280,-2016,-6300,94,482,-2820,2025-01-29 12:01:51,0.0
-11100,-1668,-6124,-340,136,-3025,2025-01-29 12:01:51,0.0
-11768,-1680,-6204,-938,-419,-2604,2025-01-29 12:01:51,0.0
-11412,-2192,-6080,-1543,-877,-2026,2025-01-29 12:01:51,0.0
-11180,-2740,-5356,-1838,-948,-1658,2025-01-29 12:01:51,0.0
-11124,-3036,-5356,-1893,-767,-1388,2025-01-29 12:01:51,0.0
-11232,-3024,-5400,-2158,-412,-1241,2025-01-29 12:01:51,0.0
-11552,-3088,-5312,-2395,-229,-1297,2025-01-29 12:01:51,0.0
-12000,-3000,-4904,-2589,-130,-1153,2025-01-29 12:01:51,0.0
-12428,-2600,-4640,-2916,-290,-877,2025-01-29 12:01:51,0.0
-12360,-1992,-4580,-3233,-929,-894,2025-01-29 12:01:51,0.0
-12536,-1444,-5064,-3972,-1461,-1018,2025-01-29 12:01:51,0.0
-12332,-1148,-5392,-4938,-1997,-1483,2025-01-29 12:01:51,0.0
-12476,-1188,-5600,-5526,-2252,-1838,2025-01-29 12:01:51,0.0
-12436,-1364,-5008,-6126,-2495,-2406,2025-01-29 12:01:51,0.0
-12456,-1472,-4568,-6216,-3282,-2940,2025-01-29 12:01:51,0.0
-11760,-2788,-4624,-6044,-4416,-3436,2025-01-29 12:01:51,0.0
-11244,-4332,-3928,-6089,-3812,-4170,2025-01-29 12:01:51,0.0
-11412,-4756,-3224,-6007,-1854,-5073,2025-01-29 12:01:52,0.0
-11936,-4240,-3640,-6267,-942,-6139,2025-01-29 12:01:52,0.0
-13160,-2432,-4956,-6904,-1146,-7284,2025-01-29 12:01:52,0.0
-14152,-168,-6964,-7574,-2239,-8221,2025-01-29 12:01:52,0.0
-15288,300,-8884,-8097,-3363,-7927,2025-01-29 12:01:52,0.0
-14784,-2252,-9532,-8857,-4517,-6262,2025-01-29 12:01:52,0.0
-13156,-5456,-8032,-8750,-3449,-5062,2025-01-29 12:01:52,0.0
-12068,-7112,-8900,-7850,-1750,-5130,2025-01-29 12:01:52,0.0
-12092,-7764,-9124,-6881,-301,-5382,2025-01-29 12:01:52,0.0
-13392,-6652,-8252,-6164,445,-4839,2025-01-29 12:01:52,0.0
-13844,-4772,-7348,-5972,-406,-3647,2025-01-29 12:01:52,0.0
-13700,-3172,-8256,-6123,-2440,-1991,2025-01-29 12:01:52,0.0
-11764,-1500,-8848,-6665,-3971,-618,2025-01-29 12:01:52,0.0
-9860,132,-9380,-7651,-4102,667,2025-01-29 12:01:52,0.0
-7884,1296,-9012,-9357,-2909,905,2025-01-29 12:01:52,0.0
-6308,1312,-7416,-10219,-1441,-210,2025-01-29 12:01:52,0.0
-5684,204,-6764,-9830,618,-2407,2025-01-29 12:01:52,0.0
-7676,-1104,-7032,-9667,3646,-4548,2025-01-29 12:01:52,0.0
-10104,-1868,-6812,-9705,5705,-5021,2025-01-29 12:01:52,
-12620,-2308,-6088,-9003,6881,-5058,2025-01-29 12:01:52,0.0
-15056,-2168,-6908,-8708,6545,-4429,2025-01-29 12:01:52,0.0
-16768,-1412,-7116,-9155,4848,-3145,2025-01-29 12:01:52,0.0
-16564,-952,-7164,-9337,830,-1544,2025-01-29 12:01:52,0.0
-14996,-1032,-7928,-9364,-3663,-642,2025-01-29 12:01:52,0.0
-13500,-996,-8004,-9787,-7952,-250,2025-01-29 12:01:52,0.0
-12036,-1288,-5188,-10267,-6729,-160,2025-01-29 12:01:52,0.0
-9152,-1680,-3984,-9921,-5270,-502,2025-01-29 12:01:52,0.0
-7992,-1408,-3640,-9218,-3426,-1327,2025-01-29 12:01:52,0.0
-7872,-920,-3624,-8630,-874,-2217,2025-01-29 12:01:52,0.0
-8208,-636,-3772,-8169,1667,-3346,2025-01-29 12:01:52,0.0
-9616,-552,-3752,-7567,3104,-4373,2025-01-29 12:01:52,0.0
-11192,-724,-3832,-7120,3102,-4805,2025-01-29 12:01:52,0.0
-12284,-648,-4056,-6575,2275,-5115,2025-01-29 12:01:52,0.0
-13184,-340,-4496,-6388,541,-5480,2025-01-29 12:01:52,0.0
-13596,-308,-4220,-6554,-1203,-5623,2025-01-29 12:01:52,0.0
-13324,-332,-4032,-6715,-2634,-5673,2025-01-29 12:01:52,0.0
-12824,-60,-4124,-6947,-3809,-5669,2025-01-29 12:01:52,0.0
-12524,420,-4216,-7085,-4101,-5571,2025-01-29 12:01:52,0.0
-11896,648,-5356,-7388,-3967,-5790,2025-01-29 12:01:52,0.0
-11628,844,-5748,-8446,-4064,-6270,2025-01-29 12:01:52,0.0
-11704,-56,-4556,-8945,-4045,-6173,2025-01-29 12:01:52,0.0
-11012,-1496,-3912,-8774,-3536,-5878,2025-01-29 12:01:52,0.0
-10504,-3044,-3176,-8129,-1968,-5549,2025-01-29 12:01:52,0.0
-11000,-4892,-3604,-6841,1028,-4827,2025-01-29 12:01:52,0.0
-12848,-5672,-6716,-5474,5174,-3524,2025-01-29 12:01:52,0.0
-15428,-4528,-9868,-4833,8727,-1706,2025-01-29 12:01:52,0.0
-17876,-1520,-10424,-5409,9303,550,2025-01-29 12:01:52,0.0
-16656,2172,-9464,-7033,5223,2588,2025-01-29 12:01:52,0.0
-12692,4288,-9736,-8017,-1327,1601,2025-01-29 12:01:52,0.0
-9384,4428,-11848,-8223,-6977,-1390,2025-01-29 12:01:52,0.0
-9284,3120,-12196,-9197,-7650,-5503,2025-01-29 12:01:52,0.0
-9080,1144,-10284,-9947,-3200,-7425,2025-01-29 12:01:52,0.0
-9032,-1280,-9092,-10668,-1993,-7882,2025-01-29 12:01:52,0.0
-9476,-2976,-8048,-10969,-1039,-7434,2025-01-29 12:01:52,0.0
-9816,-4124,-7416,-10820,282,-6730,2025-01-29 12:01:52,0.0
-10216,-4156,-7524,-10875,1167,-6369,2025-01-29 12:01:52,0.0
-10100,-3696,-7600,-11208,1356,-6949,2025-01-29 12:01:52,0.0
-10984,-3300,-6792,-11274,1432,-7907,2025-01-29 12:01:52,0.0
-12536,-3056,-8060,-11206,-481,-9032,2025-01-29 12:01:52,0.0
-12792,-2724,-9216,-11709,-1960,-8648,2025-01-29 12:01:52,0.0
-12052,-2652,-8720,-12477,-2750,-7984,2025-01-29 12:01:53,0.0
-10996,-2744,-6972,-12833,-2911,-7785,2025-01-29 12:01:53,0.0
-10528,-3176,-6688,-13088,-2710,-7669,2025-01-29 12:01:53,0.0
-9792,-3748,-6696,-13308,-2478,-7683,2025-01-29 12:01:53,0.0
-9124,-3840,-7376,-13360,-1713,-7802,2025-01-29 12:01:53,0.0
-9028,-3716,-8000,-13454,-506,-8057,2025-01-29 12:01:53,0.0
-9192,-3340,-8176,-13637,643,-8362,2025-01-29 12:01:53,0.0
-9504,-2880,-8388,-13960,1208,-8754,2025-01-29 12:01:53,0.0
-10620,-2708,-8004,-14419,1014,-9347,2025-01-29 12:01:53,0.0
-11552,-2960,-7648,-14887,183,-9728,2025-01-29 12:01:53,0.0
-11892,-3260,-7896,-15129,-1262,-9738,2025-01-29 12:01:53,0.0
-11460,-3768,-8320,-15372,-2554,-9465,2025-01-29 12:01:53,0.0
-10980,-3832,-8336,-15620,-2858,-9005,2025-01-29 12:01:53,0.0
-9936,-3784,-8360,-15988,-2445,-8733,2025-01-29 12:01:53,0.0
-9192,-3856,-7584,-16281,-1721,-9059,2025-01-29 12:01:53,0.0
-9076,-4116,-7872,-16405,-962,-9328,2025-01-29 12:01:53,0.0
-9652,-3952,-7480,-16391,-612,-9273,2025-01-29 12:01:53,0.0
-9600,-3560,-7768,-16311,-185,-9122,2025-01-29 12:01:53,0.0
-9336,-3688,-8508,-16435,49,-9155,2025-01-29 12:01:53,0.0
-9280,-4140,-8616,-16541,345,-9570,2025-01-29 12:01:53,0.0
-9648,-5112,-7976,-16535,624,-10379,2025-01-29 12:01:53,0.0
-10860,-5984,-7408,-16201,951,-10907,2025-01-29 12:01:53,0.0
-12012,-5984,-7104,-15961,596,-10709,2025-01-29 12:01:53,0.0
-12080,-5760,-8044,-15846,-603,-10175,2025-01-29 12:01:53,0.0
-11832,-4996,-8284,-15963,-1694,-9744,2025-01-29 12:01:53,0.0
-11008,-4264,-7932,-16466,-2404,-9393,2025-01-29 12:01:53,0.0
-10200,-4296,-7320,-16678,-3264,-9374,2025-01-29 12:01:53,0.0
-10076,-4952,-6700,-16737,-3571,-9126,2025-01-29 12:01:53,0.0
-10040,-5760,-6004,-16688,-3270,-8662,2025-01-29 12:01:53,0.0
-10236,-6296,-5912,-16537,-2978,-8256,2025-01-29 12:01:53,0.0
-10248,-6432,-6940,-16336,-3230,-7862,2025-01-29 12:01:53,0.0
-10308,-6492,-7972,-16416,-3581,-7589,2025-01-29 12:01:53,0.0
-10564,-5732,-9108,-15889,-3674,-7154,2025-01-29 12:01:53,0.0
-9420,-5164,-11228,-14334,-4082,-6978,2025-01-29 12:01:53,0.0
-7972,-5136,-10808,-13313,-5440,-7477,2025-01-29 12:01:53,0.0
-7664,-5540,-7948,-12431,-6140,-7835,2025-01-29 12:01:53,0.0
-7268,-4084,-6648,-11279,-5395,-7724,2025-01-29 12:01:53,0.0
-7480,-1956,-7800,-11251,-3070,-7478,2025-01-29 12:01:53,0.0
-7848,64,-9296,-12527,285,-7317,2025-01-29 12:01:53,0.0
-8276,1492,-9468,-13828,3312,-7457,2025-01-29 12:01:53,0.0
-9584,1872,-9552,-14775,5235,-8300,2025-01-29 12:01:53,0.0
-14096,-52,-8872,-15996,5085,-8973,2025-01-29 12:01:53,0.0
-14928,-1704,-8860,-16277,2496,-8573,2025-01-29 12:01:53,0.0
-14132,-2956,-7856,-16085,-1040,-8527,2025-01-29 12:01:53,0.0
-13140,-3352,-7496,-15398,-4050,-8308,2025-01-29 12:01:53,0.0
-11408,-3124,-7264,-14606,-5151,-7787,2025-01-29 12:01:53,0.0
-9856,-2388,-7252,-14263,-3654,-7687,2025-01-29 12:01:53,0.0
-9172,-1864,-7808,-14648,-1219,-7895,2025-01-29 12:01:53,0.0
-9768,-1084,-7404,-14895,-327,-7841,2025-01-29 12:01:53,0.0
-10816,-320,-7472,-14806,-269,-7137,2025-01-29 12:01:53,0.0
-10900,-148,-7564,-14736,-731,-6428,2025-01-29 12:01:53,0.0
-10204,-400,-7136,-14313,-849,-5772,2025-01-29 12:01:53,0.0
-8652,-2312,-6484,-13638,-286,-6115,2025-01-29 12:01:53,0.0
-8308,-3548,-6248,-12427,1125,-6767,2025-01-29 12:01:53,0.0
-8312,-4364,-6632,-11295,2444,-7605,2025-01-29 12:01:53,0.0
-8648,-4212,-7420,-10528,3179,-8347,2025-01-29 12:01:53,0.0
-8996,-3384,-8148,-10075,3385,-8735,2025-01-29 12:01:53,0.0
-9632,-2144,-8820,-9461,3253,-8900,2025-01-29 12:01:54,0.0
-10012,-448,-9864,-9308,3293,-9117,2025-01-29 12:01:54,
-10276,724,-11160,-9856,2830,-9477,2025-01-29 12:01:54,0.0
-10516,1040,-11352,-10883,1954,-9499,2025-01-29 12:01:54,0.0
-10420,208,-9548,-11591,1031,-9388,2025-01-29 12:01:54,0.0
-9756,-1304,-8988,-11736,312,-8638,2025-01-29 12:01:54,0.0
-8876,-2896,-8436,-11622,292,-7890,2025-01-29 12:01:54,0.0
-7656,-5028,-7900,-11027,1136,-7483,2025-01-29 12:01:54,0.0
-7172,-6324,-6992,-10044,1807,-7712,2025-01-29 12:01:54,0.0
-7748,-5768,-6812,-9000,2602,-7825,2025-01-29 12:01:54,0.0
-8780,-4180,-6528,-8243,3042,-7712,2025-01-29 12:01:54,0.0
-9804,-1908,-6700,-7958,2704,-6810,2025-01-29 12:01:54,0.0
-10172,-988,-6224,-7672,2471,-5645,2025-01-29 12:01:54,0.0
-9872,-1108,-6460,-6857,3132,-4565,2025-01-29 12:01:54,0.0
-9288,-1172,-7392,-6591,4713,-3454,2025-01-29 12:01:54,0.0
-8920,-1340,-7844,-6582,4533,-2689,2025-01-29 12:01:54,0.0
-8752,-1620,-7872,-6377,4312,-2000,2025-01-29 12:01:54,0.0
-9096,-2048,-8100,-6160,3881,-1524,2025-01-29 12:01:54,0.0
-11528,-3344,-9476,-6861,5264,110,2025-01-29 12:01:54,0.0
-13016,-3280,-7792,-7056,8085,2515,2025-01-29 12:01:54,0.0
-11672,-2896,-6756,-6677,8033,3150,2025-01-29 12:01:54,0.0
-8528,-948,-5292,-5437,3470,1970,2025-01-29 12:01:54,0.0
-7016,-908,-7948,-4327,1125,40,2025-01-29 12:01:54,0.0
-6380,-628,-9348,-3310,1687,-1218,2025-01-29 12:01:54,0.0
-5880,-796,-11052,-3196,4986,-1945,2025-01-29 12:01:54,0.0
-5812,-488,-11976,-3211,6048,-2383,2025-01-29 12:01:54,0.0
-9588,-824,-13860,-4107,5356,-2429,2025-01-29 12:01:54,0.0
-12824,-3512,-11332,-4572,5207,-3349,2025-01-29 12:01:54,0.0
-7840,-1032,-15344,-3837,1752,-3718,2025-01-29 12:01:54,0.0
-8016,-1212,-14376,-4041,285,-3312,2025-01-29 12:01:54,0.0
-7960,-1296,-13852,-4449,-270,-3146,2025-01-29 12:01:54,0.0
-7132,-236,-13240,-4062,-1738,-4239,2025-01-29 12:01:54,0.0
-7280,708,-13108,-4542,-2785,-5052,2025-01-29 12:01:54,0.0
-7976,1056,-12492,-4683,-3823,-5314,2025-01-29 12:01:54,0.0
-9100,668,-12348,-5294,-4682,-5249,2025-01-29 12:01:54,0.0
-9836,460,-10984,-6482,-6301,-5055,2025-01-29 12:01:54,0.0
-8960,628,-9464,-6398,-8191,-5216,2025-01-29 12:01:54,0.0
-9140,2236,-7580,-6444,-9929,-5507,2025-01-29 12:01:54,0.0
-10708,1488,-6288,-6738,-10251,-4034,2025-01-29 12:01:54,0.0
-11152,-1304,-5668,-6193,-9244,-2568,2025-01-29 12:01:54,0.0
-11396,-1008,-6104,-5227,-10347,-1789,2025-01-29 12:01:54,0.0
-11216,-744,-5180,-4130,-13576,-1808,2025-01-29 12:01:54,0.0
-11756,-1720,-5088,-3090,-15487,-1387,2025-01-29 12:01:54,0.0
-12084,-2156,-5824,-2244,-15303,-768,2025-01-29 12:01:54,0.0
-11772,-916,-5844,-1776,-13638,-434,2025-01-29 12:01:54,0.0
-11784,-468,-6524,-1177,-11787,-495,2025-01-29 12:01:54,0.0
-11740,248,-7640,-808,-12071,-351,2025-01-29 12:01:54,0.0
-12208,1772,-7840,-519,-13555,-534,2025-01-29 12:01:54,0.0
-14472,2784,-6560,-520,-14983,-786,2025-01-29 12:01:54,0.0
-16248,2732,-5508,-584,-16014,-38,2025-01-29 12:01:54,0.0
-18252,2504,-4492,-450,-16201,-146,2025-01-29 12:01:54,0.0
-19196,1104,-3640,97,-15766,510,2025-01-29 12:01:54,0.0
-17684,1392,-3388,465,-15122,672,2025-01-29 12:01:54,0.0
-16828,2024,-3164,902,-14096,504,2025-01-29 12:01:54,0.0
-15016,2144,-2516,1404,-12808,-61,2025-01-29 12:01:54,0.0
-14524,1768,-2408,1853,-11882,-961,2025-01-29 12:01:54,0.0
-15812,892,-2584,2111,-9646,-1142,2025-01-29 12:01:54,0.0
-16724,496,-3172,1921,-9044,-543,2025-01-29 12:01:54,0.0
-16584,1216,-3200,2031,-10225,79,2025-01-29 12:01:54,0.0
-15500,2112,-3488,1688,-12315,459,2025-01-29 12:01:54,0.0
-14480,2624,-1672,1093,-14113,338,2025-01-29 12:01:54,0.0
-12856,2256,-336,1006,-13735,356,2025-01-29 12:01:54,0.0
-12284,820,1468,550,-10495,486,2025-01-29 12:01:54,0.0
-12748,60,3100,574,-8006,898,2025-01-29 12:01:54,0.0
-12508,464,3312,629,-6899,665,2025-01-29 12:01:54,0.0
-13296,1384,3392,937,-6689,-260,2025-01-29 12:01:55,0.0
-12888,1152,1744,787,-7375,-1196,2025-01-29 12:01:55,0.0
-13084,1188,1896,306,-8297,-1904,2025-01-29 12:01:55,0.0
-13748,660,4236,277,-8403,-1982,2025-01-29 12:01:55,0.0
-12668,236,5352,417,-7605,-1452,2025-01-29 12:01:55,0.0
-12500,-632,6512,983,-5248,-1051,2025-01-29 12:01:55,0.0
-11420,-1244,4528,1869,-1394,-1729,2025-01-29 12:01:55,0.0
-14516,-1060,3156,1953,-291,-1928,2025-01-29 12:01:55,0.0
-17452,720,2856,2063,-1104,-1025,2025-01-29 12:01:55,0.0
-17224,1372,2452,1727,-5757,-85,2025-01-29 12:01:55,0.0
-15984,1016,2668,698,-8045,608,2025-01-29 12:01:55,0.0
-14836,716,4688,-8,-7456,1109,2025-01-29 12:01:55,0.0
-13200,320,5952,199,-6144,803,2025-01-29 12:01:55,0.0
-12628,-236,5692,163,-5443,243,2025-01-29 12:01:55,0.0
-12992,-308,5620,-134,-4314,-100,2025-01-29 12:01:55,0.0
-12584,8,5392,-432,-2646,-33,2025-01-29 12:01:55,0.0
-13616,100,5292,-565,-1923,273,2025-01-29 12:01:55,0.0
-13404,-156,4848,-232,-3415,410,2025-01-29 12:01:55,0.0
-13496,28,5244,172,-5325,521,2025-01-29 12:01:55,0.0
-13456,480,5756,426,-6397,677,2025-01-29 12:01:55,0.0
-13240,776,5952,378,-6146,916,2025-01-29 12:01:55,0.0
-12856,844,6032,15,-5139,1279,2025-01-29 12:01:55,0.0
-12516,1084,6028,-280,-3632,1395,2025-01-29 12:01:55,0.0
-12296,1692,5740,-313,-2833,1152,2025-01-29 12:01:55,0.0
-12336,2356,5128,-398,-3034,728,2025-01-29 12:01:55,0.0
-12876,2772,5176,-509,-3300,464,2025-01-29 12:01:55,0.0
-13240,2556,5476,-705,-3316,382,2025-01-29 12:01:55,0.0
-13208,2048,5888,-821,-3284,273,2025-01-29 12:01:55,0.0
-13576,1864,6296,-832,-2887,278,2025-01-29 12:01:55,0.0
-13512,1896,6916,-712,-2728,299,2025-01-29 12:01:55,0.0
-13196,1684,6584,-617,-2359,196,2025-01-29 12:01:55,0.0
-12932,1512,6696,-662,-1789,-31,2025-01-29 12:01:55,0.0
-12664,1236,6448,-582,-1234,-151,2025-01-29 12:01:55,0.0
-12548,1056,6476,-519,-470,-226,2025-01-29 12:01:55,0.0
-12780,1036,6852,-373,-200,-324,2025-01-29 12:01:55,0.0
-13188,1288,7048,-277,-171,-378,2025-01-29 12:01:55,0.0
-13204,1536,7652,-201,38,-397,2025-01-29 12:01:55,
-13428,1584,7448,-227,429,-399,2025-01-29 12:01:55,0.0
-13480,1800,6636,-436,414,-293,2025-01-29 12:01:55,0.0
-13256,1468,6388,-730,-118,-199,2025-01-29 12:01:55,0.0
-12928,1132,6288,-1004,-758,-278,2025-01-29 12:01:55,0.0
-12808,644,6324,-1221,-1402,-308,2025-01-29 12:01:55,0.0
-12188,420,6620,-1488,-1974,-414,2025-01-29 12:01:55,0.0
-11632,112,6936,-1721,-1951,-670,2025-01-29 12:01:55,0.0
-11632,64,7424,-1763,-1124,-883,2025-01-29 12:01:55,0.0
-12052,184,7816,-1688,-509,-896,2025-01-29 12:01:55,0.0
-12624,160,8140,-1586,-103,-812,2025-01-29 12:01:55,0.0
-12908,360,8140,-1440,189,-778,2025-01-29 12:01:55,0.0
-13120,424,7664,-1394,399,-871,2025-01-29 12:01:55,0.0
-13280,624,7276,-1342,361,-1001,2025-01-29 12:01:55,0.0
-13356,688,7196,-1319,34,-1127,2025-01-29 12:01:55,0.0
-13228,628,7140,-1403,-332,-1085,2025-01-29 12:01:55,0.0
-13252,716,7116,-1403,-411,-975,2025-01-29 12:01:55,0.0
-13036,948,7024,-1382,-317,-660,2025-01-29 12:01:55,0.0
-12960,508,6736,-1192,42,-529,2025-01-29 12:01:55,0.0
-12880,112,6296,-1148,-144,-469,2025-01-29 12:01:55,0.0
-12872,20,6768,-1207,-706,-493,2025-01-29 12:01:55,0.0
-13236,-416,7468,-1089,-840,-563,2025-01-29 12:01:55,0.0
-13264,-500,7880,-848,-707,-415,2025-01-29 12:01:55,0.0
-12992,-188,7728,-745,-300,-312,2025-01-29 12:01:55,0.0
-12660,-324,7396,-677,-48,-352,2025-01-29 12:01:56,0.0
-12880,-440,7132,-683,-5,-342,2025-01-29 12:01:56,0.0
-13020,-468,7008,-783,-83,-273,2025-01-29 12:01:56,0.0
-12968,-348,7316,-836,-329,-270,2025-01-29 12:01:56,0.0
-12832,-164,7380,-810,-585,-170,2025-01-29 12:01:56,0.0
-12592,144,7816,-833,-603,-46,2025-01-29 12:01:56,0.0
-12532,60,7908,-881,-258,52,2025-01-29 12:01:56,0.0
-12712,64,7812,-883,248,110,2025-01-29 12:01:56,0.0
-12880,16,7732,-876,424,186,2025-01-29 12:01:56,0.0
-13056,32,7728,-818,355,234,2025-01-29 12:01:56,0.0
-12856,196,7752,-730,162,211,2025-01-29 12:01:56,0.0
-12684,300,7600,-697,199,84,2025-01-29 12:01:56,0.0
-12660,364,7620,-657,300,-12,2025-01-29 12:01:56,0.0
-12760,204,7548,-652,372,35,2025-01-29 12:01:56,0.0
-12732,252,7296,-643,438,118,2025-01-29 12:01:56,0.0
-12824,216,7224,-621,536,170,2025-01-29 12:01:56,0.0
-13008,216,7160,-635,670,150,2025-01-29 12:01:56,0.0
-13044,252,6916,-622,651,162,2025-01-29 12:01:56,0.0
-13184,208,7032,-601,477,96,2025-01-29 12:01:56,0.0
-13108,232,7272,-546,255,63,2025-01-29 12:01:56,0.0
-13040,204,7200,-482,118,11,2025-01-29 12:01:56,0.0
-12816,128,7432,-403,91,28,2025-01-29 12:01:56,0.0
-12740,44,7308,-325,117,-31,2025-01-29 12:01:56,0.0
-12832,80,7448,-295,108,-48,2025-01-29 12:01:56,0.0
-12996,304,7516,-317,89,-152,2025-01-29 12:01:56,0.0
-13184,148,7328,-340,23,-161,2025-01-29 12:01:56,0.0
-12816,324,7436,-320,-2,-263,2025-01-29 12:01:56,0.0
-12848,212,7600,-293,26,-250,2025-01-29 12:01:56,0.0
-12728,80,7668,-261,96,-228,2025-01-29 12:01:56,0.0
-12720,64,7612,-235,212,-213,2025-01-29 12:01:56,0.0
-12904,152,7512,-170,318,-253,2025-01-29 12:01:56,0.0
-12652,104,7400,-125,219,-307,2025-01-29 12:01:56,0.0
-12804,144,7448,-76,206,-405,2025-01-29 12:01:56,0.0
-13008,208,7384,12,117,-393,2025-01-29 12:01:56,0.0
-12900,184,7548,9,-9,-383,2025-01-29 12:01:56,0.0
-12872,160,7572,12,26,-332,2025-01-29 12:01:56,0.0
-12656,284,7692,27,155,-354,2025-01-29 12:01:56,0.0
-12772,200,7568,59,274,-365,2025-01-29 12:01:56,0.0
-12868,72,7408,66,351,-363,2025-01-29 12:01:56,0.0
-12920,112,7388,30,336,-286,2025-01-29 12:01:56,0.0
-13060,124,7408,5,194,-223,2025-01-29 12:01:56,0.0
-12884,184,7296,27,104,-198,2025-01-29 12:01:56,0.0
-12796,256,7488,57,26,-184,2025-01-29 12:01:56,0.0
-12980,160,7532,64,52,-202,2025-01-29 12:01:56,0.0
-12800,108,7564,68,98,-200,2025-01-29 12:01:56,0.0
-12732,248,7396,85,136,-229,2025-01-29 12:01:56,0.0
-12964,368,7328,53,202,-220,2025-01-29 12:01:56,0.0
-12972,360,7348,36,247,-207,2025-01-29 12:01:56,0.0
-12920,260,7380,42,148,-218,2025-01-29 12:01:56,0.0
-12756,280,7296,37,63,-211,2025-01-29 12:01:56,0.0
-12820,160,7408,46,50,-251,2025-01-29 12:01:56,0.0
-12716,208,7476,18,80,-272,2025-01-29 12:01:56,0.0
-12668,252,7572,-6,114,-252,2025-01-29 12:01:56,0.0
-12748,264,7520,-11,162,-291,2025-01-29 12:01:56,0.0
-12884,272,7496,-11,191,-276,2025-01-29 12:01:56,0.0
-12940,204,7448,-32,198,-299,2025-01-29 12:01:56,0.0
-12848,136,7480,-8,162,-326,2025-01-29 12:01:56,0.0
-12836,176,7332,-30,136,-352,2025-01-29 12:01:56,0.0
-12868,192,7424,-1,133,-351,2025-01-29 12:01:56,0.0
-12764,236,7488,-15,131,-319,2025-01-29 12:01:56,0.0
-12716,388,7384,-89,183,-242,2025-01-29 12:01:57,0.0
-12816,344,7500,-123,252,-246,2025-01-29 12:01:57,0.0
-12928,328,7416,-99,315,-285,2025-01-29 12:01:57,0.0
-12888,356,7380,-122,295,-296,2025-01-29 12:01:57,0.0
-12936,156,7348,-84,201,-255,2025-01-29 12:01:57,0.0
-12876,84,7364,-118,179,-209,2025-01-29 12:01:57,0.0
-12872,220,7284,-130,248,-242,2025-01-29 12:01:57,0.0
-12916,180,7480,-151,307,-266,2025-01-29 12:01:57,0.0
-12948,148,7180,-139,162,-235,2025-01-29 12:01:57,0.0
-12856,120,7132,-130,70,-215,2025-01-29 12:01:57,0.0
-12864,224,7336,-169,-24,-241,2025-01-29 12:01:57,0.0
-12804,200,7352,-194,-104,-226,2025-01-29 12:01:57,0.0
-12848,200,7484,-204,-13,-223,2025-01-29 12:01:57,0.0
-12820,248,7656,-200,78,-260,2025-01-29 12:01:57,0.0
-12932,156,7508,-183,138,-218,2025-01-29 12:01:57,0.0
-13004,16,7424,-230,124,-175,2025-01-29 12:01:57,0.0
-12888,116,7416,-269,76,-168,2025-01-29 12:01:57,
-12836,164,7356,-264,40,-221,2025-01-29 12:01:57,0.0
-12724,12,7372,-234,56,-224,2025-01-29 12:01:57,0.0
-12808,92,7532,-228,76,-212,2025-01-29 12:01:57,0.0
-12808,128,7368,-237,99,-210,2025-01-29 12:01:57,0.0
-12952,44,7464,-238,132,-141,2025-01-29 12:01:57,0.0
-12904,108,7544,-312,157,-72,2025-01-29 12:01:57,0.0
-12900,164,7500,-268,181,-91,2025-01-29 12:01:57,0.0
-12844,100,7612,-284,178,-127,2025-01-29 12:01:57,0.0
-12824,164,7528,-256,133,-156,2025-01-29 12:01:57,0.0
-12696,192,7428,-257,98,-206,2025-01-29 12:01:57,0.0
-12736,160,7512,-261,69,-229,2025-01-29 12:01:57,0.0
-12888,208,7592,-268,133,-214,2025-01-29 12:01:57,0.0
-12904,148,7608,-256,147,-176,2025-01-29 12:01:57,0.0
-12844,184,7584,-245,158,-180,2025-01-29 12:01:57,0.0
-12920,168,7540,-234,184,-158,2025-01-29 12:01:57,0.0
-12872,264,7328,-250,194,-166,2025-01-29 12:01:57,0.0
-12724,208,7516,-230,164,-181,2025-01-29 12:01:57,0.0
-12752,148,7516,-241,141,-216,2025-01-29 12:01:57,0.0
-12796,232,7484,-252,120,-298,2025-01-29 12:01:57,0.0
-12940,76,7556,-256,179,-304,2025-01-29 12:01:57,0.0
-13044,-160,7652,-385,362,-243,2025-01-29 12:01:57,0.0
-13036,-56,7848,-424,891,-304,2025-01-29 12:01:57,0.0
-13448,-36,7664,-325,1960,-455,2025-01-29 12:01:57,0.0
-14300,220,6356,154,3236,-580,2025-01-29 12:01:57,0.0
-12048,184,3992,1172,319,-1274,2025-01-29 12:01:57,0.0
-13540,-128,4096,1610,-1903,-1435,2025-01-29 12:01:57,0.0
-13856,-68,6424,1425,-3081,-918,2025-01-29 12:01:57,0.0
-13196,48,7840,696,-3812,-755,2025-01-29 12:01:57,0.0
-12680,-128,8900,88,-3861,-645,2025-01-29 12:01:57,0.0
-12248,-492,9148,40,-3056,-490,2025-01-29 12:01:57,0.0
-11712,-504,9380,421,-1799,-443,2025-01-29 12:01:57,0.0
-11448,-452,9296,772,-513,-644,2025-01-29 12:01:57,0.0
-11588,4,9508,929,267,-630,2025-01-29 12:01:57,0.0
-11740,184,9256,879,932,-694,2025-01-29 12:01:57,0.0
-12172,312,9120,711,1374,-605,2025-01-29 12:01:57,0.0
-12336,268,8676,492,1438,-356,2025-01-29 12:01:57,0.0
-12356,72,8436,243,1352,-246,2025-01-29 12:01:57,0.0
-12364,192,7912,158,1368,-284,2025-01-29 12:01:57,0.0
-12620,116,7772,122,1545,-193,2025-01-29 12:01:57,0.0
-12460,92,7560,143,1483,-193,2025-01-29 12:01:58,0.0
-12460,16,7472,90,1333,-161,2025-01-29 12:01:58,0.0
-12172,-156,7480,144,1284,-144,2025-01-29 12:01:58,0.0
-12340,-136,7200,168,1467,-87,2025-01-29 12:01:58,0.0
-12352,-36,6504,100,1557,2,2025-01-29 12:01:58,0.0
-12772,248,6208,-2,1600,-86,2025-01-29 12:01:58,0.0
-13600,460,6128,-151,1524,-163,2025-01-29 12:01:58,0.0
-14472,348,6104,-189,804,-71,2025-01-29 12:01:58,0.0
-14500,112,5688,-337,-517,64,2025-01-29 12:01:58,0.0
-14084,-256,6828,-617,-3821,184,2025-01-29 12:01:58,0.0
-12852,-620,8360,-697,-5349,549,2025-01-29 12:01:58,0.0
-12236,-852,9460,-591,-5255,656,2025-01-29 12:01:58,0.0
-11632,-632,9964,-405,-3582,522,2025-01-29 12:01:58,0.0
-11808,-376,9832,-302,-791,303,2025-01-29 12:01:58,0.0
-11732,64,9388,-388,1403,234,2025-01-29 12:01:58,0.0
-11936,164,8636,-295,1926,166,2025-01-29 12:01:58,0.0
-12416,164,7872,-331,2143,305,2025-01-29 12:01:58,0.0
-12676,180,7620,-475,2201,396,2025-01-29 12:01:58,0.0
-12616,568,7848,-600,2112,527,2025-01-29 12:01:58,0.0
-12512,836,7888,-710,2518,795,2025-01-29 12:01:58,0.0
-12340,1048,8280,-863,3007,864,2025-01-29 12:01:58,0.0
-12448,1236,8468,-873,3835,929,2025-01-29 12:01:58,0.0
-12508,1244,8376,-800,5059,932,2025-01-29 12:01:58,0.0
-12644,1064,7732,-563,6276,801,2025-01-29 12:01:58,0.0
-13044,832,7112,-410,6997,701,2025-01-29 12:01:58,0.0
-13924,744,5900,-358,7117,903,2025-01-29 12:01:58,0.0
-14288,552,5780,-311,6273,1317,2025-01-29 12:01:58,0.0
-14380,248,6292,-290,5310,1790,2025-01-29 12:01:58,0.0
-14356,-176,7084,-294,4810,2066,2025-01-29 12:01:58,0.0
-13540,-972,7324,-218,4836,1959,2025-01-29 12:01:58,0.0
-12744,-1604,7720,-123,5414,1718,2025-01-29 12:01:58,0.0
-12424,-28,7816,918,9801,702,2025-01-29 12:01:58,0.0
-12732,944,5972,988,11853,-150,2025-01-29 12:01:58,0.0
-13888,1916,4892,439,11817,-640,2025-01-29 12:01:58,0.0
-14148,1576,5064,-206,10907,-949,2025-01-29 12:01:58,0.0
-14240,1284,5276,-740,9969,-1032,2025-01-29 12:01:58,0.0
-14064,1124,5284,-1143,9922,-896,2025-01-29 12:01:58,0.0
-14060,828,4764,-1201,9970,-1059,2025-01-29 12:01:58,0.0
-14092,116,5016,-994,10144,-1197,2025-01-29 12:01:58,0.0
-13324,240,3768,-844,10558,-1396,2025-01-29 12:01:58,0.0
-14360,272,4896,-535,10770,-1942,2025-01-29 12:01:58,0.0
-15520,612,3900,-29,11751,-2864,2025-01-29 12:01:58,0.0
-16268,336,3364,428,12640,-2893,2025-01-29 12:01:58,0.0
-17160,-184,3560,1063,13340,-2557,2025-01-29 12:01:58,0.0
-17224,-764,4068,2841,14100,-2785,2025-01-29 12:01:58,0.0
-17312,-800,3500,5122,17449,-4274,2025-01-29 12:01:58,0.0
-16588,-432,-1336,4890,14577,-4521,2025-01-29 12:01:58,0.0
-16036,2948,-4124,3215,13410,-4532,2025-01-29 12:01:58,0.0
-17928,2928,-3540,2000,12876,-2828,2025-01-29 12:01:58,0.0
-17852,436,-1492,1823,9679,-1021,2025-01-29 12:01:58,0.0
-15504,-920,-2016,1974,7522,-671,2025-01-29 12:01:58,0.0
-13904,-728,-2256,2215,6948,-860,2025-01-29 12:01:58,0.0
-13780,-832,-3200,2354,7085,-805,2025-01-29 12:01:58,0.0
-13700,-1596,-3672,2431,6998,-662,2025-01-29 12:01:58,0.0
-13496,-1992,-4160,2522,5986,-465,2025-01-29 12:01:58,0.0
-13044,-1708,-4584,2338,4331,-314,2025-01-29 12:01:58,0.0
-13228,-752,-4564,1834,3286,-119,2025-01-29 12:01:58,0.0
-12616,-276,-4396,1312,3119,-368,2025-01-29 12:01:58,0.0
-12196,100,-4020,741,3062,-861,2025-01-29 12:01:58,0.0
-12476,672,-3812,208,3434,-1334,2025-01-29 12:01:58,0.0
-13012,752,-4144,-68,4524,-1357,2025-01-29 12:01:58,
-13576,736,-4972,-552,5119,-1051,2025-01-29 12:01:58,0.0
-13548,104,-4752,-1165,4298,-837,2025-01-29 12:01:58,0.0
-13044,-480,-5060,-1164,2930,-914,2025-01-29 12:01:58,0.0
-12568,-1096,-5820,-965,2907,-1402,2025-01-29 12:01:58,0.0
-12716,-1456,-6388,-1146,3150,-1769,2025-01-29 12:01:59,0.0
-13032,-1240,-6372,-1518,3131,-1800,2025-01-29 12:01:59,0.0
-12908,-888,-6504,-1776,2952,-1826,2025-01-29 12:01:59,0.0
-12468,-636,-6536,-1743,2734,-2039,2025-01-29 12:01:59,0.0
-12280,-576,-6260,-1533,2430,-2279,2025-01-29 12:01:59,0.0
-12544,-624,-5864,-1518,2230,-2506,2025-01-29 12:01:59,0.0
-12608,-616,-5788,-1771,2502,-2574,2025-01-29 12:01:59,0.0
-12420,-980,-6000,-2015,2972,-2695,2025-01-29 12:01:59,0.0
-12160,-1200,-6260,-2007,3400,-2706,2025-01-29 12:01:59,0.0
-12544,-1192,-6656,-1773,3161,-2247,2025-01-29 12:01:59,0.0
-12268,-1212,-6928,-1635,2061,-2074,2025-01-29 12:01:59,0.0
-12232,-1312,-6664,-1742,905,-2130,2025-01-29 12:01:59,0.0
-12528,-1392,-5988,-1809,341,-2229,2025-01-29 12:01:59,0.0
-12124,-1400,-6196,-1818,471,-2182,2025-01-29 12:01:59,0.0
-11672,-1356,-6848,-2045,1198,-2141,2025-01-29 12:01:59,0.0
-11644,-1288,-6548,-2084,1418,-1941,2025-01-29 12:01:59,0.0
-11592,-1392,-5952,-2031,1287,-1508,2025-01-29 12:01:59,0.0
-11640,-1328,-5324,-1949,1029,-1137,2025-01-29 12:01:59,0.0
-11364,-1368,-5296,-1773,544,-748,2025-01-29 12:01:59,0.0
-11088,-1356,-5232,-1493,351,-393,2025-01-29 12:01:59,0.0
-10868,-1444,-5708,-1314,794,-146,2025-01-29 12:01:59,0.0
-10620,-1164,-6388,-1414,1400,-3,2025-01-29 12:01:59,0.0
-10608,-716,-6444,-1630,1607,36,2025-01-29 12:01:59,0.0
-10560,-408,-6628,-1922,1723,-14,2025-01-29 12:01:59,0.0
-10796,-388,-6468,-2080,2026,-306,2025-01-29 12:01:59,0.0
-10780,-592,-5560,-1944,2337,-890,2025-01-29 12:01:59,0.0
-10832,-936,-5604,-1785,2060,-1535,2025-01-29 12:01:59,0.0
-11548,-1116,-6900,-1827,2025,-1885,2025-01-29 12:01:59,0.0
-11740,-1532,-7808,-1933,1737,-1704,2025-01-29 12:01:59,0.0
-26836,-3780,-5068,-1823,-4219,-1351,2025-01-29 12:01:59,0.0
-11544,-1972,-8244,-2301,409,-673,2025-01-29 12:01:59,0.0
-11128,-1740,-6364,-1811,-2220,-361,2025-01-29 12:01:59,0.0
-10864,-1668,-5512,-1542,-4180,-250,2025-01-29 12:01:59,0.0
-10144,-1500,-5100,-1214,-5728,-95,2025-01-29 12:01:59,0.0
-9752,-1740,-4484,-678,-5677,205,2025-01-29 12:01:59,0.0
-8764,-2028,-5436,-227,-4352,278,2025-01-29 12:01:59,0.0
-8344,-1752,-5544,-135,-2818,143,2025-01-29 12:01:59,0.0
-8116,-1700,-5264,-39,-1480,144,2025-01-29 12:01:59,0.0
-8372,-1952,-4992,516,-211,117,2025-01-29 12:01:59,0.0
-8556,-2396,-5068,956,702,-50,2025-01-29 12:01:59,0.0
-8500,-2928,-5156,1564,1196,-231,2025-01-29 12:01:59,0.0
-9520,-3096,-5504,2215,1635,-374,2025-01-29 12:01:59,0.0
-10516,-2768,-5348,2715,1425,-407,2025-01-29 12:01:59,0.0
-10572,-2424,-5908,2992,680,-174,2025-01-29 12:01:59,0.0
-11080,-1900,-6084,3070,-41,153,2025-01-29 12:01:59,0.0
-11048,-1268,-6692,2998,-768,424,2025-01-29 12:01:59,0.0
-10924,-948,-7028,2818,-1112,446,2025-01-29 12:01:59,0.0
-10868,-1088,-7316,2609,-1600,259,2025-01-29 12:01:59,0.0
-10824,-1272,-6848,2457,-1805,10,2025-01-29 12:01:59,0.0
-10940,-1184,-6072,2386,-1922,-248,2025-01-29 12:01:59,0.0
-11256,-1332,-5712,2513,-2026,-348,2025-01-29 12:01:59,0.0
-11128,-1264,-5440,2658,-2438,20,2025-01-29 12:01:59,0.0
-10464,-888,-6504,2965,-2099,385,2025-01-29 12:01:59,0.0
-10252,-148,-7820,2333,-1225,651,2025-01-29 12:01:59,0.0
-10536,-392,-8048,1619,1510,301,2025-01-29 12:01:59,0.0
-11112,-1116,-7892,986,3675,-50,2025-01-29 12:01:59,0.0
-11684,-1920,-7260,952,4528,-470,2025-01-29 12:01:59,0.0
-12772,-2392,-6660,1660,4290,-667,2025-01-29 12:01:59,0.0
-13096,-2708,-6056,2813,1947,-535,2025-01-29 12:01:59,0.0
-13432,-2040,-6452,3713,-486,235,2025-01-29 12:02:00,0.0
-12424,-1128,-6876,3713,-1469,620,2025-01-29 12:02:00,0.0
-11612,-508,-6928,3148,-1734,377,2025-01-29 12:02:00,0.0
-11484,-692,-7272,2469,-1255,-243,2025-01-29 12:02:00,0.0
-12160,-632,-6864,1709,-787,-857,2025-01-29 12:02:00,0.0
-12588,-608,-6284,947,-990,-1081,2025-01-29 12:02:00,0.0
-12528,-584,-5840,197,-1687,-1191,2025-01-29 12:02:00,0.0
-11780,-1168,-5476,-402,-2168,-1570,2025-01-29 12:02:00,0.0
-11420,-1904,-4768,-736,-1890,-1719,2025-01-29 12:02:00,0.0
-11008,-2848,-4180,-598,-848,-1739,2025-01-29 12:02:00,0.0
-10772,-3776,-4144,-404,497,-1770,2025-01-29 12:02:00,0.0
-10584,-4576,-4564,-148,1543,-1939,2025-01-29 12:02:00,0.0
-11308,-5128,-4416,412,2730,-2328,2025-01-29 12:02:00,0.0
-12184,-4960,-4592,1133,3380,-2113,2025-01-29 12:02:00,0.0
-12504,-4656,-5104,1694,3573,-1597,2025-01-29 12:02:00,0.0
-12576,-4672,-5044,2227,3743,-989,2025-01-29 12:02:00,0.0
-12504,-4452,-4312,2611,3366,-720,2025-01-29 12:02:00,0.0
-12596,-3844,-3888,2667,2955,-593,2025-01-29 12:02:00,0.0
-12740,-3168,-3816,2711,2473,-311,2025-01-29 12:02:00,0.0
-12400,-2544,-4396,2392,1934,-30,2025-01-29 12:02:00,0.0
-11860,-2168,-4744,1731,1571,-65,2025-01-29 12:02:00,0.0
-11368,-2220,-4488,1115,2113,-273,2025-01-29 12:02:00,0.0
-11248,-2748,-4732,619,3091,-659,2025-01-29 12:02:00,0.0
-11776,-3456,-4856,320,3876,-979,2025-01-29 12:02:00,0.0
-11720,-4164,-5036,472,4110,-1696,2025-01-29 12:02:00,0.0
-12392,-4972,-4928,947,4012,-2401,2025-01-29 12:02:00,0.0
-13492,-5256,-4064,1500,3201,-2516,2025-01-29 12:02:00,0.0
-13852,-5424,-4120,1885,1915,-1772,2025-01-29 12:02:00,0.0
-13512,-5284,-4192,1987,319,-603,2025-01-29 12:02:00,0.0
-12628,-4896,-3804,2030,-381,95,2025-01-29 12:02:00,0.0
-11372,-4652,-4320,1924,-602,166,2025-01-29 12:02:00,0.0
-11380,-4280,-3976,1652,-193,472,2025-01-29 12:02:00,0.0
-10992,-4272,-3976,1452,687,1055,2025-01-29 12:02:00,0.0
-10776,-4460,-4036,1202,1465,1346,2025-01-29 12:02:00,0.0
-11196,-4700,-4620,989,2146,1492,2025-01-29 12:02:00,0.0
-11692,-4468,-4768,890,2622,1714,2025-01-29 12:02:00,0.0
-11900,-4600,-4872,857,2693,1757,2025-01-29 12:02:00,
-12216,-4896,-4792,465,2339,1486,2025-01-29 12:02:00,0.0
-12512,-4204,-4688,311,1866,1540,2025-01-29 12:02:00,0.0
-12504,-3244,-5800,-194,1264,1680,2025-01-29 12:02:00,0.0
-11816,-2644,-7096,-1066,1349,1630,2025-01-29 12:02:00,0.0
-11696,-3024,-6240,-1473,1867,989,2025-01-29 12:02:00,0.0
-12156,-3032,-5544,-1618,1524,-84,2025-01-29 12:02:00,0.0
-13948,-2240,-4632,-2393,-155,21,2025-01-29 12:02:00,0.0
-13796,-2208,-4872,-2914,-1089,274,2025-01-29 12:02:00,0.0
-12800,-2560,-5676,-3014,-887,-568,2025-01-29 12:02:00,0.0
-13044,-3628,-6800,-3119,339,-1403,2025-01-29 12:02:00,0.0
-12780,-6140,-6896,-2783,2344,-2342,2025-01-29 12:02:00,0.0
-12984,-8276,-5900,-1205,3684,-3687,2025-01-29 12:02:00,0.0
-14180,-9152,-5328,1457,2630,-3955,2025-01-29 12:02:00,0.0
-16220,-9332,-5684,3128,712,-2134,2025-01-29 12:02:00,0.0
-17360,-8888,-6696,4259,-959,1292,2025-01-29 12:02:00,0.0
-15816,-8152,-7276,4883,-1483,4543,2025-01-29 12:02:00,0.0
-13108,-6940,-8088,5180,-2213,5723,2025-01-29 12:02:00,0.0
-11732,-5796,-9384,4472,-3602,5898,2025-01-29 12:02:00,0.0
-10912,-4696,-9136,4553,-4149,6777,2025-01-29 12:02:01,0.0
-9520,-3528,-8932,4974,-4043,7655,2025-01-29 12:02:01,0.0
-7688,-2360,-8764,4771,-3680,7477,2025-01-29 12:02:01,0.0
-6460,-1372,-8256,4338,-3102,6561,2025-01-29 12:02:01,0.0
-6272,-612,-7816,4045,-1722,5246,2025-01-29 12:02:01,0.0
-6716,-468,-8184,3570,439,4120,2025-01-29 12:02:01,0.0
-7468,-632,-8372,2770,2617,3422,2025-01-29 12:02:01,0.0
-9240,-1140,-7856,2049,4232,3208,2025-01-29 12:02:01,0.0
-10164,-1908,-7356,1815,4968,3164,2025-01-29 12:02:01,0.0
-12264,-2256,-7656,2509,4084,3337,2025-01-29 12:02:01,0.0
-13140,-2308,-7652,2816,2715,3513,2025-01-29 12:02:01,0.0
-13168,-2248,-8056,3007,615,3847,2025-01-29 12:02:01,0.0
-12732,-2516,-7600,3140,-1841,4327,2025-01-29 12:02:01,0.0
-11864,-2716,-6996,3328,-2854,4773,2025-01-29 12:02:01,0.0
-10812,-3236,-5744,3787,-2653,5142,2025-01-29 12:02:01,0.0
-10104,-3560,-5084,4492,-1766,5384,2025-01-29 12:02:01,0.0
-9708,-3444,-5168,5303,-838,5597,2025-01-29 12:02:01,0.0
-9800,-3124,-5408,6093,-125,5684,2025-01-29 12:02:01,0.0
-9900,-2324,-5520,6768,383,5592,2025-01-29 12:02:01,0.0
-10320,-1548,-6040,7494,681,5281,2025-01-29 12:02:01,0.0
-10420,-860,-6712,7661,617,4916,2025-01-29 12:02:01,0.0
-10552,-384,-6308,7463,289,4296,2025-01-29 12:02:01,0.0
-10836,252,-5664,7213,113,3736,2025-01-29 12:02:01,0.0
-11584,416,-5436,6798,703,3315,2025-01-29 12:02:01,0.0
-11940,304,-6344,6219,1484,3058,2025-01-29 12:02:01,0.0
-12592,200,-6896,5704,1844,2686,2025-01-29 12:02:01,0.0
-12648,-292,-6932,5433,855,2392,2025-01-29 12:02:01,0.0
-12300,-1004,-6224,5229,-1475,1954,2025-01-29 12:02:01,0.0
-11308,-1224,-6184,4790,-2185,1964,2025-01-29 12:02:01,0.0
-10524,-1300,-5624,4373,-1936,2050,2025-01-29 12:02:01,0.0
-9976,-928,-5284,4120,-559,2366,2025-01-29 12:02:01,0.0
-9584,-676,-5040,3858,1252,2499,2025-01-29 12:02:01,0.0
-9712,-756,-5408,3911,3131,2225,2025-01-29 12:02:01,0.0
-10632,-956,-5236,4030,4499,1630,2025-01-29 12:02:01,0.0
-12176,-1264,-5100,4163,4807,1165,2025-01-29 12:02:01,0.0
-13524,-1672,-5436,4568,4287,1169,2025-01-29 12:02:01,0.0
-14304,-1560,-5916,4669,2304,1480,2025-01-29 12:02:01,0.0
-13940,-1172,-6216,4388,-469,2348,2025-01-29 12:02:01,0.0
-12444,-1196,-6028,4281,-1387,2890,2025-01-29 12:02:01,0.0
-11568,-1440,-4856,4199,-530,3226,2025-01-29 12:02:01,0.0
-11108,-1736,-4604,4257,1174,3278,2025-01-29 12:02:01,0.0
-11656,-1680,-4500,4594,3020,3089,2025-01-29 12:02:01,0.0
-12492,-1396,-4500,4944,4348,2737,2025-01-29 12:02:01,0.0
-13772,-972,-5292,5197,4633,2775,2025-01-29 12:02:01,0.0
-14392,-1156,-6760,5122,4488,3162,2025-01-29 12:02:01,0.0
-14852,-960,-7568,4891,4279,3368,2025-01-29 12:02:01,0.0
-15284,104,-8724,4107,4046,4007,2025-01-29 12:02:01,0.0
-14984,772,-9372,2660,3408,4794,2025-01-29 12:02:01,0.0
-13988,1136,-9828,1396,2179,4935,2025-01-29 12:02:01,0.0
-12648,780,-9272,360,171,3787,2025-01-29 12:02:01,0.0
-12932,628,-8360,27,-1217,2190,2025-01-29 12:02:01,0.0
-13180,428,-7220,38,-1851,1468,2025-01-29 12:02:01,0.0
-11660,124,-6908,326,-3163,808,2025-01-29 12:02:01,0.0
-9772,-300,-8140,906,-4187,-225,2025-01-29 12:02:01,0.0
-8952,-1684,-8928,1434,-3451,-1514,2025-01-29 12:02:01,0.0
-8304,-2440,-8688,1935,-2447,-2136,2025-01-29 12:02:01,0.0
-7956,-3000,-9396,1924,-2119,-2165,2025-01-29 12:02:01,0.0
-8216,-3576,-9368,1552,-1093,-1630,2025-01-29 12:02:01,0.0
-8884,-3836,-7812,1551,1574,-1016,2025-01-29 12:02:01,0.0
-9128,-3672,-6544,2217,4145,-820,2025-01-29 12:02:01,0.0
-9804,-2680,-6508,3133,4974,-1345,2025-01-29 12:02:01,0.0
-10920,-1984,-7016,3448,5012,-2037,2025-01-29 12:02:01,0.0
-12100,-1460,-7268,3388,4417,-2639,2025-01-29 12:02:01,0.0
-13040,-1556,-7840,3163,2568,-2980,2025-01-29 12:02:01,0.0
-13524,-2296,-8376,2537,25,-2669,2025-01-29 12:02:01,0.0
-13468,-3508,-8260,1636,-2135,-1821,2025-01-29 12:02:02,0.0
-12304,-4268,-7324,1198,-3013,-1031,2025-01-29 12:02:02,0.0
-11012,-4372,-6600,1497,-3254,-655,2025-01-29 12:02:02,0.0
-9728,-4140,-6148,1931,-2915,-872,2025-01-29 12:02:02,0.0
-8952,-3600,-5952,2310,-1971,-1287,2025-01-29 12:02:02,0.0
-8604,-3120,-5692,2328,-900,-1539,2025-01-29 12:02:02,0.0
-8756,-2804,-5852,2108,435,-1629,2025-01-29 12:02:02,0.0
-8804,-3152,-6064,1745,1586,-1834,2025-01-29 12:02:02,0.0
-9456,-3388,-6076,1352,2541,-1906,2025-01-29 12:02:02,0.0
-10108,-3652,-5908,1142,2648,-1984,2025-01-29 12:02:02,0.0
-10908,-3592,-5932,1143,2096,-1816,2025-01-29 12:02:02,0.0
-11452,-3380,-6208,987,1631,-1175,2025-01-29 12:02:02,0.0
-11660,-3232,-6340,567,1358,-300,2025-01-29 12:02:02,0.0
-11232,-3036,-5868,129,1275,256,2025-01-29 12:02:02,0.0
-11264,-3104,-5656,-227,1071,423,2025-01-29 12:02:02,0.0
-11292,-3304,-5072,-485,773,537,2025-01-29 12:02:02,0.0
-11152,-3140,-4676,-649,417,708,2025-01-29 12:02:02,
-10840,-2560,-4992,-816,-1,905,2025-01-29 12:02:02,0.0
-10284,-2292,-5120,-1240,-247,1060,2025-01-29 12:02:02,0.0
-10204,-2104,-5632,-1838,260,1088,2025-01-29 12:02:02,0.0
-9912,-2356,-5828,-2598,1360,893,2025-01-29 12:02:02,0.0
-10212,-2628,-6208,-3320,2383,448,2025-01-29 12:02:02,0.0
-10828,-2600,-6960,-3834,3273,-74,2025-01-29 12:02:02,0.0
-11240,-2276,-7468,-4119,3620,-754,2025-01-29 12:02:02,0.0
-11860,-2256,-7500,-4426,3682,-1550,2025-01-29 12:02:02,0.0
-13276,-3616,-6388,-4325,3721,-2263,2025-01-29 12:02:02,0.0
-14060,-4944,-5160,-3621,3316,-3039,2025-01-29 12:02:02,0.0
-14620,-6228,-5312,-3033,2020,-3676,2025-01-29 12:02:02,0.0
-15648,-6456,-5392,-2639,226,-3493,2025-01-29 12:02:02,0.0
-15324,-5920,-7928,-1608,-426,-2936,2025-01-29 12:02:02,0.0
-13784,-6832,-7740,737,-107,-3948,2025-01-29 12:02:02,0.0
-14344,-8304,-6996,2736,-601,-3492,2025-01-29 12:02:02,0.0
-14848,-8992,-8112,3752,-1019,-1743,2025-01-29 12:02:02,0.0
-15636,-7780,-9784,3698,-1255,1252,2025-01-29 12:02:02,0.0
-13664,-4984,-10492,3114,-1641,3556,2025-01-29 12:02:02,0.0
-11900,-2448,-11212,2099,-3213,4333,2025-01-29 12:02:02,0.0
-10396,-892,-11584,917,-4831,4850,2025-01-29 12:02:02,0.0
-7788,-380,-11004,-288,-5987,5195,2025-01-29 12:02:02,0.0
-5116,112,-9308,-520,-5485,4429,2025-01-29 12:02:02,0.0
-3760,252,-8424,-161,-3345,2533,2025-01-29 12:02:02,0.0
-4252,8,-7864,305,993,-30,2025-01-29 12:02:02,0.0
-7652,-1616,-7940,109,5752,-1398,2025-01-29 12:02:02,0.0
-10128,-2600,-7744,267,8133,-773,2025-01-29 12:02:02,0.0
-12052,-3772,-8368,282,8528,146,2025-01-29 12:02:02,0.0
-13648,-4124,-8188,337,7300,1341,2025-01-29 12:02:02,0.0
-14188,-3828,-7948,828,4139,2693,2025-01-29 12:02:02,0.0
-13796,-3196,-8264,1555,-591,3889,2025-01-29 12:02:02,0.0
-12804,-2312,-8520,1815,-3576,4740,2025-01-29 12:02:02,0.0
-11268,-1284,-8108,1715,-4482,5427,2025-01-29 12:02:02,0.0
-9648,-400,-7732,1502,-4612,5708,2025-01-29 12:02:02,0.0
-8692,184,-7116,1344,-4166,5650,2025-01-29 12:02:02,0.0
-7740,-4,-7168,1394,-2789,5173,2025-01-29 12:02:02,0.0
-7552,-588,-6972,1643,-662,4359,2025-01-29 12:02:02,0.0
-8708,-1392,-6976,1946,1609,3371,2025-01-29 12:02:02,0.0
-10096,-1260,-6696,2042,1994,3390,2025-01-29 12:02:02,0.0
-10924,-948,-6656,1987,1457,3578,2025-01-29 12:02:02,0.0
-11280,-200,-6940,1742,460,3746,2025-01-29 12:02:02,0.0
-11092,732,-7056,1243,-637,3586,2025-01-29 12:02:02,0.0
-10496,1304,-6668,927,-1419,2988,2025-01-29 12:02:02,0.0
-9876,984,-6460,989,-1751,1710,2025-01-29 12:02:02,0.0
-9864,-244,-6600,1135,-1528,310,2025-01-29 12:02:02,0.0
-10336,-768,-5804,1394,-1421,-386,2025-01-29 12:02:03,0.0
-10516,-1036,-5688,1543,-1424,-829,2025-01-29 12:02:03,0.0
-10916,-1224,-5496,1655,-1569,-1251,2025-01-29 12:02:03,0.0
-11248,-1296,-5536,1788,-1968,-1545,2025-01-29 12:02:03,0.0
-11920,-1056,-5708,2112,-2374,-1381,2025-01-29 12:02:03,0.0
-12140,-1208,-5576,2239,-2454,-860,2025-01-29 12:02:03,0.0
-11940,-1308,-5448,2398,-2601,-281,2025-01-29 12:02:03,0.0
-11312,-1800,-4980,2757,-3117,175,2025-01-29 12:02:03,0.0
-10368,-2104,-4700,3349,-2711,458,2025-01-29 12:02:03,0.0
-10208,-1884,-4916,3913,-939,694,2025-01-29 12:02:03,0.0
-10528,-1528,-5884,4223,2091,1129,2025-01-29 12:02:03,0.0
-11356,-1896,-6548,4377,4684,1389,2025-01-29 12:02:03,0.0
-13148,-1864,-6536,4414,5911,1566,2025-01-29 12:02:03,0.0
-15152,-1268,-6420,4152,5827,2105,2025-01-29 12:02:03,0.0
-16308,-940,-4992,4149,4125,2748,2025-01-29 12:02:03,0.0
-16608,-668,-4116,4312,1601,2963,2025-01-29 12:02:03,0.0
-16108,-368,-4496,4545,-675,3008,2025-01-29 12:02:03,0.0
-15168,-12,-6520,4328,-807,3615,2025-01-29 12:02:03,0.0
-14496,24,-7564,3897,387,4015,2025-01-29 12:02:03,0.0
-13992,144,-8456,2938,1768,4241,2025-01-29 12:02:03,0.0
-13480,336,-8516,1683,1920,3983,2025-01-29 12:02:03,0.0
-12452,-144,-9304,847,936,3135,2025-01-29 12:02:03,0.0
-12616,-300,-11208,409,642,2398,2025-01-29 12:02:03,0.0
-12804,-1000,-10988,-233,500,1965,2025-01-29 12:02:03,0.0
-11948,-2764,-8360,-510,-1141,1293,2025-01-29 12:02:03,0.0
-10052,-4064,-5876,543,-5167,383,2025-01-29 12:02:03,0.0
-8636,-4096,-4960,2335,-6748,-19,2025-01-29 12:02:03,0.0
-7884,-4344,-5140,3920,-3462,-432,2025-01-29 12:02:03,0.0
-7772,-3500,-6880,4736,1380,-1138,2025-01-29 12:02:03,0.0
-8564,-2068,-9144,4726,3732,-1707,2025-01-29 12:02:03,0.0
-10376,-500,-11096,3405,5149,-1988,2025-01-29 12:02:03,0.0
-11892,204,-10868,1549,4993,-1698,2025-01-29 12:02:03,0.0
-12348,-324,-9144,511,2703,-1444,2025-01-29 12:02:03,0.0
-11704,-1224,-8580,41,-1168,-1661,2025-01-29 12:02:03,0.0
-10904,-1880,-8812,-361,-3934,-2083,2025-01-29 12:02:03,0.0
-10080,-2488,-8440,-547,-4661,-2509,2025-01-29 12:02:03,0.0
-9096,-2404,-8084,-427,-3861,-2661,2025-01-29 12:02:03,0.0
-8468,-2060,-7892,-754,-2544,-2722,2025-01-29 12:02:03,0.0
-8048,-2272,-7132,-1240,-1223,-2783,2025-01-29 12:02:03,0.0
-8196,-2388,-6324,-1451,-84,-3120,2025-01-29 12:02:03,0.0
-8704,-2776,-6620,-1751,682,-3541,2025-01-29 12:02:03,0.0
-9540,-3372,-6076,-1927,1093,-4185,2025-01-29 12:02:03,0.0
-11112,-3696,-5556,-1689,936,-4346,2025-01-29 12:02:03,0.0
-11924,-4108,-5952,-1297,374,-3848,2025-01-29 12:02:03,0.0
-12196,-4196,-6424,-1138,-536,-2840,2025-01-29 12:02:03,0.0
-11872,-3632,-5820,-1174,-1083,-1926,2025-01-29 12:02:03,0.0
-11024,-3020,-5492,-1169,-1501,-1663,2025-01-29 12:02:03,0.0
-10572,-2760,-5572,-1340,-1478,-1751,2025-01-29 12:02:03,0.0
-11000,-2692,-6020,-1759,-493,-1593,2025-01-29 12:02:03,0.0
-11144,-2636,-6092,-2412,476,-1235,2025-01-29 12:02:03,0.0
-11312,-2628,-6108,-2966,640,-936,2025-01-29 12:02:03,0.0
-11388,-2656,-5948,-3531,248,-843,2025-01-29 12:02:03,0.0
-11540,-2580,-5280,-4123,-711,-816,2025-01-29 12:02:03,0.0
-11496,-3096,-5504,-4461,-1141,-534,2025-01-29 12:02:03,0.0
-11372,-3528,-5504,-4755,-837,-681,2025-01-29 12:02:03,0.0
-11644,-3236,-5628,-4809,-63,-899,2025-01-29 12:02:03,
-11844,-3148,-5332,-4816,333,-1139,2025-01-29 12:02:03,0.0
-12124,-3456,-4716,-4576,326,-1410,2025-01-29 12:02:03,0.0
-12228,-3816,-4584,-4230,209,-1752,2025-01-29 12:02:03,0.0
-12528,-3812,-4504,-4110,143,-2191,2025-01-29 12:02:03,0.0
-13228,-3340,-4192,-4302,-440,-2474,2025-01-29 12:02:03,0.0
-13860,-2576,-3396,-4572,-894,-2370,2025-01-29 12:02:03,0.0
-14320,-1500,-4400,-4369,-1021,-2597,2025-01-29 12:02:03,0.0
-14368,-2672,-7448,-3973,-369,-3399,2025-01-29 12:02:04,0.0
-13940,-6648,-7420,-2297,785,-4906,2025-01-29 12:02:04,0.0
-13420,-10024,-7620,753,741,-6683,2025-01-29 12:02:04,0.0
-14580,-11504,-8376,3450,-1535,-6339,2025-01-29 12:02:04,0.0
-17248,-9780,-9032,4404,-3277,-2101,2025-01-29 12:02:04,0.0
-15168,-5504,-9956,3452,-2709,3621,2025-01-29 12:02:04,0.0
-11744,-2188,-11064,1603,-3201,6250,2025-01-29 12:02:04,0.0
-8864,844,-11212,-781,-4012,6545,2025-01-29 12:02:04,0.0
-7144,2672,-9708,-1948,-3797,5215,2025-01-29 12:02:04,0.0
-6328,3164,-8196,-2127,-2440,2949,2025-01-29 12:02:04,0.0
-5868,1192,-8608,-2062,21,-80,2025-01-29 12:02:04,0.0
-8344,-912,-8412,-2675,2540,-2115,2025-01-29 12:02:04,0.0
-10664,-1920,-6216,-2192,3787,-2494,2025-01-29 12:02:04,0.0
-12828,-2332,-5944,-1465,3881,-1560,2025-01-29 12:02:04,0.0
-13796,-2172,-6776,-1213,3318,-45,2025-01-29 12:02:04,0.0
-13640,-1740,-7340,-1212,2236,1167,2025-01-29 12:02:04,0.0
-13132,-1688,-7428,-1214,790,1769,2025-01-29 12:02:04,0.0
-12256,-2316,-7084,-981,-1246,2224,2025-01-29 12:02:04,0.0
-11144,-3040,-6492,-523,-2298,2665,2025-01-29 12:02:04,0.0
-10284,-2808,-5528,203,-2499,2892,2025-01-29 12:02:04,0.0
-9940,-2264,-5244,805,-1757,3022,2025-01-29 12:02:04,0.0
-9524,-1236,-5668,1173,-597,2962,2025-01-29 12:02:04,0.0
-10248,-168,-5836,1224,741,2884,2025-01-29 12:02:04,0.0
-10764,416,-6040,1305,1548,2843,2025-01-29 12:02:04,0.0
-10996,592,-6336,1275,1303,2465,2025-01-29 12:02:04,0.0
-11008,56,-6040,1104,510,1745,2025-01-29 12:02:04,0.0
-11464,-648,-5440,1013,-56,1406,2025-01-29 12:02:04,0.0
-11208,-1108,-4952,1227,-342,1327,2025-01-29 12:02:04,0.0
-10976,-1232,-5240,1522,-348,867,2025-01-29 12:02:04,0.0
-10920,-768,-5684,1577,-294,382,2025-01-29 12:02:04,0.0
-11468,-556,-5620,1605,-282,-8,2025-01-29 12:02:04,0.0
-11748,-640,-5512,1641,-536,-385,2025-01-29 12:02:04,0.0
-11924,-664,-5364,1529,-1135,-819,2025-01-29 12:02:04,0.0
-11992,-880,-4880,1457,-1859,-1001,2025-01-29 12:02:04,0.0
-12200,-948,-4852,1600,-2168,-716,2025-01-29 12:02:04,0.0
-11440,-1060,-4748,1654,-2225,-450,2025-01-29 12:02:04,0.0
-11452,-992,-4516,1668,-1836,-292,2025-01-29 12:02:04,0.0
-11040,-860,-3984,1514,-1224,-65,2025-01-29 12:02:04,0.0
-11040,-688,-3860,1499,-670,70,2025-01-29 12:02:04,0.0
-11292,-776,-4704,1598,-49,264,2025-01-29 12:02:04,0.0
-11764,-1292,-4940,1771,1221,348,2025-01-29 12:02:04,0.0
-12976,-1612,-4808,2153,2054,532,2025-01-29 12:02:04,0.0
-13764,-1920,-4672,2461,1858,763,2025-01-29 12:02:04,0.0
-14224,-2172,-5196,2593,1093,1012,2025-01-29 12:02:04,0.0
-14136,-1912,-4988,2702,-420,1537,2025-01-29 12:02:04,0.0
-13156,-1592,-4104,2936,-797,1865,2025-01-29 12:02:04,0.0
-12088,-1440,-3540,3339,-456,1676,2025-01-29 12:02:04,0.0
-12596,-744,-2440,3574,682,1428,2025-01-29 12:02:04,0.0
-13728,4,-4640,3559,3003,1646,2025-01-29 12:02:04,0.0
-14472,92,-6692,3484,5776,2112,2025-01-29 12:02:04,0.0
-15992,1268,-9076,2630,7464,2675,2025-01-29 12:02:04,0.0
-15104,1492,-10188,1025,5642,2547,2025-01-29 12:02:04,0.0
-14676,1468,-10344,-246,1796,1629,2025-01-29 12:02:04,0.0
-14444,628,-10100,-1455,-1199,813,2025-01-29 12:02:04,0.0
-13868,-408,-9248,-2107,-2248,643,2025-01-29 12:02:04,0.0
-12592,-1396,-8304,-1899,-2639,614,2025-01-29 12:02:04,0.0
-10432,-1924,-7224,-1313,-3235,-89,2025-01-29 12:02:04,0.0
-8880,-1480,-6264,-313,-3554,-1134,2025-01-29 12:02:04,0.0
-7700,-1192,-6220,567,-3085,-1761,2025-01-29 12:02:04,0.0
-7116,-2096,-6580,1213,-1140,-1917,2025-01-29 12:02:04,0.0
-6540,-3236,-7080,1574,1853,-1952,2025-01-29 12:02:04,0.0
-9464,-3472,-8104,543,8414,-848,2025-01-29 12:02:05,0.0
-11656,-3040,-8308,175,9554,-734,2025-01-29 12:02:05,0.0
-14116,-2088,-8296,380,9158,-535,2025-01-29 12:02:05,0.0
-15580,-1704,-8764,629,6615,-132,2025-01-29 12:02:05,0.0
-15012,-1544,-9964,404,1708,-143,2025-01-29 12:02:05,0.0
-14104,-1888,-10252,-646,-4327,-681,2025-01-29 12:02:05,0.0
-13132,-2600,-8896,-1656,-7635,-843,2025-01-29 12:02:05,0.0
-11080,-3136,-7572,-1923,-7987,-824,2025-01-29 12:02:05,0.0
-9156,-2868,-6520,-1751,-6902,-850,2025-01-29 12:02:05,0.0
-7492,-2256,-6336,-1521,-4772,-1262,2025-01-29 12:02:05,0.0
-6692,-1608,-6096,-1348,-739,-2566,2025-01-29 12:02:05,0.0
-7476,-1288,-6864,-1735,2346,-3522,2025-01-29 12:02:05,0.0
-9232,-1088,-6848,-2358,3805,-3971,2025-01-29 12:02:05,0.0
-10700,-1380,-7304,-3035,3450,-4252,2025-01-29 12:02:05,0.0
-12016,-1528,-7240,-3623,2347,-4443,2025-01-29 12:02:05,0.0
-12888,-2024,-7268,-4316,552,-4211,2025-01-29 12:02:05,0.0
-12876,-2560,-7100,-4876,-1126,-3436,2025-01-29 12:02:05,0.0
-11588,-2784,-6956,-5247,-1897,-2747,2025-01-29 12:02:05,0.0
-10480,-2680,-6804,-5407,-1667,-2674,2025-01-29 12:02:05,0.0
-10004,-2492,-6552,-5481,-920,-2862,2025-01-29 12:02:05,0.0
-9980,-2476,-6296,-5552,86,-3149,2025-01-29 12:02:05,0.0
-10780,-2360,-5836,-5552,583,-3346,2025-01-29 12:02:05,0.0
-12024,-2372,-6068,-5664,482,-3299,2025-01-29 12:02:05,0.0
-12744,-2420,-6320,-5963,-410,-2963,2025-01-29 12:02:05,0.0
-12868,-2456,-6524,-6122,-1466,-2492,2025-01-29 12:02:05,0.0
-12372,-2728,-6212,-6268,-2265,-2053,2025-01-29 12:02:05,0.0
-11608,-2900,-6212,-6285,-2819,-1678,2025-01-29 12:02:05,0.0
-10844,-2816,-6000,-6297,-2545,-1382,2025-01-29 12:02:05,0.0
-10128,-2536,-5472,-6194,-1357,-1380,2025-01-29 12:02:05,0.0
-10428,-2368,-5648,-6091,-249,-1394,2025-01-29 12:02:05,0.0
-10716,-2300,-6124,-6213,608,-1561,2025-01-29 12:02:05,0.0
-11484,-2296,-6608,-6233,1181,-1637,2025-01-29 12:02:05,
-12148,-2180,-7060,-6241,1133,-1520,2025-01-29 12:02:05,0.0
-11960,-1416,-7444,-6294,863,-1665,2025-01-29 12:02:05,0.0
-11560,-1156,-7424,-6787,360,-2576,2025-01-29 12:02:05,0.0
-11512,-1180,-6744,-7206,232,-3616,2025-01-29 12:02:05,0.0
-11384,-1460,-6420,-8335,778,-6210,2025-01-29 12:02:05,0.0
-11776,-1464,-6860,-9454,1761,-7751,2025-01-29 12:02:05,0.0
-12432,-1992,-6940,-10479,1933,-9001,2025-01-29 12:02:05,0.0
-13496,-2248,-7220,-11319,904,-9698,2025-01-29 12:02:05,0.0
-13628,-2624,-8716,-11927,-898,-9802,2025-01-29 12:02:05,0.0
-13184,-2552,-9632,-12254,-2251,-10064,2025-01-29 12:02:05,0.0
-13176,-2072,-8824,-12649,-4301,-10309,2025-01-29 12:02:05,0.0
-12268,-1008,-8824,-13243,-6572,-10350,2025-01-29 12:02:05,0.0
-12248,-488,-9944,-13721,-8172,-9361,2025-01-29 12:02:05,0.0
-10892,-1536,-12996,-13915,-7406,-7935,2025-01-29 12:02:05,0.0
-8956,-3740,-13968,-14687,-4274,-7763,2025-01-29 12:02:05,0.0
-9272,-4064,-8484,-15219,997,-8661,2025-01-29 12:02:05,0.0
-10956,-3140,-6848,-15247,1980,-7661,2025-01-29 12:02:05,0.0
-11404,-2936,-7112,-15140,1482,-6654,2025-01-29 12:02:05,0.0
-11044,-2872,-7836,-14718,-18,-6070,2025-01-29 12:02:05,0.0
-10380,-2656,-7848,-14233,-1405,-6228,2025-01-29 12:02:05,0.0
-9400,-2904,-7124,-13656,-2499,-7216,2025-01-29 12:02:06,0.0
-9544,-2132,-7140,-13264,-2928,-7567,2025-01-29 12:02:06,0.0
-9236,-1152,-7692,-13380,-2892,-7057,2025-01-29 12:02:06,0.0
-8440,-620,-8056,-13909,-2110,-6805,2025-01-29 12:02:06,0.0
-7732,-276,-7912,-14308,-749,-7314,2025-01-29 12:02:06,0.0
-7200,-512,-8144,-14632,723,-8672,2025-01-29 12:02:06,0.0
-8452,-1136,-8748,-15126,2101,-10023,2025-01-29 12:02:06,0.0
-9632,-1268,-8348,-15395,2850,-10512,2025-01-29 12:02:06,0.0
-10748,-1392,-9136,-15627,2270,-10630,2025-01-29 12:02:06,0.0
-11520,-1172,-9732,-15974,1135,-10197,2025-01-29 12:02:06,0.0
-11524,-1216,-9364,-16624,-62,-9799,2025-01-29 12:02:06,0.0
-11304,-1044,-8184,-17142,-1176,-9790,2025-01-29 12:02:06,0.0
-11064,-708,-7440,-17681,-2013,-9646,2025-01-29 12:02:06,0.0
-11056,136,-7828,-18217,-2345,-9461,2025-01-29 12:02:06,0.0
-10848,940,-8840,-18868,-1779,-9467,2025-01-29 12:02:06,0.0
-10360,740,-9008,-19014,-828,-10412,2025-01-29 12:02:06,0.0
-10380,-308,-9168,-18837,-444,-11838,2025-01-29 12:02:06,0.0
-11268,-1872,-9024,-18937,-774,-12585,2025-01-29 12:02:06,0.0
-11572,-2932,-8284,-19015,-1912,-12249,2025-01-29 12:02:06,0.0
-11384,-3740,-7608,-18623,-2986,-11329,2025-01-29 12:02:06,0.0
-10700,-3972,-7028,-17661,-3451,-10552,2025-01-29 12:02:06,0.0
-10068,-3696,-7008,-16837,-3703,-10174,2025-01-29 12:02:06,0.0
-9544,-3024,-7364,-16252,-4025,-9854,2025-01-29 12:02:06,0.0
-9648,-2636,-7228,-15803,-3619,-9520,2025-01-29 12:02:06,0.0
-9696,-2484,-7316,-15228,-3070,-9422,2025-01-29 12:02:06,0.0
-10088,-2204,-7732,-14473,-2203,-9368,2025-01-29 12:02:06,0.0
-10380,-2452,-8460,-14049,-1305,-9550,2025-01-29 12:02:06,0.0
-10436,-2824,-8716,-13572,-949,-9841,2025-01-29 12:02:06,0.0
-11384,-3040,-8036,-12774,-1504,-10276,2025-01-29 12:02:06,0.0
-11620,-2696,-8068,-12256,-2010,-10130,2025-01-29 12:02:06,0.0
-11892,-2244,-7720,-12459,-2753,-9710,2025-01-29 12:02:06,0.0
-11372,-1900,-7092,-12611,-3274,-9373,2025-01-29 12:02:06,0.0
-10344,-1792,-7876,-12369,-3796,-9386,2025-01-29 12:02:06,0.0
-9544,-2084,-8752,-12475,-3814,-9873,2025-01-29 12:02:06,0.0
-9856,-2336,-8476,-12465,-2944,-10173,2025-01-29 12:02:06,0.0
-10376,-2612,-8536,-12298,-2204,-10093,2025-01-29 12:02:06,0.0
-11004,-2876,-8972,-12065,-1871,-9758,2025-01-29 12:02:06,0.0
-11452,-3124,-9532,-11766,-1655,-9477,2025-01-29 12:02:06,0.0
-12852,-4020,-7992,-11186,-2751,-7172,2025-01-29 12:02:06,0.0
-13068,-5388,-6332,-10727,-3933,-5586,2025-01-29 12:02:06,0.0
-13364,-5704,-5148,-9863,-4704,-4172,2025-01-29 12:02:06,0.0
-13260,-6080,-4692,-8833,-4875,-2972,2025-01-29 12:02:06,0.0
-12376,-5180,-4144,-7480,-5257,-2257,2025-01-29 12:02:06,0.0
-10868,-3076,-5344,-6084,-5946,-1795,2025-01-29 12:02:06,0.0
-9324,-472,-6948,-5468,-4804,-1218,2025-01-29 12:02:06,0.0
-8692,1796,-7892,-6218,-1697,-899,2025-01-29 12:02:06,0.0
-7992,2896,-7932,-7397,2508,-1780,2025-01-29 12:02:06,0.0
-7476,1968,-7836,-8368,5114,-4355,2025-01-29 12:02:06,0.0
-9428,-1448,-7384,-9053,5162,-8451,2025-01-29 12:02:06,0.0
-11480,-4908,-7792,-8837,4161,-10888,2025-01-29 12:02:06,0.0
-13812,-7476,-7800,-8689,2509,-10847,2025-01-29 12:02:06,0.0
-15716,-8044,-6348,-8087,225,-7978,2025-01-29 12:02:06,0.0
-14696,-7000,-4988,-7406,-1533,-4855,2025-01-29 12:02:06,0.0
-11668,-5112,-4520,-6672,-3113,-4262,2025-01-29 12:02:06,0.0
-10404,-3524,-5548,-7074,-3670,-4810,2025-01-29 12:02:06,0.0
-9716,-3008,-6236,-8186,-2743,-5705,2025-01-29 12:02:06,0.0
-10156,-3628,-5724,-8842,-1240,-6459,2025-01-29 12:02:06,0.0
-11048,-4100,-5332,-8828,-737,-6257,2025-01-29 12:02:06,0.0
-11520,-5372,-6016,-9012,-790,-6018,2025-01-29 12:02:06,0.0
-11728,-6052,-5936,-8691,-1009,-5904,2025-01-29 12:02:06,0.0
-12476,-6244,-5760,-7957,-1513,-5597,2025-01-29 12:02:06,0.0
-12528,-5512,-5476,-7371,-2256,-5020,2025-01-29 12:02:06,0.0
-12232,-5244,-5692,-6931,-2851,-4476,2025-01-29 12:02:06,0.0
-11640,-4632,-5580,-6517,-3112,-4062,2025-01-29 12:02:06,0.0
-11000,-4476,-5728,-6627,-2727,-3848,2025-01-29 12:02:06,0.0
-10504,-4488,-5620,-6882,-1971,-3778,2025-01-29 12:02:06,0.0
-10616,-4588,-5496,-7122,-1343,-3790,2025-01-29 12:02:07,0.0
-11184,-4968,-5056,-7330,-1204,-3306,2025-01-29 12:02:07,0.0
-11484,-5124,-4964,-7296,-1199,-2591,2025-01-29 12:02:07,0.0
-11436,-5348,-4560,-7113,-1088,-1647,2025-01-29 12:02:07,0.0
-11272,-5556,-4176,-6770,-644,-461,2025-01-29 12:02:07,0.0
-11112,-5464,-4548,-6323,-284,632,2025-01-29 12:02:07,0.0
-11204,-4748,-5920,-5875,235,1544,2025-01-29 12:02:07,0.0
-11488,-4308,-7404,-5631,1262,2069,2025-01-29 12:02:07,0.0
-11704,-3888,-8092,-5342,2406,1938,2025-01-29 12:02:07,0.0
-12460,-3608,-7304,-4096,3532,722,2025-01-29 12:02:07,0.0
-13312,-3496,-7008,-2419,2748,-796,2025-01-29 12:02:07,0.0
-14960,-2932,-6984,-1574,263,-837,2025-01-29 12:02:07,0.0
-14676,-1632,-6544,-1210,-2645,477,2025-01-29 12:02:07,0.0
-13300,-872,-6196,-1152,-4607,1906,2025-01-29 12:02:07,
-10972,-708,-6772,-1402,-5271,2708,2025-01-29 12:02:07,0.0
-8612,-1224,-7672,-1661,-3694,2721,2025-01-29 12:02:07,0.0
-7608,-1552,-8308,-1771,-80,1632,2025-01-29 12:02:07,0.0
-8264,-1348,-7560,-1760,2848,461,2025-01-29 12:02:07,0.0
-10400,-952,-6220,-1522,3886,-111,2025-01-29 12:02:07,0.0
-11608,-244,-5724,-1148,3198,-246,2025-01-29 12:02:07,0.0
-12100,312,-5888,-904,1258,-477,2025-01-29 12:02:07,0.0
-11860,728,-7024,-981,-1138,-1117,2025-01-29 12:02:07,0.0
-11224,420,-7808,-1495,-1724,-1566,2025-01-29 12:02:07,0.0
-10696,-472,-7616,-2220,-1261,-1827,2025-01-29 12:02:07,0.0
-10064,-1060,-7464,-2598,-471,-2075,2025-01-29 12:02:07,0.0
-9840,-1528,-7076,-2853,460,-2331,2025-01-29 12:02:07,0.0
-10504,-1828,-6080,-2767,1821,-2488,2025-01-29 12:02:07,0.0
-11544,-1820,-5804,-2349,2448,-2358,2025-01-29 12:02:07,0.0
-12348,-1960,-6056,-2025,2437,-2120,2025-01-29 12:02:07,0.0
-12940,-2256,-7444,-1801,2299,-1687,2025-01-29 12:02:07,0.0
-12844,-2576,-7960,-1775,1896,-1259,2025-01-29 12:02:07,0.0
-12364,-2652,-7636,-1641,1014,-1029,2025-01-29 12:02:07,0.0
-11736,-2248,-7248,-1331,237,-1064,2025-01-29 12:02:07,0.0
-11224,-1828,-7308,-1197,264,-1124,2025-01-29 12:02:07,0.0
-10892,-1864,-6972,-1065,963,-1105,2025-01-29 12:02:07,0.0
-10956,-2172,-6748,-780,1488,-868,2025-01-29 12:02:07,0.0
-11220,-2308,-7080,-675,1918,-565,2025-01-29 12:02:07,0.0
-11824,-2216,-7408,-595,1713,-677,2025-01-29 12:02:07,0.0
-12364,-2328,-7060,-389,648,-683,2025-01-29 12:02:07,0.0
-12516,-2416,-6716,-248,-541,-444,2025-01-29 12:02:07,0.0
-12208,-2416,-6876,-82,-1184,-153,2025-01-29 12:02:07,0.0
-11700,-2364,-7052,27,-1270,77,2025-01-29 12:02:07,0.0
-11148,-1940,-6996,21,-788,301,2025-01-29 12:02:07,0.0
-10824,-1660,-7244,-21,-172,206,2025-01-29 12:02:07,0.0
-10660,-1844,-7272,-141,85,-91,2025-01-29 12:02:07,0.0
-10772,-1952,-7176,-163,204,-115,2025-01-29 12:02:07,0.0
-10776,-2000,-7388,-120,273,-164,2025-01-29 12:02:07,0.0
-11048,-1932,-7428,-143,326,-188,2025-01-29 12:02:07,0.0
-11224,-1948,-7576,-121,381,-111,2025-01-29 12:02:07,0.0
-11284,-1836,-7248,-135,427,-50,2025-01-29 12:02:07,0.0
-11260,-1864,-7296,-186,444,-83,2025-01-29 12:02:07,0.0
-11004,-1976,-7272,-134,504,-146,2025-01-29 12:02:07,0.0
-11072,-1992,-7288,-47,513,-236,2025-01-29 12:02:07,0.0
-11064,-1860,-7372,-43,438,-288,2025-01-29 12:02:07,0.0
-11064,-1740,-7608,-144,378,-297,2025-01-29 12:02:07,0.0
-11096,-1824,-7360,-209,363,-315,2025-01-29 12:02:07,0.0
-10912,-1892,-7480,-244,373,-345,2025-01-29 12:02:07,0.0
-10972,-2000,-7524,-245,391,-474,2025-01-29 12:02:07,0.0
-11072,-1788,-7716,-240,442,-559,2025-01-29 12:02:07,0.0
-11148,-1596,-7700,-355,277,-663,2025-01-29 12:02:07,0.0
-11300,-1716,-7776,-448,148,-624,2025-01-29 12:02:08,0.0
-11252,-1932,-7596,-590,28,-510,2025-01-29 12:02:08,0.0
-11024,-2036,-7628,-619,7,-366,2025-01-29 12:02:08,0.0
-10852,-2232,-7772,-722,146,-279,2025-01-29 12:02:08,0.0
-10704,-2240,-7356,-612,420,-319,2025-01-29 12:02:08,0.0
-10960,-2116,-7348,-430,681,-390,2025-01-29 12:02:08,0.0
-11164,-2252,-7248,-361,669,-405,2025-01-29 12:02:08,0.0
-11432,-2144,-7288,-219,490,-309,2025-01-29 12:02:08,0.0
-11448,-2220,-7232,-146,199,-110,2025-01-29 12:02:08,0.0
-11144,-2380,-7232,-19,-61,3,2025-01-29 12:02:08,0.0
-10764,-2188,-7256,79,58,7,2025-01-29 12:02:08,0.0
-10700,-2044,-7380,187,331,-119,2025-01-29 12:02:08,0.0
-10840,-1952,-7892,179,487,-207,2025-01-29 12:02:08,0.0
-11112,-1948,-7832,96,616,-272,2025-01-29 12:02:08,0.0
-11188,-1952,-7720,64,664,-256,2025-01-29 12:02:08,0.0
-11324,-1932,-7560,0,505,-145,2025-01-29 12:02:08,0.0
-11300,-1996,-7448,-60,224,-69,2025-01-29 12:02:08,0.0
-11184,-1968,-7444,-81,-3,-21,2025-01-29 12:02:08,0.0
-10964,-1952,-7448,-96,10,-61,2025-01-29 12:02:08,0.0
-10884,-1984,-7420,-125,219,-164,2025-01-29 12:02:08,0.0
-10924,-2020,-7628,-140,386,-207,2025-01-29 12:02:08,0.0
-11144,-1932,-7628,-162,469,-207,2025-01-29 12:02:08,0.0
-11192,-1956,-7536,-165,394,-206,2025-01-29 12:02:08,0.0
-11248,-2000,-7496,-184,285,-198,2025-01-29 12:02:08,0.0
-11192,-1956,-7256,-176,198,-261,2025-01-29 12:02:08,0.0
-11212,-1944,-7384,-226,120,-284,2025-01-29 12:02:08,0.0
-11144,-2008,-7484,-246,66,-257,2025-01-29 12:02:08,0.0
-11060,-2064,-7592,-290,94,-188,2025-01-29 12:02:08,0.0
-11128,-2068,-7376,-248,134,-176,2025-01-29 12:02:08,0.0
-11060,-2128,-7480,-210,139,-161,2025-01-29 12:02:08,0.0
-11000,-2216,-7456,-167,131,-147,2025-01-29 12:02:08,0.0
-10972,-2232,-7384,-113,201,-156,2025-01-29 12:02:08,0.0
-11072,-2120,-7512,-116,269,-151,2025-01-29 12:02:08,0.0
-11112,-2020,-7372,-73,308,-161,2025-01-29 12:02:08,0.0
-11200,-1948,-7348,-82,330,-130,2025-01-29 12:02:08,0.0
-11136,-1972,-7472,-41,313,-115,2025-01-29 12:02:08,0.0
-11232,-1960,-7468,-82,190,-64,2025-01-29 12:02:08,0.0
-11076,-1980,-7492,-97,170,-88,2025-01-29 12:02:08,0.0
-11064,-1960,-7444,-108,195,-95,2025-01-29 12:02:08,0.0
-11084,-2012,-7500,-88,202,-80,2025-01-29 12:02:08,0.0
-11276,-2172,-7472,-86,166,1,2025-01-29 12:02:08,0.0
-11180,-2120,-7520,-30,158,41,2025-01-29 12:02:08,0.0
-11048,-2124,-7480,-47,208,60,2025-01-29 12:02:08,0.0
-11100,-1840,-7592,-61,200,119,2025-01-29 12:02:08,0.0
-11176,-1696,-7572,-145,172,111,2025-01-29 12:02:08,0.0
-11240,-1676,-7636,-160,72,215,2025-01-29 12:02:08,0.0
-11224,-1408,-7680,-257,37,269,2025-01-29 12:02:08,0.0
-11160,-1360,-7612,-368,117,295,2025-01-29 12:02:08,0.0
-11112,-1444,-7460,-416,183,285,2025-01-29 12:02:08,0.0
-11324,-1324,-7248,-291,243,322,2025-01-29 12:02:08,0.0
-11320,-1288,-7492,-301,128,378,2025-01-29 12:02:08,0.0
-11372,-1456,-7332,-334,103,409,2025-01-29 12:02:08,0.0
-11460,-1492,-7132,-250,131,465,2025-01-29 12:02:08,0.0
-11512,-1152,-7020,-114,145,513,2025-01-29 12:02:08,
-11640,-1028,-6948,-45,13,460,2025-01-29 12:02:08,0.0
-11628,-820,-6728,34,-97,443,2025-01-29 12:02:08,0.0
-11556,-908,-6680,29,-345,251,2025-01-29 12:02:08,0.0
-11856,-1032,-6572,80,-626,47,2025-01-29 12:02:08,0.0
-11780,-1224,-6288,297,-970,1,2025-01-29 12:02:08,0.0
-11516,-1204,-6392,489,-1184,-15,2025-01-29 12:02:08,0.0
-11188,-1040,-6384,581,-1051,-3,2025-01-29 12:02:09,0.0
-11020,-1020,-6264,610,-697,-161,2025-01-29 12:02:09,0.0
-11120,-1120,-6120,676,-164,-252,2025-01-29 12:02:09,0.0
-11364,-1236,-6304,869,110,-239,2025-01-29 12:02:09,0.0
-11572,-1376,-6368,1034,222,-211,2025-01-29 12:02:09,0.0
-11416,-1468,-6812,1289,29,-276,2025-01-29 12:02:09,0.0
-11300,-1828,-7448,1443,-438,-458,2025-01-29 12:02:09,0.0
-11432,-1968,-7344,1606,-615,-537,2025-01-29 12:02:09,0.0
-11396,-2004,-7344,1711,-808,-505,2025-01-29 12:02:09,0.0
-11364,-1992,-7336,1794,-661,-395,2025-01-29 12:02:09,0.0
-11244,-2072,-7556,1963,-551,-362,2025-01-29 12:02:09,0.0
-11392,-1964,-7588,2067,-601,-475,2025-01-29 12:02:09,0.0
-11324,-2032,-7520,1965,-783,-619,2025-01-29 12:02:09,0.0
-11076,-2020,-7404,2016,-814,-895,2025-01-29 12:02:09,0.0
-10896,-2032,-7764,2048,-803,-1258,2025-01-29 12:02:09,0.0
-10720,-2228,-7644,2005,-606,-1709,2025-01-29 12:02:09,0.0
-10540,-2900,-7276,1945,-275,-2187,2025-01-29 12:02:09,0.0
-10912,-3508,-6824,1844,171,-2301,2025-01-29 12:02:09,0.0
-11172,-3776,-6560,1688,411,-1972,2025-01-29 12:02:09,0.0
-11444,-3844,-6312,1625,417,-1504,2025-01-29 12:02:09,0.0
-11460,-3572,-5928,1578,374,-1164,2025-01-29 12:02:09,0.0
-11280,-3144,-5396,1262,492,-1191,2025-01-29 12:02:09,0.0
-11636,-2500,-5032,804,413,-1337,2025-01-29 12:02:09,0.0
-11756,-2332,-5128,404,430,-1486,2025-01-29 12:02:09,0.0
-11684,-2568,-5264,77,729,-1892,2025-01-29 12:02:09,0.0
-11724,-3196,-5552,-118,1025,-2404,2025-01-29 12:02:09,0.0
-11972,-3968,-5320,-63,1190,-2529,2025-01-29 12:02:09,0.0
-12012,-4568,-4916,343,1444,-2286,2025-01-29 12:02:09,0.0
-12032,-4584,-5028,680,1277,-1874,2025-01-29 12:02:09,0.0
-11852,-4460,-5228,827,935,-1482,2025-01-29 12:02:09,0.0
-11832,-4020,-5224,847,603,-1007,2025-01-29 12:02:09,0.0
-11512,-3656,-4920,635,281,-552,2025-01-29 12:02:09,0.0
-10864,-3184,-4840,338,356,-410,2025-01-29 12:02:09,0.0
-11088,-2872,-4588,-35,656,-119,2025-01-29 12:02:09,0.0
-10276,-3140,-4948,-678,1552,163,2025-01-29 12:02:09,0.0
-10400,-2908,-4648,-1335,2546,-199,2025-01-29 12:02:09,0.0
-11616,-2860,-4844,-2086,2989,-517,2025-01-29 12:02:09,0.0
-13220,-2556,-5700,-2707,1894,-401,2025-01-29 12:02:09,0.0
-13284,-2888,-6080,-2956,198,83,2025-01-29 12:02:09,0.0
-11800,-3764,-6164,-2849,-862,310,2025-01-29 12:02:09,0.0
-10480,-4536,-6408,-2720,-527,17,2025-01-29 12:02:09,0.0
-10192,-4600,-6408,-2592,766,-496,2025-01-29 12:02:09,0.0
-11152,-4592,-6356,-2819,2369,-1138,2025-01-29 12:02:09,0.0
-12768,-4352,-6256,-3138,2488,-1583,2025-01-29 12:02:09,0.0
-14000,-3956,-6352,-3259,751,-1655,2025-01-29 12:02:09,0.0
-13988,-3444,-5588,-3128,-1503,-1764,2025-01-29 12:02:09,0.0
-13264,-3224,-5344,-3252,-2593,-2486,2025-01-29 12:02:09,0.0
-12932,-3328,-4644,-3713,-3075,-3433,2025-01-29 12:02:09,0.0
-12516,-4140,-5068,-4097,-3103,-3912,2025-01-29 12:02:09,0.0
-11552,-4580,-6704,-4160,-2872,-4665,2025-01-29 12:02:09,0.0
-12116,-4728,-7744,-4668,-1570,-5196,2025-01-29 12:02:09,0.0
-12936,-5672,-6064,-4770,-77,-5134,2025-01-29 12:02:09,0.0
-13484,-7208,-4520,-3789,-127,-4871,2025-01-29 12:02:09,0.0
-14184,-8088,-5216,-2233,-917,-4076,2025-01-29 12:02:09,0.0
-15052,-8296,-6776,-1419,-1163,-2797,2025-01-29 12:02:09,0.0
-15136,-7784,-7448,-1170,-745,-1526,2025-01-29 12:02:09,0.0
-14908,-6720,-6784,-546,-1215,-861,2025-01-29 12:02:09,0.0
-15280,-5788,-6904,43,-2839,473,2025-01-29 12:02:09,0.0
-13848,-4492,-8204,-369,-4246,3472,2025-01-29 12:02:09,0.0
-11244,-4304,-8464,-1298,-4528,4824,2025-01-29 12:02:09,0.0
-9220,-3672,-8852,-1139,-4251,5240,2025-01-29 12:02:09,0.0
-8160,-2688,-9600,-1073,-3382,5217,2025-01-29 12:02:10,0.0
-7360,-1064,-8796,-1048,-2033,4747,2025-01-29 12:02:10,0.0
-6876,400,-6744,-402,-721,3393,2025-01-29 12:02:10,0.0
-7288,928,-6516,373,413,1777,2025-01-29 12:02:10,0.0
-9580,-228,-7804,110,1968,971,2025-01-29 12:02:10,0.0
-11260,-1784,-7460,-216,3088,1262,2025-01-29 12:02:10,0.0
-12212,-2616,-6604,44,3426,1797,2025-01-29 12:02:10,0.0
-13032,-2964,-6020,565,2673,2495,2025-01-29 12:02:10,0.0
-13284,-2940,-6984,926,1092,3266,2025-01-29 12:02:10,0.0
-12856,-2400,-7784,831,-586,3627,2025-01-29 12:02:10,0.0
-12576,-1736,-7776,625,-1578,4012,2025-01-29 12:02:10,0.0
-11560,-876,-7456,576,-2034,4280,2025-01-29 12:02:10,0.0
-10820,-32,-6712,425,-2301,4249,2025-01-29 12:02:10,0.0
-10584,628,-5840,385,-2227,3990,2025-01-29 12:02:10,0.0
-9364,388,-5852,311,-1741,3354,2025-01-29 12:02:10,0.0
-9140,-460,-5408,313,-697,2573,2025-01-29 12:02:10,0.0
-9932,-1460,-5192,549,797,2123,2025-01-29 12:02:10,0.0
-10644,-1388,-5392,874,1373,2322,2025-01-29 12:02:10,0.0
-11392,-1188,-5712,1001,1209,2551,2025-01-29 12:02:10,0.0
-11652,-856,-5920,1050,553,2633,2025-01-29 12:02:10,0.0
-11568,-360,-5680,1156,-174,2422,2025-01-29 12:02:10,0.0
-11592,-244,-5356,1161,-1034,2048,2025-01-29 12:02:10,0.0
-11328,-56,-4960,1244,-1625,1682,2025-01-29 12:02:10,0.0
-10972,-52,-4788,1438,-1821,1338,2025-01-29 12:02:10,0.0
-10704,-164,-4932,1618,-1542,861,2025-01-29 12:02:10,0.0
-10956,-408,-4656,1782,-867,448,2025-01-29 12:02:10,0.0
-11272,-700,-4112,1898,-655,225,2025-01-29 12:02:10,0.0
-11388,-952,-3660,2193,-623,122,2025-01-29 12:02:10,0.0
-11752,-1396,-3908,2774,-245,438,2025-01-29 12:02:10,0.0
-11620,-1128,-4508,3254,668,810,2025-01-29 12:02:10,0.0
-11888,-584,-4616,3422,1229,844,2025-01-29 12:02:10,0.0
-12576,-112,-4820,3515,1648,958,2025-01-29 12:02:10,0.0
-13408,136,-5284,3688,2103,1338,2025-01-29 12:02:10,
-13548,-200,-6388,3714,2330,1663,2025-01-29 12:02:10,0.0
-13476,-1788,-6420,3506,2048,1477,2025-01-29 12:02:10,0.0
-14132,-2252,-5276,3644,1662,1187,2025-01-29 12:02:10,0.0
-14640,-1476,-4484,3992,1060,1687,2025-01-29 12:02:10,0.0
-15080,-1388,-4944,4321,1209,2885,2025-01-29 12:02:10,0.0
-14148,-2716,-5800,4456,2047,3421,2025-01-29 12:02:10,0.0
-14384,-2588,-6768,4582,2809,3371,2025-01-29 12:02:10,0.0
-14332,-1064,-7804,4312,3297,3366,2025-01-29 12:02:10,0.0
-14064,1968,-10168,3483,3966,2807,2025-01-29 12:02:10,0.0
-14136,3760,-12248,2251,5060,1946,2025-01-29 12:02:10,0.0
-13888,3824,-13948,348,4002,650,2025-01-29 12:02:10,0.0
-12088,996,-13420,-2241,-1845,-1028,2025-01-29 12:02:10,0.0
-11788,-1620,-11224,-2978,-7462,-1915,2025-01-29 12:02:10,0.0
-11016,-3344,-8436,-3051,-10308,-1614,2025-01-29 12:02:10,0.0
-8212,-4388,-6056,-1583,-10079,-521,2025-01-29 12:02:10,0.0
-6044,-3992,-6468,-145,-7381,12,2025-01-29 12:02:10,0.0
-4892,-2612,-6980,586,-2714,-658,2025-01-29 12:02:10,0.0
-5248,-1248,-6472,1201,2162,-2515,2025-01-29 12:02:10,0.0
-8188,-540,-6524,1485,5330,-3971,2025-01-29 12:02:10,0.0
-10728,-424,-7108,1436,5956,-4069,2025-01-29 12:02:10,0.0
-12536,-936,-7548,1065,5381,-3854,2025-01-29 12:02:10,0.0
-13876,-1384,-7936,482,3841,-3600,2025-01-29 12:02:10,0.0
-14272,-2200,-8284,-115,1432,-3303,2025-01-29 12:02:10,0.0
-14100,-3060,-8084,-523,-1281,-2933,2025-01-29 12:02:10,0.0
-13112,-3056,-7868,-788,-3225,-2339,2025-01-29 12:02:10,0.0
-10104,-1848,-6132,-907,-4493,-2154,2025-01-29 12:02:10,0.0
-8660,-1188,-5744,-1190,-3945,-2258,2025-01-29 12:02:10,0.0
-7576,-952,-5032,-1568,-1800,-2843,2025-01-29 12:02:11,0.0
-7332,-1616,-5224,-1977,1101,-3794,2025-01-29 12:02:11,0.0
-8236,-2544,-5088,-2279,3106,-4553,2025-01-29 12:02:11,0.0
-9908,-3492,-5520,-2305,3810,-5022,2025-01-29 12:02:11,0.0
-12036,-3888,-6164,-2244,4167,-4581,2025-01-29 12:02:11,0.0
-13768,-3488,-6800,-2319,2899,-3140,2025-01-29 12:02:11,0.0
-13568,-2388,-6364,-2665,863,-1707,2025-01-29 12:02:11,0.0
-12156,-1684,-5784,-2811,-686,-1511,2025-01-29 12:02:11,0.0
-11636,-1636,-4964,-2994,-1574,-1381,2025-01-29 12:02:11,0.0
-11324,-2516,-4108,-2977,-1540,-1044,2025-01-29 12:02:11,0.0
-11196,-3608,-4012,-2701,-529,-620,2025-01-29 12:02:11,0.0
-11552,-3964,-4696,-2564,211,-347,2025-01-29 12:02:11,0.0
-11632,-3576,-5128,-2533,245,-27,2025-01-29 12:02:11,0.0
-11304,-3128,-5564,-2445,47,57,2025-01-29 12:02:11,0.0
-10800,-2676,-5784,-2683,394,-57,2025-01-29 12:02:11,0.0
-10744,-2420,-5408,-2781,1223,-382,2025-01-29 12:02:11,0.0
-11040,-2532,-5424,-2921,1920,-858,2025-01-29 12:02:11,0.0
-11588,-2156,-6016,-3291,2183,-1213,2025-01-29 12:02:11,0.0
-11944,-2200,-6336,-3652,1939,-1472,2025-01-29 12:02:11,0.0
-12192,-2672,-6268,-3655,1503,-1766,2025-01-29 12:02:11,0.0
-12536,-3216,-6556,-3643,893,-2195,2025-01-29 12:02:11,0.0
-12848,-3524,-6228,-3826,223,-2632,2025-01-29 12:02:11,0.0
-13460,-3096,-5700,-4089,-517,-2738,2025-01-29 12:02:11,0.0
-13208,-2556,-4960,-4366,-1237,-2729,2025-01-29 12:02:11,0.0
-13232,-2508,-4584,-4670,-1292,-2747,2025-01-29 12:02:11,0.0
-12588,-3532,-4204,-4607,-611,-3081,2025-01-29 12:02:11,0.0
-12308,-4292,-6840,-3971,739,-4049,2025-01-29 12:02:11,0.0
-12676,-5328,-8000,-3557,2275,-4984,2025-01-29 12:02:11,0.0
-13320,-6416,-6672,-2134,2815,-5847,2025-01-29 12:02:11,0.0
-14964,-6976,-6428,-327,1637,-6029,2025-01-29 12:02:11,0.0
-16740,-6520,-7688,1096,-249,-4491,2025-01-29 12:02:11,0.0
-17308,-5844,-9144,1720,-2968,-1040,2025-01-29 12:02:11,0.0
-15384,-5256,-9660,1622,-4936,1402,2025-01-29 12:02:11,0.0
-12592,-4684,-9616,1278,-5776,2351,2025-01-29 12:02:11,0.0
-9972,-4248,-9968,512,-5599,3256,2025-01-29 12:02:11,0.0
-7904,-3224,-9800,-36,-4379,3762,2025-01-29 12:02:11,0.0
-6228,-1816,-9376,-749,-2415,3544,2025-01-29 12:02:11,0.0
-5772,-504,-8176,-1192,-671,2745,2025-01-29 12:02:11,0.0
-5980,240,-6992,-734,1267,1508,2025-01-29 12:02:11,0.0
-7132,268,-7200,-90,3264,-15,2025-01-29 12:02:11,0.0
-9580,-424,-7892,-214,4832,-649,2025-01-29 12:02:11,0.0
-11488,-1480,-7932,-484,5630,-480,2025-01-29 12:02:11,0.0
-12780,-2824,-7860,-595,5217,31,2025-01-29 12:02:11,0.0
-14188,-3932,-6932,-350,3991,848,2025-01-29 12:02:11,0.0
-14952,-3992,-6832,299,1510,2208,2025-01-29 12:02:11,0.0
-14512,-2988,-7340,552,-1226,3358,2025-01-29 12:02:11,0.0
-12948,-1820,-7424,624,-3614,4034,2025-01-29 12:02:11,0.0
-11372,-1032,-7176,688,-4770,4296,2025-01-29 12:02:11,0.0
-9692,-548,-6420,738,-4318,4301,2025-01-29 12:02:11,0.0
-8760,-704,-5780,961,-2737,4014,2025-01-29 12:02:11,0.0
-8420,-1184,-5336,1359,-439,3400,2025-01-29 12:02:11,0.0
-8620,-1612,-5160,1728,1149,2770,2025-01-29 12:02:11,0.0
-9748,-1724,-5348,1891,1722,2553,2025-01-29 12:02:11,0.0
-10848,-1216,-5228,1906,1626,2663,2025-01-29 12:02:11,0.0
-11252,-320,-5676,1865,1117,2733,2025-01-29 12:02:11,0.0
-11400,440,-5884,1763,524,2315,2025-01-29 12:02:11,0.0
-11232,816,-6276,1634,-145,1478,2025-01-29 12:02:11,0.0
-11040,300,-6036,1461,-790,391,2025-01-29 12:02:11,0.0
-11504,-280,-5652,1163,-1184,-93,2025-01-29 12:02:11,0.0
-11240,-776,-4812,1061,-1437,-467,2025-01-29 12:02:12,0.0
-11032,-588,-4872,1022,-1669,-871,2025-01-29 12:02:12,0.0
-11424,-300,-4712,954,-1671,-1095,2025-01-29 12:02:12,0.0
-11808,-300,-5016,991,-1535,-1142,2025-01-29 12:02:12,0.0
-12276,-572,-5016,858,-1268,-957,2025-01-29 12:02:12,0.0
-12572,-676,-4472,863,-1213,-630,2025-01-29 12:02:12,0.0
-12172,-996,-4348,935,-1447,-291,2025-01-29 12:02:12,0.0
-11352,-1380,-4020,1138,-1261,-127,2025-01-29 12:02:12,0.0
-10788,-1460,-3920,1586,-354,-92,2025-01-29 12:02:12,0.0
-13060,-2768,-4876,3299,4731,1042,2025-01-29 12:02:12,0.0
-13740,-3568,-4296,3967,4587,1478,2025-01-29 12:02:12,0.0
-14920,-2944,-4376,4520,3960,2075,2025-01-29 12:02:12,0.0
-15084,-1784,-4196,5004,2663,2483,2025-01-29 12:02:12,0.0
-15356,-1056,-5160,5217,1657,2648,2025-01-29 12:02:12,
-15336,-1420,-7416,4911,1412,2994,2025-01-29 12:02:12,0.0
-15008,-1240,-9212,4206,1745,3307,2025-01-29 12:02:12,0.0
-15552,748,-10176,3024,2551,3652,2025-01-29 12:02:12,0.0
-16236,2656,-11040,1778,3486,4078,2025-01-29 12:02:12,0.0
-16016,3596,-12156,-222,3915,3869,2025-01-29 12:02:12,0.0
-14776,3516,-12324,-3017,2337,2611,2025-01-29 12:02:12,0.0
-12424,2748,-11512,-4407,-2573,971,2025-01-29 12:02:12,0.0
-9832,308,-10060,-4684,-10320,-1054,2025-01-29 12:02:12,0.0
-9020,-1292,-6768,-5520,-11570,-2006,2025-01-29 12:02:12,0.0
-6732,-2576,-2584,-3532,-10115,-2205,2025-01-29 12:02:12,0.0
-4904,-4448,-3380,-460,-7067,-2498,2025-01-29 12:02:12,0.0
-4468,-5212,-5496,280,-2076,-2716,2025-01-29 12:02:12,0.0
-5324,-5156,-7224,171,4043,-2824,2025-01-29 12:02:12,0.0
-6984,-3784,-7248,1,8323,-3232,2025-01-29 12:02:12,0.0
-10448,-2292,-8524,-187,11240,-4065,2025-01-29 12:02:12,0.0
-13368,-1280,-8756,-217,11580,-4033,2025-01-29 12:02:12,0.0
-15728,-572,-8384,-689,8164,-3512,2025-01-29 12:02:12,0.0
-16144,-752,-8456,-1638,1755,-3083,2025-01-29 12:02:12,0.0
-14444,-1284,-8972,-1962,-5645,-3138,2025-01-29 12:02:12,0.0
-13644,-2140,-8460,-2697,-9575,-3362,2025-01-29 12:02:12,0.0
-11000,-2780,-7340,-3029,-9582,-3413,2025-01-29 12:02:12,0.0
-8852,-3372,-6036,-2680,-8813,-3476,2025-01-29 12:02:12,0.0
-6808,-3664,-5648,-2252,-6285,-3648,2025-01-29 12:02:12,0.0
-6124,-3532,-5504,-2417,-2195,-3977,2025-01-29 12:02:12,0.0
-6872,-3328,-4600,-2499,2400,-4329,2025-01-29 12:02:12,0.0
-8188,-3216,-4328,-2145,5100,-4569,2025-01-29 12:02:12,0.0
-9912,-3072,-4920,-1895,5982,-5054,2025-01-29 12:02:12,0.0
-11572,-3160,-5472,-1748,5863,-5369,2025-01-29 12:02:12,0.0
-13712,-3520,-5084,-1645,5049,-4993,2025-01-29 12:02:12,0.0
-14460,-4332,-5056,-1446,2707,-3670,2025-01-29 12:02:12,0.0
-13964,-4768,-5148,-995,510,-2046,2025-01-29 12:02:12,0.0
-12568,-4488,-5260,-954,-392,-777,2025-01-29 12:02:12,0.0
-11476,-4092,-4736,-833,-667,-511,2025-01-29 12:02:12,0.0
-11000,-3076,-4980,-1000,-475,-81,2025-01-29 12:02:12,0.0
-10924,-2332,-4856,-1252,46,421,2025-01-29 12:02:12,0.0
-10776,-1896,-5040,-1706,564,815,2025-01-29 12:02:12,0.0
-10268,-2140,-5084,-2116,972,808,2025-01-29 12:02:12,0.0
-11140,-2828,-4668,-2427,1474,653,2025-01-29 12:02:12,0.0
-11268,-3440,-5080,-2599,1917,154,2025-01-29 12:02:12,0.0
-12540,-2752,-5276,-2944,1485,-298,2025-01-29 12:02:12,0.0
-12816,-1872,-5852,-3300,863,-500,2025-01-29 12:02:12,0.0
-12588,-1084,-6640,-3872,414,-1026,2025-01-29 12:02:12,0.0
-11872,-1340,-6920,-4710,-183,-2203,2025-01-29 12:02:12,0.0
-12840,-2440,-6288,-5458,-249,-3502,2025-01-29 12:02:12,0.0
-13012,-4000,-4164,-5327,-266,-4648,2025-01-29 12:02:12,0.0
-13432,-5396,-3192,-4815,-1437,-5354,2025-01-29 12:02:12,0.0
-13348,-6392,-2564,-4368,-2706,-4836,2025-01-29 12:02:12,0.0
-13232,-6768,-3920,-3848,-2844,-3655,2025-01-29 12:02:12,0.0
-12720,-5780,-8068,-2998,-722,-3113,2025-01-29 12:02:12,0.0
-13168,-6732,-9664,-2651,3538,-4235,2025-01-29 12:02:13,0.0
-13720,-8708,-6904,-932,5200,-6212,2025-01-29 12:02:13,0.0
-16552,-9860,-6328,1629,2162,-6485,2025-01-29 12:02:13,0.0
-19908,-9536,-7668,3091,-2182,-2372,2025-01-29 12:02:13,0.0
-18816,-7204,-9424,3208,-4371,3077,2025-01-29 12:02:13,0.0
-14304,-4592,-9644,2995,-5820,5018,2025-01-29 12:02:13,0.0
-11100,-1084,-11552,1862,-7718,5152,2025-01-29 12:02:13,0.0
-8936,-164,-11720,82,-7725,5637,2025-01-29 12:02:13,0.0
-6800,496,-10772,-1495,-6099,5573,2025-01-29 12:02:13,0.0
-4756,996,-9720,-2082,-3304,4063,2025-01-29 12:02:13,0.0
-4372,1152,-8928,-2123,-184,1634,2025-01-29 12:02:13,0.0
-5388,448,-8356,-2012,3063,-1433,2025-01-29 12:02:13,0.0
-9228,-768,-7680,-2219,4979,-2478,2025-01-29 12:02:13,0.0
-11296,-2080,-7488,-2014,6084,-2217,2025-01-29 12:02:13,0.0
-13056,-3496,-7532,-1783,5649,-1549,2025-01-29 12:02:13,0.0
-13868,-4564,-8172,-1550,3392,-435,2025-01-29 12:02:13,0.0
-14420,-4592,-7616,-1063,1060,825,2025-01-29 12:02:13,0.0
-13444,-3580,-7120,-99,-1308,2304,2025-01-29 12:02:13,0.0
-12104,-2372,-6820,360,-2378,3204,2025-01-29 12:02:13,0.0
-10608,-1560,-7004,564,-2800,3524,2025-01-29 12:02:13,0.0
-9216,-716,-7036,511,-2475,3354,2025-01-29 12:02:13,0.0
-8752,-388,-6428,464,-1189,2885,2025-01-29 12:02:13,0.0
-8956,-236,-6336,461,539,2480,2025-01-29 12:02:13,0.0
-9756,220,-6268,524,2205,2285,2025-01-29 12:02:13,0.0
-10364,108,-6504,550,2861,2296,2025-01-29 12:02:13,0.0
-10744,-500,-6576,573,2451,1940,2025-01-29 12:02:13,0.0
-11424,-1164,-5664,601,1670,1506,2025-01-29 12:02:13,0.0
-11696,-1584,-5204,798,640,1351,2025-01-29 12:02:13,0.0
-11324,-1564,-5260,1064,-367,1217,2025-01-29 12:02:13,0.0
-10860,-1324,-5452,1276,-1065,926,2025-01-29 12:02:13,0.0
-10376,-1280,-5476,1525,-1222,616,2025-01-29 12:02:13,0.0
-10280,-996,-5176,1689,-823,339,2025-01-29 12:02:13,0.0
-10412,-840,-4880,1713,-477,39,2025-01-29 12:02:13,0.0
-10816,-824,-4804,1833,-175,-334,2025-01-29 12:02:13,0.0
-11512,-860,-4724,2026,-155,-571,2025-01-29 12:02:13,0.0
-12192,-908,-5144,2223,-395,-617,2025-01-29 12:02:13,0.0
-12688,-1036,-5180,2340,-1070,-358,2025-01-29 12:02:13,0.0
-12308,-1212,-5120,2394,-1615,-209,2025-01-29 12:02:13,0.0
-12336,-1508,-4924,2524,-1940,-114,2025-01-29 12:02:13,0.0
-11996,-1608,-5308,2564,-1563,48,2025-01-29 12:02:13,0.0
-12088,-1340,-6060,2387,-450,254,2025-01-29 12:02:13,0.0
-12256,-696,-6924,2003,290,382,2025-01-29 12:02:13,0.0
-13312,12,-7012,1367,530,1042,2025-01-29 12:02:13,0.0
-13932,-328,-5428,1155,370,1525,2025-01-29 12:02:13,0.0
-14352,-1420,-3672,1311,375,1647,2025-01-29 12:02:13,0.0
-14596,-2728,-3312,1826,891,1981,2025-01-29 12:02:13,0.0
-13996,-3120,-4996,2636,1183,1849,2025-01-29 12:02:13,0.0
-14480,-1932,-6696,3042,1328,1806,2025-01-29 12:02:13,0.0
-14448,-524,-7892,2857,1732,2128,2025-01-29 12:02:13,0.0
-13932,184,-9328,2160,2146,1787,2025-01-29 12:02:13,0.0
-13908,436,-10556,964,1497,894,2025-01-29 12:02:13,
-14320,368,-11192,-494,32,262,2025-01-29 12:02:13,0.0
-12908,-884,-11240,-1020,-1249,141,2025-01-29 12:02:13,0.0
-11036,-2416,-9604,-614,-3249,-351,2025-01-29 12:02:13,0.0
-9428,-3484,-7448,-50,-4806,-843,2025-01-29 12:02:13,0.0
-7292,-4184,-4456,1519,-4805,-1309,2025-01-29 12:02:13,0.0
-6724,-4624,-4468,2758,-3491,-1284,2025-01-29 12:02:13,0.0
-7080,-5036,-5764,3021,-367,-758,2025-01-29 12:02:13,0.0
-7852,-3940,-7136,2966,3649,-221,2025-01-29 12:02:13,0.0
-8780,-2720,-7848,2425,5632,-401,2025-01-29 12:02:13,0.0
-10568,-2320,-7748,1809,6235,-931,2025-01-29 12:02:13,0.0
-12608,-2452,-7320,1323,4955,-1683,2025-01-29 12:02:14,0.0
-13992,-2676,-7044,1309,2654,-1702,2025-01-29 12:02:14,0.0
-14120,-3036,-7136,1317,-493,-1246,2025-01-29 12:02:14,0.0
-13308,-3384,-6672,1315,-3093,-709,2025-01-29 12:02:14,0.0
-11372,-3576,-6700,1281,-4217,-698,2025-01-29 12:02:14,0.0
-9960,-3424,-6732,1019,-3681,-637,2025-01-29 12:02:14,0.0
-8804,-3268,-6420,703,-1962,-703,2025-01-29 12:02:14,0.0
-8664,-3312,-6080,469,-18,-901,2025-01-29 12:02:14,0.0
-9236,-3452,-6136,201,1620,-1093,2025-01-29 12:02:14,0.0
-10100,-3388,-6372,-53,2428,-1184,2025-01-29 12:02:14,0.0
-10988,-3300,-6436,-283,2702,-1292,2025-01-29 12:02:14,0.0
-11940,-3212,-6700,-456,2500,-1389,2025-01-29 12:02:14,0.0
-12600,-3140,-6640,-807,1854,-1112,2025-01-29 12:02:14,0.0
-12848,-2872,-6380,-1303,707,-664,2025-01-29 12:02:14,0.0
-12708,-2984,-5824,-1366,-272,-508,2025-01-29 12:02:14,0.0
-12200,-3448,-6212,-1279,-1068,-346,2025-01-29 12:02:14,0.0
-11100,-3904,-6396,-1131,-1213,-411,2025-01-29 12:02:14,0.0
-10704,-3852,-6136,-1082,-566,-629,2025-01-29 12:02:14,0.0
-10836,-3492,-6020,-1081,356,-714,2025-01-29 12:02:14,0.0
-11164,-3044,-5960,-1158,836,-696,2025-01-29 12:02:14,0.0
-11728,-2992,-6028,-1285,1010,-696,2025-01-29 12:02:14,0.0
-12044,-3096,-5864,-1430,879,-773,2025-01-29 12:02:14,0.0
-12436,-3304,-5940,-1474,387,-800,2025-01-29 12:02:14,0.0
-12192,-3764,-6060,-1557,-252,-697,2025-01-29 12:02:14,0.0
-11928,-4000,-6048,-1479,-685,-672,2025-01-29 12:02:14,0.0
-11684,-3868,-6036,-1498,-897,-623,2025-01-29 12:02:14,0.0
-11388,-3516,-6016,-1555,-858,-596,2025-01-29 12:02:14,0.0
-11244,-3064,-6192,-1817,-455,-627,2025-01-29 12:02:14,0.0
-11516,-2876,-5752,-2064,-193,-701,2025-01-29 12:02:14,0.0
-11672,-3060,-5704,-2284,-204,-720,2025-01-29 12:02:14,0.0
-11912,-3348,-5332,-2424,-332,-651,2025-01-29 12:02:14,0.0
-11844,-3516,-5088,-2454,-323,-550,2025-01-29 12:02:14,0.0
-11612,-3552,-5080,-2590,-239,-467,2025-01-29 12:02:14,0.0
-11980,-3540,-5224,-2654,-114,-366,2025-01-29 12:02:14,0.0
-12248,-3424,-5956,-2828,-184,11,2025-01-29 12:02:14,0.0
-12104,-3452,-6012,-2987,-16,27,2025-01-29 12:02:14,0.0
-12460,-3676,-6548,-2804,-23,23,2025-01-29 12:02:14,0.0
-12400,-4212,-7336,-2408,47,92,2025-01-29 12:02:14,0.0
-12328,-4736,-8080,-987,-117,-166,2025-01-29 12:02:14,0.0
-12300,-4208,-8088,-456,-680,171,2025-01-29 12:02:14,0.0
-12388,-3480,-6880,-476,-1404,837,2025-01-29 12:02:14,0.0
-11844,-3296,-5756,-100,-1871,1952,2025-01-29 12:02:14,0.0
-10916,-2372,-6712,210,-1511,2460,2025-01-29 12:02:14,0.0
-10288,-1152,-7708,-306,-626,2634,2025-01-29 12:02:14,0.0
-9700,-1080,-7608,-875,843,2296,2025-01-29 12:02:14,0.0
-9788,-1800,-7320,-1231,2434,1467,2025-01-29 12:02:14,0.0
-10820,-2380,-6920,-1180,3451,1165,2025-01-29 12:02:14,0.0
-11188,-2468,-6640,-1023,3739,938,2025-01-29 12:02:14,0.0
-11764,-1328,-6016,-628,3438,898,2025-01-29 12:02:14,0.0
-11684,24,-6768,-549,3033,1154,2025-01-29 12:02:14,0.0
-11356,996,-7268,-909,2605,978,2025-01-29 12:02:14,0.0
-11304,820,-7096,-1388,2201,111,2025-01-29 12:02:14,0.0
-12700,-412,-6656,-1635,2192,-117,2025-01-29 12:02:14,0.0
-13256,-1448,-6676,-1538,2309,224,2025-01-29 12:02:14,0.0
-13616,-1976,-6752,-1415,1746,743,2025-01-29 12:02:14,0.0
-13224,-1396,-7320,-1360,719,1258,2025-01-29 12:02:14,0.0
-12268,-648,-7556,-1530,-135,1258,2025-01-29 12:02:14,0.0
-11360,-324,-7080,-1665,-188,1246,2025-01-29 12:02:14,0.0
-10900,-320,-6292,-1703,105,1107,2025-01-29 12:02:14,0.0
-10588,-460,-6068,-1671,506,936,2025-01-29 12:02:14,0.0
-10868,-488,-5908,-1412,885,743,2025-01-29 12:02:14,0.0
-10912,-640,-6152,-899,833,670,2025-01-29 12:02:15,0.0
-10960,-588,-6692,-523,644,404,2025-01-29 12:02:15,0.0
-10752,-524,-6352,-280,388,-84,2025-01-29 12:02:15,0.0
-10796,-408,-6032,76,62,-695,2025-01-29 12:02:15,0.0
-11020,-372,-5784,461,-397,-1274,2025-01-29 12:02:15,0.0
-11384,-620,-6476,591,-775,-1661,2025-01-29 12:02:15,0.0
-11268,-792,-7768,495,-633,-1846,2025-01-29 12:02:15,0.0
-11036,-832,-8164,83,-233,-2082,2025-01-29 12:02:15,0.0
-10800,-1068,-7328,-132,-286,-2284,2025-01-29 12:02:15,0.0
-10776,-1272,-6208,80,-705,-2411,2025-01-29 12:02:15,0.0
-10880,-1468,-5884,323,-978,-2490,2025-01-29 12:02:15,0.0
-10972,-1800,-6300,515,-598,-2529,2025-01-29 12:02:15,0.0
-11380,-2384,-6640,862,-180,-2233,2025-01-29 12:02:15,0.0
-11644,-2892,-6908,1194,32,-1732,2025-01-29 12:02:15,0.0
-11796,-3116,-7228,1383,207,-1088,2025-01-29 12:02:15,0.0
-11760,-2312,-7524,1339,557,-472,2025-01-29 12:02:15,0.0
-11576,-1640,-7972,1087,1053,-267,2025-01-29 12:02:15,0.0
-11728,-1328,-7920,877,1328,-90,2025-01-29 12:02:15,0.0
-11596,-1332,-7568,788,1023,-16,2025-01-29 12:02:15,0.0
-11420,-1320,-7480,839,535,-124,2025-01-29 12:02:15,0.0
-11248,-1512,-7760,785,150,-123,2025-01-29 12:02:15,0.0
-10860,-1860,-7664,655,234,-159,2025-01-29 12:02:15,0.0
-10920,-2320,-7168,531,799,-187,2025-01-29 12:02:15,0.0
-11360,-2480,-6920,491,1259,-309,2025-01-29 12:02:15,0.0
-11904,-2220,-6748,527,1285,-187,2025-01-29 12:02:15,0.0
-12096,-2140,-6800,400,1115,-84,2025-01-29 12:02:15,0.0
-12040,-2144,-6780,366,764,-28,2025-01-29 12:02:15,0.0
-11804,-2084,-6748,333,490,43,2025-01-29 12:02:15,0.0
-11472,-2012,-6592,314,452,-4,2025-01-29 12:02:15,
-11208,-2136,-6740,277,531,-43,2025-01-29 12:02:15,0.0
-11164,-2332,-6608,323,742,-82,2025-01-29 12:02:15,0.0
-11172,-2440,-6696,379,884,-59,2025-01-29 12:02:15,0.0
-11404,-2488,-6636,555,1040,-115,2025-01-29 12:02:15,0.0
-11692,-2276,-6764,565,986,-31,2025-01-29 12:02:15,0.0
-11612,-2236,-7116,557,832,-34,2025-01-29 12:02:15,0.0
-11472,-2228,-7316,509,719,-111,2025-01-29 12:02:15,0.0
-11344,-2324,-7168,490,752,-114,2025-01-29 12:02:15,0.0
-11180,-2204,-7240,399,830,-117,2025-01-29 12:02:15,0.0
-11320,-2256,-7108,303,899,-163,2025-01-29 12:02:15,0.0
-11384,-2304,-7032,223,867,-133,2025-01-29 12:02:15,0.0
-11268,-2372,-7132,134,757,-203,2025-01-29 12:02:15,0.0
-11460,-2452,-7508,68,676,-172,2025-01-29 12:02:15,0.0
-11336,-2328,-7124,44,718,-133,2025-01-29 12:02:15,0.0
-11556,-2432,-7188,30,578,-169,2025-01-29 12:02:15,0.0
-11456,-2564,-7452,78,426,-101,2025-01-29 12:02:15,0.0
-11224,-2764,-7420,164,427,-25,2025-01-29 12:02:15,0.0
-11132,-2952,-7200,303,472,86,2025-01-29 12:02:15,0.0
-10856,-2996,-7140,484,612,155,2025-01-29 12:02:15,0.0
-10872,-2640,-7424,612,688,102,2025-01-29 12:02:15,0.0
-10976,-2372,-7612,657,722,100,2025-01-29 12:02:15,0.0
-11252,-2116,-8360,606,704,54,2025-01-29 12:02:15,0.0
-11388,-1928,-8612,570,534,107,2025-01-29 12:02:15,0.0
-11260,-2180,-8612,431,285,172,2025-01-29 12:02:15,0.0
-10984,-2500,-8264,268,-133,62,2025-01-29 12:02:15,0.0
-10636,-2392,-7900,296,-629,91,2025-01-29 12:02:15,0.0
-9916,-2032,-7952,154,-1116,28,2025-01-29 12:02:15,0.0
-9068,-1508,-7508,-251,-1256,-174,2025-01-29 12:02:15,0.0
-8600,-1152,-7184,-744,-1085,-303,2025-01-29 12:02:15,0.0
-7980,-992,-5852,-1368,-800,-464,2025-01-29 12:02:16,0.0
-7776,-1032,-4888,-1407,-892,-546,2025-01-29 12:02:16,0.0
-6940,-1236,-5236,-1417,-1430,-645,2025-01-29 12:02:16,0.0
-4508,-576,-5904,-2082,-4289,-921,2025-01-29 12:02:16,0.0
-5720,-948,-3920,-775,-793,-967,2025-01-29 12:02:16,0.0
-5348,-1272,-5932,-606,4499,-111,2025-01-29 12:02:16,0.0
-3208,-1048,-5388,-766,5819,167,2025-01-29 12:02:16,0.0
-3744,-1748,-2380,-1983,3813,-568,2025-01-29 12:02:16,0.0
-5860,-2580,-308,-2056,3408,-691,2025-01-29 12:02:16,0.0
-7988,-2864,-480,-1311,1082,8,2025-01-29 12:02:16,0.0
-7524,-2744,-2132,-1058,-337,1090,2025-01-29 12:02:16,0.0
-6536,-1816,-2920,-534,-2289,1076,2025-01-29 12:02:16,0.0
-6132,-844,-3152,-323,-4457,1366,2025-01-29 12:02:16,0.0
-4992,-148,-2348,-248,-6263,1315,2025-01-29 12:02:16,0.0
-5288,496,-2780,-192,-5187,1163,2025-01-29 12:02:16,0.0
-6308,420,-3596,112,-1556,1796,2025-01-29 12:02:16,0.0
-6660,656,-5180,-295,859,1974,2025-01-29 12:02:16,0.0
-7792,1760,-5112,-1256,-463,624,2025-01-29 12:02:16,0.0
-9488,504,-6280,-2292,-1019,99,2025-01-29 12:02:16,0.0
-10200,-1136,-7576,-3618,-3266,405,2025-01-29 12:02:16,0.0
-16384,-3348,-9272,-4209,-4571,128,2025-01-29 12:02:16,0.0
-15592,-3324,-5672,-3435,-6003,-749,2025-01-29 12:02:16,0.0
-16792,-2620,-5500,-3488,-6340,-34,2025-01-29 12:02:16,0.0
-14560,-2208,-7156,-2826,-5808,799,2025-01-29 12:02:16,0.0
-12212,-1928,-7448,-3451,-1674,1305,2025-01-29 12:02:16,0.0
-11076,-2632,-5880,-2889,885,393,2025-01-29 12:02:16,0.0
-12240,-2208,-5476,-1945,1071,-385,2025-01-29 12:02:16,0.0
-13880,-1804,-6532,-1752,-738,265,2025-01-29 12:02:16,0.0
-16832,-1672,-6340,-1686,-3733,1623,2025-01-29 12:02:16,0.0
-17500,-2412,-5740,-881,-3578,1338,2025-01-29 12:02:16,0.0
-17456,-1676,-7876,-268,-3425,1165,2025-01-29 12:02:16,0.0
-16760,-632,-8004,-444,-4018,1590,2025-01-29 12:02:16,0.0
-15992,-448,-7836,-281,-4486,1502,2025-01-29 12:02:16,0.0
-15956,-1432,-6768,-116,-5345,1049,2025-01-29 12:02:16,0.0
-15644,-1796,-6048,615,-8129,-3,2025-01-29 12:02:16,0.0
-19808,-932,-5568,775,-9059,-435,2025-01-29 12:02:16,0.0
-20228,28,-5556,356,-10229,10,2025-01-29 12:02:16,0.0
-18940,-996,-6144,-274,-9471,506,2025-01-29 12:02:16,0.0
-18432,-2768,-4584,-434,-10265,1306,2025-01-29 12:02:16,0.0
-17152,-2948,-4120,-393,-12382,1121,2025-01-29 12:02:16,0.0
-17608,-888,-2176,-412,-12095,246,2025-01-29 12:02:16,0.0
-16768,892,-2444,-758,-9647,146,2025-01-29 12:02:16,0.0
-16356,1200,-1588,-481,-7446,-605,2025-01-29 12:02:16,0.0
-17344,208,-1376,-458,-4123,-1090,2025-01-29 12:02:16,0.0
-17956,-400,-2520,-645,-3056,-1098,2025-01-29 12:02:16,0.0
-19528,-1704,-3356,-886,-1717,-891,2025-01-29 12:02:16,0.0
-20424,-2476,-3340,-901,-1246,-310,2025-01-29 12:02:16,0.0
-20584,-1964,-3992,-937,-459,222,2025-01-29 12:02:16,0.0
-19756,-776,-4216,-1164,13,466,2025-01-29 12:02:16,0.0
-17488,388,-3760,-1426,-512,-20,2025-01-29 12:02:16,0.0
-14916,-112,-2560,-1430,-568,-653,2025-01-29 12:02:16,0.0
-13828,-1396,-1308,-1215,1127,-975,2025-01-29 12:02:16,0.0
-13384,-2048,-1236,-834,2978,-1013,2025-01-29 12:02:16,0.0
-13396,-1868,-1404,-609,3778,-824,2025-01-29 12:02:16,0.0
-13824,-1488,-1280,-442,3749,-442,2025-01-29 12:02:16,0.0
-13096,-1308,-800,-146,2973,-223,2025-01-29 12:02:16,0.0
-12508,-776,-784,123,2309,-184,2025-01-29 12:02:16,0.0
-11864,-384,-644,192,2129,-9,2025-01-29 12:02:16,0.0
-11644,-124,-608,26,2524,179,2025-01-29 12:02:16,0.0
-11404,-120,-748,-5,2980,401,2025-01-29 12:02:16,0.0
-11348,-196,-800,41,2827,362,2025-01-29 12:02:16,0.0
-12356,-164,-1228,-103,2049,572,2025-01-29 12:02:16,0.0
-13056,-76,-1368,-346,1028,716,2025-01-29 12:02:17,0.0
-13112,-132,-1348,-347,83,761,2025-01-29 12:02:17,0.0
-12876,0,-1712,-378,-652,614,2025-01-29 12:02:17,0.0
-12576,104,-1804,-465,-724,425,2025-01-29 12:02:17,0.0
-12496,-216,-1300,-284,-656,110,2025-01-29 12:02:17,0.0
-12928,-804,-1380,-107,-901,-26,2025-01-29 12:02:17,0.0
-13144,-1072,-1512,129,-1356,85,2025-01-29 12:02:17,0.0
-13228,-856,-1804,311,-1681,143,2025-01-29 12:02:17,0.0
-13412,-568,-1992,383,-1948,108,2025-01-29 12:02:17,
-13732,-192,-2204,378,-2115,69,2025-01-29 12:02:17,0.0
-13536,-316,-1948,332,-1948,-71,2025-01-29 12:02:17,0.0
-13364,-644,-1848,346,-1116,-284,2025-01-29 12:02:17,0.0
-13624,-700,-1544,463,-377,-393,2025-01-29 12:02:17,0.0
-14020,-724,-1664,439,-331,-287,2025-01-29 12:02:17,0.0
-14140,-320,-2036,374,-396,-159,2025-01-29 12:02:17,0.0
-14128,156,-2296,138,-495,-35,2025-01-29 12:02:17,0.0
-14392,316,-2296,-231,-717,22,2025-01-29 12:02:17,0.0
-14032,-568,-1780,-281,-649,-75,2025-01-29 12:02:17,0.0
-13728,-1356,-1120,-129,-125,-162,2025-01-29 12:02:17,0.0
-13600,-1404,-1036,145,418,-292,2025-01-29 12:02:17,0.0
-13836,-920,-1308,352,875,-429,2025-01-29 12:02:17,0.0
-14036,-184,-2000,273,967,-335,2025-01-29 12:02:17,0.0
-14052,32,-2360,33,620,-106,2025-01-29 12:02:17,0.0
-13728,-60,-2076,-93,302,2,2025-01-29 12:02:17,0.0
-13404,-368,-1976,-110,255,-89,2025-01-29 12:02:17,0.0
-13276,-712,-1876,-62,208,-232,2025-01-29 12:02:17,0.0
-13292,-840,-1564,-48,113,-309,2025-01-29 12:02:17,0.0
-13188,-848,-1216,-15,26,-364,2025-01-29 12:02:17,0.0
-13056,-680,-1336,4,117,-420,2025-01-29 12:02:17,0.0
-13072,-712,-1884,-35,262,-474,2025-01-29 12:02:17,0.0
-13332,-812,-1816,-29,327,-455,2025-01-29 12:02:17,0.0
-13264,-1108,-1400,106,338,-401,2025-01-29 12:02:17,0.0
-13400,-1064,-1404,145,345,-322,2025-01-29 12:02:17,0.0
-13628,-804,-1644,128,183,-258,2025-01-29 12:02:17,0.0
-13660,-436,-1756,18,-13,-195,2025-01-29 12:02:17,0.0
-13808,-264,-1892,-95,-136,-174,2025-01-29 12:02:17,0.0
-13636,-572,-2004,-164,-320,-218,2025-01-29 12:02:17,0.0
-13436,-1156,-1812,-92,-574,-284,2025-01-29 12:02:17,0.0
-13396,-1384,-1720,69,-702,-446,2025-01-29 12:02:17,0.0
-13536,-1668,-1564,297,-683,-487,2025-01-29 12:02:17,0.0
-13580,-1672,-1488,444,-621,-487,2025-01-29 12:02:17,0.0
-13544,-1348,-1560,520,-522,-468,2025-01-29 12:02:17,0.0
-13652,-376,-1692,345,-491,-487,2025-01-29 12:02:17,0.0
-13660,-16,-1948,67,-370,-497,2025-01-29 12:02:17,0.0
-13672,-136,-1920,-238,-201,-441,2025-01-29 12:02:17,0.0
-13320,-256,-1728,-480,74,-479,2025-01-29 12:02:17,0.0
-13252,-604,-1492,-513,329,-485,2025-01-29 12:02:17,0.0
-13292,-916,-1288,-375,590,-376,2025-01-29 12:02:17,0.0
-13616,-1152,-1232,-161,482,-243,2025-01-29 12:02:17,0.0
-13648,-1036,-1372,-42,216,-133,2025-01-29 12:02:17,0.0
-13740,-944,-1316,124,-10,-107,2025-01-29 12:02:17,0.0
-13732,-876,-1108,215,-232,-139,2025-01-29 12:02:17,0.0
-13536,-564,-1540,235,-316,-182,2025-01-29 12:02:17,0.0
-13472,-168,-1508,69,-25,-274,2025-01-29 12:02:17,0.0
-13452,-340,-1300,-111,192,-273,2025-01-29 12:02:17,0.0
-13544,-756,-1648,-196,360,-197,2025-01-29 12:02:17,0.0
-13648,-820,-1684,-249,340,-148,2025-01-29 12:02:17,0.0
-13676,-744,-1620,-250,177,-111,2025-01-29 12:02:17,0.0
-13776,-672,-1556,-239,24,-136,2025-01-29 12:02:17,0.0
-13612,-612,-1480,-260,-10,-60,2025-01-29 12:02:17,0.0
-13516,-444,-1500,-269,126,26,2025-01-29 12:02:18,0.0
-13784,-420,-1096,-323,300,92,2025-01-29 12:02:18,0.0
-13540,-452,-1480,-370,332,51,2025-01-29 12:02:18,0.0
-13672,-520,-1576,-389,198,118,2025-01-29 12:02:18,0.0
-13736,-676,-1448,-429,-46,185,2025-01-29 12:02:18,0.0
-13576,-768,-1588,-395,-283,250,2025-01-29 12:02:18,0.0
-13408,-612,-1556,-411,-329,191,2025-01-29 12:02:18,0.0
-13312,-296,-1780,-497,-212,-5,2025-01-29 12:02:18,0.0
-13572,-140,-1724,-638,-103,-164,2025-01-29 12:02:18,0.0
-13480,-256,-1668,-687,0,-146,2025-01-29 12:02:18,0.0
-13516,-652,-1440,-642,-77,-38,2025-01-29 12:02:18,0.0
-13340,-988,-1160,-441,-191,-80,2025-01-29 12:02:18,0.0
-13324,-1080,-1076,-299,-82,-138,2025-01-29 12:02:18,0.0
-13400,-972,-1272,-233,24,-221,2025-01-29 12:02:18,0.0
-13620,-672,-1316,-222,98,-272,2025-01-29 12:02:18,0.0
-13768,-384,-1296,-270,101,-206,2025-01-29 12:02:18,0.0
-13704,-364,-1244,-359,80,-88,2025-01-29 12:02:18,0.0
-13696,-484,-1596,-404,47,-55,2025-01-29 12:02:18,0.0
-13716,-688,-1324,-382,-11,-66,2025-01-29 12:02:18,0.0
-13460,-944,-1228,-278,-65,-110,2025-01-29 12:02:18,0.0
-13564,-976,-1260,-175,-64,-118,2025-01-29 12:02:18,0.0
-13592,-788,-1128,-102,11,-111,2025-01-29 12:02:18,0.0
-13540,-580,-1524,-135,111,-136,2025-01-29 12:02:18,0.0
-13340,-512,-1584,-177,104,-180,2025-01-29 12:02:18,0.0
-13456,-472,-1308,-212,110,-231,2025-01-29 12:02:18,0.0
-13456,-484,-1348,-371,100,-254,2025-01-29 12:02:18,0.0
-13496,-580,-1032,-401,129,-267,2025-01-29 12:02:18,0.0
-13540,-660,-1160,-413,181,-192,2025-01-29 12:02:18,0.0
-13652,-924,-1156,-367,208,-220,2025-01-29 12:02:18,0.0
-13796,-916,-1112,-256,187,-223,2025-01-29 12:02:18,0.0
-13792,-804,-1068,-211,121,-229,2025-01-29 12:02:18,0.0
-13636,-700,-1328,-206,76,-154,2025-01-29 12:02:18,0.0
-13536,-556,-1348,-169,151,-113,2025-01-29 12:02:18,0.0
-13380,-500,-1428,-210,204,-116,2025-01-29 12:02:18,0.0
-13508,-512,-1272,-248,298,-102,2025-01-29 12:02:18,0.0
-13516,-596,-1440,-260,352,-130,2025-01-29 12:02:18,0.0
-13652,-796,-1460,-246,351,-169,2025-01-29 12:02:18,0.0
-13616,-824,-1324,-208,206,-251,2025-01-29 12:02:18,0.0
-13608,-744,-1336,-160,235,-304,2025-01-29 12:02:18,0.0
-13784,-648,-1436,-194,286,-258,2025-01-29 12:02:18,0.0
-13636,-592,-1324,-234,389,-238,2025-01-29 12:02:18,0.0
-13752,-524,-1320,-233,431,-234,2025-01-29 12:02:18,0.0
-13880,-664,-1116,-207,559,-249,2025-01-29 12:02:18,0.0
-14216,-608,-1144,-206,498,-300,2025-01-29 12:02:18,0.0
-14460,-936,-940,-153,286,-280,2025-01-29 12:02:18,0.0
-14644,-848,-592,-30,306,-239,2025-01-29 12:02:18,0.0
-15456,-1136,-236,123,630,51,2025-01-29 12:02:18,0.0
-15104,-1428,128,283,1085,346,2025-01-29 12:02:18,0.0
-14676,-1612,496,385,2224,-268,2025-01-29 12:02:18,
-15364,-1580,404,347,3877,-750,2025-01-29 12:02:18,0.0
-16628,-760,-192,156,4732,-1049,2025-01-29 12:02:18,0.0
-17804,296,-1260,-200,5048,-1394,2025-01-29 12:02:18,0.0
-20036,200,-3124,-616,5868,-1254,2025-01-29 12:02:18,0.0
-21132,-608,-4672,-722,5942,-990,2025-01-29 12:02:18,0.0
-20520,-1816,-6040,-602,5058,-853,2025-01-29 12:02:18,0.0
-19644,-2104,-6116,-245,4482,-1056,2025-01-29 12:02:18,0.0
-19264,-1276,-5724,131,5110,-1273,2025-01-29 12:02:18,0.0
-19372,-612,-5740,311,6125,-1324,2025-01-29 12:02:18,0.0
-19372,-508,-6104,294,6627,-1302,2025-01-29 12:02:18,0.0
-19236,-924,-6108,197,6581,-1130,2025-01-29 12:02:18,0.0
-18520,-1280,-4984,512,5362,-1224,2025-01-29 12:02:19,0.0
-18100,-1424,-3844,876,3645,-1193,2025-01-29 12:02:19,0.0
-16964,-1516,-2612,514,2232,-1056,2025-01-29 12:02:19,0.0
-16128,-1720,-1396,88,1511,-514,2025-01-29 12:02:19,0.0
-13968,-1584,-1276,-5,1662,-311,2025-01-29 12:02:19,0.0
-11956,-1376,-1804,150,2856,-993,2025-01-29 12:02:19,0.0
-10616,-976,-3664,218,4298,-1754,2025-01-29 12:02:19,0.0
-10644,-556,-4696,168,6096,-2395,2025-01-29 12:02:19,0.0
-12416,-364,-5524,257,9080,-2771,2025-01-29 12:02:19,0.0
-15124,-772,-6400,-223,9023,-3285,2025-01-29 12:02:19,0.0
-15972,-1408,-6576,-564,4502,-2298,2025-01-29 12:02:19,0.0
-14948,-2056,-6364,-837,1519,-1557,2025-01-29 12:02:19,0.0
-13076,-2484,-6648,-992,347,-955,2025-01-29 12:02:19,0.0
-11912,-2252,-7052,-1201,22,-146,2025-01-29 12:02:19,0.0
-11512,-1992,-6424,-1468,256,651,2025-01-29 12:02:19,0.0
-10896,-1640,-5184,-1326,349,901,2025-01-29 12:02:19,0.0
-10264,-1192,-4712,-1014,-190,557,2025-01-29 12:02:19,0.0
-9844,-444,-4828,-783,69,-148,2025-01-29 12:02:19,0.0
-10220,-196,-5588,-914,1252,-790,2025-01-29 12:02:19,0.0
-10512,-124,-5548,-1378,3307,-1447,2025-01-29 12:02:19,0.0
-10920,-920,-6968,-1889,6484,-1987,2025-01-29 12:02:19,0.0
-11368,-1132,-7400,-1941,7841,-2203,2025-01-29 12:02:19,0.0
-12900,-796,-6824,-2047,7356,-2107,2025-01-29 12:02:19,0.0
-13444,-776,-6360,-2429,5486,-1631,2025-01-29 12:02:19,0.0
-12680,-1140,-6360,-2911,1474,-1046,2025-01-29 12:02:19,0.0
-11456,-1820,-5856,-3192,-2765,-356,2025-01-29 12:02:19,0.0
-10020,-1684,-5088,-3035,-6150,540,2025-01-29 12:02:19,0.0
-8268,-1520,-4008,-2492,-8285,1144,2025-01-29 12:02:19,0.0
-7020,-1648,-2744,-1797,-9262,1321,2025-01-29 12:02:19,0.0
-6448,-1576,-2028,-1011,-8847,1187,2025-01-29 12:02:19,0.0
-6332,-1728,-2688,-593,-6872,1077,2025-01-29 12:02:19,0.0
-6184,-1760,-4564,-602,-3497,1008,2025-01-29 12:02:19,0.0
-5716,-1452,-5640,-968,-1194,987,2025-01-29 12:02:19,0.0
-5272,-932,-6188,-1040,-870,1124,2025-01-29 12:02:19,0.0
-4312,-600,-5504,-1062,-3098,1296,2025-01-29 12:02:19,0.0
-6376,-924,236,-1510,-618,-77,2025-01-29 12:02:19,0.0
-7772,-1484,500,-1194,5602,-1014,2025-01-29 12:02:19,0.0
-8036,-2004,-348,-236,8746,-1775,2025-01-29 12:02:19,0.0
-8968,-1888,-2732,730,8578,-1970,2025-01-29 12:02:19,0.0
-10304,-1148,-4480,1158,6774,-1369,2025-01-29 12:02:19,0.0
-11100,-664,-5900,1308,5614,-429,2025-01-29 12:02:19,0.0
-11480,-744,-6508,1053,5104,-187,2025-01-29 12:02:19,0.0
-11620,-748,-6496,667,3876,-618,2025-01-29 12:02:19,0.0
-11748,-1356,-6148,718,1470,-1189,2025-01-29 12:02:19,0.0
-12164,-2220,-5832,1024,-1424,-1339,2025-01-29 12:02:19,0.0
-12404,-2508,-6008,1373,-3624,-377,2025-01-29 12:02:19,0.0
-10880,-1812,-5532,1664,-3777,1915,2025-01-29 12:02:19,0.0
-9716,-1420,-4968,2005,-1522,1686,2025-01-29 12:02:19,0.0
-9416,-1100,-5264,2305,2075,476,2025-01-29 12:02:19,0.0
-10272,-860,-6028,1965,3815,-141,2025-01-29 12:02:19,0.0
-10912,-192,-5968,1477,3959,355,2025-01-29 12:02:19,0.0
-10416,-264,-6768,1251,3698,554,2025-01-29 12:02:19,0.0
-10376,-680,-7388,1051,3784,229,2025-01-29 12:02:19,0.0
-10704,-900,-7500,1027,4919,-624,2025-01-29 12:02:19,0.0
-11868,-684,-7852,1093,5872,-1352,2025-01-29 12:02:19,0.0
-12880,-308,-8676,846,5703,-1574,2025-01-29 12:02:19,0.0
-13288,216,-9036,-31,4892,-1554,2025-01-29 12:02:19,0.0
-13080,196,-9228,-1398,1903,-1228,2025-01-29 12:02:19,0.0
-12716,-440,-8284,-2428,-1116,-1142,2025-01-29 12:02:19,0.0
-12468,-1312,-6200,-2529,-2927,-1082,2025-01-29 12:02:20,0.0
-12148,-2104,-4940,-1996,-2792,-1097,2025-01-29 12:02:20,0.0
-11960,-2784,-5628,-1351,-1030,-1084,2025-01-29 12:02:20,0.0
-12084,-3024,-6276,-1029,737,-831,2025-01-29 12:02:20,0.0
-11712,-2724,-5636,-651,53,-351,2025-01-29 12:02:20,0.0
-10836,-2540,-4868,-215,-975,-459,2025-01-29 12:02:20,0.0
-10480,-2372,-4860,127,-796,-692,2025-01-29 12:02:20,0.0
-10680,-2160,-5212,525,747,-727,2025-01-29 12:02:20,0.0
-10976,-1904,-6676,574,2655,-523,2025-01-29 12:02:20,0.0
-11488,-1684,-7504,362,3603,-380,2025-01-29 12:02:20,0.0
-11792,-1644,-7476,213,3263,-304,2025-01-29 12:02:20,0.0
-11876,-1624,-7260,170,1703,-328,2025-01-29 12:02:20,0.0
-11748,-1704,-7152,107,856,-412,2025-01-29 12:02:20,0.0
