acceleration_x,acceleration_y,acceleration_z,gyroscope_x,gyroscope_y,gyroscope_z,timestamp,label
-13912,212,3152,-565,306,-126,2025-02-06 17:23:42,1
-13796,276,3232,-523,315,-104,2025-02-06 17:23:42,1
-13872,156,2988,-560,285,-58,2025-02-06 17:23:42,1
-13768,168,3152,-590,258,-53,2025-02-06 17:23:42,1
-13780,244,3168,-570,382,-40,2025-02-06 17:23:42,1
-13944,196,2992,-683,427,-66,2025-02-06 17:23:42,1
-14008,176,3148,-859,338,-57,2025-02-06 17:23:42,1
-13952,292,3360,-926,233,7,2025-02-06 17:23:42,1
-13900,228,3224,-873,151,47,2025-02-06 17:23:42,1
-13764,76,3180,-892,135,16,2025-02-06 17:23:42,1
-13792,164,3436,-773,28,-32,2025-02-06 17:23:42,1
-13656,316,3652,-491,-173,-83,2025-02-06 17:23:42,1
-13448,256,3436,-206,-258,-232,2025-02-06 17:23:42,1
-13280,312,3200,45,-147,-423,2025-02-06 17:23:42,1
-13288,112,3016,235,41,-638,2025-02-06 17:23:42,1
-13512,164,2816,166,63,-847,2025-02-06 17:23:42,1
-13772,304,2712,34,0,-999,2025-02-06 17:23:42,1
-13808,196,2440,-178,-163,-1001,2025-02-06 17:23:42,1
-13560,236,2320,-566,-28,-794,2025-02-06 17:23:42,1
-13328,184,2268,-813,560,-490,2025-02-06 17:23:42,1
-13500,60,2304,-934,1429,-79,2025-02-06 17:23:42,1
-13708,100,3300,-863,1871,358,2025-02-06 17:23:42,1
-13908,-80,3440,-829,2072,658,2025-02-06 17:23:42,1
-14208,120,3548,-855,2117,652,2025-02-06 17:23:42,1
-14512,32,3732,-899,1773,405,2025-02-06 17:23:42,1
-13964,196,3680,-859,969,-140,2025-02-06 17:23:42,1
-14152,516,4408,-601,-449,-752,2025-02-06 17:23:42,1
-14244,476,2432,-812,-798,-955,2025-02-06 17:23:42,1
-14036,224,2680,-881,-680,-674,2025-02-06 17:23:42,1
-13160,508,3092,-650,-366,-447,2025-02-06 17:23:42,1
-12952,688,2688,-147,-17,-617,2025-02-06 17:23:42,1
-13980,616,1408,-250,691,-88,2025-02-06 17:23:42,1
-13992,1124,2148,-262,1351,222,2025-02-06 17:23:42,1
-14004,1256,1924,-504,1444,633,2025-02-06 17:23:42,1
-13984,1592,2180,-917,1316,774,2025-02-06 17:23:42,1
-14216,1796,2248,-1364,1592,884,2025-02-06 17:23:42,1
-13792,2148,2576,-1789,1657,939,2025-02-06 17:23:42,1
-13836,2428,2892,-2017,1385,1018,2025-02-06 17:23:42,1
-13568,2532,3032,-2119,1120,1009,2025-02-06 17:23:42,1
-13452,2572,2612,-2302,884,973,2025-02-06 17:23:42,1
-13500,2488,2804,-2614,665,777,2025-02-06 17:23:42,1
-13640,2272,2924,-3088,584,694,2025-02-06 17:23:42,1
-13744,2200,2864,-3474,504,704,2025-02-06 17:23:42,1
-13980,1940,2636,-3927,473,774,2025-02-06 17:23:42,1
-13808,1912,2364,-4459,365,832,2025-02-06 17:23:42,1
-13480,1920,2168,-4955,356,806,2025-02-06 17:23:42,1
-13348,1980,2248,-5300,317,727,2025-02-06 17:23:42,1
-13864,2072,1952,-5475,-90,718,2025-02-06 17:23:42,1
-13732,1500,2304,-5661,-439,682,2025-02-06 17:23:43,1
-13624,1612,2248,-5681,-449,568,2025-02-06 17:23:43,1
-13468,1436,2072,-5454,-86,326,2025-02-06 17:23:43,1
-13128,1496,2240,-5102,364,97,2025-02-06 17:23:43,1
-11180,32,3924,-4456,394,-487,2025-02-06 17:23:43,1
-14876,952,2300,-4131,843,-438,2025-02-06 17:23:43,1
-14380,348,2444,-3423,1764,-650,2025-02-06 17:23:43,1
-14308,544,2616,-3240,2198,-593,2025-02-06 17:23:43,1
-14164,484,2612,-2702,2462,-796,2025-02-06 17:23:43,1
-13988,236,2576,-2249,2238,-867,2025-02-06 17:23:43,1
-13820,-244,2236,-2041,2054,-1027,2025-02-06 17:23:43,1
-13860,-844,1952,-2080,2136,-1047,2025-02-06 17:23:43,1
-14008,-952,2812,-2066,2177,-957,2025-02-06 17:23:43,1
-13848,-1612,3380,-1599,-889,-2237,2025-02-06 17:23:43,1
-13260,-1524,3768,-1750,-1128,-2168,2025-02-06 17:23:43,1
-12492,-1572,2796,-1887,-881,-1949,2025-02-06 17:23:43,1
-11892,-952,3068,-2132,-1389,-1958,2025-02-06 17:23:43,1
-11556,-672,3180,-2510,-1299,-2105,2025-02-06 17:23:43,1
-11536,-616,3024,-2698,-1148,-1972,2025-02-06 17:23:43,1
-10436,-1268,4052,-2120,613,-2724,2025-02-06 17:23:43,1
-11384,-792,2632,-2246,2144,-2895,2025-02-06 17:23:43,1
-12520,-388,3640,-2434,2648,-2743,2025-02-06 17:23:43,1
-14008,-188,4588,-1923,2798,-2371,2025-02-06 17:23:43,1
-14252,-300,3652,-1816,3236,-1771,2025-02-06 17:23:43,1
-15380,-532,2708,-2682,2832,-917,2025-02-06 17:23:43,1
-15076,-1284,3052,-3496,2215,-280,2025-02-06 17:23:43,1
-14388,-1448,3724,-3972,2295,266,2025-02-06 17:23:43,1
-14004,-1916,3892,-4042,1998,436,2025-02-06 17:23:43,1
-14124,-1672,3700,-4254,1121,710,2025-02-06 17:23:43,1
-13780,-1400,4620,-4070,320,705,2025-02-06 17:23:43,1
-13524,-1416,4640,-3981,-66,565,2025-02-06 17:23:43,1
-13872,-1160,4400,-3951,-290,510,2025-02-06 17:23:43,1
-13644,-1004,3984,-3712,-1189,473,2025-02-06 17:23:43,1
-13784,-1436,5096,-3877,1412,367,2025-02-06 17:23:43,1
-15240,-892,6468,-2094,2356,746,2025-02-06 17:23:43,1
-14664,-376,5224,-833,2799,1523,2025-02-06 17:23:43,1
-13604,-540,5764,-753,2124,1625,2025-02-06 17:23:43,1
-14136,192,7404,-573,-972,1395,2025-02-06 17:23:43,1
-14604,-804,4544,-1050,-4369,957,2025-02-06 17:23:43,1
-16340,-1156,4752,-2472,-3920,573,2025-02-06 17:23:43,1
-17200,-1208,3872,-2474,-3812,788,2025-02-06 17:23:43,1
-17776,-748,2908,-2519,-2239,1072,2025-02-06 17:23:43,1
-17760,-796,1692,-3008,-975,945,2025-02-06 17:23:43,1
-18668,-1340,1480,-4105,-950,1044,2025-02-06 17:23:43,1
-18664,-1448,1452,-4957,-1444,1166,2025-02-06 17:23:43,1
-18124,-1200,2368,-5287,-3372,2059,2025-02-06 17:23:43,1
-17556,-380,1388,-4726,-4602,3144,2025-02-06 17:23:43,1
-16324,320,-916,-4374,-4128,3553,2025-02-06 17:23:43,1
-14788,844,-2100,-4368,-3112,3443,2025-02-06 17:23:43,1
-13376,1220,-2280,-4294,-1945,3206,2025-02-06 17:23:43,1
-12192,1588,-1668,-4116,-1146,3004,2025-02-06 17:23:43,1
-11044,1808,-1064,-4071,48,2718,2025-02-06 17:23:43,1
-9644,1948,-804,-4057,965,2243,2025-02-06 17:23:43,1
-10364,2052,552,-4057,1957,1756,2025-02-06 17:23:44,1
-10944,1796,1300,-4019,3373,1351,2025-02-06 17:23:44,1
-11592,1860,1488,-3977,4372,1090,2025-02-06 17:23:44,1
-12320,432,884,-4024,4168,283,2025-02-06 17:23:44,1
-13704,928,16,-5019,3608,774,2025-02-06 17:23:44,1
-12632,576,-56,-6119,2705,486,2025-02-06 17:23:44,1
-11976,488,1140,-7011,2045,26,2025-02-06 17:23:44,1
-12112,656,2552,-7178,1487,-483,2025-02-06 17:23:44,1
-11332,724,3496,-6751,496,-999,2025-02-06 17:23:44,1
-11356,884,3756,-5754,-600,-1513,2025-02-06 17:23:44,1
-11536,952,3504,-4536,-1189,-1899,2025-02-06 17:23:44,1
-11536,880,3208,-3285,-1182,-1985,2025-02-06 17:23:44,1
-11256,720,2920,-2109,-653,-1930,2025-02-06 17:23:44,1
-11528,736,3000,-911,-533,-1947,2025-02-06 17:23:44,1
-12280,804,2816,110,-305,-1810,2025-02-06 17:23:44,1
-14272,1176,2924,918,1214,-1434,2025-02-06 17:23:44,1
-14548,1232,3256,1390,2980,-1087,2025-02-06 17:23:44,1
-14272,1444,4036,1809,3636,-893,2025-02-06 17:23:44,1
-14088,1476,4912,2173,2320,-695,2025-02-06 17:23:44,1
-13732,1660,5032,2065,655,-683,2025-02-06 17:23:44,1
-13136,1468,4756,1589,-481,-919,2025-02-06 17:23:44,1
-12152,1352,4536,978,-1434,-1495,2025-02-06 17:23:44,1
-11600,1304,3644,486,-1271,-1920,2025-02-06 17:23:44,1
-10884,1112,1812,-186,-319,-2491,2025-02-06 17:23:44,1
-10452,1188,400,-857,780,-3244,2025-02-06 17:23:44,1
-9916,1268,140,-1183,1388,-4162,2025-02-06 17:23:44,1
-12576,1824,2652,-577,3720,-4497,2025-02-06 17:23:44,1
-16776,2396,5900,1408,7867,-3577,2025-02-06 17:23:44,1
-19512,1608,7316,3265,8259,-2046,2025-02-06 17:23:44,1
-22184,596,7832,4538,5404,572,2025-02-06 17:23:44,1
-21896,-892,7560,4583,45,1502,2025-02-06 17:23:44,1
-20360,-588,7544,3979,-5865,1693,2025-02-06 17:23:44,1
-19944,-488,7076,3866,-8752,1462,2025-02-06 17:23:44,1
-18236,-416,6124,4384,-8325,763,2025-02-06 17:23:44,1
-16524,684,2820,5078,-4945,-524,2025-02-06 17:23:44,1
-16388,1844,980,5057,-2166,-1904,2025-02-06 17:23:44,1
-16996,1628,612,5185,327,-2576,2025-02-06 17:23:44,1
-17304,1100,-856,5763,5026,-2218,2025-02-06 17:23:44,1
-13556,1040,-2328,5990,4296,-2085,2025-02-06 17:23:44,1
-13404,816,-4356,5070,-1777,-1884,2025-02-06 17:23:44,1
-12480,328,-5404,3913,-4699,-1494,2025-02-06 17:23:44,1
-11588,104,-4332,2913,-6535,-900,2025-02-06 17:23:44,1
-11320,-1112,-3032,2454,-7040,61,2025-02-06 17:23:44,1
-10864,-1572,-3744,1694,-4414,1098,2025-02-06 17:23:44,1
-9816,-2588,-4048,892,-2272,1653,2025-02-06 17:23:44,1
-9696,-3156,-3612,-427,644,1869,2025-02-06 17:23:44,1
-10384,-2920,-2308,-1045,3780,1627,2025-02-06 17:23:44,1
-10692,-1996,748,-487,6044,1106,2025-02-06 17:23:44,1
-12416,-696,3072,170,6061,255,2025-02-06 17:23:44,1
-13564,136,3876,1838,5386,184,2025-02-06 17:23:44,1
-15576,-8,4684,4277,5083,367,2025-02-06 17:23:44,1
-16240,-616,2992,5528,5076,567,2025-02-06 17:23:44,1
-16464,-1216,1848,5981,4637,570,2025-02-06 17:23:44,1
-16840,-1392,2092,5949,3203,1212,2025-02-06 17:23:44,1
-16256,-1780,3096,6076,857,2003,2025-02-06 17:23:44,1
-15196,-1412,2832,5969,-418,3075,2025-02-06 17:23:44,1
-12268,-1120,2816,5386,-1799,3646,2025-02-06 17:23:44,1
-10404,-1160,1252,4234,-2194,3495,2025-02-06 17:23:44,1
-9632,-1076,208,2587,-1081,2697,2025-02-06 17:23:44,1
-9888,-1100,-156,1149,310,1761,2025-02-06 17:23:44,1
-10640,-1248,556,-532,1690,603,2025-02-06 17:23:44,1
-11392,-1172,996,-1790,2451,-254,2025-02-06 17:23:45,1
-12300,-840,2016,-2808,2241,-764,2025-02-06 17:23:45,1
-13016,-488,2844,-3565,1317,-921,2025-02-06 17:23:45,1
-13280,-176,4112,-3811,219,-823,2025-02-06 17:23:45,1
-13376,292,4876,-3511,-446,-603,2025-02-06 17:23:45,1
-13104,640,5568,-2711,-1422,-78,2025-02-06 17:23:45,1
-13360,1120,4296,-1755,-1493,297,2025-02-06 17:23:45,1
-12256,808,3080,-801,-949,478,2025-02-06 17:23:45,1
-11928,560,1420,-263,-435,883,2025-02-06 17:23:45,1
-11860,-468,572,-678,268,1213,2025-02-06 17:23:45,1
-12884,-1068,880,-1934,1714,1072,2025-02-06 17:23:45,1
-14500,-1204,2772,-3243,3149,696,2025-02-06 17:23:45,1
-16344,-872,4456,-4457,3614,-228,2025-02-06 17:23:45,1
-17900,-396,6460,-4841,2300,-967,2025-02-06 17:23:45,1
-18140,336,5948,-4935,299,-1148,2025-02-06 17:23:45,1
-17788,1472,6684,-5251,-2704,-836,2025-02-06 17:23:45,1
-10964,1464,-772,-3669,-2905,-666,2025-02-06 17:23:45,1
-9684,2092,-116,-2584,-1874,-574,2025-02-06 17:23:45,1
-9708,2752,-204,-1928,-141,-536,2025-02-06 17:23:45,1
-10276,4080,392,-1269,1535,-400,2025-02-06 17:23:45,1
-10084,2568,1252,-1098,3116,-604,2025-02-06 17:23:45,1
-11708,1288,1940,-774,3530,-549,2025-02-06 17:23:45,1
-12244,1000,2356,-805,3526,303,2025-02-06 17:23:45,1
-13184,100,1592,-1091,3189,783,2025-02-06 17:23:45,1
-12908,-8,120,-1884,2906,1117,2025-02-06 17:23:45,7
-13792,-328,-588,-2993,2835,1224,2025-02-06 17:23:45,7
-12944,-584,-848,-4445,2872,800,2025-02-06 17:23:45,7
-12296,-352,180,-5605,2762,-78,2025-02-06 17:23:45,7
-13240,-308,2188,-6177,2365,-1177,2025-02-06 17:23:45,7
-13636,92,4344,-5362,1422,-1632,2025-02-06 17:23:45,7
-13616,364,4884,-3813,940,-1552,2025-02-06 17:23:45,7
-13456,620,5448,-1895,1058,-1451,2025-02-06 17:23:45,7
-13112,928,5024,70,1344,-1314,2025-02-06 17:23:45,7
-12740,1004,4292,1730,1388,-928,2025-02-06 17:23:45,7
-11908,868,4128,3083,1056,-642,2025-02-06 17:23:45,7
-11804,884,4476,4239,101,-416,2025-02-06 17:23:45,7
-11556,696,4772,5377,-661,-306,2025-02-06 17:23:45,7
-11740,420,4728,6216,-1051,-209,2025-02-06 17:23:45,7
-12032,428,4388,6529,-1128,-102,2025-02-06 17:23:45,7
-11780,300,2868,6187,-1191,-161,2025-02-06 17:23:45,7
-12032,388,972,5483,234,-260,2025-02-06 17:23:45,7
-11284,620,360,5252,2051,-843,2025-02-06 17:23:45,7
-12520,1648,536,5504,2563,-1230,2025-02-06 17:23:46,7
-14904,2188,2016,6172,3306,-1397,2025-02-06 17:23:47,7
-15844,2132,3584,6750,3805,-1373,2025-02-06 17:23:47,7
-19272,1976,5332,7219,4110,-784,2025-02-06 17:23:47,7
-19964,692,6056,7330,2961,88,2025-02-06 17:23:47,7
-20100,-308,7280,7420,1158,951,2025-02-06 17:23:47,7
-19124,-816,8292,8143,-1122,1757,2025-02-06 17:23:47,7
-17240,-1476,6656,8328,-4103,1860,2025-02-06 17:23:47,7
-17236,-2968,6252,8350,-6042,1582,2025-02-06 17:23:47,7
-17136,2804,732,4852,1005,-1094,2025-02-06 17:23:47,7
-15116,-724,476,13014,826,-843,2025-02-06 17:23:47,7
-14540,-680,776,13918,353,-1035,2025-02-06 17:23:47,7
-14296,-644,880,14791,-297,-1071,2025-02-06 17:23:47,7
-13544,-824,712,15567,-604,-1050,2025-02-06 17:23:47,7
-13416,-772,540,16233,-795,-941,2025-02-06 17:23:47,7
-13400,-784,528,16734,-1050,-644,2025-02-06 17:23:47,7
-13072,-1024,328,17084,-941,-308,2025-02-06 17:23:47,7
-12504,-1064,-372,17213,-560,7,2025-02-06 17:23:47,7
-12300,-1380,-332,17131,-210,258,2025-02-06 17:23:47,7
-12112,-1176,-948,16830,359,456,2025-02-06 17:23:47,7
-12428,-1180,-1364,16431,563,475,2025-02-06 17:23:47,7
-12444,-1340,-1856,15984,784,305,2025-02-06 17:23:47,7
-12548,-1388,-1420,15545,1469,-25,2025-02-06 17:23:47,7
-12996,-1768,-696,15485,2084,-164,2025-02-06 17:23:47,7
-13216,-1524,-500,15501,1810,-401,2025-02-06 17:23:47,7
-13104,-1776,-676,15517,1410,-759,2025-02-06 17:23:47,7
-13020,-2228,-164,15674,1251,-1160,2025-02-06 17:23:47,7
-13012,-2648,260,15777,1151,-1386,2025-02-06 17:23:47,7
-13024,-2696,460,15990,1214,-1622,2025-02-06 17:23:47,7
-13732,-2644,412,16253,1539,-1717,2025-02-06 17:23:47,7
-13872,-2524,-16,16516,2311,-1857,2025-02-06 17:23:48,7
-14536,-2244,316,16815,3162,-2004,2025-02-06 17:23:48,7
-15004,-1632,780,17176,3489,-2054,2025-02-06 17:23:48,7
-15992,-1040,1544,17748,2869,-1935,2025-02-06 17:23:48,7
-16404,-452,2188,18588,1608,-1663,2025-02-06 17:23:48,7
-16384,-272,2608,19470,220,-1178,2025-02-06 17:23:48,7
-15804,-412,2392,20072,-816,-627,2025-02-06 17:23:48,7
-15136,-820,1420,20258,-1271,-52,2025-02-06 17:23:48,7
-14272,-1252,80,19705,-997,566,2025-02-06 17:23:48,7
-13504,-1572,-800,18462,-710,951,2025-02-06 17:23:48,7
-12844,-1600,-1024,16724,-345,1009,2025-02-06 17:23:48,7
-13228,-1376,-376,14843,64,757,2025-02-06 17:23:48,7
-13212,-1220,-16,13115,27,416,2025-02-06 17:23:48,7
-13592,-1208,376,11608,-298,95,2025-02-06 17:23:48,7
-13676,-1236,1080,10570,-559,-262,2025-02-06 17:23:48,7
-14024,-1272,1300,9927,-569,-586,2025-02-06 17:23:48,7
-13888,-1324,1488,9463,-623,-699,2025-02-06 17:23:48,7
-13972,-1420,1752,9197,-857,-748,2025-02-06 17:23:48,7
-14140,-1568,2004,8999,-1120,-645,2025-02-06 17:23:48,7
-14280,-1492,2028,8973,-1297,-339,2025-02-06 17:23:48,7
-14204,-1356,2408,9187,-1399,39,2025-02-06 17:23:48,7
-13956,-1352,2588,9603,-1473,451,2025-02-06 17:23:48,7
-13868,-1404,2740,10023,-1702,765,2025-02-06 17:23:48,7
-13916,-1388,2584,10431,-2089,1270,2025-02-06 17:23:48,7
-14236,-1520,2472,10489,-2137,1570,2025-02-06 17:23:48,7
-13816,-1600,1868,10300,-1759,1674,2025-02-06 17:23:48,7
-13556,-1636,1756,9943,-1355,1731,2025-02-06 17:23:48,7
-13408,-1776,1680,9580,-1200,1647,2025-02-06 17:23:48,7
-13348,-1892,1528,9031,-1054,1542,2025-02-06 17:23:48,7
-13396,-2000,1528,8317,-948,1440,2025-02-06 17:23:48,7
-13340,-2052,1536,7446,-817,1233,2025-02-06 17:23:48,7
-13228,-1956,1888,6622,-765,1137,2025-02-06 17:23:48,7
-13116,-2000,2200,6007,-866,1126,2025-02-06 17:23:48,7
-13004,-2032,2540,5480,-903,1160,2025-02-06 17:23:48,7
-12652,-1924,2656,5149,-796,1123,2025-02-06 17:23:48,7
-12740,-1916,3100,4779,-726,1065,2025-02-06 17:23:48,7
-12996,-1760,3352,4608,-529,979,2025-02-06 17:23:48,7
-13504,-1468,3728,4591,-395,876,2025-02-06 17:23:48,7
-14584,-1096,3528,4600,10,873,2025-02-06 17:23:48,7
-15684,-844,3128,4830,1141,808,2025-02-06 17:23:48,7
-16452,-380,2508,5136,2208,897,2025-02-06 17:23:48,7
-16160,-128,2452,4900,921,1031,2025-02-06 17:23:48,7
-15680,-232,2596,4233,-1355,1149,2025-02-06 17:23:48,7
-14968,-848,2836,3358,-3430,1305,2025-02-06 17:23:48,7
-14044,-896,2716,2740,-4139,1480,2025-02-06 17:23:48,7
-12884,-1048,2164,2265,-3950,1580,2025-02-06 17:23:48,7
-11720,-1060,1296,1843,-2620,1650,2025-02-06 17:23:48,7
-10684,-804,912,1455,-1085,1421,2025-02-06 17:23:48,7
-9516,32,852,1032,-407,912,2025-02-06 17:23:48,7
-8176,1548,-412,558,-1150,-110,2025-02-06 17:23:48,7
-11060,2020,2728,1032,-582,-1056,2025-02-06 17:23:48,7
-12912,2116,3360,2738,2099,-1263,2025-02-06 17:23:48,7
-14316,2204,988,3542,4383,-1345,2025-02-06 17:23:48,1
-15476,2368,1664,4342,6211,-1815,2025-02-06 17:23:48,1
-17848,2248,1992,5658,6805,-1846,2025-02-06 17:23:48,1
-19100,2032,2428,6558,6166,-1470,2025-02-06 17:23:48,1
-18876,1508,2376,7194,4380,-700,2025-02-06 17:23:48,1
-17448,420,2440,7352,1951,125,2025-02-06 17:23:48,1
-16572,252,2496,7466,-377,1173,2025-02-06 17:23:48,1
-14900,364,3068,8022,-973,1897,2025-02-06 17:23:49,1
-12796,440,2848,8630,-827,2293,2025-02-06 17:23:49,1
-11296,528,2292,9024,-659,2288,2025-02-06 17:23:49,1
-9992,724,2196,9428,-225,1999,2025-02-06 17:23:49,1
-9704,848,2004,9841,586,1518,2025-02-06 17:23:49,1
-10244,852,2280,10319,2021,964,2025-02-06 17:23:49,1
-11340,648,1952,10628,2973,901,2025-02-06 17:23:49,1
-12344,496,2292,11242,3397,790,2025-02-06 17:23:49,1
-13452,952,1772,11959,3818,953,2025-02-06 17:23:49,1
-14316,960,1508,12389,3528,1232,2025-02-06 17:23:49,1
-14648,928,1652,12578,2957,1520,2025-02-06 17:23:49,1
-14364,1288,1332,12108,2133,1299,2025-02-06 17:23:49,4
-14768,988,1720,11773,1831,1082,2025-02-06 17:23:49,4
-14540,1320,1760,11456,1680,1106,2025-02-06 17:23:49,4
-13932,1440,1580,11436,789,1068,2025-02-06 17:23:49,4
-12872,1516,1164,11693,476,1318,2025-02-06 17:23:49,4
-13244,1508,2288,11971,-87,1317,2025-02-06 17:23:49,4
-13136,1572,2604,12098,-456,1384,2025-02-06 17:23:49,4
-12956,1600,2948,12252,-720,1318,2025-02-06 17:23:49,4
-13100,1368,3056,12362,-613,1147,2025-02-06 17:23:49,4
-13288,1172,3164,12692,-751,1062,2025-02-06 17:23:51,4
-13324,1072,3080,12944,-865,870,2025-02-06 17:23:51,4
-13384,716,2816,12953,-989,781,2025-02-06 17:23:51,4
-13340,540,2560,12725,-1156,596,2025-02-06 17:23:51,4
-16572,-100,3896,8779,-2911,-1054,2025-02-06 17:23:51,4
-17836,144,4164,8290,-4104,-1489,2025-02-06 17:23:51,4
-18360,416,3448,8118,-4387,-1891,2025-02-06 17:23:51,4
-18432,1060,2564,8419,-3864,-2220,2025-02-06 17:23:51,4
-11788,1108,-544,4159,6928,-1176,2025-02-06 17:23:51,4
-27044,-96,-8160,2751,1194,37,2025-02-06 17:23:51,4
-27740,-292,-8940,2593,-6661,641,2025-02-06 17:23:51,4
-31128,436,-7040,2782,-13475,817,2025-02-06 17:23:51,4
-32768,768,-6028,2677,-20040,309,2025-02-06 17:23:51,4
-32768,-840,-5332,1622,-25518,-289,2025-02-06 17:23:51,4
-32768,-196,-268,-545,-28386,-513,2025-02-06 17:23:51,4
-32768,900,3832,-5235,-32100,-539,2025-02-06 17:23:51,4
-32768,556,5084,-6155,-26807,-1164,2025-02-06 17:23:51,4
-30268,740,10388,-4031,-13316,-1472,2025-02-06 17:23:51,4
-27268,1360,11164,-951,-6279,-1701,2025-02-06 17:23:51,4
-21976,2740,-1472,2018,-12101,-251,2025-02-06 17:23:51,4
-13296,2912,-6620,4060,-12896,615,2025-02-06 17:23:51,4
-12576,3460,-2032,8296,-7403,1661,2025-02-06 17:23:51,4
-8256,1280,-2152,9563,144,3417,2025-02-06 17:23:51,4
-552,-2180,-1580,5497,5139,4038,2025-02-06 17:23:51,4
7000,-4972,-5284,676,-496,4031,2025-02-06 17:23:51,4
15280,-4492,-21540,-3646,-8585,4071,2025-02-06 17:23:51,4
27064,-3060,-32768,-10114,681,-1436,2025-02-06 17:23:51,4
17456,-1824,-11016,-11991,16005,-7508,2025-02-06 17:23:51,4
4548,248,8408,-6673,9010,-5018,2025-02-06 17:23:51,4
-8048,-4,12572,-150,2523,328,2025-02-06 17:23:51,4
-7080,-1780,6796,2117,4103,125,2025-02-06 17:23:51,4
-9132,-1168,8960,984,4645,-1167,2025-02-06 17:23:51,4
-7560,-816,4628,-450,732,-1431,2025-02-06 17:23:51,4
-4748,-972,1236,-433,25,-561,2025-02-06 17:23:51,4
84,-1440,1176,729,-1144,1399,2025-02-06 17:23:51,4
4636,-2012,-836,1215,-731,2139,2025-02-06 17:23:51,4
6916,-1840,-2356,113,242,1329,2025-02-06 17:23:51,4
6980,-1244,-1352,-1294,-1496,-79,2025-02-06 17:23:51,4
5868,-728,884,-1734,-1867,-1076,2025-02-06 17:23:51,4
4560,-568,1500,-1017,-1002,-1346,2025-02-06 17:23:51,4
3052,-64,1756,158,336,-1190,2025-02-06 17:23:51,4
1240,456,2052,810,632,-806,2025-02-06 17:23:51,4
-316,676,2972,1480,-28,-299,2025-02-06 17:23:51,4
-1068,312,3744,1937,-1520,-130,2025-02-06 17:23:51,4
-836,-120,3912,1855,-2210,-128,2025-02-06 17:23:51,4
960,-576,2744,1053,-2834,-217,2025-02-06 17:23:51,4
1668,-572,1768,729,-2908,-22,2025-02-06 17:23:51,4
2252,-756,696,700,-1890,570,2025-02-06 17:23:51,4
2616,-612,-1508,-454,-1397,1241,2025-02-06 17:23:51,4
3412,-540,-2208,-2440,-2694,1121,2025-02-06 17:23:51,4
3948,24,-744,-3328,-2864,228,2025-02-06 17:23:51,4
2848,516,-68,-3541,-2671,-1706,2025-02-06 17:23:51,4
-2408,1060,-348,-3112,-8057,-3850,2025-02-06 17:23:51,4
-11744,1324,-4720,-1877,3215,-7422,2025-02-06 17:23:51,4
-31528,1436,-1636,-3826,8811,-6691,2025-02-06 17:23:51,4
-32768,-904,5868,-1968,29844,-1053,2025-02-06 17:23:51,4
-32768,-3448,1476,10664,30771,9341,2025-02-06 17:23:51,4
-32768,-1048,17364,8255,-1411,8778,2025-02-06 17:23:51,4
-32768,1976,9200,-7552,-21170,2998,2025-02-06 17:23:52,4
-32768,-344,12232,-10516,-15297,-1284,2025-02-06 17:23:52,4
-26324,-1160,10348,-7134,-6189,-2598,2025-02-06 17:23:52,4
-16144,-1424,3832,-4164,-6054,-2727,2025-02-06 17:23:52,4
-11804,-5064,6208,-1895,-5336,-2871,2025-02-06 17:23:52,4
-20400,-4172,9900,477,-7325,-1194,2025-02-06 17:23:52,4
-20752,-5152,9008,256,-7851,1453,2025-02-06 17:23:52,4
-16352,-4588,6484,-1012,-2509,445,2025-02-06 17:23:52,4
-12328,-2800,2844,-1225,2393,-1279,2025-02-06 17:23:52,4
-9516,-1904,672,-572,4407,-1616,2025-02-06 17:23:52,4
-5312,-1096,-1864,1000,4598,-1407,2025-02-06 17:23:52,4
-6932,-372,-2920,2234,6031,-1363,2025-02-06 17:23:52,4
-8256,-388,-3136,1934,8352,-1110,2025-02-06 17:23:52,4
-8892,-420,-1732,804,8543,-1003,2025-02-06 17:23:52,4
-9748,80,324,310,8481,-455,2025-02-06 17:23:52,4
-8824,792,2420,684,8014,405,2025-02-06 17:23:52,4
-7360,2324,4024,1378,6446,775,2025-02-06 17:23:52,4
-8080,2388,5072,2211,3823,845,2025-02-06 17:23:52,4
-8736,1736,4960,3650,746,541,2025-02-06 17:23:52,4
-10524,1648,2800,3304,942,737,2025-02-06 17:23:52,4
-10908,1252,2072,2149,987,387,2025-02-06 17:23:52,4
-12756,1100,2496,624,1471,515,2025-02-06 17:23:52,4
-14184,1660,3560,441,3158,803,2025-02-06 17:23:52,4
-13540,2292,4684,1451,3543,624,2025-02-06 17:23:52,4
-14116,2288,4280,2382,1904,565,2025-02-06 17:23:52,4
-15840,1128,1336,1495,1082,1106,2025-02-06 17:23:52,4
-16544,1540,588,-1443,-3,1688,2025-02-06 17:23:52,4
-15256,2444,3936,-3656,-2069,1333,2025-02-06 17:23:52,4
-14860,3084,6480,-3346,-2898,889,2025-02-06 17:23:52,4
-13136,2560,5360,-2418,-2786,479,2025-02-06 17:23:52,4
-11208,1908,4288,-1977,-3065,38,2025-02-06 17:23:52,4
-10144,1316,3408,-2161,-2729,-500,2025-02-06 17:23:52,4
-9920,688,3084,-2650,-2308,-1138,2025-02-06 17:23:52,4
-10796,472,3808,-2950,-1563,-1372,2025-02-06 17:23:52,4
-12428,112,5592,-2017,-118,-1444,2025-02-06 17:23:52,4
-13932,36,6372,-940,838,-1111,2025-02-06 17:23:52,4
-14512,252,6156,-380,860,-649,2025-02-06 17:23:52,4
-14560,248,5272,-230,608,-254,2025-02-06 17:23:52,4
-14752,196,4776,-167,417,-62,2025-02-06 17:23:52,1
-14316,208,5296,508,219,99,2025-02-06 17:23:52,1
-13788,420,5712,1470,-388,-13,2025-02-06 17:23:52,1
-13272,772,6392,2023,-657,-214,2025-02-06 17:23:52,1
-13492,1060,6648,2569,-1155,-276,2025-02-06 17:23:52,1
-13368,1428,6336,2992,-907,-286,2025-02-06 17:23:52,1
-13744,1248,5672,3563,-78,-233,2025-02-06 17:23:52,1
-13548,1512,3560,3824,401,-296,2025-02-06 17:23:52,1
-14140,1364,1996,3636,208,-677,2025-02-06 17:23:52,1
-14192,1444,1548,3206,163,-1040,2025-02-06 17:23:52,1
-15264,1984,3276,3191,-230,-1124,2025-02-06 17:23:52,1
-16032,2428,4552,3552,-1069,-772,2025-02-06 17:23:52,1
-15832,2408,4232,3779,-1234,-443,2025-02-06 17:23:52,1
-15652,2268,3208,3461,-977,-466,2025-02-06 17:23:52,1
-16160,2264,2204,3112,7,-884,2025-02-06 17:23:52,1
-17412,1892,1312,3225,2160,-1309,2025-02-06 17:23:52,1
-19052,1392,604,4126,2256,-1218,2025-02-06 17:23:52,1
-19388,1080,-844,3002,1289,-783,2025-02-06 17:23:53,1
-18880,692,-668,1211,-825,-539,2025-02-06 17:23:53,1
-17628,96,-172,-27,-2774,-273,2025-02-06 17:23:53,1
-16012,-444,-576,-808,-3811,98,2025-02-06 17:23:53,1
-14304,-740,-1252,-1395,-4039,319,2025-02-06 17:23:53,1
-12336,-1264,-1332,-1712,-3652,447,2025-02-06 17:23:53,1
-10604,-1668,-1052,-1965,-3072,217,2025-02-06 17:23:53,1
-10036,-1740,-180,-2069,-2274,-219,2025-02-06 17:23:53,1
-9652,-2352,756,-1886,-758,-834,2025-02-06 17:23:53,1
-10312,-2608,1344,-1705,572,-1205,2025-02-06 17:23:53,1
-11336,-2752,2372,-1286,1574,-1363,2025-02-06 17:23:53,1
-12348,-2720,2732,-1062,2602,-1103,2025-02-06 17:23:53,1
-12288,-2616,3340,-750,3146,-1036,2025-02-06 17:23:53,1
-12908,-2356,3744,-182,3271,-912,2025-02-06 17:23:53,1
-12876,-1972,4108,679,2705,-782,2025-02-06 17:23:53,1
-12912,-1296,4332,1783,2049,-697,2025-02-06 17:23:53,1
-12896,-1100,4180,3017,1264,-546,2025-02-06 17:23:53,1
-12580,-876,3752,3900,592,-519,2025-02-06 17:23:53,1
-12536,-916,3284,4374,855,-584,2025-02-06 17:23:53,1
-12368,-972,2612,4425,1601,-609,2025-02-06 17:23:53,1
-12276,-864,2508,4033,1900,-434,2025-02-06 17:23:53,1
-12320,-724,2732,3382,1819,-220,2025-02-06 17:23:53,1
-12304,-1056,2420,2208,2457,-254,2025-02-06 17:23:53,1
-13156,-824,2676,1130,2932,-403,2025-02-06 17:23:53,1
-12920,-932,2552,49,2917,-543,2025-02-06 17:23:53,1
-13184,-784,3032,-821,2727,-695,2025-02-06 17:23:53,1
-13028,-740,3088,-1608,2279,-730,2025-02-06 17:23:53,1
-13216,-952,3656,-2116,1746,-605,2025-02-06 17:23:53,1
-13348,-644,3764,-2582,1050,-392,2025-02-06 17:23:53,1
-13060,-972,4108,-3049,586,-287,2025-02-06 17:23:53,1
-13156,-932,3536,-3502,380,-36,2025-02-06 17:23:53,1
-13024,-836,2804,-3573,558,-82,2025-02-06 17:23:53,1
-11548,-1112,1804,-3195,1213,-440,2025-02-06 17:23:53,1
-13140,-1056,1588,-2620,969,-425,2025-02-06 17:23:53,1
-13356,-1668,1792,-2528,1873,-367,2025-02-06 17:23:53,1
-14332,-2100,2952,-3396,2987,-624,2025-02-06 17:23:53,1
-15760,-1600,5960,-4037,2962,-1132,2025-02-06 17:23:53,1
-17264,-1712,7404,-3566,801,-1155,2025-02-06 17:23:53,1
-17264,-1480,6748,-2417,-1353,-671,2025-02-06 17:23:53,1
-16376,-2072,3780,-2060,-3743,-413,2025-02-06 17:23:53,1
-14672,-1268,1908,-2789,-5545,-738,2025-02-06 17:23:53,1
-14152,416,1324,-3996,-6922,-1926,2025-02-06 17:23:53,1
-14756,324,1456,-4435,-7515,-2883,2025-02-06 17:23:53,1
-15680,288,2112,-4403,-7077,-3416,2025-02-06 17:23:53,1
-17008,-572,2460,-4216,-5116,-3478,2025-02-06 17:23:53,1
-18584,-2276,3872,-3433,-3279,-2007,2025-02-06 17:23:53,1
-19504,-3168,3456,-3187,-2672,-129,2025-02-06 17:23:53,1
-19624,-3784,2432,-3267,-2174,1420,2025-02-06 17:23:53,1
-19432,-3968,1312,-3621,-1639,2801,2025-02-06 17:23:53,1
-18244,-3764,-336,-4179,-951,3716,2025-02-06 17:23:53,1
-16328,-3672,-1104,-4751,292,3918,2025-02-06 17:23:53,1
-13728,-3200,-1384,-5243,731,3548,2025-02-06 17:23:53,1
-12296,-1348,-448,-5401,105,2867,2025-02-06 17:23:53,1
-10632,264,1204,-4791,-48,2072,2025-02-06 17:23:53,1
-9280,1476,2584,-3601,-195,1282,2025-02-06 17:23:53,1
-8700,1596,3248,-1870,172,597,2025-02-06 17:23:53,1
-8796,2320,3624,-186,1216,397,2025-02-06 17:23:53,1
-9424,2988,3368,1364,1757,485,2025-02-06 17:23:53,1
-11456,2168,2804,2279,2053,569,2025-02-06 17:23:54,1
-13028,2056,1560,1846,3007,570,2025-02-06 17:23:54,1
-13404,1888,1084,1054,3935,424,2025-02-06 17:23:54,1
-13768,1016,604,-44,4303,202,2025-02-06 17:23:54,1
-13820,568,540,-1401,3981,110,2025-02-06 17:23:54,1
-13672,56,1004,-2667,2687,-124,2025-02-06 17:23:54,1
-13184,-80,2076,-3738,977,-446,2025-02-06 17:23:54,1
-12944,-300,2760,-4223,-272,-651,2025-02-06 17:23:54,1
-12396,-528,3236,-4206,-891,-737,2025-02-06 17:23:54,1
-11972,-364,2572,-3432,-114,-588,2025-02-06 17:23:54,1
-12200,248,2312,-2645,609,-303,2025-02-06 17:23:54,1
-12452,336,2952,-1385,1546,-49,2025-02-06 17:23:54,1
-12608,652,3516,-135,2302,51,2025-02-06 17:23:54,1
-12836,764,4516,825,2311,133,2025-02-06 17:23:54,1
-13140,884,5468,1636,1664,113,2025-02-06 17:23:54,1
-13400,756,5276,2402,1118,241,2025-02-06 17:23:54,1
-13524,432,4828,2990,785,407,2025-02-06 17:23:54,1
-12988,380,4500,3293,317,527,2025-02-06 17:23:54,1
-12380,216,4364,3376,-152,485,2025-02-06 17:23:54,1
-12276,460,3640,2922,-916,211,2025-02-06 17:23:54,1
-11768,316,2660,2053,-1518,-533,2025-02-06 17:23:54,1
-12228,664,2344,1236,-1144,-1522,2025-02-06 17:23:54,1
-12752,460,2188,546,-493,-2320,2025-02-06 17:23:54,1
-14504,496,3664,1003,360,-2569,2025-02-06 17:23:54,1
-16884,1108,7000,3505,1558,-2057,2025-02-06 17:23:54,1
-18656,608,8960,6247,1193,-781,2025-02-06 17:23:54,1
-19000,124,7932,7498,-1062,366,2025-02-06 17:23:54,1
-18336,48,5032,7154,-3107,932,2025-02-06 17:23:54,1
-16864,-332,2716,6669,-3915,781,2025-02-06 17:23:54,1
-15828,-924,1868,5847,-3745,575,2025-02-06 17:23:54,1
-15748,-552,1868,5513,-2649,329,2025-02-06 17:23:54,1
-17352,584,2440,5698,-413,374,2025-02-06 17:23:54,1
-18124,1708,1176,6253,2270,520,2025-02-06 17:23:54,1
-17104,1788,484,7270,3664,-119,2025-02-06 17:23:54,1
-15808,1604,-736,7700,2030,-901,2025-02-06 17:23:54,1
-16248,1156,-3144,6437,-617,-1514,2025-02-06 17:23:54,1
-16596,684,-2408,5584,-1103,-1388,2025-02-06 17:23:54,1
-16128,156,-1584,5209,-2231,-725,2025-02-06 17:23:54,1
-14672,-220,-1360,4912,-3194,448,2025-02-06 17:23:54,1
-12000,-896,-1408,4380,-4275,1679,2025-02-06 17:23:54,1
-9872,-892,-636,3305,-5359,2667,2025-02-06 17:23:54,1
-8040,-1272,-1276,2237,-4915,2930,2025-02-06 17:23:54,7
-7156,-1352,-1168,1240,-3257,2841,2025-02-06 17:23:54,7
-7496,-1832,-784,-63,-548,2233,2025-02-06 17:23:54,7
-8896,-1604,432,-643,3263,1335,2025-02-06 17:23:54,7
-10492,-1448,944,-1079,5634,104,2025-02-06 17:23:54,7
-12008,-1320,1048,-1411,6860,-1789,2025-02-06 17:23:54,7
-15328,-668,2340,-1054,6807,-3665,2025-02-06 17:23:54,7
-18380,-724,4084,148,5382,-4280,2025-02-06 17:23:54,7
-19412,-1220,3500,1530,3274,-3731,2025-02-06 17:23:54,7
-18180,-1960,2764,2246,883,-2680,2025-02-06 17:23:54,7
-15668,-2668,2732,2637,-1138,-1284,2025-02-06 17:23:54,7
-15868,-1360,3396,3449,-2207,657,2025-02-06 17:23:54,7
-13760,-1128,2680,3697,-2580,1866,2025-02-06 17:23:54,7
-11376,-796,1580,3331,-2338,2631,2025-02-06 17:23:54,7
-9428,-596,64,2075,-976,2429,2025-02-06 17:23:54,7
-8808,-236,-592,545,873,1628,2025-02-06 17:23:54,7
-9432,224,-208,-1133,2578,396,2025-02-06 17:23:54,7
-10728,24,748,-2576,3765,-483,2025-02-06 17:23:54,7
-12040,-64,1124,-3961,3790,-1120,2025-02-06 17:23:54,7
-13836,-36,2372,-5213,3070,-1657,2025-02-06 17:23:54,7
-14440,480,2756,-5973,1711,-1817,2025-02-06 17:23:54,7
-15284,0,3576,-6327,312,-1639,2025-02-06 17:23:54,7
-14996,-148,3640,-6380,-486,-1102,2025-02-06 17:23:54,7
-15196,28,3908,-6303,-634,-462,2025-02-06 17:23:54,7
-14688,140,3664,-6220,-858,38,2025-02-06 17:23:54,7
-14028,72,3212,-6135,-1076,492,2025-02-06 17:23:54,7
-13568,28,2976,-6155,-940,904,2025-02-06 17:23:54,7
-13192,-144,2700,-6170,-609,1073,2025-02-06 17:23:55,7
-12552,-372,2032,-6322,64,838,2025-02-06 17:23:55,7
-12892,-912,1724,-6664,666,619,2025-02-06 17:23:55,7
-13112,-1272,2168,-7372,1286,367,2025-02-06 17:23:55,7
-13720,-1136,3048,-8207,1553,187,2025-02-06 17:23:55,7
-14004,-956,4388,-8703,1505,-239,2025-02-06 17:23:55,7
-14800,-520,5980,-8620,1155,-619,2025-02-06 17:23:55,7
-15568,-264,5876,-8292,671,-839,2025-02-06 17:23:55,7
-16212,-24,5216,-8294,-502,-645,2025-02-06 17:23:55,7
-16668,-288,4348,-8496,-1956,-270,2025-02-06 17:23:55,7
-15956,-800,3540,-8638,-3243,207,2025-02-06 17:23:55,7
-15352,-784,2556,-8682,-4129,623,2025-02-06 17:23:55,7
-14776,-816,1180,-8248,-3815,879,2025-02-06 17:23:55,7
-14248,-656,116,-7668,-2225,652,2025-02-06 17:23:55,7
-14220,-820,336,-7018,-859,-82,2025-02-06 17:23:55,7
-15120,-1212,-60,-6428,870,-437,2025-02-06 17:23:55,7
-15668,-1288,336,-6124,1352,-424,2025-02-06 17:23:55,7
-16652,-1584,404,-6142,987,-171,2025-02-06 17:23:55,7
-16660,-1648,4,-6616,1169,70,2025-02-06 17:23:55,7
-16352,-1076,-68,-6962,1838,220,2025-02-06 17:23:55,7
-15820,-404,-388,-7156,1964,368,2025-02-06 17:23:55,7
-15012,680,-552,-7097,1557,581,2025-02-06 17:23:55,7
-12840,6604,-1972,-8486,-810,899,2025-02-06 17:23:55,7
-11896,5864,-4752,-13355,3232,862,2025-02-06 17:23:55,7
-12508,5232,-3948,-17306,2330,624,2025-02-06 17:23:55,7
-14124,4712,-3144,-21270,1598,889,2025-02-06 17:23:55,7
-15368,4068,-4024,-24309,1271,1668,2025-02-06 17:23:55,7
-14836,3992,-4880,-26674,1284,2224,2025-02-06 17:23:55,7
-13704,3904,-5828,-28997,1820,1787,2025-02-06 17:23:55,7
-13024,3316,-6192,-30936,2081,1048,2025-02-06 17:23:55,7
-13236,2156,-6504,-32768,1489,681,2025-02-06 17:23:55,7
-14432,300,-7404,-32768,751,1182,2025-02-06 17:23:55,7
-14868,-1216,-7636,-32768,739,2014,2025-02-06 17:23:55,7
-14620,-1536,-7932,-32768,2160,2615,2025-02-06 17:23:55,7
-13860,-1284,-7876,-32768,3268,2618,2025-02-06 17:23:55,7
-13756,-1112,-7048,-32768,2963,2442,2025-02-06 17:23:55,7
-14228,-1164,-6796,-32768,2076,2431,2025-02-06 17:23:55,7
-14872,-1388,-7224,-32768,1542,2820,2025-02-06 17:23:55,7
-15012,-2540,-6712,-32768,1737,3588,2025-02-06 17:23:55,7
-14688,-2764,-6108,-32768,2705,4766,2025-02-06 17:23:55,7
-12760,-4004,-856,-32768,4278,5062,2025-02-06 17:23:55,7
-13960,-2596,-5896,-32768,5438,5806,2025-02-06 17:23:55,7
-12792,-2576,-6232,-32768,4302,5384,2025-02-06 17:23:55,7
-11020,-2656,-5708,-32768,2314,4096,2025-02-06 17:23:55,7
-11380,-3968,-3864,-32768,2924,2977,2025-02-06 17:23:55,7
-12808,-5392,-3368,-32768,4887,2384,2025-02-06 17:23:55,7
-14132,-6484,-1644,-32768,5650,2184,2025-02-06 17:23:55,7
-14368,-6636,-100,-32768,4782,2227,2025-02-06 17:23:55,7
-14620,-6260,788,-32768,4560,1993,2025-02-06 17:23:55,7
-14612,-5508,1040,-32768,4057,1632,2025-02-06 17:23:55,7
-14988,-5464,1888,-31291,3460,1117,2025-02-06 17:23:55,7
-15064,-4440,3364,-28300,2380,445,2025-02-06 17:23:55,7
-15308,-4180,4764,-24839,1033,-18,2025-02-06 17:23:55,7
-15768,-3608,4392,-21625,-377,-27,2025-02-06 17:23:55,7
-15460,-3240,4052,-17804,-412,-180,2025-02-06 17:23:55,7
-14900,-3648,2844,-15057,563,-658,2025-02-06 17:23:56,7
-14724,-3972,2804,-12811,1204,-1198,2025-02-06 17:23:56,7
-14844,-3592,3520,-10732,1134,-1375,2025-02-06 17:23:56,7
-14872,-2900,3632,-8539,884,-1255,2025-02-06 17:23:56,7
-14580,-2556,3660,-6117,860,-1112,2025-02-06 17:23:56,7
-14340,-2760,4028,-3854,842,-897,2025-02-06 17:23:56,7
-14296,-2984,3912,-2165,512,-725,2025-02-06 17:23:56,7
-14320,-2888,4252,-1019,224,-650,2025-02-06 17:23:56,7
-14352,-2488,4508,246,7,-617,2025-02-06 17:23:56,7
-13860,-2132,4776,1234,-26,-960,2025-02-06 17:23:56,7
-12884,-1292,4180,1642,-115,-1542,2025-02-06 17:23:56,7
-12848,-432,4292,2156,-125,-2160,2025-02-06 17:23:56,7
-12888,296,3344,2952,-250,-2353,2025-02-06 17:23:56,7
-12612,872,2256,3527,-93,-2443,2025-02-06 17:23:56,7
-12524,780,2180,3600,-22,-2426,2025-02-06 17:23:56,7
-14044,1600,3116,3598,715,-1616,2025-02-06 17:23:56,7
-13956,2052,3700,3575,1589,-1280,2025-02-06 17:23:56,7
-13216,2288,3700,3579,1882,-907,2025-02-06 17:23:56,7
-13160,2460,3896,3165,1916,-623,2025-02-06 17:23:56,7
-13140,2528,3232,2741,2468,-229,2025-02-06 17:23:56,7
-13692,2232,2652,2375,2934,233,2025-02-06 17:23:56,1
-14128,2616,1784,1741,3599,720,2025-02-06 17:23:56,1
-14168,2916,2296,1115,3999,822,2025-02-06 17:23:56,1
-14452,2948,3572,752,3917,689,2025-02-06 17:23:56,1
-15612,2744,4840,625,3221,1080,2025-02-06 17:23:56,1
-14940,2140,4548,89,1596,1316,2025-02-06 17:23:56,1
-14412,1660,4440,-600,822,1060,2025-02-06 17:23:56,1
-13968,1108,3316,-1495,187,857,2025-02-06 17:23:56,1
-13712,764,2732,-2352,-182,791,2025-02-06 17:23:56,1
-14020,180,2716,-2963,-180,662,2025-02-06 17:23:56,1
-14792,-148,3564,-3619,-1230,682,2025-02-06 17:23:56,1
-14288,-232,3916,-3201,-584,486,2025-02-06 17:23:56,1
-14536,-484,3488,-3222,-738,40,2025-02-06 17:23:56,1
-14532,-356,3440,-2980,-1385,-364,2025-02-06 17:23:56,1
-14832,-336,2520,-2408,-1994,-841,2025-02-06 17:23:56,1
-14712,-468,1500,-1918,-2537,-1298,2025-02-06 17:23:56,1
-14216,-328,1560,-1305,-2483,-1638,2025-02-06 17:23:56,1
-13652,-228,1792,-438,-2197,-1939,2025-02-06 17:23:56,1
-13976,60,1136,499,-1930,-1994,2025-02-06 17:23:56,1
-12912,56,956,2120,-986,-1890,2025-02-06 17:23:56,1
-12720,276,1296,2606,-78,-1840,2025-02-06 17:23:56,1
-12272,248,1556,2966,583,-1777,2025-02-06 17:23:56,1
-12272,392,1768,3145,1257,-1770,2025-02-06 17:23:56,1
-12628,636,1872,3189,1652,-1757,2025-02-06 17:23:56,1
-13076,484,1848,3080,1864,-1624,2025-02-06 17:23:56,1
-13652,608,2036,3047,2310,-1473,2025-02-06 17:23:56,1
-14144,792,2284,3202,3147,-1329,2025-02-06 17:23:56,1
-14748,760,2344,3381,3489,-1133,2025-02-06 17:23:56,1
-15164,632,2332,3357,3117,-795,2025-02-06 17:23:56,1
-15156,216,1732,3042,2316,-534,2025-02-06 17:23:56,1
-15244,-44,1580,2331,1518,-395,2025-02-06 17:23:56,1
-14676,40,1628,1388,843,-468,2025-02-06 17:23:56,1
-13916,-72,1988,611,364,-391,2025-02-06 17:23:56,1
-12376,20,2192,151,257,-561,2025-02-06 17:23:56,1
-11928,-232,2172,-189,210,-790,2025-02-06 17:23:56,1
-11632,-268,1596,-562,507,-953,2025-02-06 17:23:56,1
-11876,-164,1580,-1049,1083,-1176,2025-02-06 17:23:56,1
-12316,-336,2068,-1131,2161,-1352,2025-02-06 17:23:56,1
-12688,-344,2700,-887,2689,-1510,2025-02-06 17:23:56,1
-12744,-172,3300,-507,2728,-1372,2025-02-06 17:23:56,1
-13492,-72,4308,-297,2209,-1103,2025-02-06 17:23:56,1
-13712,-220,4080,-191,1596,-677,2025-02-06 17:23:57,1
-13852,-312,3564,-331,1282,-254,2025-02-06 17:23:57,1
-13736,-356,3260,-483,1094,-63,2025-02-06 17:23:57,1
-13704,-444,3332,-570,866,62,2025-02-06 17:23:57,1
-13488,-572,3268,-784,507,106,2025-02-06 17:23:57,1
-13348,-676,3312,-1359,332,10,2025-02-06 17:23:57,1
-12968,-880,3116,-2286,1,-151,2025-02-06 17:23:57,1
-12868,-1228,2880,-3310,-646,-359,2025-02-06 17:23:57,1
-13008,-1408,2236,-4289,-1098,-556,2025-02-06 17:23:57,1
-13460,-1776,2164,-5218,-781,-890,2025-02-06 17:23:57,1
-14072,-2072,2716,-5618,-257,-1166,2025-02-06 17:23:57,1
-14560,-2288,3652,-5781,-612,-1633,2025-02-06 17:23:57,1
-15528,-2472,3028,-5760,-1270,-2076,2025-02-06 17:23:57,1
-16016,-1896,1760,-5171,-1093,-2495,2025-02-06 17:23:57,1
-15620,-1292,800,-4366,-1189,-2573,2025-02-06 17:23:57,1
-14648,-1184,964,-3743,-1709,-2565,2025-02-06 17:23:57,1
-14940,-320,400,-3339,-2307,-2502,2025-02-06 17:23:57,1
-16028,-100,636,-3109,-1983,-2336,2025-02-06 17:23:57,1
-16736,88,1432,-2797,-1733,-2041,2025-02-06 17:23:57,1
-17400,36,1848,-2108,-985,-1652,2025-02-06 17:23:57,1
-17836,-216,872,-1758,-446,-1365,2025-02-06 17:23:57,1
-18620,-288,-428,-1786,-103,-1052,2025-02-06 17:23:57,1
-10396,2232,760,-1526,-527,424,2025-02-06 17:23:57,1
-10660,1988,848,-1537,828,529,2025-02-06 17:23:57,1
-11128,1720,296,-1728,2240,521,2025-02-06 17:23:57,1
-11600,1412,-460,-2307,3435,419,2025-02-06 17:23:57,1
-12208,1100,224,-3542,3114,135,2025-02-06 17:23:57,1
-12924,968,1144,-4631,1934,-186,2025-02-06 17:23:57,1
-13196,1052,1800,-5139,1073,-318,2025-02-06 17:23:57,1
-13312,908,2208,-5195,645,-204,2025-02-06 17:23:57,1
-12912,912,2124,-5005,489,-99,2025-02-06 17:23:57,1
-12472,840,1884,-4788,416,-66,2025-02-06 17:23:57,1
-12164,848,1764,-4594,421,-75,2025-02-06 17:23:57,1
-12144,852,1612,-4459,672,-216,2025-02-06 17:23:57,1
-12432,804,1500,-4378,1119,-293,2025-02-06 17:23:57,1
-13712,604,2372,-4085,2775,39,2025-02-06 17:23:57,1
-13776,532,2388,-4004,3480,175,2025-02-06 17:23:57,1
-13912,476,2832,-3916,3388,117,2025-02-06 17:23:57,1
-13468,312,3236,-3679,2820,-137,2025-02-06 17:23:57,1
-13016,376,3060,-3495,2086,-422,2025-02-06 17:23:57,1
-12860,620,3300,-3449,1317,-615,2025-02-06 17:23:57,1
-12552,664,2800,-3190,415,-738,2025-02-06 17:23:57,1
-12084,660,2500,-2830,48,-876,2025-02-06 17:23:57,1
-11976,724,1420,-2278,252,-993,2025-02-06 17:23:57,1
-12024,720,752,-1638,838,-1195,2025-02-06 17:23:57,1
-12176,772,796,-1000,1014,-1334,2025-02-06 17:23:57,1
-13480,828,1496,-78,1393,-1361,2025-02-06 17:23:57,1
-15276,768,3040,747,2022,-1041,2025-02-06 17:23:57,1
-17236,536,4816,1768,1606,-220,2025-02-06 17:23:57,1
-18236,344,6032,2527,-769,825,2025-02-06 17:23:57,1
-18836,24,6208,2858,-3362,1625,2025-02-06 17:23:57,1
-19592,-312,6164,3674,-4701,2229,2025-02-06 17:23:58,1
-18764,-580,4420,4788,-4304,2683,2025-02-06 17:23:58,1
-17900,-192,4376,5299,-4650,2658,2025-02-06 17:23:58,1
-17372,688,3500,5291,-4033,1991,2025-02-06 17:23:58,4
-16948,856,2776,4834,-2959,1183,2025-02-06 17:23:58,4
-16620,928,1680,4589,-2357,502,2025-02-06 17:23:58,4
-16376,1728,536,4342,-1947,-64,2025-02-06 17:23:58,4
-16140,2044,-656,4576,-1960,-591,2025-02-06 17:23:58,4
-15052,2160,-1592,4933,-2376,-1052,2025-02-06 17:23:58,4
-14644,1848,-1900,5307,-3435,-911,2025-02-06 17:23:58,4
-14212,1656,-1652,5477,-3231,-362,2025-02-06 17:23:58,4
-12848,1092,-1496,5636,-3835,255,2025-02-06 17:23:58,4
-12284,152,-2388,5128,-2249,814,2025-02-06 17:23:58,4
-11428,-140,-1896,4823,-1644,1148,2025-02-06 17:23:58,4
-10128,-1100,-3836,4962,-5007,1520,2025-02-06 17:23:58,4
-9564,-2164,-5848,4223,-8115,1977,2025-02-06 17:23:58,4
-8760,-1960,-7368,2395,-10495,2669,2025-02-06 17:23:58,4
-7444,-2048,-7684,821,-13445,2681,2025-02-06 17:23:58,4
-4488,-2140,-7604,-555,-17720,2229,2025-02-06 17:23:58,4
-4796,-4752,-1828,-387,-25434,504,2025-02-06 17:23:58,4
-5352,-2524,-5108,-757,-30337,-638,2025-02-06 17:23:58,4
-6760,-2212,-3096,-361,-25919,-855,2025-02-06 17:23:58,4
-5860,-4968,-4872,64,-12788,31,2025-02-06 17:23:58,4
1376,-8540,-6152,-2580,4035,2234,2025-02-06 17:23:58,4
10600,-6012,3804,-4916,24018,1594,2025-02-06 17:23:58,4
9352,-2084,8448,-2833,32767,-1545,2025-02-06 17:23:58,4
1752,1092,-2604,-2780,32767,-1656,2025-02-06 17:23:58,4
2404,1380,-7372,-5106,32767,-1537,2025-02-06 17:23:58,4
808,5300,6908,-794,27359,-3789,2025-02-06 17:23:58,4
-5580,6528,14036,6728,8018,-2339,2025-02-06 17:23:58,4
-4484,3204,-4416,7078,1371,-2337,2025-02-06 17:23:58,4
-12068,808,-5800,3654,4307,-2119,2025-02-06 17:23:58,4
-23092,1700,132,1642,11336,273,2025-02-06 17:23:58,4
-32768,1728,1600,1164,11534,4900,2025-02-06 17:23:58,4
-30208,-1304,-10484,-3425,18685,6839,2025-02-06 17:23:58,4
-32768,2336,-3448,-6861,13286,4631,2025-02-06 17:23:58,4
-32768,-4464,-1032,-7579,11117,5776,2025-02-06 17:23:58,4
-30604,-4136,-500,-6816,11767,5423,2025-02-06 17:23:58,4
-24992,-896,312,-3191,13313,2781,2025-02-06 17:23:58,4
-24388,188,-3024,-996,11607,1145,2025-02-06 17:23:58,4
-28496,1340,-5592,116,11418,1021,2025-02-06 17:23:58,4
-32228,4256,-6396,1596,9393,341,2025-02-06 17:23:58,4
-31268,5232,-6648,1781,6356,-450,2025-02-06 17:23:58,4
-30696,2940,-5788,1792,3565,-457,2025-02-06 17:23:58,4
-28840,1132,-4984,956,1308,-85,2025-02-06 17:23:58,4
-26888,1564,-6124,561,6,-567,2025-02-06 17:23:58,4
-28216,2172,-6184,827,-1815,-965,2025-02-06 17:23:58,4
-31204,592,-4080,2030,-5326,-1258,2025-02-06 17:23:58,4
-32496,2356,-6016,2734,-8577,-1393,2025-02-06 17:23:58,4
-32124,1548,-6784,2793,-14116,-1986,2025-02-06 17:23:58,4
-32768,436,-5388,1186,-22881,-2849,2025-02-06 17:23:58,4
-32768,804,-4060,-2364,-28538,-3120,2025-02-06 17:23:58,4
-32768,2364,2484,-5648,-27347,-4452,2025-02-06 17:23:58,4
-32768,-216,7772,-6968,-24242,-5602,2025-02-06 17:23:58,4
-31888,-3932,6304,-3381,-17138,-5033,2025-02-06 17:23:58,4
-22248,-888,4088,1010,-8333,-3786,2025-02-06 17:23:58,4
-15264,1372,6548,6136,1007,-1578,2025-02-06 17:23:58,4
-11324,924,16092,10509,20982,1030,2025-02-06 17:23:58,4
-14184,948,260,12208,25799,4518,2025-02-06 17:23:58,4
-12312,-1940,1024,6337,3559,3505,2025-02-06 17:23:58,4
-15420,-7280,-11120,624,-12699,739,2025-02-06 17:23:58,4
-408,-3556,-11748,-4680,-12387,-1896,2025-02-06 17:23:58,4
10316,-288,-14652,-2432,-5742,-4355,2025-02-06 17:23:58,4
18148,3876,-14600,522,-4019,-5808,2025-02-06 17:23:59,4
18296,2572,-21200,926,-6658,-5997,2025-02-06 17:23:59,4
9080,1240,-19020,-2012,-2715,-3606,2025-02-06 17:23:59,4
-2668,2200,-4188,-2825,1592,789,2025-02-06 17:23:59,4
-8432,2212,10728,-179,1616,3295,2025-02-06 17:23:59,4
-5448,1552,15812,952,-2844,2082,2025-02-06 17:23:59,4
-3752,60,10932,-280,-4634,543,2025-02-06 17:23:59,4
-2880,788,4876,-2756,-4656,-325,2025-02-06 17:23:59,4
-1372,100,716,-3614,-6455,-743,2025-02-06 17:23:59,4
2016,-1640,-1624,-3125,-5921,-962,2025-02-06 17:23:59,4
2504,-1952,244,-1279,-3180,-859,2025-02-06 17:23:59,4
2572,-1368,-1300,648,-1817,606,2025-02-06 17:23:59,4
3164,116,-3376,1196,538,1863,2025-02-06 17:23:59,4
3316,492,-2228,690,1641,1930,2025-02-06 17:23:59,4
1688,836,304,174,1030,1187,2025-02-06 17:23:59,4
516,884,2176,-121,-600,285,2025-02-06 17:23:59,4
164,848,2116,-71,-1350,-57,2025-02-06 17:23:59,4
188,768,116,-281,-948,112,2025-02-06 17:23:59,4
1928,564,164,-558,-931,83,2025-02-06 17:23:59,4
2828,568,896,-296,-1784,-49,2025-02-06 17:23:59,4
5680,1164,1696,573,-1885,-695,2025-02-06 17:23:59,4
6732,792,3168,1592,-840,-926,2025-02-06 17:23:59,4
5688,-1112,3288,1257,1076,-501,2025-02-06 17:23:59,4
4352,-2884,2836,-206,-428,-358,2025-02-06 17:23:59,4
584,-1632,-3772,-3667,-2458,434,2025-02-06 17:23:59,4
544,-1868,-2396,-4993,-1777,1003,2025-02-06 17:23:59,4
2180,-768,-2268,-4791,-766,1324,2025-02-06 17:23:59,4
2332,164,-5064,-4409,500,671,2025-02-06 17:23:59,4
52,100,-5032,-4861,1551,-176,2025-02-06 17:23:59,4
-32768,-4748,8196,-12116,-11793,-2728,2025-02-06 17:23:59,1
-29096,-6688,12140,-9081,-11754,1300,2025-02-06 17:23:59,1
-18360,-520,1124,-11587,-801,1616,2025-02-06 17:23:59,1
-11608,-12,9104,-13276,1133,445,2025-02-06 17:23:59,1
-17456,1648,18912,-10043,-662,-1087,2025-02-06 17:23:59,1
-19480,2132,15652,-4823,-254,-1123,2025-02-06 17:23:59,1
-18244,2484,11336,-1430,2055,528,2025-02-06 17:23:59,1
-14812,3068,6560,535,4947,1672,2025-02-06 17:23:59,1
-16824,2112,3732,118,4670,1967,2025-02-06 17:23:59,1
-16936,384,1916,-1279,5799,2347,2025-02-06 17:23:59,1
-17120,596,3020,-3034,7922,1957,2025-02-06 17:23:59,1
-17188,1340,5828,-3660,9847,664,2025-02-06 17:23:59,1
-15580,2176,5116,-2808,9095,605,2025-02-06 17:23:59,1
-13320,2516,4700,-1409,6942,742,2025-02-06 17:23:59,1
-11008,2936,1556,-866,3756,767,2025-02-06 17:23:59,1
-9748,1988,760,-1255,659,687,2025-02-06 17:23:59,1
-9100,3176,732,-1823,-1355,429,2025-02-06 17:23:59,1
-9440,4060,2100,-1201,-3287,-361,2025-02-06 17:23:59,1
-10268,4720,3884,839,-5289,-697,2025-02-06 17:23:59,1
-9088,5092,4852,3867,-5683,-1046,2025-02-06 17:23:59,1
-10500,4028,4740,7127,-4986,-220,2025-02-06 17:23:59,1
-9092,3168,400,9134,-3258,1497,2025-02-06 17:23:59,1
-6188,1716,-3464,8122,-1734,1635,2025-02-06 17:23:59,1
-5016,-356,-4156,4653,-361,237,2025-02-06 17:23:59,1
-5728,-2104,-1996,1166,31,-1999,2025-02-06 17:24:00,1
-9368,-2636,164,-1313,1610,-3627,2025-02-06 17:24:00,1
-12728,-3624,336,-3489,3205,-4082,2025-02-06 17:24:00,1
-15156,-3772,3676,-5351,4596,-4399,2025-02-06 17:24:00,1
-15308,-3720,8256,-5742,4039,-4640,2025-02-06 17:24:00,1
-16232,-3700,10332,-3471,2747,-4629,2025-02-06 17:24:00,1
-14980,-3516,8228,263,949,-3945,2025-02-06 17:24:00,1
-14020,-3928,5740,2265,-412,-3446,2025-02-06 17:24:00,1
-13192,-4040,5132,3067,-2755,-2757,2025-02-06 17:24:00,1
-13648,-3384,5048,3409,-3795,-2041,2025-02-06 17:24:00,1
-14684,-3192,3752,3023,-2788,-941,2025-02-06 17:24:00,1
-12448,-2572,3624,2895,-1868,-16,2025-02-06 17:24:00,1
-10744,-1776,5124,3650,-1045,-352,2025-02-06 17:24:00,1
-8684,-1020,3984,4075,-108,-1798,2025-02-06 17:24:00,1
-10012,-980,2952,3843,1108,-2868,2025-02-06 17:24:00,1
-11812,-728,3488,3162,1198,-3094,2025-02-06 17:24:00,1
-13240,-2064,3272,2155,1439,-2287,2025-02-06 17:24:00,1
-14968,-2420,3248,406,1579,-947,2025-02-06 17:24:00,1
-14040,-2344,4228,-927,1960,-202,2025-02-06 17:24:00,1
-13432,-1512,6208,-982,1734,-184,2025-02-06 17:24:00,1
-12876,-1076,6600,-572,1163,-164,2025-02-06 17:24:00,1
-13240,-224,7284,-28,429,-283,2025-02-06 17:24:00,1
-14556,368,4216,476,648,737,2025-02-06 17:24:00,1
-14200,832,5088,1378,1800,1364,2025-02-06 17:24:00,1
-13120,256,5396,2029,2349,1642,2025-02-06 17:24:00,1
-12124,-1604,5504,1171,2624,1059,2025-02-06 17:24:00,1
-13188,-2684,7128,-475,2084,-19,2025-02-06 17:24:00,1
-13632,-2408,8304,-1009,203,-1655,2025-02-06 17:24:00,1
-14884,-2232,4768,-1566,-2781,-2792,2025-02-06 17:24:00,1
-17432,-3116,3344,-2780,-2491,-3170,2025-02-06 17:24:00,1
-17820,-2668,3076,-3807,-1328,-3266,2025-02-06 17:24:00,1
-18780,-2176,4176,-4498,-691,-2572,2025-02-06 17:24:00,1
-19120,-1504,6208,-3792,-670,-1612,2025-02-06 17:24:00,1
-19024,-1572,5600,-2863,-611,-781,2025-02-06 17:24:00,1
-18032,-2576,4160,-2543,-626,-384,2025-02-06 17:24:00,1
-18368,-2732,4184,-2816,-461,-71,2025-02-06 17:24:00,1
-17628,-3528,4212,-3306,-629,300,2025-02-06 17:24:00,1
-17044,-3992,4892,-2937,-1710,890,2025-02-06 17:24:00,1
-15476,-3772,2876,-2451,-3201,1581,2025-02-06 17:24:00,1
-14536,-3516,864,-2464,-3222,1868,2025-02-06 17:24:00,1
-12992,-2376,-888,-2661,-2147,1829,2025-02-06 17:24:00,1
-12176,-1060,-1740,-2592,-699,1672,2025-02-06 17:24:00,1
-11396,76,-2648,-2648,368,1478,2025-02-06 17:24:00,1
-10096,1004,-1672,-2385,1790,783,2025-02-06 17:24:00,1
-9568,1532,-456,-1769,3436,-454,2025-02-06 17:24:00,1
-10824,2428,2680,-499,3655,-1588,2025-02-06 17:24:00,1
-12560,2552,4636,1658,3328,-2039,2025-02-06 17:24:00,1
-13808,1924,5208,3405,2525,-1828,2025-02-06 17:24:00,1
-13868,1424,5376,4930,1208,-1676,2025-02-06 17:24:00,1
-12180,-336,768,6006,-297,-1038,2025-02-06 17:24:00,1
-17976,-2572,-2044,4332,-3971,820,2025-02-06 17:24:00,1
-18616,-1708,-3504,995,-7445,2712,2025-02-06 17:24:00,1
-15204,-2324,-2008,-2179,-6592,2438,2025-02-06 17:24:00,1
-14404,-2516,2004,-3630,-3819,1959,2025-02-06 17:24:00,1
-13244,-1916,5892,-3573,-2945,2314,2025-02-06 17:24:00,1
-11236,-804,7628,-2271,-2983,2522,2025-02-06 17:24:00,1
-10436,168,6436,-892,-2962,2479,2025-02-06 17:24:00,1
-10924,436,5124,668,-2767,2645,2025-02-06 17:24:00,1
-10564,-340,2432,1814,-860,3449,2025-02-06 17:24:00,1
-8768,-644,1248,2199,2941,3133,2025-02-06 17:24:00,1
-9116,-496,2412,2389,6308,2615,2025-02-06 17:24:00,1
-10112,48,3860,2732,7544,2508,2025-02-06 17:24:00,1
-11284,284,5144,3073,6595,2564,2025-02-06 17:24:00,1
-12032,360,5536,3102,5209,2222,2025-02-06 17:24:01,1
-12292,728,5864,3360,4384,1340,2025-02-06 17:24:01,1
-12508,1116,6912,3997,2563,-245,2025-02-06 17:24:01,1
-14400,1388,6704,4085,456,-1472,2025-02-06 17:24:01,1
-15220,1168,5840,3734,-300,-1971,2025-02-06 17:24:01,1
-14296,676,5820,3631,-559,-2172,2025-02-06 17:24:01,1
-13544,208,4856,3579,-1121,-2084,2025-02-06 17:24:01,1
-12524,60,3432,3404,-1245,-2161,2025-02-06 17:24:01,1
-12380,-104,3244,3070,-660,-2098,2025-02-06 17:24:01,1
-13468,1820,5532,4540,94,-1613,2025-02-06 17:24:01,1
-15060,2288,7084,6095,2162,-1099,2025-02-06 17:24:01,1
-17912,2496,8188,7568,3107,-246,2025-02-06 17:24:01,1
-18996,2344,7176,8296,1366,945,2025-02-06 17:24:01,1
-17816,1344,5232,7697,-2347,1129,2025-02-06 17:24:01,1
-17224,700,3192,6238,-3891,838,2025-02-06 17:24:01,1
-16956,284,2548,5370,-3788,501,2025-02-06 17:24:01,1
-17236,300,1980,5083,-3924,409,2025-02-06 17:24:01,1
-18656,1036,1964,4770,-2860,568,2025-02-06 17:24:01,1
-16820,468,-68,4231,-1649,-186,2025-02-06 17:24:01,1
-19504,1676,-1196,3589,499,-510,2025-02-06 17:24:01,1
-18304,1596,-696,3708,774,-423,2025-02-06 17:24:01,1
-16128,1344,-1888,3437,-1153,-690,2025-02-06 17:24:01,1
-14648,316,-1108,3191,-3358,-1199,2025-02-06 17:24:01,1
-13832,-640,-1084,2557,-4643,-1191,2025-02-06 17:24:01,1
-12268,-1472,-904,1933,-4611,-747,2025-02-06 17:24:01,1
-10644,-2656,52,1384,-3951,-70,2025-02-06 17:24:01,1
-9372,-2652,20,856,-2204,769,2025-02-06 17:24:01,1
-7692,-3044,1128,607,545,876,2025-02-06 17:24:01,1
-8188,-2472,1188,508,2461,751,2025-02-06 17:24:01,1
-9728,-1840,1136,352,4212,557,2025-02-06 17:24:01,1
-9984,-748,1068,778,1086,954,2025-02-06 17:24:01,1
-9768,-432,1704,-626,1961,458,2025-02-06 17:24:01,1
-10432,-600,2976,-1656,2706,-174,2025-02-06 17:24:01,1
-11380,-408,3752,-2193,3022,-508,2025-02-06 17:24:01,1
-12548,-200,4560,-2419,2894,-746,2025-02-06 17:24:01,1
-12976,-24,4848,-2596,2543,-871,2025-02-06 17:24:01,1
-13308,184,4936,-2841,1933,-1014,2025-02-06 17:24:01,1
-13288,192,5160,-2873,1298,-1026,2025-02-06 17:24:01,1
-13280,16,5200,-2758,338,-1000,2025-02-06 17:24:01,1
-12988,-168,4392,-2376,-174,-904,2025-02-06 17:24:01,1
-12868,252,2588,-1992,-325,-864,2025-02-06 17:24:01,1
-13384,-888,2000,-2021,-468,-487,2025-02-06 17:24:01,1
-13640,-1376,2216,-2381,891,-50,2025-02-06 17:24:01,1
-13904,-1560,4080,-3073,2806,-258,2025-02-06 17:24:01,1
-15356,-1272,6468,-3301,2842,-757,2025-02-06 17:24:01,1
-16336,-936,8672,-2866,1807,-1177,2025-02-06 17:24:01,1
-18284,-668,8344,-2619,513,-1140,2025-02-06 17:24:01,1
-19268,-564,6936,-3411,-2733,65,2025-02-06 17:24:02,1
-18396,-24,5428,-4220,-4811,1040,2025-02-06 17:24:02,1
-15932,200,5888,-4568,-4631,1073,2025-02-06 17:24:02,1
-15300,184,5320,-4781,-4790,871,2025-02-06 17:24:02,1
-15124,-408,3668,-5205,-4320,638,2025-02-06 17:24:02,1
-14952,-784,2536,-5548,-2800,318,2025-02-06 17:24:02,1
-15844,-1116,1704,-5985,-1145,-559,2025-02-06 17:24:02,1
-16984,-1304,1436,-5876,60,-1422,2025-02-06 17:24:02,1
-17512,-1300,792,-5077,-63,-1533,2025-02-06 17:24:02,1
-15444,-768,-88,-3135,-2262,-1159,2025-02-06 17:24:02,1
-14700,-460,188,-2471,-2679,-823,2025-02-06 17:24:02,1
-13584,128,-380,-1798,-2062,-338,2025-02-06 17:24:02,1
-12412,808,-28,-1176,-541,227,2025-02-06 17:24:02,1
-10660,1244,-832,-746,779,615,2025-02-06 17:24:02,1
-10436,2368,196,-567,1499,610,2025-02-06 17:24:02,1
-10172,3216,396,-278,2079,495,2025-02-06 17:24:02,1
-11556,3076,1224,-74,2715,344,2025-02-06 17:24:02,1
-12408,2804,1612,-161,3546,260,2025-02-06 17:24:02,1
-13344,1940,1948,-475,4182,183,2025-02-06 17:24:02,1
-14368,1156,1876,-1095,4209,394,2025-02-06 17:24:02,1
-15052,276,1228,-2481,3812,752,2025-02-06 17:24:02,1
-14524,-156,636,-3942,3252,940,2025-02-06 17:24:02,1
-14044,-84,1000,-5093,2531,768,2025-02-06 17:24:02,1
-12960,-144,1528,-5588,1704,549,2025-02-06 17:24:02,1
-12068,-8,2636,-5585,699,102,2025-02-06 17:24:02,1
-11772,-76,3908,-5090,171,-246,2025-02-06 17:24:02,1
-11608,296,4460,-4054,-9,-454,2025-02-06 17:24:02,1
-11804,240,4012,-2997,549,-491,2025-02-06 17:24:02,1
-11988,252,3944,-1968,1269,-512,2025-02-06 17:24:02,1
-12512,344,4036,-577,2062,-302,2025-02-06 17:24:02,1
-13048,356,4804,657,2066,4,2025-02-06 17:24:02,1
-13532,460,5228,2067,1284,466,2025-02-06 17:24:02,1
-13472,560,4908,3111,769,735,2025-02-06 17:24:02,1
-13284,572,4620,3638,626,753,2025-02-06 17:24:02,1
-12796,372,4988,3990,11,562,2025-02-06 17:24:02,1
-13040,164,4760,4146,-649,358,2025-02-06 17:24:02,1
-12940,-56,3772,4018,-850,37,2025-02-06 17:24:02,1
-12652,96,2568,3727,-949,-465,2025-02-06 17:24:02,1
-12048,508,1108,3591,-879,-1248,2025-02-06 17:24:02,1
-11864,824,1424,3632,-668,-1887,2025-02-06 17:24:02,1
-13200,1628,3796,4057,711,-2123,2025-02-06 17:24:02,1
-15224,1928,5784,4807,2232,-1869,2025-02-06 17:24:02,1
-16672,1412,6944,5473,2250,-1455,2025-02-06 17:24:02,1
-17288,516,6948,5995,1089,-1006,2025-02-06 17:24:02,1
-17816,-320,5960,6074,-417,-643,2025-02-06 17:24:02,7
-17136,-860,4796,5605,-2449,-416,2025-02-06 17:24:02,7
-15220,-904,4080,4995,-3955,-415,2025-02-06 17:24:02,7
-14340,-180,3844,4182,-4213,-609,2025-02-06 17:24:02,7
-14824,700,2960,4165,-3453,-924,2025-02-06 17:24:02,7
-15448,1440,676,4617,-1237,-1350,2025-02-06 17:24:02,7
-15408,1808,-1320,5431,1734,-1738,2025-02-06 17:24:02,7
-16428,2732,-532,6372,4055,-2143,2025-02-06 17:24:02,7
-18368,3296,-196,7346,4046,-2050,2025-02-06 17:24:02,7
-20248,3212,428,7797,2858,-1410,2025-02-06 17:24:02,7
-20600,2280,128,7921,590,-619,2025-02-06 17:24:02,7
-18988,924,-72,7310,-2096,916,2025-02-06 17:24:02,7
-16200,-92,40,6392,-4354,2453,2025-02-06 17:24:02,7
-12024,-1312,-656,5205,-5059,3211,2025-02-06 17:24:02,7
-8528,-1444,-1376,3031,-5045,3363,2025-02-06 17:24:02,7
-6408,-1568,-1332,801,-3794,2721,2025-02-06 17:24:02,7
-6568,-2116,-1548,-1584,-2393,1712,2025-02-06 17:24:02,7
-7588,-1440,-1636,-3575,-236,566,2025-02-06 17:24:02,7
-8888,-1408,-920,-4818,2139,-738,2025-02-06 17:24:02,7
-10488,-1268,-368,-5436,3599,-1975,2025-02-06 17:24:02,7
-12616,-1336,536,-5810,3904,-2734,2025-02-06 17:24:03,7
-14992,-1452,784,-6252,3196,-2982,2025-02-06 17:24:03,7
-17616,-708,1272,-7364,2117,-2556,2025-02-06 17:24:03,7
-18544,-1060,2736,-7462,741,-1644,2025-02-06 17:24:03,7
-18240,-720,2208,-7633,136,-59,2025-02-06 17:24:03,7
-16204,-452,752,-8143,-100,1085,2025-02-06 17:24:03,7
-14540,52,-1476,-9619,-132,1765,2025-02-06 17:24:03,7
-13320,616,-3076,-11771,-109,2588,2025-02-06 17:24:03,7
-12380,1652,-3616,-13902,898,3501,2025-02-06 17:24:03,7
-10620,1460,-3452,-15853,2168,4284,2025-02-06 17:24:03,7
-11740,2356,-3460,-17291,2978,4785,2025-02-06 17:24:03,7
-12900,1924,-3132,-18361,2557,5233,2025-02-06 17:24:03,7
-14212,1408,-2904,-19015,1952,5794,2025-02-06 17:24:03,7
-13396,1244,-3660,-19971,2414,5827,2025-02-06 17:24:03,7
-14040,1344,-4332,-21584,4657,5283,2025-02-06 17:24:03,7
-14864,1612,-5336,-24287,6948,4680,2025-02-06 17:24:03,7
-15236,1792,-7152,-27709,8321,3526,2025-02-06 17:24:03,7
-16524,1728,-8332,-31628,8587,2177,2025-02-06 17:24:03,7
-14808,-3136,-7264,-32768,3052,-1099,2025-02-06 17:24:03,7
-13932,-5680,-5616,-32768,3278,-387,2025-02-06 17:24:03,7
-13596,-6004,-4592,-32768,3700,874,2025-02-06 17:24:03,7
-12688,-5804,-5276,-32768,1916,1740,2025-02-06 17:24:03,7
-11620,-6220,-5548,-32768,1568,2032,2025-02-06 17:24:03,7
-11184,-6548,-4536,-32768,3099,1656,2025-02-06 17:24:03,7
-12124,-6256,-1588,-32768,4573,1230,2025-02-06 17:24:03,7
-13364,-5712,-628,-32768,4978,935,2025-02-06 17:24:03,7
-14516,-5624,-568,-32768,4075,745,2025-02-06 17:24:03,7
-15260,-5536,-192,-32768,3227,813,2025-02-06 17:24:03,7
-15816,-5064,28,-32768,3889,948,2025-02-06 17:24:03,7
-15380,-4764,1348,-32768,4953,795,2025-02-06 17:24:03,7
-14968,-3704,1644,-32768,4263,661,2025-02-06 17:24:03,7
-14444,-2772,1744,-32768,3521,633,2025-02-06 17:24:03,7
-14088,-2380,1680,-32768,2773,665,2025-02-06 17:24:03,7
-13328,112,1608,6799,580,47,2025-02-06 17:24:03,7
-13600,308,1628,7221,903,25,2025-02-06 17:24:03,7
-13256,108,1292,7136,882,-151,2025-02-06 17:24:04,7
-13392,0,1312,6527,596,-523,2025-02-06 17:24:04,7
-13576,276,912,5763,670,-1021,2025-02-06 17:24:04,7
-13980,396,900,5205,1033,-1338,2025-02-06 17:24:04,7
-13592,124,388,4898,985,-1504,2025-02-06 17:24:04,7
-13444,-60,444,4283,810,-1651,2025-02-06 17:24:04,7
-14492,404,1444,4111,1000,-1558,2025-02-06 17:24:04,7
-14524,376,1484,3856,954,-1306,2025-02-06 17:24:04,7
-13784,472,1800,4064,300,-952,2025-02-06 17:24:04,7
-13500,836,1832,4477,35,-679,2025-02-06 17:24:04,7
-13868,968,1968,4970,412,-377,2025-02-06 17:24:04,7
-13712,1216,2484,5326,468,-110,2025-02-06 17:24:04,7
-14032,1048,2756,5714,305,310,2025-02-06 17:24:04,7
-14340,984,2892,5774,349,662,2025-02-06 17:24:04,7
-14760,872,2592,5542,746,1050,2025-02-06 17:24:04,7
-14792,680,2084,4889,1265,1287,2025-02-06 17:24:04,1
-14364,656,1420,3719,1216,1055,2025-02-06 17:24:04,1
-14036,712,1184,2494,597,730,2025-02-06 17:24:04,1
-13680,688,1556,1346,8,231,2025-02-06 17:24:04,1
-13304,684,1980,260,-1110,-443,2025-02-06 17:24:04,1
-12848,572,1860,-464,-1613,-973,2025-02-06 17:24:04,1
-12588,364,1664,-1075,-1344,-1353,2025-02-06 17:24:04,1
-12424,368,1340,-1596,-765,-1667,2025-02-06 17:24:04,1
-12932,584,1908,-1743,-526,-1464,2025-02-06 17:24:04,1
-13108,612,2072,-1661,-632,-1087,2025-02-06 17:24:04,1
-12996,768,2200,-1545,-454,-934,2025-02-06 17:24:04,1
-13424,1028,2644,-1422,-236,-990,2025-02-06 17:24:04,1
-13800,1100,2612,-1207,-269,-966,2025-02-06 17:24:04,1
-14176,1184,2568,-870,-376,-826,2025-02-06 17:24:04,1
-13892,1040,2300,-728,-797,-824,2025-02-06 17:24:04,1
-13456,932,2080,-845,-1209,-1173,2025-02-06 17:24:04,1
-14000,720,2408,-881,-1862,-1543,2025-02-06 17:24:04,1
-14600,1488,2800,-478,-2141,-1581,2025-02-06 17:24:04,1
-14544,816,2456,76,-2216,-1583,2025-02-06 17:24:04,1
-15200,916,1664,224,-2269,-1497,2025-02-06 17:24:04,1
-15328,876,-364,-93,-2000,-1809,2025-02-06 17:24:04,1
-15384,944,-3400,-1749,31,-2094,2025-02-06 17:24:04,1
-15068,1332,-2876,-3342,2139,-2206,2025-02-06 17:24:04,1
-15636,1364,-724,-3991,2455,-1850,2025-02-06 17:24:04,1
-14696,1348,324,-4150,1536,-1292,2025-02-06 17:24:04,1
-14020,972,720,-4342,-264,-849,2025-02-06 17:24:04,1
-13532,4,-136,-5090,-1716,-477,2025-02-06 17:24:04,1
-13312,-460,-948,-6231,-1943,-175,2025-02-06 17:24:04,1
-13388,-1044,-1324,-7446,-1033,82,2025-02-06 17:24:04,1
-13524,-1424,-784,-9432,1634,-155,2025-02-06 17:24:04,1
-14288,-1268,588,-9759,3545,-422,2025-02-06 17:24:04,1
-14652,-1024,1596,-9337,3855,-604,2025-02-06 17:24:04,1
-15040,-1348,2600,-8444,3061,-773,2025-02-06 17:24:04,1
-15308,-1784,2760,-7779,2149,-1208,2025-02-06 17:24:04,1
-15228,-2340,2224,-7444,1301,-1689,2025-02-06 17:24:05,1
-14620,-2612,1932,-7327,842,-1820,2025-02-06 17:24:05,1
-13888,-2424,1868,-7152,977,-1623,2025-02-06 17:24:05,1
-12996,-2272,1528,-6960,1555,-1394,2025-02-06 17:24:05,1
-12200,-1952,1744,-6643,2238,-1144,2025-02-06 17:24:05,1
-11880,-1764,1952,-6217,2402,-819,2025-02-06 17:24:05,1
-11336,-1484,1168,-6089,2336,-510,2025-02-06 17:24:05,1
-11612,-1680,1440,-5933,2426,-252,2025-02-06 17:24:05,1
-11816,-1836,1644,-5911,2777,21,2025-02-06 17:24:05,1
-20704,-844,4020,769,-5383,48,2025-02-06 17:24:05,1
-18784,-1192,2568,1193,-7785,995,2025-02-06 17:24:05,1
-15924,-1124,1020,518,-8050,1736,2025-02-06 17:24:05,1
-14132,-608,308,-168,-6679,1989,2025-02-06 17:24:05,1
-12572,-1152,384,-927,-4925,1679,2025-02-06 17:24:05,1
-12852,-1388,596,-1984,-4145,1280,2025-02-06 17:24:05,1
-14192,-2076,908,-2971,-3768,900,2025-02-06 17:24:05,1
-15804,-2920,1180,-3535,-3432,949,2025-02-06 17:24:05,1
-16852,-3192,344,-3542,-3398,1266,2025-02-06 17:24:05,1
-17096,-2812,-760,-3678,-2652,1383,2025-02-06 17:24:05,1
-16496,-2156,-1644,-3882,-2120,1266,2025-02-06 17:24:05,1
-15152,-1688,-2224,-3629,-2301,687,2025-02-06 17:24:05,1
-13820,-1100,-2188,-2799,-2822,16,2025-02-06 17:24:05,1
-12612,-72,-1312,-1402,-2849,-735,2025-02-06 17:24:05,1
-12380,708,-412,566,-2368,-1196,2025-02-06 17:24:06,1
-12528,1320,120,2336,-1357,-1185,2025-02-06 17:24:06,1
-13184,1548,296,3615,552,-717,2025-02-06 17:24:06,1
-13892,1544,320,3994,2172,-117,2025-02-06 17:24:06,1
-14864,1472,496,3773,2936,391,2025-02-06 17:24:06,1
-15672,980,632,2916,2614,724,2025-02-06 17:24:06,1
-16024,632,1008,2379,1848,950,2025-02-06 17:24:06,1
-15908,556,892,2016,1217,1443,2025-02-06 17:24:06,1
-9444,280,1656,-338,-570,-26,2025-02-06 17:24:06,1
-12908,-36,1152,-5037,-3422,400,2025-02-06 17:24:06,1
-12840,-440,-740,-4737,-2230,437,2025-02-06 17:24:06,1
-13552,-396,-3176,-4972,315,66,2025-02-06 17:24:06,1
-14008,-544,-4684,-5499,3738,-209,2025-02-06 17:24:06,1
-13904,-536,-3688,-6284,4369,-564,2025-02-06 17:24:06,1
-14416,560,-1004,-6664,2508,-713,2025-02-06 17:24:06,1
-14072,1724,640,-5937,241,-754,2025-02-06 17:24:06,1
-13084,1988,640,-4753,-611,-728,2025-02-06 17:24:06,1
-11780,3136,280,-3642,-743,-568,2025-02-06 17:24:06,1
-11460,3064,132,-2515,-152,-360,2025-02-06 17:24:06,1
-10440,2812,-372,-1626,1226,-291,2025-02-06 17:24:06,1
-9564,2448,-96,-1303,1480,-599,2025-02-06 17:24:06,1
-9072,2332,576,-1013,187,-1010,2025-02-06 17:24:06,1
-9812,1864,1080,-524,-1748,-889,2025-02-06 17:24:06,1
-10300,1896,660,260,-2434,295,2025-02-06 17:24:07,1
-9884,1404,28,671,-3036,1320,2025-02-06 17:24:07,1
-8820,832,16,559,-3497,1915,2025-02-06 17:24:07,1
-7236,796,656,380,-3479,1720,2025-02-06 17:24:07,1
-5784,724,1700,18,-3195,879,2025-02-06 17:24:07,1
-5792,876,2152,64,-3238,408,2025-02-06 17:24:07,1
-6388,932,620,834,-2667,-17,2025-02-06 17:24:07,1
-7140,536,-1120,1375,-461,-624,2025-02-06 17:24:07,1
-8272,652,-1624,2008,4265,-1229,2025-02-06 17:24:07,1
-9604,176,-452,2346,8573,-1383,2025-02-06 17:24:07,1
-11916,-368,888,2822,10137,-1180,2025-02-06 17:24:07,1
-14764,-856,1092,3075,9663,-538,2025-02-06 17:24:07,1
-16308,-1700,800,2233,8598,136,2025-02-06 17:24:07,1
-17640,-2368,696,1778,6175,942,2025-02-06 17:24:07,1
-18172,-2304,-372,1514,5011,1044,2025-02-06 17:24:07,1
-18060,-1864,-1056,919,6243,291,2025-02-06 17:24:07,1
-18888,-924,-616,666,7178,79,2025-02-06 17:24:07,1
-18720,-472,440,778,7924,-31,2025-02-06 17:24:07,1
-17744,-580,-1076,894,8041,544,2025-02-06 17:24:07,1
-16608,-868,-2656,977,6815,1441,2025-02-06 17:24:07,1
-17084,-984,-3576,-338,5849,2045,2025-02-06 17:24:07,1
-17264,-180,-1648,-1257,3964,1964,2025-02-06 17:24:07,1
-18168,452,-1036,-1575,3190,1975,2025-02-06 17:24:07,1
-18412,1528,32,-1693,2889,1781,2025-02-06 17:24:07,1
-17760,648,-328,-1626,2611,1849,2025-02-06 17:24:07,1
-16884,204,-1360,-1990,1775,1934,2025-02-06 17:24:07,1
-17268,220,-852,-2435,1159,1891,2025-02-06 17:24:07,1
-17388,476,-696,-2415,998,1478,2025-02-06 17:24:07,1
-17528,676,-456,-2003,705,1200,2025-02-06 17:24:07,1
-16772,1024,-1188,-1595,-399,930,2025-02-06 17:24:07,1
-16492,1084,-1656,-1229,-2013,737,2025-02-06 17:24:07,1
-16728,648,-1464,-1070,-3106,608,2025-02-06 17:24:07,1
-16384,760,-160,-993,-3882,552,2025-02-06 17:24:07,1
-15432,1180,-268,-444,-2987,199,2025-02-06 17:24:07,1
-15064,1040,-836,344,-2217,-60,2025-02-06 17:24:07,1
-14404,772,-1708,869,-2327,-618,2025-02-06 17:24:07,1
-14940,612,-2376,723,-2759,-985,2025-02-06 17:24:07,1
-15348,512,-2148,167,-3081,-903,2025-02-06 17:24:07,1
-15052,524,-2148,-364,-2694,-630,2025-02-06 17:24:07,1
-15532,580,-1672,-470,-1009,-186,2025-02-06 17:24:07,1
-15860,864,-1376,-184,1300,176,2025-02-06 17:24:07,1
-15308,1164,-1432,83,2281,281,2025-02-06 17:24:07,1
-14096,600,-420,1644,-2705,-882,2025-02-06 17:24:07,1
-15184,-360,-76,2727,-4402,-1613,2025-02-06 17:24:07,1
-14852,-448,16,2774,-5027,-1658,2025-02-06 17:24:07,1
-14652,204,292,2079,-6120,-1825,2025-02-06 17:24:07,1
-13968,-24,1268,1609,-7655,-1888,2025-02-06 17:24:07,1
-13164,1944,564,461,-6975,-1579,2025-02-06 17:24:07,1
-13688,2012,1912,-566,-3600,-1031,2025-02-06 17:24:07,1
-13360,1196,2960,-283,-644,-432,2025-02-06 17:24:07,1
-13836,852,2756,478,1447,272,2025-02-06 17:24:07,1
-13224,216,2616,868,2139,763,2025-02-06 17:24:07,1
-12548,204,2432,781,2714,766,2025-02-06 17:24:07,1
-11892,512,2552,553,2867,438,2025-02-06 17:24:07,1
-11620,1184,2244,209,2074,84,2025-02-06 17:24:07,1
-11732,644,2216,-13,1333,-274,2025-02-06 17:24:07,1
-12264,628,2320,1,714,-439,2025-02-06 17:24:07,1
-12204,472,2436,90,316,-407,2025-02-06 17:24:07,1
-12144,528,1916,270,503,-229,2025-02-06 17:24:08,1
-12408,492,1568,243,630,-172,2025-02-06 17:24:08,1
-12284,624,1504,127,526,-280,2025-02-06 17:24:08,1
-12556,796,1072,56,577,-393,2025-02-06 17:24:08,1
-12380,772,820,-235,734,-457,2025-02-06 17:24:08,1
-13072,148,724,-313,1079,-281,2025-02-06 17:24:08,1
-13828,240,900,-338,906,89,2025-02-06 17:24:08,1
-14012,284,256,-528,649,437,2025-02-06 17:24:08,1
-13172,-500,-940,-1027,-102,763,2025-02-06 17:24:08,1
-13272,1684,-332,-1144,-111,838,2025-02-06 17:24:08,1
-13720,656,220,-1149,88,768,2025-02-06 17:24:08,1
-14196,392,328,-1062,440,864,2025-02-06 17:24:08,1
-14512,628,564,-1047,611,894,2025-02-06 17:24:08,1
-14156,540,128,-1049,798,799,2025-02-06 17:24:08,1
-14908,384,980,-1091,1261,908,2025-02-06 17:24:08,1
-14088,276,416,-948,1340,900,2025-02-06 17:24:08,1
-14628,812,280,-1036,1851,927,2025-02-06 17:24:08,1
-14680,1268,52,-1275,2488,697,2025-02-06 17:24:08,1
-14292,1212,-448,-1092,2626,331,2025-02-06 17:24:08,1
-13804,952,-588,-633,2008,-28,2025-02-06 17:24:08,1
-14792,1088,-912,-405,618,-175,2025-02-06 17:24:08,1
-13888,616,-668,-52,-915,-270,2025-02-06 17:24:08,1
-14060,472,404,-75,-311,-44,2025-02-06 17:24:08,1
-14668,836,1296,-4,100,-141,2025-02-06 17:24:08,1
-13780,1148,1388,-132,408,-457,2025-02-06 17:24:08,1
-15068,1540,1532,110,822,-597,2025-02-06 17:24:08,1
-14288,1284,916,218,214,-437,2025-02-06 17:24:08,1
-14068,904,1316,401,-439,-232,2025-02-06 17:24:08,1
-13776,664,704,438,-636,-212,2025-02-06 17:24:08,1
-13924,680,508,330,-536,-296,2025-02-06 17:24:08,1
-13720,1012,672,141,-449,-486,2025-02-06 17:24:08,1
-13720,832,800,-16,-329,-418,2025-02-06 17:24:08,1
-13864,1028,784,-62,-492,-276,2025-02-06 17:24:08,1
-13744,784,1080,-66,-431,-308,2025-02-06 17:24:08,1
-14212,844,744,-186,-203,-396,2025-02-06 17:24:08,1
-14204,760,512,-300,55,-199,2025-02-06 17:24:08,1
-13820,704,568,-364,203,59,2025-02-06 17:24:08,1
-13660,764,472,-454,191,183,2025-02-06 17:24:08,1
-13612,760,676,-617,309,123,2025-02-06 17:24:08,1
-13652,732,788,-726,374,-113,2025-02-06 17:24:08,1
-13904,748,584,-811,281,-215,2025-02-06 17:24:08,1
-13872,784,972,-753,213,-191,2025-02-06 17:24:08,1
-13656,700,944,-612,276,-71,2025-02-06 17:24:08,1
-13340,556,568,-577,274,-101,2025-02-06 17:24:08,1
-13272,604,556,-701,86,-93,2025-02-06 17:24:08,1
-13244,712,400,-873,-58,-79,2025-02-06 17:24:08,1
-13188,592,1304,-743,-250,-97,2025-02-06 17:24:08,1
-13324,692,1404,-551,-278,-64,2025-02-06 17:24:08,1
-13216,796,1084,-477,-301,-67,2025-02-06 17:24:08,1
-12764,876,1104,-495,-349,-119,2025-02-06 17:24:08,1
-12676,884,476,-561,-349,-184,2025-02-06 17:24:08,1
-13308,632,1000,-452,-304,-143,2025-02-06 17:24:08,1
-13196,732,1060,-339,-408,-114,2025-02-06 17:24:08,1
-13300,808,800,-336,-484,-176,2025-02-06 17:24:08,1
-13348,1024,688,-395,-452,-197,2025-02-06 17:24:08,1
-13056,1012,820,-396,-544,-111,2025-02-06 17:24:08,1
-13256,832,592,-291,-575,-57,2025-02-06 17:24:08,1
-13404,668,616,-233,-777,10,2025-02-06 17:24:08,1
-13524,900,440,-269,-843,-93,2025-02-06 17:24:08,1
-13936,1092,488,-491,-970,-269,2025-02-06 17:24:09,1
-14468,1168,896,-674,-721,-103,2025-02-06 17:24:09,1
-14892,1088,1064,-644,-366,71,2025-02-06 17:24:09,1
-14968,964,904,-409,91,80,2025-02-06 17:24:09,1
-14884,1180,768,-323,373,-140,2025-02-06 17:24:09,1
-15604,1144,496,-353,687,-18,2025-02-06 17:24:09,1
-15624,1276,336,-375,1059,88,2025-02-06 17:24:09,1
-16448,1344,628,-377,1289,-8,2025-02-06 17:24:09,1
-16532,1804,1016,-409,1524,-144,2025-02-06 17:24:09,1
-17532,1536,1536,-126,1630,-123,2025-02-06 17:24:09,1
-17748,1240,2124,212,1515,20,2025-02-06 17:24:09,1
-17444,1296,2568,487,1413,-91,2025-02-06 17:24:09,1
-17220,1284,2416,789,1352,-239,2025-02-06 17:24:09,1
-17380,1400,2260,1124,1022,-397,2025-02-06 17:24:09,1
-17300,1476,1604,1443,149,-708,2025-02-06 17:24:09,1
-17276,1220,1488,1863,-1149,-1002,2025-02-06 17:24:09,1
-17560,1332,1364,2009,-2240,-1137,2025-02-06 17:24:09,1
-17668,1100,1712,1901,-2344,-1373,2025-02-06 17:24:09,1
-17788,1576,2092,1792,-2492,-1260,2025-02-06 17:24:09,1
-17144,1664,3376,1880,-3377,-941,2025-02-06 17:24:09,1
-16904,1232,2560,2134,-3697,-1388,2025-02-06 17:24:09,1
-17140,496,3072,3303,-3868,-2327,2025-02-06 17:24:09,1
-17140,-220,4164,4051,-4759,-2567,2025-02-06 17:24:09,1
-17612,-196,4640,4977,-4228,-2475,2025-02-06 17:24:09,1
-15796,-356,4228,5864,-4126,-2066,2025-02-06 17:24:09,1
-15108,24,4036,5885,-4744,-2035,2025-02-06 17:24:09,1
-14056,900,2980,4611,-5710,-2604,2025-02-06 17:24:09,1
-14984,1040,3844,3298,-5142,-2863,2025-02-06 17:24:09,1
-15392,504,4396,2218,-4107,-3128,2025-02-06 17:24:09,1
-16240,148,4472,1714,-2906,-2737,2025-02-06 17:24:09,1
-15980,-64,4044,1933,-3418,-1189,2025-02-06 17:24:09,1
-14616,-708,3556,2198,-3189,177,2025-02-06 17:24:09,1
-13300,-532,3172,2000,-3242,793,2025-02-06 17:24:09,1
-12472,-440,2688,1130,-2871,790,2025-02-06 17:24:09,1
-12592,-80,1564,143,-2141,853,2025-02-06 17:24:09,1
-12136,112,1116,-1253,-1172,1057,2025-02-06 17:24:09,1
-11632,440,1972,-2084,299,1197,2025-02-06 17:24:09,1
-10892,540,2920,-2206,2024,1107,2025-02-06 17:24:09,1
-9932,-168,1796,-2570,3563,588,2025-02-06 17:24:09,1
-8892,828,4028,-2953,2257,-169,2025-02-06 17:24:09,1
-8772,904,3412,-2745,-159,-922,2025-02-06 17:24:09,1
-12540,-1032,2736,-1264,2168,-681,2025-02-06 17:24:09,1
-13400,-976,2096,-1557,-3,-358,2025-02-06 17:24:09,1
-13684,-652,2080,-1629,-171,-715,2025-02-06 17:24:09,1
-14020,-2136,2768,-2914,2455,-1631,2025-02-06 17:24:09,1
-12536,348,3428,-2451,-142,-755,2025-02-06 17:24:09,1
-11656,560,3716,-1181,-2185,-609,2025-02-06 17:24:09,1
-10880,-228,2732,-343,-3072,99,2025-02-06 17:24:09,1
-10360,-696,3948,268,-4660,444,2025-02-06 17:24:09,1
-11028,-1212,2904,345,-5267,536,2025-02-06 17:24:09,1
-9832,-1040,2768,656,-5001,703,2025-02-06 17:24:09,1
-8644,-432,1628,1132,-4224,910,2025-02-06 17:24:09,1
-7988,-300,1052,1262,-3067,812,2025-02-06 17:24:09,1
-8328,-148,1092,1301,-1442,352,2025-02-06 17:24:09,1
-9472,492,904,1199,651,-296,2025-02-06 17:24:09,1
-10660,784,696,974,1656,-855,2025-02-06 17:24:10,1
-12640,1168,748,726,2991,-1126,2025-02-06 17:24:10,1
-15700,1252,1532,485,3937,-1021,2025-02-06 17:24:10,1
-17500,1412,2740,512,3028,-882,2025-02-06 17:24:10,1
-18580,1548,4112,976,673,-793,2025-02-06 17:24:10,1
-17804,1264,3764,1726,-1465,-350,2025-02-06 17:24:10,1
-16708,1412,3724,2136,-1833,66,2025-02-06 17:24:10,1
-15488,1224,2624,2032,-1531,226,2025-02-06 17:24:10,1
-14376,1320,2528,1459,-1066,264,2025-02-06 17:24:10,1
-13668,1128,2932,867,-566,380,2025-02-06 17:24:10,1
-13172,1204,2924,311,25,550,2025-02-06 17:24:10,1
-12220,1272,2520,-230,723,276,2025-02-06 17:24:10,1
-12344,1352,2384,-665,1703,-222,2025-02-06 17:24:10,1
-13252,1344,1420,-872,1974,-364,2025-02-06 17:24:10,1
-13764,968,532,-817,1258,-112,2025-02-06 17:24:10,1
-12668,864,-184,-774,785,232,2025-02-06 17:24:10,1
-11988,648,656,-633,1551,427,2025-02-06 17:24:10,1
-11556,100,1500,-560,2782,582,2025-02-06 17:24:10,1
-11576,-748,2860,-644,3743,483,2025-02-06 17:24:10,1
-11748,-1576,4252,-652,4193,96,2025-02-06 17:24:10,1
-11684,-2484,5080,-444,4167,-830,2025-02-06 17:24:10,1
-12584,-3224,5200,-148,3727,-1880,2025-02-06 17:24:10,1
-13412,-3668,5036,371,4020,-3323,2025-02-06 17:24:10,1
-14600,-5160,5156,462,4409,-4059,2025-02-06 17:24:10,1
-15484,-5536,6084,288,3291,-4333,2025-02-06 17:24:10,1
-19208,-6204,7060,725,527,-3747,2025-02-06 17:24:10,1
-16728,-4984,6452,1680,300,-2978,2025-02-06 17:24:10,1
-16288,-3972,5564,2452,-16,-1573,2025-02-06 17:24:10,1
-15356,-3388,5200,2878,-234,-187,2025-02-06 17:24:10,1
-14060,-2476,4912,3191,-480,898,2025-02-06 17:24:10,1
-12104,-1672,3748,3564,-677,1759,2025-02-06 17:24:10,1
-10608,-924,2896,3791,-1088,2361,2025-02-06 17:24:10,1
-8412,-472,2124,3459,-976,2143,2025-02-06 17:24:10,1
-8668,-576,2064,2381,1337,1067,2025-02-06 17:24:10,1
-9440,-1396,2052,1118,3255,-105,2025-02-06 17:24:10,1
-11220,-1600,3136,120,4973,-791,2025-02-06 17:24:10,1
-11868,-1728,4284,-1174,5227,-1310,2025-02-06 17:24:10,1
-13224,-1832,6308,-1611,5794,-1571,2025-02-06 17:24:10,1
-14648,-1724,7264,-1956,5347,-1899,2025-02-06 17:24:10,1
-15192,-1976,7184,-1959,4276,-1967,2025-02-06 17:24:10,1
-16036,-1788,7340,-2169,2778,-2328,2025-02-06 17:24:10,1
-16132,-1404,6964,-2640,-1004,-2576,2025-02-06 17:24:10,1
-16516,-2172,6548,-2808,-4462,-2501,2025-02-06 17:24:10,1
-16896,-2612,4464,-2404,-6309,-1910,2025-02-06 17:24:10,1
-16684,-2212,1508,-1634,-4643,-994,2025-02-06 17:24:10,1
-16036,-1272,1572,-1788,-2482,-503,2025-02-06 17:24:10,1
-16996,-964,2172,-2235,-347,-373,2025-02-06 17:24:10,1
-18280,-1288,2568,-3175,1339,-631,2025-02-06 17:24:10,1
-19700,-2620,3420,-3977,-481,-354,2025-02-06 17:24:10,1
-20740,-2720,1964,-4017,-3303,1227,2025-02-06 17:24:10,1
-19460,-2320,-504,-4324,-2940,1809,2025-02-06 17:24:10,1
-17804,-1712,-1008,-4800,-2294,1733,2025-02-06 17:24:10,1
-17496,-1152,-1740,-4935,-2232,1816,2025-02-06 17:24:10,1
-16412,-552,-568,-4248,-2434,2055,2025-02-06 17:24:10,1
-14420,48,924,-2915,-2991,2134,2025-02-06 17:24:10,1
-12740,656,2996,-1415,-3685,2169,2025-02-06 17:24:10,1
-11396,1616,5704,902,-4806,2441,2025-02-06 17:24:10,1
-11912,1564,3964,2499,-5419,3037,2025-02-06 17:24:10,1
-11236,972,2104,2682,-3068,3572,2025-02-06 17:24:10,1
-11548,608,572,2449,202,3611,2025-02-06 17:24:10,1
-12084,208,228,1646,3738,3209,2025-02-06 17:24:10,1
-11952,272,900,219,5474,2646,2025-02-06 17:24:10,1
-12728,536,2744,-829,4443,2018,2025-02-06 17:24:11,1
-13020,712,3720,-1136,2316,1606,2025-02-06 17:24:11,1
-13076,568,3816,-860,738,1365,2025-02-06 17:24:11,1
-12348,552,3900,-331,-4,1094,2025-02-06 17:24:11,1
-11796,816,3436,61,-220,818,2025-02-06 17:24:11,1
-11468,860,3316,409,-91,505,2025-02-06 17:24:11,1
-11240,1040,3180,634,649,249,2025-02-06 17:24:11,1
-10956,1096,3140,924,1206,257,2025-02-06 17:24:11,1
-10976,1072,3360,1330,1457,389,2025-02-06 17:24:11,1
-11056,888,3636,1687,1309,657,2025-02-06 17:24:11,1
-11368,820,4000,1741,909,885,2025-02-06 17:24:11,1
-11444,1012,4280,1503,325,841,2025-02-06 17:24:11,1
-11728,844,4728,1225,-528,534,2025-02-06 17:24:11,1
-11696,904,4836,1104,-1417,155,2025-02-06 17:24:11,1
-12060,732,5132,1041,-1959,-401,2025-02-06 17:24:11,1
-12040,572,4992,1178,-2106,-936,2025-02-06 17:24:11,1
-12488,576,3816,1087,-1588,-1265,2025-02-06 17:24:11,1
-12136,368,848,492,-800,-1576,2025-02-06 17:24:11,1
-12952,1844,1248,-609,698,-2137,2025-02-06 17:24:11,1
-15020,3000,5904,113,2317,-2180,2025-02-06 17:24:11,1
-17600,3664,9740,2227,2857,-1536,2025-02-06 17:24:11,1
-16836,3568,9520,4314,695,-346,2025-02-06 17:24:11,1
-18092,1056,8184,4707,-3099,72,2025-02-06 17:24:11,1
-16680,672,6316,4167,-5140,-129,2025-02-06 17:24:11,1
-15476,-16,5184,3640,-4859,-583,2025-02-06 17:24:11,1
-14524,-216,4340,2961,-4300,-930,2025-02-06 17:24:11,1
-13488,24,4560,2180,-4091,-1215,2025-02-06 17:24:11,1
-13916,1008,4628,1747,-3556,-1636,2025-02-06 17:24:11,1
-14916,1792,4680,1969,-2302,-1656,2025-02-06 17:24:11,1
-16052,2780,2520,2306,-606,-1435,2025-02-06 17:24:11,1
-17084,3216,1052,2558,999,-1254,2025-02-06 17:24:11,1
-18000,3224,636,2790,680,-689,2025-02-06 17:24:11,7
-17832,3084,-552,2482,-684,-9,2025-02-06 17:24:11,7
-17420,3056,-1436,1678,-2180,570,2025-02-06 17:24:11,7
-17036,2852,-2068,579,-2723,941,2025-02-06 17:24:11,7
-15664,2036,-1208,-321,-3397,1293,2025-02-06 17:24:11,7
-14288,1092,-888,-1233,-4206,1373,2025-02-06 17:24:11,7
-12052,292,-1468,-2400,-3361,1371,2025-02-06 17:24:11,7
-12964,140,3016,-10241,169,3270,2025-02-06 17:24:11,7
-11400,604,2744,-11664,-863,2667,2025-02-06 17:24:11,7
-10852,896,2416,-12648,-882,1761,2025-02-06 17:24:11,7
-10768,1020,2536,-13476,-246,605,2025-02-06 17:24:11,7
-11392,872,2576,-14245,-62,-170,2025-02-06 17:24:11,7
-12004,812,2740,-14652,-531,-446,2025-02-06 17:24:11,7
-13296,296,1912,-14936,-1106,-145,2025-02-06 17:24:11,7
-14180,-280,1116,-15387,-1032,448,2025-02-06 17:24:11,7
-14344,-892,616,-16067,-747,1242,2025-02-06 17:24:11,7
-14352,-1248,496,-16918,-500,1821,2025-02-06 17:24:11,7
-14188,-1544,672,-17749,-518,2291,2025-02-06 17:24:11,7
-13780,-1632,904,-18581,-441,2713,2025-02-06 17:24:11,7
-13696,-1472,1520,-19460,-632,2928,2025-02-06 17:24:11,7
-14224,-1044,1304,-20155,-737,2939,2025-02-06 17:24:12,7
-14476,-532,608,-20503,-107,2845,2025-02-06 17:24:12,7
-14172,-52,-768,-20820,482,2660,2025-02-06 17:24:12,7
-14060,460,-456,-21247,1522,1951,2025-02-06 17:24:12,7
-15636,1760,932,-21836,2742,946,2025-02-06 17:24:12,7
-16824,3068,888,-21812,2716,532,2025-02-06 17:24:12,7
-18016,3924,-884,-21366,2714,1134,2025-02-06 17:24:12,7
-17452,4640,-2096,-21110,3248,2347,2025-02-06 17:24:12,7
-16896,4352,-2276,-21484,4513,3553,2025-02-06 17:24:12,7
-15576,3560,-2064,-23293,4730,3863,2025-02-06 17:24:12,7
-14828,2612,-1356,-25744,3725,3526,2025-02-06 17:24:12,7
-13904,2144,-1388,-27921,2670,2898,2025-02-06 17:24:12,7
-12988,1048,-2336,-29630,1651,2071,2025-02-06 17:24:12,7
-12628,640,-2240,-30792,1226,1552,2025-02-06 17:24:12,7
-12180,-116,-2352,-31810,1220,1325,2025-02-06 17:24:12,7
-12464,-972,-2048,-32672,1241,1388,2025-02-06 17:24:12,7
-13184,-1648,-1856,-32768,1426,1926,2025-02-06 17:24:12,7
-13648,-1948,-892,-32768,1948,2633,2025-02-06 17:24:12,7
-14672,-2008,300,-32768,2445,3098,2025-02-06 17:24:12,7
-15040,-1792,636,-32768,2911,3198,2025-02-06 17:24:12,7
-15312,-1528,720,-32768,2258,3034,2025-02-06 17:24:12,7
-14844,-1148,604,-32609,925,2949,2025-02-06 17:24:12,7
-13752,-696,1320,-31888,401,2929,2025-02-06 17:24:12,7
-12560,-724,1656,-31123,572,2705,2025-02-06 17:24:12,7
-12752,-804,1988,-29941,853,2593,2025-02-06 17:24:12,7
-12792,-1284,1816,-29003,354,2837,2025-02-06 17:24:12,7
-13132,-1560,1316,-28086,755,2996,2025-02-06 17:24:12,7
-12932,-1776,1324,-27455,959,3085,2025-02-06 17:24:12,7
-13244,-2072,1480,-27174,593,2851,2025-02-06 17:24:12,7
-13824,-2160,2416,-26718,610,2549,2025-02-06 17:24:12,7
-14312,-2228,3252,-26359,211,2162,2025-02-06 17:24:12,7
-13976,-2048,3584,-25627,-544,2019,2025-02-06 17:24:12,7
-13476,-1840,3648,-24606,-1230,1959,2025-02-06 17:24:12,7
-12632,-1628,3284,-23633,-2321,1767,2025-02-06 17:24:12,7
-12512,-1488,3492,-22680,-2519,1558,2025-02-06 17:24:12,7
-12892,-1612,3796,-21885,-2153,1358,2025-02-06 17:24:12,7
-12820,-1556,4312,-21148,-1461,1110,2025-02-06 17:24:12,7
-13248,-1700,4732,-20091,-597,975,2025-02-06 17:24:12,7
-13364,-1688,4424,-18825,601,1056,2025-02-06 17:24:12,7
-12684,-1828,4296,-18198,902,1122,2025-02-06 17:24:12,7
-13740,-1536,4112,-16990,1195,1218,2025-02-06 17:24:12,7
-14464,-1292,3876,-15527,1666,1244,2025-02-06 17:24:12,7
-14660,-1324,2900,-13764,2544,1336,2025-02-06 17:24:12,7
-14800,-1800,2288,-12103,3532,1397,2025-02-06 17:24:12,7
-14740,-2016,2068,-11068,3769,1348,2025-02-06 17:24:12,7
-15360,-2380,3032,-10414,3455,1289,2025-02-06 17:24:12,7
-15152,-2024,4832,-9719,2781,1059,2025-02-06 17:24:12,7
-14564,-1540,6892,-8957,2138,454,2025-02-06 17:24:12,7
-14352,-400,6656,-7488,2387,-272,2025-02-06 17:24:12,7
-14128,412,5208,-5604,3475,-291,2025-02-06 17:24:12,7
-12564,572,2900,-3909,3888,-96,2025-02-06 17:24:12,7
-11024,596,1756,-2594,2923,-390,2025-02-06 17:24:12,7
-10200,84,1724,-1788,1992,-1117,2025-02-06 17:24:12,7
-9672,-336,1980,-1253,1076,-1798,2025-02-06 17:24:12,7
-10116,-776,2112,-964,-58,-2564,2025-02-06 17:24:12,7
-11668,-1268,2056,-703,137,-2886,2025-02-06 17:24:12,7
-14280,-1436,1352,-377,3590,-2768,2025-02-06 17:24:13,7
-16416,-904,1640,249,7209,-2340,2025-02-06 17:24:13,7
-18340,-140,2732,1508,8263,-1542,2025-02-06 17:24:13,7
-18960,76,3460,3006,6881,-305,2025-02-06 17:24:13,7
-18928,-84,3516,3328,2872,245,2025-02-06 17:24:13,7
-18004,-604,3812,2020,-1545,228,2025-02-06 17:24:13,1
-17132,-100,4084,223,-3358,215,2025-02-06 17:24:13,1
-14900,524,4200,-190,-1971,22,2025-02-06 17:24:13,1
-12788,1272,3124,73,-305,40,2025-02-06 17:24:13,1
-12008,1876,2904,197,1063,-40,2025-02-06 17:24:13,1
-10188,1984,1704,6,1691,-332,2025-02-06 17:24:13,1
-11076,1100,1880,-543,1420,-592,2025-02-06 17:24:13,1
-13040,192,3308,-824,792,-386,2025-02-06 17:24:13,1
-14020,-632,3288,-796,739,-58,2025-02-06 17:24:13,1
-14340,-1196,3244,-835,553,77,2025-02-06 17:24:13,1
-14108,-900,3060,-869,672,406,2025-02-06 17:24:13,1
-13808,-832,2804,-716,995,408,2025-02-06 17:24:13,1
-13896,-848,2604,-322,1018,391,2025-02-06 17:24:13,1
-13684,-804,2792,169,891,302,2025-02-06 17:24:13,1
-13828,-508,2672,567,1007,160,2025-02-06 17:24:13,1
-13628,-436,3148,815,779,-171,2025-02-06 17:24:13,1
-13668,-180,3448,941,-40,-512,2025-02-06 17:24:13,1
-13780,-180,3512,954,-812,-634,2025-02-06 17:24:13,1
-13768,184,3600,937,-1239,-609,2025-02-06 17:24:13,1
-13616,460,3496,1009,-978,-476,2025-02-06 17:24:13,1
-13516,732,3540,1100,-359,-258,2025-02-06 17:24:13,1
-13148,772,3424,977,-114,-324,2025-02-06 17:24:13,1
-13212,868,3444,556,-420,-522,2025-02-06 17:24:13,1
-13484,856,3636,91,-740,-660,2025-02-06 17:24:13,1
-13768,1008,3936,-413,-1224,-652,2025-02-06 17:24:13,1
-13800,1200,4248,-668,-1582,-496,2025-02-06 17:24:13,1
-13476,1116,4428,-856,-1733,-308,2025-02-06 17:24:13,1
-13444,964,4508,-1063,-1687,-174,2025-02-06 17:24:13,1
-13256,948,4512,-1145,-1428,-40,2025-02-06 17:24:13,1
-13088,744,4336,-1165,-1364,-107,2025-02-06 17:24:13,1
-13324,632,4296,-1062,-1384,-197,2025-02-06 17:24:13,1
-13816,400,4752,-1000,-1573,-350,2025-02-06 17:24:13,1
-14592,340,4876,-842,-1752,-493,2025-02-06 17:24:13,1
-15900,296,4408,-648,-1935,-459,2025-02-06 17:24:13,1
-16212,4,3492,-424,-2012,-448,2025-02-06 17:24:13,1
-16144,-88,2088,-462,-1691,-604,2025-02-06 17:24:13,1
-15828,240,1992,-286,-1518,-1150,2025-02-06 17:24:13,1
-16084,488,1424,-114,-528,-1549,2025-02-06 17:24:13,1
-16184,764,1652,319,495,-2032,2025-02-06 17:24:13,1
-16832,844,1588,954,1175,-2326,2025-02-06 17:24:13,1
-17240,988,1108,1425,1013,-2440,2025-02-06 17:24:13,1
-17316,836,512,1534,92,-2457,2025-02-06 17:24:13,1
-16884,540,-228,1173,-405,-2394,2025-02-06 17:24:13,1
-15904,540,-328,567,-1156,-1841,2025-02-06 17:24:13,1
-14604,160,812,-96,-1836,-998,2025-02-06 17:24:13,1
-13820,112,1604,-700,-1902,-86,2025-02-06 17:24:13,1
-12012,-136,2436,-1455,-1661,417,2025-02-06 17:24:13,1
-10844,184,3208,-1817,-1161,531,2025-02-06 17:24:13,1
-10136,-132,2732,-1925,-342,601,2025-02-06 17:24:13,1
-13696,-2620,2972,-3262,3061,-195,2025-02-06 17:24:13,1
-13512,-2508,2728,-3194,3915,-243,2025-02-06 17:24:13,1
-13516,-2248,2988,-3430,3593,-475,2025-02-06 17:24:13,1
-13704,-2176,3604,-3549,2525,-737,2025-02-06 17:24:13,1
-13976,-1616,4300,-3416,2348,-668,2025-02-06 17:24:13,1
-14156,-1496,5032,-3104,1325,-686,2025-02-06 17:24:14,1
-14048,-1164,5344,-2670,840,-482,2025-02-06 17:24:14,1
-13524,-888,4976,-2037,669,-248,2025-02-06 17:24:14,1
-13236,-676,4452,-1529,138,319,2025-02-06 17:24:14,1
-12656,-512,4280,-1416,-259,713,2025-02-06 17:24:14,1
-12496,-320,4060,-1302,-644,941,2025-02-06 17:24:14,1
-12320,-308,3552,-1064,-506,957,2025-02-06 17:24:14,1
-12372,-560,2916,-781,-29,1026,2025-02-06 17:24:14,1
-12572,-644,1852,-681,648,1026,2025-02-06 17:24:14,1
-12368,-860,1724,-1096,1403,793,2025-02-06 17:24:14,1
-13008,-996,2652,-2221,1818,163,2025-02-06 17:24:14,1
-13952,-960,4364,-3432,1540,-570,2025-02-06 17:24:14,1
-14828,-820,6024,-4445,165,-1305,2025-02-06 17:24:14,1
-16096,-508,7368,-4665,-1281,-1852,2025-02-06 17:24:14,1
-16732,244,8112,-4102,-2673,-1739,2025-02-06 17:24:14,1
-16476,768,8456,-3065,-4431,-1280,2025-02-06 17:24:14,1
-16576,300,7496,-2524,-5709,-601,2025-02-06 17:24:14,1
-15900,272,5652,-2293,-6187,378,2025-02-06 17:24:14,1
-15524,-184,4036,-2751,-6262,1099,2025-02-06 17:24:14,1
-14520,-436,2408,-3718,-5474,1485,2025-02-06 17:24:14,1
-13612,-1172,2408,-4628,-3754,1366,2025-02-06 17:24:14,1
-14560,-1316,3180,-5202,-2076,802,2025-02-06 17:24:14,1
-15544,-1848,3800,-5481,-232,329,2025-02-06 17:24:14,1
-17092,-2844,5236,-5130,472,269,2025-02-06 17:24:14,1
-18460,-3512,5368,-4259,-526,1172,2025-02-06 17:24:14,1
-18288,-3808,3184,-3153,-2341,2584,2025-02-06 17:24:14,1
-17732,-3704,672,-2768,-2841,3459,2025-02-06 17:24:14,1
-16452,-2992,-1688,-3114,-1295,3589,2025-02-06 17:24:14,1
-14688,-2452,-1056,-3508,-635,3074,2025-02-06 17:24:14,1
-12388,-1588,-112,-3072,-830,1780,2025-02-06 17:24:14,1
-11324,-156,1588,-2492,-1550,681,2025-02-06 17:24:14,1
-9516,148,2148,-1542,-1994,-95,2025-02-06 17:24:14,1
-9484,604,2664,-454,-1809,-688,2025-02-06 17:24:14,1
-10536,1208,2856,913,-1153,-710,2025-02-06 17:24:14,1
-11748,1120,3060,2169,470,-363,2025-02-06 17:24:14,1
-11824,1092,2792,3406,2760,-15,2025-02-06 17:24:14,1
-13292,1024,3416,4034,4312,95,2025-02-06 17:24:14,1
-14212,384,3384,3863,4851,37,2025-02-06 17:24:14,1
-15592,-424,2424,2474,4438,174,2025-02-06 17:24:14,1
-15000,-540,2592,689,2831,175,2025-02-06 17:24:14,1
-14556,-144,2840,-380,658,151,2025-02-06 17:24:14,1
-13440,544,3180,-690,-640,18,2025-02-06 17:24:14,1
-12556,1028,3644,-459,-1103,-222,2025-02-06 17:24:14,1
-11684,1104,3120,63,-1293,-595,2025-02-06 17:24:14,1
-11484,1160,3136,812,-614,-865,2025-02-06 17:24:14,1
-11656,904,3192,1380,376,-978,2025-02-06 17:24:14,1
-12000,1004,3492,1790,1422,-917,2025-02-06 17:24:14,1
-12612,988,4036,2151,2095,-713,2025-02-06 17:24:14,1
-12824,864,4176,2460,2406,-442,2025-02-06 17:24:14,1
-13032,684,4148,2528,2127,-212,2025-02-06 17:24:14,1
-12792,488,4204,2392,1639,-50,2025-02-06 17:24:14,1
-12472,432,4292,2101,1236,-110,2025-02-06 17:24:14,1
-12028,240,4508,1836,717,-417,2025-02-06 17:24:14,1
-11900,-76,4344,1573,350,-727,2025-02-06 17:24:14,1
-11664,-324,3828,1241,81,-1048,2025-02-06 17:24:14,1
-11176,-268,3016,823,111,-1485,2025-02-06 17:24:14,1
-10632,-192,2204,527,316,-2158,2025-02-06 17:24:14,1
-10744,-196,1116,-10,426,-2772,2025-02-06 17:24:14,1
-12808,676,2068,-192,1409,-3027,2025-02-06 17:24:14,1
-13936,844,4920,657,3238,-2884,2025-02-06 17:24:14,1
-16068,776,8952,2584,3480,-2217,2025-02-06 17:24:14,1
-18244,-40,10232,4701,1553,-841,2025-02-06 17:24:15,1
-18108,-916,9508,6536,-146,397,2025-02-06 17:24:15,1
-17184,-1840,6720,6875,-966,1043,2025-02-06 17:24:15,1
-16112,-1688,5036,5109,-2563,898,2025-02-06 17:24:15,1
-15604,-748,5428,3470,-2856,257,2025-02-06 17:24:15,1
-16400,1220,6072,4343,-1692,38,2025-02-06 17:24:15,1
-16484,1784,4980,6218,-1172,-20,2025-02-06 17:24:15,1
-17208,2184,2944,6776,-530,-268,2025-02-06 17:24:15,1
-19424,2400,2240,6830,1716,-540,2025-02-06 17:24:15,1
-20224,2400,2288,7050,3487,-278,2025-02-06 17:24:15,1
-17836,2016,1932,7232,1370,-669,2025-02-06 17:24:15,1
-19556,3060,-508,6170,459,-927,2025-02-06 17:24:15,1
-18916,2672,1352,5635,-1253,-397,2025-02-06 17:24:15,1
-16408,1436,1148,5098,-4717,209,2025-02-06 17:24:15,1
-13776,364,464,3938,-6594,1206,2025-02-06 17:24:15,1
-11296,-396,-1012,2339,-6991,2333,2025-02-06 17:24:15,1
-7908,-1016,-668,581,-7556,2662,2025-02-06 17:24:15,1
-6844,-1560,-1828,-1092,-7518,2828,2025-02-06 17:24:15,1
-7200,-1524,-1440,-2624,-5472,2916,2025-02-06 17:24:15,1
-7992,-2488,-1164,-3666,-2785,2227,2025-02-06 17:24:15,1
-9460,-2844,-424,-4589,-829,1667,2025-02-06 17:24:15,1
-11440,-3112,912,-5120,930,979,2025-02-06 17:24:15,1
-13156,-2532,2104,-4415,2376,-368,2025-02-06 17:24:15,1
-15500,-1864,3384,-2785,4062,-2350,2025-02-06 17:24:15,1
-17936,-1868,4692,-832,4772,-3496,2025-02-06 17:24:15,1
-18604,-2152,4968,1138,4631,-3455,2025-02-06 17:24:15,1
-18408,-1868,5576,2590,3725,-2416,2025-02-06 17:24:15,1
-16552,-1556,5648,3679,2257,-755,2025-02-06 17:24:15,1
-13624,-1108,4376,4454,1790,426,2025-02-06 17:24:15,1
-11136,-636,3712,4616,1374,1428,2025-02-06 17:24:15,1
-8524,-236,3200,4111,502,1627,2025-02-06 17:24:15,1
-7728,-184,2268,3077,628,1170,2025-02-06 17:24:15,1
-7960,-288,2072,1692,2060,281,2025-02-06 17:24:15,1
-9076,-664,1628,-134,2874,-821,2025-02-06 17:24:15,1
-10708,-892,2448,-1828,2968,-1638,2025-02-06 17:24:15,1
-11892,-996,3724,-3014,2028,-2003,2025-02-06 17:24:15,1
-12660,-1000,5288,-3467,749,-2099,2025-02-06 17:24:15,1
-13288,-1128,5904,-3396,133,-1940,2025-02-06 17:24:15,1
-13520,-1128,6444,-2955,-12,-1697,2025-02-06 17:24:15,1
-14192,-960,6868,-2377,-469,-1349,2025-02-06 17:24:15,1
-13964,-920,6616,-1674,-849,-923,2025-02-06 17:24:15,1
-13760,-832,6336,-713,-1377,-314,2025-02-06 17:24:15,1
-12856,-852,4244,137,-2079,508,2025-02-06 17:24:15,1
-12184,-912,2904,-80,-2189,1013,2025-02-06 17:24:15,1
-12268,-1440,2752,-1425,-1217,976,2025-02-06 17:24:15,1
-13252,-1740,4440,-2840,829,500,2025-02-06 17:24:15,1
-14844,-1452,6968,-3693,1102,32,2025-02-06 17:24:15,1
-16396,-992,8292,-3983,-54,-189,2025-02-06 17:24:15,1
-17500,-120,9372,-4601,-2127,-433,2025-02-06 17:24:16,1
-17260,264,9464,-4649,-5034,-62,2025-02-06 17:24:16,1
-16076,720,8592,-4457,-8119,573,2025-02-06 17:24:16,1
-14520,800,6612,-3897,-8772,1138,2025-02-06 17:24:16,1
-20148,-2544,1160,-3655,-862,398,2025-02-06 17:24:16,1
-19812,-1812,-844,-3531,-105,448,2025-02-06 17:24:16,1
-18964,-848,-796,-3437,-45,64,2025-02-06 17:24:16,1
-17524,344,-832,-2704,-406,293,2025-02-06 17:24:16,1
-15492,1060,-80,-1691,101,644,2025-02-06 17:24:16,1
-12048,3356,3768,744,1835,488,2025-02-06 17:24:16,1
-11556,2664,2496,1377,3496,453,2025-02-06 17:24:16,1
-11508,1940,1084,288,3191,16,2025-02-06 17:24:16,1
-11652,892,448,-1069,3192,-469,2025-02-06 17:24:16,1
-12752,-184,1176,-2475,3703,-97,2025-02-06 17:24:16,1
-12992,-600,1964,-3587,3230,365,2025-02-06 17:24:16,1
-12548,-592,2636,-4444,2624,324,2025-02-06 17:24:16,1
-11704,-536,3196,-5011,2962,-93,2025-02-06 17:24:16,1
-11064,24,4412,-5149,2203,-822,2025-02-06 17:24:16,1
-11352,56,5692,-4087,2199,-1228,2025-02-06 17:24:16,1
-11284,0,5836,-2513,2441,-1225,2025-02-06 17:24:16,1
-11096,-236,5872,-926,2314,-630,2025-02-06 17:24:16,1
-10396,-404,4260,0,2221,-210,2025-02-06 17:24:16,1
-10128,-756,3660,610,2293,106,2025-02-06 17:24:16,1
-10848,-1004,3996,1160,2301,409,2025-02-06 17:24:16,1
-11716,-980,4340,1523,2432,467,2025-02-06 17:24:16,1
-12396,-920,5140,2184,2460,103,2025-02-06 17:24:16,1
-13400,-176,6240,2933,1959,-229,2025-02-06 17:24:16,1
-14744,272,6352,3769,808,-541,2025-02-06 17:24:16,1
-14920,548,5548,4066,498,-912,2025-02-06 17:24:16,1
-14884,788,4672,3966,-499,-1354,2025-02-06 17:24:16,1
-13912,764,1932,3571,-620,-1434,2025-02-06 17:24:16,1
-12280,1236,832,3145,-547,-1419,2025-02-06 17:24:16,1
-11528,2400,1356,3162,-840,-1395,2025-02-06 17:24:16,1
-12752,3288,3768,3645,554,-1108,2025-02-06 17:24:16,1
-14828,3268,5852,3981,2766,-306,2025-02-06 17:24:16,1
-16516,1952,7196,4184,3725,918,2025-02-06 17:24:16,1
-15720,-1184,5312,1898,449,1322,2025-02-06 17:24:16,1
-14568,-1272,5960,375,-1638,1029,2025-02-06 17:24:16,1
-12860,-1236,6476,-602,-3684,581,2025-02-06 17:24:16,1
-12280,-880,7764,-1152,-4852,-243,2025-02-06 17:24:16,1
-12248,-688,8644,-962,-5680,-599,2025-02-06 17:24:16,1
-13352,104,8640,-29,-5796,-478,2025-02-06 17:24:16,1
-13452,884,6788,1274,-4058,-307,2025-02-06 17:24:16,1
-14236,1904,4720,2706,-2193,-285,2025-02-06 17:24:16,1
-15108,3000,3964,4544,76,43,2025-02-06 17:24:16,1
-17992,3376,2780,6216,3501,758,2025-02-06 17:24:16,1
-20668,3892,2268,7611,6332,1618,2025-02-06 17:24:16,1
-22760,3380,3056,8674,6062,2409,2025-02-06 17:24:16,1
-20224,2632,400,8340,1551,2138,2025-02-06 17:24:16,1
-19324,168,-2012,5977,-2465,875,2025-02-06 17:24:16,1
-17416,-540,-1824,3779,-4250,172,2025-02-06 17:24:16,1
-14700,-1528,-1140,2326,-5307,7,2025-02-06 17:24:16,1
-12348,-2444,-1904,687,-6570,346,2025-02-06 17:24:16,1
-10100,-2960,-2052,-1034,-6897,686,2025-02-06 17:24:16,1
-9072,-3364,-2064,-2771,-5397,694,2025-02-06 17:24:16,1
-9256,-3168,-796,-4155,-2997,585,2025-02-06 17:24:16,1
-10292,-2696,1276,-4552,-536,564,2025-02-06 17:24:16,1
-11632,-1704,3252,-3660,2458,368,2025-02-06 17:24:17,1
-9664,92,1332,-1630,1885,-210,2025-02-06 17:24:17,1
-10116,-132,1744,-2726,2399,-598,2025-02-06 17:24:17,1
-11436,-340,3100,-3216,2733,-868,2025-02-06 17:24:17,1
-12720,-608,4652,-3214,2413,-883,2025-02-06 17:24:17,1
-13876,-892,5284,-2928,1687,-696,2025-02-06 17:24:17,1
-14436,-1000,5544,-2498,1204,-391,2025-02-06 17:24:17,1
-14540,-924,5372,-1921,727,59,2025-02-06 17:24:17,1
-14572,-716,4832,-1287,148,494,2025-02-06 17:24:17,1
-13832,-520,4196,-688,-683,758,2025-02-06 17:24:17,1
-12920,-568,3136,31,-1199,719,2025-02-06 17:24:17,1
-12232,-780,2424,387,-1428,663,2025-02-06 17:24:17,1
-12364,-880,1696,17,-577,306,2025-02-06 17:24:17,1
-13184,-880,2904,-934,2070,-494,2025-02-06 17:24:17,1
-14592,-668,4984,-1692,3604,-1046,2025-02-06 17:24:17,1
-15832,-184,6136,-1865,3316,-1375,2025-02-06 17:24:17,1
-16580,892,5992,-2353,1252,-1683,2025-02-06 17:24:17,1
-16808,2196,7136,-2979,-1858,-1718,2025-02-06 17:24:17,1
-16168,2800,8012,-2845,-4336,-1600,2025-02-06 17:24:17,1
-15784,2560,8104,-2046,-5368,-1175,2025-02-06 17:24:17,1
-14968,2212,6288,-1839,-4992,-635,2025-02-06 17:24:17,1
-14576,1036,5040,-2143,-4113,-178,2025-02-06 17:24:17,1
-14452,160,3356,-3042,-3790,270,2025-02-06 17:24:17,1
-15144,-772,1136,-4034,-1862,435,2025-02-06 17:24:17,1
-15968,-1228,196,-5322,1401,76,2025-02-06 17:24:17,1
-17024,-1532,712,-6014,2181,-251,2025-02-06 17:24:17,1
-18176,-1768,896,-5862,908,23,2025-02-06 17:24:17,1
-18488,-2232,1500,-5046,-1652,755,2025-02-06 17:24:17,1
-17160,-2164,1376,-4395,-3101,1181,2025-02-06 17:24:17,1
-15080,-1952,620,-4445,-2662,753,2025-02-06 17:24:17,1
-12688,-1200,728,-4977,-1721,0,2025-02-06 17:24:17,1
-11400,-196,1496,-5029,-1096,-376,2025-02-06 17:24:17,1
-10940,1652,2208,-3752,76,-581,2025-02-06 17:24:17,1
-10980,2664,1840,-1687,1422,-717,2025-02-06 17:24:17,1
-11812,2764,1756,-92,2861,-855,2025-02-06 17:24:17,1
-12320,2864,1540,564,4248,-1124,2025-02-06 17:24:17,1
-13688,2496,2160,564,4858,-1339,2025-02-06 17:24:17,1
-15604,1360,2540,-287,4039,-1222,2025-02-06 17:24:17,1
-16480,900,2700,-1057,3080,-801,2025-02-06 17:24:17,1
-16384,184,2020,-1602,2580,-301,2025-02-06 17:24:17,1
-15376,-116,1872,-2155,1775,97,2025-02-06 17:24:17,1
-14296,-20,2592,-2403,503,316,2025-02-06 17:24:17,1
-13128,-20,2888,-2514,-294,330,2025-02-06 17:24:17,1
-12400,232,3556,-2587,-705,412,2025-02-06 17:24:17,1
-11484,428,3660,-2485,-1076,654,2025-02-06 17:24:17,1
-10624,736,3904,-2157,-1600,749,2025-02-06 17:24:17,1
-10288,1028,4232,-1485,-2014,604,2025-02-06 17:24:17,1
-11176,1204,4580,-246,-2123,96,2025-02-06 17:24:17,1
-11944,608,4920,1065,-2459,-644,2025-02-06 17:24:17,1
-13204,808,5300,3294,-1757,-864,2025-02-06 17:24:17,1
-12932,752,4264,4342,-725,-852,2025-02-06 17:24:17,1
-12796,812,3924,4581,158,-693,2025-02-06 17:24:17,1
-12896,788,3748,4499,572,-746,2025-02-06 17:24:17,1
-13864,812,2300,4495,1324,-961,2025-02-06 17:24:17,1
-14400,1256,2104,4368,1396,-1204,2025-02-06 17:24:17,1
-14948,1556,2996,4294,-17,-1301,2025-02-06 17:24:17,1
-15864,1328,3308,4555,-1522,-1256,2025-02-06 17:24:17,1
-16972,784,2584,4937,-2543,-955,2025-02-06 17:24:17,1
-17096,112,1276,5196,-3644,-598,2025-02-06 17:24:17,1
-16100,-520,316,5287,-4026,-591,2025-02-06 17:24:17,1
-14564,-1236,-404,4897,-3617,-1052,2025-02-06 17:24:18,1
-14624,-2024,0,4212,-2262,-1383,2025-02-06 17:24:18,1
-13700,-2576,1688,3729,-1334,-1436,2025-02-06 17:24:18,1
-13356,-2412,3244,3418,-1277,-1128,2025-02-06 17:24:18,1
-13308,-2424,4172,3231,-598,-756,2025-02-06 17:24:18,1
-13844,-2628,4092,3298,151,-673,2025-02-06 17:24:18,1
-14460,-2380,2828,3531,1205,-535,2025-02-06 17:24:18,1
-13532,-2316,2272,3804,1856,-663,2025-02-06 17:24:18,1
-13532,-2036,1480,3828,1996,-278,2025-02-06 17:24:18,1
-12504,-1176,2504,3171,544,-63,2025-02-06 17:24:18,1
-12072,-824,2420,1515,-1358,216,2025-02-06 17:24:18,7
-12412,-760,1084,1054,429,171,2025-02-06 17:24:18,7
-12740,-644,260,467,3175,-113,2025-02-06 17:24:18,7
-13224,-908,844,-269,3771,-598,2025-02-06 17:24:18,7
-14372,-952,1440,-1191,2466,-955,2025-02-06 17:24:18,7
-15460,-968,2328,-1943,1815,-1118,2025-02-06 17:24:18,7
-15568,-892,3196,-2206,1520,-794,2025-02-06 17:24:18,7
-15380,-400,3132,-1959,1261,-232,2025-02-06 17:24:18,7
-15192,388,2092,-1838,1599,276,2025-02-06 17:24:18,7
-14816,1144,1304,-2084,2751,496,2025-02-06 17:24:18,7
-13712,1940,1412,-2539,3626,845,2025-02-06 17:24:18,7
-12996,2820,1920,-3221,3888,1153,2025-02-06 17:24:18,7
-12504,3516,1576,-4158,3633,1438,2025-02-06 17:24:18,7
-12096,4224,1088,-5287,3601,1654,2025-02-06 17:24:18,7
-11572,5068,796,-6724,4025,1680,2025-02-06 17:24:18,7
-12040,5004,1312,-7919,4537,1730,2025-02-06 17:24:18,7
-12340,4796,576,-9921,4347,1660,2025-02-06 17:24:18,7
-13656,4216,-276,-12814,3901,1508,2025-02-06 17:24:18,7
-14632,3784,-1324,-15543,3456,1661,2025-02-06 17:24:18,7
-15348,3288,-2040,-17927,3226,1689,2025-02-06 17:24:18,7
-16692,3060,-1732,-20006,2626,1645,2025-02-06 17:24:18,7
-17232,2648,-620,-21760,1484,1659,2025-02-06 17:24:18,7
-16752,2240,464,-23026,15,1876,2025-02-06 17:24:18,7
-15748,1792,780,-23869,-676,2269,2025-02-06 17:24:18,7
-13544,1084,184,-24631,-882,2433,2025-02-06 17:24:18,7
-12444,716,-420,-25432,-626,2406,2025-02-06 17:24:18,7
-12180,-104,-684,-25885,-227,2392,2025-02-06 17:24:18,7
-12296,-936,-1188,-26361,-162,2501,2025-02-06 17:24:18,7
-12240,-1632,-396,-26762,-109,2635,2025-02-06 17:24:18,7
-12552,-1808,-76,-27102,-409,2525,2025-02-06 17:24:18,7
-12968,-1776,120,-27074,-454,2474,2025-02-06 17:24:18,7
-13332,-1424,268,-27001,-93,2528,2025-02-06 17:24:18,7
-14452,-1192,28,-26721,819,2031,2025-02-06 17:24:18,7
-14940,-1508,-128,-26536,1333,1882,2025-02-06 17:24:18,7
-14488,-1832,-84,-26665,836,1864,2025-02-06 17:24:18,7
-14412,-1924,688,-26876,339,1940,2025-02-06 17:24:18,7
-14400,-1856,1560,-26637,321,2021,2025-02-06 17:24:18,7
-14364,-1596,2148,-22954,1400,2066,2025-02-06 17:24:18,7
-14284,-1616,2700,-22002,1642,1980,2025-02-06 17:24:18,7
-14140,-1884,3096,-20749,1860,1917,2025-02-06 17:24:18,7
-13952,-3760,1672,-17025,4726,257,2025-02-06 17:24:18,7
-13572,-4240,2264,-15446,4655,-475,2025-02-06 17:24:18,7
-14080,-4688,4256,-13347,4306,-847,2025-02-06 17:24:18,7
-13760,-4592,5796,-10642,3189,-869,2025-02-06 17:24:18,7
-13804,-3748,7160,-7812,2104,-712,2025-02-06 17:24:19,7
-13216,-3248,7456,-4810,1517,-532,2025-02-06 17:24:19,7
-12452,-2312,6984,-2097,1720,-582,2025-02-06 17:24:19,7
-12628,-1592,6448,362,2514,-871,2025-02-06 17:24:19,7
-12848,-928,6720,2723,2841,-941,2025-02-06 17:24:19,7
-13276,-80,6308,4734,2638,-732,2025-02-06 17:24:19,7
-13332,456,5108,5716,2542,-597,2025-02-06 17:24:19,7
-13692,1084,4084,5923,2680,-586,2025-02-06 17:24:19,7
-14344,1516,3332,5399,2530,-604,2025-02-06 17:24:19,7
-15308,2152,2988,3306,1366,-631,2025-02-06 17:24:19,7
-15784,2144,3792,1838,244,-824,2025-02-06 17:24:19,7
-15424,2156,4180,710,-811,-888,2025-02-06 17:24:19,7
-15016,2280,4524,-44,-1637,-770,2025-02-06 17:24:19,7
-13824,2224,4044,-688,-2234,-592,2025-02-06 17:24:19,7
-13400,1876,3384,-1012,-2551,-434,2025-02-06 17:24:19,7
-12896,1380,3692,-1049,-2066,-481,2025-02-06 17:24:19,7
-14080,1156,4140,-410,-282,-567,2025-02-06 17:24:19,7
-14668,596,4828,323,-4,-345,2025-02-06 17:24:19,7
-14512,176,4980,901,-604,-421,2025-02-06 17:24:19,1
-15136,232,4672,1423,-954,-501,2025-02-06 17:24:19,1
-15556,424,4404,1878,-884,-521,2025-02-06 17:24:19,1
-15928,216,4000,2723,-371,-526,2025-02-06 17:24:19,1
-15380,488,3396,3469,82,-592,2025-02-06 17:24:19,1
-15408,352,2620,3981,-10,-572,2025-02-06 17:24:19,1
-14592,180,1364,3775,-65,-551,2025-02-06 17:24:19,1
-13884,-28,600,3234,-449,-535,2025-02-06 17:24:19,1
-11676,-120,-536,1280,-840,-387,2025-02-06 17:24:19,1
-9684,-212,-140,413,-888,-718,2025-02-06 17:24:19,1
-10244,116,404,-212,-447,-1087,2025-02-06 17:24:19,1
-10532,116,1572,-477,513,-1599,2025-02-06 17:24:19,1
-11892,164,2912,-328,1647,-1765,2025-02-06 17:24:19,1
-13420,28,3392,162,2865,-1763,2025-02-06 17:24:19,1
-14236,224,2984,585,3756,-1520,2025-02-06 17:24:19,1
-14904,-168,2284,900,3845,-1407,2025-02-06 17:24:19,1
-16068,72,2844,984,3199,-1094,2025-02-06 17:24:19,1
-16588,232,3312,1091,2300,-748,2025-02-06 17:24:19,1
-16088,-92,3452,1009,1008,-318,2025-02-06 17:24:19,1
-15540,-344,3416,582,243,-49,2025-02-06 17:24:19,1
-13880,-364,2888,59,-833,384,2025-02-06 17:24:19,1
-13052,-488,2264,-580,-1549,605,2025-02-06 17:24:19,1
-12452,-4,2000,-1124,-413,503,2025-02-06 17:24:19,1
-12136,-8,1848,-1683,747,301,2025-02-06 17:24:19,1
-11736,-100,2496,-2042,1685,-19,2025-02-06 17:24:19,1
-12592,152,3288,-2373,2222,-543,2025-02-06 17:24:19,1
-12824,-360,3812,-2421,2323,-639,2025-02-06 17:24:19,1
-13176,-648,4032,-2598,1628,-627,2025-02-06 17:24:19,1
-13200,-924,3752,-2924,350,-582,2025-02-06 17:24:19,1
-13556,-680,4068,-3084,-707,-397,2025-02-06 17:24:19,1
-13084,-396,4960,-2931,-1089,-392,2025-02-06 17:24:20,1
-12948,-108,5584,-2418,-920,-326,2025-02-06 17:24:22,1
-12888,80,5828,-1775,-798,-136,2025-02-06 17:24:22,1
-12416,148,5636,-1300,-879,37,2025-02-06 17:24:22,1
-12416,60,4948,-1113,-707,90,2025-02-06 17:24:22,1
-15376,-348,6084,-4540,2956,-808,2025-02-06 17:24:22,1
-16160,384,6240,-4871,1253,-1675,2025-02-06 17:24:22,1
-16992,904,7228,-5668,-1763,-2243,2025-02-06 17:24:22,1
-17100,1040,6644,-5638,-4715,-1809,2025-02-06 17:24:22,1
-14944,96,2000,-3355,3053,169,2025-02-06 17:24:22,1
-16164,1492,-964,4885,-2168,-221,2025-02-06 17:24:22,1
-16884,452,-2140,3750,-1989,-530,2025-02-06 17:24:22,1
-17068,-612,-2812,3661,-1160,143,2025-02-06 17:24:22,1
-15288,-1120,-3544,3267,-1062,540,2025-02-06 17:24:22,1
-13232,-1816,-3572,2220,-2486,132,2025-02-06 17:24:22,1
-11744,-2204,-2588,907,-4049,-810,2025-02-06 17:24:22,1
-11104,-3192,-1768,179,-4684,-1583,2025-02-06 17:24:22,1
-11764,-3484,-480,-89,-4076,-1705,2025-02-06 17:24:22,1
-11948,-3520,484,406,-1615,-1726,2025-02-06 17:24:22,1
-12644,-3032,1420,1650,1362,-1801,2025-02-06 17:24:22,1
-12656,-2536,1996,3572,3891,-1612,2025-02-06 17:24:23,1
-13424,-2204,1940,4392,3722,-1174,2025-02-06 17:24:23,1
-14180,-2060,1468,4742,2584,-312,2025-02-06 17:24:23,1
-14188,-1716,1708,4908,1044,602,2025-02-06 17:24:23,1
-13228,-1584,2092,4819,29,1069,2025-02-06 17:24:23,1
-11828,-1092,1920,4380,-340,1060,2025-02-06 17:24:23,1
-10800,-732,2240,3784,-596,697,2025-02-06 17:24:23,1
-10064,-612,2004,3146,-690,270,2025-02-06 17:24:23,1
-9552,-312,1820,2524,-561,-219,2025-02-06 17:24:23,1
-9812,-312,1600,1906,281,-662,2025-02-06 17:24:23,1
-10860,-700,1228,1296,1599,-990,2025-02-06 17:24:23,1
-11984,-996,1280,798,2908,-1183,2025-02-06 17:24:23,1
-13260,-1396,1952,336,3322,-1197,2025-02-06 17:24:23,1
-14120,-1572,2388,-246,2555,-1118,2025-02-06 17:24:23,1
-14940,-1760,3036,-629,1244,-1022,2025-02-06 17:24:23,1
-15076,-1676,4064,-579,-223,-812,2025-02-06 17:24:23,1
-14436,-1380,4116,-276,-1160,-704,2025-02-06 17:24:23,1
-13584,-1196,4028,200,-1290,-624,2025-02-06 17:24:23,1
-12596,-980,3384,772,-1351,-538,2025-02-06 17:24:23,1
-12616,-1228,2620,1390,-1305,-259,2025-02-06 17:24:23,1
-12940,-1524,2196,1343,-1098,157,2025-02-06 17:24:23,1
-12924,-2068,1408,678,-991,513,2025-02-06 17:24:23,1
-13924,-1980,2192,-134,-896,655,2025-02-06 17:24:23,1
-14324,-1916,2944,-627,-1366,721,2025-02-06 17:24:23,1
-14812,-1648,2836,-810,-1971,503,2025-02-06 17:24:23,7
-15360,-1592,1500,-895,-1080,-1,2025-02-06 17:24:23,7
-16140,-1280,1132,-915,-331,-473,2025-02-06 17:24:23,7
-17712,-1388,564,-619,85,-794,2025-02-06 17:24:23,7
-19516,-2152,-1148,-421,262,-357,2025-02-06 17:24:23,7
-19628,-2664,-2320,-1063,-1031,172,2025-02-06 17:24:23,7
-18380,-2100,-2380,-2334,-2255,463,2025-02-06 17:24:23,7
-17288,-664,-468,-2330,-2657,217,2025-02-06 17:24:23,7
-15152,0,104,-1018,-1885,118,2025-02-06 17:24:23,7
-13380,604,-16,407,-1299,-28,2025-02-06 17:24:23,7
-12604,868,508,2074,-968,-250,2025-02-06 17:24:23,7
-12052,684,648,3194,-388,-609,2025-02-06 17:24:23,7
-11988,256,1124,3941,351,-710,2025-02-06 17:24:23,7
-12204,-244,1696,4729,486,-609,2025-02-06 17:24:23,7
-13264,-952,236,5323,1325,-307,2025-02-06 17:24:23,7
-13760,-1372,-220,5487,2080,-164,2025-02-06 17:24:23,7
-14100,-1620,412,5799,2247,-112,2025-02-06 17:24:23,7
-14204,-1464,1084,6362,1502,-229,2025-02-06 17:24:23,7
-14212,-1432,1480,7400,833,-343,2025-02-06 17:24:23,7
-13664,-1324,972,8723,537,-349,2025-02-06 17:24:23,7
-12480,-1256,660,10285,485,-320,2025-02-06 17:24:23,7
-11652,-1136,312,11652,756,-467,2025-02-06 17:24:23,7
-11444,-924,272,12897,856,-503,2025-02-06 17:24:23,7
-11352,-788,444,14134,1373,-450,2025-02-06 17:24:23,7
-12068,-800,256,15344,2359,-300,2025-02-06 17:24:23,7
-12564,-816,268,16491,3038,63,2025-02-06 17:24:23,7
-13136,-1108,220,17313,3258,419,2025-02-06 17:24:23,7
-13560,-1440,360,17837,3018,626,2025-02-06 17:24:23,7
-13952,-1824,620,18350,2483,774,2025-02-06 17:24:23,7
-14076,-2388,692,18727,2030,808,2025-02-06 17:24:23,7
-14232,-2456,216,19207,1837,726,2025-02-06 17:24:23,7
-14292,-2404,-252,19563,1846,539,2025-02-06 17:24:23,7
-14620,-2132,-80,19999,1779,111,2025-02-06 17:24:23,7
-14868,-1532,732,20801,1739,-220,2025-02-06 17:24:23,7
-14936,-1048,1464,21862,767,-356,2025-02-06 17:24:23,7
-14788,-1048,1800,22776,-283,-276,2025-02-06 17:24:23,7
-13904,-1456,1528,23303,-1518,-126,2025-02-06 17:24:23,7
-13768,-1552,524,23069,-1449,25,2025-02-06 17:24:23,7
-13504,-2072,-392,22448,-743,257,2025-02-06 17:24:23,7
-13604,-1396,-1168,21499,710,666,2025-02-06 17:24:23,7
-13072,-1196,-1916,20427,1745,644,2025-02-06 17:24:23,7
-14280,-592,-2000,19593,2040,632,2025-02-06 17:24:24,7
-14592,228,-1644,18760,1710,449,2025-02-06 17:24:24,7
-14612,776,-1112,18515,409,252,2025-02-06 17:24:24,7
-14088,640,-932,18541,-1019,-147,2025-02-06 17:24:24,7
-13384,632,-1300,17941,-1700,-407,2025-02-06 17:24:24,7
-12732,336,-988,17179,-1735,-437,2025-02-06 17:24:24,7
-12804,-252,-1028,15829,-891,-206,2025-02-06 17:24:24,7
-12956,-604,-832,14095,89,154,2025-02-06 17:24:24,7
-13068,-780,-676,12238,541,770,2025-02-06 17:24:24,7
-13036,-820,-280,10716,779,1359,2025-02-06 17:24:24,7
-13572,-832,-160,9183,743,1720,2025-02-06 17:24:24,7
-12960,-456,-444,7703,1166,1382,2025-02-06 17:24:24,7
-13332,-320,-228,6735,1484,671,2025-02-06 17:24:24,7
-13752,432,-100,6062,992,-127,2025-02-06 17:24:24,7
-14316,1088,208,5555,573,-923,2025-02-06 17:24:24,7
-14296,1576,888,5236,41,-1349,2025-02-06 17:24:24,7
-14388,2004,2092,5248,-577,-1223,2025-02-06 17:24:24,7
-13808,2380,1872,5399,-776,-983,2025-02-06 17:24:24,7
-13492,2924,1400,5334,-575,-624,2025-02-06 17:24:24,7
-13492,3160,1336,4905,-515,-188,2025-02-06 17:24:24,7
-13720,2940,1084,4068,-148,343,2025-02-06 17:24:24,7
-13888,2520,1008,2939,196,679,2025-02-06 17:24:24,7
-13984,2008,740,1346,429,687,2025-02-06 17:24:24,7
-13800,1444,496,-242,-95,446,2025-02-06 17:24:24,7
-13172,716,-652,-2208,-789,62,2025-02-06 17:24:24,7
-12320,-216,-992,-3584,-981,-321,2025-02-06 17:24:24,7
-11976,-1104,-524,-5001,-1126,-901,2025-02-06 17:24:24,7
-12076,-2148,268,-5889,-1059,-1412,2025-02-06 17:24:24,7
-12516,-2840,1616,-6168,-761,-1772,2025-02-06 17:24:24,7
-13052,-3384,2560,-5934,276,-1775,2025-02-06 17:24:24,7
-13700,-3500,3088,-5198,1793,-1617,2025-02-06 17:24:24,7
-14312,-3356,3696,-3876,3118,-1390,2025-02-06 17:24:24,7
-15012,-3000,3788,-2303,3778,-1272,2025-02-06 17:24:24,7
-15748,-2632,4080,-520,3596,-1139,2025-02-06 17:24:24,7
-16664,-2364,4028,638,2595,-930,2025-02-06 17:24:24,1
-16592,-2240,3988,1317,1143,-600,2025-02-06 17:24:24,1
-15720,-1932,3552,1563,260,-341,2025-02-06 17:24:24,1
-14644,-1496,3048,1657,163,-98,2025-02-06 17:24:24,1
-13252,-1188,2860,1630,93,9,2025-02-06 17:24:24,1
-12184,-736,2928,1251,-44,-42,2025-02-06 17:24:24,1
-11288,-384,2756,587,-168,-164,2025-02-06 17:24:24,1
-11284,-156,2876,-54,-304,-366,2025-02-06 17:24:24,1
-11120,-392,3460,-419,-52,-534,2025-02-06 17:24:24,1
-11208,-788,3088,-911,302,-855,2025-02-06 17:24:24,1
-11964,-1132,3240,-1063,859,-1045,2025-02-06 17:24:24,1
-12172,-1076,3328,-1136,1370,-1037,2025-02-06 17:24:24,1
-12940,-1224,3672,-1153,1962,-850,2025-02-06 17:24:24,1
-13124,-1424,4000,-1255,1955,-590,2025-02-06 17:24:24,1
-13164,-1624,4260,-1348,1452,-339,2025-02-06 17:24:24,1
-13508,-1720,4460,-1450,623,-20,2025-02-06 17:24:24,1
-13820,-1900,3980,-1483,204,168,2025-02-06 17:24:24,1
-13800,-1860,3348,-1603,-1,202,2025-02-06 17:24:24,1
-13900,-1444,2568,-1973,-85,70,2025-02-06 17:24:24,1
-13784,-1652,2864,-2287,-174,-74,2025-02-06 17:24:24,1
-13724,-1492,3028,-2543,-441,-335,2025-02-06 17:24:24,1
-13656,-1336,3724,-2627,-742,-550,2025-02-06 17:24:24,1
-13844,-1508,4552,-2583,-1027,-739,2025-02-06 17:24:24,1
-14292,-1560,5000,-2534,-1355,-818,2025-02-06 17:24:25,1
-18452,-1812,-2336,-1188,-4349,818,2025-02-06 17:24:25,1
-16996,-1108,-3220,-1238,-3524,765,2025-02-06 17:24:25,1
-15652,-424,-2860,-746,-3089,811,2025-02-06 17:24:25,1
-13976,100,-2148,38,-3771,900,2025-02-06 17:24:25,1
-12632,856,-1940,194,-4363,851,2025-02-06 17:24:25,1
-11936,2080,-760,342,-3809,694,2025-02-06 17:24:25,1
-11492,2840,156,606,-1849,515,2025-02-06 17:24:25,1
-11980,3296,476,910,537,479,2025-02-06 17:24:25,1
-12748,3096,212,1341,3288,588,2025-02-06 17:24:25,1
-12860,2316,-4,1020,5418,559,2025-02-06 17:24:25,1
-13508,1408,128,111,6170,588,2025-02-06 17:24:25,1
-13732,432,816,-1125,5615,304,2025-02-06 17:24:25,1
-14284,-236,1860,-2198,4034,0,2025-02-06 17:24:25,1
-14404,-644,2428,-3078,1541,-281,2025-02-06 17:24:25,1
-13848,-952,2868,-3216,321,-572,2025-02-06 17:24:25,1
-13160,-1128,3608,-2707,-396,-421,2025-02-06 17:24:25,1
-12496,-1228,3468,-1721,-774,-98,2025-02-06 17:24:25,1
-11164,-1292,2868,-713,-712,251,2025-02-06 17:24:25,1
-9756,-1040,2708,544,-610,339,2025-02-06 17:24:25,1
-9492,-792,2628,1656,-318,234,2025-02-06 17:24:25,1
-9532,-464,3004,2603,72,122,2025-02-06 17:24:25,1
-10172,-24,3332,3445,422,113,2025-02-06 17:24:25,1
-10492,112,3388,4066,779,7,2025-02-06 17:24:25,1
-11132,412,3152,4531,888,-70,2025-02-06 17:24:25,1
-11700,828,3156,4583,540,-165,2025-02-06 17:24:25,1
-12452,772,3436,4354,-210,-473,2025-02-06 17:24:25,1
-12800,464,3192,3732,-849,-818,2025-02-06 17:24:25,1
-13548,308,3232,3077,-1353,-1014,2025-02-06 17:24:25,1
-13240,240,2792,2546,-1774,-1208,2025-02-06 17:24:25,1
-13248,40,2252,1843,-1658,-1363,2025-02-06 17:24:25,1
-13108,28,1556,1160,-1739,-1586,2025-02-06 17:24:25,1
-13696,120,1444,848,-753,-1707,2025-02-06 17:24:25,1
-14936,588,3288,1565,1101,-1655,2025-02-06 17:24:25,1
-16184,788,5784,2982,1921,-1122,2025-02-06 17:24:25,1
-16780,460,6948,4257,1574,-183,2025-02-06 17:24:25,1
-16764,-544,6852,4761,744,767,2025-02-06 17:24:25,1
-15500,-1768,6624,4650,-145,1228,2025-02-06 17:24:25,1
-13964,-1624,6124,3642,-1803,1122,2025-02-06 17:24:25,1
-13936,-1136,5968,3116,-2458,629,2025-02-06 17:24:25,1
-14420,-384,5296,3580,-3079,565,2025-02-06 17:24:25,1
-14412,284,3740,4143,-2935,673,2025-02-06 17:24:25,1
-15052,680,1992,4294,-1901,588,2025-02-06 17:24:25,1
-16544,1392,1124,4787,-436,299,2025-02-06 17:24:25,1
-18904,2164,1580,5962,1314,573,2025-02-06 17:24:25,1
-19344,2884,2084,6614,1774,468,2025-02-06 17:24:25,1
-20496,3176,236,5803,1980,300,2025-02-06 17:24:25,1
-17504,1972,-2476,3846,298,-725,2025-02-06 17:24:25,1
-16208,76,-3880,1590,-1297,-1334,2025-02-06 17:24:25,1
-14888,-404,-2948,168,-1957,-1265,2025-02-06 17:24:25,1
-12524,-348,-2776,-603,-2550,-1015,2025-02-06 17:24:25,1
-11392,-820,-2488,-1554,-3742,-680,2025-02-06 17:24:25,1
-10320,-888,-2576,-2730,-4423,-692,2025-02-06 17:24:25,1
-10496,-596,-1412,-3552,-3253,-1089,2025-02-06 17:24:25,1
-12376,-476,-816,-3823,-401,-1191,2025-02-06 17:24:25,1
-14296,68,32,-3274,2649,-1161,2025-02-06 17:24:25,1
-15932,604,996,-2614,5193,-1076,2025-02-06 17:24:26,1
-15276,812,4080,-1098,5186,-945,2025-02-06 17:24:26,1
-17076,588,3308,374,4975,-137,2025-02-06 17:24:26,1
-17876,140,2468,1394,4378,1362,2025-02-06 17:24:26,1
-16864,-208,764,1188,2966,2892,2025-02-06 17:24:26,1
-14128,-936,1408,828,1122,4135,2025-02-06 17:24:26,1
-11224,-960,1484,127,110,4536,2025-02-06 17:24:26,1
-9028,-604,232,-1667,-1214,3908,2025-02-06 17:24:26,1
-7760,-740,100,-3406,-1773,2644,2025-02-06 17:24:26,1
-6604,-704,600,-4146,-994,1285,2025-02-06 17:24:26,1
-7340,-892,760,-4482,1230,-382,2025-02-06 17:24:26,1
-9032,-736,984,-5017,2203,-1137,2025-02-06 17:24:26,1
-10292,-976,2068,-5242,2005,-1508,2025-02-06 17:24:26,1
-11608,-988,3416,-4901,1660,-1398,2025-02-06 17:24:26,1
-12544,-864,4312,-4322,1493,-1284,2025-02-06 17:24:26,1
-13212,-952,5024,-3892,848,-929,2025-02-06 17:24:26,1
-13276,-920,5552,-3514,-26,-545,2025-02-06 17:24:26,1
-13412,-1008,5612,-2902,-780,-366,2025-02-06 17:24:26,1
-12992,-1308,4428,-2322,-1277,-313,2025-02-06 17:24:26,1
-13180,-1680,3456,-2273,-1370,-119,2025-02-06 17:24:26,1
-14036,-1388,1320,-2549,61,41,2025-02-06 17:24:26,1
-13660,-756,552,-2835,1353,-182,2025-02-06 17:24:26,1
-13508,-664,1880,-2785,2051,-413,2025-02-06 17:24:26,1
-14908,-576,4984,-2100,3109,-827,2025-02-06 17:24:26,1
-16708,-708,7136,-1450,4302,-1328,2025-02-06 17:24:26,1
-18328,-384,7632,-1064,3372,-1433,2025-02-06 17:24:26,1
-17648,-356,6076,-1888,392,-1312,2025-02-06 17:24:26,1
-17864,4,4356,-2904,-2565,-1046,2025-02-06 17:24:26,1
-16612,108,3108,-2825,-3755,-359,2025-02-06 17:24:26,1
-14188,148,3872,-2402,-5179,558,2025-02-06 17:24:26,1
-13388,-84,3316,-2342,-5766,610,2025-02-06 17:24:26,1
-13736,-924,2372,-2622,-4700,249,2025-02-06 17:24:26,1
-14968,-1388,1652,-3757,-3141,-540,2025-02-06 17:24:26,1
-17276,-1776,2256,-4964,-2667,-1295,2025-02-06 17:24:26,1
-18724,-2504,2336,-5185,-2587,-1393,2025-02-06 17:24:26,1
-19452,-2528,2848,-4146,-1954,-655,2025-02-06 17:24:26,1
-19392,-1936,1528,-2890,-4251,642,2025-02-06 17:24:26,1
-18280,-2136,-848,-1884,-3498,1301,2025-02-06 17:24:26,1
-15296,-1884,-2500,-1432,-1886,1030,2025-02-06 17:24:26,1
-13564,-1356,-1796,-1253,-2622,672,2025-02-06 17:24:26,1
-12168,-332,-1216,-99,-2777,422,2025-02-06 17:24:26,1
-11076,312,-628,1515,-2626,308,2025-02-06 17:24:26,1
-11312,1484,272,2583,-1686,137,2025-02-06 17:24:26,1
-10936,2096,436,2778,627,-127,2025-02-06 17:24:26,1
-11560,2412,1116,2620,3168,-440,2025-02-06 17:24:26,1
-12620,2068,756,2346,4760,-419,2025-02-06 17:24:26,1
-13600,976,756,1839,5863,-284,2025-02-06 17:24:26,1
-13964,208,380,1021,6241,-23,2025-02-06 17:24:26,1
-14464,-496,168,-176,5681,136,2025-02-06 17:24:26,1
-14960,-756,2600,-1687,4674,-179,2025-02-06 17:24:27,1
-14412,-536,2516,-2694,3515,-703,2025-02-06 17:24:27,1
-13844,-392,3188,-2935,2038,-1174,2025-02-06 17:24:27,1
-11076,36,2084,4482,3551,865,2025-02-06 17:24:27,1
-11752,316,2948,4597,3822,1055,2025-02-06 17:24:27,1
-12052,676,3884,4943,3252,875,2025-02-06 17:24:27,1
-12708,852,3360,4905,2557,682,2025-02-06 17:24:27,1
-12768,796,3448,4470,1552,415,2025-02-06 17:24:27,1
-12552,504,2948,3551,125,33,2025-02-06 17:24:27,1
-13532,228,792,695,-1940,-864,2025-02-06 17:24:27,1
-13344,508,872,712,-610,-1018,2025-02-06 17:24:27,1
-13288,820,836,853,-98,-1233,2025-02-06 17:24:27,1
-14220,928,2632,975,556,-1462,2025-02-06 17:24:27,1
-16832,944,5048,1288,982,-1222,2025-02-06 17:24:27,1
-18100,-244,6680,1915,2,-333,2025-02-06 17:24:27,1
-17260,-1472,6588,2218,-1708,351,2025-02-06 17:24:27,1
-16080,-2268,6100,1719,-3803,704,2025-02-06 17:24:27,1
-14240,-2676,4368,952,-4789,748,2025-02-06 17:24:27,1
-13376,-2312,4288,636,-4100,453,2025-02-06 17:24:27,1
-13256,-1320,5624,1228,-4705,32,2025-02-06 17:24:27,1
-14760,-440,5400,2686,-5443,-118,2025-02-06 17:24:27,1
-15752,-224,2604,4065,-3500,-301,2025-02-06 17:24:27,1
-16280,48,496,5119,-162,-471,2025-02-06 17:24:27,1
-17904,920,-608,6376,2470,-350,2025-02-06 17:24:27,1
-19116,1916,432,8208,2583,-37,2025-02-06 17:24:27,1
-19372,2084,-708,9380,916,182,2025-02-06 17:24:27,1
-19252,1220,-2244,8992,-1577,-78,2025-02-06 17:24:27,1
-19392,-260,-3600,6880,-3290,566,2025-02-06 17:24:27,1
-16924,-640,-2468,4953,-3623,1593,2025-02-06 17:24:27,1
-13256,-664,-2376,3260,-4186,2628,2025-02-06 17:24:27,1
-9768,-1020,-3084,1645,-4151,3096,2025-02-06 17:24:27,1
-6616,-824,-2216,156,-4047,2429,2025-02-06 17:24:27,1
-6608,-188,-1808,-1135,-2350,1040,2025-02-06 17:24:27,1
-9184,772,-292,-1727,650,-444,2025-02-06 17:24:27,1
-11408,828,2000,-1409,1405,-1207,2025-02-06 17:24:27,1
-13436,984,3484,-550,1044,-1324,2025-02-06 17:24:27,1
-15116,1172,3664,312,960,-1298,2025-02-06 17:24:27,1
-17092,880,2536,1139,2509,-857,2025-02-06 17:24:27,1
-17040,252,1972,1297,3305,-409,2025-02-06 17:24:27,1
-16168,-432,1360,595,2392,148,2025-02-06 17:24:27,7
-14632,-932,1812,-560,1205,597,2025-02-06 17:24:27,7
-13216,-1184,2256,-1678,560,782,2025-02-06 17:24:27,7
-11556,-1264,1724,-2949,559,784,2025-02-06 17:24:27,7
-9900,-852,1836,-4003,167,294,2025-02-06 17:24:27,7
-9752,-288,1284,-4861,872,-224,2025-02-06 17:24:27,7
-9112,-160,1416,-5575,2352,-1056,2025-02-06 17:24:27,7
-9932,-28,3068,-5660,3753,-1702,2025-02-06 17:24:27,7
-11488,52,4268,-5067,4304,-1889,2025-02-06 17:24:27,7
-13036,-96,4600,-4350,4186,-1589,2025-02-06 17:24:27,7
-13948,-208,4492,-3853,3473,-1173,2025-02-06 17:24:27,7
-14244,-428,4424,-3590,2477,-565,2025-02-06 17:24:27,7
-14356,-660,4580,-3517,1481,112,2025-02-06 17:24:27,7
-14508,-740,4476,-3579,460,728,2025-02-06 17:24:27,7
-14376,-724,3976,-3912,-294,1130,2025-02-06 17:24:27,7
-14044,-840,3452,-4484,-509,1222,2025-02-06 17:24:27,7
-13532,-580,2884,-5199,-688,1091,2025-02-06 17:24:27,7
-13364,-376,2712,-5806,-808,958,2025-02-06 17:24:27,7
-13592,-408,1708,-6431,-850,1044,2025-02-06 17:24:27,7
-13552,-728,1444,-7329,-561,949,2025-02-06 17:24:27,7
-14044,-880,1672,-8909,127,603,2025-02-06 17:24:27,7
-14616,-672,3012,-10447,1006,-170,2025-02-06 17:24:27,7
-15544,-24,3408,-11525,1387,-876,2025-02-06 17:24:27,7
-15968,788,2308,-12248,278,-1324,2025-02-06 17:24:27,7
-15252,1408,436,-12875,-1557,-1255,2025-02-06 17:24:27,7
-14828,1824,124,-12970,-1892,-1003,2025-02-06 17:24:27,7
-13608,2244,16,-13114,-2067,-891,2025-02-06 17:24:27,7
-14652,2420,-1616,-14023,-456,-425,2025-02-06 17:24:28,7
-14856,2084,-1852,-14492,1624,-355,2025-02-06 17:24:28,7
-15568,1912,-3220,-15211,3281,-169,2025-02-06 17:24:28,7
-16004,1212,-4400,-16824,3879,177,2025-02-06 17:24:28,7
-16580,1320,-3388,-18406,2752,528,2025-02-06 17:24:28,7
-16628,1832,-2752,-19819,2161,915,2025-02-06 17:24:28,7
-16684,2572,-1872,-20742,2321,817,2025-02-06 17:24:28,7
-15288,2828,-1648,-21375,2957,371,2025-02-06 17:24:28,7
-14004,3312,-768,-21689,2981,-254,2025-02-06 17:24:28,7
-13732,3608,-556,-21879,2773,-577,2025-02-06 17:24:28,7
-13216,3452,-1320,-22531,2139,-681,2025-02-06 17:24:28,7
-12588,2972,-1868,-23515,1318,-592,2025-02-06 17:24:28,7
-11928,2512,-2140,-24651,661,-286,2025-02-06 17:24:28,7
-11800,2176,-2828,-26378,119,254,2025-02-06 17:24:28,7
-11288,2008,-2216,-27300,55,454,2025-02-06 17:24:28,7
-11740,1924,-2108,-27729,813,357,2025-02-06 17:24:28,7
-12644,1876,-2200,-27931,1725,167,2025-02-06 17:24:28,7
-13368,1080,-2756,-28095,2155,39,2025-02-06 17:24:28,7
-13736,192,-3228,-28554,2147,-161,2025-02-06 17:24:28,7
-14732,-484,-3148,-29202,1497,-336,2025-02-06 17:24:28,7
-15364,-804,-2288,-29681,474,-336,2025-02-06 17:24:28,7
-14988,-1196,-1140,-29646,-480,-281,2025-02-06 17:24:28,7
-14296,-1660,-876,-29301,-783,-89,2025-02-06 17:24:28,7
-13520,-2192,-216,-28977,-1368,144,2025-02-06 17:24:28,7
-13156,-2412,628,-28440,-1800,414,2025-02-06 17:24:28,7
-12304,-2108,644,-27923,-1849,562,2025-02-06 17:24:28,7
-11692,-1424,1804,-27287,-2146,393,2025-02-06 17:24:28,7
-11300,-1072,1388,-26473,-1632,28,2025-02-06 17:24:28,7
-11704,-652,1848,-25487,-658,-245,2025-02-06 17:24:28,7
-12156,52,2156,-23982,-189,-223,2025-02-06 17:24:28,7
-13616,676,1908,-22458,832,46,2025-02-06 17:24:28,7
