acceleration_x,acceleration_y,acceleration_z,gyroscope_x,gyroscope_y,gyroscope_z,timestamp,label
-13356,-332,-1896,-184,-258,-133,2025-02-03 17:43:08,0.0
-13312,-200,-1880,-76,26,-112,2025-02-03 17:43:08,0.0
-13384,-52,-1992,-108,166,-89,2025-02-03 17:43:08,0.0
-13428,-216,-1740,-135,169,-122,2025-02-03 17:43:08,0.0
-13504,-340,-1676,-83,55,-150,2025-02-03 17:43:08,0.0
-13568,-236,-1828,-9,-106,-165,2025-02-03 17:43:08,0.0
-13564,-244,-2000,-28,-304,-205,2025-02-03 17:43:08,0.0
-13416,-292,-2164,-172,-463,-303,2025-02-03 17:43:08,0.0
-13168,-244,-1932,-180,-418,-280,2025-02-03 17:43:08,0.0
-13376,-512,-1676,-591,156,-236,2025-02-03 17:43:08,0.0
-13516,-540,-1948,-526,193,-204,2025-02-03 17:43:08,0.0
-13556,-372,-1868,-523,-3,-173,2025-02-03 17:43:08,0.0
-13480,-396,-1988,-470,-200,-157,2025-02-03 17:43:08,0.0
-13388,-276,-1760,-418,-180,-188,2025-02-03 17:43:08,0.0
-13356,-396,-1852,-324,-112,-210,2025-02-03 17:43:08,0.0
-13452,-420,-2140,-249,-195,-147,2025-02-03 17:43:08,0.0
-13444,-320,-1924,-238,-89,-114,2025-02-03 17:43:08,0.0
-13408,-192,-1824,-281,104,-141,2025-02-03 17:43:08,0.0
-13568,-188,-1600,-586,221,-224,2025-02-03 17:43:08,0.0
-13440,-108,-1564,-496,282,-228,2025-02-03 17:43:08,0.0
-13416,-212,-1696,-470,292,-238,2025-02-03 17:43:08,0.0
-13520,-176,-1688,-405,253,-225,2025-02-03 17:43:08,0.0
-13524,-108,-1724,-360,252,-239,2025-02-03 17:43:08,0.0
-13452,-232,-1820,-347,309,-245,2025-02-03 17:43:08,0.0
-13480,-116,-1856,-292,354,-193,2025-02-03 17:43:08,0.0
-13520,-96,-1816,-239,323,-204,2025-02-03 17:43:08,0.0
-13408,-132,-1816,-209,68,-192,2025-02-03 17:43:08,0.0
-13376,-72,-1804,-212,71,-210,2025-02-03 17:43:08,0.0
-13428,-144,-1872,-224,48,-200,2025-02-03 17:43:08,0.0
-13404,-148,-2004,-194,90,-193,2025-02-03 17:43:08,0.0
-13312,-60,-1680,-184,263,-220,2025-02-03 17:43:08,0.0
-13240,-88,-1872,-151,376,-261,2025-02-03 17:43:08,0.0
-13528,-296,-1948,-107,338,-231,2025-02-03 17:43:09,0.0
-13544,-184,-1676,-26,269,-192,2025-02-03 17:43:09,0.0
-13524,-124,-1936,-23,146,-217,2025-02-03 17:43:09,0.0
-13576,-80,-1732,-53,2,-248,2025-02-03 17:43:09,0.0
-13452,16,-1812,-111,90,-215,2025-02-03 17:43:09,0.0
-13432,24,-1816,-126,181,-252,2025-02-03 17:43:09,0.0
-13380,-200,-2080,-100,181,-249,2025-02-03 17:43:09,0.0
-13444,-168,-1888,-106,215,-217,2025-02-03 17:43:09,0.0
-13480,-196,-1880,-105,229,-211,2025-02-03 17:43:09,0.0
-13468,-184,-1792,-64,245,-215,2025-02-03 17:43:09,0.0
-13488,-176,-1892,-61,263,-247,2025-02-03 17:43:09,0.0
-13480,-212,-1860,-75,197,-203,2025-02-03 17:43:09,0.0
-13432,-300,-1756,-42,153,-204,2025-02-03 17:43:09,0.0
-13496,-256,-1900,-16,132,-137,2025-02-03 17:43:09,0.0
-13540,-240,-1924,33,150,-134,2025-02-03 17:43:09,0.0
-13372,-120,-1968,4,203,-163,2025-02-03 17:43:09,0.0
-13444,-240,-1788,25,123,-182,2025-02-03 17:43:09,0.0
-13472,-196,-1864,45,24,-158,2025-02-03 17:43:09,0.0
-13452,-172,-1852,120,18,-167,2025-02-03 17:43:09,0.0
-13416,-180,-1752,90,90,-204,2025-02-03 17:43:09,0.0
-13464,-276,-2020,35,122,-199,2025-02-03 17:43:09,0.0
-13564,-236,-1856,61,115,-143,2025-02-03 17:43:09,0.0
-13384,-320,-1824,45,109,-133,2025-02-03 17:43:09,0.0
-13452,-244,-1860,26,65,-132,2025-02-03 17:43:09,0.0
-13572,-216,-1688,75,24,-147,2025-02-03 17:43:09,0.0
-13548,-104,-1672,69,27,-143,2025-02-03 17:43:09,0.0
-13548,-96,-1632,81,-68,-99,2025-02-03 17:43:09,0.0
-13556,-352,-1364,182,-133,-81,2025-02-03 17:43:09,0.0
-13704,-428,-1648,230,-57,-7,2025-02-03 17:43:09,0.0
-13756,-264,-1968,254,83,160,2025-02-03 17:43:09,0.0
-13676,48,-2052,177,101,206,2025-02-03 17:43:09,0.0
-13492,592,-2068,51,2,223,2025-02-03 17:43:09,0.0
-13512,736,-1928,-183,-49,238,2025-02-03 17:43:09,0.0
-13568,492,-1760,-341,-70,265,2025-02-03 17:43:09,0.0
-13688,104,-1728,-278,-174,306,2025-02-03 17:43:09,0.0
-13388,-192,-1652,-159,-459,356,2025-02-03 17:43:09,0.0
-13044,-432,-1416,-60,-914,268,2025-02-03 17:43:09,0.0
-13004,-304,-1520,171,-933,-6,2025-02-03 17:43:09,0.0
-13044,-128,-1128,489,-146,52,2025-02-03 17:43:09,0.0
-13060,224,-728,810,876,64,2025-02-03 17:43:09,0.0
-13164,308,-1008,870,1568,-72,2025-02-03 17:43:09,0.0
-13692,140,-1036,807,1674,-154,2025-02-03 17:43:09,0.0
-14004,-112,-1000,963,1221,-170,2025-02-03 17:43:09,0.0
-13560,452,-1676,819,-321,-168,2025-02-03 17:43:09,0.0
-13148,764,-1692,653,-264,-223,2025-02-03 17:43:09,0.0
-13020,1056,-1712,598,120,-239,2025-02-03 17:43:09,0.0
-13000,1044,-1392,370,696,-300,2025-02-03 17:43:09,0.0
-13208,932,-1540,120,1170,-537,2025-02-03 17:43:09,0.0
-13472,832,-1860,-91,1093,-774,2025-02-03 17:43:09,0.0
-13896,788,-2000,-265,488,-856,2025-02-03 17:43:09,0.0
-13848,656,-2124,-545,-305,-848,2025-02-03 17:43:09,0.0
-13752,388,-1768,-744,-831,-937,2025-02-03 17:43:09,0.0
-13464,116,-1608,-856,-1095,-1159,2025-02-03 17:43:09,0.0
-13376,-420,-1340,-907,-1126,-1408,2025-02-03 17:43:09,0.0
-13592,-772,-1224,-803,-1056,-1487,2025-02-03 17:43:09,0.0
-13536,-652,-1728,-685,-1235,-1357,2025-02-03 17:43:09,0.0
-13512,-688,-2048,-744,-1561,-1059,2025-02-03 17:43:09,0.0
-13260,-588,-1360,-769,-1819,-710,2025-02-03 17:43:09,0.0
-13020,-416,-944,-734,-1617,-304,2025-02-03 17:43:09,0.0
-12640,56,-1508,-773,-945,58,2025-02-03 17:43:09,0.0
-12356,596,-3028,-883,-1,230,2025-02-03 17:43:09,0.0
-12636,492,-3228,-1166,1564,204,2025-02-03 17:43:09,0.0
-13224,108,-816,-1356,3875,35,2025-02-03 17:43:09,0.0
-14188,-228,216,-1662,5140,-296,2025-02-03 17:43:10,0.0
-15004,-632,636,-2110,4769,-1137,2025-02-03 17:43:10,0.0
-15704,-1100,116,-2036,2819,-2068,2025-02-03 17:43:10,0.0
-15476,-2136,-780,-1826,22,-3052,2025-02-03 17:43:10,0.0
-14688,-2820,-948,-1745,-2147,-3629,2025-02-03 17:43:10,
-13780,-2992,-340,-1604,-3448,-4042,2025-02-03 17:43:10,0.0
-13160,-2796,-4,-1405,-3560,-4069,2025-02-03 17:43:10,0.0
-12632,-2284,260,-1152,-2666,-3820,2025-02-03 17:43:10,0.0
-12636,-1756,-52,-879,-973,-3451,2025-02-03 17:43:10,0.0
-12344,-1388,-484,-938,612,-3199,2025-02-03 17:43:10,0.0
-12508,-1076,-968,-1175,1387,-3014,2025-02-03 17:43:10,0.0
-12980,-960,-672,-1471,1517,-2867,2025-02-03 17:43:10,0.0
-13576,-888,-516,-1706,1423,-2563,2025-02-03 17:43:10,0.0
-13840,-860,-340,-1976,1166,-2256,2025-02-03 17:43:10,0.0
-13976,-1020,-144,-2319,275,-2049,2025-02-03 17:43:10,0.0
-13948,-1208,-240,-2691,-1148,-1729,2025-02-03 17:43:10,0.0
-13776,-1440,-132,-2982,-2325,-1438,2025-02-03 17:43:10,0.0
-13856,-1640,-144,-3075,-2820,-1061,2025-02-03 17:43:10,0.0
-13576,-1548,-296,-3176,-3085,-515,2025-02-03 17:43:10,0.0
-13480,-1272,-448,-3247,-3160,51,2025-02-03 17:43:10,0.0
-13196,-1316,-64,-3294,-3250,363,2025-02-03 17:43:10,0.0
-12920,-1692,476,-3419,-3437,495,2025-02-03 17:43:10,0.0
-12988,-2052,852,-3369,-3477,642,2025-02-03 17:43:10,0.0
-13256,-2080,1372,-2843,-3228,712,2025-02-03 17:43:10,0.0
-13472,-1684,1792,-2613,-3038,814,2025-02-03 17:43:10,0.0
-13044,-1536,1448,-2583,-3085,791,2025-02-03 17:43:10,0.0
-12676,-1648,956,-2631,-3352,834,2025-02-03 17:43:10,0.0
-12364,-1760,560,-2598,-2996,948,2025-02-03 17:43:10,0.0
-12088,-1964,56,-2596,-1263,1054,2025-02-03 17:43:10,0.0
-12004,-2236,424,-2765,1543,776,2025-02-03 17:43:10,0.0
-12592,-2628,1148,-2851,4500,222,2025-02-03 17:43:10,0.0
-13376,-2544,1144,-2828,5713,-299,2025-02-03 17:43:10,0.0
-13888,-2476,872,-2610,5953,-722,2025-02-03 17:43:10,0.0
-14464,-2364,272,-2454,5598,-1018,2025-02-03 17:43:10,0.0
-14936,-2544,164,-2565,4971,-1185,2025-02-03 17:43:11,0.0
-15576,-2852,216,-2661,4678,-1179,2025-02-03 17:43:11,0.0
-16268,-2864,180,-2686,4871,-879,2025-02-03 17:43:11,0.0
-16364,-2684,-80,-2724,5039,-422,2025-02-03 17:43:13,0.0
-12100,2444,-2604,4576,-614,-954,2025-02-03 17:43:13,0.0
-12248,2132,-2388,4705,-357,-1299,2025-02-03 17:43:13,0.0
-12088,1532,-2292,4942,-13,-1583,2025-02-03 17:43:13,0.0
-12264,1044,-2480,5271,569,-1907,2025-02-03 17:43:13,0.0
-12512,740,-3504,5560,1443,-2094,2025-02-03 17:43:13,0.0
-13504,1012,-4164,5541,2461,-1981,2025-02-03 17:43:13,0.0
-14200,1288,-4816,5109,3430,-1621,2025-02-03 17:43:13,0.0
-14628,1392,-5064,4133,3497,-1191,2025-02-03 17:43:13,0.0
-14296,1188,-5152,3005,2082,-1049,2025-02-03 17:43:13,0.0
-13432,908,-4388,1997,-794,-1440,2025-02-03 17:43:13,0.0
-13336,668,-3328,1751,-2566,-2191,2025-02-03 17:43:13,0.0
-13264,756,-3448,1613,-2192,-2518,2025-02-03 17:43:13,0.0
-12944,428,-3660,1402,-1226,-2509,2025-02-03 17:43:13,0.0
-12480,-116,-3640,1171,-594,-2213,2025-02-03 17:43:13,0.0
-12384,-772,-3240,1112,-254,-1841,2025-02-03 17:43:13,0.0
-12320,-1448,-2804,1116,-39,-1499,2025-02-03 17:43:13,0.0
-12548,-1780,-2768,1090,333,-1116,2025-02-03 17:43:13,0.0
-12664,-1448,-3060,977,964,-802,2025-02-03 17:43:13,0.0
-12956,-784,-2992,962,1801,-458,2025-02-03 17:43:13,0.0
-13176,-676,-2980,1007,2298,-260,2025-02-03 17:43:13,0.0
-13464,-472,-2996,961,2628,-71,2025-02-03 17:43:13,0.0
-13864,-264,-2516,867,2788,213,2025-02-03 17:43:13,0.0
-14196,-320,-1780,942,2524,721,2025-02-03 17:43:13,0.0
-13932,-656,-2300,1132,2027,1021,2025-02-03 17:43:13,0.0
-13724,-988,-3080,1103,1292,938,2025-02-03 17:43:13,0.0
-13336,-1212,-3328,921,405,482,2025-02-03 17:43:13,0.0
-13348,-1120,-2808,881,-200,179,2025-02-03 17:43:13,0.0
-13176,-608,-2584,940,-263,214,2025-02-03 17:43:13,0.0
-12940,-124,-2552,904,339,329,2025-02-03 17:43:13,0.0
-12864,20,-2836,585,885,372,2025-02-03 17:43:13,0.0
-13068,-220,-2920,281,1214,279,2025-02-03 17:43:13,0.0
-13048,-336,-2944,-29,1192,162,2025-02-03 17:43:13,0.0
-13040,-492,-2840,-235,1078,-44,2025-02-03 17:43:13,0.0
-12956,-552,-2608,-315,989,-231,2025-02-03 17:43:13,0.0
-12980,-468,-2996,-393,1081,-492,2025-02-03 17:43:13,0.0
-13312,-216,-3064,-518,1397,-523,2025-02-03 17:43:13,0.0
-13480,-544,-2748,-890,1293,-112,2025-02-03 17:43:13,0.0
-13200,-880,-2712,-855,635,-168,2025-02-03 17:43:13,0.0
-13068,-1256,-2424,-750,431,-150,2025-02-03 17:43:13,0.0
-12992,-956,-2076,-507,637,-101,2025-02-03 17:43:13,0.0
-12828,-508,-2120,-276,1033,-102,2025-02-03 17:43:13,0.0
-12880,-504,-1972,-44,1399,-174,2025-02-03 17:43:13,0.0
-13392,-1016,-1960,281,1723,-128,2025-02-03 17:43:13,0.0
-13940,-1192,-1992,693,2129,67,2025-02-03 17:43:13,0.0
-14104,-1300,-2780,989,2309,375,2025-02-03 17:43:13,0.0
-14052,-1084,-2884,1279,2117,611,2025-02-03 17:43:13,0.0
-13108,-44,-2868,1444,-870,831,2025-02-03 17:43:13,0.0
-12704,-60,-3140,1585,-693,1047,2025-02-03 17:43:13,0.0
-12504,-92,-3416,1609,57,1194,2025-02-03 17:43:13,0.0
-12312,412,-3684,1428,996,1210,2025-02-03 17:43:13,0.0
-12416,628,-3648,1100,1631,1059,2025-02-03 17:43:13,0.0
-12704,832,-3704,770,1641,880,2025-02-03 17:43:13,0.0
-12796,536,-3568,415,733,636,2025-02-03 17:43:13,0.0
-12372,252,-3636,238,-937,273,2025-02-03 17:43:14,0.0
-6104,2024,-724,2218,6961,1994,2025-02-03 17:43:14,0.0
-5692,3000,-1012,1727,5641,1581,2025-02-03 17:43:14,0.0
-6152,2976,-1544,1123,5537,805,2025-02-03 17:43:14,0.0
-7384,2520,-1824,126,6908,213,2025-02-03 17:43:14,0.0
-9604,2312,-2036,-1017,8617,79,2025-02-03 17:43:14,0.0
-11192,2516,-896,-1844,9140,335,2025-02-03 17:43:14,0.0
-12056,2812,-324,-2170,7815,438,2025-02-03 17:43:14,0.0
-13064,2360,-676,-2822,4666,885,2025-02-03 17:43:15,0.0
-7384,-680,-13280,-695,302,128,2025-02-03 17:43:15,0.0
-7172,-500,-12700,-303,663,175,2025-02-03 17:43:15,0.0
-7152,48,-12348,-26,1097,342,2025-02-03 17:43:15,0.0
-7080,432,-12224,232,1452,640,2025-02-03 17:43:15,0.0
-7256,776,-11552,403,1553,859,2025-02-03 17:43:15,
-7088,1076,-11368,401,1326,948,2025-02-03 17:43:15,0.0
-7016,1240,-11044,257,980,873,2025-02-03 17:43:15,0.0
-6900,1320,-10880,-71,660,753,2025-02-03 17:43:15,0.0
-6776,1112,-11192,-609,204,570,2025-02-03 17:43:15,0.0
-6532,920,-11652,-836,-176,548,2025-02-03 17:43:15,0.0
-6612,680,-11808,-879,-217,695,2025-02-03 17:43:15,0.0
-6680,532,-11612,-686,17,925,2025-02-03 17:43:15,0.0
-6784,660,-11460,-392,360,1189,2025-02-03 17:43:15,0.0
-7120,904,-11140,-92,586,1185,2025-02-03 17:43:15,0.0
-7244,1120,-11616,73,725,957,2025-02-03 17:43:15,0.0
-7664,1340,-11760,218,669,654,2025-02-03 17:43:15,0.0
-7820,1388,-11936,185,175,342,2025-02-03 17:43:15,0.0
-7756,1612,-11888,77,-540,223,2025-02-03 17:43:15,0.0
-7488,1588,-11880,-61,-1283,149,2025-02-03 17:43:15,0.0
-7244,1216,-12064,-165,-1509,21,2025-02-03 17:43:15,0.0
-6952,1120,-12224,-297,-1462,-73,2025-02-03 17:43:15,0.0
-6764,928,-12092,-304,-1293,-84,2025-02-03 17:43:15,0.0
-6732,1080,-12248,-370,-858,-126,2025-02-03 17:43:15,0.0
-6808,1256,-11960,-378,-150,-156,2025-02-03 17:43:15,0.0
-6852,1184,-11876,-398,187,-241,2025-02-03 17:43:15,0.0
-7220,1036,-11776,-409,-183,-241,2025-02-03 17:43:15,0.0
-7264,1076,-11564,-486,-644,-233,2025-02-03 17:43:15,0.0
-7184,1168,-11460,-496,-1129,-301,2025-02-03 17:43:15,0.0
-7076,1172,-11448,-485,-1402,-413,2025-02-03 17:43:15,0.0
-7020,1232,-11616,-511,-1715,-516,2025-02-03 17:43:15,0.0
-6964,1396,-11720,-601,-2054,-513,2025-02-03 17:43:15,0.0
-7012,1476,-11292,-625,-2271,-496,2025-02-03 17:43:15,0.0
-7188,1632,-11264,-523,-2413,-397,2025-02-03 17:43:15,0.0
-7284,1628,-11296,-467,-2635,-212,2025-02-03 17:43:15,0.0
-7264,1648,-11352,-484,-2923,-14,2025-02-03 17:43:15,0.0
-7456,1496,-11496,-514,-3062,75,2025-02-03 17:43:15,0.0
-7188,1380,-11608,-511,-3365,15,2025-02-03 17:43:15,0.0
-7352,1428,-11288,-584,-3797,-110,2025-02-03 17:43:15,0.0
-7252,1624,-11108,-653,-4299,-102,2025-02-03 17:43:15,0.0
-7308,1592,-11044,-716,-4766,-3,2025-02-03 17:43:15,0.0
-7296,1632,-11192,-750,-4895,134,2025-02-03 17:43:15,0.0
-7352,1408,-11448,-823,-4840,124,2025-02-03 17:43:15,0.0
-7652,1360,-11448,-822,-4842,119,2025-02-03 17:43:15,0.0
-8012,1172,-11192,-763,-4901,-6,2025-02-03 17:43:15,0.0
-8424,1200,-10848,-812,-5245,-91,2025-02-03 17:43:15,0.0
-8760,1196,-10248,-985,-6067,-227,2025-02-03 17:43:15,0.0
-9144,1284,-10184,-1279,-7189,-373,2025-02-03 17:43:15,0.0
-9416,1480,-10072,-1554,-8294,-397,2025-02-03 17:43:15,0.0
-9932,1460,-6856,-1843,-11967,-143,2025-02-03 17:43:16,0.0
-10488,1368,-5924,-1403,-10993,-39,2025-02-03 17:43:16,0.0
-10752,1100,-5424,-1179,-10306,226,2025-02-03 17:43:16,0.0
-11492,820,-5032,-1091,-9745,349,2025-02-03 17:43:16,0.0
-12252,652,-4536,-975,-9066,398,2025-02-03 17:43:16,0.0
-12812,860,-4300,-862,-8508,436,2025-02-03 17:43:16,0.0
-13308,1104,-4068,-746,-8234,249,2025-02-03 17:43:16,0.0
-14000,1488,-3768,-1005,-8024,-220,2025-02-03 17:43:16,0.0
-14108,1760,-3244,-1336,-8132,-395,2025-02-03 17:43:16,0.0
-14116,1984,-2184,-1631,-7673,-1592,2025-02-03 17:43:16,0.0
-14384,1796,-1528,-1335,-7493,-1778,2025-02-03 17:43:16,0.0
-14672,1768,-984,-931,-7159,-1815,2025-02-03 17:43:16,0.0
-14748,1856,-724,-633,-6656,-1668,2025-02-03 17:43:16,0.0
-14632,2276,-708,-576,-6382,-1549,2025-02-03 17:43:16,0.0
-14472,2312,-608,-484,-6646,-1493,2025-02-03 17:43:16,0.0
-14148,2180,-380,-359,-7060,-1448,2025-02-03 17:43:16,0.0
-14336,2064,-128,-324,-6948,-1261,2025-02-03 17:43:16,0.0
-13864,1940,644,-213,-6834,-1039,2025-02-03 17:43:16,0.0
-13592,2016,1008,-139,-6828,-914,2025-02-03 17:43:16,0.0
-13296,2196,1012,-139,-7010,-808,2025-02-03 17:43:16,0.0
-13088,2260,576,-333,-6828,-641,2025-02-03 17:43:16,0.0
-12800,2396,668,-550,-5873,-725,2025-02-03 17:43:19,0.0
-13944,-348,-1764,-229,-1045,-315,2025-02-03 17:43:19,0.0
-13652,-164,-1596,-397,-1352,-230,2025-02-03 17:43:19,0.0
-13164,-212,-2116,-574,-1129,-69,2025-02-03 17:43:19,0.0
-12872,5076,-2388,-13467,4347,-2755,2025-02-03 17:43:19,0.0
-13072,4420,-3584,-14216,4217,-2620,2025-02-03 17:43:19,0.0
-13116,1300,-3572,-15822,5160,-3170,2025-02-03 17:43:19,0.0
-14004,-772,-1804,-17215,6482,-3881,2025-02-03 17:43:19,0.0
-16364,-596,-228,-17760,7080,-3428,2025-02-03 17:43:19,0.0
-18160,492,420,-17651,6205,-2262,2025-02-03 17:43:19,0.0
-17652,1064,-1664,-18100,3547,-1805,2025-02-03 17:43:19,0.0
-16704,1772,-2320,-19181,-116,-2068,2025-02-03 17:43:19,0.0
-15136,1700,-2348,-20444,-3863,-2716,2025-02-03 17:43:19,0.0
-13280,1368,-1812,-21625,-6666,-3468,2025-02-03 17:43:19,0.0
-11892,1524,-1688,-22262,-6585,-3774,2025-02-03 17:43:20,0.0
-13932,1496,-1432,-20120,-1735,-5209,2025-02-03 17:43:20,0.0
-13756,1184,-1272,-19819,-1814,-4905,2025-02-03 17:43:20,0.0
-13628,1300,-1276,-19357,-1029,-4430,2025-02-03 17:43:20,0.0
-13664,1216,-1364,-18935,72,-4136,2025-02-03 17:43:20,0.0
-13496,972,-1692,-18500,878,-3979,2025-02-03 17:43:20,0.0
-13596,804,-1684,-18067,1163,-3819,2025-02-03 17:43:20,0.0
-13640,996,-1648,-17460,1215,-3542,2025-02-03 17:43:20,0.0
-13380,1128,-1376,-16758,1155,-3169,2025-02-03 17:43:20,0.0
-13148,952,-1516,-16029,1245,-2970,2025-02-03 17:43:20,0.0
-13248,876,-1892,-15513,1734,-3029,2025-02-03 17:43:20,0.0
-13464,752,-1996,-14999,2151,-3128,2025-02-03 17:43:20,0.0
-13596,764,-2068,-14401,2080,-3108,2025-02-03 17:43:20,0.0
-13596,708,-2052,-13791,1442,-3050,2025-02-03 17:43:20,0.0
-13704,780,-1744,-13070,702,-2934,2025-02-03 17:43:20,0.0
-13600,680,-916,-12117,-88,-2525,2025-02-03 17:43:20,0.0
-13236,380,-924,-11379,-297,-2428,2025-02-03 17:43:20,0.0
-12764,188,-764,-10787,-722,-2779,2025-02-03 17:43:20,0.0
-12260,-36,-172,-10251,-1323,-3353,2025-02-03 17:43:20,0.0
-12120,300,376,-9585,-1640,-3828,2025-02-03 17:43:20,0.0
-13052,364,-24,-8991,-861,-3849,2025-02-03 17:43:20,0.0
-14536,36,-468,-8305,919,-3178,2025-02-03 17:43:20,
-15756,-1284,1864,-5915,2697,-1457,2025-02-03 17:43:20,0.0
-14820,-500,1784,-4698,-989,-1566,2025-02-03 17:43:20,0.0
-13348,-88,1004,-3815,-3023,-2056,2025-02-03 17:43:20,0.0
-12768,-1196,488,-2734,-2844,-2287,2025-02-03 17:43:20,0.0
-12380,-2480,-128,-1141,-890,-1997,2025-02-03 17:43:20,0.0
-12400,-2852,-308,438,1481,-1352,2025-02-03 17:43:20,0.0
-12788,-2180,-492,2085,3854,-425,2025-02-03 17:43:20,0.0
-13204,-1132,-568,3089,5549,140,2025-02-03 17:43:20,0.0
-13616,92,-292,3375,5967,259,2025-02-03 17:43:20,0.0
-13940,1064,-640,2719,4675,56,2025-02-03 17:43:20,0.0
-14252,2248,-1384,1719,1838,-135,2025-02-03 17:43:20,0.0
-14020,2788,-1908,996,-9,-466,2025-02-03 17:43:20,0.0
-13584,2756,-2604,181,-660,-1235,2025-02-03 17:43:20,0.0
-13932,2036,-3180,-1036,-306,-2052,2025-02-03 17:43:20,0.0
-13844,1656,-3188,-2045,276,-2590,2025-02-03 17:43:20,0.0
-14180,1340,-2780,-2542,555,-2994,2025-02-03 17:43:20,0.0
-14276,840,-2792,-3071,-603,-3236,2025-02-03 17:43:20,0.0
-14096,316,-1716,-3506,-2002,-3284,2025-02-03 17:43:20,0.0
-13780,-532,-1532,-3979,-3130,-3440,2025-02-03 17:43:20,0.0
-13712,-812,-1096,-4347,-3552,-3248,2025-02-03 17:43:20,0.0
-13568,-1120,-956,-4472,-3574,-2967,2025-02-03 17:43:20,0.0
-13052,-1296,-740,-4886,-3321,-2788,2025-02-03 17:43:20,0.0
-12700,-1660,-740,-5268,-2107,-2914,2025-02-03 17:43:20,0.0
-12464,-2012,-568,-5203,-776,-3133,2025-02-03 17:43:20,0.0
-12952,-2140,-180,-4938,430,-3221,2025-02-03 17:43:20,0.0
-13060,-2240,-120,-4517,1270,-3251,2025-02-03 17:43:20,0.0
-13436,-2204,-300,-4057,1583,-3271,2025-02-03 17:43:20,0.0
-13456,-2052,-92,-3775,1173,-3320,2025-02-03 17:43:20,0.0
-13852,-2184,188,-3608,131,-3348,2025-02-03 17:43:20,0.0
-14116,-2084,324,-3440,-193,-3040,2025-02-03 17:43:20,0.0
-13740,-1684,-552,-3234,-201,-2922,2025-02-03 17:43:20,0.0
-13152,-1360,-724,-3443,-476,-2895,2025-02-03 17:43:20,0.0
-12708,-1252,-352,-3645,-847,-2861,2025-02-03 17:43:20,0.0
-12448,-1292,372,-3704,-672,-2600,2025-02-03 17:43:20,0.0
-12996,-1972,1044,-3411,259,-2265,2025-02-03 17:43:21,0.0
-13544,-2844,568,-2994,804,-1765,2025-02-03 17:43:21,0.0
-14092,-3292,372,-2739,972,-1413,2025-02-03 17:43:21,0.0
-14516,-3104,348,-2499,699,-1093,2025-02-03 17:43:21,0.0
-14228,-2144,1032,-2162,-7,-845,2025-02-03 17:43:21,0.0
-13844,-1556,1044,-2168,-1163,-701,2025-02-03 17:43:21,0.0
-13388,-1092,640,-2368,-1881,-528,2025-02-03 17:43:21,0.0
-12940,-1144,228,-2508,-1939,-319,2025-02-03 17:43:21,0.0
-12712,-1600,184,-2513,-1333,-62,2025-02-03 17:43:21,0.0
-12900,-2932,1072,-3967,908,-700,2025-02-03 17:43:21,0.0
-12832,-3184,436,-3931,1648,-606,2025-02-03 17:43:21,0.0
-12816,-3196,56,-3769,2609,-676,2025-02-03 17:43:21,0.0
-12996,-3200,-156,-3721,3668,-787,2025-02-03 17:43:21,0.0
-13452,-2984,-532,-3806,4520,-815,2025-02-03 17:43:21,0.0
-14108,-3128,-1088,-3828,5304,-745,2025-02-03 17:43:21,0.0
-15028,-3468,-1240,-3902,5989,-587,2025-02-03 17:43:21,0.0
-15868,-3496,-680,-3861,6611,-380,2025-02-03 17:43:21,0.0
-13568,680,-3868,-576,13450,-1117,2025-02-03 17:43:21,0.0
-16564,132,-1640,-458,11636,-374,2025-02-03 17:43:21,0.0
-18140,-440,-1084,-192,7084,1168,2025-02-03 17:43:21,0.0
-18640,-1460,-2952,-157,2151,2915,2025-02-03 17:43:21,0.0
-17644,-1612,-3696,-21,-2480,4062,2025-02-03 17:43:21,0.0
-14676,-1092,-2984,624,-9052,4410,2025-02-03 17:43:21,0.0
-13484,-824,-2052,1119,-11092,4300,2025-02-03 17:43:21,0.0
-11016,-476,-1872,1575,-9570,4019,2025-02-03 17:43:21,0.0
-9492,108,-1360,2038,-6927,3607,2025-02-03 17:43:21,0.0
-9212,740,-1560,2664,-3601,3555,2025-02-03 17:43:21,0.0
-9004,1240,-1944,3051,-249,3675,2025-02-03 17:43:21,0.0
-9284,1364,-1728,3117,3265,3670,2025-02-03 17:43:21,0.0
-10412,1360,-980,3134,5554,3315,2025-02-03 17:43:21,0.0
-11768,1236,-1092,2981,6017,2841,2025-02-03 17:43:21,0.0
-14064,1088,-192,2898,4729,2599,2025-02-03 17:43:21,0.0
-14712,1276,-132,2877,1973,2424,2025-02-03 17:43:22,0.0
-15080,1180,-188,2691,-1017,2196,2025-02-03 17:43:22,0.0
-14200,1136,-624,2257,-3926,1837,2025-02-03 17:43:22,0.0
-12600,1072,-380,1814,-6045,1107,2025-02-03 17:43:22,0.0
-11620,1096,160,1732,-6431,417,2025-02-03 17:43:22,0.0
-10900,612,308,1523,-5669,-196,2025-02-03 17:43:22,0.0
-10456,208,572,1612,-4194,-823,2025-02-03 17:43:22,0.0
-10512,372,236,2015,-2476,-1340,2025-02-03 17:43:22,0.0
-11004,620,456,2389,-805,-1646,2025-02-03 17:43:22,0.0
-13024,1000,-1356,2273,-1586,-2177,2025-02-03 17:43:22,0.0
-13392,1040,-2444,1863,-2321,-2289,2025-02-03 17:43:22,0.0
-13332,1040,-2288,1533,-1973,-2090,2025-02-03 17:43:22,0.0
-13840,1032,-916,1670,-816,-1465,2025-02-03 17:43:22,0.0
-14408,228,368,2213,894,-136,2025-02-03 17:43:22,0.0
-14272,-284,1084,3137,2520,961,2025-02-03 17:43:22,0.0
-14748,-24,280,4349,3782,1727,2025-02-03 17:43:22,0.0
-15664,444,508,5014,4594,2374,2025-02-03 17:43:22,0.0
-15296,1000,440,5098,4616,2204,2025-02-03 17:43:22,0.0
-15900,2072,240,4174,4118,1350,2025-02-03 17:43:22,0.0
-16296,1816,1300,3540,3367,608,2025-02-03 17:43:22,0.0
-16596,336,1320,3656,2077,164,2025-02-03 17:43:22,0.0
-16624,-432,952,3970,805,143,2025-02-03 17:43:22,0.0
-15704,-540,972,4326,366,201,2025-02-03 17:43:22,0.0
-14540,-24,1516,4871,447,133,2025-02-03 17:43:22,0.0
-14888,1460,856,5200,1697,229,2025-02-03 17:43:22,0.0
-16412,2772,-1768,4659,4144,912,2025-02-03 17:43:22,0.0
-18840,4392,-4244,3222,6963,2355,2025-02-03 17:43:22,0.0
-20664,5596,-6212,1323,9082,4758,2025-02-03 17:43:22,0.0
-19452,5504,-7180,-931,8848,6372,2025-02-03 17:43:22,0.0
-15384,4896,-6868,-3404,4100,5362,2025-02-03 17:43:22,0.0
-11652,3768,-5988,-4886,-3756,1759,2025-02-03 17:43:22,0.0
-9608,948,-4284,-5821,-12371,-2090,2025-02-03 17:43:22,0.0
-8316,-900,-3340,-5895,-19761,-4124,2025-02-03 17:43:22,0.0
-8280,-1704,-2316,-5011,-20027,-4922,2025-02-03 17:43:22,
-8700,-1784,-3180,-2975,-13098,-4608,2025-02-03 17:43:22,0.0
-10396,-2584,-6292,-782,-3241,-3063,2025-02-03 17:43:22,0.0
-11960,-2952,-7996,67,8878,-764,2025-02-03 17:43:22,0.0
-11816,-1196,-5176,762,16451,121,2025-02-03 17:43:22,0.0
-13140,804,-2400,1260,17422,-524,2025-02-03 17:43:22,0.0
-14132,1736,-2324,216,13033,-2072,2025-02-03 17:43:22,0.0
-14348,1848,-2972,-1094,6570,-4194,2025-02-03 17:43:22,0.0
-14840,848,-3956,-1840,89,-6074,2025-02-03 17:43:22,0.0
-15276,-368,-4528,-2187,-5734,-6863,2025-02-03 17:43:22,0.0
-14828,-1332,-5108,-2823,-10004,-6269,2025-02-03 17:43:22,0.0
-14180,-1476,-4064,-3528,-12184,-5103,2025-02-03 17:43:22,0.0
-11628,-1248,-2532,-4068,-11024,-3927,2025-02-03 17:43:22,0.0
-9968,-1436,-296,-3751,-6184,-3845,2025-02-03 17:43:22,0.0
-8756,-1688,-1136,-3701,-1791,-4272,2025-02-03 17:43:22,0.0
-9376,-1468,-1828,-3708,887,-4285,2025-02-03 17:43:22,0.0
-11540,-1524,-1072,-3316,2831,-3386,2025-02-03 17:43:22,0.0
-12380,-1412,-556,-2872,3454,-2405,2025-02-03 17:43:22,0.0
-13512,-1080,-556,-2724,3168,-1449,2025-02-03 17:43:22,0.0
-14424,-696,-388,-3029,1308,-599,2025-02-03 17:43:22,0.0
-14648,-464,-472,-3533,-488,-150,2025-02-03 17:43:22,0.0
-15160,-376,-496,-4468,-2902,111,2025-02-03 17:43:22,0.0
-14560,-32,-52,-5300,-5709,470,2025-02-03 17:43:22,0.0
-14956,404,-212,-5544,-8299,1091,2025-02-03 17:43:22,0.0
-14276,284,-576,-5962,-10627,2496,2025-02-03 17:43:23,0.0
-13124,24,-528,-6584,-11056,3542,2025-02-03 17:43:23,0.0
-11936,-252,276,-7124,-10159,3841,2025-02-03 17:43:23,0.0
-10080,-656,-272,-7358,-7904,3488,2025-02-03 17:43:23,0.0
-8840,-1192,-1396,-7300,-4749,2473,2025-02-03 17:43:23,0.0
-8708,-2120,-2876,-7142,-1016,1220,2025-02-03 17:43:23,0.0
-9632,-3132,-2476,-6740,4332,71,2025-02-03 17:43:23,0.0
-12512,-2444,-692,-6146,10391,-469,2025-02-03 17:43:23,0.0
-15020,-1888,588,-5976,13389,-724,2025-02-03 17:43:23,0.0
-17452,-2028,416,-6117,13552,-1107,2025-02-03 17:43:23,0.0
-19472,-2512,156,-6525,11904,-1456,2025-02-03 17:43:23,0.0
-20680,-2888,-92,-6865,8421,-1461,2025-02-03 17:43:23,0.0
-17680,-3800,1400,-7225,-9023,839,2025-02-03 17:43:23,0.0
-14776,-4084,1232,-7106,-11981,1038,2025-02-03 17:43:23,0.0
-13120,-3184,20,-6318,-9944,717,2025-02-03 17:43:23,0.0
-12144,-2040,-968,-4440,-3808,-253,2025-02-03 17:43:23,0.0
-11100,-2900,-2252,-1701,3865,-2347,2025-02-03 17:43:23,0.0
-12776,-4000,-1836,439,7556,-4021,2025-02-03 17:43:23,0.0
-15440,-3032,-1092,1279,7407,-4004,2025-02-03 17:43:23,0.0
-17060,328,-2280,603,4229,-2148,2025-02-03 17:43:23,0.0
-17112,3632,-4472,-283,667,193,2025-02-03 17:43:23,0.0
-15112,4836,-8664,-2078,-2085,2266,2025-02-03 17:43:23,0.0
-12092,4488,-10240,-4644,-3367,2367,2025-02-03 17:43:23,0.0
-10036,3996,-7804,-6823,-2934,409,2025-02-03 17:43:23,0.0
-10588,3464,-4284,-7830,-107,-1661,2025-02-03 17:43:23,0.0
-12624,2116,-1696,-7350,3251,-1811,2025-02-03 17:43:23,0.0
-14636,1616,-460,-5501,4430,-262,2025-02-03 17:43:23,0.0
-14552,708,-1816,-4048,3348,1824,2025-02-03 17:43:23,0.0
-14820,768,-1160,-3758,1369,2845,2025-02-03 17:43:23,0.0
-14080,524,-1428,-3673,-387,3368,2025-02-03 17:43:23,0.0
-13340,444,-1292,-3465,-1213,3536,2025-02-03 17:43:23,0.0
-12992,1108,-760,-3239,-859,3513,2025-02-03 17:43:23,0.0
-12180,1896,-1300,-2851,6,3318,2025-02-03 17:43:23,0.0
-12356,2472,-728,-2515,353,2822,2025-02-03 17:43:23,0.0
-12584,2856,-1256,-2299,-390,2348,2025-02-03 17:43:23,0.0
-12664,2644,-1252,-2200,-1626,1696,2025-02-03 17:43:23,0.0
-12604,2568,-1144,-2404,-2443,1263,2025-02-03 17:43:23,0.0
-11484,2712,-1564,-2876,-2748,783,2025-02-03 17:43:23,0.0
-10896,3276,-1204,-3350,-2049,207,2025-02-03 17:43:23,0.0
-10564,3568,-1684,-3829,-916,-353,2025-02-03 17:43:23,0.0
-11296,3332,-1456,-4511,686,-925,2025-02-03 17:43:23,0.0
-12172,3216,-1396,-5003,1595,-1276,2025-02-03 17:43:23,0.0
-13188,3168,-972,-5154,1920,-1434,2025-02-03 17:43:23,0.0
-14048,3268,-908,-5497,1510,-1455,2025-02-03 17:43:23,0.0
-14548,3472,-836,-6272,557,-1403,2025-02-03 17:43:23,0.0
-14448,3768,-1152,-7368,-851,-1402,2025-02-03 17:43:23,0.0
-13964,4080,-1312,-8352,-2291,-1373,2025-02-03 17:43:23,0.0
-13412,3808,-1268,-9051,-2947,-1351,2025-02-03 17:43:23,0.0
-12588,3232,-976,-9570,-2764,-1456,2025-02-03 17:43:23,0.0
-11380,2516,-1572,-10011,-2881,-2137,2025-02-03 17:43:23,0.0
-10848,2076,-2684,-10159,-3072,-2754,2025-02-03 17:43:23,0.0
-10212,2048,-2420,-10004,-2544,-3186,2025-02-03 17:43:23,0.0
-10008,1688,-1820,-9491,-1076,-3455,2025-02-03 17:43:23,0.0
-10396,792,-824,-8545,1432,-3633,2025-02-03 17:43:23,0.0
-11528,324,228,-7181,4756,-3719,2025-02-03 17:43:23,0.0
-12948,408,-48,-6114,7629,-3809,2025-02-03 17:43:23,0.0
-14208,1288,-520,-5724,8682,-4011,2025-02-03 17:43:23,0.0
-15600,2272,-1152,-6165,7744,-4214,2025-02-03 17:43:23,0.0
-16660,2908,-1220,-7013,4838,-4127,2025-02-03 17:43:23,0.0
-16692,2944,-1208,-7715,455,-3676,2025-02-03 17:43:23,0.0
-16144,2120,-704,-7942,-2755,-3298,2025-02-03 17:43:23,0.0
-15352,1000,-540,-7585,-3851,-2874,2025-02-03 17:43:23,0.0
-14184,-364,-888,-7240,-2885,-2727,2025-02-03 17:43:23,0.0
-13416,-1400,-124,-6584,-1608,-2633,2025-02-03 17:43:23,0.0
-13220,-1932,1068,-5427,-577,-2186,2025-02-03 17:43:23,0.0
-13044,-2048,1164,-3948,644,-1652,2025-02-03 17:43:23,0.0
-13112,-1184,-424,-2845,2571,-1272,2025-02-03 17:43:24,0.0
-14300,484,-2620,-2607,4827,-1034,2025-02-03 17:43:24,0.0
-15264,3012,-3912,-2895,6290,-705,2025-02-03 17:43:24,0.0
-15524,5028,-4372,-3889,5415,-316,2025-02-03 17:43:24,0.0
-14288,4828,-3356,-5512,2250,-712,2025-02-03 17:43:24,0.0
-13940,3400,-1860,-6794,-1112,-1691,2025-02-03 17:43:24,0.0
-13844,1716,-112,-7159,-3581,-2063,2025-02-03 17:43:24,0.0
-13244,332,108,-6834,-3311,-2172,2025-02-03 17:43:24,0.0
-12692,8,-1664,-6654,-1387,-2252,2025-02-03 17:43:24,0.0
-12444,-12,-3516,-6885,115,-2543,2025-02-03 17:43:24,0.0
-12812,788,-3920,-7480,884,-2653,2025-02-03 17:43:24,
-12776,1296,-4008,-8132,1207,-2393,2025-02-03 17:43:24,0.0
-12756,1172,-3152,-8728,886,-1882,2025-02-03 17:43:24,0.0
-12188,692,-2188,-9491,424,-1251,2025-02-03 17:43:24,0.0
-11748,440,-1616,-9857,1019,-1166,2025-02-03 17:43:24,0.0
-11664,-456,-1928,-10115,1862,-1314,2025-02-03 17:43:24,0.0
-12220,-1972,-3000,-10090,2870,-1702,2025-02-03 17:43:24,0.0
-12908,-3560,-3408,-10311,4621,-2371,2025-02-03 17:43:24,0.0
-14048,-4412,-2088,-10186,6252,-3192,2025-02-03 17:43:24,0.0
-15464,-4012,-260,-9534,6538,-3505,2025-02-03 17:43:24,0.0
-16284,-3148,228,-8808,5483,-3586,2025-02-03 17:43:24,0.0
-16436,-1852,-28,-8622,3177,-3766,2025-02-03 17:43:24,0.0
-16200,-676,-1980,-8970,-175,-4321,2025-02-03 17:43:24,0.0
-15536,-204,-1740,-9808,-3345,-4794,2025-02-03 17:43:24,0.0
-14464,-240,-2544,-10543,-5219,-4791,2025-02-03 17:43:24,0.0
-13812,-536,-2084,-11245,-5921,-4346,2025-02-03 17:43:24,0.0
-12260,-916,-2560,-12016,-5648,-3960,2025-02-03 17:43:24,0.0
-11748,-1160,-2384,-12606,-4376,-3621,2025-02-03 17:43:24,0.0
-11160,-1004,-2516,-12965,-2514,-3397,2025-02-03 17:43:24,0.0
-10972,-976,-2832,-13611,347,-3404,2025-02-03 17:43:24,0.0
-12044,-912,-2268,-14211,2308,-3574,2025-02-03 17:43:24,0.0
-12908,-884,-2232,-14671,2997,-3730,2025-02-03 17:43:24,0.0
-14068,-844,-1892,-15166,2487,-3696,2025-02-03 17:43:24,0.0
-14816,-824,-1360,-15524,1125,-3437,2025-02-03 17:43:24,0.0
-14992,-876,-1432,-16042,-734,-3152,2025-02-03 17:43:24,0.0
-14124,-1108,-1760,-16633,-2388,-3058,2025-02-03 17:43:24,0.0
-13412,-1360,-2276,-17143,-3226,-3101,2025-02-03 17:43:24,0.0
-12852,-1496,-2424,-17327,-2901,-2994,2025-02-03 17:43:24,0.0
-12504,-1940,-2184,-17094,-1524,-2782,2025-02-03 17:43:24,0.0
-12356,-2576,-1680,-16699,163,-2565,2025-02-03 17:43:24,0.0
-12644,-3160,-1164,-16215,1601,-2547,2025-02-03 17:43:24,0.0
-13308,-3300,-828,-15806,2401,-2570,2025-02-03 17:43:24,0.0
-14108,-3204,-784,-15585,2248,-2586,2025-02-03 17:43:24,0.0
-14676,-2980,-580,-15486,1307,-2564,2025-02-03 17:43:24,0.0
-14812,-2656,-984,-15443,-147,-2516,2025-02-03 17:43:24,0.0
-14460,-2560,-1320,-15494,-1621,-2366,2025-02-03 17:43:24,0.0
-13032,-3200,-1216,-14832,-2453,-1865,2025-02-03 17:43:24,0.0
-12592,-3228,-1232,-14266,-1826,-1607,2025-02-03 17:43:24,0.0
-12516,-3268,-896,-13692,-823,-1442,2025-02-03 17:43:24,0.0
-12756,-3088,-292,-13146,478,-1283,2025-02-03 17:43:24,0.0
-13416,-3120,32,-12682,1471,-987,2025-02-03 17:43:24,0.0
-14020,-3016,-308,-12482,1656,-781,2025-02-03 17:43:24,0.0
-14356,-2784,-848,-12317,1216,-458,2025-02-03 17:43:24,0.0
-14584,-2688,-920,-12231,417,-93,2025-02-03 17:43:24,0.0
-14284,-2964,-1148,-12084,-135,19,2025-02-03 17:43:24,0.0
-13844,-3132,-900,-11825,-472,3,2025-02-03 17:43:24,0.0
-13508,-3076,-1304,-11453,-435,-34,2025-02-03 17:43:24,0.0
-13560,-2720,-1688,-11040,-210,124,2025-02-03 17:43:24,0.0
-13508,-2608,-2040,-10717,-12,281,2025-02-03 17:43:25,0.0
-13104,-2396,-2836,-10256,36,210,2025-02-03 17:43:25,0.0
-12900,-2072,-3968,-9737,191,-216,2025-02-03 17:43:25,0.0
-12612,-1248,-5024,-9187,753,-973,2025-02-03 17:43:25,0.0
-12620,-68,-5244,-8697,1761,-1727,2025-02-03 17:43:25,0.0
-12696,1576,-4936,-8310,2798,-2390,2025-02-03 17:43:25,0.0
-13232,3292,-4056,-8675,3274,-2469,2025-02-03 17:43:25,0.0
-13892,4388,-3432,-9655,3075,-1712,2025-02-03 17:43:25,0.0
-14412,4832,-3616,-10666,2669,-509,2025-02-03 17:43:25,0.0
-14264,4312,-3992,-11262,2551,67,2025-02-03 17:43:25,0.0
-13740,3112,-4372,-11942,2201,141,2025-02-03 17:43:25,0.0
-13536,1652,-3792,-12496,1769,-375,2025-02-03 17:43:25,0.0
-13972,-172,-3048,-12511,1662,-1013,2025-02-03 17:43:25,0.0
-14472,-1144,-1948,-12137,1261,-1263,2025-02-03 17:43:25,0.0
-14956,-660,-648,-11294,529,-947,2025-02-03 17:43:25,0.0
-14772,304,96,-10451,-297,-321,2025-02-03 17:43:25,0.0
-14592,1516,36,-9632,-1162,278,2025-02-03 17:43:25,0.0
-13356,2484,-888,-9038,-1953,634,2025-02-03 17:43:25,0.0
-12464,2872,-1448,-8773,-2119,514,2025-02-03 17:43:25,0.0
-12236,2212,-1520,-8743,-1341,351,2025-02-03 17:43:25,0.0
-12784,684,228,-7653,712,399,2025-02-03 17:43:25,0.0
-12976,732,280,-6840,478,319,2025-02-03 17:43:25,0.0
-13156,1344,-48,-6203,-67,147,2025-02-03 17:43:25,0.0
-12984,2292,-1036,-6021,-558,-169,2025-02-03 17:43:25,0.0
-12992,2912,-1820,-6305,-747,-459,2025-02-03 17:43:25,0.0
-12816,3616,-2088,-6680,-308,-584,2025-02-03 17:43:25,0.0
-12384,3408,-1892,-6876,591,-674,2025-02-03 17:43:25,0.0
-12452,2928,-1688,-7078,1098,-931,2025-02-03 17:43:25,0.0
-12408,2260,-1060,-7266,1464,-1265,2025-02-03 17:43:25,0.0
-12688,1668,-632,-7159,1598,-1515,2025-02-03 17:43:25,0.0
-12852,1260,-936,-6954,1537,-1783,2025-02-03 17:43:25,0.0
-12984,1300,-992,-6566,1485,-2023,2025-02-03 17:43:25,0.0
-13144,1512,-1116,-6096,1549,-2175,2025-02-03 17:43:25,0.0
-13556,1868,-1376,-5829,1465,-2083,2025-02-03 17:43:25,0.0
-13608,2140,-1504,-5653,1209,-1934,2025-02-03 17:43:27,0.0
-13600,2128,-1336,-5533,788,-1932,2025-02-03 17:43:27,0.0
-13400,2100,-1408,-5539,286,-2069,2025-02-03 17:43:27,0.0
-13332,2136,-1556,-5677,-303,-2291,2025-02-03 17:43:28,0.0
-13140,2264,-1716,-5857,-823,-2476,2025-02-03 17:43:28,0.0
-13936,104,392,-4754,-346,-1684,2025-02-03 17:43:28,0.0
-13652,-40,-164,-4042,-841,-1431,2025-02-03 17:43:28,0.0
-13528,320,-180,-3468,-1151,-1510,2025-02-03 17:43:28,0.0
-13440,772,116,-2813,-1296,-1588,2025-02-03 17:43:28,0.0
-14412,2944,-2488,1074,-2806,-267,2025-02-03 17:43:28,0.0
-14848,2308,-2500,904,-3435,-479,2025-02-03 17:43:29,0.0
-12856,-1520,-568,-535,4051,-258,2025-02-03 17:43:29,0.0
-13732,-2212,44,186,4350,-581,2025-02-03 17:43:29,0.0
-14640,-2312,44,1055,3866,-647,2025-02-03 17:43:29,0.0
-15256,-1604,-36,1720,3085,-497,2025-02-03 17:43:29,0.0
-15820,-576,-588,2218,2072,-270,2025-02-03 17:43:29,0.0
-14964,92,-1364,2344,414,-34,2025-02-03 17:43:29,0.0
-14616,1028,-1436,2108,-1544,24,2025-02-03 17:43:29,0.0
-13676,1400,-1456,1765,-2539,95,2025-02-03 17:43:29,
-12972,1524,-1316,1466,-2103,116,2025-02-03 17:43:29,0.0
-11956,1480,-1204,1405,-706,-87,2025-02-03 17:43:29,0.0
-11956,1268,-712,1334,1201,-349,2025-02-03 17:43:29,0.0
-12612,1276,-580,1216,2384,-602,2025-02-03 17:43:29,0.0
-13364,1320,56,903,2510,-787,2025-02-03 17:43:29,0.0
-14252,1456,-112,562,1930,-866,2025-02-03 17:43:29,0.0
-14672,1664,-916,42,1147,-571,2025-02-03 17:43:29,0.0
-14588,1936,-1536,-491,365,-411,2025-02-03 17:43:29,0.0
-14096,1936,-2172,-1350,-39,-306,2025-02-03 17:43:29,0.0
-13844,1856,-1716,-2058,-203,-198,2025-02-03 17:43:29,0.0
-13184,1388,-1204,-2740,-74,-124,2025-02-03 17:43:29,0.0
-12936,1300,-1364,-2863,71,-335,2025-02-03 17:43:29,0.0
-12860,808,-2024,-3019,604,-679,2025-02-03 17:43:29,0.0
-12940,396,-2120,-3314,1145,-1149,2025-02-03 17:43:29,0.0
-13444,-76,-1012,-3418,1262,-1271,2025-02-03 17:43:29,0.0
-13900,-560,-332,-3416,1377,-962,2025-02-03 17:43:29,0.0
-14028,-880,248,-2965,1300,-792,2025-02-03 17:43:29,0.0
-13872,-968,104,-2623,523,-821,2025-02-03 17:43:29,0.0
-13608,-972,-60,-2610,-70,-909,2025-02-03 17:43:29,0.0
-13500,-1052,64,-2486,-53,-1066,2025-02-03 17:43:29,0.0
-12980,-1064,-360,-2199,-71,-1207,2025-02-03 17:43:29,0.0
-13120,-384,-1492,-1926,74,-1371,2025-02-03 17:43:29,0.0
-13236,-936,-1456,-2207,1013,-997,2025-02-03 17:43:29,0.0
-13732,-2400,-632,-2122,2526,-453,2025-02-03 17:43:29,0.0
-13828,-3352,812,-1077,3608,-45,2025-02-03 17:43:29,0.0
-14232,-3344,1000,305,3661,309,2025-02-03 17:43:29,0.0
-14032,-2452,184,1083,2703,254,2025-02-03 17:43:29,0.0
-14016,-1676,-320,1184,1952,-127,2025-02-03 17:43:29,0.0
-13536,-508,-500,1356,1223,-1032,2025-02-03 17:43:29,0.0
-13016,256,-952,1439,115,-2378,2025-02-03 17:43:29,0.0
-13580,588,-1984,921,-810,-3495,2025-02-03 17:43:29,0.0
-14224,852,-2852,64,-992,-3719,2025-02-03 17:43:29,0.0
-14748,116,-2100,-1259,-784,-3226,2025-02-03 17:43:29,0.0
-14384,-1288,116,-1886,-1000,-2713,2025-02-03 17:43:29,0.0
-14440,-2300,968,-2016,-1817,-2436,2025-02-03 17:43:29,0.0
-14124,-2692,888,-2025,-2846,-2250,2025-02-03 17:43:29,0.0
-13640,-2672,756,-1952,-3504,-2136,2025-02-03 17:43:29,0.0
-13344,-2800,428,-1894,-3314,-2176,2025-02-03 17:43:29,0.0
-13160,-2964,460,-1831,-2153,-2087,2025-02-03 17:43:29,0.0
-12984,-3368,1040,-1459,-1164,-2213,2025-02-03 17:43:29,0.0
-13284,-3756,816,-1100,-340,-2349,2025-02-03 17:43:29,0.0
-13732,-3876,944,-709,309,-2053,2025-02-03 17:43:29,0.0
-14084,-3660,616,-214,533,-1568,2025-02-03 17:43:29,0.0
-13456,-3452,612,340,-41,-1410,2025-02-03 17:43:29,0.0
-12856,-2620,160,803,-772,-1518,2025-02-03 17:43:29,0.0
-13036,-1860,-640,911,-930,-1530,2025-02-03 17:43:29,0.0
-13012,-1344,-668,804,-513,-1378,2025-02-03 17:43:29,0.0
-13112,-812,-512,697,-123,-1336,2025-02-03 17:43:29,0.0
-13336,-804,-696,229,2,-1227,2025-02-03 17:43:29,0.0
-13456,-700,-620,-243,-896,-972,2025-02-03 17:43:29,0.0
-13864,-944,-672,-695,-1674,-190,2025-02-03 17:43:29,0.0
-13584,-1340,-356,-982,-1928,438,2025-02-03 17:43:29,0.0
-12028,-2512,1252,-542,-637,1020,2025-02-03 17:43:29,0.0
-12024,-1836,940,-687,-752,289,2025-02-03 17:43:30,0.0
-12564,-1244,964,-876,-293,-355,2025-02-03 17:43:30,0.0
-13772,-536,120,-1223,851,-197,2025-02-03 17:43:30,0.0
-13884,-1256,-444,-1941,1431,-30,2025-02-03 17:43:30,0.0
-14200,-1772,152,-2334,1162,-3,2025-02-03 17:43:30,0.0
-14260,-1964,-216,-2600,92,-188,2025-02-03 17:43:30,0.0
-13604,-1684,-12,-2679,-461,-283,2025-02-03 17:43:30,0.0
-12452,-2108,208,-2830,-716,-822,2025-02-03 17:43:30,0.0
-12384,-2824,-60,-3461,-224,-1316,2025-02-03 17:43:30,0.0
-13052,-3428,744,-3767,1226,-1131,2025-02-03 17:43:30,0.0
-13976,-3424,1216,-3278,3131,-340,2025-02-03 17:43:30,0.0
-14396,-3164,720,-3044,4356,284,2025-02-03 17:43:30,0.0
-14192,-3076,168,-3216,4486,368,2025-02-03 17:43:30,0.0
-13652,-3436,244,-3702,3730,-98,2025-02-03 17:43:30,0.0
-14236,-3772,924,-3567,2818,-349,2025-02-03 17:43:30,0.0
-14784,-4056,552,-3076,2670,61,2025-02-03 17:43:30,0.0
-14144,-4112,340,-2521,3461,543,2025-02-03 17:43:30,0.0
-13868,-3740,284,-2095,3920,625,2025-02-03 17:43:30,0.0
-14092,-3416,116,-1930,4198,761,2025-02-03 17:43:30,0.0
-14220,-3388,340,-1788,4145,912,2025-02-03 17:43:30,0.0
-14436,-3836,-712,-1274,4572,556,2025-02-03 17:43:30,0.0
-15164,-4660,-1660,-383,6240,-251,2025-02-03 17:43:30,0.0
-15556,-5308,-1040,989,7624,-1475,2025-02-03 17:43:30,0.0
-16512,-5236,-300,2502,7238,-2333,2025-02-03 17:43:30,0.0
-18360,-4124,-740,3410,5240,-1944,2025-02-03 17:43:30,0.0
-18840,-2148,-920,3374,1490,44,2025-02-03 17:43:30,0.0
-16880,-1140,-612,3033,-2651,1302,2025-02-03 17:43:30,0.0
-15056,-328,-1156,2330,-5085,1585,2025-02-03 17:43:30,0.0
-13976,-580,-1468,1567,-5290,2240,2025-02-03 17:43:30,0.0
-12496,-1248,-1592,1456,-3866,3030,2025-02-03 17:43:30,0.0
-10968,-1800,-2508,1661,-1901,3256,2025-02-03 17:43:30,0.0
-10136,-3000,-4224,1611,860,2211,2025-02-03 17:43:30,0.0
-10876,-3272,-5508,1615,2461,678,2025-02-03 17:43:30,0.0
-12084,-1304,-4860,1790,2046,-225,2025-02-03 17:43:30,0.0
-12844,336,-4088,1590,987,-191,2025-02-03 17:43:30,0.0
-13296,1512,-3688,1148,-189,402,2025-02-03 17:43:30,0.0
-13568,1348,-4088,686,-750,1573,2025-02-03 17:43:30,0.0
-13732,120,-4304,474,-190,2357,2025-02-03 17:43:30,0.0
-13660,-1136,-3956,649,691,3038,2025-02-03 17:43:30,0.0
-13644,-1668,-3080,1265,1262,3464,2025-02-03 17:43:30,0.0
-14000,-2108,-2284,2181,1236,3606,2025-02-03 17:43:30,0.0
-14556,-2816,-2184,3099,1104,3720,2025-02-03 17:43:30,0.0
-14704,-668,-2332,4150,326,3786,2025-02-03 17:43:30,0.0
-15732,788,-4052,4586,-918,4790,2025-02-03 17:43:30,0.0
-14396,2188,-3212,3742,-2531,5410,2025-02-03 17:43:30,0.0
-11908,2332,-2512,3319,-4400,4109,2025-02-03 17:43:30,0.0
-10824,2640,-3596,2381,-4322,2382,2025-02-03 17:43:30,
-10852,2976,-3904,1138,-3806,1660,2025-02-03 17:43:30,0.0
-10732,3096,-4064,49,-2695,1828,2025-02-03 17:43:30,0.0
-10484,2216,-2916,-359,-1254,2368,2025-02-03 17:43:30,0.0
-9836,36,-1128,152,821,2488,2025-02-03 17:43:30,0.0
-10488,-308,-724,762,2490,2112,2025-02-03 17:43:30,0.0
-12128,-416,-1048,1129,3571,1925,2025-02-03 17:43:30,0.0
-13252,1184,-2096,1166,3637,1761,2025-02-03 17:43:30,0.0
-14744,1952,-3272,67,1706,1429,2025-02-03 17:43:30,0.0
-14248,356,-1800,-1567,474,867,2025-02-03 17:43:30,0.0
-14928,772,-192,-1472,-635,965,2025-02-03 17:43:30,0.0
-13992,1248,96,-846,-2523,1472,2025-02-03 17:43:30,0.0
-12216,900,416,-895,-4254,1425,2025-02-03 17:43:30,0.0
-10704,760,364,-916,-5032,337,2025-02-03 17:43:30,0.0
-10660,1040,-576,-831,-4360,-1190,2025-02-03 17:43:30,0.0
-11400,1400,-836,-737,-3406,-1583,2025-02-03 17:43:31,0.0
-11392,1752,-580,-421,-3268,-1974,2025-02-03 17:43:31,0.0
-11924,440,192,-92,-3288,-2378,2025-02-03 17:43:31,0.0
-12480,184,1004,841,-3210,-2475,2025-02-03 17:43:31,0.0
-13224,216,468,1834,-2445,-2055,2025-02-03 17:43:31,0.0
-13100,-688,588,2954,-1422,-1501,2025-02-03 17:43:31,0.0
-13644,-1016,708,4377,-53,-699,2025-02-03 17:43:31,0.0
-14060,-604,1756,5612,935,455,2025-02-03 17:43:31,0.0
-13936,332,1576,6867,987,1162,2025-02-03 17:43:31,0.0
-14532,916,52,6890,1491,918,2025-02-03 17:43:31,0.0
-15308,1788,-1724,6000,2516,346,2025-02-03 17:43:31,0.0
-16120,2588,-2956,4573,2782,79,2025-02-03 17:43:31,0.0
-17500,3912,-460,4004,1748,857,2025-02-03 17:43:31,0.0
-17200,4460,1104,3657,1401,1811,2025-02-03 17:43:31,0.0
-16616,4844,1772,3294,799,2025,2025-02-03 17:43:31,0.0
-16456,4972,784,2294,913,1725,2025-02-03 17:43:31,0.0
-16348,4368,-1496,596,1675,1311,2025-02-03 17:43:31,0.0
-16936,3668,-2840,-1011,2579,1023,2025-02-03 17:43:31,0.0
-18312,3744,-1736,-2492,2785,1172,2025-02-03 17:43:31,0.0
-18896,2988,-24,-3443,1466,1587,2025-02-03 17:43:31,0.0
-17692,996,704,-3977,-1580,1704,2025-02-03 17:43:31,0.0
-15640,696,1188,-3986,-5638,1219,2025-02-03 17:43:31,0.0
-12396,912,348,-3325,-9232,206,2025-02-03 17:43:31,0.0
-9836,-256,-1580,-2738,-10512,-1333,2025-02-03 17:43:31,0.0
-8956,-1184,-3552,-2120,-9165,-2437,2025-02-03 17:43:31,0.0
-10040,-2036,-3816,-624,-5689,-2413,2025-02-03 17:43:31,0.0
-10308,-3436,-5348,1675,313,-1355,2025-02-03 17:43:31,0.0
-11616,-4256,-5220,2715,5059,-788,2025-02-03 17:43:31,0.0
-13080,-4104,-3776,3457,8697,-695,2025-02-03 17:43:31,0.0
-13968,-3100,-3072,3948,9296,-764,2025-02-03 17:43:31,0.0
-14792,-1684,-2596,3918,7286,-810,2025-02-03 17:43:31,0.0
-14752,-372,-2832,3364,2459,-1224,2025-02-03 17:43:31,0.0
-14676,932,-3600,2304,-1964,-1824,2025-02-03 17:43:31,0.0
-14456,1192,-3800,1227,-4063,-2387,2025-02-03 17:43:31,0.0
-13500,1232,-3564,172,-4780,-3025,2025-02-03 17:43:31,0.0
-12356,1152,-4224,-1122,-4361,-3694,2025-02-03 17:43:31,0.0
-11900,588,-2524,-2420,-3589,-3989,2025-02-03 17:43:31,0.0
-11128,-676,-1792,-3169,-2091,-4270,2025-02-03 17:43:31,0.0
-10664,-1128,-2280,-3511,-146,-4070,2025-02-03 17:43:31,0.0
-10908,-1224,-1760,-3446,1540,-3830,2025-02-03 17:43:31,0.0
-10924,-1708,-2100,-3343,2571,-3703,2025-02-03 17:43:31,0.0
-11872,-2228,-1524,-3397,3334,-3822,2025-02-03 17:43:31,0.0
-12760,-2492,-976,-3492,3324,-3819,2025-02-03 17:43:31,0.0
-13488,-2456,-904,-3356,2776,-3504,2025-02-03 17:43:31,0.0
-14128,-2308,-392,-3078,1647,-2846,2025-02-03 17:43:31,0.0
-13776,-1904,248,-2661,-248,-2169,2025-02-03 17:43:31,0.0
-13764,-2176,-920,-2717,-1863,-1715,2025-02-03 17:43:31,0.0
-13168,-1804,-608,-2845,-2057,-1265,2025-02-03 17:43:31,0.0
-12852,-556,-660,-3569,-2027,-375,2025-02-03 17:43:31,0.0
-13236,-656,-388,-3894,-2055,154,2025-02-03 17:43:31,0.0
-13632,-888,52,-4263,-2099,701,2025-02-03 17:43:31,0.0
-12764,-1596,-232,-4520,-2929,1218,2025-02-03 17:43:31,0.0
-13084,-1748,40,-4533,-3375,1551,2025-02-03 17:43:31,0.0
-13148,-1792,-52,-4433,-3509,2021,2025-02-03 17:43:31,0.0
-12348,-2180,-64,-4437,-3466,2020,2025-02-03 17:43:31,0.0
-12156,-2544,212,-4427,-2579,1946,2025-02-03 17:43:31,0.0
-12032,-2808,412,-4146,-1406,1918,2025-02-03 17:43:31,0.0
-12188,-2384,280,-3731,91,1889,2025-02-03 17:43:31,0.0
-11904,-1088,-420,-3528,1650,1445,2025-02-03 17:43:31,0.0
-11812,-240,-1076,-3942,3036,358,2025-02-03 17:43:32,0.0
-12648,-408,-692,-4923,4505,-1402,2025-02-03 17:43:32,0.0
-14756,-1484,72,-5902,5596,-2520,2025-02-03 17:43:32,0.0
-17224,-2864,1240,-6166,6443,-2162,2025-02-03 17:43:32,0.0
-18408,-4216,1960,-5580,6369,-769,2025-02-03 17:43:32,0.0
-17928,-4932,1860,-4715,4710,237,2025-02-03 17:43:32,0.0
-17108,-4880,1204,-3978,2036,240,2025-02-03 17:43:32,0.0
-16208,-4156,884,-3475,-58,-191,2025-02-03 17:43:32,0.0
-15612,-3236,1836,-3183,-1196,-270,2025-02-03 17:43:32,0.0
-14804,-2976,2224,-2851,-1353,54,2025-02-03 17:43:32,0.0
-13824,-3672,2068,-2575,-698,349,2025-02-03 17:43:32,0.0
-13348,-3860,2024,-1979,84,532,2025-02-03 17:43:32,0.0
-13100,-3364,1540,-1280,1174,626,2025-02-03 17:43:32,0.0
-13128,-1808,-896,-486,3622,229,2025-02-03 17:43:32,0.0
-13720,-1064,-2892,61,7774,-1171,2025-02-03 17:43:32,0.0
-14972,-2132,-3704,850,11438,-3654,2025-02-03 17:43:32,0.0
-16776,-2276,-3700,2045,11944,-4876,2025-02-03 17:43:32,0.0
-18688,-2056,-4160,2702,8837,-4192,2025-02-03 17:43:32,0.0
-19496,-1216,-5296,2628,2436,-1408,2025-02-03 17:43:32,0.0
-17084,-60,-6888,2404,-4516,1370,2025-02-03 17:43:32,0.0
-14136,1188,-7000,1958,-10869,2884,2025-02-03 17:43:32,0.0
-12008,2320,-6372,1140,-14221,3215,2025-02-03 17:43:32,0.0
-10356,3784,-4808,101,-14310,3170,2025-02-03 17:43:32,0.0
-8152,4304,-3284,-952,-6871,2470,2025-02-03 17:43:32,0.0
-7924,3040,-4216,-847,734,1232,2025-02-03 17:43:32,0.0
-9524,1120,-6208,-875,7970,-63,2025-02-03 17:43:32,0.0
-12200,680,-4556,-1131,11234,-539,2025-02-03 17:43:32,
-15112,776,-2660,-873,12091,287,2025-02-03 17:43:32,0.0
-16740,820,-2728,-671,11261,1796,2025-02-03 17:43:32,0.0
-16668,444,-3704,-916,7771,2916,2025-02-03 17:43:32,0.0
-15832,352,-4448,-1480,2263,3427,2025-02-03 17:43:32,0.0
-14840,872,-4068,-1992,-3344,3347,2025-02-03 17:43:32,0.0
-13872,1276,-2688,-2073,-6546,3330,2025-02-03 17:43:32,0.0
-12688,1420,-2348,-1650,-7919,3250,2025-02-03 17:43:32,0.0
-11540,1600,-2140,-1195,-7092,2862,2025-02-03 17:43:32,0.0
-10900,1728,-2396,-848,-4606,2384,2025-02-03 17:43:32,0.0
-10600,1612,-2340,-461,-1752,1880,2025-02-03 17:43:32,0.0
-11152,1356,-2064,132,852,1617,2025-02-03 17:43:32,0.0
-11600,944,-1468,427,1612,1562,2025-02-03 17:43:32,0.0
-12176,560,-728,939,1556,1356,2025-02-03 17:43:32,0.0
-12884,364,-808,1678,802,1004,2025-02-03 17:43:32,0.0
-13408,448,-752,2331,-80,665,2025-02-03 17:43:32,0.0
-13748,796,-1048,2953,-1093,390,2025-02-03 17:43:32,0.0
-13592,1144,-2424,3326,-2370,56,2025-02-03 17:43:32,0.0
-13088,1380,-2956,3330,-3137,-276,2025-02-03 17:43:32,0.0
-12488,1648,-2720,3372,-3208,-486,2025-02-03 17:43:32,0.0
-12500,1672,-2468,3503,-2185,-480,2025-02-03 17:43:32,0.0
-12560,1560,-2836,3662,-562,-253,2025-02-03 17:43:32,0.0
-12488,1268,-2508,3893,641,-123,2025-02-03 17:43:32,0.0
-12384,832,-1968,4211,341,-620,2025-02-03 17:43:32,0.0
-11908,24,-1576,4581,-710,-1429,2025-02-03 17:43:32,0.0
-11632,-588,-1596,5075,-1798,-2375,2025-02-03 17:43:32,0.0
-11308,-928,-2600,5588,-2473,-3307,2025-02-03 17:43:32,0.0
-11416,-156,-4400,6005,-2060,-3978,2025-02-03 17:43:32,0.0
-11952,1532,-5628,6333,-444,-3682,2025-02-03 17:43:32,0.0
-13348,2780,-6260,6201,1834,-2201,2025-02-03 17:43:32,0.0
-13428,2144,-5644,5428,4157,-255,2025-02-03 17:43:32,0.0
-13688,856,-4476,4812,5629,1091,2025-02-03 17:43:32,0.0
-13552,-872,-3396,4401,6236,1634,2025-02-03 17:43:32,0.0
-13772,-2364,-2032,4635,4958,1236,2025-02-03 17:43:32,0.0
-14288,-2336,-1708,5279,2499,772,2025-02-03 17:43:33,0.0
-14484,-1676,-1336,5973,432,635,2025-02-03 17:43:33,0.0
-14004,-440,-1252,6185,42,533,2025-02-03 17:43:33,0.0
-14132,536,-1944,5682,1024,345,2025-02-03 17:43:33,0.0
-14160,812,-2996,4479,2145,319,2025-02-03 17:43:33,0.0
-14564,152,-2632,3205,2761,543,2025-02-03 17:43:33,0.0
-14544,-836,-2420,2520,2627,602,2025-02-03 17:43:33,0.0
-14140,-1484,-2000,1986,1416,528,2025-02-03 17:43:33,0.0
-13680,-1852,-1720,1760,-463,447,2025-02-03 17:43:33,0.0
-13120,-1820,-2008,1625,-2115,548,2025-02-03 17:43:33,0.0
-12552,-1680,-2720,1662,-2593,779,2025-02-03 17:43:33,0.0
-11896,-1084,-3184,1705,-1216,874,2025-02-03 17:43:33,0.0
-11704,-20,-3216,1297,1078,642,2025-02-03 17:43:33,0.0
-12128,760,-3056,654,3140,410,2025-02-03 17:43:33,0.0
-12764,852,-2960,135,3893,305,2025-02-03 17:43:33,0.0
-13468,224,-3360,-321,3488,165,2025-02-03 17:43:33,0.0
-13888,-392,-2920,-796,2190,-65,2025-02-03 17:43:33,0.0
-13992,-592,-2664,-1106,684,-36,2025-02-03 17:43:33,0.0
-13548,-432,-2288,-1180,-90,131,2025-02-03 17:43:33,0.0
-12808,-84,-2584,-1212,-170,291,2025-02-03 17:43:33,0.0
-12368,-168,-2900,-1207,367,325,2025-02-03 17:43:33,0.0
-11928,-240,-3256,-1260,1440,165,2025-02-03 17:43:33,0.0
-12152,-236,-3164,-1372,2805,-87,2025-02-03 17:43:33,0.0
-12712,-332,-2744,-1355,3788,-125,2025-02-03 17:43:33,0.0
-13132,-12,-2804,-1251,3884,17,2025-02-03 17:43:33,0.0
-13268,216,-2788,-1151,3360,117,2025-02-03 17:43:33,0.0
-13340,-104,-2740,-1196,2407,138,2025-02-03 17:43:33,0.0
-13024,-296,-3048,-1252,1572,156,2025-02-03 17:43:33,0.0
-12520,-384,-3256,-1217,1123,260,2025-02-03 17:43:33,0.0
-11860,-400,-3464,-1250,1022,341,2025-02-03 17:43:33,0.0
-11324,-412,-3432,-1217,1104,415,2025-02-03 17:43:33,0.0
-11044,-400,-3020,-1182,1492,372,2025-02-03 17:43:33,0.0
-11040,-388,-2360,-1023,2373,342,2025-02-03 17:43:33,0.0
-11232,-284,-2452,-778,3181,314,2025-02-03 17:43:33,0.0
-11312,-28,-2640,-632,3112,546,2025-02-03 17:43:33,0.0
-11092,180,-2928,-529,2202,947,2025-02-03 17:43:33,0.0
-10052,-112,-3232,-510,439,1123,2025-02-03 17:43:33,0.0
-8808,-152,-2608,-497,-1519,851,2025-02-03 17:43:33,0.0
-7940,184,-992,-445,-3046,438,2025-02-03 17:43:33,0.0
-7340,760,380,-352,-3776,422,2025-02-03 17:43:33,0.0
-6412,1036,1628,30,-3586,781,2025-02-03 17:43:33,0.0
-6044,1036,1780,615,-2515,1096,2025-02-03 17:43:33,0.0
-5736,740,672,1120,-657,1142,2025-02-03 17:43:33,0.0
-5760,588,-808,1234,1117,830,2025-02-03 17:43:33,0.0
-6408,516,-1772,1118,2839,173,2025-02-03 17:43:33,0.0
-8120,360,-1784,1039,4193,-248,2025-02-03 17:43:33,0.0
-8648,220,-1568,974,4132,-216,2025-02-03 17:43:33,0.0
-9048,832,-2120,1018,2914,-193,2025-02-03 17:43:33,0.0
-9544,1008,-2608,1046,1585,40,2025-02-03 17:43:33,0.0
-9652,952,-2456,901,919,312,2025-02-03 17:43:33,0.0
-9936,972,-1448,580,990,383,2025-02-03 17:43:33,0.0
-10508,1296,-192,242,967,340,2025-02-03 17:43:33,0.0
-11408,1608,1388,76,217,236,2025-02-03 17:43:33,0.0
-12444,868,1180,32,-1438,571,2025-02-03 17:43:33,0.0
-12644,-24,-44,-12,-3251,1163,2025-02-03 17:43:33,0.0
-11420,-644,-160,38,-5235,948,2025-02-03 17:43:33,0.0
-11724,-664,1436,296,-6869,-460,2025-02-03 17:43:33,0.0
-13460,-80,3348,648,-6946,-1234,2025-02-03 17:43:33,0.0
-13688,-232,2144,1179,-6871,-871,2025-02-03 17:43:33,0.0
-10960,-304,-1544,1361,-6906,-1649,2025-02-03 17:43:33,0.0
-10320,1028,-3320,469,-7932,-2566,2025-02-03 17:43:33,0.0
-10972,2484,-2316,-384,-8265,-2246,2025-02-03 17:43:33,0.0
-12832,2748,-832,-1083,-4782,-2046,2025-02-03 17:43:33,0.0
-15496,2340,2104,-2128,80,-1537,2025-02-03 17:43:33,0.0
-17484,1556,3780,-2477,3803,-477,2025-02-03 17:43:33,0.0
-18500,524,3800,-2549,6080,620,2025-02-03 17:43:33,0.0
-17160,-1308,2888,-2269,6710,1055,2025-02-03 17:43:34,
-16936,-2608,2732,-2210,5744,1084,2025-02-03 17:43:34,0.0
-17324,-3280,3408,-1493,7055,1924,2025-02-03 17:43:34,0.0
-18296,-1372,-944,-1963,12291,1762,2025-02-03 17:43:34,0.0
-23672,1612,-3876,-2520,20596,2445,2025-02-03 17:43:34,0.0
-28392,4024,-7152,-2496,27482,2804,2025-02-03 17:43:34,0.0
-32768,3784,-12196,-2450,32767,1534,2025-02-03 17:43:34,0.0
-32768,692,-20104,-2859,32767,-608,2025-02-03 17:43:34,0.0
-24632,-1024,-28696,-3491,32767,-1024,2025-02-03 17:43:34,0.0
-12320,2188,-30000,-482,32767,2988,2025-02-03 17:43:34,0.0
-3928,4012,-32768,5724,32767,2617,2025-02-03 17:43:34,0.0
-1268,-840,-32768,4122,16155,1441,2025-02-03 17:43:34,0.0
-8716,-284,-27240,-264,-2806,1950,2025-02-03 17:43:34,0.0
-11236,1780,-16280,-775,-15583,2382,2025-02-03 17:43:34,0.0
-12636,3984,-6348,-2271,-24433,1772,2025-02-03 17:43:34,0.0
-11568,6264,2268,-1917,-21138,2139,2025-02-03 17:43:34,0.0
-4800,4684,676,-2246,-13410,1779,2025-02-03 17:43:34,0.0
-1416,2400,-1832,-3109,-3180,-50,2025-02-03 17:43:34,0.0
612,572,-7256,-2398,4429,-2328,2025-02-03 17:43:34,0.0
-596,-428,-9080,-1374,6528,-3354,2025-02-03 17:43:34,0.0
564,-716,-12888,-778,5281,-3025,2025-02-03 17:43:34,0.0
-2272,-476,-11916,-956,2988,-1494,2025-02-03 17:43:34,0.0
-3284,396,-8576,-1198,1384,256,2025-02-03 17:43:34,0.0
-3480,884,-6292,-808,461,778,2025-02-03 17:43:34,0.0
-4224,1380,-5272,-388,127,487,2025-02-03 17:43:34,0.0
-4444,1548,-5220,-432,1025,-229,2025-02-03 17:43:34,0.0
-4896,1368,-4508,-424,3200,-952,2025-02-03 17:43:34,0.0
-4748,1396,-7640,-546,3995,-1184,2025-02-03 17:43:34,0.0
-3936,1644,-9892,-535,3355,-976,2025-02-03 17:43:34,0.0
-4424,1848,-10752,-293,2773,-675,2025-02-03 17:43:34,0.0
-4832,1968,-11248,83,3380,-585,2025-02-03 17:43:34,0.0
-5752,1940,-11136,487,4956,-711,2025-02-03 17:43:34,0.0
-5804,1844,-11892,796,6352,-938,2025-02-03 17:43:34,0.0
-6960,1956,-12836,751,6677,-819,2025-02-03 17:43:34,0.0
-7536,1980,-13380,520,5802,-585,2025-02-03 17:43:34,0.0
-7664,2136,-14088,370,4423,-152,2025-02-03 17:43:34,0.0
-7552,1884,-14300,117,2494,69,2025-02-03 17:43:34,0.0
-6808,1880,-14600,-354,380,-243,2025-02-03 17:43:34,0.0
-6880,1992,-14424,-484,-1083,-424,2025-02-03 17:43:34,0.0
-6448,1676,-13780,-179,-1979,-219,2025-02-03 17:43:34,0.0
-6744,1036,-13512,118,-1932,-40,2025-02-03 17:43:34,0.0
-6108,716,-13424,247,-1546,3,2025-02-03 17:43:34,0.0
-6120,752,-12876,628,-1062,160,2025-02-03 17:43:34,0.0
-6128,716,-12708,978,-601,539,2025-02-03 17:43:34,0.0
-6400,712,-12180,1195,-205,915,2025-02-03 17:43:34,0.0
-6512,456,-11896,1414,-104,1142,2025-02-03 17:43:34,0.0
-6716,-120,-11620,1967,485,1279,2025-02-03 17:43:34,0.0
-6888,-364,-11724,2429,1027,1510,2025-02-03 17:43:35,0.0
-7128,-252,-11824,2588,1298,1538,2025-02-03 17:43:35,0.0
-7316,284,-11868,2471,1445,1330,2025-02-03 17:43:35,0.0
-7384,844,-11936,2198,1199,1120,2025-02-03 17:43:37,0.0
-7456,1336,-12192,1826,511,1074,2025-02-03 17:43:37,0.0
-7336,1584,-12396,1345,-497,1118,2025-02-03 17:43:37,0.0
-7332,1556,-12544,823,-1194,1218,2025-02-03 17:43:37,0.0
-6908,1244,-12412,-245,413,787,2025-02-03 17:43:37,0.0
-7012,1140,-12188,-282,563,786,2025-02-03 17:43:37,0.0
-6924,944,-11772,-277,523,674,2025-02-03 17:43:37,0.0
-10424,1620,-9688,-1753,-5096,-1386,2025-02-03 17:43:37,0.0
-10760,1856,-9588,-2023,-6285,-833,2025-02-03 17:43:37,0.0
-9308,904,-2336,6805,369,480,2025-02-03 17:43:37,0.0
-9740,1492,-2048,6584,1218,551,2025-02-03 17:43:37,0.0
-9884,1696,-1204,5793,1605,337,2025-02-03 17:43:37,0.0
-10224,844,-1004,5030,1506,-149,2025-02-03 17:43:37,0.0
-10844,-352,-1256,4419,239,-305,2025-02-03 17:43:37,0.0
-11452,-1068,-2448,4082,-1338,-93,2025-02-03 17:43:37,0.0
-11744,-1036,-3628,3833,-1338,170,2025-02-03 17:43:37,0.0
-11816,-236,-3160,3422,-269,308,2025-02-03 17:43:37,0.0
-11596,916,-1228,2478,-461,530,2025-02-03 17:43:37,0.0
-11604,1664,888,1348,-1373,803,2025-02-03 17:43:37,0.0
-11092,1216,572,495,-2409,958,2025-02-03 17:43:37,0.0
-10572,496,-1468,-125,-3433,799,2025-02-03 17:43:37,0.0
-9636,504,-3284,-856,-3801,371,2025-02-03 17:43:37,0.0
-8908,852,-3572,-1625,-3357,-24,2025-02-03 17:43:37,0.0
-8268,780,-2160,-2147,-1886,-512,2025-02-03 17:43:37,0.0
-8000,644,-884,-2401,-305,-913,2025-02-03 17:43:37,0.0
-8372,4,48,-2719,1473,-1438,2025-02-03 17:43:37,0.0
-9396,-1544,340,-2437,2487,-1729,2025-02-03 17:43:37,0.0
-9740,-2404,-896,-1964,2571,-1882,2025-02-03 17:43:37,0.0
-10060,-3024,-1260,-1342,2538,-2087,2025-02-03 17:43:37,0.0
-10252,-3500,-388,-249,2316,-2482,2025-02-03 17:43:37,0.0
-11124,-3696,616,1031,2044,-2932,2025-02-03 17:43:37,0.0
-12728,-3596,1144,2161,2677,-3038,2025-02-03 17:43:37,0.0
-14672,-3652,884,2836,4379,-2576,2025-02-03 17:43:37,0.0
-16220,-3444,80,3351,5716,-1435,2025-02-03 17:43:38,0.0
-17820,-2496,-1576,4156,5171,264,2025-02-03 17:43:38,0.0
-18360,-1192,-684,4924,3462,1919,2025-02-03 17:43:38,0.0
-14912,220,836,5329,-1931,2278,2025-02-03 17:43:38,0.0
-13912,272,432,4938,-5344,909,2025-02-03 17:43:38,0.0
-13372,204,-796,3847,-5732,-462,2025-02-03 17:43:38,0.0
-13100,-124,-1356,2894,-4782,-944,2025-02-03 17:43:38,0.0
-12796,-748,-1984,2317,-2810,-897,2025-02-03 17:43:38,0.0
-12700,-752,-1808,2120,-921,-666,2025-02-03 17:43:38,0.0
-12084,-144,-2124,1950,549,-450,2025-02-03 17:43:38,0.0
-11992,660,-1924,1578,1540,-493,2025-02-03 17:43:38,0.0
-12492,784,-1288,1018,2230,-613,2025-02-03 17:43:38,0.0
-12980,376,-640,311,2591,-682,2025-02-03 17:43:38,0.0
-13672,-204,-668,-232,2569,-712,2025-02-03 17:43:38,0.0
-14248,-604,-1792,-727,1925,-859,2025-02-03 17:43:38,0.0
-14576,-872,-2576,-1264,898,-864,2025-02-03 17:43:38,0.0
-14488,-972,-1932,-1759,-183,-756,2025-02-03 17:43:38,0.0
-13880,-388,-1856,-2206,-1002,-529,2025-02-03 17:43:38,
-13032,-164,-2292,-2863,-1167,-469,2025-02-03 17:43:38,0.0
-12672,64,-2396,-3382,-774,-486,2025-02-03 17:43:38,0.0
-12796,648,-2448,-3839,177,-391,2025-02-03 17:43:38,0.0
-13172,1000,-2140,-4389,1347,-217,2025-02-03 17:43:38,0.0
-12948,816,-2100,-5131,2060,-437,2025-02-03 17:43:38,0.0
-13316,472,-1964,-5886,2047,-954,2025-02-03 17:43:38,0.0
-13772,276,-2336,-6428,1390,-1199,2025-02-03 17:43:38,0.0
-13952,144,-2624,-6957,567,-1129,2025-02-03 17:43:38,0.0
-13740,-144,-2964,-7860,63,-1138,2025-02-03 17:43:38,0.0
-13308,-288,-2948,-8668,314,-1354,2025-02-03 17:43:38,0.0
-13084,-704,-2932,-9303,474,-1796,2025-02-03 17:43:38,0.0
-13276,-1368,-3016,-9730,324,-2211,2025-02-03 17:43:38,0.0
-13552,-1392,-2880,-10084,227,-2389,2025-02-03 17:43:38,0.0
-13920,-1244,-2972,-10629,280,-2266,2025-02-03 17:43:38,0.0
-13652,-1072,-3000,-11344,187,-2110,2025-02-03 17:43:38,0.0
-13488,-1084,-2624,-12130,-128,-2252,2025-02-03 17:43:38,0.0
-13480,-1360,-2868,-12926,-399,-2467,2025-02-03 17:43:38,0.0
-13500,-1536,-3048,-13656,-483,-2607,2025-02-03 17:43:38,0.0
-13588,-1388,-3076,-14286,-267,-2848,2025-02-03 17:43:38,0.0
-13468,-1176,-3160,-15160,-237,-3140,2025-02-03 17:43:38,0.0
-13388,-924,-2824,-15727,-437,-3381,2025-02-03 17:43:38,0.0
-13092,-1176,-2816,-16178,-927,-3478,2025-02-03 17:43:38,0.0
-13152,-1776,-2644,-16586,-1383,-3642,2025-02-03 17:43:38,0.0
-13056,-2156,-2500,-16892,-1569,-3720,2025-02-03 17:43:38,0.0
-12932,-2552,-2584,-17033,-1575,-3747,2025-02-03 17:43:38,0.0
-13020,-2968,-2428,-16936,-1391,-3713,2025-02-03 17:43:38,0.0
-13080,-3152,-2184,-16696,-686,-3479,2025-02-03 17:43:38,0.0
-12860,-3464,-1908,-16477,-21,-3306,2025-02-03 17:43:38,0.0
-13060,-3524,-1836,-16219,504,-3229,2025-02-03 17:43:38,0.0
-13340,-3388,-2076,-15885,925,-3041,2025-02-03 17:43:38,0.0
-13524,-2824,-2240,-15653,1102,-2780,2025-02-03 17:43:38,0.0
-13700,-2332,-2040,-15461,1175,-2564,2025-02-03 17:43:38,0.0
-13616,-2160,-2276,-15359,1226,-2499,2025-02-03 17:43:38,0.0
-13636,-2472,-2296,-15205,904,-2561,2025-02-03 17:43:38,0.0
-13360,-3032,-2004,-14988,350,-2610,2025-02-03 17:43:38,0.0
-13432,-3224,-1800,-14852,-12,-2549,2025-02-03 17:43:38,0.0
-12952,-3312,-2048,-14714,57,-2545,2025-02-03 17:43:38,0.0
-13036,-3092,-2376,-14733,889,-2601,2025-02-03 17:43:38,0.0
-13172,-2392,-2660,-14801,2247,-2842,2025-02-03 17:43:38,0.0
-13480,-1828,-2688,-15154,2475,-2866,2025-02-03 17:43:38,0.0
-14068,-1844,-2612,-15440,1305,-2563,2025-02-03 17:43:38,0.0
-14332,-1876,-2080,-15746,-647,-2085,2025-02-03 17:43:38,0.0
-13840,-2564,-1900,-16048,-3148,-1722,2025-02-03 17:43:38,0.0
-13628,-3284,-1668,-16090,-4287,-1289,2025-02-03 17:43:38,0.0
-13092,-3256,-2228,-15836,-4042,-867,2025-02-03 17:43:39,0.0
-12784,-3236,-2372,-15458,-2867,-672,2025-02-03 17:43:39,0.0
-12840,-3088,-2084,-14937,-2001,-421,2025-02-03 17:43:39,0.0
-13160,-3344,-2656,-14302,-1345,-89,2025-02-03 17:43:39,0.0
-12844,-3436,-3448,-13760,-1024,-299,2025-02-03 17:43:39,0.0
-12872,-3432,-3180,-13267,-934,-966,2025-02-03 17:43:39,0.0
-12960,-3228,-2520,-12620,-1003,-1705,2025-02-03 17:43:39,0.0
-13068,-3020,-2676,-11854,-1446,-2013,2025-02-03 17:43:39,0.0
-13252,-2108,-3432,-10802,-1863,-2218,2025-02-03 17:43:39,0.0
-13104,-304,-3644,-10411,-2314,-2124,2025-02-03 17:43:39,0.0
-12896,988,-2908,-10425,-2245,-1762,2025-02-03 17:43:39,0.0
-12552,1768,-2576,-10704,-1322,-1401,2025-02-03 17:43:39,0.0
-12500,2420,-3232,-11420,-323,-1052,2025-02-03 17:43:39,0.0
-12096,2732,-4280,-12499,794,-766,2025-02-03 17:43:39,0.0
-12068,2560,-5028,-13844,2655,-850,2025-02-03 17:43:39,0.0
-12864,2640,-5752,-15643,5069,-730,2025-02-03 17:43:39,0.0
-13984,3600,-4776,-17553,7218,-206,2025-02-03 17:43:39,0.0
-15760,4516,-2796,-18975,8043,429,2025-02-03 17:43:39,0.0
-16680,4648,-1372,-19752,6781,672,2025-02-03 17:43:39,0.0
-15920,2680,-1808,-21488,1906,-736,2025-02-03 17:43:39,0.0
-15208,936,-1924,-22926,-3728,-2205,2025-02-03 17:43:39,0.0
-13732,-380,-1288,-23033,-7725,-2933,2025-02-03 17:43:39,0.0
-12312,-1724,-708,-22366,-8358,-3449,2025-02-03 17:43:39,0.0
-11080,-3004,-248,-21745,-6358,-3861,2025-02-03 17:43:39,0.0
-11048,-3796,1384,-20714,-2506,-3946,2025-02-03 17:43:39,0.0
-11848,-3460,3124,-18824,3112,-3418,2025-02-03 17:43:39,0.0
-12480,-1736,2316,-17492,6100,-3058,2025-02-03 17:43:39,0.0
-13548,520,696,-16851,6880,-3445,2025-02-03 17:43:39,0.0
-14820,2208,-500,-17313,5888,-4076,2025-02-03 17:43:39,0.0
-15436,3260,-1304,-18243,3762,-4609,2025-02-03 17:43:39,0.0
-15420,3348,-2108,-19275,1015,-4847,2025-02-03 17:43:39,0.0
-14744,2716,-2316,-20213,-1564,-4651,2025-02-03 17:43:39,0.0
-14692,2364,-720,-20639,-2767,-4272,2025-02-03 17:43:39,0.0
-12060,1200,-1580,-21037,-2421,-4146,2025-02-03 17:43:39,0.0
-11704,304,-1504,-21044,-816,-4309,2025-02-03 17:43:39,0.0
-11480,-244,-1796,-20708,1297,-4203,2025-02-03 17:43:39,0.0
-12060,-200,-1252,-20062,4261,-3586,2025-02-03 17:43:39,0.0
-12320,784,-844,-19544,6445,-3047,2025-02-03 17:43:39,0.0
-13136,2068,-1732,-19138,7468,-3078,2025-02-03 17:43:39,0.0
-14716,2528,-2464,-19017,7098,-3143,2025-02-03 17:43:39,0.0
-15360,1680,-2536,-18990,5495,-3185,2025-02-03 17:43:39,0.0
-15056,120,-1580,-18608,2811,-3392,2025-02-03 17:43:39,0.0
-14940,-1360,-184,-17524,-442,-3596,2025-02-03 17:43:39,0.0
-13984,-2792,40,-15915,-2856,-3730,2025-02-03 17:43:39,0.0
-12628,-3380,-20,-14189,-4012,-3897,2025-02-03 17:43:39,0.0
-12676,-2720,152,-12741,-3809,-3732,2025-02-03 17:43:39,0.0
-10892,-2144,-184,-11156,-2794,-3400,2025-02-03 17:43:39,0.0
-11320,-1396,712,-9432,-356,-3140,2025-02-03 17:43:39,0.0
-10996,-788,212,-7871,2925,-3268,2025-02-03 17:43:39,0.0
-12412,-444,164,-6840,5083,-3670,2025-02-03 17:43:39,0.0
-14208,-24,152,-6035,6058,-3693,2025-02-03 17:43:39,0.0
-15444,-296,508,-5477,5637,-3545,2025-02-03 17:43:39,0.0
-16524,-836,-84,-5022,4111,-3161,2025-02-03 17:43:39,0.0
-17432,-1436,-1304,-4825,2434,-2698,2025-02-03 17:43:39,0.0
-17060,-1784,-2180,-4741,455,-2253,2025-02-03 17:43:39,0.0
-15892,-1008,-932,-3868,-2358,-1737,2025-02-03 17:43:40,
-14680,-776,84,-2986,-4248,-1351,2025-02-03 17:43:40,0.0
-13108,-564,984,-2591,-4380,-1270,2025-02-03 17:43:40,0.0
-11536,-420,832,-2233,-3504,-1649,2025-02-03 17:43:40,0.0
-11264,96,600,-1858,-2002,-1890,2025-02-03 17:43:40,0.0
-11432,760,-596,-1474,-173,-1574,2025-02-03 17:43:40,0.0
-11556,680,-928,-1170,1686,-1018,2025-02-03 17:43:40,0.0
-11604,536,-1300,-1018,3833,-847,2025-02-03 17:43:40,0.0
-12168,356,-1720,-1281,5373,-1177,2025-02-03 17:43:40,0.0
-14384,744,-2316,-2290,6225,-1358,2025-02-03 17:43:40,0.0
-15772,1688,-2160,-3203,5791,-1085,2025-02-03 17:43:40,0.0
-15924,2548,-2348,-3977,4048,-955,2025-02-03 17:43:40,0.0
-15244,2668,-3552,-4856,1508,-1664,2025-02-03 17:43:40,0.0
-14368,1656,-4128,-5998,-1303,-3189,2025-02-03 17:43:40,0.0
-14164,80,-2860,-6907,-3323,-4154,2025-02-03 17:43:40,0.0
-13980,-1280,-1564,-7029,-3887,-4266,2025-02-03 17:43:40,0.0
-13228,-2404,-1592,-6691,-3223,-4117,2025-02-03 17:43:40,0.0
-12712,-3180,-1952,-6211,-1728,-4021,2025-02-03 17:43:40,0.0
-12312,-3616,-2608,-5748,325,-4178,2025-02-03 17:43:40,0.0
-12156,-3624,-2900,-5304,2039,-4547,2025-02-03 17:43:40,0.0
-13572,-2004,-1848,-4159,1314,-4419,2025-02-03 17:43:40,0.0
-13776,-1972,-1404,-4152,-116,-4005,2025-02-03 17:43:40,0.0
-13764,-1940,-1360,-4205,-970,-3656,2025-02-03 17:43:40,0.0
-13576,-1808,-1544,-4161,-1231,-3433,2025-02-03 17:43:40,0.0
-13252,-1268,-1980,-4097,-1431,-3290,2025-02-03 17:43:40,0.0
-12792,-996,-1872,-4302,-1926,-3079,2025-02-03 17:43:40,0.0
-12844,-968,-996,-4575,-1986,-3042,2025-02-03 17:43:40,0.0
-13280,-884,-584,-4811,-1493,-2974,2025-02-03 17:43:40,0.0
-13356,-1252,-280,-5014,-1248,-2568,2025-02-03 17:43:40,0.0
-13540,-1464,-272,-5289,-1364,-2063,2025-02-03 17:43:40,0.0
-13572,-1592,164,-5449,-1571,-1594,2025-02-03 17:43:40,0.0
-13712,-1636,508,-5693,-2156,-1191,2025-02-03 17:43:40,0.0
-13356,-1272,524,-5889,-2975,-873,2025-02-03 17:43:40,0.0
-12968,-1212,672,-6228,-3494,-674,2025-02-03 17:43:40,0.0
-12624,-1312,652,-6456,-3649,-344,2025-02-03 17:43:40,0.0
-12548,-1604,496,-6553,-3278,87,2025-02-03 17:43:40,0.0
-12248,-2504,284,-6517,-2086,613,2025-02-03 17:43:40,0.0
-11800,-2968,536,-6254,-849,741,2025-02-03 17:43:40,0.0
-11904,-3156,472,-5640,275,766,2025-02-03 17:43:40,0.0
-12036,-3572,232,-4851,986,615,2025-02-03 17:43:40,0.0
-12400,-4248,508,-3897,1577,336,2025-02-03 17:43:40,0.0
-13196,-5372,1136,-2789,1918,100,2025-02-03 17:43:40,0.0
-14116,-5868,824,-1555,1651,82,2025-02-03 17:43:40,0.0
-14800,-5856,-132,-819,939,280,2025-02-03 17:43:40,0.0
-14600,-4520,-772,-232,704,358,2025-02-03 17:43:40,0.0
-14156,-2732,-780,209,1144,308,2025-02-03 17:43:40,0.0
-14172,-1060,-1168,-97,2113,276,2025-02-03 17:43:40,0.0
-14272,168,-1344,-1105,3313,127,2025-02-03 17:43:40,0.0
-14968,676,-1236,-2343,4852,-105,2025-02-03 17:43:40,0.0
-16344,204,-428,-3645,5973,-319,2025-02-03 17:43:40,0.0
-17620,-1248,660,-4454,5993,-406,2025-02-03 17:43:40,0.0
-17912,-4600,-720,-3823,1604,-1235,2025-02-03 17:43:40,0.0
-16912,-6156,-1036,-1871,-372,-2562,2025-02-03 17:43:40,0.0
-16796,-8188,-672,479,-1549,-4156,2025-02-03 17:43:40,0.0
-18304,-7600,8,1603,-1769,-3897,2025-02-03 17:43:40,0.0
-17840,-3840,968,2704,-1997,-1532,2025-02-03 17:43:40,0.0
-17248,-1384,-2164,2988,-3290,1150,2025-02-03 17:43:40,0.0
-15584,1164,-4176,1359,-4303,3558,2025-02-03 17:43:40,0.0
-12596,2044,-5196,-420,-4594,4776,2025-02-03 17:43:40,0.0
-9840,1016,-6136,-1057,-5244,4572,2025-02-03 17:43:40,0.0
-8204,-600,-7096,-1097,-5306,3412,2025-02-03 17:43:40,0.0
-7764,-1716,-6832,-854,-2887,1865,2025-02-03 17:43:40,0.0
-9244,-768,-3180,-129,3767,-112,2025-02-03 17:43:40,0.0
-11612,580,-1240,557,6977,-374,2025-02-03 17:43:40,0.0
-14820,1308,-1236,945,7095,559,2025-02-03 17:43:41,0.0
-16856,1688,-2828,882,5269,1995,2025-02-03 17:43:41,0.0
-16980,1168,-3832,647,2170,3156,2025-02-03 17:43:41,0.0
-15984,-152,-4864,121,-1933,3609,2025-02-03 17:43:41,0.0
-14784,-1096,-3576,14,-5001,3587,2025-02-03 17:43:41,0.0
-13656,-1568,-2088,607,-6404,3471,2025-02-03 17:43:41,0.0
-12140,-1348,-1380,1759,-5557,3478,2025-02-03 17:43:41,0.0
-11292,-824,-940,2958,-3868,3590,2025-02-03 17:43:41,0.0
-10848,-376,-1924,3612,-2360,3820,2025-02-03 17:43:41,0.0
-11480,544,-1632,3960,-739,4093,2025-02-03 17:43:41,0.0
-11516,1452,-1792,4055,923,4496,2025-02-03 17:43:41,0.0
-11708,1816,-1664,4031,1922,4677,2025-02-03 17:43:41,0.0
-12056,2100,-1176,4036,2255,4478,2025-02-03 17:43:41,0.0
-12064,1960,-948,3794,1747,3912,2025-02-03 17:43:41,0.0
-11728,2048,-804,3630,388,3040,2025-02-03 17:43:41,0.0
-12080,1700,-780,3435,-1101,2229,2025-02-03 17:43:41,0.0
-11900,1048,-1076,3238,-2056,1580,2025-02-03 17:43:41,0.0
-11420,560,-564,3151,-2886,998,2025-02-03 17:43:41,0.0
-10952,252,36,3111,-3416,261,2025-02-03 17:43:41,0.0
-10352,268,-140,3131,-3525,-312,2025-02-03 17:43:41,0.0
-10852,864,360,3187,-2783,-1114,2025-02-03 17:43:41,0.0
-11396,1700,-412,3150,-1119,-1609,2025-02-03 17:43:41,0.0
-11988,2192,-1276,2812,-48,-1844,2025-02-03 17:43:41,0.0
-13028,2400,-1128,2259,195,-1741,2025-02-03 17:43:41,0.0
-13604,2076,-372,1639,-205,-1390,2025-02-03 17:43:41,0.0
-13836,972,160,1043,-1267,-1076,2025-02-03 17:43:41,0.0
-13564,216,80,750,-2025,-1178,2025-02-03 17:43:41,0.0
-13332,-132,320,1067,-2220,-1744,2025-02-03 17:43:41,0.0
-13476,-144,-4,1902,-1776,-1987,2025-02-03 17:43:41,0.0
-13456,-240,-64,2987,-974,-1771,2025-02-03 17:43:41,0.0
-13448,-456,-684,3620,209,-1197,2025-02-03 17:43:41,0.0
-13684,340,168,4300,3141,503,2025-02-03 17:43:41,0.0
-13864,1144,156,4666,5196,1106,2025-02-03 17:43:41,0.0
-14344,2116,440,4814,7241,1024,2025-02-03 17:43:41,0.0
-15228,2484,772,4840,8475,713,2025-02-03 17:43:41,0.0
-16700,2428,1380,4571,7721,569,2025-02-03 17:43:41,0.0
-17412,2328,1584,3897,4837,611,2025-02-03 17:43:41,
-17916,2908,784,3255,2378,639,2025-02-03 17:43:41,0.0
-18320,3776,-1140,2770,1658,922,2025-02-03 17:43:41,0.0
-19128,4160,-3600,1540,2762,1909,2025-02-03 17:43:41,0.0
-19196,4616,-5608,-406,3699,3077,2025-02-03 17:43:41,0.0
-18172,4296,-5584,-2194,2730,3574,2025-02-03 17:43:41,0.0
-15924,3088,-4132,-3426,-899,2781,2025-02-03 17:43:41,0.0
-13096,788,-3560,-4255,-7210,331,2025-02-03 17:43:41,0.0
-10932,-356,-3828,-4392,-11491,-1449,2025-02-03 17:43:41,0.0
-8572,-808,-4052,-3467,-13247,-2778,2025-02-03 17:43:41,0.0
-7544,-1188,-4160,-2087,-12169,-3435,2025-02-03 17:43:41,0.0
-7572,-1740,-3816,-555,-8475,-3065,2025-02-03 17:43:41,0.0
-8832,-2556,-4660,761,-1306,-2030,2025-02-03 17:43:41,0.0
-10728,-2740,-5376,1443,7919,-1289,2025-02-03 17:43:41,0.0
-12840,-1772,-5356,1646,14387,-1027,2025-02-03 17:43:41,0.0
-15044,-236,-5408,1482,16591,-685,2025-02-03 17:43:41,0.0
-16824,1184,-5396,246,14264,-23,2025-02-03 17:43:41,0.0
-16600,2712,-4312,-1146,8833,442,2025-02-03 17:43:41,0.0
-14644,3244,-4108,-1646,1521,-853,2025-02-03 17:43:41,0.0
-13520,2040,-5844,-2565,-3245,-3610,2025-02-03 17:43:41,0.0
-13320,696,-5404,-4321,-6285,-5352,2025-02-03 17:43:41,0.0
-13436,-864,-4240,-5478,-6801,-6123,2025-02-03 17:43:41,0.0
-12940,-2180,-2924,-5843,-4621,-6071,2025-02-03 17:43:41,0.0
-11716,-3116,-2472,-5256,-2186,-5272,2025-02-03 17:43:41,0.0
-10536,-3288,-2832,-4599,-1042,-4732,2025-02-03 17:43:41,0.0
-10044,-2864,-2464,-4076,-383,-4583,2025-02-03 17:43:42,0.0
-10608,-2084,-1596,-3698,756,-4528,2025-02-03 17:43:42,0.0
-11132,-1692,-1548,-3312,2044,-4300,2025-02-03 17:43:42,0.0
-12028,-1292,-1088,-3216,2974,-3643,2025-02-03 17:43:42,0.0
-12876,-1292,-1308,-3250,2958,-2920,2025-02-03 17:43:42,0.0
-13588,-1380,-1448,-3420,2095,-2243,2025-02-03 17:43:42,0.0
-13584,-1460,-1676,-3573,636,-1742,2025-02-03 17:43:42,0.0
-13580,-1508,-1616,-3679,-789,-1395,2025-02-03 17:43:42,0.0
-14048,-1372,-1144,-3661,-1892,-985,2025-02-03 17:43:42,0.0
-13376,-540,-952,-3834,-3190,214,2025-02-03 17:43:42,0.0
-13576,-452,-1020,-4113,-4332,865,2025-02-03 17:43:42,0.0
-13484,-244,-1468,-4681,-5378,1400,2025-02-03 17:43:42,0.0
-13604,-164,-1564,-5354,-6324,1907,2025-02-03 17:43:42,0.0
-13892,-508,-792,-5779,-6960,2431,2025-02-03 17:43:42,0.0
-13200,-672,-720,-6005,-6872,2663,2025-02-03 17:43:42,0.0
-12244,-780,-492,-6299,-5936,2512,2025-02-03 17:43:42,0.0
-11100,-776,-288,-6240,-4052,2192,2025-02-03 17:43:42,0.0
-9780,-976,-752,-5727,-700,1650,2025-02-03 17:43:42,0.0
-9548,-1108,-1048,-5399,3494,816,2025-02-03 17:43:42,0.0
-10484,-1304,-1192,-5066,8355,-409,2025-02-03 17:43:42,0.0
-13684,-1744,-940,-5076,13108,-1359,2025-02-03 17:43:42,0.0
-16012,-2528,-712,-4841,14361,-1754,2025-02-03 17:43:42,0.0
-18288,-3436,148,-4371,12181,-2070,2025-02-03 17:43:42,0.0
-20032,-4064,612,-4085,7784,-2224,2025-02-03 17:43:42,0.0
-20080,-4144,360,-3731,1794,-2180,2025-02-03 17:43:42,0.0
-18788,-4108,684,-2930,-5843,-1773,2025-02-03 17:43:42,0.0
-16736,-4116,1668,-2599,-7981,-1396,2025-02-03 17:43:42,0.0
-14368,-2812,1168,-1498,-6086,-1262,2025-02-03 17:43:42,0.0
-13208,-2288,-1628,120,-2665,-1434,2025-02-03 17:43:42,0.0
-13016,-2772,-3192,1280,336,-1977,2025-02-03 17:43:42,0.0
-13892,-2060,-2204,2271,2954,-3076,2025-02-03 17:43:42,0.0
-16988,-1432,-1772,2860,3476,-3182,2025-02-03 17:43:42,0.0
-17728,-168,-2704,2630,1279,-2502,2025-02-03 17:43:42,0.0
-16932,1320,-3808,1398,-3008,-1798,2025-02-03 17:43:42,0.0
-15088,2472,-5448,-254,-7931,-981,2025-02-03 17:43:42,0.0
-12340,2176,-6352,-1643,-11803,-487,2025-02-03 17:43:42,0.0
-10268,1724,-6856,-3022,-11773,-557,2025-02-03 17:43:42,0.0
-8732,1544,-6712,-4323,-8220,-859,2025-02-03 17:43:42,0.0
-8532,1548,-6364,-5195,-2508,-1001,2025-02-03 17:43:42,0.0
-17080,3124,-3844,-5104,5281,1386,2025-02-03 17:43:42,0.0
-17096,2728,-4156,-5686,1665,2077,2025-02-03 17:43:42,0.0
-16052,1192,-4340,-5983,-2316,2253,2025-02-03 17:43:42,0.0
-14720,-712,-3628,-6022,-5732,1938,2025-02-03 17:43:42,0.0
-13896,-2076,-2152,-5710,-7797,1620,2025-02-03 17:43:42,0.0
-13096,-2252,52,-4635,-7652,1607,2025-02-03 17:43:42,0.0
-12128,-1000,284,-3134,-5790,1844,2025-02-03 17:43:42,0.0
-11292,244,-1100,-1812,-3397,2278,2025-02-03 17:43:42,0.0
-10420,1364,-2512,-1456,-948,2342,2025-02-03 17:43:43,0.0
-9908,2184,-3224,-1781,1467,1863,2025-02-03 17:43:43,0.0
-10192,2604,-3752,-2521,3176,1322,2025-02-03 17:43:43,0.0
-10604,2556,-3044,-3463,4003,794,2025-02-03 17:43:43,0.0
-11648,1312,-2132,-3774,3922,329,2025-02-03 17:43:43,0.0
-13072,160,-960,-3674,3696,66,2025-02-03 17:43:43,0.0
-13816,-448,-356,-3505,2839,-258,2025-02-03 17:43:43,0.0
-12088,3548,-3672,-4962,-1787,-1753,2025-02-03 17:43:43,0.0
-11988,3488,-3252,-5863,-912,-2087,2025-02-03 17:43:43,0.0
-13080,-3000,-3204,-21819,-4276,-3931,2025-02-03 17:43:43,0.0
-12712,-3280,-3056,-22040,-4286,-3916,2025-02-03 17:43:43,0.0
-12436,-3180,-2552,-22093,-4201,-3511,2025-02-03 17:43:43,0.0
-12324,-3572,-1944,-21994,-3911,-2837,2025-02-03 17:43:43,0.0
-12316,-4456,-1588,-21739,-3255,-2192,2025-02-03 17:43:43,0.0
-12436,-5544,-1324,-21186,-2090,-1657,2025-02-03 17:43:43,0.0
-13028,-5800,-1036,-20451,-1324,-1256,2025-02-03 17:43:43,0.0
-13668,-5224,-1348,-19368,-1099,-637,2025-02-03 17:43:43,0.0
-14044,-4520,-1812,-18017,-959,100,2025-02-03 17:43:43,0.0
-13736,-4240,-2564,-16583,-712,443,2025-02-03 17:43:43,0.0
-13720,-4572,-3168,-15400,-514,253,2025-02-03 17:43:43,0.0
-13596,-4980,-3324,-14533,-811,-285,2025-02-03 17:43:43,0.0
-13868,-5156,-3884,-13647,-1164,-640,2025-02-03 17:43:43,0.0
-13672,-4140,-4324,-12816,-1295,-720,2025-02-03 17:43:44,0.0
-13216,-2920,-5064,-12664,-1072,-520,2025-02-03 17:43:44,0.0
-12848,-548,-5464,-13040,-340,-182,2025-02-03 17:43:44,0.0
-12272,3128,-5440,-13944,1447,127,2025-02-03 17:43:44,0.0
-11668,7336,-4396,-15335,4521,-129,2025-02-03 17:43:44,0.0
-12268,9984,-3156,-16023,6371,-494,2025-02-03 17:43:44,0.0
-13044,9896,-2308,-16508,6223,-1169,2025-02-03 17:43:44,
-13192,5000,-4860,-18448,4400,-2397,2025-02-03 17:43:44,0.0
-13296,740,-3972,-20147,2297,-3956,2025-02-03 17:43:44,0.0
-15664,-3412,-2032,-20970,336,-4775,2025-02-03 17:43:44,0.0
-17668,-5052,80,-20674,-967,-3722,2025-02-03 17:43:44,0.0
-17956,-3592,1492,-19086,-1905,-1784,2025-02-03 17:43:44,0.0
-15856,-1640,-88,-18351,-3364,-853,2025-02-03 17:43:44,0.0
-14412,652,256,-18443,-4485,-583,2025-02-03 17:43:44,0.0
-13100,2044,1116,-18190,-5050,-369,2025-02-03 17:43:44,0.0
-11236,1972,52,-17549,-4824,81,2025-02-03 17:43:44,0.0
-10408,240,-1468,-16332,-2670,-240,2025-02-03 17:43:44,0.0
-10316,-1672,-2212,-15355,1142,-1512,2025-02-03 17:43:44,0.0
-11108,-1848,-1812,-14757,3749,-2648,2025-02-03 17:43:44,0.0
-12116,-1424,-752,-14629,4353,-3062,2025-02-03 17:43:44,0.0
-12340,-524,-196,-14831,3489,-3179,2025-02-03 17:43:44,0.0
-13792,788,928,-14484,2991,-2876,2025-02-03 17:43:44,0.0
-14400,1552,608,-13524,3089,-2442,2025-02-03 17:43:44,0.0
-14292,1856,-832,-12957,2837,-2516,2025-02-03 17:43:44,0.0
-14476,1876,-1688,-13175,2137,-3021,2025-02-03 17:43:44,0.0
-14672,1964,-2060,-13722,1311,-3259,2025-02-03 17:43:44,0.0
-14676,1784,-1828,-13962,773,-3181,2025-02-03 17:43:44,0.0
-14156,1152,-1708,-13993,539,-2926,2025-02-03 17:43:44,0.0
-13948,376,-860,-13595,663,-2781,2025-02-03 17:43:44,0.0
-13868,-388,-268,-12567,999,-2546,2025-02-03 17:43:44,0.0
-13624,-1072,-36,-11152,1047,-2095,2025-02-03 17:43:44,0.0
-13560,-916,420,-9610,1594,-1459,2025-02-03 17:43:44,0.0
-13552,-360,340,-8116,2726,-865,2025-02-03 17:43:44,0.0
-13408,208,-460,-7176,3287,-796,2025-02-03 17:43:44,0.0
-13384,584,-1632,-6679,2923,-959,2025-02-03 17:43:44,0.0
-14184,968,-1152,-6206,1965,-994,2025-02-03 17:43:44,0.0
-14088,1220,-996,-5668,855,-882,2025-02-03 17:43:44,0.0
-12740,348,-196,-4404,-1500,-1504,2025-02-03 17:43:44,0.0
-12684,208,136,-3868,-1168,-1700,2025-02-03 17:43:44,0.0
-12868,288,308,-3352,-431,-1871,2025-02-03 17:43:44,0.0
-13280,464,156,-2870,283,-2007,2025-02-03 17:43:44,0.0
-13976,1000,52,-2589,1010,-2156,2025-02-03 17:43:44,0.0
-14500,1188,52,-2660,882,-2274,2025-02-03 17:43:44,0.0
-14748,908,0,-2964,-148,-2466,2025-02-03 17:43:44,0.0
-14844,340,-416,-3435,-1511,-2611,2025-02-03 17:43:44,0.0
-14260,472,-244,-3541,-2651,-2770,2025-02-03 17:43:44,0.0
-13804,296,-128,-3223,-3656,-2755,2025-02-03 17:43:44,0.0
-13020,-644,-464,-3058,-3870,-2350,2025-02-03 17:43:44,0.0
-12248,-1836,-1060,-2797,-3152,-2137,2025-02-03 17:43:44,0.0
-11936,-2884,-1664,-2103,-1779,-2180,2025-02-03 17:43:44,0.0
-12432,-2796,-2160,-996,586,-1951,2025-02-03 17:43:44,0.0
-12644,-2016,-2520,197,3625,-1412,2025-02-03 17:43:44,0.0
-11996,-1316,-1924,1350,6134,-1213,2025-02-03 17:43:44,0.0
-12268,-996,-736,2299,6472,-1426,2025-02-03 17:43:44,0.0
-13332,-608,-728,3014,6200,-1547,2025-02-03 17:43:44,0.0
-14224,-132,-2228,3333,5911,-1630,2025-02-03 17:43:44,0.0
-15276,604,-4072,3088,5604,-1390,2025-02-03 17:43:44,0.0
-15680,780,-4460,2233,4856,-956,2025-02-03 17:43:44,0.0
-15256,552,-3204,1371,2765,-495,2025-02-03 17:43:44,0.0
-14564,112,-2192,1206,535,-343,2025-02-03 17:43:44,0.0
-13888,-196,-1908,1145,-1390,-215,2025-02-03 17:43:44,0.0
-13212,-396,-2084,1181,-1891,-113,2025-02-03 17:43:44,0.0
-12836,-540,-2264,1348,-1058,-111,2025-02-03 17:43:44,0.0
-12616,-940,-2172,1583,927,-150,2025-02-03 17:43:45,0.0
-12816,-1188,-1864,1820,2370,-197,2025-02-03 17:43:45,0.0
-13384,-1036,-1876,1903,2382,-193,2025-02-03 17:43:45,0.0
-13836,-520,-2004,1873,1396,-78,2025-02-03 17:43:45,0.0
-14000,-192,-2292,1622,54,-29,2025-02-03 17:43:45,0.0
-13976,-112,-2764,1283,-996,-42,2025-02-03 17:43:45,0.0
-13848,-12,-2992,1073,-1171,-110,2025-02-03 17:43:45,0.0
-13628,-120,-3336,894,-811,-201,2025-02-03 17:43:45,0.0
-13332,-376,-3380,707,-210,-215,2025-02-03 17:43:45,0.0
-13100,-336,-2892,624,8,-143,2025-02-03 17:43:45,0.0
-12976,-280,-2660,543,119,-58,2025-02-03 17:43:45,0.0
-13052,-616,-2660,463,240,-4,2025-02-03 17:43:45,0.0
-13316,-608,-2148,490,264,8,2025-02-03 17:43:45,0.0
-13416,-816,-1952,540,180,24,2025-02-03 17:43:45,0.0
-13544,-1020,-2272,559,4,33,2025-02-03 17:43:45,0.0
-13492,-896,-2416,569,-178,5,2025-02-03 17:43:45,0.0
-13388,-664,-2588,474,-392,-36,2025-02-03 17:43:45,0.0
-13232,-312,-2456,403,-213,4,2025-02-03 17:43:45,0.0
-12928,-92,-2504,341,299,70,2025-02-03 17:43:45,0.0
-12912,-16,-2560,248,764,14,2025-02-03 17:43:45,0.0
-13296,-212,-2400,139,996,-6,2025-02-03 17:43:45,0.0
-13544,-256,-2160,119,912,38,2025-02-03 17:43:45,0.0
-13524,-324,-2208,150,630,71,2025-02-03 17:43:45,0.0
-13652,-280,-2328,144,174,110,2025-02-03 17:43:45,0.0
-13624,-200,-2504,97,-247,158,2025-02-03 17:43:45,0.0
-13312,-124,-2492,90,-257,190,2025-02-03 17:43:45,0.0
-13156,-104,-2348,80,-17,180,2025-02-03 17:43:45,0.0
-13168,-344,-2500,128,386,214,2025-02-03 17:43:45,0.0
-13176,-200,-2500,250,689,239,2025-02-03 17:43:45,0.0
-13248,-204,-2404,361,904,183,2025-02-03 17:43:45,0.0
-13204,-96,-2304,504,984,177,2025-02-03 17:43:45,0.0
-13344,-148,-2380,616,981,167,2025-02-03 17:43:45,0.0
-13396,-144,-2488,671,900,172,2025-02-03 17:43:45,0.0
-13468,-36,-2208,801,782,184,2025-02-03 17:43:45,0.0
-13436,-60,-2428,854,579,244,2025-02-03 17:43:45,0.0
-13412,168,-2224,877,507,281,2025-02-03 17:43:45,0.0
-13532,420,-2376,912,751,439,2025-02-03 17:43:45,0.0
-13304,628,-2912,811,851,541,2025-02-03 17:43:45,0.0
-13296,1180,-3304,620,1157,619,2025-02-03 17:43:45,0.0
-13216,1360,-3692,264,1634,827,2025-02-03 17:43:45,0.0
-13188,1480,-3508,-176,1866,771,2025-02-03 17:43:45,0.0
-13244,804,-2600,-489,1715,431,2025-02-03 17:43:45,0.0
-13196,44,-1628,-589,414,-139,2025-02-03 17:43:45,0.0
-12984,-480,-796,-402,-1191,-788,2025-02-03 17:43:45,
-13228,-588,-112,-126,-2273,-1234,2025-02-03 17:43:45,0.0
-13576,-664,1052,289,-2288,-1265,2025-02-03 17:43:45,0.0
-13852,-392,760,795,-1478,-1078,2025-02-03 17:43:45,0.0
-14132,-28,-552,755,-839,-950,2025-02-03 17:43:45,0.0
-14656,396,-1684,229,-447,-969,2025-02-03 17:43:45,0.0
-15004,316,-1976,-401,-893,-1119,2025-02-03 17:43:45,0.0
-14676,268,-1776,-1170,-2216,-1378,2025-02-03 17:43:45,0.0
-13924,-28,-2108,-1715,-3453,-1679,2025-02-03 17:43:45,0.0
-12836,32,-2604,-2043,-4309,-1997,2025-02-03 17:43:45,0.0
-12256,168,-2740,-2128,-4255,-2095,2025-02-03 17:43:45,0.0
-11684,252,-2380,-2059,-3006,-1975,2025-02-03 17:43:45,0.0
-11336,-32,-1804,-1812,-1308,-1721,2025-02-03 17:43:45,0.0
-11468,-912,-1456,-1322,190,-1288,2025-02-03 17:43:45,0.0
-11932,-1576,-1708,-744,1559,-979,2025-02-03 17:43:45,0.0
-12700,-1968,-1592,-377,3048,-984,2025-02-03 17:43:45,0.0
-14264,-1868,-1432,-283,4325,-1102,2025-02-03 17:43:45,0.0
-15672,-1628,-932,-329,4436,-1223,2025-02-03 17:43:45,0.0
-16324,-1400,-680,-443,3224,-1402,2025-02-03 17:43:45,0.0
-16100,-1020,-1096,-679,349,-1878,2025-02-03 17:43:46,0.0
-15480,-632,-1444,-1203,-2608,-2535,2025-02-03 17:43:46,0.0
-14124,-44,-1472,-1959,-3943,-3050,2025-02-03 17:43:46,0.0
-13088,288,-1272,-2612,-3995,-3431,2025-02-03 17:43:46,0.0
-12076,-176,-1504,-2989,-3061,-3696,2025-02-03 17:43:46,0.0
-11376,-1052,-2012,-3101,-1603,-4000,2025-02-03 17:43:46,0.0
-11612,-1928,-1092,-3016,168,-4200,2025-02-03 17:43:46,0.0
-12372,-2616,12,-2830,1776,-4064,2025-02-03 17:43:46,0.0
-12836,-2836,-68,-2453,2480,-3610,2025-02-03 17:43:46,0.0
-13536,-2608,-388,-2270,2317,-3088,2025-02-03 17:43:46,0.0
-14088,-2172,-692,-2490,1384,-2647,2025-02-03 17:43:46,0.0
-13904,-2040,-864,-2828,443,-2413,2025-02-03 17:43:46,0.0
-13960,-1976,-488,-3072,-497,-2258,2025-02-03 17:43:46,0.0
-13640,-2112,-176,-3165,-1449,-1961,2025-02-03 17:43:46,0.0
-13408,-2232,188,-2983,-2149,-1522,2025-02-03 17:43:46,0.0
-12752,-2500,-120,-2697,-2343,-1039,2025-02-03 17:43:46,0.0
-12328,-2688,-56,-2323,-2129,-553,2025-02-03 17:43:46,0.0
-12372,-2628,344,-1927,-1554,-70,2025-02-03 17:43:46,0.0
-12328,-2884,-68,-1570,-1316,431,2025-02-03 17:43:46,0.0
-12448,-2948,284,-1280,-938,798,2025-02-03 17:43:46,0.0
-12476,-3120,248,-1152,-518,1013,2025-02-03 17:43:46,0.0
-13004,-2936,616,-1052,-179,1274,2025-02-03 17:43:46,0.0
-13396,-2940,660,-974,-418,1606,2025-02-03 17:43:46,0.0
-13684,-2592,828,-771,-849,1989,2025-02-03 17:43:46,0.0
-13520,-2420,608,-559,-1253,2011,2025-02-03 17:43:46,0.0
-13408,-2124,40,-632,-1444,1887,2025-02-03 17:43:46,0.0
-13176,-2200,-296,-829,-1103,1597,2025-02-03 17:43:46,0.0
-12616,-1912,-832,-1308,-278,1057,2025-02-03 17:43:46,0.0
-12564,-1524,-996,-1928,929,569,2025-02-03 17:43:46,0.0
-12880,-1416,-800,-2554,2390,222,2025-02-03 17:43:46,0.0
-13476,-1656,-812,-3153,3914,-54,2025-02-03 17:43:46,0.0
-14080,-2256,-476,-3392,5320,-342,2025-02-03 17:43:46,0.0
-15136,-2600,-356,-3548,6629,-640,2025-02-03 17:43:46,0.0
-16288,-2560,-272,-3736,7420,-896,2025-02-03 17:43:46,0.0
-17076,-2320,412,-3774,7129,-1069,2025-02-03 17:43:46,0.0
-17696,-2308,852,-3648,6149,-1196,2025-02-03 17:43:46,0.0
-18248,-2732,988,-3521,4470,-1178,2025-02-03 17:43:46,0.0
-18484,-3804,608,-2986,3941,-1322,2025-02-03 17:43:46,0.0
-17844,-5292,-640,-1807,3158,-2155,2025-02-03 17:43:46,0.0
-17100,-7564,-672,-33,1741,-3837,2025-02-03 17:43:46,0.0
-18060,-8580,-632,1931,-222,-5070,2025-02-03 17:43:46,0.0
-19920,-5388,-1052,3142,-3380,-2943,2025-02-03 17:43:46,0.0
-17892,-2384,-1164,3950,-6984,2,2025-02-03 17:43:46,0.0
-15296,-424,-3280,3877,-10217,1967,2025-02-03 17:43:46,0.0
-11948,1316,-4936,2120,-11437,2857,2025-02-03 17:43:46,0.0
-9140,1644,-5856,565,-11342,3035,2025-02-03 17:43:46,0.0
-7264,1144,-5712,-253,-10030,2813,2025-02-03 17:43:46,0.0
-6628,296,-5476,-170,-5930,2156,2025-02-03 17:43:46,0.0
-6468,-792,-5608,582,726,989,2025-02-03 17:43:46,0.0
-8828,-1360,-4368,1640,9285,-482,2025-02-03 17:43:46,0.0
-13052,-796,-2536,2656,14638,-647,2025-02-03 17:43:46,0.0
-17412,-616,-1216,3489,14665,677,2025-02-03 17:43:46,0.0
-19808,-1064,-1892,3766,11937,2972,2025-02-03 17:43:46,0.0
-19608,-2024,-3480,3659,7521,5076,2025-02-03 17:43:46,0.0
-17500,-2268,-4920,3547,228,5915,2025-02-03 17:43:46,0.0
-15648,-1284,-4988,3624,-7061,5673,2025-02-03 17:43:46,0.0
-14724,-264,-3436,3799,-11973,5427,2025-02-03 17:43:46,0.0
-12288,952,-3636,3670,-13855,5664,2025-02-03 17:43:46,0.0
-11400,2268,-1036,3475,-9911,5556,2025-02-03 17:43:46,0.0
-8976,2932,-1124,3209,-5961,4959,2025-02-03 17:43:46,0.0
-8092,2852,-1816,2570,-3284,4521,2025-02-03 17:43:46,0.0
-9284,1500,-1384,2203,603,3874,2025-02-03 17:43:47,0.0
-10124,-76,-632,2517,2861,3752,2025-02-03 17:43:47,0.0
-10944,-1344,360,3288,3897,3440,2025-02-03 17:43:47,0.0
-11560,-2000,1120,4136,3240,3048,2025-02-03 17:43:47,0.0
-11220,-1836,748,4884,1497,2136,2025-02-03 17:43:47,0.0
-11368,-972,1044,5456,-887,1045,2025-02-03 17:43:47,0.0
-11008,-352,1016,5630,-2950,-247,2025-02-03 17:43:47,0.0
-10884,-68,1136,5415,-4124,-1348,2025-02-03 17:43:47,0.0
-10816,284,816,5306,-3968,-2302,2025-02-03 17:43:47,0.0
-10560,932,-392,5332,-3103,-3031,2025-02-03 17:43:47,0.0
-10684,1688,-1736,5041,-1322,-3917,2025-02-03 17:43:47,0.0
-11952,1808,-3036,4488,1203,-4002,2025-02-03 17:43:47,0.0
-13808,1320,-2772,4159,3359,-2989,2025-02-03 17:43:47,0.0
-14680,688,-1380,4148,4164,-1572,2025-02-03 17:43:47,0.0
-15064,-268,-396,4714,4041,-488,2025-02-03 17:43:47,0.0
-15244,-1072,-832,5454,2988,-156,2025-02-03 17:43:47,0.0
-16216,-756,-1908,6010,2068,242,2025-02-03 17:43:47,0.0
-16820,208,-1984,6265,2144,960,2025-02-03 17:43:47,0.0
-17636,692,-928,5986,3043,1699,2025-02-03 17:43:47,0.0
-17856,836,184,5740,3679,2239,2025-02-03 17:43:47,0.0
-17500,1080,464,5543,3257,2315,2025-02-03 17:43:47,
-17312,2208,896,5288,2282,2200,2025-02-03 17:43:47,0.0
-16380,4008,672,4947,1245,2134,2025-02-03 17:43:47,0.0
-16536,4596,-2620,4467,1235,2121,2025-02-03 17:43:47,0.0
-18768,4876,-6588,2715,3826,2883,2025-02-03 17:43:47,0.0
-19480,4660,-6940,285,5262,3998,2025-02-03 17:43:47,0.0
-18520,3668,-5900,-2238,3605,4491,2025-02-03 17:43:47,0.0
-15784,1676,-4104,-4114,-1785,3398,2025-02-03 17:43:47,0.0
-12044,108,-3720,-4417,-8231,1182,2025-02-03 17:43:47,0.0
-9528,-1096,-4020,-4106,-13614,-961,2025-02-03 17:43:47,0.0
-8652,-1580,-4604,-3599,-16140,-2024,2025-02-03 17:43:47,0.0
-7792,-1480,-4968,-3247,-13476,-1742,2025-02-03 17:43:47,0.0
-7320,-1412,-4936,-2491,-6358,-676,2025-02-03 17:43:47,0.0
-8216,-1556,-4300,-1000,4384,-162,2025-02-03 17:43:47,0.0
-9820,-1516,-4680,-40,14277,-313,2025-02-03 17:43:47,0.0
-13804,-1132,-1568,217,17585,-610,2025-02-03 17:43:47,0.0
-15832,-1416,-1324,-156,15488,-1010,2025-02-03 17:43:47,0.0
-17180,-1488,-2108,-788,10754,-1704,2025-02-03 17:43:47,0.0
-16908,-832,-3844,-995,4264,-2750,2025-02-03 17:43:47,0.0
-15820,-340,-5624,-1188,-4166,-3566,2025-02-03 17:43:47,0.0
-14780,-332,-5104,-1709,-11037,-3364,2025-02-03 17:43:47,0.0
-12852,-496,-3988,-2351,-14704,-2787,2025-02-03 17:43:47,0.0
-12224,-1016,-1644,-2887,-12750,-2541,2025-02-03 17:43:47,0.0
-9840,-1356,-964,-3005,-5970,-2999,2025-02-03 17:43:47,0.0
-9692,-1664,-1916,-2538,-1077,-3490,2025-02-03 17:43:47,0.0
-8944,-1460,-4416,-2495,1642,-3697,2025-02-03 17:43:47,0.0
-10244,-1356,-3032,-2604,2368,-3660,2025-02-03 17:43:47,0.0
-11484,-1644,-1480,-2587,2336,-3533,2025-02-03 17:43:47,0.0
-12360,-1416,-716,-2627,1907,-3148,2025-02-03 17:43:47,0.0
-12592,-1020,-984,-2860,1212,-2515,2025-02-03 17:43:47,0.0
-12728,-728,-860,-3092,477,-1860,2025-02-03 17:43:47,0.0
-14356,-624,-456,-3471,-399,-1181,2025-02-03 17:43:47,0.0
-13232,-740,-1156,-4150,-1585,-654,2025-02-03 17:43:47,0.0
-13060,-820,-792,-4488,-2691,-346,2025-02-03 17:43:47,0.0
-13216,-936,-352,-4488,-3288,108,2025-02-03 17:43:47,0.0
-13104,-424,116,-4483,-3662,994,2025-02-03 17:43:47,0.0
-12384,-220,64,-4622,-3611,1549,2025-02-03 17:43:47,0.0
-12016,-260,360,-4931,-3572,1994,2025-02-03 17:43:48,0.0
-11976,-988,-176,-5139,-3698,2494,2025-02-03 17:43:48,0.0
-11748,-1724,-1612,-5338,-3979,3041,2025-02-03 17:43:48,0.0
-11372,-1988,-3588,-5700,-3959,3539,2025-02-03 17:43:48,0.0
-10024,-1400,-4008,-6075,-3053,3722,2025-02-03 17:43:48,0.0
-9172,-412,-3468,-6482,-303,3016,2025-02-03 17:43:48,0.0
-9416,608,-1924,-6965,4164,1377,2025-02-03 17:43:48,0.0
-11964,1080,-1132,-7576,9529,-345,2025-02-03 17:43:48,0.0
-15072,-512,-920,-7471,13103,-1263,2025-02-03 17:43:48,0.0
-19592,-5572,508,-5887,11994,-2262,2025-02-03 17:43:48,0.0
-21252,-5980,608,-4491,7203,-2348,2025-02-03 17:43:48,0.0
-20388,-4644,-288,-2944,902,-2020,2025-02-03 17:43:48,0.0
-18300,-3324,-480,-2045,-5105,-1610,2025-02-03 17:43:48,0.0
-16164,-2844,304,-1894,-7835,-1193,2025-02-03 17:43:48,0.0
-14572,-3200,788,-1965,-6264,-974,2025-02-03 17:43:48,0.0
-13080,-3548,36,-1096,-1046,-1511,2025-02-03 17:43:48,0.0
-12288,-4672,-1680,1081,4258,-2989,2025-02-03 17:43:48,0.0
-13400,-5404,-2780,3510,7091,-4311,2025-02-03 17:43:48,0.0
-15356,-4664,-2932,5459,8063,-4592,2025-02-03 17:43:48,0.0
-17276,-2708,-3424,6312,7072,-3681,2025-02-03 17:43:48,0.0
-17848,1000,-4056,5654,3792,-1554,2025-02-03 17:43:48,0.0
-16412,3452,-6004,3723,-1226,768,2025-02-03 17:43:48,0.0
-13784,3500,-8268,1722,-6227,2729,2025-02-03 17:43:48,0.0
-10948,2224,-9792,551,-8703,3333,2025-02-03 17:43:48,0.0
-9200,1556,-9476,-251,-6838,2671,2025-02-03 17:43:48,0.0
-7644,2116,-7964,-690,-886,1095,2025-02-03 17:43:48,0.0
-9328,3176,-5912,-910,6401,-311,2025-02-03 17:43:48,0.0
-12508,3056,-5080,-1185,10164,-522,2025-02-03 17:43:48,0.0
-15804,2416,-4420,-1472,11437,338,2025-02-03 17:43:48,0.0
-17456,1472,-3444,-1461,10015,1629,2025-02-03 17:43:48,0.0
-17548,60,-4216,-1422,6257,2944,2025-02-03 17:43:48,0.0
-16492,-1520,-5144,-1405,-115,4252,2025-02-03 17:43:48,0.0
-14512,-1724,-3840,-849,-5776,4668,2025-02-03 17:43:48,0.0
-12868,-1496,-3480,86,-9419,4337,2025-02-03 17:43:48,0.0
-11656,-432,-2652,1298,-9851,3863,2025-02-03 17:43:48,0.0
-10280,760,-2132,2360,-7328,3339,2025-02-03 17:43:48,0.0
-9464,1900,-2348,3119,-3645,2910,2025-02-03 17:43:48,0.0
-8860,2804,-3444,3322,-79,2830,2025-02-03 17:43:48,0.0
-9720,3284,-3764,3117,3002,2723,2025-02-03 17:43:48,0.0
-10696,3428,-3784,2495,4637,2397,2025-02-03 17:43:48,0.0
-11684,3192,-3092,1658,4791,2018,2025-02-03 17:43:48,0.0
-13168,2532,-1824,1166,3565,1405,2025-02-03 17:43:48,0.0
-14408,1736,-1044,1116,1387,903,2025-02-03 17:43:48,0.0
-14836,948,-1584,1342,-1161,516,2025-02-03 17:43:48,0.0
-14232,700,-2476,1429,-3617,116,2025-02-03 17:43:48,0.0
-13524,792,-2304,1505,-5039,-129,2025-02-03 17:43:48,0.0
-12816,1176,-1888,1480,-5336,-145,2025-02-03 17:43:48,0.0
-12000,1320,-2344,1272,-4488,-171,2025-02-03 17:43:48,0.0
-10832,1464,-3000,1303,-3191,-342,2025-02-03 17:43:48,0.0
-10616,1288,-2476,1767,-1468,-605,2025-02-03 17:43:48,0.0
-11668,1256,-1600,2378,620,-567,2025-02-03 17:43:48,0.0
-13092,1520,-1296,2841,1839,-514,2025-02-03 17:43:48,0.0
-13024,1720,-2128,2989,1819,-802,2025-02-03 17:43:48,0.0
-13712,1732,-2892,2609,691,-1138,2025-02-03 17:43:48,0.0
-14660,1584,-2020,2155,-1368,-1222,2025-02-03 17:43:48,0.0
-14168,1560,-1848,2193,-2558,-1028,2025-02-03 17:43:48,0.0
-13312,1404,-1344,2404,-3020,-972,2025-02-03 17:43:48,0.0
-12056,1484,-1772,2575,-3057,-1416,2025-02-03 17:43:48,0.0
-11740,1616,-2080,2603,-2701,-2429,2025-02-03 17:43:48,0.0
-12116,1480,-2336,2561,-2066,-3386,2025-02-03 17:43:48,0.0
-13132,1336,-3008,2584,-916,-4011,2025-02-03 17:43:48,0.0
-14460,992,-4604,2326,546,-4223,2025-02-03 17:43:48,0.0
-15544,680,-5380,1736,1513,-4180,2025-02-03 17:43:48,0.0
-16072,636,-5780,988,1359,-3729,2025-02-03 17:43:49,
-14784,36,-5216,808,-356,-3157,2025-02-03 17:43:49,0.0
-13080,-828,-4620,872,-2555,-3002,2025-02-03 17:43:49,0.0
-11660,-1864,-3372,1034,-4065,-2953,2025-02-03 17:43:49,0.0
-10740,-2680,-2728,1652,-3927,-2731,2025-02-03 17:43:49,0.0
-10384,-3064,-2104,2891,-1852,-2163,2025-02-03 17:43:49,0.0
-10684,-2832,-1896,4535,1828,-1350,2025-02-03 17:43:49,0.0
-11568,-2072,-3332,5398,6215,-350,2025-02-03 17:43:49,0.0
-12736,-1100,-4064,5071,8676,-47,2025-02-03 17:43:49,0.0
-14488,-316,-3800,4129,9553,-45,2025-02-03 17:43:49,0.0
-15644,-200,-3076,3185,8756,-56,2025-02-03 17:43:49,0.0
-16080,-708,-2608,2500,6354,-348,2025-02-03 17:43:49,0.0
-15532,-1528,-2868,1927,1901,-1111,2025-02-03 17:43:49,0.0
-15012,-1968,-2808,1723,-2242,-1720,2025-02-03 17:43:49,0.0
-14308,-2172,-3080,1717,-4725,-1890,2025-02-03 17:43:49,0.0
-13268,-2132,-3048,1680,-4986,-1674,2025-02-03 17:43:49,0.0
-12188,-2228,-2852,1722,-3617,-1403,2025-02-03 17:43:49,0.0
-11372,-2312,-2672,1802,-1513,-1227,2025-02-03 17:43:49,0.0
-11164,-2436,-3016,1804,316,-1259,2025-02-03 17:43:49,0.0
-11960,-2544,-2684,1749,1424,-1166,2025-02-03 17:43:49,0.0
-12932,-2492,-2496,1594,1954,-906,2025-02-03 17:43:49,0.0
-13516,-2316,-2484,1308,1946,-670,2025-02-03 17:43:49,0.0
-13872,-2108,-2336,994,1387,-471,2025-02-03 17:43:49,0.0
-14216,-1660,-1784,684,637,-286,2025-02-03 17:43:49,0.0
-14280,-1328,-1736,374,-244,-147,2025-02-03 17:43:49,0.0
-13720,-928,-2400,-105,-1694,46,2025-02-03 17:43:49,0.0
-13552,-1208,-1780,-385,-2397,331,2025-02-03 17:43:49,0.0
-13284,-1712,-1952,-611,-2556,573,2025-02-03 17:43:49,0.0
-12780,-2012,-2052,-797,-2315,880,2025-02-03 17:43:49,0.0
-12516,-2208,-1620,-827,-1607,1199,2025-02-03 17:43:49,0.0
-12368,-2152,-1656,-899,-691,1512,2025-02-03 17:43:49,0.0
-12536,-2064,-2120,-987,-74,1782,2025-02-03 17:43:49,0.0
-12960,-1864,-2368,-1061,276,1958,2025-02-03 17:43:49,0.0
-13652,-1664,-2104,-1011,720,2144,2025-02-03 17:43:49,0.0
-14036,-1788,-2044,-989,1016,2248,2025-02-03 17:43:49,0.0
-14056,-1972,-2324,-990,718,2172,2025-02-03 17:43:49,0.0
-14020,-2416,-2372,-812,-97,1814,2025-02-03 17:43:49,0.0
-14176,-2452,-2344,-630,-1188,1474,2025-02-03 17:43:49,0.0
-14064,-2084,-2540,-360,-2007,1265,2025-02-03 17:43:49,0.0
-13544,-1756,-2356,-143,-2487,1191,2025-02-03 17:43:49,0.0
-13268,-1396,-2424,13,-2753,1106,2025-02-03 17:43:49,0.0
-12672,-964,-2572,139,-2616,1060,2025-02-03 17:43:49,0.0
-12400,-512,-2712,151,-2143,934,2025-02-03 17:43:49,0.0
-12116,-428,-2508,9,-1296,701,2025-02-03 17:43:49,0.0
-11884,-408,-2348,-144,-281,351,2025-02-03 17:43:49,0.0
-11752,-552,-2368,-264,725,-146,2025-02-03 17:43:49,0.0
-11968,-336,-2448,-390,1556,-535,2025-02-03 17:43:49,0.0
-12748,-228,-2684,-477,2441,-616,2025-02-03 17:43:49,0.0
-13620,36,-3124,-661,3444,-441,2025-02-03 17:43:49,0.0
-14204,92,-3116,-971,3971,-234,2025-02-03 17:43:49,0.0
-14548,-76,-2760,-1236,3463,-15,2025-02-03 17:43:49,0.0
-14540,-348,-2596,-1372,2161,106,2025-02-03 17:43:49,0.0
-14236,-556,-2204,-1410,603,192,2025-02-03 17:43:49,0.0
-13720,-816,-1924,-1378,-231,204,2025-02-03 17:43:49,0.0
-13400,-988,-1604,-1093,43,235,2025-02-03 17:43:49,0.0
-13388,-888,-1676,-693,792,239,2025-02-03 17:43:49,0.0
-13228,-1124,-1660,-441,1268,158,2025-02-03 17:43:49,0.0
-13384,-1076,-1184,-117,1474,75,2025-02-03 17:43:49,0.0
-13388,-920,-1264,181,1338,69,2025-02-03 17:43:49,0.0
-13388,-612,-1464,326,924,-31,2025-02-03 17:43:49,0.0
-13340,-544,-1608,311,650,-86,2025-02-03 17:43:49,0.0
-13444,-324,-1664,368,660,-115,2025-02-03 17:43:49,0.0
-13328,-296,-1896,341,953,-177,2025-02-03 17:43:49,0.0
-13236,-132,-2040,124,1378,-219,2025-02-03 17:43:49,0.0
-13356,-212,-2288,-17,1137,-246,2025-02-03 17:43:50,0.0
-13392,-252,-2216,-71,1117,-208,2025-02-03 17:43:50,0.0
-13452,-220,-2620,-146,1151,-184,2025-02-03 17:43:50,0.0
-13464,-280,-2752,-286,1206,-177,2025-02-03 17:43:50,0.0
-13316,-488,-2440,-370,1141,-203,2025-02-03 17:43:50,0.0
-13216,-520,-2068,-352,1256,-158,2025-02-03 17:43:50,0.0
-13220,-732,-2396,-258,1330,-54,2025-02-03 17:43:50,0.0
-13108,-792,-2392,-147,1515,-41,2025-02-03 17:43:50,0.0
-13120,-932,-2504,14,1783,-108,2025-02-03 17:43:50,0.0
-13148,-1016,-2740,154,1972,-181,2025-02-03 17:43:50,0.0
-13304,-856,-2648,264,2063,-164,2025-02-03 17:43:50,0.0
-13356,-660,-2652,352,2049,-204,2025-02-03 17:43:50,0.0
-13364,-576,-2616,377,1967,-246,2025-02-03 17:43:50,0.0
-13400,-500,-2768,400,1769,-273,2025-02-03 17:43:50,0.0
-13284,-688,-2820,467,1548,-257,2025-02-03 17:43:50,0.0
-13168,-668,-3016,470,1460,-198,2025-02-03 17:43:50,0.0
-13068,-752,-2852,520,1545,-182,2025-02-03 17:43:50,0.0
-13068,-664,-3020,582,1742,-207,2025-02-03 17:43:50,0.0
-13184,-672,-3328,645,1898,-197,2025-02-03 17:43:50,0.0
-13340,-628,-3580,661,1817,-1,2025-02-03 17:43:50,0.0
-13388,-296,-3852,667,1621,230,2025-02-03 17:43:50,0.0
-13472,-188,-4296,551,1455,472,2025-02-03 17:43:50,0.0
-13256,-16,-4252,279,1095,654,2025-02-03 17:43:50,0.0
-12680,176,-3988,-117,714,730,2025-02-03 17:43:50,0.0
-12480,4,-3836,-296,813,801,2025-02-03 17:43:50,0.0
-12364,-144,-3784,-451,1290,935,2025-02-03 17:43:50,0.0
-12272,-260,-3872,-601,1803,1164,2025-02-03 17:43:50,0.0
-12268,-20,-4004,-835,1975,1496,2025-02-03 17:43:50,0.0
-11852,252,-4096,-1133,1748,1738,2025-02-03 17:43:50,0.0
-10832,132,-3604,-1401,1224,1876,2025-02-03 17:43:50,0.0
-9604,208,-2956,-1647,713,1871,2025-02-03 17:43:50,0.0
-8728,-44,-2520,-1733,749,1680,2025-02-03 17:43:50,0.0
-8384,-276,-1436,-1514,1585,1412,2025-02-03 17:43:50,0.0
-7868,-700,72,-797,2661,1015,2025-02-03 17:43:50,0.0
-7436,-1392,1452,59,3280,414,2025-02-03 17:43:50,0.0
-7152,-1972,2556,1255,3991,-396,2025-02-03 17:43:51,0.0
-7272,-1860,2444,2570,4729,-1114,2025-02-03 17:43:53,
-8532,-1300,900,3860,5185,-1277,2025-02-03 17:43:53,0.0
-9740,-856,-1116,4697,5776,-746,2025-02-03 17:43:53,0.0
-10048,-744,-2788,5039,5809,-26,2025-02-03 17:43:53,0.0
-9768,-344,-4012,4747,4446,529,2025-02-03 17:43:53,0.0
-8904,32,-4404,3770,2483,507,2025-02-03 17:43:53,0.0
-7764,344,-4216,2597,329,-39,2025-02-03 17:43:53,0.0
-9540,2216,-2652,-188,1053,3321,2025-02-03 17:43:53,0.0
-7480,1360,-11964,-722,3358,1393,2025-02-03 17:43:54,0.0
-15064,360,3772,-6082,15973,-1027,2025-02-03 17:43:54,0.0
-19060,1012,6536,-5939,16918,-593,2025-02-03 17:43:54,0.0
-19216,712,8088,-5488,14788,22,2025-02-03 17:43:54,0.0
-18084,-40,9476,-3981,10819,667,2025-02-03 17:43:54,0.0
-16148,216,8532,-2053,7173,1486,2025-02-03 17:43:54,0.0
-14440,-328,6416,-1037,5547,2333,2025-02-03 17:43:54,0.0
-13112,-500,6440,-701,5867,2371,2025-02-03 17:43:54,0.0
-12292,-456,6640,-381,7004,1635,2025-02-03 17:43:54,0.0
-12624,100,-1900,209,-2663,248,2025-02-03 17:43:54,0.0
-12376,108,-1928,-1,-3079,766,2025-02-03 17:43:54,0.0
-11568,252,-1752,-232,-2723,1115,2025-02-03 17:43:54,0.0
-11060,336,-1056,-387,-1473,912,2025-02-03 17:43:54,0.0
-10772,676,-1228,-624,-552,609,2025-02-03 17:43:54,0.0
-10704,1212,-1356,-1179,64,350,2025-02-03 17:43:54,0.0
-10684,1512,-1412,-1676,-221,312,2025-02-03 17:43:54,0.0
-10628,1484,-1276,-2129,-1367,428,2025-02-03 17:43:54,0.0
-10876,912,-1284,-2651,-2212,817,2025-02-03 17:43:54,0.0
-10844,388,-984,-2809,-2430,1151,2025-02-03 17:43:54,0.0
-10560,204,-456,-2594,-2294,1379,2025-02-03 17:43:54,0.0
-10288,-56,-16,-2206,-2206,1488,2025-02-03 17:43:54,0.0
-10016,-124,-104,-1824,-2362,1476,2025-02-03 17:43:54,0.0
-9396,148,-432,-1331,-2554,1058,2025-02-03 17:43:54,0.0
-9408,184,-704,-684,-2602,277,2025-02-03 17:43:54,0.0
-9364,-592,-420,-15,-2199,-693,2025-02-03 17:43:54,0.0
-9792,-1332,-556,500,-1383,-1384,2025-02-03 17:43:54,0.0
-10032,-1796,-456,1032,-620,-1752,2025-02-03 17:43:54,0.0
-10344,-2196,-876,1461,-484,-1806,2025-02-03 17:43:54,0.0
-11416,-1784,-1948,1989,-50,-1192,2025-02-03 17:43:54,0.0
-11648,-892,-2744,2591,665,-329,2025-02-03 17:43:54,0.0
-11424,404,-3072,2903,1573,412,2025-02-03 17:43:54,0.0
-11448,1664,-2884,2620,2577,745,2025-02-03 17:43:54,0.0
-11684,2756,-3152,1915,3300,525,2025-02-03 17:43:54,0.0
-12220,2964,-3812,862,3125,-257,2025-02-03 17:43:54,0.0
-13164,2412,-3392,-134,1597,-592,2025-02-03 17:43:54,0.0
-13732,1436,-1948,-600,-593,-732,2025-02-03 17:43:54,0.0
-13564,712,-684,-523,-2559,-817,2025-02-03 17:43:54,0.0
-13096,76,-520,-287,-3758,-1142,2025-02-03 17:43:54,0.0
-12448,-248,-780,-100,-4224,-1651,2025-02-03 17:43:54,0.0
-11840,-512,-1004,297,-3816,-2321,2025-02-03 17:43:55,0.0
-11924,-176,-1088,622,-2759,-2587,2025-02-03 17:43:55,0.0
-12352,540,-768,977,-1180,-2407,2025-02-03 17:43:55,0.0
-13192,748,-708,1063,451,-1863,2025-02-03 17:43:55,0.0
-14296,544,-1424,931,1823,-1146,2025-02-03 17:43:55,0.0
-15108,76,-1348,647,2382,-357,2025-02-03 17:43:55,0.0
-14816,-500,-1308,668,1911,-135,2025-02-03 17:43:55,0.0
-14272,-1172,-1364,983,297,-525,2025-02-03 17:43:55,0.0
-14652,-744,-692,1359,-1837,-870,2025-02-03 17:43:55,0.0
-14492,-256,-492,1598,-3335,-690,2025-02-03 17:43:55,0.0
-13552,196,-816,1652,-4019,-266,2025-02-03 17:43:55,0.0
-12864,956,-1444,1772,-3402,232,2025-02-03 17:43:55,0.0
-12268,564,-2912,1800,-880,375,2025-02-03 17:43:55,0.0
-12256,-480,-1996,1815,2441,-277,2025-02-03 17:43:55,0.0
-13168,-832,-304,1930,4257,-726,2025-02-03 17:43:55,0.0
-14292,-1040,92,2179,4109,-609,2025-02-03 17:43:55,0.0
-15004,-604,172,2346,2264,-270,2025-02-03 17:43:55,0.0
-15160,332,-56,2469,307,39,2025-02-03 17:43:55,0.0
-14512,564,-512,2385,-1066,27,2025-02-03 17:43:55,0.0
-13840,548,-1072,2036,-1358,-125,2025-02-03 17:43:55,0.0
-13372,508,-1224,1541,-823,-133,2025-02-03 17:43:55,0.0
-12848,852,-1124,1259,-130,118,2025-02-03 17:43:55,0.0
-13852,-1228,-1144,-530,2530,-1307,2025-02-03 17:43:55,0.0
-13724,-908,-1268,-194,2905,-645,2025-02-03 17:43:55,0.0
-13504,-660,-1956,-247,2424,-273,2025-02-03 17:43:55,0.0
-13776,-808,-1628,-235,2218,-465,2025-02-03 17:43:55,0.0
-14248,-1192,-908,-3,2423,-976,2025-02-03 17:43:55,0.0
-14608,-1536,-716,322,2598,-1589,2025-02-03 17:43:55,0.0
-14660,-1912,-1164,687,1169,-2179,2025-02-03 17:43:55,0.0
-14452,-2316,-1944,1161,-780,-2317,2025-02-03 17:43:55,0.0
-13376,-2516,-2172,1870,-2758,-1981,2025-02-03 17:43:55,0.0
-11976,-3152,-1968,2755,-2913,-1667,2025-02-03 17:43:55,0.0
-10648,-3948,-1692,3814,-1157,-1742,2025-02-03 17:43:55,0.0
-10160,-4824,-1556,5495,2223,-2070,2025-02-03 17:43:55,0.0
-10820,-5408,-1648,7242,5460,-2098,2025-02-03 17:43:55,0.0
-12112,-5428,-1720,8702,7343,-1748,2025-02-03 17:43:55,0.0
-13444,-4920,-1332,10039,8120,-1232,2025-02-03 17:43:55,0.0
-14908,-3920,-1372,10942,7713,-470,2025-02-03 17:43:55,0.0
-15760,-2772,-848,11465,6372,475,2025-02-03 17:43:55,0.0
-15784,-2020,-344,11840,4019,1300,2025-02-03 17:43:55,0.0
-15500,-2236,76,12095,1607,1437,2025-02-03 17:43:55,0.0
-15036,-2872,-664,12273,-553,1430,2025-02-03 17:43:55,0.0
-14792,-2696,-1052,12339,-1473,1658,2025-02-03 17:43:55,0.0
-14348,-2008,-1152,12407,-1634,2031,2025-02-03 17:43:55,0.0
-13660,-1432,-1036,12272,-1088,2543,2025-02-03 17:43:55,0.0
-12704,-1464,-1148,12135,-548,2635,2025-02-03 17:43:55,0.0
-12680,-1864,-1276,12033,-84,2723,2025-02-03 17:43:56,0.0
-13268,-2492,-780,12158,642,3249,2025-02-03 17:43:56,0.0
-13416,-2604,-1380,12344,1020,3819,2025-02-03 17:43:56,0.0
-13796,-2288,-1768,12563,1043,4280,2025-02-03 17:43:56,0.0
-14020,-1776,-1572,12555,582,4622,2025-02-03 17:43:56,0.0
-13724,-1616,-1484,12342,-121,4686,2025-02-03 17:43:56,0.0
-13336,-1952,-1568,12067,-731,4554,2025-02-03 17:43:56,0.0
-12936,-2856,-1864,11856,-1099,4633,2025-02-03 17:43:56,
-12644,-3220,-2016,11961,-867,4614,2025-02-03 17:43:56,0.0
-12668,-3228,-2468,12107,176,4547,2025-02-03 17:43:56,0.0
-12564,-3024,-2480,11983,1598,4309,2025-02-03 17:43:56,0.0
-13016,-2540,-2468,11815,2604,4052,2025-02-03 17:43:56,0.0
-13508,-2568,-2620,11544,2756,4052,2025-02-03 17:43:56,0.0
-13784,-2880,-2760,11153,2254,3928,2025-02-03 17:43:56,0.0
-14020,-2924,-3072,10890,1368,3786,2025-02-03 17:43:56,0.0
-14604,-2576,-2952,10362,648,3646,2025-02-03 17:43:56,0.0
-14896,-1868,-2476,9526,-759,3408,2025-02-03 17:43:56,0.0
-14992,-1204,-1876,8843,-2402,3426,2025-02-03 17:43:56,0.0
-14616,-552,-2120,8081,-4001,3545,2025-02-03 17:43:56,0.0
-13780,-112,-2564,7184,-4791,3610,2025-02-03 17:43:56,0.0
-13176,-192,-2464,6374,-4303,3424,2025-02-03 17:43:56,0.0
-12800,392,-2308,5703,-2826,2864,2025-02-03 17:43:56,0.0
-12544,1276,-2048,4851,-1611,2195,2025-02-03 17:43:56,0.0
-12660,1644,-1696,3688,-1342,1548,2025-02-03 17:43:56,0.0
-12708,1616,-1648,2847,-1805,1040,2025-02-03 17:43:56,0.0
-12280,1524,-2204,2314,-2237,625,2025-02-03 17:43:56,0.0
-11672,772,-2032,1842,-2301,129,2025-02-03 17:43:56,0.0
-10856,-344,-1696,1914,-2142,-219,2025-02-03 17:43:56,0.0
-10596,-1792,-900,2521,-1050,-363,2025-02-03 17:43:56,0.0
-10908,-3492,496,3930,520,-241,2025-02-03 17:43:56,0.0
-11784,-4640,1556,5747,2358,-52,2025-02-03 17:43:56,0.0
-13356,-5004,2284,8296,5073,181,2025-02-03 17:43:56,0.0
-15256,-4372,1108,11439,7267,626,2025-02-03 17:43:56,0.0
-16516,-2968,-768,13565,6561,1053,2025-02-03 17:43:56,0.0
-18052,-1020,-2456,14780,3915,2004,2025-02-03 17:43:56,0.0
-18292,888,-3536,14677,1036,3440,2025-02-03 17:43:56,0.0
-16576,2580,-3220,14133,-1924,4531,2025-02-03 17:43:56,0.0
-14672,3436,-2720,13719,-3091,4893,2025-02-03 17:43:56,0.0
-12800,3484,-2768,12758,-2108,4603,2025-02-03 17:43:56,0.0
-11492,2520,-3552,12012,243,4143,2025-02-03 17:43:56,0.0
-11532,1116,-2848,12177,2250,4132,2025-02-03 17:43:56,0.0
-11988,500,-2096,12726,3246,4026,2025-02-03 17:43:56,0.0
-12344,216,-1952,13318,3555,3879,2025-02-03 17:43:56,0.0
-12700,84,-2188,13952,3101,3702,2025-02-03 17:43:56,0.0
-13480,4,-2368,14773,2281,3639,2025-02-03 17:43:56,0.0
-13616,-40,-2300,15086,1347,3646,2025-02-03 17:43:56,0.0
-13504,108,-1540,15311,755,3417,2025-02-03 17:43:56,0.0
-14116,564,-1404,15410,321,3390,2025-02-03 17:43:56,0.0
-14724,564,-1528,15601,-213,3427,2025-02-03 17:43:56,0.0
-15400,928,-1032,15479,-861,3829,2025-02-03 17:43:56,0.0
-13608,380,-2660,15686,-1505,4067,2025-02-03 17:43:56,0.0
-13996,-232,-1120,15837,-1972,4208,2025-02-03 17:43:56,0.0
-13228,-740,-808,16011,-2283,4231,2025-02-03 17:43:56,0.0
-12908,-1064,-276,16400,-2323,3925,2025-02-03 17:43:56,0.0
-12576,-784,-940,16757,-2008,3690,2025-02-03 17:43:56,0.0
-12592,-296,-2244,17028,-1547,3602,2025-02-03 17:43:56,0.0
-12340,392,-2740,17126,-925,3792,2025-02-03 17:43:56,0.0
-12096,1212,-2764,17188,135,4014,2025-02-03 17:43:56,0.0
-12164,1908,-3092,16910,1434,4125,2025-02-03 17:43:56,0.0
-12248,2344,-3108,16389,2671,4010,2025-02-03 17:43:56,0.0
-12572,2240,-2844,15934,3558,3376,2025-02-03 17:43:56,0.0
-13372,1440,-2704,15274,2999,2641,2025-02-03 17:43:56,0.0
-13948,944,-2684,14680,1645,2076,2025-02-03 17:43:57,0.0
-13820,1252,-2684,14664,13,1784,2025-02-03 17:43:57,0.0
-13148,2216,-2248,14078,-1177,1771,2025-02-03 17:43:57,0.0
-12324,2524,-2036,13572,-1370,1740,2025-02-03 17:43:57,0.0
-11932,2484,-2552,12872,-641,1415,2025-02-03 17:43:57,0.0
-12160,2256,-2376,12277,727,1064,2025-02-03 17:43:57,0.0
-12636,1708,-2248,12005,1523,791,2025-02-03 17:43:57,0.0
-12832,988,-2048,11940,1419,571,2025-02-03 17:43:57,0.0
-12996,364,-1908,11897,662,441,2025-02-03 17:43:57,0.0
-12824,-384,-2012,12031,-257,307,2025-02-03 17:43:57,0.0
-12608,-844,-2004,12182,-788,17,2025-02-03 17:43:57,0.0
-12988,164,-1756,12266,-969,-119,2025-02-03 17:43:57,0.0
-13480,1508,-2036,12313,-590,-132,2025-02-03 17:43:57,0.0
-14436,2356,-3188,12207,95,30,2025-02-03 17:43:57,0.0
-15428,2564,-4904,11912,414,504,2025-02-03 17:43:57,0.0
-15524,2344,-6092,11278,-50,991,2025-02-03 17:43:57,0.0
-14320,1024,-6080,9842,-2369,1221,2025-02-03 17:43:57,0.0
-13444,-8,-3652,9118,-4412,1221,2025-02-03 17:43:57,0.0
-12572,-744,-2004,9516,-4734,1169,2025-02-03 17:43:57,0.0
-11732,-1072,-1952,10434,-4124,932,2025-02-03 17:43:57,0.0
-11344,-1748,-3260,10912,-3222,516,2025-02-03 17:43:57,0.0
-11728,-2040,-3812,11388,-1089,348,2025-02-03 17:43:57,0.0
-12192,-2688,-3840,12196,1940,595,2025-02-03 17:43:57,0.0
-12540,-3452,-3152,13013,5114,899,2025-02-03 17:43:57,0.0
-12772,-3928,-2648,13513,7561,803,2025-02-03 17:43:57,0.0
-13564,-3524,-2304,13661,8148,494,2025-02-03 17:43:57,0.0
-15296,-2464,-2304,13558,7455,-19,2025-02-03 17:43:57,0.0
-16844,-1944,-2064,12950,4254,-339,2025-02-03 17:43:57,0.0
-17388,-2108,-1900,12522,4,-336,2025-02-03 17:43:57,0.0
-16636,-2248,-1556,12182,-4306,-260,2025-02-03 17:43:57,0.0
-15108,-1964,-1212,11852,-6412,-320,2025-02-03 17:43:57,0.0
-13720,-1368,-976,11269,-6475,-500,2025-02-03 17:43:57,0.0
-12368,-804,-1224,10545,-4909,-789,2025-02-03 17:43:57,0.0
-11556,-696,-1324,9775,-2739,-1062,2025-02-03 17:43:57,0.0
-11484,-960,-1456,8861,-609,-1184,2025-02-03 17:43:57,0.0
-11976,-1460,-1124,7917,734,-950,2025-02-03 17:43:57,0.0
-12380,-2004,-956,7238,1320,-519,2025-02-03 17:43:57,0.0
-12876,-2080,-1176,6850,1397,-87,2025-02-03 17:43:57,0.0
-12916,-2068,-1784,6380,1298,322,2025-02-03 17:43:57,0.0
-12596,-2144,-2252,5899,1037,706,2025-02-03 17:43:57,0.0
-12552,-2488,-2292,5475,1402,894,2025-02-03 17:43:57,0.0
-12764,-2764,-2732,5319,1756,1132,2025-02-03 17:43:57,0.0
-13208,-2672,-2288,5324,2533,1542,2025-02-03 17:43:57,0.0
-13340,-2428,-1888,5198,2910,1864,2025-02-03 17:43:57,0.0
-13496,-2184,-1800,4779,2645,1972,2025-02-03 17:43:57,0.0
-13468,-1408,-2148,4248,1901,1873,2025-02-03 17:43:57,
-13784,-856,-2552,3557,1283,1691,2025-02-03 17:43:57,0.0
-13512,-632,-2444,2705,921,1370,2025-02-03 17:43:57,0.0
-13620,-832,-1732,1893,625,998,2025-02-03 17:43:57,0.0
-13680,-1484,-1336,1163,163,929,2025-02-03 17:43:57,0.0
-13412,-2020,-1248,710,-192,1003,2025-02-03 17:43:57,0.0
-13236,-2176,-1104,498,-306,1086,2025-02-03 17:43:57,0.0
-13012,-1972,-1108,206,-251,1169,2025-02-03 17:43:57,0.0
-12916,-1352,-1244,-259,60,1256,2025-02-03 17:43:57,0.0
-12940,-724,-1692,-666,477,1220,2025-02-03 17:43:57,0.0
-13092,-472,-1920,-1027,702,1250,2025-02-03 17:43:57,0.0
-13532,-256,-2268,-1304,836,1378,2025-02-03 17:43:57,0.0
-14468,-604,-2780,-1640,1731,1675,2025-02-03 17:43:57,0.0
-15152,-744,-3164,-1902,2718,1892,2025-02-03 17:43:57,0.0
-15152,-1132,-3128,-2213,2356,1783,2025-02-03 17:43:57,0.0
-14640,-2068,-2180,-2092,1492,925,2025-02-03 17:43:57,0.0
-14632,-2552,-996,-1689,-626,92,2025-02-03 17:43:58,0.0
-14452,-1984,-1076,-1165,-2805,-38,2025-02-03 17:43:58,0.0
-13604,-1288,-1456,-740,-3617,130,2025-02-03 17:43:58,0.0
-12900,-548,-1620,-517,-3124,351,2025-02-03 17:43:58,0.0
-12144,-244,-1544,-451,-1919,484,2025-02-03 17:43:58,0.0
-11656,-504,-1564,-483,-18,395,2025-02-03 17:43:58,0.0
-11800,-944,-1492,-412,1199,338,2025-02-03 17:43:58,0.0
-12324,-1380,-1056,-172,2122,335,2025-02-03 17:43:58,0.0
-13032,-1544,-968,276,2928,431,2025-02-03 17:43:58,0.0
-13528,-1448,-856,761,3111,502,2025-02-03 17:43:58,0.0
-13992,-912,-1384,1046,2470,518,2025-02-03 17:43:58,0.0
-14140,260,-2024,986,1344,404,2025-02-03 17:43:58,0.0
-13820,784,-2628,739,375,257,2025-02-03 17:43:58,0.0
-13552,848,-2788,424,-162,123,2025-02-03 17:43:58,0.0
-13156,600,-2972,121,-208,112,2025-02-03 17:43:58,0.0
-12948,52,-3188,-101,54,-16,2025-02-03 17:43:58,0.0
-13044,-516,-2652,-194,946,-204,2025-02-03 17:43:58,0.0
-13312,-732,-2124,-204,1923,-517,2025-02-03 17:43:58,0.0
-14120,-368,-1692,-217,1932,-772,2025-02-03 17:43:58,0.0
-14392,-56,-1688,-461,1103,-877,2025-02-03 17:43:58,0.0
-14692,124,-1748,-788,-141,-978,2025-02-03 17:43:58,0.0
-14544,224,-1968,-1193,-1120,-1148,2025-02-03 17:43:58,0.0
-14260,-136,-1972,-1477,-1985,-1371,2025-02-03 17:43:58,0.0
-13800,-492,-2008,-1591,-2473,-1461,2025-02-03 17:43:58,0.0
-13440,-844,-2140,-1546,-2584,-1319,2025-02-03 17:43:58,0.0
-12928,-1260,-1728,-1326,-2383,-1064,2025-02-03 17:43:58,0.0
-12416,-1440,-1776,-882,-1876,-668,2025-02-03 17:43:58,0.0
-11912,-1836,-1736,-412,-1322,-275,2025-02-03 17:43:58,0.0
-11628,-2184,-1024,135,-280,61,2025-02-03 17:43:58,0.0
-11748,-2764,-952,950,2530,68,2025-02-03 17:43:58,0.0
-12700,-2708,-512,1664,5387,-428,2025-02-03 17:43:58,0.0
-14128,-2448,-408,2032,5583,-673,2025-02-03 17:43:58,0.0
-15404,-1664,188,1950,3902,-543,2025-02-03 17:43:58,0.0
-15904,-560,544,1522,1541,-456,2025-02-03 17:43:58,0.0
-15360,84,52,561,-303,-1129,2025-02-03 17:43:58,0.0
-14132,592,-1244,-769,-1566,-2409,2025-02-03 17:43:58,0.0
-13724,808,-1872,-2104,-1952,-3436,2025-02-03 17:43:58,0.0
-12900,-44,-1832,-3130,-1719,-4010,2025-02-03 17:43:58,0.0
-13096,-1588,-940,-3818,279,-3859,2025-02-03 17:43:58,0.0
-13480,-2356,-116,-3614,1596,-3202,2025-02-03 17:43:58,0.0
-13548,-3104,232,-3321,1894,-2643,2025-02-03 17:43:58,0.0
-13704,-3600,584,-3106,1277,-2448,2025-02-03 17:43:58,0.0
-13772,-3760,1024,-2659,72,-2491,2025-02-03 17:43:58,0.0
-14020,-3416,1280,-2364,-1656,-2263,2025-02-03 17:43:58,0.0
-13704,-2776,1152,-2249,-3048,-1722,2025-02-03 17:43:58,0.0
-13412,-2108,828,-2266,-3749,-1143,2025-02-03 17:43:58,0.0
-12688,-1108,644,-3093,-3395,-167,2025-02-03 17:43:58,0.0
-11796,-1352,656,-3982,-2002,697,2025-02-03 17:43:59,0.0
-11816,-1716,544,-4241,-1250,832,2025-02-03 17:43:59,0.0
-11808,-2092,440,-4400,138,886,2025-02-03 17:43:59,0.0
-12312,-2208,-420,-4462,1445,996,2025-02-03 17:43:59,0.0
-12852,-1952,-1532,-4465,2473,836,2025-02-03 17:43:59,0.0
-13340,-1832,-2152,-4633,2962,421,2025-02-03 17:43:59,0.0
-13680,-1900,-2176,-4807,2978,-232,2025-02-03 17:43:59,0.0
-15312,-4560,-292,-4631,1660,-1438,2025-02-03 17:43:59,0.0
-16168,-5188,352,-4240,2097,-918,2025-02-03 17:43:59,0.0
-13728,-2952,-1748,1007,54,-1366,2025-02-03 17:43:59,0.0
-14068,-2496,-2232,1281,995,-2027,2025-02-03 17:43:59,0.0
-15840,-1964,-2660,1631,850,-1779,2025-02-03 17:43:59,0.0
-16048,-1000,-4048,1834,-1022,-915,2025-02-03 17:44:01,0.0
-16496,280,-5172,1361,-4696,836,2025-02-03 17:44:01,0.0
-14740,1060,-6108,1056,-8496,3179,2025-02-03 17:44:01,0.0
-16300,1296,-2204,3483,6430,3585,2025-02-03 17:44:01,0.0
-16764,1140,-2948,3457,1510,4574,2025-02-03 17:44:01,0.0
-15696,1040,-3640,2829,-3138,4894,2025-02-03 17:44:01,0.0
-14756,548,-3148,2297,-5483,4781,2025-02-03 17:44:01,0.0
-10520,-1476,-6852,2665,7180,-412,2025-02-03 17:44:01,0.0
-11176,-496,-6804,2471,13725,-518,2025-02-03 17:44:01,0.0
-12824,540,-3952,-1778,-552,-2561,2025-02-03 17:44:01,0.0
-12644,-196,-4168,-2347,374,-2588,2025-02-03 17:44:01,0.0
-12596,-564,-4076,-2662,837,-2557,2025-02-03 17:44:01,0.0
-12776,-1012,-3796,-2794,1022,-2530,2025-02-03 17:44:01,0.0
-12856,-788,-3228,-2760,1017,-2430,2025-02-03 17:44:01,0.0
-13016,-476,-2608,-2767,952,-2247,2025-02-03 17:44:01,0.0
-13204,-444,-2728,-2952,908,-2176,2025-02-03 17:44:01,0.0
-13288,-460,-3100,-3293,807,-2319,2025-02-03 17:44:01,0.0
-12808,-620,-3964,-3709,504,-2498,2025-02-03 17:44:01,0.0
-13220,-960,-3820,-4223,-253,-2504,2025-02-03 17:44:01,0.0
-12908,-1312,-3972,-4632,-854,-2421,2025-02-03 17:44:01,0.0
-12516,-1388,-4028,-5163,-689,-2344,2025-02-03 17:44:01,0.0
-12168,-1420,-4084,-5860,-33,-2358,2025-02-03 17:44:01,0.0
-12204,-1428,-4316,-6684,681,-2284,2025-02-03 17:44:01,0.0
-12404,-1312,-4360,-7539,1359,-2137,2025-02-03 17:44:01,0.0
-12528,-1280,-4104,-8349,1986,-2207,2025-02-03 17:44:01,0.0
-12920,-1324,-4580,-9077,2291,-2705,2025-02-03 17:44:01,
-13300,-1376,-4604,-9826,2254,-3522,2025-02-03 17:44:01,0.0
-13660,-1740,-4476,-10494,1590,-4296,2025-02-03 17:44:01,0.0
-14260,-1680,-3932,-11260,-255,-4788,2025-02-03 17:44:01,0.0
-13956,-1660,-3656,-11975,-2204,-4795,2025-02-03 17:44:01,0.0
-13352,-1456,-3996,-12903,-3710,-4784,2025-02-03 17:44:02,0.0
-12780,-1516,-4328,-13815,-4557,-4748,2025-02-03 17:44:02,0.0
-12268,-1572,-4640,-14602,-4733,-4659,2025-02-03 17:44:02,0.0
-11940,-1728,-4660,-15221,-4538,-4511,2025-02-03 17:44:02,0.0
-11720,-1848,-4408,-15813,-3823,-4370,2025-02-03 17:44:02,0.0
-11780,-1588,-3988,-16183,-2858,-4215,2025-02-03 17:44:02,0.0
-12172,-1640,-3564,-16421,-1732,-4069,2025-02-03 17:44:02,0.0
-12816,-1976,-3584,-16690,-930,-4051,2025-02-03 17:44:02,0.0
-13944,-2232,-3844,-16987,-941,-4034,2025-02-03 17:44:02,0.0
-14768,-2492,-4120,-17932,-3646,-3413,2025-02-03 17:44:02,0.0
-13476,-2280,-4148,-18411,-4657,-3195,2025-02-03 17:44:02,0.0
-12436,-1672,-4020,-18750,-4632,-3181,2025-02-03 17:44:02,0.0
-11960,-1088,-3744,-19111,-3512,-3157,2025-02-03 17:44:02,0.0
-11644,-1072,-3540,-19376,-2064,-3139,2025-02-03 17:44:02,0.0
-11764,-1660,-3004,-19485,-898,-3199,2025-02-03 17:44:02,0.0
-12124,-2556,-2288,-19442,-192,-3336,2025-02-03 17:44:02,0.0
-13120,-3816,-1524,-19095,87,-3438,2025-02-03 17:44:02,0.0
-13724,-4204,-1328,-18788,-235,-3374,2025-02-03 17:44:02,0.0
-14156,-3948,-1428,-18544,-720,-3258,2025-02-03 17:44:02,0.0
-14296,-3388,-1752,-18413,-1350,-3110,2025-02-03 17:44:02,0.0
-14088,-2624,-1572,-18440,-2226,-2763,2025-02-03 17:44:02,0.0
-13400,-2644,-1304,-18247,-2861,-2332,2025-02-03 17:44:02,0.0
-13048,-2888,-1216,-17771,-3318,-1618,2025-02-03 17:44:02,0.0
-12896,-3552,-1208,-17199,-3402,-909,2025-02-03 17:44:02,0.0
-12860,-4064,-1640,-16670,-3104,-683,2025-02-03 17:44:02,0.0
-13496,-4428,-1824,-15846,-2801,-603,2025-02-03 17:44:02,0.0
-14216,-4620,-2396,-14603,-2634,-421,2025-02-03 17:44:02,0.0
-14184,-4452,-2820,-13423,-3675,-419,2025-02-03 17:44:02,0.0
-13828,-4060,-2680,-12372,-5052,-649,2025-02-03 17:44:02,0.0
-13140,-3756,-3000,-11423,-5410,-978,2025-02-03 17:44:02,0.0
-12756,-3244,-3636,-10422,-5058,-1301,2025-02-03 17:44:02,0.0
-12180,-2628,-4664,-9690,-3952,-1818,2025-02-03 17:44:02,0.0
-12296,-1492,-5016,-9654,-1812,-2192,2025-02-03 17:44:02,0.0
-12640,1140,-3196,-10135,526,-2038,2025-02-03 17:44:02,0.0
-13328,3944,-2024,-11255,2100,-732,2025-02-03 17:44:02,0.0
-13992,5936,-1448,-12137,3105,916,2025-02-03 17:44:02,0.0
-14316,5720,-3616,-12496,4018,1545,2025-02-03 17:44:02,0.0
-14232,3160,-5224,-13820,4561,968,2025-02-03 17:44:02,0.0
-14400,772,-3760,-15430,4521,-115,2025-02-03 17:44:02,0.0
-15344,-476,-1704,-15743,3592,-487,2025-02-03 17:44:02,0.0
-15816,-540,-404,-15585,1775,-158,2025-02-03 17:44:02,0.0
-15252,84,-60,-15403,-134,98,2025-02-03 17:44:02,0.0
-14024,1144,-36,-15807,-2125,-185,2025-02-03 17:44:02,0.0
-13660,2368,312,-16012,-3156,-176,2025-02-03 17:44:02,0.0
-13496,3600,-264,-15926,-2961,443,2025-02-03 17:44:02,0.0
-12520,3696,-1352,-15720,-1834,680,2025-02-03 17:44:02,0.0
-11776,2220,-1564,-15409,-138,2,2025-02-03 17:44:02,0.0
-11700,268,-912,-14951,1380,-1051,2025-02-03 17:44:02,0.0
-12020,-836,244,-14270,2242,-1715,2025-02-03 17:44:02,0.0
-12184,-1500,1388,-13532,2534,-1998,2025-02-03 17:44:02,0.0
-12332,-1020,996,-12990,2273,-2210,2025-02-03 17:44:02,0.0
-12644,188,584,-12597,2021,-2440,2025-02-03 17:44:02,0.0
-13096,1240,-36,-12309,1996,-2514,2025-02-03 17:44:02,0.0
-13508,2620,-1280,-12836,1406,-2649,2025-02-03 17:44:02,0.0
-13600,2652,-1816,-13433,541,-2754,2025-02-03 17:44:02,0.0
-13672,2372,-2272,-14148,-433,-2788,2025-02-03 17:44:02,0.0
-13672,2436,-1844,-14855,-1046,-2566,2025-02-03 17:44:02,0.0
-13388,3040,-1392,-15401,-1096,-2216,2025-02-03 17:44:02,0.0
-12992,3520,-1520,-15977,-663,-2055,2025-02-03 17:44:02,0.0
-12756,3264,-2100,-16493,101,-2339,2025-02-03 17:44:02,0.0
-12628,2468,-3040,-16919,423,-2814,2025-02-03 17:44:02,0.0
-12372,1572,-3252,-17348,133,-3300,2025-02-03 17:44:02,0.0
-12264,904,-2500,-17537,4,-3477,2025-02-03 17:44:02,0.0
-12568,472,-1752,-17225,701,-3463,2025-02-03 17:44:02,0.0
-13060,416,-1372,-16676,1861,-3305,2025-02-03 17:44:02,0.0
-13556,432,-1676,-16374,2646,-3388,2025-02-03 17:44:03,0.0
-14324,900,-2100,-16217,2454,-3543,2025-02-03 17:44:03,0.0
-14752,1400,-1932,-15949,1427,-3437,2025-02-03 17:44:03,0.0
-14832,1660,-1836,-15597,234,-3183,2025-02-03 17:44:03,0.0
-14576,1824,-1656,-15294,-518,-2811,2025-02-03 17:44:03,0.0
-14184,1188,-1300,-15029,-833,-2698,2025-02-03 17:44:03,0.0
-13820,-16,-620,-14412,-1235,-2709,2025-02-03 17:44:03,0.0
-13548,-904,-96,-13713,-1358,-2596,2025-02-03 17:44:03,0.0
-13240,-1692,556,-12801,-1129,-2361,2025-02-03 17:44:03,0.0
-12752,-1788,888,-11736,-525,-2172,2025-02-03 17:44:03,0.0
-12216,-1300,1152,-10382,615,-2139,2025-02-03 17:44:03,0.0
-12520,-540,752,-9428,1815,-2303,2025-02-03 17:44:03,0.0
-13112,116,520,-8810,2579,-2501,2025-02-03 17:44:03,0.0
-13720,144,740,-8433,2612,-2656,2025-02-03 17:44:03,0.0
-14196,-308,952,-7781,1731,-2895,2025-02-03 17:44:03,0.0
-14348,-1036,1168,-7039,427,-3119,2025-02-03 17:44:03,0.0
-14512,-1476,1112,-6268,-466,-3195,2025-02-03 17:44:03,0.0
-14988,-1404,280,-5592,-504,-2874,2025-02-03 17:44:03,0.0
-15140,-1036,-808,-5183,-178,-2325,2025-02-03 17:44:03,0.0
-14756,-312,-1408,-5020,122,-1769,2025-02-03 17:44:03,0.0
