acceleration_x,acceleration_y,acceleration_z,gyroscope_x,gyroscope_y,gyroscope_z,timestamp,label
-13200,-1256,-3024,-40,172,-249,2025-02-03 17:27:21,0.0
-13068,-1360,-3336,48,36,-257,2025-02-03 17:27:21,0.0
-13168,-1256,-3556,20,-91,-238,2025-02-03 17:27:21,0.0
-13088,-1112,-3564,21,-137,-227,2025-02-03 17:27:21,0.0
-12996,-980,-3760,9,4,-204,2025-02-03 17:27:21,0.0
-13032,-884,-3788,-46,218,-166,2025-02-03 17:27:21,0.0
-13072,-1024,-3720,-122,315,-165,2025-02-03 17:27:21,0.0
-13096,-1020,-3484,-142,280,-126,2025-02-03 17:27:21,0.0
-13032,-1212,-3568,-193,111,-155,2025-02-03 17:27:21,0.0
-12992,-1196,-3412,-227,-98,-214,2025-02-03 17:27:21,0.0
-12928,-1220,-3552,-179,-145,-203,2025-02-03 17:27:21,0.0
-12844,-1148,-3472,-277,181,-191,2025-02-03 17:27:21,0.0
-13092,-1224,-3672,-324,150,-238,2025-02-03 17:27:21,0.0
-13116,-1216,-3592,-286,189,-270,2025-02-03 17:27:21,0.0
-13208,-1356,-3612,-258,134,-229,2025-02-03 17:27:21,0.0
-13048,-1296,-3312,-168,-86,-197,2025-02-03 17:27:21,0.0
-12928,-1180,-3468,-167,-145,-212,2025-02-03 17:27:21,0.0
-12968,-1200,-3520,-166,48,-260,2025-02-03 17:27:21,0.0
-12972,-1168,-3496,-164,191,-243,2025-02-03 17:27:21,0.0
-12964,-1176,-3472,-90,136,-205,2025-02-03 17:27:21,0.0
-12992,-1112,-3488,-89,147,-208,2025-02-03 17:27:21,0.0
-12968,-1260,-3568,-120,324,-246,2025-02-03 17:27:21,0.0
-12988,-1048,-3416,-163,396,-217,2025-02-03 17:27:21,0.0
-13052,-1092,-3544,-152,203,-198,2025-02-03 17:27:21,0.0
-12960,-1188,-3476,-171,100,-189,2025-02-03 17:27:21,0.0
-13000,-1084,-3216,-212,239,-231,2025-02-03 17:27:21,0.0
-13016,-1148,-3544,-163,391,-275,2025-02-03 17:27:21,0.0
-13136,-1248,-3572,-176,390,-259,2025-02-03 17:27:21,0.0
-13184,-1244,-3512,-129,142,-250,2025-02-03 17:27:22,0.0
-13164,-1288,-3704,-140,-102,-177,2025-02-03 17:27:22,0.0
-13004,-1216,-3508,-215,-150,-215,2025-02-03 17:27:22,0.0
-13020,-1080,-3436,-191,206,-196,2025-02-03 17:27:22,0.0
-13108,-1276,-3212,-168,260,-217,2025-02-03 17:27:22,0.0
-13084,-1248,-3344,-121,179,-195,2025-02-03 17:27:22,0.0
-13028,-1396,-3500,-100,-103,-178,2025-02-03 17:27:22,0.0
-12988,-1384,-3456,-73,-186,-181,2025-02-03 17:27:22,0.0
-12940,-1160,-3576,-72,-31,-175,2025-02-03 17:27:22,0.0
-12940,-1136,-3744,-37,114,-189,2025-02-03 17:27:22,0.0
-12988,-1368,-3472,-61,168,-137,2025-02-03 17:27:22,0.0
-13068,-1304,-3424,31,199,-129,2025-02-03 17:27:22,0.0
-13100,-1284,-3448,136,170,-105,2025-02-03 17:27:22,0.0
-13124,-1176,-3372,173,157,-39,2025-02-03 17:27:22,0.0
-13092,-1156,-3288,217,136,27,2025-02-03 17:27:22,0.0
-13172,-1228,-3184,266,190,72,2025-02-03 17:27:22,0.0
-13280,-1064,-3424,263,425,209,2025-02-03 17:27:22,0.0
-13236,-328,-3552,185,625,351,2025-02-03 17:27:22,0.0
-13156,104,-3612,-51,874,451,2025-02-03 17:27:22,0.0
-12992,108,-3688,-302,1182,416,2025-02-03 17:27:22,0.0
-12936,-12,-3596,-458,1332,402,2025-02-03 17:27:22,0.0
-12612,-684,-3584,-554,1291,334,2025-02-03 17:27:22,0.0
-12160,-864,-3688,-665,1089,-261,2025-02-03 17:27:22,0.0
-12892,-860,-3404,-472,1275,-557,2025-02-03 17:27:22,0.0
-13428,-756,-3092,-89,1462,-478,2025-02-03 17:27:22,0.0
-13460,-396,-2956,178,1305,-426,2025-02-03 17:27:22,0.0
-13744,-288,-2844,186,704,-448,2025-02-03 17:27:22,0.0
-13984,-392,-2956,37,-181,-479,2025-02-03 17:27:22,0.0
-13504,-576,-3532,-300,-1386,-803,2025-02-03 17:27:22,0.0
-13272,-704,-3700,-601,-2173,-1172,2025-02-03 17:27:22,0.0
-13060,-392,-3896,-807,-2351,-1328,2025-02-03 17:27:22,0.0
-12532,-376,-4012,-960,-2238,-1406,2025-02-03 17:27:22,0.0
-12540,-840,-3460,-1013,-1759,-1399,2025-02-03 17:27:22,0.0
-12820,-1116,-3164,-872,-745,-1222,2025-02-03 17:27:22,0.0
-13004,-1268,-2880,-647,-134,-1053,2025-02-03 17:27:22,0.0
-12916,-1372,-3404,-609,-194,-1058,2025-02-03 17:27:22,0.0
-13016,-1472,-2980,-750,-737,-1287,2025-02-03 17:27:22,0.0
-13048,-1344,-3260,-758,-999,-1522,2025-02-03 17:27:22,0.0
-13252,-1464,-3196,-754,-948,-1665,2025-02-03 17:27:22,0.0
-13076,-1572,-3608,-776,-843,-1840,2025-02-03 17:27:22,0.0
-13000,-1812,-3700,-704,-554,-2036,2025-02-03 17:27:22,0.0
-13044,-1992,-3444,-665,-252,-2167,2025-02-03 17:27:22,0.0
-12996,-2032,-3404,-491,-258,-2233,2025-02-03 17:27:22,0.0
-13224,-2064,-3036,-379,-662,-2256,2025-02-03 17:27:22,0.0
-12908,-2124,-2184,-223,-336,-1959,2025-02-03 17:27:22,0.0
-12964,-1912,-2296,-334,-194,-1635,2025-02-03 17:27:22,0.0
-12984,-1824,-2128,-385,-225,-1417,2025-02-03 17:27:22,0.0
-12752,-2120,-1992,-571,-121,-1376,2025-02-03 17:27:22,0.0
-12912,-2524,-1672,-909,399,-1499,2025-02-03 17:27:22,0.0
-13000,-2864,-1700,-1173,1303,-1841,2025-02-03 17:27:22,0.0
-13460,-2956,-1816,-1381,1870,-2207,2025-02-03 17:27:22,0.0
-13984,-2872,-1744,-1226,1477,-2437,2025-02-03 17:27:22,0.0
-14120,-2980,-1732,-1149,319,-2349,2025-02-03 17:27:22,0.0
-13840,-2916,-1308,-1070,-915,-2281,2025-02-03 17:27:22,0.0
-13400,-2856,-1316,-1003,-1947,-2214,2025-02-03 17:27:22,0.0
-12716,-2832,-1692,-1006,-2577,-2133,2025-02-03 17:27:22,0.0
-12508,-2972,-1728,-1015,-2452,-1919,2025-02-03 17:27:22,0.0
-12732,-3052,-1648,-1108,-1582,-1488,2025-02-03 17:27:22,0.0
-12716,-2768,-1456,-1142,-627,-986,2025-02-03 17:27:22,0.0
-12452,-2484,-1356,-1232,-129,-622,2025-02-03 17:27:23,0.0
-12660,-2608,-1296,-1455,-95,-527,2025-02-03 17:27:23,0.0
-13020,-2716,-976,-1610,-163,-495,2025-02-03 17:27:23,0.0
-13204,-2804,-1060,-1632,-188,-277,2025-02-03 17:27:23,0.0
-13164,-3100,-1176,-1604,-240,59,2025-02-03 17:27:23,0.0
-12816,-3324,-1640,-1541,-340,222,2025-02-03 17:27:23,0.0
-12512,-2928,-1944,-1612,-110,136,2025-02-03 17:27:23,0.0
-12796,-2344,-1788,-1941,484,-115,2025-02-03 17:27:23,0.0
-13056,-1840,-1768,-2367,1064,-277,2025-02-03 17:27:23,0.0
-13496,-1920,-1768,-2871,1066,-315,2025-02-03 17:27:23,0.0
-13364,-2272,-1812,-3281,482,-324,2025-02-03 17:27:23,0.0
-13260,-2836,-1832,-3398,-31,-410,2025-02-03 17:27:23,0.0
-12820,-3276,-1716,-3430,-271,-547,2025-02-03 17:27:23,
-12548,-3624,-1764,-3382,-34,-653,2025-02-03 17:27:23,0.0
-12400,-4032,-1604,-3551,738,-873,2025-02-03 17:27:23,0.0
-12876,-3892,-1352,-3858,1672,-1403,2025-02-03 17:27:23,0.0
-13808,-3392,-1316,-4110,1825,-1613,2025-02-03 17:27:23,0.0
-14348,-2908,-904,-4138,1036,-1337,2025-02-03 17:27:23,0.0
-14424,-2960,-1052,-4076,-445,-839,2025-02-03 17:27:23,0.0
-14168,-3472,-1272,-4073,-1171,-495,2025-02-03 17:27:23,0.0
-13820,-4196,-1256,-4073,-728,-443,2025-02-03 17:27:23,0.0
-13836,-4852,-1576,-3857,473,-606,2025-02-03 17:27:23,0.0
-14304,-5216,-2608,-3369,2221,-1042,2025-02-03 17:27:23,0.0
-14736,-5944,-3368,-2885,4926,-2136,2025-02-03 17:27:23,0.0
-15656,-6404,-2956,-2167,5729,-3292,2025-02-03 17:27:23,0.0
-17020,-5844,-2520,-937,3662,-3229,2025-02-03 17:27:23,0.0
-12956,-3240,-2432,2178,-5437,4175,2025-02-03 17:27:23,0.0
-11680,-2872,-4820,2653,-1266,4897,2025-02-03 17:27:23,0.0
-11696,-1520,-6588,1929,3308,3158,2025-02-03 17:27:23,0.0
-12420,-1024,-6364,1682,1800,2369,2025-02-03 17:27:23,0.0
-12708,-80,-5800,1340,-969,2537,2025-02-03 17:27:23,0.0
-12052,1028,-4636,1271,-3150,3100,2025-02-03 17:27:23,0.0
-10976,1888,-3896,1197,-3352,3208,2025-02-03 17:27:23,0.0
-10468,2064,-4232,709,-1056,2616,2025-02-03 17:27:23,0.0
-11132,1212,-4464,25,1951,1891,2025-02-03 17:27:23,0.0
-12888,172,-3772,-395,3810,1740,2025-02-03 17:27:23,0.0
-14584,-536,-2900,-124,4190,2290,2025-02-03 17:27:23,0.0
-15280,-1072,-2624,418,3017,3230,2025-02-03 17:27:23,0.0
-14844,-1040,-2992,768,385,3585,2025-02-03 17:27:23,0.0
-13484,-988,-3540,806,-2443,3419,2025-02-03 17:27:23,0.0
-12496,-796,-3192,671,-4277,3105,2025-02-03 17:27:23,0.0
-11792,-640,-2524,853,-4407,2878,2025-02-03 17:27:23,0.0
-11544,-548,-1748,1227,-3009,2873,2025-02-03 17:27:23,0.0
-11332,-480,-1660,1606,-1118,2944,2025-02-03 17:27:23,0.0
-11832,-280,-1652,1849,685,2967,2025-02-03 17:27:23,0.0
-12524,4,-1608,2132,1540,2962,2025-02-03 17:27:23,0.0
-12860,736,-2272,2111,-473,2858,2025-02-03 17:27:23,0.0
-12500,1412,-1736,1785,-2301,2280,2025-02-03 17:27:23,0.0
-12340,1716,-1108,1790,-2975,1470,2025-02-03 17:27:23,0.0
-12564,1168,-1044,1755,-2745,698,2025-02-03 17:27:23,0.0
-12568,728,-712,1574,-2513,247,2025-02-03 17:27:23,0.0
-12212,480,-1432,1391,-3056,-257,2025-02-03 17:27:23,0.0
-11520,180,-2500,1017,-4167,-883,2025-02-03 17:27:23,0.0
-11020,264,-2348,655,-4497,-1542,2025-02-03 17:27:23,0.0
-11232,944,-1292,573,-3467,-1939,2025-02-03 17:27:23,0.0
-12064,1784,308,719,-1391,-2043,2025-02-03 17:27:23,0.0
-13352,1372,696,932,448,-2020,2025-02-03 17:27:23,0.0
-14588,168,368,1078,601,-1669,2025-02-03 17:27:24,0.0
-15104,-1256,-208,1386,-192,-1102,2025-02-03 17:27:24,0.0
-14784,-2532,-436,2157,-1408,-242,2025-02-03 17:27:24,0.0
-14100,-2852,260,3183,-1873,414,2025-02-03 17:27:24,0.0
-13436,-2568,600,4337,-1353,757,2025-02-03 17:27:24,0.0
-13056,-2124,528,5338,29,955,2025-02-03 17:27:24,0.0
-13212,-1176,392,6242,1662,1216,2025-02-03 17:27:24,0.0
-13544,-356,128,6652,2646,1468,2025-02-03 17:27:24,0.0
-13972,304,108,6626,2764,1525,2025-02-03 17:27:24,0.0
-14824,1524,416,6523,2333,1524,2025-02-03 17:27:24,0.0
-15560,2520,88,6617,2079,1664,2025-02-03 17:27:24,0.0
-14780,3400,-2528,5409,5155,1173,2025-02-03 17:27:24,0.0
-16856,2556,-2932,4401,6732,1285,2025-02-03 17:27:24,0.0
-19044,1972,-3680,3112,8718,1934,2025-02-03 17:27:24,0.0
-20036,1832,-4368,1481,9308,2756,2025-02-03 17:27:24,0.0
-18244,2132,-5484,-474,6592,2910,2025-02-03 17:27:24,0.0
-15480,2504,-5488,-1436,443,1491,2025-02-03 17:27:24,0.0
-13400,1068,-5132,-1892,-6613,-755,2025-02-03 17:27:24,0.0
-12068,-556,-3892,-2509,-10448,-2368,2025-02-03 17:27:24,0.0
-10460,-1840,-2700,-2772,-11454,-3566,2025-02-03 17:27:24,0.0
-9172,-2792,-2020,-2386,-10571,-4384,2025-02-03 17:27:24,0.0
-8544,-3208,-2536,-1339,-8107,-4399,2025-02-03 17:27:24,0.0
-9464,-3272,-3196,-24,-4376,-3532,2025-02-03 17:27:24,0.0
-10676,-3236,-4412,956,1393,-1532,2025-02-03 17:27:24,0.0
-11240,-1924,-4812,1122,8415,403,2025-02-03 17:27:24,0.0
-12096,-788,-3828,1106,13417,604,2025-02-03 17:27:24,0.0
-13296,-324,-2808,649,15149,-433,2025-02-03 17:27:24,0.0
-14408,-408,-2624,-146,12691,-2094,2025-02-03 17:27:24,0.0
-15136,-608,-3388,-937,7621,-3456,2025-02-03 17:27:24,0.0
-14880,-844,-5284,-1800,980,-4329,2025-02-03 17:27:24,0.0
-14692,-992,-5792,-2261,-5140,-4682,2025-02-03 17:27:24,0.0
-13392,-1052,-5800,-2404,-8712,-4401,2025-02-03 17:27:24,0.0
-12296,-1256,-4688,-2638,-10433,-3888,2025-02-03 17:27:24,0.0
-11128,-1372,-4132,-3104,-9454,-3432,2025-02-03 17:27:24,0.0
-9804,-1472,-3420,-3399,-6134,-3295,2025-02-03 17:27:24,0.0
-9324,-1636,-3312,-3440,-1823,-3508,2025-02-03 17:27:24,0.0
-9628,-1800,-3724,-3542,2027,-4015,2025-02-03 17:27:24,0.0
-10816,-1932,-3440,-3812,4538,-4544,2025-02-03 17:27:24,0.0
-12324,-2236,-2768,-3758,5404,-4795,2025-02-03 17:27:24,0.0
-13684,-2672,-1548,-3363,4738,-4523,2025-02-03 17:27:24,0.0
-12324,-1336,-2364,-842,-1016,-793,2025-02-03 17:27:25,0.0
-12392,-4300,-144,-2740,2225,-513,2025-02-03 17:27:25,0.0
-13688,-3264,452,-2747,3673,-821,2025-02-03 17:27:25,0.0
-14772,-2428,584,-2716,3799,-575,2025-02-03 17:27:25,0.0
-15440,-2128,452,-2655,2832,-187,2025-02-03 17:27:25,0.0
-15092,-2504,-160,-2686,1552,-78,2025-02-03 17:27:25,0.0
-15024,-3044,-32,-2603,563,177,2025-02-03 17:27:25,0.0
-14608,-3164,264,-2521,46,473,2025-02-03 17:27:25,0.0
-14180,-3004,496,-2680,232,658,2025-02-03 17:27:25,0.0
-13924,-2384,-1900,-2556,2436,396,2025-02-03 17:27:25,0.0
-11328,-276,-3292,42,-1956,2365,2025-02-03 17:27:25,0.0
-11308,-68,-3528,566,-1074,2367,2025-02-03 17:27:25,0.0
-11172,36,-3664,1123,232,2549,2025-02-03 17:27:25,0.0
-11392,76,-3260,1528,1779,2722,2025-02-03 17:27:25,0.0
-11896,328,-2736,1824,2819,2775,2025-02-03 17:27:25,0.0
-12520,768,-2784,2045,3216,2787,2025-02-03 17:27:25,
-13004,1076,-3124,2016,2989,2796,2025-02-03 17:27:25,0.0
-13180,900,-3248,1844,2287,2499,2025-02-03 17:27:25,0.0
-12860,920,-3444,1583,1112,1880,2025-02-03 17:27:25,0.0
-12988,1976,-3176,1409,-578,1407,2025-02-03 17:27:25,0.0
-12304,1732,-3336,1644,-741,1472,2025-02-03 17:27:25,0.0
-11728,1008,-3540,1626,-655,1225,2025-02-03 17:27:25,0.0
-11484,548,-3360,1646,-164,773,2025-02-03 17:27:25,0.0
-11692,184,-2924,1908,483,420,2025-02-03 17:27:25,0.0
-11992,-108,-2772,2369,1199,117,2025-02-03 17:27:25,0.0
-12308,-384,-2692,2659,1344,-158,2025-02-03 17:27:25,0.0
-12336,-576,-2360,3050,836,-540,2025-02-03 17:27:25,0.0
-12184,-608,-1896,3553,177,-938,2025-02-03 17:27:25,0.0
-11984,-624,-1988,4009,-270,-1259,2025-02-03 17:27:25,0.0
-11748,-732,-2428,4359,-15,-1500,2025-02-03 17:27:25,0.0
-12088,-756,-2888,4794,1276,-1774,2025-02-03 17:27:25,0.0
-12208,-1032,-3344,5111,2494,-1981,2025-02-03 17:27:25,0.0
-12304,-996,-3772,4932,3012,-2416,2025-02-03 17:27:25,0.0
-12568,-112,-4444,4516,3022,-2974,2025-02-03 17:27:26,0.0
-13364,904,-5496,4019,3038,-3438,2025-02-03 17:27:26,0.0
-14608,980,-6144,3408,3575,-3423,2025-02-03 17:27:26,0.0
-15420,-136,-6048,2951,4640,-3024,2025-02-03 17:27:26,0.0
-15508,-1540,-5364,2558,4746,-2540,2025-02-03 17:27:26,0.0
-14940,-2148,-4452,2431,2729,-2181,2025-02-03 17:27:26,0.0
-13296,-1200,-4608,3653,-4073,-1541,2025-02-03 17:27:26,0.0
-12240,-772,-5040,3598,-3083,-788,2025-02-03 17:27:26,0.0
-11548,-308,-4764,3055,-1713,-126,2025-02-03 17:27:26,0.0
-11312,132,-3868,2397,-418,601,2025-02-03 17:27:26,0.0
-11388,-144,-3352,1844,1038,1039,2025-02-03 17:27:26,0.0
-12052,-1068,-3704,1190,1940,1503,2025-02-03 17:27:26,0.0
-12392,-1460,-3200,968,1547,1910,2025-02-03 17:27:26,0.0
-12736,-1540,-3080,899,650,2328,2025-02-03 17:27:26,0.0
-12924,-1024,-3172,824,526,2624,2025-02-03 17:27:26,0.0
-12992,-756,-4208,454,1692,2325,2025-02-03 17:27:26,0.0
-13120,-504,-4828,-23,3005,1393,2025-02-03 17:27:26,0.0
-13588,-408,-4672,-372,3885,132,2025-02-03 17:27:26,0.0
-14180,-548,-4824,-882,3128,-640,2025-02-03 17:27:26,0.0
-14352,-1012,-4880,-1467,320,-740,2025-02-03 17:27:26,0.0
-13800,-1480,-5072,-1978,-2673,-440,2025-02-03 17:27:26,0.0
-13060,-1420,-4856,-2432,-3599,-136,2025-02-03 17:27:26,0.0
-12420,-1280,-4476,-2578,-2858,7,2025-02-03 17:27:26,0.0
-11568,-1528,-3860,-2411,-1237,-119,2025-02-03 17:27:26,0.0
-12572,-2288,-2548,-1024,3218,-587,2025-02-03 17:27:26,0.0
-13344,-1972,-2320,-491,3600,-536,2025-02-03 17:27:26,0.0
-13888,-1756,-2408,-160,3174,-470,2025-02-03 17:27:26,0.0
-14080,-1584,-2776,76,1403,-379,2025-02-03 17:27:26,0.0
-13844,-1412,-3512,192,-750,-293,2025-02-03 17:27:26,0.0
-13416,-1344,-3596,317,-1930,-136,2025-02-03 17:27:26,0.0
-12832,-1204,-4048,492,-1644,144,2025-02-03 17:27:26,0.0
-12172,-912,-4348,441,-216,242,2025-02-03 17:27:26,0.0
-12112,-804,-4480,268,1770,166,2025-02-03 17:27:26,0.0
-12540,-876,-4176,194,2662,96,2025-02-03 17:27:26,0.0
-13000,-1192,-3784,257,2456,46,2025-02-03 17:27:26,0.0
-13392,-1256,-3492,384,1614,33,2025-02-03 17:27:26,0.0
-13356,-1444,-3508,487,689,47,2025-02-03 17:27:26,0.0
-13172,-1368,-3944,469,307,61,2025-02-03 17:27:26,0.0
-12856,-1108,-4100,473,716,117,2025-02-03 17:27:26,0.0
-12588,-640,-4192,307,1574,152,2025-02-03 17:27:26,0.0
-12652,-320,-4232,159,2355,121,2025-02-03 17:27:26,0.0
-12648,-524,-4124,-60,2847,38,2025-02-03 17:27:26,0.0
-13068,-920,-4184,-197,2889,-9,2025-02-03 17:27:26,0.0
-13296,-1644,-3636,-46,2712,-83,2025-02-03 17:27:26,0.0
-13400,-2032,-3408,327,1706,-66,2025-02-03 17:27:26,0.0
-12980,-2032,-3392,651,195,-41,2025-02-03 17:27:27,0.0
-12568,-1896,-3664,885,-663,-146,2025-02-03 17:27:27,0.0
-12768,-1684,-3820,1152,-364,-118,2025-02-03 17:27:27,0.0
-14324,-1300,-3196,2319,-793,254,2025-02-03 17:27:29,0.0
-10848,356,-3556,298,1138,304,2025-02-03 17:27:29,0.0
-10364,196,-3552,136,2399,238,2025-02-03 17:27:29,0.0
-9988,-592,-3012,-111,3399,172,2025-02-03 17:27:29,0.0
-10096,-1156,-2336,-222,4734,31,2025-02-03 17:27:29,0.0
-10684,-1904,-2248,37,6548,-72,2025-02-03 17:27:29,0.0
-8572,-24,60,-3135,-17858,488,2025-02-03 17:27:29,0.0
-8552,4,-1744,-3711,-16004,1796,2025-02-03 17:27:29,0.0
-6460,-720,-2140,-3083,-13854,3268,2025-02-03 17:27:29,0.0
-13772,-792,2224,1922,-5298,-1600,2025-02-03 17:27:29,0.0
-13608,-340,2780,2060,-5715,-1399,2025-02-03 17:27:29,0.0
-13756,-324,2308,2146,-5956,-877,2025-02-03 17:27:29,0.0
-13684,-332,1872,2094,-5503,-124,2025-02-03 17:27:29,0.0
-13692,-704,1856,1760,-4222,345,2025-02-03 17:27:29,0.0
-14036,-1228,2788,1519,-2801,543,2025-02-03 17:27:29,0.0
-14764,-1424,4108,1315,-1679,591,2025-02-03 17:27:29,0.0
-15040,-1684,4244,972,-1397,636,2025-02-03 17:27:29,0.0
-13652,-2268,4948,-1063,37,1560,2025-02-03 17:27:30,0.0
-14340,-1816,3756,-1095,2585,516,2025-02-03 17:27:30,0.0
-15252,-1564,2768,-1343,2821,188,2025-02-03 17:27:30,0.0
-15648,-1520,2332,-1750,1546,292,2025-02-03 17:27:30,0.0
-15064,-1276,1972,-2238,-556,313,2025-02-03 17:27:30,0.0
-14024,-952,2176,-2606,-2134,180,2025-02-03 17:27:30,0.0
-13132,-864,2864,-2878,-2459,26,2025-02-03 17:27:30,0.0
-12144,-860,3720,-2725,-1764,-204,2025-02-03 17:27:30,0.0
-12036,-900,4028,-2670,-305,-270,2025-02-03 17:27:30,0.0
-13096,-1160,3104,-2628,1185,45,2025-02-03 17:27:30,0.0
-14504,-1616,3568,-2718,1703,596,2025-02-03 17:27:30,0.0
-14948,-1824,4480,-2613,416,1232,2025-02-03 17:27:30,0.0
-14732,-1632,6068,-2519,-1931,1851,2025-02-03 17:27:30,0.0
-14472,-1440,6720,-2184,-3586,2255,2025-02-03 17:27:30,0.0
-13612,-1396,6308,-2086,-4997,2657,2025-02-03 17:27:30,0.0
-15872,24,7016,-933,-2216,96,2025-02-03 17:27:30,0.0
-17532,440,7628,-1629,-349,-477,2025-02-03 17:27:30,0.0
-16264,720,9188,-1832,184,-587,2025-02-03 17:27:30,
-16536,1028,8312,-1848,1656,-576,2025-02-03 17:27:30,0.0
-17644,672,8696,-1906,4103,-268,2025-02-03 17:27:30,0.0
-18164,-152,8608,-1688,5166,-159,2025-02-03 17:27:30,0.0
-18616,-640,8704,-1618,4852,201,2025-02-03 17:27:30,0.0
-18816,-236,8088,-1716,3992,905,2025-02-03 17:27:30,0.0
-18380,-516,7528,-1619,3851,1377,2025-02-03 17:27:30,0.0
-17332,-1212,7140,-1246,4295,1096,2025-02-03 17:27:30,0.0
-17132,-1320,6624,-832,5072,801,2025-02-03 17:27:30,0.0
-16376,-508,6652,-470,5336,708,2025-02-03 17:27:30,0.0
-15028,160,6300,-222,5470,670,2025-02-03 17:27:30,0.0
-13928,744,5996,-115,5532,516,2025-02-03 17:27:30,0.0
-13212,604,5840,-67,6014,472,2025-02-03 17:27:30,0.0
-15268,664,4320,217,9369,1405,2025-02-03 17:27:30,0.0
-15152,352,4108,348,8449,1479,2025-02-03 17:27:30,0.0
-14620,340,3976,204,7303,1017,2025-02-03 17:27:30,0.0
-14148,560,3932,296,6174,488,2025-02-03 17:27:30,0.0
-13740,496,3588,381,5471,235,2025-02-03 17:27:30,0.0
-13260,252,3140,463,5390,202,2025-02-03 17:27:30,0.0
-13020,-244,2684,702,6256,-28,2025-02-03 17:27:30,0.0
-13172,-404,1492,459,7391,-150,2025-02-03 17:27:30,0.0
-13392,104,1848,330,8007,-295,2025-02-03 17:27:30,0.0
-13732,428,1612,360,8295,-321,2025-02-03 17:27:30,0.0
-13896,640,984,658,8496,-306,2025-02-03 17:27:30,0.0
-14140,564,-208,523,8422,-200,2025-02-03 17:27:30,0.0
-14052,664,-636,95,8053,-340,2025-02-03 17:27:30,0.0
-13720,620,-1132,-400,7237,-552,2025-02-03 17:27:30,0.0
-13848,660,-872,-723,6028,-792,2025-02-03 17:27:30,0.0
-13852,544,-632,-898,4835,-956,2025-02-03 17:27:30,0.0
-13896,168,-856,-968,3607,-1094,2025-02-03 17:27:30,0.0
-13788,-72,-1224,-1084,2735,-1277,2025-02-03 17:27:30,0.0
-13352,-220,-1288,-1343,1947,-1213,2025-02-03 17:27:30,0.0
-12732,-128,-1496,-1425,1022,-990,2025-02-03 17:27:30,0.0
-11996,-140,-644,-1217,1402,-364,2025-02-03 17:27:30,0.0
-11796,328,-544,-1060,1614,-486,2025-02-03 17:27:30,0.0
-11040,300,-1500,-917,499,-469,2025-02-03 17:27:30,0.0
-10344,88,-2392,-1004,-1318,-394,2025-02-03 17:27:30,0.0
-9728,-100,-2672,-1150,-3168,-449,2025-02-03 17:27:31,0.0
-9348,-60,-2304,-1223,-4007,-423,2025-02-03 17:27:31,0.0
-8680,60,-1724,-1076,-4742,-557,2025-02-03 17:27:31,0.0
-8812,140,-1040,-893,-4566,-777,2025-02-03 17:27:31,0.0
-9088,268,108,-732,-3255,-952,2025-02-03 17:27:31,0.0
-9468,444,1780,-557,-2217,-992,2025-02-03 17:27:31,0.0
-9744,716,1800,-23,-1461,-776,2025-02-03 17:27:31,0.0
-10128,664,-724,31,-528,-689,2025-02-03 17:27:31,0.0
-10220,372,-1792,-189,482,-688,2025-02-03 17:27:31,0.0
-10580,-20,-2776,-616,1446,-822,2025-02-03 17:27:31,0.0
-11328,12,-2332,-1155,2252,-952,2025-02-03 17:27:31,0.0
-12600,-440,-720,-1725,2736,-768,2025-02-03 17:27:31,0.0
-13028,-1268,592,-1632,3029,-732,2025-02-03 17:27:31,0.0
-12752,-2216,32,-1226,2110,-1192,2025-02-03 17:27:31,0.0
-12868,-2024,-880,-865,-262,-1565,2025-02-03 17:27:31,0.0
-13180,-1088,-2584,-418,-2319,-950,2025-02-03 17:27:31,0.0
-12912,24,-3700,-332,-3540,331,2025-02-03 17:27:31,0.0
-11668,968,-3584,-637,-3888,1377,2025-02-03 17:27:31,0.0
-10208,1660,-2584,-987,-3800,1478,2025-02-03 17:27:31,0.0
-9292,1688,-1232,-1474,-3302,639,2025-02-03 17:27:31,0.0
-9192,324,-1348,-1885,-2856,-899,2025-02-03 17:27:31,0.0
-11208,-924,12,-1884,225,-2229,2025-02-03 17:27:31,0.0
-12596,-1968,248,-1455,2881,-2418,2025-02-03 17:27:31,0.0
-13828,-1912,-824,-563,4190,-1391,2025-02-03 17:27:31,0.0
-14028,-1176,-1416,150,3992,-647,2025-02-03 17:27:31,0.0
-14316,-364,-1336,490,2975,-414,2025-02-03 17:27:31,0.0
-14328,204,-880,436,1380,-496,2025-02-03 17:27:31,0.0
-14488,248,-920,391,-321,-674,2025-02-03 17:27:31,0.0
-14396,-60,-1608,357,-1777,-784,2025-02-03 17:27:31,0.0
-14224,-480,-2064,331,-2742,-900,2025-02-03 17:27:31,0.0
-14020,-684,-1920,294,-3180,-944,2025-02-03 17:27:31,0.0
-13844,-748,-1608,288,-2927,-701,2025-02-03 17:27:31,0.0
-13424,-792,-1028,231,-2072,-451,2025-02-03 17:27:31,0.0
-13088,-720,-328,209,-1016,-425,2025-02-03 17:27:31,0.0
-13248,-1040,436,725,1595,-798,2025-02-03 17:27:31,0.0
-13608,-940,548,827,2061,-705,2025-02-03 17:27:31,0.0
-14068,-660,432,947,2199,-613,2025-02-03 17:27:31,0.0
-14212,-376,300,881,2039,-575,2025-02-03 17:27:31,0.0
-14164,68,192,633,1406,-544,2025-02-03 17:27:31,0.0
-14112,164,380,200,399,-560,2025-02-03 17:27:31,0.0
-14188,60,-84,-100,-222,-511,2025-02-03 17:27:31,0.0
-14008,460,-756,-437,-404,-336,2025-02-03 17:27:31,0.0
-13336,568,-1512,-873,-213,-283,2025-02-03 17:27:31,0.0
-13116,516,-1800,-1485,639,-501,2025-02-03 17:27:31,0.0
-13212,396,-1448,-2070,1681,-650,2025-02-03 17:27:31,0.0
-13304,380,-1236,-2541,2369,-907,2025-02-03 17:27:31,0.0
-13728,380,-1564,-3253,2527,-1185,2025-02-03 17:27:31,0.0
-13692,268,-2128,-3812,2220,-1465,2025-02-03 17:27:31,0.0
-13816,-80,-2176,-4368,1405,-1669,2025-02-03 17:27:31,0.0
-13536,-444,-2164,-4864,729,-1811,2025-02-03 17:27:31,0.0
-13124,-936,-2148,-5295,325,-2067,2025-02-03 17:27:31,0.0
-13080,-1460,-1808,-5615,305,-2304,2025-02-03 17:27:31,0.0
-13300,-1840,-1312,-5873,803,-2513,2025-02-03 17:27:31,0.0
-13756,-1796,-1168,-6167,1888,-2683,2025-02-03 17:27:31,0.0
-14076,-1492,-1288,-6452,2801,-2855,2025-02-03 17:27:31,0.0
-14180,-1364,-1528,-6875,2785,-3074,2025-02-03 17:27:31,0.0
-14496,-1588,-2004,-7458,1873,-3241,2025-02-03 17:27:31,0.0
-14692,-1852,-2336,-8239,642,-3240,2025-02-03 17:27:31,0.0
-14632,-1568,-2344,-9176,-808,-3087,2025-02-03 17:27:31,0.0
-13884,-848,-2052,-10281,-2530,-3133,2025-02-03 17:27:31,0.0
-13424,-344,-2556,-11251,-3068,-3432,2025-02-03 17:27:31,0.0
-13056,-56,-3060,-12378,-2953,-3665,2025-02-03 17:27:32,0.0
-12712,-416,-3116,-13553,-2868,-3731,2025-02-03 17:27:32,0.0
-12328,-1036,-2796,-14494,-2859,-3736,2025-02-03 17:27:32,
-12364,-1824,-2380,-15104,-2506,-3604,2025-02-03 17:27:32,0.0
-12084,-2908,-2032,-15393,-1861,-3568,2025-02-03 17:27:32,0.0
-12136,-3636,-1736,-15186,-1236,-3586,2025-02-03 17:27:32,0.0
-12476,-4076,-1636,-14630,-661,-3272,2025-02-03 17:27:32,0.0
-12768,-4416,-1868,-14295,-46,-2812,2025-02-03 17:27:32,0.0
-12984,-4432,-2108,-14042,384,-2476,2025-02-03 17:27:32,0.0
-13000,-4372,-1960,-13916,561,-2069,2025-02-03 17:27:32,0.0
-13440,-4112,-1720,-13932,805,-1720,2025-02-03 17:27:32,0.0
-13492,-3528,-2020,-13901,971,-1325,2025-02-03 17:27:32,0.0
-13468,-2844,-2420,-14268,1209,-1094,2025-02-03 17:27:32,0.0
-13308,-2620,-2400,-14818,1462,-1077,2025-02-03 17:27:32,0.0
-13132,-2604,-2464,-15348,1732,-1074,2025-02-03 17:27:32,0.0
-13948,-2684,-1572,-15601,2012,-992,2025-02-03 17:27:32,0.0
-13964,-2956,-1944,-15768,1684,-797,2025-02-03 17:27:32,0.0
-14404,-3120,-2124,-15856,675,-300,2025-02-03 17:27:32,0.0
-14152,-2812,-2808,-15940,-605,436,2025-02-03 17:27:32,0.0
-13624,-2508,-3336,-16196,-1612,1068,2025-02-03 17:27:32,0.0
-13292,-4464,-5100,-14050,36,-2101,2025-02-03 17:27:32,0.0
-13560,-2344,-5244,-13151,817,-2426,2025-02-03 17:27:32,0.0
-13512,904,-4224,-12978,1266,-2963,2025-02-03 17:27:32,0.0
-13728,3540,-2204,-13527,111,-3243,2025-02-03 17:27:32,0.0
-14116,5396,-936,-14154,-1817,-2892,2025-02-03 17:27:32,0.0
-13412,4684,-2308,-14453,-2958,-2519,2025-02-03 17:27:32,0.0
-12044,1452,-5700,-15517,-2900,-2518,2025-02-03 17:27:32,0.0
-11300,-628,-5528,-17060,-1528,-2751,2025-02-03 17:27:32,0.0
-13532,-2120,-480,-18514,3696,-2822,2025-02-03 17:27:32,0.0
-17272,-528,1404,-17232,8145,-1646,2025-02-03 17:27:32,0.0
-19428,1360,1160,-16007,10701,293,2025-02-03 17:27:32,0.0
-18064,2184,-1588,-15973,8987,1182,2025-02-03 17:27:32,0.0
-15472,2176,-3452,-17216,3232,13,2025-02-03 17:27:32,0.0
-13272,1272,-4096,-18557,-4022,-2304,2025-02-03 17:27:32,0.0
-13092,-228,-2728,-19560,-8414,-3569,2025-02-03 17:27:32,0.0
-12912,-1196,-440,-19351,-9413,-3847,2025-02-03 17:27:32,0.0
-12372,-1704,956,-18316,-7930,-3585,2025-02-03 17:27:32,0.0
-14108,1984,-1184,-18202,4040,-5280,2025-02-03 17:27:32,0.0
-13780,1792,-2272,-18973,2303,-5425,2025-02-03 17:27:32,0.0
-13228,1700,-2824,-19688,484,-5364,2025-02-03 17:27:32,0.0
-11784,1960,-3472,-20383,-1010,-5389,2025-02-03 17:27:32,0.0
-10884,2452,-4092,-20943,-1638,-5601,2025-02-03 17:27:32,0.0
-10804,2816,-4816,-21671,-634,-5835,2025-02-03 17:27:32,0.0
-11128,2420,-5008,-22486,1842,-6242,2025-02-03 17:27:32,0.0
-13168,412,-3992,-23257,6156,-6892,2025-02-03 17:27:32,0.0
-14332,-1080,-2500,-23003,8114,-7334,2025-02-03 17:27:32,0.0
-14696,-2328,-1584,-21548,6747,-7874,2025-02-03 17:27:32,0.0
-15776,-3164,-404,-19590,3191,-7980,2025-02-03 17:27:32,0.0
-16704,-3824,164,-17441,-1092,-7115,2025-02-03 17:27:32,0.0
-17144,-3888,932,-15365,-4450,-5094,2025-02-03 17:27:32,0.0
-14984,-2992,1708,-12954,-6998,-3238,2025-02-03 17:27:32,0.0
-13288,-2400,1336,-11033,-7669,-2936,2025-02-03 17:27:33,0.0
-12040,-2352,240,-10110,-6452,-3128,2025-02-03 17:27:33,0.0
-11480,-2096,44,-9046,-3847,-3483,2025-02-03 17:27:33,0.0
-11912,-1356,-1160,-8166,-531,-3523,2025-02-03 17:27:33,0.0
-12992,-548,-2636,-7202,3193,-3085,2025-02-03 17:27:33,0.0
-14196,-100,-4044,-6772,6854,-2180,2025-02-03 17:27:33,0.0
-14996,-596,-4196,-6897,9203,-1494,2025-02-03 17:27:33,0.0
-14736,-1556,-3400,-6940,8698,-1490,2025-02-03 17:27:33,0.0
-14052,-2152,-2364,-6444,4658,-2109,2025-02-03 17:27:33,0.0
-13896,-1796,-2076,-5570,-1684,-2961,2025-02-03 17:27:33,0.0
-13448,-1316,-2168,-5268,-4929,-3547,2025-02-03 17:27:33,0.0
-12940,-1372,-2652,-5291,-4360,-4326,2025-02-03 17:27:33,0.0
-12756,-1304,-3764,-5477,-1084,-5123,2025-02-03 17:27:33,0.0
-12736,-1144,-4372,-5750,1256,-5336,2025-02-03 17:27:33,0.0
-13048,-1192,-4244,-6078,1370,-4709,2025-02-03 17:27:33,0.0
-13036,-2084,-2976,-6750,-93,-3570,2025-02-03 17:27:33,0.0
-12796,-3136,-720,-7469,-647,-3160,2025-02-03 17:27:33,0.0
-13116,-4036,144,-7854,563,-3427,2025-02-03 17:27:33,0.0
-13256,-4780,20,-7754,2483,-4068,2025-02-03 17:27:33,0.0
-13840,-4844,-1312,-7498,3397,-4565,2025-02-03 17:27:33,0.0
-14420,-3928,-1840,-7217,2673,-4583,2025-02-03 17:27:33,0.0
-14944,-2788,-1932,-7057,575,-4016,2025-02-03 17:27:33,0.0
-15112,-2068,-1540,-7143,-1578,-3175,2025-02-03 17:27:33,0.0
-14856,-1864,-1480,-7192,-3201,-2391,2025-02-03 17:27:33,0.0
-12968,-2884,-2736,-7265,-7432,-87,2025-02-03 17:27:33,0.0
-12656,-2068,-3076,-7408,-7009,1109,2025-02-03 17:27:33,0.0
-12420,-932,-3496,-7968,-3781,2319,2025-02-03 17:27:33,0.0
-12040,-588,-3956,-8752,860,2628,2025-02-03 17:27:33,0.0
-12020,-584,-3448,-9017,5107,2153,2025-02-03 17:27:33,0.0
-12996,-2136,-3136,-8493,7511,1352,2025-02-03 17:27:33,0.0
-13780,-3632,-3236,-7821,7898,536,2025-02-03 17:27:33,0.0
-14032,-4440,-3120,-6728,5838,-150,2025-02-03 17:27:33,0.0
-15324,-3872,-2504,-4605,824,278,2025-02-03 17:27:33,0.0
-15904,-2260,-1920,-2994,-2930,2101,2025-02-03 17:27:33,0.0
-14308,-124,-1712,-1891,-5132,3422,2025-02-03 17:27:33,0.0
-12540,1768,-3020,-2315,-5668,3528,2025-02-03 17:27:33,0.0
-11616,2856,-3820,-3110,-5373,3420,2025-02-03 17:27:33,0.0
-10420,2580,-4476,-3811,-4508,2925,2025-02-03 17:27:33,0.0
-9440,1508,-4648,-4590,-2643,1655,2025-02-03 17:27:33,0.0
-9364,196,-3260,-4784,-101,216,2025-02-03 17:27:33,0.0
-9400,-656,-1772,-4301,2159,-746,2025-02-03 17:27:33,0.0
-10576,-968,-76,-3185,3664,-1211,2025-02-03 17:27:33,0.0
-11480,-968,88,-2128,4714,-1300,2025-02-03 17:27:33,0.0
-12096,-732,-872,-1711,4850,-1373,2025-02-03 17:27:33,0.0
-13424,-380,-1068,-1931,4074,-1382,2025-02-03 17:27:33,0.0
-14624,-156,-864,-2046,3487,-940,2025-02-03 17:27:33,0.0
-15524,256,-948,-1791,3663,-603,2025-02-03 17:27:33,0.0
-16280,896,-1984,-1652,4475,-540,2025-02-03 17:27:33,0.0
-16664,1416,-3308,-1937,4599,-385,2025-02-03 17:27:33,0.0
-14168,-548,-3952,-2125,-5019,-157,2025-02-03 17:27:33,0.0
-13344,-944,-2664,-1784,-6214,-553,2025-02-03 17:27:33,0.0
-12700,-832,-1440,-1334,-5337,-713,2025-02-03 17:27:33,
-12592,-208,-1092,-964,-2981,-632,2025-02-03 17:27:33,0.0
-12188,512,-1116,-942,81,-601,2025-02-03 17:27:33,0.0
-12372,928,-1432,-1307,2123,-729,2025-02-03 17:27:33,0.0
-13592,936,-376,-1817,2465,-539,2025-02-03 17:27:33,0.0
-14092,144,356,-1568,1428,-271,2025-02-03 17:27:34,0.0
-13980,-808,76,-1076,29,-305,2025-02-03 17:27:34,0.0
-14436,-1292,-292,-380,-957,-373,2025-02-03 17:27:34,0.0
-14212,-776,-836,412,-1046,-226,2025-02-03 17:27:34,0.0
-14120,-472,-1304,827,-595,-203,2025-02-03 17:27:34,0.0
-13828,-32,-1512,996,-422,-337,2025-02-03 17:27:34,0.0
-13796,332,-1476,1085,-743,-417,2025-02-03 17:27:34,0.0
-13556,460,-1348,1118,-991,-411,2025-02-03 17:27:34,0.0
-13448,1008,-1672,824,-610,-686,2025-02-03 17:27:34,0.0
-13216,756,-1716,635,-397,-1320,2025-02-03 17:27:34,0.0
-13392,396,-1304,550,-985,-1388,2025-02-03 17:27:34,0.0
-13588,-76,-1112,716,-1331,-1194,2025-02-03 17:27:34,0.0
-13472,-236,-1436,969,-1330,-900,2025-02-03 17:27:34,0.0
-13068,-200,-1716,1080,-990,-817,2025-02-03 17:27:34,0.0
-13088,-228,-1812,1272,-422,-949,2025-02-03 17:27:34,0.0
-13084,-612,-1820,1277,-10,-1242,2025-02-03 17:27:34,0.0
-13164,-948,-1192,1543,607,-1737,2025-02-03 17:27:34,0.0
-13516,-816,-1616,1953,1496,-2314,2025-02-03 17:27:34,0.0
-13780,-820,-1980,2066,1806,-2744,2025-02-03 17:27:34,0.0
-13880,-404,-2396,2115,1579,-2954,2025-02-03 17:27:34,0.0
-13812,-216,-3028,1847,740,-2954,2025-02-03 17:27:34,0.0
-13420,-324,-2788,1360,-510,-2839,2025-02-03 17:27:34,0.0
-12960,-728,-2444,1068,-1383,-2743,2025-02-03 17:27:34,0.0
-12688,-1212,-1716,729,-1830,-2600,2025-02-03 17:27:34,0.0
-12684,-1528,-1240,553,-1247,-2424,2025-02-03 17:27:34,0.0
-12404,-2068,-768,567,22,-2341,2025-02-03 17:27:34,0.0
-12444,-2536,-392,681,1418,-2283,2025-02-03 17:27:34,0.0
-12936,-2852,-108,880,2954,-2206,2025-02-03 17:27:34,0.0
-14532,-1016,-296,368,5051,-1911,2025-02-03 17:27:34,0.0
-14516,-360,-712,-367,3941,-1908,2025-02-03 17:27:34,0.0
-14576,-200,-1060,-1064,2478,-2137,2025-02-03 17:27:34,0.0
-14368,-732,-1168,-1812,1026,-2619,2025-02-03 17:27:34,0.0
-13616,-1680,-996,-2202,13,-3294,2025-02-03 17:27:34,0.0
-13344,-2316,-1052,-2302,-1169,-3471,2025-02-03 17:27:34,0.0
-13288,-2564,-932,-2482,-1918,-3093,2025-02-03 17:27:34,0.0
-12960,-2936,-516,-2613,-1894,-2628,2025-02-03 17:27:34,0.0
-12836,-3080,-184,-2711,-1173,-2215,2025-02-03 17:27:34,0.0
-12644,-3000,128,-2684,-186,-1927,2025-02-03 17:27:34,0.0
-12720,-2940,284,-2665,376,-1612,2025-02-03 17:27:34,0.0
-13104,-3120,392,-2586,493,-1135,2025-02-03 17:27:34,0.0
-13268,-3188,396,-2445,224,-657,2025-02-03 17:27:34,0.0
-13316,-2940,512,-2363,-314,-88,2025-02-03 17:27:34,0.0
-13276,-2956,728,-2387,-1078,505,2025-02-03 17:27:34,0.0
-12980,-3024,720,-2233,-1593,875,2025-02-03 17:27:34,0.0
-12636,-2792,48,-2094,-1441,1086,2025-02-03 17:27:34,0.0
-12528,-2964,-72,-1931,-562,1040,2025-02-03 17:27:34,0.0
-12540,-3360,-444,-1935,595,828,2025-02-03 17:27:34,0.0
-12932,-3272,-352,-2041,1626,409,2025-02-03 17:27:34,0.0
-13164,-2760,-596,-2285,2348,-106,2025-02-03 17:27:34,0.0
-13260,-2316,-948,-2429,2640,-704,2025-02-03 17:27:34,0.0
-13808,-2220,-1212,-2497,2288,-1161,2025-02-03 17:27:34,0.0
-13684,-2428,-1900,-2645,1227,-1330,2025-02-03 17:27:34,0.0
-13884,-3148,-1184,-2988,497,-1375,2025-02-03 17:27:34,0.0
-14392,-3816,268,-3096,548,-1598,2025-02-03 17:27:34,0.0
-15152,-3520,844,-2929,1304,-1837,2025-02-03 17:27:34,0.0
-15972,-2896,748,-2967,1810,-1693,2025-02-03 17:27:34,0.0
-16300,-2812,472,-3074,1686,-1130,2025-02-03 17:27:34,0.0
-16356,-3372,380,-3200,1669,-571,2025-02-03 17:27:34,0.0
-16088,-4436,796,-3296,1868,-330,2025-02-03 17:27:34,0.0
-15636,-5928,1220,-2932,1718,-735,2025-02-03 17:27:35,0.0
-15236,-6884,832,-1450,1473,-1851,2025-02-03 17:27:35,0.0
-15480,-7248,-812,892,1717,-3416,2025-02-03 17:27:35,0.0
-16064,-7600,-1504,2770,1735,-4762,2025-02-03 17:27:35,0.0
-17300,-7644,-1884,4036,652,-4960,2025-02-03 17:27:35,0.0
-19152,-7140,-1964,4151,-913,-2677,2025-02-03 17:27:35,0.0
-19276,-5580,-1040,3526,-2268,1140,2025-02-03 17:27:35,0.0
-15968,-3172,-168,4049,-4894,3541,2025-02-03 17:27:35,0.0
-14028,-1936,-3448,4257,-7326,4846,2025-02-03 17:27:35,0.0
-12496,-780,-7004,3350,-9199,6120,2025-02-03 17:27:35,0.0
-10716,-100,-8848,2113,-9705,6603,2025-02-03 17:27:35,0.0
-14128,-1680,-1836,1544,1991,3835,2025-02-03 17:27:35,0.0
-14176,-1656,-984,1992,872,4198,2025-02-03 17:27:35,0.0
-13728,-1520,-148,2544,-735,4722,2025-02-03 17:27:35,0.0
-12976,-1312,-204,3171,-1902,5006,2025-02-03 17:27:35,0.0
-12404,-808,-1088,3677,-2829,5104,2025-02-03 17:27:35,0.0
-11664,-344,432,3192,-3828,-872,2025-02-03 17:27:35,0.0
-11808,-356,256,3421,-3732,-1434,2025-02-03 17:27:35,0.0
-11984,-532,-652,3543,-3557,-1996,2025-02-03 17:27:35,0.0
-12328,-632,-860,3631,-2755,-2188,2025-02-03 17:27:35,0.0
-12516,-636,-772,3980,-1648,-2124,2025-02-03 17:27:35,0.0
-12744,-472,-396,4400,-554,-1746,2025-02-03 17:27:35,0.0
-13424,72,136,5011,1452,-1141,2025-02-03 17:27:35,0.0
-14444,128,632,5573,4304,-622,2025-02-03 17:27:35,0.0
-17512,1920,628,6152,10683,3,2025-02-03 17:27:35,0.0
-10764,4,-4852,-3586,-8346,-485,2025-02-03 17:27:36,0.0
-14708,-1156,-668,-1288,7176,-4651,2025-02-03 17:27:36,0.0
-14600,-1600,-3768,-1186,2036,-5712,2025-02-03 17:27:36,0.0
-15524,-1460,-5076,-1749,-1701,-5862,2025-02-03 17:27:36,0.0
-15124,-1224,-4704,-2643,-4933,-4779,2025-02-03 17:27:36,0.0
-13508,-1332,-3464,-3353,-7119,-3463,2025-02-03 17:27:36,0.0
-12008,-1504,-2360,-3824,-7433,-2787,2025-02-03 17:27:36,0.0
-10964,-1464,-1676,-4283,-6470,-2606,2025-02-03 17:27:36,0.0
-10332,-1436,-1500,-4669,-4462,-2672,2025-02-03 17:27:36,0.0
-10324,-1556,-804,-4743,-2222,-2856,2025-02-03 17:27:36,0.0
-11704,-2624,-264,-3978,2266,-2752,2025-02-03 17:27:36,0.0
-12936,-2924,-360,-3703,2942,-2154,2025-02-03 17:27:36,
-13820,-3008,-128,-3497,2592,-1460,2025-02-03 17:27:36,0.0
-14496,-2296,-212,-3408,710,-480,2025-02-03 17:27:36,0.0
-14232,-1404,300,-3084,-2039,584,2025-02-03 17:27:36,0.0
-13352,-860,-120,-2993,-4176,1260,2025-02-03 17:27:36,0.0
-12288,-628,-556,-3392,-5374,1657,2025-02-03 17:27:36,0.0
-11596,-688,-780,-3781,-5345,1877,2025-02-03 17:27:36,0.0
-11224,-1292,-1104,-4226,-3788,1885,2025-02-03 17:27:36,0.0
-11624,-1464,-320,-4483,-1763,1900,2025-02-03 17:27:36,0.0
-11528,-1544,-292,-4665,-589,2045,2025-02-03 17:27:36,0.0
-11420,-1532,-380,-4515,277,2078,2025-02-03 17:27:36,0.0
-11912,-1444,-568,-4191,1180,1894,2025-02-03 17:27:36,0.0
-12340,-1672,-1064,-4072,2440,1460,2025-02-03 17:27:36,0.0
-12600,-1688,-1768,-4315,3777,436,2025-02-03 17:27:36,0.0
-13164,-1552,-1600,-4574,5015,-727,2025-02-03 17:27:36,0.0
-14540,-1692,-924,-4761,5702,-1764,2025-02-03 17:27:36,0.0
-16168,-1912,-564,-4862,5627,-2428,2025-02-03 17:27:36,0.0
-13996,-148,-4484,-3012,-4928,1280,2025-02-03 17:27:36,0.0
-13932,-52,-2816,-2611,-4106,1676,2025-02-03 17:27:36,0.0
-13000,416,-2104,-1734,-3023,2468,2025-02-03 17:27:36,0.0
-11632,448,-3092,-1134,-2393,2840,2025-02-03 17:27:37,0.0
-10352,520,-3952,-1544,-1157,2344,2025-02-03 17:27:37,0.0
-9792,72,-3240,-2235,474,1266,2025-02-03 17:27:37,0.0
-10520,-264,-2420,-2409,2506,377,2025-02-03 17:27:37,0.0
-11468,-760,-2124,-1905,4901,78,2025-02-03 17:27:37,0.0
-12304,-1296,-2268,-1179,6011,278,2025-02-03 17:27:37,0.0
-13096,-1368,-1612,-540,5919,625,2025-02-03 17:27:37,0.0
-13804,-1020,-860,220,4993,824,2025-02-03 17:27:37,0.0
-14368,-608,-716,809,3650,905,2025-02-03 17:27:37,0.0
-14568,-240,-1012,1230,1861,819,2025-02-03 17:27:37,0.0
-12884,1076,-1780,1341,2230,-2029,2025-02-03 17:27:37,0.0
-15436,1260,-3996,344,-1174,-2028,2025-02-03 17:27:37,0.0
-15736,992,-5276,-245,-247,-1195,2025-02-03 17:27:37,0.0
-13840,-1504,-3024,-278,721,-221,2025-02-03 17:27:37,0.0
-14104,-2276,-2176,277,542,-267,2025-02-03 17:27:37,0.0
-14212,-1992,-1896,973,788,53,2025-02-03 17:27:37,0.0
-13784,-1292,-2000,1285,571,71,2025-02-03 17:27:37,0.0
-13324,-740,-2608,1054,-435,-113,2025-02-03 17:27:37,0.0
-12844,-640,-2948,604,-1402,-337,2025-02-03 17:27:37,0.0
-12580,-904,-2876,335,-1404,-521,2025-02-03 17:27:37,0.0
-12368,-1004,-3004,-19,-26,-620,2025-02-03 17:27:37,0.0
-12800,-184,-3060,-335,1290,-508,2025-02-03 17:27:37,0.0
-12932,-52,-3040,-983,2348,-582,2025-02-03 17:27:37,0.0
-13600,-80,-2808,-1562,2891,-690,2025-02-03 17:27:37,0.0
-14052,-164,-2804,-1902,2853,-735,2025-02-03 17:27:37,0.0
-14232,-272,-2944,-2164,2216,-733,2025-02-03 17:27:37,0.0
-14200,-540,-3112,-2399,1025,-740,2025-02-03 17:27:37,0.0
-13868,-632,-3184,-2619,-652,-788,2025-02-03 17:27:37,0.0
-13432,-712,-2884,-2808,-1382,-880,2025-02-03 17:27:37,0.0
-12972,-492,-2716,-2970,-1337,-937,2025-02-03 17:27:38,0.0
-11944,-3308,-1824,-17890,-2248,-3826,2025-02-03 17:27:38,0.0
-12860,-4048,-1100,-17835,-1512,-4073,2025-02-03 17:27:38,0.0
-13880,-4092,-896,-17621,-1817,-3864,2025-02-03 17:27:38,0.0
-14692,-3288,-920,-17476,-2696,-3254,2025-02-03 17:27:38,0.0
-14460,-1960,-1356,-17414,-4101,-2618,2025-02-03 17:27:38,0.0
-14044,-1004,-2104,-17621,-5618,-2039,2025-02-03 17:27:38,0.0
-13452,-500,-2484,-18114,-6633,-1500,2025-02-03 17:27:38,0.0
-13096,-464,-2380,-18663,-7094,-979,2025-02-03 17:27:38,0.0
-13336,-5460,1956,-16633,3041,-1118,2025-02-03 17:27:38,0.0
-14140,-4504,1484,-15375,2944,-501,2025-02-03 17:27:38,0.0
-14484,-3564,-352,-14874,1075,202,2025-02-03 17:27:38,0.0
-14128,-3080,-2040,-15100,-1042,448,2025-02-03 17:27:38,0.0
-13156,-3192,-3272,-15499,-2258,-60,2025-02-03 17:27:38,0.0
-12728,-3808,-3028,-15335,-2728,-831,2025-02-03 17:27:38,0.0
-13192,-4700,-1672,-15007,-2688,-1285,2025-02-03 17:27:38,0.0
-13344,-5120,-1384,-14703,-2416,-1321,2025-02-03 17:27:38,0.0
-13828,-4444,-1408,-14231,-2195,-849,2025-02-03 17:27:38,0.0
-13456,-3312,-2996,-13907,-1664,-53,2025-02-03 17:27:38,0.0
-13580,-1872,-4140,-14125,-280,401,2025-02-03 17:27:38,0.0
-14020,848,-4356,-14544,1660,904,2025-02-03 17:27:38,0.0
-13884,3448,-3704,-14720,3492,1176,2025-02-03 17:27:38,0.0
-13636,5408,-2768,-14558,4203,513,2025-02-03 17:27:38,0.0
-13408,5732,-2688,-14927,3546,-1236,2025-02-03 17:27:38,0.0
-14424,3028,-3968,-17135,1207,-2781,2025-02-03 17:27:38,0.0
-15628,936,-2636,-19109,-1321,-1861,2025-02-03 17:27:38,0.0
-15932,-256,-456,-19507,-2462,-238,2025-02-03 17:27:38,0.0
-16064,-680,600,-19236,-1732,1439,2025-02-03 17:27:38,0.0
-15184,-412,164,-18933,45,2237,2025-02-03 17:27:38,0.0
-14616,632,-272,-18989,801,2035,2025-02-03 17:27:38,0.0
-13528,1452,-1340,-19445,-305,1404,2025-02-03 17:27:38,0.0
-12592,1444,-1496,-19786,-2497,516,2025-02-03 17:27:38,0.0
-11992,688,-1196,-19698,-3408,-297,2025-02-03 17:27:38,0.0
-11708,-428,-1144,-19018,-2334,-892,2025-02-03 17:27:38,0.0
-11552,-1576,-1128,-18151,4,-1200,2025-02-03 17:27:38,0.0
-11828,-2300,-956,-17458,2253,-1363,2025-02-03 17:27:38,0.0
-12272,-2552,-452,-16856,4039,-1325,2025-02-03 17:27:39,0.0
-12320,-2104,-552,-16275,4993,-1307,2025-02-03 17:27:39,0.0
-12716,-564,-896,-15445,5164,-1661,2025-02-03 17:27:39,0.0
-13544,300,-1336,-15056,5483,-2057,2025-02-03 17:27:39,0.0
-13944,920,-1420,-14781,5426,-2565,2025-02-03 17:27:39,0.0
-14572,1084,-1012,-14721,5176,-2889,2025-02-03 17:27:39,0.0
-14536,1412,-740,-14724,4294,-2900,2025-02-03 17:27:39,0.0
-14524,1480,-1216,-14603,3073,-2693,2025-02-03 17:27:39,0.0
-14236,1256,-1560,-14438,1964,-2428,2025-02-03 17:27:39,0.0
-13668,1080,-1960,-14323,1058,-2287,2025-02-03 17:27:39,0.0
-12984,656,-2144,-14336,573,-2238,2025-02-03 17:27:39,0.0
-12452,284,-1376,-14439,642,-2510,2025-02-03 17:27:39,0.0
-12196,64,-664,-14139,1144,-2991,2025-02-03 17:27:39,0.0
-12480,-160,-1104,-13668,1818,-3338,2025-02-03 17:27:39,0.0
-12732,-324,-1712,-13141,2380,-3706,2025-02-03 17:27:39,0.0
-13420,-408,-1764,-12499,2669,-3899,2025-02-03 17:27:39,
-13708,-260,-1692,-11822,2555,-3836,2025-02-03 17:27:39,0.0
-14380,-64,-960,-11073,2410,-3472,2025-02-03 17:27:39,0.0
-14400,-240,-332,-10316,1958,-3164,2025-02-03 17:27:39,0.0
-13720,-908,-896,-8812,-193,-2853,2025-02-03 17:27:39,0.0
-13272,-800,-1276,-7857,-1172,-2734,2025-02-03 17:27:39,0.0
-12764,-572,-1508,-7082,-989,-2747,2025-02-03 17:27:39,0.0
-12900,-376,-1104,-6416,-142,-2829,2025-02-03 17:27:39,0.0
-13080,-452,-492,-6015,564,-2926,2025-02-03 17:27:39,0.0
-13420,-672,-208,-5496,733,-2956,2025-02-03 17:27:39,0.0
-13728,-668,-136,-4912,268,-2822,2025-02-03 17:27:39,0.0
-13652,-360,-348,-4490,-437,-2727,2025-02-03 17:27:39,0.0
-13260,32,-688,-4124,-1049,-2886,2025-02-03 17:27:39,0.0
-13148,232,-1196,-4126,-911,-3165,2025-02-03 17:27:39,0.0
-13420,-136,-1552,-4498,-241,-3404,2025-02-03 17:27:39,0.0
-13764,-748,-1420,-4614,380,-3241,2025-02-03 17:27:39,0.0
-14020,-1080,-1212,-4223,747,-2612,2025-02-03 17:27:39,0.0
-13832,-1416,-1600,-3276,1179,-1772,2025-02-03 17:27:39,0.0
-13576,-1764,-2340,-2132,2141,-861,2025-02-03 17:27:39,0.0
-13000,-1676,-1776,-1312,3622,-472,2025-02-03 17:27:39,0.0
-12244,-1692,-328,-695,4964,-1143,2025-02-03 17:27:39,0.0
-12892,-1828,900,-608,5201,-2337,2025-02-03 17:27:39,0.0
-14764,-1508,900,-511,4683,-3174,2025-02-03 17:27:39,0.0
-13192,1048,-1104,-2874,-4259,-449,2025-02-03 17:27:39,0.0
-11696,-276,-1356,-3116,-3120,-136,2025-02-03 17:27:39,0.0
-11628,-1476,-1436,-2983,-1011,-367,2025-02-03 17:27:39,0.0
-12080,-2452,-1232,-2671,1933,-859,2025-02-03 17:27:39,0.0
-12908,-3252,-876,-2377,4142,-1507,2025-02-03 17:27:39,0.0
-13832,-3464,-276,-2109,4140,-1742,2025-02-03 17:27:39,0.0
-14592,-2724,-80,-1643,1991,-1419,2025-02-03 17:27:39,0.0
-14896,-1412,-404,-1250,-767,-768,2025-02-03 17:27:39,0.0
-13936,-180,-1196,-1087,-2516,-422,2025-02-03 17:27:39,0.0
-13776,-1028,-4352,-952,617,-634,2025-02-03 17:27:39,0.0
-13312,-804,-3328,-1159,323,-423,2025-02-03 17:27:39,0.0
-13072,-1064,-1888,-1631,-701,-576,2025-02-03 17:27:39,0.0
-13144,-1420,-892,-1780,-1284,-575,2025-02-03 17:27:39,0.0
-13644,-1464,-772,-1494,-1471,-463,2025-02-03 17:27:39,0.0
-13240,-1512,-1828,-1158,-1399,-441,2025-02-03 17:27:39,0.0
-13308,-1388,-1860,-864,-616,-495,2025-02-03 17:27:39,0.0
-13508,-1144,-1748,-691,307,-503,2025-02-03 17:27:40,0.0
-13412,-616,-1424,-627,783,-465,2025-02-03 17:27:40,0.0
-13148,-432,-1892,-589,432,-561,2025-02-03 17:27:40,0.0
-13468,-1404,-1980,-316,-385,-376,2025-02-03 17:27:40,0.0
-13332,-1328,-2044,-58,199,-165,2025-02-03 17:27:40,0.0
-13244,-948,-2176,30,569,-156,2025-02-03 17:27:40,0.0
-13088,-868,-2228,22,673,-253,2025-02-03 17:27:40,0.0
-13216,-972,-2192,171,809,-348,2025-02-03 17:27:40,0.0
-13196,-1132,-2416,332,945,-407,2025-02-03 17:27:40,0.0
-13268,-1368,-1924,514,1074,-350,2025-02-03 17:27:40,0.0
-13332,-1452,-1728,716,1003,-260,2025-02-03 17:27:40,0.0
-13312,-1292,-1988,847,900,-226,2025-02-03 17:27:40,0.0
-13520,-1120,-2176,966,904,-260,2025-02-03 17:27:40,0.0
-13408,-1104,-2208,984,966,-347,2025-02-03 17:27:40,0.0
-13472,-1016,-2420,985,950,-464,2025-02-03 17:27:40,0.0
-13436,-660,-2204,929,922,-460,2025-02-03 17:27:40,0.0
-13360,-744,-2400,868,1086,-459,2025-02-03 17:27:40,0.0
-13404,-432,-2228,674,1102,-409,2025-02-03 17:27:40,0.0
-13524,-356,-2008,443,1126,-349,2025-02-03 17:27:40,0.0
-13384,-488,-1716,187,998,-444,2025-02-03 17:27:40,0.0
-13360,-440,-1472,72,859,-537,2025-02-03 17:27:40,0.0
-13476,-708,-1676,2,744,-553,2025-02-03 17:27:40,0.0
-13484,-740,-1916,-192,768,-637,2025-02-03 17:27:40,0.0
-13520,-140,-2108,-1243,1021,-1388,2025-02-03 17:27:40,0.0
-13568,-288,-2032,-1598,415,-1580,2025-02-03 17:27:40,0.0
-13672,-468,-1856,-1740,-301,-1631,2025-02-03 17:27:40,0.0
-13640,-716,-1904,-1735,-904,-1523,2025-02-03 17:27:40,0.0
-13612,-920,-2072,-1783,-1166,-1406,2025-02-03 17:27:40,0.0
-13240,-1200,-2312,-1952,-1309,-1353,2025-02-03 17:27:40,0.0
-12912,-1196,-2452,-2083,-1299,-1536,2025-02-03 17:27:40,0.0
-12740,-1144,-2364,-2133,-854,-1796,2025-02-03 17:27:40,0.0
-12928,-1148,-2624,-1972,234,-2200,2025-02-03 17:27:40,0.0
-12968,-1628,-2604,-1814,1297,-2661,2025-02-03 17:27:40,0.0
-13120,-2500,-2328,-1525,1904,-3336,2025-02-03 17:27:40,0.0
-13692,-3264,-1436,-1214,1460,-3629,2025-02-03 17:27:40,0.0
-14160,-3824,-500,-716,591,-3514,2025-02-03 17:27:40,0.0
-14476,-4192,368,-188,-562,-3054,2025-02-03 17:27:40,0.0
-14480,-3832,920,112,-1683,-2382,2025-02-03 17:27:40,0.0
-13792,-2704,896,174,-2479,-1964,2025-02-03 17:27:40,0.0
-13212,-1828,432,-123,-2639,-1857,2025-02-03 17:27:40,0.0
-12712,-984,-384,-802,-1979,-2120,2025-02-03 17:27:40,0.0
-12364,-676,-900,-1606,-524,-2513,2025-02-03 17:27:40,0.0
-12316,-928,-1076,-2378,1425,-2959,2025-02-03 17:27:40,0.0
-13160,-3580,252,-3036,2949,-2983,2025-02-03 17:27:40,0.0
-13480,-4112,492,-2688,2298,-2524,2025-02-03 17:27:40,0.0
-13684,-3884,484,-2230,1516,-2104,2025-02-03 17:27:40,0.0
-13452,-3456,360,-1820,517,-1708,2025-02-03 17:27:40,0.0
-13152,-3060,224,-1696,-613,-1345,2025-02-03 17:27:40,0.0
-12816,-2860,304,-1743,-1560,-957,2025-02-03 17:27:40,0.0
-12780,-2928,616,-1870,-1632,-650,2025-02-03 17:27:40,0.0
-13096,-2996,708,-1895,-1135,-128,2025-02-03 17:27:40,0.0
-13268,-3112,624,-1783,-733,522,2025-02-03 17:27:40,0.0
-12920,-3068,216,-1699,-699,1038,2025-02-03 17:27:40,0.0
-12572,-3056,-136,-1764,-1138,1251,2025-02-03 17:27:40,0.0
-12092,-2784,-304,-1619,-1466,1412,2025-02-03 17:27:40,0.0
-12144,-2340,-880,-1348,152,1480,2025-02-03 17:27:40,0.0
-12180,-1836,-1228,-1565,2682,1021,2025-02-03 17:27:40,0.0
-12840,-2024,-1872,-2115,5330,55,2025-02-03 17:27:40,0.0
-13564,-3024,-2612,-3160,6730,-1234,2025-02-03 17:27:41,0.0
-14376,-3828,-2020,-3925,5865,-2392,2025-02-03 17:27:41,0.0
-15644,-4488,-788,-3899,3872,-2661,2025-02-03 17:27:41,0.0
-16888,-4460,-240,-3418,1808,-1738,2025-02-03 17:27:41,
-17112,-3504,116,-2971,451,-530,2025-02-03 17:27:41,0.0
-16396,-3064,-88,-3075,-21,96,2025-02-03 17:27:41,0.0
-15836,-3648,-172,-3499,214,285,2025-02-03 17:27:41,0.0
-15428,-4552,152,-3684,765,349,2025-02-03 17:27:41,0.0
-15208,-5300,740,-3501,1531,100,2025-02-03 17:27:41,0.0
-15744,-5304,956,-3153,1447,-97,2025-02-03 17:27:41,0.0
-16612,-4332,784,-3287,564,218,2025-02-03 17:27:41,0.0
-17272,-2224,-428,-3443,146,561,2025-02-03 17:27:41,0.0
-17240,-972,-3548,-3645,1211,89,2025-02-03 17:27:41,0.0
-16936,-1292,-4452,-3624,3320,-2042,2025-02-03 17:27:41,0.0
-17252,-3848,-2336,-2439,2555,-3887,2025-02-03 17:27:41,0.0
-18712,-6676,-884,-898,-2354,-2771,2025-02-03 17:27:41,0.0
-20196,-8060,-1700,-957,-7049,1289,2025-02-03 17:27:41,0.0
-15872,-5544,-2000,-625,-10067,5262,2025-02-03 17:27:41,0.0
-11732,-3836,-4840,704,-12088,6324,2025-02-03 17:27:41,0.0
-8736,-2360,-7416,411,-13301,5814,2025-02-03 17:27:41,0.0
-7040,-40,-6620,-749,-12424,4278,2025-02-03 17:27:41,0.0
-7144,1864,-4536,-962,-7080,2739,2025-02-03 17:27:41,0.0
-8100,2388,-2964,-177,1090,1366,2025-02-03 17:27:41,0.0
-9664,632,-2608,299,7514,689,2025-02-03 17:27:41,0.0
-11596,-252,-2720,569,10172,762,2025-02-03 17:27:41,0.0
-13308,-764,-2676,848,9887,1442,2025-02-03 17:27:41,0.0
-14888,-1208,-3324,1051,7569,2631,2025-02-03 17:27:41,0.0
-15288,-1448,-4036,1110,4298,3722,2025-02-03 17:27:41,0.0
-14916,-1860,-4388,1353,994,4124,2025-02-03 17:27:41,0.0
-17348,1168,1308,6531,851,2424,2025-02-03 17:27:41,0.0
-17208,1152,1956,5894,-620,2800,2025-02-03 17:27:41,0.0
-18032,3224,852,5345,-372,3300,2025-02-03 17:27:41,0.0
-18284,4436,-1912,5108,2667,4265,2025-02-03 17:27:41,0.0
-19656,4476,-6052,3798,6516,6042,2025-02-03 17:27:41,0.0
-20324,4656,-7356,623,8794,8507,2025-02-03 17:27:41,0.0
-17436,4632,-5020,-1831,7511,8648,2025-02-03 17:27:41,0.0
-12992,3752,-4072,-2924,2228,4023,2025-02-03 17:27:41,0.0
-10108,1960,-5168,-3805,-5032,-2699,2025-02-03 17:27:41,0.0
-10460,-628,-7040,-6268,-14442,-7215,2025-02-03 17:27:42,0.0
-10408,-1612,-5328,-5887,-18988,-6812,2025-02-03 17:27:42,0.0
-11532,-2600,-2676,-3439,-19698,-4600,2025-02-03 17:27:42,0.0
-11204,-4128,-3140,-1523,-14794,-1831,2025-02-03 17:27:42,0.0
-9576,-4748,-3504,-763,-4043,-439,2025-02-03 17:27:42,0.0
-8716,-3080,-4600,-554,7160,-1368,2025-02-03 17:27:42,0.0
-9924,-648,-5032,-579,13776,-2149,2025-02-03 17:27:42,0.0
-11196,1184,-4200,-720,15999,-1986,2025-02-03 17:27:42,0.0
-11828,2156,-2412,-763,14712,-1885,2025-02-03 17:27:42,0.0
-12752,2364,-2404,-1327,11816,-2516,2025-02-03 17:27:42,0.0
-12872,2136,-3968,-2963,8170,-3705,2025-02-03 17:27:42,0.0
-13592,-1364,-1000,-1810,4140,-887,2025-02-03 17:27:42,0.0
-13528,-852,-968,-2031,3469,-276,2025-02-03 17:27:42,0.0
-13572,-336,-544,-2423,1781,-149,2025-02-03 17:27:42,0.0
-13576,284,-220,-3069,-1077,260,2025-02-03 17:27:42,0.0
-13980,128,156,-3266,-3188,1317,2025-02-03 17:27:42,0.0
-12752,-316,-592,-3495,-4135,2235,2025-02-03 17:27:42,0.0
-12308,-1068,-448,-3920,-4159,2650,2025-02-03 17:27:42,0.0
-12692,-1816,360,-4505,-3601,2606,2025-02-03 17:27:42,0.0
-13320,-1668,1160,-5033,-3147,2394,2025-02-03 17:27:42,0.0
-12676,-1584,-444,-5074,-3025,2674,2025-02-03 17:27:42,0.0
-12384,-1888,-1616,-4962,-2130,2750,2025-02-03 17:27:42,0.0
-11876,-1640,-2268,-4737,179,2442,2025-02-03 17:27:42,0.0
-11856,-1384,-2076,-4705,3135,1893,2025-02-03 17:27:42,0.0
-12556,-2044,-1316,-4560,6088,815,2025-02-03 17:27:42,0.0
-14220,-2856,-804,-4421,9106,-787,2025-02-03 17:27:42,0.0
-15840,-3408,120,-4254,10119,-2406,2025-02-03 17:27:42,0.0
-17820,-3960,1700,-3779,8147,-3782,2025-02-03 17:27:42,0.0
-19980,-3916,3124,-2995,4390,-4399,2025-02-03 17:27:42,0.0
-20740,-3852,4092,-2033,-828,-3451,2025-02-03 17:27:42,0.0
-19076,-3384,4544,-724,-6017,-1589,2025-02-03 17:27:42,0.0
-13252,-2656,-5476,1211,1334,-4231,2025-02-03 17:27:42,0.0
-14188,-3588,-5788,2430,5473,-6841,2025-02-03 17:27:42,0.0
-15900,-3436,-5256,3565,6131,-8100,2025-02-03 17:27:42,0.0
-20136,1316,-4712,2909,-5511,1558,2025-02-03 17:27:42,0.0
-13820,1996,-8052,3952,-11894,4343,2025-02-03 17:27:42,0.0
-9812,1744,-10416,2123,-13698,3282,2025-02-03 17:27:42,0.0
-8652,2444,-8668,-629,-10140,1221,2025-02-03 17:27:42,0.0
-9460,3312,-5880,-2275,-2932,-76,2025-02-03 17:27:42,0.0
-11704,3156,-5340,-2273,5492,158,2025-02-03 17:27:42,0.0
-13904,1768,-5140,-1864,11005,1446,2025-02-03 17:27:42,0.0
-14784,48,-3960,-1628,11188,2425,2025-02-03 17:27:42,0.0
-14996,-1284,-3404,-1475,7830,3017,2025-02-03 17:27:42,0.0
-14580,-1820,-1484,-1110,-586,3627,2025-02-03 17:27:42,0.0
-12548,-1700,-2052,-560,-3508,3389,2025-02-03 17:27:42,0.0
-11344,-1204,-2340,-245,-3724,2969,2025-02-03 17:27:43,0.0
-9780,336,-1392,1495,-420,2211,2025-02-03 17:27:44,0.0
-10016,368,-1800,2495,2180,2176,2025-02-03 17:27:44,0.0
-10672,-20,-2564,3110,4031,1964,2025-02-03 17:27:44,0.0
-11128,16,-2860,3310,4811,1643,2025-02-03 17:27:44,0.0
-12172,560,-2332,2991,4663,1124,2025-02-03 17:27:44,0.0
-12688,1372,-2244,2457,3953,679,2025-02-03 17:27:44,0.0
-13452,2244,-2036,2022,2790,405,2025-02-03 17:27:44,0.0
-14228,2544,-2280,2044,1233,274,2025-02-03 17:27:44,0.0
-11008,356,-1296,3061,-1217,-792,2025-02-03 17:27:45,0.0
-744,-1192,-7532,-553,1271,2635,2025-02-03 17:27:45,0.0
600,-652,-5416,-568,2748,3035,2025-02-03 17:27:45,0.0
1960,-476,-4948,131,3020,2168,2025-02-03 17:27:45,0.0
2436,-384,-7012,818,1840,650,2025-02-03 17:27:45,0.0
1980,-192,-10780,797,164,-1012,2025-02-03 17:27:45,0.0
1128,-104,-13268,289,-1384,-1362,2025-02-03 17:27:45,0.0
144,148,-14996,-523,-2627,-931,2025-02-03 17:27:45,0.0
-592,232,-15864,-1202,-3377,-116,2025-02-03 17:27:45,0.0
-1428,116,-15808,-1270,-3160,658,2025-02-03 17:27:45,0.0
-1920,-352,-16644,-823,-1900,970,2025-02-03 17:27:45,0.0
-2404,-808,-17388,-586,-433,666,2025-02-03 17:27:45,
-3280,-1172,-17456,-444,503,-46,2025-02-03 17:27:45,0.0
-4340,-1548,-18068,-597,974,-881,2025-02-03 17:27:45,0.0
-5396,-1900,-18484,-1098,1170,-1407,2025-02-03 17:27:46,0.0
-7548,-532,-11440,-957,-7380,-553,2025-02-03 17:27:46,0.0
-8108,-812,-10552,-679,-9319,-622,2025-02-03 17:27:46,0.0
-8244,-980,-9892,-570,-10579,-437,2025-02-03 17:27:46,0.0
-8196,-740,-10176,-511,-10939,-66,2025-02-03 17:27:46,0.0
-8352,-368,-10172,-451,-10434,210,2025-02-03 17:27:46,0.0
-8644,-44,-9976,-173,-9798,605,2025-02-03 17:27:46,0.0
-8576,-168,-10460,-81,-9112,964,2025-02-03 17:27:46,0.0
-8592,-460,-10668,-373,-8341,1171,2025-02-03 17:27:46,0.0
-9704,24,-8696,-1288,-9046,337,2025-02-03 17:27:46,0.0
-10824,700,-8048,-1595,-9038,277,2025-02-03 17:27:46,0.0
-10796,1020,-8124,-1692,-8830,68,2025-02-03 17:27:46,0.0
-10320,960,-7992,-1459,-8792,-503,2025-02-03 17:27:46,0.0
-10296,792,-7584,-1026,-9203,-1319,2025-02-03 17:27:46,0.0
-10552,476,-6672,-790,-9649,-2070,2025-02-03 17:27:46,0.0
-11100,200,-5656,-720,-9897,-2032,2025-02-03 17:27:46,0.0
-11500,-164,-4936,-616,-9533,-1458,2025-02-03 17:27:46,0.0
-11476,-624,-5340,-451,-8426,-947,2025-02-03 17:27:46,0.0
-11540,-1060,-5408,-195,-7607,-776,2025-02-03 17:27:46,0.0
-11932,-1024,-5544,310,-7080,-722,2025-02-03 17:27:46,0.0
-12624,-900,-5672,765,-6408,-489,2025-02-03 17:27:46,0.0
-13588,-396,-5508,1092,-5738,-111,2025-02-03 17:27:46,0.0
-14092,-64,-5416,940,-5075,316,2025-02-03 17:27:46,0.0
-13640,884,-4456,-760,-7749,-166,2025-02-03 17:27:46,0.0
-13592,392,-4516,-808,-7811,-130,2025-02-03 17:27:46,0.0
-13580,-20,-4100,-916,-7111,1,2025-02-03 17:27:46,0.0
-12864,-364,-3516,-571,-6575,182,2025-02-03 17:27:46,0.0
-12428,-404,-3800,-481,-6007,313,2025-02-03 17:27:46,0.0
-12348,-232,-3688,-542,-5197,217,2025-02-03 17:27:46,0.0
-12708,196,-3428,-626,-4478,36,2025-02-03 17:27:46,0.0
-13120,516,-3112,-751,-4154,85,2025-02-03 17:27:46,0.0
-13104,400,-2852,-841,-4149,287,2025-02-03 17:27:46,0.0
-12972,104,-2548,-875,-4693,336,2025-02-03 17:27:46,0.0
-12692,-100,-2324,-894,-5211,108,2025-02-03 17:27:46,0.0
-12452,-176,-2228,-937,-5452,-385,2025-02-03 17:27:46,0.0
-12476,-152,-2228,-984,-5415,-912,2025-02-03 17:27:46,0.0
-12516,-108,-2392,-1054,-5176,-1240,2025-02-03 17:27:46,0.0
-12892,304,-2348,-1065,-4936,-1240,2025-02-03 17:27:47,0.0
-12964,-372,-516,-547,-4599,-507,2025-02-03 17:27:47,0.0
-13072,-164,-308,-284,-3332,-659,2025-02-03 17:27:47,0.0
-13664,-16,-344,-248,-2564,-746,2025-02-03 17:27:47,0.0
-14436,340,-616,-424,-2392,-533,2025-02-03 17:27:47,0.0
-14432,656,-344,-659,-2733,-304,2025-02-03 17:27:47,0.0
-14724,560,-88,-907,-3291,-279,2025-02-03 17:27:47,0.0
-14496,268,-48,-1107,-4145,-361,2025-02-03 17:27:47,0.0
-14532,-208,116,-1189,-5085,-636,2025-02-03 17:27:47,0.0
-14124,-396,504,-1291,-6190,-973,2025-02-03 17:27:47,0.0
-14264,-552,1268,-1177,-6547,-1014,2025-02-03 17:27:47,0.0
-14304,-772,1744,-709,-5918,-515,2025-02-03 17:27:47,0.0
-13304,-868,1428,-143,-4965,-181,2025-02-03 17:27:47,0.0
-12936,-1144,1664,595,-3627,-161,2025-02-03 17:27:47,0.0
-12260,-1636,1880,1292,-2088,-483,2025-02-03 17:27:47,0.0
-12592,-1776,2300,1933,-244,-910,2025-02-03 17:27:47,0.0
-13516,-1168,1988,2654,2644,-1081,2025-02-03 17:27:47,0.0
-13892,312,-240,3591,4109,-1170,2025-02-03 17:27:47,0.0
-15296,1612,-4628,3812,2738,-1171,2025-02-03 17:27:47,0.0
-15708,2468,-6160,2498,-2464,-557,2025-02-03 17:27:47,0.0
-15172,2288,-4144,601,-7205,15,2025-02-03 17:27:47,0.0
-13552,1720,-752,-701,-9153,-20,2025-02-03 17:27:47,0.0
-14104,676,9856,611,-7970,475,2025-02-03 17:27:47,0.0
-16460,-264,11372,760,-4821,914,2025-02-03 17:27:47,0.0
-17668,-452,12860,1088,-2920,1067,2025-02-03 17:27:47,0.0
-18276,232,12204,828,-2177,1219,2025-02-03 17:27:47,0.0
-17268,832,11844,632,-603,1078,2025-02-03 17:27:47,0.0
-16252,1188,11252,255,1462,421,2025-02-03 17:27:47,0.0
-15880,908,11304,-506,3916,-655,2025-02-03 17:27:47,0.0
-17032,460,11944,-1329,6527,-1553,2025-02-03 17:27:47,0.0
-18192,360,10748,-1096,9007,-443,2025-02-03 17:27:47,0.0
-16992,456,10032,-756,7854,817,2025-02-03 17:27:48,0.0
-14856,512,9564,-308,7615,1730,2025-02-03 17:27:48,0.0
-12872,396,9324,250,8488,1635,2025-02-03 17:27:48,0.0
-12160,276,8644,548,10055,888,2025-02-03 17:27:48,0.0
-12556,248,7736,711,11829,249,2025-02-03 17:27:48,0.0
-13592,700,7272,1056,13578,241,2025-02-03 17:27:48,0.0
-13840,876,6168,1199,14718,583,2025-02-03 17:27:48,0.0
-13860,1100,5596,1112,15545,712,2025-02-03 17:27:48,0.0
-14096,1364,4224,747,15891,793,2025-02-03 17:27:48,0.0
-14548,1280,2952,75,15031,600,2025-02-03 17:27:48,0.0
-15308,1536,2464,-650,14163,128,2025-02-03 17:27:48,0.0
-16024,1964,2380,-1300,13683,-425,2025-02-03 17:27:48,0.0
-15840,2148,2684,-1442,12523,-1076,2025-02-03 17:27:48,0.0
-14644,1808,2068,-1245,10447,-1716,2025-02-03 17:27:48,0.0
-13844,1276,72,-1754,7901,-2240,2025-02-03 17:27:48,0.0
-13372,1244,-848,-1996,6241,-2807,2025-02-03 17:27:48,0.0
-13588,1312,-1432,-2018,5578,-2884,2025-02-03 17:27:48,0.0
-13852,1120,-480,-2011,5825,-2457,2025-02-03 17:27:48,0.0
-13652,572,300,-1885,5968,-1957,2025-02-03 17:27:48,0.0
-13212,0,344,-1601,6278,-1653,2025-02-03 17:27:48,0.0
-12112,-232,-612,-1383,5106,-1594,2025-02-03 17:27:48,0.0
-11136,-288,-1532,-1076,3447,-1741,2025-02-03 17:27:48,0.0
-10764,-128,-2388,-731,1888,-1710,2025-02-03 17:27:48,0.0
-10612,424,-2108,-410,1237,-1369,2025-02-03 17:27:48,0.0
-8764,-1364,-1868,1135,-102,-995,2025-02-03 17:27:48,0.0
-8352,-2544,-1364,1800,-1234,-1608,2025-02-03 17:27:48,0.0
-8688,-2616,-364,2445,-1742,-2134,2025-02-03 17:27:48,0.0
-9736,-1848,64,2909,-2070,-1962,2025-02-03 17:27:48,0.0
-10048,-796,-128,3229,-2186,-1268,2025-02-03 17:27:48,0.0
-9624,180,-1276,2873,-3291,-416,2025-02-03 17:27:48,
-9492,1256,-1548,2259,-5126,558,2025-02-03 17:27:48,0.0
-8768,1244,-992,1739,-7027,1225,2025-02-03 17:27:48,0.0
-7676,12,-232,1362,-5769,-405,2025-02-03 17:27:48,0.0
-7828,-212,-796,1193,-3455,-770,2025-02-03 17:27:48,0.0
-7776,-408,-2260,1087,-2581,-547,2025-02-03 17:27:48,0.0
-8184,-352,-2624,822,-1804,494,2025-02-03 17:27:48,0.0
-8140,-500,-1228,927,366,1316,2025-02-03 17:27:48,0.0
-7628,-1004,168,1362,2935,1060,2025-02-03 17:27:48,0.0
-8384,-1160,328,2069,6204,-243,2025-02-03 17:27:48,0.0
-11392,-788,-564,2448,10422,-1171,2025-02-03 17:27:48,0.0
-13424,-496,-456,2695,13709,-1280,2025-02-03 17:27:48,0.0
-15112,252,-376,2949,14086,-1020,2025-02-03 17:27:48,0.0
-15884,384,-740,2797,10549,-790,2025-02-03 17:27:48,0.0
-16500,224,-1296,2433,5087,-804,2025-02-03 17:27:48,0.0
-16984,-384,-1340,2087,-368,-930,2025-02-03 17:27:48,0.0
-17644,-980,-1080,2005,-5102,-616,2025-02-03 17:27:48,0.0
-16260,-800,-88,2209,-9122,344,2025-02-03 17:27:48,0.0
-14688,-580,328,2604,-11304,829,2025-02-03 17:27:48,0.0
-13252,-348,-56,2610,-11485,843,2025-02-03 17:27:48,0.0
-12244,-144,-292,2349,-9479,503,2025-02-03 17:27:48,0.0
-11896,-76,-56,2128,-6288,194,2025-02-03 17:27:48,0.0
-11584,-100,-340,2060,-2876,-21,2025-02-03 17:27:48,0.0
-14000,196,132,-413,-2509,-219,2025-02-03 17:27:48,0.0
-13512,72,0,-569,-2255,-380,2025-02-03 17:27:48,0.0
-13384,8,-1164,-782,-1587,-375,2025-02-03 17:27:48,0.0
-13124,-104,-1612,-1123,-798,-363,2025-02-03 17:27:49,0.0
-12916,332,-1084,-1489,426,-356,2025-02-03 17:27:49,0.0
-13188,1036,-504,-1764,1885,-375,2025-02-03 17:27:49,0.0
-13284,376,-764,-2150,2345,-559,2025-02-03 17:27:49,0.0
-13420,-596,-1200,-2318,2389,-1030,2025-02-03 17:27:49,0.0
-13812,-1212,-2112,-2277,2349,-1492,2025-02-03 17:27:49,0.0
-14156,-1016,-2816,-2527,1903,-1451,2025-02-03 17:27:49,0.0
-13600,-780,-1700,-2889,1080,-1345,2025-02-03 17:27:49,0.0
-12988,-1204,-292,-2991,491,-1749,2025-02-03 17:27:49,0.0
-13076,-1740,152,-3085,455,-2217,2025-02-03 17:27:49,0.0
-13428,-2100,-460,-2981,1114,-2574,2025-02-03 17:27:49,0.0
-13988,-1608,-1760,-3068,2182,-2580,2025-02-03 17:27:49,0.0
-14340,-900,-1680,-3391,2911,-2366,2025-02-03 17:27:49,0.0
-14228,-288,-1036,-3815,3100,-2375,2025-02-03 17:27:49,0.0
-14336,84,-724,-4451,2975,-2729,2025-02-03 17:27:49,0.0
-12436,-352,-2012,-8766,-2010,-2605,2025-02-03 17:27:49,0.0
-11824,-312,-2432,-9778,-1013,-2768,2025-02-03 17:27:49,0.0
-12052,-772,-2772,-10590,283,-2828,2025-02-03 17:27:49,0.0
-12636,-1124,-2492,-11345,2152,-2725,2025-02-03 17:27:49,0.0
-12980,-1448,-2316,-11983,3696,-2865,2025-02-03 17:27:49,0.0
-13424,-1688,-2004,-12450,4205,-3352,2025-02-03 17:27:49,0.0
-14000,-1952,-2020,-12833,3345,-3846,2025-02-03 17:27:49,0.0
-14544,-1984,-2104,-13172,1537,-4019,2025-02-03 17:27:49,0.0
-14424,-2348,-1828,-13492,-359,-3996,2025-02-03 17:27:49,0.0
-13984,-2648,-1892,-13829,-2119,-3987,2025-02-03 17:27:49,0.0
-13516,-2712,-2044,-14192,-2897,-3889,2025-02-03 17:27:49,0.0
-13104,-2736,-1940,-14453,-2957,-3641,2025-02-03 17:27:49,0.0
-12796,-2516,-1988,-14706,-2351,-3249,2025-02-03 17:27:49,0.0
-12636,-2544,-1964,-14844,-1243,-2925,2025-02-03 17:27:49,0.0
-12468,-2480,-2088,-14922,39,-2661,2025-02-03 17:27:49,0.0
-12720,-2352,-2216,-15048,1005,-2501,2025-02-03 17:27:49,0.0
-12756,-2556,-2484,-15204,1434,-2432,2025-02-03 17:27:49,0.0
-13032,-2528,-2376,-15314,1410,-2402,2025-02-03 17:27:49,0.0
-13520,-2924,-2292,-15648,845,-2260,2025-02-03 17:27:49,0.0
-13408,-2932,-2536,-15767,749,-2228,2025-02-03 17:27:49,0.0
-13384,-3016,-3228,-15871,661,-2416,2025-02-03 17:27:49,0.0
-13296,-2872,-3608,-16369,34,-2511,2025-02-03 17:27:49,0.0
-13200,-2252,-2912,-16846,-782,-2418,2025-02-03 17:27:49,0.0
-13336,-1560,-1932,-17336,-1407,-2224,2025-02-03 17:27:49,0.0
-13184,-880,-2064,-17756,-1223,-2125,2025-02-03 17:27:49,0.0
-13088,-620,-3072,-18126,-1011,-1985,2025-02-03 17:27:49,0.0
-12940,-1272,-3952,-18622,-1808,-1658,2025-02-03 17:27:49,0.0
-12804,-2888,-3820,-18931,-2636,-1512,2025-02-03 17:27:49,0.0
-13008,-4508,-3552,-19169,-2274,-1740,2025-02-03 17:27:49,0.0
-13188,-5664,-2872,-18773,-1370,-2045,2025-02-03 17:27:49,0.0
-13448,-6016,-2708,-17640,-367,-2226,2025-02-03 17:27:49,0.0
-13800,-5040,-3880,-15036,1906,-3447,2025-02-03 17:27:49,0.0
-14376,-2720,-4100,-14496,1084,-3647,2025-02-03 17:27:49,0.0
-14728,-88,-4300,-14392,-1219,-2803,2025-02-03 17:27:49,0.0
-14472,2116,-4696,-14930,-3980,-1377,2025-02-03 17:27:49,0.0
-13624,3916,-4920,-16027,-6292,111,2025-02-03 17:27:49,0.0
-11988,4380,-4408,-16832,-7100,810,2025-02-03 17:27:49,0.0
-11144,2112,-5488,-17151,-4856,-230,2025-02-03 17:27:49,0.0
-11920,-524,-5704,-17741,88,-1607,2025-02-03 17:27:49,0.0
-13192,-1804,-3764,-17641,4703,-2552,2025-02-03 17:27:49,0.0
-15532,-928,-900,-17220,6249,-1826,2025-02-03 17:27:49,0.0
-16196,432,292,-16431,5203,-428,2025-02-03 17:27:50,0.0
-15308,1140,-1300,-16390,2399,121,2025-02-03 17:27:50,0.0
-13612,1596,-3904,-17777,-937,-813,2025-02-03 17:27:50,0.0
-12840,1712,-4216,-19453,-3059,-1846,2025-02-03 17:27:50,0.0
-12420,1676,-2964,-20093,-3012,-2238,2025-02-03 17:27:50,0.0
-12544,992,-1628,-19906,-1293,-2158,2025-02-03 17:27:50,0.0
-12108,-80,-1452,-19559,730,-2239,2025-02-03 17:27:50,0.0
-11988,-1576,-1440,-19217,2086,-2569,2025-02-03 17:27:50,0.0
-12368,-2404,-696,-18919,2847,-3041,2025-02-03 17:27:50,0.0
-13088,-2348,356,-18200,3137,-3161,2025-02-03 17:27:50,0.0
-13400,-1456,1048,-17162,2939,-2920,2025-02-03 17:27:50,0.0
-13484,416,-348,-15984,2833,-2772,2025-02-03 17:27:50,0.0
-13292,1140,-1380,-16005,2591,-3131,2025-02-03 17:27:50,0.0
-13440,1160,-2104,-16283,2305,-3578,2025-02-03 17:27:50,0.0
-13660,532,-1652,-16756,1817,-3916,2025-02-03 17:27:50,0.0
-13244,-32,-792,-16837,957,-4133,2025-02-03 17:27:50,0.0
-13064,-324,-356,-16529,421,-4180,2025-02-03 17:27:50,0.0
-12804,-104,-544,-16060,580,-4103,2025-02-03 17:27:50,0.0
-12684,488,-704,-15500,1223,-4014,2025-02-03 17:27:50,
-12712,1140,-832,-15182,2346,-4003,2025-02-03 17:27:50,0.0
-13736,2768,-2992,-16006,4116,-4903,2025-02-03 17:27:50,0.0
-13728,2344,-3412,-16512,3167,-5168,2025-02-03 17:27:50,0.0
-13632,1576,-3592,-16774,1651,-5197,2025-02-03 17:27:50,0.0
-13528,1052,-3376,-16778,546,-4918,2025-02-03 17:27:50,0.0
-13328,12,-2608,-16501,199,-4631,2025-02-03 17:27:50,0.0
-13236,-1028,-2212,-16064,568,-4584,2025-02-03 17:27:50,0.0
-13368,-1120,-1908,-15507,1433,-4407,2025-02-03 17:27:50,0.0
-13432,-156,-1480,-14651,1661,-4085,2025-02-03 17:27:50,0.0
-13200,704,-1836,-13921,919,-3997,2025-02-03 17:27:50,0.0
-12724,992,-2268,-13692,-708,-4185,2025-02-03 17:27:50,0.0
-12180,84,-1772,-13314,-2931,-4859,2025-02-03 17:27:50,0.0
-11992,-1644,-688,-12687,-3881,-5486,2025-02-03 17:27:50,0.0
-12364,-3044,912,-11365,-3697,-5968,2025-02-03 17:27:50,0.0
-14076,-3324,1404,-10040,-1831,-5724,2025-02-03 17:27:50,0.0
-15632,-1556,580,-9072,1437,-4235,2025-02-03 17:27:50,0.0
-15980,496,-936,-8104,3792,-2614,2025-02-03 17:27:50,0.0
-15856,1620,-2884,-7869,4540,-1612,2025-02-03 17:27:50,0.0
-14836,1516,-3876,-8614,3189,-1393,2025-02-03 17:27:50,0.0
-13800,36,-2964,-9586,-17,-2137,2025-02-03 17:27:50,0.0
-14220,-476,-1068,-9707,-2680,-2693,2025-02-03 17:27:50,0.0
-14308,-416,-216,-9025,-3430,-2525,2025-02-03 17:27:50,0.0
-13708,-932,-844,-8035,-3387,-2292,2025-02-03 17:27:51,0.0
-12576,-3020,-648,-3174,547,-467,2025-02-03 17:27:51,0.0
-12756,-2476,-1392,-1950,1101,-144,2025-02-03 17:27:51,0.0
-12724,-2088,-2352,-1350,1377,-87,2025-02-03 17:27:51,0.0
-12948,-1684,-2604,-1105,1305,-143,2025-02-03 17:27:51,0.0
-13308,-1692,-2236,-879,1391,-118,2025-02-03 17:27:51,0.0
-13440,-1548,-2300,-601,1508,-105,2025-02-03 17:27:51,0.0
-13648,-1200,-2424,-262,1669,-61,2025-02-03 17:27:51,0.0
-13944,-744,-2572,-76,1765,-58,2025-02-03 17:27:51,0.0
-12964,260,-2580,-1377,179,25,2025-02-03 17:27:51,0.0
-13152,-4,-2108,-1356,775,62,2025-02-03 17:27:51,0.0
-13168,-444,-1972,-1156,1386,11,2025-02-03 17:27:51,0.0
-13520,-496,-1936,-933,1386,-92,2025-02-03 17:27:51,0.0
-13528,-428,-2044,-691,886,-126,2025-02-03 17:27:51,0.0
-13416,-424,-2012,-558,374,-184,2025-02-03 17:27:51,0.0
-13428,-496,-2236,-392,-50,-217,2025-02-03 17:27:51,0.0
-13316,-444,-2244,-231,-146,-175,2025-02-03 17:27:51,0.0
-13372,-336,-2104,-35,377,-152,2025-02-03 17:27:51,0.0
-13568,-372,-2268,150,830,-114,2025-02-03 17:27:51,0.0
-13632,-176,-2144,300,966,-115,2025-02-03 17:27:51,0.0
-13848,-748,-1316,1009,-735,-52,2025-02-03 17:27:51,0.0
-13224,-620,-1764,1531,-1156,70,2025-02-03 17:27:51,0.0
-13068,-628,-2188,1833,-528,67,2025-02-03 17:27:51,0.0
-13064,-424,-2384,2018,196,52,2025-02-03 17:27:51,0.0
-13148,-240,-2640,2187,672,64,2025-02-03 17:27:51,0.0
-13280,-88,-2500,2237,752,20,2025-02-03 17:27:51,0.0
-13340,24,-2384,2257,401,-8,2025-02-03 17:27:51,0.0
-12992,0,-2728,2189,-176,-98,2025-02-03 17:27:51,0.0
-12916,-24,-2884,2039,-411,-206,2025-02-03 17:27:51,0.0
-12876,192,-2972,1898,-10,-310,2025-02-03 17:27:51,0.0
-12996,432,-2984,1605,710,-376,2025-02-03 17:27:51,0.0
-13336,448,-2952,1167,1128,-430,2025-02-03 17:27:51,0.0
-13600,360,-2432,882,1147,-388,2025-02-03 17:27:51,0.0
-13828,212,-2124,756,741,-336,2025-02-03 17:27:51,0.0
-13712,-28,-2096,686,211,-435,2025-02-03 17:27:51,0.0
-13504,-224,-1756,670,-177,-617,2025-02-03 17:27:51,0.0
-13420,-300,-1828,822,-339,-771,2025-02-03 17:27:51,0.0
-13364,-260,-1912,996,-156,-838,2025-02-03 17:27:51,0.0
-13376,388,-1844,1127,56,-1013,2025-02-03 17:27:51,0.0
-13340,516,-1816,958,-75,-960,2025-02-03 17:27:51,0.0
-13260,732,-1748,592,-205,-969,2025-02-03 17:27:51,0.0
-13168,1020,-1916,258,-244,-1061,2025-02-03 17:27:51,0.0
-13024,1320,-2460,-333,-54,-1368,2025-02-03 17:27:51,0.0
-13148,1564,-2688,-1016,107,-1697,2025-02-03 17:27:51,0.0
-13404,1608,-2940,-1557,366,-2002,2025-02-03 17:27:51,0.0
-13508,1224,-2772,-2010,619,-2187,2025-02-03 17:27:51,0.0
-13536,700,-3020,-2424,533,-2389,2025-02-03 17:27:51,0.0
-13560,-184,-3080,-2612,-70,-2517,2025-02-03 17:27:51,0.0
-13216,-928,-3088,-2591,-840,-2531,2025-02-03 17:27:51,0.0
-12640,-1644,-3092,-2500,-1484,-2622,2025-02-03 17:27:52,0.0
-12164,-2368,-2116,-2315,-1959,-2625,2025-02-03 17:27:52,0.0
-12408,-2564,-1616,-2048,-1555,-2409,2025-02-03 17:27:52,0.0
-12492,-2788,-832,-1860,-132,-2056,2025-02-03 17:27:52,0.0
-13020,-2424,-460,-1740,1703,-1779,2025-02-03 17:27:52,0.0
-13396,-1760,-628,-1748,3570,-1611,2025-02-03 17:27:52,0.0
-13568,-1252,-1112,-1969,4461,-1878,2025-02-03 17:27:52,0.0
-14256,-924,-1140,-2417,4155,-2254,2025-02-03 17:27:52,0.0
-14332,-796,-1528,-2611,2838,-2538,2025-02-03 17:27:52,0.0
-13716,-2760,-744,-2598,-919,-2735,2025-02-03 17:27:52,0.0
-13376,-2544,-676,-2211,-1182,-2523,2025-02-03 17:27:52,0.0
-13016,-2036,-1168,-1920,-1193,-2161,2025-02-03 17:27:52,0.0
-12384,-1556,-1432,-1913,-1380,-1935,2025-02-03 17:27:52,0.0
-12152,-1464,-1212,-2187,-1367,-1859,2025-02-03 17:27:52,0.0
-12232,-1664,-988,-2538,-1034,-1996,2025-02-03 17:27:52,0.0
-12400,-1892,-456,-2802,-91,-1991,2025-02-03 17:27:52,0.0
-12784,-2256,208,-2996,136,-1699,2025-02-03 17:27:52,0.0
-13544,-2424,964,-3125,-297,-1117,2025-02-03 17:27:52,0.0
-13652,-2224,1480,-3219,-893,-610,2025-02-03 17:27:52,0.0
-13744,-1768,1180,-3195,-1525,-251,2025-02-03 17:27:52,0.0
-13928,-1632,64,-3312,-2413,-18,2025-02-03 17:27:52,0.0
-14168,-2240,-404,-3933,-2603,-327,2025-02-03 17:27:52,0.0
-13636,-2936,68,-4353,-2402,-1383,2025-02-03 17:27:52,0.0
-13324,-2644,424,-3958,-3413,-1724,2025-02-03 17:27:52,0.0
-12984,-1744,500,-3511,-4318,-1505,2025-02-03 17:27:52,0.0
-12584,-1192,28,-3545,-3750,-1475,2025-02-03 17:27:52,0.0
-12232,-1644,-1572,-4031,-2240,-1677,2025-02-03 17:27:52,0.0
-12864,-2400,-3032,-4771,-358,-1793,2025-02-03 17:27:52,0.0
-13196,-2460,-3356,-5421,1486,-1906,2025-02-03 17:27:52,
-14084,-2024,-1544,-5834,3346,-2130,2025-02-03 17:27:52,0.0
-15440,-2208,348,-6221,5530,-2285,2025-02-03 17:27:52,0.0
-16820,-3344,1812,-6597,7083,-2472,2025-02-03 17:27:52,0.0
-17312,-4648,2488,-6325,6605,-3072,2025-02-03 17:27:52,0.0
-16900,-6080,2064,-5280,4205,-3938,2025-02-03 17:27:52,0.0
-16900,-7372,508,-3548,1761,-4816,2025-02-03 17:27:52,0.0
-17608,-8324,-1808,-1339,1037,-5707,2025-02-03 17:27:52,0.0
-18688,-8808,-2780,489,1430,-6168,2025-02-03 17:27:52,0.0
-20984,-7584,-2292,1963,1593,-5034,2025-02-03 17:27:52,0.0
-22376,-5300,-880,3015,-750,-1349,2025-02-03 17:27:52,0.0
-18160,-2680,-920,3397,-8833,3301,2025-02-03 17:27:52,0.0
-15784,-1976,-2508,2428,-13282,4956,2025-02-03 17:27:52,0.0
-13332,-1200,-3920,1332,-15394,6147,2025-02-03 17:27:52,0.0
-10572,-500,-5552,562,-15141,6751,2025-02-03 17:27:52,0.0
-8532,164,-7928,-222,-11641,6177,2025-02-03 17:27:52,0.0
-6512,676,-8688,-1218,-5301,3901,2025-02-03 17:27:52,0.0
-5608,188,-6572,-1726,1260,423,2025-02-03 17:27:52,0.0
-8368,-988,-3796,-2444,6951,-1721,2025-02-03 17:27:52,0.0
-12048,-1196,-488,-1822,10303,-1543,2025-02-03 17:27:52,0.0
-14448,-1316,-808,-296,10752,169,2025-02-03 17:27:52,0.0
-15528,-1504,-2608,357,8913,2324,2025-02-03 17:27:52,0.0
-15136,-2004,-3524,26,5892,3513,2025-02-03 17:27:52,0.0
-14600,-2220,-3068,-394,2121,3790,2025-02-03 17:27:52,0.0
-14464,-2296,-2008,-131,-585,3753,2025-02-03 17:27:52,0.0
-13888,-1616,-1276,1246,-1869,4556,2025-02-03 17:27:52,0.0
-12792,-1180,-1796,2386,-1544,5339,2025-02-03 17:27:52,0.0
-12284,-688,-2072,3118,-1236,5798,2025-02-03 17:27:52,0.0
-12100,-224,-1552,3689,-970,5905,2025-02-03 17:27:52,0.0
-11628,124,-1364,4225,-503,5773,2025-02-03 17:27:52,0.0
-11204,424,-1356,4436,78,5405,2025-02-03 17:27:52,0.0
-11500,260,-1072,4394,816,4812,2025-02-03 17:27:52,0.0
-11604,336,-564,4595,787,4041,2025-02-03 17:27:52,0.0
-12108,864,-1028,4828,-45,3432,2025-02-03 17:27:53,0.0
-12812,1380,-1132,4754,-1057,3039,2025-02-03 17:27:53,0.0
-12648,1420,-1376,4600,-1637,2592,2025-02-03 17:27:53,0.0
-11688,1188,-1196,4164,-3168,1319,2025-02-03 17:27:53,0.0
-11044,876,-668,3775,-4535,50,2025-02-03 17:27:53,0.0
-10828,768,-436,3541,-5272,-930,2025-02-03 17:27:53,0.0
-11032,716,-148,3371,-5142,-1510,2025-02-03 17:27:53,0.0
-11376,500,116,3195,-4534,-1713,2025-02-03 17:27:53,0.0
-11796,264,856,3119,-3688,-1855,2025-02-03 17:27:53,0.0
-12852,68,744,3249,-3123,-1840,2025-02-03 17:27:53,0.0
-13228,-100,-248,3275,-3584,-1543,2025-02-03 17:27:53,0.0
-13024,-232,-800,3222,-4654,-1173,2025-02-03 17:27:53,0.0
-12596,-260,-1028,3239,-5183,-794,2025-02-03 17:27:53,0.0
-12380,-148,-592,3540,-4133,-248,2025-02-03 17:27:53,0.0
-12636,-168,220,4025,-1318,317,2025-02-03 17:27:53,0.0
-10804,-2780,-3776,-2715,-15441,-4571,2025-02-03 17:27:53,0.0
-11208,-1972,-4732,-1524,-15682,-4880,2025-02-03 17:27:53,0.0
-11712,-1428,-5484,262,-11991,-3164,2025-02-03 17:27:53,0.0
-11408,-2208,-6496,1374,-3968,-1269,2025-02-03 17:27:53,0.0
-10096,-2484,-6164,856,5479,-1131,2025-02-03 17:27:53,0.0
-10200,-1512,-5348,-123,11661,-2404,2025-02-03 17:27:53,0.0
-12000,-560,-3208,-745,13637,-3211,2025-02-03 17:27:53,0.0
-13360,192,-1764,-671,11780,-3311,2025-02-03 17:27:54,0.0
-13860,-2252,-1676,-6946,-1787,3123,2025-02-03 17:27:54,0.0
-13608,-2656,-1600,-7322,-1522,3556,2025-02-03 17:27:54,0.0
-12220,-2740,-1340,-7163,-864,3187,2025-02-03 17:27:54,0.0
-11688,-2708,-1060,-6865,246,2138,2025-02-03 17:27:54,0.0
-11944,-2484,-140,-6796,2388,637,2025-02-03 17:27:54,0.0
-13744,-1860,380,-6827,5072,-597,2025-02-03 17:27:54,0.0
-15460,-1872,396,-7155,7295,-1213,2025-02-03 17:27:54,0.0
-16996,-2328,760,-7441,7695,-1212,2025-02-03 17:27:54,0.0
-11644,796,-3020,-2369,8678,-402,2025-02-03 17:27:54,0.0
-13112,340,-2436,-1186,11058,334,2025-02-03 17:27:54,0.0
-14696,500,-2676,-331,10141,926,2025-02-03 17:27:54,0.0
-15596,676,-4260,-88,6149,1738,2025-02-03 17:27:54,0.0
-14740,280,-5704,-446,1014,2531,2025-02-03 17:27:54,0.0
-13604,124,-5084,-786,-3232,2857,2025-02-03 17:27:54,0.0
-12284,424,-4144,-793,-5148,3056,2025-02-03 17:27:54,0.0
-11344,1112,-3180,-393,-4716,3109,2025-02-03 17:27:54,0.0
-10500,1556,-3192,160,-2451,2919,2025-02-03 17:27:54,0.0
-10616,1772,-3196,486,1338,2326,2025-02-03 17:27:54,0.0
-11008,1704,-4056,333,3631,1807,2025-02-03 17:27:54,0.0
-11876,1912,-3724,225,4514,1662,2025-02-03 17:27:54,0.0
-12672,2064,-3204,41,4525,1825,2025-02-03 17:27:54,0.0
-13132,1876,-2528,-115,3619,1857,2025-02-03 17:27:54,0.0
-13240,1384,-1976,-70,1790,1599,2025-02-03 17:27:54,0.0
-13196,696,-1740,142,-171,1314,2025-02-03 17:27:54,0.0
-13424,440,-1052,715,-1605,1036,2025-02-03 17:27:54,0.0
-13236,252,-1484,1246,-1906,906,2025-02-03 17:27:54,0.0
-12860,280,-1824,1586,-1975,521,2025-02-03 17:27:54,0.0
-12340,568,-2648,1929,-2034,303,2025-02-03 17:27:54,0.0
-12008,716,-2532,2172,-1885,89,2025-02-03 17:27:54,0.0
-16044,-76,-5864,1702,6784,2183,2025-02-03 17:27:54,0.0
-14068,-1024,-3232,2084,-118,1636,2025-02-03 17:27:54,0.0
-13216,-2380,-2000,2882,-5917,576,2025-02-03 17:27:55,0.0
-12428,-3160,-880,3922,-9033,-289,2025-02-03 17:27:55,0.0
-11632,-3036,-988,5381,-10068,-767,2025-02-03 17:27:55,0.0
-11492,-2176,-2044,6374,-9067,-612,2025-02-03 17:27:55,0.0
-11284,-352,-3524,6692,-5513,-113,2025-02-03 17:27:55,0.0
-11268,1544,-5264,6131,-219,32,2025-02-03 17:27:56,0.0
-14540,-1488,-2384,-11367,3064,-4755,2025-02-03 17:27:56,0.0
-14848,-1856,-1992,-11851,1457,-4918,2025-02-03 17:27:56,0.0
-14880,-1980,-1700,-12105,-982,-4713,2025-02-03 17:27:56,0.0
-14544,-1864,-2300,-12473,-3453,-4169,2025-02-03 17:27:56,0.0
-13436,-1536,-2632,-12988,-5491,-3632,2025-02-03 17:27:56,0.0
-12424,-1496,-2792,-13496,-6450,-3347,2025-02-03 17:27:56,0.0
-11768,-1656,-3108,-14175,-6047,-3302,2025-02-03 17:27:56,0.0
-11520,-1996,-3004,-14827,-4417,-3451,2025-02-03 17:27:56,
-11580,-2248,-2484,-15321,-2223,-3698,2025-02-03 17:27:56,0.0
-12012,-2420,-1488,-15615,-260,-3872,2025-02-03 17:27:56,0.0
-12920,-2692,-772,-15645,814,-3692,2025-02-03 17:27:56,0.0
-13836,-2516,-532,-15478,960,-3206,2025-02-03 17:27:56,0.0
-14264,-2372,-936,-15301,264,-2480,2025-02-03 17:27:56,0.0
-13440,-2864,-2268,-15710,-1350,-2309,2025-02-03 17:27:56,0.0
-13552,-512,-1512,-17737,-2249,-3175,2025-02-03 17:27:56,0.0
-13888,836,-1788,-17770,-2000,-2471,2025-02-03 17:27:56,0.0
-13224,224,-2636,-17715,-1282,-2006,2025-02-03 17:27:56,0.0
-12576,-2012,-3016,-18107,-277,-2892,2025-02-03 17:27:56,0.0
-12864,-4588,-2704,-18463,547,-4531,2025-02-03 17:27:56,0.0
-14264,-6908,-2040,-19053,-95,-5277,2025-02-03 17:27:56,0.0
-16196,-6572,-500,-19056,-1334,-3920,2025-02-03 17:27:56,0.0
-15392,-3812,1132,-17733,-3022,-1646,2025-02-03 17:27:56,0.0
-13596,-1844,592,-16612,-3987,-542,2025-02-03 17:27:56,0.0
-12456,-1280,-404,-16858,-4094,-222,2025-02-03 17:27:56,0.0
-11760,-1708,-676,-17354,-3864,-58,2025-02-03 17:27:56,0.0
-12148,-2932,-768,-17406,-3164,377,2025-02-03 17:27:56,0.0
-12632,-3252,-1844,-17032,-2309,1021,2025-02-03 17:27:56,0.0
-13096,-2596,-3856,-16915,-1333,1579,2025-02-03 17:27:56,0.0
-13152,-2540,-6100,-16926,936,1016,2025-02-03 17:27:56,0.0
-13512,-1716,-7972,-16335,4422,-520,2025-02-03 17:27:56,0.0
-13852,-368,-7476,-15100,6727,-2419,2025-02-03 17:27:56,0.0
-14988,1576,-5844,-14370,4053,-3580,2025-02-03 17:27:56,0.0
-16508,3004,-3084,-15764,-1850,-2157,2025-02-03 17:27:56,0.0
-15416,2876,-1164,-16270,-5003,-245,2025-02-03 17:27:56,0.0
-13032,420,-4908,-16600,-4013,-483,2025-02-03 17:27:56,0.0
-11280,-1292,-7056,-18000,-453,-1958,2025-02-03 17:27:56,0.0
-11256,-1252,-5780,-18689,2662,-3158,2025-02-03 17:27:56,0.0
-12476,-232,-3380,-19095,4937,-3213,2025-02-03 17:27:57,0.0
-13292,1788,-2692,-19517,5791,-2030,2025-02-03 17:27:57,0.0
-13600,3492,-3116,-20043,5606,-875,2025-02-03 17:27:57,0.0
-12852,4448,-4336,-20426,4771,-486,2025-02-03 17:27:57,0.0
-11572,4248,-5420,-20973,3274,-1325,2025-02-03 17:27:57,0.0
-11128,2892,-5924,-21804,1817,-2811,2025-02-03 17:27:57,0.0
-11920,524,-5468,-22895,1614,-3837,2025-02-03 17:27:57,0.0
-12156,-1320,-3840,-23269,1946,-4427,2025-02-03 17:27:57,0.0
-13084,-3424,-2872,-22626,2589,-4526,2025-02-03 17:27:57,0.0
-13460,-4148,-1888,-21718,2465,-4214,2025-02-03 17:27:57,0.0
-13728,-3384,-744,-20533,1799,-4019,2025-02-03 17:27:57,0.0
-13812,-1896,-568,-19437,1181,-4016,2025-02-03 17:27:57,0.0
-14256,-580,-784,-18786,912,-4024,2025-02-03 17:27:57,0.0
-14560,148,-1048,-18504,526,-4029,2025-02-03 17:27:57,0.0
-14436,632,-1708,-18518,-230,-4014,2025-02-03 17:27:57,0.0
-14524,1144,-1532,-18749,-990,-4063,2025-02-03 17:27:57,0.0
-12840,1732,-3996,-18716,-1758,-3874,2025-02-03 17:27:57,0.0
-12668,1492,-3792,-18324,-1692,-3677,2025-02-03 17:27:57,0.0
-12648,816,-3552,-17869,-1305,-3437,2025-02-03 17:27:57,0.0
-12696,276,-2904,-17289,-773,-3163,2025-02-03 17:27:57,0.0
-12548,88,-2352,-16440,-16,-2949,2025-02-03 17:27:57,0.0
-12520,-100,-1592,-15347,453,-2916,2025-02-03 17:27:57,0.0
-12716,368,-1328,-13765,476,-2984,2025-02-03 17:27:57,0.0
-12740,1004,-1424,-12864,83,-2955,2025-02-03 17:27:57,0.0
-12816,1392,-1336,-11902,-405,-2932,2025-02-03 17:27:57,0.0
-12396,1036,-1056,-11111,-954,-3068,2025-02-03 17:27:57,0.0
-12128,376,-680,-10430,-1444,-3423,2025-02-03 17:27:57,0.0
-11748,-260,-412,-9716,-1752,-3866,2025-02-03 17:27:57,0.0
-11816,-884,-644,-8865,-1861,-4318,2025-02-03 17:27:57,0.0
-12048,-1096,-1328,-8189,-1627,-4529,2025-02-03 17:27:57,0.0
-12172,-524,-1724,-7571,-972,-4467,2025-02-03 17:27:57,0.0
-12512,-68,-1212,-6790,27,-4388,2025-02-03 17:27:57,0.0
-14004,-272,-656,-6134,1689,-4155,2025-02-03 17:27:57,0.0
-16152,-740,-1432,-5767,4391,-3537,2025-02-03 17:27:57,0.0
-17336,-656,-2644,-6010,6493,-2763,2025-02-03 17:27:57,0.0
-17264,796,-2632,-6128,5813,-1781,2025-02-03 17:27:57,0.0
-15528,1592,-2012,-5757,1464,-1088,2025-02-03 17:27:57,0.0
-13060,-140,-80,-5076,-5091,-1944,2025-02-03 17:27:57,0.0
-13120,-3840,1352,-4786,-10090,-3766,2025-02-03 17:27:57,0.0
-13984,-5136,1036,-4370,-8418,-4102,2025-02-03 17:27:57,0.0
-14272,-4340,-820,-3441,-4133,-2853,2025-02-03 17:27:57,0.0
-13016,-1832,-1820,-1774,1021,-565,2025-02-03 17:27:57,0.0
-11468,-400,-1496,-1308,4206,-276,2025-02-03 17:27:57,0.0
-12804,1344,64,-2096,6520,-1292,2025-02-03 17:27:57,0.0
-13944,1928,140,-3702,8420,-2326,2025-02-03 17:27:57,0.0
-15424,776,264,-5128,7116,-3005,2025-02-03 17:27:57,0.0
-16132,-1008,-744,-5865,3188,-3158,2025-02-03 17:27:57,0.0
-15984,-2544,-1880,-6095,-1603,-2911,2025-02-03 17:27:57,0.0
-15264,-3440,-1812,-5861,-4929,-2427,2025-02-03 17:27:57,0.0
-13920,-3324,-1372,-5602,-6194,-2139,2025-02-03 17:27:57,0.0
-13052,-2788,-768,-5398,-5448,-2196,2025-02-03 17:27:57,0.0
-12352,-2132,-264,-5225,-3376,-2305,2025-02-03 17:27:57,0.0
-12216,-1760,248,-5266,-1010,-2275,2025-02-03 17:27:57,0.0
-13232,-1356,-696,-5488,1909,-1763,2025-02-03 17:27:57,0.0
-13924,-1732,-864,-5576,1683,-1192,2025-02-03 17:27:57,0.0
-13900,-2252,-700,-5503,640,-608,2025-02-03 17:27:57,0.0
-14056,-2880,-68,-5229,-932,-52,2025-02-03 17:27:57,0.0
-13624,-3424,252,-4611,-2176,498,2025-02-03 17:27:57,0.0
-13176,-3368,248,-3953,-2444,888,2025-02-03 17:27:57,0.0
-13048,-3224,148,-3429,-1776,1179,2025-02-03 17:27:58,0.0
-12904,-3008,-452,-2881,-389,1293,2025-02-03 17:27:58,0.0
-13092,-2900,-428,-2229,1161,1219,2025-02-03 17:27:58,0.0
-13640,-2560,-20,-1380,2268,1068,2025-02-03 17:27:58,0.0
-13920,-2088,-144,-701,2299,1051,2025-02-03 17:27:58,0.0
-14316,-1584,0,-153,1676,832,2025-02-03 17:27:58,0.0
-14312,-1224,-356,354,760,528,2025-02-03 17:27:58,0.0
-14080,-1268,-896,691,-388,318,2025-02-03 17:27:58,0.0
-13752,-1504,-1388,634,-1602,206,2025-02-03 17:27:58,0.0
-13444,-1492,-1224,651,-2234,143,2025-02-03 17:27:58,0.0
-13208,-1080,-1660,667,-1462,143,2025-02-03 17:27:58,0.0
-13200,-432,-1908,560,6,280,2025-02-03 17:27:58,
-12944,344,-1844,293,1225,389,2025-02-03 17:27:58,0.0
-13012,720,-1404,-15,1934,464,2025-02-03 17:27:58,0.0
-13064,856,-960,-249,2267,400,2025-02-03 17:27:58,0.0
-13216,236,-1384,-371,2183,223,2025-02-03 17:27:58,0.0
-13376,-440,-1664,-408,1982,102,2025-02-03 17:27:58,0.0
-13724,-860,-1848,-393,1916,121,2025-02-03 17:27:58,0.0
-13712,-848,-1508,-354,2007,240,2025-02-03 17:27:58,0.0
-13720,-508,-824,-246,1975,304,2025-02-03 17:27:58,0.0
-13732,-256,-496,-268,1677,351,2025-02-03 17:27:58,0.0
-13920,84,-896,-399,1029,359,2025-02-03 17:27:58,0.0
-13816,80,-1400,-482,471,123,2025-02-03 17:27:58,0.0
-14044,-96,-2152,-518,343,-157,2025-02-03 17:27:58,0.0
-13980,-264,-2092,-625,166,-241,2025-02-03 17:27:58,0.0
-13852,-92,-1528,-630,-240,-124,2025-02-03 17:27:58,0.0
-13420,-172,-1032,-657,-574,-36,2025-02-03 17:27:58,0.0
-13128,-400,-1204,-518,-730,-72,2025-02-03 17:27:58,0.0
-13272,-448,-1456,-377,-628,-99,2025-02-03 17:27:58,0.0
-13404,-412,-1664,-221,-249,-133,2025-02-03 17:27:58,0.0
-13540,-256,-1772,-150,247,-127,2025-02-03 17:27:58,0.0
-13460,-96,-1452,-116,593,-193,2025-02-03 17:27:58,0.0
-13676,12,-1212,-7,580,-224,2025-02-03 17:27:58,0.0
-13648,108,-1220,107,225,-126,2025-02-03 17:27:58,0.0
-13440,204,-1532,131,-145,-43,2025-02-03 17:27:58,0.0
-13332,84,-1728,116,-171,-139,2025-02-03 17:27:58,0.0
-13536,-32,-1464,130,108,-169,2025-02-03 17:27:58,0.0
-13644,84,-1440,223,412,-83,2025-02-03 17:27:58,0.0
-13548,140,-1556,216,526,-97,2025-02-03 17:27:58,0.0
-13616,224,-1556,175,431,-91,2025-02-03 17:27:58,0.0
-13572,56,-1392,99,227,-146,2025-02-03 17:27:58,0.0
-13512,44,-1508,68,199,-157,2025-02-03 17:27:58,0.0
-13500,16,-1436,80,253,-120,2025-02-03 17:27:58,0.0
-13432,16,-1540,101,328,-185,2025-02-03 17:27:58,0.0
-13296,-120,-1604,126,397,-232,2025-02-03 17:27:58,0.0
-13292,-220,-1776,126,550,-249,2025-02-03 17:27:58,0.0
-13460,-284,-1680,179,715,-269,2025-02-03 17:27:58,0.0
-13484,-204,-1480,194,830,-248,2025-02-03 17:27:58,0.0
-13808,-32,-1348,256,726,-185,2025-02-03 17:27:58,0.0
-13688,52,-1552,211,523,-138,2025-02-03 17:27:58,0.0
-13572,-84,-1628,186,355,-137,2025-02-03 17:27:58,0.0
-13584,-168,-1676,257,307,-128,2025-02-03 17:27:59,0.0
-13536,-376,-1808,302,393,-151,2025-02-03 17:27:59,0.0
-13636,-20,-1608,339,470,-85,2025-02-03 17:27:59,0.0
-13400,-8,-1596,347,659,-110,2025-02-03 17:27:59,0.0
-13580,-32,-1564,347,747,-84,2025-02-03 17:27:59,0.0
-13656,148,-1580,421,585,41,2025-02-03 17:27:59,0.0
-13540,424,-1612,419,511,174,2025-02-03 17:27:59,0.0
-13440,496,-1628,468,599,257,2025-02-03 17:27:59,0.0
-13628,528,-1404,442,691,302,2025-02-03 17:27:59,0.0
-13680,-2352,-136,1899,39,-1956,2025-02-03 17:27:59,0.0
-14020,-2180,536,1683,-362,-1441,2025-02-03 17:27:59,0.0
-13880,-1572,764,1492,23,-1007,2025-02-03 17:27:59,0.0
-13600,-908,8,1295,934,-848,2025-02-03 17:27:59,0.0
-12988,-572,-988,755,1747,-1290,2025-02-03 17:27:59,0.0
-12952,-592,-1412,-57,2197,-2245,2025-02-03 17:27:59,0.0
-13444,-1000,-1440,-751,2550,-3011,2025-02-03 17:27:59,0.0
-14048,-1232,-1124,-1057,2332,-3190,2025-02-03 17:27:59,0.0
-14228,-1584,-408,-1169,1363,-2880,2025-02-03 17:27:59,0.0
-14348,-1948,48,-1172,80,-2491,2025-02-03 17:27:59,0.0
-13716,-2092,-728,-2296,-193,1320,2025-02-03 17:27:59,0.0
-13208,-1628,120,-2453,-53,1115,2025-02-03 17:27:59,0.0
-13096,-1412,776,-2644,58,420,2025-02-03 17:27:59,0.0
-12800,-2480,344,-2655,218,-232,2025-02-03 17:28:01,0.0
-12784,-3684,-356,-2390,495,-925,2025-02-03 17:28:01,0.0
-12944,-3744,-1080,-2149,1248,-1326,2025-02-03 17:28:01,0.0
-13156,-2436,-1072,-2071,2224,-1293,2025-02-03 17:28:01,0.0
-13464,-1020,-1068,-2488,3507,-1325,2025-02-03 17:28:01,0.0
-17980,-3244,1776,3305,-8462,1730,2025-02-03 17:28:01,0.0
-16032,-936,180,3772,-11479,2845,2025-02-03 17:28:04,0.0
-14364,140,-3096,2710,-12595,4173,2025-02-03 17:28:04,0.0
-12232,212,-5856,1382,-11866,5423,2025-02-03 17:28:04,0.0
-17696,-3236,3000,-3201,-6101,202,2025-02-03 17:28:04,0.0
-15116,-3204,3132,-2521,-7267,390,2025-02-03 17:28:04,0.0
-13684,-3280,3140,-2449,-5642,5,2025-02-03 17:28:04,0.0
-12868,-3496,2724,-2621,-1715,-810,2025-02-03 17:28:04,0.0
-13328,-3664,700,-1669,3640,-2173,2025-02-03 17:28:04,0.0
-12016,-972,-1284,2732,-7523,4390,2025-02-03 17:28:04,0.0
-29188,2340,-16912,-2484,32767,-4324,2025-02-03 17:28:04,0.0
-32768,1412,-29892,-3510,32767,-10981,2025-02-03 17:28:04,0.0
-32768,120,-32768,-6408,32767,-11052,2025-02-03 17:28:04,0.0
-21864,6552,-32340,-480,32767,-977,2025-02-03 17:28:04,0.0
14460,-884,-32768,5599,32767,10323,2025-02-03 17:28:04,0.0
21516,-10232,-31580,-1189,-5172,4751,2025-02-03 17:28:04,0.0
-6564,-4144,-17784,-3249,-14209,-1313,2025-02-03 17:28:04,0.0
-8352,-36,-11944,-440,-9286,-415,2025-02-03 17:28:04,0.0
-4648,1068,-11920,-769,-4039,575,2025-02-03 17:28:04,0.0
-1248,1356,-12660,-1702,1871,528,2025-02-03 17:28:04,0.0
1780,-308,-14564,-2510,3272,-719,2025-02-03 17:28:04,0.0
-196,-560,-13116,-2922,-1488,-99,2025-02-03 17:28:04,0.0
-1396,-752,-11672,-486,-5886,2316,2025-02-03 17:28:05,0.0
776,16,-14648,744,-91,467,2025-02-03 17:28:05,0.0
756,240,-16148,-95,2556,243,2025-02-03 17:28:05,0.0
608,184,-17136,-1160,4282,13,2025-02-03 17:28:05,0.0
-432,292,-16432,-1684,6177,-29,2025-02-03 17:28:05,0.0
-720,-96,-16372,-1341,8412,35,2025-02-03 17:28:05,0.0
-996,-504,-16244,-846,10515,-80,2025-02-03 17:28:05,0.0
-2136,-864,-16836,-177,11835,-334,2025-02-03 17:28:05,0.0
-3356,-1036,-17160,251,10255,-488,2025-02-03 17:28:05,0.0
-6224,-1304,-17740,140,8547,-542,2025-02-03 17:28:05,0.0
-8912,-1492,-17600,-232,7318,-436,2025-02-03 17:28:05,0.0
-10672,-1696,-15808,-385,5237,-263,2025-02-03 17:28:05,
-10560,-1804,-13864,-12,559,-76,2025-02-03 17:28:05,0.0
-7700,-780,-13908,87,-5720,-204,2025-02-03 17:28:05,0.0
-5408,16,-14444,49,-10342,-300,2025-02-03 17:28:05,0.0
-3712,436,-13932,-285,-11917,-168,2025-02-03 17:28:05,0.0
-4980,-592,-12976,328,-5866,-544,2025-02-03 17:28:05,0.0
-4384,-356,-13364,215,-6504,-76,2025-02-03 17:28:05,0.0
-3952,56,-13440,26,-6844,86,2025-02-03 17:28:05,0.0
-3572,276,-13500,-121,-6988,-77,2025-02-03 17:28:05,0.0
-3836,260,-13300,-194,-6781,-367,2025-02-03 17:28:05,0.0
-4480,108,-13344,-248,-6407,-439,2025-02-03 17:28:05,0.0
-5240,-356,-13232,-263,-6062,-305,2025-02-03 17:28:05,0.0
-5868,-484,-12692,-314,-6311,-136,2025-02-03 17:28:05,0.0
-7264,-316,-11904,-447,-8639,278,2025-02-03 17:28:05,0.0
-7392,-380,-11636,-482,-9004,259,2025-02-03 17:28:05,0.0
-7020,-408,-11036,-562,-9243,281,2025-02-03 17:28:05,0.0
-7028,-544,-10500,-632,-9284,173,2025-02-03 17:28:05,0.0
-7620,-456,-9984,-522,-8674,-21,2025-02-03 17:28:05,0.0
-8636,-124,-9948,-588,-7651,-284,2025-02-03 17:28:05,0.0
-9812,40,-9580,-407,-7209,-389,2025-02-03 17:28:06,0.0
-10616,-12,-9876,-366,-7812,-486,2025-02-03 17:28:06,0.0
-10428,-260,-9796,-368,-9216,-550,2025-02-03 17:28:06,0.0
-10284,-484,-9176,-606,-10576,-967,2025-02-03 17:28:06,0.0
-10116,-168,-7968,-606,-10923,-1408,2025-02-03 17:28:06,0.0
-10788,416,-6212,-169,-10585,-1640,2025-02-03 17:28:06,0.0
-11656,640,-7092,356,-7895,-1198,2025-02-03 17:28:06,0.0
-12128,32,-8704,494,-5664,-606,2025-02-03 17:28:06,0.0
-12676,-828,-10096,439,-4694,-8,2025-02-03 17:28:06,0.0
-13172,-1328,-10732,231,-5011,551,2025-02-03 17:28:06,0.0
-13008,-1672,-10228,-2,-6394,411,2025-02-03 17:28:06,0.0
-12864,-1420,-8768,203,-8136,-107,2025-02-03 17:28:06,0.0
-12576,-756,-8316,305,-9452,-495,2025-02-03 17:28:06,0.0
-12424,-80,-7492,189,-9769,-524,2025-02-03 17:28:06,0.0
-12316,780,-7352,-174,-9429,-148,2025-02-03 17:28:06,0.0
-11484,1192,-6900,-844,-9237,291,2025-02-03 17:28:06,0.0
-10736,708,-6520,-1156,-9045,334,2025-02-03 17:28:06,0.0
-10216,-12,-6136,-1232,-8761,-204,2025-02-03 17:28:06,0.0
-10104,-712,-5724,-1236,-8665,-920,2025-02-03 17:28:06,0.0
-10680,-1320,-5436,-1230,-8822,-1259,2025-02-03 17:28:06,0.0
-11184,-1444,-4864,-1028,-8959,-1056,2025-02-03 17:28:06,0.0
-11288,-1240,-4316,-438,-8837,-471,2025-02-03 17:28:06,0.0
-11404,-1152,-4368,161,-9032,77,2025-02-03 17:28:06,0.0
-11156,-896,-5116,348,-9075,409,2025-02-03 17:28:06,0.0
-11336,-976,-5156,227,-8838,605,2025-02-03 17:28:06,0.0
-11288,-804,-4572,300,-8343,630,2025-02-03 17:28:06,0.0
-11904,-528,-3868,429,-7629,544,2025-02-03 17:28:06,0.0
-12724,-280,-3376,459,-6644,376,2025-02-03 17:28:06,0.0
-13244,36,-3088,464,-5903,299,2025-02-03 17:28:06,0.0
-13756,-40,-2948,454,-5982,214,2025-02-03 17:28:06,0.0
-14276,-168,-3116,419,-6755,181,2025-02-03 17:28:06,0.0
-14264,-648,-3268,348,-8077,187,2025-02-03 17:28:06,0.0
-13628,-924,-3184,340,-9489,67,2025-02-03 17:28:06,0.0
-13796,-916,-2484,171,-10157,34,2025-02-03 17:28:06,0.0
-14572,-604,-1336,5,-8254,239,2025-02-03 17:28:06,0.0
-15044,-116,-468,54,-6508,256,2025-02-03 17:28:06,0.0
-14980,264,-724,140,-5932,127,2025-02-03 17:28:06,0.0
-14816,36,-1152,82,-6994,-40,2025-02-03 17:28:06,0.0
-14620,-520,-868,36,-8426,-65,2025-02-03 17:28:06,0.0
-13688,-996,-880,46,-9530,-122,2025-02-03 17:28:06,0.0
-12676,-1348,-288,8,-10106,-130,2025-02-03 17:28:06,0.0
-12612,-1472,456,234,-9388,-122,2025-02-03 17:28:06,0.0
-13268,-1268,1332,497,-6744,94,2025-02-03 17:28:06,0.0
-13876,-692,1380,680,-3397,607,2025-02-03 17:28:06,0.0
-15744,-424,-336,-42,-3206,829,2025-02-03 17:28:06,0.0
-16116,-968,956,-201,-4701,905,2025-02-03 17:28:06,0.0
-15848,-1652,1184,-255,-5888,1045,2025-02-03 17:28:06,0.0
-14988,-1100,1552,-478,-6164,1315,2025-02-03 17:28:06,0.0
-14052,-164,1620,-647,-5361,1214,2025-02-03 17:28:06,0.0
-13596,184,1832,-1054,-4685,969,2025-02-03 17:28:06,0.0
-13444,120,2184,-1588,-4249,728,2025-02-03 17:28:06,0.0
-13876,-128,3024,-1962,-3599,789,2025-02-03 17:28:06,0.0
-14828,-824,4192,-2013,-1846,1008,2025-02-03 17:28:06,0.0
-14816,-1708,3820,-1624,-72,952,2025-02-03 17:28:08,0.0
-15560,-2304,3228,-1146,468,1140,2025-02-03 17:28:08,0.0
-15164,-2376,2660,-1007,-477,1214,2025-02-03 17:28:08,0.0
-13864,-936,3760,-810,-2030,807,2025-02-03 17:28:08,0.0
-12928,788,4324,-589,-1618,229,2025-02-03 17:28:08,0.0
-12692,1864,4616,-718,367,-234,2025-02-03 17:28:08,0.0
-14420,1956,3980,-1010,3398,-395,2025-02-03 17:28:08,0.0
-17084,1372,3420,-1214,5824,-501,2025-02-03 17:28:08,0.0
-19960,1164,2744,-1343,6230,-428,2025-02-03 17:28:08,0.0
-14400,1300,-2256,2229,6457,254,2025-02-03 17:28:08,0.0
-14592,1576,-2464,1923,4731,675,2025-02-03 17:28:08,0.0
-14192,1280,-3312,1665,2697,263,2025-02-03 17:28:08,0.0
-13908,740,-4220,1217,62,-391,2025-02-03 17:28:08,0.0
-13964,344,-3796,502,-2867,-334,2025-02-03 17:28:08,0.0
-13328,220,-2632,305,-3556,11,2025-02-03 17:28:08,0.0
-12616,80,-2072,210,-2581,214,2025-02-03 17:28:08,0.0
-12356,80,-2260,503,-615,31,2025-02-03 17:28:08,0.0
-12308,-112,-3576,493,794,-174,2025-02-03 17:28:08,0.0
-12528,1288,-3948,-3210,2396,-968,2025-02-03 17:28:08,0.0
-13208,1164,-3924,-3715,2983,-1597,2025-02-03 17:28:08,0.0
-13560,932,-4052,-4339,2802,-2015,2025-02-03 17:28:08,0.0
-14124,808,-3456,-4914,1849,-2209,2025-02-03 17:28:08,0.0
-14444,464,-3184,-5280,350,-2206,2025-02-03 17:28:08,0.0
-14276,172,-3548,-5540,-1255,-2159,2025-02-03 17:28:08,0.0
-13108,-308,-5384,-6010,-3177,-2312,2025-02-03 17:28:08,0.0
-11880,-696,-5420,-6344,-4005,-2710,2025-02-03 17:28:08,0.0
-11236,-1424,-4908,-6301,-3311,-3416,2025-02-03 17:28:08,0.0
-11176,-2392,-4160,-6185,-1410,-4015,2025-02-03 17:28:08,0.0
-11720,-2960,-3756,-6002,920,-4141,2025-02-03 17:28:08,
-11888,-2652,-3040,-5759,2855,-3894,2025-02-03 17:28:08,0.0
-12372,-1924,-2584,-5608,4114,-3605,2025-02-03 17:28:08,0.0
-13208,-1420,-2828,-5912,5239,-3417,2025-02-03 17:28:08,0.0
-14072,-1308,-3192,-6690,5782,-3528,2025-02-03 17:28:08,0.0
-13984,-1536,-3724,-7583,5141,-4262,2025-02-03 17:28:08,0.0
-14516,-1684,-4424,-8665,3803,-5143,2025-02-03 17:28:08,0.0
-14608,-1756,-4608,-9751,1982,-5787,2025-02-03 17:28:08,0.0
-14644,-1624,-4452,-10557,-369,-6029,2025-02-03 17:28:08,0.0
-14352,-1408,-4316,-11499,-3009,-5808,2025-02-03 17:28:08,0.0
-13496,-1032,-3820,-12560,-5000,-5637,2025-02-03 17:28:08,0.0
-12688,-912,-3976,-13518,-6251,-5631,2025-02-03 17:28:08,0.0
-11928,-980,-4304,-14452,-6515,-5448,2025-02-03 17:28:08,0.0
-10908,-1728,-4528,-15339,-5371,-5214,2025-02-03 17:28:08,0.0
-10520,-2728,-4412,-15874,-4039,-5037,2025-02-03 17:28:08,0.0
-10432,-3900,-3884,-16024,-2500,-4871,2025-02-03 17:28:08,0.0
-10564,-4960,-3660,-15597,-1040,-4591,2025-02-03 17:28:08,0.0
-10968,-5420,-3800,-15008,531,-4291,2025-02-03 17:28:08,0.0
-11752,-5072,-3892,-14841,1908,-3909,2025-02-03 17:28:08,0.0
-12396,-4080,-3640,-14993,2878,-3682,2025-02-03 17:28:08,0.0
-12544,-3020,-4504,-15197,2991,-3906,2025-02-03 17:28:08,0.0
-12744,-2484,-5524,-15566,1895,-4177,2025-02-03 17:28:08,0.0
-13028,-2624,-5664,-15827,555,-4065,2025-02-03 17:28:08,0.0
-13020,-3660,-5188,-15942,-576,-3930,2025-02-03 17:28:08,0.0
-12972,-4844,-3844,-15606,-1380,-3847,2025-02-03 17:28:08,0.0
-13248,-5472,-3120,-14937,-1569,-3540,2025-02-03 17:28:09,0.0
-13472,-4712,-2804,-14120,-1107,-2500,2025-02-03 17:28:09,0.0
-13292,-3924,-3644,-13673,-721,-1922,2025-02-03 17:28:09,0.0
-12828,-3436,-4928,-13678,-194,-1789,2025-02-03 17:28:09,0.0
-12880,-2684,-5724,-13601,-331,-1697,2025-02-03 17:28:09,0.0
-12796,-1424,-6588,-13480,-1396,-1103,2025-02-03 17:28:09,0.0
-12256,-112,-6800,-13637,-1947,-835,2025-02-03 17:28:09,0.0
-11956,1528,-7048,-13907,143,-2433,2025-02-03 17:28:09,0.0
-12792,3152,-7576,-14229,3182,-4238,2025-02-03 17:28:09,0.0
-13792,4428,-8392,-15229,4788,-5221,2025-02-03 17:28:09,0.0
-14680,4304,-8532,-17551,3779,-4435,2025-02-03 17:28:09,0.0
-14632,3328,-7000,-19457,2341,-3224,2025-02-03 17:28:09,0.0
-14148,1900,-4408,-20309,1386,-2628,2025-02-03 17:28:09,0.0
-13628,-16,-3128,-20576,586,-2709,2025-02-03 17:28:09,0.0
-13524,-1648,-2132,-20410,-72,-3260,2025-02-03 17:28:09,0.0
-13976,-2752,-1800,-19738,-484,-3617,2025-02-03 17:28:09,0.0
-14380,-2464,-1988,-18277,-633,-3084,2025-02-03 17:28:09,0.0
-14144,-1460,-2228,-17082,-903,-2311,2025-02-03 17:28:09,0.0
-13168,-264,-2444,-16262,-1200,-2100,2025-02-03 17:28:09,0.0
-12196,612,-2384,-16125,-1539,-2519,2025-02-03 17:28:09,0.0
-11344,1080,-2520,-16362,-1831,-3431,2025-02-03 17:28:09,0.0
-11548,1616,-2284,-16642,-1040,-4205,2025-02-03 17:28:09,0.0
-12020,1900,-2152,-16515,535,-4242,2025-02-03 17:28:09,0.0
-12368,1808,-2412,-16153,2370,-4159,2025-02-03 17:28:09,0.0
-12612,1576,-2724,-15816,3213,-4373,2025-02-03 17:28:09,0.0
-12768,1188,-3036,-15717,3243,-4822,2025-02-03 17:28:09,0.0
-12876,848,-3344,-15786,2487,-5407,2025-02-03 17:28:09,0.0
-13088,804,-3420,-15824,912,-5735,2025-02-03 17:28:09,0.0
-13160,1164,-4028,-15963,-301,-5556,2025-02-03 17:28:09,0.0
-12788,1480,-4444,-16306,-442,-5150,2025-02-03 17:28:09,0.0
-12388,1484,-4292,-16668,76,-4925,2025-02-03 17:28:09,0.0
-11596,1220,-4780,-16882,793,-5064,2025-02-03 17:28:09,0.0
-11320,1216,-5200,-17198,1361,-5239,2025-02-03 17:28:09,0.0
-11312,1112,-5124,-17589,1561,-5240,2025-02-03 17:28:09,0.0
-11612,1304,-4728,-17883,1640,-5225,2025-02-03 17:28:09,0.0
-12108,1880,-4360,-17863,2404,-5143,2025-02-03 17:28:09,0.0
-12044,1996,-4608,-17866,2681,-5355,2025-02-03 17:28:09,0.0
-12244,1952,-4648,-17955,2217,-5871,2025-02-03 17:28:09,0.0
-12432,1692,-5280,-18211,1234,-6188,2025-02-03 17:28:09,0.0
-12580,1196,-5824,-18458,565,-6301,2025-02-03 17:28:09,0.0
-12820,440,-5268,-18564,837,-6407,2025-02-03 17:28:09,0.0
-12828,-380,-4312,-18428,470,-6350,2025-02-03 17:28:09,0.0
-12968,-872,-4084,-18140,-38,-6143,2025-02-03 17:28:09,0.0
-12928,-784,-3524,-17771,-303,-5917,2025-02-03 17:28:09,0.0
-12648,48,-3520,-16984,-420,-5956,2025-02-03 17:28:09,0.0
-12600,360,-4192,-16479,-542,-6207,2025-02-03 17:28:09,0.0
-12184,-656,-3584,-16073,-1396,-6678,2025-02-03 17:28:09,0.0
-12356,-1568,-2780,-15722,-2808,-6593,2025-02-03 17:28:09,0.0
-11876,-1892,-2196,-15184,-3423,-6302,2025-02-03 17:28:09,0.0
-11420,-2316,-1560,-14353,-3002,-6327,2025-02-03 17:28:09,0.0
-12600,-888,-4192,-8178,-1030,-5653,2025-02-03 17:28:09,0.0
-11968,-1352,-3804,-8305,1004,-5019,2025-02-03 17:28:10,0.0
-11860,-1676,-2336,-8549,1797,-4686,2025-02-03 17:28:10,0.0
-12136,-2152,-688,-8553,2238,-4456,2025-02-03 17:28:10,0.0
-12784,-2804,-236,-8017,3078,-4443,2025-02-03 17:28:10,0.0
-13420,-3312,-900,-7434,3828,-4650,2025-02-03 17:28:10,0.0
-14192,-3524,-1392,-6974,4119,-4970,2025-02-03 17:28:10,0.0
-15124,-3364,-1364,-6501,3546,-4906,2025-02-03 17:28:10,0.0
-15372,-2928,-1868,-6081,2304,-4523,2025-02-03 17:28:10,0.0
-15300,-2212,-1792,-5714,383,-4021,2025-02-03 17:28:10,0.0
-13556,-1412,-2464,-5476,-3362,-3043,2025-02-03 17:28:10,0.0
-12548,-1872,-2324,-5159,-3482,-2647,2025-02-03 17:28:10,0.0
-12136,-2348,-1608,-4674,-2802,-2333,2025-02-03 17:28:10,0.0
-11932,-2872,-1676,-4207,-1676,-2257,2025-02-03 17:28:10,0.0
-12060,-3360,-2292,-3823,-124,-2084,2025-02-03 17:28:10,0.0
-12836,-3372,-2572,-3500,800,-1674,2025-02-03 17:28:10,0.0
-13400,-2944,-2592,-3245,1168,-1048,2025-02-03 17:28:10,0.0
-13460,-2736,-2576,-2999,956,-590,2025-02-03 17:28:10,0.0
-13416,-2468,-2888,-2775,491,-235,2025-02-03 17:28:10,0.0
-13164,-1980,-3044,-2498,11,155,2025-02-03 17:28:10,0.0
-12848,-1632,-2884,-2142,-251,533,2025-02-03 17:28:10,0.0
-12468,-1868,-3124,-1848,-264,522,2025-02-03 17:28:10,0.0
-12176,-2004,-3444,-1667,181,306,2025-02-03 17:28:10,0.0
-12400,-2072,-3652,-1460,971,154,2025-02-03 17:28:10,0.0
-12544,-2176,-3880,-1247,1478,204,2025-02-03 17:28:10,0.0
-12712,-2564,-3908,-928,1555,518,2025-02-03 17:28:10,
-12864,-2612,-3408,-626,1211,1053,2025-02-03 17:28:10,0.0
-13296,-2004,-3784,-372,762,2048,2025-02-03 17:28:10,0.0
-13564,-1044,-4380,-551,1653,3202,2025-02-03 17:28:10,0.0
-13316,260,-4388,-821,2457,4036,2025-02-03 17:28:10,0.0
-13024,1036,-3912,-944,2971,3868,2025-02-03 17:28:10,0.0
-12732,956,-3724,-968,3488,2505,2025-02-03 17:28:10,0.0
-13036,224,-3916,-984,3531,214,2025-02-03 17:28:10,0.0
-15052,-1548,-3340,-748,-4355,-288,2025-02-03 17:28:10,0.0
-13696,-900,-3144,-443,-5889,764,2025-02-03 17:28:10,0.0
-12088,-192,-2732,-230,-5404,924,2025-02-03 17:28:10,0.0
-11052,-240,-3032,-474,-3699,331,2025-02-03 17:28:10,0.0
-11016,-640,-3192,-805,-1349,-233,2025-02-03 17:28:10,0.0
-11432,-948,-3084,-886,966,-285,2025-02-03 17:28:10,0.0
-12316,-844,-2784,-612,2893,-43,2025-02-03 17:28:10,0.0
-13356,-132,-3136,-287,4482,132,2025-02-03 17:28:10,0.0
-13640,376,-3512,-310,4777,105,2025-02-03 17:28:10,0.0
-13984,700,-3868,-524,3648,-8,2025-02-03 17:28:10,0.0
-14024,836,-3928,-742,1664,-168,2025-02-03 17:28:10,0.0
-13992,440,-4044,-956,-273,-277,2025-02-03 17:28:10,0.0
-13440,-4,-4040,-1086,-1423,-234,2025-02-03 17:28:10,0.0
-13404,-252,-3216,-1014,-1370,-124,2025-02-03 17:28:10,0.0
-12844,-392,-3180,-990,-569,-69,2025-02-03 17:28:10,0.0
-12760,-140,-2928,-836,361,-142,2025-02-03 17:28:10,0.0
-12800,-20,-2792,-773,799,-153,2025-02-03 17:28:10,0.0
-12740,-8,-2708,-715,856,-156,2025-02-03 17:28:10,0.0
-13044,16,-2460,-594,705,-109,2025-02-03 17:28:10,0.0
-13120,-68,-2428,-397,663,-41,2025-02-03 17:28:10,0.0
-13156,-168,-2712,-239,593,-18,2025-02-03 17:28:10,0.0
-13300,-228,-2704,-70,691,-44,2025-02-03 17:28:10,0.0
-13328,136,-2888,55,759,-7,2025-02-03 17:28:10,0.0
-13408,148,-2784,99,840,86,2025-02-03 17:28:10,0.0
-13368,160,-2864,108,718,12,2025-02-03 17:28:10,0.0
-13260,40,-2728,129,505,-140,2025-02-03 17:28:10,0.0
-13548,-72,-2264,232,354,-255,2025-02-03 17:28:10,0.0
-13548,-68,-2264,387,71,-354,2025-02-03 17:28:10,0.0
-13544,88,-2476,395,-236,-478,2025-02-03 17:28:11,0.0
-13572,304,-2588,425,-633,-673,2025-02-03 17:28:11,0.0
-13200,444,-3044,464,-1260,-727,2025-02-03 17:28:11,0.0
-13160,148,-3480,329,-1898,-704,2025-02-03 17:28:11,0.0
-12808,40,-3112,315,-1960,-687,2025-02-03 17:28:11,0.0
-12556,-212,-3104,362,-1411,-835,2025-02-03 17:28:11,0.0
-12412,-932,-3152,527,-545,-1221,2025-02-03 17:28:11,0.0
-12752,-1200,-3280,1006,1057,-1754,2025-02-03 17:28:11,0.0
-12968,-1068,-3400,1571,2539,-2166,2025-02-03 17:28:11,0.0
-13084,-1612,-3512,2217,2897,-2902,2025-02-03 17:28:11,0.0
-13504,-2048,-3344,2493,1750,-3148,2025-02-03 17:28:11,0.0
-14128,-2036,-2432,2355,-84,-2545,2025-02-03 17:28:11,0.0
-14144,-1036,-1596,1942,-1273,-1486,2025-02-03 17:28:11,0.0
-13244,-196,-1176,1551,-1479,-1026,2025-02-03 17:28:11,0.0
-12784,580,-1456,784,-671,-1381,2025-02-03 17:28:11,0.0
-12576,804,-2304,-175,469,-2201,2025-02-03 17:28:11,0.0
-12804,724,-2144,-1008,1685,-2952,2025-02-03 17:28:11,0.0
-13116,-80,-1988,-1767,2108,-3346,2025-02-03 17:28:11,0.0
-13340,-1268,-1452,-2169,1986,-3583,2025-02-03 17:28:11,0.0
-13536,-2440,-1576,-2180,1564,-3709,2025-02-03 17:28:11,0.0
-13872,-3088,-1060,-1942,761,-3696,2025-02-03 17:28:11,0.0
-13788,-3000,-1464,-1639,51,-3347,2025-02-03 17:28:11,0.0
-13688,-2308,-1444,-1434,-313,-2714,2025-02-03 17:28:11,0.0
-13048,-1660,-1664,-1294,-706,-2264,2025-02-03 17:28:11,0.0
-12496,-1584,-1704,-1527,-1046,-2049,2025-02-03 17:28:11,0.0
-12156,-1708,-1392,-1810,-961,-2123,2025-02-03 17:28:11,0.0
-12180,-2140,-852,-1858,-539,-2283,2025-02-03 17:28:11,0.0
-12460,-2528,-484,-1784,-309,-2356,2025-02-03 17:28:11,0.0
-13064,-2544,-96,-1646,-688,-2317,2025-02-03 17:28:11,0.0
-13508,-2260,-340,-1703,-1425,-2196,2025-02-03 17:28:11,0.0
-14004,-2244,-560,-2115,-2568,-1886,2025-02-03 17:28:11,0.0
-13940,-2516,-752,-2397,-3596,-999,2025-02-03 17:28:11,0.0
-13248,-2364,-264,-2324,-4166,-6,2025-02-03 17:28:11,0.0
-12288,-1884,12,-2158,-4154,664,2025-02-03 17:28:11,0.0
-11392,-1988,40,-2087,-3135,870,2025-02-03 17:28:11,0.0
-11032,-2612,-432,-2000,-1482,631,2025-02-03 17:28:11,0.0
-11368,-3296,-1148,-1907,-38,430,2025-02-03 17:28:11,0.0
-11988,-3568,-1552,-1773,1618,2,2025-02-03 17:28:11,0.0
-12576,-3200,-1800,-1693,2587,-752,2025-02-03 17:28:11,0.0
-13384,-2700,-1488,-1820,2492,-1840,2025-02-03 17:28:11,0.0
-13912,-3088,-1076,-2275,1606,-2595,2025-02-03 17:28:11,0.0
-14132,-3720,-492,-2532,1007,-2990,2025-02-03 17:28:11,0.0
-14732,-3992,-88,-2579,1236,-2850,2025-02-03 17:28:11,0.0
-15660,-3964,-296,-2380,2773,-1957,2025-02-03 17:28:11,0.0
-16748,-3784,-144,-2495,4306,-1026,2025-02-03 17:28:11,0.0
-16860,-4108,48,-2543,5298,-695,2025-02-03 17:28:11,0.0
-16980,-4708,968,-2407,4823,-1481,2025-02-03 17:28:11,0.0
-17188,-5012,1916,-1854,2392,-2594,2025-02-03 17:28:11,0.0
-18492,-4868,2520,-931,-978,-2411,2025-02-03 17:28:11,0.0
-18808,-4572,924,249,-3208,-943,2025-02-03 17:28:11,0.0
-17656,-3340,-2680,1030,-2839,-291,2025-02-03 17:28:11,0.0
-16516,-2268,-4332,1539,-1136,-1765,2025-02-03 17:28:11,0.0
-16984,-2728,-4908,2212,-862,-3385,2025-02-03 17:28:11,0.0
-18808,-4360,-6692,1908,-1829,-1997,2025-02-03 17:28:11,0.0
-18624,-5784,-7896,24,-2049,1929,2025-02-03 17:28:11,0.0
-13908,-4808,-6668,-525,-2845,5144,2025-02-03 17:28:11,0.0
-10012,-2976,-7096,65,-4745,5341,2025-02-03 17:28:11,0.0
-9084,-660,-7836,-282,-4988,4433,2025-02-03 17:28:11,0.0
-9420,1936,-7808,-1429,-3528,3561,2025-02-03 17:28:11,0.0
-10388,3356,-6416,-2385,-571,3026,2025-02-03 17:28:11,0.0
-10932,2944,-4884,-2702,2442,2633,2025-02-03 17:28:11,0.0
-12060,288,-4824,-3044,3528,2611,2025-02-03 17:28:11,0.0
-12924,-1724,-4424,-2862,2966,3179,2025-02-03 17:28:11,0.0
-13000,-3068,-4500,-2476,2014,3789,2025-02-03 17:28:12,0.0
-12344,-3540,-3788,-1951,876,3861,2025-02-03 17:28:12,
-11524,-3336,-3732,-1572,103,3383,2025-02-03 17:28:12,0.0
-11468,-2656,-3020,-1207,-366,2897,2025-02-03 17:28:12,0.0
-11588,-1608,-2748,-715,-466,2804,2025-02-03 17:28:12,0.0
-12080,-184,-2488,-156,-524,3388,2025-02-03 17:28:12,0.0
-11988,1032,-2612,165,-1261,4424,2025-02-03 17:28:12,0.0
-11800,1832,-2672,345,-1906,5094,2025-02-03 17:28:12,0.0
-11160,1872,-2480,358,-1655,5057,2025-02-03 17:28:12,0.0
-10736,1740,-2608,201,-1031,4400,2025-02-03 17:28:12,0.0
-10896,1248,-2140,258,-94,3491,2025-02-03 17:28:12,0.0
-11292,380,-1628,808,34,2737,2025-02-03 17:28:12,0.0
-11460,-376,-1380,1283,-1223,2567,2025-02-03 17:28:12,0.0
-11164,-1184,-1304,1837,-3052,2255,2025-02-03 17:28:12,0.0
-11116,-1220,-828,2576,-3883,1630,2025-02-03 17:28:12,0.0
-10500,-1084,-188,3186,-4115,673,2025-02-03 17:28:12,0.0
-10740,-864,400,3752,-4248,-450,2025-02-03 17:28:12,0.0
-11224,-600,208,4257,-4279,-1230,2025-02-03 17:28:12,0.0
-11652,-632,-268,4634,-4222,-1607,2025-02-03 17:28:12,0.0
-12196,-880,-1060,5195,-3652,-1527,2025-02-03 17:28:12,0.0
-12192,-1316,-992,5556,-2623,-1310,2025-02-03 17:28:12,0.0
-12632,-1280,-864,5931,-1149,-1143,2025-02-03 17:28:12,0.0
-13280,-544,-696,6632,1468,-1028,2025-02-03 17:28:12,0.0
-13836,160,-1668,7238,3097,-849,2025-02-03 17:28:12,0.0
-15148,-8,-2468,7253,3661,-321,2025-02-03 17:28:12,0.0
-15856,-388,-2332,6733,3879,519,2025-02-03 17:28:12,0.0
-16360,-120,-1384,6522,3941,1605,2025-02-03 17:28:12,0.0
-16440,548,-596,6684,3750,2575,2025-02-03 17:28:12,0.0
-16180,1208,-500,6456,3403,2982,2025-02-03 17:28:12,0.0
-16428,2016,-40,5898,2987,2897,2025-02-03 17:28:12,0.0
-16744,2944,476,5222,2187,2654,2025-02-03 17:28:12,0.0
-16512,4148,-592,4528,893,2487,2025-02-03 17:28:12,0.0
-16360,4684,-4512,3444,1605,2605,2025-02-03 17:28:12,0.0
-16924,4580,-8128,1449,4922,3219,2025-02-03 17:28:12,0.0
-17540,4784,-8636,-1426,7336,4316,2025-02-03 17:28:12,0.0
-16340,4284,-6968,-3837,6121,4458,2025-02-03 17:28:12,0.0
-13648,2448,-4928,-4663,1250,2560,2025-02-03 17:28:12,0.0
-10180,-804,-4880,-4426,-7658,-1823,2025-02-03 17:28:12,0.0
-9248,-2856,-5380,-4472,-15890,-4724,2025-02-03 17:28:12,0.0
-9712,-3632,-4816,-3670,-19671,-5048,2025-02-03 17:28:12,0.0
-11228,-3836,-3392,-1729,-17159,-3605,2025-02-03 17:28:12,0.0
-11772,-4300,-3968,562,-8430,-1718,2025-02-03 17:28:12,0.0
-11260,-4344,-5200,1653,3433,-183,2025-02-03 17:28:12,0.0
-10828,-2308,-5400,1800,11895,374,2025-02-03 17:28:12,0.0
-11912,-916,-4660,1653,16175,125,2025-02-03 17:28:12,0.0
-13388,76,-2748,917,15352,-1120,2025-02-03 17:28:12,0.0
-14452,-84,-2988,491,11421,-2853,2025-02-03 17:28:12,0.0
-14904,-568,-3768,252,6366,-4565,2025-02-03 17:28:12,0.0
-14944,-1232,-5096,205,-707,-5399,2025-02-03 17:28:12,0.0
-15084,-1876,-5256,154,-6733,-4779,2025-02-03 17:28:12,0.0
-13784,-2112,-5176,-153,-10603,-3453,2025-02-03 17:28:12,0.0
-11992,-1900,-3624,-497,-11449,-2605,2025-02-03 17:28:12,0.0
-10312,-1784,-1804,-663,-9439,-2754,2025-02-03 17:28:12,0.0
-8828,-1904,-1496,-881,-6279,-3450,2025-02-03 17:28:12,0.0
-9272,-2172,-704,-992,-2860,-4005,2025-02-03 17:28:12,0.0
-9852,-2544,-940,-746,40,-3599,2025-02-03 17:28:12,0.0
-10796,-2508,-1652,-374,2562,-2460,2025-02-03 17:28:12,0.0
-11384,-1592,-1464,-408,3906,-1220,2025-02-03 17:28:12,0.0
-11836,-700,-1584,-785,4357,-604,2025-02-03 17:28:12,0.0
-11280,-296,-2652,-1743,3720,-316,2025-02-03 17:28:13,0.0
-12628,-476,-1732,-2504,2014,-314,2025-02-03 17:28:13,0.0
-13176,-836,-1228,-3058,9,60,2025-02-03 17:28:13,0.0
-13272,-1192,-1272,-3379,-1643,567,2025-02-03 17:28:13,0.0
-13220,-1396,-988,-3660,-2206,939,2025-02-03 17:28:13,0.0
-13568,-1608,-972,-4025,-1737,1051,2025-02-03 17:28:13,0.0
-13312,-1668,-1836,-4369,-995,1143,2025-02-03 17:28:13,0.0
-13936,-2100,-1792,-4648,-988,1173,2025-02-03 17:28:13,0.0
-13660,-2200,-2156,-5144,-1655,1074,2025-02-03 17:28:13,0.0
-16256,-5064,-2544,276,-430,134,2025-02-03 17:28:13,0.0
-15100,-4724,-6256,2972,3681,-556,2025-02-03 17:28:13,0.0
-13944,-6124,-7180,5271,7061,-3228,2025-02-03 17:28:13,0.0
-15768,-4720,-5724,6455,6396,-5252,2025-02-03 17:28:13,0.0
-18764,-408,-3876,5779,173,-3439,2025-02-03 17:28:13,0.0
-18060,4212,-5080,4511,-9289,1674,2025-02-03 17:28:13,0.0
-14032,5660,-8396,4065,-14702,4887,2025-02-03 17:28:13,0.0
-10436,5764,-11088,2371,-16353,5597,2025-02-03 17:28:13,0.0
-7724,4328,-9676,-509,-11917,3326,2025-02-03 17:28:13,0.0
-7668,1268,-6872,-2749,-3099,-121,2025-02-03 17:28:13,0.0
-10912,-696,-2676,-3072,6147,-1898,2025-02-03 17:28:13,0.0
-14108,-904,-420,-1215,11234,-1002,2025-02-03 17:28:13,0.0
-16088,-396,-1392,842,11946,1194,2025-02-03 17:28:13,0.0
-12040,1920,-4816,-464,-7843,4100,2025-02-03 17:28:13,0.0
-10476,752,-4160,-1358,-11052,2930,2025-02-03 17:28:13,0.0
-9356,28,-2912,-1383,-11284,2098,2025-02-03 17:28:13,0.0
-9492,124,-1172,-652,-8788,1809,2025-02-03 17:28:13,0.0
-9204,412,-1376,732,-2868,2015,2025-02-03 17:28:13,0.0
-9900,1080,-1520,1732,3684,2434,2025-02-03 17:28:13,0.0
-10540,1260,-2720,1820,7636,2229,2025-02-03 17:28:13,0.0
-11776,1884,-2888,1558,8965,1661,2025-02-03 17:28:13,0.0
-12992,2720,-3292,1002,7744,1076,2025-02-03 17:28:13,0.0
-13656,3276,-3692,283,4573,803,2025-02-03 17:28:13,0.0
-14140,3100,-4136,-244,1230,523,2025-02-03 17:28:13,0.0
-14228,2140,-4512,-688,-1198,236,2025-02-03 17:28:13,0.0
-14480,1096,-3960,-881,-2447,302,2025-02-03 17:28:13,0.0
-14236,-36,-2252,-643,-3057,562,2025-02-03 17:28:13,0.0
-13668,-1060,-952,336,-3252,977,2025-02-03 17:28:13,0.0
-12960,-1424,-860,1544,-2853,1327,2025-02-03 17:28:13,0.0
-12452,-1056,-1368,2690,-2049,1520,2025-02-03 17:28:13,0.0
-11940,-68,-2436,3406,-1277,1410,2025-02-03 17:28:13,0.0
-11616,1716,-3300,3431,-691,1067,2025-02-03 17:28:13,0.0
-11180,2688,-3196,2968,-445,677,2025-02-03 17:28:13,0.0
-10944,2788,-3200,2622,-279,30,2025-02-03 17:28:13,
-11316,2428,-2704,2430,171,-632,2025-02-03 17:28:13,0.0
-11752,1920,-2160,2561,1111,-941,2025-02-03 17:28:13,0.0
-11948,1504,-1864,2667,2135,-1206,2025-02-03 17:28:13,0.0
-12588,1724,-1816,2550,2978,-1639,2025-02-03 17:28:13,0.0
-13644,2152,-2340,2163,3710,-1931,2025-02-03 17:28:13,0.0
-14640,2684,-2964,1503,3980,-1962,2025-02-03 17:28:13,0.0
-15280,3100,-4596,487,2807,-1502,2025-02-03 17:28:13,0.0
-14576,3000,-5732,-571,281,-1019,2025-02-03 17:28:13,0.0
-13244,1928,-5592,-1724,-2822,-1277,2025-02-03 17:28:13,0.0
-12876,796,-4252,-2313,-3834,-1804,2025-02-03 17:28:13,0.0
-13676,-40,-3172,-2153,-2653,-1641,2025-02-03 17:28:14,0.0
-13992,-1064,-2724,-1378,294,-949,2025-02-03 17:28:14,0.0
-13656,-1000,-2736,-397,2807,-709,2025-02-03 17:28:14,0.0
-13600,-404,-3332,-226,2918,-973,2025-02-03 17:28:14,0.0
-13716,36,-3248,-472,1592,-1053,2025-02-03 17:28:14,0.0
-13396,568,-2868,-343,205,-910,2025-02-03 17:28:14,0.0
-13064,580,-3008,-138,-447,-560,2025-02-03 17:28:14,0.0
-12312,620,-3148,47,-436,-472,2025-02-03 17:28:14,0.0
-11148,124,-3796,75,264,-718,2025-02-03 17:28:14,0.0
-11380,-152,-3312,46,1321,-1475,2025-02-03 17:28:14,0.0
-12992,-596,-392,304,1183,-3342,2025-02-03 17:28:14,0.0
-13268,-824,-936,361,57,-3808,2025-02-03 17:28:14,0.0
-15012,-496,-1788,528,-90,-3631,2025-02-03 17:28:14,0.0
-16516,-148,-3504,488,2245,-2215,2025-02-03 17:28:14,0.0
-17052,384,-4852,7,5632,-348,2025-02-03 17:28:14,0.0
-15432,1664,-4720,-374,6514,834,2025-02-03 17:28:14,0.0
-13084,2416,-4468,-954,3439,169,2025-02-03 17:28:14,0.0
-12268,2220,-4168,-2019,78,-1981,2025-02-03 17:28:14,0.0
-12460,328,-3572,-3305,-2493,-4415,2025-02-03 17:28:14,0.0
-13044,-1272,-3192,-3603,-4101,-5117,2025-02-03 17:28:14,0.0
-12928,-2164,-3428,-3264,-4357,-4704,2025-02-03 17:28:14,0.0
-11736,-2224,-2984,-2873,-4186,-3530,2025-02-03 17:28:14,0.0
-11144,-892,-1824,-2489,-3059,-2578,2025-02-03 17:28:14,0.0
-10740,612,-1020,-2698,114,-1734,2025-02-03 17:28:14,0.0
-10556,1396,-2060,-4337,3919,-1697,2025-02-03 17:28:14,0.0
-11596,724,-2772,-6433,7086,-2575,2025-02-03 17:28:14,0.0
-13268,-560,-2792,-7702,8593,-3700,2025-02-03 17:28:14,0.0
-15456,-1840,-2796,-8478,8571,-4575,2025-02-03 17:28:14,0.0
-16496,-2596,-2924,-8785,6718,-5084,2025-02-03 17:28:14,0.0
-16872,-2876,-4192,-8883,3002,-5130,2025-02-03 17:28:14,0.0
-16260,-2308,-4792,-9166,-2606,-4421,2025-02-03 17:28:15,0.0
-12036,-3732,-2796,-21701,1087,-2010,2025-02-03 17:28:15,0.0
-12728,-4140,-1660,-21564,310,-2321,2025-02-03 17:28:15,0.0
-13436,-4744,-1176,-21110,114,-2310,2025-02-03 17:28:15,0.0
-14184,-5656,-1096,-20457,449,-2129,2025-02-03 17:28:15,0.0
-14292,-6124,-1740,-19735,111,-1900,2025-02-03 17:28:15,0.0
-14292,-5696,-1740,-18997,-917,-1674,2025-02-03 17:28:15,0.0
-13720,-5092,-1848,-18201,-2618,-1437,2025-02-03 17:28:15,0.0
-12752,-5012,-2156,-17425,-4009,-1499,2025-02-03 17:28:15,0.0
-12680,-5284,-3928,-13666,928,-90,2025-02-03 17:28:15,0.0
-13188,-4296,-4712,-11701,4977,-181,2025-02-03 17:28:16,0.0
-13908,-2300,-5264,-10559,7833,-1475,2025-02-03 17:28:18,0.0
-15360,856,-5488,-11279,8254,-3005,2025-02-03 17:28:18,0.0
-16944,5080,-6332,-13760,4133,-2337,2025-02-03 17:28:18,0.0
-15964,7548,-8156,-16541,-1079,339,2025-02-03 17:28:18,0.0
-12080,-844,-1508,-20959,-812,-4617,2025-02-03 17:28:18,0.0
-13832,-840,-420,-20503,2365,-4458,2025-02-03 17:28:18,0.0
-13072,-1816,-1292,-20025,4052,-3847,2025-02-03 17:28:18,0.0
-13876,-1776,-936,-19553,4025,-3709,2025-02-03 17:28:18,0.0
-14096,-88,-2228,98,2203,-511,2025-02-03 17:28:18,0.0
-13756,-540,-5736,1897,2725,3804,2025-02-03 17:28:18,0.0
-12976,-660,-4920,1713,-2809,3837,2025-02-03 17:28:18,0.0
-12180,-804,-3648,1982,-6630,3588,2025-02-03 17:28:18,0.0
-11972,-1112,-2292,2239,-6203,3239,2025-02-03 17:28:18,0.0
-11652,-856,-1992,2721,-3506,3051,2025-02-03 17:28:18,0.0
-12144,72,-2516,3620,-198,3504,2025-02-03 17:28:18,0.0
-11528,824,-3820,3934,588,4177,2025-02-03 17:28:18,0.0
-11140,1396,-3816,3810,-48,4662,2025-02-03 17:28:18,0.0
-10360,1724,-3700,3486,-1110,4638,2025-02-03 17:28:18,0.0
-10052,1524,-2268,3123,-1765,3899,2025-02-03 17:28:18,0.0
-10500,808,-1392,2800,-1592,2817,2025-02-03 17:28:18,0.0
-10156,168,-1720,2732,-1181,2205,2025-02-03 17:28:18,0.0
-11612,52,-812,3187,-1059,2143,2025-02-03 17:28:18,0.0
-12336,180,-1124,3694,-918,2246,2025-02-03 17:28:18,0.0
-11144,516,-1672,3849,-1644,1884,2025-02-03 17:28:18,0.0
-11608,764,-1144,3847,-2701,1046,2025-02-03 17:28:18,0.0
-11664,924,-776,3775,-4039,167,2025-02-03 17:28:18,0.0
-12252,1072,-260,4003,-5008,-390,2025-02-03 17:28:18,0.0
-12344,868,-680,4266,-5621,-662,2025-02-03 17:28:18,0.0
-12384,692,-368,4409,-6077,-1002,2025-02-03 17:28:18,0.0
-12700,684,184,4573,-5673,-1267,2025-02-03 17:28:18,0.0
-13528,776,1060,4837,-4058,-1284,2025-02-03 17:28:18,0.0
-13756,356,828,5066,-1800,-1326,2025-02-03 17:28:18,0.0
-13668,-280,-728,5482,-1079,-1226,2025-02-03 17:28:18,0.0
-13968,-3704,-432,7509,-897,577,2025-02-03 17:28:18,0.0
-14416,-2312,1852,8134,1356,1660,2025-02-03 17:28:19,0.0
-14908,404,1812,9150,4687,1807,2025-02-03 17:28:19,0.0
-16292,2724,476,8251,7020,1677,2025-02-03 17:28:19,0.0
-17144,4588,812,6940,7248,1619,2025-02-03 17:28:19,0.0
-17644,4448,212,5875,5340,1540,2025-02-03 17:28:19,0.0
-17788,3900,-2868,4471,4317,1963,2025-02-03 17:28:19,0.0
-18068,3076,-6872,3209,6124,2504,2025-02-03 17:28:19,0.0
-19456,3432,-10064,1059,10043,3458,2025-02-03 17:28:19,0.0
-20004,4732,-9840,-1839,12893,5004,2025-02-03 17:28:19,0.0
-18184,5544,-7076,-4471,11132,5481,2025-02-03 17:28:19,0.0
-13640,4312,-4720,-5446,3611,3292,2025-02-03 17:28:19,0.0
-8052,1092,-6572,-4857,-7180,-1855,2025-02-03 17:28:19,0.0
-7444,-2028,-9652,-4922,-17619,-6394,2025-02-03 17:28:19,0.0
-10336,-3420,-10060,-4893,-22309,-7066,2025-02-03 17:28:19,0.0
-12772,-4004,-7236,-3740,-18885,-4203,2025-02-03 17:28:19,
-12692,-4512,-2464,-1860,-8156,-597,2025-02-03 17:28:19,0.0
-9248,-2796,-952,290,3894,624,2025-02-03 17:28:19,0.0
-9116,-1032,-4788,1077,11284,-46,2025-02-03 17:28:19,0.0
-10972,132,-7148,25,15804,-859,2025-02-03 17:28:19,0.0
-12636,1056,-6268,-1495,16955,-1859,2025-02-03 17:28:19,0.0
-14120,1548,-3872,-2191,13668,-2830,2025-02-03 17:28:19,0.0
-14252,1124,-3948,-2683,7166,-3365,2025-02-03 17:28:19,0.0
-14112,-100,-4180,-3457,-1167,-3723,2025-02-03 17:28:19,0.0
-13940,-1140,-4792,-4124,-6108,-3915,2025-02-03 17:28:19,0.0
-10552,-1620,-5568,-5105,-8960,-4099,2025-02-03 17:28:19,0.0
-12808,-2244,-3596,-5585,-7928,-3712,2025-02-03 17:28:19,0.0
-10868,-2316,-2480,-5685,-6005,-3826,2025-02-03 17:28:19,0.0
-9768,-2436,-1804,-5231,-3515,-4087,2025-02-03 17:28:19,0.0
-10356,-2220,-1040,-4579,-1579,-4054,2025-02-03 17:28:19,0.0
-10588,-1812,-1848,-4087,-724,-3454,2025-02-03 17:28:19,0.0
-11068,-1716,-2276,-3756,232,-2795,2025-02-03 17:28:19,0.0
-11140,-1392,-2880,-3608,706,-2173,2025-02-03 17:28:19,0.0
-12608,-1196,-2544,-4009,1019,-1512,2025-02-03 17:28:19,0.0
-11472,-1160,-2532,-4251,1205,-1352,2025-02-03 17:28:19,0.0
-12496,-72,-1064,-5015,-2580,187,2025-02-03 17:28:19,0.0
-12156,-104,-1056,-5015,-3480,1066,2025-02-03 17:28:19,0.0
-11944,-524,-1520,-5234,-3448,1477,2025-02-03 17:28:19,0.0
-11012,-1608,-1716,-5744,-2624,1259,2025-02-03 17:28:19,0.0
-11232,-2280,-1120,-6067,-2482,779,2025-02-03 17:28:19,0.0
-11788,-2024,-44,-6194,-2522,581,2025-02-03 17:28:19,0.0
-12804,-328,872,-5786,-1947,927,2025-02-03 17:28:19,0.0
-12112,1616,-1036,-5601,-441,1635,2025-02-03 17:28:19,0.0
-12712,-1432,-3360,-10086,8507,-2390,2025-02-03 17:28:19,0.0
-15292,-1844,-1012,-10498,11521,-3875,2025-02-03 17:28:19,0.0
-18012,-2136,-560,-10100,11357,-3729,2025-02-03 17:28:19,0.0
-18660,-3068,-1264,-9616,8649,-2668,2025-02-03 17:28:19,0.0
-18108,-4176,-1824,-9110,4694,-2072,2025-02-03 17:28:19,0.0
-18128,-4880,-496,-8572,1046,-1899,2025-02-03 17:28:19,0.0
-17356,-5160,-484,-7571,-1704,-1780,2025-02-03 17:28:19,0.0
-15724,-5448,1936,-4159,-5831,-137,2025-02-03 17:28:20,0.0
-11872,280,-5616,982,5820,2238,2025-02-03 17:28:20,0.0
-12624,492,-4612,243,4182,2450,2025-02-03 17:28:20,0.0
-12908,344,-3924,108,2113,2652,2025-02-03 17:28:20,0.0
-12764,408,-3536,503,746,2971,2025-02-03 17:28:20,0.0
-12996,600,-3324,1159,517,3084,2025-02-03 17:28:20,0.0
-12180,1352,-3648,1794,399,2997,2025-02-03 17:28:20,0.0
-12580,2104,-3724,2325,-206,3120,2025-02-03 17:28:20,0.0
-12644,2440,-4264,2440,-639,3310,2025-02-03 17:28:20,0.0
-12212,1960,-4072,2152,-1238,3350,2025-02-03 17:28:20,0.0
-12068,1276,-3228,1960,-2099,3167,2025-02-03 17:28:20,0.0
-11652,916,-2816,2053,-2403,2963,2025-02-03 17:28:20,0.0
-11772,864,-2200,2349,-2287,2676,2025-02-03 17:28:20,0.0
-11688,332,-1652,2799,-2289,2310,2025-02-03 17:28:20,0.0
-11476,-128,-1632,3549,-2471,1884,2025-02-03 17:28:20,0.0
-11460,-44,-2468,4575,-1914,1515,2025-02-03 17:28:20,0.0
-11688,168,-3528,5539,-1457,1226,2025-02-03 17:28:20,0.0
-11688,200,-4552,5949,-1816,901,2025-02-03 17:28:20,0.0
-11972,2400,-3124,4880,-471,-2764,2025-02-03 17:28:20,0.0
-11668,1280,-3340,4646,30,-4153,2025-02-03 17:28:20,0.0
-12756,544,-3856,4583,326,-4656,2025-02-03 17:28:20,0.0
-14244,1328,-5888,4054,1488,-3718,2025-02-03 17:28:20,0.0
-15172,2156,-7376,3069,3790,-1828,2025-02-03 17:28:20,0.0
-15360,1884,-6488,1654,5927,-504,2025-02-03 17:28:20,0.0
-14364,608,-4516,99,5813,-671,2025-02-03 17:28:20,0.0
-13908,-1628,-2904,-551,2442,-2183,2025-02-03 17:28:20,0.0
-13556,-3412,-3364,-219,-2053,-2888,2025-02-03 17:28:20,0.0
-13368,-4192,-3724,877,-5737,-2661,2025-02-03 17:28:20,0.0
-12624,-3784,-3868,1740,-6616,-1853,2025-02-03 17:28:20,0.0
-11660,-2372,-3208,2203,-4597,-1030,2025-02-03 17:28:20,0.0
-11052,-900,-2772,1935,-1324,-759,2025-02-03 17:28:20,0.0
-11136,72,-2596,1228,1717,-677,2025-02-03 17:28:20,0.0
-11612,-52,-3052,520,3577,-535,2025-02-03 17:28:20,0.0
-12932,-576,-3208,190,3881,-161,2025-02-03 17:28:20,0.0
-13632,-1248,-2512,109,2846,369,2025-02-03 17:28:20,0.0
-13072,-1852,-2084,310,634,798,2025-02-03 17:28:20,0.0
-13312,-2068,-1824,733,-645,1150,2025-02-03 17:28:20,0.0
-12120,-2132,-1892,1239,-852,1378,2025-02-03 17:28:20,0.0
-11692,-2200,-1084,1911,95,1096,2025-02-03 17:28:20,0.0
-12260,-1832,-728,2710,1579,616,2025-02-03 17:28:20,0.0
-13680,-1816,-2488,3213,3239,312,2025-02-03 17:28:20,0.0
-14712,-1440,-4724,3109,4872,359,2025-02-03 17:28:20,0.0
-14844,-100,-5728,2646,4578,489,2025-02-03 17:28:20,0.0
-14444,1000,-6068,1642,2342,401,2025-02-03 17:28:20,0.0
