acceleration_x,acceleration_y,acceleration_z,gyroscope_x,gyroscope_y,gyroscope_z,timestamp,label
-16028,256,-6116,-1356,1224,-2584,2025-02-03 17:40:17,0.0
-15696,-572,-4812,-2132,-2995,-3632,2025-02-03 17:40:17,0.0
-16504,-2932,-3100,-2999,-7273,-4359,2025-02-03 17:40:17,0.0
-15868,-5660,-2084,-3101,-9361,-4651,2025-02-03 17:40:17,0.0
-14288,-8080,-1396,-2894,-11091,-4366,2025-02-03 17:40:17,0.0
-12620,-9496,-236,-1715,-12489,-3430,2025-02-03 17:40:17,0.0
-10032,-9716,-784,287,-11966,-2630,2025-02-03 17:40:17,0.0
-8848,-8068,-1532,2048,-8882,-2074,2025-02-03 17:40:17,0.0
-9112,-5120,-2344,3762,-2102,-1860,2025-02-03 17:40:17,0.0
-10388,-4136,-3404,4610,4752,-1605,2025-02-03 17:40:17,0.0
-13544,-4576,-3912,4985,9391,-317,2025-02-03 17:40:17,0.0
-15240,-5496,-2596,5681,8554,1184,2025-02-03 17:40:17,0.0
-15584,-5920,-1308,6436,4196,2340,2025-02-03 17:40:17,0.0
-16152,-6000,-804,6769,814,2867,2025-02-03 17:40:17,0.0
-14488,-5716,-696,6452,-1411,2201,2025-02-03 17:40:17,0.0
-13356,-4864,-1500,5838,-3434,987,2025-02-03 17:40:17,0.0
-12496,-4332,-1492,4830,-4883,-244,2025-02-03 17:40:17,0.0
-12180,-3348,-1140,4179,-5256,-845,2025-02-03 17:40:17,0.0
-12800,-2232,496,3594,-3771,-388,2025-02-03 17:40:17,0.0
-13056,-2284,820,2778,-1636,496,2025-02-03 17:40:17,0.0
-12932,-3300,632,1174,567,1174,2025-02-03 17:40:17,0.0
-13296,-4164,284,-156,1838,735,2025-02-03 17:40:17,0.0
-14580,-3660,252,-886,2211,249,2025-02-03 17:40:17,0.0
-14756,-4144,360,-1305,1746,93,2025-02-03 17:40:17,0.0
-14568,-4564,116,-1911,693,144,2025-02-03 17:40:17,0.0
-14596,-4140,348,-2055,66,347,2025-02-03 17:40:17,0.0
-14264,-3144,-56,-1942,-500,957,2025-02-03 17:40:17,0.0
-13660,-2724,-404,-1859,-908,2073,2025-02-03 17:40:17,0.0
-12944,-2824,-772,-2107,-1269,2793,2025-02-03 17:40:17,0.0
-12268,-3324,-716,-2348,-1283,2727,2025-02-03 17:40:17,0.0
-12056,-3696,-512,-2404,-851,2156,2025-02-03 17:40:17,0.0
-12308,-3444,-272,-2306,-240,1427,2025-02-03 17:40:17,0.0
-12572,-3104,-84,-2364,337,1053,2025-02-03 17:40:17,0.0
-12236,-2244,-564,-2276,684,917,2025-02-03 17:40:17,0.0
-12156,-1628,-988,-2391,913,1133,2025-02-03 17:40:17,0.0
-12480,-1536,-828,-2730,999,1500,2025-02-03 17:40:17,0.0
-12904,-1628,-1100,-3137,1247,1756,2025-02-03 17:40:17,0.0
-13060,-1788,-1268,-3825,1658,1233,2025-02-03 17:40:17,0.0
-13324,-2692,-572,-4609,1605,-19,2025-02-03 17:40:17,0.0
-14052,-3600,364,-5006,588,-549,2025-02-03 17:40:17,0.0
-14128,-3352,816,-4912,-929,-54,2025-02-03 17:40:17,0.0
-13624,-3248,236,-4741,-2541,853,2025-02-03 17:40:17,0.0
-12480,-2996,-604,-4617,-2947,1243,2025-02-03 17:40:17,0.0
-12200,-2692,-1660,-4564,-1407,1303,2025-02-03 17:40:17,0.0
-12464,-3272,-1396,-4220,1071,1323,2025-02-03 17:40:17,0.0
-11556,-3348,-1588,-3504,2422,1029,2025-02-03 17:40:18,0.0
-10772,-3320,-2160,-3494,1953,540,2025-02-03 17:40:18,0.0
-10708,-2168,-2880,-3529,2141,-124,2025-02-03 17:40:18,0.0
-11748,44,-2536,-3379,3870,112,2025-02-03 17:40:18,0.0
-12812,1796,-1664,-2958,6275,1286,2025-02-03 17:40:18,0.0
-13956,1728,-2488,-2900,7023,3065,2025-02-03 17:40:18,0.0
-14668,1328,-2676,-3267,6020,4236,2025-02-03 17:40:18,0.0
-14756,392,-2660,-3571,4495,4276,2025-02-03 17:40:18,0.0
-14464,-284,-3140,-3913,3791,3033,2025-02-03 17:40:18,0.0
-15228,-1292,-2464,-4325,3853,1162,2025-02-03 17:40:18,0.0
-15456,-1384,-1456,-3920,2092,1016,2025-02-03 17:40:18,0.0
-15380,-784,-104,-3149,-689,1695,2025-02-03 17:40:18,0.0
-15120,28,-592,-2796,-2855,1796,2025-02-03 17:40:18,0.0
-12936,-260,444,-2679,-4764,1008,2025-02-03 17:40:18,0.0
-12624,-1064,-188,-2907,-5702,138,2025-02-03 17:40:18,0.0
-11048,-1324,1320,-2706,-5520,-554,2025-02-03 17:40:18,0.0
-10708,-924,1176,-2279,-3426,-798,2025-02-03 17:40:18,0.0
-10556,-260,812,-1852,658,-974,2025-02-03 17:40:18,0.0
-11332,972,68,-1503,4369,-1279,2025-02-03 17:40:18,0.0
-11948,2468,-760,-1186,6293,-1510,2025-02-03 17:40:18,0.0
-13672,3900,-1984,-1426,6078,-1613,2025-02-03 17:40:18,0.0
-13892,3148,-2252,-1700,3831,-1722,2025-02-03 17:40:18,0.0
-13184,1800,-2244,-2151,506,-2872,2025-02-03 17:40:18,0.0
-13548,472,-1812,-2063,-1599,-3697,2025-02-03 17:40:18,0.0
-12244,-572,-1744,-1956,-2837,-4392,2025-02-03 17:40:18,0.0
-10544,-1020,-1976,-1895,-3375,-5849,2025-02-03 17:40:18,0.0
-11852,-1092,-1368,-1847,-2084,-6597,2025-02-03 17:40:18,0.0
-13784,-348,-1244,-998,1262,-5559,2025-02-03 17:40:18,0.0
-15452,-364,-2032,-496,5425,-4104,2025-02-03 17:40:18,0.0
-16864,-1352,-2640,-88,7082,-2347,2025-02-03 17:40:18,0.0
-17284,-3032,-2828,-161,5177,-451,2025-02-03 17:40:18,0.0
-16764,-4616,-3156,-138,1049,600,2025-02-03 17:40:18,0.0
-14576,-5032,-3076,308,-4038,-29,2025-02-03 17:40:18,0.0
-13672,-3084,-3008,1014,-7101,-285,2025-02-03 17:40:18,0.0
-11360,-1764,-2052,1752,-6088,-828,2025-02-03 17:40:18,0.0
-12092,-948,-2548,2006,-2824,-603,2025-02-03 17:40:18,0.0
-10088,212,-1556,2869,379,-1005,2025-02-03 17:40:18,0.0
-11324,-428,-3164,2804,3125,-1319,2025-02-03 17:40:18,0.0
-12220,-824,-3108,2154,4429,-1274,2025-02-03 17:40:18,0.0
-13188,-1076,-3244,1753,4265,-1022,2025-02-03 17:40:18,0.0
-13836,-796,-3588,1166,3429,-587,2025-02-03 17:40:18,0.0
-14000,-328,-3700,790,2975,-261,2025-02-03 17:40:18,0.0
-14080,208,-3260,548,2646,-120,2025-02-03 17:40:18,0.0
-14572,320,-3112,96,2351,-11,2025-02-03 17:40:18,0.0
-14856,-84,-3340,-340,1690,295,2025-02-03 17:40:18,0.0
-14484,-920,-3120,-491,455,309,2025-02-03 17:40:18,0.0
-13888,-1688,-2944,-537,-1091,40,2025-02-03 17:40:18,0.0
-13360,-2288,-2392,-477,-2327,-202,2025-02-03 17:40:18,0.0
-12744,-2616,-1820,-267,-2873,-423,2025-02-03 17:40:18,0.0
-12448,-2344,-1404,265,-2061,-463,2025-02-03 17:40:18,0.0
-12632,-1632,-1948,559,61,-231,2025-02-03 17:40:18,0.0
-13040,-1144,-2228,608,1729,32,2025-02-03 17:40:18,0.0
-13384,-884,-2224,640,2065,98,2025-02-03 17:40:18,0.0
-13464,-1092,-1744,572,1115,-69,2025-02-03 17:40:18,0.0
-13428,-1780,-1544,466,-248,-444,2025-02-03 17:40:18,
-13336,-2024,-1876,429,-590,-597,2025-02-03 17:40:18,0.0
-13432,-1964,-2048,553,70,-506,2025-02-03 17:40:18,0.0
-13512,-1840,-2344,729,826,-308,2025-02-03 17:40:18,0.0
-13508,-1796,-2300,775,916,-244,2025-02-03 17:40:18,0.0
-13576,-1656,-2280,791,292,-281,2025-02-03 17:40:18,0.0
-13312,-1860,-2472,762,-483,-347,2025-02-03 17:40:19,0.0
-12944,-1948,-2304,837,-666,-414,2025-02-03 17:40:19,0.0
-12908,-1844,-2380,856,-317,-410,2025-02-03 17:40:19,0.0
-12952,-1604,-2576,896,386,-399,2025-02-03 17:40:19,0.0
-13092,-1368,-2856,778,773,-405,2025-02-03 17:40:19,0.0
-13356,-1224,-2856,682,743,-371,2025-02-03 17:40:19,0.0
-13492,-1220,-2828,389,517,-356,2025-02-03 17:40:19,0.0
-13352,-1360,-2652,78,136,-348,2025-02-03 17:40:19,0.0
-13436,-1408,-2604,-195,-265,-359,2025-02-03 17:40:19,0.0
-13328,-1308,-2800,-387,-266,-432,2025-02-03 17:40:19,0.0
-13328,-1364,-3144,-493,108,-612,2025-02-03 17:40:19,0.0
-13432,-1588,-2988,-580,119,-671,2025-02-03 17:40:19,0.0
-13364,-1704,-2892,-616,-229,-574,2025-02-03 17:40:19,0.0
-13136,-1488,-2776,-729,-357,-439,2025-02-03 17:40:19,0.0
-13144,-1448,-2592,-751,-225,-313,2025-02-03 17:40:19,0.0
-12884,-1472,-2564,-681,-146,-180,2025-02-03 17:40:19,0.0
-13052,-1672,-2640,-699,104,-181,2025-02-03 17:40:19,0.0
-13204,-2020,-2668,-643,292,-275,2025-02-03 17:40:19,0.0
-13324,-2068,-2508,-524,171,-297,2025-02-03 17:40:19,0.0
-13456,-1964,-2552,-423,39,-220,2025-02-03 17:40:19,0.0
-13328,-1952,-2748,-345,-265,-147,2025-02-03 17:40:19,0.0
-13244,-1904,-2812,-220,-523,-124,2025-02-03 17:40:19,0.0
-13156,-1980,-2500,-60,-515,-134,2025-02-03 17:40:19,0.0
-13312,-1980,-2760,110,-290,-175,2025-02-03 17:40:19,0.0
-13372,-1968,-2644,213,-268,-243,2025-02-03 17:40:19,0.0
-13336,-1964,-2632,281,-463,-215,2025-02-03 17:40:19,0.0
-13236,-1912,-2540,319,-690,-158,2025-02-03 17:40:19,0.0
-12992,-1624,-2636,261,-555,-83,2025-02-03 17:40:19,0.0
-13020,-1556,-2580,235,-26,-30,2025-02-03 17:40:19,0.0
-13256,-1484,-2660,246,335,76,2025-02-03 17:40:19,0.0
-13364,-1248,-2580,181,389,103,2025-02-03 17:40:19,0.0
-13416,-1248,-2444,98,214,118,2025-02-03 17:40:19,0.0
-13416,-1260,-2276,-17,-19,130,2025-02-03 17:40:19,0.0
-13444,-1380,-2144,-81,-170,170,2025-02-03 17:40:19,0.0
-13336,-1480,-1944,-35,-166,237,2025-02-03 17:40:19,0.0
-13432,-1444,-1968,69,-22,317,2025-02-03 17:40:19,0.0
-13436,-1464,-1852,140,-15,406,2025-02-03 17:40:19,0.0
-13684,-1548,-1760,362,-148,545,2025-02-03 17:40:19,0.0
-13732,-1272,-2108,304,-350,579,2025-02-03 17:40:19,0.0
-13628,-1044,-1888,333,-558,609,2025-02-03 17:40:19,0.0
-13444,-924,-1880,351,-825,568,2025-02-03 17:40:19,0.0
-13280,-928,-1960,260,-995,457,2025-02-03 17:40:19,0.0
-13552,-912,-2196,122,-842,444,2025-02-03 17:40:19,0.0
-13276,-780,-2488,59,-665,389,2025-02-03 17:40:19,0.0
-13256,-632,-2316,20,-553,283,2025-02-03 17:40:19,0.0
-12900,-896,-2052,-45,-705,148,2025-02-03 17:40:19,0.0
-12520,-1040,-2020,-240,-966,-172,2025-02-03 17:40:19,0.0
-12800,-1084,-1984,-201,-807,-373,2025-02-03 17:40:19,0.0
-12348,-1104,-2988,-143,666,-354,2025-02-03 17:40:19,0.0
-12240,-296,-2696,-1236,1278,-1356,2025-02-03 17:40:19,0.0
-13484,-904,-936,-652,1561,-1175,2025-02-03 17:40:19,0.0
-13436,-1724,-1252,-176,1519,-848,2025-02-03 17:40:19,0.0
-13788,-1812,-1640,89,1711,-670,2025-02-03 17:40:19,0.0
-13864,-1700,-1644,386,1724,-521,2025-02-03 17:40:19,0.0
-13616,-1464,-2148,358,1359,-532,2025-02-03 17:40:19,0.0
-13540,-1352,-2092,401,905,-649,2025-02-03 17:40:19,0.0
-13396,-1320,-2152,448,586,-727,2025-02-03 17:40:19,0.0
-13220,-1232,-2264,410,529,-846,2025-02-03 17:40:19,0.0
-13188,-948,-2404,421,721,-900,2025-02-03 17:40:19,0.0
-13336,-760,-2348,469,891,-876,2025-02-03 17:40:19,0.0
-13580,-580,-2624,274,822,-844,2025-02-03 17:40:19,0.0
-13452,-880,-2944,-95,328,-983,2025-02-03 17:40:19,0.0
-13896,-1332,-3148,-467,-232,-1002,2025-02-03 17:40:20,0.0
-13216,-1756,-3064,-663,-696,-678,2025-02-03 17:40:20,0.0
-12152,-1960,-2884,-640,-1339,-701,2025-02-03 17:40:20,0.0
-11880,-1804,-2596,-548,-1280,-438,2025-02-03 17:40:20,0.0
-11732,-1412,-2300,-339,-536,-226,2025-02-03 17:40:20,0.0
-12172,-1584,-2212,-83,1056,-164,2025-02-03 17:40:20,0.0
-13912,-2096,-2404,73,2574,-204,2025-02-03 17:40:20,0.0
-14856,-2816,-2172,257,3439,-398,2025-02-03 17:40:20,0.0
-15404,-2896,-1808,132,3146,-1270,2025-02-03 17:40:20,0.0
-15244,-2388,-1468,58,178,-1815,2025-02-03 17:40:20,0.0
-14928,-932,-2428,-878,-3495,-3402,2025-02-03 17:40:20,0.0
-14944,-948,-1804,-2254,-5151,-3632,2025-02-03 17:40:20,0.0
-12828,-688,-1792,-3008,-5353,-4151,2025-02-03 17:40:20,0.0
-12784,224,-1096,-3927,-3866,-4516,2025-02-03 17:40:20,0.0
-12488,-4,-216,-4021,-2417,-3406,2025-02-03 17:40:20,0.0
-12088,-2200,20,-4165,-937,-3258,2025-02-03 17:40:20,0.0
-12528,-3552,320,-4113,323,-3255,2025-02-03 17:40:20,0.0
-13132,-4124,-16,-3984,1159,-3120,2025-02-03 17:40:20,0.0
-13292,-4188,-292,-3904,1380,-3026,2025-02-03 17:40:20,0.0
-13288,-3932,24,-3695,903,-2938,2025-02-03 17:40:20,0.0
-13184,-3620,620,-3315,-104,-2892,2025-02-03 17:40:20,0.0
-13020,-3544,760,-2961,-1014,-2677,2025-02-03 17:40:20,0.0
-12780,-3552,84,-2775,-986,-2251,2025-02-03 17:40:20,0.0
-12200,-3644,-480,-2585,141,-1613,2025-02-03 17:40:20,0.0
-13044,-3648,-1236,-2460,632,-229,2025-02-03 17:40:20,0.0
-13132,-3500,-1000,-2686,-252,-374,2025-02-03 17:40:20,0.0
-12984,-3040,-988,-2816,-409,-525,2025-02-03 17:40:20,0.0
-12932,-2852,-1104,-2867,-255,-590,2025-02-03 17:40:20,0.0
-13044,-2920,-752,-3090,23,-642,2025-02-03 17:40:20,0.0
-13064,-3236,-608,-3209,400,-732,2025-02-03 17:40:20,0.0
-13332,-3600,-608,-3318,793,-774,2025-02-03 17:40:20,0.0
-13236,-4104,-728,-3266,1345,-866,2025-02-03 17:40:20,0.0
-13716,-4368,-924,-3111,1833,-846,2025-02-03 17:40:20,
-14024,-4552,-332,-2748,2385,-759,2025-02-03 17:40:20,0.0
-14736,-4808,140,-2312,2645,-623,2025-02-03 17:40:20,0.0
-15848,-5104,616,-1717,2851,-276,2025-02-03 17:40:22,0.0
-16604,-5260,660,-1123,3102,-109,2025-02-03 17:40:22,0.0
-17164,-5216,644,-691,2627,-111,2025-02-03 17:40:22,0.0
-18516,-5988,1516,-574,-914,-46,2025-02-03 17:40:22,0.0
-17548,-6076,2096,-464,-2805,387,2025-02-03 17:40:22,0.0
-15156,-5780,-2316,3275,-388,291,2025-02-03 17:40:22,0.0
-15512,-5944,-3360,3996,-736,117,2025-02-03 17:40:22,0.0
-15272,-5476,-4936,4234,-2960,728,2025-02-03 17:40:22,0.0
-13096,-3844,-6364,3945,-7043,2067,2025-02-03 17:40:22,0.0
-17840,332,-6632,-3249,-654,3514,2025-02-03 17:40:22,0.0
-15280,1524,-6744,-4741,-8026,2849,2025-02-03 17:40:22,0.0
-13820,2168,-4756,-5083,-11452,2585,2025-02-03 17:40:22,0.0
-11704,1932,-3584,-4870,-11942,2473,2025-02-03 17:40:22,0.0
-9952,1508,-3160,-4434,-10223,2363,2025-02-03 17:40:22,0.0
-8380,864,-3744,-4145,-7357,2144,2025-02-03 17:40:22,0.0
-7956,788,-4216,-3986,-3648,1732,2025-02-03 17:40:22,0.0
-8280,1700,-3772,-3772,750,1375,2025-02-03 17:40:22,0.0
-10868,-100,1220,1678,-3875,-1225,2025-02-03 17:40:22,0.0
-9480,-428,380,1900,-2819,-2423,2025-02-03 17:40:22,0.0
-9800,-688,-924,2363,-1064,-3388,2025-02-03 17:40:22,0.0
-10548,-508,-1952,2841,857,-3830,2025-02-03 17:40:22,0.0
-11244,92,-3016,3333,2775,-3833,2025-02-03 17:40:22,0.0
-12624,500,-3792,3464,4630,-3633,2025-02-03 17:40:22,0.0
-14076,1000,-4588,3083,6076,-3205,2025-02-03 17:40:23,0.0
-15852,2272,-5392,2504,7188,-2213,2025-02-03 17:40:23,0.0
-12740,-648,-3900,-304,1819,4,2025-02-03 17:40:23,0.0
-13128,-788,-3624,-302,2809,284,2025-02-03 17:40:23,0.0
-13688,-880,-3504,-358,3825,478,2025-02-03 17:40:23,0.0
-14184,-736,-3376,-439,4343,401,2025-02-03 17:40:23,0.0
-14472,-804,-3472,-586,3364,138,2025-02-03 17:40:23,0.0
-14488,-964,-3168,-551,806,-3,2025-02-03 17:40:23,0.0
-14020,-1548,-2448,-339,-1609,13,2025-02-03 17:40:23,0.0
-12712,-1636,-2948,-165,-2257,8,2025-02-03 17:40:23,0.0
-12252,-1328,-2224,54,-1046,63,2025-02-03 17:40:23,0.0
-11956,-1288,-2160,489,586,109,2025-02-03 17:40:23,0.0
-12392,-1324,-2412,837,1715,216,2025-02-03 17:40:23,0.0
-13136,-1704,-2716,1150,2326,266,2025-02-03 17:40:23,0.0
-13888,-1792,-3164,1377,1811,272,2025-02-03 17:40:23,0.0
-14428,-1652,-3688,1656,174,477,2025-02-03 17:40:23,0.0
-14024,-1416,-4212,1892,-2539,758,2025-02-03 17:40:23,0.0
-12972,-760,-4272,1921,-5812,941,2025-02-03 17:40:23,0.0
-11684,-32,-3172,2184,-8817,1125,2025-02-03 17:40:23,0.0
-9196,-140,-2432,2416,-10967,965,2025-02-03 17:40:23,0.0
-7760,-584,-1816,2635,-10320,492,2025-02-03 17:40:23,0.0
-7548,-1280,-2028,3079,-6842,508,2025-02-03 17:40:23,0.0
-8208,-1696,-2976,3998,-2138,1381,2025-02-03 17:40:23,0.0
-8624,-1588,-4660,4738,1816,2570,2025-02-03 17:40:23,0.0
-8852,-736,-5536,5092,5073,3518,2025-02-03 17:40:23,0.0
-8412,4,-6136,4969,6662,3826,2025-02-03 17:40:23,0.0
-7552,660,-5800,4140,6294,3345,2025-02-03 17:40:23,0.0
-7540,1364,-3880,2933,4938,2377,2025-02-03 17:40:24,0.0
-8068,1608,-1828,1945,4715,1752,2025-02-03 17:40:24,0.0
-8364,1336,-1496,1049,5934,1595,2025-02-03 17:40:24,0.0
-7960,1128,-1592,182,7155,1598,2025-02-03 17:40:24,0.0
-8324,1252,-964,286,7888,1928,2025-02-03 17:40:24,0.0
-9856,1264,356,1221,9013,2863,2025-02-03 17:40:24,0.0
-10540,1832,964,1530,10808,3269,2025-02-03 17:40:24,0.0
-12268,2308,2160,1121,11199,2606,2025-02-03 17:40:24,0.0
-14132,2304,2180,669,9565,2250,2025-02-03 17:40:24,0.0
-15504,1588,1816,252,5353,2784,2025-02-03 17:40:24,0.0
-14144,-276,1280,-358,-1640,3088,2025-02-03 17:40:24,0.0
-11268,-640,3136,-1363,-7640,1999,2025-02-03 17:40:24,0.0
-9760,180,5116,-2179,-10515,404,2025-02-03 17:40:24,0.0
-8336,932,6544,-2112,-11369,-946,2025-02-03 17:40:24,0.0
-9512,700,6988,-1031,-11384,-966,2025-02-03 17:40:24,0.0
-8792,140,4516,-315,-12871,300,2025-02-03 17:40:24,0.0
-7364,132,2976,-320,-14640,784,2025-02-03 17:40:24,0.0
-9528,660,3004,430,-14058,641,2025-02-03 17:40:24,0.0
-10044,288,884,860,-11761,1091,2025-02-03 17:40:24,0.0
-9672,-68,1192,869,-10406,1445,2025-02-03 17:40:25,0.0
-8400,-248,952,861,-9466,1093,2025-02-03 17:40:25,0.0
-7996,-492,120,83,-8320,279,2025-02-03 17:40:25,0.0
-10268,-552,-1000,-367,-5542,-299,2025-02-03 17:40:25,0.0
-11708,-1080,-1772,-324,-1753,-1033,2025-02-03 17:40:25,0.0
-7244,1872,-9084,1118,-6407,-932,2025-02-03 17:40:25,0.0
-6860,2096,-9104,1251,-5795,-1604,2025-02-03 17:40:25,0.0
-6844,2104,-9060,1323,-4678,-1848,2025-02-03 17:40:28,0.0
-7200,2232,-9100,1546,-3718,-1832,2025-02-03 17:40:28,0.0
-8128,2220,-9224,1750,-3154,-1710,2025-02-03 17:40:28,0.0
-9372,2064,-8960,1915,-3213,-1568,2025-02-03 17:40:28,0.0
-9872,2068,-9548,1820,-4087,-1669,2025-02-03 17:40:28,0.0
-10352,2396,-9708,1272,-5994,-2079,2025-02-03 17:40:28,0.0
-11876,3292,4188,-7396,-10972,3138,2025-02-03 17:40:28,0.0
-12272,2828,3516,-7083,-12910,1522,2025-02-03 17:40:28,0.0
-12876,1340,3680,-6178,-13233,353,2025-02-03 17:40:28,0.0
-13628,316,1848,-18170,4584,-3440,2025-02-03 17:40:28,0.0
-14612,372,1276,-18595,5279,-3397,2025-02-03 17:40:29,0.0
-13636,1380,1484,-999,3663,-612,2025-02-03 17:40:29,0.0
-14164,988,1516,-986,4061,-295,2025-02-03 17:40:29,0.0
-14892,184,1708,-799,4217,-34,2025-02-03 17:40:29,0.0
-15552,-640,1352,-422,4373,460,2025-02-03 17:40:29,0.0
-16080,-1336,664,-207,4512,1047,2025-02-03 17:40:29,0.0
-16712,-1356,152,-93,4352,1772,2025-02-03 17:40:29,0.0
-17344,-500,288,91,3571,2799,2025-02-03 17:40:29,0.0
-18008,1060,732,460,2600,4010,2025-02-03 17:40:29,0.0
-11644,-3576,-2400,-12972,-1337,-4321,2025-02-03 17:40:29,0.0
-12852,-4408,-1984,-11769,9093,-3702,2025-02-03 17:40:29,0.0
-13660,-5268,-1524,-9632,15975,-4549,2025-02-03 17:40:30,
-14588,-6436,-1456,-8659,14246,-6135,2025-02-03 17:40:30,0.0
-17912,-6616,-556,-8881,8771,-6933,2025-02-03 17:40:30,0.0
-16672,-6764,-1692,-8765,3734,-7967,2025-02-03 17:40:31,0.0
-15300,-6616,-876,-8310,-2051,-9363,2025-02-03 17:40:31,0.0
-14544,-5308,-480,-8206,-8177,-9259,2025-02-03 17:40:31,0.0
-15808,-8544,-4048,-1698,-5116,-3648,2025-02-03 17:40:31,0.0
-17044,-9336,-5616,1438,-3269,-3915,2025-02-03 17:40:31,0.0
-19440,-8916,-7148,2324,1848,-4161,2025-02-03 17:40:31,0.0
-11828,32,920,1425,-3928,-231,2025-02-03 17:40:31,0.0
-11424,296,1540,1468,-3261,-621,2025-02-03 17:40:31,0.0
-11468,452,2040,1544,-2403,-829,2025-02-03 17:40:31,0.0
-9880,1544,-2044,-2442,-505,1874,2025-02-03 17:40:31,0.0
-9848,2108,-2388,-2801,1755,1332,2025-02-03 17:40:31,0.0
-10820,2596,-2560,-3386,3038,712,2025-02-03 17:40:31,0.0
-11664,1948,-3292,-3951,2736,209,2025-02-03 17:40:31,0.0
-11488,1432,-3880,-4648,1273,-402,2025-02-03 17:40:31,0.0
-10856,1248,-4164,-5270,298,-1216,2025-02-03 17:40:31,0.0
-10440,1180,-3780,-5812,874,-1992,2025-02-03 17:40:31,0.0
-11052,1796,-2556,-5714,3156,-2235,2025-02-03 17:40:31,0.0
-12276,2032,-2316,-5627,6792,-2228,2025-02-03 17:40:31,0.0
-13368,1572,-2920,-6003,8587,-2319,2025-02-03 17:40:31,0.0
-15024,1464,-3008,-6526,7759,-2364,2025-02-03 17:40:31,0.0
-15168,1532,-3560,-7087,3751,-2317,2025-02-03 17:40:31,0.0
-14684,1148,-3140,-7352,-1239,-2484,2025-02-03 17:40:31,0.0
-13132,256,-1724,-7463,-4557,-2837,2025-02-03 17:40:31,0.0
-11764,-436,-1000,-6845,-4966,-3311,2025-02-03 17:40:31,0.0
-11564,-944,-152,-5619,-2776,-3594,2025-02-03 17:40:31,0.0
-11736,-1384,-820,-4658,230,-3545,2025-02-03 17:40:31,0.0
-12412,-1808,-648,-3937,2693,-3160,2025-02-03 17:40:31,0.0
-13260,-2168,-576,-2910,4634,-2792,2025-02-03 17:40:31,0.0
-14340,-2220,-1048,-2087,6021,-2806,2025-02-03 17:40:31,0.0
-15048,-1184,-1584,-1592,6063,-3087,2025-02-03 17:40:31,0.0
-15740,448,-3272,-1456,4251,-3203,2025-02-03 17:40:31,0.0
-16848,1892,-6420,-1917,2908,-2946,2025-02-03 17:40:31,0.0
-17848,2600,-8400,-2931,2585,-2180,2025-02-03 17:40:31,0.0
-16476,1828,-5036,-4134,835,-1556,2025-02-03 17:40:31,0.0
-14368,-412,-2052,-4292,-2187,-2127,2025-02-03 17:40:31,0.0
-12012,-1960,-1948,-4489,-4507,-3455,2025-02-03 17:40:32,0.0
-11996,-1192,-3016,-4751,-4880,-4237,2025-02-03 17:40:32,0.0
-11804,-56,-3116,-4810,-4326,-4046,2025-02-03 17:40:32,0.0
-10932,668,-3612,-5202,-3044,-3665,2025-02-03 17:40:32,0.0
-10764,832,-3860,-6404,-962,-3320,2025-02-03 17:40:32,0.0
-11172,304,-3676,-8028,1163,-3094,2025-02-03 17:40:32,0.0
-12616,-1280,-3744,-9477,2935,-2746,2025-02-03 17:40:32,0.0
-14024,-2540,-4528,-10682,4399,-2532,2025-02-03 17:40:32,0.0
-14408,-3128,-4800,-11440,4491,-2831,2025-02-03 17:40:32,0.0
-13744,-3560,-4620,-12111,2239,-3743,2025-02-03 17:40:32,0.0
-13524,-3472,-4052,-12369,-613,-4726,2025-02-03 17:40:32,0.0
-12996,-3096,-4296,-12382,-2472,-5326,2025-02-03 17:40:32,0.0
-12928,-2560,-4708,-12576,-3258,-5487,2025-02-03 17:40:32,0.0
-12960,-1888,-4480,-12792,-3274,-5052,2025-02-03 17:40:32,0.0
-12800,-1512,-4192,-13132,-2918,-4398,2025-02-03 17:40:32,0.0
-12324,-1196,-4404,-13814,-2641,-4148,2025-02-03 17:40:32,0.0
-12060,-1048,-5152,-15089,-2721,-4266,2025-02-03 17:40:32,0.0
-12064,-668,-5264,-16303,-2909,-4583,2025-02-03 17:40:32,0.0
-12560,-748,-5076,-17235,-2756,-4586,2025-02-03 17:40:32,0.0
-13336,-1096,-4584,-17845,-2479,-4197,2025-02-03 17:40:32,0.0
-13892,-1572,-3984,-18414,-2416,-3781,2025-02-03 17:40:32,0.0
-14300,-2516,-4044,-19213,-2906,-3720,2025-02-03 17:40:32,0.0
-14484,-2852,-4468,-20188,-4314,-3948,2025-02-03 17:40:32,0.0
-14116,-2784,-3976,-20897,-6503,-4011,2025-02-03 17:40:32,0.0
-13244,-2772,-3768,-21328,-8278,-3745,2025-02-03 17:40:32,0.0
-12584,-2540,-2848,-21574,-8839,-3513,2025-02-03 17:40:32,0.0
-11712,-2592,-2600,-21824,-8251,-3601,2025-02-03 17:40:32,0.0
-11464,-2876,-2156,-22434,-7204,-3961,2025-02-03 17:40:32,0.0
-12252,-3928,-1252,-22791,-5774,-3906,2025-02-03 17:40:32,0.0
-13524,-4712,-444,-22560,-4604,-3381,2025-02-03 17:40:32,0.0
-14024,-4552,-468,-21897,-4218,-2416,2025-02-03 17:40:32,0.0
-14064,-3408,-1160,-21689,-3949,-1569,2025-02-03 17:40:32,0.0
-14024,-2792,-1664,-22258,-3006,-1076,2025-02-03 17:40:32,0.0
-13696,-3528,-1400,-22763,-2573,-1187,2025-02-03 17:40:32,0.0
-13772,-4424,-736,-22808,-3255,-1267,2025-02-03 17:40:32,0.0
-14096,-3948,-780,-22309,-3963,-819,2025-02-03 17:40:32,0.0
-13752,-4020,-688,-21675,-4222,-263,2025-02-03 17:40:32,0.0
-13196,-4872,-956,-20911,-4378,129,2025-02-03 17:40:32,0.0
-13000,-5368,-896,-20130,-4309,279,2025-02-03 17:40:32,0.0
-12760,-5396,-860,-19167,-3907,318,2025-02-03 17:40:32,0.0
-13852,-5324,96,-17872,-3742,483,2025-02-03 17:40:32,0.0
-13568,-5528,-1676,-16607,-3562,659,2025-02-03 17:40:32,0.0
-13956,-4924,-2876,-15705,-3094,623,2025-02-03 17:40:32,0.0
-13680,-2924,-4460,-14981,-2068,243,2025-02-03 17:40:32,0.0
-13320,-568,-5564,-14915,-1425,-133,2025-02-03 17:40:32,0.0
-12808,1464,-5544,-15967,-1263,-225,2025-02-03 17:40:32,0.0
-12520,3548,-4736,-17597,-731,133,2025-02-03 17:40:32,0.0
-12088,5184,-4232,-19182,647,858,2025-02-03 17:40:32,0.0
-12072,6084,-3652,-20384,2750,1285,2025-02-03 17:40:32,0.0
-12084,4844,-2884,-21548,5291,349,2025-02-03 17:40:32,0.0
-15120,1672,-1168,-22349,5472,-710,2025-02-03 17:40:32,0.0
-17736,-1292,84,-22124,3192,-759,2025-02-03 17:40:32,0.0
-17596,-3312,-420,-21754,-941,-626,2025-02-03 17:40:32,0.0
-17224,-3796,-104,-22007,-5648,-644,2025-02-03 17:40:32,0.0
-14792,-3880,1256,-21657,-8244,-842,2025-02-03 17:40:32,0.0
-12932,-4712,2084,-20840,-8678,-839,2025-02-03 17:40:32,0.0
-11548,-5096,3716,-18877,-6881,-205,2025-02-03 17:40:32,0.0
-9804,-4836,4724,-15593,-3071,410,2025-02-03 17:40:32,0.0
-9496,-3884,4260,-12748,823,453,2025-02-03 17:40:32,0.0
-10544,-2328,2996,-11271,3396,205,2025-02-03 17:40:32,0.0
-12128,-388,2444,-10158,4377,-169,2025-02-03 17:40:32,0.0
-13468,664,2036,-8797,3820,-109,2025-02-03 17:40:32,0.0
-13560,1092,840,-8104,2300,-155,2025-02-03 17:40:32,
-13024,1072,116,-8596,1539,-743,2025-02-03 17:40:32,0.0
-12772,1012,160,-8896,1788,-1181,2025-02-03 17:40:32,0.0
-12760,808,180,-8840,2633,-1351,2025-02-03 17:40:32,0.0
-11948,652,932,-8725,3412,-1842,2025-02-03 17:40:33,0.0
-14476,960,1296,-8890,3679,-1821,2025-02-03 17:40:33,0.0
-13704,576,-204,-8676,3921,-1903,2025-02-03 17:40:33,0.0
-14248,148,-184,-8615,3565,-2043,2025-02-03 17:40:33,0.0
-14068,-36,-468,-8490,2942,-2071,2025-02-03 17:40:33,0.0
-14208,148,-1012,-8451,2303,-1835,2025-02-03 17:40:33,0.0
-14196,788,-668,-8322,2297,-1660,2025-02-03 17:40:33,0.0
-13584,928,-404,-8146,2876,-1670,2025-02-03 17:40:33,0.0
-13608,784,-288,-8039,3347,-1791,2025-02-03 17:40:33,0.0
-13940,596,824,-7875,3349,-1853,2025-02-03 17:40:33,0.0
-14528,376,844,-7626,2769,-1776,2025-02-03 17:40:33,0.0
-15032,64,1124,-7296,1800,-1637,2025-02-03 17:40:33,0.0
-14812,-436,456,-6833,312,-1576,2025-02-03 17:40:33,0.0
-14048,-692,260,-6603,-1361,-1798,2025-02-03 17:40:33,0.0
-13260,-792,524,-6369,-2301,-2067,2025-02-03 17:40:33,0.0
-12596,-692,1008,-5894,-2272,-2419,2025-02-03 17:40:33,0.0
-12360,-860,1020,-5093,-1488,-2744,2025-02-03 17:40:33,0.0
-12296,-1008,636,-4322,-386,-3067,2025-02-03 17:40:33,0.0
-12832,-1032,-456,-3860,860,-3286,2025-02-03 17:40:33,0.0
-13772,-912,-728,-3437,2005,-3253,2025-02-03 17:40:33,0.0
-14576,-1544,-68,-2707,2821,-2890,2025-02-03 17:40:33,0.0
-15024,-2908,560,-2021,3022,-2505,2025-02-03 17:40:33,0.0
-14972,-3284,-188,-1865,2538,-1931,2025-02-03 17:40:33,0.0
-13960,-1512,-1188,-1734,836,-1857,2025-02-03 17:40:33,0.0
-12948,0,-1272,-1584,-879,-1996,2025-02-03 17:40:33,0.0
-12296,268,-468,-1405,-1645,-1971,2025-02-03 17:40:33,0.0
-11696,-280,388,-1259,-1259,-1810,2025-02-03 17:40:33,0.0
-11396,-1044,576,-995,505,-1926,2025-02-03 17:40:33,0.0
-12228,-1392,412,-552,3237,-2059,2025-02-03 17:40:33,0.0
-13996,-1012,-800,-357,6157,-1761,2025-02-03 17:40:33,0.0
-15044,-744,-1512,-562,7953,-1437,2025-02-03 17:40:33,0.0
-15596,-572,-1824,-779,7460,-1256,2025-02-03 17:40:33,0.0
-15984,-716,-1660,-824,4675,-903,2025-02-03 17:40:33,0.0
-15768,-1452,-1720,-528,1066,-559,2025-02-03 17:40:33,0.0
-15132,-2548,-1212,130,-1658,-315,2025-02-03 17:40:33,0.0
-14072,-2908,-984,1157,-2386,-360,2025-02-03 17:40:33,0.0
-13512,-2736,-1892,2014,-1892,-548,2025-02-03 17:40:33,0.0
-13008,-2520,-2476,2447,-1042,-763,2025-02-03 17:40:33,0.0
-12788,-2160,-2548,2743,-509,-948,2025-02-03 17:40:33,0.0
-12452,-1512,-1748,2944,-207,-1026,2025-02-03 17:40:33,0.0
-12696,-656,-1400,2864,704,-936,2025-02-03 17:40:33,0.0
-13032,-308,-1616,2027,2534,-860,2025-02-03 17:40:33,0.0
-13508,-612,-1964,1007,3330,-936,2025-02-03 17:40:33,0.0
-13944,-952,-1984,199,2256,-852,2025-02-03 17:40:33,0.0
-14092,-1576,-1848,-433,250,-708,2025-02-03 17:40:33,0.0
-13792,-1840,-1948,-669,-1761,-617,2025-02-03 17:40:33,0.0
-13160,-1728,-2148,-582,-2908,-451,2025-02-03 17:40:33,0.0
-12304,-1704,-2480,-294,-3085,-599,2025-02-03 17:40:33,0.0
-11940,-1944,-2792,-139,-2609,-837,2025-02-03 17:40:33,0.0
-12064,-2192,-2084,79,-1562,-949,2025-02-03 17:40:33,0.0
-12608,-2076,-1556,473,317,-702,2025-02-03 17:40:33,0.0
-13032,-1752,-1732,756,1948,-397,2025-02-03 17:40:33,0.0
-13160,-1828,-2364,799,2739,-320,2025-02-03 17:40:33,0.0
-13912,-1816,-2372,690,2894,-488,2025-02-03 17:40:33,0.0
-14212,-1776,-2144,676,2842,-735,2025-02-03 17:40:33,0.0
-14268,-1388,-2476,519,2529,-1330,2025-02-03 17:40:33,0.0
-13608,-1268,-3196,213,1360,-1875,2025-02-03 17:40:33,0.0
-13864,-1288,-2060,-51,-351,-2111,2025-02-03 17:40:34,0.0
-13296,-1232,-1724,-354,-1488,-2023,2025-02-03 17:40:34,0.0
-13136,-1316,-1108,-826,-1677,-1892,2025-02-03 17:40:34,0.0
-12792,-1512,-1060,-1413,-1183,-1781,2025-02-03 17:40:34,0.0
-12892,-1760,-1024,-2111,-98,-1777,2025-02-03 17:40:34,0.0
-12836,-1888,-1408,-2773,1146,-1897,2025-02-03 17:40:34,0.0
-13428,-1896,-1356,-3378,2184,-2104,2025-02-03 17:40:34,0.0
-14304,-2088,-1304,-3978,2903,-2271,2025-02-03 17:40:34,0.0
-14588,-2316,-1012,-4458,2624,-2457,2025-02-03 17:40:34,0.0
-14704,-2588,-716,-4631,1335,-2644,2025-02-03 17:40:34,0.0
-14384,-3116,-612,-4606,-773,-2714,2025-02-03 17:40:34,0.0
-13880,-3676,-184,-4517,-2283,-2750,2025-02-03 17:40:34,0.0
-13168,-3900,-344,-4322,-3090,-2779,2025-02-03 17:40:34,0.0
-12568,-4004,-184,-3739,-2879,-2538,2025-02-03 17:40:34,0.0
-12432,-3796,24,-3160,-1783,-2224,2025-02-03 17:40:34,0.0
-12292,-3644,-96,-2725,-210,-2027,2025-02-03 17:40:34,0.0
-12644,-3424,-100,-2583,1027,-1923,2025-02-03 17:40:34,0.0
-13120,-3068,220,-2726,1000,-1753,2025-02-03 17:40:34,0.0
-13540,-2728,360,-2845,72,-1459,2025-02-03 17:40:34,0.0
-13480,-2568,524,-2949,-1024,-1030,2025-02-03 17:40:34,0.0
-13000,-2732,760,-2999,-1692,-496,2025-02-03 17:40:34,0.0
-12592,-2632,692,-2974,-1855,66,2025-02-03 17:40:34,0.0
-12132,-2472,404,-3170,-1154,471,2025-02-03 17:40:34,0.0
-11896,-2696,496,-3333,-113,547,2025-02-03 17:40:34,0.0
-12080,-3092,776,-3192,669,672,2025-02-03 17:40:34,0.0
-12408,-3520,704,-2745,932,1077,2025-02-03 17:40:34,0.0
-12636,-4080,360,-2123,1154,1503,2025-02-03 17:40:34,0.0
-12440,-4416,160,-1774,1851,1502,2025-02-03 17:40:34,0.0
-12524,-3860,-52,-1350,2644,1148,2025-02-03 17:40:34,0.0
-12972,-3304,-720,-1055,3110,919,2025-02-03 17:40:34,0.0
-13328,-3136,-1604,-954,3342,874,2025-02-03 17:40:34,0.0
-13384,-3024,-2312,-1089,3455,789,2025-02-03 17:40:34,0.0
-13216,-2708,-1644,-1723,3556,342,2025-02-03 17:40:34,0.0
-13488,-2496,-808,-2281,3331,-110,2025-02-03 17:40:34,0.0
-14068,-2300,44,-2787,3064,-474,2025-02-03 17:40:34,0.0
-14836,-2760,-384,-3174,2838,-652,2025-02-03 17:40:34,0.0
-15840,-3280,-156,-3600,2923,-581,2025-02-03 17:40:34,0.0
-16172,-3740,360,-3744,3387,-444,2025-02-03 17:40:34,0.0
-16476,-4088,228,-3594,3280,-261,2025-02-03 17:40:34,0.0
-16604,-5200,244,-3372,2954,-28,2025-02-03 17:40:34,
-16572,-6120,568,-2748,2850,-104,2025-02-03 17:40:34,0.0
-16432,-7016,592,-1745,2955,-581,2025-02-03 17:40:34,0.0
-16488,-7068,-116,-326,2629,-1239,2025-02-03 17:40:34,0.0
-16656,-6252,-1972,1638,2291,-2069,2025-02-03 17:40:34,0.0
-17492,-5816,-3352,3157,1775,-2938,2025-02-03 17:40:34,0.0
-18816,-5088,-4452,3409,585,-2351,2025-02-03 17:40:34,0.0
-19568,-3476,-4724,2913,-1495,-223,2025-02-03 17:40:34,0.0
-17004,-1664,-5304,2833,-5463,2212,2025-02-03 17:40:34,0.0
-13332,-876,-7204,2835,-9666,3218,2025-02-03 17:40:34,0.0
-10884,-352,-8636,1989,-11698,3354,2025-02-03 17:40:34,0.0
-8960,124,-8084,1019,-11418,3049,2025-02-03 17:40:34,0.0
-8348,256,-6472,783,-8858,2791,2025-02-03 17:40:34,0.0
-8272,-832,-5252,1297,-4013,2656,2025-02-03 17:40:34,0.0
-9532,-2648,-3932,2670,3492,2576,2025-02-03 17:40:34,0.0
-11988,-3240,-1356,4655,9959,3059,2025-02-03 17:40:34,0.0
-14452,-2532,-244,6440,12695,3931,2025-02-03 17:40:34,0.0
-17012,-1464,-1600,7066,11452,5383,2025-02-03 17:40:34,0.0
-17636,-56,-3856,6334,6705,6487,2025-02-03 17:40:34,0.0
-16520,968,-5668,4872,-376,6606,2025-02-03 17:40:34,0.0
-11920,736,-2708,2208,-13888,4492,2025-02-03 17:40:34,0.0
-10924,380,-1452,1887,-12549,4170,2025-02-03 17:40:34,0.0
-10056,36,-680,1805,-9081,4063,2025-02-03 17:40:34,0.0
-10120,-380,-112,2199,-4928,4120,2025-02-03 17:40:34,0.0
-10848,-448,-404,2730,-2056,4610,2025-02-03 17:40:35,0.0
-11532,-308,-208,3209,-622,5369,2025-02-03 17:40:35,0.0
-11412,-96,-576,3177,-660,5289,2025-02-03 17:40:35,0.0
-11288,328,-512,2604,-1526,4556,2025-02-03 17:40:35,0.0
-11032,296,128,2041,-2757,3202,2025-02-03 17:40:35,0.0
-10808,-148,676,1805,-4495,1675,2025-02-03 17:40:35,0.0
-9988,-416,976,1803,-6280,392,2025-02-03 17:40:35,0.0
-9832,-416,1904,2139,-6533,-804,2025-02-03 17:40:35,0.0
-9116,-348,2108,2685,-5714,-1837,2025-02-03 17:40:35,0.0
-14028,-552,344,7269,4144,-3789,2025-02-03 17:40:35,0.0
-16116,-824,996,8394,8317,-1862,2025-02-03 17:40:35,0.0
-18152,-600,1928,9226,12282,635,2025-02-03 17:40:35,0.0
-18784,432,728,9558,14600,2969,2025-02-03 17:40:35,0.0
-18808,1700,-692,8912,15063,3821,2025-02-03 17:40:35,0.0
-19388,2812,-1336,7411,12470,3635,2025-02-03 17:40:35,0.0
-20512,3672,-1400,5613,7216,3380,2025-02-03 17:40:35,0.0
-21272,3944,-1348,3811,1114,3530,2025-02-03 17:40:35,0.0
-19128,2964,-4728,-2071,-1097,7004,2025-02-03 17:40:35,0.0
-13588,1740,-3456,-4496,-6801,4691,2025-02-03 17:40:35,0.0
-8904,1348,-3768,-4909,-12744,12,2025-02-03 17:40:35,0.0
-7796,748,-5224,-4993,-18005,-3551,2025-02-03 17:40:35,0.0
-8196,732,-4768,-4463,-21490,-4135,2025-02-03 17:40:35,0.0
-8672,-440,-4076,-3371,-21160,-2723,2025-02-03 17:40:35,0.0
-9296,-2620,-4300,-2321,-15162,-779,2025-02-03 17:40:35,0.0
-9664,-4404,-4536,-1787,-2972,140,2025-02-03 17:40:35,0.0
-15200,488,-1208,1260,17810,-1362,2025-02-03 17:40:35,0.0
-15568,1208,-1988,-351,9162,-3263,2025-02-03 17:40:35,0.0
-15136,1300,-3348,-2704,219,-5456,2025-02-03 17:40:35,0.0
-14724,460,-3520,-4436,-6144,-6604,2025-02-03 17:40:35,0.0
-13208,-1008,-5604,-5867,-9487,-6975,2025-02-03 17:40:35,0.0
-13568,-2028,-872,-7079,-8624,-6213,2025-02-03 17:40:35,0.0
-10032,-3648,-240,-6576,-6014,-6096,2025-02-03 17:40:35,0.0
-8744,-4500,-756,-5456,-3224,-6489,2025-02-03 17:40:37,0.0
-14540,1000,-740,2124,1515,592,2025-02-03 17:40:40,0.0
-15260,840,-316,2186,983,1232,2025-02-03 17:40:40,0.0
-14708,652,-848,2171,-216,1448,2025-02-03 17:40:42,0.0
-13864,644,-1064,2089,-1644,923,2025-02-03 17:40:42,0.0
-12828,648,-608,1902,-2955,229,2025-02-03 17:40:42,0.0
-12076,136,-144,1808,-3805,-460,2025-02-03 17:40:42,0.0
-11820,116,-164,1740,-3591,-1229,2025-02-03 17:40:42,0.0
-11944,172,-432,1722,-2014,-1842,2025-02-03 17:40:42,0.0
-12724,-508,-2612,-1030,-831,-26,2025-02-03 17:40:42,0.0
-8116,4220,-10716,-5515,-1340,-1915,2025-02-03 17:40:42,0.0
-9228,5128,-10000,-5721,-844,-1794,2025-02-03 17:40:42,0.0
-14984,-3960,-1596,-9147,1642,1940,2025-02-03 17:40:42,0.0
-14448,-2300,-864,-8932,-56,1841,2025-02-03 17:40:42,0.0
-14300,-1712,-404,-8694,-2328,1329,2025-02-03 17:40:42,0.0
-14644,-1384,-2052,-8626,-3221,745,2025-02-03 17:40:42,0.0
-15092,-324,-2536,-8272,-2613,582,2025-02-03 17:40:42,0.0
-14672,740,-2804,-7883,-1612,1027,2025-02-03 17:40:42,0.0
-13368,1508,-3360,-8681,-1271,1476,2025-02-03 17:40:42,0.0
-12180,1700,-3088,-10122,-1346,1698,2025-02-03 17:40:42,0.0
-11352,1304,-2660,-12061,-974,1644,2025-02-03 17:40:42,0.0
-11388,920,-1476,-13454,219,1539,2025-02-03 17:40:42,0.0
-11876,884,-652,-13842,2418,1366,2025-02-03 17:40:42,0.0
-12668,1024,-280,-13919,4751,1242,2025-02-03 17:40:42,0.0
-13268,1080,352,-14265,5773,988,2025-02-03 17:40:42,0.0
-14240,528,-120,-15152,6090,309,2025-02-03 17:40:42,0.0
-15096,8,-900,-16557,5338,-248,2025-02-03 17:40:42,0.0
-15900,40,-1404,-18328,3626,-543,2025-02-03 17:40:42,0.0
-16064,604,-1144,-19615,1405,-317,2025-02-03 17:40:42,0.0
-15116,920,-396,-20637,-932,-193,2025-02-03 17:40:42,0.0
-14588,224,680,-21627,-2572,-209,2025-02-03 17:40:43,0.0
-13352,-652,924,-22347,-3632,-432,2025-02-03 17:40:43,0.0
-11876,-1800,640,-22689,-3905,-1242,2025-02-03 17:40:43,0.0
-11188,-2948,772,-22797,-3268,-2318,2025-02-03 17:40:43,0.0
-11068,-4080,1488,-22448,-1963,-3158,2025-02-03 17:40:43,0.0
-11236,-4232,3376,-21320,-112,-3749,2025-02-03 17:40:43,0.0
-11596,-3132,2944,-20010,1584,-3925,2025-02-03 17:40:43,0.0
-11856,-1416,1640,-19070,3068,-4075,2025-02-03 17:40:43,0.0
-12856,560,-80,-18369,4561,-4214,2025-02-03 17:40:43,0.0
-13712,2536,-1532,-18294,6067,-4027,2025-02-03 17:40:43,0.0
-13872,3332,-1880,-19161,6623,-3847,2025-02-03 17:40:43,0.0
-13748,3164,-2156,-20311,5760,-3999,2025-02-03 17:40:43,0.0
-14288,2340,-1980,-21299,4477,-4313,2025-02-03 17:40:43,0.0
-14732,1364,-1792,-21667,2857,-4486,2025-02-03 17:40:43,0.0
-14948,188,-1172,-21488,865,-4656,2025-02-03 17:40:43,
-15464,-1540,32,-20427,-1262,-4729,2025-02-03 17:40:43,0.0
-15304,-2908,824,-18843,-3078,-4544,2025-02-03 17:40:43,0.0
-14548,-3884,1288,-17425,-4633,-4352,2025-02-03 17:40:43,0.0
-14172,-3588,1848,-15986,-5887,-3951,2025-02-03 17:40:43,0.0
-14036,-2584,1732,-14122,-5379,-3146,2025-02-03 17:40:43,0.0
-14232,-2052,668,-12070,-2914,-1765,2025-02-03 17:40:43,0.0
-14680,-1772,392,-10323,582,-317,2025-02-03 17:40:43,0.0
-13424,-2252,904,-8411,1674,-133,2025-02-03 17:40:43,0.0
-13184,-3556,1696,-6898,809,-561,2025-02-03 17:40:43,0.0
-13624,-4492,2160,-5083,-281,-871,2025-02-03 17:40:43,0.0
-14164,-5492,1724,-3083,-311,-745,2025-02-03 17:40:43,0.0
-13416,-5528,912,-1424,394,-478,2025-02-03 17:40:43,0.0
-12448,-3692,672,91,924,-538,2025-02-03 17:40:43,0.0
-12468,-1176,-264,766,1782,-656,2025-02-03 17:40:43,0.0
-12604,568,-464,960,2895,-633,2025-02-03 17:40:43,0.0
-13140,868,-1180,542,3811,-629,2025-02-03 17:40:43,0.0
-13840,1096,-1280,-215,4467,-720,2025-02-03 17:40:43,0.0
-14652,980,-1672,-1462,3695,-743,2025-02-03 17:40:43,0.0
-14492,760,-1700,-2531,2082,-1024,2025-02-03 17:40:43,0.0
-14464,760,-1988,-3469,932,-1638,2025-02-03 17:40:43,0.0
-14444,1092,-2304,-4340,313,-2399,2025-02-03 17:40:43,0.0
-14616,1452,-2252,-5285,-324,-2784,2025-02-03 17:40:43,0.0
-14356,1072,-1884,-6412,-1041,-3004,2025-02-03 17:40:43,0.0
-14212,16,-784,-7580,-2274,-3074,2025-02-03 17:40:43,0.0
-13976,-1212,-412,-8270,-3231,-3079,2025-02-03 17:40:43,0.0
-13568,-2484,-472,-8555,-3586,-3042,2025-02-03 17:40:43,0.0
-13208,-3564,-768,-8555,-3016,-3023,2025-02-03 17:40:43,0.0
-13008,-4392,-768,-7972,-1598,-3266,2025-02-03 17:40:43,0.0
-12552,-4912,-712,-7096,-246,-3913,2025-02-03 17:40:43,0.0
-12836,-5308,-652,-6172,524,-4299,2025-02-03 17:40:43,0.0
-13496,-5424,-288,-5105,1149,-4228,2025-02-03 17:40:43,0.0
-13480,-4900,64,-4349,1496,-3988,2025-02-03 17:40:43,0.0
-13188,-3976,-76,-3818,1120,-3890,2025-02-03 17:40:43,0.0
-13016,-3392,-476,-3555,446,-3874,2025-02-03 17:40:43,0.0
-13088,-2944,-492,-3581,-291,-3809,2025-02-03 17:40:43,0.0
-13040,-2748,-764,-3642,-692,-3794,2025-02-03 17:40:43,0.0
-12816,-2140,-1232,-3885,-933,-3624,2025-02-03 17:40:43,0.0
-13008,-1716,-1620,-4253,-768,-3452,2025-02-03 17:40:43,0.0
-13128,-1308,-1664,-4858,-237,-3256,2025-02-03 17:40:43,0.0
-13096,-808,-1396,-5591,560,-2932,2025-02-03 17:40:43,0.0
-13188,-788,-1604,-6318,1116,-2620,2025-02-03 17:40:43,0.0
-13324,-1284,-1120,-6967,1168,-2484,2025-02-03 17:40:43,0.0
-13432,-2348,-316,-7201,955,-2454,2025-02-03 17:40:43,0.0
-13712,-3416,360,-6985,735,-2477,2025-02-03 17:40:43,0.0
-13736,-4080,828,-6717,182,-2760,2025-02-03 17:40:43,0.0
-14040,-4264,916,-6564,-345,-2901,2025-02-03 17:40:43,0.0
-14124,-3892,1360,-6457,-1613,-2694,2025-02-03 17:40:43,0.0
-13776,-3228,1332,-6225,-3057,-2228,2025-02-03 17:40:44,0.0
-13192,-3092,732,-5996,-3867,-1820,2025-02-03 17:40:44,0.0
-12700,-3372,560,-5959,-4302,-1428,2025-02-03 17:40:44,0.0
-12188,-3852,1184,-5730,-4178,-973,2025-02-03 17:40:44,0.0
-12072,-4180,1460,-5202,-3398,-294,2025-02-03 17:40:44,0.0
-11800,-3968,1172,-4684,-1866,545,2025-02-03 17:40:44,0.0
-11548,-3432,524,-4503,-377,932,2025-02-03 17:40:44,0.0
-11436,-3148,248,-4556,722,1054,2025-02-03 17:40:44,0.0
-11452,-3056,360,-4585,1146,870,2025-02-03 17:40:44,0.0
-11472,-3832,1928,-4342,778,241,2025-02-03 17:40:44,0.0
-12164,-5164,2456,-4222,1132,-386,2025-02-03 17:40:44,0.0
-13912,-6028,1888,-4336,2458,-248,2025-02-03 17:40:44,0.0
-15000,-5644,1096,-4395,3810,415,2025-02-03 17:40:44,0.0
-14484,-4480,832,-3658,3803,569,2025-02-03 17:40:44,0.0
-14472,-3544,476,-2875,2724,247,2025-02-03 17:40:44,0.0
-14128,-3364,896,-2757,1748,-203,2025-02-03 17:40:44,0.0
-13996,-4072,1312,-2677,2336,-853,2025-02-03 17:40:44,0.0
-14960,-4868,1336,-2636,3835,-1342,2025-02-03 17:40:44,0.0
-16552,-5328,1464,-2556,5952,-1238,2025-02-03 17:40:44,0.0
-17736,-5464,1708,-2301,7815,-778,2025-02-03 17:40:44,0.0
-17484,-5588,1920,-1911,7453,-654,2025-02-03 17:40:44,0.0
-17984,-6412,1796,-1485,5710,-725,2025-02-03 17:40:44,0.0
-18048,-7548,1640,-866,4109,-710,2025-02-03 17:40:44,0.0
-17804,-8208,1708,373,2421,-596,2025-02-03 17:40:44,0.0
-17284,-8012,48,2251,945,-430,2025-02-03 17:40:44,0.0
-16596,-6960,-4764,5885,1079,-1176,2025-02-03 17:40:44,0.0
-15936,-4088,-3696,5673,-1530,-828,2025-02-03 17:40:44,0.0
-15404,-1972,-3464,5931,-6063,619,2025-02-03 17:40:44,0.0
-14332,-256,-4972,5636,-10644,2275,2025-02-03 17:40:44,0.0
-13192,1020,-6840,4842,-13530,3732,2025-02-03 17:40:44,0.0
-11536,1764,-8720,3682,-13754,4812,2025-02-03 17:40:44,0.0
-9796,1716,-9636,2523,-11277,4993,2025-02-03 17:40:44,0.0
-8520,1464,-8192,1116,-4661,4100,2025-02-03 17:40:44,0.0
-8776,412,-5144,-14,3684,2849,2025-02-03 17:40:44,0.0
-10408,-1900,-2180,-185,11383,1680,2025-02-03 17:40:44,0.0
-13080,-3128,-52,1073,15510,1639,2025-02-03 17:40:44,0.0
-15844,-3660,-76,2771,16225,2991,2025-02-03 17:40:44,0.0
-17376,-3856,-1088,3801,12789,5502,2025-02-03 17:40:44,0.0
-17036,-3312,-2040,3799,6183,7789,2025-02-03 17:40:44,0.0
-12820,-716,1780,3848,-1606,-2737,2025-02-03 17:40:44,0.0
-13704,-104,1428,3775,-1225,-2968,2025-02-03 17:40:44,0.0
-14300,1000,612,3620,-1285,-2821,2025-02-03 17:40:44,0.0
-14512,1404,-228,3879,-2907,-2214,2025-02-03 17:40:44,0.0
-14080,504,-784,4529,-5310,-1427,2025-02-03 17:40:44,0.0
-14228,-852,-948,5294,-5966,-704,2025-02-03 17:40:45,0.0
-14788,-1736,-336,5743,-3677,481,2025-02-03 17:40:45,0.0
-14348,-1816,560,5771,552,1174,2025-02-03 17:40:45,0.0
-15664,-800,1468,5474,5374,1702,2025-02-03 17:40:45,0.0
-17276,1324,3112,5528,9633,2945,2025-02-03 17:40:45,0.0
-17544,1932,3788,5380,10294,3122,2025-02-03 17:40:45,0.0
-18356,2876,4580,5127,7569,3193,2025-02-03 17:40:45,0.0
-17580,3168,4240,4924,3803,2730,2025-02-03 17:40:45,0.0
-17364,2224,3212,4496,516,1305,2025-02-03 17:40:45,
-17712,416,-264,3881,-1537,264,2025-02-03 17:40:45,0.0
-20124,224,-6008,1943,-629,1424,2025-02-03 17:40:45,0.0
-22424,1636,-8404,-1130,3101,4629,2025-02-03 17:40:45,0.0
-18620,3380,-8428,-5358,4833,7252,2025-02-03 17:40:45,0.0
-11048,5616,-5696,-7838,803,5074,2025-02-03 17:40:45,0.0
-5424,6140,-3140,-7002,-5353,-921,2025-02-03 17:40:45,0.0
-6032,2592,-3636,-5316,-12344,-6657,2025-02-03 17:40:45,0.0
-8156,128,-2508,-3330,-17160,-7262,2025-02-03 17:40:45,0.0
-10004,-2296,-2280,-881,-17202,-5707,2025-02-03 17:40:45,0.0
-11756,-4056,-2424,738,-9724,-3506,2025-02-03 17:40:45,0.0
-13280,-4188,-2536,1196,3378,-1471,2025-02-03 17:40:45,0.0
-13396,-2684,-3040,875,14511,-345,2025-02-03 17:40:45,0.0
-12928,-892,-1832,969,21537,-396,2025-02-03 17:40:45,0.0
-13076,-156,-224,1019,21532,-1714,2025-02-03 17:40:45,0.0
-13376,-324,-1260,197,14394,-3786,2025-02-03 17:40:45,0.0
-13808,-696,-2896,-1078,5704,-5557,2025-02-03 17:40:45,0.0
-15340,-672,-3356,-1622,-1137,-6365,2025-02-03 17:40:45,0.0
-14900,-1028,-4680,-2634,-5253,-5154,2025-02-03 17:40:45,0.0
-13688,-772,-3244,-3504,-4203,-4203,2025-02-03 17:40:45,0.0
-12304,-656,-2336,-4156,-1749,-3935,2025-02-03 17:40:45,0.0
-11000,-924,-2616,-4929,784,-4416,2025-02-03 17:40:45,0.0
-10680,-1520,-1936,-5692,1595,-5255,2025-02-03 17:40:45,0.0
-17316,-6944,4220,-3799,2149,-1281,2025-02-03 17:40:45,0.0
-17320,-8144,3320,-3076,-1452,-1560,2025-02-03 17:40:45,0.0
-16716,-7068,2616,-2138,-4362,-608,2025-02-03 17:40:45,0.0
-15812,-4620,40,115,-3823,-364,2025-02-03 17:40:45,0.0
-15368,-4040,-3232,1829,-475,-1091,2025-02-03 17:40:45,0.0
-16396,-4408,-2552,2962,2057,-2114,2025-02-03 17:40:45,0.0
-16788,-3288,-2404,3821,1731,-2302,2025-02-03 17:40:45,0.0
-16368,-352,-2652,3979,-1905,-1831,2025-02-03 17:40:45,0.0
-14940,1852,-4192,3718,-6798,-876,2025-02-03 17:40:46,0.0
-12232,1856,-6744,2681,-9555,-359,2025-02-03 17:40:46,0.0
-9308,1652,-8300,797,-8821,-673,2025-02-03 17:40:46,0.0
-10336,2936,-6516,-904,-5200,-758,2025-02-03 17:40:46,0.0
-11328,3920,-5436,-1904,794,-42,2025-02-03 17:40:46,0.0
-12940,2892,-5032,-2527,8088,981,2025-02-03 17:40:46,0.0
-14528,1044,-4316,-3003,14045,1621,2025-02-03 17:40:46,0.0
-16020,308,-3032,-3143,16413,1650,2025-02-03 17:40:46,0.0
-17976,-128,-1584,-3203,13717,2019,2025-02-03 17:40:46,0.0
-13164,3044,-3060,-2184,1254,-1079,2025-02-03 17:40:46,0.0
-13180,2724,-1856,-3167,1296,-1419,2025-02-03 17:40:46,0.0
-13428,1476,-1464,-3581,1356,-1652,2025-02-03 17:40:46,0.0
-13452,116,-1676,-3846,1234,-1786,2025-02-03 17:40:46,0.0
-13172,-832,-1628,-3857,788,-1876,2025-02-03 17:40:46,0.0
-12452,-1048,-1636,-3509,55,-2096,2025-02-03 17:40:46,0.0
-11868,-560,-1544,-3178,-308,-2415,2025-02-03 17:40:46,0.0
-11736,152,-1684,-2953,260,-2602,2025-02-03 17:40:46,0.0
-11900,860,-1960,-3030,1646,-2676,2025-02-03 17:40:46,0.0
-12428,1452,-2076,-3226,3345,-2693,2025-02-03 17:40:48,0.0
-13256,1588,-2276,-3533,4832,-2635,2025-02-03 17:40:48,0.0
-13172,408,-2776,-5325,-428,-2262,2025-02-03 17:40:48,0.0
-12344,-2360,-2404,-6606,344,-3136,2025-02-03 17:40:48,0.0
-12356,-1040,-3528,-6886,-142,-4102,2025-02-03 17:40:48,0.0
-12680,472,-4340,-7158,-207,-4304,2025-02-03 17:40:48,0.0
-12592,1660,-4248,-7510,-156,-3873,2025-02-03 17:40:48,0.0
-12260,2184,-3168,-8103,-289,-3363,2025-02-03 17:40:48,0.0
-14140,-5300,-4392,-12353,2121,-3552,2025-02-03 17:40:48,0.0
-13332,-764,-1308,3615,2439,-194,2025-02-03 17:40:48,0.0
-13752,-792,-948,3832,2879,-184,2025-02-03 17:40:48,0.0
-14048,-984,-752,3894,2355,-193,2025-02-03 17:40:48,0.0
-13972,-804,-984,3696,1426,-343,2025-02-03 17:40:48,0.0
-13872,-600,-1616,3349,462,-492,2025-02-03 17:40:48,0.0
-13792,-404,-1552,3247,-133,-417,2025-02-03 17:40:48,0.0
-13488,-64,-1520,3255,-179,-354,2025-02-03 17:40:48,0.0
-13232,168,-1732,2977,307,-445,2025-02-03 17:40:48,0.0
-13288,128,-1712,2461,530,-680,2025-02-03 17:40:48,0.0
-13260,128,-1536,1882,555,-987,2025-02-03 17:40:48,0.0
-13376,12,-1224,1450,598,-1176,2025-02-03 17:40:48,0.0
-13712,-76,-1452,1003,418,-1328,2025-02-03 17:40:48,0.0
-13740,-112,-1776,595,161,-1368,2025-02-03 17:40:48,0.0
-13764,0,-2004,153,-238,-1446,2025-02-03 17:40:48,0.0
-13652,308,-2040,-412,-473,-1516,2025-02-03 17:40:48,0.0
-13588,64,-2064,-908,-547,-1655,2025-02-03 17:40:48,0.0
-13500,-300,-2180,-1352,-543,-1786,2025-02-03 17:40:48,0.0
-13616,-368,-1896,-1563,-491,-1833,2025-02-03 17:40:48,0.0
-13692,-736,-2180,-1762,-603,-1821,2025-02-03 17:40:48,0.0
-13520,-1016,-1852,-1815,-782,-1771,2025-02-03 17:40:48,0.0
-13480,-1224,-1684,-1882,-971,-1739,2025-02-03 17:40:48,0.0
-13188,-1460,-1548,-1873,-1285,-1806,2025-02-03 17:40:48,0.0
-12884,-1560,-1036,-1811,-1376,-1777,2025-02-03 17:40:48,0.0
-12856,-1916,-728,-1533,-939,-1725,2025-02-03 17:40:48,0.0
-12508,-2644,-744,-1174,-77,-1910,2025-02-03 17:40:48,0.0
-12432,-3436,-1160,-825,1149,-2489,2025-02-03 17:40:48,0.0
-12708,-3784,-1744,-294,2542,-3207,2025-02-03 17:40:49,0.0
-13504,-4080,-2292,249,3287,-3538,2025-02-03 17:40:49,0.0
-13812,-3856,-2364,656,3184,-3482,2025-02-03 17:40:49,0.0
-13980,-3320,-1888,750,2212,-3114,2025-02-03 17:40:49,0.0
-13900,-2072,-1392,408,908,-2614,2025-02-03 17:40:49,0.0
-13684,-940,-1016,-269,83,-2043,2025-02-03 17:40:49,0.0
-13156,156,-948,-1155,104,-1626,2025-02-03 17:40:49,0.0
-12620,84,-880,-2072,1100,-1784,2025-02-03 17:40:49,0.0
-12776,-904,-1108,-2909,2293,-2215,2025-02-03 17:40:49,0.0
-12560,-3212,768,-3413,-3777,-1290,2025-02-03 17:40:49,0.0
-12616,-2612,476,-3406,-3158,-627,2025-02-03 17:40:49,0.0
-12648,-2168,192,-3447,-2624,168,2025-02-03 17:40:49,0.0
-12640,-2240,344,-3577,-2291,1189,2025-02-03 17:40:49,0.0
-12396,-3164,644,-3566,-1735,1873,2025-02-03 17:40:49,0.0
-12096,-3616,104,-3485,-872,2087,2025-02-03 17:40:49,0.0
-12516,-3688,-284,-3532,-35,2126,2025-02-03 17:40:49,0.0
-12936,-3312,-1144,-3741,696,1904,2025-02-03 17:40:49,
-13508,-2820,-1764,-4080,1202,1231,2025-02-03 17:40:49,0.0
-13952,-2432,-1672,-4383,1591,177,2025-02-03 17:40:49,0.0
-14052,-2740,-1172,-4762,1444,-933,2025-02-03 17:40:49,0.0
-14264,-3508,-644,-5306,132,-2015,2025-02-03 17:40:49,0.0
-14324,-4416,144,-5631,-2089,-2703,2025-02-03 17:40:49,0.0
-14648,-4628,1040,-5522,-3472,-2508,2025-02-03 17:40:49,0.0
-14784,-4736,1440,-5046,-2230,-1552,2025-02-03 17:40:49,0.0
-15160,-5168,1132,-4774,1141,-331,2025-02-03 17:40:49,0.0
-15400,-5300,788,-4597,4807,514,2025-02-03 17:40:49,0.0
-15192,-4980,1240,-4182,6489,444,2025-02-03 17:40:49,0.0
-15668,-5032,2312,-3886,5145,38,2025-02-03 17:40:49,0.0
-15940,-5540,3340,-3269,2247,-168,2025-02-03 17:40:49,0.0
-15676,-5996,2976,-2630,617,-242,2025-02-03 17:40:49,0.0
-15724,-6004,1652,-2172,-148,-363,2025-02-03 17:40:49,0.0
-15508,-5160,192,-1739,-619,-148,2025-02-03 17:40:49,0.0
-15712,-3744,-2404,-1133,-479,324,2025-02-03 17:40:49,0.0
-14624,-3004,-3384,-1143,871,361,2025-02-03 17:40:49,0.0
-14072,-4168,-1000,-1373,2279,-512,2025-02-03 17:40:49,0.0
-14840,-6036,844,-337,3046,-378,2025-02-03 17:40:49,0.0
-15652,-6140,-608,1259,1608,752,2025-02-03 17:40:49,0.0
-14932,-3380,-3504,2250,-2040,2222,2025-02-03 17:40:49,0.0
-13416,-900,-6248,2554,-6336,2620,2025-02-03 17:40:49,0.0
-12316,88,-7064,2433,-8358,2101,2025-02-03 17:40:49,0.0
-11832,-264,-6536,2030,-6887,1433,2025-02-03 17:40:49,0.0
-11936,-12,-5500,1174,-3383,1323,2025-02-03 17:40:49,0.0
-12388,884,-4400,712,1184,1604,2025-02-03 17:40:49,0.0
-13524,472,-4168,536,4790,1806,2025-02-03 17:40:49,0.0
-14652,-88,-4304,354,6517,1781,2025-02-03 17:40:49,0.0
-16300,-860,-4048,508,5395,2108,2025-02-03 17:40:49,0.0
-17120,-1600,-3844,920,2113,3039,2025-02-03 17:40:49,0.0
-16132,-2036,-3004,1359,-1858,3987,2025-02-03 17:40:49,0.0
-15160,-2312,-2260,2056,-5389,4804,2025-02-03 17:40:49,0.0
-14020,-2044,-2476,2622,-7146,5430,2025-02-03 17:40:49,0.0
-13212,-1604,-2452,2938,-6661,5876,2025-02-03 17:40:49,0.0
-13880,-972,-1108,3364,-5283,6635,2025-02-03 17:40:49,0.0
-12960,-624,-1176,3743,-3676,7618,2025-02-03 17:40:49,0.0
-11856,-212,-1272,3946,-2627,8104,2025-02-03 17:40:50,0.0
-11408,-24,-1196,7349,-6889,-8489,2025-02-03 17:40:50,0.0
-12384,-732,-912,8911,-2845,-5841,2025-02-03 17:40:50,0.0
-12240,-2640,2060,10761,2370,-2528,2025-02-03 17:40:50,0.0
-12784,-4160,4244,12730,9838,-329,2025-02-03 17:40:50,0.0
-16424,-2100,3572,13756,18942,1883,2025-02-03 17:40:50,0.0
-18792,2684,3284,13433,22557,3683,2025-02-03 17:40:50,0.0
-21244,6720,2988,11901,20373,5211,2025-02-03 17:40:50,0.0
-21756,7440,1060,8405,12426,5510,2025-02-03 17:40:50,0.0
-21920,5864,-404,4571,1985,4289,2025-02-03 17:40:50,0.0
-9476,1456,-996,-6574,-6780,-963,2025-02-03 17:40:50,0.0
-9756,1168,1024,-6668,-7466,-391,2025-02-03 17:40:50,0.0
-10072,-72,1280,-6899,-6288,-88,2025-02-03 17:40:50,0.0
-11712,-1772,764,-7455,-3472,683,2025-02-03 17:40:50,0.0
-13260,-3356,640,-7898,234,1894,2025-02-03 17:40:50,0.0
-13408,-4220,128,-7317,2273,2205,2025-02-03 17:40:50,0.0
-13228,-4412,-1524,-6239,2670,1848,2025-02-03 17:40:50,0.0
-13940,-4288,-2092,-5190,1818,1459,2025-02-03 17:40:51,0.0
-11904,-924,-2188,2066,-4350,-1944,2025-02-03 17:40:51,0.0
-13716,-748,-436,2378,-1504,-2116,2025-02-03 17:40:51,0.0
-14088,144,-136,2934,905,-2015,2025-02-03 17:40:51,0.0
-14344,1492,-728,3119,1847,-1812,2025-02-03 17:40:51,0.0
-14324,2328,-912,2862,877,-1807,2025-02-03 17:40:51,0.0
-13628,1908,-836,2198,-1485,-2287,2025-02-03 17:40:51,0.0
-12432,836,-524,1656,-3811,-3433,2025-02-03 17:40:51,0.0
-11356,-680,-912,1448,-4908,-4854,2025-02-03 17:40:51,0.0
-11240,-1468,-2212,1519,-4309,-6078,2025-02-03 17:40:51,0.0
-11900,-956,-3912,1732,-2636,-5827,2025-02-03 17:40:51,0.0
-12576,1076,-4540,2437,-349,-4149,2025-02-03 17:40:51,0.0
-12920,1680,-5296,2762,2468,-1550,2025-02-03 17:40:51,0.0
-12556,468,-4972,2730,4654,10,2025-02-03 17:40:51,0.0
-12776,-1880,-4292,2608,6535,491,2025-02-03 17:40:51,0.0
-13844,-4244,-3448,2785,8108,361,2025-02-03 17:40:51,0.0
-15264,-6152,-4384,3042,8842,307,2025-02-03 17:40:51,0.0
-15808,-6192,-4620,3374,7764,374,2025-02-03 17:40:51,0.0
-14312,-204,-2580,3108,1497,-2695,2025-02-03 17:40:51,0.0
-14928,-740,-3576,2352,1414,-2453,2025-02-03 17:40:51,0.0
-14208,-1572,-3516,1787,-222,-1804,2025-02-03 17:40:51,0.0
-12820,-1932,-3652,1202,-2068,-1524,2025-02-03 17:40:51,0.0
-11388,-1900,-3188,556,-3355,-1527,2025-02-03 17:40:51,0.0
-10952,-2232,-2460,269,-2897,-1667,2025-02-03 17:40:51,0.0
-11140,-2540,-2332,473,-768,-1517,2025-02-03 17:40:51,0.0
-11864,-2728,-2644,729,2252,-962,2025-02-03 17:40:51,0.0
-12292,-2304,-2872,431,4550,-538,2025-02-03 17:40:51,0.0
-12984,-1832,-2808,-147,5530,-361,2025-02-03 17:40:51,0.0
-13968,-1300,-2312,-829,4753,-123,2025-02-03 17:40:51,0.0
-14688,-1272,-2156,-1230,2786,289,2025-02-03 17:40:51,0.0
-14288,-1640,-2428,-1736,300,575,2025-02-03 17:40:51,0.0
-13972,-2344,-2132,-2078,-1572,831,2025-02-03 17:40:51,0.0
-13424,-3032,-2244,-2099,-2344,1115,2025-02-03 17:40:52,0.0
-12664,-484,-1924,-1921,2590,981,2025-02-03 17:40:52,0.0
-13144,-1072,-1732,-1983,2824,818,2025-02-03 17:40:52,0.0
-13744,-1532,-1412,-1782,2476,726,2025-02-03 17:40:52,0.0
-14324,-1892,-1400,-1500,1896,694,2025-02-03 17:40:52,0.0
-13860,-1728,-1408,-1161,605,499,2025-02-03 17:40:52,0.0
-12924,-1736,-1760,-1145,-644,198,2025-02-03 17:40:52,0.0
-12600,-1644,-1868,-958,-1025,-4,2025-02-03 17:40:52,0.0
-12448,-1476,-1708,-619,-549,88,2025-02-03 17:40:52,0.0
-12468,-1356,-1936,-102,767,284,2025-02-03 17:40:52,0.0
-12676,-1216,-1708,252,2246,390,2025-02-03 17:40:52,0.0
-12992,-1372,-1432,404,3143,490,2025-02-03 17:40:52,0.0
-13256,-1344,-1408,463,3395,466,2025-02-03 17:40:52,0.0
-13532,-1272,-1684,467,2924,339,2025-02-03 17:40:52,0.0
-13564,-868,-2588,349,1969,226,2025-02-03 17:40:52,
-13424,-524,-2756,179,1219,186,2025-02-03 17:40:52,0.0
-10804,-852,-4016,1260,4285,1221,2025-02-03 17:40:52,0.0
-10552,-376,-4368,1547,5572,2018,2025-02-03 17:40:52,0.0
-9992,28,-3448,1685,5496,2679,2025-02-03 17:40:52,0.0
-9260,92,-1888,1568,4800,2987,2025-02-03 17:40:52,0.0
-8752,332,-660,1204,4379,2728,2025-02-03 17:40:52,0.0
-8968,520,420,985,4834,2364,2025-02-03 17:40:52,0.0
-8312,812,-756,618,5766,1883,2025-02-03 17:40:52,0.0
-8432,1084,-2172,1,6319,1221,2025-02-03 17:40:52,0.0
-10696,1172,-2948,-3698,-4065,2434,2025-02-03 17:40:52,0.0
-9612,296,-2988,-4019,-8481,2600,2025-02-03 17:40:52,0.0
-8056,-668,-3028,-4080,-11022,2515,2025-02-03 17:40:52,0.0
-6300,-1196,-1532,-4203,-11757,1898,2025-02-03 17:40:52,0.0
-6672,-556,1292,-3885,-10583,1639,2025-02-03 17:40:53,0.0
-7124,324,2712,-3220,-6205,1843,2025-02-03 17:40:53,0.0
-7752,588,2276,-2741,-890,1900,2025-02-03 17:40:53,0.0
-8168,740,1148,-2677,2197,2267,2025-02-03 17:40:53,0.0
-2316,812,-6008,-3,-8838,-1524,2025-02-03 17:40:53,0.0
-3400,476,-5668,436,-7613,-1280,2025-02-03 17:40:53,0.0
-3212,268,-7592,738,-5141,-1065,2025-02-03 17:40:53,0.0
-3908,308,-9308,770,-1770,-720,2025-02-03 17:40:53,0.0
-4676,904,-11488,643,570,-32,2025-02-03 17:40:53,0.0
-5112,1520,-12868,517,1588,865,2025-02-03 17:40:53,0.0
-5492,1792,-13836,499,1817,1640,2025-02-03 17:40:53,0.0
-5656,2052,-14236,683,1777,1825,2025-02-03 17:40:55,0.0
-13464,2084,-1924,-1232,-6285,-1188,2025-02-03 17:40:55,0.0
-12956,1864,-2452,-1483,-5835,-1532,2025-02-03 17:40:55,0.0
-13492,1612,-2500,-1580,-5333,-1805,2025-02-03 17:40:55,0.0
-13460,1388,-2944,-1676,-4944,-1803,2025-02-03 17:40:55,0.0
-13564,988,-3220,-1715,-4677,-1639,2025-02-03 17:40:55,0.0
-13524,668,-3300,-1710,-4221,-1526,2025-02-03 17:40:55,0.0
-13436,580,-2660,-1652,-4208,-1538,2025-02-03 17:40:55,0.0
-13072,524,-2888,-1609,-4750,-1453,2025-02-03 17:40:55,0.0
-14316,-908,-212,3017,-2449,-724,2025-02-03 17:40:55,0.0
-14828,-312,-364,2782,-728,389,2025-02-03 17:40:55,0.0
-14980,-104,-676,1585,-262,903,2025-02-03 17:40:55,0.0
-14900,-488,-424,94,-262,1383,2025-02-03 17:40:55,0.0
-14780,-988,1984,-1152,65,1907,2025-02-03 17:40:59,0.0
-14272,-1028,2968,-1798,2535,1818,2025-02-03 17:40:59,0.0
-15196,16,1700,-1907,5737,1783,2025-02-03 17:40:59,0.0
-15836,932,136,-2785,5832,1957,2025-02-03 17:40:59,0.0
-16080,1004,-360,-4741,3827,1539,2025-02-03 17:40:59,0.0
-16824,232,544,-6711,1020,1911,2025-02-03 17:40:59,0.0
-12544,-996,-3144,255,-1514,-1733,2025-02-03 17:40:59,0.0
-13936,-832,-3460,178,965,-847,2025-02-03 17:40:59,0.0
-14496,-888,-3444,157,3488,254,2025-02-03 17:40:59,0.0
-11440,-5232,-1228,-15505,307,-3456,2025-02-03 17:40:59,0.0
-13812,-2540,-2176,-15942,-6747,-2006,2025-02-03 17:40:59,0.0
-14860,-5768,1320,-11344,-5149,-16,2025-02-03 17:41:01,0.0
-14852,-4744,1912,-10417,-5132,1166,2025-02-03 17:41:01,0.0
-14164,-3576,264,-10792,-6279,2448,2025-02-03 17:41:01,0.0
-13972,-2760,-1052,-11645,-7416,3571,2025-02-03 17:41:01,0.0
-13444,-1940,-1728,-11805,-7200,4307,2025-02-03 17:41:01,0.0
-12652,-1432,-2868,-11541,-5106,4453,2025-02-03 17:41:01,0.0
-12984,-308,-256,-19190,2984,-4967,2025-02-03 17:41:01,0.0
-13812,956,-364,-18626,3300,-4981,2025-02-03 17:41:01,0.0
-14096,1868,-1280,-18475,3647,-4713,2025-02-03 17:41:01,0.0
-16920,-1484,1900,3006,3676,660,2025-02-03 17:41:01,0.0
-17324,-1848,1784,3442,4673,1199,2025-02-03 17:41:01,0.0
-17240,-1060,652,4217,4762,1387,2025-02-03 17:41:01,0.0
-16480,-20,-416,4500,3595,1359,2025-02-03 17:41:01,0.0
-16260,2104,2524,4431,4445,1462,2025-02-03 17:41:01,0.0
-16736,2476,2804,4113,4854,1253,2025-02-03 17:41:01,0.0
-18140,2468,1824,3676,4818,1121,2025-02-03 17:41:01,0.0
-21104,2016,244,3622,5444,1989,2025-02-03 17:41:01,0.0
-22364,1424,-4460,2860,6342,3922,2025-02-03 17:41:01,0.0
-20948,1784,-8492,-507,5015,6325,2025-02-03 17:41:01,0.0
-14988,3576,-8656,-3996,-1066,5754,2025-02-03 17:41:01,0.0
-8944,4684,-5496,-5064,-9569,1363,2025-02-03 17:41:01,0.0
-7016,2316,-4808,-5073,-16561,-3669,2025-02-03 17:41:01,0.0
-8068,576,-3892,-5418,-21610,-5874,2025-02-03 17:41:01,0.0
-9700,-624,-1108,-3910,-19815,-4965,2025-02-03 17:41:01,0.0
-10760,-2688,-112,-937,-9209,-2795,2025-02-03 17:41:02,0.0
-11152,-3740,-2248,713,4034,-1589,2025-02-03 17:41:02,0.0
-12644,-2440,-3944,948,14318,-1140,2025-02-03 17:41:02,0.0
-14068,-364,-3696,1059,20400,-1039,2025-02-03 17:41:02,0.0
-14568,1060,-3196,777,20461,-1387,2025-02-03 17:41:02,0.0
-14360,1716,-2792,-449,14714,-2525,2025-02-03 17:41:02,0.0
-13368,1580,-2924,-2529,4762,-4538,2025-02-03 17:41:02,0.0
-13484,884,-3300,-3880,-3278,-6584,2025-02-03 17:41:02,0.0
-13152,-304,-4432,-4508,-7973,-7340,2025-02-03 17:41:02,0.0
-14220,-1732,-188,-4466,1568,-3222,2025-02-03 17:41:02,0.0
-14784,-1180,388,-4101,-469,-1635,2025-02-03 17:41:02,0.0
-13428,-1016,-188,-4232,-2551,-660,2025-02-03 17:41:02,0.0
-13268,-1152,-1288,-4917,-3669,-267,2025-02-03 17:41:02,0.0
-13008,-720,-596,-5434,-4155,46,2025-02-03 17:41:02,0.0
-12696,-180,-120,-5561,-4579,554,2025-02-03 17:41:02,0.0
-12164,508,-24,-5915,-5206,1130,2025-02-03 17:41:02,0.0
-12520,884,452,-6302,-5675,1632,2025-02-03 17:41:02,0.0
-16732,-4084,1848,-7454,11059,-1912,2025-02-03 17:41:02,0.0
-18824,-4824,2728,-6731,9514,-2268,2025-02-03 17:41:02,0.0
-20216,-5480,4032,-5418,6158,-1861,2025-02-03 17:41:02,0.0
-13296,1740,-4448,1952,-5959,-1252,2025-02-03 17:41:02,0.0
-11800,1044,-7012,732,-6873,-813,2025-02-03 17:41:02,0.0
-10972,1104,-7624,-734,-5239,-525,2025-02-03 17:41:03,0.0
-11520,1812,-7736,-2153,124,-353,2025-02-03 17:41:03,0.0
-14112,-2212,-3168,-8372,1180,1978,2025-02-03 17:41:03,0.0
-12272,60,-2344,-4553,-16,2254,2025-02-03 17:41:03,0.0
-12584,668,-1240,-4253,404,1951,2025-02-03 17:41:03,0.0
-11912,1356,-1848,-4056,671,1617,2025-02-03 17:41:03,
-12156,256,-1252,-2752,-869,555,2025-02-03 17:41:03,0.0
-11868,-80,-1208,-2607,-1358,-98,2025-02-03 17:41:04,0.0
-13268,1144,-3856,-7111,4548,-1380,2025-02-03 17:41:04,0.0
-13524,-24,-3192,-8211,3406,-1305,2025-02-03 17:41:04,0.0
-13400,-1188,-2920,-9194,1557,-1694,2025-02-03 17:41:04,0.0
-13480,-2320,-2936,-9910,23,-2256,2025-02-03 17:41:04,0.0
-13516,-3220,-3424,-10284,-871,-2765,2025-02-03 17:41:04,0.0
-13628,-3684,-4024,-10567,-801,-3118,2025-02-03 17:41:04,0.0
-13428,-2976,-4424,-10901,-239,-3534,2025-02-03 17:41:04,0.0
-13352,-2240,-4652,-11610,357,-4124,2025-02-03 17:41:04,0.0
-12312,204,-4588,-12305,4178,-99,2025-02-03 17:41:04,0.0
-13172,808,-4900,-12961,4590,-914,2025-02-03 17:41:04,0.0
-14316,2000,-3452,-13834,4501,-1011,2025-02-03 17:41:04,0.0
-15556,3488,-1748,-14750,3491,-180,2025-02-03 17:41:04,0.0
-16060,4612,-1988,-16167,2130,765,2025-02-03 17:41:04,0.0
-15756,5400,-2460,-17863,415,1323,2025-02-03 17:41:04,0.0
-14836,5024,-3836,-19226,-1333,1285,2025-02-03 17:41:04,0.0
-12612,3408,-3908,-20263,-2749,164,2025-02-03 17:41:06,0.0
-11816,800,-4036,-21130,-3377,-1079,2025-02-03 17:41:06,0.0
-11972,-1224,-1768,-21697,-2355,-2023,2025-02-03 17:41:06,0.0
-12312,-2228,1288,-21265,361,-2732,2025-02-03 17:41:06,0.0
-12716,-2024,2904,-19703,3130,-2641,2025-02-03 17:41:06,0.0
-12628,-1448,2068,-18509,4669,-2475,2025-02-03 17:41:06,0.0
-12768,-1020,756,-17874,4838,-2594,2025-02-03 17:41:06,0.0
-13296,-668,-104,-17137,4667,-2763,2025-02-03 17:41:07,0.0
-13576,-400,-676,-16510,4456,-3038,2025-02-03 17:41:07,0.0
-17588,-408,-1124,5832,5311,-4803,2025-02-03 17:41:07,0.0
-19880,-808,-2272,5973,3788,-2629,2025-02-03 17:41:08,0.0
-16728,-2492,1264,6770,-2728,2935,2025-02-03 17:41:08,0.0
-15216,-2496,1548,7491,-1625,2907,2025-02-03 17:41:08,0.0
-15340,-1588,1232,8043,1377,2842,2025-02-03 17:41:08,0.0
-15984,524,944,8415,4924,3130,2025-02-03 17:41:08,0.0
-17440,2744,764,8105,7769,3604,2025-02-03 17:41:08,0.0
-12164,-64,996,2219,-1511,-1441,2025-02-03 17:41:08,0.0
-11624,-172,920,2957,-1887,-1987,2025-02-03 17:41:08,0.0
-11484,8,400,3646,-1634,-2666,2025-02-03 17:41:09,0.0
-12756,-1084,-1016,-822,3455,591,2025-02-03 17:41:09,0.0
-13220,-1224,-1204,-783,4578,714,2025-02-03 17:41:09,0.0
-13832,-1272,-1648,-704,4866,886,2025-02-03 17:41:17,0.0
-14424,-1108,-2296,-767,4662,1145,2025-02-03 17:41:17,0.0
-14692,-872,-2504,-847,3774,1363,2025-02-03 17:41:17,0.0
-14224,-688,-2260,-887,2382,1316,2025-02-03 17:41:17,0.0
-13888,-1100,-2132,-1018,1030,1126,2025-02-03 17:41:17,0.0
-13812,-1372,-2056,-1002,367,1000,2025-02-03 17:41:17,0.0
-7396,1740,1344,-2199,-6165,1261,2025-02-03 17:41:17,0.0
-7448,1396,540,-1679,-6616,420,2025-02-03 17:41:17,0.0
-8248,656,556,-1058,-4468,-730,2025-02-03 17:41:17,0.0
-13080,-2464,-1544,-4512,4213,1836,2025-02-03 17:41:17,0.0
-13216,-2312,-2028,-4894,4805,1491,2025-02-03 17:41:17,0.0
-13488,-2608,-2540,-5330,4533,590,2025-02-03 17:41:17,0.0
-14136,-3472,-2668,-5537,3859,-688,2025-02-03 17:41:17,0.0
-15572,-5072,-2272,-5383,2565,-1861,2025-02-03 17:41:17,0.0
-17176,-5616,-732,-4841,1318,-2074,2025-02-03 17:41:17,0.0
-18376,-5380,480,-4448,863,-1620,2025-02-03 17:41:17,0.0
-18900,-5244,1932,-4217,1043,-1300,2025-02-03 17:41:17,0.0
-19344,-5080,2828,-3875,676,-1013,2025-02-03 17:41:17,0.0
-19400,-5656,2884,-3399,-1064,-542,2025-02-03 17:41:17,0.0
-18076,-6712,3316,-2630,-3571,-210,2025-02-03 17:41:18,0.0
-17472,-7340,4368,-1752,-5136,-147,2025-02-03 17:41:18,0.0
-16240,-7256,5300,-848,-5379,-124,2025-02-03 17:41:18,0.0
-14976,-6288,4788,711,-4818,-98,2025-02-03 17:41:18,0.0
-13884,-4840,1588,2591,-4063,-21,2025-02-03 17:41:18,0.0
-12956,-3956,-1988,3512,-3064,-20,2025-02-03 17:41:18,0.0
-12156,-3872,-4424,3493,-1674,-631,2025-02-03 17:41:18,0.0
-12516,-3692,-4832,3628,514,-1661,2025-02-03 17:41:18,0.0
-13104,-3644,-4616,4218,2071,-2343,2025-02-03 17:41:18,0.0
-14212,-2820,-4468,4544,852,-1801,2025-02-03 17:41:18,0.0
-14636,-688,-5044,4026,-2338,6,2025-02-03 17:41:18,0.0
-11176,-316,-6508,1595,-5295,2883,2025-02-03 17:41:18,0.0
-11624,376,-4076,208,-1848,1927,2025-02-03 17:41:18,0.0
-15164,124,-1588,1288,4409,1300,2025-02-03 17:41:18,0.0
-15832,-924,-1936,2055,3577,1978,2025-02-03 17:41:18,0.0
-15312,-1948,-2632,2447,160,3008,2025-02-03 17:41:18,0.0
-13348,-2492,-2228,2310,-3391,3557,2025-02-03 17:41:18,0.0
-11780,-2684,-1520,2286,-5326,3446,2025-02-03 17:41:18,0.0
-11412,-2172,-700,2687,-5361,3375,2025-02-03 17:41:18,0.0
-11448,-1608,-340,3328,-3133,3438,2025-02-03 17:41:18,0.0
-12020,-828,84,3789,-124,3725,2025-02-03 17:41:18,0.0
-12724,-232,-120,3934,2713,4026,2025-02-03 17:41:18,0.0
-13308,344,756,4159,3552,4518,2025-02-03 17:41:18,0.0
-13400,748,376,4441,2850,5142,2025-02-03 17:41:18,0.0
-12696,656,-232,4477,888,5348,2025-02-03 17:41:18,0.0
-11144,96,0,4220,-1800,4562,2025-02-03 17:41:18,0.0
-10720,-856,700,3887,-4446,2962,2025-02-03 17:41:18,0.0
-9920,-1676,1164,3842,-5974,1488,2025-02-03 17:41:18,0.0
-9360,-1916,1444,4051,-6602,566,2025-02-03 17:41:18,0.0
-8984,-1720,2008,4461,-5883,-146,2025-02-03 17:41:18,0.0
-9120,-1356,3024,4975,-3733,-845,2025-02-03 17:41:18,0.0
-9936,-772,2648,5242,-820,-1424,2025-02-03 17:41:18,0.0
-9412,-744,972,5270,657,-2158,2025-02-03 17:41:18,0.0
-10928,-244,960,5354,1330,-2877,2025-02-03 17:41:19,0.0
-15960,-44,968,5634,79,-1729,2025-02-03 17:41:19,0.0
-16516,-1480,884,5958,293,-464,2025-02-03 17:41:19,0.0
-16316,-2600,-152,6510,559,475,2025-02-03 17:41:19,0.0
-16000,-2672,112,7127,221,1352,2025-02-03 17:41:19,0.0
-17932,728,-2052,3119,1859,3083,2025-02-03 17:41:19,0.0
-18568,232,-3332,2001,1981,2626,2025-02-03 17:41:19,0.0
-14292,-156,-2492,324,21651,-1377,2025-02-03 17:41:19,0.0
-15856,-884,-1340,-1413,17115,-1921,2025-02-03 17:41:19,0.0
-13180,-1300,380,-6278,-9974,3147,2025-02-03 17:41:19,
-13220,-2612,108,-6945,-10136,3215,2025-02-03 17:41:19,0.0
-12532,-3496,-56,-6723,-9297,3044,2025-02-03 17:41:19,0.0
-11612,-3852,-580,-5586,-7520,2765,2025-02-03 17:41:19,0.0
-10268,-4116,-1488,-4481,-5694,2199,2025-02-03 17:41:19,0.0
-9180,-3828,-1620,-3537,-2930,1020,2025-02-03 17:41:19,0.0
-9808,-2912,-408,-3302,2455,-814,2025-02-03 17:41:19,0.0
-13016,-2128,1192,-4016,9639,-1522,2025-02-03 17:41:19,0.0
-20120,-6388,2292,-4053,5300,-2387,2025-02-03 17:41:19,0.0
-14436,-1996,-936,1712,-2523,-2700,2025-02-03 17:41:19,0.0
-15376,-72,-816,1611,-2901,-2039,2025-02-03 17:41:19,0.0
-15640,1860,-1440,1174,-4321,-335,2025-02-03 17:41:19,0.0
-14076,2384,-3820,198,-5296,1166,2025-02-03 17:41:19,0.0
-11488,1432,-6188,-1028,-5688,1610,2025-02-03 17:41:19,0.0
-8960,296,-7076,-2498,-5748,812,2025-02-03 17:41:19,0.0
-8768,208,-6020,-3643,-4336,-283,2025-02-03 17:41:19,0.0
-10300,832,-4120,-4077,794,-757,2025-02-03 17:41:19,0.0
-12200,1536,-2172,-3563,8017,-371,2025-02-03 17:41:19,0.0
-14252,1640,-1924,-2800,13065,139,2025-02-03 17:41:19,0.0
-16152,2016,-2292,-2850,13596,824,2025-02-03 17:41:19,0.0
-17300,1936,-2708,-3445,8276,1960,2025-02-03 17:41:19,0.0
-17596,968,-3300,-3808,440,3524,2025-02-03 17:41:19,0.0
-15620,-56,-3088,-3633,-6744,5010,2025-02-03 17:41:19,0.0
-13016,-960,-2880,-3581,-10411,5280,2025-02-03 17:41:19,0.0
-11692,-1092,-1780,-3692,-10414,4622,2025-02-03 17:41:19,0.0
-10296,-692,32,-3265,-7765,3598,2025-02-03 17:41:19,0.0
-10024,296,920,-2027,-2988,2485,2025-02-03 17:41:19,0.0
-10776,924,-420,-1051,1494,1855,2025-02-03 17:41:19,0.0
-11584,528,-1712,-477,4913,1373,2025-02-03 17:41:19,0.0
-12528,264,-1872,-318,6941,1008,2025-02-03 17:41:19,0.0
-13432,292,-1568,-455,7432,649,2025-02-03 17:41:19,0.0
-14228,624,-852,-690,5836,439,2025-02-03 17:41:19,0.0
-14744,932,-336,-758,2740,306,2025-02-03 17:41:19,0.0
-14504,516,-840,-1005,-774,192,2025-02-03 17:41:20,0.0
-13620,100,-1196,-1388,-2754,37,2025-02-03 17:41:20,0.0
-13332,40,-1032,-1415,-2786,-9,2025-02-03 17:41:20,0.0
-13384,-20,-852,-1130,-1607,44,2025-02-03 17:41:20,0.0
-13080,-8,-1320,-855,-248,265,2025-02-03 17:41:20,0.0
-12804,304,-2116,-821,549,244,2025-02-03 17:41:20,0.0
-12524,1284,-2224,-1014,1179,-3,2025-02-03 17:41:20,0.0
-12296,1536,-1692,-1527,1035,-531,2025-02-03 17:41:20,0.0
-12472,1884,-1320,-1929,1104,-1092,2025-02-03 17:41:20,0.0
-12276,2184,-996,-2281,1102,-1645,2025-02-03 17:41:20,0.0
-12020,2216,-1056,-2561,905,-2240,2025-02-03 17:41:20,0.0
-11896,1908,-664,-2890,1102,-2891,2025-02-03 17:41:20,0.0
-12232,1276,24,-3024,1737,-3464,2025-02-03 17:41:20,0.0
-13272,372,1336,-3006,2378,-3775,2025-02-03 17:41:20,0.0
-13672,-392,1268,-2982,2083,-3954,2025-02-03 17:41:20,0.0
-13764,-1144,-196,-3195,1036,-4142,2025-02-03 17:41:20,0.0
-13280,-848,-1296,-3340,-969,-4222,2025-02-03 17:41:20,0.0
-13684,128,-1284,-2933,-1771,-3758,2025-02-03 17:41:20,0.0
-13332,968,-1996,-2775,-159,-3030,2025-02-03 17:41:20,0.0
-13520,1212,-2748,-3135,2931,-2552,2025-02-03 17:41:20,0.0
-13892,1304,-3084,-3588,5998,-2277,2025-02-03 17:41:20,0.0
-15028,1656,-3224,-4099,8035,-2125,2025-02-03 17:41:20,0.0
-16048,1432,-2724,-4711,8930,-2022,2025-02-03 17:41:20,0.0
-16692,900,-2500,-5551,8010,-2158,2025-02-03 17:41:20,0.0
-17256,500,-2428,-6479,5162,-2261,2025-02-03 17:41:20,0.0
-16972,864,-2672,-7173,1128,-2251,2025-02-03 17:41:20,0.0
-13060,-292,-1716,-7939,-5636,-2743,2025-02-03 17:41:20,0.0
-12708,-700,-2940,-7739,-3540,-2868,2025-02-03 17:41:20,0.0
-12416,-712,-3644,-7402,-1888,-2361,2025-02-03 17:41:20,0.0
-11204,-728,-4316,-7095,-1219,-1823,2025-02-03 17:41:20,0.0
-10040,-884,-3624,-7094,-1044,-1461,2025-02-03 17:41:20,0.0
-10072,-772,-3020,-7634,-79,-1378,2025-02-03 17:41:20,0.0
-11156,-488,-2500,-8419,2564,-1082,2025-02-03 17:41:20,0.0
-12000,-536,-3036,-9352,4887,-928,2025-02-03 17:41:20,0.0
-13056,-552,-3988,-10322,6253,-1125,2025-02-03 17:41:20,0.0
-14336,-564,-4532,-11254,6404,-1410,2025-02-03 17:41:20,0.0
-15004,-564,-5168,-12218,5270,-1658,2025-02-03 17:41:20,0.0
-15112,-876,-5296,-13357,2991,-2073,2025-02-03 17:41:20,0.0
-15092,-1320,-4668,-14508,-78,-2642,2025-02-03 17:41:20,0.0
-14268,-1572,-5004,-15682,-2846,-3196,2025-02-03 17:41:20,0.0
-12516,-496,-5320,-18773,-5641,-4533,2025-02-03 17:41:20,0.0
-11476,-724,-5512,-19645,-5108,-4349,2025-02-03 17:41:20,0.0
-11324,-1540,-4988,-20618,-3576,-4180,2025-02-03 17:41:20,0.0
-11340,-2896,-3956,-21304,-1330,-4349,2025-02-03 17:41:20,0.0
-11948,-4196,-3772,-21494,762,-4658,2025-02-03 17:41:20,0.0
-13208,-5084,-3432,-21523,1847,-4852,2025-02-03 17:41:20,0.0
-13828,-5224,-3416,-21606,1476,-4872,2025-02-03 17:41:20,0.0
-14244,-4396,-2828,-21510,-68,-4685,2025-02-03 17:41:20,0.0
-13976,-3152,-2620,-21214,-1863,-4215,2025-02-03 17:41:20,0.0
-12956,-2508,-2428,-21029,-2578,-3838,2025-02-03 17:41:20,0.0
-12492,-2888,-2440,-21092,-2390,-3882,2025-02-03 17:41:20,0.0
-12664,-3876,-1812,-21121,-1361,-4223,2025-02-03 17:41:20,0.0
-13804,-4024,-1392,-21164,-776,-4497,2025-02-03 17:41:20,0.0
-14192,-3048,-1588,-21253,-1080,-4318,2025-02-03 17:41:20,0.0
-15028,-1812,-1852,-21540,-2717,-3511,2025-02-03 17:41:20,0.0
-14028,-1144,-1496,-22211,-4380,-2573,2025-02-03 17:41:20,0.0
-13088,-1516,-904,-22613,-5358,-2159,2025-02-03 17:41:20,0.0
-12840,-2748,-708,-23072,-5510,-1982,2025-02-03 17:41:20,0.0
-13072,-4072,-808,-23136,-5232,-1918,2025-02-03 17:41:20,0.0
-13628,-5196,-564,-22707,-4829,-1621,2025-02-03 17:41:20,0.0
-13960,-5540,-892,-22004,-4230,-974,2025-02-03 17:41:20,0.0
-14264,-4896,-636,-21016,-3396,-107,2025-02-03 17:41:21,0.0
-13236,-4608,-1364,-18893,-2323,330,2025-02-03 17:41:21,0.0
-13292,-5544,-1412,-17488,-1825,-377,2025-02-03 17:41:21,0.0
-13892,-5648,-1504,-16462,-1429,-787,2025-02-03 17:41:21,0.0
-14272,-4596,-1672,-15740,-1180,-456,2025-02-03 17:41:21,0.0
-13972,-3688,-2476,-15166,-789,336,2025-02-03 17:41:21,0.0
-13332,-2904,-3012,-14754,-289,1294,2025-02-03 17:41:21,
-12096,-1972,-4064,-14365,1303,1864,2025-02-03 17:41:21,0.0
-11728,20,-5352,-14645,3377,1529,2025-02-03 17:41:21,0.0
-11404,3088,-3988,-15010,6027,395,2025-02-03 17:41:21,0.0
-12204,6524,-1480,-14538,7976,-1128,2025-02-03 17:41:21,0.0
-13868,8504,320,-14541,7219,-1422,2025-02-03 17:41:21,0.0
-15096,7608,-1968,-16703,4340,-894,2025-02-03 17:41:21,0.0
-13756,3820,-5700,-20406,874,-1515,2025-02-03 17:41:21,0.0
-14684,-108,-4224,-22929,-1066,-2016,2025-02-03 17:41:21,0.0
-15288,-1872,-1216,-23893,-1896,-1883,2025-02-03 17:41:21,0.0
-15264,-1820,12,-23167,-1867,-1886,2025-02-03 17:41:21,0.0
-14556,-724,244,-21962,-1196,-1792,2025-02-03 17:41:21,0.0
-13736,-132,748,-20835,-1992,-1734,2025-02-03 17:41:21,0.0
-13112,-576,844,-20191,-3628,-1427,2025-02-03 17:41:21,0.0
-11852,-1276,-36,-19822,-4737,-1175,2025-02-03 17:41:21,0.0
-11772,-1460,-776,-19330,-3228,-1294,2025-02-03 17:41:21,0.0
-12384,-1508,1284,-18165,-194,-1824,2025-02-03 17:41:21,0.0
-11672,-1148,252,-17293,3444,-2203,2025-02-03 17:41:21,0.0
-12992,-656,1224,-16661,5163,-2578,2025-02-03 17:41:21,0.0
-13804,-448,1164,-16415,5363,-2917,2025-02-03 17:41:21,0.0
-13976,-152,472,-16180,4636,-3176,2025-02-03 17:41:21,0.0
-14448,332,480,-15800,3690,-3416,2025-02-03 17:41:21,0.0
-14296,1240,168,-15372,2933,-3452,2025-02-03 17:41:21,0.0
-14492,1948,-512,-14997,2444,-3360,2025-02-03 17:41:21,0.0
-15000,2052,-164,-14826,2343,-3196,2025-02-03 17:41:21,0.0
-14116,1132,-1024,-15212,1587,-3100,2025-02-03 17:41:21,0.0
-13824,524,-644,-15033,716,-2971,2025-02-03 17:41:21,0.0
-13664,272,-364,-14510,145,-2596,2025-02-03 17:41:21,0.0
-13288,428,-532,-13891,-91,-2261,2025-02-03 17:41:21,0.0
-12772,588,-920,-13179,280,-2114,2025-02-03 17:41:21,0.0
-12872,580,-752,-12675,1166,-2058,2025-02-03 17:41:21,0.0
-12960,612,-512,-12003,2257,-1987,2025-02-03 17:41:21,0.0
-13120,340,-428,-11374,2856,-2009,2025-02-03 17:41:21,0.0
-13584,12,-356,-10777,2852,-2096,2025-02-03 17:41:21,0.0
-14116,-96,-580,-10246,1920,-2180,2025-02-03 17:41:21,0.0
-14176,120,-428,-9627,467,-2016,2025-02-03 17:41:21,0.0
-14036,24,-348,-8785,-881,-1763,2025-02-03 17:41:21,0.0
-13688,-212,-340,-7982,-1561,-1662,2025-02-03 17:41:21,0.0
-13080,-720,-348,-7303,-1729,-1863,2025-02-03 17:41:21,0.0
-13096,-1012,-284,-6682,-1558,-2004,2025-02-03 17:41:21,0.0
-13096,-1376,80,-5895,-1040,-2072,2025-02-03 17:41:21,0.0
-13728,-1428,676,-4926,-347,-1885,2025-02-03 17:41:21,0.0
-13856,-1400,792,-3908,391,-1656,2025-02-03 17:41:21,0.0
-13768,-1176,744,-3184,707,-1573,2025-02-03 17:41:21,0.0
-13876,-852,464,-2681,590,-1655,2025-02-03 17:41:21,0.0
-14196,-740,1088,-2319,34,-1750,2025-02-03 17:41:21,0.0
-14372,-940,996,-904,-659,-1508,2025-02-03 17:41:21,0.0
-13956,-424,572,-51,-654,-1251,2025-02-03 17:41:21,0.0
-13800,60,460,317,-220,-989,2025-02-03 17:41:21,0.0
-13596,260,820,597,491,-810,2025-02-03 17:41:21,0.0
-13628,232,528,883,804,-795,2025-02-03 17:41:21,0.0
-13996,400,88,1093,415,-761,2025-02-03 17:41:21,0.0
-14072,280,-284,1151,-13,-597,2025-02-03 17:41:21,0.0
-13576,180,-656,1046,66,-533,2025-02-03 17:41:21,0.0
-13008,192,-568,1013,347,-528,2025-02-03 17:41:21,0.0
-12696,492,-936,921,544,-560,2025-02-03 17:41:21,0.0
-12388,760,-1028,682,946,-493,2025-02-03 17:41:21,0.0
-12140,764,-832,571,1513,-678,2025-02-03 17:41:22,0.0
-12348,520,-256,717,2092,-1352,2025-02-03 17:41:22,0.0
-13476,-436,-252,1038,2947,-1910,2025-02-03 17:41:22,0.0
-15340,-1716,-464,1486,4231,-1918,2025-02-03 17:41:22,0.0
-16360,-2564,-988,2011,5125,-1421,2025-02-03 17:41:22,0.0
-16616,-2952,-1640,2419,4366,-522,2025-02-03 17:41:22,0.0
-14820,-1328,-1848,2885,238,22,2025-02-03 17:41:22,0.0
-13224,84,-1704,2739,-2929,-431,2025-02-03 17:41:22,0.0
-12748,972,-1316,2409,-3570,-744,2025-02-03 17:41:22,0.0
-12452,1000,-1260,2180,-2385,-878,2025-02-03 17:41:22,0.0
-12616,604,-1612,2036,-646,-956,2025-02-03 17:41:22,0.0
-12744,0,-1664,1982,1100,-1124,2025-02-03 17:41:22,0.0
-12976,-752,-1436,1928,1603,-1471,2025-02-03 17:41:22,0.0
-13304,-1104,-1112,1787,1254,-1838,2025-02-03 17:41:22,0.0
-13784,-956,-1184,1743,712,-1940,2025-02-03 17:41:22,0.0
-14396,-624,-1524,1730,518,-1624,2025-02-03 17:41:22,0.0
-14580,-184,-1872,1776,918,-1005,2025-02-03 17:41:22,0.0
-14172,188,-2192,1429,1455,-568,2025-02-03 17:41:22,0.0
-13944,36,-1896,1026,1326,-561,2025-02-03 17:41:22,0.0
-14064,-632,-1208,811,440,-669,2025-02-03 17:41:22,0.0
-13556,-1064,-728,678,-566,-719,2025-02-03 17:41:22,0.0
-13176,-1096,-652,714,-994,-868,2025-02-03 17:41:22,0.0
-13088,-1308,-1060,886,-917,-971,2025-02-03 17:41:22,0.0
-13364,-1176,-1172,1080,-353,-881,2025-02-03 17:41:22,0.0
-13340,-1116,-972,1162,281,-844,2025-02-03 17:41:22,0.0
-13372,-960,-1052,1049,420,-814,2025-02-03 17:41:22,0.0
-13616,-772,-888,855,217,-816,2025-02-03 17:41:22,0.0
-13624,-528,-1336,529,-82,-781,2025-02-03 17:41:22,0.0
-13596,-636,-1440,115,-143,-695,2025-02-03 17:41:22,0.0
-13452,-844,-1324,-186,210,-696,2025-02-03 17:41:22,0.0
-13512,-964,-1420,-329,749,-680,2025-02-03 17:41:22,0.0
-13540,-1044,-1112,-358,990,-660,2025-02-03 17:41:22,0.0
-13708,-1148,-1192,-347,844,-602,2025-02-03 17:41:22,0.0
-13924,-1016,-1100,-358,496,-584,2025-02-03 17:41:22,0.0
-13952,-1004,-1044,-470,87,-572,2025-02-03 17:41:22,0.0
-13760,-1116,-984,-529,-419,-631,2025-02-03 17:41:22,0.0
-13784,-1424,-580,-504,-841,-722,2025-02-03 17:41:22,0.0
-13628,-1604,-548,-306,-1086,-741,2025-02-03 17:41:22,0.0
-13612,-1676,-908,-31,-1210,-615,2025-02-03 17:41:22,0.0
-13504,-1592,-1312,417,-1164,-497,2025-02-03 17:41:22,0.0
-13288,-984,-1412,623,-1290,-138,2025-02-03 17:41:22,0.0
-12780,-700,-1504,526,-1081,-176,2025-02-03 17:41:22,0.0
-12756,-616,-1940,471,-270,-441,2025-02-03 17:41:22,0.0
-13252,-800,-2292,333,1750,-1181,2025-02-03 17:41:22,
-13652,-1504,-2280,176,2971,-2040,2025-02-03 17:41:22,0.0
-14392,-1712,-1552,-27,2649,-2625,2025-02-03 17:41:22,0.0
-14928,-1492,-492,-124,1270,-2478,2025-02-03 17:41:22,0.0
-14856,-1400,16,-479,-981,-1949,2025-02-03 17:41:22,0.0
-13956,-1384,292,-1196,-3185,-1629,2025-02-03 17:41:22,0.0
-13444,-1088,440,-2073,-3953,-1754,2025-02-03 17:41:22,0.0
-13208,-992,876,-2811,-3107,-2107,2025-02-03 17:41:22,0.0
-13144,-884,596,-3739,-1747,-2483,2025-02-03 17:41:22,0.0
-13108,-868,716,-4534,-585,-2516,2025-02-03 17:41:22,0.0
-12968,-1072,844,-4933,293,-2555,2025-02-03 17:41:22,0.0
-12980,-1808,964,-5138,1250,-2819,2025-02-03 17:41:22,0.0
-13136,-2764,868,-5126,1752,-3126,2025-02-03 17:41:22,0.0
-13576,-3360,1004,-4708,1432,-3316,2025-02-03 17:41:22,0.0
-14112,-3284,1264,-4173,562,-2946,2025-02-03 17:41:22,0.0
-14056,-2724,1092,-3910,-194,-2350,2025-02-03 17:41:22,0.0
-13608,-2180,888,-3930,-607,-1957,2025-02-03 17:41:22,0.0
-13036,-2000,948,-4029,-1037,-1812,2025-02-03 17:41:22,0.0
-13072,-2116,1336,-4170,-1679,-1491,2025-02-03 17:41:23,0.0
-13100,-2400,1472,-4211,-2117,-1064,2025-02-03 17:41:23,0.0
-13008,-2336,2052,-4164,-2231,-572,2025-02-03 17:41:23,0.0
-12592,-2380,1392,-4172,-2126,-156,2025-02-03 17:41:23,0.0
-12532,-2236,1628,-4212,-1967,246,2025-02-03 17:41:23,0.0
-12584,-2196,1528,-4163,-1864,735,2025-02-03 17:41:23,0.0
-12148,-2908,1496,-3869,-1698,1105,2025-02-03 17:41:23,0.0
-12560,-3564,1628,-3481,-1310,1299,2025-02-03 17:41:23,0.0
-12808,-3812,1252,-3238,-637,1400,2025-02-03 17:41:23,0.0
-13164,-3484,592,-3056,150,1242,2025-02-03 17:41:23,0.0
-12708,-2744,568,-2866,544,850,2025-02-03 17:41:23,0.0
-12200,-1692,92,-2783,230,59,2025-02-03 17:41:23,0.0
-12172,-1692,224,-3257,-277,-684,2025-02-03 17:41:23,0.0
-12852,-2520,520,-3818,-426,-1062,2025-02-03 17:41:23,0.0
-13600,-3228,896,-4025,303,-644,2025-02-03 17:41:23,0.0
-18748,-6356,1040,-3544,5772,-221,2025-02-03 17:41:23,0.0
-18960,-6016,2124,-3328,4777,-217,2025-02-03 17:41:23,0.0
-18848,-5096,3136,-3078,1808,151,2025-02-03 17:41:23,0.0
-18016,-4364,2596,-2077,-1609,722,2025-02-03 17:41:23,0.0
-16812,-3776,468,-656,-3311,757,2025-02-03 17:41:23,0.0
-15080,-5056,-300,236,-3341,-32,2025-02-03 17:41:23,0.0
-14356,-5076,-276,1083,-3454,-736,2025-02-03 17:41:23,0.0
-14608,-4292,-1396,2159,-3711,-365,2025-02-03 17:41:23,0.0
-14280,-2764,-3216,2710,-4087,643,2025-02-03 17:41:23,0.0
-13468,-1488,-4464,2711,-4544,1603,2025-02-03 17:41:23,0.0
-11560,-76,-5152,2334,-5858,2454,2025-02-03 17:41:23,0.0
-10208,672,-6368,1692,-7001,3125,2025-02-03 17:41:23,0.0
-8964,652,-6916,890,-6419,3161,2025-02-03 17:41:23,0.0
-9060,780,-6376,492,-2436,2300,2025-02-03 17:41:23,0.0
-10180,1048,-5268,698,4767,972,2025-02-03 17:41:23,0.0
-18148,-2040,-2380,3590,1259,4702,2025-02-03 17:41:23,0.0
-15300,-2228,-2692,3684,-6117,6212,2025-02-03 17:41:23,0.0
-13172,-1752,-1636,3733,-11344,6194,2025-02-03 17:41:23,0.0
-11144,-1100,-1964,3608,-13088,5510,2025-02-03 17:41:23,0.0
-10408,172,-844,3639,-10187,4496,2025-02-03 17:41:23,0.0
-10260,1372,-44,3832,-4880,3889,2025-02-03 17:41:23,0.0
-10516,1960,0,4124,-416,3891,2025-02-03 17:41:23,0.0
-10516,1724,-340,4389,1872,4136,2025-02-03 17:41:23,0.0
-11724,1000,-1000,4556,3044,4247,2025-02-03 17:41:23,0.0
-11540,440,-860,4174,2347,4160,2025-02-03 17:41:23,0.0
-11220,192,-428,3707,-191,3045,2025-02-03 17:41:23,0.0
-11140,300,-260,3165,-2419,1629,2025-02-03 17:41:23,0.0
-11052,292,636,2952,-4190,399,2025-02-03 17:41:23,0.0
-10600,268,812,3068,-4967,-509,2025-02-03 17:41:23,0.0
-9960,192,568,3066,-5261,-1262,2025-02-03 17:41:23,0.0
-8820,-288,-500,2706,-5722,-2334,2025-02-03 17:41:23,0.0
-8608,128,-1092,2597,-5187,-3205,2025-02-03 17:41:24,0.0
-9128,264,-392,3171,-3110,-3761,2025-02-03 17:41:24,0.0
-9824,-324,528,4052,499,-4081,2025-02-03 17:41:24,0.0
-11412,-840,1416,4909,4426,-4224,2025-02-03 17:41:24,0.0
-14264,-1304,2360,6142,7665,-3871,2025-02-03 17:41:24,0.0
-16932,-2264,2372,7287,8936,-2746,2025-02-03 17:41:24,0.0
-18764,-2780,1012,7811,7529,-1058,2025-02-03 17:41:24,0.0
-16248,1816,-192,6489,191,2132,2025-02-03 17:41:24,0.0
-16172,2000,1340,5950,2314,2503,2025-02-03 17:41:24,0.0
-15904,2460,1952,5357,3265,2707,2025-02-03 17:41:24,0.0
-15620,3772,2216,4197,2769,2541,2025-02-03 17:41:24,0.0
-15716,4872,1108,3053,1390,2379,2025-02-03 17:41:24,0.0
-17500,5236,-2660,2096,1417,3155,2025-02-03 17:41:24,0.0
-19528,4432,-6180,540,2897,5240,2025-02-03 17:41:24,0.0
-19368,4064,-6860,-2109,3532,7336,2025-02-03 17:41:24,0.0
-16120,3408,-5048,-4951,2018,7295,2025-02-03 17:41:24,0.0
-11644,2000,-2380,-6340,-2631,4106,2025-02-03 17:41:24,0.0
-9784,-928,-3172,-6391,-9284,-495,2025-02-03 17:41:24,0.0
-10420,-2812,-4704,-6096,-14674,-2015,2025-02-03 17:41:24,0.0
-11284,-2832,-5416,-4320,-16445,-1445,2025-02-03 17:41:24,0.0
-12488,-4352,-5568,-2012,-13223,-356,2025-02-03 17:41:24,0.0
-12344,-6464,-7044,-913,-5319,335,2025-02-03 17:41:24,0.0
-12376,-6248,-4112,-840,4641,-10,2025-02-03 17:41:24,0.0
-13184,-2100,-2124,210,11713,-453,2025-02-03 17:41:24,0.0
-13452,1028,-1616,1181,14249,-193,2025-02-03 17:41:24,0.0
-12400,2752,-1732,975,12670,-824,2025-02-03 17:41:24,0.0
-12040,3136,-1968,-265,8336,-2559,2025-02-03 17:41:25,0.0
-9136,4,-516,1879,-9776,2789,2025-02-03 17:41:25,0.0
-8176,768,-304,2956,-2197,2473,2025-02-03 17:41:25,0.0
-9124,1704,-628,3480,4729,2042,2025-02-03 17:41:25,0.0
-10744,2276,-1280,3462,8929,1643,2025-02-03 17:41:25,0.0
-12276,2392,-2168,3140,10162,1433,2025-02-03 17:41:25,0.0
-13300,2560,-2116,2410,8706,1314,2025-02-03 17:41:25,0.0
-13512,2708,-1932,1576,5224,1129,2025-02-03 17:41:25,0.0
-14188,2864,-1200,998,1656,947,2025-02-03 17:41:25,0.0
-13536,1960,-1252,425,-2300,474,2025-02-03 17:41:25,0.0
-12544,2220,-632,357,-620,-1734,2025-02-03 17:41:25,
-12652,2492,-392,210,255,-1844,2025-02-03 17:41:25,0.0
-13512,2232,-360,167,834,-1702,2025-02-03 17:41:25,0.0
-13896,1552,-216,232,956,-1472,2025-02-03 17:41:25,0.0
-13796,904,-416,335,548,-1419,2025-02-03 17:41:25,0.0
-13804,988,88,575,227,-1471,2025-02-03 17:41:25,0.0
-13704,1208,-308,838,9,-1611,2025-02-03 17:41:25,0.0
-13528,1332,-448,1042,306,-1844,2025-02-03 17:41:25,0.0
-14248,1328,-844,1313,1387,-1853,2025-02-03 17:41:25,0.0
-14844,1404,-2012,1528,2930,-1671,2025-02-03 17:41:25,0.0
-15260,1304,-2920,1522,4197,-1444,2025-02-03 17:41:25,0.0
-15188,1232,-3692,1148,3764,-1561,2025-02-03 17:41:25,0.0
-13988,-328,-2356,667,1554,-2162,2025-02-03 17:41:25,0.0
-13352,-944,-848,1058,692,-2807,2025-02-03 17:41:25,0.0
-12620,-1148,-1760,1454,241,-3379,2025-02-03 17:41:25,0.0
-12364,-1320,-2944,1576,-141,-3700,2025-02-03 17:41:25,0.0
-12568,-1316,-3276,1795,245,-3605,2025-02-03 17:41:25,0.0
-12624,-1408,-2956,2376,1629,-3168,2025-02-03 17:41:25,0.0
-12456,-1760,-3208,2949,3761,-2748,2025-02-03 17:41:25,0.0
-12468,-2136,-3952,3086,5589,-2469,2025-02-03 17:41:25,0.0
-13148,-2312,-3664,2787,6145,-2017,2025-02-03 17:41:26,0.0
-13980,-1472,-2632,1042,3945,-1734,2025-02-03 17:41:26,0.0
-14452,-1716,-2264,932,3644,-2216,2025-02-03 17:41:26,0.0
-14624,-1968,-1988,817,2371,-2474,2025-02-03 17:41:26,0.0
-14356,-2424,-2144,709,133,-2486,2025-02-03 17:41:26,0.0
-13892,-2748,-2408,573,-1616,-2373,2025-02-03 17:41:26,0.0
-13264,-2796,-2552,419,-2251,-2205,2025-02-03 17:41:26,0.0
-12472,-2884,-2244,133,-1780,-2141,2025-02-03 17:41:26,0.0
-12348,-2500,-1900,50,-719,-2053,2025-02-03 17:41:26,0.0
-13384,-1096,-2964,-1112,-576,2521,2025-02-03 17:41:26,0.0
-13480,-496,-3104,-1596,-913,2785,2025-02-03 17:41:26,0.0
-13440,-892,-3400,-2185,-1609,2848,2025-02-03 17:41:26,0.0
-13440,-1040,-3548,-2661,-1714,2619,2025-02-03 17:41:26,0.0
-13372,-1488,-3228,-3065,-1243,1920,2025-02-03 17:41:26,0.0
-13116,-1980,-2476,-3002,-1162,987,2025-02-03 17:41:26,0.0
-13136,-1976,-2264,-2637,-1882,390,2025-02-03 17:41:26,0.0
-13020,-1600,-2108,-2247,-2892,452,2025-02-03 17:41:26,0.0
-12800,-1196,-2288,-1813,-3141,825,2025-02-03 17:41:26,0.0
-12216,-1104,-2736,-1503,-2187,1003,2025-02-03 17:41:26,0.0
-11708,-1132,-3372,-1592,-578,709,2025-02-03 17:41:26,0.0
-11628,-1284,-3180,-1780,715,135,2025-02-03 17:41:26,0.0
-12116,-1196,-2692,-1685,1547,-109,2025-02-03 17:41:26,0.0
-12704,-1064,-2092,-1264,2405,-25,2025-02-03 17:41:26,0.0
-13412,-884,-2688,-781,3421,189,2025-02-03 17:41:26,0.0
-14152,-796,-3060,-504,4335,373,2025-02-03 17:41:26,0.0
-14776,-472,-3108,-268,5028,557,2025-02-03 17:41:26,0.0
-14792,-932,-2740,-183,4443,527,2025-02-03 17:41:26,0.0
-14664,-1140,-2060,-235,2467,202,2025-02-03 17:41:26,0.0
-12724,-60,-1572,511,432,82,2025-02-03 17:41:27,0.0
-9236,636,-1352,2580,5215,2351,2025-02-03 17:41:27,0.0
-9316,1200,-768,2700,5193,2150,2025-02-03 17:41:27,0.0
-9612,1032,-624,2428,4906,2134,2025-02-03 17:41:27,0.0
-9584,744,-336,2193,4673,2002,2025-02-03 17:41:27,0.0
-9064,-316,-80,2112,3412,1553,2025-02-03 17:41:27,0.0
-8428,-940,412,1864,895,788,2025-02-03 17:41:27,0.0
-8492,-1084,1736,1862,-1921,187,2025-02-03 17:41:27,0.0
-8760,-816,2756,2359,-4097,131,2025-02-03 17:41:27,0.0
-9132,256,3064,3176,-5055,802,2025-02-03 17:41:27,0.0
-9168,1436,1768,3892,-4103,1686,2025-02-03 17:41:27,0.0
-8464,1988,-80,3788,-2954,2375,2025-02-03 17:41:27,0.0
-7000,2132,-796,2511,-3343,2307,2025-02-03 17:41:27,0.0
-6988,2424,896,1005,-3857,1634,2025-02-03 17:41:27,0.0
-7292,2588,3600,155,-4572,974,2025-02-03 17:41:27,0.0
-8724,2124,4636,-87,-4407,665,2025-02-03 17:41:27,0.0
-9160,980,2420,-498,-3318,535,2025-02-03 17:41:27,0.0
-8576,436,168,-1102,-2786,72,2025-02-03 17:41:27,0.0
-10000,180,-1140,-1197,-2274,-19,2025-02-03 17:41:27,0.0
-10424,432,-1220,-729,-2248,339,2025-02-03 17:41:28,0.0
-716,1088,-7376,-555,207,-2352,2025-02-03 17:41:28,0.0
-904,1040,-7700,-311,1169,-2359,2025-02-03 17:41:28,0.0
-1108,1156,-8264,-325,2120,-2159,2025-02-03 17:41:28,0.0
-1816,1632,-8952,-513,2638,-1513,2025-02-03 17:41:28,0.0
-2072,1988,-10392,-824,2982,-627,2025-02-03 17:41:28,0.0
-2188,2520,-11540,-1273,3819,67,2025-02-03 17:41:28,0.0
-2236,2932,-13068,-1666,4849,282,2025-02-03 17:41:28,0.0
-2708,2980,-14108,-1872,5099,279,2025-02-03 17:41:31,0.0
-16808,-1992,616,-1837,286,548,2025-02-03 17:41:31,0.0
-15164,-4444,4016,-958,-4118,-306,2025-02-03 17:41:31,0.0
-14096,-5712,3728,753,-8372,-1911,2025-02-03 17:41:31,0.0
-14012,-5676,2492,2568,-10118,-2249,2025-02-03 17:41:31,0.0
-13040,-4284,2436,4104,-8187,-1325,2025-02-03 17:41:31,0.0
-11764,-2516,1424,5477,-3564,-94,2025-02-03 17:41:31,0.0
-10660,-716,-740,5664,1615,730,2025-02-03 17:41:31,0.0
-10660,580,-1504,5302,5680,484,2025-02-03 17:41:31,0.0
-13860,-2336,-40,-912,-375,-113,2025-02-03 17:41:31,0.0
-13528,-2580,156,-791,-856,-162,2025-02-03 17:41:31,0.0
-13416,-2464,380,-464,-513,-82,2025-02-03 17:41:31,0.0
-13220,-2468,368,-144,488,-165,2025-02-03 17:41:31,0.0
-13372,-2308,-140,6,1223,-346,2025-02-03 17:41:31,0.0
-13760,-2656,-436,70,1433,-391,2025-02-03 17:41:31,0.0
-14412,-2552,-776,245,1559,-220,2025-02-03 17:41:31,0.0
-14456,-2172,-1192,223,1144,116,2025-02-03 17:41:31,0.0
-13944,-1732,-1080,93,115,217,2025-02-03 17:41:31,0.0
-13704,-1240,-564,60,-741,213,2025-02-03 17:41:32,0.0
-13464,-1260,296,18,-818,381,2025-02-03 17:41:32,0.0
-13124,-1876,548,30,-717,368,2025-02-03 17:41:32,0.0
-13204,-2432,476,228,-160,182,2025-02-03 17:41:32,0.0
-13524,-2472,-480,617,449,127,2025-02-03 17:41:32,0.0
-13964,-1968,-732,813,943,266,2025-02-03 17:41:32,0.0
-13724,-1136,-636,804,999,445,2025-02-03 17:41:32,0.0
-13772,-1012,-224,615,607,327,2025-02-03 17:41:32,
-13820,-1032,256,477,326,142,2025-02-03 17:41:32,0.0
-14164,-1392,576,548,311,-22,2025-02-03 17:41:32,0.0
-14260,-1824,216,677,76,-104,2025-02-03 17:41:32,0.0
-13952,-1824,-84,702,-443,-101,2025-02-03 17:41:32,0.0
-13220,-1004,-748,567,-89,-153,2025-02-03 17:41:32,0.0
-13184,-960,-828,398,474,-104,2025-02-03 17:41:32,0.0
-13304,-792,-852,270,1117,-133,2025-02-03 17:41:32,0.0
-13412,-824,-900,141,1454,-118,2025-02-03 17:41:32,0.0
-13776,-944,-1008,95,1425,-146,2025-02-03 17:41:32,0.0
-14052,-832,-644,19,1064,-93,2025-02-03 17:41:33,0.0
-14420,-4116,-1456,-12403,-2124,-3487,2025-02-03 17:41:33,0.0
-14740,-4120,-1628,-12319,-3444,-3479,2025-02-03 17:41:33,0.0
-14208,-3384,-1444,-12466,-4270,-3141,2025-02-03 17:41:33,0.0
-12784,-2828,-1196,-14716,-3005,-974,2025-02-03 17:41:34,0.0
-13128,-3664,-1600,-14507,-2426,-982,2025-02-03 17:41:34,0.0
-13516,-4196,-1928,-14180,-1867,-861,2025-02-03 17:41:34,0.0
-13912,-4532,-2004,-13801,-1505,-731,2025-02-03 17:41:34,0.0
-13992,-4220,-2276,-13425,-1397,-685,2025-02-03 17:41:34,0.0
-13444,-3752,-1952,-13138,-1683,-682,2025-02-03 17:41:34,0.0
-13312,-3532,-1456,-12866,-2285,-557,2025-02-03 17:41:34,0.0
-13284,-3740,-1860,-12662,-2854,-207,2025-02-03 17:41:34,0.0
-13132,-3692,-2852,-12273,-3347,65,2025-02-03 17:41:34,0.0
-12760,-2948,-4208,-10322,-1263,-425,2025-02-03 17:41:34,0.0
-13076,-1172,-2840,-10176,1593,-1128,2025-02-03 17:41:34,0.0
-12904,1232,-3248,-10949,1840,-1005,2025-02-03 17:41:34,0.0
-12756,3556,-4864,-12738,865,-330,2025-02-03 17:41:34,0.0
-12564,4764,-6292,-14460,482,437,2025-02-03 17:41:34,0.0
-11848,5412,-6536,-16511,1666,730,2025-02-03 17:41:34,0.0
-11528,4696,-3976,-18137,4735,-644,2025-02-03 17:41:34,0.0
-12988,2560,-1748,-18837,6806,-2588,2025-02-03 17:41:34,0.0
-16796,-436,-744,-19097,6647,-3458,2025-02-03 17:41:34,0.0
-18340,-1600,-1032,-18658,4480,-3091,2025-02-03 17:41:34,0.0
-17116,-2252,-1992,-18739,61,-2843,2025-02-03 17:41:34,0.0
-15164,-2732,-1108,-19451,-5198,-2984,2025-02-03 17:41:34,0.0
-13312,-2720,824,-19334,-8144,-3177,2025-02-03 17:41:34,0.0
-13092,-2676,3264,-18318,-6825,-3131,2025-02-03 17:41:34,0.0
-13208,-2392,3976,-16341,-2973,-2485,2025-02-03 17:41:34,0.0
-14664,-1348,2212,-14458,891,-1405,2025-02-03 17:41:34,0.0
-13332,-1496,-560,-7346,1084,-2330,2025-02-03 17:41:34,0.0
-13420,-1208,-872,-7190,1705,-2466,2025-02-03 17:41:34,0.0
-13688,-780,-1152,-7280,1998,-2535,2025-02-03 17:41:34,0.0
-14272,-564,-1116,-7370,1486,-2505,2025-02-03 17:41:34,0.0
-14704,-328,-720,-7130,843,-2178,2025-02-03 17:41:34,0.0
-14500,-304,-696,-6759,364,-1918,2025-02-03 17:41:34,0.0
-13576,-228,-892,-6351,-217,-2247,2025-02-03 17:41:34,0.0
-12804,-396,-1740,-6015,-1710,-2889,2025-02-03 17:41:35,0.0
-14048,-2384,-108,-2943,-6439,-1745,2025-02-03 17:41:35,0.0
-13276,-1096,-324,-2236,-6168,-1343,2025-02-03 17:41:35,0.0
-12096,4,-1304,-2025,-2788,-1084,2025-02-03 17:41:35,0.0
-11456,1068,-1664,-2136,678,-1286,2025-02-03 17:41:35,0.0
-12160,1528,-1804,-2317,3622,-1771,2025-02-03 17:41:35,0.0
-13552,1252,-1976,-2577,4897,-2085,2025-02-03 17:41:35,0.0
-14648,44,-1896,-3031,4116,-2286,2025-02-03 17:41:35,0.0
-15192,-1308,-1276,-3312,1565,-2565,2025-02-03 17:41:35,0.0
-11888,-620,-1656,-1629,138,-889,2025-02-03 17:41:35,0.0
-12148,560,-1800,-224,1513,-644,2025-02-03 17:41:35,0.0
-12276,-84,-2148,-437,3518,-733,2025-02-03 17:41:35,0.0
-12612,-1056,-1712,-497,4164,-548,2025-02-03 17:41:35,0.0
-13220,-1732,-756,-382,3714,14,2025-02-03 17:41:36,0.0
-13372,-2168,248,-291,2819,611,2025-02-03 17:41:36,0.0
-13296,-2328,1080,-259,2384,661,2025-02-03 17:41:36,0.0
-13300,-2212,1216,-373,2556,182,2025-02-03 17:41:36,0.0
-13776,-2044,264,-510,2661,-750,2025-02-03 17:41:36,0.0
-14520,-2308,-1180,-579,2698,-1575,2025-02-03 17:41:36,0.0
-15072,-2380,-1200,-768,2609,-2255,2025-02-03 17:41:36,0.0
-15108,-2484,-704,-910,1793,-2641,2025-02-03 17:41:36,0.0
-14812,-2292,-1036,-999,-303,-2717,2025-02-03 17:41:36,0.0
-13552,-2124,-1188,-1539,-1977,-2768,2025-02-03 17:41:36,0.0
-12940,-2008,-1248,-1925,-1219,-2762,2025-02-03 17:41:36,0.0
-12600,-1620,-1104,-2252,-364,-2648,2025-02-03 17:41:36,0.0
-12340,-1256,-1288,-2513,462,-2479,2025-02-03 17:41:36,0.0
-12368,-1288,-724,-2693,978,-2286,2025-02-03 17:41:36,0.0
-12760,-1612,-636,-2925,1192,-2031,2025-02-03 17:41:36,0.0
-13176,-1852,-92,-3155,1192,-1824,2025-02-03 17:41:36,0.0
-13624,-1840,136,-3372,767,-1655,2025-02-03 17:41:36,0.0
-13844,-2284,944,-3748,-1900,-1545,2025-02-03 17:41:36,0.0
-13816,-2536,988,-3595,-3294,-1144,2025-02-03 17:41:36,0.0
-13336,-2420,972,-3337,-4503,-274,2025-02-03 17:41:36,0.0
-12516,-2188,84,-3223,-5016,652,2025-02-03 17:41:36,0.0
-11520,-1944,8,-3186,-4286,1367,2025-02-03 17:41:36,0.0
-10668,-2008,356,-3234,-2898,1472,2025-02-03 17:41:36,0.0
-10416,-1940,812,-3112,-991,1141,2025-02-03 17:41:36,0.0
-11276,-2016,680,-3061,932,805,2025-02-03 17:41:36,0.0
-12364,-2312,604,-2839,2605,527,2025-02-03 17:41:36,0.0
-13232,-2640,320,-2655,3724,186,2025-02-03 17:41:36,0.0
-13808,-3116,-340,-2570,4022,-220,2025-02-03 17:41:36,0.0
-14192,-3224,-1168,-2672,3637,-780,2025-02-03 17:41:36,0.0
-14516,-2676,-1312,-2969,3420,-1309,2025-02-03 17:41:36,0.0
-14880,-1960,-884,-3592,3739,-1682,2025-02-03 17:41:36,0.0
-15632,-1532,-856,-4284,4578,-1842,2025-02-03 17:41:36,0.0
-16784,-1548,-912,-5011,5687,-1687,2025-02-03 17:41:36,0.0
-17664,-2060,-652,-5563,6611,-1412,2025-02-03 17:41:36,0.0
-8656,-680,-7448,2112,-11725,4088,2025-02-03 17:41:36,0.0
-7496,-392,-6012,2036,-6599,3397,2025-02-03 17:41:36,0.0
-7868,-264,-3780,2340,1473,2330,2025-02-03 17:41:36,0.0
-10092,-472,-2772,3088,9107,1967,2025-02-03 17:41:36,0.0
-12748,-344,-2128,3807,13023,2564,2025-02-03 17:41:36,0.0
-14728,160,-2304,4259,13001,3488,2025-02-03 17:41:36,0.0
-14804,112,-3016,4233,9850,4230,2025-02-03 17:41:36,0.0
-14144,-324,-4180,3829,4174,4250,2025-02-03 17:41:36,
-13420,-444,-4668,3186,-1818,3804,2025-02-03 17:41:36,0.0
-12948,-348,-3592,3074,-5867,3390,2025-02-03 17:41:36,0.0
-12532,-20,-2728,3462,-8028,3508,2025-02-03 17:41:36,0.0
-11828,372,-2236,3743,-7410,3982,2025-02-03 17:41:36,0.0
-10564,904,-2084,4019,-4992,4334,2025-02-03 17:41:36,0.0
-10160,1240,-1632,4227,-2544,4323,2025-02-03 17:41:36,0.0
-10308,1632,-2656,4342,-330,4169,2025-02-03 17:41:36,0.0
-11112,1688,-2488,4398,865,4160,2025-02-03 17:41:36,0.0
-11456,1012,-1908,4359,927,4147,2025-02-03 17:41:36,0.0
-11144,556,-1648,4230,-130,3636,2025-02-03 17:41:36,0.0
-11264,208,-688,4150,-1236,2720,2025-02-03 17:41:36,0.0
-11152,12,-648,3980,-3310,1512,2025-02-03 17:41:37,0.0
-10700,-176,-756,3811,-4059,574,2025-02-03 17:41:37,0.0
-9956,-536,-748,3879,-4149,-598,2025-02-03 17:41:37,0.0
-9504,-496,-900,3837,-3641,-2058,2025-02-03 17:41:37,0.0
-9280,136,-1428,3460,-2873,-3491,2025-02-03 17:41:37,0.0
-9608,1648,-1692,3010,-2029,-4627,2025-02-03 17:41:37,0.0
-10700,2804,-1360,2643,-1193,-4803,2025-02-03 17:41:37,0.0
-12424,3524,-368,2519,-470,-4221,2025-02-03 17:41:37,0.0
-13916,2836,-540,2548,-133,-3106,2025-02-03 17:41:37,0.0
-15364,616,-924,2443,-189,-1801,2025-02-03 17:41:37,0.0
-16216,-1784,-944,2720,-792,-939,2025-02-03 17:41:37,0.0
-17140,-3048,-928,3130,-914,-572,2025-02-03 17:41:37,0.0
-16988,-2540,-1064,3289,-834,-141,2025-02-03 17:41:37,0.0
-16588,-836,-788,3073,-786,43,2025-02-03 17:41:37,0.0
-16992,232,192,2858,-90,449,2025-02-03 17:41:37,0.0
-17440,828,1296,3121,1388,1143,2025-02-03 17:41:37,0.0
-17560,568,1496,3628,2784,1844,2025-02-03 17:41:37,0.0
-17636,100,1188,3873,3476,2285,2025-02-03 17:41:37,0.0
-17404,100,1440,3950,2601,2189,2025-02-03 17:41:37,0.0
-17096,560,1808,4019,800,1884,2025-02-03 17:41:37,0.0
-16684,1164,632,3895,-1135,1423,2025-02-03 17:41:37,0.0
-16588,1432,-1372,3244,-1915,1400,2025-02-03 17:41:37,0.0
-17104,1872,-2996,2039,-2167,2096,2025-02-03 17:41:37,0.0
-16808,2404,-4900,288,-1992,3278,2025-02-03 17:41:37,0.0
-14896,2392,-5404,-1523,-2304,3576,2025-02-03 17:41:37,0.0
-11956,2872,-4012,-2231,-3959,2651,2025-02-03 17:41:37,0.0
-7928,2072,-2828,-1738,-7304,293,2025-02-03 17:41:37,0.0
-6724,-124,-3028,-1607,-11259,-2138,2025-02-03 17:41:37,0.0
-7968,-1872,-2480,-923,-11747,-3031,2025-02-03 17:41:37,0.0
-10188,-3844,-1356,1394,-6344,-2570,2025-02-03 17:41:37,0.0
-12216,-5868,-1364,4274,2768,-1963,2025-02-03 17:41:37,0.0
-14728,-6308,-3008,5346,13618,-1165,2025-02-03 17:41:37,0.0
-16736,-3744,-2940,4562,18729,-506,2025-02-03 17:41:37,0.0
-16908,-576,-2784,3671,18441,-133,2025-02-03 17:41:37,0.0
-17060,1848,-3748,2096,13633,-303,2025-02-03 17:41:37,0.0
-16328,2936,-4712,270,6492,-1384,2025-02-03 17:41:37,0.0
-15396,3320,-5312,-1186,-1059,-3230,2025-02-03 17:41:37,0.0
-14504,2464,-5344,-2570,-8322,-4647,2025-02-03 17:41:37,0.0
-13364,1140,-4520,-4537,-13855,-4954,2025-02-03 17:41:37,0.0
-12636,-280,-2224,-5667,-16013,-4822,2025-02-03 17:41:37,0.0
-10720,-2388,288,-3616,3011,-2762,2025-02-03 17:41:37,0.0
-11780,-1420,800,-3342,3640,-1661,2025-02-03 17:41:37,0.0
-12244,-1220,624,-3422,4095,-902,2025-02-03 17:41:37,0.0
-12832,-1128,860,-3894,3718,-477,2025-02-03 17:41:37,0.0
-13676,-836,976,-4593,2064,-67,2025-02-03 17:41:37,0.0
-14020,-688,1224,-4472,-528,511,2025-02-03 17:41:37,0.0
-14244,-848,1376,-4110,-3569,1351,2025-02-03 17:41:37,0.0
-13792,-924,1160,-3825,-5714,1924,2025-02-03 17:41:37,0.0
-13572,-1464,1016,-3533,-6803,2066,2025-02-03 17:41:37,0.0
-12668,-1992,-68,-3317,-6817,1920,2025-02-03 17:41:37,0.0
-12532,-1940,-84,-3308,-5860,1704,2025-02-03 17:41:37,0.0
-11988,-1380,-768,-3312,-4511,1736,2025-02-03 17:41:37,0.0
-11668,-1296,-1304,-3168,-2850,1874,2025-02-03 17:41:37,0.0
-14528,-3000,1020,-3109,8354,-687,2025-02-03 17:41:37,0.0
-16668,-3048,2960,-3181,11137,-1459,2025-02-03 17:41:37,0.0
-18816,-3044,3680,-3286,11582,-1876,2025-02-03 17:41:37,0.0
-20180,-3372,2876,-3646,8923,-1788,2025-02-03 17:41:37,0.0
-19780,-4048,2244,-4038,2759,-1044,2025-02-03 17:41:37,0.0
-18460,-4860,1776,-3706,-4163,-66,2025-02-03 17:41:38,0.0
-16864,-4620,956,-2315,-7107,498,2025-02-03 17:41:38,0.0
-15080,-4420,-100,-711,-4795,-98,2025-02-03 17:41:38,0.0
-14460,-4444,-480,968,-728,-1210,2025-02-03 17:41:38,0.0
-15032,-4188,-56,2230,2069,-1376,2025-02-03 17:41:38,0.0
-15428,-3548,-532,3089,2355,-837,2025-02-03 17:41:38,0.0
-15644,-2280,-1672,3265,725,-17,2025-02-03 17:41:38,0.0
-14992,-668,-3072,2941,-1917,967,2025-02-03 17:41:38,0.0
-13428,956,-5344,2165,-4652,1880,2025-02-03 17:41:38,0.0
-10828,1524,-6976,918,-7165,2284,2025-02-03 17:41:38,0.0
-11800,3008,-2308,-2320,6341,285,2025-02-03 17:41:38,0.0
-14068,1340,-1860,-2272,13007,340,2025-02-03 17:41:38,0.0
-15500,472,-1808,-1970,15784,544,2025-02-03 17:41:38,0.0
-17204,84,-1316,-1555,14229,1165,2025-02-03 17:41:38,0.0
-18072,-488,-1660,-1368,9226,2248,2025-02-03 17:41:38,0.0
-17448,-1196,-2820,-1397,2117,3374,2025-02-03 17:41:38,0.0
-15148,-1444,-3436,-1399,-6342,4002,2025-02-03 17:41:38,0.0
-13480,-1124,-2616,-1032,-11791,3872,2025-02-03 17:41:38,0.0
-11880,-480,-1988,-630,-13673,3696,2025-02-03 17:41:38,0.0
-10972,472,-784,-132,-12299,3469,2025-02-03 17:41:38,0.0
-10472,1252,92,570,-8872,3259,2025-02-03 17:41:38,0.0
-10432,1480,68,1186,-4453,3146,2025-02-03 17:41:38,0.0
-9440,1632,-1816,1438,-409,2916,2025-02-03 17:41:38,0.0
-9884,1736,-2140,1039,3428,2095,2025-02-03 17:41:38,0.0
-10488,1504,-1496,521,4387,927,2025-02-03 17:41:38,0.0
-11700,1200,-308,251,3985,-74,2025-02-03 17:41:38,0.0
-12564,1044,232,320,2508,-508,2025-02-03 17:41:38,0.0
-12956,620,-276,426,475,-870,2025-02-03 17:41:38,0.0
-13288,388,-728,178,-1349,-1295,2025-02-03 17:41:38,0.0
-13304,436,-580,177,-1887,-1512,2025-02-03 17:41:38,0.0
-12748,444,-836,153,-1915,-1917,2025-02-03 17:41:38,
-12456,976,-1496,-7,-1915,-2172,2025-02-03 17:41:38,0.0
-12488,1712,-1920,-195,-1278,-2311,2025-02-03 17:41:38,0.0
-12884,2252,-2284,-697,410,-2291,2025-02-03 17:41:38,0.0
-14208,2812,-1624,-1353,2892,-1872,2025-02-03 17:41:38,0.0
-15468,2336,476,-1799,4712,-863,2025-02-03 17:41:38,0.0
-15732,776,1372,-1845,3947,-360,2025-02-03 17:41:38,0.0
-15712,-260,1356,-1552,1446,-218,2025-02-03 17:41:38,0.0
-15352,-1120,1244,-773,-1211,-366,2025-02-03 17:41:38,0.0
-14504,-1424,1132,180,-2954,-743,2025-02-03 17:41:38,0.0
-13888,-1432,1740,1079,-3291,-1281,2025-02-03 17:41:38,0.0
-16620,4584,-3272,-228,9650,6,2025-02-03 17:41:38,0.0
-15572,4316,-2072,-1742,6241,-133,2025-02-03 17:41:38,0.0
-15084,3152,-924,-2999,471,-842,2025-02-03 17:41:38,0.0
-14684,1224,-28,-3371,-4595,-1159,2025-02-03 17:41:38,0.0
-13220,-900,-336,-3091,-7642,-1574,2025-02-03 17:41:38,0.0
-12096,-2464,-1376,-2604,-7937,-2151,2025-02-03 17:41:38,0.0
-11712,-2524,-2380,-2111,-4811,-2389,2025-02-03 17:41:38,0.0
-11676,-1696,-3896,-1917,353,-2552,2025-02-03 17:41:38,0.0
-12464,-332,-4616,-2118,4917,-2385,2025-02-03 17:41:38,0.0
-13404,972,-3956,-2236,7617,-1761,2025-02-03 17:41:38,0.0
-13552,-184,-2140,-3423,4479,-453,2025-02-03 17:41:39,0.0
-13216,-992,-3632,-12598,824,-3266,2025-02-03 17:41:39,0.0
-13536,-1072,-3292,-13382,773,-3307,2025-02-03 17:41:39,0.0
-13472,-1240,-3052,-14156,-21,-3407,2025-02-03 17:41:39,0.0
-13584,-1576,-2904,-14900,-1155,-3430,2025-02-03 17:41:39,0.0
-13380,-1936,-3056,-15344,-2061,-3237,2025-02-03 17:41:39,0.0
-12908,-2276,-3096,-15614,-2527,-2962,2025-02-03 17:41:39,0.0
-12824,-2516,-2672,-15717,-2455,-2664,2025-02-03 17:41:39,0.0
-12964,-2336,-2824,-15681,-1701,-2269,2025-02-03 17:41:39,0.0
-12280,-704,-3084,-15365,-165,-1118,2025-02-03 17:41:39,0.0
-12480,-660,-2568,-15608,-387,-777,2025-02-03 17:41:39,0.0
-13060,-1512,-1788,-16285,-752,-832,2025-02-03 17:41:39,0.0
-14036,-2144,-1420,-17016,-956,-1005,2025-02-03 17:41:39,0.0
-14820,-2588,-1836,-17408,-1056,-1169,2025-02-03 17:41:39,0.0
-15312,-2448,-3024,-17443,-1559,-1233,2025-02-03 17:41:39,0.0
-15140,-2244,-3296,-17074,-2350,-1157,2025-02-03 17:41:39,0.0
-14324,-2116,-2420,-16956,-3306,-1066,2025-02-03 17:41:39,0.0
-13628,-2092,-936,-17202,-4125,-1155,2025-02-03 17:41:39,0.0
-13120,-2720,-676,-17468,-3990,-1556,2025-02-03 17:41:39,0.0
-13572,-3192,-2448,-17762,-1531,-2318,2025-02-03 17:41:39,0.0
-13760,-2556,-2316,-18025,-744,-1983,2025-02-03 17:41:39,0.0
-13884,-1792,-1236,-18302,-308,-1372,2025-02-03 17:41:39,0.0
-13536,-1692,-460,-18652,-435,-934,2025-02-03 17:41:39,0.0
-13340,-2000,-464,-18995,-1282,-759,2025-02-03 17:41:39,0.0
-13168,-2420,-616,-19280,-2462,-523,2025-02-03 17:41:39,0.0
-13212,-2504,-572,-19375,-3102,-252,2025-02-03 17:41:39,0.0
-13096,-2880,-660,-19287,-3011,138,2025-02-03 17:41:39,0.0
-13192,-3428,-1164,-18837,-2074,485,2025-02-03 17:41:39,0.0
-13392,-4152,-2124,-17881,73,720,2025-02-03 17:41:39,0.0
-13644,-4720,-3260,-17245,2372,219,2025-02-03 17:41:39,0.0
-13816,-3920,-3620,-16614,3835,-721,2025-02-03 17:41:39,0.0
-13964,-2204,-3676,-15745,3942,-1594,2025-02-03 17:41:39,0.0
-13888,-728,-3184,-15298,2774,-2149,2025-02-03 17:41:39,0.0
-14104,1072,-2240,-15136,943,-2010,2025-02-03 17:41:39,0.0
-14140,2976,-2044,-15479,-1078,-921,2025-02-03 17:41:39,0.0
-13668,3688,-2676,-16130,-1935,109,2025-02-03 17:41:39,0.0
-13092,3396,-3964,-16838,-870,322,2025-02-03 17:41:39,0.0
-12664,2024,-5712,-17531,1190,-52,2025-02-03 17:41:39,0.0
-13316,664,-4916,-18396,2608,-494,2025-02-03 17:41:39,0.0
-14092,4,-3108,-19041,3380,-493,2025-02-03 17:41:39,0.0
-14444,28,-1664,-19263,3338,-144,2025-02-03 17:41:39,0.0
-14356,676,-324,-19035,2249,176,2025-02-03 17:41:39,0.0
-13420,1104,-208,-18470,133,63,2025-02-03 17:41:39,0.0
-12700,1328,-692,-18019,-1703,-518,2025-02-03 17:41:39,0.0
-12312,988,-816,-17754,-1728,-988,2025-02-03 17:41:39,0.0
-12456,368,-1168,-17687,-591,-1356,2025-02-03 17:41:39,0.0
-12424,184,-1716,-17898,717,-1614,2025-02-03 17:41:39,0.0
-12580,36,-1284,-18103,1637,-1845,2025-02-03 17:41:39,0.0
-12844,-28,-184,-18217,1838,-2171,2025-02-03 17:41:40,0.0
-12940,268,648,-18120,1417,-2534,2025-02-03 17:41:40,0.0
-12696,696,436,-17980,930,-3009,2025-02-03 17:41:40,0.0
-12816,828,-20,-17868,656,-3602,2025-02-03 17:41:40,0.0
-12876,1324,-736,-17723,516,-3966,2025-02-03 17:41:40,0.0
-13008,1852,-1384,-17703,831,-4039,2025-02-03 17:41:40,0.0
-12940,1884,-1768,-17798,1171,-4059,2025-02-03 17:41:40,0.0
-13048,1452,-1892,-17957,1337,-4153,2025-02-03 17:41:40,0.0
-13044,1040,-1820,-18244,1599,-4220,2025-02-03 17:41:40,0.0
-13248,812,-1720,-18523,1912,-4186,2025-02-03 17:41:40,0.0
-13320,1028,-1664,-18635,2337,-4146,2025-02-03 17:41:40,0.0
-13136,1512,-2212,-18584,2675,-4106,2025-02-03 17:41:40,0.0
-13648,1752,-2448,-18679,3605,-4055,2025-02-03 17:41:40,0.0
-13800,1840,-2016,-18793,4421,-3925,2025-02-03 17:41:40,0.0
-14084,1668,-1532,-18684,4583,-3815,2025-02-03 17:41:40,0.0
-14452,1048,-1632,-18376,4258,-3686,2025-02-03 17:41:40,0.0
-14408,88,-1684,-17930,3497,-3802,2025-02-03 17:41:40,0.0
-14500,-900,-1408,-17121,1816,-4047,2025-02-03 17:41:40,0.0
-14752,-1568,-836,-16014,-269,-3912,2025-02-03 17:41:40,0.0
-14652,-1940,-68,-14654,-2347,-3290,2025-02-03 17:41:40,0.0
-13616,-1980,268,-13115,-3810,-2708,2025-02-03 17:41:40,0.0
-12680,-1992,432,-11598,-4382,-2691,2025-02-03 17:41:40,0.0
-12356,-1692,740,-10382,-3774,-2860,2025-02-03 17:41:40,0.0
-12708,-1272,1244,-9301,-2355,-3017,2025-02-03 17:41:40,0.0
-12188,-964,432,-8460,-855,-3212,2025-02-03 17:41:40,0.0
-12928,-648,0,-8084,497,-3362,2025-02-03 17:41:40,0.0
-13744,-952,-300,-7964,1460,-3538,2025-02-03 17:41:40,0.0
-14904,-992,-968,-7880,2470,-3335,2025-02-03 17:41:40,0.0
-15904,4,-1736,-7291,2327,-768,2025-02-03 17:41:40,0.0
-13872,-1144,-208,-7240,-2237,-1307,2025-02-03 17:41:40,0.0
-12976,-2984,1528,-6898,-6363,-2347,2025-02-03 17:41:40,0.0
-12556,-4456,2028,-6065,-8523,-3140,2025-02-03 17:41:40,
-13444,-4456,1560,-4656,-7299,-2762,2025-02-03 17:41:40,0.0
-13396,-2424,1316,-3156,-3344,-1528,2025-02-03 17:41:40,0.0
-12232,-172,-472,-2427,-39,-1022,2025-02-03 17:41:40,0.0
-12292,1232,-748,-3134,1105,-1083,2025-02-03 17:41:40,0.0
-12624,1888,-612,-4414,1048,-1381,2025-02-03 17:41:40,0.0
-13804,1148,-8,-5636,831,-1330,2025-02-03 17:41:40,0.0
-14108,-300,-340,-5899,716,-924,2025-02-03 17:41:40,0.0
-13912,-1368,-424,-5997,739,-712,2025-02-03 17:41:40,0.0
-13844,-2056,132,-5948,1141,-794,2025-02-03 17:41:40,0.0
-14192,-2484,744,-5341,1726,-866,2025-02-03 17:41:40,0.0
-14552,-2708,716,-4454,1732,-615,2025-02-03 17:41:40,0.0
-14084,-2572,496,-3545,822,-170,2025-02-03 17:41:40,0.0
-13516,-2076,152,-2882,-405,233,2025-02-03 17:41:40,0.0
-13024,-1988,396,-2243,-595,455,2025-02-03 17:41:40,0.0
-12632,-1736,-76,-1794,480,308,2025-02-03 17:41:40,0.0
-12904,-1316,-852,-1524,2208,25,2025-02-03 17:41:40,0.0
-13332,-728,-1096,-1500,3366,-302,2025-02-03 17:41:40,0.0
-13860,-304,-1076,-1472,3670,-542,2025-02-03 17:41:40,0.0
-13716,-120,-1180,-1513,3045,-717,2025-02-03 17:41:40,0.0
-13724,-180,-1120,-1713,2084,-864,2025-02-03 17:41:40,0.0
-13780,-276,-948,-1873,1350,-836,2025-02-03 17:41:40,0.0
-13824,-324,-844,-1814,1350,-612,2025-02-03 17:41:40,0.0
-14080,-408,-1648,-1552,4020,211,2025-02-03 17:41:40,0.0
-13996,-1252,-812,-1504,1937,-46,2025-02-03 17:41:41,0.0
-13752,-2176,-120,-1187,-826,-272,2025-02-03 17:41:41,0.0
-13576,-2452,-52,-689,-2543,-368,2025-02-03 17:41:41,0.0
-13336,-1760,-372,-3,-2578,-215,2025-02-03 17:41:41,0.0
-12972,-944,-696,488,-1303,-16,2025-02-03 17:41:41,0.0
-12700,-328,-1080,728,523,-16,2025-02-03 17:41:41,0.0
-12896,56,-1260,693,1988,-18,2025-02-03 17:41:41,0.0
-13396,88,-1112,551,2291,7,2025-02-03 17:41:41,0.0
-13976,188,-928,342,1700,15,2025-02-03 17:41:41,0.0
-14392,16,-1632,101,848,-59,2025-02-03 17:41:41,0.0
-14456,-396,-2032,-116,181,-193,2025-02-03 17:41:41,0.0
-14388,-744,-2064,-153,-266,-143,2025-02-03 17:41:41,0.0
-14064,-700,-1588,-22,-483,135,2025-02-03 17:41:41,0.0
-13544,-504,-912,64,-556,223,2025-02-03 17:41:41,0.0
-13196,-588,-692,223,-593,115,2025-02-03 17:41:41,0.0
-13068,-616,-728,604,-365,92,2025-02-03 17:41:41,0.0
-12972,-728,-1060,899,241,-18,2025-02-03 17:41:41,0.0
-13228,-772,-1292,1110,1028,-166,2025-02-03 17:41:41,0.0
-13504,-640,-1248,1242,1421,-260,2025-02-03 17:41:41,0.0
-13652,-336,-1136,1288,1495,-264,2025-02-03 17:41:41,0.0
-13716,-116,-976,1294,1382,-186,2025-02-03 17:41:41,0.0
-13572,200,-1548,1209,956,-94,2025-02-03 17:41:41,0.0
-13816,204,-1492,1059,408,-84,2025-02-03 17:41:41,0.0
-13756,248,-1276,955,98,-89,2025-02-03 17:41:41,0.0
-13696,104,-1320,905,-22,-60,2025-02-03 17:41:41,0.0
-13412,-148,-1460,847,-23,-85,2025-02-03 17:41:41,0.0
-13356,-452,-1264,907,75,-88,2025-02-03 17:41:41,0.0
-13412,-384,-1260,940,308,-104,2025-02-03 17:41:41,0.0
-13316,-388,-1460,939,714,-156,2025-02-03 17:41:41,0.0
-13512,64,-1648,931,1298,-74,2025-02-03 17:41:41,0.0
-13716,164,-1704,922,1286,6,2025-02-03 17:41:41,0.0
-13676,172,-1476,832,1166,70,2025-02-03 17:41:41,0.0
-13768,140,-1424,779,968,90,2025-02-03 17:41:41,0.0
-13756,124,-1380,695,687,122,2025-02-03 17:41:41,0.0
-13640,-8,-1196,677,477,87,2025-02-03 17:41:41,0.0
-13632,-152,-1196,703,116,11,2025-02-03 17:41:41,0.0
-13500,-260,-964,800,-94,-54,2025-02-03 17:41:41,0.0
-13464,-244,-564,814,-43,-128,2025-02-03 17:41:41,0.0
-13396,-156,-508,701,74,-303,2025-02-03 17:41:41,0.0
-13484,-8,-668,627,83,-506,2025-02-03 17:41:41,0.0
-13540,-260,-580,517,-27,-614,2025-02-03 17:41:41,0.0
-13636,-384,-656,427,-184,-682,2025-02-03 17:41:41,0.0
-13624,-436,-580,354,-335,-764,2025-02-03 17:41:41,0.0
-13712,-384,-676,219,-610,-910,2025-02-03 17:41:41,0.0
-13612,-220,-1024,18,-842,-1092,2025-02-03 17:41:41,0.0
-13772,-4,-1100,-248,-892,-1226,2025-02-03 17:41:41,0.0
-13880,-40,-1124,-582,-960,-1331,2025-02-03 17:41:41,0.0
-13888,-336,-1280,-823,-1082,-1424,2025-02-03 17:41:41,0.0
-13868,-412,-1312,-769,-1145,-1527,2025-02-03 17:41:41,0.0
-13252,-1036,-1784,-528,-1086,-1650,2025-02-03 17:41:41,0.0
-12824,-1328,-1748,-307,-1057,-1793,2025-02-03 17:41:41,0.0
-12736,-1520,-1540,-1,-645,-1609,2025-02-03 17:41:41,0.0
-12648,-1688,-936,365,-70,-1204,2025-02-03 17:41:41,0.0
-12756,-2000,-1088,673,821,-641,2025-02-03 17:41:41,0.0
-13184,-1980,-1376,874,2488,-233,2025-02-03 17:41:41,0.0
-13544,-1616,-1376,812,3835,-380,2025-02-03 17:41:42,0.0
-14176,-1252,-852,731,4023,-757,2025-02-03 17:41:42,0.0
-15544,-488,-468,480,2609,-1142,2025-02-03 17:41:42,0.0
-15876,376,-348,-135,219,-1274,2025-02-03 17:41:42,0.0
-15336,904,-1136,-1230,-2213,-1656,2025-02-03 17:41:42,0.0
-14236,988,-1360,-2713,-4259,-2597,2025-02-03 17:41:42,0.0
-13208,464,-1444,-3916,-5281,-3348,2025-02-03 17:41:42,0.0
-12660,-784,-984,-4605,-5106,-3696,2025-02-03 17:41:42,0.0
-12144,-1976,-784,-4954,-3619,-3828,2025-02-03 17:41:42,0.0
-12336,-2980,-28,-4950,-1375,-3808,2025-02-03 17:41:42,0.0
-12476,-3512,216,-4545,1433,-3506,2025-02-03 17:41:42,0.0
-13044,-3264,500,-4000,2587,-3185,2025-02-03 17:41:42,0.0
-13568,-2860,148,-3704,2237,-2917,2025-02-03 17:41:42,0.0
-14036,-2616,304,-3684,527,-2612,2025-02-03 17:41:42,0.0
-13796,-2516,592,-3584,-1438,-2169,2025-02-03 17:41:42,0.0
-14004,-2580,1168,-3414,-2787,-1810,2025-02-03 17:41:42,0.0
-13540,-2400,1192,-3236,-3927,-1352,2025-02-03 17:41:42,0.0
-13036,-1920,584,-3192,-4549,-1000,2025-02-03 17:41:42,0.0
-12380,-1800,400,-3261,-4829,-547,2025-02-03 17:41:42,0.0
-11688,-1952,824,-3396,-4480,-292,2025-02-03 17:41:42,0.0
-11712,-2208,1036,-3293,-3837,-70,2025-02-03 17:41:42,0.0
-11464,-3144,1304,-2878,-2931,149,2025-02-03 17:41:42,
-11320,-3652,1808,-2456,-2504,132,2025-02-03 17:41:42,0.0
-11576,-4068,2288,-2169,-2384,129,2025-02-03 17:41:42,0.0
-12276,-3752,2076,-1948,-2039,227,2025-02-03 17:41:42,0.0
-12908,-2564,1496,-1881,-1496,492,2025-02-03 17:41:42,0.0
-13424,-1408,1420,-2008,-855,980,2025-02-03 17:41:42,0.0
-13796,-876,1072,-2493,-207,1640,2025-02-03 17:41:42,0.0
-13564,-1568,296,-3412,773,2062,2025-02-03 17:41:42,0.0
-12956,-2884,-124,-4422,1867,2020,2025-02-03 17:41:42,0.0
-12528,-3356,624,-5027,2985,1527,2025-02-03 17:41:42,0.0
-13052,-2976,1356,-4929,4513,1064,2025-02-03 17:41:43,0.0
-13844,-2424,1556,-4560,6123,781,2025-02-03 17:41:47,0.0
-14804,-2208,1636,-4367,7787,494,2025-02-03 17:41:47,0.0
-15612,-2276,1312,-4641,8735,-9,2025-02-03 17:41:47,0.0
-16528,-2616,908,-5071,8400,-668,2025-02-03 17:41:47,0.0
-17272,-3128,648,-5303,6393,-1233,2025-02-03 17:41:47,0.0
-17540,-4052,1332,-5056,3273,-1479,2025-02-03 17:41:47,0.0
-15148,-4328,1756,-2306,2290,-181,2025-02-03 17:41:47,0.0
-14820,-4556,764,-1361,4073,135,2025-02-03 17:41:47,0.0
-12972,136,8,1097,-1757,16,2025-02-03 17:41:48,0.0
-5492,1276,-12624,-578,-3311,-952,2025-02-03 17:41:48,0.0
-5484,1268,-12628,-547,-3986,-809,2025-02-03 17:41:48,0.0
-5320,1408,-12352,-518,-4349,-622,2025-02-03 17:41:48,0.0
-5024,1472,-12196,-521,-4362,-565,2025-02-03 17:41:48,0.0
-4896,1596,-11984,-483,-3969,-575,2025-02-03 17:41:48,0.0
-5060,1476,-12048,-474,-3401,-528,2025-02-03 17:41:48,0.0
-4984,1556,-12156,-427,-2743,-523,2025-02-03 17:41:48,0.0
-7252,1236,-9332,-1484,-8154,-903,2025-02-03 17:41:48,0.0
-7680,1040,-8880,-1430,-8535,-1489,2025-02-03 17:41:48,0.0
-8288,1004,-8832,-1507,-8904,-1791,2025-02-03 17:41:48,0.0
-8392,880,-9180,-1488,-9246,-1934,2025-02-03 17:41:48,0.0
-8272,864,-9408,-1504,-9671,-2156,2025-02-03 17:41:51,0.0
-13068,16,-1024,534,491,-129,2025-02-03 17:41:53,0.0
-13128,268,-1252,391,835,-179,2025-02-03 17:41:53,0.0
-13184,584,-1116,269,1356,-108,2025-02-03 17:41:53,0.0
-13308,852,-1524,188,1808,2,2025-02-03 17:41:53,0.0
-13432,1204,-1760,62,2220,-22,2025-02-03 17:41:53,0.0
-13400,1392,-2024,-271,2388,-145,2025-02-03 17:41:53,0.0
-13524,1580,-2144,-766,2062,-255,2025-02-03 17:41:53,0.0
-13628,1536,-2116,-1425,1675,-398,2025-02-03 17:41:53,0.0
-13372,-3404,-3252,-7401,-1413,538,2025-02-03 17:41:53,0.0
-19264,-6556,-2032,6364,7120,-4820,2025-02-03 17:41:53,0.0
-21316,-6432,-4492,6824,6652,-3487,2025-02-03 17:41:53,0.0
-21244,-4980,-4972,5789,3381,168,2025-02-03 17:41:53,0.0
-18092,-2888,-3436,5869,-3557,3619,2025-02-03 17:41:53,0.0
-14792,-1624,-4288,6466,-10785,5406,2025-02-03 17:41:53,0.0
-11516,-868,-6568,6035,-16925,5975,2025-02-03 17:41:53,0.0
-9332,-172,-8904,4971,-20395,5783,2025-02-03 17:41:53,0.0
-7840,500,-9736,3860,-19429,5045,2025-02-03 17:41:53,0.0
-7144,1232,-8624,2612,-11620,3592,2025-02-03 17:41:53,0.0
-6220,1744,-6592,1620,4,1327,2025-02-03 17:41:53,0.0
-7916,856,-5380,353,10783,-542,2025-02-03 17:41:53,0.0
-11684,340,-3924,-395,16642,-793,2025-02-03 17:41:53,0.0
-15440,4,-2248,-461,19093,467,2025-02-03 17:41:54,0.0
-17032,-832,-2600,-483,17734,2379,2025-02-03 17:41:54,0.0
-15724,-1396,-3596,547,-3773,4892,2025-02-03 17:41:54,0.0
-12324,480,872,4139,-3519,452,2025-02-03 17:41:54,0.0
-11692,732,-4,3706,-5215,-885,2025-02-03 17:41:54,0.0
-11216,656,212,3413,-5956,-1788,2025-02-03 17:41:54,0.0
-10608,-24,916,3158,-5807,-2439,2025-02-03 17:41:54,0.0
-10280,-164,676,2968,-4705,-2986,2025-02-03 17:41:54,0.0
-10396,648,40,3196,-2653,-3407,2025-02-03 17:41:54,0.0
-11376,1300,-1048,3493,-934,-3513,2025-02-03 17:41:54,0.0
-12528,1240,-1236,3362,-172,-3104,2025-02-03 17:41:54,0.0
-12948,996,-720,3121,-42,-2627,2025-02-03 17:41:54,0.0
-13400,700,-1384,2832,137,-2305,2025-02-03 17:41:54,0.0
-14088,780,-2936,2582,446,-1835,2025-02-03 17:41:54,0.0
-15460,804,-3048,2007,1968,-864,2025-02-03 17:41:54,0.0
-16796,356,-576,1845,4420,371,2025-02-03 17:41:54,0.0
-18172,-156,1328,2264,5861,1636,2025-02-03 17:41:54,0.0
-19016,-140,2432,2930,6512,3065,2025-02-03 17:41:54,0.0
-17632,684,3168,3449,5170,3413,2025-02-03 17:41:54,0.0
-14932,868,2940,3751,2275,1973,2025-02-03 17:41:54,0.0
-14832,380,2128,3553,531,15,2025-02-03 17:41:54,0.0
-14756,-276,1340,3603,227,-961,2025-02-03 17:41:54,0.0
-15500,-324,1840,4136,645,-1048,2025-02-03 17:41:54,0.0
-16736,-92,-112,4726,2727,-684,2025-02-03 17:41:54,0.0
-19028,972,-4528,4065,6930,169,2025-02-03 17:41:54,0.0
-21932,4328,-10000,-1731,12842,6238,2025-02-03 17:41:54,0.0
-14688,5560,-7428,-4970,3206,7042,2025-02-03 17:41:54,0.0
-8308,5188,-4712,-5170,-9070,2927,2025-02-03 17:41:54,0.0
-5868,2016,-4080,-4837,-19763,-2692,2025-02-03 17:41:54,0.0
-7004,-752,-3560,-5536,-24840,-5302,2025-02-03 17:41:54,0.0
-8008,-3268,-1488,-5282,-21824,-5620,2025-02-03 17:41:54,0.0
-9188,-4296,-788,-3178,-11234,-4605,2025-02-03 17:41:54,0.0
-10684,-3144,-2268,-235,3965,-2570,2025-02-03 17:41:54,0.0
-11144,-900,-3628,1216,15543,-1051,2025-02-03 17:41:54,0.0
-12312,464,-2640,1162,21553,-874,2025-02-03 17:41:54,0.0
-13792,692,-1056,471,22324,-1651,2025-02-03 17:41:54,0.0
-15432,-96,-932,-609,16754,-3127,2025-02-03 17:41:54,0.0
-16712,-1172,-3292,-1496,8304,-4503,2025-02-03 17:41:54,0.0
-16196,-1144,-5916,-2220,-2012,-5241,2025-02-03 17:41:54,0.0
-15236,-972,-5712,-1869,-10349,-4574,2025-02-03 17:41:54,0.0
-14400,-612,-3580,-1730,-14211,-3239,2025-02-03 17:41:54,0.0
-11984,-308,-1592,-1893,-13209,-2513,2025-02-03 17:41:54,0.0
-10224,-640,-1632,-2524,-8480,-2924,2025-02-03 17:41:54,0.0
-9564,-1356,-1792,-3285,-2841,-3894,2025-02-03 17:41:54,0.0
-10228,-1784,-1392,-3320,299,-4302,2025-02-03 17:41:54,0.0
-11356,-1888,-1084,-2842,2207,-4029,2025-02-03 17:41:54,0.0
-12084,-1520,-992,-2417,2497,-3098,2025-02-03 17:41:54,0.0
-12468,-1344,-804,-2207,2385,-2267,2025-02-03 17:41:54,
-12992,-784,-1312,-2386,1485,-1507,2025-02-03 17:41:54,0.0
-12816,-388,-1132,-2826,135,-890,2025-02-03 17:41:54,0.0
-12212,-292,-1384,-3376,-1042,-314,2025-02-03 17:41:54,0.0
-13384,-52,-148,-4149,-1691,213,2025-02-03 17:41:54,0.0
-12676,1104,-1020,-5121,-2979,1288,2025-02-03 17:41:55,0.0
-12540,1728,-1436,-5819,-3549,2545,2025-02-03 17:41:55,0.0
-11912,1324,-2056,-6665,-2778,3848,2025-02-03 17:41:55,0.0
-11928,392,-1744,-7336,-1266,4745,2025-02-03 17:41:55,0.0
-12096,-1456,-188,-7742,-38,5400,2025-02-03 17:41:55,0.0
-12328,-3336,1140,-7555,1099,5477,2025-02-03 17:41:55,0.0
-12704,-4652,612,-6913,1698,4330,2025-02-03 17:41:55,0.0
-13272,-4344,-644,-5968,1404,2646,2025-02-03 17:41:55,0.0
-13904,-3244,-1052,-4978,703,1239,2025-02-03 17:41:55,0.0
-14252,-1736,-368,-4664,1035,138,2025-02-03 17:41:55,0.0
-14696,-544,492,-4990,2776,-952,2025-02-03 17:41:55,0.0
-16004,-248,132,-5638,5070,-1893,2025-02-03 17:41:55,0.0
-17600,-840,-404,-6170,6044,-2103,2025-02-03 17:41:55,0.0
-18348,-1856,-168,-6556,5603,-1927,2025-02-03 17:41:55,0.0
-18904,-3208,1504,-6465,3189,-1523,2025-02-03 17:41:55,0.0
-18760,-4532,3620,-5740,144,-1045,2025-02-03 17:41:55,0.0
-18156,-5916,4256,-4620,-2549,-843,2025-02-03 17:41:55,0.0
-16708,-7196,3744,-3260,-4208,-1100,2025-02-03 17:41:55,0.0
-15624,-7440,3420,-1490,-4728,-1515,2025-02-03 17:41:55,0.0
-15180,-5148,1496,1112,-3777,-1517,2025-02-03 17:41:55,0.0
-14244,1820,-1208,-2870,13325,3,2025-02-03 17:41:55,0.0
-15304,1224,-2880,-2493,11606,1278,2025-02-03 17:41:55,0.0
-15084,580,-4528,-2865,7516,2263,2025-02-03 17:41:55,0.0
-14864,-164,-4252,-3414,2484,2647,2025-02-03 17:41:55,0.0
-14028,-760,-2428,-3695,-2899,2803,2025-02-03 17:41:55,0.0
-13128,-720,-1256,-3255,-5614,2834,2025-02-03 17:41:55,0.0
-12784,-188,-760,-2263,-5621,2812,2025-02-03 17:41:55,0.0
-11964,608,-956,-977,-4066,2591,2025-02-03 17:41:55,0.0
-11676,1148,-1464,-47,-2415,2094,2025-02-03 17:41:55,0.0
-11752,2020,-1580,183,-1224,1765,2025-02-03 17:41:55,0.0
-11416,2580,-2096,-227,47,1403,2025-02-03 17:41:55,0.0
-11456,2200,-1748,-611,-21,1056,2025-02-03 17:41:55,0.0
-11536,1588,-904,-642,-350,578,2025-02-03 17:41:55,0.0
-11832,1036,-552,-424,-903,-9,2025-02-03 17:41:55,0.0
-12400,752,-708,-173,-1727,-547,2025-02-03 17:41:55,0.0
-12828,1260,-780,322,-1537,-697,2025-02-03 17:41:55,0.0
-12896,1796,-1040,700,-1488,-718,2025-02-03 17:41:55,0.0
-12836,2108,-1400,829,-1484,-871,2025-02-03 17:41:55,0.0
-13052,2220,-1480,833,-1205,-1078,2025-02-03 17:41:55,0.0
-13652,1756,-1180,1056,-606,-1055,2025-02-03 17:41:55,0.0
-14240,1252,-664,1647,100,-616,2025-02-03 17:41:55,0.0
-14760,944,-544,2156,124,-133,2025-02-03 17:41:55,0.0
-13788,764,-812,2722,-589,198,2025-02-03 17:41:55,0.0
-13336,928,-996,3291,-1543,211,2025-02-03 17:41:55,0.0
-12652,1176,-856,3694,-2040,107,2025-02-03 17:41:56,0.0
-12020,1332,-752,3957,-1629,-248,2025-02-03 17:41:56,0.0
-11856,1640,-544,4173,-710,-553,2025-02-03 17:41:56,0.0
-11660,1912,-88,4321,369,-783,2025-02-03 17:41:56,0.0
-11536,1952,-360,4492,1321,-1268,2025-02-03 17:41:56,0.0
-12016,1848,-752,4406,1721,-1835,2025-02-03 17:41:56,0.0
-12584,2020,-1972,4032,2078,-2317,2025-02-03 17:41:56,0.0
-13804,2544,-2748,3401,2684,-2308,2025-02-03 17:41:56,0.0
-14996,3080,-3632,2472,3735,-1595,2025-02-03 17:41:56,0.0
-15772,3148,-4024,1005,4430,-626,2025-02-03 17:41:56,0.0
-15388,2148,-3392,-100,3773,-415,2025-02-03 17:41:56,0.0
-15104,-392,-1748,-847,1798,-844,2025-02-03 17:41:56,0.0
-15104,-2204,-1500,-746,-466,-1062,2025-02-03 17:41:56,0.0
-14444,-2932,-1280,-127,-2503,-828,2025-02-03 17:41:56,0.0
-13312,-2436,-592,1090,-3817,-404,2025-02-03 17:41:56,0.0
-11940,-1600,-1612,2001,-3545,-142,2025-02-03 17:41:56,0.0
-11352,-832,-2132,2379,-1713,-196,2025-02-03 17:41:56,0.0
-11776,-68,-1968,2522,1182,-322,2025-02-03 17:41:56,0.0
-12784,372,-1752,2518,4147,-231,2025-02-03 17:41:56,0.0
-13884,216,-1120,2475,5920,259,2025-02-03 17:41:56,0.0
-14628,-88,-452,2446,5478,473,2025-02-03 17:41:56,0.0
-14688,-652,-764,2421,3083,278,2025-02-03 17:41:56,0.0
-14916,-1136,-1312,2382,93,159,2025-02-03 17:41:56,0.0
-15136,-1328,-1244,2557,-2324,332,2025-02-03 17:41:56,0.0
-13992,-1064,-1036,2920,-3165,507,2025-02-03 17:41:56,0.0
-13952,-696,-8,2959,-2985,411,2025-02-03 17:41:56,0.0
-12768,-300,-344,2954,-2632,142,2025-02-03 17:41:56,0.0
-13828,140,-1216,805,2617,27,2025-02-03 17:41:56,0.0
-14088,232,-1328,673,2174,-97,2025-02-03 17:41:56,0.0
-14444,484,-1240,531,1444,-204,2025-02-03 17:41:56,0.0
-14352,508,-1344,394,658,-254,2025-02-03 17:41:57,0.0
-14168,2516,-2996,-6334,1181,-723,2025-02-03 17:41:57,0.0
-14048,1864,-2156,-7151,438,-881,2025-02-03 17:41:57,0.0
-13284,1116,-1216,-7720,-662,-1555,2025-02-03 17:41:57,0.0
-12468,900,-892,-8290,-2221,-3052,2025-02-03 17:41:57,0.0
-12892,876,-336,-8573,-2755,-4352,2025-02-03 17:41:57,0.0
