acceleration_x,acceleration_y,acceleration_z,gyroscope_x,gyroscope_y,gyroscope_z,timestamp,label
-11748,-812,-6336,-522,80,-267,2025-01-29 10:43:29,0.0
-11860,-796,-6148,-468,177,-298,2025-01-29 10:43:29,0.0
-11864,-764,-6364,-472,135,-288,2025-01-29 10:43:29,0.0
-11912,-716,-6424,-481,34,-262,2025-01-29 10:43:29,0.0
-11780,-584,-6288,-440,34,-257,2025-01-29 10:43:29,0.0
-11852,-680,-6316,-484,40,-294,2025-01-29 10:43:29,0.0
-11868,-776,-6268,-452,14,-271,2025-01-29 10:43:29,0.0
-11804,-788,-6408,-453,73,-285,2025-01-29 10:43:29,0.0
-11856,-752,-6372,-375,158,-252,2025-01-29 10:43:29,0.0
-11836,-832,-6212,-301,218,-240,2025-01-29 10:43:29,0.0
-11812,-708,-6428,-308,233,-223,2025-01-29 10:43:29,0.0
-11904,-748,-6272,-264,215,-242,2025-01-29 10:43:29,0.0
-11840,-676,-6312,-219,209,-234,2025-01-29 10:43:29,0.0
-12068,-752,-6316,-192,156,-205,2025-01-29 10:43:29,0.0
-11808,-644,-6408,-178,74,-181,2025-01-29 10:43:29,0.0
-11780,-692,-6432,-242,69,-178,2025-01-29 10:43:29,0.0
-11756,-552,-6384,-207,110,-150,2025-01-29 10:43:29,0.0
-11728,-568,-6396,-207,203,-186,2025-01-29 10:43:29,0.0
-11860,-568,-6260,-198,265,-229,2025-01-29 10:43:29,0.0
-11868,-632,-6348,-143,254,-216,2025-01-29 10:43:29,0.0
-11912,-640,-6384,-174,247,-289,2025-01-29 10:43:29,0.0
-11956,-684,-6268,-178,147,-268,2025-01-29 10:43:29,0.0
-11900,-596,-6392,-209,63,-244,2025-01-29 10:43:29,0.0
-11900,-620,-6384,-270,111,-275,2025-01-29 10:43:29,0.0
-11756,-676,-6400,-263,111,-249,2025-01-29 10:43:29,0.0
-11708,-620,-6460,-325,189,-257,2025-01-29 10:43:29,0.0
-11712,-652,-6304,-319,295,-259,2025-01-29 10:43:29,0.0
-11812,-876,-6432,-335,364,-252,2025-01-29 10:43:29,0.0
-11840,-660,-6332,-306,307,-219,2025-01-29 10:43:29,0.0
-11876,-724,-6580,-339,249,-245,2025-01-29 10:43:29,0.0
-11928,-740,-6476,-303,190,-229,2025-01-29 10:43:29,0.0
-11864,-952,-6536,-283,102,-183,2025-01-29 10:43:29,0.0
-11852,-904,-6444,-253,80,-199,2025-01-29 10:43:29,0.0
-11836,-844,-6512,-164,121,-124,2025-01-29 10:43:29,0.0
-11876,-720,-6428,-84,156,-133,2025-01-29 10:43:29,0.0
-12000,-760,-6396,-53,148,-51,2025-01-29 10:43:29,0.0
-11864,-748,-6512,-46,24,2,2025-01-29 10:43:29,0.0
-11892,-692,-6624,-34,-121,74,2025-01-29 10:43:29,0.0
-11800,-748,-6440,-12,-86,91,2025-01-29 10:43:29,0.0
-11756,-792,-6172,19,42,98,2025-01-29 10:43:29,0.0
-11816,-848,-6136,155,86,168,2025-01-29 10:43:29,0.0
-11780,-960,-6228,272,119,216,2025-01-29 10:43:29,0.0
-11816,-1012,-6312,405,317,254,2025-01-29 10:43:29,0.0
-12064,-1036,-6280,526,580,324,2025-01-29 10:43:29,0.0
-12232,-652,-6260,584,634,442,2025-01-29 10:43:29,0.0
-12052,-56,-6192,591,290,448,2025-01-29 10:43:29,0.0
-11888,-244,-6052,546,-161,373,2025-01-29 10:43:29,0.0
-11604,-564,-6060,560,-422,296,2025-01-29 10:43:29,0.0
-11572,-920,-6124,734,-261,289,2025-01-29 10:43:29,0.0
-11552,-908,-6476,887,150,324,2025-01-29 10:43:29,0.0
-11752,-644,-6316,891,380,294,2025-01-29 10:43:29,0.0
-11928,-228,-6200,852,238,315,2025-01-29 10:43:30,0.0
-11948,-184,-6412,792,220,322,2025-01-29 10:43:30,0.0
-11860,-340,-6476,675,376,315,2025-01-29 10:43:30,0.0
-11796,-320,-6328,653,539,306,2025-01-29 10:43:30,0.0
-11744,-480,-6236,681,569,302,2025-01-29 10:43:30,0.0
-11940,-416,-6272,699,676,301,2025-01-29 10:43:30,0.0
-11864,-388,-6184,684,817,285,2025-01-29 10:43:30,0.0
-11856,-344,-6428,706,881,366,2025-01-29 10:43:30,0.0
-11724,-412,-6312,794,961,346,2025-01-29 10:43:30,0.0
-11784,-484,-6220,857,1057,398,2025-01-29 10:43:30,0.0
-11616,-228,-6196,957,1256,427,2025-01-29 10:43:30,0.0
-11652,8,-5996,1036,1554,480,2025-01-29 10:43:30,0.0
-11804,472,-6456,996,1898,624,2025-01-29 10:43:30,0.0
-11684,764,-6480,901,2145,649,2025-01-29 10:43:30,0.0
-11792,656,-6312,901,2285,450,2025-01-29 10:43:30,0.0
-12344,456,-6580,864,2100,304,2025-01-29 10:43:30,0.0
-12688,344,-6560,797,1385,366,2025-01-29 10:43:30,0.0
-12720,336,-6344,869,351,523,2025-01-29 10:43:30,0.0
-12824,548,-6204,834,-505,577,2025-01-29 10:43:30,0.0
-12316,836,-6180,877,-1338,484,2025-01-29 10:43:30,0.0
-11996,1008,-6100,739,-1806,358,2025-01-29 10:43:30,0.0
-11812,1076,-5908,591,-1743,201,2025-01-29 10:43:30,0.0
-11452,816,-6036,482,-1537,105,2025-01-29 10:43:30,0.0
-11148,440,-5952,421,-1408,-104,2025-01-29 10:43:30,0.0
-10940,76,-5984,449,-1156,-295,2025-01-29 10:43:30,0.0
-10840,-92,-6224,528,-869,-430,2025-01-29 10:43:30,0.0
-10912,-648,-6668,537,-505,-562,2025-01-29 10:43:30,0.0
-10884,-780,-6400,552,16,-739,2025-01-29 10:43:30,0.0
-11040,-648,-6688,718,434,-1071,2025-01-29 10:43:30,0.0
-11344,-992,-7224,805,1004,-1530,2025-01-29 10:43:30,0.0
-11800,-1452,-7288,989,1489,-1966,2025-01-29 10:43:30,0.0
-11920,-1892,-7116,1440,1321,-2344,2025-01-29 10:43:30,0.0
-12108,-2420,-6584,1834,919,-2615,2025-01-29 10:43:30,0.0
-12388,-2688,-5836,2017,696,-2392,2025-01-29 10:43:30,0.0
-12464,-2752,-5360,2065,655,-1920,2025-01-29 10:43:30,0.0
-11860,-2840,-5212,2099,274,-1602,2025-01-29 10:43:30,0.0
-11228,-2676,-5328,2150,985,-1769,2025-01-29 10:43:30,0.0
-11460,-1880,-5248,1889,1958,-2162,2025-01-29 10:43:30,0.0
-11904,-956,-5436,1147,2560,-2657,2025-01-29 10:43:30,0.0
-12520,-808,-5244,530,2856,-3167,2025-01-29 10:43:30,0.0
-12880,-1652,-5212,246,2618,-3549,2025-01-29 10:43:30,0.0
-13024,-2844,-4768,194,1844,-3523,2025-01-29 10:43:30,0.0
-12580,-3928,-4300,371,1325,-3237,2025-01-29 10:43:30,0.0
-12356,-4068,-4464,840,892,-2698,2025-01-29 10:43:30,0.0
-12216,-3528,-4528,1014,727,-2088,2025-01-29 10:43:30,0.0
-11820,-2668,-4492,909,809,-1494,2025-01-29 10:43:30,0.0
-11588,-2440,-4728,587,785,-1154,2025-01-29 10:43:30,0.0
-11632,-2504,-4464,282,804,-1060,2025-01-29 10:43:30,0.0
-11988,-2824,-4580,-74,739,-849,2025-01-29 10:43:30,
-12696,-3052,-4576,-264,559,-299,2025-01-29 10:43:30,0.0
-12564,-2792,-4820,-527,313,408,2025-01-29 10:43:30,0.0
-11840,-2592,-5208,-881,258,603,2025-01-29 10:43:30,0.0
-11264,-2780,-5352,-1095,773,487,2025-01-29 10:43:30,0.0
-11136,-2996,-5532,-1291,1342,337,2025-01-29 10:43:30,0.0
-11284,-2536,-5724,-1810,1742,-43,2025-01-29 10:43:30,0.0
-12000,-1532,-5884,-2365,1712,-504,2025-01-29 10:43:30,0.0
-12416,-704,-6384,-3138,1581,-761,2025-01-29 10:43:30,0.0
-12536,-1036,-5808,-3861,1281,-1143,2025-01-29 10:43:30,0.0
-12376,-1980,-5608,-4335,739,-1413,2025-01-29 10:43:30,0.0
-12092,-2704,-5168,-4732,358,-1661,2025-01-29 10:43:30,0.0
-11920,-3280,-4820,-4866,373,-2135,2025-01-29 10:43:30,0.0
-12628,-3460,-4832,-4978,703,-2892,2025-01-29 10:43:31,0.0
-13180,-3532,-4336,-4980,638,-3571,2025-01-29 10:43:31,0.0
-13420,-4176,-4580,-4831,-203,-4064,2025-01-29 10:43:31,0.0
-13124,-5004,-7440,-3973,-1235,-4822,2025-01-29 10:43:31,0.0
-13616,-5388,-8012,-3154,-1108,-5300,2025-01-29 10:43:31,0.0
-13512,-6728,-5716,-1451,-1089,-5883,2025-01-29 10:43:31,0.0
-14740,-7924,-4568,961,-2057,-6195,2025-01-29 10:43:31,0.0
-16948,-8372,-5464,2538,-3144,-4704,2025-01-29 10:43:31,0.0
-18124,-7688,-7960,2703,-3604,-740,2025-01-29 10:43:31,0.0
-16708,-6184,-9112,2459,-3601,2431,2025-01-29 10:43:31,0.0
-14540,-3844,-9828,1819,-4089,4057,2025-01-29 10:43:31,0.0
-12496,-3596,-9924,787,-4321,5190,2025-01-29 10:43:31,0.0
-11088,-3364,-9492,445,-3541,5879,2025-01-29 10:43:31,0.0
-9780,-2300,-10156,617,-2572,6069,2025-01-29 10:43:31,0.0
-9124,-772,-9432,532,-2331,5799,2025-01-29 10:43:31,0.0
-8368,1256,-7256,1043,-2172,4940,2025-01-29 10:43:31,0.0
-8160,2420,-7232,1572,-1897,3701,2025-01-29 10:43:31,0.0
-8036,1928,-8464,523,-1207,2843,2025-01-29 10:43:31,0.0
-8424,540,-8216,-997,67,2274,2025-01-29 10:43:31,0.0
-9476,-868,-7012,-1506,1769,2366,2025-01-29 10:43:31,0.0
-10092,-1916,-6908,-1297,2989,2523,2025-01-29 10:43:31,0.0
-11844,-2692,-6664,-868,3247,2826,2025-01-29 10:43:31,0.0
-13244,-2464,-6376,-16,2024,3551,2025-01-29 10:43:31,0.0
-13392,-1824,-6216,640,-14,4249,2025-01-29 10:43:31,0.0
-12584,-1076,-6028,970,-1898,4586,2025-01-29 10:43:31,0.0
-10912,-112,-5776,1305,-3222,4446,2025-01-29 10:43:31,0.0
-9536,364,-5284,1480,-3097,3992,2025-01-29 10:43:31,0.0
-8780,728,-5232,1515,-2122,3579,2025-01-29 10:43:31,0.0
-8740,948,-5492,1320,-390,3308,2025-01-29 10:43:31,0.0
-9352,1148,-5664,968,1384,3088,2025-01-29 10:43:31,0.0
-10348,1312,-5556,611,2031,2697,2025-01-29 10:43:31,0.0
-10884,1704,-5816,327,1588,2285,2025-01-29 10:43:31,0.0
-11176,1888,-5864,75,569,1581,2025-01-29 10:43:31,0.0
-11064,2036,-5464,-163,-27,636,2025-01-29 10:43:31,0.0
-10780,1796,-5288,-394,-99,-190,2025-01-29 10:43:31,0.0
-10844,1340,-5056,-601,-200,-830,2025-01-29 10:43:31,0.0
-10644,764,-4780,-780,-329,-1166,2025-01-29 10:43:31,0.0
-10280,544,-4452,-965,-348,-1566,2025-01-29 10:43:31,0.0
-10012,196,-4120,-996,-343,-1970,2025-01-29 10:43:31,0.0
-9916,476,-4268,-785,-252,-2208,2025-01-29 10:43:31,0.0
-9848,996,-4224,-515,323,-2327,2025-01-29 10:43:31,0.0
-13488,1124,-8200,7192,1054,4052,2025-01-29 10:43:31,0.0
-13704,3456,-10932,5933,4251,4394,2025-01-29 10:43:31,0.0
-14092,4704,-12048,3563,5692,3781,2025-01-29 10:43:31,0.0
-14640,5724,-12776,328,4183,2574,2025-01-29 10:43:31,0.0
-15012,6900,-13248,-2378,588,1304,2025-01-29 10:43:31,0.0
-13440,5416,-13524,-4239,-3172,-29,2025-01-29 10:43:31,0.0
-12012,1548,-11336,-5749,-5547,-1281,2025-01-29 10:43:31,0.0
-8668,-1596,-7172,-5171,-7064,-1786,2025-01-29 10:43:31,0.0
-5760,-3424,-5368,-2985,-7265,-2753,2025-01-29 10:43:32,0.0
-4928,-4432,-5540,-1229,-5917,-3710,2025-01-29 10:43:32,0.0
-5320,-4700,-6012,-120,-2706,-4072,2025-01-29 10:43:32,0.0
-6252,-4092,-7524,477,1387,-3960,2025-01-29 10:43:32,0.0
-8100,-2480,-8076,600,5227,-3671,2025-01-29 10:43:32,0.0
-10012,-792,-7708,392,6556,-3741,2025-01-29 10:43:32,0.0
-11896,300,-7340,-432,5733,-3840,2025-01-29 10:43:32,0.0
-12976,444,-7092,-1635,2013,-4009,2025-01-29 10:43:32,0.0
-13112,-364,-7568,-2285,-1177,-3961,2025-01-29 10:43:32,0.0
-12356,-1200,-7892,-2415,-2442,-4019,2025-01-29 10:43:32,0.0
-11384,-1516,-7568,-2339,-3039,-4036,2025-01-29 10:43:32,0.0
-10800,-1712,-6452,-2434,-2965,-3941,2025-01-29 10:43:32,0.0
-9588,-1900,-6392,-2497,-2346,-3542,2025-01-29 10:43:32,0.0
-9440,-2184,-6044,-2656,-1086,-3074,2025-01-29 10:43:32,0.0
-8944,-2548,-5624,-2861,624,-3070,2025-01-29 10:43:32,0.0
-9580,-2548,-5820,-3016,2039,-3457,2025-01-29 10:43:32,0.0
-10644,-2396,-5180,-3263,2168,-3737,2025-01-29 10:43:32,0.0
-11040,-1920,-5536,-3494,1976,-3633,2025-01-29 10:43:32,0.0
-10896,-1488,-6172,-3915,2135,-3397,2025-01-29 10:43:32,0.0
-11076,-1576,-6124,-4368,3118,-3419,2025-01-29 10:43:32,0.0
-11080,-2536,-6712,-4845,2972,-3503,2025-01-29 10:43:32,0.0
-11188,-3368,-6928,-5059,2266,-3299,2025-01-29 10:43:32,0.0
-11392,-3708,-6344,-4544,1799,-2881,2025-01-29 10:43:32,0.0
-11488,-3060,-6460,-3879,1792,-2435,2025-01-29 10:43:32,0.0
-11628,-2340,-6424,-3780,1887,-2089,2025-01-29 10:43:32,0.0
-12084,-2080,-6304,-3786,1671,-1568,2025-01-29 10:43:32,0.0
-12336,-2212,-5892,-3746,1287,-1042,2025-01-29 10:43:32,0.0
-12304,-2796,-5956,-3574,644,-582,2025-01-29 10:43:32,0.0
-12028,-3392,-5600,-3230,-68,-240,2025-01-29 10:43:32,0.0
-11328,-3228,-5428,-2707,-286,-250,2025-01-29 10:43:32,0.0
-10912,-2676,-5736,-2316,-63,-507,2025-01-29 10:43:32,0.0
-10880,-1664,-5844,-2341,263,-865,2025-01-29 10:43:32,0.0
-10936,-836,-6300,-2590,493,-1326,2025-01-29 10:43:32,0.0
-11348,308,-7104,-2886,570,-1812,2025-01-29 10:43:32,0.0
-12128,72,-7160,-3585,940,-2294,2025-01-29 10:43:32,0.0
-12316,-1280,-6056,-3996,839,-2997,2025-01-29 10:43:32,0.0
-13172,-2288,-5212,-4127,423,-3611,2025-01-29 10:43:32,0.0
-14256,-2820,-4732,-4239,250,-3524,2025-01-29 10:43:32,0.0
-14148,-2720,-6028,-3932,365,-3335,2025-01-29 10:43:32,
-13616,-3120,-8732,-3584,781,-3700,2025-01-29 10:43:32,0.0
-14396,-4796,-8512,-2592,1503,-4717,2025-01-29 10:43:32,0.0
-15904,-6396,-7604,-686,1860,-5017,2025-01-29 10:43:32,0.0
-17724,-7940,-7852,997,867,-3345,2025-01-29 10:43:32,0.0
-18568,-8192,-9052,2107,-1190,-168,2025-01-29 10:43:32,0.0
-17316,-7020,-9848,2942,-3388,3252,2025-01-29 10:43:32,0.0
-14096,-5624,-9556,2993,-4986,4534,2025-01-29 10:43:32,0.0
-11584,-3928,-8736,2536,-6321,5193,2025-01-29 10:43:32,0.0
-8744,-2304,-8376,2227,-7237,5649,2025-01-29 10:43:32,0.0
-5448,-1140,-8512,2063,-6768,5035,2025-01-29 10:43:32,0.0
-2984,-224,-8880,1672,-4774,3486,2025-01-29 10:43:32,0.0
-3064,1396,-7900,1453,58,1343,2025-01-29 10:43:32,0.0
-5728,2648,-7944,1122,4295,275,2025-01-29 10:43:32,0.0
-9368,2832,-8560,-308,6275,472,2025-01-29 10:43:32,0.0
-12084,1784,-8056,-1421,6195,748,2025-01-29 10:43:32,0.0
-14128,-576,-8760,-1967,3707,961,2025-01-29 10:43:32,0.0
-15400,-2352,-7924,-1968,490,1738,2025-01-29 10:43:32,0.0
-14832,-2544,-6784,-1127,-2314,2731,2025-01-29 10:43:32,0.0
-12928,-2504,-7320,-313,-3808,3254,2025-01-29 10:43:32,0.0
-11120,-2020,-6792,540,-4044,3606,2025-01-29 10:43:32,0.0
-9656,-1688,-6608,1257,-3746,3937,2025-01-29 10:43:33,0.0
-8956,-1220,-5368,1778,-2674,4099,2025-01-29 10:43:33,0.0
-8424,-776,-5404,2207,-1067,4014,2025-01-29 10:43:33,0.0
-8784,-96,-5600,2375,470,3705,2025-01-29 10:43:33,0.0
-9844,712,-6344,2332,863,3489,2025-01-29 10:43:33,0.0
-10936,1396,-6772,2025,525,3476,2025-01-29 10:43:33,0.0
-11312,1740,-6744,1815,-61,3379,2025-01-29 10:43:33,0.0
-11332,1820,-6556,1711,-887,3029,2025-01-29 10:43:33,0.0
-11128,1536,-6112,1730,-1789,2382,2025-01-29 10:43:33,0.0
-11040,796,-5260,1795,-2122,1490,2025-01-29 10:43:33,0.0
-10708,304,-5068,1820,-1870,1069,2025-01-29 10:43:33,0.0
-10616,-180,-4696,1963,-1124,942,2025-01-29 10:43:33,0.0
-10516,-568,-5140,2202,-238,779,2025-01-29 10:43:33,0.0
-10580,-512,-5196,2426,857,587,2025-01-29 10:43:33,0.0
-10916,-296,-4828,2797,1361,581,2025-01-29 10:43:33,0.0
-10852,-72,-5240,3217,1439,634,2025-01-29 10:43:33,0.0
-10552,200,-4972,3348,1530,450,2025-01-29 10:43:33,0.0
-10976,208,-5064,3627,1824,434,2025-01-29 10:43:33,0.0
-11576,344,-5800,3712,1864,542,2025-01-29 10:43:33,0.0
-11468,68,-5628,3711,1917,554,2025-01-29 10:43:33,0.0
-12220,-576,-4468,3901,2008,168,2025-01-29 10:43:33,0.0
-13372,-84,-5228,4570,1665,-51,2025-01-29 10:43:33,0.0
-14236,396,-4880,5078,1098,9,2025-01-29 10:43:33,0.0
-14632,156,-4836,5556,7,244,2025-01-29 10:43:33,0.0
-14264,-808,-5224,5964,-1150,939,2025-01-29 10:43:33,0.0
-13044,-1424,-5308,6185,-1334,1425,2025-01-29 10:43:33,0.0
-13072,216,-5668,5984,129,1778,2025-01-29 10:43:33,0.0
-14356,1008,-5380,5280,1625,2386,2025-01-29 10:43:33,0.0
-15620,480,-5620,4709,2758,3059,2025-01-29 10:43:33,0.0
-16508,-576,-6872,4212,3491,3635,2025-01-29 10:43:33,0.0
-16960,12,-9852,3676,3264,3972,2025-01-29 10:43:33,0.0
-17128,2496,-11644,2243,2055,4696,2025-01-29 10:43:33,0.0
-15900,4740,-10828,464,236,4939,2025-01-29 10:43:33,0.0
-13704,5080,-10860,-637,-1172,3861,2025-01-29 10:43:33,0.0
-11120,3700,-10524,-1621,-2190,1618,2025-01-29 10:43:33,0.0
-9876,580,-8820,-1835,-3273,-754,2025-01-29 10:43:33,0.0
-8632,-1520,-7328,-867,-3835,-1484,2025-01-29 10:43:33,0.0
-7728,-2508,-6960,16,-3599,-1482,2025-01-29 10:43:33,0.0
-6764,-3728,-6496,869,-2113,-1281,2025-01-29 10:43:33,0.0
-6304,-4720,-7200,1697,386,-1284,2025-01-29 10:43:33,0.0
-6940,-4560,-8816,2000,2516,-1442,2025-01-29 10:43:33,0.0
-9064,-2536,-9224,1816,3731,-1223,2025-01-29 10:43:33,0.0
-10664,-440,-8668,1122,4245,-751,2025-01-29 10:43:33,0.0
-11216,696,-8244,160,3496,-903,2025-01-29 10:43:33,0.0
-11628,524,-7228,-710,1658,-1979,2025-01-29 10:43:33,0.0
-12216,-132,-7224,-1013,156,-2948,2025-01-29 10:43:33,0.0
-12344,-992,-7384,-1200,-1242,-3348,2025-01-29 10:43:33,0.0
-11980,-1556,-7696,-1344,-2080,-3574,2025-01-29 10:43:33,0.0
-11376,-1696,-7500,-1485,-2598,-3684,2025-01-29 10:43:33,0.0
-10492,-1452,-7572,-1737,-2609,-3751,2025-01-29 10:43:33,0.0
-9816,-1332,-7372,-2135,-2124,-3913,2025-01-29 10:43:33,0.0
-9212,-1492,-6872,-2555,-1226,-4157,2025-01-29 10:43:33,0.0
-9084,-1860,-5972,-2893,-160,-4689,2025-01-29 10:43:33,0.0
-9740,-2264,-5416,-3076,510,-4904,2025-01-29 10:43:33,0.0
-10472,-2660,-5152,-3039,1105,-4741,2025-01-29 10:43:33,0.0
-11060,-2944,-4932,-2950,1428,-4392,2025-01-29 10:43:33,0.0
-11368,-3196,-5172,-2816,1535,-3909,2025-01-29 10:43:33,0.0
-11504,-3376,-5212,-2544,1358,-3292,2025-01-29 10:43:33,0.0
-11296,-3492,-5556,-2372,1200,-2714,2025-01-29 10:43:33,0.0
-11124,-2928,-5660,-2260,1272,-2231,2025-01-29 10:43:33,0.0
-11232,-2144,-6064,-2422,1307,-1777,2025-01-29 10:43:33,0.0
-11704,-1520,-6164,-2802,1141,-1416,2025-01-29 10:43:33,0.0
-12316,-1368,-6356,-3298,680,-1015,2025-01-29 10:43:34,0.0
-12372,-1472,-5852,-3705,-18,-675,2025-01-29 10:43:34,0.0
-12364,-1916,-5416,-3953,-490,-543,2025-01-29 10:43:34,0.0
-11996,-2304,-5632,-3942,-603,-466,2025-01-29 10:43:34,0.0
-11364,-2820,-5676,-3830,-431,-605,2025-01-29 10:43:34,0.0
-11444,-3056,-6040,-3801,138,-773,2025-01-29 10:43:34,0.0
-11856,-3048,-5516,-3622,833,-1157,2025-01-29 10:43:34,0.0
-12632,-2460,-5760,-3426,532,-1431,2025-01-29 10:43:34,0.0
-13272,-2460,-5420,-3336,-249,-1684,2025-01-29 10:43:34,0.0
-12784,-2844,-4644,-2931,-774,-2211,2025-01-29 10:43:34,0.0
-12728,-3088,-5000,-2742,-1427,-2762,2025-01-29 10:43:34,0.0
-12976,-2464,-4892,-2995,-1872,-2798,2025-01-29 10:43:34,0.0
-13268,-1820,-4904,-3523,-1658,-2381,2025-01-29 10:43:34,0.0
-13392,-1860,-6416,-4020,-354,-1994,2025-01-29 10:43:34,0.0
-13612,-2424,-8728,-4627,1523,-2393,2025-01-29 10:43:34,0.0
-14136,-4248,-7308,-4165,2221,-3031,2025-01-29 10:43:34,0.0
-15620,-6144,-6992,-2674,769,-2931,2025-01-29 10:43:34,0.0
-17344,-7172,-7196,-1223,-1484,-1011,2025-01-29 10:43:34,
-17476,-6508,-8248,-116,-3291,2083,2025-01-29 10:43:34,0.0
-13704,-4952,-8792,989,-4091,3015,2025-01-29 10:43:34,0.0
-11880,-3508,-8988,1434,-4851,2388,2025-01-29 10:43:34,0.0
-10740,-1464,-8312,1384,-5692,2255,2025-01-29 10:43:34,0.0
-9276,60,-7600,908,-5856,2559,2025-01-29 10:43:34,0.0
-7524,1464,-8556,118,-4510,2319,2025-01-29 10:43:34,0.0
-6932,3360,-9548,-981,-1390,1392,2025-01-29 10:43:34,0.0
-7548,3964,-9080,-1536,1345,405,2025-01-29 10:43:34,0.0
-9612,2088,-8256,-1940,2298,-508,2025-01-29 10:43:34,0.0
-11584,-40,-7820,-2026,2681,-502,2025-01-29 10:43:34,0.0
-12748,-1992,-7812,-2062,2906,-48,2025-01-29 10:43:34,0.0
-13792,-2840,-7368,-1838,1929,917,2025-01-29 10:43:34,0.0
-13376,-2652,-6732,-1265,-34,2099,2025-01-29 10:43:34,0.0
-12288,-1436,-7004,-886,-1581,2690,2025-01-29 10:43:34,0.0
-11104,-464,-6876,-556,-2270,3014,2025-01-29 10:43:34,0.0
-9960,332,-6336,-92,-2407,3017,2025-01-29 10:43:34,0.0
-9000,536,-6052,270,-1566,2724,2025-01-29 10:43:34,0.0
-9044,836,-5956,345,22,2295,2025-01-29 10:43:34,0.0
-9640,964,-5480,314,1245,1895,2025-01-29 10:43:34,0.0
-10248,716,-5276,319,1633,1494,2025-01-29 10:43:34,0.0
-11036,328,-5036,504,1550,1276,2025-01-29 10:43:34,0.0
-11320,364,-5052,784,1307,1253,2025-01-29 10:43:34,0.0
-11248,656,-5060,1067,1121,1111,2025-01-29 10:43:34,0.0
-11180,1028,-5360,1440,897,766,2025-01-29 10:43:34,0.0
-11484,960,-5500,1468,917,500,2025-01-29 10:43:34,0.0
-11760,648,-5352,1448,805,384,2025-01-29 10:43:34,0.0
-12060,168,-5364,1444,668,396,2025-01-29 10:43:34,0.0
-12044,-108,-5320,1608,577,483,2025-01-29 10:43:34,0.0
-12096,-184,-5156,1833,379,437,2025-01-29 10:43:34,0.0
-12108,-168,-4740,2115,104,478,2025-01-29 10:43:34,0.0
-12012,208,-5044,2460,-215,434,2025-01-29 10:43:34,0.0
-11876,1036,-5736,2449,-322,360,2025-01-29 10:43:34,0.0
-11820,1360,-6172,2328,-153,626,2025-01-29 10:43:34,0.0
-11236,1312,-6000,2303,401,868,2025-01-29 10:43:34,0.0
-11268,1056,-6180,2141,977,676,2025-01-29 10:43:34,0.0
-11928,768,-5888,1956,1397,542,2025-01-29 10:43:34,0.0
-12424,492,-5384,2152,1214,649,2025-01-29 10:43:34,0.0
-12956,356,-5224,2412,704,800,2025-01-29 10:43:34,0.0
-13324,136,-5508,2519,275,1043,2025-01-29 10:43:34,0.0
-13576,12,-5964,2603,-302,1330,2025-01-29 10:43:34,0.0
-13612,-492,-6932,2637,-509,1647,2025-01-29 10:43:35,0.0
-12708,-364,-7320,2526,-558,1571,2025-01-29 10:43:35,0.0
-11976,792,-7384,2490,-683,936,2025-01-29 10:43:35,0.0
-11936,1704,-8636,2418,-220,-170,2025-01-29 10:43:35,0.0
-13048,2404,-9932,1858,691,-865,2025-01-29 10:43:35,0.0
-13808,2832,-10188,945,926,-745,2025-01-29 10:43:35,0.0
-12212,1848,-8648,-5,-556,-1374,2025-01-29 10:43:35,0.0
-11248,-1236,-6996,156,-1263,-2287,2025-01-29 10:43:35,0.0
-9464,-3204,-7520,816,-1442,-2994,2025-01-29 10:43:35,0.0
-9360,-4236,-7496,1221,-1074,-3350,2025-01-29 10:43:35,0.0
-9648,-4580,-7248,1718,147,-2592,2025-01-29 10:43:35,0.0
-9628,-4484,-7492,1958,1388,-1289,2025-01-29 10:43:35,0.0
-9132,-3276,-8240,1598,2355,-263,2025-01-29 10:43:35,0.0
-9352,-2412,-8208,1183,3230,-322,2025-01-29 10:43:35,0.0
-10212,-1764,-7784,1004,3888,-682,2025-01-29 10:43:35,0.0
-11260,-1400,-7364,998,4185,-1126,2025-01-29 10:43:35,0.0
-12208,-1456,-7072,949,3678,-1601,2025-01-29 10:43:35,0.0
-12732,-2000,-7328,853,2228,-1871,2025-01-29 10:43:35,0.0
-12352,-2668,-6980,843,839,-2084,2025-01-29 10:43:35,0.0
-11536,-3252,-7308,959,256,-2139,2025-01-29 10:43:35,0.0
-10728,-3528,-7620,1113,239,-1855,2025-01-29 10:43:35,0.0
-10040,-2720,-7736,1075,870,-1453,2025-01-29 10:43:35,0.0
-9416,-2164,-7440,505,1817,-1338,2025-01-29 10:43:35,0.0
-9808,-1764,-6908,26,2751,-1274,2025-01-29 10:43:35,0.0
-10200,-2112,-6884,-185,3342,-1216,2025-01-29 10:43:35,0.0
-10884,-2420,-7096,-456,3485,-1324,2025-01-29 10:43:35,0.0
-11980,-2820,-7288,-608,3227,-1380,2025-01-29 10:43:35,0.0
-12896,-2864,-7384,-953,2254,-1184,2025-01-29 10:43:35,0.0
-12848,-2964,-7244,-1167,919,-1065,2025-01-29 10:43:35,0.0
-12444,-2528,-7228,-1289,-159,-952,2025-01-29 10:43:35,0.0
-11756,-2032,-7424,-1566,-810,-767,2025-01-29 10:43:35,0.0
-11288,-2104,-6872,-1734,-1041,-500,2025-01-29 10:43:35,0.0
-10776,-2336,-6660,-1917,-715,-213,2025-01-29 10:43:35,0.0
-10292,-2808,-6424,-1905,-56,12,2025-01-29 10:43:35,0.0
-10508,-3064,-6468,-1847,660,125,2025-01-29 10:43:35,0.0
-11108,-3120,-6412,-2047,834,143,2025-01-29 10:43:35,0.0
-11824,-2972,-6652,-2378,320,417,2025-01-29 10:43:35,0.0
-11728,-2896,-7076,-2766,-305,786,2025-01-29 10:43:35,0.0
-11332,-2140,-8076,-2972,-569,800,2025-01-29 10:43:35,0.0
-11060,-1944,-8460,-3338,-316,798,2025-01-29 10:43:35,0.0
-11156,-1752,-7712,-2966,49,837,2025-01-29 10:43:35,0.0
-11072,-1900,-7976,-2401,452,987,2025-01-29 10:43:35,0.0
-10604,-2520,-7484,-1774,543,911,2025-01-29 10:43:35,0.0
-10512,-2920,-7604,-1115,428,982,2025-01-29 10:43:35,0.0
-9384,-3292,-8376,-324,1097,1034,2025-01-29 10:43:35,0.0
-8808,-3308,-8472,340,2097,829,2025-01-29 10:43:35,0.0
-8108,-3044,-9248,832,2973,704,2025-01-29 10:43:35,0.0
-7468,-2804,-9540,893,3649,521,2025-01-29 10:43:35,0.0
-7348,-1672,-8892,1017,4090,413,2025-01-29 10:43:35,0.0
-7352,-704,-9012,807,4275,601,2025-01-29 10:43:35,0.0
-7012,-12,-8640,565,4230,617,2025-01-29 10:43:35,0.0
-6540,648,-8012,354,3770,430,2025-01-29 10:43:35,0.0
-6048,844,-7352,143,2852,309,2025-01-29 10:43:35,0.0
-5000,552,-6360,212,1860,305,2025-01-29 10:43:35,0.0
-4552,72,-1960,669,734,866,2025-01-29 10:43:35,0.0
-5180,32,-1792,203,1801,907,2025-01-29 10:43:35,0.0
-5388,56,-1032,-624,3011,673,2025-01-29 10:43:35,0.0
-6396,-256,-408,-407,4064,38,2025-01-29 10:43:35,0.0
-8376,-624,-2932,272,4702,-611,2025-01-29 10:43:35,0.0
-11920,84,-7512,-696,5348,-503,2025-01-29 10:43:35,
-13460,2188,-10184,-2522,5236,-399,2025-01-29 10:43:35,0.0
-15052,3932,-9908,-3324,2841,-691,2025-01-29 10:43:35,0.0
-17604,3640,-9088,-2787,-727,-741,2025-01-29 10:43:36,0.0
-19532,1160,-8864,-2503,-3938,-467,2025-01-29 10:43:36,0.0
-18736,-1332,-12576,-2269,-6601,-408,2025-01-29 10:43:36,0.0
-17420,-2384,-14008,-2413,-6319,-309,2025-01-29 10:43:36,0.0
-17620,-2680,-12444,-1629,-4909,-172,2025-01-29 10:43:36,0.0
-19292,-2888,-12248,-521,-3038,336,2025-01-29 10:43:36,0.0
-19992,-3172,-14572,451,-915,659,2025-01-29 10:43:36,0.0
-20372,-3208,-15704,1444,-2128,1044,2025-01-29 10:43:36,0.0
-21464,-3124,-15736,2055,-2874,1251,2025-01-29 10:43:36,0.0
-21408,-2656,-14392,2526,-1041,975,2025-01-29 10:43:36,0.0
-22528,-1780,-15172,3483,2925,-194,2025-01-29 10:43:36,0.0
-32768,2504,-18984,769,27018,-1941,2025-01-29 10:43:36,0.0
-32768,1372,-22168,863,32767,-1559,2025-01-29 10:43:36,0.0
-29768,-1376,-28980,363,32767,-2564,2025-01-29 10:43:36,0.0
-21384,-2584,-32768,-434,32767,-5698,2025-01-29 10:43:36,0.0
-12624,-2160,-32768,-123,32767,-7616,2025-01-29 10:43:36,0.0
-5312,-2312,-32768,661,32767,-6220,2025-01-29 10:43:36,0.0
-2164,-1832,-32768,-915,-3331,-2556,2025-01-29 10:43:36,0.0
-2720,432,-24524,-4016,-32768,1189,2025-01-29 10:43:36,0.0
736,748,-11012,-4840,-32768,5271,2025-01-29 10:43:36,0.0
7456,-1944,-10652,-6229,-32768,7213,2025-01-29 10:43:36,0.0
32767,-10492,-32768,-2752,-32768,6703,2025-01-29 10:43:36,0.0
-11196,-3028,8000,-673,-32768,6738,2025-01-29 10:43:36,0.0
-6308,-4556,-27088,-2150,-32768,8461,2025-01-29 10:43:36,0.0
-4860,-3556,-29732,-1861,-29978,8943,2025-01-29 10:43:36,0.0
10308,-3300,-17300,-4429,-28854,9291,2025-01-29 10:43:36,0.0
27176,-340,7812,-9011,-32768,11066,2025-01-29 10:43:36,0.0
32767,3952,16964,-9003,-32768,7745,2025-01-29 10:43:36,0.0
29216,580,18616,-44,-32768,1783,2025-01-29 10:43:36,0.0
15252,-4064,-8596,3002,-21662,-4543,2025-01-29 10:43:36,0.0
4348,-5328,-16720,587,-2771,-5490,2025-01-29 10:43:36,0.0
704,-4256,-14760,-2137,19765,-3764,2025-01-29 10:43:36,0.0
1548,-2572,-9160,-2649,32767,-2263,2025-01-29 10:43:36,0.0
-17020,1900,32767,1462,32767,-1689,2025-01-29 10:43:36,0.0
5276,5052,19080,5946,32767,-907,2025-01-29 10:43:36,0.0
3908,2288,4596,6188,20289,-310,2025-01-29 10:43:36,0.0
-3020,552,-5712,1279,-557,-2176,2025-01-29 10:43:36,0.0
-7016,-736,-3212,-2909,1568,-4581,2025-01-29 10:43:36,0.0
-5312,-1636,3796,-3706,700,-5949,2025-01-29 10:43:36,0.0
-3788,-1372,4812,-1639,-13403,-4237,2025-01-29 10:43:36,0.0
-3460,-476,3180,-995,-19819,-1120,2025-01-29 10:43:36,0.0
-4068,996,3960,-1065,-17611,2020,2025-01-29 10:43:36,0.0
984,588,-56,-1288,-11094,4464,2025-01-29 10:43:36,0.0
5908,40,-2404,-1316,-8467,4887,2025-01-29 10:43:36,0.0
10268,-156,400,-937,-10129,2585,2025-01-29 10:43:36,0.0
1208,-184,-4168,185,5688,-789,2025-01-29 10:43:36,0.0
-2724,-660,-17404,659,30366,-4890,2025-01-29 10:43:36,0.0
-13740,608,4824,4047,32767,-8204,2025-01-29 10:43:36,0.0
-12084,-3724,11628,10255,32767,-9705,2025-01-29 10:43:36,0.0
-4304,-5036,-25200,12735,32767,-11227,2025-01-29 10:43:36,0.0
-20908,-4248,-32768,7118,32767,-22852,2025-01-29 10:43:36,0.0
-32768,2932,-32768,1704,32767,-32768,2025-01-29 10:43:36,0.0
-32768,-22868,-32768,-6950,32767,-2772,2025-01-29 10:43:36,0.0
7832,-7388,-32768,829,9890,5313,2025-01-29 10:43:36,0.0
8356,-1108,-32768,1368,-32768,10795,2025-01-29 10:43:36,0.0
-3684,1960,-27040,1681,-32768,13780,2025-01-29 10:43:36,0.0
-4584,348,-15996,-1273,-32768,10525,2025-01-29 10:43:36,0.0
-13960,3516,-9008,-9657,-32768,8679,2025-01-29 10:43:37,0.0
8644,-2604,10324,-23175,-32768,7285,2025-01-29 10:43:37,0.0
1640,-2020,4864,-14069,-6172,2769,2025-01-29 10:43:37,0.0
-2984,-5968,-4860,541,22690,-502,2025-01-29 10:43:37,0.0
-9268,-6480,-15476,9031,32767,-1022,2025-01-29 10:43:37,0.0
-16684,-8188,-5424,2884,32767,-2877,2025-01-29 10:43:37,0.0
-23348,-1652,5360,-557,22720,-4668,2025-01-29 10:43:37,0.0
-29204,584,4332,2312,12780,-4205,2025-01-29 10:43:37,0.0
-26108,224,-5464,2895,2081,-1339,2025-01-29 10:43:37,0.0
-19088,452,-8076,2140,-13061,1516,2025-01-29 10:43:37,0.0
-13176,-232,-7252,483,-30519,2567,2025-01-29 10:43:37,0.0
-7324,724,-432,-4080,-13245,2127,2025-01-29 10:43:37,0.0
-1208,-992,1700,-3259,-7229,435,2025-01-29 10:43:37,0.0
6560,-196,4808,-1929,-5555,-1040,2025-01-29 10:43:37,0.0
-360,-2300,-2932,1301,13271,-2394,2025-01-29 10:43:37,0.0
-5472,-2800,-3072,2120,17156,-3222,2025-01-29 10:43:37,0.0
-10796,-2716,-3312,2274,17537,-3554,2025-01-29 10:43:37,0.0
-16572,-2908,-4120,2153,16679,-3047,2025-01-29 10:43:37,0.0
-20628,-2840,-4864,2101,13377,-1518,2025-01-29 10:43:37,0.0
-23228,-2464,-4404,2220,6365,981,2025-01-29 10:43:37,0.0
-20292,-2048,-3820,2406,-1969,2679,2025-01-29 10:43:37,0.0
-16524,-1924,-3388,2731,-7555,2154,2025-01-29 10:43:37,0.0
-12352,-2000,-3668,2788,-5261,779,2025-01-29 10:43:37,0.0
-12092,-1480,-3456,3188,-2855,524,2025-01-29 10:43:37,0.0
-12452,-376,-4312,3118,-388,687,2025-01-29 10:43:37,0.0
-12536,292,-4576,2261,121,691,2025-01-29 10:43:37,0.0
-13900,784,-2948,983,-1007,1027,2025-01-29 10:43:37,0.0
-13860,580,-2448,335,-2878,1052,2025-01-29 10:43:37,0.0
-13208,-180,-3120,-147,-4090,668,2025-01-29 10:43:37,0.0
-12396,-1384,-3368,-379,-3786,446,2025-01-29 10:43:37,0.0
-12028,-2424,-3144,-123,-2072,100,2025-01-29 10:43:37,0.0
-11824,-3124,-3648,241,-539,46,2025-01-29 10:43:37,0.0
-12076,-3224,-3204,578,407,48,2025-01-29 10:43:37,0.0
-12904,-2680,-2880,765,774,86,2025-01-29 10:43:37,0.0
-13332,-2032,-2704,1029,408,197,2025-01-29 10:43:37,0.0
-13336,-1468,-3168,1188,-245,219,2025-01-29 10:43:37,0.0
-13244,-1136,-3428,1219,-635,212,2025-01-29 10:43:37,0.0
-13052,-1308,-3716,1268,-606,272,2025-01-29 10:43:37,0.0
-12748,-1660,-3524,1378,-350,279,2025-01-29 10:43:37,0.0
-12860,-1644,-3448,1471,-220,238,2025-01-29 10:43:37,0.0
-12792,-1568,-3848,1391,-189,197,2025-01-29 10:43:37,
-12644,-1660,-3904,1242,-216,248,2025-01-29 10:43:37,0.0
-12360,-1644,-4036,1096,163,278,2025-01-29 10:43:37,0.0
-12716,-1300,-4164,861,532,180,2025-01-29 10:43:37,0.0
-13016,-1072,-4112,560,461,189,2025-01-29 10:43:37,0.0
-13196,-1424,-3896,351,146,210,2025-01-29 10:43:37,0.0
-13268,-1432,-3608,354,-67,112,2025-01-29 10:43:37,0.0
-12940,-1372,-3956,340,-135,8,2025-01-29 10:43:37,0.0
-12720,-1340,-3772,332,43,8,2025-01-29 10:43:37,0.0
-12764,-1568,-3632,506,366,39,2025-01-29 10:43:37,0.0
-12968,-1712,-3980,406,237,60,2025-01-29 10:43:37,0.0
-13100,-1540,-3916,278,142,-10,2025-01-29 10:43:37,0.0
-13292,-1556,-3864,158,-11,-28,2025-01-29 10:43:37,0.0
-13088,-1076,-3988,60,-309,-103,2025-01-29 10:43:37,0.0
-12616,-328,-3880,-405,-290,-204,2025-01-29 10:43:38,0.0
-12328,-148,-3808,-862,-99,-340,2025-01-29 10:43:38,0.0
-12436,-620,-3896,-1048,35,-614,2025-01-29 10:43:38,0.0
-12652,-784,-4264,-1415,295,-896,2025-01-29 10:43:38,0.0
-12952,-648,-4132,-1756,452,-1127,2025-01-29 10:43:38,0.0
-13392,-396,-4120,-2128,274,-1233,2025-01-29 10:43:38,0.0
-13304,-372,-4088,-2569,-159,-1310,2025-01-29 10:43:38,0.0
-12960,-72,-4676,-2930,-575,-1433,2025-01-29 10:43:38,0.0
-12648,-392,-4380,-3376,-684,-1565,2025-01-29 10:43:38,0.0
-12216,-1136,-4136,-4020,-6,-1619,2025-01-29 10:43:38,0.0
-12284,-1340,-3800,-4433,26,-1553,2025-01-29 10:43:38,0.0
-12348,-1160,-3400,-4802,139,-1447,2025-01-29 10:43:38,0.0
-12292,-928,-4016,-5281,586,-1465,2025-01-29 10:43:38,0.0
-12312,-916,-4392,-5960,1277,-1680,2025-01-29 10:43:38,0.0
-12480,-856,-4568,-6619,2010,-2200,2025-01-29 10:43:38,0.0
-13132,-728,-4252,-7291,2142,-2707,2025-01-29 10:43:38,0.0
-13404,-1828,-4444,-9561,-1444,-4033,2025-01-29 10:43:38,0.0
-12456,-1720,-4452,-9875,-1220,-4334,2025-01-29 10:43:38,0.0
-11992,-2240,-4020,-10437,-414,-4671,2025-01-29 10:43:38,0.0
-12676,-2192,-4020,-10679,-472,-4759,2025-01-29 10:43:38,0.0
-13048,-2084,-4028,-10812,-918,-4750,2025-01-29 10:43:38,0.0
-13032,-2332,-4468,-11086,-1397,-4670,2025-01-29 10:43:38,0.0
-12352,-2684,-4392,-11371,-1430,-4645,2025-01-29 10:43:38,0.0
-12308,-2732,-3920,-11570,-1013,-4713,2025-01-29 10:43:38,0.0
-12448,-2844,-3812,-11714,-858,-4697,2025-01-29 10:43:38,0.0
-12848,-2980,-3880,-11843,-1118,-4599,2025-01-29 10:43:38,0.0
-13132,-3104,-3660,-11852,-1249,-4365,2025-01-29 10:43:38,0.0
-13004,-2980,-4212,-11794,-1352,-3887,2025-01-29 10:43:38,0.0
-12276,-2528,-4444,-11969,-1235,-3310,2025-01-29 10:43:38,0.0
-11580,-2820,-4344,-12250,-564,-2817,2025-01-29 10:43:38,0.0
-11180,-3104,-4100,-12509,511,-2710,2025-01-29 10:43:38,0.0
-11448,-3760,-4248,-12835,1273,-2880,2025-01-29 10:43:38,0.0
-12580,-3548,-4252,-12955,1524,-3136,2025-01-29 10:43:38,0.0
-13480,-3572,-4356,-13126,1342,-3097,2025-01-29 10:43:38,0.0
-13488,-3704,-4392,-13095,888,-3173,2025-01-29 10:43:41,0.0
-13360,-3380,-4616,-13161,820,-3474,2025-01-29 10:43:41,0.0
-13312,-2924,-4568,-13433,588,-3789,2025-01-29 10:43:41,0.0
-13316,-2612,-4420,-13880,46,-4029,2025-01-29 10:43:41,0.0
-12504,-2768,-4656,-15666,-2090,-4710,2025-01-29 10:43:41,0.0
-12372,-3100,-4304,-16332,-2341,-4842,2025-01-29 10:43:41,0.0
-12260,-3456,-3496,-16834,-2307,-4641,2025-01-29 10:43:41,0.0
-15528,984,-4368,-15692,218,-4773,2025-01-29 10:43:41,0.0
-14760,1212,-4308,-15643,-747,-3662,2025-01-29 10:43:41,0.0
-17396,1240,-4208,4575,2189,2268,2025-01-29 10:43:41,0.0
-17888,1280,-6468,3715,2501,2933,2025-01-29 10:43:41,0.0
-18352,1388,-6912,2420,1964,2682,2025-01-29 10:43:41,0.0
-17156,1676,-7028,852,676,2004,2025-01-29 10:43:41,0.0
-15272,1696,-6472,-575,-868,1141,2025-01-29 10:43:41,0.0
-13604,1112,-6592,-1658,-2180,713,2025-01-29 10:43:41,0.0
-11728,248,-7204,-2610,-2846,579,2025-01-29 10:43:41,0.0
-9484,-284,-6748,-2856,-2766,-34,2025-01-29 10:43:41,0.0
-7932,-1376,-5804,-2262,-1850,-1270,2025-01-29 10:43:41,0.0
-8420,-1360,-4688,-1122,123,-2334,2025-01-29 10:43:41,0.0
-9808,-956,-4820,-74,1555,-2820,2025-01-29 10:43:41,0.0
-11256,-764,-6244,64,1902,-3317,2025-01-29 10:43:41,0.0
-12436,-680,-6252,-526,1484,-3575,2025-01-29 10:43:41,0.0
-13020,-920,-5264,-716,565,-3606,2025-01-29 10:43:41,0.0
-13248,-1152,-4952,-748,-230,-3381,2025-01-29 10:43:41,0.0
-12488,-1304,-4772,-761,-443,-3112,2025-01-29 10:43:41,0.0
-11960,-1552,-4752,-645,-354,-3004,2025-01-29 10:43:41,0.0
-11416,-1640,-4508,-361,-284,-2918,2025-01-29 10:43:41,0.0
-10856,-1648,-4328,-95,-144,-2829,2025-01-29 10:43:41,0.0
-10908,-1520,-4552,-4,59,-2667,2025-01-29 10:43:41,0.0
-11036,-1328,-4328,65,329,-2641,2025-01-29 10:43:41,0.0
-11188,-1208,-4028,-29,732,-2757,2025-01-29 10:43:41,0.0
-11676,-1648,-3688,-283,969,-2904,2025-01-29 10:43:41,0.0
-12384,-2032,-3536,-615,913,-2945,2025-01-29 10:43:41,0.0
-12988,-2096,-3260,-756,692,-2629,2025-01-29 10:43:41,0.0
-12796,-1924,-3192,-827,393,-2167,2025-01-29 10:43:41,0.0
-12016,-1636,-2984,-905,293,-2007,2025-01-29 10:43:41,0.0
-11704,-1688,-3212,-1052,365,-2207,2025-01-29 10:43:41,0.0
-11928,-1616,-3368,-1193,574,-2296,2025-01-29 10:43:41,0.0
-12100,-1776,-3400,-1311,766,-2197,2025-01-29 10:43:41,0.0
-12420,-1808,-3148,-1478,707,-1972,2025-01-29 10:43:41,0.0
-12744,-1908,-3036,-1703,507,-1680,2025-01-29 10:43:41,0.0
-13020,-1352,-2976,-1965,461,-1181,2025-01-29 10:43:41,0.0
-12800,-1236,-3012,-2398,534,-516,2025-01-29 10:43:41,0.0
-12216,-1348,-2716,-2721,635,-90,2025-01-29 10:43:41,0.0
-12224,-1352,-2564,-3031,920,145,2025-01-29 10:43:41,0.0
-12220,-2032,-2928,-3447,1164,235,2025-01-29 10:43:42,0.0
-12068,-2088,-3020,-3610,832,-121,2025-01-29 10:43:42,0.0
-12752,-2068,-3216,-3870,596,-673,2025-01-29 10:43:42,0.0
-13288,-1000,-2872,-4157,495,-992,2025-01-29 10:43:42,0.0
-13984,-532,-3324,-4486,385,-1300,2025-01-29 10:43:42,0.0
-13916,-1412,-2840,-4798,82,-1876,2025-01-29 10:43:42,0.0
-14476,-2956,-2120,-4919,-765,-2602,2025-01-29 10:43:42,0.0
-15196,-4040,-1936,-5124,-1612,-2802,2025-01-29 10:43:42,
-15564,-3820,-1408,-5187,-1840,-2271,2025-01-29 10:43:42,0.0
-14576,-2912,-1396,-4705,-1540,-1447,2025-01-29 10:43:42,0.0
-13772,-3132,-3420,-4243,-665,-2029,2025-01-29 10:43:42,0.0
-14332,-4244,-4648,-4267,572,-3557,2025-01-29 10:43:42,0.0
-16248,-5500,-3004,-3413,692,-4991,2025-01-29 10:43:42,0.0
-19204,-6484,-1644,-1752,-1142,-4819,2025-01-29 10:43:42,0.0
-21256,-6712,-1192,-130,-4073,-2017,2025-01-29 10:43:42,0.0
-19696,-5448,-3072,1067,-6562,2029,2025-01-29 10:43:42,0.0
-15176,-3116,-5244,1754,-6867,3360,2025-01-29 10:43:42,0.0
-12232,-1924,-7684,1023,-6039,3451,2025-01-29 10:43:42,0.0
-9832,-1176,-8024,7,-4235,3557,2025-01-29 10:43:42,0.0
-6836,-504,-7496,-696,-1447,3137,2025-01-29 10:43:42,0.0
-6380,372,-6952,-957,1310,2106,2025-01-29 10:43:42,0.0
-7448,1044,-6924,-1334,3592,989,2025-01-29 10:43:42,0.0
-9708,1508,-6340,-1607,4783,119,2025-01-29 10:43:42,0.0
-13632,1408,-5932,-1496,4961,165,2025-01-29 10:43:42,0.0
-15532,248,-6000,-1410,3960,1027,2025-01-29 10:43:42,0.0
-16152,-1384,-5000,-1428,1755,2207,2025-01-29 10:43:42,0.0
-15248,-2512,-3900,-1085,-149,3010,2025-01-29 10:43:42,0.0
-14008,-3068,-4164,-520,-1594,3335,2025-01-29 10:43:42,0.0
-12756,-2600,-4352,15,-2141,3510,2025-01-29 10:43:42,0.0
-11592,-1336,-4140,567,-2064,3424,2025-01-29 10:43:42,0.0
-10680,76,-4388,668,-1619,3061,2025-01-29 10:43:42,0.0
-10720,1340,-4344,563,-816,2610,2025-01-29 10:43:42,0.0
-11236,1752,-3304,456,41,2441,2025-01-29 10:43:42,0.0
-11268,1468,-2988,418,676,2317,2025-01-29 10:43:42,0.0
-11748,788,-2620,463,682,2058,2025-01-29 10:43:42,0.0
-11936,348,-2140,575,140,1817,2025-01-29 10:43:42,0.0
-11948,-144,-2400,798,-566,1598,2025-01-29 10:43:42,0.0
-11880,-576,-2512,1192,-874,1331,2025-01-29 10:43:42,0.0
-12100,-344,-2528,1625,-879,1203,2025-01-29 10:43:42,0.0
-12080,132,-2740,1825,-1029,1138,2025-01-29 10:43:42,0.0
-11424,544,-2868,1905,-1254,830,2025-01-29 10:43:42,0.0
-11132,736,-2888,1925,-1276,382,2025-01-29 10:43:42,0.0
-11144,616,-2284,2011,-1029,57,2025-01-29 10:43:42,0.0
-11364,264,-1916,2265,-818,-130,2025-01-29 10:43:42,0.0
-11584,-144,-1472,2604,-427,-253,2025-01-29 10:43:42,0.0
-12464,-168,-1272,3195,-218,-333,2025-01-29 10:43:42,0.0
-13028,8,-1360,3628,-176,-391,2025-01-29 10:43:42,0.0
-13728,432,-1500,3728,-632,-416,2025-01-29 10:43:42,0.0
-14044,1008,-1292,3681,-1150,-487,2025-01-29 10:43:42,0.0
-14072,1252,-1192,3601,-1553,-613,2025-01-29 10:43:42,0.0
-13720,792,-1324,3764,-1480,-821,2025-01-29 10:43:42,0.0
-13252,-160,-1400,3929,-771,-898,2025-01-29 10:43:42,0.0
-12540,-852,-1120,4161,286,-675,2025-01-29 10:43:42,0.0
-12896,-1212,-564,4424,2363,-135,2025-01-29 10:43:42,0.0
-13784,-1560,144,4727,3624,361,2025-01-29 10:43:42,0.0
-14956,-1668,-348,4956,3850,540,2025-01-29 10:43:42,0.0
-16024,-764,-760,5026,3285,1062,2025-01-29 10:43:42,0.0
-16664,-412,-1892,5310,2954,1339,2025-01-29 10:43:42,0.0
-17716,-96,-4480,4885,3031,1602,2025-01-29 10:43:42,0.0
-19244,1000,-6428,3838,3212,2356,2025-01-29 10:43:42,0.0
-19864,2448,-7876,2297,2706,3319,2025-01-29 10:43:42,0.0
-18904,3192,-8188,364,985,3812,2025-01-29 10:43:43,0.0
-15804,2800,-7812,-1431,-762,2966,2025-01-29 10:43:43,0.0
-13084,1632,-6152,-2190,-1725,1441,2025-01-29 10:43:43,0.0
-11300,412,-5364,-2103,-2645,247,2025-01-29 10:43:43,0.0
-9428,-800,-4648,-1533,-3097,-629,2025-01-29 10:43:43,0.0
-7748,-1984,-4352,-214,-2690,-1501,2025-01-29 10:43:43,0.0
-7380,-3048,-5108,874,-1712,-2470,2025-01-29 10:43:43,0.0
-8344,-3880,-5988,1309,80,-2871,2025-01-29 10:43:43,0.0
-10636,-3728,-5248,1745,2821,-2439,2025-01-29 10:43:43,0.0
-12316,-2336,-5192,2232,4189,-1415,2025-01-29 10:43:43,0.0
-13684,-708,-5096,2226,4137,-694,2025-01-29 10:43:43,0.0
-14284,-92,-4868,1473,2728,-601,2025-01-29 10:43:43,0.0
-14092,-124,-4748,552,304,-1119,2025-01-29 10:43:43,0.0
-14228,-712,-4360,-272,-2040,-1896,2025-01-29 10:43:43,0.0
-13616,-888,-4148,-442,-3122,-2527,2025-01-29 10:43:43,0.0
-12580,-1044,-4416,-496,-3859,-2811,2025-01-29 10:43:43,0.0
-10884,-1112,-4776,-738,-3919,-3042,2025-01-29 10:43:43,0.0
-9672,-1284,-4632,-1239,-2821,-3386,2025-01-29 10:43:43,0.0
-9340,-1528,-4392,-1633,-1249,-3598,2025-01-29 10:43:43,0.0
-9840,-1688,-4120,-2077,608,-3544,2025-01-29 10:43:43,0.0
-10624,-1852,-3456,-2461,1965,-3277,2025-01-29 10:43:43,0.0
-11676,-1828,-3084,-2663,2407,-2979,2025-01-29 10:43:43,0.0
-12284,-1956,-3412,-2726,2020,-2769,2025-01-29 10:43:43,0.0
-13076,-2180,-3632,-2714,1666,-2665,2025-01-29 10:43:43,0.0
-13296,-2424,-3904,-2857,1422,-2436,2025-01-29 10:43:43,0.0
-13472,-2732,-3124,-2886,1125,-2058,2025-01-29 10:43:43,0.0
-13160,-2508,-2432,-2616,791,-1371,2025-01-29 10:43:43,0.0
-12836,-2080,-2748,-2432,676,-767,2025-01-29 10:43:43,0.0
-12684,-1568,-2804,-2580,687,-513,2025-01-29 10:43:43,0.0
-12704,-1340,-2748,-2841,925,-165,2025-01-29 10:43:43,0.0
-12736,-1436,-2404,-2991,1229,232,2025-01-29 10:43:43,0.0
-13196,-2160,-1856,-2924,1032,521,2025-01-29 10:43:43,0.0
-13676,-2912,-1460,-2672,196,622,2025-01-29 10:43:43,0.0
-13788,-3060,-1464,-2391,-733,365,2025-01-29 10:43:43,0.0
-13624,-2768,-2000,-2243,-1453,-11,2025-01-29 10:43:43,0.0
-13372,-1924,-2096,-2187,-1781,-335,2025-01-29 10:43:43,0.0
-13256,-1384,-2440,-2244,-1790,-188,2025-01-29 10:43:43,0.0
-12804,-1920,-2600,-2348,-1310,-211,2025-01-29 10:43:43,0.0
-12908,-2316,-2444,-2594,-1117,-685,2025-01-29 10:43:43,0.0
-13308,-2252,-1928,-2936,-1287,-1224,2025-01-29 10:43:43,0.0
-13452,-1804,-1596,-3238,-1500,-1557,2025-01-29 10:43:43,0.0
-13412,-1244,-1572,-3781,-1681,-1897,2025-01-29 10:43:43,0.0
-13332,-1384,-1728,-4509,-1881,-2331,2025-01-29 10:43:43,0.0
-14016,-2264,-2384,-4564,-1556,-2692,2025-01-29 10:43:43,0.0
-14636,-3916,-2200,-4128,-655,-3160,2025-01-29 10:43:43,0.0
-15376,-5760,-1876,-2995,-238,-3795,2025-01-29 10:43:43,0.0
-17972,-7544,-1404,-1539,-507,-3276,2025-01-29 10:43:43,
-19888,-7924,-1644,-78,-1400,-638,2025-01-29 10:43:43,0.0
-17988,-5772,-2304,1446,-2397,1864,2025-01-29 10:43:43,0.0
-15716,-3932,-4408,2321,-2800,1811,2025-01-29 10:43:43,0.0
-14856,-2360,-5060,1986,-2712,1594,2025-01-29 10:43:43,0.0
-14244,-964,-4852,1755,-2849,2169,2025-01-29 10:43:43,0.0
-12812,-396,-5680,1508,-2500,3631,2025-01-29 10:43:43,0.0
-10152,320,-7032,1059,-1401,4171,2025-01-29 10:43:43,0.0
-8316,1500,-7336,120,965,3516,2025-01-29 10:43:43,0.0
-7620,2116,-6660,-626,2722,2267,2025-01-29 10:43:43,0.0
-8360,2204,-5888,-1138,3728,886,2025-01-29 10:43:43,0.0
-10656,1284,-5280,-1376,4202,148,2025-01-29 10:43:43,0.0
-13032,288,-4644,-1229,4181,193,2025-01-29 10:43:43,0.0
-14592,-932,-4204,-1013,3780,615,2025-01-29 10:43:43,0.0
-15900,-1088,-3680,-753,2765,1320,2025-01-29 10:43:43,0.0
-16552,-768,-3216,-398,869,2127,2025-01-29 10:43:44,0.0
-15584,-160,-4408,-94,-1621,2854,2025-01-29 10:43:44,0.0
-13608,200,-4172,-56,-2462,3385,2025-01-29 10:43:44,0.0
-11452,304,-4376,14,-2399,3162,2025-01-29 10:43:44,0.0
-10332,500,-3696,-23,-1360,2694,2025-01-29 10:43:44,0.0
-10332,384,-3108,105,119,2223,2025-01-29 10:43:44,0.0
-10872,248,-1980,379,1306,1811,2025-01-29 10:43:44,0.0
-11004,144,-2000,767,1791,1504,2025-01-29 10:43:44,0.0
-11744,544,-2424,1058,1780,1385,2025-01-29 10:43:44,0.0
-12056,976,-2568,1310,1401,1210,2025-01-29 10:43:44,0.0
-12216,1160,-2820,1545,1075,840,2025-01-29 10:43:44,0.0
-12244,1228,-2880,1619,829,396,2025-01-29 10:43:44,0.0
-12112,1016,-3224,1592,818,107,2025-01-29 10:43:44,0.0
-12468,600,-2912,1692,951,-181,2025-01-29 10:43:44,0.0
-12536,316,-2972,1633,985,-414,2025-01-29 10:43:44,0.0
-12456,20,-2840,1692,984,-611,2025-01-29 10:43:44,0.0
-12964,-308,-2652,1935,1172,-743,2025-01-29 10:43:44,0.0
-13108,-492,-2508,2221,1191,-813,2025-01-29 10:43:44,0.0
-13296,-520,-2416,2488,1150,-789,2025-01-29 10:43:44,0.0
-13140,-228,-2348,2884,951,-839,2025-01-29 10:43:44,0.0
-13496,-136,-2068,3234,724,-806,2025-01-29 10:43:44,0.0
-13532,180,-2112,3661,555,-652,2025-01-29 10:43:44,0.0
-13564,468,-2688,3986,102,-401,2025-01-29 10:43:44,0.0
-13244,500,-2296,4010,-206,-298,2025-01-29 10:43:44,0.0
-13384,520,-2404,4055,-324,-295,2025-01-29 10:43:44,0.0
-13644,236,-2144,4232,-406,-215,2025-01-29 10:43:44,0.0
-13748,-88,-1628,4553,-473,-157,2025-01-29 10:43:44,0.0
-14020,-580,-1984,4519,-785,-167,2025-01-29 10:43:44,0.0
-13912,-972,-2608,4667,-1090,-234,2025-01-29 10:43:44,0.0
-14028,-532,-4040,4715,-796,-182,2025-01-29 10:43:44,0.0
-14016,40,-5212,4188,-665,-75,2025-01-29 10:43:44,0.0
-14764,388,-6428,3323,-528,162,2025-01-29 10:43:44,0.0
-16212,516,-7412,2527,341,939,2025-01-29 10:43:44,0.0
-17008,1072,-7908,1702,840,2442,2025-01-29 10:43:44,0.0
-14936,760,-6260,952,-239,3073,2025-01-29 10:43:44,0.0
-11656,-512,-4572,777,-996,1716,2025-01-29 10:43:44,0.0
-10976,-1604,-4544,1743,-516,-907,2025-01-29 10:43:44,0.0
-11520,-1584,-4828,2642,-494,-1551,2025-01-29 10:43:44,0.0
-11140,-1760,-4540,3036,-614,-1831,2025-01-29 10:43:44,0.0
-10988,-1608,-4184,2955,-430,-1978,2025-01-29 10:43:44,0.0
-11336,-1288,-4716,2500,-589,-1864,2025-01-29 10:43:44,0.0
-11608,-1280,-4972,1916,-606,-1655,2025-01-29 10:43:44,0.0
-11812,-1804,-4484,1637,70,-1489,2025-01-29 10:43:44,0.0
-12412,-2252,-3824,1653,1179,-1128,2025-01-29 10:43:44,0.0
-12756,-2444,-3540,1569,1580,-976,2025-01-29 10:43:44,0.0
-13328,-2540,-3572,1272,1358,-1143,2025-01-29 10:43:44,0.0
-13900,-2196,-3592,1125,1057,-1433,2025-01-29 10:43:44,0.0
-13984,-1888,-4004,743,469,-1641,2025-01-29 10:43:44,0.0
-13600,-1680,-4188,165,-449,-1593,2025-01-29 10:43:44,0.0
-12908,-1916,-4428,-142,-926,-1419,2025-01-29 10:43:44,0.0
-12336,-2096,-4468,-461,-792,-1374,2025-01-29 10:43:44,0.0
-11848,-2264,-4236,-821,-575,-1393,2025-01-29 10:43:44,0.0
-12104,-2528,-3800,-1227,-287,-1489,2025-01-29 10:43:44,0.0
-12364,-2288,-3384,-1603,-105,-1292,2025-01-29 10:43:44,0.0
-12320,-2520,-3096,-1899,94,-1130,2025-01-29 10:43:44,0.0
-12476,-2780,-3168,-2091,200,-1056,2025-01-29 10:43:44,0.0
-12828,-2928,-3204,-2191,264,-854,2025-01-29 10:43:44,0.0
-13036,-2796,-3192,-2154,275,-534,2025-01-29 10:43:44,0.0
-12940,-2848,-3016,-2018,167,-147,2025-01-29 10:43:44,0.0
-12528,-2936,-3412,-1732,163,80,2025-01-29 10:43:44,0.0
-12512,-3228,-3596,-1476,226,65,2025-01-29 10:43:45,0.0
-12828,-2936,-4064,-1194,782,-109,2025-01-29 10:43:45,0.0
-13124,-2504,-4340,-967,1024,-144,2025-01-29 10:43:45,0.0
-13480,-1632,-3752,-962,670,-31,2025-01-29 10:43:45,0.0
-13196,-1320,-3260,-1114,255,154,2025-01-29 10:43:45,0.0
-12784,-1100,-3076,-1384,191,215,2025-01-29 10:43:45,0.0
-12668,-1024,-3032,-1696,246,174,2025-01-29 10:43:45,0.0
-13048,-1260,-3236,-2097,112,161,2025-01-29 10:43:45,0.0
-13196,-2068,-3208,-2068,76,181,2025-01-29 10:43:45,0.0
-13276,-2692,-3512,-1765,313,62,2025-01-29 10:43:45,0.0
-13264,-3032,-3892,-1397,526,-76,2025-01-29 10:43:45,0.0
-13608,-2528,-3940,-1092,583,-206,2025-01-29 10:43:45,0.0
-13612,-2164,-3988,-888,373,-270,2025-01-29 10:43:45,0.0
-13228,-1904,-3920,-949,-162,-354,2025-01-29 10:43:45,0.0
-12924,-1804,-3356,-970,-634,-299,2025-01-29 10:43:45,0.0
-12180,-1992,-3420,-821,-551,-112,2025-01-29 10:43:45,0.0
-11692,-2108,-3616,-715,-64,9,2025-01-29 10:43:45,0.0
-11908,-2316,-3584,-497,885,27,2025-01-29 10:43:45,0.0
-12312,-2180,-3364,-236,1649,68,2025-01-29 10:43:45,0.0
-12972,-1916,-3180,-143,1857,127,2025-01-29 10:43:45,0.0
-13608,-1512,-3040,-199,1621,146,2025-01-29 10:43:45,0.0
-13848,-1388,-3292,-244,995,197,2025-01-29 10:43:45,0.0
-13772,-1340,-3532,-191,494,244,2025-01-29 10:43:45,0.0
-13372,-1304,-3612,-98,444,128,2025-01-29 10:43:45,0.0
-13080,-1180,-3812,-211,226,11,2025-01-29 10:43:45,0.0
-12928,-1528,-3660,-300,59,22,2025-01-29 10:43:45,
-12596,-1436,-3672,-281,185,4,2025-01-29 10:43:45,0.0
-12564,-1360,-3800,-377,466,1,2025-01-29 10:43:45,0.0
-12740,-1240,-3348,-480,740,-87,2025-01-29 10:43:45,0.0
-13336,-1184,-2900,-429,658,-52,2025-01-29 10:43:45,0.0
-13264,-1208,-3240,-380,411,-34,2025-01-29 10:43:45,0.0
-13288,-1288,-3276,-552,187,-135,2025-01-29 10:43:45,0.0
-12944,-1444,-3084,-573,171,-192,2025-01-29 10:43:45,0.0
-12872,-1272,-3348,-521,397,-247,2025-01-29 10:43:45,0.0
-12952,-1276,-3524,-564,511,-237,2025-01-29 10:43:45,0.0
-13040,-1164,-3476,-528,523,-193,2025-01-29 10:43:45,0.0
-13044,-1288,-3448,-537,467,-178,2025-01-29 10:43:45,0.0
-13128,-1224,-3296,-484,387,-105,2025-01-29 10:43:45,0.0
-12952,-1328,-3328,-443,360,-25,2025-01-29 10:43:45,0.0
-13008,-1336,-3428,-457,331,-58,2025-01-29 10:43:45,0.0
-13048,-1212,-3420,-449,456,-73,2025-01-29 10:43:45,0.0
-12992,-1420,-3288,-481,519,-150,2025-01-29 10:43:45,0.0
-13036,-1420,-3476,-473,515,-174,2025-01-29 10:43:45,0.0
-13152,-1280,-3456,-342,396,-126,2025-01-29 10:43:45,0.0
-13224,-1040,-3636,-300,308,-68,2025-01-29 10:43:45,0.0
-13252,-1084,-3576,-269,163,-24,2025-01-29 10:43:45,0.0
-13072,-1068,-3476,-232,121,13,2025-01-29 10:43:45,0.0
-12944,-1072,-3280,-197,199,-42,2025-01-29 10:43:45,0.0
-13084,-1104,-3220,-332,186,-146,2025-01-29 10:43:45,0.0
-13212,-1096,-3268,-400,70,-143,2025-01-29 10:43:45,0.0
-13000,-988,-3488,-367,51,-145,2025-01-29 10:43:45,0.0
-13088,-804,-3572,-421,111,-121,2025-01-29 10:43:45,0.0
-12988,-840,-3756,-456,8,-77,2025-01-29 10:43:45,0.0
-12852,-788,-3624,-420,19,-96,2025-01-29 10:43:45,0.0
-12832,-1008,-3336,-438,98,-130,2025-01-29 10:43:45,0.0
-12928,-1188,-3040,-376,276,-150,2025-01-29 10:43:45,0.0
-12880,-1272,-3100,-253,447,-151,2025-01-29 10:43:45,0.0
-13000,-1296,-3176,-165,522,-160,2025-01-29 10:43:45,0.0
-13096,-1180,-3292,-57,629,-154,2025-01-29 10:43:46,0.0
-13184,-1228,-3228,-1,553,-130,2025-01-29 10:43:46,0.0
-13312,-1048,-3372,114,427,-158,2025-01-29 10:43:46,0.0
-13044,-1060,-3440,118,383,-185,2025-01-29 10:43:46,0.0
-12924,-1128,-3464,107,482,-248,2025-01-29 10:43:46,0.0
-12996,-1240,-3576,182,498,-235,2025-01-29 10:43:46,0.0
-12816,-1188,-3616,228,454,-181,2025-01-29 10:43:46,0.0
-12744,-1264,-3544,219,599,-211,2025-01-29 10:43:46,0.0
-13300,-1064,-3396,327,618,-187,2025-01-29 10:43:46,0.0
-13212,-1196,-3644,319,369,-161,2025-01-29 10:43:46,0.0
-12940,-1000,-3796,235,423,-307,2025-01-29 10:43:46,0.0
-12948,-1000,-3616,141,506,-329,2025-01-29 10:43:46,0.0
-12912,-1024,-3680,60,444,-339,2025-01-29 10:43:46,0.0
-13052,-816,-3760,-65,399,-320,2025-01-29 10:43:46,0.0
-13016,-916,-3800,-236,307,-328,2025-01-29 10:43:46,0.0
-13012,-1288,-3700,-323,294,-346,2025-01-29 10:43:46,0.0
-12940,-1260,-3736,-344,329,-298,2025-01-29 10:43:46,0.0
-13064,-1336,-3716,-367,253,-240,2025-01-29 10:43:46,0.0
-12964,-1240,-3684,-361,207,-225,2025-01-29 10:43:46,0.0
-12852,-1216,-3664,-356,200,-234,2025-01-29 10:43:46,0.0
-12824,-1372,-3388,-332,273,-224,2025-01-29 10:43:46,0.0
-13076,-1356,-3636,-313,331,-225,2025-01-29 10:43:46,0.0
-13064,-1384,-3620,-323,126,-236,2025-01-29 10:43:46,0.0
-13008,-1392,-3672,-283,6,-256,2025-01-29 10:43:46,0.0
-12840,-1404,-3636,-278,46,-285,2025-01-29 10:43:46,0.0
-12956,-1384,-3464,-289,155,-238,2025-01-29 10:43:46,0.0
-12980,-1436,-3504,-134,247,-175,2025-01-29 10:43:46,0.0
-12876,-1328,-3708,-141,229,-203,2025-01-29 10:43:46,0.0
-12972,-1400,-3816,-233,194,-219,2025-01-29 10:43:46,0.0
-12988,-1404,-3616,-179,220,-197,2025-01-29 10:43:46,0.0
-12988,-1460,-3708,-194,271,-214,2025-01-29 10:43:46,0.0
-12912,-1308,-3724,-220,253,-207,2025-01-29 10:43:46,0.0
-12856,-1272,-3756,-223,191,-171,2025-01-29 10:43:46,0.0
-12836,-1300,-3720,-244,276,-247,2025-01-29 10:43:46,0.0
-13100,-1340,-3672,-263,217,-256,2025-01-29 10:43:46,0.0
-13216,-1256,-3612,-282,92,-236,2025-01-29 10:43:46,0.0
-13036,-1220,-3928,-299,50,-211,2025-01-29 10:43:46,0.0
-12936,-1080,-3696,-392,80,-259,2025-01-29 10:43:46,0.0
-12824,-1316,-3832,-455,153,-300,2025-01-29 10:43:46,0.0
-12920,-1396,-3620,-441,173,-271,2025-01-29 10:43:46,0.0
-12972,-1616,-3620,-425,44,-205,2025-01-29 10:43:46,0.0
-12920,-1600,-3600,-285,15,-199,2025-01-29 10:43:46,0.0
-12964,-1448,-3648,-314,54,-182,2025-01-29 10:43:46,0.0
-12984,-1332,-3464,-236,112,-211,2025-01-29 10:43:46,0.0
-12936,-1420,-3412,-224,115,-210,2025-01-29 10:43:46,0.0
-13008,-1368,-3296,-153,188,-256,2025-01-29 10:43:46,0.0
-12868,-1364,-3332,-39,300,-238,2025-01-29 10:43:46,0.0
-13032,-1364,-3584,8,443,-237,2025-01-29 10:43:46,0.0
-13232,-1380,-3476,134,315,-159,2025-01-29 10:43:46,0.0
-13160,-1504,-3828,163,71,-155,2025-01-29 10:43:46,0.0
-13176,-1536,-3368,196,-107,-130,2025-01-29 10:43:46,0.0
-13116,-1432,-3412,388,-142,-109,2025-01-29 10:43:46,0.0
-12932,-1252,-3504,458,-115,-93,2025-01-29 10:43:46,0.0
-12836,-1252,-3380,446,42,-116,2025-01-29 10:43:46,0.0
-12988,-1348,-3540,543,290,-93,2025-01-29 10:43:46,0.0
-13028,-1128,-3736,479,242,-54,2025-01-29 10:43:46,0.0
-12952,-1312,-3608,400,119,-77,2025-01-29 10:43:46,0.0
-13048,-1224,-3460,381,7,-25,2025-01-29 10:43:46,0.0
-13048,-1304,-3632,328,-123,14,2025-01-29 10:43:46,0.0
-12888,-1352,-3704,245,-99,-20,2025-01-29 10:43:46,0.0
-12980,-1388,-3684,111,9,-152,2025-01-29 10:43:46,0.0
-12944,-1300,-3516,102,140,-156,2025-01-29 10:43:46,0.0
-13040,-1380,-3396,-6,69,-116,2025-01-29 10:43:46,0.0
-12972,-1312,-3440,-79,-37,-129,2025-01-29 10:43:46,0.0
-13000,-1204,-3564,-163,-59,-123,2025-01-29 10:43:46,0.0
-12972,-1344,-3636,-233,-33,-165,2025-01-29 10:43:47,0.0
-12948,-1396,-3520,-248,75,-244,2025-01-29 10:43:47,0.0
-12944,-1468,-3388,-257,116,-295,2025-01-29 10:43:47,
