acceleration_x,acceleration_y,acceleration_z,gyroscope_x,gyroscope_y,gyroscope_z,timestamp,label
-11120,-636,-7512,-153,256,-228,2025-01-29 11:49:01,0.0
-11192,-664,-7548,-153,201,-241,2025-01-29 11:49:01,0.0
-11056,-712,-7584,-136,172,-206,2025-01-29 11:49:01,0.0
-11188,-628,-7452,-155,163,-192,2025-01-29 11:49:01,0.0
-11120,-532,-7456,-180,244,-206,2025-01-29 11:49:01,0.0
-11124,-616,-7396,-208,325,-217,2025-01-29 11:49:01,0.0
-11128,-680,-7452,-219,334,-190,2025-01-29 11:49:01,0.0
-11184,-668,-7472,-190,318,-203,2025-01-29 11:49:01,0.0
-11164,-736,-7464,-181,261,-156,2025-01-29 11:49:01,0.0
-11164,-752,-7416,-163,243,-170,2025-01-29 11:49:01,0.0
-11052,-696,-7636,-157,248,-166,2025-01-29 11:49:01,0.0
-11064,-712,-7484,-159,298,-150,2025-01-29 11:49:01,0.0
-11176,-736,-7612,-125,318,-164,2025-01-29 11:49:01,0.0
-11092,-744,-7528,-107,352,-162,2025-01-29 11:49:01,0.0
-11144,-644,-7620,-103,317,-153,2025-01-29 11:49:01,0.0
-11224,-704,-7584,-86,261,-156,2025-01-29 11:49:02,0.0
-11200,-672,-7720,-134,205,-154,2025-01-29 11:49:02,0.0
-11196,-684,-7524,-129,120,-197,2025-01-29 11:49:02,0.0
-11176,-608,-7452,-154,112,-206,2025-01-29 11:49:02,0.0
-11236,-620,-7436,-181,146,-179,2025-01-29 11:49:02,0.0
-10948,-764,-7532,-148,49,-186,2025-01-29 11:49:02,0.0
-11048,-796,-7420,-122,166,-164,2025-01-29 11:49:02,0.0
-11016,-884,-7484,-78,270,-157,2025-01-29 11:49:02,0.0
-11088,-784,-7480,-87,351,-151,2025-01-29 11:49:02,0.0
-11076,-724,-7556,-136,138,-162,2025-01-29 11:49:02,0.0
-11092,-592,-7560,-103,186,-169,2025-01-29 11:49:02,0.0
-11088,-668,-7656,-103,171,-184,2025-01-29 11:49:02,0.0
-11032,-568,-7640,-119,175,-175,2025-01-29 11:49:02,0.0
-11172,-572,-7712,-131,167,-160,2025-01-29 11:49:02,0.0
-11144,-652,-7672,-224,153,-193,2025-01-29 11:49:02,0.0
-11092,-684,-7728,-176,63,-158,2025-01-29 11:49:02,0.0
-11100,-752,-7348,-210,105,-167,2025-01-29 11:49:02,0.0
-10980,-772,-7508,-157,123,-161,2025-01-29 11:49:02,0.0
-11088,-684,-7612,-155,166,-160,2025-01-29 11:49:02,0.0
-11128,-728,-7596,-174,216,-191,2025-01-29 11:49:02,0.0
-11192,-684,-7512,-153,206,-174,2025-01-29 11:49:02,0.0
-11084,-788,-7532,-176,152,-200,2025-01-29 11:49:02,0.0
-11056,-752,-7548,-183,133,-166,2025-01-29 11:49:02,0.0
-11120,-820,-7664,-161,253,-184,2025-01-29 11:49:02,0.0
-11204,-744,-7696,-206,203,-196,2025-01-29 11:49:02,0.0
-11180,-632,-7548,-203,169,-165,2025-01-29 11:49:02,0.0
-11128,-640,-7652,-194,-3,-184,2025-01-29 11:49:02,0.0
-11112,-816,-7732,-190,-21,-189,2025-01-29 11:49:02,0.0
-11016,-740,-7464,-162,78,-172,2025-01-29 11:49:02,0.0
-11000,-820,-7464,-115,194,-142,2025-01-29 11:49:02,0.0
-11164,-612,-7404,-110,232,-114,2025-01-29 11:49:02,0.0
-11208,-612,-7392,-147,201,-121,2025-01-29 11:49:02,0.0
-11200,-556,-7472,-131,188,-129,2025-01-29 11:49:02,0.0
-11224,-720,-7648,-158,179,-129,2025-01-29 11:49:02,0.0
-11192,-628,-7536,-140,154,-148,2025-01-29 11:49:02,0.0
-11064,-612,-7472,-133,177,-167,2025-01-29 11:49:02,0.0
-11112,-640,-7568,-205,167,-197,2025-01-29 11:49:02,0.0
-11120,-676,-7476,-241,193,-185,2025-01-29 11:49:02,0.0
-11252,-584,-7636,-246,212,-158,2025-01-29 11:49:02,0.0
-11120,-708,-7444,-257,271,-191,2025-01-29 11:49:02,0.0
-11084,-708,-7544,-214,229,-193,2025-01-29 11:49:02,0.0
-11148,-608,-7436,-233,188,-221,2025-01-29 11:49:02,0.0
-11240,-660,-7316,-206,168,-198,2025-01-29 11:49:02,0.0
-11128,-616,-7552,-217,166,-184,2025-01-29 11:49:02,0.0
-11072,-732,-7560,-207,174,-196,2025-01-29 11:49:02,0.0
-11188,-624,-7384,-207,186,-202,2025-01-29 11:49:02,0.0
-11156,-732,-7696,-168,247,-178,2025-01-29 11:49:02,0.0
-11108,-724,-7568,-178,220,-202,2025-01-29 11:49:02,0.0
-11072,-632,-7528,-194,223,-178,2025-01-29 11:49:02,0.0
-11100,-692,-7772,-167,194,-220,2025-01-29 11:49:02,0.0
-11024,-624,-7680,-169,188,-216,2025-01-29 11:49:02,0.0
-11224,-700,-7664,-162,135,-220,2025-01-29 11:49:02,0.0
-11188,-664,-7580,-131,146,-205,2025-01-29 11:49:03,0.0
-11088,-632,-7636,-92,140,-208,2025-01-29 11:49:03,0.0
-11056,-732,-7492,-28,172,-226,2025-01-29 11:49:03,0.0
-11012,-800,-7688,-21,135,-308,2025-01-29 11:49:03,0.0
-11148,-904,-7524,124,100,-403,2025-01-29 11:49:03,0.0
-11144,-892,-7664,100,-52,-538,2025-01-29 11:49:03,0.0
-11304,-892,-7448,49,-278,-597,2025-01-29 11:49:03,0.0
-11172,-836,-7468,-9,-395,-595,2025-01-29 11:49:03,0.0
-11188,-672,-7400,-82,-338,-551,2025-01-29 11:49:03,0.0
-11112,-1344,-7396,-1873,461,-652,2025-01-29 11:49:03,0.0
-11320,-1432,-7232,-1794,364,-617,2025-01-29 11:49:03,0.0
-11532,-1412,-7472,-1593,85,-602,2025-01-29 11:49:03,0.0
-11480,-1444,-7368,-1417,-140,-516,2025-01-29 11:49:03,0.0
-11416,-1648,-7316,-1024,95,-283,2025-01-29 11:49:03,0.0
-10872,-1736,-8172,-420,937,9,2025-01-29 11:49:03,0.0
-10092,-1860,-8352,-150,1805,-178,2025-01-29 11:49:03,0.0
-10576,-2252,-7836,-105,1493,-106,2025-01-29 11:49:03,0.0
-11188,-1688,-7252,190,1238,291,2025-01-29 11:49:03,0.0
-11540,-1036,-7052,128,1215,463,2025-01-29 11:49:03,0.0
-11960,-1028,-7340,-354,909,483,2025-01-29 11:49:03,0.0
-12308,-1156,-7972,-753,-667,555,2025-01-29 11:49:03,0.0
-11960,-888,-8320,-820,-1877,505,2025-01-29 11:49:03,0.0
-11652,-420,-8184,-944,-2379,550,2025-01-29 11:49:03,0.0
-11120,-228,-7748,-1203,-2319,650,2025-01-29 11:49:03,0.0
-10636,-216,-7244,-1585,-1675,762,2025-01-29 11:49:03,0.0
-10324,-224,-6856,-1926,-712,775,2025-01-29 11:49:03,0.0
-10300,-224,-6732,-2304,557,617,2025-01-29 11:49:03,0.0
-10752,-332,-6740,-2551,1351,331,2025-01-29 11:49:03,0.0
-11568,-528,-6760,-2543,1586,186,2025-01-29 11:49:03,0.0
-12024,-396,-6760,-2419,1500,199,2025-01-29 11:49:03,0.0
-11696,-252,-6960,-2511,748,145,2025-01-29 11:49:03,0.0
-10172,92,-7392,-2665,1,-359,2025-01-29 11:49:03,0.0
-9152,844,-7928,-2828,508,-620,2025-01-29 11:49:03,
-8804,1988,-7704,-2968,1792,-727,2025-01-29 11:49:03,0.0
-8760,2384,-7536,-3391,3205,-1165,2025-01-29 11:49:03,0.0
-9744,1632,-7332,-3813,4081,-1797,2025-01-29 11:49:03,0.0
-11608,8,-7032,-3884,4394,-1903,2025-01-29 11:49:03,0.0
-13304,-760,-6520,-3438,4213,-1511,2025-01-29 11:49:03,0.0
-14932,-856,-5332,-2894,3976,-819,2025-01-29 11:49:03,0.0
-16028,-384,-4948,-2168,3192,164,2025-01-29 11:49:03,0.0
-12824,880,-5324,-849,-2302,1538,2025-01-29 11:49:03,0.0
-10712,1244,-5192,-261,-2262,1821,2025-01-29 11:49:03,0.0
-9896,1748,-5112,-130,-1451,1732,2025-01-29 11:49:03,0.0
-9372,1908,-4736,25,-356,1423,2025-01-29 11:49:03,0.0
-9900,1712,-4756,321,590,1151,2025-01-29 11:49:03,0.0
-11016,1032,-5248,733,1327,1158,2025-01-29 11:49:03,0.0
-11884,416,-4860,1226,1372,1308,2025-01-29 11:49:03,0.0
-12700,-8,-5072,1879,515,1445,2025-01-29 11:49:04,0.0
-12920,284,-5592,2492,-644,1583,2025-01-29 11:49:04,0.0
-12584,1052,-5776,2799,-1351,1736,2025-01-29 11:49:04,0.0
-12420,1788,-5596,2938,-1344,1968,2025-01-29 11:49:04,0.0
-11708,1944,-5264,3116,-839,1966,2025-01-29 11:49:04,0.0
-11284,1668,-4884,3175,47,1593,2025-01-29 11:49:04,0.0
-11460,1364,-4472,3253,1438,1720,2025-01-29 11:49:04,0.0
-11936,1172,-4484,3429,2673,2172,2025-01-29 11:49:04,0.0
-12588,1008,-5052,3426,3260,2615,2025-01-29 11:49:04,0.0
-14620,-52,-5912,4507,2427,3531,2025-01-29 11:49:04,0.0
-14900,-544,-5920,5323,288,4173,2025-01-29 11:49:04,0.0
-14672,-280,-5884,5841,-1974,5014,2025-01-29 11:49:04,0.0
-12056,1604,-6364,5867,-4154,5064,2025-01-29 11:49:04,0.0
-9764,5544,-8992,5061,-4432,4061,2025-01-29 11:49:04,0.0
-9804,8256,-11420,3734,-802,2847,2025-01-29 11:49:04,0.0
-10356,8096,-13460,1954,3156,1400,2025-01-29 11:49:04,0.0
-10764,4852,-13348,496,3284,-1485,2025-01-29 11:49:04,0.0
-12872,2288,-10988,-92,407,-3354,2025-01-29 11:49:04,0.0
-12512,344,-9764,-19,-2063,-3977,2025-01-29 11:49:04,0.0
-11032,-1464,-9388,76,-3523,-4609,2025-01-29 11:49:04,0.0
-10192,-2568,-8776,446,-3301,-4771,2025-01-29 11:49:04,0.0
-9920,-3116,-8164,782,-1417,-3912,2025-01-29 11:49:04,0.0
-9464,-2992,-8132,711,440,-2768,2025-01-29 11:49:04,0.0
-9392,-2516,-8212,748,1443,-2287,2025-01-29 11:49:04,0.0
-9480,-2016,-8304,775,1634,-2401,2025-01-29 11:49:04,0.0
-10240,-1664,-8380,755,1593,-2692,2025-01-29 11:49:04,0.0
-10712,-940,-8016,666,1257,-2948,2025-01-29 11:49:04,0.0
-10660,-324,-8216,635,508,-2958,2025-01-29 11:49:04,0.0
-10216,-92,-8204,355,-578,-2732,2025-01-29 11:49:04,0.0
-9728,-188,-7888,-50,-905,-2649,2025-01-29 11:49:04,0.0
-9372,-592,-7844,-245,-734,-2603,2025-01-29 11:49:04,0.0
-9248,-1120,-7492,-324,-290,-2651,2025-01-29 11:49:04,0.0
-9252,-1920,-7336,-434,338,-2760,2025-01-29 11:49:04,0.0
-9528,-2292,-7408,-496,751,-2798,2025-01-29 11:49:04,0.0
-9796,-2644,-7332,-504,861,-2748,2025-01-29 11:49:04,0.0
-10124,-2892,-7092,-393,1016,-2601,2025-01-29 11:49:04,0.0
-10388,-3144,-7300,-10,776,-2340,2025-01-29 11:49:04,0.0
-10768,-2944,-7568,321,496,-2137,2025-01-29 11:49:04,0.0
-11720,-2520,-6796,382,365,-1717,2025-01-29 11:49:04,0.0
-11228,-2320,-7048,440,28,-1546,2025-01-29 11:49:04,0.0
-11336,-2108,-6728,442,-390,-1521,2025-01-29 11:49:04,0.0
-11336,-2064,-6796,334,-901,-1444,2025-01-29 11:49:04,0.0
-11016,-2144,-6996,188,-1267,-1272,2025-01-29 11:49:04,0.0
-10804,-2176,-7144,14,-1137,-1043,2025-01-29 11:49:04,0.0
-10240,-2068,-6688,-158,-813,-892,2025-01-29 11:49:04,0.0
-10148,-2040,-6464,-393,-488,-842,2025-01-29 11:49:04,0.0
-10172,-1936,-6152,-710,-94,-694,2025-01-29 11:49:04,0.0
-10220,-1744,-6436,-1287,199,-704,2025-01-29 11:49:04,0.0
-10440,-2004,-6076,-1744,495,-816,2025-01-29 11:49:04,0.0
-10700,-2608,-6656,-1853,711,-879,2025-01-29 11:49:04,0.0
-10952,-3188,-7040,-2099,1116,-843,2025-01-29 11:49:04,0.0
-11492,-3160,-6896,-2376,1630,-832,2025-01-29 11:49:04,0.0
-12068,-2484,-6632,-2703,1638,-860,2025-01-29 11:49:04,0.0
-12564,-1420,-6736,-2815,1185,-1194,2025-01-29 11:49:04,0.0
-13416,-1068,-7176,-3012,750,-1340,2025-01-29 11:49:04,0.0
-12840,-2272,-7180,-3180,1014,-1928,2025-01-29 11:49:04,0.0
-13112,-3208,-6716,-3202,922,-2621,2025-01-29 11:49:04,0.0
-13708,-3476,-5828,-3090,254,-2786,2025-01-29 11:49:04,0.0
-13720,-2552,-5612,-3070,-394,-2042,2025-01-29 11:49:04,0.0
-12676,-2016,-5936,-3605,126,-1566,2025-01-29 11:49:04,0.0
-11800,-2428,-8396,-3397,1421,-2186,2025-01-29 11:49:04,0.0
-12792,-3736,-9360,-3169,3236,-2898,2025-01-29 11:49:05,0.0
-14380,-5804,-9156,-1452,3926,-3474,2025-01-29 11:49:05,0.0
-16444,-6948,-9180,847,1853,-2686,2025-01-29 11:49:05,0.0
-17072,-6380,-9672,2877,-3162,814,2025-01-29 11:49:05,0.0
-13596,-4864,-10032,3750,-4935,2573,2025-01-29 11:49:05,0.0
-10772,-3652,-10992,3597,-5120,2896,2025-01-29 11:49:05,0.0
-9272,-2040,-10992,3132,-4766,3545,2025-01-29 11:49:05,0.0
-8100,-248,-11108,2253,-3910,4381,2025-01-29 11:49:05,0.0
-7316,2152,-10560,592,-2116,5222,2025-01-29 11:49:05,0.0
-6556,3300,-10076,-427,-388,4985,2025-01-29 11:49:05,0.0
-6612,2308,-9308,-573,1730,3292,2025-01-29 11:49:05,0.0
-8632,220,-8616,-405,2871,1560,2025-01-29 11:49:05,0.0
-11116,-984,-7588,-79,2847,1465,2025-01-29 11:49:05,0.0
-12292,-1528,-7592,298,1801,2072,2025-01-29 11:49:05,0.0
-12116,-1448,-7636,427,118,2626,2025-01-29 11:49:05,0.0
-12068,-956,-8696,636,-1411,2864,2025-01-29 11:49:05,0.0
-10936,-156,-8572,630,-2214,3114,2025-01-29 11:49:05,0.0
-10176,328,-8156,756,-2417,3397,2025-01-29 11:49:05,0.0
-9176,392,-7488,988,-2348,3495,2025-01-29 11:49:05,0.0
-8692,284,-6944,1240,-1999,3385,2025-01-29 11:49:05,0.0
-8468,164,-6772,1546,-660,3291,2025-01-29 11:49:05,0.0
-9264,312,-6412,1798,672,3313,2025-01-29 11:49:05,0.0
-10268,816,-6536,1984,1452,3447,2025-01-29 11:49:05,0.0
-10524,1240,-7064,2093,1366,3445,2025-01-29 11:49:05,0.0
-10748,1612,-7072,1983,833,3199,2025-01-29 11:49:05,
-10800,1704,-6972,1714,72,2878,2025-01-29 11:49:05,0.0
-10368,1676,-6808,1533,-853,2534,2025-01-29 11:49:05,0.0
-9992,1528,-6656,1541,-1244,2076,2025-01-29 11:49:05,0.0
-9212,1128,-6868,1464,-652,1714,2025-01-29 11:49:05,0.0
-8856,616,-6488,1516,164,1213,2025-01-29 11:49:05,0.0
-9344,180,-6108,1825,737,854,2025-01-29 11:49:05,0.0
-9668,56,-5568,1975,927,641,2025-01-29 11:49:05,0.0
-9840,180,-5844,2044,1008,449,2025-01-29 11:49:05,0.0
-10348,1000,-6256,1879,769,125,2025-01-29 11:49:05,0.0
-11184,1544,-6472,1530,439,-186,2025-01-29 11:49:05,0.0
-11840,2468,-5972,1268,461,-406,2025-01-29 11:49:05,0.0
-11816,2904,-6424,862,207,-1131,2025-01-29 11:49:05,0.0
-11648,2116,-6372,676,-852,-1840,2025-01-29 11:49:05,0.0
-11260,1236,-6272,522,-1384,-2027,2025-01-29 11:49:05,0.0
-10888,836,-6440,535,-617,-1918,2025-01-29 11:49:05,0.0
-10988,268,-6408,398,626,-1676,2025-01-29 11:49:05,0.0
-11636,-60,-6200,224,1029,-1089,2025-01-29 11:49:05,0.0
-12040,156,-6924,421,566,-299,2025-01-29 11:49:05,0.0
-12484,-360,-6996,750,752,208,2025-01-29 11:49:05,0.0
-14044,-1424,-5252,1335,1657,732,2025-01-29 11:49:05,0.0
-14952,-1860,-4116,2370,2159,1354,2025-01-29 11:49:05,0.0
-16100,-1080,-4484,3250,851,2314,2025-01-29 11:49:05,0.0
-16112,-600,-7980,2883,444,3380,2025-01-29 11:49:05,0.0
-16128,64,-10256,2772,1703,4423,2025-01-29 11:49:05,0.0
-16936,1760,-11536,1796,3117,6105,2025-01-29 11:49:05,0.0
-15540,2336,-11872,761,2972,6677,2025-01-29 11:49:05,0.0
-13412,2248,-12112,-48,1473,5427,2025-01-29 11:49:05,0.0
-11396,2100,-11556,-236,-1432,1970,2025-01-29 11:49:05,0.0
-10544,1456,-10124,-235,-3396,-76,2025-01-29 11:49:05,0.0
-8692,956,-7828,414,-5106,-990,2025-01-29 11:49:05,0.0
-7092,716,-7060,1039,-5379,-1289,2025-01-29 11:49:05,0.0
-5772,264,-6928,1310,-4245,-1633,2025-01-29 11:49:05,0.0
-5188,-504,-7472,1063,-1616,-2151,2025-01-29 11:49:05,0.0
-6080,-544,-8640,378,2277,-2737,2025-01-29 11:49:05,0.0
-8148,-484,-9728,-190,5800,-2876,2025-01-29 11:49:05,0.0
-10284,-960,-10016,-518,7023,-2785,2025-01-29 11:49:06,0.0
-12048,-1764,-8856,-508,5805,-2759,2025-01-29 11:49:06,0.0
-13260,-2164,-8436,-19,2985,-2581,2025-01-29 11:49:06,0.0
-13192,-1628,-9176,229,-143,-2133,2025-01-29 11:49:06,0.0
-12316,-924,-9424,42,-2066,-1863,2025-01-29 11:49:06,0.0
-10692,-576,-8780,-96,-3056,-2270,2025-01-29 11:49:06,0.0
-9668,-640,-8120,-68,-3255,-3179,2025-01-29 11:49:06,0.0
-9000,-512,-7968,-17,-3186,-4047,2025-01-29 11:49:06,0.0
-8856,-472,-7668,23,-3070,-4516,2025-01-29 11:49:06,0.0
-9264,-952,-7612,-76,-2177,-4470,2025-01-29 11:49:06,0.0
-9584,-1848,-7012,-279,-1168,-4192,2025-01-29 11:49:06,0.0
-9808,-2764,-6304,-96,-867,-3998,2025-01-29 11:49:06,0.0
-10192,-3236,-5684,596,-616,-3665,2025-01-29 11:49:06,0.0
-10648,-3396,-5484,1185,-349,-3316,2025-01-29 11:49:06,0.0
-10664,-3440,-5940,1354,67,-3036,2025-01-29 11:49:06,0.0
-10496,-2800,-6280,1368,-370,-2819,2025-01-29 11:49:06,0.0
-10840,-2264,-7088,1134,-537,-2331,2025-01-29 11:49:06,0.0
-10440,-1772,-7232,475,-342,-1795,2025-01-29 11:49:06,0.0
-10392,-728,-6016,-1779,875,-771,2025-01-29 11:49:06,0.0
-10836,-884,-5872,-2639,801,-675,2025-01-29 11:49:06,0.0
-11708,-1468,-5452,-3619,479,-668,2025-01-29 11:49:06,0.0
-11832,-1748,-5552,-4074,-245,-771,2025-01-29 11:49:06,0.0
-12400,-1888,-6196,-4346,-1273,-864,2025-01-29 11:49:06,0.0
-12176,-1592,-6528,-4510,-2460,-912,2025-01-29 11:49:06,0.0
-11536,-1308,-6056,-4444,-3244,-1059,2025-01-29 11:49:06,0.0
-10804,-1792,-5228,-4135,-3248,-1093,2025-01-29 11:49:06,0.0
-10124,-3140,-4880,-3486,-1555,-1536,2025-01-29 11:49:06,0.0
-9720,-4696,-4460,-2972,529,-2838,2025-01-29 11:49:06,0.0
-11644,-5088,-4508,-2404,2036,-4669,2025-01-29 11:49:06,0.0
-14664,-3232,-4396,-2136,1532,-4615,2025-01-29 11:49:06,0.0
-16036,-1580,-6064,-2533,724,-4263,2025-01-29 11:49:06,0.0
-15880,-2664,-9396,-2957,478,-4833,2025-01-29 11:49:06,0.0
-15864,-5400,-9004,-2257,518,-5287,2025-01-29 11:49:06,0.0
-16684,-7644,-8736,-629,-1147,-4851,2025-01-29 11:49:06,0.0
-17092,-7992,-9700,1156,-2978,-2569,2025-01-29 11:49:06,0.0
-15844,-4788,-11060,1481,-3412,372,2025-01-29 11:49:06,0.0
-13024,-1812,-12404,1087,-3567,1322,2025-01-29 11:49:06,0.0
-11660,104,-12184,-207,-4366,2244,2025-01-29 11:49:06,0.0
-10004,1184,-10928,-1306,-4967,3198,2025-01-29 11:49:06,0.0
-7000,1560,-10088,-2311,-4909,3211,2025-01-29 11:49:06,0.0
-5552,1084,-8952,-3054,-3101,2063,2025-01-29 11:49:06,0.0
-5760,728,-7800,-3085,497,571,2025-01-29 11:49:06,0.0
-7876,208,-7632,-2678,3942,-169,2025-01-29 11:49:06,0.0
-10956,-108,-7340,-2347,5749,384,2025-01-29 11:49:06,0.0
-12780,-524,-8004,-2085,5988,1132,2025-01-29 11:49:06,0.0
-13528,-900,-8412,-2025,4735,1677,2025-01-29 11:49:06,0.0
-13696,-1272,-8044,-1858,2069,2265,2025-01-29 11:49:06,0.0
-12764,-1824,-7336,-1199,-931,2489,2025-01-29 11:49:06,0.0
-11744,-1972,-6932,-687,-2155,2535,2025-01-29 11:49:06,0.0
-10832,-1700,-6684,-277,-2638,2745,2025-01-29 11:49:06,0.0
-9708,-612,-6284,171,-2108,3227,2025-01-29 11:49:06,0.0
-8772,124,-6136,343,-1223,3192,2025-01-29 11:49:06,0.0
-9384,684,-5580,345,-38,3162,2025-01-29 11:49:06,0.0
-9272,804,-6088,286,1027,3138,2025-01-29 11:49:06,0.0
-9752,680,-6224,282,1602,2860,2025-01-29 11:49:06,0.0
-10220,256,-5780,443,1573,2392,2025-01-29 11:49:06,0.0
-10868,-60,-5660,720,1222,1967,2025-01-29 11:49:06,0.0
-11324,-52,-5488,956,625,1750,2025-01-29 11:49:06,0.0
-11212,-48,-5848,1158,-124,1234,2025-01-29 11:49:06,0.0
-11200,204,-5908,1235,-664,811,2025-01-29 11:49:06,0.0
-11304,120,-5672,1370,-762,462,2025-01-29 11:49:06,0.0
-11272,8,-5364,1386,-671,306,2025-01-29 11:49:07,0.0
-11596,432,-5284,1414,-668,238,2025-01-29 11:49:07,0.0
-12268,628,-5360,1446,-694,350,2025-01-29 11:49:07,0.0
-12464,296,-4788,1554,-862,529,2025-01-29 11:49:07,
-12468,-48,-4508,1739,-1260,575,2025-01-29 11:49:07,0.0
-11796,-264,-4772,1953,-1875,424,2025-01-29 11:49:07,0.0
-11608,-256,-4844,2129,-2330,37,2025-01-29 11:49:07,0.0
-11916,336,-4940,2278,-2840,-104,2025-01-29 11:49:07,0.0
-12076,680,-4580,2507,-2832,99,2025-01-29 11:49:07,0.0
-12184,856,-5084,2736,-2319,234,2025-01-29 11:49:07,0.0
-12636,212,-5492,2795,-1362,588,2025-01-29 11:49:07,0.0
-12680,140,-5080,2818,-390,1391,2025-01-29 11:49:07,0.0
-12512,620,-5028,2931,130,2099,2025-01-29 11:49:07,0.0
-12668,416,-4444,3079,579,2630,2025-01-29 11:49:07,0.0
-13080,-512,-3548,3462,1033,3057,2025-01-29 11:49:07,0.0
-13460,-992,-3412,4021,1226,3394,2025-01-29 11:49:07,0.0
-13704,-876,-5472,4615,2609,3678,2025-01-29 11:49:07,0.0
-14500,632,-8340,4733,4843,3966,2025-01-29 11:49:07,0.0
-15576,2840,-10560,3585,6040,4497,2025-01-29 11:49:07,0.0
-16092,4292,-10552,1851,5313,4958,2025-01-29 11:49:07,0.0
-15208,4636,-10588,216,2950,4360,2025-01-29 11:49:07,0.0
-14120,4156,-10632,-1073,-188,2608,2025-01-29 11:49:07,0.0
-13272,3032,-9708,-1676,-2394,758,2025-01-29 11:49:07,0.0
-11768,672,-8524,-1231,-3021,-393,2025-01-29 11:49:07,0.0
-9824,-588,-7080,116,-4083,-1772,2025-01-29 11:49:07,0.0
-8948,-1096,-6624,721,-4253,-2556,2025-01-29 11:49:07,0.0
-8144,-1596,-6496,1074,-3674,-2944,2025-01-29 11:49:07,0.0
-8168,-1548,-6736,1050,-2099,-2738,2025-01-29 11:49:07,0.0
-8056,-1028,-7416,624,-48,-1852,2025-01-29 11:49:07,0.0
-7828,-972,-7644,-72,2294,-1015,2025-01-29 11:49:07,0.0
-8612,-1524,-7432,-480,4151,-718,2025-01-29 11:49:07,0.0
-10168,-2164,-7152,-566,4201,-496,2025-01-29 11:49:07,0.0
-11492,-2680,-6848,-43,2962,-296,2025-01-29 11:49:07,0.0
-11772,-1044,-7920,1748,-471,-979,2025-01-29 11:49:07,0.0
-11132,-424,-7728,1811,-356,-1904,2025-01-29 11:49:07,0.0
-10868,28,-8116,1521,-623,-2636,2025-01-29 11:49:07,0.0
-10832,232,-7992,920,-928,-2781,2025-01-29 11:49:07,0.0
-9784,432,-7760,226,-739,-2837,2025-01-29 11:49:07,0.0
-9392,84,-7112,-621,-1,-3023,2025-01-29 11:49:07,0.0
-9236,-804,-6056,-1008,1110,-3434,2025-01-29 11:49:07,0.0
-9832,-1952,-5468,-1003,2261,-3717,2025-01-29 11:49:07,0.0
-10756,-3016,-5080,-684,3017,-3621,2025-01-29 11:49:07,0.0
-11372,-3820,-5000,-259,3118,-3340,2025-01-29 11:49:07,0.0
-11748,-4280,-5188,17,2797,-2963,2025-01-29 11:49:07,0.0
-12088,-4220,-5604,359,2049,-2189,2025-01-29 11:49:07,0.0
-11768,-3412,-6116,536,1445,-1368,2025-01-29 11:49:07,0.0
-11320,-2052,-5972,378,1256,-884,2025-01-29 11:49:07,0.0
-11364,-1108,-5800,-121,1289,-455,2025-01-29 11:49:07,0.0
-11388,-680,-5852,-680,1342,35,2025-01-29 11:49:07,0.0
-11340,-1236,-5784,-1201,1385,373,2025-01-29 11:49:07,0.0
-11364,-2204,-5520,-1437,1417,738,2025-01-29 11:49:07,0.0
-11632,-2524,-5228,-1474,1422,842,2025-01-29 11:49:07,0.0
-12160,-2252,-6088,-1448,1417,743,2025-01-29 11:49:07,0.0
-12272,-2064,-6744,-1412,1013,376,2025-01-29 11:49:07,0.0
-12488,-1552,-6512,-1319,333,-258,2025-01-29 11:49:07,0.0
-12696,-1308,-6284,-1426,-57,-483,2025-01-29 11:49:07,0.0
-12476,-1220,-6572,-1831,-296,-798,2025-01-29 11:49:07,0.0
-12320,-1068,-6700,-2613,-788,-1037,2025-01-29 11:49:07,0.0
-12024,-980,-6348,-3217,-1201,-1417,2025-01-29 11:49:08,0.0
-11308,-532,-7316,-3482,-957,-2446,2025-01-29 11:49:08,0.0
-11616,-940,-8416,-3612,-277,-3345,2025-01-29 11:49:08,0.0
-12028,-2800,-7692,-3224,683,-3756,2025-01-29 11:49:08,0.0
-12860,-4800,-8112,-2414,1350,-3752,2025-01-29 11:49:08,0.0
-14272,-6148,-8956,-1492,1673,-2568,2025-01-29 11:49:08,0.0
-14904,-6520,-10488,-151,779,-334,2025-01-29 11:49:08,0.0
-13948,-5444,-10328,1401,-685,973,2025-01-29 11:49:08,0.0
-12676,-3928,-9716,2082,-2321,1034,2025-01-29 11:49:08,0.0
-11304,-2172,-9204,2160,-4080,976,2025-01-29 11:49:08,0.0
-10188,-612,-8288,1759,-4120,1367,2025-01-29 11:49:08,0.0
-8580,1464,-8216,767,-2917,1822,2025-01-29 11:49:08,0.0
-7320,3000,-8316,-181,-1166,1757,2025-01-29 11:49:08,0.0
-7224,3444,-7400,-623,969,1100,2025-01-29 11:49:08,0.0
-8804,2064,-7420,-737,3023,254,2025-01-29 11:49:08,0.0
-10540,476,-8036,-854,4410,301,2025-01-29 11:49:08,0.0
-12140,-688,-8372,-813,4859,577,2025-01-29 11:49:08,0.0
-13452,-1028,-8804,-1021,3192,961,2025-01-29 11:49:08,0.0
-13696,-736,-8808,-1167,-85,1517,2025-01-29 11:49:08,0.0
-12892,-428,-8276,-1114,-2233,1802,2025-01-29 11:49:08,0.0
-11700,-108,-7700,-926,-3306,1999,2025-01-29 11:49:08,0.0
-10456,4,-7196,-735,-3219,2201,2025-01-29 11:49:08,0.0
-9116,-264,-6608,-547,-2427,2162,2025-01-29 11:49:08,0.0
-8528,-592,-5980,-324,-1063,2000,2025-01-29 11:49:08,0.0
-8532,-704,-5388,154,731,1850,2025-01-29 11:49:08,0.0
-8988,-292,-5576,598,1957,1719,2025-01-29 11:49:08,0.0
-9948,160,-5916,900,2694,1638,2025-01-29 11:49:08,0.0
-10632,808,-6228,1161,2478,1284,2025-01-29 11:49:08,0.0
-11128,1076,-6292,1301,1757,807,2025-01-29 11:49:08,0.0
-11444,988,-6456,1405,1093,346,2025-01-29 11:49:08,0.0
-11624,660,-6224,1525,661,37,2025-01-29 11:49:08,0.0
-11168,104,-6420,1545,385,-305,2025-01-29 11:49:08,0.0
-11300,-340,-6340,1518,602,-423,2025-01-29 11:49:08,0.0
-11392,-536,-6632,1457,1117,-288,2025-01-29 11:49:08,0.0
-11800,-576,-6652,1388,1625,-78,2025-01-29 11:49:08,0.0
-12328,-616,-6408,1301,1791,131,2025-01-29 11:49:08,0.0
-13088,-516,-5860,1352,1475,374,2025-01-29 11:49:08,0.0
-13232,-332,-5240,1477,759,465,2025-01-29 11:49:08,0.0
-12908,-312,-5432,1685,-436,431,2025-01-29 11:49:08,0.0
-12532,-520,-5000,1846,-1419,235,2025-01-29 11:49:08,0.0
-11732,-596,-4112,2276,-1936,160,2025-01-29 11:49:08,0.0
-11128,-716,-3704,2647,-1888,56,2025-01-29 11:49:08,0.0
-10900,-800,-4216,2976,-1102,65,2025-01-29 11:49:08,0.0
-11460,-648,-4780,3352,383,438,2025-01-29 11:49:08,0.0
-12124,-452,-6680,3309,1383,699,2025-01-29 11:49:08,0.0
-13000,148,-9256,2698,1973,1133,2025-01-29 11:49:08,
-13712,688,-12328,1857,2200,2013,2025-01-29 11:49:08,0.0
-13612,1228,-14824,468,1854,3007,2025-01-29 11:49:08,0.0
-13468,1768,-13308,-1233,130,3856,2025-01-29 11:49:08,0.0
-11268,1568,-9160,-1589,-2248,3796,2025-01-29 11:49:08,0.0
-7560,888,-7508,-671,-3957,1032,2025-01-29 11:49:08,0.0
-7272,76,-8476,317,-1533,-1538,2025-01-29 11:49:08,0.0
-8468,-808,-9056,1185,1855,-2136,2025-01-29 11:49:08,0.0
-9080,-1136,-9856,1191,3812,-2229,2025-01-29 11:49:08,0.0
-10024,-300,-9676,156,4015,-2254,2025-01-29 11:49:08,0.0
-10308,1500,-9384,-1718,3466,-2785,2025-01-29 11:49:08,0.0
-10352,2468,-9524,-3630,3417,-4128,2025-01-29 11:49:08,0.0
-10792,1696,-9628,-4804,3021,-5560,2025-01-29 11:49:08,0.0
-11332,-200,-9616,-5347,2326,-6638,2025-01-29 11:49:08,0.0
-11544,-2060,-9472,-5622,1275,-7484,2025-01-29 11:49:08,0.0
-11748,-3388,-9168,-5828,-310,-7827,2025-01-29 11:49:08,0.0
-11712,-3724,-8476,-5945,-1823,-7553,2025-01-29 11:49:08,0.0
-10360,-3292,-8284,-5916,-2005,-6926,2025-01-29 11:49:09,0.0
-9280,-2676,-8316,-6066,-1179,-6591,2025-01-29 11:49:09,0.0
-8436,-2208,-8068,-6307,-108,-6331,2025-01-29 11:49:09,0.0
-8100,-1772,-8572,-6619,956,-6323,2025-01-29 11:49:09,0.0
-8668,-1440,-8664,-7097,1937,-6415,2025-01-29 11:49:09,0.0
-9596,-1280,-8872,-7595,2563,-6591,2025-01-29 11:49:09,0.0
-10396,-1408,-9156,-8018,2419,-6642,2025-01-29 11:49:09,0.0
-10884,-1720,-8984,-8531,1761,-6809,2025-01-29 11:49:09,0.0
-11196,-2040,-8568,-9051,637,-7102,2025-01-29 11:49:09,0.0
-11096,-2420,-8512,-9424,-637,-7227,2025-01-29 11:49:09,0.0
-10308,-2460,-9020,-9776,-1221,-7500,2025-01-29 11:49:09,0.0
-9768,-2332,-8576,-10208,-1142,-7622,2025-01-29 11:49:09,0.0
-9472,-2360,-8444,-10511,-687,-7570,2025-01-29 11:49:09,0.0
-9232,-2448,-8508,-10620,140,-7677,2025-01-29 11:49:09,0.0
-9748,-2532,-8672,-10801,1047,-7912,2025-01-29 11:49:09,0.0
-9992,-2580,-8964,-11233,1079,-8207,2025-01-29 11:49:09,0.0
-10640,-2600,-9056,-11571,169,-8211,2025-01-29 11:49:09,0.0
-10656,-2424,-9148,-11826,-882,-8049,2025-01-29 11:49:09,0.0
-9832,-2464,-9092,-12321,-1817,-7963,2025-01-29 11:49:09,0.0
-9120,-2572,-8876,-12976,-2069,-8133,2025-01-29 11:49:09,0.0
-8628,-2372,-8548,-13863,-1697,-8574,2025-01-29 11:49:09,0.0
-8564,-2328,-8624,-14833,-1139,-9089,2025-01-29 11:49:09,0.0
-8836,-2524,-8340,-15571,-689,-9652,2025-01-29 11:49:09,0.0
-9160,-2488,-8152,-16283,-600,-10132,2025-01-29 11:49:09,0.0
-9420,-2732,-8500,-17135,-833,-10495,2025-01-29 11:49:09,0.0
-9604,-3364,-8576,-17906,-1247,-10742,2025-01-29 11:49:09,0.0
-10156,-3784,-8792,-18317,-1697,-10679,2025-01-29 11:49:09,0.0
-10444,-4328,-8540,-18807,-2013,-10189,2025-01-29 11:49:09,0.0
-10040,-4816,-8676,-19199,-2139,-9728,2025-01-29 11:49:09,0.0
-9668,-5052,-9052,-19455,-2028,-9462,2025-01-29 11:49:09,0.0
-9556,-4708,-9968,-19617,-1882,-9227,2025-01-29 11:49:09,0.0
-9508,-4680,-10936,-19756,-1502,-9135,2025-01-29 11:49:09,0.0
-9928,-4736,-11020,-19317,-1155,-9322,2025-01-29 11:49:09,0.0
-9904,-5000,-11860,-18680,-1190,-9649,2025-01-29 11:49:09,0.0
-9536,-5132,-13360,-17895,-1333,-10074,2025-01-29 11:49:09,0.0
-9392,-3508,-13616,-16744,-1953,-9991,2025-01-29 11:49:09,0.0
-8100,-1524,-13072,-15353,-1442,-10487,2025-01-29 11:49:09,0.0
-7540,1364,-10608,-15190,-361,-11729,2025-01-29 11:49:09,0.0
-9064,2756,-7612,-16220,996,-11792,2025-01-29 11:49:09,0.0
-9668,2236,-6888,-17857,2820,-10832,2025-01-29 11:49:09,0.0
-9664,1644,-7484,-18811,3894,-9741,2025-01-29 11:49:09,0.0
-10892,992,-9996,-19116,5090,-8584,2025-01-29 11:49:09,0.0
-11752,-144,-11476,-19393,6438,-7680,2025-01-29 11:49:09,0.0
-12176,-344,-10288,-19490,5770,-8299,2025-01-29 11:49:09,0.0
-13032,68,-8444,-18999,3412,-9245,2025-01-29 11:49:09,0.0
-13168,36,-6636,-17344,721,-9439,2025-01-29 11:49:09,0.0
-11900,-468,-5836,-15488,-1307,-9338,2025-01-29 11:49:09,0.0
-10656,-1556,-6020,-14169,-1974,-9151,2025-01-29 11:49:09,0.0
-9452,-2080,-5728,-12988,-850,-8776,2025-01-29 11:49:09,0.0
-9216,-2836,-5772,-11714,1862,-8049,2025-01-29 11:49:09,0.0
-9284,-2624,-5724,-10544,4002,-7358,2025-01-29 11:49:09,0.0
-10016,-1680,-6656,-9267,5013,-6757,2025-01-29 11:49:09,0.0
-10632,-780,-7796,-8488,5027,-6415,2025-01-29 11:49:09,0.0
-10660,132,-8360,-7917,4179,-6393,2025-01-29 11:49:09,0.0
-10548,900,-8492,-7526,3192,-6435,2025-01-29 11:49:09,0.0
-9832,1704,-8772,-7668,2620,-6384,2025-01-29 11:49:09,0.0
-8984,2088,-8972,-7875,2616,-6745,2025-01-29 11:49:09,0.0
-9044,2792,-9860,-8094,3002,-7057,2025-01-29 11:49:09,0.0
-9080,3752,-10108,-8546,3452,-7249,2025-01-29 11:49:09,0.0
-9328,3936,-10120,-9161,2938,-7423,2025-01-29 11:49:09,0.0
-9284,2780,-9492,-9486,1293,-7402,2025-01-29 11:49:09,0.0
-8104,1040,-8864,-9469,29,-7241,2025-01-29 11:49:10,0.0
-6936,-788,-6968,-8732,-162,-7110,2025-01-29 11:49:10,0.0
-6052,-1556,-6680,-7634,558,-7257,2025-01-29 11:49:10,0.0
-6168,-1704,-6828,-6376,1838,-7294,2025-01-29 11:49:10,0.0
-6880,-1480,-6868,-4724,3134,-6629,2025-01-29 11:49:10,0.0
-7532,-1852,-6680,-3208,3534,-5209,2025-01-29 11:49:10,0.0
-7316,-2612,-6504,-1967,3531,-4039,2025-01-29 11:49:10,0.0
-6868,-3632,-6436,-757,3528,-3516,2025-01-29 11:49:10,0.0
-6104,-3724,-7492,214,3527,-3642,2025-01-29 11:49:10,0.0
-6272,-2044,-9544,952,3775,-3742,2025-01-29 11:49:10,0.0
-7244,-620,-10368,1130,3971,-3154,2025-01-29 11:49:10,0.0
-9248,-500,-10360,769,4533,-2061,2025-01-29 11:49:10,0.0
-11152,-712,-9128,367,5535,-1016,2025-01-29 11:49:10,0.0
-12404,-648,-9112,-34,5698,-210,2025-01-29 11:49:10,0.0
-13920,-3744,-20416,-3319,7370,-254,2025-01-29 11:49:10,0.0
-10168,1020,-8336,-1903,1518,-15,2025-01-29 11:49:10,0.0
-8708,1020,-8864,-1388,-2345,-310,2025-01-29 11:49:10,0.0
-9524,-188,-8712,-1058,-3593,-1103,2025-01-29 11:49:10,0.0
-7456,-1780,-9188,-551,-1744,-1557,2025-01-29 11:49:10,0.0
-7600,-2544,-8752,-53,68,-2278,2025-01-29 11:49:10,0.0
-8028,-1756,-8620,-321,1837,-3349,2025-01-29 11:49:10,0.0
-8828,-332,-9600,-1682,-497,-3335,2025-01-29 11:49:10,0.0
-10952,416,-9848,-1724,145,-2225,2025-01-29 11:49:10,
-11248,-504,-10340,-1756,-867,-1134,2025-01-29 11:49:10,0.0
-11320,-1596,-9672,-1288,-2735,-981,2025-01-29 11:49:10,0.0
-10712,-1572,-9372,-1263,-5095,-1526,2025-01-29 11:49:10,0.0
-9056,-392,-9672,-1585,-7356,-1457,2025-01-29 11:49:10,0.0
-9784,76,-9720,-1794,-5174,-1277,2025-01-29 11:49:10,0.0
-7932,-648,-9580,-1456,-5184,-1711,2025-01-29 11:49:10,0.0
-10928,-1260,-8052,-1659,-6284,-2134,2025-01-29 11:49:10,0.0
-11268,-1560,-9136,-1118,-5997,-1978,2025-01-29 11:49:10,0.0
-11276,-936,-9388,-1399,-5817,-1326,2025-01-29 11:49:10,0.0
-11024,-1128,-9028,-994,-7080,-937,2025-01-29 11:49:10,0.0
-11168,-804,-8852,-568,-8350,-870,2025-01-29 11:49:10,0.0
-11044,440,-9212,-683,-7070,-1186,2025-01-29 11:49:10,0.0
-11700,132,-8468,-858,-5795,-1665,2025-01-29 11:49:10,0.0
-12084,904,-7824,-1368,-6434,-876,2025-01-29 11:49:10,0.0
-14172,-1116,-9092,-1344,-8335,-734,2025-01-29 11:49:10,0.0
-12612,-1008,-7008,-1217,-8147,-326,2025-01-29 11:49:10,0.0
-11948,84,-6228,-819,-7444,-917,2025-01-29 11:49:10,0.0
-11880,460,-6292,-502,-6464,-2097,2025-01-29 11:49:10,0.0
-14388,-216,-6872,-430,-5632,-2174,2025-01-29 11:49:10,0.0
-14456,-840,-8812,-1183,-6708,-1128,2025-01-29 11:49:10,0.0
-13592,-1340,-6548,-1413,-9099,-348,2025-01-29 11:49:10,0.0
-11964,-1404,-4104,-741,-10143,-71,2025-01-29 11:49:10,0.0
-11120,-936,-4028,-99,-9858,-228,2025-01-29 11:49:10,0.0
-11232,184,-4156,-159,-8492,-534,2025-01-29 11:49:10,0.0
-12712,104,-4200,-595,-6936,-555,2025-01-29 11:49:10,0.0
-13204,-408,-4424,-644,-6568,-924,2025-01-29 11:49:10,0.0
-15620,-1108,-3708,-497,-7400,-979,2025-01-29 11:49:10,0.0
-16044,-864,-4080,-328,-8661,-197,2025-01-29 11:49:10,0.0
-15452,-344,-4352,-124,-9722,688,2025-01-29 11:49:10,0.0
-15012,200,-3620,-192,-10428,885,2025-01-29 11:49:10,0.0
-15844,-156,-1964,-253,-9156,1280,2025-01-29 11:49:10,0.0
-16152,-376,-2128,-333,-6813,438,2025-01-29 11:49:10,0.0
-17440,-500,-2196,-1,-5593,-289,2025-01-29 11:49:10,0.0
-17116,-1144,-3944,112,-5692,-565,2025-01-29 11:49:10,0.0
-17300,-760,-2580,207,-6363,-258,2025-01-29 11:49:10,0.0
-16720,-500,-1404,612,-8184,-57,2025-01-29 11:49:10,0.0
-14404,-732,-1408,576,-6646,-223,2025-01-29 11:49:10,0.0
-14648,-1020,-1872,267,-3276,-510,2025-01-29 11:49:11,0.0
-14664,-776,-2268,177,-1755,-289,2025-01-29 11:49:11,0.0
-15164,-752,-2744,142,-1343,-168,2025-01-29 11:49:11,0.0
-15048,-252,-2736,178,-2663,25,2025-01-29 11:49:11,0.0
-13512,-44,-1792,183,-5340,-151,2025-01-29 11:49:11,0.0
-11884,32,-332,198,-6419,-454,2025-01-29 11:49:11,0.0
-10620,-480,96,281,-5151,-670,2025-01-29 11:49:11,0.0
-12000,-884,500,319,-1690,-745,2025-01-29 11:49:11,0.0
-13448,-1020,-96,351,596,-381,2025-01-29 11:49:11,0.0
-14952,-1120,-1448,222,775,208,2025-01-29 11:49:11,0.0
-15160,-812,-2464,84,-990,802,2025-01-29 11:49:11,0.0
-14308,-264,-1864,-6,-3817,981,2025-01-29 11:49:11,0.0
-12992,-440,-680,42,-4796,461,2025-01-29 11:49:11,0.0
-12680,-1272,368,176,-4430,60,2025-01-29 11:49:11,0.0
-13180,-1296,876,224,-2735,21,2025-01-29 11:49:11,0.0
-13988,-856,744,332,-693,166,2025-01-29 11:49:11,0.0
-15120,-436,316,297,-39,687,2025-01-29 11:49:11,0.0
-15172,-372,-672,32,-1289,885,2025-01-29 11:49:11,0.0
-15088,276,-428,-137,-2573,935,2025-01-29 11:49:11,0.0
-14676,568,172,-311,-2935,996,2025-01-29 11:49:11,0.0
-13748,724,848,-378,-2488,889,2025-01-29 11:49:11,0.0
-13052,1028,596,-267,-1181,310,2025-01-29 11:49:11,0.0
-13308,744,96,-182,-512,-271,2025-01-29 11:49:11,0.0
-14012,200,-272,-120,-1221,-484,2025-01-29 11:49:11,0.0
-13820,-176,344,-120,-2185,-321,2025-01-29 11:49:11,0.0
-13500,-500,1104,-11,-2378,-238,2025-01-29 11:49:11,0.0
-13000,-496,1516,2,-1791,-207,2025-01-29 11:49:11,0.0
-13036,-320,1296,32,-864,-358,2025-01-29 11:49:11,0.0
-13144,-296,944,-6,-219,-611,2025-01-29 11:49:11,0.0
-13552,-532,684,65,-247,-901,2025-01-29 11:49:11,0.0
-13688,-528,572,1,-410,-873,2025-01-29 11:49:11,0.0
-13640,-468,668,44,-517,-925,2025-01-29 11:49:11,0.0
-13440,-288,692,43,-572,-930,2025-01-29 11:49:11,0.0
-13296,-236,676,29,-555,-979,2025-01-29 11:49:11,0.0
-13372,-476,788,-9,-478,-1064,2025-01-29 11:49:11,0.0
-13568,-460,988,-33,-356,-1177,2025-01-29 11:49:11,0.0
-13628,-564,1016,46,-225,-1260,2025-01-29 11:49:11,0.0
-14060,-820,1128,144,-214,-1219,2025-01-29 11:49:11,0.0
-13904,-908,1248,194,-32,-1184,2025-01-29 11:49:11,0.0
-14004,-732,1016,249,116,-1192,2025-01-29 11:49:11,0.0
-13784,-728,936,316,95,-1140,2025-01-29 11:49:11,0.0
-13748,-852,976,334,56,-1067,2025-01-29 11:49:11,0.0
-13664,-824,1152,371,161,-1067,2025-01-29 11:49:11,0.0
-13776,-856,1276,365,321,-1032,2025-01-29 11:49:11,0.0
-13788,-1012,1148,376,616,-961,2025-01-29 11:49:11,0.0
-14040,-728,976,370,746,-835,2025-01-29 11:49:11,0.0
-14196,-892,872,253,679,-740,2025-01-29 11:49:11,0.0
-14408,-1004,604,228,334,-491,2025-01-29 11:49:11,0.0
-14088,-996,952,176,116,-262,2025-01-29 11:49:11,0.0
-13788,-1008,1168,97,122,-130,2025-01-29 11:49:11,0.0
-13576,-1000,1044,-9,297,-4,2025-01-29 11:49:11,0.0
-13572,-1112,1020,-113,457,54,2025-01-29 11:49:11,0.0
-13680,-1060,1044,-167,484,-37,2025-01-29 11:49:11,0.0
-13636,-1148,1072,-166,455,-148,2025-01-29 11:49:11,0.0
-13792,-1260,780,-90,184,-318,2025-01-29 11:49:11,0.0
-14048,-1232,1108,-6,216,-469,2025-01-29 11:49:11,0.0
-14092,-1060,888,34,327,-549,2025-01-29 11:49:11,0.0
-14104,-1044,868,37,370,-551,2025-01-29 11:49:11,0.0
-13748,-884,464,-34,240,-357,2025-01-29 11:49:12,0.0
-13768,-952,464,-59,143,-351,2025-01-29 11:49:12,0.0
-13580,-996,400,-65,78,-394,2025-01-29 11:49:12,0.0
-13808,-976,400,-60,192,-357,2025-01-29 11:49:12,0.0
-13900,-992,504,-50,200,-332,2025-01-29 11:49:12,
-14020,-1000,668,-52,128,-239,2025-01-29 11:49:12,0.0
-13904,-972,664,-27,49,-128,2025-01-29 11:49:12,0.0
-13808,-908,836,-54,66,-24,2025-01-29 11:49:12,0.0
-13820,-940,772,-43,110,-34,2025-01-29 11:49:12,0.0
-13780,-1064,644,-89,112,-43,2025-01-29 11:49:12,0.0
-13696,-1000,732,-109,-19,-98,2025-01-29 11:49:12,0.0
-13680,-960,820,-136,-16,-110,2025-01-29 11:49:12,0.0
-13880,-988,896,-113,76,-119,2025-01-29 11:49:12,0.0
-13976,-948,784,-111,171,-177,2025-01-29 11:49:12,0.0
-13956,-964,456,-108,51,-135,2025-01-29 11:49:12,0.0
-13736,-908,664,-94,-100,-109,2025-01-29 11:49:12,0.0
-13776,-916,584,-104,-88,-95,2025-01-29 11:49:12,0.0
-13820,-968,848,-104,-144,-83,2025-01-29 11:49:12,0.0
-13776,-948,868,-94,-124,-104,2025-01-29 11:49:12,0.0
-13748,-892,940,-107,-7,-173,2025-01-29 11:49:12,0.0
-13792,-916,868,-117,134,-180,2025-01-29 11:49:12,0.0
-13648,-924,880,-141,187,-144,2025-01-29 11:49:12,0.0
-13828,-948,788,-145,176,-139,2025-01-29 11:49:12,0.0
-13724,-924,772,-173,126,-100,2025-01-29 11:49:12,0.0
-13760,-940,916,-186,115,-76,2025-01-29 11:49:12,0.0
-13752,-968,776,-190,52,-91,2025-01-29 11:49:12,0.0
-13816,-1028,696,-145,47,-147,2025-01-29 11:49:12,0.0
-13728,-1032,968,-180,83,-181,2025-01-29 11:49:12,0.0
-13828,-996,888,-150,147,-186,2025-01-29 11:49:12,0.0
-13764,-1004,780,-175,198,-130,2025-01-29 11:49:12,0.0
-13808,-864,644,-173,221,-96,2025-01-29 11:49:12,0.0
-13860,-924,760,-170,180,-84,2025-01-29 11:49:12,0.0
-13956,-976,856,-159,119,-81,2025-01-29 11:49:12,0.0
-13744,-912,660,-149,111,-133,2025-01-29 11:49:12,0.0
-13712,-936,916,-144,108,-161,2025-01-29 11:49:12,0.0
-13780,-912,924,-116,128,-192,2025-01-29 11:49:12,0.0
-13748,-860,880,-134,185,-181,2025-01-29 11:49:12,0.0
-13792,-936,832,-166,208,-145,2025-01-29 11:49:12,0.0
-13948,-880,728,-130,200,-139,2025-01-29 11:49:12,0.0
-13864,-876,840,-143,227,-142,2025-01-29 11:49:12,0.0
-13740,-868,868,-137,182,-168,2025-01-29 11:49:12,0.0
-13712,-840,856,-121,196,-203,2025-01-29 11:49:12,0.0
-13800,-944,784,-162,181,-201,2025-01-29 11:49:12,0.0
-13852,-1000,724,-192,173,-184,2025-01-29 11:49:12,0.0
-13852,-904,880,-167,180,-162,2025-01-29 11:49:12,0.0
-13836,-952,900,-157,133,-175,2025-01-29 11:49:12,0.0
-13944,-948,840,-169,174,-185,2025-01-29 11:49:12,0.0
-13824,-820,816,-194,145,-174,2025-01-29 11:49:12,0.0
-13736,-856,740,-151,186,-177,2025-01-29 11:49:12,0.0
-13860,-1004,952,-166,166,-193,2025-01-29 11:49:12,0.0
-13792,-1016,856,-153,188,-174,2025-01-29 11:49:12,0.0
-13896,-968,812,-163,176,-174,2025-01-29 11:49:12,0.0
-13832,-956,812,-170,183,-197,2025-01-29 11:49:12,0.0
-13872,-884,628,-189,174,-192,2025-01-29 11:49:12,0.0
-13828,-840,788,-163,159,-149,2025-01-29 11:49:12,0.0
-13804,-932,580,-164,180,-151,2025-01-29 11:49:12,0.0
-13820,-876,796,-183,249,-176,2025-01-29 11:49:12,0.0
-13748,-884,756,-181,259,-173,2025-01-29 11:49:12,0.0
-13756,-844,752,-202,201,-167,2025-01-29 11:49:13,0.0
-13768,-932,800,-185,162,-161,2025-01-29 11:49:13,0.0
-13728,-992,912,-210,155,-212,2025-01-29 11:49:13,0.0
-13904,-928,836,-204,224,-259,2025-01-29 11:49:13,0.0
-13936,-892,736,-168,183,-250,2025-01-29 11:49:13,0.0
-13820,-916,732,-160,0,-176,2025-01-29 11:49:13,0.0
-13812,-892,708,-165,-7,-134,2025-01-29 11:49:13,0.0
-13792,-872,988,-192,-23,-141,2025-01-29 11:49:13,0.0
-13812,-892,1040,-185,-16,-158,2025-01-29 11:49:13,0.0
-13824,-896,964,-168,65,-188,2025-01-29 11:49:13,0.0
-13744,-948,828,-168,123,-209,2025-01-29 11:49:13,0.0
-13836,-1000,892,-170,176,-195,2025-01-29 11:49:13,0.0
-13816,-1000,792,-203,190,-204,2025-01-29 11:49:13,0.0
-13820,-976,796,-202,160,-177,2025-01-29 11:49:13,0.0
-13664,-948,792,-218,132,-180,2025-01-29 11:49:13,0.0
-13812,-988,720,-188,118,-168,2025-01-29 11:49:13,0.0
-13848,-1012,880,-184,83,-174,2025-01-29 11:49:13,0.0
-13820,-1024,928,-170,116,-189,2025-01-29 11:49:13,0.0
-13848,-936,948,-176,144,-170,2025-01-29 11:49:13,0.0
-13832,-1020,856,-194,192,-209,2025-01-29 11:49:13,0.0
-13836,-968,888,-198,178,-191,2025-01-29 11:49:13,0.0
-13824,-836,804,-162,197,-151,2025-01-29 11:49:13,0.0
-13792,-948,848,-181,166,-133,2025-01-29 11:49:13,0.0
-13732,-924,968,-174,194,-165,2025-01-29 11:49:13,0.0
-13704,-952,980,-141,214,-177,2025-01-29 11:49:13,0.0
-13788,-848,792,-152,218,-188,2025-01-29 11:49:13,0.0
-13812,-944,964,-155,243,-202,2025-01-29 11:49:13,0.0
-13824,-988,792,-160,225,-186,2025-01-29 11:49:13,0.0
-13896,-932,720,-150,222,-183,2025-01-29 11:49:13,0.0
-13800,-876,852,-167,243,-148,2025-01-29 11:49:13,0.0
-13824,-928,844,-173,264,-151,2025-01-29 11:49:13,0.0
-13840,-908,672,-189,246,-133,2025-01-29 11:49:13,0.0
-13656,-964,852,-179,235,-102,2025-01-29 11:49:13,0.0
-13800,-920,880,-176,208,-137,2025-01-29 11:49:13,0.0
-13916,-980,672,-203,158,-156,2025-01-29 11:49:13,0.0
-13820,-960,944,-208,169,-195,2025-01-29 11:49:13,0.0
-13784,-1024,632,-189,175,-178,2025-01-29 11:49:13,0.0
-13884,-932,780,-207,217,-143,2025-01-29 11:49:13,0.0
-13736,-916,888,-223,226,-124,2025-01-29 11:49:13,0.0
-13740,-820,796,-216,222,-161,2025-01-29 11:49:13,0.0
-13704,-908,916,-214,214,-179,2025-01-29 11:49:13,0.0
-13820,-984,824,-209,223,-196,2025-01-29 11:49:13,0.0
-13696,-956,736,-204,231,-189,2025-01-29 11:49:13,0.0
-13860,-992,736,-194,209,-170,2025-01-29 11:49:13,0.0
-13924,-924,736,-196,217,-168,2025-01-29 11:49:13,0.0
-13912,-972,864,-198,226,-161,2025-01-29 11:49:13,0.0
-13840,-976,872,-202,199,-132,2025-01-29 11:49:13,
-13796,-972,840,-207,205,-158,2025-01-29 11:49:13,0.0
-13868,-892,908,-188,235,-164,2025-01-29 11:49:13,0.0
-13768,-980,700,-174,267,-184,2025-01-29 11:49:13,0.0
-13792,-904,700,-161,216,-158,2025-01-29 11:49:13,0.0
-13680,-916,820,-191,183,-140,2025-01-29 11:49:13,0.0
-13852,-912,704,-180,232,-165,2025-01-29 11:49:13,0.0
-13800,-992,824,-169,314,-180,2025-01-29 11:49:13,0.0
-13908,-816,636,-135,141,-158,2025-01-29 11:49:13,0.0
-13792,-816,804,-144,54,-84,2025-01-29 11:49:13,0.0
-13756,-832,664,-148,11,-108,2025-01-29 11:49:13,0.0
-13724,-920,632,-146,-35,-116,2025-01-29 11:49:13,0.0
-13780,-952,968,-129,29,-178,2025-01-29 11:49:13,0.0
-13764,-804,812,-117,167,-167,2025-01-29 11:49:13,0.0
-13720,-964,800,-123,228,-206,2025-01-29 11:49:13,0.0
-13776,-992,744,-190,227,-222,2025-01-29 11:49:13,0.0
-13804,-944,644,-182,239,-180,2025-01-29 11:49:13,0.0
-13780,-1024,572,-212,202,-181,2025-01-29 11:49:14,0.0
-13908,-952,816,-203,157,-149,2025-01-29 11:49:14,0.0
-13756,-920,660,-160,94,-124,2025-01-29 11:49:14,0.0
-13672,-844,916,-183,128,-146,2025-01-29 11:49:14,0.0
-13768,-868,800,-198,199,-166,2025-01-29 11:49:14,0.0
-13892,-892,828,-172,235,-185,2025-01-29 11:49:14,0.0
-13816,-988,808,-163,208,-174,2025-01-29 11:49:14,0.0
-13792,-908,728,-178,174,-154,2025-01-29 11:49:14,0.0
-13772,-876,748,-194,179,-167,2025-01-29 11:49:14,0.0
-13848,-880,856,-169,152,-175,2025-01-29 11:49:14,0.0
-13772,-864,896,-180,161,-174,2025-01-29 11:49:14,0.0
-13800,-896,832,-160,175,-194,2025-01-29 11:49:14,0.0
-13876,-884,720,-164,155,-170,2025-01-29 11:49:14,0.0
-13788,-892,868,-165,150,-165,2025-01-29 11:49:14,0.0
-13708,-956,776,-160,166,-155,2025-01-29 11:49:14,0.0
-13796,-876,684,-177,160,-155,2025-01-29 11:49:14,0.0
-13768,-948,712,-136,141,-181,2025-01-29 11:49:14,0.0
-13700,-924,840,-138,155,-215,2025-01-29 11:49:14,0.0
-13712,-896,668,-136,128,-231,2025-01-29 11:49:14,0.0
-13772,-828,564,-158,146,-206,2025-01-29 11:49:14,0.0
-13888,-1040,684,-159,148,-195,2025-01-29 11:49:14,0.0
-13920,-960,628,-174,170,-207,2025-01-29 11:49:14,0.0
-13784,-936,632,-126,115,-250,2025-01-29 11:49:14,0.0
-13800,-856,676,-70,50,-275,2025-01-29 11:49:14,0.0
-13828,-984,640,-17,38,-353,2025-01-29 11:49:14,0.0
-13836,-656,424,43,-128,-357,2025-01-29 11:49:14,0.0
-13948,-580,460,16,-280,-340,2025-01-29 11:49:14,0.0
-13768,-608,532,-17,-269,-304,2025-01-29 11:49:14,0.0
-13648,-820,488,-64,-470,-208,2025-01-29 11:49:14,0.0
-13548,-980,912,-139,-452,-201,2025-01-29 11:49:14,0.0
-13536,-1056,908,-43,-429,-223,2025-01-29 11:49:14,0.0
-13728,-1164,1024,-89,-226,-197,2025-01-29 11:49:14,0.0
-13856,-1044,1164,-86,-150,-164,2025-01-29 11:49:14,0.0
-14140,-1028,1192,-44,-236,-125,2025-01-29 11:49:14,0.0
-14008,-980,1136,-97,-276,-122,2025-01-29 11:49:14,0.0
-13788,-912,1004,-139,-214,-63,2025-01-29 11:49:14,0.0
-13628,-900,952,-192,-111,-74,2025-01-29 11:49:14,0.0
-13672,-880,1140,-197,37,-77,2025-01-29 11:49:14,0.0
-13688,-1144,1104,-185,19,-23,2025-01-29 11:49:14,0.0
-13760,-1252,1028,-242,-283,47,2025-01-29 11:49:14,0.0
-13580,-1120,724,-303,-540,50,2025-01-29 11:49:14,0.0
-13444,-1084,1156,-243,-328,-53,2025-01-29 11:49:14,0.0
-13364,-1040,1288,-131,-139,-250,2025-01-29 11:49:14,0.0
-13404,-924,1140,49,-229,-178,2025-01-29 11:49:14,0.0
-13624,-920,1324,129,-254,-61,2025-01-29 11:49:14,0.0
-13764,-832,1324,94,-130,92,2025-01-29 11:49:14,0.0
-14104,-508,1352,-224,202,84,2025-01-29 11:49:14,0.0
-14136,-472,1272,-464,482,-190,2025-01-29 11:49:14,0.0
-13712,-808,1156,-462,679,-382,2025-01-29 11:49:14,0.0
-13552,-1052,1068,-378,746,-374,2025-01-29 11:49:14,0.0
-13664,-1276,1036,-268,595,-255,2025-01-29 11:49:14,0.0
-13780,-1172,984,-226,415,29,2025-01-29 11:49:14,0.0
-13580,-1084,860,-273,518,394,2025-01-29 11:49:14,0.0
-13956,-1052,864,-487,374,834,2025-01-29 11:49:14,0.0
-12812,-1084,616,-667,863,763,2025-01-29 11:49:14,0.0
-12832,-928,1176,-741,1340,640,2025-01-29 11:49:14,0.0
-12868,-1104,632,-734,2023,569,2025-01-29 11:49:14,0.0
-13628,-980,560,-538,2679,606,2025-01-29 11:49:14,0.0
-14204,-780,536,-413,3247,773,2025-01-29 11:49:14,0.0
-13500,-764,392,-463,2910,886,2025-01-29 11:49:14,0.0
-12924,-536,260,-645,2646,869,2025-01-29 11:49:14,0.0
-12620,-504,340,-880,2567,715,2025-01-29 11:49:15,0.0
-12920,-440,1052,-927,3065,426,2025-01-29 11:49:15,0.0
-14496,-384,692,-554,3950,-23,2025-01-29 11:49:15,0.0
-15812,-496,380,61,3906,-189,2025-01-29 11:49:15,0.0
-15460,-1304,528,329,2288,-114,2025-01-29 11:49:15,0.0
-15392,-864,1208,243,2774,-142,2025-01-29 11:49:15,0.0
-14468,-500,1876,286,4055,-190,2025-01-29 11:49:15,0.0
-13464,28,2112,465,5941,-192,2025-01-29 11:49:15,0.0
-13188,228,1240,454,7683,17,2025-01-29 11:49:15,0.0
-13640,672,444,145,8690,110,2025-01-29 11:49:15,0.0
-14000,-132,-676,-16,9153,435,2025-01-29 11:49:15,0.0
-14192,-628,-1096,-70,9082,645,2025-01-29 11:49:15,0.0
-13836,-1244,-784,57,8859,460,2025-01-29 11:49:15,0.0
-21288,-1904,2636,-196,12405,-459,2025-01-29 11:49:15,0.0
-16000,-840,-3416,0,7746,482,2025-01-29 11:49:15,0.0
-16632,-948,-2496,121,6735,709,2025-01-29 11:49:15,0.0
-18884,-1844,-1164,434,7431,456,2025-01-29 11:49:15,0.0
-16932,-1764,-2128,1117,6830,2,2025-01-29 11:49:15,0.0
-15668,-1000,-3216,1637,7285,-831,2025-01-29 11:49:15,0.0
-17228,-452,-4344,1656,5078,-914,2025-01-29 11:49:15,0.0
-16472,-272,-4876,1204,4391,-545,2025-01-29 11:49:15,0.0
-15160,4,-4244,805,5103,-441,2025-01-29 11:49:15,0.0
-14904,-784,-4020,633,6230,-17,2025-01-29 11:49:15,
-14588,-720,-4376,528,7285,136,2025-01-29 11:49:15,0.0
-14780,-560,-4732,424,7489,-53,2025-01-29 11:49:15,0.0
-14204,-692,-4344,364,7081,-131,2025-01-29 11:49:15,0.0
-13000,-752,-4452,371,7914,-260,2025-01-29 11:49:15,0.0
-13176,-520,-5440,392,8325,-268,2025-01-29 11:49:15,0.0
-13128,-344,-5856,315,8047,-154,2025-01-29 11:49:15,0.0
-12948,-260,-5924,199,7262,-34,2025-01-29 11:49:15,0.0
-11824,-176,-6296,70,6515,75,2025-01-29 11:49:15,0.0
-12096,-76,-5892,-32,6272,242,2025-01-29 11:49:15,0.0
-12180,-132,-6276,-14,5698,212,2025-01-29 11:49:15,0.0
-12220,-132,-6320,-66,4904,252,2025-01-29 11:49:15,0.0
-12116,-232,-6404,-84,4274,378,2025-01-29 11:49:15,0.0
-12096,-648,-6052,-43,3982,515,2025-01-29 11:49:15,0.0
-11888,-668,-5888,77,4013,487,2025-01-29 11:49:15,0.0
-12052,-908,-6124,366,4145,367,2025-01-29 11:49:15,0.0
-12084,-760,-6744,575,3192,428,2025-01-29 11:49:15,0.0
-11704,-548,-6520,518,3704,302,2025-01-29 11:49:15,0.0
-11528,-468,-6816,323,4806,407,2025-01-29 11:49:15,0.0
-11156,-700,-7176,235,5458,275,2025-01-29 11:49:15,0.0
-10840,-376,-7628,232,5336,-179,2025-01-29 11:49:15,0.0
-11120,-376,-8736,31,4615,-263,2025-01-29 11:49:15,0.0
-11632,0,-8884,-343,3647,-85,2025-01-29 11:49:15,0.0
-11528,-208,-9524,-865,2563,-190,2025-01-29 11:49:15,0.0
-10412,-372,-9312,-903,-595,161,2025-01-29 11:49:15,0.0
-11772,-292,-8872,-879,283,-405,2025-01-29 11:49:15,0.0
-10504,-24,-8172,-822,-577,-581,2025-01-29 11:49:15,0.0
-10732,-196,-7100,-745,-1729,-530,2025-01-29 11:49:15,0.0
-10204,-504,-7536,-521,-361,-718,2025-01-29 11:49:15,0.0
-10048,-736,-7192,-354,-201,-602,2025-01-29 11:49:15,0.0
-9716,-968,-7160,181,-73,-347,2025-01-29 11:49:15,0.0
-9588,-1136,-7960,393,1111,-384,2025-01-29 11:49:15,0.0
-9592,-1016,-8256,699,2001,-183,2025-01-29 11:49:15,0.0
-9996,-620,-8296,698,3243,-198,2025-01-29 11:49:15,0.0
-9876,-232,-7988,654,4005,-641,2025-01-29 11:49:15,0.0
-10028,-104,-7940,610,4445,-1048,2025-01-29 11:49:15,0.0
-10100,-252,-8248,699,5311,-1467,2025-01-29 11:49:15,0.0
-9656,-352,-9196,482,6437,-2190,2025-01-29 11:49:15,0.0
-9028,-300,-10320,364,6653,-2908,2025-01-29 11:49:15,0.0
-8636,-332,-10932,303,5652,-3240,2025-01-29 11:49:15,0.0
-8936,-584,-10760,-55,4700,-3455,2025-01-29 11:49:16,0.0
-10284,-792,-9844,-491,4331,-3658,2025-01-29 11:49:16,0.0
-11032,-1416,-9028,-1093,4622,-3904,2025-01-29 11:49:16,0.0
-10384,-1744,-9156,-1482,2970,-4105,2025-01-29 11:49:16,0.0
-10064,-2008,-9988,-1449,840,-4080,2025-01-29 11:49:16,0.0
-10096,-2096,-10340,-1673,-1868,-3840,2025-01-29 11:49:16,0.0
-10336,-1920,-9772,-1757,-3752,-3308,2025-01-29 11:49:16,0.0
-9380,-2100,-9000,-2081,-7520,-1860,2025-01-29 11:49:16,0.0
-10260,-1512,-7928,-1971,-5332,-1943,2025-01-29 11:49:16,0.0
-9780,-1364,-8056,-1995,-6226,-1556,2025-01-29 11:49:16,0.0
-9604,-1436,-7844,-2002,-6846,-1391,2025-01-29 11:49:16,0.0
-9508,-1548,-7792,-2032,-6787,-1283,2025-01-29 11:49:16,0.0
-9688,-1660,-7692,-1934,-6454,-949,2025-01-29 11:49:16,0.0
-9308,-1916,-7448,-1717,-6201,-435,2025-01-29 11:49:16,0.0
-9520,-2368,-6856,-1237,-4957,-134,2025-01-29 11:49:16,0.0
-9656,-2444,-6200,-675,-4228,-116,2025-01-29 11:49:16,0.0
-10144,-2688,-5616,98,-3926,-226,2025-01-29 11:49:16,0.0
-10120,-2484,-6184,741,-4207,-399,2025-01-29 11:49:16,0.0
-10968,-2324,-7220,904,-4824,-60,2025-01-29 11:49:16,0.0
-10848,-2048,-7892,1047,-5618,650,2025-01-29 11:49:16,0.0
-10600,-1696,-8368,1098,-6812,1484,2025-01-29 11:49:16,0.0
-9208,-1956,-7828,1142,-8169,1947,2025-01-29 11:49:16,0.0
-7380,-1476,-6680,1630,-5558,1714,2025-01-29 11:49:16,0.0
-7300,-980,-6808,1446,-3520,1998,2025-01-29 11:49:16,0.0
-7684,-488,-7644,1175,-1072,2143,2025-01-29 11:49:16,0.0
-8656,-124,-8096,584,1362,2111,2025-01-29 11:49:16,0.0
-9832,188,-8192,-216,3187,2295,2025-01-29 11:49:16,0.0
-10080,908,-8908,-927,3616,2425,2025-01-29 11:49:16,0.0
-10388,2236,-9448,-2032,3013,2473,2025-01-29 11:49:16,0.0
-10480,3716,-9588,-3115,2198,2396,2025-01-29 11:49:16,0.0
-10676,4612,-8244,-3874,2155,1816,2025-01-29 11:49:16,0.0
-8336,2704,-5452,-4540,529,717,2025-01-29 11:49:16,0.0
-11332,1796,-5052,-4596,2081,-1215,2025-01-29 11:49:16,0.0
-12244,-76,-4808,-4320,1320,-1068,2025-01-29 11:49:16,0.0
-12296,-992,-5116,-3837,1926,-329,2025-01-29 11:49:16,0.0
-12276,-976,-4980,-3260,2588,154,2025-01-29 11:49:16,0.0
-12304,-124,-5788,-2784,3068,334,2025-01-29 11:49:16,0.0
-12184,840,-6272,-2913,2669,211,2025-01-29 11:49:16,0.0
-12124,1956,-5924,-3185,1561,-53,2025-01-29 11:49:16,0.0
-11552,2636,-5932,-3621,375,-359,2025-01-29 11:49:16,0.0
-11336,2992,-5332,-4059,-389,-814,2025-01-29 11:49:16,0.0
-10952,2776,-4388,-4192,-830,-1348,2025-01-29 11:49:16,0.0
-11072,1460,-4064,-4038,-826,-1865,2025-01-29 11:49:16,0.0
-10936,232,-4064,-3364,-694,-1988,2025-01-29 11:49:16,0.0
-10448,-492,-4312,-2536,-599,-2023,2025-01-29 11:49:16,0.0
-10032,-592,-3436,-1540,0,-2140,2025-01-29 11:49:16,0.0
-10032,200,-2908,-1056,1142,-2733,2025-01-29 11:49:16,0.0
-11008,1700,-2952,-682,2000,-3120,2025-01-29 11:49:16,0.0
-11672,2700,-5552,-500,2691,-3161,2025-01-29 11:49:16,0.0
-12648,2452,-6596,-875,3705,-3198,2025-01-29 11:49:16,0.0
-13284,1316,-5952,-952,3979,-3040,2025-01-29 11:49:16,0.0
-14260,188,-5180,-412,3567,-2838,2025-01-29 11:49:16,0.0
-14792,-636,-4976,748,2899,-2298,2025-01-29 11:49:16,0.0
-14660,-1380,-4872,1975,2189,-2003,2025-01-29 11:49:16,0.0
-15032,-1472,-4668,2937,1798,-1807,2025-01-29 11:49:16,0.0
-15252,-84,-4104,3229,1049,-1427,2025-01-29 11:49:16,0.0
-15116,1820,-4424,2825,504,-1245,2025-01-29 11:49:16,0.0
-15176,3424,-5260,1856,514,-1156,2025-01-29 11:49:16,0.0
-15116,4192,-7660,29,1910,-976,2025-01-29 11:49:17,0.0
-16272,4228,-7832,-1219,3851,-1076,2025-01-29 11:49:17,0.0
-16964,4656,-9072,-2394,5293,-1359,2025-01-29 11:49:17,
-12236,4252,-10700,-3817,3813,-1398,2025-01-29 11:49:17,0.0
-15316,4076,-12320,-4731,3959,-2272,2025-01-29 11:49:17,0.0
-14292,2804,-11348,-5603,148,-2791,2025-01-29 11:49:17,0.0
-10860,1724,-9504,-5825,-4195,-3638,2025-01-29 11:49:17,0.0
-7788,612,-5948,-4456,-7191,-4695,2025-01-29 11:49:17,0.0
-5120,-1004,-6048,-2678,-8259,-5617,2025-01-29 11:49:17,0.0
-3732,-2252,-8148,-1770,-7197,-6036,2025-01-29 11:49:17,0.0
-3556,-2416,-10536,-1876,-4082,-6078,2025-01-29 11:49:17,0.0
-4400,-1144,-11684,-2834,1846,-5960,2025-01-29 11:49:17,0.0
-5848,-176,-11040,-4041,6844,-6175,2025-01-29 11:49:17,0.0
-8360,-52,-10012,-5115,9250,-6312,2025-01-29 11:49:17,0.0
-10196,-1016,-10272,-5984,8594,-6805,2025-01-29 11:49:17,0.0
-11164,-1464,-11252,-6052,6542,-7275,2025-01-29 11:49:17,0.0
-12284,-2132,-11320,-5862,3339,-7179,2025-01-29 11:49:17,0.0
-12356,-2788,-9780,-5599,-993,-6911,2025-01-29 11:49:17,0.0
-11484,-3040,-8588,-5287,-4244,-6707,2025-01-29 11:49:17,0.0
-9900,-3084,-7720,-5138,-5386,-6623,2025-01-29 11:49:17,0.0
-8748,-2816,-7496,-5297,-5049,-6430,2025-01-29 11:49:17,0.0
-7524,-2464,-7892,-5432,-3651,-6136,2025-01-29 11:49:17,0.0
-6564,-2092,-8460,-5727,-580,-6126,2025-01-29 11:49:17,0.0
-6572,-2488,-8488,-6197,2187,-6711,2025-01-29 11:49:17,0.0
-7884,-2716,-8156,-6309,3804,-7176,2025-01-29 11:49:17,0.0
-9404,-2948,-7584,-6376,4038,-7143,2025-01-29 11:49:17,0.0
-10608,-2780,-7116,-6407,3184,-6883,2025-01-29 11:49:17,0.0
-11424,-2716,-7220,-6504,1751,-6466,2025-01-29 11:49:17,0.0
-11296,-2908,-7872,-6622,172,-5774,2025-01-29 11:49:17,0.0
-10696,-3072,-8184,-6531,-640,-5276,2025-01-29 11:49:17,0.0
-10132,-3384,-8104,-6423,-669,-4913,2025-01-29 11:49:17,0.0
-9352,-3272,-7832,-6048,60,-4736,2025-01-29 11:49:17,0.0
-9760,-3028,-7324,-5756,592,-4181,2025-01-29 11:49:17,0.0
-9972,-2672,-7056,-5649,1461,-3433,2025-01-29 11:49:17,0.0
-10436,-2640,-7312,-5581,2567,-3108,2025-01-29 11:49:17,0.0
-10892,-2908,-7568,-5516,3004,-2992,2025-01-29 11:49:17,0.0
-11404,-3284,-7660,-5338,2601,-2913,2025-01-29 11:49:17,0.0
-11828,-3560,-7472,-4956,1247,-2624,2025-01-29 11:49:17,0.0
-12064,-3652,-7060,-4469,-252,-1969,2025-01-29 11:49:17,0.0
-11160,-2720,-6900,-4182,-936,-1369,2025-01-29 11:49:17,0.0
-10656,-1624,-7276,-4316,-596,-1616,2025-01-29 11:49:17,0.0
-10660,-944,-7684,-4819,-13,-1647,2025-01-29 11:49:17,0.0
-10736,-480,-7712,-5397,759,-1659,2025-01-29 11:49:17,0.0
-10540,-484,-8148,-5764,1312,-1917,2025-01-29 11:49:17,0.0
-11128,-996,-8208,-6151,1838,-2524,2025-01-29 11:49:17,0.0
-11824,-1024,-8232,-6252,2286,-3658,2025-01-29 11:49:17,0.0
-12868,-944,-7608,-6416,2236,-4871,2025-01-29 11:49:17,0.0
-13832,-1020,-6852,-6463,1031,-5707,2025-01-29 11:49:17,0.0
-13908,-2048,-7628,-6218,-302,-6174,2025-01-29 11:49:17,0.0
-12764,-3464,-10564,-5670,-1081,-6647,2025-01-29 11:49:17,0.0
-13836,-5612,-11116,-5072,-263,-7390,2025-01-29 11:49:17,0.0
-14720,-7288,-10728,-2129,637,-8056,2025-01-29 11:49:17,0.0
-16500,-7736,-12176,-436,-2016,-6031,2025-01-29 11:49:17,0.0
-17104,-7080,-12856,41,-6599,-2402,2025-01-29 11:49:17,0.0
-13392,-5900,-13164,92,-9858,648,2025-01-29 11:49:17,0.0
-8184,-3152,-11508,488,-12668,1690,2025-01-29 11:49:17,0.0
-4900,-500,-10428,234,-13927,1657,2025-01-29 11:49:17,0.0
-3136,2500,-10244,-805,-12338,1278,2025-01-29 11:49:17,0.0
-3568,4144,-11384,-3082,-6701,741,2025-01-29 11:49:17,0.0
-4812,3196,-11192,-4966,2032,61,2025-01-29 11:49:17,0.0
-6176,-408,-9960,-5688,9314,-1158,2025-01-29 11:49:17,0.0
-9288,-3020,-8728,-4983,12562,-1638,2025-01-29 11:49:17,0.0
-12128,-4576,-8084,-3443,12100,-1191,2025-01-29 11:49:18,0.0
-14668,-4724,-8224,-2129,7706,782,2025-01-29 11:49:18,0.0
-14988,-4396,-8780,-1167,2111,3079,2025-01-29 11:49:18,0.0
-13140,-3492,-8904,-445,-2882,4291,2025-01-29 11:49:18,0.0
-10792,-2272,-9160,-22,-5840,4299,2025-01-29 11:49:18,0.0
-9124,-1004,-8340,433,-7309,4103,2025-01-29 11:49:18,0.0
-8432,88,-7080,791,-6925,4268,2025-01-29 11:49:18,0.0
-7268,384,-6468,935,-5307,4553,2025-01-29 11:49:18,0.0
-6932,584,-5796,876,-2691,4443,2025-01-29 11:49:18,0.0
-6724,580,-5680,972,557,3795,2025-01-29 11:49:18,0.0
-7912,464,-5412,1314,2822,2778,2025-01-29 11:49:18,0.0
-9544,84,-5984,1537,3128,2230,2025-01-29 11:49:18,0.0
-10864,-76,-6308,1579,2215,2078,2025-01-29 11:49:18,0.0
-11452,-244,-6136,1797,735,1882,2025-01-29 11:49:18,0.0
-11276,-64,-6080,2225,-927,1003,2025-01-29 11:49:18,0.0
-11380,-460,-6016,2493,-2506,290,2025-01-29 11:49:18,0.0
-11460,-584,-5544,2707,-3727,62,2025-01-29 11:49:18,0.0
-10740,-720,-4824,2883,-4754,-247,2025-01-29 11:49:18,0.0
-10744,-4,-4628,2763,-4674,-581,2025-01-29 11:49:18,0.0
-10936,544,-4992,2644,-3869,-763,2025-01-29 11:49:18,0.0
-11276,644,-5744,2334,-2678,-688,2025-01-29 11:49:18,0.0
-10784,-76,-5924,2117,-2032,-205,2025-01-29 11:49:18,0.0
-10744,-1064,-5560,2185,-903,415,2025-01-29 11:49:18,0.0
-11312,-1904,-5180,2420,932,1100,2025-01-29 11:49:18,0.0
-12052,-2352,-5508,2746,3701,1855,2025-01-29 11:49:18,0.0
-12920,-1676,-6316,3179,5461,2363,2025-01-29 11:49:18,0.0
-14700,-416,-6572,3453,5968,2701,2025-01-29 11:49:18,0.0
-16444,460,-5868,3590,5284,2638,2025-01-29 11:49:18,0.0
-17488,-168,-5540,3827,3482,2569,2025-01-29 11:49:18,0.0
-17864,-812,-6712,3626,673,2950,2025-01-29 11:49:18,0.0
-16456,-1180,-8972,3582,-1370,3294,2025-01-29 11:49:18,0.0
-15824,240,-11180,3096,-1466,3521,2025-01-29 11:49:18,0.0
-15316,2784,-12200,1534,0,4153,2025-01-29 11:49:18,0.0
-13496,3852,-12872,-637,571,3566,2025-01-29 11:49:18,0.0
-12168,3008,-11432,-2193,-1449,1465,2025-01-29 11:49:18,0.0
-11268,604,-12088,-2418,-3848,134,2025-01-29 11:49:18,0.0
-10300,-2140,-10468,-2270,-5720,392,2025-01-29 11:49:18,0.0
-7728,-4568,-7992,-634,-7086,724,2025-01-29 11:49:18,0.0
-5712,-4812,-6644,1937,-6009,755,2025-01-29 11:49:18,0.0
-4840,-3840,-7396,2989,-2509,181,2025-01-29 11:49:18,0.0
-4796,-1592,-8272,3168,883,-1098,2025-01-29 11:49:18,
-6192,240,-9252,2515,3133,-2117,2025-01-29 11:49:18,0.0
-8344,864,-9688,757,5203,-2466,2025-01-29 11:49:18,0.0
-9888,-212,-8664,-1204,5758,-2951,2025-01-29 11:49:18,0.0
-10504,-1828,-7780,-1243,3169,-3995,2025-01-29 11:49:18,0.0
-11600,-2852,-8816,-690,560,-4296,2025-01-29 11:49:18,0.0
-11392,-3324,-9372,-778,-1164,-3723,2025-01-29 11:49:18,0.0
-10392,-3360,-8720,-752,-1875,-2810,2025-01-29 11:49:18,0.0
-8844,-3108,-8052,-631,-1732,-2462,2025-01-29 11:49:18,0.0
-7856,-3024,-7580,-363,-796,-2518,2025-01-29 11:49:18,0.0
-7348,-3252,-6908,-68,1247,-2706,2025-01-29 11:49:18,0.0
-7760,-3360,-6568,-17,3207,-2867,2025-01-29 11:49:18,0.0
-8828,-2724,-7108,-10,4368,-2788,2025-01-29 11:49:18,0.0
-9444,-2176,-8060,-344,4719,-2453,2025-01-29 11:49:18,0.0
-10080,-1600,-8072,-762,4633,-2352,2025-01-29 11:49:18,0.0
-10852,-1204,-7648,-1397,3922,-2480,2025-01-29 11:49:18,0.0
-11332,-1404,-7844,-1968,2878,-2569,2025-01-29 11:49:18,0.0
-11408,-1348,-7304,-2529,1668,-2509,2025-01-29 11:49:18,0.0
-11348,-1724,-6936,-2822,747,-2323,2025-01-29 11:49:18,0.0
-10972,-1616,-6556,-3240,364,-2240,2025-01-29 11:49:18,0.0
-10248,-1620,-7188,-3651,372,-2081,2025-01-29 11:49:18,0.0
-10816,-1688,-6488,-4183,530,-2038,2025-01-29 11:49:19,0.0
-10496,-1824,-6832,-4533,514,-1901,2025-01-29 11:49:19,0.0
-11600,-2060,-6452,-4839,396,-1795,2025-01-29 11:49:19,0.0
-11536,-2288,-6656,-5148,150,-1828,2025-01-29 11:49:19,0.0
-11116,-2376,-7084,-5078,-390,-2188,2025-01-29 11:49:19,0.0
-10716,-1972,-7764,-4924,-905,-2600,2025-01-29 11:49:19,0.0
-10788,-2340,-7680,-4884,-347,-2622,2025-01-29 11:49:19,0.0
-10980,-3176,-7188,-4727,711,-2990,2025-01-29 11:49:19,0.0
-12460,-4028,-5648,-4529,1985,-3694,2025-01-29 11:49:19,0.0
-14192,-4128,-5096,-4376,2686,-4136,2025-01-29 11:49:19,0.0
-15504,-3648,-6228,-4251,2600,-4311,2025-01-29 11:49:19,0.0
-15552,-3124,-9516,-4084,2128,-4265,2025-01-29 11:49:19,0.0
-14796,-3568,-12160,-3557,1926,-4509,2025-01-29 11:49:19,0.0
-14652,-5640,-11156,-2570,1758,-5291,2025-01-29 11:49:19,0.0
-17816,-6888,-9736,339,-3998,-1159,2025-01-29 11:49:19,0.0
-15284,-4556,-10984,-309,-5747,2989,2025-01-29 11:49:19,0.0
-10508,-3128,-11484,-638,-7235,3725,2025-01-29 11:49:19,0.0
-7324,-1748,-11556,-787,-8847,3001,2025-01-29 11:49:19,0.0
-5344,-500,-10556,-928,-9572,1920,2025-01-29 11:49:19,0.0
-4292,1272,-8588,-801,-8604,1042,2025-01-29 11:49:19,0.0
-4128,2168,-8328,-900,-5131,223,2025-01-29 11:49:19,0.0
-4764,1212,-8920,-1863,1787,-893,2025-01-29 11:49:19,0.0
-7032,-432,-8212,-2223,6394,-1083,2025-01-29 11:49:19,0.0
-9304,-1708,-7816,-2060,8995,-571,2025-01-29 11:49:19,0.0
-11964,-2352,-8184,-2023,9923,-27,2025-01-29 11:49:19,0.0
-13960,-1940,-8856,-1872,7518,769,2025-01-29 11:49:19,0.0
-14856,-1468,-9668,-1557,2810,1717,2025-01-29 11:49:19,0.0
-14472,-820,-9920,-1226,-2236,2422,2025-01-29 11:49:19,0.0
-13236,-228,-9240,-988,-5559,2652,2025-01-29 11:49:19,0.0
-11372,-256,-8220,-606,-7322,2578,2025-01-29 11:49:19,0.0
-9428,-736,-7176,-206,-7496,2396,2025-01-29 11:49:19,0.0
-7652,-1128,-5996,271,-6057,2602,2025-01-29 11:49:19,0.0
-6888,-1312,-5228,573,-2958,2744,2025-01-29 11:49:19,0.0
-6988,-888,-4808,918,486,2543,2025-01-29 11:49:19,0.0
-7984,-108,-5248,1011,2754,2248,2025-01-29 11:49:19,0.0
-9768,408,-5808,1134,3143,2371,2025-01-29 11:49:19,0.0
-10488,868,-6752,1233,2696,2599,2025-01-29 11:49:19,0.0
-10736,1212,-7228,1059,1915,2315,2025-01-29 11:49:19,0.0
-10744,1012,-6888,1245,920,1409,2025-01-29 11:49:19,0.0
-11348,128,-6596,1549,154,790,2025-01-29 11:49:19,0.0
-11008,-356,-6508,1845,-461,633,2025-01-29 11:49:19,0.0
-10724,-688,-6004,2151,-689,442,2025-01-29 11:49:19,0.0
-10728,-620,-5788,2365,-567,358,2025-01-29 11:49:19,0.0
-10636,-352,-5836,2547,-526,302,2025-01-29 11:49:19,0.0
-10876,420,-5948,2656,-628,146,2025-01-29 11:49:19,0.0
-11624,1024,-6160,2558,-706,139,2025-01-29 11:49:19,0.0
-11736,1196,-6484,2431,-779,304,2025-01-29 11:49:19,0.0
-11636,916,-6536,2505,-996,343,2025-01-29 11:49:19,0.0
-11492,136,-6580,2574,-888,134,2025-01-29 11:49:19,0.0
-11276,-516,-6664,2708,-278,144,2025-01-29 11:49:19,0.0
-11364,-892,-6668,2714,606,279,2025-01-29 11:49:19,0.0
-12156,-840,-6476,2454,1702,584,2025-01-29 11:49:19,0.0
-12792,-164,-5852,2188,2061,942,2025-01-29 11:49:19,0.0
-13624,196,-5572,2064,1542,1235,2025-01-29 11:49:19,0.0
-14948,16,-6376,1917,1608,1843,2025-01-29 11:49:19,0.0
-16060,-556,-7648,2049,2872,2820,2025-01-29 11:49:19,0.0
-16616,-84,-9332,2059,3642,3730,2025-01-29 11:49:19,0.0
-15680,644,-10728,1230,2370,4151,2025-01-29 11:49:19,0.0
-14048,1760,-10968,504,-413,3354,2025-01-29 11:49:19,0.0
-12588,1912,-11376,-79,-3449,1525,2025-01-29 11:49:20,0.0
-11848,1124,-10876,-343,-4323,783,2025-01-29 11:49:20,0.0
-10256,-136,-9632,-485,-4729,695,2025-01-29 11:49:20,0.0
-7836,-1668,-7788,101,-5178,583,2025-01-29 11:49:20,0.0
-6016,-3224,-8044,1588,-3953,478,2025-01-29 11:49:20,0.0
-5496,-4496,-9068,2461,-173,20,2025-01-29 11:49:20,0.0
-6436,-4880,-9632,2742,3892,-457,2025-01-29 11:49:20,0.0
-8696,-4004,-9748,2589,6119,-120,2025-01-29 11:49:20,0.0
-10036,-2228,-9108,2419,6696,426,2025-01-29 11:49:20,0.0
-10820,-756,-8800,1968,6320,-50,2025-01-29 11:49:20,0.0
-12128,380,-8928,1286,4157,-1109,2025-01-29 11:49:20,0.0
-12324,-20,-10024,691,1036,-1553,2025-01-29 11:49:20,0.0
-11816,-556,-10184,349,-1225,-1722,2025-01-29 11:49:20,0.0
-11372,-1156,-9380,32,-2415,-1858,2025-01-29 11:49:20,0.0
-10572,-1712,-8664,-333,-2896,-1831,2025-01-29 11:49:20,0.0
-9536,-2696,-7364,-346,-2779,-1689,2025-01-29 11:49:20,0.0
-8576,-3712,-6644,-149,-1887,-1644,2025-01-29 11:49:20,0.0
-8560,-3936,-6488,83,-387,-1531,2025-01-29 11:49:20,0.0
-9244,-3632,-6916,223,999,-1283,2025-01-29 11:49:20,0.0
-9584,-2972,-7280,365,1801,-1151,2025-01-29 11:49:20,0.0
-10568,-2268,-7340,417,1949,-1115,2025-01-29 11:49:20,
-11408,-1592,-7784,425,1191,-1046,2025-01-29 11:49:20,0.0
-12432,-1632,-7544,210,-365,-594,2025-01-29 11:49:20,0.0
-12416,-2132,-7308,43,-1758,-124,2025-01-29 11:49:20,0.0
-11948,-2592,-6076,-95,-3156,159,2025-01-29 11:49:20,0.0
-10836,-2424,-5140,171,-3761,233,2025-01-29 11:49:20,0.0
-9812,-1836,-5084,416,-3357,195,2025-01-29 11:49:20,0.0
-9396,-1072,-5512,173,-2200,127,2025-01-29 11:49:20,0.0
-9840,-796,-6028,-579,-471,156,2025-01-29 11:49:20,0.0
-9928,-1004,-6468,-1407,844,162,2025-01-29 11:49:20,0.0
-9764,-1024,-7320,-2285,1599,16,2025-01-29 11:49:20,0.0
-9940,-988,-8252,-3452,2319,-757,2025-01-29 11:49:20,0.0
-10776,-1028,-7880,-4092,2193,-1696,2025-01-29 11:49:20,0.0
-11284,-804,-7884,-4330,1388,-2378,2025-01-29 11:49:20,0.0
-11752,-1004,-8196,-4684,420,-2726,2025-01-29 11:49:20,0.0
-11868,-1952,-7172,-4674,-191,-2878,2025-01-29 11:49:20,0.0
-12088,-2876,-7220,-4782,-456,-2870,2025-01-29 11:49:20,0.0
-12872,-3560,-5852,-4953,-670,-2625,2025-01-29 11:49:20,0.0
-13296,-3984,-6464,-5108,-1109,-2347,2025-01-29 11:49:20,0.0
-13324,-2596,-8180,-5152,-1466,-2330,2025-01-29 11:49:20,0.0
-13428,-2500,-8756,-4779,-1528,-2243,2025-01-29 11:49:20,0.0
-13408,-3616,-8004,-4023,-1782,-1705,2025-01-29 11:49:20,0.0
-12568,-4332,-7996,-2699,-2179,-1129,2025-01-29 11:49:20,0.0
-11576,-4568,-9256,-1615,-2101,-764,2025-01-29 11:49:20,0.0
-11388,-4648,-8736,-53,-831,-966,2025-01-29 11:49:20,0.0
-10680,-3912,-9344,1228,-157,-1519,2025-01-29 11:49:20,0.0
-11392,-2164,-8840,1511,-456,-1757,2025-01-29 11:49:20,0.0
-11628,448,-9408,889,-1426,-757,2025-01-29 11:49:20,0.0
-10316,944,-10156,-657,-2155,140,2025-01-29 11:49:20,0.0
-8860,1564,-9216,-1445,-2169,418,2025-01-29 11:49:20,0.0
-8228,1960,-8436,-1801,-1516,333,2025-01-29 11:49:20,0.0
-8028,1440,-7868,-2112,-59,-105,2025-01-29 11:49:20,0.0
-8768,-552,-7824,-1925,1899,-465,2025-01-29 11:49:20,0.0
-9624,-1712,-7676,-1170,3274,-285,2025-01-29 11:49:20,0.0
-10220,-1824,-8540,-738,3692,31,2025-01-29 11:49:20,0.0
-10636,-740,-9880,-764,3159,84,2025-01-29 11:49:20,0.0
-11272,412,-10424,-1229,2543,-117,2025-01-29 11:49:20,0.0
-12092,1368,-10232,-1833,1555,-70,2025-01-29 11:49:20,0.0
-11544,2180,-10272,-2546,-99,22,2025-01-29 11:49:20,0.0
-10716,1916,-9252,-3247,-965,-466,2025-01-29 11:49:20,0.0
-10004,1452,-8556,-3707,-762,-796,2025-01-29 11:49:20,0.0
-9032,924,-8176,-4023,79,-1060,2025-01-29 11:49:21,0.0
-8448,476,-7996,-4313,1081,-1646,2025-01-29 11:49:21,0.0
-8664,176,-7644,-4390,2210,-2188,2025-01-29 11:49:21,0.0
-9208,-152,-7524,-4494,3109,-2507,2025-01-29 11:49:21,0.0
-9816,-124,-7328,-4603,3196,-2754,2025-01-29 11:49:21,0.0
-10524,204,-7980,-4736,2844,-2919,2025-01-29 11:49:21,0.0
-10944,676,-8060,-5152,1995,-3191,2025-01-29 11:49:21,0.0
-11076,848,-8264,-5357,1328,-3391,2025-01-29 11:49:21,0.0
-10784,612,-8156,-5680,879,-3699,2025-01-29 11:49:21,0.0
-10528,560,-7968,-5860,525,-4079,2025-01-29 11:49:21,0.0
-10400,604,-7876,-6057,464,-4283,2025-01-29 11:49:21,0.0
-10152,520,-7716,-6305,619,-4413,2025-01-29 11:49:21,0.0
-10064,120,-7620,-6509,881,-4557,2025-01-29 11:49:21,0.0
-10092,-88,-7948,-6577,1106,-4766,2025-01-29 11:49:21,0.0
-10656,-320,-8108,-6431,960,-4824,2025-01-29 11:49:21,0.0
-11028,-252,-8048,-6059,544,-5013,2025-01-29 11:49:21,0.0
-11268,-184,-8200,-5867,173,-5467,2025-01-29 11:49:21,0.0
-11672,504,-8328,-5844,-492,-5994,2025-01-29 11:49:21,0.0
-11976,1088,-8496,-6140,-1169,-6277,2025-01-29 11:49:21,0.0
-11712,1508,-8164,-6857,-1816,-6574,2025-01-29 11:49:21,0.0
-11292,1224,-7396,-7544,-2237,-6791,2025-01-29 11:49:21,0.0
-10704,856,-6304,-7767,-2251,-7158,2025-01-29 11:49:21,0.0
-10536,92,-6072,-7616,-1750,-7340,2025-01-29 11:49:21,0.0
-10456,-732,-6588,-7144,-1035,-7269,2025-01-29 11:49:21,0.0
-10416,-1188,-7300,-6557,-315,-7217,2025-01-29 11:49:21,0.0
-11292,-1484,-8076,-6129,520,-6976,2025-01-29 11:49:21,0.0
-12264,-2596,-8548,-5909,1466,-6553,2025-01-29 11:49:21,0.0
-13028,-3008,-10224,-5639,1407,-5670,2025-01-29 11:49:21,0.0
-13040,-2244,-11492,-5506,441,-4536,2025-01-29 11:49:21,0.0
-11792,-676,-11064,-5329,-1031,-3864,2025-01-29 11:49:21,0.0
-10652,1008,-9520,-5445,-2634,-3494,2025-01-29 11:49:21,0.0
-9132,1696,-7832,-5381,-3317,-3544,2025-01-29 11:49:21,0.0
-7944,624,-7256,-5482,-1978,-4475,2025-01-29 11:49:21,0.0
-8584,-920,-7052,-5712,-69,-4869,2025-01-29 11:49:21,0.0
-8764,-1556,-8636,-5514,1273,-4884,2025-01-29 11:49:21,0.0
-9092,-1584,-10320,-5868,2520,-5137,2025-01-29 11:49:21,0.0
-10056,-1724,-10068,-6553,2994,-5531,2025-01-29 11:49:21,0.0
-11124,-1836,-9328,-7250,2499,-5818,2025-01-29 11:49:21,0.0
-11404,-2128,-8444,-8118,651,-6247,2025-01-29 11:49:21,0.0
-10784,-2308,-8764,-8619,-539,-6872,2025-01-29 11:49:21,0.0
-10176,-2436,-9060,-9047,-537,-7424,2025-01-29 11:49:21,0.0
-9972,-2556,-8952,-9382,-157,-7814,2025-01-29 11:49:21,0.0
-9800,-2316,-8880,-9720,336,-8425,2025-01-29 11:49:21,0.0
-10080,-2236,-9164,-10054,355,-8782,2025-01-29 11:49:21,0.0
-10360,-2452,-9160,-10366,-54,-8868,2025-01-29 11:49:21,0.0
-10332,-2404,-9100,-10700,-638,-8687,2025-01-29 11:49:21,0.0
-10120,-2372,-9256,-10903,-1231,-8434,2025-01-29 11:49:21,0.0
-9840,-2432,-9400,-11243,-1636,-8048,2025-01-29 11:49:21,0.0
-9580,-2972,-9404,-11725,-1662,-7768,2025-01-29 11:49:21,0.0
-9596,-3516,-9504,-12127,-1640,-7745,2025-01-29 11:49:21,0.0
-9788,-3564,-9544,-12410,-1803,-7884,2025-01-29 11:49:21,0.0
-9916,-3284,-9816,-12485,-1989,-8071,2025-01-29 11:49:21,0.0
-10296,-2580,-9768,-12579,-2379,-8179,2025-01-29 11:49:21,0.0
-10440,-2372,-9252,-12705,-2513,-8137,2025-01-29 11:49:21,0.0
-10196,-2272,-9008,-12968,-2250,-8431,2025-01-29 11:49:21,0.0
-9952,-2088,-8964,-13518,-2117,-8979,2025-01-29 11:49:21,0.0
-10092,-2540,-8672,-14166,-2107,-9198,2025-01-29 11:49:21,0.0
-9692,-3112,-8764,-14344,-1899,-9383,2025-01-29 11:49:21,0.0
-9292,-3708,-8852,-14791,-1512,-9723,2025-01-29 11:49:21,0.0
-9636,-4028,-8664,-15205,-786,-10141,2025-01-29 11:49:21,
-10204,-3628,-8664,-15557,-289,-10398,2025-01-29 11:49:22,0.0
-10712,-2944,-8576,-16060,-744,-10472,2025-01-29 11:49:22,0.0
-11172,-2436,-8396,-16736,-2082,-10401,2025-01-29 11:49:22,0.0
-10884,-2520,-8644,-17503,-3822,-10122,2025-01-29 11:49:22,0.0
-9896,-2868,-8928,-18366,-4959,-9953,2025-01-29 11:49:22,0.0
-9420,-3248,-9120,-19122,-5052,-9788,2025-01-29 11:49:22,0.0
-9036,-3632,-8924,-19507,-4507,-9757,2025-01-29 11:49:22,0.0
-8604,-3880,-8684,-19732,-3686,-9624,2025-01-29 11:49:22,0.0
-8856,-4192,-8520,-19677,-2655,-9121,2025-01-29 11:49:22,0.0
-9244,-5044,-8840,-18893,-1436,-8209,2025-01-29 11:49:22,0.0
-9932,-5608,-9124,-17359,57,-7872,2025-01-29 11:49:22,0.0
-10964,-5320,-9072,-15676,1363,-7722,2025-01-29 11:49:22,0.0
-12040,-3720,-9340,-14727,1386,-7438,2025-01-29 11:49:22,0.0
-11928,-1380,-9272,-14500,179,-6803,2025-01-29 11:49:22,0.0
-10044,564,-8648,-14758,-1631,-7094,2025-01-29 11:49:22,0.0
-9308,1792,-7752,-15241,-1577,-7471,2025-01-29 11:49:22,0.0
-8960,2540,-7552,-15986,-301,-7798,2025-01-29 11:49:22,0.0
-8840,1996,-7752,-16799,2011,-8601,2025-01-29 11:49:22,0.0
-10124,988,-8100,-17059,3506,-9183,2025-01-29 11:49:22,0.0
-12104,308,-9080,-17059,3911,-9451,2025-01-29 11:49:22,0.0
-13376,28,-9848,-17090,2823,-9264,2025-01-29 11:49:22,0.0
-13720,-692,-9316,-16923,664,-8940,2025-01-29 11:49:22,0.0
-13564,-1264,-8036,-16411,-1402,-8582,2025-01-29 11:49:22,0.0
-12448,-1440,-7456,-15880,-2305,-8297,2025-01-29 11:49:22,0.0
-11064,-1456,-6912,-15319,-2510,-8172,2025-01-29 11:49:22,0.0
-10136,-1220,-6376,-14492,-1591,-7891,2025-01-29 11:49:22,0.0
-9924,-696,-5980,-13759,-170,-7684,2025-01-29 11:49:22,0.0
-9908,-444,-6372,-13001,801,-7604,2025-01-29 11:49:22,0.0
-10404,-168,-6568,-12418,1041,-7432,2025-01-29 11:49:22,0.0
-10404,172,-7044,-11928,1015,-7329,2025-01-29 11:49:22,0.0
-10984,416,-6952,-11501,951,-7368,2025-01-29 11:49:22,0.0
-11312,556,-6908,-11112,678,-7403,2025-01-29 11:49:22,0.0
-11244,680,-7064,-10729,211,-7395,2025-01-29 11:49:22,0.0
-11368,720,-7320,-10386,-40,-7265,2025-01-29 11:49:22,0.0
-11472,684,-7404,-10157,-96,-7135,2025-01-29 11:49:22,0.0
-11352,848,-7360,-10006,-296,-6949,2025-01-29 11:49:22,0.0
-11308,844,-7208,-9672,-454,-6758,2025-01-29 11:49:22,0.0
-10828,976,-7140,-9306,-599,-6642,2025-01-29 11:49:22,0.0
-10968,672,-7120,-9067,-667,-6556,2025-01-29 11:49:22,0.0
-10928,228,-6800,-8606,-244,-6339,2025-01-29 11:49:22,0.0
-11004,48,-6532,-8065,194,-6044,2025-01-29 11:49:22,0.0
-11392,128,-6320,-7504,487,-5724,2025-01-29 11:49:22,0.0
-11724,96,-6280,-6914,753,-5425,2025-01-29 11:49:22,0.0
-11776,192,-6176,-6240,921,-5078,2025-01-29 11:49:22,0.0
-11500,84,-6572,-5414,862,-4789,2025-01-29 11:49:22,0.0
-11060,844,-7716,-4619,271,-4480,2025-01-29 11:49:22,0.0
-10604,1652,-8244,-4462,-473,-4375,2025-01-29 11:49:22,0.0
-10368,1548,-7048,-3940,-595,-4059,2025-01-29 11:49:22,0.0
-9368,512,-6044,-3416,-12,-4062,2025-01-29 11:49:22,0.0
-8344,-308,-5628,-2907,-389,-5449,2025-01-29 11:49:22,0.0
-8956,-1060,-5944,-2516,-639,-6822,2025-01-29 11:49:22,0.0
-9604,-1244,-6500,-1795,223,-7204,2025-01-29 11:49:22,0.0
-10328,-1188,-8772,-1507,1875,-7139,2025-01-29 11:49:22,0.0
-12948,-1092,-10676,-2246,4452,-6494,2025-01-29 11:49:22,0.0
-14628,-1956,-11528,-3310,6056,-5332,2025-01-29 11:49:22,0.0
-14780,-3560,-9112,-3662,3800,-4686,2025-01-29 11:49:22,0.0
-14316,-4488,-6632,-2242,-1510,-4331,2025-01-29 11:49:22,0.0
-13060,-4304,-6852,-964,-5066,-3901,2025-01-29 11:49:22,0.0
-10744,-3988,-7448,-1099,-5231,-3712,2025-01-29 11:49:22,0.0
-9700,-3544,-6836,-1097,-3219,-3537,2025-01-29 11:49:22,0.0
-8684,-2904,-7100,-974,-657,-3351,2025-01-29 11:49:22,0.0
-8824,-2052,-7744,-1067,1890,-3625,2025-01-29 11:49:23,0.0
-9820,-1840,-7700,-1287,3705,-4007,2025-01-29 11:49:23,0.0
-11592,-2312,-7928,-1585,3878,-4189,2025-01-29 11:49:23,0.0
-13108,-2820,-7916,-1514,1786,-4209,2025-01-29 11:49:23,0.0
-13392,-3368,-8448,-1610,-374,-4073,2025-01-29 11:49:23,0.0
-12584,-3548,-8660,-1792,-2072,-3979,2025-01-29 11:49:23,0.0
-11760,-3400,-8336,-1960,-2744,-3737,2025-01-29 11:49:23,0.0
-10076,-3016,-8168,-2126,-2721,-3388,2025-01-29 11:49:23,0.0
-8928,-2784,-7456,-2482,-1513,-3229,2025-01-29 11:49:23,0.0
-8784,-2552,-7248,-2869,-10,-3246,2025-01-29 11:49:23,0.0
-9352,-2432,-7196,-3084,1311,-3060,2025-01-29 11:49:23,0.0
-10180,-2780,-7108,-3314,1750,-2741,2025-01-29 11:49:23,0.0
-10872,-3432,-6916,-3367,1563,-2251,2025-01-29 11:49:23,0.0
-10936,-4108,-6900,-3137,1040,-1707,2025-01-29 11:49:23,0.0
-10948,-4580,-6688,-2669,513,-1163,2025-01-29 11:49:23,0.0
-11392,-4500,-6500,-2115,448,-421,2025-01-29 11:49:23,0.0
-11128,-4136,-6772,-1722,381,117,2025-01-29 11:49:23,0.0
-11072,-3824,-7200,-1555,387,651,2025-01-29 11:49:23,0.0
-11004,-3800,-7280,-1477,506,1188,2025-01-29 11:49:23,0.0
-11340,-3432,-7544,-1419,502,1982,2025-01-29 11:49:23,0.0
-11240,-3444,-7712,-1475,176,2830,2025-01-29 11:49:23,0.0
-11156,-3204,-7860,-1331,-267,3262,2025-01-29 11:49:23,0.0
-11256,-2800,-8092,-1209,-177,3121,2025-01-29 11:49:23,0.0
-11816,-2320,-8900,-892,31,2685,2025-01-29 11:49:23,0.0
-12128,-1776,-9688,-325,315,1872,2025-01-29 11:49:23,0.0
-12212,-896,-9772,316,-1100,797,2025-01-29 11:49:23,0.0
-11884,-800,-8668,300,-3466,611,2025-01-29 11:49:23,0.0
-10284,-1060,-7960,128,-4414,850,2025-01-29 11:49:23,0.0
-8496,-1268,-7712,-252,-3838,632,2025-01-29 11:49:23,0.0
-7836,-1512,-7712,-820,-1536,229,2025-01-29 11:49:23,0.0
-8412,-1916,-7664,-1194,1530,129,2025-01-29 11:49:23,0.0
-9476,-2092,-7440,-1054,3065,205,2025-01-29 11:49:23,0.0
-10596,-1848,-7588,-888,3265,147,2025-01-29 11:49:23,0.0
-11632,-1584,-7772,-705,2376,65,2025-01-29 11:49:23,0.0
-12200,-1268,-7948,-471,904,83,2025-01-29 11:49:23,0.0
-12028,-996,-7920,-382,-475,102,2025-01-29 11:49:23,0.0
-11408,-892,-7604,-436,-881,115,2025-01-29 11:49:23,0.0
-10820,-1172,-7576,-353,-567,145,2025-01-29 11:49:23,0.0
-10428,-1368,-7804,-211,495,182,2025-01-29 11:49:23,
-10220,-1392,-8476,-67,1356,75,2025-01-29 11:49:23,0.0
-10500,-1136,-8404,48,1741,-227,2025-01-29 11:49:23,0.0
-11060,-724,-8032,-14,1430,-329,2025-01-29 11:49:23,0.0
-11524,-488,-7564,-46,817,-277,2025-01-29 11:49:23,0.0
-11632,-360,-7880,-201,206,-203,2025-01-29 11:49:23,0.0
-11600,-368,-8168,-381,8,-217,2025-01-29 11:49:23,0.0
-11068,-436,-8100,-506,-144,-274,2025-01-29 11:49:23,0.0
-10788,-988,-7472,-568,-332,-424,2025-01-29 11:49:23,0.0
-10740,-1344,-7112,-506,-135,-403,2025-01-29 11:49:23,0.0
-10520,-1392,-7308,-360,272,-370,2025-01-29 11:49:23,0.0
-10640,-1276,-7400,-262,667,-375,2025-01-29 11:49:23,0.0
-10944,-1284,-7708,-185,927,-318,2025-01-29 11:49:23,0.0
-11008,-1224,-7860,-52,984,-301,2025-01-29 11:49:23,0.0
-11100,-1224,-8040,16,790,-317,2025-01-29 11:49:23,0.0
-11220,-1396,-8388,57,253,-273,2025-01-29 11:49:23,0.0
-10988,-1732,-8140,190,13,-196,2025-01-29 11:49:23,0.0
-10884,-1656,-8044,198,112,-172,2025-01-29 11:49:23,0.0
-10828,-1644,-8004,215,287,-159,2025-01-29 11:49:23,0.0
-10948,-1404,-7752,166,420,-144,2025-01-29 11:49:23,0.0
-11048,-1152,-7752,124,391,-174,2025-01-29 11:49:23,0.0
-11048,-1136,-7772,40,100,-190,2025-01-29 11:49:23,0.0
-11068,-1248,-7904,-45,-210,-156,2025-01-29 11:49:24,0.0
-10724,-1204,-7808,-73,-243,-178,2025-01-29 11:49:24,0.0
-10552,-1296,-7748,-113,-64,-169,2025-01-29 11:49:24,0.0
-10564,-1516,-7792,-112,215,-162,2025-01-29 11:49:24,0.0
-10624,-1616,-7972,-126,560,-161,2025-01-29 11:49:24,0.0
-10896,-1548,-8216,-115,760,-222,2025-01-29 11:49:24,0.0
-11104,-1444,-8172,-150,576,-242,2025-01-29 11:49:24,0.0
-11180,-1244,-8164,-162,215,-235,2025-01-29 11:49:24,0.0
-11076,-1332,-8092,-238,-182,-209,2025-01-29 11:49:24,0.0
-10724,-1448,-7904,-269,-188,-171,2025-01-29 11:49:24,0.0
-10608,-1616,-7764,-226,72,-165,2025-01-29 11:49:24,0.0
-10508,-1608,-7900,-156,357,-196,2025-01-29 11:49:24,0.0
-10796,-1692,-8020,-79,522,-222,2025-01-29 11:49:24,0.0
-10988,-1488,-7840,-61,495,-214,2025-01-29 11:49:24,0.0
-10928,-1540,-7996,-60,269,-179,2025-01-29 11:49:24,0.0
-11024,-1336,-7908,-78,122,-121,2025-01-29 11:49:24,0.0
-10784,-1412,-7944,-78,142,-61,2025-01-29 11:49:24,0.0
-10616,-1376,-7816,-69,297,-43,2025-01-29 11:49:24,0.0
-10640,-1588,-7932,-54,465,-103,2025-01-29 11:49:24,0.0
-10848,-1604,-7824,7,491,-138,2025-01-29 11:49:24,0.0
-10988,-1632,-7996,50,437,-175,2025-01-29 11:49:24,0.0
-10888,-1440,-8148,76,237,-142,2025-01-29 11:49:24,0.0
-10972,-1296,-8032,50,157,-121,2025-01-29 11:49:24,0.0
-10920,-1288,-8068,-15,175,-96,2025-01-29 11:49:24,0.0
-10892,-1296,-7960,-67,213,-82,2025-01-29 11:49:24,0.0
-10672,-1412,-8136,-139,229,-107,2025-01-29 11:49:24,0.0
-10964,-1468,-7888,-89,277,-136,2025-01-29 11:49:24,0.0
-10932,-1520,-7960,-112,268,-155,2025-01-29 11:49:24,0.0
-10888,-1404,-7712,-74,172,-106,2025-01-29 11:49:24,0.0
-10900,-1496,-8040,-81,179,-77,2025-01-29 11:49:24,0.0
-10868,-1384,-7840,-82,204,-103,2025-01-29 11:49:24,0.0
-10880,-1508,-7720,-51,189,-80,2025-01-29 11:49:24,0.0
-10908,-1564,-7912,-1,31,-63,2025-01-29 11:49:24,0.0
-10900,-1532,-7980,59,108,-37,2025-01-29 11:49:24,0.0
-10736,-1368,-8044,30,176,-31,2025-01-29 11:49:24,0.0
-10876,-1152,-8152,-109,237,-48,2025-01-29 11:49:24,0.0
-11048,-1264,-7916,-199,247,-44,2025-01-29 11:49:24,0.0
-10996,-1112,-7884,-147,237,17,2025-01-29 11:49:24,0.0
-10812,-1152,-8016,-169,243,-14,2025-01-29 11:49:24,0.0
-10700,-1212,-7740,-69,355,-10,2025-01-29 11:49:24,0.0
-10496,-1408,-7492,123,647,14,2025-01-29 11:49:24,0.0
-10804,-1912,-7540,459,913,249,2025-01-29 11:49:24,0.0
-10672,-2272,-7876,864,1201,424,2025-01-29 11:49:24,0.0
-11108,-1864,-7964,1329,1503,509,2025-01-29 11:49:24,0.0
-11396,-1508,-8272,1631,1406,535,2025-01-29 11:49:24,0.0
-11692,-804,-8804,1783,974,626,2025-01-29 11:49:24,0.0
-11692,-168,-8848,1676,243,719,2025-01-29 11:49:24,0.0
-11508,248,-8464,1411,-578,775,2025-01-29 11:49:24,0.0
-10552,28,-7592,1273,-1375,662,2025-01-29 11:49:24,0.0
-9860,-132,-7324,1255,-2006,391,2025-01-29 11:49:24,0.0
-9324,-492,-7316,1347,-1471,235,2025-01-29 11:49:24,0.0
-9280,-536,-7332,1301,79,229,2025-01-29 11:49:24,0.0
-10152,-72,-7572,892,1562,25,2025-01-29 11:49:24,0.0
-11236,-28,-7892,433,1709,-118,2025-01-29 11:49:24,0.0
-12024,144,-8396,186,921,-289,2025-01-29 11:49:24,0.0
-12096,132,-9084,36,-429,-624,2025-01-29 11:49:24,0.0
-11928,-256,-8872,-132,-1190,-878,2025-01-29 11:49:24,0.0
-11440,-636,-8040,-202,-1277,-1016,2025-01-29 11:49:24,0.0
-10728,-1400,-6624,-174,-1140,-1204,2025-01-29 11:49:24,0.0
-10476,-1884,-6384,250,-851,-1319,2025-01-29 11:49:24,0.0
-10064,-2252,-7220,609,-233,-1407,2025-01-29 11:49:24,0.0
-10124,-2188,-7080,734,888,-1594,2025-01-29 11:49:24,0.0
-10428,-2764,-6408,871,1909,-1906,2025-01-29 11:49:24,0.0
-11424,-3060,-5876,958,2600,-2157,2025-01-29 11:49:24,0.0
-12452,-3360,-5560,731,2791,-2298,2025-01-29 11:49:25,0.0
-13676,-3204,-5512,501,1779,-2297,2025-01-29 11:49:25,0.0
-14216,-2980,-5768,481,424,-1823,2025-01-29 11:49:25,0.0
-13460,-2680,-5792,535,-785,-1360,2025-01-29 11:49:25,0.0
-12428,-2736,-5632,596,-1580,-1430,2025-01-29 11:49:25,0.0
-11444,-3096,-5468,729,-1856,-1651,2025-01-29 11:49:25,0.0
-11012,-3192,-5284,1004,-1524,-1725,2025-01-29 11:49:25,0.0
-10628,-2920,-5508,962,-946,-1612,2025-01-29 11:49:25,0.0
-10456,-2296,-5464,627,-417,-1425,2025-01-29 11:49:25,0.0
-10732,-1856,-5572,167,241,-1223,2025-01-29 11:49:25,0.0
-10892,-1960,-5628,-413,736,-992,2025-01-29 11:49:25,0.0
-10840,-2488,-5636,-860,1020,-948,2025-01-29 11:49:25,0.0
-11144,-2932,-5556,-1224,1276,-834,2025-01-29 11:49:25,0.0
-11916,-2980,-5180,-1603,1268,-444,2025-01-29 11:49:25,0.0
-12000,-2836,-5032,-1828,1016,-69,2025-01-29 11:49:25,
-11972,-2744,-5344,-2118,713,151,2025-01-29 11:49:25,0.0
-11632,-2904,-5588,-2456,691,210,2025-01-29 11:49:25,0.0
-11452,-3360,-5724,-2530,849,28,2025-01-29 11:49:25,0.0
-11092,-3340,-5880,-2275,1091,-232,2025-01-29 11:49:25,0.0
-10768,-2620,-6204,-2176,1404,-778,2025-01-29 11:49:25,0.0
-11268,-1704,-6148,-2392,1839,-1329,2025-01-29 11:49:25,0.0
-12144,-1148,-5772,-2831,1875,-1587,2025-01-29 11:49:25,0.0
-12756,-2404,-6288,-3304,1407,-1617,2025-01-29 11:49:25,0.0
-12540,-3956,-6048,-2780,1137,-1927,2025-01-29 11:49:25,0.0
-12660,-4208,-6300,-2287,367,-2772,2025-01-29 11:49:25,0.0
-12688,-3656,-7208,-2233,-157,-3392,2025-01-29 11:49:25,0.0
-11956,-2508,-9256,-2129,-49,-4663,2025-01-29 11:49:25,0.0
-12568,-1856,-10552,-2246,651,-6172,2025-01-29 11:49:25,0.0
-13604,-2444,-9216,-1960,1044,-6922,2025-01-29 11:49:25,0.0
-14480,-4224,-7944,-1463,259,-7199,2025-01-29 11:49:25,0.0
-15296,-6204,-7940,-1265,-931,-5929,2025-01-29 11:49:25,0.0
-14992,-7520,-8156,-1162,-1298,-3525,2025-01-29 11:49:25,0.0
-13280,-8324,-8180,-605,-1031,-1367,2025-01-29 11:49:25,0.0
-12088,-7364,-8560,4,-290,-303,2025-01-29 11:49:25,0.0
-12824,-5320,-8320,-283,-123,860,2025-01-29 11:49:25,0.0
-12784,-4428,-8112,-773,-969,2551,2025-01-29 11:49:25,0.0
-11692,-3472,-9284,-640,-2257,3825,2025-01-29 11:49:25,0.0
-10396,-2696,-10328,-624,-3194,4547,2025-01-29 11:49:25,0.0
-8316,-2356,-10580,-357,-3718,4713,2025-01-29 11:49:25,0.0
-6564,-1652,-10060,-27,-3618,4028,2025-01-29 11:49:25,0.0
-6248,-536,-8736,-204,-3034,2804,2025-01-29 11:49:25,0.0
-6652,416,-8136,-427,-1784,1953,2025-01-29 11:49:25,0.0
-7484,904,-8700,-844,-15,1700,2025-01-29 11:49:25,0.0
-8704,304,-9024,-1455,2088,1647,2025-01-29 11:49:25,0.0
-10080,-800,-9208,-1578,3334,1805,2025-01-29 11:49:25,0.0
-11116,-1980,-8840,-1553,3319,1879,2025-01-29 11:49:25,0.0
-12040,-2540,-8504,-1344,2036,2192,2025-01-29 11:49:25,0.0
-12376,-2712,-8212,-921,315,2722,2025-01-29 11:49:25,0.0
-11816,-2696,-7884,-552,-1346,2981,2025-01-29 11:49:25,0.0
-11168,-2108,-7756,-166,-2267,3320,2025-01-29 11:49:25,0.0
-10272,-1000,-7564,41,-2486,3824,2025-01-29 11:49:25,0.0
-9488,40,-7016,52,-2376,4192,2025-01-29 11:49:25,0.0
-8952,876,-6696,-6,-1662,4107,2025-01-29 11:49:25,0.0
-8564,1164,-6832,-93,-468,3648,2025-01-29 11:49:25,0.0
-8412,720,-6912,-18,684,2931,2025-01-29 11:49:25,0.0
-10140,-760,-6600,354,1670,2275,2025-01-29 11:49:25,0.0
-10808,-1044,-6244,568,1267,2245,2025-01-29 11:49:25,0.0
-11356,-656,-5892,879,415,2387,2025-01-29 11:49:25,0.0
-11172,-140,-6184,1117,-328,2209,2025-01-29 11:49:25,0.0
-10720,364,-6264,1306,-885,1680,2025-01-29 11:49:25,0.0
-10868,52,-6196,1506,-1223,1070,2025-01-29 11:49:25,0.0
-10764,-356,-5840,1765,-1370,914,2025-01-29 11:49:26,0.0
-10604,-672,-5592,2110,-1656,660,2025-01-29 11:49:26,0.0
-10972,-1352,-5192,2551,-1759,408,2025-01-29 11:49:26,0.0
-11356,-1676,-4868,3024,-2008,227,2025-01-29 11:49:26,0.0
-11624,-1620,-4964,3638,-2670,197,2025-01-29 11:49:26,0.0
-11284,-608,-5356,4220,-3130,332,2025-01-29 11:49:26,0.0
-10228,752,-6332,4437,-3060,355,2025-01-29 11:49:26,0.0
-10172,1956,-6172,4111,-1700,272,2025-01-29 11:49:26,0.0
-10552,2220,-6560,3495,455,348,2025-01-29 11:49:26,0.0
-12088,1328,-6524,2887,2850,571,2025-01-29 11:49:26,0.0
-13844,-604,-6892,2652,4731,1053,2025-01-29 11:49:26,0.0
-14824,-724,-7032,2857,4392,992,2025-01-29 11:49:26,0.0
-16200,-156,-6396,2852,1865,1346,2025-01-29 11:49:26,0.0
-16268,152,-5384,3011,-550,1975,2025-01-29 11:49:26,0.0
-15692,-52,-5664,2972,-1397,2269,2025-01-29 11:49:26,0.0
-15164,-612,-6672,2632,-124,2948,2025-01-29 11:49:26,0.0
-13748,-804,-7600,2604,1164,3174,2025-01-29 11:49:26,0.0
-14008,672,-9212,1889,2380,2994,2025-01-29 11:49:26,0.0
-13892,1908,-10212,983,3156,2713,2025-01-29 11:49:26,0.0
-13976,3000,-11140,184,2425,1976,2025-01-29 11:49:26,0.0
-13508,3364,-12080,-908,351,970,2025-01-29 11:49:26,0.0
-12524,2500,-11344,-1707,-2089,-426,2025-01-29 11:49:26,0.0
-11364,696,-10328,-2091,-4178,-1386,2025-01-29 11:49:26,0.0
-9140,-1092,-8888,-1775,-5786,-1739,2025-01-29 11:49:26,0.0
-6676,-2552,-8420,-1225,-6510,-2056,2025-01-29 11:49:26,0.0
-5592,-3752,-7836,-428,-5138,-2156,2025-01-29 11:49:26,0.0
-5636,-3696,-8332,245,3083,-1419,2025-01-29 11:49:26,0.0
-6844,-2776,-8356,263,6330,-1554,2025-01-29 11:49:26,0.0
-8736,-1636,-8200,28,7616,-1958,2025-01-29 11:49:26,0.0
-10884,-856,-8372,-403,7228,-2389,2025-01-29 11:49:26,0.0
-12140,-436,-8696,-810,4916,-2936,2025-01-29 11:49:26,0.0
-12728,-632,-9360,-1138,970,-3343,2025-01-29 11:49:26,0.0
-12420,-1572,-9208,-1370,-1819,-3449,2025-01-29 11:49:26,0.0
-10984,-2428,-8728,-1435,-3606,-3415,2025-01-29 11:49:26,0.0
-9800,-2648,-7672,-1398,-4243,-3300,2025-01-29 11:49:26,0.0
-8984,-2936,-6720,-1327,-3532,-3125,2025-01-29 11:49:26,0.0
-8208,-3060,-6120,-1118,-2035,-2990,2025-01-29 11:49:26,0.0
-7784,-3324,-5976,-912,454,-2949,2025-01-29 11:49:26,0.0
-8168,-3560,-6136,-795,2774,-2951,2025-01-29 11:49:26,0.0
-9272,-3756,-6396,-627,3754,-2878,2025-01-29 11:49:26,0.0
-10280,-3244,-6460,-400,3852,-2691,2025-01-29 11:49:26,0.0
-11256,-2536,-7076,-424,3288,-2444,2025-01-29 11:49:26,0.0
-11496,-2084,-7192,-729,2107,-2051,2025-01-29 11:49:26,0.0
-11372,-1948,-7188,-1059,1073,-1710,2025-01-29 11:49:26,0.0
-10928,-2172,-7204,-1364,528,-1308,2025-01-29 11:49:26,0.0
-10288,-2336,-7124,-1621,350,-1038,2025-01-29 11:49:26,0.0
-9996,-2572,-6676,-1982,503,-819,2025-01-29 11:49:26,0.0
-9820,-2272,-6324,-2280,901,-647,2025-01-29 11:49:26,0.0
-10000,-1976,-6324,-2690,1316,-410,2025-01-29 11:49:26,0.0
-10268,-2016,-6576,-3169,1716,-200,2025-01-29 11:49:26,0.0
-10640,-2504,-6988,-3557,1919,-178,2025-01-29 11:49:26,0.0
-11172,-2960,-7756,-3880,2137,-398,2025-01-29 11:49:26,0.0
-11556,-3252,-7828,-3739,2466,-852,2025-01-29 11:49:26,0.0
-12772,-2416,-6776,-3337,1765,-1039,2025-01-29 11:49:26,
-12528,-1532,-7504,-3279,-346,-778,2025-01-29 11:49:27,0.0
-11368,-2856,-6904,-2874,-559,-1019,2025-01-29 11:49:27,0.0
-11048,-4260,-6896,-2448,83,-2210,2025-01-29 11:49:27,0.0
-12676,-4276,-7168,-2541,1219,-2943,2025-01-29 11:49:27,0.0
-14620,-2808,-6436,-2676,2020,-2912,2025-01-29 11:49:27,0.0
-15560,-1504,-6820,-3133,1398,-2747,2025-01-29 11:49:27,0.0
-14984,-1236,-8696,-3073,237,-2997,2025-01-29 11:49:27,0.0
-14016,-3284,-10524,-2991,-554,-3510,2025-01-29 11:49:27,0.0
-13588,-6564,-8824,-2093,-210,-3938,2025-01-29 11:49:27,0.0
-13576,-8564,-8052,116,-117,-3720,2025-01-29 11:49:27,0.0
-14800,-8952,-8940,2130,-452,-2039,2025-01-29 11:49:27,0.0
-15136,-6832,-10484,2801,-1983,1767,2025-01-29 11:49:27,0.0
-12092,-4780,-11028,3196,-3603,2920,2025-01-29 11:49:27,0.0
-10656,-2744,-11640,3064,-5162,2388,2025-01-29 11:49:27,0.0
-9412,-1140,-10660,2475,-7184,2428,2025-01-29 11:49:27,0.0
-7692,500,-10000,1985,-8515,3135,2025-01-29 11:49:27,0.0
-5456,1804,-9808,1392,-7591,3105,2025-01-29 11:49:27,0.0
-4068,2324,-9908,220,-3061,1102,2025-01-29 11:49:27,0.0
-5652,1316,-9852,-808,1445,-962,2025-01-29 11:49:27,0.0
-8880,-108,-9276,-1292,3861,-1152,2025-01-29 11:49:27,0.0
-10968,-840,-9492,-1329,4608,-541,2025-01-29 11:49:27,0.0
-12328,-1248,-9648,-1537,3616,266,2025-01-29 11:49:27,0.0
-12764,-1412,-9704,-1734,923,916,2025-01-29 11:49:27,0.0
-12960,-1580,-9028,-1755,-1353,1676,2025-01-29 11:49:27,0.0
-11624,-1828,-8456,-1506,-2747,2417,2025-01-29 11:49:27,0.0
-10488,-1972,-7712,-1109,-3352,2980,2025-01-29 11:49:27,0.0
-9088,-1980,-6540,-450,-3285,3427,2025-01-29 11:49:27,0.0
-8036,-2176,-5944,251,-2453,3503,2025-01-29 11:49:27,0.0
-7736,-2052,-5348,883,-914,3557,2025-01-29 11:49:27,0.0
-8924,-812,-5416,2002,2167,3734,2025-01-29 11:49:27,0.0
-9960,-44,-5908,2534,3305,3826,2025-01-29 11:49:27,0.0
-10880,348,-6732,2705,3213,3936,2025-01-29 11:49:27,0.0
-11336,432,-7008,2673,2111,3661,2025-01-29 11:49:27,0.0
-11416,284,-6296,2782,709,2959,2025-01-29 11:49:27,0.0
-11320,180,-5568,2960,-504,2302,2025-01-29 11:49:27,0.0
-10436,-56,-5852,3113,-1376,1851,2025-01-29 11:49:27,0.0
-9860,-192,-5848,3254,-1752,1346,2025-01-29 11:49:27,0.0
-9460,124,-5764,3569,-1802,682,2025-01-29 11:49:27,0.0
-9948,128,-5492,3766,-1223,125,2025-01-29 11:49:27,0.0
-10424,44,-5972,3895,-953,-454,2025-01-29 11:49:27,0.0
-11152,436,-6192,3586,-1174,-624,2025-01-29 11:49:27,0.0
-11380,908,-6528,3043,-1488,-338,2025-01-29 11:49:27,0.0
-11748,1016,-6048,2517,-1424,118,2025-01-29 11:49:27,0.0
-11124,164,-6252,2017,-977,282,2025-01-29 11:49:27,0.0
-11904,-1224,-6328,1566,1065,681,2025-01-29 11:49:27,0.0
-12304,-1004,-6592,1697,2043,934,2025-01-29 11:49:27,0.0
-13252,-276,-6808,1597,2332,1012,2025-01-29 11:49:27,0.0
-14416,428,-6320,1466,2389,1034,2025-01-29 11:49:27,0.0
-15136,88,-6008,1291,2202,1267,2025-01-29 11:49:27,0.0
-15628,-1192,-4864,1340,1437,1737,2025-01-29 11:49:27,0.0
-15572,-2048,-5760,1518,747,2588,2025-01-29 11:49:27,0.0
-14460,-2076,-7468,1941,1153,3352,2025-01-29 11:49:27,0.0
-14472,-952,-8748,2039,1593,3651,2025-01-29 11:49:27,0.0
-14700,828,-9364,1436,1556,3612,2025-01-29 11:49:27,0.0
-13764,2716,-10840,420,538,2491,2025-01-29 11:49:27,0.0
-12936,3272,-13460,-570,-845,713,2025-01-29 11:49:27,0.0
-12980,2588,-13136,-1386,-2503,-1001,2025-01-29 11:49:27,0.0
-12036,1324,-10680,-1910,-5349,-1276,2025-01-29 11:49:27,0.0
-9096,-752,-8124,-1746,-7405,-1168,2025-01-29 11:49:27,0.0
-6660,-2924,-6152,-672,-6967,-1176,2025-01-29 11:49:27,0.0
-5140,-4788,-6536,244,-4017,-1059,2025-01-29 11:49:27,0.0
-5364,-5604,-8512,747,754,-1160,2025-01-29 11:49:27,0.0
-6900,-4124,-8624,1184,4746,-1404,2025-01-29 11:49:27,0.0
-9052,-2368,-8932,1426,7016,-1412,2025-01-29 11:49:27,0.0
-11352,-752,-8928,1327,7667,-1225,2025-01-29 11:49:27,0.0
-12448,92,-8928,646,4623,-1578,2025-01-29 11:49:27,0.0
-12792,-276,-8548,120,436,-2643,2025-01-29 11:49:27,0.0
-12692,-1020,-8592,-53,-1858,-3111,2025-01-29 11:49:28,0.0
-11816,-1648,-8720,-246,-3119,-3127,2025-01-29 11:49:28,0.0
-10588,-2076,-8004,-561,-3779,-2939,2025-01-29 11:49:28,0.0
-9536,-2368,-7140,-856,-3730,-2667,2025-01-29 11:49:28,0.0
-8372,-2560,-6496,-1051,-2467,-2615,2025-01-29 11:49:28,0.0
-8312,-2312,-6572,-1244,115,-2696,2025-01-29 11:49:28,0.0
-8920,-2088,-6264,-1393,1940,-2645,2025-01-29 11:49:28,0.0
-9740,-2184,-5852,-1421,2533,-2592,2025-01-29 11:49:28,0.0
-10532,-2372,-5900,-1479,2240,-2638,2025-01-29 11:49:28,0.0
-11276,-2868,-6088,-1445,1495,-2486,2025-01-29 11:49:28,0.0
-11980,-3132,-6296,-1414,806,-1806,2025-01-29 11:49:28,0.0
-11860,-3392,-6300,-1462,-54,-1031,2025-01-29 11:49:28,0.0
-11264,-3176,-6248,-1333,-530,-458,2025-01-29 11:49:28,0.0
-10800,-2680,-5972,-1267,-560,-153,2025-01-29 11:49:28,0.0
-10560,-1784,-5616,-1405,-230,55,2025-01-29 11:49:28,0.0
-10280,-1064,-5796,-1723,153,147,2025-01-29 11:49:28,0.0
-10420,-1192,-5712,-2056,635,123,2025-01-29 11:49:28,0.0
-10644,-1748,-5904,-2199,982,56,2025-01-29 11:49:28,0.0
-11128,-2260,-6272,-2255,1310,-182,2025-01-29 11:49:28,0.0
-10696,-2476,-7092,-2435,1179,-762,2025-01-29 11:49:28,0.0
-11768,-2256,-7124,-2564,785,-1269,2025-01-29 11:49:28,0.0
-12256,-1444,-7344,-2713,81,-1316,2025-01-29 11:49:28,0.0
-12476,-932,-7248,-3144,-394,-1343,2025-01-29 11:49:28,0.0
-12096,-1516,-7000,-3413,-550,-1802,2025-01-29 11:49:28,0.0
-12052,-2208,-6776,-3613,-971,-2557,2025-01-29 11:49:28,0.0
-12708,-2408,-6320,-3838,-1503,-2999,2025-01-29 11:49:28,0.0
-13196,-1624,-6200,-3532,-1400,-3233,2025-01-29 11:49:28,0.0
-13608,-1076,-7620,-3459,-890,-4096,2025-01-29 11:49:28,0.0
-13816,-3564,-8684,-3600,83,-4986,2025-01-29 11:49:28,0.0
-14088,-6416,-8640,-2966,411,-5434,2025-01-29 11:49:28,0.0
-15004,-8160,-7928,-1109,-597,-4242,2025-01-29 11:49:28,0.0
-16808,-8120,-7864,455,-2543,-686,2025-01-29 11:49:28,0.0
-13520,-5860,-8932,1084,-3699,2167,2025-01-29 11:49:28,
-10724,-2948,-10116,1060,-3784,2001,2025-01-29 11:49:28,0.0
-9572,-1108,-10212,546,-3360,1714,2025-01-29 11:49:28,0.0
-8460,268,-10356,-250,-2992,1586,2025-01-29 11:49:28,0.0
-7604,1704,-9640,-1030,-2502,1444,2025-01-29 11:49:28,0.0
-7148,2748,-8808,-1919,-1261,1105,2025-01-29 11:49:28,0.0
-6588,2736,-8512,-2583,699,239,2025-01-29 11:49:28,0.0
-7024,1536,-8428,-3153,3384,-1192,2025-01-29 11:49:28,0.0
-9368,232,-7900,-3326,5168,-1833,2025-01-29 11:49:28,0.0
-11940,-1316,-8208,-3050,6138,-1449,2025-01-29 11:49:28,0.0
-13508,-2504,-8892,-3096,5498,-649,2025-01-29 11:49:28,0.0
-14580,-2932,-8440,-2723,3156,503,2025-01-29 11:49:28,0.0
-14140,-2240,-8652,-2188,-105,1715,2025-01-29 11:49:28,0.0
-12756,-1308,-8292,-2143,-2437,2102,2025-01-29 11:49:28,0.0
-11108,-532,-7352,-1944,-3802,2156,2025-01-29 11:49:28,0.0
-10332,20,-6484,-1644,-3840,2222,2025-01-29 11:49:28,0.0
-8516,-96,-5976,-1409,-2752,2119,2025-01-29 11:49:28,0.0
-7724,-236,-5688,-1321,-755,1750,2025-01-29 11:49:28,0.0
-8168,-144,-5588,-987,1653,1319,2025-01-29 11:49:28,0.0
-9024,-60,-5528,-531,3235,1021,2025-01-29 11:49:28,0.0
-10468,112,-5936,-217,3951,898,2025-01-29 11:49:28,0.0
-11448,224,-6028,-45,3477,758,2025-01-29 11:49:28,0.0
-12128,488,-6208,174,2129,450,2025-01-29 11:49:28,0.0
-12344,392,-6380,292,554,76,2025-01-29 11:49:28,0.0
-12276,120,-6332,457,-477,-194,2025-01-29 11:49:28,0.0
-11836,-144,-6320,591,-1117,-332,2025-01-29 11:49:28,0.0
-11388,60,-6588,660,-1451,-472,2025-01-29 11:49:28,0.0
-10980,228,-6892,502,-966,-581,2025-01-29 11:49:29,0.0
-11060,472,-6772,266,-18,-584,2025-01-29 11:49:29,0.0
-11616,324,-5932,234,947,-416,2025-01-29 11:49:29,0.0
-11932,136,-5648,276,1304,-326,2025-01-29 11:49:29,0.0
-12220,-176,-6064,313,1024,-318,2025-01-29 11:49:29,0.0
-12532,-364,-6136,548,350,-157,2025-01-29 11:49:29,0.0
-12412,-720,-5952,1084,-441,126,2025-01-29 11:49:29,0.0
-11884,-652,-6112,1477,-1005,265,2025-01-29 11:49:29,0.0
-11456,-396,-6120,1744,-1045,331,2025-01-29 11:49:29,0.0
-11300,-308,-6144,1896,-743,439,2025-01-29 11:49:29,0.0
-11224,-132,-5740,2201,-448,556,2025-01-29 11:49:29,0.0
-11524,-120,-5900,2635,-199,675,2025-01-29 11:49:29,0.0
-11720,-368,-6504,3098,21,835,2025-01-29 11:49:29,0.0
-11988,-720,-6936,3400,177,1099,2025-01-29 11:49:29,0.0
-11300,-852,-7664,3504,-2,1131,2025-01-29 11:49:29,0.0
-10624,-228,-9180,3083,-76,649,2025-01-29 11:49:29,0.0
-11136,652,-10724,2579,390,606,2025-01-29 11:49:29,0.0
-11560,1552,-12716,1672,1582,528,2025-01-29 11:49:29,0.0
-11972,2064,-12548,792,2540,173,2025-01-29 11:49:29,0.0
-11580,412,-10848,694,1700,-937,2025-01-29 11:49:29,0.0
-11408,-1528,-9040,1370,162,-1445,2025-01-29 11:49:29,0.0
-10316,-3592,-8120,1915,-900,-1818,2025-01-29 11:49:29,0.0
-9840,-4496,-6944,2386,-768,-1780,2025-01-29 11:49:29,0.0
-9392,-4916,-7504,2960,627,-805,2025-01-29 11:49:29,0.0
-9064,-4740,-7704,3119,2391,230,2025-01-29 11:49:29,0.0
-8696,-3472,-8024,2918,3633,465,2025-01-29 11:49:29,0.0
-9500,-2056,-8768,2038,4668,-233,2025-01-29 11:49:29,0.0
-11360,-1740,-9148,1494,5186,-911,2025-01-29 11:49:29,0.0
-12844,-2260,-8964,1439,4062,-1278,2025-01-29 11:49:29,0.0
-13148,-2856,-8644,1524,1399,-1369,2025-01-29 11:49:29,0.0
-12356,-3224,-8552,1614,-1243,-1233,2025-01-29 11:49:29,0.0
-11072,-3528,-8212,1575,-2133,-1354,2025-01-29 11:49:29,0.0
-10032,-3708,-7648,1634,-1844,-1333,2025-01-29 11:49:29,0.0
-9228,-3568,-7228,1769,-1105,-977,2025-01-29 11:49:29,0.0
-8228,-3012,-7436,1644,180,-807,2025-01-29 11:49:29,0.0
-7936,-2492,-7648,1197,1626,-926,2025-01-29 11:49:29,0.0
-8556,-2288,-7804,676,3132,-1085,2025-01-29 11:49:29,0.0
-9800,-2400,-7736,119,3945,-1093,2025-01-29 11:49:29,0.0
-11120,-2936,-7960,-366,3554,-1009,2025-01-29 11:49:29,0.0
-11860,-3304,-8156,-505,2468,-976,2025-01-29 11:49:29,0.0
-12432,-3256,-8208,-804,1188,-766,2025-01-29 11:49:29,0.0
-11980,-3216,-8080,-978,76,-632,2025-01-29 11:49:29,0.0
-11628,-2836,-7660,-1105,-742,-394,2025-01-29 11:49:29,0.0
-10884,-3024,-7852,-1230,-1086,-172,2025-01-29 11:49:29,0.0
-10272,-3432,-7872,-1223,-966,-51,2025-01-29 11:49:29,0.0
-10152,-3648,-7456,-1147,-465,142,2025-01-29 11:49:29,0.0
-10212,-3480,-7128,-1118,114,426,2025-01-29 11:49:29,0.0
-10516,-3304,-6700,-1357,390,660,2025-01-29 11:49:29,0.0
-11188,-2988,-6832,-1705,289,1157,2025-01-29 11:49:29,0.0
-11288,-2128,-7452,-2205,195,1554,2025-01-29 11:49:29,0.0
-11532,-1376,-7680,-2801,258,1860,2025-01-29 11:49:29,0.0
-11448,-1452,-7352,-3159,-245,2423,2025-01-29 11:49:29,0.0
-10816,-1968,-7900,-3422,-913,2882,2025-01-29 11:49:29,0.0
-10132,-2204,-9152,-3336,-959,2817,2025-01-29 11:49:29,0.0
-9904,-2032,-10664,-3032,-339,2332,2025-01-29 11:49:29,0.0
-9520,-1968,-10648,-2210,663,1338,2025-01-29 11:49:29,0.0
-10112,-788,-9252,-790,1089,-30,2025-01-29 11:49:29,0.0
-10684,112,-9072,-512,493,-472,2025-01-29 11:49:29,0.0
-10752,544,-9004,-944,-371,-234,2025-01-29 11:49:29,0.0
-9676,-124,-8532,-1524,-596,-352,2025-01-29 11:49:29,0.0
-9656,-776,-7712,-1823,151,-588,2025-01-29 11:49:29,0.0
-9796,-908,-7028,-1917,1167,-702,2025-01-29 11:49:30,0.0
-10388,-1004,-7304,-2003,1626,-834,2025-01-29 11:49:30,0.0
-10948,-1184,-7472,-1736,1681,-805,2025-01-29 11:49:30,0.0
-11044,-1236,-7712,-1303,1451,-968,2025-01-29 11:49:30,0.0
-11100,-1296,-7904,-907,992,-1244,2025-01-29 11:49:30,0.0
-11168,-1124,-7856,-568,653,-1336,2025-01-29 11:49:30,0.0
-11152,-1092,-8008,-414,585,-1158,2025-01-29 11:49:30,0.0
-10864,-1236,-8388,-409,576,-968,2025-01-29 11:49:30,0.0
-10660,-1296,-8344,-384,485,-849,2025-01-29 11:49:30,0.0
-10344,-1284,-8352,-326,268,-665,2025-01-29 11:49:30,0.0
-9992,-1300,-8388,-251,335,-533,2025-01-29 11:49:30,0.0
-10024,-1056,-8196,-150,541,-520,2025-01-29 11:49:30,0.0
-10240,-1044,-8132,-15,826,-527,2025-01-29 11:49:30,
-10648,-1224,-8180,176,989,-522,2025-01-29 11:49:30,0.0
-10816,-1208,-8532,393,867,-411,2025-01-29 11:49:30,0.0
-10852,-1036,-8660,504,655,-282,2025-01-29 11:49:30,0.0
-10560,-796,-8904,401,417,-192,2025-01-29 11:49:30,0.0
-10264,-684,-8896,206,439,-140,2025-01-29 11:49:30,0.0
-10128,-740,-9068,24,540,-130,2025-01-29 11:49:30,0.0
-9904,-920,-9048,-78,685,-165,2025-01-29 11:49:30,0.0
-9816,-1004,-9300,-109,776,-268,2025-01-29 11:49:30,0.0
-9552,-948,-9112,-219,719,-400,2025-01-29 11:49:30,0.0
-9124,-768,-9564,-438,629,-591,2025-01-29 11:49:30,0.0
-8472,-520,-9740,-807,848,-845,2025-01-29 11:49:30,0.0
-7976,-64,-9924,-1310,1241,-969,2025-01-29 11:49:30,0.0
-7056,224,-9764,-1942,1557,-990,2025-01-29 11:49:30,0.0
-6016,228,-10016,-2466,1857,-1000,2025-01-29 11:49:30,0.0
-4684,228,-9840,-2991,2157,-926,2025-01-29 11:49:30,0.0
-3972,-56,-8204,-3341,2773,-1202,2025-01-29 11:49:30,0.0
-3532,-168,-6496,-3547,3491,-1590,2025-01-29 11:49:30,0.0
-3836,-256,-5128,-3824,4185,-1768,2025-01-29 11:49:30,0.0
-3988,-488,-3556,-4227,4459,-1414,2025-01-29 11:49:30,0.0
-3992,-996,-2996,-4684,3726,-500,2025-01-29 11:49:30,0.0
-3936,-1796,-2076,-4818,2808,366,2025-01-29 11:49:30,0.0
-3756,-2420,-1228,-4241,1614,483,2025-01-29 11:49:30,0.0
-4020,-3120,-356,-3039,14,160,2025-01-29 11:49:30,0.0
-4880,-3204,88,-1322,-1120,-345,2025-01-29 11:49:30,0.0
-5580,-2760,-632,26,-849,507,2025-01-29 11:49:30,0.0
-5164,-1928,-1136,773,-815,1528,2025-01-29 11:49:30,0.0
-4732,-1288,-2344,1583,-996,2217,2025-01-29 11:49:30,0.0
-5020,-492,-4460,1869,-664,2957,2025-01-29 11:49:30,0.0
-4668,-16,-5704,1328,-164,3426,2025-01-29 11:49:30,0.0
-5924,388,-5044,747,301,2226,2025-01-29 11:49:30,0.0
-8704,1316,-6784,126,1093,1504,2025-01-29 11:49:30,0.0
-10824,1500,-6952,201,1520,1646,2025-01-29 11:49:30,0.0
-12296,980,-9204,653,977,1233,2025-01-29 11:49:30,0.0
-11960,-200,-12272,231,463,488,2025-01-29 11:49:30,0.0
-13028,-1160,-13432,-199,1208,813,2025-01-29 11:49:30,0.0
-10784,-1668,-12572,-470,710,1137,2025-01-29 11:49:30,0.0
-13476,-1008,-9576,-1201,288,2148,2025-01-29 11:49:30,0.0
-14176,-1104,-8004,164,2523,1876,2025-01-29 11:49:30,0.0
-11652,-152,-12788,1184,1215,655,2025-01-29 11:49:30,0.0
-13180,164,-12072,56,-3821,1163,2025-01-29 11:49:30,0.0
-13616,-128,-11312,-243,-8697,1639,2025-01-29 11:49:30,0.0
-14060,-308,-11420,-495,-6220,1874,2025-01-29 11:49:30,0.0
-14644,-932,-11588,-1035,-4412,1468,2025-01-29 11:49:30,0.0
-14600,-776,-11620,-900,-6919,813,2025-01-29 11:49:30,0.0
-18996,808,-14984,-865,-7269,224,2025-01-29 11:49:30,0.0
-21468,844,-16116,-1762,-8173,374,2025-01-29 11:49:30,0.0
-19372,348,-16308,-3068,-7629,2434,2025-01-29 11:49:31,0.0
-20008,-836,-14376,-2926,-10883,1677,2025-01-29 11:49:31,0.0
-17020,-120,-11536,-1924,-12116,-36,2025-01-29 11:49:31,0.0
-15248,372,-10016,-480,-11542,-1254,2025-01-29 11:49:31,0.0
-17256,1276,-10300,254,-7380,-1260,2025-01-29 11:49:31,0.0
-20780,3856,-10108,-640,-4258,-391,2025-01-29 11:49:31,0.0
-17752,1608,-11480,-1409,-2828,-829,2025-01-29 11:49:31,0.0
-18856,-144,-10596,-1365,-2026,-1436,2025-01-29 11:49:31,0.0
-18576,-1312,-10104,-579,-2530,-1436,2025-01-29 11:49:31,0.0
-16688,-356,-8860,38,-2913,-1205,2025-01-29 11:49:31,0.0
-13904,1248,-6748,272,-2125,-1048,2025-01-29 11:49:31,0.0
-11668,1564,-4996,26,382,-740,2025-01-29 11:49:31,0.0
-10944,1424,-3856,-256,3105,-513,2025-01-29 11:49:31,0.0
-11580,976,-4056,-534,4294,-355,2025-01-29 11:49:31,0.0
-11980,416,-4092,-614,3765,-147,2025-01-29 11:49:31,0.0
-12144,204,-4480,-436,2268,-51,2025-01-29 11:49:31,0.0
-11328,480,-4480,-221,1060,-331,2025-01-29 11:49:31,0.0
-11620,260,-4440,-405,682,142,2025-01-29 11:49:31,0.0
-10632,-44,-4264,-558,125,544,2025-01-29 11:49:31,0.0
-9900,-40,-4148,-634,245,389,2025-01-29 11:49:31,0.0
-9756,44,-4212,-702,797,122,2025-01-29 11:49:31,0.0
-10232,-64,-4692,-736,1144,-189,2025-01-29 11:49:31,0.0
-10868,136,-5272,-755,930,-440,2025-01-29 11:49:31,0.0
-11348,440,-6308,-887,-77,-542,2025-01-29 11:49:31,0.0
-11240,-104,-6088,-851,-959,-714,2025-01-29 11:49:31,0.0
-11048,-272,-6008,-715,-1053,-731,2025-01-29 11:49:31,0.0
-11132,184,-5860,-594,-772,-664,2025-01-29 11:49:31,0.0
-11744,244,-6028,-516,-484,-596,2025-01-29 11:49:31,0.0
-12360,252,-5952,-495,-389,-529,2025-01-29 11:49:31,0.0
-12612,724,-5992,-570,-495,-583,2025-01-29 11:49:31,0.0
-12936,576,-5824,-615,-703,-665,2025-01-29 11:49:31,0.0
-13228,104,-5888,-486,-1046,-683,2025-01-29 11:49:31,0.0
-13100,32,-6048,-399,-1480,-603,2025-01-29 11:49:31,0.0
-12668,608,-6292,-387,-1673,-713,2025-01-29 11:49:31,0.0
-12680,868,-6312,-462,-1594,-717,2025-01-29 11:49:31,0.0
-12588,116,-5864,-334,-1059,-686,2025-01-29 11:49:31,0.0
-12348,-708,-5464,-79,-433,-576,2025-01-29 11:49:31,0.0
-12568,-1076,-5628,320,-231,-357,2025-01-29 11:49:31,0.0
-12872,-608,-6056,626,-443,48,2025-01-29 11:49:31,0.0
-12588,564,-6552,547,-647,334,2025-01-29 11:49:31,0.0
-12000,1352,-6456,269,-681,309,2025-01-29 11:49:31,0.0
-12072,872,-6156,7,-740,254,2025-01-29 11:49:31,0.0
-12072,500,-5680,65,-637,59,2025-01-29 11:49:31,0.0
-11872,-152,-5276,190,-518,-37,2025-01-29 11:49:31,0.0
-11984,-360,-5164,425,-419,-79,2025-01-29 11:49:31,0.0
-12080,-192,-5604,580,-474,-15,2025-01-29 11:49:31,0.0
-12324,328,-5608,553,-360,103,2025-01-29 11:49:31,0.0
-12260,452,-5632,376,-465,131,2025-01-29 11:49:31,0.0
-12048,608,-5804,206,-476,114,2025-01-29 11:49:31,0.0
-11768,152,-5536,96,-320,-20,2025-01-29 11:49:31,0.0
-11680,-408,-5256,185,-66,-99,2025-01-29 11:49:31,0.0
-11940,-244,-5096,316,95,-148,2025-01-29 11:49:31,0.0
-12276,52,-5352,305,-14,-173,2025-01-29 11:49:31,0.0
-12404,588,-5752,123,-392,-159,2025-01-29 11:49:31,
-12396,888,-5724,-173,-710,-195,2025-01-29 11:49:31,0.0
-12268,432,-5320,-356,-695,-284,2025-01-29 11:49:31,0.0
-12208,-32,-5316,-346,-491,-264,2025-01-29 11:49:31,0.0
-12640,-368,-4804,-246,-112,-59,2025-01-29 11:49:31,0.0
-12616,-292,-5280,-109,53,113,2025-01-29 11:49:31,0.0
-12600,-52,-5552,-54,-44,218,2025-01-29 11:49:31,0.0
-12548,436,-5904,-42,-308,290,2025-01-29 11:49:31,0.0
-12272,676,-5600,-129,-490,236,2025-01-29 11:49:32,0.0
-12184,832,-5452,-288,-404,42,2025-01-29 11:49:32,0.0
-12260,424,-5376,-383,-79,-146,2025-01-29 11:49:32,0.0
-12524,96,-5216,-357,156,-153,2025-01-29 11:49:32,0.0
-12508,-252,-5068,-181,387,-93,2025-01-29 11:49:32,0.0
-12880,-232,-5236,9,443,-33,2025-01-29 11:49:32,0.0
-12676,108,-5336,141,232,-57,2025-01-29 11:49:32,0.0
-12504,548,-5244,182,90,-132,2025-01-29 11:49:32,0.0
-12292,664,-5032,49,16,-243,2025-01-29 11:49:32,0.0
-12264,496,-4964,-80,-34,-321,2025-01-29 11:49:32,0.0
-12344,240,-4792,-124,-17,-348,2025-01-29 11:49:32,0.0
-12496,208,-5060,-154,85,-326,2025-01-29 11:49:32,0.0
-12212,-16,-4892,-94,110,-278,2025-01-29 11:49:32,0.0
-12208,-312,-4756,28,139,-160,2025-01-29 11:49:32,0.0
-12296,-60,-4684,153,112,-79,2025-01-29 11:49:32,0.0
-12204,184,-4968,160,-38,-55,2025-01-29 11:49:32,0.0
-12440,324,-5244,112,-137,-73,2025-01-29 11:49:32,0.0
-12376,360,-5240,23,-130,-72,2025-01-29 11:49:32,0.0
-12340,204,-5152,-15,-112,-75,2025-01-29 11:49:32,0.0
-12604,236,-5192,-50,-2,-48,2025-01-29 11:49:32,0.0
-12400,140,-5220,-85,187,112,2025-01-29 11:49:32,0.0
-12276,112,-5096,-21,263,143,2025-01-29 11:49:32,0.0
-12528,68,-5308,18,157,92,2025-01-29 11:49:32,0.0
-12584,240,-5268,-12,210,96,2025-01-29 11:49:32,0.0
-12524,436,-5520,-83,390,71,2025-01-29 11:49:32,0.0
-12360,524,-5616,-262,566,-20,2025-01-29 11:49:32,0.0
-12372,348,-5664,-423,455,-210,2025-01-29 11:49:32,0.0
-12144,40,-5420,-457,245,-415,2025-01-29 11:49:32,0.0
-12160,-112,-5316,-312,283,-539,2025-01-29 11:49:32,0.0
-12372,-128,-5292,-185,437,-542,2025-01-29 11:49:32,0.0
-12484,28,-5556,-101,569,-453,2025-01-29 11:49:32,0.0
-12572,176,-5544,-98,550,-351,2025-01-29 11:49:32,0.0
-12460,328,-5476,-156,364,-312,2025-01-29 11:49:32,0.0
-12360,300,-5568,-259,268,-215,2025-01-29 11:49:32,0.0
-12160,120,-5192,-259,388,-237,2025-01-29 11:49:32,0.0
-12156,-60,-5032,-243,489,-186,2025-01-29 11:49:32,0.0
-12348,-88,-4964,-133,404,-74,2025-01-29 11:49:32,0.0
-12336,256,-5172,-162,197,19,2025-01-29 11:49:32,0.0
-12232,512,-5108,-237,94,97,2025-01-29 11:49:32,0.0
-12060,624,-5244,-419,119,14,2025-01-29 11:49:32,0.0
-12056,608,-5152,-495,96,-88,2025-01-29 11:49:32,0.0
-12008,368,-5104,-516,89,-224,2025-01-29 11:49:32,0.0
-12200,-36,-5216,-401,106,-241,2025-01-29 11:49:32,0.0
-12392,4,-5032,-270,168,-139,2025-01-29 11:49:32,0.0
-12492,188,-5192,-239,167,-71,2025-01-29 11:49:32,0.0
-12468,436,-5244,-266,65,-58,2025-01-29 11:49:32,0.0
-12500,620,-5352,-343,39,-83,2025-01-29 11:49:32,0.0
-12404,372,-5464,-399,62,-129,2025-01-29 11:49:32,0.0
-12472,388,-5316,-398,95,-115,2025-01-29 11:49:32,0.0
-12508,432,-5328,-417,127,-83,2025-01-29 11:49:32,0.0
-12480,540,-5224,-440,170,-51,2025-01-29 11:49:32,0.0
-12456,296,-5404,-468,210,8,2025-01-29 11:49:32,0.0
-12448,332,-5260,-407,182,24,2025-01-29 11:49:32,0.0
-12360,340,-5288,-372,238,2,2025-01-29 11:49:32,0.0
-12600,476,-5500,-363,248,18,2025-01-29 11:49:32,0.0
-12572,372,-5592,-406,156,58,2025-01-29 11:49:32,0.0
-12392,540,-5576,-376,61,40,2025-01-29 11:49:32,0.0
-12232,504,-5328,-378,81,-23,2025-01-29 11:49:32,0.0
-12344,384,-5396,-410,352,-119,2025-01-29 11:49:32,0.0
-12232,460,-5536,-424,363,-75,2025-01-29 11:49:32,0.0
-12200,532,-5332,-432,354,-41,2025-01-29 11:49:32,0.0
-12264,576,-5300,-409,229,-85,2025-01-29 11:49:32,0.0
-12412,444,-5548,-432,131,-103,2025-01-29 11:49:32,0.0
-12280,436,-5280,-435,13,-201,2025-01-29 11:49:33,0.0
-12336,348,-5156,-451,63,-207,2025-01-29 11:49:33,0.0
-12192,404,-5160,-465,199,-170,2025-01-29 11:49:33,0.0
-12176,324,-5112,-423,312,-113,2025-01-29 11:49:33,0.0
-12276,232,-5228,-385,255,-20,2025-01-29 11:49:33,0.0
-12284,468,-5188,-359,149,-11,2025-01-29 11:49:33,0.0
-12288,740,-5356,-375,53,-50,2025-01-29 11:49:33,0.0
-12292,636,-5300,-429,31,-146,2025-01-29 11:49:33,0.0
-12192,408,-4960,-412,-15,-200,2025-01-29 11:49:33,0.0
-12136,236,-5256,-371,34,-221,2025-01-29 11:49:33,0.0
-12348,124,-5344,-309,71,-221,2025-01-29 11:49:33,0.0
-12428,292,-5204,-210,95,-176,2025-01-29 11:49:33,0.0
-12340,416,-5256,-186,40,-156,2025-01-29 11:49:33,0.0
-12408,696,-5308,-177,-34,-207,2025-01-29 11:49:33,0.0
-12328,648,-5320,-194,-59,-250,2025-01-29 11:49:33,0.0
-12296,544,-5180,-201,-46,-224,2025-01-29 11:49:33,0.0
-12432,344,-5192,-161,-28,-178,2025-01-29 11:49:33,0.0
-12388,384,-5184,-73,37,-140,2025-01-29 11:49:33,0.0
-12340,476,-5232,-55,120,-117,2025-01-29 11:49:33,0.0
-12428,576,-5108,8,119,-149,2025-01-29 11:49:33,0.0
-12596,604,-5152,37,59,-118,2025-01-29 11:49:33,0.0
-12400,596,-5320,58,34,-103,2025-01-29 11:49:33,0.0
-12488,612,-5300,74,-23,-130,2025-01-29 11:49:33,0.0
-12376,536,-5156,82,23,-145,2025-01-29 11:49:33,0.0
-12272,408,-5128,84,67,-160,2025-01-29 11:49:33,0.0
-12392,468,-5140,109,81,-103,2025-01-29 11:49:33,0.0
-12372,448,-5160,120,134,-77,2025-01-29 11:49:33,0.0
-12404,544,-5136,115,134,-69,2025-01-29 11:49:33,0.0
-12472,544,-5196,112,69,-107,2025-01-29 11:49:33,0.0
-12372,584,-5056,78,59,-143,2025-01-29 11:49:33,
-12424,452,-4984,65,88,-187,2025-01-29 11:49:33,0.0
-12400,468,-5192,96,133,-234,2025-01-29 11:49:33,0.0
-12404,460,-5232,77,176,-235,2025-01-29 11:49:33,0.0
-12476,336,-4972,114,296,-234,2025-01-29 11:49:33,0.0
-12904,412,-5000,183,414,-350,2025-01-29 11:49:33,0.0
-13628,360,-5052,306,730,-607,2025-01-29 11:49:33,0.0
-14040,240,-5460,335,1491,-537,2025-01-29 11:49:33,0.0
-13968,-208,-5288,340,2605,-694,2025-01-29 11:49:33,0.0
-15488,24,-5364,374,2352,-898,2025-01-29 11:49:33,0.0
-16188,416,-6396,330,2411,-1107,2025-01-29 11:49:33,0.0
-16680,800,-8144,305,3933,-1182,2025-01-29 11:49:33,0.0
-16840,664,-8864,317,4953,-1166,2025-01-29 11:49:33,0.0
-17116,588,-9164,374,4978,-1210,2025-01-29 11:49:33,0.0
-17304,492,-9408,328,5201,-951,2025-01-29 11:49:33,0.0
-17484,-368,-9132,711,5500,-530,2025-01-29 11:49:33,0.0
-17476,-128,-9348,880,5742,-196,2025-01-29 11:49:33,0.0
-17328,332,-9484,953,6094,-96,2025-01-29 11:49:33,0.0
-16864,240,-9716,1157,6588,-74,2025-01-29 11:49:33,0.0
-16828,96,-9888,1201,7149,80,2025-01-29 11:49:33,0.0
-16088,-60,-10380,1162,7252,528,2025-01-29 11:49:33,0.0
-14956,-328,-10448,1013,6700,785,2025-01-29 11:49:33,0.0
-14140,84,-10168,1090,5503,775,2025-01-29 11:49:33,0.0
-13436,-40,-8972,1221,4583,647,2025-01-29 11:49:33,0.0
-12988,316,-8448,1391,4447,492,2025-01-29 11:49:33,0.0
-12120,412,-8016,1473,4626,100,2025-01-29 11:49:33,0.0
-11748,192,-8044,1436,5028,-88,2025-01-29 11:49:33,0.0
-11580,36,-8100,1307,5321,-53,2025-01-29 11:49:33,0.0
-11232,-136,-8572,1140,5447,99,2025-01-29 11:49:33,0.0
-11076,-204,-8608,1018,5390,79,2025-01-29 11:49:33,0.0
-10808,-800,-9060,1357,5692,-146,2025-01-29 11:49:33,0.0
-10772,-588,-10060,1376,4937,-112,2025-01-29 11:49:33,0.0
-10920,-480,-10048,1370,3471,-49,2025-01-29 11:49:34,0.0
-10528,140,-10800,1094,2762,-270,2025-01-29 11:49:34,0.0
-10344,480,-11108,699,2259,-781,2025-01-29 11:49:34,0.0
-11952,460,-11084,492,4122,-1247,2025-01-29 11:49:34,0.0
-10884,300,-10896,281,4109,-1449,2025-01-29 11:49:34,0.0
-25572,-4788,-6812,111,-1985,-1304,2025-01-29 11:49:34,0.0
-10576,-416,-9684,-655,1135,-1576,2025-01-29 11:49:34,0.0
-10128,-836,-9408,-617,-105,-1498,2025-01-29 11:49:34,0.0
-9196,-988,-8836,-572,-1163,-1586,2025-01-29 11:49:34,0.0
-9392,-1128,-8372,-311,-2386,-1620,2025-01-29 11:49:34,0.0
-7088,-972,-8464,-174,-2445,-1576,2025-01-29 11:49:34,0.0
-8312,-932,-8200,-456,-1626,-1138,2025-01-29 11:49:34,0.0
-8512,-572,-6828,-488,-971,-770,2025-01-29 11:49:34,0.0
-8288,-544,-6368,-242,-358,-540,2025-01-29 11:49:34,0.0
-7684,-372,-6196,-199,-798,-435,2025-01-29 11:49:34,0.0
-7472,-120,-5792,-292,-2252,-287,2025-01-29 11:49:34,0.0
-6672,-168,-5704,-394,-3922,-3,2025-01-29 11:49:34,0.0
-6272,-124,-4908,-323,-5467,405,2025-01-29 11:49:34,0.0
-5852,-556,-4336,-230,-6745,709,2025-01-29 11:49:34,0.0
-5428,-632,-3428,-167,-7618,853,2025-01-29 11:49:34,0.0
-5172,-664,-2808,6,-8263,1003,2025-01-29 11:49:34,0.0
-4760,-112,-2696,333,-8627,1313,2025-01-29 11:49:34,0.0
-4520,384,-3084,487,-7936,1488,2025-01-29 11:49:34,0.0
-4280,328,-2980,383,-6128,1338,2025-01-29 11:49:34,0.0
-4100,-184,-2896,233,-3235,593,2025-01-29 11:49:34,0.0
-4432,-516,-3340,695,-332,-451,2025-01-29 11:49:34,0.0
-4832,-648,-4872,1229,2094,-1142,2025-01-29 11:49:34,0.0
-5828,-40,-5596,1371,3717,-1470,2025-01-29 11:49:34,0.0
-6932,152,-6312,1292,5502,-1644,2025-01-29 11:49:34,0.0
-8288,-668,-7128,944,6940,-1993,2025-01-29 11:49:34,0.0
-9464,-1324,-6916,966,6492,-2396,2025-01-29 11:49:34,0.0
-10204,-1728,-6972,1312,4031,-2763,2025-01-29 11:49:34,0.0
-9536,-704,-8124,2010,-2445,-2609,2025-01-29 11:49:34,0.0
-11392,-864,-7464,2623,-3402,-1734,2025-01-29 11:49:34,0.0
-11208,-596,-9552,3103,-4470,-155,2025-01-29 11:49:34,0.0
-10588,-736,-10940,2518,-1786,346,2025-01-29 11:49:34,0.0
-10212,-1384,-13388,1178,2755,-125,2025-01-29 11:49:34,0.0
-10676,-1552,-14332,263,5316,-1019,2025-01-29 11:49:34,0.0
-11492,-1812,-11236,895,3909,-2000,2025-01-29 11:49:34,0.0
-13300,-1428,-9176,2087,-342,-1919,2025-01-29 11:49:34,0.0
-14416,180,-8572,1461,-3552,-187,2025-01-29 11:49:34,0.0
-12440,348,-9020,-203,-4637,621,2025-01-29 11:49:34,0.0
-9932,-300,-7648,-834,-4126,93,2025-01-29 11:49:34,0.0
-9548,-1272,-6288,-379,-3012,-493,2025-01-29 11:49:34,0.0
-10180,-2044,-5744,-191,-991,-527,2025-01-29 11:49:34,0.0
-10916,-1860,-5156,57,522,-161,2025-01-29 11:49:34,0.0
-10692,-1600,-5768,338,918,-112,2025-01-29 11:49:34,0.0
-11088,-1560,-6624,344,721,-248,2025-01-29 11:49:34,0.0
-11444,-1424,-7440,323,666,-157,2025-01-29 11:49:34,0.0
-11552,-1156,-8432,22,394,-12,2025-01-29 11:49:34,0.0
-11180,-1156,-8624,-178,-86,6,2025-01-29 11:49:34,0.0
-10700,-1328,-8656,-296,-317,-171,2025-01-29 11:49:34,0.0
-10608,-1064,-8416,-444,82,-328,2025-01-29 11:49:34,0.0
-11052,-1404,-7876,-698,601,-382,2025-01-29 11:49:34,0.0
-11344,-1852,-7420,-619,698,-259,2025-01-29 11:49:34,0.0
-11616,-1920,-7288,-493,216,-52,2025-01-29 11:49:34,0.0
-11616,-1528,-7128,-427,-424,-93,2025-01-29 11:49:34,0.0
-11492,-1456,-6932,-348,-883,-141,2025-01-29 11:49:34,0.0
-11356,-1336,-6896,-200,-1031,-18,2025-01-29 11:49:34,0.0
-11008,-1348,-6748,-265,-682,-25,2025-01-29 11:49:35,0.0
-10912,-1352,-6960,-454,-231,-45,2025-01-29 11:49:35,0.0
-11108,-1152,-7192,-600,208,42,2025-01-29 11:49:35,0.0
-11108,-1260,-7092,-710,421,216,2025-01-29 11:49:35,0.0
-11172,-976,-7344,-885,405,317,2025-01-29 11:49:35,0.0
-10928,-956,-7296,-1015,403,263,2025-01-29 11:49:35,0.0
-10828,-1088,-6736,-1016,528,123,2025-01-29 11:49:35,0.0
-10504,-1032,-6532,-956,470,-25,2025-01-29 11:49:35,0.0
-10208,-544,-6444,-735,1066,-45,2025-01-29 11:49:35,0.0
-9704,172,-7816,-771,2482,-233,2025-01-29 11:49:35,
-10136,652,-8936,-909,3878,-540,2025-01-29 11:49:35,0.0
-11684,84,-9248,-1007,4415,-868,2025-01-29 11:49:35,0.0
-12204,104,-7948,-1035,3630,-1138,2025-01-29 11:49:35,0.0
-12456,292,-7884,-1148,1719,-1267,2025-01-29 11:49:35,0.0
-12020,908,-8352,-1596,-420,-1498,2025-01-29 11:49:35,0.0
-11736,1336,-8088,-2164,-1589,-1860,2025-01-29 11:49:35,0.0
-11060,1480,-8292,-2612,-2031,-2503,2025-01-29 11:49:35,0.0
-10624,1288,-8144,-3141,-1706,-3117,2025-01-29 11:49:35,0.0
-10552,1284,-8072,-3744,-1112,-3542,2025-01-29 11:49:35,0.0
-10460,1372,-8676,-4410,-759,-3894,2025-01-29 11:49:35,0.0
-10576,1252,-8676,-5100,-677,-4204,2025-01-29 11:49:35,0.0
-10396,860,-8112,-5595,-719,-4715,2025-01-29 11:49:35,0.0
-9820,-1268,-7864,-5823,-824,-5666,2025-01-29 11:49:35,0.0
-9280,-1868,-7960,-5502,-174,-6022,2025-01-29 11:49:35,0.0
-9484,-2208,-8292,-5235,807,-6253,2025-01-29 11:49:35,0.0
-9928,-2756,-8092,-5050,1780,-6321,2025-01-29 11:49:35,0.0
-10424,-3144,-7696,-4803,2186,-6142,2025-01-29 11:49:35,0.0
-10696,-3308,-7860,-4515,2094,-5927,2025-01-29 11:49:35,0.0
-10964,-3624,-7848,-4293,2050,-5798,2025-01-29 11:49:35,0.0
-10964,-4016,-8108,-3910,2282,-5680,2025-01-29 11:49:35,0.0
-11240,-4124,-8440,-3721,2010,-5706,2025-01-29 11:49:35,0.0
-11688,-3820,-8252,-3943,1192,-5777,2025-01-29 11:49:35,0.0
-11812,-3160,-8404,-4263,484,-5674,2025-01-29 11:49:35,0.0
-11384,-2144,-8724,-4743,-30,-5863,2025-01-29 11:49:35,0.0
-10992,-1828,-8920,-5267,-310,-6141,2025-01-29 11:49:35,0.0
-10524,-1852,-8876,-5830,-682,-6511,2025-01-29 11:49:35,0.0
-10356,-2172,-8800,-6337,-835,-6751,2025-01-29 11:49:35,0.0
-10244,-2240,-8444,-6889,-790,-6951,2025-01-29 11:49:35,0.0
-9992,-2552,-8548,-7363,-693,-7095,2025-01-29 11:49:35,0.0
-9628,-4152,-9464,-9413,-58,-6032,2025-01-29 11:49:35,0.0
-9184,-4148,-9652,-9607,502,-6156,2025-01-29 11:49:35,0.0
-8672,-3856,-9596,-10087,945,-6380,2025-01-29 11:49:35,0.0
-8628,-3176,-9720,-10632,1527,-6476,2025-01-29 11:49:35,0.0
-8716,-2392,-9572,-11383,1739,-6573,2025-01-29 11:49:35,0.0
-9084,-1580,-8736,-11986,1578,-6984,2025-01-29 11:49:36,0.0
-9772,-1132,-8636,-12860,1127,-7681,2025-01-29 11:49:36,0.0
-10172,-1652,-9300,-13622,248,-7998,2025-01-29 11:49:36,0.0
-10044,-2356,-9840,-13977,-1073,-8245,2025-01-29 11:49:36,0.0
-9876,-2740,-10252,-14413,-2240,-8298,2025-01-29 11:49:36,0.0
-9488,-3452,-10356,-14800,-2773,-8121,2025-01-29 11:49:36,0.0
-8796,-4016,-9940,-14929,-2773,-8021,2025-01-29 11:49:36,0.0
-8904,-4624,-9432,-14708,-2296,-8131,2025-01-29 11:49:36,0.0
-9432,-5528,-9384,-14249,-1853,-8030,2025-01-29 11:49:36,0.0
-9876,-5728,-9484,-12747,-1776,-7296,2025-01-29 11:49:36,0.0
-9492,-5424,-9852,-11921,-1976,-7156,2025-01-29 11:49:36,0.0
-9040,-5204,-10420,-10964,-1847,-7524,2025-01-29 11:49:36,0.0
-8972,-4352,-11000,-9877,-1796,-7964,2025-01-29 11:49:36,0.0
-9872,-1404,-11016,-9064,-2573,-7434,2025-01-29 11:49:36,0.0
-9736,296,-10776,-9737,-3123,-7024,2025-01-29 11:49:36,0.0
-9260,896,-9920,-10633,-3041,-7053,2025-01-29 11:49:36,0.0
-8828,752,-9540,-11292,-2282,-7409,2025-01-29 11:49:36,0.0
-8768,544,-9600,-12294,-1310,-7730,2025-01-29 11:49:36,0.0
-8624,528,-9208,-12985,-236,-8102,2025-01-29 11:49:36,0.0
-9456,1056,-9396,-13333,1063,-8533,2025-01-29 11:49:36,0.0
-10228,1392,-9060,-13585,659,-8953,2025-01-29 11:49:36,0.0
-10656,1524,-9228,-13508,-575,-9364,2025-01-29 11:49:36,0.0
-11488,1100,-9340,-13509,-1002,-9313,2025-01-29 11:49:36,0.0
-11684,1116,-9292,-13823,-704,-8984,2025-01-29 11:49:36,0.0
-12016,708,-9112,-14342,-142,-8830,2025-01-29 11:49:36,0.0
-12372,-264,-8332,-14484,158,-8489,2025-01-29 11:49:36,0.0
-12372,-1224,-8100,-14193,-147,-7877,2025-01-29 11:49:36,0.0
-11392,-1908,-8080,-13585,-1493,-7088,2025-01-29 11:49:36,0.0
-10892,-1852,-7056,-12666,-2144,-6623,2025-01-29 11:49:36,0.0
-10324,-1624,-6452,-11629,-2096,-6452,2025-01-29 11:49:36,0.0
-9928,-1104,-6076,-10519,-1539,-6433,2025-01-29 11:49:36,0.0
-9648,-264,-6888,-9886,-795,-6437,2025-01-29 11:49:36,0.0
-8920,708,-8084,-9846,-387,-6521,2025-01-29 11:49:36,0.0
-8724,1300,-8132,-10135,157,-6712,2025-01-29 11:49:36,0.0
-8512,1816,-8232,-10386,1061,-7094,2025-01-29 11:49:36,0.0
-9588,1644,-7488,-10688,2226,-7527,2025-01-29 11:49:36,0.0
-10712,1176,-6864,-10652,2863,-7711,2025-01-29 11:49:36,0.0
-11116,428,-7896,-10338,1808,-8223,2025-01-29 11:49:36,0.0
-11932,412,-8564,-10334,509,-8615,2025-01-29 11:49:36,0.0
-11696,268,-8956,-10666,-154,-8375,2025-01-29 11:49:36,0.0
-11236,116,-8304,-10724,-409,-8083,2025-01-29 11:49:36,0.0
-10404,136,-8200,-10758,-265,-7740,2025-01-29 11:49:36,0.0
-9576,128,-8180,-10746,420,-7463,2025-01-29 11:49:36,0.0
-8956,300,-8036,-10585,1681,-7341,2025-01-29 11:49:36,0.0
-9392,556,-8120,-10301,3057,-7413,2025-01-29 11:49:36,0.0
-10468,852,-8280,-10125,3989,-7355,2025-01-29 11:49:36,0.0
-10984,816,-8780,-9997,3970,-7337,2025-01-29 11:49:36,0.0
-11508,396,-10008,-9853,2852,-7376,2025-01-29 11:49:36,0.0
-12136,208,-8564,-9667,747,-7488,2025-01-29 11:49:36,0.0
-11476,56,-8040,-9318,-1574,-7337,2025-01-29 11:49:36,0.0
-10316,-152,-7656,-8978,-2432,-7391,2025-01-29 11:49:36,0.0
-10052,-144,-7036,-8496,-2252,-7465,2025-01-29 11:49:36,0.0
-10188,-44,-6344,-7696,-1821,-7258,2025-01-29 11:49:36,0.0
-10444,-128,-6116,-7116,-1359,-6882,2025-01-29 11:49:36,0.0
-10532,-128,-5992,-6524,-774,-6533,2025-01-29 11:49:36,0.0
-10592,-476,-5760,-5915,-257,-6176,2025-01-29 11:49:36,0.0
-10496,-748,-5616,-5375,273,-5931,2025-01-29 11:49:36,0.0
-10720,-1332,-5280,-4594,1418,-5693,2025-01-29 11:49:36,0.0
-11296,-1620,-5356,-3630,2783,-5325,2025-01-29 11:49:36,0.0
-12332,-1748,-6120,-2457,4111,-4570,2025-01-29 11:49:36,0.0
-13228,-1684,-6936,-1438,4862,-3745,2025-01-29 11:49:36,0.0
-14152,-1736,-7936,-510,5147,-2808,2025-01-29 11:49:36,0.0
-14588,-1080,-9188,-143,4436,-1600,2025-01-29 11:49:36,0.0
-13416,1496,-10344,-475,2097,-213,2025-01-29 11:49:36,0.0
-11860,3936,-10832,-1236,-376,149,2025-01-29 11:49:36,0.0
-9572,5536,-11444,-2184,-2136,-481,2025-01-29 11:49:37,
-8796,5596,-10044,-3023,-1997,-2468,2025-01-29 11:49:37,0.0
-8524,4580,-9288,-3180,-1284,-4916,2025-01-29 11:49:37,0.0
-8984,3044,-10668,-3286,-1417,-6425,2025-01-29 11:49:37,0.0
-9040,876,-11576,-3856,-1990,-7714,2025-01-29 11:49:37,0.0
-9544,-544,-10624,-4336,-2407,-8317,2025-01-29 11:49:37,0.0
