acceleration_x,acceleration_y,acceleration_z,gyroscope_x,gyroscope_y,gyroscope_z,timestamp,label
-11144,296,-7084,-336,-351,-733,2025-01-29 10:34:14,0.0
-11328,384,-6972,-191,-165,-708,2025-01-29 10:34:14,0.0
-11776,388,-7096,-42,266,-645,2025-01-29 10:34:14,0.0
-12044,172,-6672,86,-103,-508,2025-01-29 10:34:14,0.0
-11808,36,-7116,273,-515,-373,2025-01-29 10:34:14,0.0
-11472,-332,-7232,320,-692,-243,2025-01-29 10:34:14,0.0
-11124,-340,-7396,503,-752,-122,2025-01-29 10:34:14,0.0
-10736,-592,-7308,699,-661,-56,2025-01-29 10:34:14,0.0
-10748,-232,-6892,795,-472,-8,2025-01-29 10:34:14,0.0
-10724,104,-6800,770,-46,-55,2025-01-29 10:34:14,0.0
-10624,408,-6916,615,602,-367,2025-01-29 10:34:14,0.0
-11280,444,-6888,498,1101,-712,2025-01-29 10:34:14,0.0
-11952,368,-6940,485,1003,-859,2025-01-29 10:34:14,0.0
-12320,300,-7260,236,277,-902,2025-01-29 10:34:15,0.0
-12504,288,-6928,34,-788,-876,2025-01-29 10:34:15,0.0
-12456,40,-7320,-108,-1456,-699,2025-01-29 10:34:15,0.0
-12608,-224,-7212,-177,-1537,-411,2025-01-29 10:34:15,0.0
-12184,-768,-6788,-80,-1616,-100,2025-01-29 10:34:15,0.0
-11864,-560,-6496,225,-1807,142,2025-01-29 10:34:15,0.0
-11276,-104,-6544,321,-1555,218,2025-01-29 10:34:15,0.0
-11304,28,-6900,182,-773,158,2025-01-29 10:34:15,0.0
-11484,112,-6848,-55,148,222,2025-01-29 10:34:15,0.0
-11792,28,-6480,-112,358,206,2025-01-29 10:34:15,0.0
-11772,28,-6404,-204,248,81,2025-01-29 10:34:15,0.0
-12496,188,-5612,-297,-254,12,2025-01-29 10:34:15,0.0
-12340,260,-5628,-364,-516,-78,2025-01-29 10:34:15,0.0
-11968,12,-6128,-451,-505,-108,2025-01-29 10:34:15,0.0
-11716,-228,-6328,-580,-356,-134,2025-01-29 10:34:15,0.0
-11908,-508,-6004,-602,-175,-149,2025-01-29 10:34:15,0.0
-12072,-704,-5860,-542,1,-209,2025-01-29 10:34:15,0.0
-12212,-616,-6012,-257,-67,-248,2025-01-29 10:34:15,0.0
-12260,-400,-6396,-65,-550,-200,2025-01-29 10:34:15,0.0
-12216,-180,-6348,50,-855,-171,2025-01-29 10:34:15,0.0
-11952,-308,-6496,71,-920,-156,2025-01-29 10:34:15,0.0
-11688,-268,-6680,93,-806,-136,2025-01-29 10:34:15,0.0
-11600,-412,-6196,205,-529,-298,2025-01-29 10:34:15,0.0
-11756,-424,-6280,422,-239,-506,2025-01-29 10:34:15,0.0
-12320,-176,-6224,516,-112,-599,2025-01-29 10:34:15,0.0
-12668,-176,-5860,510,-399,-625,2025-01-29 10:34:15,0.0
-12860,-264,-5472,390,-1036,-715,2025-01-29 10:34:15,0.0
-12792,-124,-6032,298,-1692,-789,2025-01-29 10:34:15,0.0
-12444,-244,-6092,156,-2239,-1219,2025-01-29 10:34:15,0.0
-11892,-80,-5620,196,-2354,-1833,2025-01-29 10:34:15,0.0
-11636,4,-5464,139,-2074,-2289,2025-01-29 10:34:15,0.0
-11044,-480,-5172,189,-1045,-3191,2025-01-29 10:34:15,0.0
-11532,28,-5668,248,-52,-3864,2025-01-29 10:34:15,0.0
-11700,-208,-5888,-211,474,-4272,2025-01-29 10:34:15,0.0
-12568,-860,-4708,-740,377,-4303,2025-01-29 10:34:15,0.0
-13088,-1184,-3724,-1274,-765,-3591,2025-01-29 10:34:15,0.0
-13236,-1412,-3844,-1915,-1785,-2303,2025-01-29 10:34:15,0.0
-12824,-1040,-4600,-2653,-2117,-1011,2025-01-29 10:34:15,0.0
-11608,-608,-6548,-3518,-1499,-537,2025-01-29 10:34:15,0.0
-11588,-52,-7000,-4010,197,-515,2025-01-29 10:34:15,0.0
-11376,-228,-6048,-4107,1321,-899,2025-01-29 10:34:15,0.0
-12116,-504,-5612,-4727,964,-1080,2025-01-29 10:34:15,0.0
-12868,-1028,-5284,-5067,-82,-502,2025-01-29 10:34:15,0.0
-12044,-572,-5564,-5072,-619,81,2025-01-29 10:34:15,0.0
-11492,20,-5668,-5037,-14,161,2025-01-29 10:34:15,0.0
-10988,-168,-5656,-4715,1107,-253,2025-01-29 10:34:15,0.0
-11012,-120,-5520,-3999,2555,-1095,2025-01-29 10:34:15,0.0
-11568,272,-6196,-3778,3567,-1928,2025-01-29 10:34:15,0.0
-12348,568,-6588,-4230,3296,-2410,2025-01-29 10:34:15,0.0
-13028,908,-6484,-5161,2031,-2350,2025-01-29 10:34:15,0.0
-12744,588,-6808,-6008,345,-2069,2025-01-29 10:34:15,0.0
-12024,272,-6560,-6063,-364,-2051,2025-01-29 10:34:15,0.0
-11276,-72,-6808,-5842,-51,-2064,2025-01-29 10:34:15,0.0
-10700,-564,-6624,-5431,998,-2123,2025-01-29 10:34:15,0.0
-10808,-1180,-6100,-5013,2363,-2172,2025-01-29 10:34:15,0.0
-11188,-1132,-5812,-4608,3326,-2298,2025-01-29 10:34:15,0.0
-11972,-664,-6040,-4342,3711,-2250,2025-01-29 10:34:15,0.0
-12348,-192,-6572,-4277,3551,-1959,2025-01-29 10:34:15,0.0
-12308,204,-7028,-4195,3217,-1583,2025-01-29 10:34:15,0.0
-12216,104,-7172,-4161,2929,-1418,2025-01-29 10:34:15,0.0
-12316,276,-6960,-3980,2609,-1512,2025-01-29 10:34:15,0.0
-12412,272,-6168,-3676,617,-1915,2025-01-29 10:34:15,0.0
-11936,356,-5520,-3467,-247,-1805,2025-01-29 10:34:16,0.0
-11316,404,-5796,-3468,-421,-1810,2025-01-29 10:34:16,0.0
-10696,316,-6368,-3527,175,-2068,2025-01-29 10:34:16,0.0
-11152,224,-6640,-3400,1178,-2209,2025-01-29 10:34:16,0.0
-11312,252,-6436,-3595,1718,-2331,2025-01-29 10:34:16,0.0
-11480,144,-5844,-3865,1513,-2550,2025-01-29 10:34:16,0.0
-11712,-124,-6088,-3880,1137,-2667,2025-01-29 10:34:16,0.0
-11472,-212,-6852,-3966,938,-2603,2025-01-29 10:34:16,0.0
-11136,-432,-6712,-4015,1174,-2613,2025-01-29 10:34:16,0.0
-11600,-712,-6524,-3852,1428,-2592,2025-01-29 10:34:16,0.0
-11640,-368,-6796,-3737,1824,-2529,2025-01-29 10:34:16,0.0
-12176,332,-6412,-4034,1520,-2376,2025-01-29 10:34:16,0.0
-11892,684,-6488,-4278,197,-2153,2025-01-29 10:34:16,0.0
-11304,84,-6472,-4349,-828,-2129,2025-01-29 10:34:16,0.0
-10664,-108,-6720,-4135,-405,-2474,2025-01-29 10:34:16,0.0
-10952,164,-7688,-4063,1043,-2915,2025-01-29 10:34:16,0.0
-11768,-64,-8276,-4075,2110,-2716,2025-01-29 10:34:16,0.0
-11944,-392,-8188,-3923,2097,-2570,2025-01-29 10:34:16,0.0
-12028,-932,-7600,-3918,1053,-2645,2025-01-29 10:34:16,0.0
-12344,-1260,-6596,-3708,-6,-2489,2025-01-29 10:34:16,0.0
-11924,-1140,-6200,-3351,-1037,-2182,2025-01-29 10:34:16,0.0
-11388,-1208,-6440,-2910,-1633,-1862,2025-01-29 10:34:16,0.0
-10936,-1292,-6736,-2343,-1351,-1508,2025-01-29 10:34:16,0.0
-10340,-1128,-7128,-1822,-579,-1275,2025-01-29 10:34:16,0.0
-10028,-868,-7408,-1475,441,-1276,2025-01-29 10:34:16,
-10220,-616,-7148,-1186,1225,-1346,2025-01-29 10:34:16,0.0
-10300,-288,-7528,-1094,1971,-1255,2025-01-29 10:34:16,0.0
-10632,-28,-7928,-1124,2530,-1202,2025-01-29 10:34:16,0.0
-11388,-40,-8096,-1221,2555,-998,2025-01-29 10:34:16,0.0
-11656,-16,-8360,-1256,2425,-738,2025-01-29 10:34:16,0.0
-11632,124,-8656,-1428,1829,-592,2025-01-29 10:34:16,0.0
-11440,-8,-8716,-1632,1165,-582,2025-01-29 10:34:16,0.0
-10980,-172,-8348,-1771,594,-717,2025-01-29 10:34:16,0.0
-10760,-212,-7996,-1711,553,-804,2025-01-29 10:34:16,0.0
-10616,-64,-8388,-1610,715,-860,2025-01-29 10:34:16,0.0
-10620,72,-8392,-1650,854,-857,2025-01-29 10:34:16,0.0
-10500,132,-8656,-1686,1083,-861,2025-01-29 10:34:16,0.0
-10556,288,-8404,-1772,1391,-1013,2025-01-29 10:34:16,0.0
-10860,368,-8136,-1863,1759,-1074,2025-01-29 10:34:16,0.0
-11004,280,-7940,-2050,1608,-1133,2025-01-29 10:34:16,0.0
-10684,220,-7720,-2196,1241,-1218,2025-01-29 10:34:16,0.0
-10704,-72,-7440,-2181,1018,-1389,2025-01-29 10:34:16,0.0
-10684,-468,-6940,-1999,1059,-1482,2025-01-29 10:34:16,0.0
-10900,-536,-6856,-1637,1400,-1524,2025-01-29 10:34:16,0.0
-11236,-356,-7120,-1204,1843,-1344,2025-01-29 10:34:16,0.0
-11544,-140,-7860,-1176,2312,-1036,2025-01-29 10:34:16,0.0
-11208,-172,-7984,-1239,2282,-986,2025-01-29 10:34:16,0.0
-11120,-216,-7880,-1138,1369,-1127,2025-01-29 10:34:16,0.0
-11148,-416,-7612,-998,364,-1221,2025-01-29 10:34:16,0.0
-11104,-316,-7696,-815,-14,-1161,2025-01-29 10:34:16,0.0
-10860,-240,-7672,-733,253,-1066,2025-01-29 10:34:16,0.0
-10844,-232,-7896,-792,815,-962,2025-01-29 10:34:16,0.0
-11124,-416,-8108,-855,1169,-802,2025-01-29 10:34:16,0.0
-11388,-460,-8132,-857,1191,-671,2025-01-29 10:34:16,0.0
-11408,-840,-8036,-736,927,-567,2025-01-29 10:34:16,0.0
-11540,-1248,-7756,-496,426,-503,2025-01-29 10:34:16,0.0
-11544,-1300,-7844,-161,-133,-251,2025-01-29 10:34:16,0.0
-11400,-1192,-7864,92,-516,-16,2025-01-29 10:34:16,0.0
-10776,-820,-7852,324,-618,66,2025-01-29 10:34:16,0.0
-10480,-644,-7972,502,-461,67,2025-01-29 10:34:16,0.0
-10196,-620,-8172,648,-236,27,2025-01-29 10:34:16,0.0
-10448,-764,-8320,730,104,9,2025-01-29 10:34:17,0.0
-10776,-668,-8220,812,269,79,2025-01-29 10:34:17,0.0
-10920,-324,-8244,767,204,111,2025-01-29 10:34:17,0.0
-11060,-180,-8188,641,-46,152,2025-01-29 10:34:17,0.0
-10936,132,-8304,477,-221,201,2025-01-29 10:34:17,0.0
-10536,72,-8444,274,-244,192,2025-01-29 10:34:17,0.0
-10384,-104,-8208,145,-46,71,2025-01-29 10:34:17,0.0
-10596,-264,-8124,169,241,33,2025-01-29 10:34:17,0.0
-10576,-216,-8340,175,398,-5,2025-01-29 10:34:17,0.0
-10776,-96,-8252,108,337,-53,2025-01-29 10:34:17,0.0
-10952,-168,-8300,17,146,-34,2025-01-29 10:34:17,0.0
-10876,-32,-8244,-79,40,3,2025-01-29 10:34:17,0.0
-10652,44,-8104,-176,-27,-52,2025-01-29 10:34:17,0.0
-10724,56,-8088,-229,-57,-124,2025-01-29 10:34:17,0.0
-10696,-72,-8144,-242,16,-185,2025-01-29 10:34:17,0.0
-10756,-184,-7872,-224,105,-211,2025-01-29 10:34:17,0.0
-10772,-172,-7928,-185,179,-210,2025-01-29 10:34:17,0.0
-10688,-136,-8256,-215,225,-243,2025-01-29 10:34:17,0.0
-10816,-248,-8184,-248,254,-207,2025-01-29 10:34:17,0.0
-10776,-348,-8100,-258,278,-176,2025-01-29 10:34:17,0.0
-10940,-392,-8164,-237,266,-166,2025-01-29 10:34:17,0.0
-10720,-440,-7880,-233,208,-200,2025-01-29 10:34:17,0.0
-10972,-500,-7712,-198,210,-228,2025-01-29 10:34:17,0.0
-10856,-304,-7796,-122,155,-202,2025-01-29 10:34:17,0.0
-10704,-340,-8036,-103,220,-248,2025-01-29 10:34:17,0.0
-10744,-368,-7900,-111,271,-308,2025-01-29 10:34:17,0.0
-10856,-280,-7992,-91,238,-332,2025-01-29 10:34:17,0.0
-10872,-332,-8080,-66,223,-314,2025-01-29 10:34:17,0.0
-10764,-392,-8224,-44,160,-269,2025-01-29 10:34:17,0.0
-10820,-416,-8156,-70,110,-212,2025-01-29 10:34:17,0.0
-10692,-456,-7916,-75,181,-184,2025-01-29 10:34:17,0.0
-10664,-668,-8188,-57,207,-157,2025-01-29 10:34:17,0.0
-10916,-644,-8000,32,319,-151,2025-01-29 10:34:17,0.0
-10696,-580,-8236,62,275,-130,2025-01-29 10:34:17,0.0
-10656,-452,-8348,67,321,-137,2025-01-29 10:34:17,0.0
-11108,-344,-8020,62,128,-126,2025-01-29 10:34:17,0.0
-10864,-296,-8144,67,-71,-94,2025-01-29 10:34:17,0.0
-10828,-452,-8128,35,-143,-94,2025-01-29 10:34:17,0.0
-10880,-304,-7956,46,-88,-121,2025-01-29 10:34:17,0.0
-10776,-212,-7840,57,113,-99,2025-01-29 10:34:17,0.0
-10896,-236,-8044,23,211,-137,2025-01-29 10:34:17,0.0
-10780,-240,-8076,-27,200,-157,2025-01-29 10:34:17,0.0
-10872,-280,-7940,-65,186,-142,2025-01-29 10:34:17,0.0
-10944,-300,-7776,-65,169,-124,2025-01-29 10:34:17,0.0
-10808,-292,-7952,-95,157,-131,2025-01-29 10:34:17,0.0
-10900,-284,-7872,-94,175,-109,2025-01-29 10:34:17,0.0
-10824,-416,-8280,-84,30,-109,2025-01-29 10:34:17,0.0
-10804,-400,-8308,-99,26,-85,2025-01-29 10:34:17,0.0
-10660,-384,-8084,-80,164,-78,2025-01-29 10:34:17,0.0
-10820,-416,-8044,-56,295,-59,2025-01-29 10:34:17,0.0
-10808,-264,-7972,-27,338,-61,2025-01-29 10:34:17,0.0
-10892,-108,-7940,-104,287,-114,2025-01-29 10:34:17,0.0
-10788,-308,-8068,-73,191,-125,2025-01-29 10:34:17,0.0
-10844,-336,-7944,-55,173,-129,2025-01-29 10:34:17,0.0
-10824,-276,-7924,-26,251,-121,2025-01-29 10:34:17,0.0
-10768,-352,-7844,-27,340,-159,2025-01-29 10:34:17,0.0
-10736,-256,-8132,-67,376,-215,2025-01-29 10:34:17,0.0
-10840,-364,-7932,-118,399,-209,2025-01-29 10:34:17,0.0
-10912,-324,-7916,-111,381,-180,2025-01-29 10:34:17,0.0
-10796,-260,-7964,-138,319,-190,2025-01-29 10:34:17,0.0
-10896,-276,-7984,-179,230,-238,2025-01-29 10:34:17,0.0
-10876,-364,-8160,-178,128,-240,2025-01-29 10:34:18,0.0
-10800,-360,-8040,-156,113,-220,2025-01-29 10:34:18,0.0
-10832,-460,-7772,-106,132,-213,2025-01-29 10:34:18,
-10732,-508,-8024,-94,216,-190,2025-01-29 10:34:18,0.0
-10808,-572,-7992,-29,263,-167,2025-01-29 10:34:18,0.0
-10940,-512,-7928,-18,273,-131,2025-01-29 10:34:18,0.0
-10684,-416,-7948,12,293,-124,2025-01-29 10:34:18,0.0
-10824,-372,-7944,47,256,-113,2025-01-29 10:34:18,0.0
-10780,-372,-8036,55,259,-107,2025-01-29 10:34:18,0.0
-10824,-380,-7972,122,268,-79,2025-01-29 10:34:18,0.0
-10812,-376,-7992,122,304,-35,2025-01-29 10:34:18,0.0
-10732,-436,-8088,137,245,-86,2025-01-29 10:34:18,0.0
-10776,-380,-8064,130,230,-36,2025-01-29 10:34:18,0.0
-10656,-452,-8148,120,277,12,2025-01-29 10:34:18,0.0
-10796,-396,-8152,137,349,84,2025-01-29 10:34:18,0.0
-10836,-468,-8216,211,425,103,2025-01-29 10:34:18,0.0
-10876,-508,-8264,251,446,145,2025-01-29 10:34:18,0.0
-10876,-580,-8256,357,462,190,2025-01-29 10:34:18,0.0
-10928,-628,-7968,527,386,243,2025-01-29 10:34:18,0.0
-10832,-576,-8016,715,370,189,2025-01-29 10:34:18,0.0
-10952,-648,-8132,966,182,252,2025-01-29 10:34:18,0.0
-10964,-780,-8276,1242,226,264,2025-01-29 10:34:18,0.0
-10936,-592,-8684,1491,265,198,2025-01-29 10:34:18,0.0
-11020,-204,-8736,1489,62,94,2025-01-29 10:34:18,0.0
-11340,-368,-8412,1475,-298,43,2025-01-29 10:34:18,0.0
-11676,-80,-7900,1579,-967,172,2025-01-29 10:34:18,0.0
-11340,416,-7476,1560,-1524,292,2025-01-29 10:34:18,0.0
-11056,704,-7424,1522,-1740,201,2025-01-29 10:34:18,0.0
-10892,828,-7548,1422,-1791,66,2025-01-29 10:34:18,0.0
-10648,680,-7352,1367,-1557,-184,2025-01-29 10:34:18,0.0
-10920,612,-6976,1382,-1196,-285,2025-01-29 10:34:18,0.0
-11052,528,-7160,1421,-981,-286,2025-01-29 10:34:18,0.0
-10920,548,-7176,1283,-783,-378,2025-01-29 10:34:18,0.0
-10824,588,-7260,1136,-629,-587,2025-01-29 10:34:18,0.0
-10900,412,-7328,1036,-479,-808,2025-01-29 10:34:18,0.0
-10968,216,-7384,968,-404,-965,2025-01-29 10:34:18,0.0
-11144,-84,-7424,958,-326,-1077,2025-01-29 10:34:18,0.0
-11380,0,-7564,1100,-379,-1205,2025-01-29 10:34:18,0.0
-11360,-68,-7800,989,-544,-1386,2025-01-29 10:34:18,0.0
-11356,-184,-7824,983,-766,-1588,2025-01-29 10:34:18,0.0
-11252,-464,-7980,1102,-1059,-1715,2025-01-29 10:34:18,0.0
-10908,-892,-7516,1235,-1021,-2060,2025-01-29 10:34:18,0.0
-10684,-1324,-7660,1528,-734,-2327,2025-01-29 10:34:18,0.0
-10556,-1536,-7396,1825,-232,-2396,2025-01-29 10:34:18,0.0
-10708,-1832,-7580,2044,131,-2292,2025-01-29 10:34:18,0.0
-10572,-2264,-7024,1947,326,-2065,2025-01-29 10:34:18,0.0
-10668,-2644,-6620,1873,573,-2029,2025-01-29 10:34:18,0.0
-11064,-2524,-6880,1638,852,-1844,2025-01-29 10:34:18,0.0
-11196,-2252,-7240,1222,1120,-1745,2025-01-29 10:34:18,0.0
-11484,-1956,-7268,720,1239,-1758,2025-01-29 10:34:18,0.0
-11608,-1664,-6796,234,1178,-2001,2025-01-29 10:34:18,0.0
-11876,-1412,-6476,-223,1109,-2519,2025-01-29 10:34:18,0.0
-11860,-1580,-6848,-714,814,-3258,2025-01-29 10:34:18,0.0
-12452,-1960,-6864,-1132,2,-3569,2025-01-29 10:34:18,0.0
-12344,-2412,-6424,-1375,-903,-3287,2025-01-29 10:34:18,0.0
-11512,-3032,-6372,-1414,-1286,-2884,2025-01-29 10:34:18,0.0
-10684,-3636,-6244,-1290,-991,-2519,2025-01-29 10:34:18,0.0
-10548,-3760,-5532,-1136,-311,-2202,2025-01-29 10:34:18,0.0
-10400,-3728,-5620,-902,520,-1840,2025-01-29 10:34:18,0.0
-10376,-3448,-5712,-741,1143,-1579,2025-01-29 10:34:18,0.0
-11020,-3108,-6008,-734,1434,-1359,2025-01-29 10:34:18,0.0
-11476,-2864,-6092,-758,1332,-1133,2025-01-29 10:34:18,0.0
-11740,-2748,-6428,-899,963,-791,2025-01-29 10:34:19,0.0
-11632,-2784,-6408,-1061,654,-484,2025-01-29 10:34:19,0.0
-11260,-2788,-6504,-1292,630,-368,2025-01-29 10:34:19,0.0
-10848,-2480,-6700,-1479,773,-375,2025-01-29 10:34:19,0.0
-11112,-2040,-6572,-1871,1098,-503,2025-01-29 10:34:19,0.0
-11312,-1696,-6372,-2274,1450,-656,2025-01-29 10:34:19,0.0
-11496,-1612,-6320,-2747,1484,-844,2025-01-29 10:34:19,0.0
-12156,-1580,-6320,-3192,1189,-1023,2025-01-29 10:34:19,0.0
-12420,-1332,-6472,-3524,610,-993,2025-01-29 10:34:19,0.0
-12112,-1896,-6600,-3936,-5,-973,2025-01-29 10:34:19,0.0
-11112,-3784,-6024,-3758,477,-1468,2025-01-29 10:34:19,0.0
-11572,-3448,-6280,-3598,809,-1744,2025-01-29 10:34:19,0.0
-12136,-2716,-6804,-3746,927,-2059,2025-01-29 10:34:19,0.0
-12496,-1980,-7004,-4142,594,-2315,2025-01-29 10:34:19,0.0
-12532,-1444,-7088,-4713,-4,-2650,2025-01-29 10:34:19,0.0
-12224,-1612,-7232,-5565,-491,-3035,2025-01-29 10:34:19,0.0
-11880,-2420,-7316,-6129,-402,-3133,2025-01-29 10:34:19,0.0
-11768,-3008,-6688,-6414,-10,-3143,2025-01-29 10:34:19,0.0
-11684,-3968,-6188,-6566,474,-3246,2025-01-29 10:34:19,0.0
-12800,-4520,-5748,-6587,741,-2975,2025-01-29 10:34:19,0.0
-12812,-4588,-6708,-6407,771,-2504,2025-01-29 10:34:19,0.0
-12856,-4272,-8492,-5854,910,-2589,2025-01-29 10:34:19,0.0
-13744,-5332,-8092,-5087,1374,-2629,2025-01-29 10:34:19,0.0
-14040,-6456,-6768,-3516,848,-2432,2025-01-29 10:34:19,0.0
-14692,-7296,-6476,-1838,-311,-1834,2025-01-29 10:34:19,0.0
-15456,-6656,-7268,-881,-1540,-311,2025-01-29 10:34:19,0.0
-13280,-3652,-9200,-760,-2346,1925,2025-01-29 10:34:19,0.0
-11144,-1344,-10920,-1521,-2306,2109,2025-01-29 10:34:19,0.0
-10880,192,-11300,-2778,-2261,2352,2025-01-29 10:34:19,0.0
-10092,648,-10836,-3798,-2281,2676,2025-01-29 10:34:19,0.0
-8748,448,-9888,-4005,-2745,2261,2025-01-29 10:34:19,0.0
-7824,344,-8768,-3540,-3264,1369,2025-01-29 10:34:19,0.0
-7652,416,-7840,-2831,-3040,427,2025-01-29 10:34:19,0.0
-7664,492,-8012,-2415,-2204,-191,2025-01-29 10:34:19,0.0
-8468,164,-7992,-2407,-839,-410,2025-01-29 10:34:19,0.0
-9428,-184,-8440,-2467,945,-109,2025-01-29 10:34:19,0.0
-10332,-528,-8484,-2622,2268,279,2025-01-29 10:34:19,0.0
-11820,-988,-8840,-2380,2450,856,2025-01-29 10:34:19,0.0
-12460,-1104,-8108,-2095,1026,1545,2025-01-29 10:34:19,0.0
-12732,-1148,-7296,-1441,-978,2290,2025-01-29 10:34:19,0.0
-12068,-820,-6540,-734,-2778,2665,2025-01-29 10:34:19,
-10864,-556,-7164,-37,-3715,2783,2025-01-29 10:34:19,0.0
-9940,-360,-7188,423,-3889,3032,2025-01-29 10:34:19,0.0
-8832,-232,-6952,946,-3155,3184,2025-01-29 10:34:19,0.0
-8736,352,-6672,1401,-1943,3225,2025-01-29 10:34:19,0.0
-8964,908,-6756,1736,-387,3268,2025-01-29 10:34:19,0.0
-9388,1188,-7188,1867,845,3191,2025-01-29 10:34:19,0.0
-10276,1412,-7300,1925,1479,3041,2025-01-29 10:34:19,0.0
-11140,1396,-6832,1889,1290,2793,2025-01-29 10:34:19,0.0
-11152,968,-7196,1825,408,2691,2025-01-29 10:34:19,0.0
-11284,896,-7152,1855,-230,2584,2025-01-29 10:34:19,0.0
-10888,636,-7320,1898,-351,2552,2025-01-29 10:34:19,0.0
-10436,632,-7348,2006,-334,2532,2025-01-29 10:34:19,0.0
-10532,952,-7128,2131,-89,2539,2025-01-29 10:34:19,0.0
-10492,1088,-7172,2181,328,2524,2025-01-29 10:34:19,0.0
-10508,1132,-6816,2185,395,2366,2025-01-29 10:34:19,0.0
-10684,1424,-6644,2216,273,2069,2025-01-29 10:34:19,0.0
-10684,1900,-6496,2211,218,1648,2025-01-29 10:34:19,0.0
-10680,2276,-6716,2225,75,1147,2025-01-29 10:34:20,0.0
-10320,2376,-6620,2055,-81,502,2025-01-29 10:34:20,0.0
-10668,1688,-5884,2061,-5,-43,2025-01-29 10:34:20,0.0
-10596,912,-5768,2155,-12,-137,2025-01-29 10:34:20,0.0
-9836,460,-5444,2336,-189,-331,2025-01-29 10:34:20,0.0
-9776,760,-5656,2716,119,-745,2025-01-29 10:34:20,0.0
-10340,1420,-5864,2764,875,-833,2025-01-29 10:34:20,0.0
-10976,1668,-6688,2670,1709,-812,2025-01-29 10:34:20,0.0
-11912,1212,-6884,2387,2210,-693,2025-01-29 10:34:20,0.0
-12452,384,-6524,2282,2060,-256,2025-01-29 10:34:20,0.0
-13084,-444,-6036,2502,1580,308,2025-01-29 10:34:20,0.0
-13060,-860,-5836,2788,1368,792,2025-01-29 10:34:20,0.0
-12940,-960,-6092,3297,1512,984,2025-01-29 10:34:20,0.0
-13256,-760,-6076,3806,1684,1016,2025-01-29 10:34:20,0.0
-13720,-548,-5716,4340,1735,1422,2025-01-29 10:34:20,0.0
-13428,-516,-5708,4504,1325,1718,2025-01-29 10:34:20,0.0
-13732,-344,-6080,4650,1504,2095,2025-01-29 10:34:20,0.0
-13600,-456,-7592,4316,2538,2765,2025-01-29 10:34:20,0.0
-13184,-96,-8872,3883,3459,3014,2025-01-29 10:34:20,0.0
-13532,1568,-10756,3087,4178,2889,2025-01-29 10:34:20,0.0
-14048,3016,-12688,1919,4898,2880,2025-01-29 10:34:20,0.0
-14180,3828,-13020,399,4459,2540,2025-01-29 10:34:20,0.0
-14016,3672,-11632,-972,2101,1261,2025-01-29 10:34:20,0.0
-13460,2896,-10800,-1441,-1340,-213,2025-01-29 10:34:20,0.0
-13128,1656,-11028,-1918,-3629,-876,2025-01-29 10:34:20,0.0
-11296,652,-9256,-2011,-5202,-1026,2025-01-29 10:34:20,0.0
-8288,-116,-6972,-966,-6801,-1326,2025-01-29 10:34:20,0.0
-6580,-612,-6860,71,-6917,-1414,2025-01-29 10:34:20,0.0
-5476,-1456,-7212,771,-5757,-1303,2025-01-29 10:34:20,0.0
-5480,-1888,-7780,1252,-2490,-995,2025-01-29 10:34:20,0.0
-5760,-1976,-9104,1903,2701,-754,2025-01-29 10:34:20,0.0
-6996,-1404,-9772,2321,5845,-1226,2025-01-29 10:34:20,0.0
-9380,-760,-9716,2374,6413,-1310,2025-01-29 10:34:20,0.0
-10544,-204,-9808,2254,5479,-1031,2025-01-29 10:34:20,0.0
-10980,228,-9796,1716,4069,-1023,2025-01-29 10:34:20,0.0
-10832,240,-9948,953,1478,-1656,2025-01-29 10:34:20,0.0
-11188,-196,-9928,337,-555,-2288,2025-01-29 10:34:20,0.0
-10944,-916,-9924,142,-1659,-2624,2025-01-29 10:34:20,0.0
-10328,-1204,-9576,75,-2439,-2898,2025-01-29 10:34:20,0.0
-9856,-1292,-8892,-85,-2802,-3132,2025-01-29 10:34:20,0.0
-9116,-1004,-8740,-345,-2636,-3419,2025-01-29 10:34:20,0.0
-9024,-800,-8644,-912,-1549,-3645,2025-01-29 10:34:20,0.0
-8952,-1076,-7964,-1477,-280,-3694,2025-01-29 10:34:20,0.0
-8924,-1460,-7756,-1748,473,-3909,2025-01-29 10:34:20,0.0
-9168,-1852,-7364,-1921,840,-4222,2025-01-29 10:34:20,0.0
-9624,-1884,-7468,-2097,956,-4359,2025-01-29 10:34:20,0.0
-9940,-2020,-7604,-2311,1098,-4337,2025-01-29 10:34:20,0.0
-10288,-2132,-7752,-2509,987,-4221,2025-01-29 10:34:20,0.0
-10344,-2288,-7640,-2723,676,-4054,2025-01-29 10:34:20,0.0
-10440,-2512,-7664,-2844,530,-3758,2025-01-29 10:34:20,0.0
-10628,-2268,-7480,-2865,593,-3256,2025-01-29 10:34:20,0.0
-10352,-2024,-7460,-2912,989,-2830,2025-01-29 10:34:20,0.0
-10300,-1888,-7648,-3010,1389,-2567,2025-01-29 10:34:20,0.0
-10324,-1844,-7424,-3179,1391,-2378,2025-01-29 10:34:20,0.0
-10660,-1836,-7224,-3437,1386,-2112,2025-01-29 10:34:20,0.0
-11120,-1836,-7188,-3554,1234,-1791,2025-01-29 10:34:20,0.0
-11764,-1852,-6916,-3714,698,-1289,2025-01-29 10:34:20,0.0
-11424,-2232,-6500,-3561,44,-1019,2025-01-29 10:34:20,0.0
-11216,-2216,-6684,-3395,-376,-1194,2025-01-29 10:34:20,0.0
-11248,-1852,-7024,-3441,-666,-1179,2025-01-29 10:34:20,0.0
-11152,-1856,-6984,-3478,-692,-1326,2025-01-29 10:34:21,0.0
-11100,-1492,-7092,-3531,-588,-1495,2025-01-29 10:34:21,0.0
-11424,-956,-7264,-3704,-385,-1618,2025-01-29 10:34:21,0.0
-11232,-776,-7276,-4083,-89,-1753,2025-01-29 10:34:21,0.0
-10672,-1088,-7456,-4382,112,-2205,2025-01-29 10:34:21,0.0
-10624,-1580,-7428,-4624,315,-2688,2025-01-29 10:34:21,0.0
-10656,-2056,-7096,-4722,823,-3366,2025-01-29 10:34:21,0.0
-11556,-2108,-6568,-4641,1490,-3793,2025-01-29 10:34:21,0.0
-12712,-2428,-5996,-4627,1822,-3720,2025-01-29 10:34:21,0.0
-13712,-2608,-5748,-4589,1903,-3170,2025-01-29 10:34:21,0.0
-13952,-3608,-6428,-4214,2031,-2573,2025-01-29 10:34:21,0.0
-13704,-4496,-8424,-3218,2422,-2399,2025-01-29 10:34:21,0.0
-13892,-5704,-8996,-1832,2909,-2639,2025-01-29 10:34:21,0.0
-14636,-6652,-8544,593,2707,-2946,2025-01-29 10:34:21,0.0
-15848,-6440,-9108,2883,432,-2408,2025-01-29 10:34:21,0.0
-16916,-4772,-11020,3484,-4089,111,2025-01-29 10:34:21,0.0
-14488,-3980,-10900,3306,-5837,2618,2025-01-29 10:34:21,0.0
-11604,-3060,-10988,2472,-5669,3705,2025-01-29 10:34:21,0.0
-9248,-2276,-10260,1354,-5522,4246,2025-01-29 10:34:21,0.0
-7472,-1808,-9760,709,-5416,4447,2025-01-29 10:34:21,0.0
-5984,-1104,-9264,619,-4426,4301,2025-01-29 10:34:21,0.0
-4984,-660,-9692,595,-2111,3558,2025-01-29 10:34:21,0.0
-5256,612,-10128,529,1788,2034,2025-01-29 10:34:21,
-7412,2224,-10764,31,3861,855,2025-01-29 10:34:21,0.0
-10080,2972,-11308,-1378,3937,448,2025-01-29 10:34:21,0.0
-12036,2308,-11244,-2932,2520,710,2025-01-29 10:34:21,0.0
-12476,856,-10788,-3625,707,1180,2025-01-29 10:34:21,0.0
-11928,-244,-10040,-3755,-1119,1361,2025-01-29 10:34:21,0.0
-11084,-1264,-8920,-3524,-2618,1218,2025-01-29 10:34:21,0.0
-10276,-1952,-7944,-2880,-3412,1102,2025-01-29 10:34:21,0.0
-9600,-2016,-7480,-2148,-3544,1264,2025-01-29 10:34:21,0.0
-8952,-1900,-7248,-1490,-2661,1657,2025-01-29 10:34:21,0.0
-8944,-1076,-6220,-951,-1348,2136,2025-01-29 10:34:21,0.0
-9232,208,-6344,-476,-337,2675,2025-01-29 10:34:21,0.0
-9272,1168,-7120,-313,590,3078,2025-01-29 10:34:21,0.0
-9568,1460,-7552,-282,1323,2930,2025-01-29 10:34:21,0.0
-9996,984,-7760,-310,1460,2509,2025-01-29 10:34:21,0.0
-10772,248,-7388,-245,990,2108,2025-01-29 10:34:21,0.0
-11224,-56,-7132,-71,-7,1977,2025-01-29 10:34:21,0.0
-11388,32,-6800,10,-987,1991,2025-01-29 10:34:21,0.0
-10880,320,-6780,146,-1766,2011,2025-01-29 10:34:21,0.0
-10612,640,-6728,220,-1714,1956,2025-01-29 10:34:21,0.0
-10204,928,-6628,207,-1242,1831,2025-01-29 10:34:21,0.0
-10204,1016,-6576,306,-611,1683,2025-01-29 10:34:21,0.0
-10408,804,-6376,544,-212,1583,2025-01-29 10:34:21,0.0
-10408,368,-6236,1015,62,1424,2025-01-29 10:34:21,0.0
-10716,300,-6068,1565,72,1254,2025-01-29 10:34:21,0.0
-11192,624,-6128,2060,-174,1269,2025-01-29 10:34:21,0.0
-10812,760,-5952,2604,-540,1156,2025-01-29 10:34:21,0.0
-11172,408,-5432,3026,-850,1031,2025-01-29 10:34:21,0.0
-10980,520,-5480,3335,-755,1134,2025-01-29 10:34:21,0.0
-10568,960,-5544,3452,-642,1217,2025-01-29 10:34:21,0.0
-10076,1288,-5928,3488,-153,1140,2025-01-29 10:34:21,0.0
-9812,1352,-6236,3454,439,926,2025-01-29 10:34:21,0.0
-9984,1472,-6412,3471,944,681,2025-01-29 10:34:21,0.0
-10216,1384,-6688,3358,1682,467,2025-01-29 10:34:21,0.0
-11432,1116,-6620,3227,2358,58,2025-01-29 10:34:21,0.0
-12460,624,-6348,3233,2372,169,2025-01-29 10:34:21,0.0
-13048,528,-6584,3170,1788,366,2025-01-29 10:34:21,0.0
-13452,728,-6544,3111,1135,448,2025-01-29 10:34:21,0.0
-13860,1200,-6756,3123,672,538,2025-01-29 10:34:21,0.0
-13756,956,-6536,3082,198,556,2025-01-29 10:34:22,0.0
-13980,48,-5872,3174,-216,792,2025-01-29 10:34:22,0.0
-13692,-536,-5048,3329,-383,1114,2025-01-29 10:34:22,0.0
-13656,-460,-5312,3627,-105,1307,2025-01-29 10:34:22,0.0
-13792,-1428,-7732,3555,1953,2145,2025-01-29 10:34:22,0.0
-13532,-848,-9444,3503,3685,2650,2025-01-29 10:34:22,0.0
-14452,1076,-11804,2647,4719,2667,2025-01-29 10:34:22,0.0
-15064,2820,-13632,1199,4007,2826,2025-01-29 10:34:22,0.0
-14668,4336,-14016,-475,1413,2610,2025-01-29 10:34:22,0.0
-13484,3956,-12596,-1773,-1952,1657,2025-01-29 10:34:22,0.0
-12388,1752,-10560,-2270,-4859,802,2025-01-29 10:34:22,0.0
-10080,-92,-8240,-1876,-7060,593,2025-01-29 10:34:22,0.0
-6452,-1160,-6464,-377,-8329,57,2025-01-29 10:34:22,0.0
-4776,-1944,-6048,1043,-8027,-663,2025-01-29 10:34:22,0.0
-4308,-2788,-6940,2051,-4837,-1148,2025-01-29 10:34:22,0.0
-5288,-2640,-7856,2616,722,-1176,2025-01-29 10:34:22,0.0
-6524,-1660,-8668,2999,6518,-1046,2025-01-29 10:34:22,0.0
-8644,-776,-9392,2786,8679,-813,2025-01-29 10:34:22,0.0
-10556,-392,-9536,2324,8767,-607,2025-01-29 10:34:22,0.0
-11568,-136,-9572,1830,7033,-675,2025-01-29 10:34:22,0.0
-12480,224,-10040,1305,3552,-1202,2025-01-29 10:34:22,0.0
-12504,56,-10672,850,359,-2015,2025-01-29 10:34:22,0.0
-12436,-364,-10208,576,-2855,-2516,2025-01-29 10:34:22,0.0
-11364,-604,-9612,464,-4710,-2462,2025-01-29 10:34:22,0.0
-10036,-488,-8428,260,-5404,-2361,2025-01-29 10:34:22,0.0
-8424,-880,-7856,70,-4793,-2547,2025-01-29 10:34:22,0.0
-7800,-1092,-7176,-104,-3220,-2882,2025-01-29 10:34:22,0.0
-7996,-1548,-6516,-226,-1163,-3077,2025-01-29 10:34:22,0.0
-8576,-1932,-6304,-261,782,-2932,2025-01-29 10:34:22,0.0
-8988,-1648,-6776,-261,2146,-2762,2025-01-29 10:34:22,0.0
-9916,-1536,-6556,-358,2603,-2755,2025-01-29 10:34:22,0.0
-11700,-1864,-7140,-802,606,-1991,2025-01-29 10:34:22,0.0
-11332,-1668,-7024,-925,-17,-1634,2025-01-29 10:34:22,0.0
-10668,-1480,-7360,-1087,-35,-1512,2025-01-29 10:34:22,0.0
-10412,-1292,-7304,-1399,327,-1500,2025-01-29 10:34:22,0.0
-10012,-1268,-6940,-1528,744,-1455,2025-01-29 10:34:22,0.0
-9860,-1272,-7184,-1600,1337,-1411,2025-01-29 10:34:22,0.0
-10344,-1228,-6896,-1761,1900,-1443,2025-01-29 10:34:22,0.0
-10720,-1428,-6884,-1892,2195,-1427,2025-01-29 10:34:22,0.0
-10820,-1556,-7216,-2020,2197,-1441,2025-01-29 10:34:22,0.0
-11348,-2152,-7184,-2127,1809,-1368,2025-01-29 10:34:22,0.0
-11788,-2436,-6556,-2146,1419,-1253,2025-01-29 10:34:22,0.0
-11196,-1956,-6892,-2093,1015,-1177,2025-01-29 10:34:22,0.0
-10612,-1152,-7084,-2279,835,-1412,2025-01-29 10:34:22,0.0
-10732,-568,-7076,-2554,963,-1745,2025-01-29 10:34:22,0.0
-10624,-20,-7524,-2962,1151,-2086,2025-01-29 10:34:22,0.0
-11048,-28,-7668,-3622,1350,-2575,2025-01-29 10:34:22,0.0
-11980,-600,-7476,-4195,1200,-3078,2025-01-29 10:34:22,0.0
-11896,-884,-7312,-4563,515,-3708,2025-01-29 10:34:22,0.0
-12296,-1560,-6780,-4963,-627,-4055,2025-01-29 10:34:22,0.0
-11860,-2028,-6540,-5102,-1318,-4354,2025-01-29 10:34:22,0.0
-11408,-2188,-5952,-5388,-1173,-4843,2025-01-29 10:34:22,0.0
-11520,-2524,-5764,-5676,-711,-5126,2025-01-29 10:34:22,0.0
-12184,-2692,-8008,-4736,1193,-5064,2025-01-29 10:34:22,0.0
-13036,-4644,-9664,-3853,4423,-5352,2025-01-29 10:34:22,0.0
-14260,-7916,-9364,-1434,5163,-6459,2025-01-29 10:34:22,0.0
-17656,-8828,-9856,857,1559,-5155,2025-01-29 10:34:22,0.0
-20192,-6804,-10988,1478,-2846,-1015,2025-01-29 10:34:22,0.0
-16812,-3736,-11688,1377,-4848,2929,2025-01-29 10:34:22,0.0
-12628,-2096,-12004,1099,-5819,3235,2025-01-29 10:34:22,0.0
-11460,-1368,-11064,199,-6766,3142,2025-01-29 10:34:22,0.0
-9980,-1348,-9512,-546,-7498,3593,2025-01-29 10:34:23,
-8288,-1372,-7736,-760,-8173,4193,2025-01-29 10:34:23,0.0
-6408,-1180,-7616,-814,-7927,4257,2025-01-29 10:34:23,0.0
-4692,-520,-8048,-859,-6013,3515,2025-01-29 10:34:23,0.0
-4252,1204,-8448,-521,-2435,2459,2025-01-29 10:34:23,0.0
-5160,3192,-8948,-532,1727,1586,2025-01-29 10:34:23,0.0
-6156,3836,-9372,-1483,4873,250,2025-01-29 10:34:23,0.0
-8764,3212,-9424,-2563,6385,-952,2025-01-29 10:34:23,0.0
-12120,1036,-10104,-3227,6973,-873,2025-01-29 10:34:23,0.0
-13216,-880,-9976,-3143,5885,-427,2025-01-29 10:34:23,0.0
-14176,-2124,-9480,-2648,2897,274,2025-01-29 10:34:23,0.0
-14344,-2480,-8944,-1931,-1075,1617,2025-01-29 10:34:23,0.0
-11716,-2112,-8320,-1124,-3974,2621,2025-01-29 10:34:23,0.0
-10196,-1292,-7900,-447,-5183,3064,2025-01-29 10:34:23,0.0
-8376,-576,-7192,168,-5171,3519,2025-01-29 10:34:23,0.0
-6512,88,-7504,514,-3967,3663,2025-01-29 10:34:23,0.0
-7240,844,-6052,909,-1370,3363,2025-01-29 10:34:23,0.0
-7084,1112,-6588,1291,1954,2727,2025-01-29 10:34:23,0.0
-7912,1284,-6856,1485,3956,2069,2025-01-29 10:34:23,0.0
-9880,1360,-7448,1518,4520,1482,2025-01-29 10:34:23,0.0
-10940,1484,-8072,1464,3866,1248,2025-01-29 10:34:23,0.0
-11632,1504,-8464,1272,2249,1068,2025-01-29 10:34:23,0.0
-11496,1556,-8296,914,315,781,2025-01-29 10:34:23,0.0
-11244,1324,-8068,563,-1143,353,2025-01-29 10:34:23,0.0
-10964,1012,-7356,330,-1852,124,2025-01-29 10:34:23,0.0
-10424,680,-6964,142,-1819,-46,2025-01-29 10:34:23,0.0
-10208,172,-6392,25,-1357,-294,2025-01-29 10:34:23,0.0
-10196,88,-6300,108,-862,-434,2025-01-29 10:34:23,0.0
-10232,152,-6304,214,-790,-452,2025-01-29 10:34:23,0.0
-10360,196,-5800,372,-620,-548,2025-01-29 10:34:23,0.0
-10940,256,-5608,564,-260,-526,2025-01-29 10:34:23,0.0
-10600,-28,-4736,921,355,-658,2025-01-29 10:34:23,0.0
-10508,68,-4972,1085,1140,-935,2025-01-29 10:34:23,0.0
-10720,336,-5564,1295,1352,-1113,2025-01-29 10:34:23,0.0
-11312,632,-6424,1498,1086,-1116,2025-01-29 10:34:23,0.0
-11624,708,-6820,1681,1007,-1063,2025-01-29 10:34:23,0.0
-11848,344,-7000,1917,1275,-1073,2025-01-29 10:34:23,0.0
-13028,-20,-6404,2300,1605,-722,2025-01-29 10:34:23,0.0
-14184,-640,-5772,2739,1616,68,2025-01-29 10:34:23,0.0
-14472,-516,-6120,3206,653,763,2025-01-29 10:34:23,0.0
-13892,700,-7336,3272,-806,1207,2025-01-29 10:34:23,0.0
-13240,1604,-6972,2904,-1546,1550,2025-01-29 10:34:23,0.0
-12872,1040,-5732,2978,-1419,1999,2025-01-29 10:34:23,0.0
-12356,124,-5820,3333,-706,2333,2025-01-29 10:34:23,0.0
-11872,-1000,-7360,3648,921,2254,2025-01-29 10:34:23,0.0
-12120,-1308,-9452,3660,2934,1962,2025-01-29 10:34:23,0.0
-13416,352,-10988,3549,4531,2126,2025-01-29 10:34:23,0.0
-14780,2196,-12572,2674,4969,2614,2025-01-29 10:34:23,0.0
-15244,3260,-12868,895,3714,2895,2025-01-29 10:34:23,0.0
-14616,3068,-11824,-282,1047,2141,2025-01-29 10:34:23,0.0
-13564,2272,-10332,-585,-2414,766,2025-01-29 10:34:23,0.0
-12200,820,-9080,-244,-4749,-361,2025-01-29 10:34:23,0.0
-10044,16,-7852,694,-6235,-989,2025-01-29 10:34:23,0.0
-7684,-1308,-7500,1596,-6932,-1552,2025-01-29 10:34:23,0.0
-5844,-2884,-7536,2452,-6276,-1975,2025-01-29 10:34:23,0.0
-5308,-4184,-7804,3000,-4012,-1836,2025-01-29 10:34:23,0.0
-5884,-4060,-8632,3011,74,-860,2025-01-29 10:34:23,0.0
-6076,-3292,-9224,2606,4214,-94,2025-01-29 10:34:23,0.0
-7296,-2544,-9184,2581,6642,-361,2025-01-29 10:34:23,0.0
-10116,-848,-9280,2536,7772,-934,2025-01-29 10:34:23,0.0
-11356,452,-9820,2020,7477,-1686,2025-01-29 10:34:23,0.0
-11672,1396,-10980,875,4272,-3160,2025-01-29 10:34:24,0.0
-12004,1576,-11560,-269,-26,-4355,2025-01-29 10:34:24,0.0
-11776,1272,-11564,-1659,-3006,-4642,2025-01-29 10:34:24,0.0
-10132,584,-11092,-2845,-3874,-4769,2025-01-29 10:34:24,0.0
-7448,-536,-9820,-3914,-4080,-5531,2025-01-29 10:34:24,0.0
-7136,-1528,-8720,-4675,-2996,-6312,2025-01-29 10:34:24,0.0
-7596,-2388,-7324,-4990,-430,-6391,2025-01-29 10:34:24,0.0
-8176,-2556,-7252,-5227,1959,-6224,2025-01-29 10:34:24,0.0
-9332,-1936,-7308,-5533,2932,-6394,2025-01-29 10:34:24,0.0
-10508,-1572,-7856,-5711,2602,-6452,2025-01-29 10:34:24,0.0
-11820,-1620,-8408,-6021,1571,-6282,2025-01-29 10:34:24,0.0
-12208,-1912,-8480,-6487,-48,-5910,2025-01-29 10:34:24,0.0
-12332,-1944,-8212,-6953,-1745,-5534,2025-01-29 10:34:24,0.0
-11488,-1852,-8556,-7427,-3065,-5178,2025-01-29 10:34:24,0.0
-10080,-1556,-8072,-7840,-3631,-4914,2025-01-29 10:34:24,0.0
-9024,-1324,-8364,-8077,-3268,-4889,2025-01-29 10:34:24,0.0
-8468,-1460,-8976,-8418,-2174,-5037,2025-01-29 10:34:24,0.0
-8788,-1556,-9092,-8754,-554,-5373,2025-01-29 10:34:24,0.0
-9512,-1080,-9360,-9204,451,-5694,2025-01-29 10:34:24,0.0
-10568,-696,-9388,-9783,548,-5997,2025-01-29 10:34:24,0.0
-11124,-304,-9476,-10354,-595,-6256,2025-01-29 10:34:24,0.0
-10452,-232,-10276,-10965,-2010,-6790,2025-01-29 10:34:24,0.0
-10268,-212,-10084,-11792,-2832,-7238,2025-01-29 10:34:24,0.0
-9656,-860,-9740,-12595,-2501,-7432,2025-01-29 10:34:24,0.0
-9340,-1452,-9416,-13223,-1604,-7619,2025-01-29 10:34:24,0.0
-9484,-1840,-9108,-13700,-1206,-7982,2025-01-29 10:34:24,0.0
-9612,-1928,-8444,-13939,-1207,-8232,2025-01-29 10:34:24,0.0
-9808,-1640,-8560,-14228,-1361,-8357,2025-01-29 10:34:24,0.0
-9900,-1616,-8560,-14586,-1462,-8051,2025-01-29 10:34:24,0.0
-9648,-1720,-9216,-15056,-1173,-7770,2025-01-29 10:34:24,0.0
-9664,-1904,-9532,-15518,-349,-7992,2025-01-29 10:34:24,0.0
-10796,-1420,-9148,-16050,182,-8449,2025-01-29 10:34:24,0.0
-11400,-1204,-9036,-16464,-747,-8431,2025-01-29 10:34:24,0.0
-10884,-876,-8936,-16801,-1611,-8362,2025-01-29 10:34:24,0.0
-9584,-1460,-8952,-17049,-1873,-8512,2025-01-29 10:34:24,0.0
-8500,-2408,-9068,-17100,-1661,-8705,2025-01-29 10:34:24,0.0
-8296,-2932,-8828,-16766,-702,-8811,2025-01-29 10:34:24,0.0
-8984,-3880,-9212,-16698,1415,-8824,2025-01-29 10:34:24,0.0
-9968,-4492,-9708,-16415,3587,-8924,2025-01-29 10:34:24,0.0
-11768,-3780,-9292,-15918,3983,-9274,2025-01-29 10:34:24,
-12708,-2892,-8780,-15820,2284,-9387,2025-01-29 10:34:24,0.0
-12492,-2508,-8604,-16121,191,-8940,2025-01-29 10:34:24,0.0
-11224,-2352,-9056,-16347,-1154,-8498,2025-01-29 10:34:24,0.0
-10040,-2060,-10340,-16985,-1842,-8182,2025-01-29 10:34:24,0.0
-9280,-1604,-10180,-17333,-1473,-8134,2025-01-29 10:34:24,0.0
-8176,-2812,-10772,-16962,-235,-8748,2025-01-29 10:34:24,0.0
-6688,-3276,-10940,-15678,1301,-10328,2025-01-29 10:34:24,0.0
-7332,-3556,-10984,-14538,2071,-11534,2025-01-29 10:34:24,0.0
-8700,-1764,-10448,-13646,2138,-11190,2025-01-29 10:34:24,0.0
-8292,-196,-10092,-13884,3300,-10635,2025-01-29 10:34:24,0.0
-8116,944,-10264,-14645,4143,-10347,2025-01-29 10:34:24,0.0
-7756,1028,-10964,-15400,4731,-10288,2025-01-29 10:34:24,0.0
-8040,88,-11240,-16031,5208,-10657,2025-01-29 10:34:24,0.0
-9116,-732,-11172,-16139,5462,-10789,2025-01-29 10:34:24,0.0
-10120,-1164,-11276,-15807,5552,-10588,2025-01-29 10:34:24,0.0
-11036,-1056,-10548,-15065,5302,-10482,2025-01-29 10:34:24,0.0
-11712,-512,-9868,-14528,4306,-10381,2025-01-29 10:34:24,0.0
-11608,8,-9884,-13919,2444,-10243,2025-01-29 10:34:24,0.0
-11248,236,-9732,-13837,388,-9898,2025-01-29 10:34:24,0.0
-10424,300,-9548,-13962,-342,-9628,2025-01-29 10:34:24,0.0
-9400,860,-10104,-14220,-851,-9243,2025-01-29 10:34:25,0.0
-8812,1340,-10564,-14893,-1045,-9535,2025-01-29 10:34:25,0.0
-9244,1816,-9768,-15356,-519,-9617,2025-01-29 10:34:25,0.0
-9852,2760,-9100,-15408,-102,-9354,2025-01-29 10:34:25,0.0
-9464,3116,-9140,-15272,-79,-9222,2025-01-29 10:34:25,0.0
-9496,2636,-8404,-14874,-559,-9600,2025-01-29 10:34:25,0.0
-9156,1312,-8704,-14459,-941,-10049,2025-01-29 10:34:25,0.0
-8608,164,-9012,-13955,-701,-10281,2025-01-29 10:34:25,0.0
-8396,-520,-8656,-13506,-99,-10426,2025-01-29 10:34:25,0.0
-8736,-712,-8440,-12975,507,-10209,2025-01-29 10:34:25,0.0
-8612,-280,-8804,-12251,1246,-9759,2025-01-29 10:34:25,0.0
-8684,272,-9340,-11839,1575,-9668,2025-01-29 10:34:25,0.0
-9236,1076,-9332,-11484,1605,-9617,2025-01-29 10:34:25,0.0
-9484,1892,-9684,-11298,1471,-9486,2025-01-29 10:34:25,0.0
-9948,2376,-10412,-11229,1211,-9326,2025-01-29 10:34:25,0.0
-9896,2160,-10696,-11191,663,-9294,2025-01-29 10:34:25,0.0
-9836,1300,-9832,-11112,-86,-9133,2025-01-29 10:34:25,0.0
-9712,680,-9656,-11061,-584,-9065,2025-01-29 10:34:25,0.0
-9504,400,-9232,-11025,-829,-9096,2025-01-29 10:34:25,0.0
-9424,576,-9256,-10795,-1023,-9001,2025-01-29 10:34:25,0.0
-9212,748,-9032,-10468,-1084,-9028,2025-01-29 10:34:25,0.0
-9064,1080,-8744,-10069,-1034,-9128,2025-01-29 10:34:25,0.0
-8852,1184,-8684,-9558,-1045,-9195,2025-01-29 10:34:25,0.0
-8616,920,-8644,-8933,-573,-9263,2025-01-29 10:34:25,0.0
-8868,708,-8604,-8223,563,-9186,2025-01-29 10:34:25,0.0
-9460,120,-8436,-7523,1256,-8953,2025-01-29 10:34:25,0.0
-9328,-408,-7940,-6634,1434,-8926,2025-01-29 10:34:25,0.0
-9164,-1564,-7824,-5910,1159,-8996,2025-01-29 10:34:25,0.0
-9320,-2332,-7472,-4863,601,-8786,2025-01-29 10:34:25,0.0
-9424,-1988,-7548,-3727,449,-8387,2025-01-29 10:34:25,0.0
-9100,-1444,-8704,-2936,787,-8402,2025-01-29 10:34:25,0.0
-9572,-992,-9852,-2512,1080,-8450,2025-01-29 10:34:25,0.0
-10240,-824,-11088,-2405,369,-7913,2025-01-29 10:34:25,0.0
-10056,-1212,-11248,-2469,-443,-7174,2025-01-29 10:34:25,0.0
-9744,-1572,-11108,-2617,-862,-6121,2025-01-29 10:34:25,0.0
-9064,-1676,-11272,-3137,-209,-4939,2025-01-29 10:34:25,0.0
-8908,-2396,-10924,-3735,1471,-4075,2025-01-29 10:34:25,0.0
-9704,-3092,-10404,-4062,3466,-3041,2025-01-29 10:34:25,0.0
-10032,-3216,-9672,-4276,4706,-2314,2025-01-29 10:34:25,0.0
-10492,-3212,-8544,-4145,4659,-1914,2025-01-29 10:34:25,0.0
-10576,-3008,-7512,-3581,3476,-2117,2025-01-29 10:34:25,0.0
-10784,-2744,-7844,-2810,2370,-2557,2025-01-29 10:34:25,0.0
-10420,-2736,-9128,-1838,1138,-3432,2025-01-29 10:34:25,0.0
-10148,-2848,-8704,-1954,297,-3561,2025-01-29 10:34:25,0.0
-10208,-2760,-8184,-2342,124,-3522,2025-01-29 10:34:25,0.0
-9944,-2832,-8980,-2683,266,-3122,2025-01-29 10:34:25,0.0
-9744,-3288,-9648,-2924,856,-2459,2025-01-29 10:34:25,0.0
-9172,-4088,-10100,-3237,1592,-2335,2025-01-29 10:34:25,0.0
-9128,-4588,-9532,-3408,1430,-2557,2025-01-29 10:34:25,0.0
-10196,-4124,-8172,-3443,-440,-3069,2025-01-29 10:34:25,0.0
-11068,-3064,-7560,-3433,-1785,-2866,2025-01-29 10:34:25,0.0
-10844,-1840,-7276,-3668,-2811,-2037,2025-01-29 10:34:25,0.0
-9484,-1240,-7816,-4153,-3098,-1519,2025-01-29 10:34:25,0.0
-7972,-1696,-8556,-4745,-2996,-1609,2025-01-29 10:34:25,0.0
-7904,-2324,-9020,-5008,-3133,-2008,2025-01-29 10:34:25,0.0
-8844,-2780,-8712,-4989,-3334,-1989,2025-01-29 10:34:25,0.0
-9228,-3100,-8784,-5256,-3623,-1506,2025-01-29 10:34:25,0.0
-9044,-3544,-8392,-5245,-3269,-1065,2025-01-29 10:34:25,0.0
-8476,-3580,-7852,-4888,-3148,-799,2025-01-29 10:34:25,0.0
-7880,-3504,-8204,-4502,-3071,-944,2025-01-29 10:34:25,0.0
-7240,-2880,-8680,-3997,-2864,-1205,2025-01-29 10:34:26,0.0
-7840,-2032,-8964,-3592,-2542,-1166,2025-01-29 10:34:26,0.0
-8292,-1672,-8640,-3309,-1281,-904,2025-01-29 10:34:26,0.0
-8244,-1620,-8436,-3204,-142,-895,2025-01-29 10:34:26,0.0
-8532,-880,-8008,-3554,-298,-1064,2025-01-29 10:34:26,0.0
-8420,-400,-7392,-4102,-951,-1125,2025-01-29 10:34:26,0.0
-8600,40,-6972,-4146,-956,-1067,2025-01-29 10:34:26,0.0
-8756,212,-6808,-3858,-397,-564,2025-01-29 10:34:26,0.0
-9228,-40,-6908,-3435,366,228,2025-01-29 10:34:26,0.0
-9340,880,-7836,-40,-1361,588,2025-01-29 10:34:26,0.0
-11720,1288,-9860,-194,-1795,-643,2025-01-29 10:34:26,0.0
-13404,1916,-8972,-503,-3159,-499,2025-01-29 10:34:26,0.0
-13228,1772,-10592,-729,-4718,-22,2025-01-29 10:34:26,0.0
-13996,1904,-10628,-1346,-7159,-19,2025-01-29 10:34:26,0.0
-13868,1372,-8696,-1808,-9438,48,2025-01-29 10:34:26,0.0
-11288,1704,-7164,-1889,-13007,-4,2025-01-29 10:34:26,0.0
-11068,1120,-6312,-1736,-12441,-333,2025-01-29 10:34:26,0.0
-9352,516,-5152,-2080,-8297,-402,2025-01-29 10:34:26,0.0
-10332,908,-4180,-1919,-3037,-379,2025-01-29 10:34:26,0.0
-11460,1224,-4636,-1705,-507,-250,2025-01-29 10:34:26,
-12892,1880,-5744,-1676,-488,-83,2025-01-29 10:34:26,0.0
-11960,1532,-6252,-1789,-2349,351,2025-01-29 10:34:26,0.0
-11356,1300,-5772,-1423,-3665,125,2025-01-29 10:34:26,0.0
-12912,1200,-5956,-1181,-4373,-150,2025-01-29 10:34:26,0.0
-13636,1312,-5504,-1201,-4711,-253,2025-01-29 10:34:26,0.0
-14320,1560,-4488,-1138,-4557,24,2025-01-29 10:34:26,0.0
-13472,868,-4572,-828,-4063,347,2025-01-29 10:34:26,0.0
-12304,-248,-4012,-606,-3709,247,2025-01-29 10:34:26,0.0
-12196,100,-4692,-397,-2731,-317,2025-01-29 10:34:26,0.0
-12724,780,-5156,-263,-1952,-651,2025-01-29 10:34:26,0.0
-14020,1400,-5636,-585,-1890,-523,2025-01-29 10:34:26,0.0
-14724,1592,-5052,-537,-2433,-558,2025-01-29 10:34:26,0.0
-14424,1412,-4572,-593,-3583,-367,2025-01-29 10:34:26,0.0
-14324,1088,-4476,-800,-3801,-462,2025-01-29 10:34:26,0.0
-13732,664,-4476,-1000,-4317,-573,2025-01-29 10:34:26,0.0
-13608,532,-3632,-993,-4949,-600,2025-01-29 10:34:26,0.0
-13452,-76,-2744,-807,-5261,-436,2025-01-29 10:34:26,0.0
-13392,-672,-1836,-580,-5733,-311,2025-01-29 10:34:26,0.0
-13340,-176,-1868,-469,-6132,-407,2025-01-29 10:34:26,0.0
-12800,-60,-1876,-519,-6284,-530,2025-01-29 10:34:26,0.0
-13304,580,-2096,-426,-6005,-688,2025-01-29 10:34:26,0.0
-13360,740,-2608,-516,-5812,-611,2025-01-29 10:34:26,0.0
-13280,936,-3048,-700,-5193,-330,2025-01-29 10:34:26,0.0
-13440,736,-3480,-770,-4378,-85,2025-01-29 10:34:26,0.0
-14188,372,-3580,-740,-4386,-219,2025-01-29 10:34:26,0.0
-14400,312,-3344,-905,-5105,-427,2025-01-29 10:34:26,0.0
-14568,192,-2324,-1012,-5749,-483,2025-01-29 10:34:26,0.0
-13924,-236,-892,-699,-5719,-595,2025-01-29 10:34:26,0.0
-14264,-76,-868,-365,-4515,-615,2025-01-29 10:34:26,0.0
-13768,336,-784,-192,-3310,-908,2025-01-29 10:34:26,0.0
-14500,460,-784,-61,-2664,-881,2025-01-29 10:34:26,0.0
-15564,584,-576,41,-2410,-549,2025-01-29 10:34:26,0.0
-16220,908,-732,-26,-2700,19,2025-01-29 10:34:27,0.0
-14996,1768,-372,46,-3349,426,2025-01-29 10:34:27,0.0
-13268,2180,-32,197,-2968,97,2025-01-29 10:34:27,0.0
-12956,1768,-68,425,-1943,-406,2025-01-29 10:34:27,0.0
-14104,956,-280,372,-1800,-659,2025-01-29 10:34:27,0.0
-15292,308,-380,309,-2053,-229,2025-01-29 10:34:27,0.0
-15160,472,-644,220,-2319,915,2025-01-29 10:34:27,0.0
-13912,996,-848,180,-2419,857,2025-01-29 10:34:27,0.0
-13560,1252,-384,364,-2203,365,2025-01-29 10:34:27,0.0
-13276,920,-616,749,-1829,-272,2025-01-29 10:34:27,0.0
-13680,1012,-612,904,-2092,-1061,2025-01-29 10:34:27,0.0
-14272,1000,-1128,799,-2511,-1405,2025-01-29 10:34:27,0.0
-14420,808,-1344,547,-2949,-1242,2025-01-29 10:34:27,0.0
-14372,740,-1156,205,-3262,-766,2025-01-29 10:34:27,0.0
-13860,776,-756,-155,-3047,-670,2025-01-29 10:34:27,0.0
-13824,720,-272,-300,-2813,-816,2025-01-29 10:34:27,0.0
-13692,580,-268,-306,-2559,-813,2025-01-29 10:34:27,0.0
-13988,516,-308,-238,-2292,-700,2025-01-29 10:34:27,0.0
-14096,448,-316,-167,-2391,-706,2025-01-29 10:34:27,0.0
-14268,588,-440,-161,-2542,-866,2025-01-29 10:34:27,0.0
-13988,768,-612,-193,-2638,-979,2025-01-29 10:34:27,0.0
-14004,552,-372,-113,-2937,-1031,2025-01-29 10:34:27,0.0
-13832,564,8,37,-3270,-1022,2025-01-29 10:34:27,0.0
-14048,484,524,79,-3242,-1014,2025-01-29 10:34:27,0.0
-14144,356,808,-192,-2704,-964,2025-01-29 10:34:27,0.0
-13912,252,1480,-415,-2283,-932,2025-01-29 10:34:27,0.0
-13488,-144,1740,-265,-2012,-1019,2025-01-29 10:34:27,0.0
-12712,80,1760,213,-2636,-1221,2025-01-29 10:34:27,0.0
-14104,-424,1804,316,-1049,-1074,2025-01-29 10:34:27,0.0
-14072,-268,1760,352,-831,-813,2025-01-29 10:34:27,0.0
-14524,112,1908,283,-807,-569,2025-01-29 10:34:27,0.0
-14744,-88,1672,118,-396,-331,2025-01-29 10:34:27,0.0
-14856,-88,1664,-26,-222,-128,2025-01-29 10:34:27,0.0
-14936,-8,1556,-24,-287,75,2025-01-29 10:34:27,0.0
-14472,-172,1764,-62,-574,154,2025-01-29 10:34:27,0.0
-14488,-396,2028,61,-1015,162,2025-01-29 10:34:27,0.0
-14040,-384,2128,126,-1323,312,2025-01-29 10:34:27,0.0
-14128,-288,2392,131,-1417,510,2025-01-29 10:34:27,0.0
-14060,4,2876,28,-1468,478,2025-01-29 10:34:27,0.0
-13104,140,2892,27,-1365,341,2025-01-29 10:34:27,0.0
-12884,272,3064,-17,-938,178,2025-01-29 10:34:27,0.0
-13304,300,2832,-28,-300,203,2025-01-29 10:34:27,0.0
-13524,236,2728,17,-198,112,2025-01-29 10:34:27,0.0
-13572,340,2368,137,-307,-66,2025-01-29 10:34:27,0.0
-13672,328,2312,170,-417,-449,2025-01-29 10:34:27,0.0
-13556,656,2132,85,-354,-985,2025-01-29 10:34:27,0.0
-13408,592,1944,126,-181,-1292,2025-01-29 10:34:27,0.0
-13300,-24,1684,166,-71,-1072,2025-01-29 10:34:27,0.0
-13524,16,1788,166,165,-618,2025-01-29 10:34:27,0.0
-13872,52,1436,54,-19,-320,2025-01-29 10:34:27,0.0
-14024,136,1544,-16,-94,-267,2025-01-29 10:34:27,0.0
-13840,96,1700,-54,-64,-361,2025-01-29 10:34:27,0.0
-13940,-52,1708,-94,-73,-475,2025-01-29 10:34:27,0.0
-13992,-260,2032,-133,83,-528,2025-01-29 10:34:27,0.0
-14000,20,2124,-186,243,-499,2025-01-29 10:34:27,0.0
-14040,-100,1948,-215,322,-477,2025-01-29 10:34:27,0.0
-13772,-8,1932,-194,345,-428,2025-01-29 10:34:27,0.0
-13804,-56,1908,-193,440,-488,2025-01-29 10:34:27,0.0
-13844,48,1808,-224,428,-551,2025-01-29 10:34:27,0.0
-13904,68,1932,-268,394,-480,2025-01-29 10:34:27,0.0
-13792,80,1768,-311,375,-383,2025-01-29 10:34:27,0.0
-13760,80,1968,-391,417,-316,2025-01-29 10:34:28,0.0
-13728,-12,2176,-405,428,-302,2025-01-29 10:34:28,0.0
-13764,80,2020,-408,452,-289,2025-01-29 10:34:28,0.0
-13844,120,1976,-404,445,-257,2025-01-29 10:34:28,0.0
-13964,68,2000,-386,426,-261,2025-01-29 10:34:28,0.0
-13944,8,1920,-351,465,-260,2025-01-29 10:34:28,0.0
-13900,48,1948,-374,448,-265,2025-01-29 10:34:28,
-13844,100,1720,-375,305,-320,2025-01-29 10:34:28,0.0
-13864,-60,1612,-339,261,-323,2025-01-29 10:34:28,0.0
-13820,-112,1692,-348,249,-343,2025-01-29 10:34:28,0.0
-13888,-8,1924,-350,216,-320,2025-01-29 10:34:28,0.0
-13860,-180,1724,-340,214,-300,2025-01-29 10:34:28,0.0
-13976,-148,1760,-321,189,-301,2025-01-29 10:34:28,0.0
-13864,-244,1704,-335,145,-286,2025-01-29 10:34:28,0.0
-13880,-128,1680,-293,122,-281,2025-01-29 10:34:28,0.0
-13800,-204,1760,-291,98,-277,2025-01-29 10:34:28,0.0
-13832,-212,1900,-291,76,-271,2025-01-29 10:34:28,0.0
-13864,-140,1848,-290,120,-248,2025-01-29 10:34:28,0.0
-13828,-240,1728,-292,197,-238,2025-01-29 10:34:28,0.0
-13800,-168,1684,-315,109,-218,2025-01-29 10:34:28,0.0
-13796,-180,1844,-305,65,-189,2025-01-29 10:34:28,0.0
-13744,-152,1880,-284,106,-175,2025-01-29 10:34:28,0.0
-13880,-276,1884,-284,196,-225,2025-01-29 10:34:28,0.0
-13904,-148,1656,-254,192,-214,2025-01-29 10:34:28,0.0
-13896,-68,1696,-229,107,-185,2025-01-29 10:34:28,0.0
-13924,-44,1916,-220,72,-167,2025-01-29 10:34:28,0.0
-13816,-44,2088,-233,105,-176,2025-01-29 10:34:28,0.0
-13800,-108,2044,-225,193,-182,2025-01-29 10:34:28,0.0
-13856,-156,1820,-250,221,-223,2025-01-29 10:34:28,0.0
-13784,-80,1924,-227,198,-204,2025-01-29 10:34:28,0.0
-13804,-128,1828,-229,185,-194,2025-01-29 10:34:28,0.0
-13736,-96,1840,-225,172,-213,2025-01-29 10:34:28,0.0
-13812,-76,1760,-221,135,-221,2025-01-29 10:34:28,0.0
-13840,-104,1864,-196,140,-237,2025-01-29 10:34:28,0.0
-13876,-112,1912,-188,127,-216,2025-01-29 10:34:28,0.0
-13840,-96,1896,-211,116,-214,2025-01-29 10:34:28,0.0
-13988,-88,1752,-190,137,-162,2025-01-29 10:34:28,0.0
-13876,-180,2040,-214,156,-130,2025-01-29 10:34:28,0.0
-13712,-164,1940,-233,157,-144,2025-01-29 10:34:28,0.0
-13856,-204,1932,-201,115,-173,2025-01-29 10:34:28,0.0
-13820,-136,1860,-191,138,-157,2025-01-29 10:34:28,0.0
-13856,-104,1980,-184,122,-149,2025-01-29 10:34:28,0.0
-13860,-172,1940,-186,150,-142,2025-01-29 10:34:28,0.0
-13876,-104,2020,-197,164,-150,2025-01-29 10:34:28,0.0
-13816,-40,1816,-191,176,-164,2025-01-29 10:34:28,0.0
-13920,-144,1988,-180,167,-139,2025-01-29 10:34:28,0.0
-13868,-140,1976,-191,202,-162,2025-01-29 10:34:28,0.0
-13796,-24,1860,-177,240,-199,2025-01-29 10:34:28,0.0
-13816,0,1956,-154,265,-199,2025-01-29 10:34:28,0.0
-13812,-148,1692,-186,254,-199,2025-01-29 10:34:28,0.0
-13792,-152,1864,-183,233,-156,2025-01-29 10:34:28,0.0
-13812,-212,1788,-186,224,-138,2025-01-29 10:34:28,0.0
-13844,-160,2044,-174,213,-132,2025-01-29 10:34:28,0.0
-13752,-292,1836,-185,233,-171,2025-01-29 10:34:28,0.0
-13700,-96,1600,-167,270,-155,2025-01-29 10:34:28,0.0
-13680,-132,1504,-149,207,-142,2025-01-29 10:34:28,0.0
-13632,-208,1648,-156,179,-117,2025-01-29 10:34:28,0.0
-13788,-24,1784,-137,145,-129,2025-01-29 10:34:29,0.0
-13788,-116,1584,-162,133,-154,2025-01-29 10:34:29,0.0
-13956,4,1888,-158,102,-169,2025-01-29 10:34:29,0.0
-13860,-92,1784,-136,89,-155,2025-01-29 10:34:29,0.0
-13876,-108,1912,-147,134,-154,2025-01-29 10:34:29,0.0
-13896,-36,1968,-149,125,-153,2025-01-29 10:34:29,0.0
-13832,-196,1944,-134,114,-162,2025-01-29 10:34:29,0.0
-13836,-48,1748,-154,136,-166,2025-01-29 10:34:29,0.0
-13728,-32,1840,-152,149,-180,2025-01-29 10:34:29,0.0
-13760,-100,1740,-173,181,-196,2025-01-29 10:34:29,0.0
-13760,-76,1896,-177,165,-181,2025-01-29 10:34:29,0.0
-13768,-60,1868,-184,116,-151,2025-01-29 10:34:29,0.0
-13764,-196,2004,-207,152,-169,2025-01-29 10:34:29,0.0
-13836,-124,1868,-231,183,-186,2025-01-29 10:34:29,0.0
-13964,-84,1832,-195,200,-193,2025-01-29 10:34:29,0.0
-13888,-120,1656,-173,41,-172,2025-01-29 10:34:29,0.0
-13920,-20,1892,-131,-53,-127,2025-01-29 10:34:29,0.0
-13812,28,1768,-123,-39,-152,2025-01-29 10:34:29,0.0
-13844,-44,1804,-120,-16,-159,2025-01-29 10:34:29,0.0
-13904,-20,1888,-143,22,-189,2025-01-29 10:34:29,0.0
-13824,-96,2012,-161,113,-191,2025-01-29 10:34:29,0.0
-13808,-156,2040,-192,156,-213,2025-01-29 10:34:29,0.0
-13876,-124,2048,-201,161,-208,2025-01-29 10:34:29,0.0
-13832,-120,1800,-191,160,-182,2025-01-29 10:34:29,0.0
-13768,-196,1956,-209,153,-199,2025-01-29 10:34:29,0.0
-13792,-140,1784,-183,122,-183,2025-01-29 10:34:29,0.0
-13828,-204,1868,-184,129,-190,2025-01-29 10:34:29,0.0
-13884,-148,1928,-164,85,-160,2025-01-29 10:34:29,0.0
-13780,-96,1744,-199,143,-168,2025-01-29 10:34:29,0.0
-13808,-220,1712,-196,115,-157,2025-01-29 10:34:29,0.0
-13820,-160,1840,-204,125,-142,2025-01-29 10:34:29,0.0
-13856,-104,1848,-216,106,-159,2025-01-29 10:34:29,0.0
-13872,-128,1856,-202,100,-148,2025-01-29 10:34:29,0.0
-13836,-108,1944,-156,138,-183,2025-01-29 10:34:29,0.0
-13844,-28,2100,-163,148,-151,2025-01-29 10:34:29,0.0
-13892,52,1936,-179,171,-178,2025-01-29 10:34:29,0.0
-13924,12,2028,-167,165,-176,2025-01-29 10:34:29,0.0
-13896,-112,1996,-177,184,-179,2025-01-29 10:34:29,0.0
-13868,-124,1956,-180,288,-195,2025-01-29 10:34:29,0.0
-13844,-44,1988,-228,407,-220,2025-01-29 10:34:29,0.0
-13872,36,2080,-198,523,-268,2025-01-29 10:34:29,0.0
-13740,-76,1888,-224,630,-271,2025-01-29 10:34:29,0.0
-13576,-12,1752,-281,651,-282,2025-01-29 10:34:29,0.0
-13508,-248,1360,-218,546,-232,2025-01-29 10:34:29,0.0
-13824,-200,1512,-241,392,-148,2025-01-29 10:34:29,0.0
-13916,-196,1264,-244,212,-104,2025-01-29 10:34:29,0.0
-13928,-92,1592,-211,52,-112,2025-01-29 10:34:29,0.0
-13920,-224,1672,-179,70,-141,2025-01-29 10:34:29,0.0
-13784,-176,1688,-227,99,-139,2025-01-29 10:34:29,0.0
-13680,-192,1628,-183,112,-161,2025-01-29 10:34:29,
-13696,-100,1572,-161,123,-185,2025-01-29 10:34:29,0.0
-13968,-64,1960,-138,68,-186,2025-01-29 10:34:29,0.0
-13708,-132,1748,-167,28,-176,2025-01-29 10:34:29,0.0
-13960,-52,1972,-109,47,-179,2025-01-29 10:34:29,0.0
-13872,-32,2068,-139,59,-200,2025-01-29 10:34:29,0.0
-13748,-44,2128,-166,84,-194,2025-01-29 10:34:29,0.0
-13800,-124,1932,-154,195,-206,2025-01-29 10:34:29,0.0
-13956,-40,2088,-158,196,-221,2025-01-29 10:34:29,0.0
-13920,-176,1736,-142,236,-207,2025-01-29 10:34:29,0.0
-13956,-160,1568,-169,191,-202,2025-01-29 10:34:29,0.0
-13928,-260,1688,-200,130,-166,2025-01-29 10:34:29,0.0
-13740,-128,1652,-206,136,-168,2025-01-29 10:34:29,0.0
-13852,-164,1748,-188,196,-148,2025-01-29 10:34:29,0.0
-13716,-204,1616,-179,199,-216,2025-01-29 10:34:29,0.0
-13768,-140,1688,-143,42,-213,2025-01-29 10:34:30,0.0
-13524,-44,1856,-121,-145,-316,2025-01-29 10:34:30,0.0
-13712,140,1700,-141,40,-334,2025-01-29 10:34:30,0.0
-13940,28,1652,-216,-9,-289,2025-01-29 10:34:30,0.0
-13876,-80,1856,-218,8,-261,2025-01-29 10:34:30,0.0
-13896,-136,2072,-197,57,-253,2025-01-29 10:34:30,0.0
-14076,-268,2208,-158,105,-212,2025-01-29 10:34:30,0.0
-13956,-352,1992,-171,127,-175,2025-01-29 10:34:30,0.0
-13936,-212,2088,-200,132,-129,2025-01-29 10:34:30,0.0
-13896,-244,1884,-180,84,-129,2025-01-29 10:34:30,0.0
-13956,-244,1812,-166,75,-147,2025-01-29 10:34:30,0.0
-13760,-172,1704,-176,77,-174,2025-01-29 10:34:30,0.0
-13708,-112,1784,-182,114,-148,2025-01-29 10:34:30,0.0
-13712,-148,1900,-222,192,-138,2025-01-29 10:34:30,0.0
-13776,-148,1920,-242,261,-143,2025-01-29 10:34:30,0.0
-13932,-88,1800,-237,231,-120,2025-01-29 10:34:30,0.0
-13960,-124,1828,-200,197,-134,2025-01-29 10:34:30,0.0
-13920,-108,1848,-170,150,-113,2025-01-29 10:34:30,0.0
-13908,80,1896,-152,147,-128,2025-01-29 10:34:30,0.0
-13852,-144,1940,-152,110,-132,2025-01-29 10:34:30,0.0
-13808,-188,1856,-158,119,-140,2025-01-29 10:34:30,0.0
-13856,-148,1996,-157,157,-159,2025-01-29 10:34:30,0.0
-13808,-176,1840,-168,202,-138,2025-01-29 10:34:30,0.0
-13844,-212,1708,-171,171,-114,2025-01-29 10:34:30,0.0
-13820,-196,1956,-186,189,-113,2025-01-29 10:34:30,0.0
-13912,-176,1992,-177,195,-167,2025-01-29 10:34:30,0.0
-13720,-20,1968,-134,182,-173,2025-01-29 10:34:30,0.0
-13776,-64,1816,-163,229,-160,2025-01-29 10:34:30,0.0
-13908,-96,2004,-138,228,-158,2025-01-29 10:34:30,0.0
-13732,-88,1932,-171,232,-196,2025-01-29 10:34:30,0.0
-13788,-28,1784,-127,240,-191,2025-01-29 10:34:30,0.0
-13888,-124,1856,-181,226,-204,2025-01-29 10:34:30,0.0
-13836,-88,1796,-179,216,-201,2025-01-29 10:34:30,0.0
-13848,-100,1796,-172,200,-173,2025-01-29 10:34:30,0.0
-13872,-172,1876,-181,192,-173,2025-01-29 10:34:30,0.0
-13884,-148,1788,-202,181,-149,2025-01-29 10:34:30,0.0
-13744,-244,1856,-176,186,-180,2025-01-29 10:34:30,0.0
-13908,-252,1860,-192,231,-204,2025-01-29 10:34:30,0.0
-13920,-124,1788,-186,213,-188,2025-01-29 10:34:30,0.0
-13744,-200,1720,-177,182,-183,2025-01-29 10:34:30,0.0
-13824,-140,1904,-177,158,-171,2025-01-29 10:34:30,0.0
-13956,-184,1788,-191,187,-158,2025-01-29 10:34:30,0.0
-13784,-132,1832,-179,205,-159,2025-01-29 10:34:30,0.0
-13792,-28,1916,-161,213,-151,2025-01-29 10:34:30,0.0
-13804,-196,1908,-168,214,-169,2025-01-29 10:34:30,0.0
-13868,-52,1948,-186,278,-176,2025-01-29 10:34:30,0.0
-13756,-52,1832,-190,354,-217,2025-01-29 10:34:30,0.0
-14012,-184,1744,-186,297,-197,2025-01-29 10:34:30,0.0
-13908,-152,1828,-202,241,-181,2025-01-29 10:34:30,0.0
-13768,-4,1864,-178,215,-167,2025-01-29 10:34:30,0.0
-13828,-88,1976,-171,226,-203,2025-01-29 10:34:30,0.0
-13932,-20,1716,-157,310,-218,2025-01-29 10:34:30,0.0
-13948,-28,1752,-101,189,-175,2025-01-29 10:34:30,0.0
-13836,-92,1780,-128,174,-168,2025-01-29 10:34:30,0.0
-13728,-48,1884,-100,211,-181,2025-01-29 10:34:30,0.0
-13808,-52,1912,-153,260,-160,2025-01-29 10:34:30,0.0
-13732,-128,1980,-158,373,-164,2025-01-29 10:34:30,0.0
-13716,0,1820,-141,379,-225,2025-01-29 10:34:30,0.0
-13736,100,1832,-139,365,-238,2025-01-29 10:34:30,0.0
-13784,72,1804,-172,470,-298,2025-01-29 10:34:30,0.0
-13928,-40,1536,-215,332,-324,2025-01-29 10:34:30,0.0
-13852,-4,1504,-150,11,-343,2025-01-29 10:34:31,0.0
-13808,-216,1356,-174,-53,-357,2025-01-29 10:34:31,0.0
-13776,-328,1596,-73,-285,-245,2025-01-29 10:34:31,0.0
-13844,-388,1972,-75,-324,-194,2025-01-29 10:34:31,0.0
-14248,-424,1872,-160,-114,-107,2025-01-29 10:34:31,0.0
-14108,-548,1452,-176,-2,60,2025-01-29 10:34:31,0.0
-14128,-488,1428,-213,-112,219,2025-01-29 10:34:31,0.0
-13940,-560,1492,-173,-228,273,2025-01-29 10:34:31,0.0
-13764,-452,1772,-149,-296,324,2025-01-29 10:34:31,0.0
-13820,-488,1852,-69,-314,340,2025-01-29 10:34:31,0.0
-13680,-432,1940,-33,-522,324,2025-01-29 10:34:31,0.0
-13712,-404,2104,19,-511,259,2025-01-29 10:34:31,0.0
-13616,-220,2196,69,-356,198,2025-01-29 10:34:31,0.0
-13468,100,1948,37,-278,238,2025-01-29 10:34:31,0.0
-13380,156,2040,-72,-149,165,2025-01-29 10:34:31,0.0
-13688,404,2012,-49,-7,40,2025-01-29 10:34:31,0.0
-13996,240,2108,-76,96,-1,2025-01-29 10:34:31,0.0
-13564,416,1424,-71,142,-19,2025-01-29 10:34:31,0.0
-13800,328,2016,37,171,21,2025-01-29 10:34:31,0.0
-13800,388,2096,52,287,-7,2025-01-29 10:34:31,0.0
-14048,388,1796,30,328,-35,2025-01-29 10:34:31,0.0
-14064,452,1476,1,286,-32,2025-01-29 10:34:31,0.0
-14264,300,1624,-32,151,80,2025-01-29 10:34:31,0.0
-14208,-68,2068,11,-214,309,2025-01-29 10:34:31,0.0
-13812,-236,1900,158,-577,504,2025-01-29 10:34:31,
-13188,-208,1812,143,-820,657,2025-01-29 10:34:31,0.0
-12700,-236,1436,8,-1136,603,2025-01-29 10:34:31,0.0
-12884,-92,2484,-125,-1321,109,2025-01-29 10:34:31,0.0
-13900,-132,3168,-24,-546,-143,2025-01-29 10:34:31,0.0
-14136,-364,3176,298,172,-228,2025-01-29 10:34:31,0.0
-13944,-524,2604,567,311,-334,2025-01-29 10:34:31,0.0
-13816,-400,1740,615,416,-383,2025-01-29 10:34:31,0.0
-14272,16,1592,498,708,-248,2025-01-29 10:34:31,0.0
-14652,676,1532,310,824,-45,2025-01-29 10:34:31,0.0
-14912,812,1552,120,761,252,2025-01-29 10:34:31,0.0
-14292,684,1724,95,346,495,2025-01-29 10:34:31,0.0
-14080,620,1972,-11,136,518,2025-01-29 10:34:31,0.0
-13832,536,2464,-104,84,425,2025-01-29 10:34:31,0.0
-13660,192,2464,-184,47,303,2025-01-29 10:34:31,0.0
-12796,36,2688,-266,20,261,2025-01-29 10:34:31,0.0
-12852,240,2976,-283,356,91,2025-01-29 10:34:31,0.0
-13104,396,2752,-359,861,-16,2025-01-29 10:34:31,0.0
-13632,392,2692,-551,957,-277,2025-01-29 10:34:31,0.0
-14152,124,2804,-524,1052,-284,2025-01-29 10:34:31,0.0
-14072,-80,2728,-401,1151,-46,2025-01-29 10:34:31,0.0
-13356,-8,2676,-308,1535,79,2025-01-29 10:34:31,0.0
-12692,-32,2736,-322,2241,34,2025-01-29 10:34:31,0.0
-13144,272,2732,-357,3318,-79,2025-01-29 10:34:31,0.0
-14040,264,2396,-310,4480,85,2025-01-29 10:34:31,0.0
-14744,308,1876,-278,5249,246,2025-01-29 10:34:31,0.0
-14896,460,1624,-88,5822,303,2025-01-29 10:34:31,0.0
-14056,500,1840,252,6052,63,2025-01-29 10:34:31,0.0
-13460,624,1408,458,6180,-347,2025-01-29 10:34:31,0.0
-13804,564,940,613,6350,-377,2025-01-29 10:34:31,0.0
-14416,584,248,710,6858,-32,2025-01-29 10:34:31,0.0
-14872,244,460,881,5944,107,2025-01-29 10:34:31,0.0
-14472,148,-160,808,4961,336,2025-01-29 10:34:32,0.0
-14536,-312,140,972,4846,482,2025-01-29 10:34:32,0.0
-14176,-372,-712,1015,4965,1101,2025-01-29 10:34:32,0.0
-14136,-60,-832,1185,5773,1300,2025-01-29 10:34:32,0.0
-14996,348,-940,1114,6585,1100,2025-01-29 10:34:32,0.0
-16352,384,-492,1022,6508,1299,2025-01-29 10:34:32,0.0
-15016,768,-104,1079,5928,754,2025-01-29 10:34:32,0.0
-14576,1128,-132,1136,5607,-164,2025-01-29 10:34:32,0.0
-14752,1024,-904,1167,6344,-544,2025-01-29 10:34:32,0.0
-15416,1112,-1920,950,7821,-295,2025-01-29 10:34:32,0.0
-16024,1536,-2328,777,7929,232,2025-01-29 10:34:32,0.0
-16316,1304,-1816,792,7190,336,2025-01-29 10:34:32,0.0
-13912,892,-2124,984,7100,256,2025-01-29 10:34:32,0.0
-14548,600,-2000,1128,6890,108,2025-01-29 10:34:32,0.0
-14956,1156,-2628,841,7377,284,2025-01-29 10:34:32,0.0
-15656,1336,-3292,609,8030,640,2025-01-29 10:34:32,0.0
-16696,468,-2852,868,7536,1027,2025-01-29 10:34:32,0.0
-15628,-492,-3284,1463,6316,1050,2025-01-29 10:34:32,0.0
-14684,-620,-3756,2149,5800,735,2025-01-29 10:34:32,0.0
-13848,344,-5684,2498,5767,383,2025-01-29 10:34:32,0.0
-13880,1156,-6072,2228,5824,284,2025-01-29 10:34:32,0.0
-13404,1376,-6004,1719,5758,496,2025-01-29 10:34:32,0.0
-13272,852,-5276,1279,5727,772,2025-01-29 10:34:32,0.0
-13132,636,-5208,963,5803,835,2025-01-29 10:34:32,0.0
-13016,528,-4848,847,5834,661,2025-01-29 10:34:32,0.0
-12852,428,-4924,922,5592,404,2025-01-29 10:34:32,0.0
-13052,376,-5224,673,4895,318,2025-01-29 10:34:32,0.0
-12880,968,-6100,392,4110,466,2025-01-29 10:34:32,0.0
-12744,832,-6512,54,3669,606,2025-01-29 10:34:32,0.0
-12832,752,-6660,-237,3543,524,2025-01-29 10:34:32,0.0
-12860,692,-6208,-489,3061,272,2025-01-29 10:34:32,0.0
-12952,564,-5376,-583,2370,194,2025-01-29 10:34:32,0.0
-12764,852,-5136,-726,1810,260,2025-01-29 10:34:32,0.0
-12620,1296,-5204,-798,2699,225,2025-01-29 10:34:32,0.0
-12940,1412,-6628,-862,3119,29,2025-01-29 10:34:32,0.0
-13104,1444,-7640,-1250,2063,-114,2025-01-29 10:34:32,0.0
-13252,1684,-6908,-1651,306,-85,2025-01-29 10:34:32,0.0
-12948,1656,-6336,-1461,-826,-195,2025-01-29 10:34:32,0.0
-12168,1524,-6592,-1288,-1306,-360,2025-01-29 10:34:32,0.0
-12308,1124,-5852,-1183,-1498,-453,2025-01-29 10:34:32,0.0
-12344,656,-5528,-848,-1098,-449,2025-01-29 10:34:32,0.0
-12328,744,-5536,-605,-457,-374,2025-01-29 10:34:32,0.0
-12352,1068,-5168,-464,-168,-484,2025-01-29 10:34:32,0.0
-12844,1384,-5232,-228,102,-534,2025-01-29 10:34:32,0.0
-12752,1356,-5472,41,946,-548,2025-01-29 10:34:32,0.0
-12160,1120,-5716,116,1415,-879,2025-01-29 10:34:32,0.0
-11736,912,-5516,226,1159,-1349,2025-01-29 10:34:32,0.0
-11780,792,-5320,420,682,-1693,2025-01-29 10:34:32,0.0
-12136,836,-5264,748,1265,-1792,2025-01-29 10:34:32,0.0
-11728,920,-5304,802,1339,-1886,2025-01-29 10:34:32,0.0
-10844,736,-5644,880,-56,-2137,2025-01-29 10:34:32,0.0
-10852,728,-5800,993,-962,-2305,2025-01-29 10:34:32,0.0
-10956,904,-5848,1219,-1041,-2252,2025-01-29 10:34:32,0.0
-10764,584,-6056,1435,19,-2187,2025-01-29 10:34:32,0.0
-10720,656,-5736,1569,909,-2251,2025-01-29 10:34:32,0.0
-10964,904,-5348,1575,944,-2414,2025-01-29 10:34:32,0.0
-10864,904,-5560,1387,415,-2694,2025-01-29 10:34:32,0.0
-10960,948,-5964,973,-491,-3097,2025-01-29 10:34:32,0.0
-11608,1192,-6376,471,-1845,-2929,2025-01-29 10:34:32,0.0
-11028,824,-5964,289,-2437,-2680,2025-01-29 10:34:32,0.0
-11156,968,-5292,232,-3198,-2594,2025-01-29 10:34:32,0.0
-10548,836,-5168,43,-4261,-2563,2025-01-29 10:34:32,0.0
-10248,1088,-5216,-403,-5286,-2519,2025-01-29 10:34:33,0.0
-9792,1076,-5000,-610,-5967,-2170,2025-01-29 10:34:33,0.0
-9500,1156,-5484,-651,-5937,-1745,2025-01-29 10:34:33,0.0
-9088,684,-5652,-954,-4691,-1322,2025-01-29 10:34:33,0.0
-9020,48,-4664,-800,-2773,-1432,2025-01-29 10:34:33,0.0
-9440,-932,-4148,-489,-1311,-1826,2025-01-29 10:34:33,0.0
-9596,-1480,-4560,-282,-634,-2337,2025-01-29 10:34:33,
-10016,-2056,-5392,82,-813,-2833,2025-01-29 10:34:33,0.0
-10496,-1936,-5832,579,-2072,-2819,2025-01-29 10:34:33,0.0
-10964,-1488,-6004,1265,-4270,-2170,2025-01-29 10:34:33,0.0
-11036,-1164,-6252,1725,-6234,-1202,2025-01-29 10:34:33,0.0
-10256,-1284,-5864,1936,-6606,-651,2025-01-29 10:34:33,0.0
-10012,-1180,-5232,2405,-5692,-587,2025-01-29 10:34:33,0.0
-10020,-1500,-4944,3018,-4216,-628,2025-01-29 10:34:33,0.0
-10492,-1652,-5292,3491,-2606,-287,2025-01-29 10:34:33,0.0
-10740,-1292,-5528,3967,-1146,233,2025-01-29 10:34:33,0.0
-10668,-708,-6192,4492,556,575,2025-01-29 10:34:33,0.0
-10552,-220,-6484,4599,1955,349,2025-01-29 10:34:33,0.0
-10912,100,-6456,4258,3164,-401,2025-01-29 10:34:33,0.0
-11540,856,-6316,3656,3570,-1076,2025-01-29 10:34:33,0.0
-12052,756,-6476,2835,3152,-1253,2025-01-29 10:34:33,0.0
-11896,764,-6716,1838,2530,-1414,2025-01-29 10:34:33,0.0
-11712,-612,-6776,898,1961,-1794,2025-01-29 10:34:33,0.0
-11856,-1688,-5724,443,2254,-2283,2025-01-29 10:34:33,0.0
-12488,-1900,-4808,602,2575,-2456,2025-01-29 10:34:33,0.0
-12604,-1784,-4992,697,2760,-2536,2025-01-29 10:34:33,0.0
-12564,-1328,-4984,505,2604,-2658,2025-01-29 10:34:33,0.0
-12368,-916,-5728,185,2356,-2863,2025-01-29 10:34:33,0.0
-11904,-1340,-5320,-199,2221,-2930,2025-01-29 10:34:33,0.0
-11564,-2720,-4732,-236,2171,-2932,2025-01-29 10:34:33,0.0
-10936,-4568,-4116,173,2726,-2924,2025-01-29 10:34:33,0.0
-11304,-5344,-3308,868,3713,-2821,2025-01-29 10:34:33,0.0
-12052,-5244,-3724,1273,4391,-2023,2025-01-29 10:34:33,0.0
-12528,-4432,-4104,1419,4911,-603,2025-01-29 10:34:33,0.0
-11932,-3624,-4308,1357,5329,313,2025-01-29 10:34:33,0.0
-11220,-2936,-4500,1320,6129,-25,2025-01-29 10:34:33,0.0
-11372,-2664,-5636,1222,6916,-1028,2025-01-29 10:34:33,0.0
-12288,-2444,-6020,884,7719,-1981,2025-01-29 10:34:33,0.0
-12816,-2744,-6136,490,7572,-2486,2025-01-29 10:34:33,0.0
-13716,-2880,-5508,-137,6378,-2711,2025-01-29 10:34:33,0.0
-13592,-3516,-5840,-759,4421,-2713,2025-01-29 10:34:33,0.0
-13388,-4568,-5984,-1006,1559,-2400,2025-01-29 10:34:33,0.0
-12688,-5328,-5372,-570,-45,-1861,2025-01-29 10:34:33,0.0
-11800,-5392,-5280,-173,-475,-1430,2025-01-29 10:34:33,0.0
-11180,-4704,-5000,-21,-68,-1204,2025-01-29 10:34:33,0.0
-10968,-4080,-5676,-376,728,-968,2025-01-29 10:34:33,0.0
-11060,-3616,-5252,-673,1257,-602,2025-01-29 10:34:33,0.0
-10960,-3488,-5244,-1038,1392,-383,2025-01-29 10:34:33,0.0
-10776,-3592,-5264,-1385,1373,-422,2025-01-29 10:34:33,0.0
-10984,-3748,-5580,-1727,1597,-408,2025-01-29 10:34:33,0.0
-11304,-4028,-5752,-2021,1915,-347,2025-01-29 10:34:33,0.0
-11640,-3524,-5424,-2495,2269,-380,2025-01-29 10:34:33,0.0
-12272,-2052,-5500,-3293,2053,-628,2025-01-29 10:34:33,0.0
-12480,-1876,-6084,-4100,1369,-757,2025-01-29 10:34:33,0.0
-12200,-2860,-6300,-4732,868,-901,2025-01-29 10:34:33,0.0
-11724,-3408,-6456,-4811,639,-923,2025-01-29 10:34:33,0.0
-12124,-4908,-6236,-4810,871,-726,2025-01-29 10:34:33,0.0
-12268,-6540,-5936,-4336,1214,-581,2025-01-29 10:34:33,0.0
-12688,-6508,-5280,-3492,1659,-794,2025-01-29 10:34:33,0.0
-13864,-5040,-4468,-3123,1528,-764,2025-01-29 10:34:33,0.0
-14016,-3520,-4840,-3487,421,-656,2025-01-29 10:34:33,0.0
-13600,-2652,-6404,-3941,1,-1470,2025-01-29 10:34:33,0.0
-13992,-3416,-7676,-4276,262,-2175,2025-01-29 10:34:33,0.0
-14404,-5104,-7492,-4113,-138,-2685,2025-01-29 10:34:34,0.0
-14892,-5932,-6216,-3263,-1327,-2713,2025-01-29 10:34:34,0.0
-15448,-6092,-6464,-2576,-3312,-1668,2025-01-29 10:34:34,0.0
-14936,-5944,-7336,-2272,-4539,23,2025-01-29 10:34:34,0.0
-13172,-5276,-8088,-1976,-4193,1297,2025-01-29 10:34:34,0.0
-11356,-4064,-9148,-2042,-3656,1801,2025-01-29 10:34:34,0.0
-10076,-3040,-10068,-2383,-3316,1906,2025-01-29 10:34:34,0.0
-9384,-2016,-9728,-2750,-2885,2025,2025-01-29 10:34:34,0.0
-9112,-860,-8892,-2518,-2335,2272,2025-01-29 10:34:34,0.0
-9132,116,-8692,-2413,-1585,2435,2025-01-29 10:34:34,0.0
-8944,1136,-8820,-2111,-86,2128,2025-01-29 10:34:34,0.0
-9716,948,-8672,-2308,463,1733,2025-01-29 10:34:34,0.0
-10536,492,-8948,-2771,573,1608,2025-01-29 10:34:34,0.0
-11252,-148,-8028,-3088,597,1817,2025-01-29 10:34:34,0.0
-11608,-760,-7476,-2922,549,2251,2025-01-29 10:34:34,0.0
-11376,-1148,-7056,-2542,-24,2560,2025-01-29 10:34:34,0.0
-10868,-1716,-6744,-2122,-351,2520,2025-01-29 10:34:34,0.0
-10524,-1792,-6876,-1542,-559,2436,2025-01-29 10:34:34,0.0
-10480,-1236,-6660,-1081,-838,2404,2025-01-29 10:34:34,0.0
-10456,-644,-6792,-784,-1226,2424,2025-01-29 10:34:34,0.0
-9996,480,-6472,-275,119,2546,2025-01-29 10:34:34,0.0
-10532,944,-6324,-150,456,2418,2025-01-29 10:34:34,0.0
-10712,1196,-6368,-199,556,2132,2025-01-29 10:34:34,0.0
-10668,1328,-6360,-288,238,1602,2025-01-29 10:34:34,0.0
-10948,1320,-6268,-293,-235,962,2025-01-29 10:34:34,0.0
-11068,1016,-5968,-260,-754,505,2025-01-29 10:34:34,0.0
-11164,228,-5688,-185,-1314,135,2025-01-29 10:34:34,0.0
-10964,-260,-5380,34,-1727,-199,2025-01-29 10:34:34,0.0
-10552,-352,-5148,422,-1899,-498,2025-01-29 10:34:34,0.0
-10564,-96,-4980,745,-1743,-729,2025-01-29 10:34:34,0.0
-10936,352,-4628,1038,-1125,-709,2025-01-29 10:34:34,0.0
-11064,576,-4576,1324,-478,-609,2025-01-29 10:34:34,0.0
-11204,296,-5004,1641,81,-605,2025-01-29 10:34:34,0.0
-11732,-412,-4864,2135,132,-483,2025-01-29 10:34:34,0.0
-11944,-764,-4820,2662,-88,-208,2025-01-29 10:34:34,0.0
-11788,-644,-4992,3192,-297,112,2025-01-29 10:34:34,0.0
-11996,-500,-4880,3796,264,411,2025-01-29 10:34:34,0.0
-12460,-320,-4808,4529,1311,692,2025-01-29 10:34:34,0.0
-13528,-592,-5056,4968,1804,1220,2025-01-29 10:34:34,0.0
-14096,-420,-5616,5273,1435,1827,2025-01-29 10:34:34,0.0
-14044,-764,-6620,5238,268,2269,2025-01-29 10:34:34,0.0
-13688,-1372,-5912,5083,-458,2366,2025-01-29 10:34:34,0.0
-13488,-352,-5212,5187,-914,2388,2025-01-29 10:34:34,0.0
-13228,1460,-4864,4943,-1027,2415,2025-01-29 10:34:34,
-13036,2540,-4856,4517,-501,2256,2025-01-29 10:34:34,0.0
-12880,2056,-6452,3928,1037,1902,2025-01-29 10:34:34,0.0
-13444,1344,-7448,3107,2585,1453,2025-01-29 10:34:34,0.0
-14672,1680,-8072,2187,3407,1353,2025-01-29 10:34:34,0.0
-15592,1840,-8888,1169,3715,1772,2025-01-29 10:34:34,0.0
-16188,1600,-9916,-39,4058,2270,2025-01-29 10:34:34,0.0
-16112,1588,-10764,-1142,3964,2575,2025-01-29 10:34:34,0.0
-14728,1656,-10932,-2527,1696,2516,2025-01-29 10:34:34,0.0
-12012,972,-7288,-2754,-1672,1247,2025-01-29 10:34:34,0.0
-9516,248,-4852,-1635,-5026,-1063,2025-01-29 10:34:34,0.0
-7780,-540,-4804,-378,-6770,-2965,2025-01-29 10:34:34,0.0
-6708,-1844,-5164,636,-6750,-4000,2025-01-29 10:34:34,0.0
-7036,-2844,-6576,1741,-4309,-3840,2025-01-29 10:34:34,0.0
-7400,-2844,-9960,2244,1804,-2877,2025-01-29 10:34:34,0.0
-7208,-2844,-10384,1702,5982,-2531,2025-01-29 10:34:35,0.0
-8620,-2884,-9348,1790,6859,-2383,2025-01-29 10:34:35,0.0
-10136,-2952,-8916,2096,5443,-2159,2025-01-29 10:34:35,0.0
-11556,-2768,-8524,2008,3233,-1793,2025-01-29 10:34:35,0.0
-12320,-2188,-8244,1833,695,-1037,2025-01-29 10:34:35,0.0
-11432,-1308,-8776,1453,-1200,-694,2025-01-29 10:34:35,0.0
-10432,-892,-8532,949,-1794,-1022,2025-01-29 10:34:35,0.0
-9720,-1192,-8252,516,-1687,-1609,2025-01-29 10:34:35,0.0
-9664,-1308,-7596,410,-1179,-2330,2025-01-29 10:34:35,0.0
-10356,-1524,-7232,264,-348,-2842,2025-01-29 10:34:35,0.0
-10644,-1396,-7256,-39,-436,-2922,2025-01-29 10:34:35,0.0
-10396,-1272,-7392,-568,-709,-2905,2025-01-29 10:34:35,0.0
-9932,-1232,-7236,-1199,-744,-3001,2025-01-29 10:34:35,0.0
-9468,-1552,-6800,-1691,-200,-3276,2025-01-29 10:34:35,0.0
-9280,-1928,-6716,-1972,570,-3526,2025-01-29 10:34:35,0.0
-9508,-2108,-6316,-2147,1569,-3623,2025-01-29 10:34:35,0.0
-9644,-2192,-6020,-2259,2511,-3625,2025-01-29 10:34:35,0.0
-9928,-2340,-6120,-2402,3433,-3764,2025-01-29 10:34:35,0.0
-10656,-2660,-6324,-2560,3761,-3737,2025-01-29 10:34:35,0.0
-11184,-2824,-7236,-2739,3843,-3629,2025-01-29 10:34:35,0.0
-11672,-2804,-7236,-2957,3501,-3310,2025-01-29 10:34:35,0.0
-12084,-2704,-7408,-3182,2842,-2888,2025-01-29 10:34:35,0.0
-12296,-2540,-7276,-3420,1965,-2472,2025-01-29 10:34:35,0.0
-11884,-2308,-7352,-3723,1181,-1956,2025-01-29 10:34:35,0.0
-11596,-2420,-6956,-4147,719,-1587,2025-01-29 10:34:35,0.0
-11640,-2700,-5844,-4367,484,-1507,2025-01-29 10:34:35,0.0
-11548,-3088,-5760,-4266,281,-1245,2025-01-29 10:34:35,0.0
-11176,-2900,-5904,-4058,211,-949,2025-01-29 10:34:35,0.0
-10436,-2120,-6668,-4286,205,-734,2025-01-29 10:34:35,0.0
-9936,-1500,-7220,-4808,380,-957,2025-01-29 10:34:35,0.0
-10260,-1260,-6852,-5528,998,-1012,2025-01-29 10:34:35,0.0
-10348,-368,-7060,-5929,1506,-1040,2025-01-29 10:34:35,0.0
-10432,440,-7704,-6418,1728,-1492,2025-01-29 10:34:35,0.0
-10660,-1336,-7616,-7078,1849,-2196,2025-01-29 10:34:35,0.0
-11168,-3980,-7236,-7279,1871,-2868,2025-01-29 10:34:35,0.0
-11584,-5368,-6360,-6370,2297,-3756,2025-01-29 10:34:35,0.0
-13148,-5808,-5880,-5203,2629,-4700,2025-01-29 10:34:35,0.0
-14612,-5084,-5028,-4077,2238,-5165,2025-01-29 10:34:35,0.0
-15220,-4600,-5420,-3427,672,-4577,2025-01-29 10:34:35,0.0
-14452,-4880,-7264,-3256,129,-3969,2025-01-29 10:34:35,0.0
-13712,-6072,-9068,-2956,559,-3374,2025-01-29 10:34:35,0.0
-14328,-7392,-8372,-1751,1227,-2770,2025-01-29 10:34:35,0.0
-14908,-7728,-8584,163,1167,-1826,2025-01-29 10:34:35,0.0
-15872,-6372,-10168,1645,-266,-165,2025-01-29 10:34:35,0.0
-15780,-3776,-10804,2198,-2630,1886,2025-01-29 10:34:35,0.0
-13464,-2324,-11588,2565,-4584,2490,2025-01-29 10:34:35,0.0
-12088,-1296,-11128,2350,-6195,2254,2025-01-29 10:34:35,0.0
-10504,-1136,-10548,1545,-8444,2789,2025-01-29 10:34:35,0.0
-7324,-152,-10252,1175,-9301,2857,2025-01-29 10:34:35,0.0
-5832,1172,-9288,415,-8196,2095,2025-01-29 10:34:35,0.0
-5024,2888,-8848,-649,-5748,1221,2025-01-29 10:34:35,0.0
-4524,3432,-8856,-1762,-2010,71,2025-01-29 10:34:35,0.0
-4392,3232,-8920,-2398,2006,-1573,2025-01-29 10:34:35,0.0
-6708,1780,-8944,-3003,4763,-2782,2025-01-29 10:34:35,0.0
-9496,272,-8852,-3390,6021,-2726,2025-01-29 10:34:35,0.0
-11024,-972,-9564,-3706,6470,-2319,2025-01-29 10:34:35,0.0
-13268,-2004,-9380,-3967,5955,-2001,2025-01-29 10:34:35,0.0
-15832,-2348,-8808,-3480,3347,-840,2025-01-29 10:34:35,0.0
-16196,-2456,-8384,-3038,-1365,1275,2025-01-29 10:34:35,0.0
-13940,-2040,-7600,-2501,-5098,2440,2025-01-29 10:34:35,0.0
-11372,-1760,-7684,-1937,-6517,2554,2025-01-29 10:34:35,0.0
-9096,-1500,-6816,-1176,-6274,2692,2025-01-29 10:34:36,0.0
-7696,-1188,-5668,-335,-4408,2851,2025-01-29 10:34:36,0.0
-7408,-620,-5104,287,-944,3008,2025-01-29 10:34:36,0.0
-7572,592,-5784,641,3146,2854,2025-01-29 10:34:36,0.0
-9204,1332,-6716,660,4851,2489,2025-01-29 10:34:36,0.0
-11032,1492,-7236,501,4583,2392,2025-01-29 10:34:36,0.0
-11536,1440,-7524,271,2952,2203,2025-01-29 10:34:36,0.0
-11808,924,-7180,277,648,1664,2025-01-29 10:34:36,0.0
-11608,588,-6760,351,-1225,1040,2025-01-29 10:34:36,0.0
-10828,232,-6580,477,-2365,614,2025-01-29 10:34:36,0.0
-10476,-268,-6128,497,-2674,287,2025-01-29 10:34:36,0.0
-9920,-416,-6004,625,-2165,-26,2025-01-29 10:34:36,0.0
-9972,-404,-6080,601,-1293,-275,2025-01-29 10:34:36,0.0
-10488,-216,-5320,762,-794,-311,2025-01-29 10:34:36,0.0
-10876,-92,-5516,1009,-431,-104,2025-01-29 10:34:36,0.0
-11528,-476,-5096,1399,152,273,2025-01-29 10:34:36,0.0
-11656,-1256,-4624,2058,728,480,2025-01-29 10:34:36,0.0
-12080,-1796,-4656,2977,1227,552,2025-01-29 10:34:36,0.0
-12924,-1364,-5752,3637,1307,747,2025-01-29 10:34:36,0.0
-14168,-564,-6908,4047,784,1480,2025-01-29 10:34:36,0.0
-14600,-416,-7256,4076,-44,2146,2025-01-29 10:34:36,0.0
-14796,-936,-5704,4130,-756,2534,2025-01-29 10:34:36,0.0
-14264,-572,-4936,4597,-1329,2563,2025-01-29 10:34:36,0.0
-14028,-8,-4660,4971,-1743,2436,2025-01-29 10:34:36,0.0
-13844,-248,-5400,5114,-1604,2508,2025-01-29 10:34:36,
-14224,-836,-7052,4809,-450,3328,2025-01-29 10:34:36,0.0
-13548,816,-7788,4389,1770,4287,2025-01-29 10:34:36,0.0
-13692,2372,-8612,3824,2813,4681,2025-01-29 10:34:36,0.0
-13244,3484,-9592,2852,2397,4085,2025-01-29 10:34:36,0.0
-12920,3912,-10464,1936,1452,2744,2025-01-29 10:34:36,0.0
-13256,3704,-10796,871,281,1319,2025-01-29 10:34:36,0.0
-12636,2120,-9636,-151,-1426,24,2025-01-29 10:34:36,0.0
-11396,876,-8688,-138,-3191,-684,2025-01-29 10:34:36,0.0
-10360,-44,-8344,305,-4445,-805,2025-01-29 10:34:36,0.0
-8472,-804,-7636,547,-4861,-721,2025-01-29 10:34:36,0.0
-7232,-1256,-7420,829,-4401,-861,2025-01-29 10:34:36,0.0
-6748,-1928,-7008,811,-3105,-878,2025-01-29 10:34:36,0.0
-6936,-2720,-6564,969,-1095,-522,2025-01-29 10:34:36,0.0
-7168,-3304,-7228,1418,1993,40,2025-01-29 10:34:36,0.0
-7684,-3508,-7960,1466,3569,221,2025-01-29 10:34:36,0.0
-9412,-2452,-7736,1628,5014,284,2025-01-29 10:34:36,0.0
-10684,-1148,-8348,1589,5461,366,2025-01-29 10:34:36,0.0
-11904,-64,-8580,976,5293,95,2025-01-29 10:34:36,0.0
-12496,112,-7868,264,4012,-483,2025-01-29 10:34:36,0.0
-12224,-356,-7708,40,968,-1669,2025-01-29 10:34:36,0.0
-11900,-804,-8708,-56,-1143,-2545,2025-01-29 10:34:36,0.0
-10844,-1104,-8928,-460,-2067,-2861,2025-01-29 10:34:36,0.0
-9548,-1664,-8112,-1061,-1719,-3177,2025-01-29 10:34:36,0.0
-8660,-2172,-7516,-1552,-754,-3644,2025-01-29 10:34:36,0.0
-8340,-2788,-7432,-1730,805,-4066,2025-01-29 10:34:36,0.0
-9336,-3392,-7048,-1621,3191,-4299,2025-01-29 10:34:36,0.0
-10272,-3500,-6760,-1340,4460,-4184,2025-01-29 10:34:36,0.0
-11384,-3428,-6828,-1152,4754,-4031,2025-01-29 10:34:36,0.0
-12432,-3280,-6912,-967,3748,-3811,2025-01-29 10:34:36,0.0
-12940,-3112,-6896,-863,1895,-3429,2025-01-29 10:34:36,0.0
-13020,-2708,-7080,-742,-727,-2762,2025-01-29 10:34:36,0.0
-11680,-1992,-7228,-773,-2492,-2070,2025-01-29 10:34:36,0.0
-10544,-936,-7164,-1194,-2782,-1667,2025-01-29 10:34:36,0.0
-9804,-268,-7048,-1904,-1975,-1351,2025-01-29 10:34:36,0.0
-9524,-412,-6668,-2747,-352,-1185,2025-01-29 10:34:37,0.0
-9600,-1004,-6236,-3401,1079,-1219,2025-01-29 10:34:37,0.0
-10344,-1708,-5820,-3716,1743,-1209,2025-01-29 10:34:37,0.0
-10864,-2276,-5856,-3860,1811,-1116,2025-01-29 10:34:37,0.0
-11000,-2528,-5980,-3885,1671,-968,2025-01-29 10:34:37,0.0
-11308,-2720,-5636,-3977,1770,-974,2025-01-29 10:34:37,0.0
-11896,-3244,-5164,-3896,1907,-967,2025-01-29 10:34:37,0.0
-12160,-3620,-5428,-3641,1874,-835,2025-01-29 10:34:37,0.0
-11780,-4244,-6544,-3550,1693,-775,2025-01-29 10:34:37,0.0
-11816,-3444,-7212,-3312,1399,-641,2025-01-29 10:34:37,0.0
-11804,-1712,-6816,-3207,1423,-371,2025-01-29 10:34:37,0.0
-11464,-2400,-6260,-2904,1997,-235,2025-01-29 10:34:37,0.0
-11240,-3204,-7436,-2606,2256,-500,2025-01-29 10:34:37,0.0
-12008,-3364,-7212,-2627,2686,-1362,2025-01-29 10:34:37,0.0
-13696,-1692,-7172,-2195,3394,-2497,2025-01-29 10:34:37,0.0
-15224,-232,-8676,-2319,3421,-3177,2025-01-29 10:34:37,0.0
-15444,-532,-10764,-3019,2185,-3659,2025-01-29 10:34:37,0.0
-14792,-2440,-10880,-3474,614,-4065,2025-01-29 10:34:37,0.0
-14852,-5028,-9592,-3160,-794,-3920,2025-01-29 10:34:37,0.0
-15608,-6164,-8292,-2340,-2152,-2006,2025-01-29 10:34:37,0.0
-14628,-5644,-8708,-1683,-2463,603,2025-01-29 10:34:37,0.0
-12028,-4408,-9508,-1099,-2469,1848,2025-01-29 10:34:37,0.0
-10396,-3228,-9936,-850,-2738,1770,2025-01-29 10:34:37,0.0
-9036,-2044,-9796,-886,-3485,1639,2025-01-29 10:34:37,0.0
-7956,-260,-9272,-960,-4997,1690,2025-01-29 10:34:37,0.0
-7136,1076,-8988,-1188,-5624,1888,2025-01-29 10:34:37,0.0
-6364,2240,-8776,-1590,-4225,1916,2025-01-29 10:34:37,0.0
-5688,2300,-8368,-1851,-955,1289,2025-01-29 10:34:37,0.0
-6540,1112,-7868,-1826,2839,-14,2025-01-29 10:34:37,0.0
-9972,-388,-8340,-1479,5361,0,2025-01-29 10:34:37,0.0
-12272,-1488,-8708,-1277,5986,1012,2025-01-29 10:34:37,0.0
-13864,-1964,-9172,-813,4144,1952,2025-01-29 10:34:37,0.0
-14736,-1760,-9120,-246,693,2846,2025-01-29 10:34:37,0.0
-14232,-1224,-9140,225,-3387,3709,2025-01-29 10:34:37,0.0
-12556,-352,-7920,716,-5980,4470,2025-01-29 10:34:37,0.0
-10424,56,-7688,1040,-6741,4923,2025-01-29 10:34:37,0.0
-8396,256,-7180,1270,-6401,5025,2025-01-29 10:34:37,0.0
-6908,168,-7240,1592,-4800,4898,2025-01-29 10:34:37,0.0
-6372,-128,-6708,2263,-1180,4577,2025-01-29 10:34:37,0.0
-6808,-104,-6536,2975,1942,4158,2025-01-29 10:34:37,0.0
-8216,288,-7104,3670,3586,3749,2025-01-29 10:34:37,0.0
-10072,292,-7572,4008,3710,3744,2025-01-29 10:34:37,0.0
-10428,864,-8020,4089,2813,3725,2025-01-29 10:34:37,0.0
-10192,1172,-8024,3972,1198,3275,2025-01-29 10:34:37,0.0
-10164,1440,-7760,3778,-413,2564,2025-01-29 10:34:37,0.0
-9652,1340,-7712,3366,-1482,1843,2025-01-29 10:34:37,0.0
-8868,1320,-7624,2909,-1253,1294,2025-01-29 10:34:37,0.0
-8468,1328,-7532,2687,438,745,2025-01-29 10:34:37,0.0
-9348,964,-6912,2835,1778,451,2025-01-29 10:34:37,0.0
-10516,536,-7164,2980,2294,365,2025-01-29 10:34:37,0.0
-11712,280,-6760,3069,2057,267,2025-01-29 10:34:37,0.0
-12348,468,-6424,3325,658,-111,2025-01-29 10:34:37,0.0
-12288,828,-6604,3403,-1424,-536,2025-01-29 10:34:37,0.0
-11780,1400,-6916,3346,-3102,-604,2025-01-29 10:34:37,0.0
-11004,1720,-6624,3226,-3561,-662,2025-01-29 10:34:37,0.0
-10048,1068,-6536,3039,-2754,-753,2025-01-29 10:34:37,0.0
-10400,16,-5852,3038,-480,-509,2025-01-29 10:34:37,0.0
-10836,-740,-6244,3434,2081,-76,2025-01-29 10:34:37,0.0
-12920,-952,-6804,3509,3128,44,2025-01-29 10:34:37,0.0
-14780,-1444,-6504,3562,2377,528,2025-01-29 10:34:37,0.0
-15244,-812,-6788,3493,241,1179,2025-01-29 10:34:37,0.0
-14504,-4,-6808,3015,-2146,1567,2025-01-29 10:34:37,0.0
-13540,248,-5556,2922,-3333,1626,2025-01-29 10:34:38,0.0
-12756,80,-5548,2898,-3016,1573,2025-01-29 10:34:38,0.0
-12740,-216,-5776,3064,-716,1440,2025-01-29 10:34:38,0.0
-13364,-552,-6972,3132,797,1484,2025-01-29 10:34:38,
-14136,352,-9256,2934,1685,1556,2025-01-29 10:34:38,0.0
-15240,1748,-10808,1885,1737,1648,2025-01-29 10:34:38,0.0
-15360,2256,-11916,740,765,1759,2025-01-29 10:34:38,0.0
-14776,1744,-12824,-419,-919,1755,2025-01-29 10:34:38,0.0
-13132,540,-11688,-1327,-3464,1397,2025-01-29 10:34:38,0.0
-11044,-1292,-9020,-1069,-5970,1047,2025-01-29 10:34:38,0.0
-8836,-1864,-6940,-77,-6887,759,2025-01-29 10:34:38,0.0
-6872,-2456,-5548,1295,-6439,335,2025-01-29 10:34:38,0.0
-5720,-3308,-5636,2759,-4132,-54,2025-01-29 10:34:38,0.0
-5536,-3072,-7548,3932,-107,-578,2025-01-29 10:34:38,0.0
-7180,-1996,-8880,4065,3694,-899,2025-01-29 10:34:38,0.0
-9056,-912,-9724,3277,5284,-924,2025-01-29 10:34:38,0.0
-10676,-756,-9588,2468,4950,-981,2025-01-29 10:34:38,0.0
-12196,-1200,-8892,1866,3844,-1029,2025-01-29 10:34:38,0.0
-12944,-1604,-8232,1672,2054,-913,2025-01-29 10:34:38,0.0
-12512,-1644,-8424,1659,-789,-804,2025-01-29 10:34:38,0.0
-11524,-1696,-8380,1708,-2482,-1069,2025-01-29 10:34:38,0.0
-10560,-1600,-7896,1681,-3053,-1441,2025-01-29 10:34:38,0.0
-9592,-1484,-7476,1586,-2641,-1679,2025-01-29 10:34:38,0.0
-8776,-1652,-7468,1223,-1492,-1911,2025-01-29 10:34:38,0.0
-8872,-1976,-7372,904,-43,-2020,2025-01-29 10:34:38,0.0
-9324,-2024,-7120,707,1164,-1931,2025-01-29 10:34:38,0.0
-9704,-1796,-7264,211,2027,-1693,2025-01-29 10:34:38,0.0
-10372,-1828,-7196,-239,2297,-1528,2025-01-29 10:34:38,0.0
-10700,-1908,-7268,-664,2088,-1267,2025-01-29 10:34:38,0.0
-10796,-2220,-7136,-965,1773,-1249,2025-01-29 10:34:38,0.0
-11060,-2568,-7064,-976,1544,-1224,2025-01-29 10:34:38,0.0
-11048,-2668,-7352,-905,1450,-1231,2025-01-29 10:34:38,0.0
-11372,-2464,-7440,-842,1391,-1231,2025-01-29 10:34:38,0.0
-11392,-1892,-7444,-996,1084,-1342,2025-01-29 10:34:38,0.0
-11276,-1216,-7900,-1423,556,-1399,2025-01-29 10:34:38,0.0
-11548,-888,-7836,-2136,375,-1418,2025-01-29 10:34:38,0.0
-11416,-864,-7452,-2775,338,-1671,2025-01-29 10:34:38,0.0
-11832,-1128,-7212,-3325,168,-1963,2025-01-29 10:34:38,0.0
-12128,-1720,-6968,-3709,-302,-1907,2025-01-29 10:34:38,0.0
-12040,-1940,-6932,-3782,-666,-1903,2025-01-29 10:34:38,0.0
-11900,-1968,-6852,-3847,-899,-1910,2025-01-29 10:34:38,0.0
-11700,-2388,-7036,-3934,-943,-1867,2025-01-29 10:34:38,0.0
-11720,-2628,-6480,-3769,-875,-1793,2025-01-29 10:34:38,0.0
-11712,-2284,-6812,-3795,-1123,-1671,2025-01-29 10:34:38,0.0
-11892,-1824,-6516,-4073,-1356,-1452,2025-01-29 10:34:38,0.0
-11840,-2084,-6628,-4280,-1300,-1070,2025-01-29 10:34:38,0.0
-11316,-2552,-7028,-4178,-1045,-900,2025-01-29 10:34:38,0.0
-11496,-2624,-7276,-3991,-738,-1180,2025-01-29 10:34:38,0.0
-11908,-3340,-7152,-3509,-594,-1568,2025-01-29 10:34:38,0.0
-12368,-4240,-7384,-2734,-1012,-1719,2025-01-29 10:34:38,0.0
-12344,-4304,-7912,-1909,-1473,-1704,2025-01-29 10:34:38,0.0
-12304,-3200,-8356,-1677,-1579,-1322,2025-01-29 10:34:38,0.0
-12308,-1872,-8408,-2129,-1142,-354,2025-01-29 10:34:38,0.0
-12036,-912,-9032,-2730,-750,585,2025-01-29 10:34:38,0.0
-11808,-508,-9208,-3194,-305,1408,2025-01-29 10:34:38,0.0
-11104,-620,-9204,-3545,-140,1991,2025-01-29 10:34:38,0.0
-10236,-1220,-8384,-3572,-504,2175,2025-01-29 10:34:38,0.0
-9268,-1764,-6928,-3196,-617,2116,2025-01-29 10:34:38,0.0
-8104,-1756,-5944,-2277,-247,1502,2025-01-29 10:34:38,0.0
-8152,-1188,-5488,-1415,706,761,2025-01-29 10:34:38,0.0
-8628,16,-5744,-549,1963,333,2025-01-29 10:34:39,0.0
-9596,1300,-6320,94,2985,247,2025-01-29 10:34:39,0.0
-10944,2024,-6460,301,3931,218,2025-01-29 10:34:39,0.0
-12556,1848,-6684,211,4602,208,2025-01-29 10:34:39,0.0
-14388,840,-7332,66,4343,551,2025-01-29 10:34:39,0.0
-15340,12,-8232,-138,2304,1242,2025-01-29 10:34:39,0.0
-14696,-116,-8616,-419,-573,1617,2025-01-29 10:34:39,0.0
-13200,92,-8168,-575,-2956,1491,2025-01-29 10:34:39,0.0
-11692,392,-7220,-546,-3929,1339,2025-01-29 10:34:39,0.0
-10300,716,-6556,-276,-3759,1333,2025-01-29 10:34:39,0.0
-9196,1436,-6396,-66,-2861,1379,2025-01-29 10:34:39,0.0
-8060,1912,-6796,-45,-1199,1196,2025-01-29 10:34:39,0.0
-7816,1616,-6848,1,1423,870,2025-01-29 10:34:39,0.0
-8740,916,-6460,296,3790,710,2025-01-29 10:34:39,0.0
-9864,428,-7100,723,5170,534,2025-01-29 10:34:39,0.0
-11112,-12,-7864,908,5324,410,2025-01-29 10:34:39,0.0
-12572,-484,-7616,1238,4147,423,2025-01-29 10:34:39,0.0
-13216,-748,-7280,1777,1899,524,2025-01-29 10:34:39,0.0
-12912,-216,-7820,2169,-507,437,2025-01-29 10:34:39,0.0
-12372,344,-8404,2278,-1668,529,2025-01-29 10:34:39,0.0
-11164,772,-8956,2136,-1801,649,2025-01-29 10:34:39,0.0
-10236,784,-8300,1809,-1274,545,2025-01-29 10:34:39,0.0
-10372,456,-6816,1880,-591,183,2025-01-29 10:34:39,0.0
-10648,20,-6388,2153,-197,-191,2025-01-29 10:34:39,0.0
-11256,-172,-6364,2509,-547,-536,2025-01-29 10:34:39,0.0
-11496,-648,-6460,2878,-1160,-545,2025-01-29 10:34:39,0.0
-11240,-844,-6680,3055,-1419,-600,2025-01-29 10:34:39,0.0
-10920,-796,-7144,3095,-951,-490,2025-01-29 10:34:39,0.0
-10564,-468,-7732,3131,236,-92,2025-01-29 10:34:39,0.0
-10440,-264,-7920,3024,1609,141,2025-01-29 10:34:39,0.0
-10952,-424,-8256,3127,2318,178,2025-01-29 10:34:39,0.0
-11624,-628,-9404,3273,1528,359,2025-01-29 10:34:39,0.0
-11656,-436,-10404,3224,-193,681,2025-01-29 10:34:39,0.0
-10708,-304,-10036,2405,-1227,473,2025-01-29 10:34:39,0.0
-9936,-296,-8252,1873,-1354,143,2025-01-29 10:34:39,0.0
-9492,-208,-7680,1570,-375,59,2025-01-29 10:34:39,0.0
-9364,128,-7716,1150,1646,-126,2025-01-29 10:34:39,0.0
-10152,-36,-8176,725,2805,-478,2025-01-29 10:34:39,0.0
-11348,-276,-7684,586,2945,-630,2025-01-29 10:34:39,0.0
-12224,-400,-7168,540,2427,-605,2025-01-29 10:34:39,0.0
-12364,-1172,-6712,494,1436,-516,2025-01-29 10:34:39,0.0
-12148,-1920,-6408,677,632,-397,2025-01-29 10:34:39,0.0
-11188,-2088,-7036,844,462,-202,2025-01-29 10:34:39,0.0
-10512,-1932,-7416,973,727,-176,2025-01-29 10:34:39,
-10360,-1584,-7196,1215,1585,47,2025-01-29 10:34:39,0.0
-10368,-1236,-7520,1285,2322,90,2025-01-29 10:34:39,0.0
-10856,-1040,-7884,1278,2507,42,2025-01-29 10:34:39,0.0
-11460,-1072,-8196,1239,2172,67,2025-01-29 10:34:39,0.0
-11704,-1192,-8564,1050,1430,63,2025-01-29 10:34:39,0.0
-11812,-1172,-8528,899,710,92,2025-01-29 10:34:39,0.0
-11708,-1096,-8432,756,256,136,2025-01-29 10:34:39,0.0
-11256,-1216,-8040,519,68,46,2025-01-29 10:34:39,0.0
-10868,-1300,-7760,326,65,32,2025-01-29 10:34:39,0.0
-10436,-1256,-8128,214,378,91,2025-01-29 10:34:39,0.0
-10068,-904,-8096,82,739,25,2025-01-29 10:34:39,0.0
-10244,-1064,-7960,-107,1146,-217,2025-01-29 10:34:39,0.0
-10880,-1492,-7752,-87,1177,-248,2025-01-29 10:34:39,0.0
-11032,-1436,-7940,-112,784,-196,2025-01-29 10:34:39,0.0
-10912,-1404,-8048,-230,378,-307,2025-01-29 10:34:39,0.0
-11040,-1400,-8132,-204,211,-284,2025-01-29 10:34:39,0.0
-10696,-1328,-8548,-357,219,-320,2025-01-29 10:34:40,0.0
-10828,-1272,-8340,-546,328,-399,2025-01-29 10:34:40,0.0
-10900,-1360,-8116,-716,333,-327,2025-01-29 10:34:40,0.0
-10588,-1404,-8128,-844,478,-382,2025-01-29 10:34:40,0.0
-10828,-1416,-8064,-887,554,-493,2025-01-29 10:34:40,0.0
-10876,-1600,-8140,-940,440,-565,2025-01-29 10:34:40,0.0
-11016,-1612,-8104,-912,367,-613,2025-01-29 10:34:40,0.0
-11008,-1524,-8240,-901,180,-586,2025-01-29 10:34:40,0.0
-11032,-1528,-7984,-953,92,-583,2025-01-29 10:34:40,0.0
-10868,-1560,-7640,-861,211,-466,2025-01-29 10:34:40,0.0
-10720,-1560,-7904,-878,393,-441,2025-01-29 10:34:40,0.0
-10908,-1772,-7860,-855,502,-338,2025-01-29 10:34:40,0.0
-10976,-1696,-8116,-619,573,-193,2025-01-29 10:34:40,0.0
-10888,-1444,-8328,-567,449,-154,2025-01-29 10:34:40,0.0
-11020,-1364,-7972,-567,171,-100,2025-01-29 10:34:40,0.0
-11108,-1428,-7792,-511,28,-114,2025-01-29 10:34:40,0.0
-10776,-1336,-8148,-404,18,-65,2025-01-29 10:34:40,0.0
-10584,-1336,-8388,-362,36,-132,2025-01-29 10:34:40,0.0
-10536,-1388,-7940,-339,171,-184,2025-01-29 10:34:40,0.0
-10524,-1316,-7768,-186,255,-234,2025-01-29 10:34:40,0.0
-10700,-1188,-7680,-122,369,-210,2025-01-29 10:34:40,0.0
-10808,-944,-8008,-142,248,-102,2025-01-29 10:34:40,0.0
-10652,-1272,-8108,-204,172,-95,2025-01-29 10:34:40,0.0
-10668,-1144,-8264,-162,233,-67,2025-01-29 10:34:40,0.0
-10568,-796,-8280,-253,285,-113,2025-01-29 10:34:40,0.0
-10584,-640,-8164,-364,331,-163,2025-01-29 10:34:40,0.0
-10620,-788,-7984,-436,371,-225,2025-01-29 10:34:40,0.0
-10860,-876,-7960,-446,347,-218,2025-01-29 10:34:40,0.0
-10980,-1092,-8108,-421,296,-236,2025-01-29 10:34:40,0.0
-10960,-1196,-8152,-392,247,-232,2025-01-29 10:34:40,0.0
-10688,-1164,-8164,-327,270,-195,2025-01-29 10:34:40,0.0
-10720,-1072,-8044,-368,361,-245,2025-01-29 10:34:40,0.0
-10700,-984,-8208,-388,419,-214,2025-01-29 10:34:40,0.0
-10792,-960,-8116,-395,439,-262,2025-01-29 10:34:40,0.0
-10732,-984,-8144,-358,464,-272,2025-01-29 10:34:40,0.0
-10912,-1056,-8056,-339,372,-290,2025-01-29 10:34:40,0.0
-10752,-1020,-8092,-320,319,-269,2025-01-29 10:34:40,0.0
-11016,-976,-7848,-332,288,-314,2025-01-29 10:34:40,0.0
-11040,-908,-8088,-330,248,-282,2025-01-29 10:34:40,0.0
-10796,-924,-8188,-445,179,-291,2025-01-29 10:34:40,0.0
-10816,-768,-8072,-448,59,-309,2025-01-29 10:34:40,0.0
-10904,-812,-7904,-484,92,-276,2025-01-29 10:34:40,0.0
-10604,-964,-8024,-498,175,-339,2025-01-29 10:34:40,0.0
-10884,-1036,-8004,-502,248,-352,2025-01-29 10:34:40,0.0
-10908,-1024,-7952,-460,194,-364,2025-01-29 10:34:40,0.0
-11024,-944,-8076,-561,79,-348,2025-01-29 10:34:40,0.0
-10876,-888,-7868,-659,92,-341,2025-01-29 10:34:40,0.0
-10836,-1080,-8028,-680,55,-375,2025-01-29 10:34:40,0.0
-10636,-1168,-8156,-650,156,-357,2025-01-29 10:34:40,0.0
-10452,-1044,-7932,-571,353,-453,2025-01-29 10:34:40,0.0
-10784,-1040,-7800,-535,523,-461,2025-01-29 10:34:40,0.0
-10964,-944,-7948,-561,452,-507,2025-01-29 10:34:40,0.0
-11120,-1020,-8128,-520,137,-421,2025-01-29 10:34:40,0.0
-11216,-1152,-8168,-492,-66,-375,2025-01-29 10:34:40,0.0
-10932,-1168,-7928,-451,-184,-334,2025-01-29 10:34:40,0.0
-10516,-1044,-7764,-403,-132,-354,2025-01-29 10:34:40,0.0
-10464,-856,-7960,-395,73,-392,2025-01-29 10:34:40,0.0
-10560,-664,-8300,-522,383,-412,2025-01-29 10:34:40,0.0
-10800,-696,-8192,-605,489,-424,2025-01-29 10:34:40,0.0
-10972,-904,-8228,-599,399,-485,2025-01-29 10:34:40,0.0
-11036,-1140,-8088,-613,207,-507,2025-01-29 10:34:40,0.0
-11088,-1148,-7928,-539,25,-449,2025-01-29 10:34:40,0.0
-10924,-1236,-8184,-464,-59,-341,2025-01-29 10:34:41,0.0
-10540,-932,-8128,-467,20,-337,2025-01-29 10:34:41,0.0
-10456,-840,-8080,-472,165,-378,2025-01-29 10:34:41,0.0
-10560,-984,-7968,-453,427,-417,2025-01-29 10:34:41,0.0
-10740,-1088,-7864,-430,585,-398,2025-01-29 10:34:41,0.0
-10848,-1020,-8144,-431,496,-391,2025-01-29 10:34:41,0.0
-11100,-1072,-8272,-492,239,-377,2025-01-29 10:34:41,0.0
-11188,-1108,-8168,-490,-23,-342,2025-01-29 10:34:41,0.0
-11020,-980,-8072,-501,-204,-275,2025-01-29 10:34:41,0.0
-10640,-1016,-7972,-506,-220,-297,2025-01-29 10:34:41,0.0
-10564,-1260,-7812,-406,64,-330,2025-01-29 10:34:41,0.0
-10572,-1372,-7904,-238,275,-331,2025-01-29 10:34:41,0.0
-10736,-1164,-7952,-112,459,-327,2025-01-29 10:34:41,0.0
-10968,-1048,-8040,-80,407,-247,2025-01-29 10:34:41,0.0
-11120,-936,-8188,-119,197,-207,2025-01-29 10:34:41,0.0
-10980,-868,-7952,-148,-14,-198,2025-01-29 10:34:41,0.0
-10976,-1008,-7848,-175,-107,-215,2025-01-29 10:34:41,0.0
-10932,-1004,-7624,-119,-87,-135,2025-01-29 10:34:41,0.0
-10872,-1104,-7896,-45,69,-117,2025-01-29 10:34:41,0.0
-10724,-1088,-7964,-37,139,-97,2025-01-29 10:34:41,0.0
-10776,-1004,-8164,10,122,-94,2025-01-29 10:34:41,0.0
-10784,-892,-8224,2,77,-123,2025-01-29 10:34:41,
