acceleration_x,acceleration_y,acceleration_z,gyroscope_x,gyroscope_y,gyroscope_z,timestamp,label
-11900,-612,-6288,-363,232,-186,2025-01-29 10:48:20,0.0
-11780,-640,-6204,-354,184,-213,2025-01-29 10:48:20,0.0
-11840,-640,-6176,-356,213,-270,2025-01-29 10:48:20,0.0
-11948,-772,-6212,-327,276,-240,2025-01-29 10:48:20,0.0
-12068,-612,-6276,-267,231,-226,2025-01-29 10:48:20,0.0
-12076,-752,-6312,-222,125,-227,2025-01-29 10:48:20,0.0
-12028,-708,-6176,-222,-5,-211,2025-01-29 10:48:20,0.0
-11896,-744,-6156,-200,-34,-212,2025-01-29 10:48:20,0.0
-11740,-776,-6132,-177,36,-137,2025-01-29 10:48:20,0.0
-11832,-752,-6296,-118,177,-157,2025-01-29 10:48:20,0.0
-11860,-648,-6096,-117,223,-166,2025-01-29 10:48:20,0.0
-11892,-592,-6056,-139,204,-162,2025-01-29 10:48:20,0.0
-11980,-684,-6020,-93,123,-140,2025-01-29 10:48:20,0.0
-11840,-696,-6256,-116,127,-128,2025-01-29 10:48:20,0.0
-11984,-728,-6216,-113,182,-126,2025-01-29 10:48:20,0.0
-11836,-680,-6180,-123,159,-145,2025-01-29 10:48:20,0.0
-11936,-768,-6208,-157,66,-159,2025-01-29 10:48:20,0.0
-11900,-616,-6252,-199,39,-181,2025-01-29 10:48:20,0.0
-11900,-556,-6140,-231,119,-154,2025-01-29 10:48:20,0.0
-11992,-612,-6024,-224,127,-186,2025-01-29 10:48:21,0.0
-11988,-708,-5984,-217,-76,-145,2025-01-29 10:48:21,0.0
-11976,-816,-5852,-227,-149,-171,2025-01-29 10:48:21,0.0
-11836,-780,-6072,-218,0,-163,2025-01-29 10:48:21,0.0
-11840,-736,-6156,-226,219,-189,2025-01-29 10:48:21,0.0
-12004,-640,-6148,-274,373,-154,2025-01-29 10:48:21,0.0
-12068,-528,-6020,-303,414,-166,2025-01-29 10:48:21,0.0
-12200,-624,-6016,-304,327,-156,2025-01-29 10:48:21,0.0
-12008,-720,-6028,-283,244,-149,2025-01-29 10:48:21,0.0
-11820,-660,-6212,-268,328,-144,2025-01-29 10:48:21,0.0
-11836,-648,-6252,-283,398,-150,2025-01-29 10:48:21,0.0
-11920,-608,-6152,-263,474,-140,2025-01-29 10:48:21,0.0
-11928,-440,-6248,-272,419,-184,2025-01-29 10:48:21,0.0
-11888,-536,-6228,-320,464,-176,2025-01-29 10:48:21,0.0
-12008,-504,-6276,-350,392,-214,2025-01-29 10:48:21,0.0
-12084,-476,-6420,-381,316,-211,2025-01-29 10:48:21,0.0
-12064,-560,-6532,-400,218,-209,2025-01-29 10:48:21,0.0
-11908,-652,-6284,-418,155,-201,2025-01-29 10:48:21,0.0
-11856,-716,-6344,-427,125,-220,2025-01-29 10:48:21,0.0
-11780,-708,-6224,-416,139,-201,2025-01-29 10:48:21,0.0
-11740,-600,-6288,-409,189,-217,2025-01-29 10:48:21,0.0
-11732,-632,-6180,-406,314,-253,2025-01-29 10:48:21,0.0
-11720,-680,-6016,-373,381,-278,2025-01-29 10:48:21,0.0
-11864,-680,-6032,-332,464,-270,2025-01-29 10:48:21,0.0
-12024,-676,-6232,-312,402,-257,2025-01-29 10:48:21,0.0
-11916,-688,-6372,-210,322,-207,2025-01-29 10:48:21,0.0
-11948,-720,-6168,-183,229,-180,2025-01-29 10:48:21,0.0
-11968,-740,-6524,-111,135,-206,2025-01-29 10:48:21,0.0
-11908,-688,-6272,-92,90,-175,2025-01-29 10:48:21,0.0
-11892,-664,-6156,-61,62,-132,2025-01-29 10:48:21,0.0
-11912,-632,-6264,14,151,-112,2025-01-29 10:48:21,0.0
-11956,-700,-6104,-8,213,-96,2025-01-29 10:48:21,0.0
-12036,-772,-6100,67,216,-15,2025-01-29 10:48:21,0.0
-11916,-724,-6040,96,186,14,2025-01-29 10:48:21,0.0
-12084,-700,-6240,73,249,57,2025-01-29 10:48:21,0.0
-11952,-664,-6224,100,415,103,2025-01-29 10:48:21,0.0
-11904,-540,-6356,53,532,124,2025-01-29 10:48:21,0.0
-12076,-248,-6544,-63,461,118,2025-01-29 10:48:21,0.0
-12088,4,-6796,-184,305,154,2025-01-29 10:48:21,0.0
-12124,0,-6636,-438,353,218,2025-01-29 10:48:21,0.0
-12080,-336,-6376,-526,431,268,2025-01-29 10:48:21,0.0
-12088,-668,-6024,-547,420,219,2025-01-29 10:48:21,0.0
-12276,-460,-6656,1338,654,-48,2025-01-29 10:48:21,0.0
-12660,-728,-6380,1549,155,155,2025-01-29 10:48:21,0.0
-12492,-312,-5996,1580,-791,317,2025-01-29 10:48:21,0.0
-12136,140,-5608,1537,-1605,462,2025-01-29 10:48:21,0.0
-11580,556,-5772,1397,-1793,442,2025-01-29 10:48:21,0.0
-11228,708,-6020,1192,-1187,303,2025-01-29 10:48:22,0.0
-11224,1008,-6488,996,-143,77,2025-01-29 10:48:22,0.0
-11120,812,-6920,726,666,-394,2025-01-29 10:48:22,0.0
-11692,748,-6184,540,1330,-906,2025-01-29 10:48:22,0.0
-12088,828,-5788,453,1564,-1342,2025-01-29 10:48:22,0.0
-12292,664,-6268,163,1423,-1880,2025-01-29 10:48:22,0.0
-12476,92,-6480,-189,880,-2329,2025-01-29 10:48:22,0.0
-11920,-776,-6492,-147,-49,-2659,2025-01-29 10:48:22,0.0
-11472,-1780,-5888,30,18,-2934,2025-01-29 10:48:22,0.0
-11572,-1992,-5792,211,218,-3128,2025-01-29 10:48:22,0.0
-11908,-2008,-5236,348,309,-3004,2025-01-29 10:48:22,0.0
-12136,-2472,-4724,352,275,-2781,2025-01-29 10:48:22,0.0
-12336,-2576,-4024,307,375,-2520,2025-01-29 10:48:22,0.0
-12296,-2332,-4016,148,685,-2343,2025-01-29 10:48:22,0.0
-12200,-2296,-3952,49,1123,-2325,2025-01-29 10:48:22,0.0
-12372,-2120,-4028,-12,1466,-2262,2025-01-29 10:48:22,0.0
-12500,-2644,-4244,-278,1477,-2202,2025-01-29 10:48:22,0.0
-12620,-3104,-4116,-392,1112,-2289,2025-01-29 10:48:22,0.0
-12888,-3516,-4268,-267,707,-2152,2025-01-29 10:48:22,0.0
-12820,-3464,-4440,-98,377,-1620,2025-01-29 10:48:22,0.0
-12400,-3232,-4352,-112,37,-1156,2025-01-29 10:48:22,0.0
-11932,-2812,-4152,-95,-121,-1122,2025-01-29 10:48:22,0.0
-11736,-2544,-4096,-260,-283,-1033,2025-01-29 10:48:22,0.0
-11548,-2428,-4124,-662,-244,-696,2025-01-29 10:48:22,0.0
-11048,-2476,-4032,-1151,249,-450,2025-01-29 10:48:22,0.0
-11084,-2608,-4028,-1653,1163,-222,2025-01-29 10:48:22,0.0
-11084,-2716,-3928,-2091,1974,-98,2025-01-29 10:48:22,0.0
-11716,-2392,-3916,-2385,2615,-183,2025-01-29 10:48:22,0.0
-12324,-2596,-3752,-2611,2835,-201,2025-01-29 10:48:22,0.0
-12740,-2936,-3976,-2671,2466,-290,2025-01-29 10:48:22,0.0
-12764,-3296,-4220,-2722,1843,-523,2025-01-29 10:48:22,0.0
-12424,-3456,-4520,-2569,1339,-846,2025-01-29 10:48:22,0.0
-12120,-3124,-4936,-2377,1040,-1220,2025-01-29 10:48:22,0.0
-11604,-2624,-5800,-2451,1034,-1661,2025-01-29 10:48:22,
-11476,-2316,-6000,-2814,1681,-2201,2025-01-29 10:48:22,0.0
-12144,-2420,-5492,-3287,2296,-2549,2025-01-29 10:48:22,0.0
-12880,-2768,-5092,-3668,2450,-2758,2025-01-29 10:48:22,0.0
-13692,-3004,-4736,-4127,1839,-3037,2025-01-29 10:48:22,0.0
-13276,-3872,-6284,-4461,532,-3437,2025-01-29 10:48:22,0.0
-12740,-3964,-8540,-4261,537,-4247,2025-01-29 10:48:22,0.0
-13636,-4020,-8080,-3723,848,-5009,2025-01-29 10:48:22,0.0
-14068,-4900,-6384,-2448,246,-5503,2025-01-29 10:48:22,0.0
-15000,-6072,-5760,-939,-294,-5620,2025-01-29 10:48:22,0.0
-16096,-6416,-6708,-76,-947,-4798,2025-01-29 10:48:22,0.0
-17168,-6372,-7864,103,-1613,-2934,2025-01-29 10:48:22,0.0
-17208,-5096,-8020,-76,-2362,-225,2025-01-29 10:48:22,0.0
-13780,-3240,-7884,-480,-3326,1822,2025-01-29 10:48:22,0.0
-12084,-3208,-8508,-940,-3050,2302,2025-01-29 10:48:22,0.0
-10944,-2660,-9368,-1358,-2231,2620,2025-01-29 10:48:22,0.0
-10108,-1772,-9252,-1410,-1507,2792,2025-01-29 10:48:22,0.0
-9428,-884,-9072,-1217,-1202,2863,2025-01-29 10:48:22,0.0
-9180,156,-8888,-1238,-1029,2908,2025-01-29 10:48:22,0.0
-8968,996,-8496,-1382,-1045,2934,2025-01-29 10:48:22,0.0
-8792,1488,-8324,-1293,-661,2779,2025-01-29 10:48:22,0.0
-8588,1488,-8656,-1518,110,2265,2025-01-29 10:48:22,0.0
-9228,1076,-8360,-1861,1218,1677,2025-01-29 10:48:22,0.0
-10352,340,-7860,-1988,2112,1547,2025-01-29 10:48:22,0.0
-11944,-676,-7984,-1847,2676,2062,2025-01-29 10:48:22,0.0
-12268,-1484,-7936,-1405,2476,2418,2025-01-29 10:48:22,0.0
-12736,-1820,-7920,-1000,1265,2671,2025-01-29 10:48:22,0.0
-13220,-1512,-7380,-605,425,3279,2025-01-29 10:48:22,0.0
-12716,-656,-6808,-466,-1051,4191,2025-01-29 10:48:22,0.0
-10960,212,-6460,-524,-2160,4591,2025-01-29 10:48:22,0.0
-10020,1028,-6328,-641,-2421,4331,2025-01-29 10:48:22,0.0
-9620,1648,-5780,-720,-1743,4160,2025-01-29 10:48:23,0.0
-9232,1520,-5504,-700,-725,3852,2025-01-29 10:48:23,0.0
-9508,1308,-5364,-768,204,3329,2025-01-29 10:48:23,0.0
-10112,776,-5172,-713,511,2911,2025-01-29 10:48:23,0.0
-10360,220,-5248,-454,313,2363,2025-01-29 10:48:23,0.0
-10388,-84,-5192,-202,107,1788,2025-01-29 10:48:23,0.0
-10352,-100,-4856,101,179,1153,2025-01-29 10:48:23,0.0
-10388,320,-5024,380,233,580,2025-01-29 10:48:23,0.0
-10472,700,-4852,359,247,172,2025-01-29 10:48:23,0.0
-10920,1048,-4848,217,310,-56,2025-01-29 10:48:23,0.0
-11328,1012,-4684,226,366,-181,2025-01-29 10:48:23,0.0
-11692,676,-4576,299,101,-380,2025-01-29 10:48:23,0.0
-12168,420,-4444,623,-127,-445,2025-01-29 10:48:23,0.0
-11940,664,-4512,1010,-485,-283,2025-01-29 10:48:23,0.0
-11576,1216,-4804,1178,-885,-175,2025-01-29 10:48:23,0.0
-11544,1860,-5460,1092,-1110,-30,2025-01-29 10:48:23,0.0
-12080,2336,-5772,985,-553,192,2025-01-29 10:48:23,0.0
-12468,2416,-6020,955,-5,484,2025-01-29 10:48:23,0.0
-12644,1900,-6192,950,52,671,2025-01-29 10:48:23,0.0
-12652,1188,-5964,1108,-218,848,2025-01-29 10:48:23,0.0
-12192,1136,-5960,1374,-283,1062,2025-01-29 10:48:23,0.0
-12000,1520,-6260,1523,93,1032,2025-01-29 10:48:23,0.0
-12320,1536,-5928,1582,851,656,2025-01-29 10:48:23,0.0
-13544,1620,-5056,1941,1023,204,2025-01-29 10:48:23,0.0
-14548,2064,-4908,2092,-293,13,2025-01-29 10:48:23,0.0
-15376,2944,-6216,2119,-1578,156,2025-01-29 10:48:23,0.0
-15460,3200,-8068,1655,-1636,96,2025-01-29 10:48:23,0.0
-15760,3528,-10256,207,-1547,-226,2025-01-29 10:48:23,0.0
-15236,3220,-10108,-1101,-1748,-789,2025-01-29 10:48:23,0.0
-14712,2852,-9220,-1796,-2300,-1339,2025-01-29 10:48:23,0.0
-13220,2040,-9208,-2464,-3803,-1736,2025-01-29 10:48:23,0.0
-11440,-232,-8624,-3152,-4836,-2102,2025-01-29 10:48:23,0.0
-9908,-2208,-7004,-2624,-4687,-2225,2025-01-29 10:48:23,0.0
-9228,-4048,-5640,-1238,-3182,-2071,2025-01-29 10:48:23,0.0
-8744,-5256,-5924,349,-339,-1880,2025-01-29 10:48:23,0.0
-9524,-4944,-7440,1387,2577,-2019,2025-01-29 10:48:23,0.0
-10984,-2972,-8048,1740,3346,-1936,2025-01-29 10:48:23,0.0
-12268,-892,-8392,1716,2584,-1825,2025-01-29 10:48:23,0.0
-12540,236,-7440,1319,1335,-1674,2025-01-29 10:48:23,0.0
-11768,-16,-7200,477,-89,-2191,2025-01-29 10:48:23,0.0
-11176,-688,-7424,-182,-1696,-2573,2025-01-29 10:48:23,0.0
-10864,-1084,-7004,-317,-2387,-2677,2025-01-29 10:48:23,0.0
-10116,-1404,-7184,-532,-1929,-2812,2025-01-29 10:48:23,0.0
-9012,-1760,-6928,-904,-1214,-3056,2025-01-29 10:48:23,0.0
-9564,-1952,-6372,-1268,-523,-3299,2025-01-29 10:48:23,0.0
-10264,-2264,-6480,-1700,194,-3242,2025-01-29 10:48:23,0.0
-10884,-2380,-5652,-1826,401,-3215,2025-01-29 10:48:23,0.0
-11476,-2816,-4980,-1582,-28,-3433,2025-01-29 10:48:23,0.0
-12088,-3116,-4856,-1402,-895,-3623,2025-01-29 10:48:23,0.0
-12716,-3044,-4844,-1367,-2038,-3321,2025-01-29 10:48:23,0.0
-12520,-2052,-4972,-1340,-3012,-2483,2025-01-29 10:48:23,0.0
-11472,-1528,-5024,-1304,-2641,-2225,2025-01-29 10:48:23,0.0
-10724,-1640,-5124,-1411,-1789,-2141,2025-01-29 10:48:23,0.0
-11648,-1976,-4092,-1547,-730,-2031,2025-01-29 10:48:23,0.0
-10800,-2328,-4944,-1716,516,-1942,2025-01-29 10:48:23,0.0
-11068,-2708,-5052,-1707,1689,-1632,2025-01-29 10:48:23,0.0
-11688,-2388,-4716,-1409,1735,-1155,2025-01-29 10:48:23,0.0
-11812,-1928,-4824,-1378,1063,-619,2025-01-29 10:48:23,0.0
-11136,-2084,-5332,-1485,286,-173,2025-01-29 10:48:23,0.0
-10052,-2308,-5396,-1684,146,32,2025-01-29 10:48:23,0.0
-9324,-1928,-5340,-1866,861,-279,2025-01-29 10:48:23,0.0
-9000,-1460,-5780,-2242,2524,-633,2025-01-29 10:48:24,0.0
-9936,-1316,-5756,-2826,4558,-921,2025-01-29 10:48:24,0.0
-11572,-1944,-5624,-3090,5882,-1127,2025-01-29 10:48:24,0.0
-13132,-2532,-5428,-3178,5650,-1060,2025-01-29 10:48:24,0.0
-13836,-3348,-5500,-3192,4242,-772,2025-01-29 10:48:24,0.0
-14160,-3988,-5460,-2831,2358,-595,2025-01-29 10:48:24,0.0
-14196,-4108,-5940,-2210,962,-422,2025-01-29 10:48:24,0.0
-13564,-3540,-5436,-1579,327,-411,2025-01-29 10:48:24,0.0
-13244,-2752,-5284,-1462,-102,-690,2025-01-29 10:48:24,
-13672,-1632,-5008,-1560,226,-745,2025-01-29 10:48:24,0.0
-13980,-892,-4912,-1954,646,-588,2025-01-29 10:48:24,0.0
-14368,-948,-4960,-2638,523,-563,2025-01-29 10:48:24,0.0
-14544,-1352,-3952,-2971,-128,-358,2025-01-29 10:48:24,0.0
-14096,-2420,-3732,-2973,-743,-110,2025-01-29 10:48:24,0.0
-12516,-3948,-5328,-2916,-607,-1122,2025-01-29 10:48:24,0.0
-13216,-4272,-7184,-2095,927,-2559,2025-01-29 10:48:24,0.0
-15408,-4240,-7152,-703,1459,-2862,2025-01-29 10:48:24,0.0
-17164,-3856,-7148,539,288,-1669,2025-01-29 10:48:24,0.0
-16988,-2920,-8416,442,-2063,307,2025-01-29 10:48:24,0.0
-14904,-2492,-9288,-66,-3729,1297,2025-01-29 10:48:24,0.0
-12488,-2452,-9516,-161,-4181,1419,2025-01-29 10:48:24,0.0
-10224,-2408,-9172,-131,-4505,1581,2025-01-29 10:48:24,0.0
-7592,-1896,-8604,-146,-4709,1745,2025-01-29 10:48:24,0.0
-6660,-1180,-8416,-193,-2985,1789,2025-01-29 10:48:24,0.0
-6932,-456,-8760,-105,819,1871,2025-01-29 10:48:24,0.0
-8896,28,-9196,-256,5239,1927,2025-01-29 10:48:24,0.0
-11232,616,-9068,-487,7304,2147,2025-01-29 10:48:24,0.0
-13016,920,-9124,-532,6383,2324,2025-01-29 10:48:24,0.0
-13908,712,-8784,-846,2811,2653,2025-01-29 10:48:24,0.0
-13604,32,-7484,-903,-680,3198,2025-01-29 10:48:24,0.0
-12380,-652,-7004,-437,-1759,3534,2025-01-29 10:48:24,0.0
-10580,-852,-6896,87,-2373,3350,2025-01-29 10:48:24,0.0
-9288,-968,-6360,535,-2478,2789,2025-01-29 10:48:24,0.0
-9268,-1056,-5524,1210,-1358,2389,2025-01-29 10:48:24,0.0
-9932,-956,-5432,1835,174,2943,2025-01-29 10:48:24,0.0
-10484,-688,-5548,2208,1618,3729,2025-01-29 10:48:24,0.0
-11332,-396,-5252,2402,2377,4185,2025-01-29 10:48:24,0.0
-11984,-44,-4920,2519,2129,4339,2025-01-29 10:48:24,0.0
-12636,352,-4908,2603,1154,4255,2025-01-29 10:48:24,0.0
-12672,508,-5392,2390,-637,4064,2025-01-29 10:48:24,0.0
-11952,556,-5824,2272,-2186,3690,2025-01-29 10:48:24,0.0
-10796,672,-5972,2183,-2804,3155,2025-01-29 10:48:24,0.0
-10396,744,-5344,2331,-2558,2726,2025-01-29 10:48:24,0.0
-10172,1296,-5300,2375,-1717,2614,2025-01-29 10:48:24,0.0
-10016,1400,-4996,2447,-859,2462,2025-01-29 10:48:24,0.0
-10500,212,-4404,2702,-908,961,2025-01-29 10:48:24,0.0
-10276,0,-4476,2862,-893,348,2025-01-29 10:48:24,0.0
-10140,-172,-4536,3116,-790,-153,2025-01-29 10:48:24,0.0
-10204,320,-4364,3458,-302,-293,2025-01-29 10:48:24,0.0
-10016,1004,-4292,3488,185,-409,2025-01-29 10:48:24,0.0
-9904,1776,-4440,3403,820,-876,2025-01-29 10:48:24,0.0
-9872,2432,-5128,3471,1364,-1696,2025-01-29 10:48:24,0.0
-10708,2212,-6008,3136,1878,-2281,2025-01-29 10:48:24,0.0
-11796,1740,-6168,2570,2261,-2123,2025-01-29 10:48:24,0.0
-12868,924,-6244,2007,2814,-1788,2025-01-29 10:48:24,0.0
-14292,904,-6408,1553,2795,-1444,2025-01-29 10:48:24,0.0
-15432,284,-6116,1029,2004,-647,2025-01-29 10:48:24,0.0
-15384,-676,-5460,1050,152,415,2025-01-29 10:48:24,0.0
-14440,-1432,-5404,1558,-743,1248,2025-01-29 10:48:24,0.0
-13276,-1848,-4936,2329,97,1589,2025-01-29 10:48:24,0.0
-12788,-2084,-4192,3366,1801,1612,2025-01-29 10:48:25,0.0
-13276,-1820,-3788,4432,3121,1574,2025-01-29 10:48:25,0.0
-15180,-1116,-5280,5363,3908,1964,2025-01-29 10:48:25,0.0
-16956,-208,-7404,5256,4395,2875,2025-01-29 10:48:25,0.0
-17632,1060,-9836,4249,4081,3824,2025-01-29 10:48:25,0.0
-18128,2784,-11560,2710,3276,4791,2025-01-29 10:48:25,0.0
-17316,3940,-12248,684,1634,5436,2025-01-29 10:48:25,0.0
-15440,3920,-10596,-837,-694,4555,2025-01-29 10:48:25,0.0
-13112,2544,-6880,-724,-3664,1505,2025-01-29 10:48:25,0.0
-11884,1024,-7316,-390,-5489,-79,2025-01-29 10:48:25,0.0
-9760,-352,-6596,701,-5737,-809,2025-01-29 10:48:25,0.0
-7932,-1132,-6136,1765,-4930,-1638,2025-01-29 10:48:25,0.0
-7304,-1696,-6136,2558,-4053,-1981,2025-01-29 10:48:25,0.0
-7024,-2840,-6688,3189,-2118,-1864,2025-01-29 10:48:25,0.0
-7252,-3752,-7916,3606,849,-1685,2025-01-29 10:48:25,0.0
-8468,-2836,-9072,3647,3382,-1361,2025-01-29 10:48:25,0.0
-9940,-1308,-9492,2988,4171,-1024,2025-01-29 10:48:25,0.0
-10592,-224,-9644,2280,3276,-902,2025-01-29 10:48:25,0.0
-10960,540,-8100,1351,1789,-753,2025-01-29 10:48:25,0.0
-10200,936,-7808,146,-33,-1242,2025-01-29 10:48:25,0.0
-10016,660,-8056,-1025,-1182,-2095,2025-01-29 10:48:25,0.0
-9684,-240,-7800,-1510,-1186,-2571,2025-01-29 10:48:25,0.0
-9536,-1112,-7660,-1632,-601,-3083,2025-01-29 10:48:25,0.0
-9724,-1932,-7640,-1619,39,-3486,2025-01-29 10:48:25,0.0
-10224,-2448,-7096,-1586,504,-3539,2025-01-29 10:48:25,0.0
-10444,-2828,-7144,-1596,716,-3483,2025-01-29 10:48:25,0.0
-10836,-2620,-6984,-1613,806,-3358,2025-01-29 10:48:25,0.0
-11164,-1884,-6764,-1746,1014,-3072,2025-01-29 10:48:25,0.0
-11332,-1596,-6608,-2102,937,-2905,2025-01-29 10:48:25,0.0
-11448,-1604,-6236,-2025,622,-2778,2025-01-29 10:48:25,0.0
-11520,-1780,-6136,-1914,357,-2725,2025-01-29 10:48:25,0.0
-11628,-2256,-6084,-1848,265,-2702,2025-01-29 10:48:25,0.0
-11548,-2780,-5860,-1563,-17,-2609,2025-01-29 10:48:25,0.0
-11768,-2984,-5440,-1214,-283,-2119,2025-01-29 10:48:25,0.0
-11580,-2896,-5700,-1027,-261,-1504,2025-01-29 10:48:25,0.0
-11472,-2428,-5624,-1070,-321,-1052,2025-01-29 10:48:25,0.0
-11484,-2164,-5484,-1050,-458,-639,2025-01-29 10:48:25,0.0
-11428,-2024,-5384,-1122,-468,-108,2025-01-29 10:48:25,0.0
-11176,-1820,-5496,-1248,-425,214,2025-01-29 10:48:25,0.0
-11156,-1852,-5576,-1440,-318,389,2025-01-29 10:48:25,0.0
-11172,-1872,-5648,-1604,-353,438,2025-01-29 10:48:25,0.0
-11460,-1580,-5276,-1717,-369,393,2025-01-29 10:48:25,0.0
-11372,-1328,-5508,-1833,-626,758,2025-01-29 10:48:25,0.0
-10644,-1440,-6472,-2025,-499,836,2025-01-29 10:48:25,0.0
-10212,-2160,-6340,-2365,529,413,2025-01-29 10:48:25,0.0
-10316,-2208,-6368,-2534,1857,-238,2025-01-29 10:48:25,0.0
-11576,-1740,-5972,-2838,2507,-1152,2025-01-29 10:48:25,0.0
-12680,-684,-6528,-3283,1956,-2014,2025-01-29 10:48:25,0.0
-13864,1596,-7084,-3876,480,-2691,2025-01-29 10:48:25,
-14824,1620,-7240,-5216,-1166,-2858,2025-01-29 10:48:25,0.0
-14140,-736,-5300,-5754,-2390,-2193,2025-01-29 10:48:25,0.0
-12792,-7020,-3088,-3142,811,-2066,2025-01-29 10:48:25,0.0
-13368,-6316,-2420,-1886,1451,-1374,2025-01-29 10:48:25,0.0
-14112,-4536,-2124,-1126,1133,-805,2025-01-29 10:48:25,0.0
-14744,-2032,-3760,-1179,-218,-270,2025-01-29 10:48:25,0.0
-14804,-1316,-6132,-1666,-898,209,2025-01-29 10:48:26,0.0
-14444,-1996,-7844,-1431,-418,-291,2025-01-29 10:48:26,0.0
-14100,-2872,-7604,-569,241,-1476,2025-01-29 10:48:26,0.0
-14556,-3516,-7160,651,598,-2788,2025-01-29 10:48:26,0.0
-15528,-3208,-8152,1452,-102,-3182,2025-01-29 10:48:26,0.0
-16064,-1904,-9972,1098,-1637,-2098,2025-01-29 10:48:26,0.0
-14792,-508,-10532,158,-2357,-528,2025-01-29 10:48:26,0.0
-12728,368,-9916,-895,-2330,23,2025-01-29 10:48:26,0.0
-10876,808,-9672,-2288,-2627,222,2025-01-29 10:48:26,0.0
-9500,1164,-9688,-3306,-3092,196,2025-01-29 10:48:26,0.0
-8416,964,-8876,-3713,-2822,199,2025-01-29 10:48:26,0.0
-7720,108,-7612,-3442,-1511,-87,2025-01-29 10:48:26,0.0
-8084,-388,-6856,-2802,660,-269,2025-01-29 10:48:26,0.0
-8932,-392,-7528,-2255,2096,-31,2025-01-29 10:48:26,0.0
-10208,-60,-8492,-1853,2694,332,2025-01-29 10:48:26,0.0
-11240,384,-8864,-1707,2779,813,2025-01-29 10:48:26,0.0
-11852,132,-7928,-1780,2350,1086,2025-01-29 10:48:26,0.0
-12620,-224,-7264,-1800,1333,1412,2025-01-29 10:48:26,0.0
-13104,-236,-7484,-1641,541,2120,2025-01-29 10:48:26,0.0
-12660,-148,-7396,-1506,-382,2786,2025-01-29 10:48:26,0.0
-12128,256,-7440,-1462,-1144,3265,2025-01-29 10:48:26,0.0
-11204,308,-6956,-1300,-1581,3368,2025-01-29 10:48:26,0.0
-10012,436,-6580,-991,-1927,2945,2025-01-29 10:48:26,0.0
-9544,940,-6352,-702,-1744,2376,2025-01-29 10:48:26,0.0
-9448,1484,-6320,-469,-1193,2039,2025-01-29 10:48:26,0.0
-9156,1520,-6056,-381,-340,1702,2025-01-29 10:48:26,0.0
-9196,1368,-6064,-252,701,1150,2025-01-29 10:48:26,0.0
-10236,1436,-6380,-254,1581,847,2025-01-29 10:48:26,0.0
-10628,1388,-6752,-239,1772,823,2025-01-29 10:48:26,0.0
-11140,824,-6832,27,1842,681,2025-01-29 10:48:26,0.0
-11796,432,-6704,347,1223,639,2025-01-29 10:48:26,0.0
-12348,124,-7004,822,284,655,2025-01-29 10:48:26,0.0
-12640,204,-6628,1380,-688,912,2025-01-29 10:48:26,0.0
-12264,640,-6752,1738,-1738,1046,2025-01-29 10:48:26,0.0
-11880,1304,-7088,1789,-2863,916,2025-01-29 10:48:26,0.0
-11268,1964,-7208,1710,-3336,871,2025-01-29 10:48:26,0.0
-10788,2112,-6248,1840,-2683,601,2025-01-29 10:48:26,0.0
-10576,1768,-6148,1965,-1573,517,2025-01-29 10:48:26,0.0
-10448,1412,-6628,2040,-275,632,2025-01-29 10:48:26,0.0
-10584,1116,-6704,2234,618,816,2025-01-29 10:48:26,0.0
-10620,1020,-6544,2451,1271,891,2025-01-29 10:48:26,0.0
-10780,1080,-6592,2510,2305,906,2025-01-29 10:48:26,0.0
-10820,1240,-6536,2643,2641,680,2025-01-29 10:48:26,0.0
-11112,1664,-6564,2708,2231,180,2025-01-29 10:48:26,0.0
-11352,1488,-5996,2629,1261,-602,2025-01-29 10:48:26,0.0
-11640,1596,-5816,2767,252,-1021,2025-01-29 10:48:26,0.0
-11344,1588,-6552,2677,-499,-1356,2025-01-29 10:48:26,0.0
-10824,1084,-6428,2383,-633,-1628,2025-01-29 10:48:26,0.0
-9988,876,-6016,2331,-421,-1791,2025-01-29 10:48:26,0.0
-9508,668,-6228,2255,187,-2141,2025-01-29 10:48:26,0.0
-10032,468,-7220,1909,1248,-2267,2025-01-29 10:48:26,0.0
-11364,532,-8908,1671,2260,-2110,2025-01-29 10:48:26,0.0
-13052,168,-10132,893,3720,-1754,2025-01-29 10:48:26,0.0
-13556,-728,-9908,457,3343,-1552,2025-01-29 10:48:26,0.0
-13208,-1496,-8744,625,1019,-1501,2025-01-29 10:48:26,0.0
-12048,-2428,-7100,757,-1144,-1265,2025-01-29 10:48:26,0.0
-10680,-3180,-5984,1178,-1363,-958,2025-01-29 10:48:26,0.0
-10112,-3164,-5760,1537,-240,-368,2025-01-29 10:48:26,0.0
-9648,-3308,-5808,1624,1474,-58,2025-01-29 10:48:26,0.0
-9788,-3504,-5908,1918,2891,-73,2025-01-29 10:48:26,0.0
-11328,-3864,-6604,2304,3752,6,2025-01-29 10:48:26,0.0
-12652,-3256,-6972,2255,3810,383,2025-01-29 10:48:26,0.0
-13464,-2324,-7376,1976,2820,932,2025-01-29 10:48:26,0.0
-13048,-1648,-7684,1589,1072,1114,2025-01-29 10:48:26,0.0
-12072,-1624,-7908,1417,20,1213,2025-01-29 10:48:26,0.0
-10788,-1776,-8260,1119,-390,1245,2025-01-29 10:48:27,0.0
-10196,-1956,-8184,819,-121,1382,2025-01-29 10:48:27,0.0
-10188,-1680,-8488,682,848,1059,2025-01-29 10:48:27,0.0
-10300,-924,-8416,765,1758,-442,2025-01-29 10:48:27,0.0
-14816,-748,-9364,23,762,-630,2025-01-29 10:48:27,0.0
-14176,-1192,-6044,-1389,-2261,848,2025-01-29 10:48:27,0.0
-11928,-1620,-5452,-485,-4468,823,2025-01-29 10:48:27,0.0
-11320,-1604,-7132,-859,-4369,1268,2025-01-29 10:48:27,0.0
-9212,-1420,-5520,-702,-3050,1069,2025-01-29 10:48:27,0.0
-9664,-1640,-6000,112,-1471,801,2025-01-29 10:48:27,0.0
-9188,-1132,-6428,396,366,634,2025-01-29 10:48:27,0.0
-9440,-796,-6180,-1328,-6465,-1397,2025-01-29 10:48:27,0.0
-8884,-796,-6924,-1266,-6470,-1128,2025-01-29 10:48:27,0.0
-7856,-484,-7556,-996,-5722,-540,2025-01-29 10:48:27,0.0
-6472,-308,-6408,-915,-4040,-451,2025-01-29 10:48:27,0.0
-5340,-728,-4208,-532,-2684,-562,2025-01-29 10:48:27,0.0
-4204,-720,-3312,-725,-1729,-1278,2025-01-29 10:48:27,0.0
-3660,-568,-1692,-686,-1598,-2154,2025-01-29 10:48:27,0.0
1668,280,1808,-351,-2989,-3427,2025-01-29 10:48:27,0.0
-5556,244,-920,-1432,-1597,-3201,2025-01-29 10:48:27,0.0
-2308,180,-136,-1249,-982,-2886,2025-01-29 10:48:27,0.0
-7008,276,1440,-1666,-1898,-1884,2025-01-29 10:48:27,0.0
-8900,1148,1392,-1760,-3273,-767,2025-01-29 10:48:27,0.0
-10480,944,64,-1679,-4858,-52,2025-01-29 10:48:27,0.0
-12668,-40,-1688,-1349,-4715,-158,2025-01-29 10:48:27,0.0
-12480,-664,-1988,-964,-4830,-499,2025-01-29 10:48:27,0.0
-15000,-1676,-3552,-445,-5278,-562,2025-01-29 10:48:27,0.0
-19404,-2068,-3648,-811,-7588,-444,2025-01-29 10:48:27,0.0
-22552,-1488,-4468,-833,-8920,423,2025-01-29 10:48:30,
-22624,-1148,-4716,-1061,-8510,1630,2025-01-29 10:48:30,0.0
-22624,-1020,-5052,-1310,-7598,1925,2025-01-29 10:48:30,0.0
-24112,-988,-5564,-1546,-7407,2160,2025-01-29 10:48:32,0.0
-25744,-824,-5952,-1656,-6360,1830,2025-01-29 10:48:32,0.0
-28276,-284,-5652,-1807,-4081,472,2025-01-29 10:48:32,0.0
-26260,224,-7876,-2775,-5674,-2038,2025-01-29 10:48:32,0.0
2752,180,-8272,-429,2968,1755,2025-01-29 10:48:32,0.0
9440,2916,-9092,744,-242,1667,2025-01-29 10:48:32,0.0
-10236,-2172,-7680,-9853,472,-5291,2025-01-29 10:48:32,0.0
-10700,-2220,-7968,-10764,1100,-5643,2025-01-29 10:48:32,0.0
-11408,-2484,-7552,-11279,1387,-5860,2025-01-29 10:48:32,0.0
-7764,800,-9176,-1611,-2268,2717,2025-01-29 10:48:32,0.0
-7788,1524,-8520,-1362,20,2519,2025-01-29 10:48:32,0.0
-8604,1584,-7816,-1274,1748,1592,2025-01-29 10:48:32,0.0
-10904,2004,-7636,-1685,2539,917,2025-01-29 10:48:32,0.0
-12924,928,-7204,-2470,2415,993,2025-01-29 10:48:32,0.0
-13544,-712,-5912,-2313,1446,1518,2025-01-29 10:48:32,0.0
-13980,-2568,-6140,-1522,-366,2179,2025-01-29 10:48:32,0.0
-13224,-2780,-6276,-760,-890,2546,2025-01-29 10:48:32,0.0
-12200,-2468,-6152,49,-1750,2568,2025-01-29 10:48:32,0.0
-11668,-1348,-5612,846,-2195,2812,2025-01-29 10:48:32,0.0
-11172,-404,-5512,1607,-2270,3399,2025-01-29 10:48:32,0.0
-10480,528,-5680,2079,-1823,3963,2025-01-29 10:48:32,0.0
-9876,1380,-6100,2200,-1134,4241,2025-01-29 10:48:32,0.0
-9436,1764,-6380,1912,-264,4098,2025-01-29 10:48:32,0.0
-9284,1456,-6084,1598,293,3444,2025-01-29 10:48:32,0.0
-9688,984,-5940,1551,251,2920,2025-01-29 10:48:32,0.0
-10268,712,-5804,1474,-19,2700,2025-01-29 10:48:32,0.0
-10560,900,-5828,1469,-247,2714,2025-01-29 10:48:32,0.0
-10352,1212,-5896,1487,-331,2460,2025-01-29 10:48:32,0.0
-10492,1532,-6060,1565,-331,2057,2025-01-29 10:48:32,0.0
-10540,1372,-6348,1502,-274,1652,2025-01-29 10:48:32,0.0
-10920,1080,-5800,1396,-666,1304,2025-01-29 10:48:32,0.0
-11376,844,-5408,1475,-813,1136,2025-01-29 10:48:32,0.0
-11452,664,-5228,1558,-1058,1071,2025-01-29 10:48:32,0.0
-11232,664,-5244,1739,-1401,906,2025-01-29 10:48:32,0.0
-11112,828,-5164,1855,-1383,603,2025-01-29 10:48:32,0.0
-11352,1148,-5112,1936,-1276,424,2025-01-29 10:48:32,0.0
-11336,1576,-4852,1993,-1024,369,2025-01-29 10:48:32,0.0
-11156,1772,-4712,2045,-816,234,2025-01-29 10:48:33,0.0
-10744,1652,-5044,1970,-755,17,2025-01-29 10:48:33,0.0
-10552,1320,-5512,1855,-333,-122,2025-01-29 10:48:33,0.0
-10772,972,-5864,1890,308,-90,2025-01-29 10:48:33,0.0
-11472,384,-5472,1808,1642,290,2025-01-29 10:48:33,0.0
-12656,-708,-3448,2295,2744,464,2025-01-29 10:48:33,0.0
-14076,-816,-4196,2993,2361,311,2025-01-29 10:48:33,0.0
-15088,-376,-4680,3498,1203,494,2025-01-29 10:48:33,0.0
-14948,-260,-4540,4196,-261,510,2025-01-29 10:48:33,0.0
-14316,692,-4584,4401,-1485,739,2025-01-29 10:48:33,0.0
-13380,1236,-3836,4185,-1477,925,2025-01-29 10:48:33,0.0
-13300,1624,-2852,4232,-98,1118,2025-01-29 10:48:33,0.0
-13828,1544,-4336,3921,1787,1345,2025-01-29 10:48:33,0.0
-14728,852,-5904,3315,3732,1836,2025-01-29 10:48:33,0.0
-15960,2080,-8548,2331,5132,2520,2025-01-29 10:48:33,0.0
-16896,3900,-10216,789,4800,3267,2025-01-29 10:48:33,0.0
-16272,5208,-10512,-1113,3162,3514,2025-01-29 10:48:33,0.0
-13964,5532,-9272,-2282,413,2078,2025-01-29 10:48:33,0.0
-12160,3576,-9396,-2574,-1960,-1106,2025-01-29 10:48:33,0.0
-13212,908,-9664,-3044,-2921,-2145,2025-01-29 10:48:33,0.0
-12076,-528,-8504,-2639,-3793,-1682,2025-01-29 10:48:33,0.0
-9844,-1284,-7668,-1750,-4033,-1607,2025-01-29 10:48:33,0.0
-8536,-2012,-7364,-979,-3237,-2288,2025-01-29 10:48:33,0.0
-8212,-2680,-7204,-233,-1971,-2949,2025-01-29 10:48:33,0.0
-8572,-3136,-7752,-101,-590,-3033,2025-01-29 10:48:33,0.0
-9152,-3016,-7212,-198,593,-2713,2025-01-29 10:48:33,0.0
-9632,-1724,-6948,-11,1918,-2159,2025-01-29 10:48:33,0.0
-9584,44,-6704,-7,2813,-2084,2025-01-29 10:48:33,0.0
-9880,948,-7220,-758,2396,-2892,2025-01-29 10:48:33,0.0
-10960,968,-7196,-1453,1794,-3595,2025-01-29 10:48:33,0.0
-11788,100,-7332,-1844,1319,-3928,2025-01-29 10:48:33,0.0
-12156,-1128,-7184,-1642,351,-4315,2025-01-29 10:48:33,0.0
-12244,-1816,-6740,-1276,-1239,-4368,2025-01-29 10:48:33,0.0
-11720,-2144,-6192,-1162,-2220,-3870,2025-01-29 10:48:33,0.0
-10404,-2076,-6512,-1255,-2152,-3101,2025-01-29 10:48:33,0.0
-9492,-1956,-6452,-1386,-1185,-2728,2025-01-29 10:48:33,0.0
-8832,-1852,-5996,-1525,154,-2935,2025-01-29 10:48:33,0.0
-9224,-1412,-5576,-1599,1133,-3036,2025-01-29 10:48:33,0.0
-10036,-1148,-4948,-1952,1865,-2870,2025-01-29 10:48:33,0.0
-10704,-1228,-4816,-2020,2258,-2655,2025-01-29 10:48:33,0.0
-11512,-1472,-4884,-2138,2375,-2557,2025-01-29 10:48:33,0.0
-11808,-1852,-5700,-2327,1972,-2577,2025-01-29 10:48:33,0.0
-12356,-2312,-5788,-2478,1055,-2325,2025-01-29 10:48:33,0.0
-12332,-2252,-5476,-2618,170,-1748,2025-01-29 10:48:33,0.0
-11444,-1404,-4940,-2841,-398,-1548,2025-01-29 10:48:33,0.0
-11544,-452,-4968,-3333,-446,-1409,2025-01-29 10:48:33,0.0
-11668,-144,-4684,-3966,-506,-1046,2025-01-29 10:48:33,0.0
-11704,-984,-4700,-4445,-508,-789,2025-01-29 10:48:33,0.0
-11712,-2368,-4832,-4505,-774,-1014,2025-01-29 10:48:33,0.0
-11288,-2652,-5448,-4269,-1081,-1634,2025-01-29 10:48:33,0.0
-11184,-2576,-5820,-3788,-1412,-2291,2025-01-29 10:48:33,0.0
-11568,-2296,-5564,-3191,-1103,-2300,2025-01-29 10:48:33,0.0
-11764,-2104,-4660,-2874,361,-2220,2025-01-29 10:48:33,0.0
-12544,-2192,-4672,-3275,1341,-2950,2025-01-29 10:48:33,0.0
-13976,-2252,-4784,-3875,1012,-4090,2025-01-29 10:48:33,0.0
-15420,-2352,-5972,-3830,220,-4730,2025-01-29 10:48:33,0.0
-15876,-2848,-8184,-3772,123,-5121,2025-01-29 10:48:33,0.0
-16008,-4272,-7312,-3337,-318,-5256,2025-01-29 10:48:33,0.0
-15704,-5948,-5128,-1817,-1396,-4996,2025-01-29 10:48:33,0.0
-15816,-7108,-5632,-264,-2654,-4242,2025-01-29 10:48:33,0.0
-16576,-7140,-7216,563,-2784,-2293,2025-01-29 10:48:33,
-16104,-5016,-8104,755,-2099,527,2025-01-29 10:48:33,0.0
-13764,-2560,-8492,779,-2957,1902,2025-01-29 10:48:34,0.0
-12120,-760,-9184,244,-4054,2191,2025-01-29 10:48:34,0.0
-10604,428,-10100,-477,-4240,2366,2025-01-29 10:48:34,0.0
-9452,1288,-9280,-1200,-3267,2336,2025-01-29 10:48:34,0.0
-8916,1452,-8408,-1503,-1937,2233,2025-01-29 10:48:34,0.0
-8740,1156,-8068,-1561,-714,2176,2025-01-29 10:48:34,0.0
-8772,884,-8348,-1726,503,2032,2025-01-29 10:48:34,0.0
-9460,768,-7700,-1940,1648,1730,2025-01-29 10:48:34,0.0
-10624,400,-6972,-2036,2419,1458,2025-01-29 10:48:34,0.0
-11692,144,-6448,-2091,2199,1623,2025-01-29 10:48:34,0.0
-12188,40,-6612,-1974,1201,1645,2025-01-29 10:48:34,0.0
-12524,312,-7080,-1866,328,1604,2025-01-29 10:48:34,0.0
-12332,404,-7292,-1884,-387,1652,2025-01-29 10:48:34,0.0
-12040,304,-6952,-1759,-976,1777,2025-01-29 10:48:34,0.0
-11008,540,-6648,-1419,-1337,1763,2025-01-29 10:48:34,0.0
-10372,936,-6016,-1210,-1299,1671,2025-01-29 10:48:34,0.0
-9896,836,-5476,-1037,-712,1610,2025-01-29 10:48:34,0.0
-9660,492,-4792,-834,231,1564,2025-01-29 10:48:34,0.0
-9772,-348,-4608,-384,1247,1615,2025-01-29 10:48:34,0.0
-10352,-1204,-4880,364,2024,1860,2025-01-29 10:48:34,0.0
-11108,-1456,-4892,1029,2046,1893,2025-01-29 10:48:34,0.0
-12024,-1180,-4844,1751,1539,2064,2025-01-29 10:48:34,0.0
-12604,-60,-4716,2315,596,2343,2025-01-29 10:48:34,0.0
-12328,1168,-4872,2585,-624,2408,2025-01-29 10:48:34,0.0
-11640,1468,-4288,2686,-1817,1970,2025-01-29 10:48:34,0.0
-11676,1360,-3792,2834,-2567,1568,2025-01-29 10:48:34,0.0
-11376,856,-3600,2873,-2762,1274,2025-01-29 10:48:34,0.0
-11140,992,-2804,3115,-2303,1026,2025-01-29 10:48:34,0.0
-11136,1008,-2836,3381,-1707,685,2025-01-29 10:48:34,0.0
-11576,1000,-3848,3492,-1350,541,2025-01-29 10:48:34,0.0
-11744,1220,-4644,3369,-822,540,2025-01-29 10:48:34,0.0
-12132,1328,-4808,2861,-403,511,2025-01-29 10:48:34,0.0
-12328,1460,-4528,2538,106,396,2025-01-29 10:48:34,0.0
-13184,1408,-4788,2478,920,485,2025-01-29 10:48:34,0.0
-13632,1508,-4880,2574,1348,907,2025-01-29 10:48:34,0.0
-13524,2088,-5076,2603,1438,1444,2025-01-29 10:48:34,0.0
-14024,2500,-4460,2553,1807,1800,2025-01-29 10:48:34,0.0
-14412,2220,-4212,2584,2498,2081,2025-01-29 10:48:34,0.0
-15100,872,-4356,2799,3406,2290,2025-01-29 10:48:34,0.0
-15996,312,-5688,2884,3798,2947,2025-01-29 10:48:34,0.0
-15588,768,-7100,2389,3164,3613,2025-01-29 10:48:34,0.0
-14576,2404,-7392,2125,1830,3813,2025-01-29 10:48:34,0.0
-13308,3024,-8100,1822,1067,2981,2025-01-29 10:48:34,0.0
-12972,3052,-8580,1324,481,1340,2025-01-29 10:48:34,0.0
-13264,1904,-8292,1048,55,-135,2025-01-29 10:48:34,0.0
-13444,976,-8072,1126,-1202,-495,2025-01-29 10:48:34,0.0
-11704,-192,-8060,1295,-2725,-603,2025-01-29 10:48:34,0.0
-10068,-1572,-8268,1526,-2742,-708,2025-01-29 10:48:34,0.0
-8760,-3784,-7688,2115,-2035,-727,2025-01-29 10:48:34,0.0
-8496,-5604,-7312,3035,-415,-627,2025-01-29 10:48:34,0.0
-8532,-5860,-8012,3586,1820,-132,2025-01-29 10:48:34,0.0
-9404,-4036,-8416,3758,3476,731,2025-01-29 10:48:34,0.0
-9532,-1488,-7392,4141,4500,1013,2025-01-29 10:48:34,0.0
-10932,544,-6380,3945,4996,581,2025-01-29 10:48:34,0.0
-11780,1236,-7072,2997,4129,-327,2025-01-29 10:48:34,0.0
-12912,120,-7268,2530,2210,-1551,2025-01-29 10:48:34,0.0
-13660,-1096,-8032,2437,-144,-2063,2025-01-29 10:48:34,0.0
-13816,-1776,-7756,2008,-1929,-1800,2025-01-29 10:48:34,0.0
-12212,-2220,-6980,1527,-3045,-1277,2025-01-29 10:48:34,0.0
-10348,-2456,-6112,1552,-3096,-982,2025-01-29 10:48:34,0.0
-8900,-2092,-5820,1631,-2225,-1053,2025-01-29 10:48:34,0.0
-8452,-1620,-5624,1464,-373,-1390,2025-01-29 10:48:35,0.0
-8984,-1032,-6048,1095,1710,-1653,2025-01-29 10:48:35,0.0
-10148,-1036,-5736,726,2953,-1523,2025-01-29 10:48:35,0.0
-10944,-1136,-6352,257,3176,-1317,2025-01-29 10:48:35,0.0
-12004,-1392,-6028,-145,2631,-1134,2025-01-29 10:48:35,0.0
-12512,-1512,-5416,-288,1493,-943,2025-01-29 10:48:35,0.0
-12496,-1492,-5736,-636,408,-749,2025-01-29 10:48:35,0.0
-11976,-1220,-5824,-1015,-335,-748,2025-01-29 10:48:35,0.0
-11532,-780,-5868,-1331,-550,-910,2025-01-29 10:48:35,0.0
-11176,-288,-6020,-1792,-311,-1029,2025-01-29 10:48:35,0.0
-11780,-28,-5228,-2369,-78,-926,2025-01-29 10:48:35,0.0
-11968,-4,-4704,-3067,-121,-905,2025-01-29 10:48:35,0.0
-12260,-412,-4428,-3616,-463,-1024,2025-01-29 10:48:35,0.0
-12700,-940,-4432,-4029,-1089,-1067,2025-01-29 10:48:35,0.0
-12596,-1752,-4900,-4171,-1752,-1301,2025-01-29 10:48:35,0.0
-12308,-2124,-5412,-4050,-2207,-1725,2025-01-29 10:48:35,0.0
-12180,-2032,-5188,-3811,-2288,-2091,2025-01-29 10:48:35,0.0
-12432,-1696,-4692,-3590,-1623,-2094,2025-01-29 10:48:35,0.0
-12080,-1792,-4408,-3722,-866,-2427,2025-01-29 10:48:35,0.0
-12408,-2048,-4832,-4138,-1135,-3031,2025-01-29 10:48:35,0.0
-13116,-2252,-4388,-4369,-1822,-3062,2025-01-29 10:48:35,0.0
-12584,-2140,-5240,-4506,-1993,-2954,2025-01-29 10:48:35,0.0
-12416,-2460,-6488,-4539,-1106,-3641,2025-01-29 10:48:35,0.0
-13228,-3616,-5348,-3594,32,-4141,2025-01-29 10:48:35,0.0
-14160,-5436,-5664,-2013,241,-4188,2025-01-29 10:48:35,0.0
-15536,-6892,-6624,-819,21,-3268,2025-01-29 10:48:35,0.0
-16780,-7272,-7832,128,-406,-1378,2025-01-29 10:48:35,0.0
-16648,-4904,-8648,1190,-1237,1025,2025-01-29 10:48:35,0.0
-14120,-2008,-9848,1324,-2473,1549,2025-01-29 10:48:35,0.0
-13084,124,-9676,227,-3845,1554,2025-01-29 10:48:35,0.0
-11396,1096,-9032,-806,-5027,2156,2025-01-29 10:48:35,0.0
-9336,1600,-8440,-1467,-4947,2577,2025-01-29 10:48:35,0.0
-7748,2168,-8480,-1938,-3470,2207,2025-01-29 10:48:35,0.0
-6888,2560,-8028,-2259,-783,1146,2025-01-29 10:48:35,0.0
-7272,2280,-7464,-2486,2260,-314,2025-01-29 10:48:35,0.0
-10164,764,-6984,-2380,4355,-1410,2025-01-29 10:48:35,0.0
-12676,-428,-6476,-1839,5081,-857,2025-01-29 10:48:35,0.0
-14456,-1436,-7060,-1434,4852,109,2025-01-29 10:48:35,
-15156,-1868,-6660,-1289,3278,1204,2025-01-29 10:48:35,0.0
-14732,-1812,-6144,-864,902,2039,2025-01-29 10:48:35,0.0
-13532,-1312,-6256,-459,-1284,2372,2025-01-29 10:48:35,0.0
-12536,-656,-6104,-219,-2370,2621,2025-01-29 10:48:35,0.0
-11056,-76,-5832,-15,-2701,2871,2025-01-29 10:48:35,0.0
-9708,312,-5404,132,-2425,2631,2025-01-29 10:48:35,0.0
-9084,692,-5024,443,-1010,2045,2025-01-29 10:48:35,0.0
-9192,828,-5192,632,614,1731,2025-01-29 10:48:35,0.0
-9768,1092,-5100,874,1929,1491,2025-01-29 10:48:35,0.0
-10508,864,-4676,1048,2479,1173,2025-01-29 10:48:35,0.0
-11320,736,-5040,1346,2340,911,2025-01-29 10:48:35,0.0
-11796,840,-5984,1505,1965,764,2025-01-29 10:48:35,0.0
-11932,824,-6792,1466,1383,566,2025-01-29 10:48:35,0.0
-12284,304,-6488,1429,905,615,2025-01-29 10:48:35,0.0
-12176,136,-6036,1586,595,720,2025-01-29 10:48:35,0.0
-12324,300,-5712,1654,354,656,2025-01-29 10:48:35,0.0
-12544,288,-6048,1706,148,691,2025-01-29 10:48:35,0.0
-12476,-108,-5756,1956,403,875,2025-01-29 10:48:35,0.0
-12524,-252,-4908,2414,456,918,2025-01-29 10:48:35,0.0
-12628,-504,-4440,2874,243,925,2025-01-29 10:48:35,0.0
-12748,-520,-4348,3450,-247,1002,2025-01-29 10:48:35,0.0
-12564,-716,-4628,3976,-1024,1119,2025-01-29 10:48:35,0.0
-12176,-680,-4488,4684,-1680,1235,2025-01-29 10:48:35,0.0
-11504,-316,-4556,5490,-1540,1335,2025-01-29 10:48:35,0.0
-11292,-332,-4636,6152,-588,1380,2025-01-29 10:48:36,0.0
-11676,-524,-4316,6865,517,1632,2025-01-29 10:48:36,0.0
-11952,-712,-4508,7521,890,1934,2025-01-29 10:48:36,0.0
-11948,-568,-4688,7988,599,1794,2025-01-29 10:48:36,0.0
-13104,348,-6048,8204,577,1899,2025-01-29 10:48:36,0.0
-13432,-644,-7836,7915,948,2199,2025-01-29 10:48:36,0.0
-13732,-1336,-9084,7540,991,2038,2025-01-29 10:48:36,0.0
-14676,48,-10384,6512,-143,2221,2025-01-29 10:48:36,0.0
-14764,1004,-10308,4762,-1468,2963,2025-01-29 10:48:36,0.0
-13788,1848,-9356,2970,-2425,3524,2025-01-29 10:48:36,0.0
-11904,2688,-7612,1966,-3756,3768,2025-01-29 10:48:36,0.0
-8896,2568,-6372,1660,-4064,2800,2025-01-29 10:48:36,0.0
-7088,1184,-5788,1646,-2385,765,2025-01-29 10:48:36,0.0
-8300,-600,-5300,1743,756,-31,2025-01-29 10:48:36,0.0
-8768,-1720,-5836,1804,2984,251,2025-01-29 10:48:36,0.0
-9600,-1904,-7144,1698,4144,223,2025-01-29 10:48:36,0.0
-11232,-1660,-7836,1476,4457,197,2025-01-29 10:48:36,0.0
-12896,-1444,-7452,1225,4045,583,2025-01-29 10:48:36,0.0
-13292,-1636,-6504,1205,2953,1053,2025-01-29 10:48:36,0.0
-12760,-1660,-6804,1393,1710,988,2025-01-29 10:48:36,0.0
-12096,-1484,-7468,1562,800,678,2025-01-29 10:48:36,0.0
-11548,-940,-7700,1689,629,623,2025-01-29 10:48:36,0.0
-11076,-396,-7612,1418,1392,633,2025-01-29 10:48:36,0.0
-10988,-120,-6996,1124,1894,469,2025-01-29 10:48:36,0.0
-11108,-568,-6888,814,1498,194,2025-01-29 10:48:36,0.0
-11276,-1208,-6636,805,1059,-26,2025-01-29 10:48:36,0.0
-11192,-1632,-6764,902,921,8,2025-01-29 10:48:36,0.0
-11244,-1584,-6796,918,1428,-13,2025-01-29 10:48:36,0.0
-11648,-1416,-7252,686,2031,-199,2025-01-29 10:48:36,0.0
-11932,-1012,-7504,396,2172,-78,2025-01-29 10:48:36,0.0
-12076,-712,-7408,150,1727,-44,2025-01-29 10:48:36,0.0
-11820,-344,-7280,-177,1067,18,2025-01-29 10:48:36,0.0
-11504,-660,-6924,-332,736,-55,2025-01-29 10:48:36,0.0
-11440,-1156,-6352,-332,827,-110,2025-01-29 10:48:36,0.0
-11492,-1404,-6240,-97,1075,-153,2025-01-29 10:48:36,0.0
-11644,-1632,-6292,65,1419,-318,2025-01-29 10:48:36,0.0
-12064,-1512,-6184,250,1612,-426,2025-01-29 10:48:36,0.0
-12140,-1148,-6720,395,1440,-423,2025-01-29 10:48:36,0.0
-11828,-740,-7028,323,1045,-359,2025-01-29 10:48:36,0.0
-11168,-800,-7360,237,737,-303,2025-01-29 10:48:36,0.0
-10932,-748,-7676,147,688,-215,2025-01-29 10:48:36,0.0
-10840,-816,-7776,55,1192,-37,2025-01-29 10:48:36,0.0
-10880,-1084,-7268,13,1579,5,2025-01-29 10:48:36,0.0
-11292,-1072,-6888,102,1630,-20,2025-01-29 10:48:36,0.0
-11580,-980,-7348,193,1480,-68,2025-01-29 10:48:36,0.0
-11872,-840,-7184,188,1138,-72,2025-01-29 10:48:36,0.0
-11780,-660,-7004,106,778,-2,2025-01-29 10:48:36,0.0
-11636,-372,-7004,-10,746,72,2025-01-29 10:48:36,0.0
-11648,-492,-7172,-263,834,35,2025-01-29 10:48:36,0.0
-11616,-504,-6984,-294,834,89,2025-01-29 10:48:36,0.0
-11684,-596,-7196,-313,620,42,2025-01-29 10:48:36,0.0
-11704,-452,-7048,-460,419,-66,2025-01-29 10:48:36,0.0
-11688,-336,-6932,-445,349,-142,2025-01-29 10:48:36,0.0
-11648,-276,-7084,-477,389,-250,2025-01-29 10:48:36,0.0
-11584,-264,-6904,-422,474,-295,2025-01-29 10:48:36,0.0
-11684,-168,-6748,-519,465,-332,2025-01-29 10:48:36,0.0
-11824,-416,-6864,-557,320,-338,2025-01-29 10:48:36,0.0
-11660,-508,-7104,-603,-10,-343,2025-01-29 10:48:36,0.0
-11424,-672,-7076,-640,-243,-297,2025-01-29 10:48:36,0.0
-11160,-648,-6876,-654,-95,-246,2025-01-29 10:48:37,0.0
-10852,-384,-6828,-632,316,-259,2025-01-29 10:48:37,0.0
-11056,-184,-7104,-682,751,-353,2025-01-29 10:48:37,0.0
-11396,-176,-7188,-724,825,-409,2025-01-29 10:48:37,0.0
-11804,-548,-7120,-618,823,-436,2025-01-29 10:48:37,0.0
-12068,-912,-7124,-492,523,-358,2025-01-29 10:48:37,0.0
-11936,-864,-7044,-323,17,-264,2025-01-29 10:48:37,0.0
-11716,-592,-7132,-312,-360,-248,2025-01-29 10:48:37,0.0
-11456,-444,-6928,-385,-447,-202,2025-01-29 10:48:37,0.0
-11212,-444,-6908,-390,-213,-101,2025-01-29 10:48:37,0.0
-11160,-448,-6892,-391,154,-121,2025-01-29 10:48:37,0.0
-11268,-396,-6956,-346,448,-136,2025-01-29 10:48:37,0.0
-11520,-468,-7000,-369,440,-243,2025-01-29 10:48:37,0.0
-11696,-692,-7048,-309,253,-244,2025-01-29 10:48:37,0.0
-11764,-764,-6860,-266,10,-195,2025-01-29 10:48:37,0.0
-11544,-688,-6952,-280,-224,-235,2025-01-29 10:48:37,0.0
-11348,-624,-6768,-270,-204,-266,2025-01-29 10:48:37,
