acceleration_x,acceleration_y,acceleration_z,gyroscope_x,gyroscope_y,gyroscope_z,timestamp,label
-10664,-688,-8152,-128,183,-196,2025-01-29 10:38:40,0.0
-10740,-460,-8064,-131,200,-203,2025-01-29 10:38:40,0.0
-10804,-648,-8252,-190,134,-212,2025-01-29 10:38:40,0.0
-10744,-512,-8100,-185,116,-166,2025-01-29 10:38:40,0.0
-10700,-652,-8228,-159,96,-172,2025-01-29 10:38:40,0.0
-10628,-668,-8216,-138,125,-171,2025-01-29 10:38:40,0.0
-10824,-516,-8088,-168,129,-206,2025-01-29 10:38:40,0.0
-10732,-556,-8156,-128,124,-182,2025-01-29 10:38:40,0.0
-10768,-652,-8080,-183,110,-195,2025-01-29 10:38:40,0.0
-10616,-564,-8136,-189,115,-186,2025-01-29 10:38:40,0.0
-10744,-508,-8060,-196,132,-178,2025-01-29 10:38:40,0.0
-10664,-556,-8128,-193,165,-191,2025-01-29 10:38:40,0.0
-10616,-704,-8188,-161,192,-173,2025-01-29 10:38:40,0.0
-10700,-620,-8252,-176,174,-187,2025-01-29 10:38:40,0.0
-10712,-644,-8260,-178,209,-173,2025-01-29 10:38:40,0.0
-10780,-584,-8092,-132,201,-171,2025-01-29 10:38:40,0.0
-10788,-556,-8284,-160,204,-168,2025-01-29 10:38:40,0.0
-10716,-588,-8216,-181,175,-181,2025-01-29 10:38:40,0.0
-10772,-588,-8140,-209,92,-173,2025-01-29 10:38:40,0.0
-10840,-612,-8348,-237,71,-167,2025-01-29 10:38:40,0.0
-10628,-576,-8112,-234,107,-171,2025-01-29 10:38:40,0.0
-10740,-596,-8092,-212,206,-189,2025-01-29 10:38:40,0.0
-10744,-732,-8200,-169,151,-188,2025-01-29 10:38:40,0.0
-10776,-716,-8224,-156,75,-154,2025-01-29 10:38:40,0.0
-10736,-704,-8204,-160,32,-170,2025-01-29 10:38:40,0.0
-10712,-676,-8180,-145,45,-159,2025-01-29 10:38:40,0.0
-10684,-468,-8056,-95,48,-127,2025-01-29 10:38:40,0.0
-10712,-484,-8060,-89,82,-120,2025-01-29 10:38:40,0.0
-10736,-680,-7904,-84,113,-108,2025-01-29 10:38:40,0.0
-10724,-724,-7956,-31,160,-116,2025-01-29 10:38:40,0.0
-10816,-796,-8148,-15,169,-107,2025-01-29 10:38:40,0.0
-10744,-568,-7980,42,135,-128,2025-01-29 10:38:40,0.0
-10804,-516,-8116,-3,73,-98,2025-01-29 10:38:40,0.0
-10744,-600,-8060,24,61,-77,2025-01-29 10:38:40,0.0
-10744,-608,-7904,-27,164,-92,2025-01-29 10:38:41,0.0
-10628,-608,-8100,-32,244,-115,2025-01-29 10:38:41,0.0
-10744,-600,-8144,-23,247,-132,2025-01-29 10:38:41,0.0
-10732,-620,-8236,-69,216,-139,2025-01-29 10:38:41,0.0
-10784,-608,-8304,-71,193,-133,2025-01-29 10:38:41,0.0
-10832,-644,-8228,-97,182,-140,2025-01-29 10:38:41,0.0
-10712,-600,-8068,-89,158,-147,2025-01-29 10:38:41,0.0
-10796,-660,-8060,-112,131,-151,2025-01-29 10:38:41,0.0
-10700,-656,-8144,-119,140,-151,2025-01-29 10:38:41,0.0
-10720,-712,-8172,-112,166,-159,2025-01-29 10:38:41,0.0
-10812,-640,-8072,-48,191,-112,2025-01-29 10:38:41,0.0
-10728,-712,-8168,-53,243,-86,2025-01-29 10:38:41,0.0
-10752,-700,-8080,-35,313,-108,2025-01-29 10:38:41,0.0
-10788,-732,-8160,0,291,-82,2025-01-29 10:38:41,0.0
-10716,-620,-8260,-13,284,-92,2025-01-29 10:38:41,0.0
-10848,-540,-8080,-20,283,-80,2025-01-29 10:38:41,0.0
-10788,-532,-8216,3,275,-13,2025-01-29 10:38:41,0.0
-10720,-568,-8492,63,290,30,2025-01-29 10:38:41,0.0
-10824,-520,-8256,39,302,27,2025-01-29 10:38:41,0.0
-10904,-420,-8272,50,328,119,2025-01-29 10:38:41,0.0
-10580,-356,-8232,14,390,149,2025-01-29 10:38:41,0.0
-10564,-348,-8580,-82,488,177,2025-01-29 10:38:41,0.0
-10456,-24,-8752,-38,738,254,2025-01-29 10:38:41,0.0
-10500,368,-8436,-67,989,233,2025-01-29 10:38:41,0.0
-10860,512,-8168,-201,1154,281,2025-01-29 10:38:41,0.0
-11284,104,-7724,-297,1214,312,2025-01-29 10:38:41,0.0
-11716,-172,-7188,-46,798,426,2025-01-29 10:38:41,0.0
-11584,-208,-7600,193,-128,462,2025-01-29 10:38:41,0.0
-11124,-132,-7720,364,-934,396,2025-01-29 10:38:41,0.0
-10868,92,-7516,685,-1310,290,2025-01-29 10:38:41,0.0
-10352,332,-7416,1008,-1236,256,2025-01-29 10:38:41,0.0
-10028,408,-7372,1177,-783,70,2025-01-29 10:38:41,0.0
-10236,460,-7500,1171,-271,-106,2025-01-29 10:38:41,0.0
-10328,372,-7936,1124,255,-255,2025-01-29 10:38:41,0.0
-10588,200,-7936,1091,612,-392,2025-01-29 10:38:41,0.0
-10736,0,-8136,1121,735,-417,2025-01-29 10:38:41,0.0
-10872,168,-8240,1218,586,-487,2025-01-29 10:38:41,0.0
-11084,44,-8552,1110,395,-598,2025-01-29 10:38:41,0.0
-11336,-132,-8640,1060,111,-559,2025-01-29 10:38:41,0.0
-11320,-400,-8368,1067,-246,-508,2025-01-29 10:38:41,0.0
-11288,-528,-8308,1049,-599,-505,2025-01-29 10:38:41,0.0
-11400,-732,-7744,1187,-807,-443,2025-01-29 10:38:41,0.0
-11200,-860,-7916,1471,-1150,-439,2025-01-29 10:38:41,0.0
-11012,-976,-7952,1687,-1371,-411,2025-01-29 10:38:41,0.0
-10864,-1008,-7824,1871,-1222,-423,2025-01-29 10:38:41,0.0
-10860,-732,-7664,1974,-954,-469,2025-01-29 10:38:41,0.0
-10800,-484,-8196,1868,-986,-707,2025-01-29 10:38:41,0.0
-10800,-248,-8412,1644,-1111,-1074,2025-01-29 10:38:41,0.0
-10904,-348,-8584,1447,-1228,-1257,2025-01-29 10:38:41,0.0
-10972,-588,-8588,1241,-1184,-1413,2025-01-29 10:38:41,0.0
-10868,-1048,-8092,1054,-1176,-1565,2025-01-29 10:38:41,0.0
-10848,-1100,-7680,1057,-1366,-1760,2025-01-29 10:38:41,0.0
-10828,-1180,-7564,1115,-1438,-1775,2025-01-29 10:38:41,0.0
-10712,-1356,-7040,1224,-1195,-1834,2025-01-29 10:38:41,0.0
-10624,-1712,-6772,1371,-841,-1876,2025-01-29 10:38:41,0.0
-10684,-2000,-6560,1511,-350,-1908,2025-01-29 10:38:41,0.0
-10640,-2412,-6460,1526,12,-1834,2025-01-29 10:38:41,0.0
-11008,-2916,-6880,1650,287,-1560,2025-01-29 10:38:41,0.0
-11172,-3300,-6644,1713,736,-1122,2025-01-29 10:38:41,0.0
-11216,-3300,-6520,1743,962,-780,2025-01-29 10:38:41,0.0
-11560,-3352,-6496,1716,715,-586,2025-01-29 10:38:41,0.0
-11880,-3152,-6504,1691,418,-314,2025-01-29 10:38:41,0.0
-11684,-3104,-6724,1445,84,-225,2025-01-29 10:38:41,0.0
-11536,-2932,-6484,1243,-213,-349,2025-01-29 10:38:41,0.0
-11516,-2468,-6252,1082,-84,-536,2025-01-29 10:38:41,0.0
-11308,-2780,-6324,991,234,-722,2025-01-29 10:38:42,
-11324,-3240,-6128,1044,527,-832,2025-01-29 10:38:42,0.0
-11284,-3976,-5956,1150,945,-758,2025-01-29 10:38:42,0.0
-11276,-4152,-5888,1296,1170,-631,2025-01-29 10:38:42,0.0
-11392,-4004,-6272,1440,1047,-429,2025-01-29 10:38:42,0.0
-11332,-3576,-6240,1333,778,-194,2025-01-29 10:38:42,0.0
-11064,-3164,-6532,1138,727,-87,2025-01-29 10:38:42,0.0
-10892,-2804,-6460,919,949,-73,2025-01-29 10:38:42,0.0
-10852,-2736,-6528,602,1135,-54,2025-01-29 10:38:42,0.0
-10808,-2716,-6840,278,1364,-13,2025-01-29 10:38:42,0.0
-10848,-2932,-6996,14,1485,35,2025-01-29 10:38:42,0.0
-10944,-2940,-7036,-246,1595,-51,2025-01-29 10:38:42,0.0
-11284,-2524,-6928,-539,1533,-98,2025-01-29 10:38:42,0.0
-11424,-2324,-6832,-888,1319,-293,2025-01-29 10:38:42,0.0
-11676,-2092,-6920,-1217,1041,-508,2025-01-29 10:38:42,0.0
-11608,-2244,-7140,-1515,997,-822,2025-01-29 10:38:42,0.0
-11696,-2256,-7232,-1782,863,-1101,2025-01-29 10:38:42,0.0
-11592,-2264,-7040,-2078,593,-1447,2025-01-29 10:38:42,0.0
-11600,-2248,-6652,-2510,371,-1695,2025-01-29 10:38:42,0.0
-11584,-2240,-6488,-2811,264,-1810,2025-01-29 10:38:42,0.0
-11372,-2344,-6276,-3065,259,-2052,2025-01-29 10:38:42,0.0
-11440,-2240,-6244,-3319,288,-2278,2025-01-29 10:38:42,0.0
-11684,-2532,-6264,-3545,116,-2327,2025-01-29 10:38:42,0.0
-11720,-2860,-6468,-3764,143,-2330,2025-01-29 10:38:42,0.0
-11932,-3352,-6656,-4119,339,-2384,2025-01-29 10:38:42,0.0
-12024,-3832,-6804,-4288,574,-2561,2025-01-29 10:38:42,0.0
-11940,-4048,-7244,-4284,628,-2879,2025-01-29 10:38:42,0.0
-12096,-3844,-7484,-3930,522,-3253,2025-01-29 10:38:42,0.0
-12496,-4036,-7568,-3608,368,-3297,2025-01-29 10:38:42,0.0
-12544,-4500,-7532,-3343,-52,-3115,2025-01-29 10:38:42,0.0
-12544,-5160,-7796,-2912,-411,-2770,2025-01-29 10:38:42,0.0
-12820,-5660,-8120,-2780,-340,-1977,2025-01-29 10:38:42,0.0
-12888,-5552,-8132,-2785,-256,-965,2025-01-29 10:38:42,0.0
-12688,-5328,-7596,-2519,-584,-66,2025-01-29 10:38:42,0.0
-12640,-4904,-7232,-2038,-810,639,2025-01-29 10:38:42,0.0
-12720,-4164,-7544,-1543,-616,1264,2025-01-29 10:38:42,0.0
-12808,-3820,-7976,-1140,-919,2075,2025-01-29 10:38:42,0.0
-12580,-3616,-7652,-827,-1984,2885,2025-01-29 10:38:42,0.0
-11996,-3600,-6852,-527,-2783,3496,2025-01-29 10:38:42,0.0
-10944,-3936,-6016,-32,-2972,3831,2025-01-29 10:38:42,0.0
-9976,-3808,-6304,453,-2825,3949,2025-01-29 10:38:42,0.0
-8972,-2584,-7176,837,-2159,3954,2025-01-29 10:38:42,0.0
-8436,-1124,-8480,955,-947,4086,2025-01-29 10:38:42,0.0
-8288,656,-9864,550,800,4081,2025-01-29 10:38:42,0.0
-8440,1712,-9752,128,2266,3730,2025-01-29 10:38:42,0.0
-9604,1932,-9028,34,2957,3225,2025-01-29 10:38:42,0.0
-10708,1416,-8424,139,2975,3191,2025-01-29 10:38:42,0.0
-11016,44,-8176,98,2898,3306,2025-01-29 10:38:42,0.0
-11500,-1600,-6792,407,3222,3469,2025-01-29 10:38:42,0.0
-11832,-2940,-5976,951,3255,3727,2025-01-29 10:38:42,0.0
-12408,-3024,-6452,1827,2904,4247,2025-01-29 10:38:42,0.0
-12312,-1844,-7600,2594,2068,4933,2025-01-29 10:38:42,0.0
-11848,-288,-8860,2826,1187,5220,2025-01-29 10:38:42,0.0
-11724,1372,-9112,2967,428,5302,2025-01-29 10:38:42,0.0
-10868,2672,-9772,2758,-509,5167,2025-01-29 10:38:42,0.0
-9688,3108,-9496,1944,-1301,4597,2025-01-29 10:38:42,0.0
-8828,2768,-8968,1165,-1666,3987,2025-01-29 10:38:42,0.0
-7824,2352,-8136,487,-1827,3364,2025-01-29 10:38:42,0.0
-7352,2136,-8224,-31,-1543,2746,2025-01-29 10:38:42,0.0
-7520,1944,-8132,-337,-719,2193,2025-01-29 10:38:42,0.0
-8464,1584,-7896,-467,210,1695,2025-01-29 10:38:43,0.0
-9704,604,-7404,-360,308,1259,2025-01-29 10:38:43,0.0
-10848,-560,-6580,-132,-656,1159,2025-01-29 10:38:43,0.0
-10880,-384,-6700,237,-1248,1166,2025-01-29 10:38:43,0.0
-10816,548,-6740,289,-1313,1008,2025-01-29 10:38:43,0.0
-11208,1344,-7196,130,-1049,1068,2025-01-29 10:38:43,0.0
-11024,1112,-6968,62,-879,776,2025-01-29 10:38:43,0.0
-11592,1096,-7012,74,-1301,80,2025-01-29 10:38:43,0.0
-11924,1644,-7032,118,-2679,-617,2025-01-29 10:38:43,0.0
-12112,2040,-6344,184,-4028,-1043,2025-01-29 10:38:43,0.0
-11920,1880,-5824,249,-5395,-1153,2025-01-29 10:38:43,0.0
-11296,1376,-4968,428,-6085,-1043,2025-01-29 10:38:43,0.0
-10380,960,-4668,992,-5424,-886,2025-01-29 10:38:43,0.0
-9516,628,-5008,1661,-3202,-916,2025-01-29 10:38:43,0.0
-9444,396,-5732,2052,284,-1021,2025-01-29 10:38:43,0.0
-10152,4,-6844,2387,3683,-1091,2025-01-29 10:38:43,0.0
-12444,820,-8060,2647,5084,-1141,2025-01-29 10:38:43,0.0
-15700,2156,-7676,2196,3766,-297,2025-01-29 10:38:43,0.0
-17716,1976,-6104,1929,748,846,2025-01-29 10:38:43,0.0
-17468,504,-5448,2187,-1723,1640,2025-01-29 10:38:43,0.0
-15872,-2408,-4196,3167,-2940,1777,2025-01-29 10:38:43,0.0
-13608,-2224,-4880,4922,-3455,1743,2025-01-29 10:38:43,0.0
-11676,-192,-7440,5488,-2425,1480,2025-01-29 10:38:43,0.0
-10952,1784,-8920,5052,-490,983,2025-01-29 10:38:43,0.0
-11044,3028,-11048,3854,1068,689,2025-01-29 10:38:43,0.0
-11504,3988,-12076,1530,1564,528,2025-01-29 10:38:43,0.0
-11572,3612,-10876,-433,1426,461,2025-01-29 10:38:43,0.0
-10784,1560,-8504,-1025,362,80,2025-01-29 10:38:43,0.0
-9932,-504,-6992,-174,-1175,-587,2025-01-29 10:38:43,0.0
-8968,-2004,-7432,710,-2290,-1097,2025-01-29 10:38:43,0.0
-8120,-3276,-7752,1295,-2766,-1353,2025-01-29 10:38:43,0.0
-8404,-3844,-7888,1823,-1234,-926,2025-01-29 10:38:43,0.0
-9056,-3548,-7540,2195,1663,-92,2025-01-29 10:38:43,0.0
-9148,-2552,-7868,2487,3143,259,2025-01-29 10:38:43,0.0
-10036,-1360,-7864,2390,2725,-52,2025-01-29 10:38:43,0.0
-11148,-744,-8308,2159,2011,-378,2025-01-29 10:38:43,0.0
-11760,-236,-8128,1849,1131,-509,2025-01-29 10:38:43,0.0
-11516,-324,-8160,1501,-155,-786,2025-01-29 10:38:43,0.0
-10948,-768,-8620,1113,-973,-1434,2025-01-29 10:38:43,0.0
-10660,-1496,-8304,879,-1057,-1836,2025-01-29 10:38:43,0.0
-10268,-1636,-7860,830,-631,-1930,2025-01-29 10:38:43,
-9872,-1284,-7284,570,-50,-2051,2025-01-29 10:38:43,0.0
-9824,-1528,-7312,214,644,-2250,2025-01-29 10:38:43,0.0
-10024,-1700,-6656,-127,987,-2681,2025-01-29 10:38:43,0.0
-10156,-2032,-6576,-322,1425,-3298,2025-01-29 10:38:43,0.0
-10708,-2232,-6980,-463,1552,-3419,2025-01-29 10:38:43,0.0
-10832,-2340,-6972,-678,1582,-3562,2025-01-29 10:38:43,0.0
-10932,-2268,-6872,-795,1241,-3628,2025-01-29 10:38:43,0.0
-11212,-1940,-6760,-1023,1061,-3538,2025-01-29 10:38:43,0.0
-11044,-1644,-6936,-1385,799,-3393,2025-01-29 10:38:43,0.0
-10944,-1260,-6932,-1974,744,-3150,2025-01-29 10:38:43,0.0
-10692,-1488,-6908,-2669,915,-2962,2025-01-29 10:38:43,0.0
-10584,-1768,-6744,-3118,1074,-2793,2025-01-29 10:38:43,0.0
-10540,-2108,-7012,-3499,1235,-2502,2025-01-29 10:38:43,0.0
-10424,-2012,-7036,-3795,1480,-2182,2025-01-29 10:38:43,0.0
-10496,-1648,-6836,-4082,1735,-2096,2025-01-29 10:38:43,0.0
-10904,-1556,-6792,-4325,2106,-2227,2025-01-29 10:38:43,0.0
-11416,-2172,-6464,-4352,2373,-2288,2025-01-29 10:38:43,0.0
-11484,-2956,-6212,-4087,2280,-2429,2025-01-29 10:38:43,0.0
-11824,-3580,-6556,-3836,1853,-2634,2025-01-29 10:38:43,0.0
-11892,-3680,-7060,-3565,1148,-2600,2025-01-29 10:38:43,0.0
-11768,-3076,-7220,-3327,662,-2531,2025-01-29 10:38:43,0.0
-11416,-1928,-7296,-3497,579,-2722,2025-01-29 10:38:44,0.0
-11292,-1208,-7576,-4007,670,-2902,2025-01-29 10:38:44,0.0
-10764,-2008,-6896,-4212,1196,-3071,2025-01-29 10:38:44,0.0
-10876,-3212,-6748,-4261,1187,-3539,2025-01-29 10:38:44,0.0
-11156,-3968,-6780,-4117,1143,-3453,2025-01-29 10:38:44,0.0
-11240,-3728,-6664,-3897,1190,-3300,2025-01-29 10:38:44,0.0
-11128,-2928,-6616,-3975,1576,-3511,2025-01-29 10:38:44,0.0
-11236,-2924,-7072,-3840,2190,-4220,2025-01-29 10:38:44,0.0
-12076,-3532,-8860,-3618,3264,-4935,2025-01-29 10:38:44,0.0
-13268,-4860,-9348,-3124,4094,-5492,2025-01-29 10:38:44,0.0
-15212,-6320,-8932,-2198,3695,-5548,2025-01-29 10:38:44,0.0
-16700,-6540,-8296,-758,617,-4376,2025-01-29 10:38:44,0.0
-16840,-5632,-9164,-87,-2922,-2252,2025-01-29 10:38:44,0.0
-14920,-4004,-9864,-179,-4619,-255,2025-01-29 10:38:44,0.0
-12476,-2676,-9944,-542,-4670,486,2025-01-29 10:38:44,0.0
-11120,-1344,-9880,-1316,-4129,1125,2025-01-29 10:38:44,0.0
-9612,-1316,-9436,-2672,-2905,2305,2025-01-29 10:38:44,0.0
-8292,-2084,-8396,-3283,-1795,2501,2025-01-29 10:38:44,0.0
-8636,-2840,-8152,-2935,-1479,2557,2025-01-29 10:38:44,0.0
-8584,-2744,-8888,-2091,-1652,2493,2025-01-29 10:38:44,0.0
-8672,-1236,-8892,-991,-2785,2318,2025-01-29 10:38:44,0.0
-8176,368,-10040,-684,-3785,2351,2025-01-29 10:38:44,0.0
-7320,1380,-11384,-1509,-3539,2462,2025-01-29 10:38:44,0.0
-7276,2172,-10928,-2609,-2117,2667,2025-01-29 10:38:44,0.0
-7760,1968,-9660,-3708,63,2627,2025-01-29 10:38:44,0.0
-9152,1248,-8232,-4534,1631,2486,2025-01-29 10:38:44,0.0
-10424,144,-7612,-4732,1172,2381,2025-01-29 10:38:44,0.0
-11564,-608,-7264,-4422,216,2076,2025-01-29 10:38:44,0.0
-12556,-1300,-6852,-3441,-650,1678,2025-01-29 10:38:44,0.0
-13000,-1372,-6800,-2369,-1328,1423,2025-01-29 10:38:44,0.0
-12656,-1248,-7580,-1247,-2251,1159,2025-01-29 10:38:44,0.0
-12780,-332,-7476,-352,-3086,1152,2025-01-29 10:38:44,0.0
-12260,576,-7096,-34,-3741,1311,2025-01-29 10:38:44,0.0
-11164,1228,-6876,-26,-3709,1650,2025-01-29 10:38:44,0.0
-10312,1044,-6716,-285,-2906,2050,2025-01-29 10:38:44,0.0
-9556,604,-6616,-550,-1523,2294,2025-01-29 10:38:44,0.0
-9548,188,-6232,-505,-26,2174,2025-01-29 10:38:44,0.0
-10572,-48,-6396,62,721,1885,2025-01-29 10:38:44,0.0
-11332,72,-6320,535,226,1813,2025-01-29 10:38:44,0.0
-11812,268,-6200,884,-616,1768,2025-01-29 10:38:44,0.0
-11772,516,-6080,1267,-1800,1636,2025-01-29 10:38:44,0.0
-11408,544,-5768,1709,-2892,1514,2025-01-29 10:38:44,0.0
-10640,348,-5168,2176,-3342,1375,2025-01-29 10:38:44,0.0
-10020,244,-4428,2659,-3122,1320,2025-01-29 10:38:44,0.0
-9364,-152,-4328,3235,-2095,1096,2025-01-29 10:38:44,0.0
-9300,488,-4264,3658,-879,547,2025-01-29 10:38:44,0.0
-10092,1316,-4320,3973,-179,-39,2025-01-29 10:38:44,0.0
-10544,2100,-4940,4062,-97,-460,2025-01-29 10:38:44,0.0
-10848,2612,-5304,3942,-166,-707,2025-01-29 10:38:44,0.0
-11156,2384,-5256,3574,227,-798,2025-01-29 10:38:44,0.0
-11640,1392,-5160,3329,870,-726,2025-01-29 10:38:44,0.0
-12544,76,-5228,3305,1822,-387,2025-01-29 10:38:44,0.0
-13580,-412,-5444,3447,2596,-76,2025-01-29 10:38:44,0.0
-14704,-4,-6804,3808,2842,634,2025-01-29 10:38:44,0.0
-14916,1072,-6960,3662,2428,1204,2025-01-29 10:38:44,0.0
-14360,2024,-5720,3256,775,1255,2025-01-29 10:38:44,0.0
-14176,2240,-5864,2929,167,1116,2025-01-29 10:38:44,0.0
-14268,768,-6984,2258,2215,1106,2025-01-29 10:38:44,0.0
-14772,-20,-7408,1892,3567,1178,2025-01-29 10:38:44,0.0
-15304,-172,-8820,1453,2967,1311,2025-01-29 10:38:44,0.0
-15180,896,-9760,569,1659,1776,2025-01-29 10:38:45,0.0
-13500,2012,-9092,-201,271,1643,2025-01-29 10:38:45,0.0
-12332,2156,-9468,-618,-495,888,2025-01-29 10:38:45,0.0
-11288,784,-10908,-1055,-236,-83,2025-01-29 10:38:45,0.0
-11172,0,-10596,-1231,269,-230,2025-01-29 10:38:45,0.0
-9748,-636,-10304,-1238,-240,-179,2025-01-29 10:38:45,0.0
-8324,-1052,-8940,-827,-959,-449,2025-01-29 10:38:45,0.0
-6904,-1564,-8176,-279,-867,-999,2025-01-29 10:38:45,0.0
-6540,-2088,-8228,83,402,-1594,2025-01-29 10:38:45,0.0
-7164,-2488,-8816,267,2580,-1929,2025-01-29 10:38:45,0.0
-8156,-2248,-9120,450,4245,-2066,2025-01-29 10:38:45,0.0
-9404,-1524,-9004,459,4630,-2272,2025-01-29 10:38:45,0.0
-10364,-1180,-8948,302,3706,-2509,2025-01-29 10:38:45,0.0
-11240,-1000,-8468,152,2412,-2798,2025-01-29 10:38:45,0.0
-11784,-1468,-8452,-11,1152,-2788,2025-01-29 10:38:45,0.0
-11672,-1792,-8032,134,197,-2463,2025-01-29 10:38:45,0.0
-10324,-2264,-8356,332,-610,-2400,2025-01-29 10:38:45,0.0
-10156,-2388,-7980,560,-612,-2458,2025-01-29 10:38:45,0.0
-9856,-2196,-7796,660,-381,-2317,2025-01-29 10:38:45,
-10132,-2032,-7344,562,53,-2065,2025-01-29 10:38:45,0.0
-10252,-1940,-7108,396,756,-1891,2025-01-29 10:38:45,0.0
-10732,-1876,-7208,296,1232,-1721,2025-01-29 10:38:45,0.0
-10964,-1932,-7032,354,1048,-1657,2025-01-29 10:38:45,0.0
-11120,-1896,-7020,540,507,-1634,2025-01-29 10:38:45,0.0
-11148,-1888,-6912,653,227,-1486,2025-01-29 10:38:45,0.0
-10892,-1916,-6832,692,173,-1226,2025-01-29 10:38:45,0.0
-10480,-1624,-6844,647,174,-1007,2025-01-29 10:38:45,0.0
-10308,-1780,-6692,496,478,-874,2025-01-29 10:38:45,0.0
-10324,-2020,-6900,255,1055,-740,2025-01-29 10:38:45,0.0
-10944,-1948,-6808,29,1280,-496,2025-01-29 10:38:45,0.0
-11048,-1716,-7044,-233,1224,-212,2025-01-29 10:38:45,0.0
-11308,-1488,-6876,-550,890,92,2025-01-29 10:38:45,0.0
-11364,-1640,-6876,-829,370,466,2025-01-29 10:38:45,0.0
-11184,-1832,-6672,-1050,302,624,2025-01-29 10:38:45,0.0
-11328,-1928,-6328,-1203,411,714,2025-01-29 10:38:45,0.0
-11368,-1920,-6664,-1399,532,832,2025-01-29 10:38:45,0.0
-11520,-1852,-6864,-1537,387,893,2025-01-29 10:38:45,0.0
-11596,-1856,-6840,-1685,83,905,2025-01-29 10:38:45,0.0
-11312,-2032,-6896,-1665,-151,804,2025-01-29 10:38:45,0.0
-11072,-2192,-7128,-1729,-264,515,2025-01-29 10:38:45,0.0
-10996,-1292,-6860,-1984,-1,285,2025-01-29 10:38:45,0.0
-10804,-316,-6724,-2352,455,-257,2025-01-29 10:38:45,0.0
-10616,664,-7180,-2838,780,-1045,2025-01-29 10:38:45,0.0
-10676,1056,-7828,-3522,846,-1898,2025-01-29 10:38:45,0.0
-11128,-360,-7144,-4214,1163,-2869,2025-01-29 10:38:45,0.0
-11320,-1352,-6904,-4329,1172,-3674,2025-01-29 10:38:45,0.0
-12700,-1492,-6508,-4594,999,-4064,2025-01-29 10:38:45,0.0
-12612,-2024,-6840,-4441,801,-4161,2025-01-29 10:38:45,0.0
-12128,-2664,-7612,-4002,825,-4548,2025-01-29 10:38:45,0.0
-11820,-3680,-7744,-2902,1230,-5044,2025-01-29 10:38:45,0.0
-12216,-4808,-7996,-1624,1331,-5213,2025-01-29 10:38:45,0.0
-13340,-5744,-8148,-551,1626,-4659,2025-01-29 10:38:45,0.0
-14288,-6104,-7788,491,990,-3473,2025-01-29 10:38:45,0.0
-15008,-5868,-7680,1675,-573,-1294,2025-01-29 10:38:45,0.0
-14488,-5388,-8504,2285,-1463,768,2025-01-29 10:38:45,0.0
-13408,-5004,-9112,2586,-1677,2027,2025-01-29 10:38:45,0.0
-12724,-4440,-9576,2806,-1587,2942,2025-01-29 10:38:45,0.0
-11528,-3308,-9840,2740,-1972,3768,2025-01-29 10:38:45,0.0
-10832,-2164,-10236,2456,-2241,4210,2025-01-29 10:38:45,0.0
-9648,-1528,-10480,2043,-2213,4581,2025-01-29 10:38:45,0.0
-8144,-464,-10668,1595,-2090,4785,2025-01-29 10:38:46,0.0
-6284,560,-10948,978,-1806,4688,2025-01-29 10:38:46,0.0
-5300,1520,-9784,360,-861,3972,2025-01-29 10:38:46,0.0
-5000,1960,-8892,-108,774,2624,2025-01-29 10:38:46,0.0
-6088,1904,-8652,-605,2911,1141,2025-01-29 10:38:46,0.0
-8692,1140,-8800,-945,4624,203,2025-01-29 10:38:46,0.0
-11112,420,-9188,-1110,5193,158,2025-01-29 10:38:46,0.0
-12872,-420,-9792,-1533,4298,307,2025-01-29 10:38:46,0.0
-14368,-764,-9288,-1771,1957,840,2025-01-29 10:38:46,0.0
-14644,-1144,-9004,-1866,-1324,1847,2025-01-29 10:38:46,0.0
-13044,-1120,-9168,-1561,-3737,2536,2025-01-29 10:38:46,0.0
-11216,-896,-8152,-1381,-4822,2642,2025-01-29 10:38:46,0.0
-9572,-684,-7604,-954,-4881,2514,2025-01-29 10:38:46,0.0
-8296,-672,-6328,-600,-3985,2091,2025-01-29 10:38:46,0.0
-7984,-664,-5436,-189,-2383,1564,2025-01-29 10:38:46,0.0
-8400,-300,-5488,212,-262,1586,2025-01-29 10:38:46,0.0
-8900,388,-6384,364,1602,1541,2025-01-29 10:38:46,0.0
-9924,876,-6664,354,2320,1284,2025-01-29 10:38:46,0.0
-10992,1152,-6580,276,1979,1081,2025-01-29 10:38:46,0.0
-11216,1244,-6724,348,917,851,2025-01-29 10:38:46,0.0
-10888,1236,-6296,485,-402,449,2025-01-29 10:38:46,0.0
-10116,1008,-5560,733,-1325,-202,2025-01-29 10:38:46,0.0
-8820,524,-5292,1102,-1312,-985,2025-01-29 10:38:46,0.0
-8088,668,-5652,1417,-530,-1547,2025-01-29 10:38:46,0.0
-8184,940,-6332,1618,1299,-2132,2025-01-29 10:38:46,0.0
-9612,948,-7364,1505,2827,-2447,2025-01-29 10:38:46,0.0
-11968,8,-7148,1312,3350,-2288,2025-01-29 10:38:46,0.0
-12732,-900,-7612,1635,2495,-1880,2025-01-29 10:38:46,0.0
-13612,-1216,-7900,2158,1551,-1436,2025-01-29 10:38:46,0.0
-14492,-1312,-7160,2743,580,-780,2025-01-29 10:38:46,0.0
-14956,-1696,-6004,2986,-680,47,2025-01-29 10:38:46,0.0
-14364,-1800,-5880,3300,-1540,815,2025-01-29 10:38:46,0.0
-13072,-1464,-6704,3435,-1844,1358,2025-01-29 10:38:46,0.0
-12008,-956,-6472,3588,-1403,1689,2025-01-29 10:38:46,0.0
-11892,-272,-5576,4000,-255,2047,2025-01-29 10:38:46,0.0
-12904,-516,-6284,4168,1253,2494,2025-01-29 10:38:46,0.0
-13644,-1600,-7480,4364,2047,3425,2025-01-29 10:38:46,0.0
-13520,-1520,-8220,4304,1553,3664,2025-01-29 10:38:46,0.0
-13236,-216,-9556,4115,584,3903,2025-01-29 10:38:46,0.0
-12648,1684,-10276,3645,543,3718,2025-01-29 10:38:46,0.0
-12292,2716,-10792,3047,805,2949,2025-01-29 10:38:46,0.0
-12148,2572,-11740,2309,530,1908,2025-01-29 10:38:46,0.0
-12824,1064,-11076,1420,434,1026,2025-01-29 10:38:46,0.0
-12480,408,-9816,1131,-284,848,2025-01-29 10:38:46,0.0
-11524,284,-8816,1232,-1714,142,2025-01-29 10:38:46,0.0
-10920,324,-8424,1530,-3318,-685,2025-01-29 10:38:46,0.0
-10196,184,-8120,1673,-4383,-941,2025-01-29 10:38:46,0.0
-8664,-536,-8164,1539,-5378,-1251,2025-01-29 10:38:46,0.0
-7908,-1384,-7392,1323,-5404,-1481,2025-01-29 10:38:46,0.0
-7200,-2832,-6628,1352,-3923,-1212,2025-01-29 10:38:46,0.0
-6904,-3796,-6928,1519,-976,-927,2025-01-29 10:38:46,0.0
-7384,-4024,-7972,1574,1584,-724,2025-01-29 10:38:46,0.0
-8056,-3388,-8780,1662,2803,-718,2025-01-29 10:38:46,0.0
-9332,-2740,-8924,1758,3788,-757,2025-01-29 10:38:46,0.0
-10564,-1892,-8416,1880,4008,-1007,2025-01-29 10:38:46,0.0
-11696,-1372,-9108,1608,2808,-1519,2025-01-29 10:38:46,0.0
-12508,-1268,-9108,1267,634,-1956,2025-01-29 10:38:46,0.0
-12200,-1712,-8956,1156,-961,-2170,2025-01-29 10:38:46,0.0
-10956,-2216,-8780,955,-1958,-2482,2025-01-29 10:38:46,
-9972,-2336,-8428,759,-2467,-2767,2025-01-29 10:38:46,0.0
-9240,-2112,-7868,387,-2248,-2616,2025-01-29 10:38:46,0.0
-8440,-1960,-7784,-207,-1093,-2679,2025-01-29 10:38:47,0.0
-8564,-2196,-7684,-745,362,-2748,2025-01-29 10:38:47,0.0
-9084,-2556,-7516,-1086,1609,-2736,2025-01-29 10:38:47,0.0
-10028,-3236,-7108,-1402,2230,-2820,2025-01-29 10:38:47,0.0
-11320,-4176,-6928,-1313,1719,-2622,2025-01-29 10:38:47,0.0
-12112,-4764,-6980,-1135,805,-1912,2025-01-29 10:38:47,0.0
-12120,-4696,-6872,-995,-137,-1127,2025-01-29 10:38:47,0.0
-11556,-4220,-7192,-945,-661,-647,2025-01-29 10:38:47,0.0
-10908,-3308,-7472,-1014,-807,-465,2025-01-29 10:38:47,0.0
-10536,-2384,-7652,-1181,-648,-252,2025-01-29 10:38:47,0.0
-10116,-1948,-7412,-1553,-1,-249,2025-01-29 10:38:47,0.0
-10264,-1848,-7008,-1868,723,-491,2025-01-29 10:38:47,0.0
-11004,-2176,-6888,-2040,1191,-616,2025-01-29 10:38:47,0.0
-11664,-2700,-7332,-2196,1049,-544,2025-01-29 10:38:47,0.0
-12016,-3024,-7144,-2286,407,-633,2025-01-29 10:38:47,0.0
-12100,-3224,-7416,-2350,-257,-629,2025-01-29 10:38:47,0.0
-12044,-2888,-6976,-2449,-897,-546,2025-01-29 10:38:47,0.0
-11492,-2812,-6832,-2471,-1405,-364,2025-01-29 10:38:47,0.0
-10660,-3060,-6708,-2588,-1255,-345,2025-01-29 10:38:47,0.0
-10360,-3296,-6336,-2454,-509,-384,2025-01-29 10:38:47,0.0
-10484,-3112,-6376,-2258,324,-259,2025-01-29 10:38:47,0.0
-11032,-3124,-6648,-2260,958,-295,2025-01-29 10:38:47,0.0
-11576,-2960,-6976,-2201,903,-219,2025-01-29 10:38:47,0.0
-11976,-2940,-6956,-2207,421,-152,2025-01-29 10:38:47,0.0
-12316,-3072,-6752,-2164,-205,-1,2025-01-29 10:38:47,0.0
-11956,-3264,-6640,-2289,-666,179,2025-01-29 10:38:47,0.0
-11920,-3308,-6868,-2444,-635,219,2025-01-29 10:38:47,0.0
-11860,-2608,-6996,-2483,-377,301,2025-01-29 10:38:47,0.0
-11556,-2380,-7448,-2456,-184,228,2025-01-29 10:38:47,0.0
-11520,-2680,-7644,-2532,-95,187,2025-01-29 10:38:47,0.0
-11516,-3364,-7512,-2427,-199,581,2025-01-29 10:38:47,0.0
-11128,-3484,-8308,-2260,-121,926,2025-01-29 10:38:47,0.0
-11232,-3412,-8672,-1885,617,932,2025-01-29 10:38:47,0.0
-13156,-2628,-9132,-871,1496,1116,2025-01-29 10:38:47,0.0
-13208,-2600,-9896,-1011,-471,1745,2025-01-29 10:38:47,0.0
-12028,-2324,-9388,-883,-2463,2275,2025-01-29 10:38:47,0.0
-10128,-1448,-8788,-762,-3251,2435,2025-01-29 10:38:47,0.0
-8500,-120,-8172,-866,-2590,2130,2025-01-29 10:38:47,0.0
-7944,976,-8076,-1131,-934,1696,2025-01-29 10:38:47,0.0
-8012,1844,-8116,-1491,752,1267,2025-01-29 10:38:47,0.0
-8784,2264,-8312,-1890,2269,597,2025-01-29 10:38:47,0.0
-10060,1944,-7808,-2135,2429,6,2025-01-29 10:38:47,0.0
-11200,1352,-7440,-2165,1918,-215,2025-01-29 10:38:47,0.0
-12268,860,-7580,-2081,1356,75,2025-01-29 10:38:47,0.0
-12064,916,-8340,-2015,1081,350,2025-01-29 10:38:47,0.0
-12020,1144,-9016,-2236,1102,364,2025-01-29 10:38:47,0.0
-11360,1036,-8956,-2812,315,208,2025-01-29 10:38:47,0.0
-10952,1084,-8464,-3120,-556,-44,2025-01-29 10:38:47,0.0
-10100,1100,-7968,-3176,-929,-166,2025-01-29 10:38:47,0.0
-9380,1080,-7720,-3031,-628,-391,2025-01-29 10:38:47,0.0
-9144,896,-7548,-2802,427,-625,2025-01-29 10:38:47,0.0
-9176,768,-7656,-2561,1279,-783,2025-01-29 10:38:47,0.0
-9676,940,-7412,-2296,2028,-779,2025-01-29 10:38:47,0.0
-10660,1228,-7728,-2111,2306,-821,2025-01-29 10:38:47,0.0
-11592,1184,-7684,-2000,2130,-724,2025-01-29 10:38:47,0.0
-12268,1036,-7864,-1917,1535,-649,2025-01-29 10:38:47,0.0
-12884,380,-7700,-1718,264,-566,2025-01-29 10:38:47,0.0
-13136,-476,-7252,-1325,-814,-241,2025-01-29 10:38:47,0.0
-12136,-592,-6700,-796,-1623,-12,2025-01-29 10:38:47,0.0
-10856,-332,-6008,-43,-2158,-30,2025-01-29 10:38:47,0.0
-9856,-176,-5380,846,-2147,-161,2025-01-29 10:38:47,0.0
-8900,-248,-4896,1768,-1183,-438,2025-01-29 10:38:48,0.0
-8316,-144,-4992,2714,468,-907,2025-01-29 10:38:48,0.0
-8900,404,-5456,3329,2199,-1311,2025-01-29 10:38:48,0.0
-9876,348,-6496,3435,3505,-1804,2025-01-29 10:38:48,0.0
-11620,-20,-7396,3225,4081,-2076,2025-01-29 10:38:48,0.0
-13012,232,-9040,2837,3315,-1962,2025-01-29 10:38:48,0.0
-13532,444,-9904,2319,1645,-1275,2025-01-29 10:38:48,0.0
-12720,592,-10716,1510,-149,-543,2025-01-29 10:38:48,0.0
-11748,104,-10372,807,-892,-268,2025-01-29 10:38:48,0.0
-10592,-836,-9344,505,-1301,113,2025-01-29 10:38:48,0.0
-9592,-1008,-8132,794,-902,289,2025-01-29 10:38:48,0.0
-9056,-772,-8300,1066,458,92,2025-01-29 10:38:48,0.0
-9332,-724,-8836,1047,1682,-135,2025-01-29 10:38:48,0.0
-10464,-876,-8888,732,2022,-341,2025-01-29 10:38:48,0.0
-11332,-876,-8656,444,1235,-289,2025-01-29 10:38:48,0.0
-11600,-996,-8356,166,-45,-170,2025-01-29 10:38:48,0.0
-11264,-1460,-7724,136,-955,-126,2025-01-29 10:38:48,0.0
-10580,-1572,-7424,410,-881,18,2025-01-29 10:38:48,0.0
-9884,-1688,-7780,580,-157,32,2025-01-29 10:38:48,0.0
-9940,-1540,-7848,758,906,-31,2025-01-29 10:38:48,0.0
-10104,-1324,-8012,957,1812,-9,2025-01-29 10:38:48,0.0
-10600,-1236,-8504,839,2202,-109,2025-01-29 10:38:48,0.0
-11384,-1432,-9040,636,2135,44,2025-01-29 10:38:48,0.0
-11632,-1172,-9204,380,1527,293,2025-01-29 10:38:48,0.0
-11424,-824,-8828,165,437,352,2025-01-29 10:38:48,0.0
-11088,-964,-8112,-97,-385,202,2025-01-29 10:38:48,0.0
-10980,-1368,-7324,-130,-545,33,2025-01-29 10:38:48,0.0
-10668,-1400,-7844,80,-447,-123,2025-01-29 10:38:48,0.0
-10256,-1548,-8088,151,-17,-321,2025-01-29 10:38:48,0.0
-10556,-1572,-8168,195,497,-329,2025-01-29 10:38:48,0.0
-10884,-1244,-8380,141,734,-104,2025-01-29 10:38:48,0.0
-10944,-764,-8120,-84,549,16,2025-01-29 10:38:48,0.0
-11008,-924,-7816,-199,217,9,2025-01-29 10:38:48,0.0
-10848,-1332,-7940,-143,76,-9,2025-01-29 10:38:48,0.0
-10756,-1440,-8156,-31,270,-48,2025-01-29 10:38:48,0.0
-10628,-1328,-8232,-21,501,-125,2025-01-29 10:38:48,0.0
-10816,-1132,-8192,-128,542,-222,2025-01-29 10:38:48,
-11220,-784,-8016,-219,507,-168,2025-01-29 10:38:48,0.0
-11216,-620,-8148,-328,124,-79,2025-01-29 10:38:48,0.0
-11052,-704,-8036,-409,-164,-129,2025-01-29 10:38:48,0.0
-10868,-984,-7984,-391,-122,-144,2025-01-29 10:38:48,0.0
-10864,-1176,-7848,-251,-47,-118,2025-01-29 10:38:48,0.0
-11076,-1036,-7568,-226,17,-143,2025-01-29 10:38:48,0.0
-11076,-724,-7668,-345,19,-147,2025-01-29 10:38:48,0.0
-11068,-604,-7724,-432,-114,-221,2025-01-29 10:38:48,0.0
-11024,-1000,-7644,-473,-194,-198,2025-01-29 10:38:48,0.0
-10868,-1132,-7716,-468,-146,-141,2025-01-29 10:38:48,0.0
-10876,-1236,-7804,-406,65,-141,2025-01-29 10:38:48,0.0
-10992,-1240,-7736,-268,165,-89,2025-01-29 10:38:48,0.0
-11080,-1100,-7776,-199,94,-139,2025-01-29 10:38:48,0.0
-11128,-1032,-7844,-154,-121,-133,2025-01-29 10:38:48,0.0
-10808,-1112,-7764,-152,-161,-86,2025-01-29 10:38:48,0.0
-10604,-928,-7504,-129,104,-120,2025-01-29 10:38:48,0.0
-10768,-928,-7864,-138,380,-144,2025-01-29 10:38:48,0.0
-10736,-748,-8000,-144,582,-146,2025-01-29 10:38:48,0.0
-10968,-752,-8000,-184,567,-239,2025-01-29 10:38:48,0.0
-11172,-676,-8048,-225,342,-261,2025-01-29 10:38:48,0.0
-11232,-736,-8200,-341,-17,-239,2025-01-29 10:38:48,0.0
-10912,-692,-7716,-403,-124,-197,2025-01-29 10:38:48,0.0
-10720,-812,-7840,-414,-14,-224,2025-01-29 10:38:48,0.0
-10680,-860,-7708,-400,209,-252,2025-01-29 10:38:48,0.0
-10780,-1132,-7912,-359,372,-276,2025-01-29 10:38:49,0.0
-10832,-1076,-7972,-249,410,-237,2025-01-29 10:38:49,0.0
-10900,-992,-8140,-240,427,-237,2025-01-29 10:38:49,0.0
-10896,-888,-8024,-243,345,-214,2025-01-29 10:38:49,0.0
-10936,-976,-7984,-223,278,-147,2025-01-29 10:38:49,0.0
-10756,-824,-7944,-195,331,-182,2025-01-29 10:38:49,0.0
-10780,-820,-7868,-196,466,-180,2025-01-29 10:38:49,0.0
-10904,-936,-8012,-198,539,-195,2025-01-29 10:38:49,0.0
-10980,-888,-8112,-116,533,-149,2025-01-29 10:38:49,0.0
-11004,-908,-7948,-123,429,-136,2025-01-29 10:38:49,0.0
-10860,-848,-8004,-157,309,-116,2025-01-29 10:38:49,0.0
-10824,-1000,-8008,-138,287,-89,2025-01-29 10:38:49,0.0
-10844,-880,-7916,-112,276,-60,2025-01-29 10:38:49,0.0
-10664,-804,-7864,-82,438,-90,2025-01-29 10:38:49,0.0
-10680,-796,-7836,-27,591,-108,2025-01-29 10:38:49,0.0
-10820,-904,-7912,-38,719,-134,2025-01-29 10:38:49,0.0
-10972,-828,-7952,-1,759,-147,2025-01-29 10:38:49,0.0
-11068,-796,-7876,-49,668,-131,2025-01-29 10:38:49,0.0
-10916,-848,-8000,-62,431,-111,2025-01-29 10:38:49,0.0
-10800,-804,-8188,-109,284,-93,2025-01-29 10:38:49,0.0
-10724,-872,-8116,-169,402,-155,2025-01-29 10:38:49,0.0
-10724,-704,-7796,-199,563,-233,2025-01-29 10:38:49,0.0
-10900,-824,-8148,-185,512,-265,2025-01-29 10:38:49,0.0
-11056,-812,-8184,-204,397,-264,2025-01-29 10:38:49,0.0
-10868,-908,-7956,-293,224,-260,2025-01-29 10:38:49,0.0
-10996,-856,-7792,-300,132,-283,2025-01-29 10:38:49,0.0
-10888,-1000,-7932,-272,216,-337,2025-01-29 10:38:49,0.0
-10984,-936,-7728,-206,239,-384,2025-01-29 10:38:49,0.0
-11068,-932,-7888,-163,298,-354,2025-01-29 10:38:49,0.0
-10904,-1036,-8168,-181,338,-367,2025-01-29 10:38:49,0.0
-11112,-1088,-8132,-218,231,-310,2025-01-29 10:38:49,0.0
-10952,-1280,-8048,-77,274,-217,2025-01-29 10:38:49,0.0
-10892,-1280,-8172,186,373,-301,2025-01-29 10:38:49,0.0
-11408,-1096,-8384,266,349,-108,2025-01-29 10:38:49,0.0
-11612,-776,-8336,201,-367,472,2025-01-29 10:38:49,0.0
-11144,-656,-8284,-7,-1120,1160,2025-01-29 10:38:49,0.0
-9468,-720,-8136,-133,-1038,924,2025-01-29 10:38:49,0.0
-9424,-700,-7736,-125,-95,161,2025-01-29 10:38:49,0.0
-10132,-1204,-7580,-9,775,-54,2025-01-29 10:38:49,0.0
-10824,-1540,-7488,442,1434,182,2025-01-29 10:38:49,0.0
-11336,-1224,-7820,790,1301,418,2025-01-29 10:38:49,0.0
-11396,-832,-8260,754,721,294,2025-01-29 10:38:49,0.0
-11560,-656,-8576,631,222,304,2025-01-29 10:38:49,0.0
-10920,-824,-8700,536,-193,441,2025-01-29 10:38:49,0.0
-9980,-1184,-8584,527,-283,451,2025-01-29 10:38:49,0.0
-9580,-1344,-8524,598,173,456,2025-01-29 10:38:49,0.0
-9228,-1148,-8756,643,1014,606,2025-01-29 10:38:49,0.0
-8988,-804,-9120,605,1371,733,2025-01-29 10:38:49,0.0
-8864,-476,-9100,431,1435,865,2025-01-29 10:38:49,0.0
-8568,-240,-9032,119,1149,1053,2025-01-29 10:38:49,0.0
-8028,-28,-8872,-279,704,1074,2025-01-29 10:38:49,0.0
-7176,212,-8832,-822,271,919,2025-01-29 10:38:49,0.0
-6532,540,-8280,-1211,-167,883,2025-01-29 10:38:49,0.0
-5576,476,-7448,-1574,-731,745,2025-01-29 10:38:49,0.0
-5440,-504,-3968,-2246,103,439,2025-01-29 10:38:49,0.0
-4524,-816,-2964,-2142,648,223,2025-01-29 10:38:49,0.0
-3492,-912,-2604,-1767,907,-104,2025-01-29 10:38:49,0.0
-2968,-356,-1816,-907,986,-550,2025-01-29 10:38:49,0.0
-3060,-72,-1672,-417,1554,-804,2025-01-29 10:38:49,0.0
-3676,-644,-1176,-780,3878,-917,2025-01-29 10:38:50,0.0
-4752,-964,-1380,-337,6192,-1615,2025-01-29 10:38:50,0.0
-7460,-612,-3204,91,7103,-1699,2025-01-29 10:38:50,0.0
-9400,-196,-5012,139,5628,-1359,2025-01-29 10:38:50,0.0
-9940,380,-6564,-1165,1592,61,2025-01-29 10:38:50,0.0
-8728,264,-6204,-1768,-1092,854,2025-01-29 10:38:50,0.0
-7804,-520,-5964,-1723,-2025,928,2025-01-29 10:38:50,0.0
-7360,-1256,-5440,-1796,-2927,131,2025-01-29 10:38:50,0.0
-8008,-1384,-4532,-1530,-3651,-776,2025-01-29 10:38:50,0.0
-8236,-660,-5316,-1272,-3463,-1008,2025-01-29 10:38:50,0.0
-7796,116,-6824,-1488,-2735,-514,2025-01-29 10:38:50,0.0
-7928,336,-6920,-1866,-2004,-469,2025-01-29 10:38:50,0.0
-10644,16,-5288,-1655,-2499,-1456,2025-01-29 10:38:50,0.0
-16576,-220,-5860,-1324,-3739,-2031,2025-01-29 10:38:50,0.0
-16576,0,-8428,-1595,-6456,-1527,2025-01-29 10:38:50,0.0
-13572,-8,-10828,-1677,-9659,-141,2025-01-29 10:38:50,0.0
-10784,364,-9888,-2285,-10535,862,2025-01-29 10:38:50,
-9644,-1128,-7656,-2407,-8952,344,2025-01-29 10:38:50,0.0
-11180,-992,-7004,-1596,-6135,-929,2025-01-29 10:38:50,0.0
-11052,208,-6668,-1311,-6229,-1641,2025-01-29 10:38:50,0.0
-14116,1548,-7720,-1622,-6155,-1407,2025-01-29 10:38:50,0.0
-15776,2096,-7344,-1995,-4345,-711,2025-01-29 10:38:50,0.0
-17492,284,-7412,-1743,-4659,-197,2025-01-29 10:38:50,0.0
-13976,-2840,-6340,-1308,-4882,217,2025-01-29 10:38:50,0.0
-14804,-1232,-10416,-700,-4485,-1307,2025-01-29 10:38:50,0.0
-17064,-776,-10068,-647,-4322,-1280,2025-01-29 10:38:50,0.0
-20752,-276,-8176,-677,-5866,-1034,2025-01-29 10:38:50,0.0
-21288,112,-9052,-879,-7995,139,2025-01-29 10:38:50,0.0
-20540,-648,-7624,-1410,-8187,2348,2025-01-29 10:38:50,0.0
-20328,-172,-7864,-1185,-4652,2594,2025-01-29 10:38:50,0.0
-19648,628,-8208,-1269,-4770,1637,2025-01-29 10:38:50,0.0
-20836,1740,-7092,-1293,-4084,1793,2025-01-29 10:38:50,0.0
-20236,1688,-7440,-1258,-5663,1368,2025-01-29 10:38:50,0.0
-18668,480,-5900,-879,-5962,734,2025-01-29 10:38:50,0.0
-18068,972,-7056,-907,-3753,-31,2025-01-29 10:38:50,0.0
-15388,1560,-6992,-1054,-5266,-677,2025-01-29 10:38:50,0.0
-15508,636,-6952,-829,-3525,-927,2025-01-29 10:38:50,0.0
-15356,-1072,-5772,-566,-1566,-1033,2025-01-29 10:38:50,0.0
-15380,-1548,-4752,-113,-592,-995,2025-01-29 10:38:50,0.0
-14856,-1064,-4696,446,-215,-1036,2025-01-29 10:38:50,0.0
-14644,460,-4480,888,327,-838,2025-01-29 10:38:50,0.0
-13948,2384,-5256,571,69,-583,2025-01-29 10:38:50,0.0
-13504,2336,-4792,-60,-465,-64,2025-01-29 10:38:50,0.0
-12384,932,-3656,-299,-55,475,2025-01-29 10:38:50,0.0
-11600,-108,-2448,-238,529,884,2025-01-29 10:38:50,0.0
-11060,-752,-1784,165,1599,794,2025-01-29 10:38:50,0.0
-9820,-500,-2272,628,2339,175,2025-01-29 10:38:50,0.0
-10448,380,-2636,676,2465,-162,2025-01-29 10:38:50,0.0
-11720,1252,-3156,424,2045,-255,2025-01-29 10:38:50,0.0
-12292,728,-3404,196,1360,-532,2025-01-29 10:38:50,0.0
-12800,20,-3408,117,603,-547,2025-01-29 10:38:50,0.0
-12672,-160,-3024,-80,86,-427,2025-01-29 10:38:50,0.0
-12284,96,-2980,-213,-22,-586,2025-01-29 10:38:50,0.0
-12160,80,-3164,-128,532,-899,2025-01-29 10:38:50,0.0
-12584,-80,-3356,-81,864,-938,2025-01-29 10:38:50,0.0
-13632,-388,-3692,-66,477,-608,2025-01-29 10:38:50,0.0
-13820,-308,-3908,9,-129,-277,2025-01-29 10:38:50,0.0
-13980,-320,-3732,170,-561,-25,2025-01-29 10:38:50,0.0
-13812,-396,-3640,273,-845,188,2025-01-29 10:38:50,0.0
-13512,-292,-3464,376,-1196,219,2025-01-29 10:38:50,0.0
-13016,208,-3772,280,-1288,146,2025-01-29 10:38:50,0.0
-12604,700,-3676,182,-1021,-114,2025-01-29 10:38:50,0.0
-12532,640,-3784,-21,-664,-341,2025-01-29 10:38:51,0.0
-12548,204,-3596,-127,-474,-522,2025-01-29 10:38:51,0.0
-12956,-176,-4020,-122,-249,-603,2025-01-29 10:38:51,0.0
-13080,-636,-3976,0,-367,-505,2025-01-29 10:38:51,0.0
-13252,-772,-3876,185,-327,-363,2025-01-29 10:38:51,0.0
-13240,-748,-3904,414,-113,-316,2025-01-29 10:38:51,0.0
-12944,-296,-3732,600,-7,-359,2025-01-29 10:38:51,0.0
-13184,320,-3872,557,36,-418,2025-01-29 10:38:51,0.0
-13200,988,-4088,260,-81,-436,2025-01-29 10:38:51,0.0
-13168,1136,-4184,-74,-218,-390,2025-01-29 10:38:51,0.0
-13072,688,-3844,-265,-246,-301,2025-01-29 10:38:51,0.0
-13108,-80,-3536,-257,-172,-231,2025-01-29 10:38:51,0.0
-13024,-692,-3144,13,-91,-126,2025-01-29 10:38:51,0.0
-12936,-876,-3048,332,246,-70,2025-01-29 10:38:51,0.0
-13008,-516,-3348,551,513,-29,2025-01-29 10:38:51,0.0
-12924,24,-3996,537,485,2,2025-01-29 10:38:51,0.0
-13020,624,-4408,309,368,-23,2025-01-29 10:38:51,0.0
-13236,1016,-4364,-29,16,-71,2025-01-29 10:38:51,0.0
-13328,664,-3876,-260,-369,-35,2025-01-29 10:38:51,0.0
-12932,-184,-3364,-313,-284,-22,2025-01-29 10:38:51,0.0
-13132,148,-3856,175,-83,-96,2025-01-29 10:38:51,0.0
-13076,212,-3912,128,-209,-51,2025-01-29 10:38:51,0.0
-13260,276,-3732,-6,-135,-27,2025-01-29 10:38:51,0.0
-13108,332,-3548,-51,-89,-19,2025-01-29 10:38:51,0.0
-13280,184,-3372,-58,-37,-35,2025-01-29 10:38:51,0.0
-13504,208,-3104,-45,-36,-2,2025-01-29 10:38:51,0.0
-13340,388,-3172,-90,-90,77,2025-01-29 10:38:51,0.0
-13420,460,-3448,-161,-67,107,2025-01-29 10:38:51,0.0
-12836,28,-3236,-149,43,-112,2025-01-29 10:38:51,0.0
-12800,44,-3264,-104,125,-293,2025-01-29 10:38:51,0.0
-12976,256,-3388,-149,86,-447,2025-01-29 10:38:51,0.0
-13052,168,-3400,-261,-84,-556,2025-01-29 10:38:51,0.0
-13052,32,-3220,-341,-197,-579,2025-01-29 10:38:51,0.0
-12932,-380,-2916,-267,-11,-600,2025-01-29 10:38:51,0.0
-13260,-540,-2988,-123,169,-528,2025-01-29 10:38:51,0.0
-13288,-196,-3188,-66,425,-327,2025-01-29 10:38:51,0.0
-13200,104,-3344,-134,497,-233,2025-01-29 10:38:51,0.0
-13164,104,-3412,-204,350,-229,2025-01-29 10:38:51,0.0
-13040,268,-3464,-258,113,-327,2025-01-29 10:38:51,0.0
-13124,156,-3300,-301,-135,-441,2025-01-29 10:38:51,0.0
-13172,28,-3420,-272,-373,-516,2025-01-29 10:38:51,0.0
-13008,-368,-3228,-164,-242,-485,2025-01-29 10:38:51,0.0
-12840,-624,-3044,22,238,-420,2025-01-29 10:38:51,0.0
-12840,-356,-3172,143,383,-422,2025-01-29 10:38:51,0.0
-12956,-136,-3524,140,296,-473,2025-01-29 10:38:51,0.0
-13272,316,-3800,25,72,-473,2025-01-29 10:38:51,0.0
-13368,720,-3804,-254,-181,-451,2025-01-29 10:38:52,0.0
-13236,508,-3536,-435,-424,-407,2025-01-29 10:38:52,0.0
-13144,-448,-3228,-407,-231,-255,2025-01-29 10:38:52,0.0
-13152,-1004,-2948,-201,130,-38,2025-01-29 10:38:52,0.0
-13336,-736,-2928,23,287,89,2025-01-29 10:38:52,0.0
-13140,-28,-3216,155,189,-33,2025-01-29 10:38:52,0.0
-13116,236,-3600,96,91,-159,2025-01-29 10:38:52,0.0
-13016,192,-3716,16,-94,-203,2025-01-29 10:38:52,0.0
-13104,0,-3636,-34,-82,-221,2025-01-29 10:38:52,
-13108,-260,-3188,-23,-34,-210,2025-01-29 10:38:52,0.0
-13020,-540,-2884,21,125,-281,2025-01-29 10:38:52,0.0
-13036,-532,-2828,124,272,-337,2025-01-29 10:38:52,0.0
-12988,-436,-3052,165,320,-410,2025-01-29 10:38:52,0.0
-13216,-148,-3492,78,212,-387,2025-01-29 10:38:52,0.0
-13276,-96,-3360,-64,-109,-380,2025-01-29 10:38:52,0.0
-13236,16,-3320,-161,-252,-369,2025-01-29 10:38:52,0.0
-12888,-216,-3228,-230,-119,-359,2025-01-29 10:38:52,0.0
-12944,-556,-3052,-137,25,-297,2025-01-29 10:38:52,0.0
-13016,-480,-3200,-25,200,-281,2025-01-29 10:38:52,0.0
-13060,-228,-3388,20,81,-281,2025-01-29 10:38:52,0.0
-13128,56,-3204,-26,-8,-278,2025-01-29 10:38:52,0.0
-13200,140,-3492,-168,-132,-249,2025-01-29 10:38:52,0.0
-13180,-16,-3404,-202,-213,-216,2025-01-29 10:38:52,0.0
-13088,-268,-3228,-228,-168,-200,2025-01-29 10:38:52,0.0
-13036,-504,-3096,-161,-22,-187,2025-01-29 10:38:52,0.0
-12960,-560,-3148,-91,52,-172,2025-01-29 10:38:52,0.0
-13092,-308,-3216,-38,98,-236,2025-01-29 10:38:52,0.0
-12944,-92,-3108,-104,155,-354,2025-01-29 10:38:52,0.0
-13500,-28,-3100,-156,115,-306,2025-01-29 10:38:52,0.0
-13540,-184,-2984,-280,-70,-219,2025-01-29 10:38:52,0.0
-13320,-324,-2900,-292,-171,-192,2025-01-29 10:38:52,0.0
-13160,-156,-2900,-327,-38,-302,2025-01-29 10:38:52,0.0
-13012,24,-2784,-356,159,-356,2025-01-29 10:38:52,0.0
-13220,-148,-3000,-398,317,-369,2025-01-29 10:38:52,0.0
-13332,-256,-2884,-429,274,-378,2025-01-29 10:38:52,0.0
-13272,-264,-2968,-383,-69,-323,2025-01-29 10:38:52,0.0
-13096,-216,-2864,-366,-327,-217,2025-01-29 10:38:52,0.0
-12920,-280,-2908,-357,-159,-224,2025-01-29 10:38:52,0.0
-13064,-428,-2844,-312,26,-232,2025-01-29 10:38:52,0.0
-13076,-408,-3004,-223,73,-212,2025-01-29 10:38:52,0.0
-13112,-468,-3084,-194,13,-153,2025-01-29 10:38:52,0.0
-12968,-280,-3032,-183,-94,-113,2025-01-29 10:38:52,0.0
-12888,-268,-3368,-141,-126,-105,2025-01-29 10:38:52,0.0
-13148,-4,-3112,-180,-45,-131,2025-01-29 10:38:52,0.0
-13120,-12,-3252,-217,47,-135,2025-01-29 10:38:52,0.0
-13280,-20,-3324,-257,212,-139,2025-01-29 10:38:52,0.0
-13172,-164,-3008,-243,183,-188,2025-01-29 10:38:52,0.0
-13196,-228,-3280,-225,53,-245,2025-01-29 10:38:52,0.0
-13152,-104,-3144,-205,-93,-226,2025-01-29 10:38:52,0.0
-13200,-48,-2992,-237,-117,-226,2025-01-29 10:38:52,0.0
-13320,-400,-2980,-165,79,-191,2025-01-29 10:38:52,0.0
-13308,-548,-3036,-82,225,-174,2025-01-29 10:38:52,0.0
-13256,-240,-3212,-12,243,-134,2025-01-29 10:38:52,0.0
-13388,64,-3160,-37,167,-76,2025-01-29 10:38:52,0.0
-13408,-56,-2984,-107,98,-62,2025-01-29 10:38:52,0.0
-13436,28,-2868,-114,-14,-60,2025-01-29 10:38:52,0.0
-13248,-88,-2816,-80,-57,-125,2025-01-29 10:38:52,0.0
-13036,-224,-2948,-56,-28,-140,2025-01-29 10:38:52,0.0
-13180,-372,-2892,-19,173,-144,2025-01-29 10:38:52,0.0
-13040,-336,-2924,45,119,-116,2025-01-29 10:38:52,0.0
-13048,-244,-2964,61,114,-105,2025-01-29 10:38:52,0.0
-13200,-116,-3080,27,96,-52,2025-01-29 10:38:52,0.0
-13248,-156,-3112,-93,55,19,2025-01-29 10:38:53,0.0
-13272,168,-3280,-200,242,75,2025-01-29 10:38:53,0.0
-13212,20,-3288,-341,569,240,2025-01-29 10:38:53,0.0
-13124,-36,-2704,-367,304,74,2025-01-29 10:38:53,0.0
-13184,-356,-2768,-296,245,-64,2025-01-29 10:38:53,0.0
-13312,-320,-3012,-251,259,50,2025-01-29 10:38:53,0.0
-13396,-96,-3124,-249,275,134,2025-01-29 10:38:53,0.0
-13288,-32,-3192,-294,198,159,2025-01-29 10:38:53,0.0
-13000,-76,-2864,-275,111,55,2025-01-29 10:38:53,0.0
-12800,-316,-2900,-194,21,-101,2025-01-29 10:38:53,0.0
-13008,-276,-2760,-108,51,-240,2025-01-29 10:38:53,0.0
-13148,-104,-3028,-60,-51,-387,2025-01-29 10:38:53,0.0
-13196,-148,-2992,-64,-88,-425,2025-01-29 10:38:53,0.0
-13160,-84,-3152,-73,-209,-470,2025-01-29 10:38:53,0.0
-13340,-196,-2884,-105,-219,-451,2025-01-29 10:38:53,0.0
-13120,-356,-3032,-105,-64,-384,2025-01-29 10:38:53,0.0
-13352,-240,-2980,-65,-49,-353,2025-01-29 10:38:53,0.0
-13264,-292,-2960,-50,-105,-339,2025-01-29 10:38:53,0.0
-13384,-232,-3008,-63,-63,-262,2025-01-29 10:38:53,0.0
-13264,-96,-3160,-102,-108,-184,2025-01-29 10:38:53,0.0
-13240,-48,-2876,-112,-130,-142,2025-01-29 10:38:53,0.0
-13168,-148,-2992,-132,-111,-126,2025-01-29 10:38:53,0.0
-13216,-148,-3032,-141,-100,-119,2025-01-29 10:38:53,0.0
-13100,-124,-2864,-110,24,-154,2025-01-29 10:38:53,0.0
-13172,-220,-2836,-78,183,-178,2025-01-29 10:38:53,0.0
-13172,-304,-2856,-52,259,-172,2025-01-29 10:38:53,0.0
-13400,-264,-2936,-50,192,-135,2025-01-29 10:38:53,0.0
-13388,-28,-2988,-88,25,-85,2025-01-29 10:38:53,0.0
-13304,-24,-3104,-102,-86,-68,2025-01-29 10:38:53,0.0
-13164,-276,-3060,-148,-146,-112,2025-01-29 10:38:53,0.0
-13172,-96,-2772,-158,-13,-121,2025-01-29 10:38:53,0.0
-13028,0,-2956,-182,184,-129,2025-01-29 10:38:53,0.0
-13108,16,-2708,-225,407,-124,2025-01-29 10:38:53,0.0
-13288,-80,-2824,-227,456,-173,2025-01-29 10:38:53,0.0
-13644,-292,-2872,-203,304,-208,2025-01-29 10:38:53,0.0
-13860,-192,-3140,-257,337,-7,2025-01-29 10:38:53,0.0
-14064,-84,-3460,-434,516,350,2025-01-29 10:38:53,0.0
-14208,4,-3264,-668,1080,816,2025-01-29 10:38:53,0.0
-13268,-252,-2760,-688,916,739,2025-01-29 10:38:53,0.0
-12800,-296,-2548,-608,619,425,2025-01-29 10:38:53,0.0
-13016,84,-3128,-615,671,233,2025-01-29 10:38:53,0.0
-13592,32,-2856,-578,754,174,2025-01-29 10:38:53,0.0
-13460,-172,-2596,-405,76,60,2025-01-29 10:38:53,0.0
-13484,-148,-2816,-373,-6,-16,2025-01-29 10:38:53,0.0
-13116,-124,-3008,-422,419,-131,2025-01-29 10:38:53,0.0
-12924,40,-2824,-405,529,-336,2025-01-29 10:38:53,0.0
-13092,-108,-3120,-363,584,-362,2025-01-29 10:38:53,
-13256,-228,-3268,-325,836,-296,2025-01-29 10:38:53,0.0
-13900,48,-3380,-220,1115,-352,2025-01-29 10:38:53,0.0
-14324,528,-3636,-315,1188,-387,2025-01-29 10:38:53,0.0
-14972,616,-3728,-431,1445,-351,2025-01-29 10:38:53,0.0
-15376,100,-3524,-290,1499,-348,2025-01-29 10:38:53,0.0
-15784,-600,-3596,0,1449,-178,2025-01-29 10:38:53,0.0
-16636,-1048,-4060,208,2046,312,2025-01-29 10:38:53,0.0
-16500,-1020,-4140,419,2432,736,2025-01-29 10:38:53,0.0
-15532,-664,-3216,534,2025,465,2025-01-29 10:38:53,0.0
-15824,684,-3260,531,3124,-331,2025-01-29 10:38:53,0.0
-17336,1412,-4236,215,4929,-1068,2025-01-29 10:38:53,0.0
-18232,736,-4804,315,5640,-1199,2025-01-29 10:38:53,0.0
-17728,-128,-5604,463,6019,-1045,2025-01-29 10:38:54,0.0
-17448,-948,-6100,473,6360,-832,2025-01-29 10:38:54,0.0
-16744,-1280,-6680,618,6838,-971,2025-01-29 10:38:55,0.0
-16528,-840,-7228,896,7893,-1300,2025-01-29 10:38:55,0.0
-17160,-28,-8200,968,9037,-1594,2025-01-29 10:38:55,0.0
-17416,324,-8796,920,9406,-1438,2025-01-29 10:38:55,0.0
-17180,476,-8672,977,8734,-1211,2025-01-29 10:38:55,0.0
-16720,360,-8464,893,8405,-916,2025-01-29 10:38:55,0.0
-14000,-972,-7908,705,8036,-178,2025-01-29 10:38:55,0.0
-13516,-836,-7264,641,7919,20,2025-01-29 10:38:55,0.0
-12652,320,-10488,-665,5499,-140,2025-01-29 10:38:55,0.0
-11172,-448,-7708,85,1,61,2025-01-29 10:38:55,0.0
-11224,-372,-7716,34,19,85,2025-01-29 10:38:55,0.0
-11048,-496,-7548,59,130,75,2025-01-29 10:38:55,0.0
-11100,-252,-7508,107,169,63,2025-01-29 10:38:55,0.0
-11008,-232,-7732,41,210,66,2025-01-29 10:38:55,0.0
-11092,-172,-7740,-16,207,55,2025-01-29 10:38:55,0.0
-11128,-224,-7660,-64,230,50,2025-01-29 10:38:55,0.0
-11128,-116,-7668,-161,150,25,2025-01-29 10:38:55,0.0
-11144,-20,-7656,-283,61,35,2025-01-29 10:38:55,0.0
-10980,212,-7648,-389,-5,-16,2025-01-29 10:38:55,0.0
-10704,268,-7624,-470,94,-117,2025-01-29 10:38:55,0.0
-10584,168,-7492,-470,335,-229,2025-01-29 10:38:55,0.0
-10620,36,-7208,-405,681,-396,2025-01-29 10:38:55,0.0
-10764,316,-7348,-422,931,-494,2025-01-29 10:38:55,0.0
-10652,480,-7760,-592,1119,-593,2025-01-29 10:38:55,0.0
-10748,592,-7744,-810,1426,-656,2025-01-29 10:38:55,0.0
-10876,912,-8156,-1086,1585,-715,2025-01-29 10:38:55,0.0
-11168,1124,-7976,-1430,1566,-787,2025-01-29 10:38:55,0.0
-11124,1228,-8136,-1780,1212,-987,2025-01-29 10:38:55,0.0
-11308,1060,-8068,-1989,683,-1322,2025-01-29 10:38:55,0.0
-11400,1252,-7816,-2162,203,-1436,2025-01-29 10:38:55,0.0
-11408,1396,-7896,-2437,-158,-1493,2025-01-29 10:38:55,0.0
-11136,1784,-8096,-2878,-409,-1656,2025-01-29 10:38:55,0.0
-10752,1648,-8232,-3290,-678,-1968,2025-01-29 10:38:55,0.0
-10676,1228,-8372,-3586,-743,-2510,2025-01-29 10:38:56,0.0
-10804,1108,-8548,-3982,-727,-2976,2025-01-29 10:38:56,0.0
-11180,832,-7840,-4250,-708,-3263,2025-01-29 10:38:56,0.0
-11288,884,-8288,-4586,-896,-3358,2025-01-29 10:38:56,0.0
-11016,1108,-8428,-5031,-1184,-3514,2025-01-29 10:38:56,0.0
-10664,1112,-8160,-5393,-1513,-3860,2025-01-29 10:38:56,0.0
-9844,720,-8472,-5679,-1745,-4377,2025-01-29 10:38:56,0.0
-9016,28,-8624,-5783,-1450,-4978,2025-01-29 10:38:56,0.0
-7880,-228,-9588,-6120,-669,-5429,2025-01-29 10:38:56,0.0
-7296,-448,-10016,-6733,497,-5690,2025-01-29 10:38:56,0.0
-7356,-1140,-9200,-7131,2063,-6070,2025-01-29 10:38:56,0.0
-8340,-1780,-8608,-7458,3218,-6259,2025-01-29 10:38:56,0.0
-9892,-2152,-8108,-7837,4242,-6081,2025-01-29 10:38:56,0.0
-10908,-2528,-8724,-7948,4436,-5893,2025-01-29 10:38:56,0.0
-11476,-2436,-8972,-8018,3706,-6173,2025-01-29 10:38:56,0.0
-12452,-2248,-8640,-7974,2901,-6982,2025-01-29 10:38:56,0.0
-13488,-1888,-8032,-7855,1840,-7648,2025-01-29 10:38:56,0.0
-13684,-1696,-8004,-7818,709,-7871,2025-01-29 10:38:56,0.0
-13100,-2008,-8148,-8045,-327,-8035,2025-01-29 10:38:56,0.0
-12192,-2688,-8380,-8539,-839,-8198,2025-01-29 10:38:56,0.0
-11272,-3116,-7992,-8933,-997,-8289,2025-01-29 10:38:56,0.0
-10368,-3120,-7808,-9041,-483,-8435,2025-01-29 10:38:56,0.0
-10040,-3128,-7888,-9034,142,-8440,2025-01-29 10:38:56,0.0
-9768,-2828,-8020,-9019,619,-8317,2025-01-29 10:38:56,0.0
-9688,-2432,-7612,-8985,933,-8309,2025-01-29 10:38:56,0.0
-10024,-2256,-7448,-9040,1001,-8336,2025-01-29 10:38:56,0.0
-10360,-2516,-7484,-9141,620,-8219,2025-01-29 10:38:56,0.0
-10376,-2940,-8004,-9087,76,-8040,2025-01-29 10:38:56,0.0
-10308,-3404,-8800,-9185,-560,-7775,2025-01-29 10:38:56,0.0
-10072,-3772,-9208,-9333,-1031,-7255,2025-01-29 10:38:56,0.0
-10212,-4268,-9080,-9404,-523,-6745,2025-01-29 10:38:56,0.0
-10716,-4684,-8068,-9321,-18,-6289,2025-01-29 10:38:56,0.0
-11276,-4168,-6916,-9100,9,-5919,2025-01-29 10:38:56,0.0
-11292,-3464,-7240,-8929,-577,-5398,2025-01-29 10:38:56,0.0
-11184,-2808,-8144,-9023,-1170,-4595,2025-01-29 10:38:56,0.0
-9748,-2908,-8668,-9397,-860,-4545,2025-01-29 10:38:56,0.0
-9076,-2948,-8080,-9795,362,-5514,2025-01-29 10:38:56,0.0
-10104,-3020,-7724,-10174,1192,-6350,2025-01-29 10:38:56,0.0
-11480,-2968,-7712,-10407,957,-6367,2025-01-29 10:38:56,0.0
-12328,-3248,-7752,-10530,194,-6160,2025-01-29 10:38:56,0.0
-13096,-3224,-7652,-10564,-1196,-5964,2025-01-29 10:38:56,0.0
-12932,-3228,-8336,-10509,-2979,-5711,2025-01-29 10:38:56,0.0
-12220,-2708,-9908,-10218,-4595,-5279,2025-01-29 10:38:56,0.0
-11108,-2224,-10092,-10168,-5633,-4622,2025-01-29 10:38:56,0.0
-9556,-1624,-8756,-9665,-5542,-4072,2025-01-29 10:38:56,0.0
-8428,-1016,-8244,-9240,-4297,-4342,2025-01-29 10:38:56,0.0
-8128,-256,-8536,-9124,-1926,-4977,2025-01-29 10:38:56,0.0
-9008,88,-8356,-9318,486,-5453,2025-01-29 10:38:56,0.0
-9552,292,-7748,-9178,1379,-5408,2025-01-29 10:38:56,0.0
-9720,712,-8400,-9182,1475,-5276,2025-01-29 10:38:56,0.0
-9924,1100,-9200,-9541,1478,-5268,2025-01-29 10:38:56,0.0
-10304,1420,-9396,-10016,1564,-5495,2025-01-29 10:38:56,0.0
-11196,1972,-9208,-10545,1106,-5487,2025-01-29 10:38:56,
-11600,1980,-8292,-10949,367,-5350,2025-01-29 10:38:56,0.0
-11808,2332,-8092,-11287,-395,-5295,2025-01-29 10:38:56,0.0
-11856,2784,-9104,-11925,-615,-5316,2025-01-29 10:38:56,0.0
-11664,2672,-9892,-12781,-304,-5446,2025-01-29 10:38:56,0.0
-11588,1296,-9544,-13459,-81,-5646,2025-01-29 10:38:56,0.0
-11748,-572,-7904,-13392,-90,-5708,2025-01-29 10:38:56,0.0
-11856,-1544,-6876,-12684,-410,-5527,2025-01-29 10:38:56,0.0
-11528,-1664,-6160,-11886,-821,-5159,2025-01-29 10:38:56,0.0
-11020,-1412,-5904,-10999,-1023,-4833,2025-01-29 10:38:57,0.0
-10628,-484,-6048,-10104,-925,-4566,2025-01-29 10:38:57,0.0
-10552,440,-6336,-9564,-539,-4338,2025-01-29 10:38:57,0.0
-10524,1172,-6536,-9139,17,-4264,2025-01-29 10:38:57,0.0
-10812,1692,-6824,-8764,414,-4214,2025-01-29 10:38:57,0.0
-10876,1808,-7384,-8458,490,-4154,2025-01-29 10:38:57,0.0
-10956,1700,-7668,-8448,212,-4343,2025-01-29 10:38:57,0.0
-10944,1332,-7048,-8330,-345,-4414,2025-01-29 10:38:57,0.0
-10812,1288,-6928,-8014,-507,-4218,2025-01-29 10:38:57,0.0
-10248,1468,-6960,-7870,69,-4028,2025-01-29 10:38:57,0.0
-10028,1724,-7032,-7641,914,-4086,2025-01-29 10:38:57,0.0
-10040,1964,-7644,-7569,1660,-4223,2025-01-29 10:38:57,0.0
-10292,2124,-8212,-7621,1996,-4475,2025-01-29 10:38:57,0.0
-10640,2080,-8288,-7814,2011,-4712,2025-01-29 10:38:57,0.0
-10920,2100,-8028,-7954,1591,-4905,2025-01-29 10:38:57,0.0
-11152,2004,-7968,-8111,611,-5088,2025-01-29 10:38:57,0.0
-10684,1844,-8224,-8242,-82,-5223,2025-01-29 10:38:57,0.0
-10396,1868,-8184,-8416,-550,-5420,2025-01-29 10:38:57,0.0
-10308,2012,-8284,-8600,-396,-5489,2025-01-29 10:38:57,0.0
-9948,2432,-8468,-8770,-66,-5517,2025-01-29 10:38:57,0.0
-9904,2736,-8016,-9132,29,-5926,2025-01-29 10:38:57,0.0
-10120,2792,-8020,-9245,95,-6300,2025-01-29 10:38:57,0.0
-10208,2416,-8024,-9159,25,-6505,2025-01-29 10:38:57,0.0
-10212,1780,-8584,-9097,36,-6690,2025-01-29 10:38:57,0.0
-10864,1500,-8056,-9004,88,-6739,2025-01-29 10:38:57,0.0
-11240,1408,-7680,-8731,248,-6580,2025-01-29 10:38:57,0.0
-11124,1152,-7776,-8649,211,-6521,2025-01-29 10:38:57,0.0
-11104,1148,-7612,-8588,65,-6418,2025-01-29 10:38:57,0.0
-10920,1264,-7460,-8322,-23,-6294,2025-01-29 10:38:57,0.0
-10692,1124,-7156,-8067,208,-6333,2025-01-29 10:38:57,0.0
-10952,776,-6924,-7791,469,-6376,2025-01-29 10:38:57,0.0
-11308,612,-6640,-7335,424,-6321,2025-01-29 10:38:57,0.0
-11496,340,-6240,-6931,343,-6201,2025-01-29 10:38:57,0.0
-11480,344,-5752,-6466,159,-6002,2025-01-29 10:38:57,0.0
-11236,136,-5936,-5746,88,-5735,2025-01-29 10:38:57,0.0
-10616,20,-6216,-5005,260,-5615,2025-01-29 10:38:57,0.0
-10260,-68,-6200,-4348,510,-5716,2025-01-29 10:38:57,0.0
-10272,-296,-5888,-3856,741,-5854,2025-01-29 10:38:57,0.0
-10312,-520,-5536,-3118,1291,-5923,2025-01-29 10:38:57,0.0
-10356,-748,-6124,-2126,2658,-5740,2025-01-29 10:38:57,0.0
-10660,-1676,-7608,-1434,4615,-5604,2025-01-29 10:38:57,0.0
-12416,-1520,-8792,-849,6492,-4870,2025-01-29 10:38:57,0.0
-13728,-384,-10856,-773,8020,-3465,2025-01-29 10:38:57,0.0
-14576,760,-11072,-1480,7805,-2626,2025-01-29 10:38:57,0.0
-14980,1632,-9508,-1837,4541,-2094,2025-01-29 10:38:57,0.0
-13428,1600,-8404,-1875,-1376,-2460,2025-01-29 10:38:57,0.0
-11876,-200,-7020,-2009,-6604,-3146,2025-01-29 10:38:57,0.0
-9756,-1624,-6624,-1704,-7262,-3133,2025-01-29 10:38:57,0.0
-8804,-2436,-6348,-1295,-5167,-3119,2025-01-29 10:38:57,0.0
-8904,-2220,-6244,-1043,-1648,-2625,2025-01-29 10:38:57,0.0
-8804,-1064,-6488,-1120,691,-2089,2025-01-29 10:38:57,0.0
-9244,196,-6896,-1578,1263,-1861,2025-01-29 10:38:57,0.0
-9864,1144,-7780,-2517,1311,-1919,2025-01-29 10:38:57,0.0
-10208,1252,-8792,-3670,1449,-2424,2025-01-29 10:38:57,0.0
-10624,376,-9584,-4764,1721,-3484,2025-01-29 10:38:57,0.0
-11684,-876,-9816,-5611,1628,-4605,2025-01-29 10:38:57,0.0
-12720,-2424,-10140,-5908,995,-5208,2025-01-29 10:38:57,0.0
-13304,-3384,-9580,-5714,144,-5442,2025-01-29 10:38:57,0.0
-13116,-3248,-8280,-5277,-946,-5564,2025-01-29 10:38:57,0.0
-12576,-2576,-7568,-5112,-1413,-5537,2025-01-29 10:38:57,0.0
-11672,-2096,-7156,-4997,-1543,-5500,2025-01-29 10:38:57,0.0
-10524,-1772,-6880,-5127,-1509,-5661,2025-01-29 10:38:57,0.0
-10088,-1656,-6532,-5458,-1173,-5948,2025-01-29 10:38:58,0.0
-10056,-1680,-6536,-5931,-644,-6316,2025-01-29 10:38:58,0.0
-10224,-1720,-6564,-6425,-211,-6633,2025-01-29 10:38:58,0.0
-10600,-1468,-7012,-6849,-54,-6924,2025-01-29 10:38:58,0.0
-11152,-916,-7248,-7260,-228,-6991,2025-01-29 10:38:58,0.0
-11368,-684,-7284,-7691,-692,-6795,2025-01-29 10:38:58,0.0
-11408,-944,-7028,-8064,-985,-6541,2025-01-29 10:38:58,0.0
-11172,-1432,-6796,-8333,-1269,-6418,2025-01-29 10:38:58,0.0
-11088,-2160,-6700,-8406,-1487,-6397,2025-01-29 10:38:58,0.0
-10988,-2656,-6660,-8247,-1275,-6230,2025-01-29 10:38:58,0.0
-10828,-2692,-6600,-8016,-243,-6087,2025-01-29 10:38:58,0.0
-11124,-2560,-6612,-7758,637,-5750,2025-01-29 10:38:58,0.0
-11424,-2732,-6700,-7491,886,-5259,2025-01-29 10:38:58,0.0
-12040,-3100,-6492,-7234,817,-4964,2025-01-29 10:38:58,0.0
-12576,-3232,-6628,-7058,402,-4617,2025-01-29 10:38:58,0.0
-12584,-2876,-6156,-6660,-511,-4183,2025-01-29 10:38:58,0.0
-12220,-2580,-5672,-6189,-1034,-4068,2025-01-29 10:38:58,0.0
-11952,-2440,-5040,-5620,-1412,-3795,2025-01-29 10:38:58,0.0
-11320,-2692,-5048,-5036,-1372,-3429,2025-01-29 10:38:58,0.0
-10824,-3560,-5752,-4634,-603,-3337,2025-01-29 10:38:58,0.0
-11064,-3812,-6256,-4396,367,-3224,2025-01-29 10:38:58,0.0
-11456,-3600,-6328,-4236,648,-3073,2025-01-29 10:38:58,0.0
-11880,-2708,-6264,-4140,458,-2741,2025-01-29 10:38:58,0.0
-11692,-1560,-6872,-4200,338,-2503,2025-01-29 10:38:58,0.0
-11640,-1548,-6728,-4359,221,-2367,2025-01-29 10:38:58,0.0
-11188,-1648,-6484,-4438,305,-2373,2025-01-29 10:38:58,0.0
-11032,-2144,-6460,-4420,604,-2572,2025-01-29 10:38:58,0.0
-11284,-2452,-6176,-4494,655,-2743,2025-01-29 10:38:58,0.0
-11600,-2452,-6136,-4375,293,-2783,2025-01-29 10:38:58,0.0
-11340,-1836,-5848,-4394,148,-2809,2025-01-29 10:38:58,
-11220,-1292,-6164,-4574,74,-2711,2025-01-29 10:38:58,0.0
-11028,-1292,-6344,-4918,500,-2787,2025-01-29 10:38:58,0.0
-10996,-1936,-6228,-5180,1071,-2965,2025-01-29 10:38:58,0.0
-11244,-2812,-5996,-5133,1451,-3079,2025-01-29 10:38:58,0.0
-11280,-3292,-5856,-4947,1619,-3112,2025-01-29 10:38:58,0.0
-11488,-3040,-6312,-4950,2022,-3269,2025-01-29 10:38:58,0.0
-11920,-2408,-6584,-5054,2298,-3424,2025-01-29 10:38:58,0.0
-12472,-2152,-6788,-5306,2125,-3376,2025-01-29 10:38:58,0.0
-12324,-1584,-7900,-5150,1731,-3511,2025-01-29 10:38:58,0.0
-12228,-1596,-9108,-4839,1543,-3905,2025-01-29 10:38:58,0.0
-12676,-3944,-7668,-3606,2211,-4712,2025-01-29 10:38:58,0.0
-13256,-5592,-7880,-2159,2118,-5316,2025-01-29 10:38:58,0.0
-14492,-6408,-8004,-1058,1234,-4902,2025-01-29 10:38:58,0.0
-15324,-6252,-8548,-249,-222,-3400,2025-01-29 10:38:58,0.0
-15004,-4680,-9368,-94,-1346,-1024,2025-01-29 10:38:58,0.0
-13564,-3040,-9100,-432,-1793,395,2025-01-29 10:38:58,0.0
-12892,-2520,-9128,-850,-2527,1367,2025-01-29 10:38:58,0.0
-11944,-2552,-8664,-1165,-2627,2174,2025-01-29 10:38:58,0.0
-11616,-2464,-8680,-1132,-2262,2552,2025-01-29 10:38:58,0.0
-10948,-2036,-9492,-1197,-2490,2875,2025-01-29 10:38:58,0.0
-9996,-2032,-9532,-1359,-2739,2946,2025-01-29 10:38:58,0.0
-9064,-1364,-9528,-1506,-3118,2799,2025-01-29 10:38:58,0.0
-7912,368,-8844,-1964,-3353,2398,2025-01-29 10:38:58,0.0
-6832,1684,-9200,-2516,-3025,1827,2025-01-29 10:38:58,0.0
-5932,2600,-9484,-3326,-1599,922,2025-01-29 10:38:58,0.0
-6520,1800,-9012,-3834,885,-107,2025-01-29 10:38:58,0.0
-8464,204,-8272,-3739,3031,-317,2025-01-29 10:38:58,0.0
-10036,-1232,-8060,-3220,4688,-118,2025-01-29 10:38:58,0.0
-11276,-2216,-8416,-2675,5209,123,2025-01-29 10:38:58,0.0
-12748,-2776,-8780,-2102,4112,699,2025-01-29 10:38:59,0.0
-13608,-2500,-8176,-1529,1987,1584,2025-01-29 10:38:59,0.0
-13560,-1248,-8140,-1119,-354,2356,2025-01-29 10:38:59,0.0
-12980,-332,-8164,-1042,-2238,3056,2025-01-29 10:38:59,0.0
-11576,796,-8220,-928,-3719,3566,2025-01-29 10:38:59,0.0
-9808,1332,-7616,-733,-4032,3716,2025-01-29 10:38:59,0.0
-8464,1344,-6804,-587,-2819,3157,2025-01-29 10:38:59,0.0
-8276,1040,-6216,-353,-977,2427,2025-01-29 10:38:59,0.0
-8844,808,-6312,-81,683,2069,2025-01-29 10:38:59,0.0
-9916,748,-6732,33,1558,2065,2025-01-29 10:38:59,0.0
-10596,764,-6744,181,1513,2062,2025-01-29 10:38:59,0.0
-10944,748,-6704,311,760,1753,2025-01-29 10:38:59,0.0
-11048,1056,-6732,460,-798,1461,2025-01-29 10:38:59,0.0
-10544,1396,-6300,521,-1856,1211,2025-01-29 10:38:59,0.0
-9744,1632,-6212,648,-2347,650,2025-01-29 10:38:59,0.0
-9624,1928,-6172,864,-2501,-15,2025-01-29 10:38:59,0.0
-9448,1824,-6312,1082,-2671,-762,2025-01-29 10:38:59,0.0
-9936,1708,-5828,1373,-2679,-1312,2025-01-29 10:38:59,0.0
-9912,1492,-6244,1666,-2907,-1831,2025-01-29 10:38:59,0.0
-10080,1208,-6212,1775,-3074,-2380,2025-01-29 10:38:59,0.0
-11032,1064,-5736,1912,-2882,-2428,2025-01-29 10:38:59,0.0
-11808,908,-4924,1996,-1762,-1506,2025-01-29 10:38:59,0.0
-11980,452,-4436,1795,-181,-528,2025-01-29 10:38:59,0.0
-12044,-140,-4204,1842,1556,73,2025-01-29 10:38:59,0.0
-12668,-628,-4708,2257,3161,437,2025-01-29 10:38:59,0.0
-13340,-828,-5500,2918,3984,783,2025-01-29 10:38:59,0.0
-14216,-1668,-6132,3640,3706,1026,2025-01-29 10:38:59,0.0
-15404,-1424,-5840,4466,1946,1388,2025-01-29 10:38:59,0.0
-16056,1040,-5936,4561,184,2030,2025-01-29 10:38:59,0.0
-14540,1836,-4872,4483,-1187,2182,2025-01-29 10:38:59,0.0
-13408,1356,-5356,4389,-1213,1896,2025-01-29 10:38:59,0.0
-12776,-456,-6908,4176,561,1939,2025-01-29 10:38:59,0.0
-13840,-332,-7932,3862,3178,1964,2025-01-29 10:38:59,0.0
-14976,1672,-9228,2984,4652,2492,2025-01-29 10:38:59,0.0
-16252,3524,-11500,1504,4839,3344,2025-01-29 10:38:59,0.0
-15760,4736,-13692,-442,3787,3550,2025-01-29 10:38:59,0.0
-14348,4840,-13864,-2848,1737,2593,2025-01-29 10:38:59,0.0
-11156,2376,-10608,-4264,-2905,129,2025-01-29 10:38:59,0.0
-9536,-352,-8380,-3912,-5519,-1157,2025-01-29 10:38:59,0.0
-7232,-1892,-6532,-2792,-6432,-1705,2025-01-29 10:38:59,0.0
-5828,-3156,-5352,-1257,-5793,-2106,2025-01-29 10:38:59,0.0
-5272,-4044,-5784,175,-3871,-2128,2025-01-29 10:38:59,0.0
-5152,-4652,-7792,1286,-308,-2157,2025-01-29 10:38:59,0.0
-6492,-4048,-9544,1807,4629,-2473,2025-01-29 10:38:59,0.0
-8376,-2524,-10584,1639,6961,-2645,2025-01-29 10:38:59,0.0
-10440,-1100,-10760,999,7101,-2651,2025-01-29 10:38:59,0.0
-12444,-388,-9956,227,5251,-2570,2025-01-29 10:38:59,0.0
-13200,-16,-9044,-274,2006,-2553,2025-01-29 10:38:59,0.0
-13032,-524,-8836,-534,-1588,-2761,2025-01-29 10:38:59,0.0
-12080,-1144,-8980,-544,-3721,-2996,2025-01-29 10:38:59,0.0
-9940,-1736,-9612,-418,-5119,-2984,2025-01-29 10:38:59,0.0
-8980,-1928,-8624,-371,-5031,-2915,2025-01-29 10:38:59,0.0
-7880,-1676,-7744,-368,-3538,-2849,2025-01-29 10:38:59,0.0
-7204,-1328,-7288,-709,-874,-2997,2025-01-29 10:38:59,0.0
-7684,-1336,-6800,-1000,1587,-3346,2025-01-29 10:38:59,0.0
-9048,-1520,-6852,-1189,3181,-3693,2025-01-29 10:38:59,0.0
-10180,-1572,-6980,-1334,3416,-3873,2025-01-29 10:38:59,0.0
-11324,-2208,-7288,-1502,2922,-3889,2025-01-29 10:38:59,0.0
-11868,-2864,-7064,-1478,1978,-3475,2025-01-29 10:38:59,0.0
-11964,-3060,-6792,-1227,938,-2896,2025-01-29 10:38:59,0.0
-11280,-2764,-6920,-1036,242,-2274,2025-01-29 10:38:59,0.0
-10756,-2360,-6992,-1150,100,-2116,2025-01-29 10:38:59,0.0
-10628,-1376,-6764,-1491,373,-2035,2025-01-29 10:39:00,0.0
-10760,-860,-6768,-1875,592,-1868,2025-01-29 10:39:00,0.0
-11068,-796,-6800,-2367,892,-1636,2025-01-29 10:39:00,0.0
-11468,-1360,-6468,-2711,959,-1407,2025-01-29 10:39:00,0.0
-11716,-2084,-6104,-2850,617,-1195,2025-01-29 10:39:00,0.0
-11652,-2832,-6000,-2805,68,-976,2025-01-29 10:39:00,0.0
-11564,-2924,-5420,-2650,-653,-865,2025-01-29 10:39:00,0.0
-11064,-2956,-5640,-2506,-897,-418,2025-01-29 10:39:00,0.0
-9696,-2988,-6284,-2381,-144,-348,2025-01-29 10:39:00,
-9852,-2380,-6388,-2389,1478,-658,2025-01-29 10:39:00,0.0
-10528,-1904,-6432,-2467,2747,-770,2025-01-29 10:39:00,0.0
-11284,-1608,-6732,-2583,2952,-1019,2025-01-29 10:39:00,0.0
-11620,-2036,-7076,-2779,2346,-1507,2025-01-29 10:39:00,0.0
-11952,-2276,-7016,-2988,1544,-1940,2025-01-29 10:39:00,0.0
-12504,-1844,-7060,-3138,933,-2614,2025-01-29 10:39:00,0.0
-13136,-1540,-6572,-3396,220,-3282,2025-01-29 10:39:00,0.0
-14004,-1912,-6024,-3700,-709,-3639,2025-01-29 10:39:00,0.0
-14208,-3012,-6852,-3697,-1384,-3830,2025-01-29 10:39:00,0.0
-13912,-4520,-8096,-3219,-880,-3891,2025-01-29 10:39:00,0.0
-13836,-5968,-8100,-1767,162,-3936,2025-01-29 10:39:00,0.0
-14260,-6932,-9004,9,502,-3817,2025-01-29 10:39:00,0.0
-15752,-6664,-9120,1407,-27,-2895,2025-01-29 10:39:00,0.0
-17020,-5132,-10044,1852,-2222,-632,2025-01-29 10:39:00,0.0
-15880,-3484,-10584,1153,-4158,1647,2025-01-29 10:39:00,0.0
-13028,-1952,-9936,499,-5660,2473,2025-01-29 10:39:00,0.0
-10584,-1556,-9728,-316,-7073,2990,2025-01-29 10:39:00,0.0
-7660,-1228,-9612,-813,-7255,3201,2025-01-29 10:39:00,0.0
-5600,-20,-9440,-1096,-5567,2901,2025-01-29 10:39:00,0.0
-5168,896,-9224,-1129,-2353,2250,2025-01-29 10:39:00,0.0
-5392,1116,-8792,-983,2084,1267,2025-01-29 10:39:00,0.0
-6568,988,-8856,-696,5760,371,2025-01-29 10:39:00,0.0
-8996,-36,-8720,-582,7179,164,2025-01-29 10:39:00,0.0
-11084,-848,-8992,-686,7097,566,2025-01-29 10:39:00,0.0
-12120,-1352,-9232,-827,5454,1218,2025-01-29 10:39:00,0.0
-12672,-1624,-9320,-583,2550,1713,2025-01-29 10:39:00,0.0
-13368,-1588,-9220,-433,252,2306,2025-01-29 10:39:00,0.0
-12684,-816,-8976,-286,-1671,3186,2025-01-29 10:39:00,0.0
-11080,-156,-8924,-289,-2938,3870,2025-01-29 10:39:00,0.0
-9856,396,-7972,-155,-3567,4053,2025-01-29 10:39:00,0.0
-8180,644,-7392,-100,-2977,3700,2025-01-29 10:39:00,0.0
-7644,480,-6960,20,-1580,3026,2025-01-29 10:39:00,0.0
-7456,396,-6560,149,391,2324,2025-01-29 10:39:00,0.0
-8904,244,-6332,308,1986,1786,2025-01-29 10:39:00,0.0
-9980,368,-6912,300,2629,1714,2025-01-29 10:39:00,0.0
-10864,612,-6980,329,2305,1854,2025-01-29 10:39:00,0.0
-11748,888,-6256,325,1310,1710,2025-01-29 10:39:00,0.0
-11220,916,-7376,548,-455,1190,2025-01-29 10:39:00,0.0
-10960,572,-7416,528,-1602,714,2025-01-29 10:39:00,0.0
-10464,428,-6632,563,-2305,456,2025-01-29 10:39:00,0.0
-10016,340,-5988,609,-2389,152,2025-01-29 10:39:00,0.0
-9876,76,-5616,713,-1935,-102,2025-01-29 10:39:00,0.0
-9924,-64,-5516,896,-1190,-431,2025-01-29 10:39:00,0.0
-10564,92,-5184,1170,-620,-687,2025-01-29 10:39:00,0.0
-11244,200,-5272,1365,-508,-854,2025-01-29 10:39:00,0.0
-12288,436,-5832,1499,-832,-821,2025-01-29 10:39:00,0.0
-12916,784,-6268,1576,-1539,-425,2025-01-29 10:39:00,0.0
-13232,536,-5636,1770,-2786,52,2025-01-29 10:39:00,0.0
-12808,68,-5424,2175,-4042,454,2025-01-29 10:39:00,0.0
-11860,-172,-5420,2517,-4652,810,2025-01-29 10:39:00,0.0
-10860,-172,-4944,2855,-4268,925,2025-01-29 10:39:00,0.0
-10372,-1060,-4716,3018,-2594,837,2025-01-29 10:39:00,0.0
-10868,-988,-4312,3565,344,1035,2025-01-29 10:39:01,0.0
-12456,464,-5200,3749,2907,1744,2025-01-29 10:39:01,0.0
-13200,984,-5616,3707,3640,2372,2025-01-29 10:39:01,0.0
-13788,676,-5120,3723,3661,2300,2025-01-29 10:39:01,0.0
-14908,-1088,-5664,3934,3585,2099,2025-01-29 10:39:01,0.0
-15620,-1488,-6644,4433,3487,2251,2025-01-29 10:39:01,0.0
-15948,952,-9056,4282,3565,2980,2025-01-29 10:39:01,0.0
-15380,3528,-12164,2308,3520,3639,2025-01-29 10:39:01,0.0
-14588,5036,-13052,-79,3124,3562,2025-01-29 10:39:01,0.0
-13088,5032,-12360,-1919,1583,2302,2025-01-29 10:39:01,0.0
-12300,3696,-10824,-2941,-317,229,2025-01-29 10:39:01,0.0
-12280,2372,-9952,-3324,-1481,-811,2025-01-29 10:39:01,0.0
-11028,368,-8828,-3024,-2422,-1066,2025-01-29 10:39:01,0.0
-9136,-1252,-7244,-1974,-3407,-1509,2025-01-29 10:39:01,0.0
-7244,-2856,-6152,-513,-4185,-2370,2025-01-29 10:39:01,0.0
-7104,-3704,-5464,990,-3917,-2262,2025-01-29 10:39:01,0.0
-7104,-4616,-5940,1963,-1888,-1412,2025-01-29 10:39:01,0.0
-7304,-5132,-7856,2403,2193,-565,2025-01-29 10:39:01,0.0
-8140,-4436,-8612,2376,6001,-156,2025-01-29 10:39:01,0.0
-9908,-2928,-8900,2611,7605,-31,2025-01-29 10:39:01,0.0
-11292,-1408,-9948,2563,6790,-109,2025-01-29 10:39:01,0.0
-12280,-268,-9772,2175,3667,-525,2025-01-29 10:39:01,0.0
-12968,-132,-9292,1708,254,-965,2025-01-29 10:39:01,0.0
-12860,-440,-8632,1162,-1986,-1246,2025-01-29 10:39:01,0.0
-11564,-848,-8944,1071,-3172,-1520,2025-01-29 10:39:01,0.0
-10220,-1040,-9344,891,-3846,-1660,2025-01-29 10:39:01,0.0
-9448,-1308,-8452,645,-3839,-1674,2025-01-29 10:39:01,0.0
-8648,-1260,-7640,216,-2869,-1892,2025-01-29 10:39:01,0.0
-8960,-1240,-6244,-291,-1524,-2166,2025-01-29 10:39:01,0.0
-9004,-1496,-6352,-788,-167,-2362,2025-01-29 10:39:01,0.0
-9992,-1776,-5692,-1105,824,-2576,2025-01-29 10:39:01,0.0
-10952,-1824,-5640,-1234,972,-2702,2025-01-29 10:39:01,0.0
-11764,-1632,-5444,-1343,747,-2624,2025-01-29 10:39:01,0.0
-12048,-1788,-5408,-1397,240,-2538,2025-01-29 10:39:01,0.0
-11628,-2052,-5776,-1505,-119,-2374,2025-01-29 10:39:01,0.0
-10996,-2540,-5956,-1662,-436,-2290,2025-01-29 10:39:01,0.0
-11020,-2556,-5104,-1807,-126,-1982,2025-01-29 10:39:01,0.0
-10956,-2080,-5184,-1989,403,-1650,2025-01-29 10:39:01,0.0
-11024,-1400,-5368,-2279,802,-1444,2025-01-29 10:39:01,0.0
-11256,-872,-5236,-2835,970,-1170,2025-01-29 10:39:01,0.0
-11548,-840,-5204,-3326,706,-906,2025-01-29 10:39:01,0.0
-11500,-1468,-5108,-3511,168,-742,2025-01-29 10:39:01,0.0
-11236,-2348,-5580,-3754,267,-926,2025-01-29 10:39:01,0.0
-11396,-2648,-5564,-3745,449,-1285,2025-01-29 10:39:01,0.0
-11944,-2644,-6380,-3480,314,-1418,2025-01-29 10:39:01,0.0
-12012,-2316,-6584,-3221,400,-1405,2025-01-29 10:39:01,0.0
-12176,-2160,-6216,-3188,407,-1419,2025-01-29 10:39:01,0.0
-12188,-2240,-5820,-3171,318,-1876,2025-01-29 10:39:01,
-12668,-2640,-5628,-3338,99,-2514,2025-01-29 10:39:01,0.0
-12988,-2812,-5184,-3474,-832,-3041,2025-01-29 10:39:01,0.0
-12980,-2800,-5912,-3157,-917,-3397,2025-01-29 10:39:01,0.0
-12872,-2332,-7260,-2988,152,-3619,2025-01-29 10:39:01,0.0
-12816,-3624,-6996,-2777,1648,-3883,2025-01-29 10:39:01,0.0
-13392,-5968,-7676,-2114,2923,-4243,2025-01-29 10:39:01,0.0
-15092,-7556,-8432,-1050,3371,-3485,2025-01-29 10:39:01,0.0
-16920,-6952,-9344,380,2023,-861,2025-01-29 10:39:01,0.0
-15880,-5084,-10256,1335,398,944,2025-01-29 10:39:01,0.0
-14492,-3136,-11564,1510,-2121,1105,2025-01-29 10:39:01,0.0
-13832,-1380,-11848,924,-4712,1549,2025-01-29 10:39:01,0.0
-12164,-316,-11924,-140,-6597,2529,2025-01-29 10:39:01,0.0
-9680,228,-11372,-1231,-7179,3481,2025-01-29 10:39:01,0.0
-7340,932,-10444,-1769,-6686,3887,2025-01-29 10:39:01,0.0
-5216,1620,-9556,-2292,-4711,3473,2025-01-29 10:39:02,0.0
-4076,1868,-8564,-2769,-1642,2168,2025-01-29 10:39:02,0.0
-4484,1400,-7120,-2507,2255,115,2025-01-29 10:39:02,0.0
-7184,284,-7104,-2054,5068,-939,2025-01-29 10:39:02,0.0
-9960,-576,-7556,-1704,6700,-744,2025-01-29 10:39:02,0.0
-11892,-828,-8444,-1630,7266,-296,2025-01-29 10:39:02,0.0
-13740,-868,-8888,-1553,5917,229,2025-01-29 10:39:02,0.0
-15072,-1104,-8804,-1285,2884,1055,2025-01-29 10:39:02,0.0
-14824,-684,-8268,-900,-1263,2456,2025-01-29 10:39:02,0.0
-12444,-232,-8504,-786,-4174,3109,2025-01-29 10:39:02,0.0
-10256,-4,-7236,-685,-5051,3192,2025-01-29 10:39:02,0.0
-8560,-8,-6168,-229,-4170,2852,2025-01-29 10:39:02,0.0
-7488,292,-5228,215,-1996,2377,2025-01-29 10:39:02,0.0
-7216,324,-5692,563,732,1890,2025-01-29 10:39:02,0.0
-8584,448,-5944,901,3290,1453,2025-01-29 10:39:02,0.0
-10180,464,-6604,1111,4136,1466,2025-01-29 10:39:02,0.0
-11220,756,-7160,1099,3577,1539,2025-01-29 10:39:02,0.0
-11864,1080,-7096,1182,1873,1355,2025-01-29 10:39:02,0.0
-12076,1152,-7192,1316,-26,1133,2025-01-29 10:39:02,0.0
-11100,1280,-6856,1324,-1499,820,2025-01-29 10:39:02,0.0
-10564,952,-6104,1326,-1986,339,2025-01-29 10:39:02,0.0
-10324,264,-5636,1530,-1661,9,2025-01-29 10:39:02,0.0
-10260,-40,-5700,1743,-880,-158,2025-01-29 10:39:02,0.0
-10452,-64,-5816,1955,105,-291,2025-01-29 10:39:02,0.0
-11204,524,-6424,2085,691,-334,2025-01-29 10:39:02,0.0
-11964,788,-6528,2082,729,-421,2025-01-29 10:39:02,0.0
-12676,908,-6400,2175,-103,-288,2025-01-29 10:39:02,0.0
-12664,684,-6044,2473,-1717,-210,2025-01-29 10:39:02,0.0
-11860,408,-5864,2936,-2913,-234,2025-01-29 10:39:02,0.0
-11428,-316,-5920,3322,-2801,-216,2025-01-29 10:39:02,0.0
-11044,-120,-6112,3434,-1936,-69,2025-01-29 10:39:02,0.0
-10972,148,-6184,3192,-1084,242,2025-01-29 10:39:02,0.0
-11128,268,-5992,2926,-131,476,2025-01-29 10:39:02,0.0
-11692,428,-6416,2695,834,765,2025-01-29 10:39:02,0.0
-12528,540,-6092,2565,1610,887,2025-01-29 10:39:02,0.0
-13840,736,-5728,2602,1209,1066,2025-01-29 10:39:02,0.0
-14280,676,-5512,2791,-313,1155,2025-01-29 10:39:02,0.0
-14368,612,-5192,3153,-1360,1225,2025-01-29 10:39:02,0.0
-13816,-1028,-6388,3488,-981,1420,2025-01-29 10:39:02,0.0
-13108,-1584,-6984,3691,324,1684,2025-01-29 10:39:02,0.0
-12816,-864,-8552,3641,1804,1881,2025-01-29 10:39:02,0.0
-13000,260,-9744,3239,3162,1932,2025-01-29 10:39:02,0.0
-13792,1320,-10168,2334,3481,1919,2025-01-29 10:39:02,0.0
-13672,1344,-9836,1511,1962,1245,2025-01-29 10:39:02,0.0
-13488,956,-10112,1149,143,481,2025-01-29 10:39:02,0.0
-13532,12,-9924,947,-846,612,2025-01-29 10:39:02,0.0
-11612,-676,-8472,985,-1294,748,2025-01-29 10:39:02,0.0
-9640,-932,-7412,1382,-1934,207,2025-01-29 10:39:02,0.0
-8620,-1556,-7388,1953,-1929,-105,2025-01-29 10:39:02,0.0
-7648,-2532,-7524,2306,-984,-477,2025-01-29 10:39:02,0.0
-7372,-3592,-7580,2882,244,-850,2025-01-29 10:39:02,0.0
-8376,-3952,-8312,3297,1445,-775,2025-01-29 10:39:02,0.0
-9300,-3840,-9124,3316,2589,-201,2025-01-29 10:39:02,0.0
-10124,-2952,-8820,3505,2549,372,2025-01-29 10:39:02,0.0
-10684,-1812,-8912,3395,2133,628,2025-01-29 10:39:02,0.0
-11148,-684,-9492,2830,1944,361,2025-01-29 10:39:02,0.0
-11660,72,-10144,2080,1141,-92,2025-01-29 10:39:02,0.0
-11892,-172,-10444,1293,-789,-718,2025-01-29 10:39:02,0.0
-11616,-1284,-10020,397,-3518,-1048,2025-01-29 10:39:02,0.0
-10724,-2108,-8536,-89,-5259,-848,2025-01-29 10:39:02,0.0
-8624,-2724,-6844,-146,-4978,-879,2025-01-29 10:39:03,0.0
-7296,-2944,-5888,-26,-2973,-1226,2025-01-29 10:39:03,0.0
-6852,-3168,-5944,93,26,-1567,2025-01-29 10:39:03,0.0
-7416,-3248,-6456,86,3009,-1906,2025-01-29 10:39:03,0.0
-9244,-3264,-7312,-158,5022,-2050,2025-01-29 10:39:03,0.0
-11400,-2656,-7764,-458,5124,-1888,2025-01-29 10:39:03,0.0
-12968,-2520,-7576,-665,3297,-1730,2025-01-29 10:39:03,0.0
-13356,-2816,-7128,-611,501,-1433,2025-01-29 10:39:03,0.0
-12204,-2836,-7496,-590,-1230,-1193,2025-01-29 10:39:03,0.0
-10796,-2412,-7636,-713,-1271,-1298,2025-01-29 10:39:03,0.0
-10156,-2052,-7788,-945,-526,-1269,2025-01-29 10:39:03,0.0
-9864,-1944,-7712,-1231,448,-1152,2025-01-29 10:39:03,0.0
-9660,-2196,-7692,-1512,1165,-1092,2025-01-29 10:39:03,0.0
-10588,-2380,-7572,-1667,1461,-982,2025-01-29 10:39:03,0.0
-11348,-2600,-7864,-1747,1251,-751,2025-01-29 10:39:03,0.0
-11768,-2388,-8296,-1854,599,-441,2025-01-29 10:39:03,0.0
-12104,-2388,-8204,-2060,-355,17,2025-01-29 10:39:03,0.0
-12064,-2928,-7484,-2260,-1369,602,2025-01-29 10:39:03,0.0
-11216,-2756,-7132,-2286,-1932,1263,2025-01-29 10:39:03,0.0
-10408,-2624,-7344,-2146,-1549,1328,2025-01-29 10:39:03,0.0
-10440,-2092,-7236,-1630,-199,925,2025-01-29 10:39:03,0.0
-10912,-1280,-7524,-966,1058,365,2025-01-29 10:39:03,0.0
-11760,-548,-7656,-750,962,-141,2025-01-29 10:39:03,0.0
-12136,-824,-7544,-1092,-316,-349,2025-01-29 10:39:03,0.0
-11824,-1716,-7260,-1306,-1204,-336,2025-01-29 10:39:03,0.0
-11304,-2064,-6904,-1529,-1322,-381,2025-01-29 10:39:03,
