acceleration_x,acceleration_y,acceleration_z,gyroscope_x,gyroscope_y,gyroscope_z,timestamp,label
-6168,956,15992,-150,148,-177,2025-02-06 14:58:11,0.0
-6176,1000,16020,-141,162,-181,2025-02-06 14:58:11,0.0
-6132,924,16092,-150,149,-183,2025-02-06 14:58:11,0.0
-6208,924,15956,-160,182,-181,2025-02-06 14:58:11,0.0
-5980,956,15932,-143,179,-183,2025-02-06 14:58:11,0.0
-6052,1052,15992,-159,155,-169,2025-02-06 14:58:11,0.0
-6172,940,16016,-170,143,-180,2025-02-06 14:58:11,0.0
-6184,928,15872,-142,159,-182,2025-02-06 14:58:11,0.0
-6212,824,16044,-170,166,-147,2025-02-06 14:58:11,0.0
-6104,948,16044,-155,113,-171,2025-02-06 14:58:11,0.0
-6148,1088,15968,-159,152,-163,2025-02-06 14:58:11,0.0
-6160,960,16132,-158,203,-164,2025-02-06 14:58:11,0.0
-6148,964,16128,-172,124,-175,2025-02-06 14:58:11,0.0
-5892,1020,15888,-175,138,-186,2025-02-06 14:58:11,0.0
-5932,1080,15884,-160,221,-155,2025-02-06 14:58:11,0.0
-6236,1048,15972,-154,217,-159,2025-02-06 14:58:11,0.0
-6260,976,15792,-157,156,-203,2025-02-06 14:58:11,0.0
-6148,924,15952,-153,115,-183,2025-02-06 14:58:11,0.0
-6068,876,15848,-146,160,-154,2025-02-06 14:58:11,0.0
-6148,964,15964,-163,181,-159,2025-02-06 14:58:11,0.0
-6088,1096,16000,-156,180,-187,2025-02-06 14:58:11,0.0
-6160,1016,15924,-163,212,-200,2025-02-06 14:58:11,0.0
-6212,948,15980,-148,162,-179,2025-02-06 14:58:11,0.0
-6044,944,16088,-137,76,-175,2025-02-06 14:58:11,0.0
-6128,888,16092,-171,123,-174,2025-02-06 14:58:11,0.0
-6180,852,16032,-169,190,-163,2025-02-06 14:58:11,0.0
-6020,960,15876,-160,230,-177,2025-02-06 14:58:11,0.0
-6164,976,15928,-166,194,-179,2025-02-06 14:58:12,0.0
-6212,968,15984,-157,148,-197,2025-02-06 14:58:12,0.0
-6168,904,15960,-164,144,-162,2025-02-06 14:58:12,0.0
-5964,928,15824,-168,115,-178,2025-02-06 14:58:12,0.0
-6116,924,15932,-166,127,-157,2025-02-06 14:58:12,0.0
-6072,836,16060,-148,172,-155,2025-02-06 14:58:12,0.0
-6036,996,15768,-174,195,-178,2025-02-06 14:58:12,0.0
-6160,956,15980,-148,188,-183,2025-02-06 14:58:12,0.0
-6176,1064,15796,-158,179,-185,2025-02-06 14:58:12,0.0
-6076,968,15756,-158,152,-167,2025-02-06 14:58:12,0.0
-6164,896,15892,-174,122,-162,2025-02-06 14:58:12,0.0
-6044,876,16044,-160,120,-166,2025-02-06 14:58:12,0.0
-6104,880,16096,-167,176,-183,2025-02-06 14:58:12,0.0
-6164,1060,15872,-159,203,-184,2025-02-06 14:58:12,0.0
-6176,1016,15852,-165,204,-170,2025-02-06 14:58:12,0.0
-6164,1140,15988,-170,90,-183,2025-02-06 14:58:12,0.0
-6104,888,15932,-160,98,-155,2025-02-06 14:58:12,0.0
-6048,900,15996,-158,107,-191,2025-02-06 14:58:12,0.0
-6076,900,16108,-170,207,-172,2025-02-06 14:58:12,0.0
-6080,960,15936,-150,210,-184,2025-02-06 14:58:12,0.0
-6156,900,15920,-163,163,-164,2025-02-06 14:58:12,0.0
-6212,892,15920,-156,156,-168,2025-02-06 14:58:12,0.0
-6116,1020,16100,-162,154,-172,2025-02-06 14:58:12,0.0
-6068,1008,15988,-153,101,-141,2025-02-06 14:58:12,0.0
-5984,760,16000,-180,168,-165,2025-02-06 14:58:12,0.0
-6080,896,16000,-156,248,-176,2025-02-06 14:58:12,0.0
-6184,1040,15896,-146,205,-175,2025-02-06 14:58:12,0.0
-6244,928,15944,-173,129,-189,2025-02-06 14:58:12,0.0
-6168,920,15948,-161,111,-188,2025-02-06 14:58:12,0.0
-6232,896,15952,-160,136,-178,2025-02-06 14:58:12,0.0
-6080,932,15960,-157,144,-167,2025-02-06 14:58:12,0.0
-6144,912,16040,-176,163,-172,2025-02-06 14:58:12,0.0
-6112,996,16056,-164,195,-176,2025-02-06 14:58:12,0.0
-6156,956,15948,-175,199,-185,2025-02-06 14:58:12,0.0
-6204,1052,15984,-183,132,-175,2025-02-06 14:58:12,0.0
-6040,972,16052,-171,135,-165,2025-02-06 14:58:12,0.0
-6156,844,15992,-146,145,-174,2025-02-06 14:58:12,0.0
-6132,944,15940,-156,178,-173,2025-02-06 14:58:12,0.0
-6076,964,16028,-148,198,-187,2025-02-06 14:58:12,0.0
-6192,912,15876,-181,191,-176,2025-02-06 14:58:12,0.0
-6292,972,15824,-163,162,-169,2025-02-06 14:58:12,0.0
-6184,992,15900,-174,103,-172,2025-02-06 14:58:12,0.0
-6036,944,15976,-148,109,-177,2025-02-06 14:58:12,0.0
-6136,980,16140,-176,165,-189,2025-02-06 14:58:12,0.0
-6048,916,15924,-190,181,-172,2025-02-06 14:58:12,0.0
-6036,960,16004,-156,191,-160,2025-02-06 14:58:12,0.0
-6232,924,15912,-166,171,-178,2025-02-06 14:58:12,0.0
-6180,984,16020,-171,145,-170,2025-02-06 14:58:12,0.0
-6068,968,15860,-169,122,-169,2025-02-06 14:58:12,0.0
-6168,892,15976,-166,153,-194,2025-02-06 14:58:12,0.0
-6124,920,16024,-159,148,-171,2025-02-06 14:58:12,0.0
-6144,992,16112,-138,160,-173,2025-02-06 14:58:12,0.0
-6124,908,16012,-160,179,-167,2025-02-06 14:58:12,0.0
-6184,1028,16040,-175,183,-186,2025-02-06 14:58:12,0.0
-6124,1000,15936,-158,156,-167,2025-02-06 14:58:12,0.0
-6080,996,15984,-170,145,-158,2025-02-06 14:58:12,0.0
-6200,984,16052,-169,166,-168,2025-02-06 14:58:12,0.0
-6224,940,16036,-149,179,-169,2025-02-06 14:58:12,0.0
-6156,920,15908,-166,156,-173,2025-02-06 14:58:12,0.0
-6156,976,16000,-163,184,-163,2025-02-06 14:58:12,0.0
-6092,932,15836,-168,136,-167,2025-02-06 14:58:12,0.0
-6172,896,16016,-155,148,-173,2025-02-06 14:58:12,0.0
-6088,904,15728,-156,133,-167,2025-02-06 14:58:13,0.0
-6196,888,16020,-181,156,-187,2025-02-06 14:58:13,0.0
-6144,924,15884,-165,166,-178,2025-02-06 14:58:13,0.0
-6192,912,15892,-170,152,-181,2025-02-06 14:58:13,0.0
-6052,1020,15900,-154,125,-171,2025-02-06 14:58:13,0.0
-6064,956,15984,-172,157,-186,2025-02-06 14:58:13,0.0
-6180,940,16056,-139,164,-193,2025-02-06 14:58:13,0.0
-6088,900,15976,-159,158,-178,2025-02-06 14:58:13,0.0
-6112,960,16056,-154,156,-188,2025-02-06 14:58:13,0.0
-6164,836,15936,-170,173,-185,2025-02-06 14:58:13,0.0
-6132,900,15916,-151,152,-193,2025-02-06 14:58:13,
-6172,976,15928,-146,141,-177,2025-02-06 14:58:13,0.0
-6188,896,15976,-163,139,-178,2025-02-06 14:58:13,0.0
-6240,912,16036,-169,157,-163,2025-02-06 14:58:13,0.0
-6092,948,16140,-167,139,-169,2025-02-06 14:58:13,0.0
-6200,1000,15968,-174,184,-156,2025-02-06 14:58:13,0.0
-6084,932,16104,-165,184,-175,2025-02-06 14:58:13,0.0
-6140,900,15884,-148,158,-173,2025-02-06 14:58:13,0.0
-6088,972,16056,-155,141,-190,2025-02-06 14:58:13,0.0
-6168,956,15924,-164,155,-163,2025-02-06 14:58:13,0.0
-6136,920,15944,-160,146,-180,2025-02-06 14:58:13,0.0
-6132,924,16036,-175,164,-176,2025-02-06 14:58:13,0.0
-6096,964,15924,-160,175,-160,2025-02-06 14:58:13,0.0
-6124,984,15944,-174,162,-170,2025-02-06 14:58:13,0.0
-6140,1064,15972,-164,174,-167,2025-02-06 14:58:13,0.0
-6164,932,16000,-151,166,-188,2025-02-06 14:58:13,0.0
-6024,916,15948,-145,165,-183,2025-02-06 14:58:13,0.0
-6136,976,16028,-170,114,-165,2025-02-06 14:58:13,0.0
-6116,956,15968,-184,172,-178,2025-02-06 14:58:13,0.0
-6040,1016,15840,-160,206,-170,2025-02-06 14:58:13,0.0
-6208,920,15960,-152,155,-162,2025-02-06 14:58:13,0.0
-6108,1012,15800,-168,124,-177,2025-02-06 14:58:13,0.0
-6140,1000,16004,-164,127,-166,2025-02-06 14:58:13,0.0
-6160,968,16000,-171,165,-139,2025-02-06 14:58:13,0.0
-6092,896,15808,-154,164,-181,2025-02-06 14:58:13,0.0
-6128,924,15844,-156,218,-175,2025-02-06 14:58:13,0.0
-6132,1084,15912,-161,159,-166,2025-02-06 14:58:13,0.0
-5988,1016,15876,-161,112,-155,2025-02-06 14:58:13,0.0
-6192,948,15920,-150,144,-194,2025-02-06 14:58:13,0.0
-5988,1016,15868,-172,160,-159,2025-02-06 14:58:13,0.0
-6136,876,15884,-168,152,-182,2025-02-06 14:58:13,0.0
-6180,1124,16100,-150,131,-171,2025-02-06 14:58:13,0.0
-6260,976,16036,-153,179,-157,2025-02-06 14:58:13,0.0
-6172,916,15932,-162,168,-167,2025-02-06 14:58:13,0.0
-6248,920,15980,-172,147,-167,2025-02-06 14:58:13,0.0
-6032,912,15912,-159,134,-203,2025-02-06 14:58:13,0.0
-6012,976,16060,-182,165,-157,2025-02-06 14:58:13,0.0
-6216,984,16108,-163,177,-175,2025-02-06 14:58:13,0.0
-6156,916,16068,-183,160,-189,2025-02-06 14:58:13,0.0
-6036,1048,16060,-161,150,-188,2025-02-06 14:58:13,0.0
-6180,1012,16008,-160,153,-184,2025-02-06 14:58:13,0.0
-6144,1036,15992,-155,166,-178,2025-02-06 14:58:13,0.0
-5980,880,16000,-163,160,-163,2025-02-06 14:58:13,0.0
-6164,1056,15996,-192,180,-163,2025-02-06 14:58:13,0.0
-6236,928,16060,-187,186,-183,2025-02-06 14:58:13,0.0
-6124,860,15824,-145,168,-167,2025-02-06 14:58:13,0.0
-6096,980,15880,-154,138,-182,2025-02-06 14:58:13,0.0
-6096,1056,15864,-181,135,-183,2025-02-06 14:58:13,0.0
-6084,972,15940,-135,129,-184,2025-02-06 14:58:13,0.0
-6260,972,15932,-155,145,-177,2025-02-06 14:58:13,0.0
-6208,916,16088,-164,133,-179,2025-02-06 14:58:13,0.0
-6028,860,15892,-168,146,-146,2025-02-06 14:58:14,0.0
-6196,832,16052,-162,199,-169,2025-02-06 14:58:14,0.0
-6144,1056,16128,-178,163,-194,2025-02-06 14:58:14,0.0
-6032,972,16048,-160,110,-174,2025-02-06 14:58:14,0.0
-6164,984,16076,-161,170,-180,2025-02-06 14:58:14,0.0
-6200,916,15976,-168,180,-165,2025-02-06 14:58:14,0.0
-6152,952,15996,-138,147,-158,2025-02-06 14:58:14,0.0
-6200,988,16052,-134,176,-199,2025-02-06 14:58:14,0.0
-6188,968,15976,-157,199,-178,2025-02-06 14:58:14,0.0
-6232,1040,15872,-161,176,-176,2025-02-06 14:58:14,0.0
-6056,1028,15844,-167,103,-164,2025-02-06 14:58:14,0.0
-6136,1072,16076,-172,110,-173,2025-02-06 14:58:14,0.0
-6080,1040,15996,-162,187,-183,2025-02-06 14:58:14,0.0
-6152,1048,15980,-178,188,-176,2025-02-06 14:58:14,0.0
-6004,968,15908,-169,164,-198,2025-02-06 14:58:14,0.0
-6100,896,15964,-147,176,-167,2025-02-06 14:58:14,0.0
-6256,916,15952,-177,176,-170,2025-02-06 14:58:14,0.0
-6176,988,15896,-145,167,-188,2025-02-06 14:58:14,0.0
-6112,928,16028,-150,166,-171,2025-02-06 14:58:14,0.0
-6184,888,16132,-164,151,-179,2025-02-06 14:58:14,0.0
-6080,1044,15936,-159,165,-197,2025-02-06 14:58:14,0.0
-6080,988,15952,-153,177,-158,2025-02-06 14:58:14,0.0
-6124,916,16032,-182,140,-169,2025-02-06 14:58:14,0.0
-6048,844,15940,-164,136,-173,2025-02-06 14:58:14,0.0
-6140,992,16072,-183,164,-144,2025-02-06 14:58:14,0.0
-6096,952,15924,-158,184,-184,2025-02-06 14:58:14,0.0
-6096,992,16072,-159,153,-184,2025-02-06 14:58:14,0.0
-6068,952,16024,-147,143,-190,2025-02-06 14:58:14,0.0
-6272,916,16132,-135,184,-175,2025-02-06 14:58:14,0.0
-6196,996,15928,-178,171,-181,2025-02-06 14:58:14,0.0
-6132,988,15892,-163,130,-159,2025-02-06 14:58:14,0.0
-6124,1016,16024,-176,115,-168,2025-02-06 14:58:14,0.0
-6144,980,16096,-145,168,-172,2025-02-06 14:58:14,0.0
-6140,1048,16028,-167,198,-179,2025-02-06 14:58:14,0.0
-6156,1060,15960,-170,148,-177,2025-02-06 14:58:14,0.0
-6164,900,16004,-164,124,-178,2025-02-06 14:58:14,0.0
-6208,900,15928,-149,159,-184,2025-02-06 14:58:14,0.0
-6132,916,15904,-171,181,-175,2025-02-06 14:58:14,0.0
-5968,964,15952,-161,158,-176,2025-02-06 14:58:14,0.0
-6212,936,16044,-160,142,-180,2025-02-06 14:58:14,0.0
-6200,936,15892,-175,170,-169,2025-02-06 14:58:14,0.0
-6120,964,15824,-145,171,-181,2025-02-06 14:58:14,0.0
-6072,1064,15916,-176,133,-157,2025-02-06 14:58:14,0.0
-6152,1012,16092,-180,168,-181,2025-02-06 14:58:14,0.0
-6068,972,16168,-144,178,-175,2025-02-06 14:58:14,0.0
-6060,972,16108,-165,149,-167,2025-02-06 14:58:14,0.0
-6064,924,15900,-177,179,-185,2025-02-06 14:58:14,0.0
-6096,892,15992,-163,174,-179,2025-02-06 14:58:14,0.0
-6212,904,15916,-160,160,-185,2025-02-06 14:58:14,0.0
-6108,936,16040,-132,144,-182,2025-02-06 14:58:14,
-6036,1064,15980,-179,147,-171,2025-02-06 14:58:14,0.0
-6032,968,16112,-156,181,-172,2025-02-06 14:58:14,0.0
-6160,964,15864,-162,148,-181,2025-02-06 14:58:14,0.0
-6112,956,15908,-157,124,-172,2025-02-06 14:58:14,0.0
-6224,924,15976,-177,148,-168,2025-02-06 14:58:14,0.0
-6140,880,15972,-172,187,-172,2025-02-06 14:58:14,0.0
-6100,928,15988,-152,148,-164,2025-02-06 14:58:14,0.0
-6112,1004,15900,-169,152,-185,2025-02-06 14:58:14,0.0
-6100,948,15868,-164,193,-167,2025-02-06 14:58:14,0.0
-6228,960,15964,-142,137,-165,2025-02-06 14:58:15,0.0
-6088,924,15936,-186,155,-175,2025-02-06 14:58:15,0.0
-6068,992,15908,-167,141,-171,2025-02-06 14:58:15,0.0
-6132,908,15784,-134,186,-182,2025-02-06 14:58:15,0.0
-6096,968,15916,-145,144,-162,2025-02-06 14:58:15,0.0
-6104,988,15956,-149,133,-184,2025-02-06 14:58:15,0.0
-6156,996,15920,-153,224,-183,2025-02-06 14:58:15,0.0
-6044,1060,16052,-184,179,-199,2025-02-06 14:58:15,0.0
-6148,924,16060,-141,118,-167,2025-02-06 14:58:15,0.0
-6052,900,16036,-168,153,-161,2025-02-06 14:58:15,0.0
-6180,956,16000,-132,182,-180,2025-02-06 14:58:15,0.0
-6232,988,16064,-141,171,-192,2025-02-06 14:58:15,0.0
-6164,1052,15884,-171,161,-185,2025-02-06 14:58:15,0.0
-6156,1008,15948,-156,169,-187,2025-02-06 14:58:15,0.0
-6108,1028,15956,-191,151,-152,2025-02-06 14:58:15,0.0
-6128,1056,15888,-172,96,-162,2025-02-06 14:58:15,0.0
-6056,916,15960,-170,149,-162,2025-02-06 14:58:15,0.0
-6040,988,15960,-164,211,-190,2025-02-06 14:58:15,0.0
-6156,896,16040,-165,181,-188,2025-02-06 14:58:15,0.0
-6140,896,15896,-178,117,-180,2025-02-06 14:58:15,0.0
-6100,928,15996,-194,123,-155,2025-02-06 14:58:15,0.0
-6008,912,15936,-179,152,-158,2025-02-06 14:58:15,0.0
-6208,984,16040,-156,202,-174,2025-02-06 14:58:15,0.0
-6212,1000,15968,-154,179,-184,2025-02-06 14:58:15,0.0
-6064,900,15896,-181,155,-169,2025-02-06 14:58:15,0.0
-6104,964,15996,-177,162,-184,2025-02-06 14:58:15,0.0
-6228,916,15844,-165,148,-172,2025-02-06 14:58:15,0.0
-6108,1096,15836,-165,126,-170,2025-02-06 14:58:15,0.0
-6032,972,16088,-162,159,-179,2025-02-06 14:58:15,0.0
-6100,908,16108,-166,178,-190,2025-02-06 14:58:15,0.0
-6084,904,15964,-153,158,-158,2025-02-06 14:58:15,0.0
-6156,1052,15892,-164,140,-168,2025-02-06 14:58:15,0.0
-6080,952,16128,-157,171,-176,2025-02-06 14:58:15,0.0
-6104,1016,16104,-161,179,-193,2025-02-06 14:58:15,0.0
-6120,1016,15988,-180,167,-172,2025-02-06 14:58:15,0.0
-6244,964,16132,-174,174,-171,2025-02-06 14:58:15,0.0
-6200,996,15912,-159,210,-168,2025-02-06 14:58:15,0.0
-6124,924,15960,-167,185,-171,2025-02-06 14:58:15,0.0
-6200,944,15880,-158,107,-180,2025-02-06 14:58:15,0.0
-6216,856,16032,-140,154,-178,2025-02-06 14:58:15,0.0
-6196,884,15912,-157,176,-188,2025-02-06 14:58:15,0.0
-6160,888,15900,-148,135,-169,2025-02-06 14:58:15,0.0
-6012,984,15960,-183,166,-189,2025-02-06 14:58:15,0.0
-6120,1036,16060,-159,165,-185,2025-02-06 14:58:15,0.0
-6064,984,15928,-154,165,-166,2025-02-06 14:58:15,0.0
-6220,968,15864,-155,144,-166,2025-02-06 14:58:15,0.0
-6032,868,15960,-166,170,-169,2025-02-06 14:58:15,0.0
-6176,896,15952,-164,160,-174,2025-02-06 14:58:15,0.0
-6200,988,15888,-159,157,-168,2025-02-06 14:58:15,0.0
-6192,1108,15908,-157,181,-159,2025-02-06 14:58:15,0.0
-6112,924,16120,-165,154,-178,2025-02-06 14:58:15,0.0
-6092,956,15996,-170,142,-179,2025-02-06 14:58:15,0.0
-6076,940,15828,-154,177,-150,2025-02-06 14:58:15,0.0
-6140,936,16032,-168,190,-199,2025-02-06 14:58:15,0.0
-6092,964,15968,-189,187,-181,2025-02-06 14:58:15,0.0
-6052,964,16080,-195,145,-172,2025-02-06 14:58:15,0.0
-6176,932,15936,-177,160,-168,2025-02-06 14:58:15,0.0
-6216,1040,15992,-165,158,-188,2025-02-06 14:58:15,0.0
-6108,944,16012,-166,139,-175,2025-02-06 14:58:15,0.0
-6176,936,15872,-172,139,-169,2025-02-06 14:58:15,0.0
-6140,956,15876,-162,168,-171,2025-02-06 14:58:16,0.0
-6248,948,15952,-169,158,-179,2025-02-06 14:58:16,0.0
-6160,996,15828,-164,159,-189,2025-02-06 14:58:16,0.0
-6216,968,15960,-139,147,-180,2025-02-06 14:58:16,0.0
-6104,1080,16064,-153,121,-172,2025-02-06 14:58:16,0.0
-6048,884,15984,-169,154,-179,2025-02-06 14:58:16,0.0
-6112,912,15860,-167,164,-184,2025-02-06 14:58:16,0.0
-6140,876,15888,-163,187,-170,2025-02-06 14:58:16,0.0
-6184,876,15860,-170,191,-180,2025-02-06 14:58:16,0.0
-6220,924,16036,-160,139,-165,2025-02-06 14:58:16,0.0
-6196,988,16040,-170,140,-168,2025-02-06 14:58:16,0.0
-6140,996,15944,-164,188,-182,2025-02-06 14:58:16,0.0
-6060,984,16076,-152,172,-183,2025-02-06 14:58:16,0.0
-5864,688,15816,-177,138,-151,2025-02-06 14:58:16,0.0
-6444,992,16356,-151,198,-162,2025-02-06 14:58:16,0.0
-5940,940,15884,-193,244,-205,2025-02-06 14:58:16,0.0
-5856,1104,15772,-150,160,-145,2025-02-06 14:58:16,0.0
-6484,832,16112,-138,94,-148,2025-02-06 14:58:16,0.0
-6200,904,16176,-165,53,-190,2025-02-06 14:58:16,0.0
-5940,1032,15960,-169,195,-204,2025-02-06 14:58:16,0.0
-5808,1084,15648,-160,169,-153,2025-02-06 14:58:16,0.0
-6696,736,16300,-130,106,-124,2025-02-06 14:58:16,0.0
-6304,852,16088,-204,186,-229,2025-02-06 14:58:16,0.0
-5704,1172,15796,-155,166,-196,2025-02-06 14:58:16,0.0
-6428,876,16240,-145,140,-153,2025-02-06 14:58:16,0.0
-6064,912,15988,-174,168,-208,2025-02-06 14:58:16,0.0
-5888,920,15904,-159,189,-182,2025-02-06 14:58:16,0.0
-6204,964,16056,-157,170,-157,2025-02-06 14:58:16,0.0
-6132,924,15884,-146,131,-184,2025-02-06 14:58:16,0.0
-6056,936,16072,-160,183,-180,2025-02-06 14:58:16,0.0
-6176,1020,15992,-180,168,-155,2025-02-06 14:58:16,
-6200,916,15864,-171,162,-177,2025-02-06 14:58:16,0.0
-6096,928,15936,-135,188,-171,2025-02-06 14:58:16,0.0
-6152,992,16040,-142,116,-184,2025-02-06 14:58:16,0.0
-6100,964,15884,-175,133,-163,2025-02-06 14:58:16,0.0
-6052,984,16008,-181,185,-154,2025-02-06 14:58:16,0.0
-6048,1004,15976,-173,157,-163,2025-02-06 14:58:16,0.0
-6184,916,15912,-155,184,-153,2025-02-06 14:58:16,0.0
-6296,940,15996,-148,158,-169,2025-02-06 14:58:16,0.0
-6188,880,15956,-165,130,-178,2025-02-06 14:58:16,0.0
-6140,920,15976,-167,151,-179,2025-02-06 14:58:16,0.0
-6040,1044,15896,-150,144,-178,2025-02-06 14:58:16,0.0
-6092,864,15956,-169,163,-156,2025-02-06 14:58:16,0.0
-6096,980,16128,-161,214,-159,2025-02-06 14:58:16,0.0
-6076,1024,15924,-157,168,-160,2025-02-06 14:58:16,0.0
-6100,888,15756,-135,165,-171,2025-02-06 14:58:16,0.0
-6272,948,15976,-170,167,-164,2025-02-06 14:58:16,0.0
-6076,892,16000,-146,169,-181,2025-02-06 14:58:16,0.0
-6088,932,15852,-167,171,-183,2025-02-06 14:58:16,0.0
-6056,924,16000,-166,166,-178,2025-02-06 14:58:16,0.0
-6100,976,16008,-155,135,-159,2025-02-06 14:58:16,0.0
-6036,956,16020,-169,147,-175,2025-02-06 14:58:16,0.0
-6128,964,15940,-155,178,-177,2025-02-06 14:58:16,0.0
-6152,956,15984,-145,157,-164,2025-02-06 14:58:16,0.0
-6144,808,15992,-166,161,-158,2025-02-06 14:58:16,0.0
-6148,912,16076,-166,177,-178,2025-02-06 14:58:16,0.0
-6216,944,15892,-141,148,-169,2025-02-06 14:58:16,0.0
-6192,988,16044,-180,155,-172,2025-02-06 14:58:16,0.0
-6176,948,15968,-165,128,-155,2025-02-06 14:58:16,0.0
-6068,952,16044,-182,155,-190,2025-02-06 14:58:16,0.0
-6048,900,16000,-161,193,-154,2025-02-06 14:58:16,0.0
-6112,972,16036,-194,164,-171,2025-02-06 14:58:17,0.0
-6164,948,15888,-156,131,-172,2025-02-06 14:58:17,0.0
-6052,968,15736,-149,171,-150,2025-02-06 14:58:17,0.0
-6236,944,15996,-180,179,-185,2025-02-06 14:58:17,0.0
-6204,976,16036,-179,145,-190,2025-02-06 14:58:17,0.0
-6192,976,15984,-151,152,-167,2025-02-06 14:58:17,0.0
-6228,1016,15752,-150,179,-178,2025-02-06 14:58:17,0.0
-6236,984,15892,-156,181,-187,2025-02-06 14:58:17,0.0
-6232,944,16000,-158,168,-152,2025-02-06 14:58:17,0.0
-6084,952,16012,-169,143,-164,2025-02-06 14:58:17,0.0
-6080,996,15848,-141,138,-166,2025-02-06 14:58:17,0.0
-6072,964,15924,-160,159,-170,2025-02-06 14:58:17,0.0
-6072,896,16016,-168,150,-164,2025-02-06 14:58:17,0.0
-5992,928,16072,-167,155,-179,2025-02-06 14:58:17,0.0
-6208,940,16000,-172,160,-157,2025-02-06 14:58:17,0.0
-6224,976,15972,-150,192,-172,2025-02-06 14:58:17,0.0
-5756,1312,15936,-232,107,-274,2025-02-06 14:58:17,0.0
-5252,1680,15936,-171,133,-179,2025-02-06 14:58:17,0.0
-6104,1188,15808,-150,187,-165,2025-02-06 14:58:17,0.0
-6548,884,16296,-173,165,-202,2025-02-06 14:58:17,0.0
-5672,1172,15500,-167,130,-213,2025-02-06 14:58:17,0.0
-6092,996,16020,-124,194,-155,2025-02-06 14:58:17,0.0
-6296,800,16104,-174,180,-180,2025-02-06 14:58:17,0.0
-6052,1020,15968,-165,99,-191,2025-02-06 14:58:17,0.0
-6048,912,15944,-166,155,-179,2025-02-06 14:58:17,0.0
-6236,864,16104,-164,148,-143,2025-02-06 14:58:17,0.0
-6272,944,15944,-177,160,-164,2025-02-06 14:58:17,0.0
-6028,972,15832,-164,176,-191,2025-02-06 14:58:17,0.0
-6168,972,15872,-157,165,-174,2025-02-06 14:58:17,0.0
-6340,876,15980,-175,157,-161,2025-02-06 14:58:17,0.0
-6056,1032,15920,-176,163,-169,2025-02-06 14:58:17,0.0
-6200,920,15972,-155,139,-176,2025-02-06 14:58:17,0.0
-6088,860,15964,-174,145,-140,2025-02-06 14:58:17,0.0
-6120,932,16036,-155,183,-168,2025-02-06 14:58:17,0.0
-6204,956,16028,-178,171,-169,2025-02-06 14:58:17,0.0
-6156,924,15836,-167,143,-180,2025-02-06 14:58:17,0.0
-6164,940,15988,-171,146,-185,2025-02-06 14:58:17,0.0
-6152,944,15988,-172,141,-174,2025-02-06 14:58:17,0.0
-6080,856,15792,-178,171,-184,2025-02-06 14:58:17,0.0
-6092,1016,16032,-146,200,-195,2025-02-06 14:58:17,0.0
-6160,944,16092,-151,145,-176,2025-02-06 14:58:17,0.0
-6024,936,15940,-159,173,-179,2025-02-06 14:58:17,0.0
-6224,904,16080,-147,162,-181,2025-02-06 14:58:17,0.0
-6008,1000,16024,-164,158,-178,2025-02-06 14:58:17,0.0
-6084,904,16020,-179,168,-182,2025-02-06 14:58:17,0.0
-6224,992,15944,-152,159,-170,2025-02-06 14:58:17,0.0
-6108,928,15960,-163,145,-181,2025-02-06 14:58:17,0.0
-6148,1024,15960,-158,168,-183,2025-02-06 14:58:17,0.0
-6068,884,15792,-181,169,-175,2025-02-06 14:58:17,0.0
-5668,1156,15808,-191,8,-262,2025-02-06 14:58:17,0.0
-7180,476,16548,-43,-47,66,2025-02-06 14:58:17,0.0
-5016,1232,15652,-289,212,-389,2025-02-06 14:58:17,0.0
-5808,1256,15588,-76,573,-45,2025-02-06 14:58:17,0.0
-7476,400,16780,-171,-6,-202,2025-02-06 14:58:17,0.0
-4696,1128,14688,-210,-8,-230,2025-02-06 14:58:17,0.0
-6760,672,16632,-99,255,-84,2025-02-06 14:58:17,0.0
-6496,996,16208,-192,182,-232,2025-02-06 14:58:17,0.0
-5572,1072,15128,-135,222,-138,2025-02-06 14:58:17,0.0
-6748,784,16272,-138,178,-121,2025-02-06 14:58:17,0.0
-6304,880,16024,-183,57,-232,2025-02-06 14:58:17,0.0
-5544,1016,15424,-147,280,-187,2025-02-06 14:58:18,0.0
-6680,788,16304,-162,221,-161,2025-02-06 14:58:18,0.0
-6060,864,15976,-161,-53,-162,2025-02-06 14:58:18,0.0
-5700,924,15896,-176,258,-185,2025-02-06 14:58:18,0.0
-6352,956,16184,-154,241,-150,2025-02-06 14:58:18,0.0
-6128,860,15940,-164,83,-172,2025-02-06 14:58:18,0.0
-6060,988,15876,-169,142,-199,2025-02-06 14:58:18,0.0
-6232,948,16072,-182,179,-199,2025-02-06 14:58:18,0.0
-6276,972,15976,-149,194,-158,2025-02-06 14:58:18,0.0
-6124,968,16072,-155,131,-161,2025-02-06 14:58:18,
-6212,984,16004,-191,99,-190,2025-02-06 14:58:18,0.0
-6028,928,15940,-148,178,-139,2025-02-06 14:58:18,0.0
-6192,956,15928,-166,256,-177,2025-02-06 14:58:18,0.0
-6216,968,16092,-146,102,-180,2025-02-06 14:58:18,0.0
-5848,988,15828,-167,87,-167,2025-02-06 14:58:18,0.0
-5992,988,15984,-163,226,-201,2025-02-06 14:58:18,0.0
-6232,980,16092,-172,201,-170,2025-02-06 14:58:18,0.0
-6004,916,15844,-146,160,-192,2025-02-06 14:58:18,0.0
-6216,980,16032,-168,159,-199,2025-02-06 14:58:18,0.0
-6108,1064,16252,-164,125,-153,2025-02-06 14:58:18,0.0
-6172,908,15884,-164,225,-180,2025-02-06 14:58:18,0.0
-6312,948,16052,-149,117,-165,2025-02-06 14:58:18,0.0
-6088,936,15920,-170,110,-166,2025-02-06 14:58:18,0.0
-6056,920,15916,-171,203,-174,2025-02-06 14:58:18,0.0
-6128,1024,16068,-157,131,-164,2025-02-06 14:58:18,0.0
-5984,1016,15936,-176,125,-177,2025-02-06 14:58:18,0.0
-6196,1040,16080,-133,187,-204,2025-02-06 14:58:18,0.0
-6240,964,16020,-148,157,-162,2025-02-06 14:58:18,0.0
-6068,1028,15888,-168,151,-157,2025-02-06 14:58:18,0.0
-6188,956,16064,-161,169,-173,2025-02-06 14:58:18,0.0
-6124,936,16048,-152,130,-172,2025-02-06 14:58:18,0.0
-6196,984,16012,-177,193,-160,2025-02-06 14:58:18,0.0
-6148,1040,16144,-156,128,-161,2025-02-06 14:58:18,0.0
-6028,980,15956,-157,142,-167,2025-02-06 14:58:18,0.0
-6124,912,16000,-195,176,-144,2025-02-06 14:58:18,0.0
-6040,916,15980,-163,171,-173,2025-02-06 14:58:18,0.0
-6104,1032,16032,-160,153,-176,2025-02-06 14:58:18,0.0
-6064,880,15952,-156,165,-193,2025-02-06 14:58:18,0.0
-6112,928,15988,-173,190,-172,2025-02-06 14:58:18,0.0
-6164,984,16048,-168,178,-155,2025-02-06 14:58:18,0.0
-6088,932,15904,-152,168,-190,2025-02-06 14:58:18,0.0
-6036,1024,15936,-151,117,-191,2025-02-06 14:58:18,0.0
-6112,1024,16128,-151,120,-169,2025-02-06 14:58:18,0.0
-6060,808,15904,-188,176,-177,2025-02-06 14:58:18,0.0
-5992,1092,15848,-146,208,-184,2025-02-06 14:58:18,0.0
-6164,1040,15948,-149,184,-162,2025-02-06 14:58:18,0.0
-6284,880,16012,-142,112,-185,2025-02-06 14:58:18,0.0
-5944,768,15912,-185,102,-163,2025-02-06 14:58:18,0.0
-6032,872,16024,-195,173,-158,2025-02-06 14:58:18,0.0
-6164,972,16060,-180,249,-174,2025-02-06 14:58:18,0.0
-6356,956,15928,-185,178,-167,2025-02-06 14:58:18,0.0
-6304,984,15984,-167,152,-205,2025-02-06 14:58:18,0.0
-6096,1064,15892,-176,101,-156,2025-02-06 14:58:18,0.0
-6148,888,16200,-170,76,-160,2025-02-06 14:58:18,0.0
-6068,876,15944,-171,178,-168,2025-02-06 14:58:18,0.0
-6072,1064,16036,-126,230,-152,2025-02-06 14:58:18,0.0
-6132,996,15820,-147,193,-166,2025-02-06 14:58:18,0.0
-6312,928,16032,-169,120,-168,2025-02-06 14:58:18,0.0
-6128,948,16036,-167,121,-162,2025-02-06 14:58:18,0.0
-6032,1184,16072,-168,192,-180,2025-02-06 14:58:18,0.0
-6268,916,16108,-146,207,-190,2025-02-06 14:58:18,0.0
-6276,844,15920,-171,155,-184,2025-02-06 14:58:18,0.0
-6136,972,15952,-130,134,-165,2025-02-06 14:58:19,0.0
-6304,948,16060,-155,200,-188,2025-02-06 14:58:19,0.0
-6164,880,15708,-181,180,-157,2025-02-06 14:58:19,0.0
-6180,988,15784,-157,146,-158,2025-02-06 14:58:19,0.0
-6244,952,16052,-168,71,-177,2025-02-06 14:58:19,0.0
-5928,896,15920,-186,114,-180,2025-02-06 14:58:19,0.0
-6040,1056,15948,-160,181,-152,2025-02-06 14:58:19,0.0
-6064,1036,16104,-143,178,-162,2025-02-06 14:58:19,0.0
-6140,988,15972,-143,199,-193,2025-02-06 14:58:19,0.0
-6248,980,15788,-134,221,-181,2025-02-06 14:58:19,0.0
-6276,964,15872,-147,96,-162,2025-02-06 14:58:19,0.0
-6164,892,15992,-145,70,-169,2025-02-06 14:58:19,0.0
-6036,1024,16048,-167,124,-195,2025-02-06 14:58:19,0.0
-6080,968,15960,-170,229,-174,2025-02-06 14:58:19,0.0
-6128,948,15972,-148,169,-167,2025-02-06 14:58:19,0.0
-6136,916,15960,-156,131,-167,2025-02-06 14:58:19,0.0
-6156,944,15972,-161,126,-169,2025-02-06 14:58:19,0.0
-6076,956,15956,-176,179,-172,2025-02-06 14:58:19,0.0
-6152,924,15956,-180,188,-199,2025-02-06 14:58:19,0.0
-6148,864,15936,-145,145,-172,2025-02-06 14:58:19,0.0
-6280,876,16028,-153,173,-167,2025-02-06 14:58:19,0.0
-6224,1008,16128,-150,169,-161,2025-02-06 14:58:19,0.0
-6164,996,16100,-189,155,-165,2025-02-06 14:58:19,0.0
-6040,968,15784,-162,134,-166,2025-02-06 14:58:19,0.0
-6016,984,15884,-155,166,-182,2025-02-06 14:58:19,0.0
-6076,948,15816,-167,163,-156,2025-02-06 14:58:19,0.0
-5976,968,15976,-152,127,-173,2025-02-06 14:58:19,0.0
-6176,1004,16000,-151,183,-186,2025-02-06 14:58:19,0.0
-6028,1004,16048,-158,173,-175,2025-02-06 14:58:19,0.0
-6252,1000,15928,-162,185,-168,2025-02-06 14:58:19,0.0
-6104,952,15960,-170,137,-189,2025-02-06 14:58:19,0.0
-6172,964,15916,-165,147,-165,2025-02-06 14:58:19,0.0
-6092,952,16076,-165,185,-169,2025-02-06 14:58:19,0.0
-6128,952,16012,-162,164,-204,2025-02-06 14:58:19,0.0
-6164,1012,15836,-174,162,-175,2025-02-06 14:58:19,0.0
-6208,1008,15936,-142,173,-179,2025-02-06 14:58:19,0.0
-6140,920,16064,-171,142,-167,2025-02-06 14:58:19,0.0
-6132,896,15892,-147,147,-188,2025-02-06 14:58:19,0.0
-6288,928,16152,-168,184,-183,2025-02-06 14:58:19,0.0
-6112,996,16128,-133,194,-168,2025-02-06 14:58:19,0.0
-6204,952,15904,-145,150,-185,2025-02-06 14:58:19,0.0
-6228,1016,15892,-172,147,-172,2025-02-06 14:58:19,0.0
-6028,1040,15908,-175,158,-171,2025-02-06 14:58:19,0.0
-6176,936,15932,-161,172,-170,2025-02-06 14:58:19,0.0
-6132,896,15960,-159,130,-179,2025-02-06 14:58:19,0.0
-6064,944,15976,-156,141,-154,2025-02-06 14:58:19,0.0
-6092,956,15924,-163,181,-184,2025-02-06 14:58:19,0.0
-6144,956,15984,-159,179,-161,2025-02-06 14:58:19,
-6224,936,15996,-167,133,-173,2025-02-06 14:58:19,0.0
-6104,948,15812,-164,161,-165,2025-02-06 14:58:19,0.0
-6056,940,16044,-178,177,-174,2025-02-06 14:58:19,0.0
-6140,920,16052,-177,152,-178,2025-02-06 14:58:19,0.0
-6140,956,16012,-179,186,-186,2025-02-06 14:58:19,0.0
-6176,1084,15940,-153,199,-152,2025-02-06 14:58:19,0.0
-6144,932,15920,-168,131,-169,2025-02-06 14:58:19,0.0
-6120,960,16068,-163,128,-181,2025-02-06 14:58:19,0.0
-6104,904,16068,-161,175,-159,2025-02-06 14:58:19,0.0
-6100,932,15924,-158,188,-170,2025-02-06 14:58:19,0.0
-6136,952,15904,-172,174,-184,2025-02-06 14:58:19,0.0
-6108,1008,16028,-152,180,-172,2025-02-06 14:58:19,0.0
-6176,964,15976,-155,182,-179,2025-02-06 14:58:20,0.0
-6236,884,16016,-154,128,-185,2025-02-06 14:58:20,0.0
-6100,968,15864,-132,145,-174,2025-02-06 14:58:20,0.0
-6120,932,15980,-176,119,-144,2025-02-06 14:58:20,0.0
-6108,1060,15948,-152,159,-194,2025-02-06 14:58:20,0.0
-6180,1092,15856,-157,158,-176,2025-02-06 14:58:20,0.0
-6180,940,15964,-178,165,-181,2025-02-06 14:58:20,0.0
-6160,928,15904,-167,152,-155,2025-02-06 14:58:20,0.0
-6148,944,15840,-160,165,-167,2025-02-06 14:58:20,0.0
-6152,880,16012,-146,155,-179,2025-02-06 14:58:20,0.0
-6104,936,16052,-168,142,-184,2025-02-06 14:58:20,0.0
-6112,1020,15840,-144,174,-172,2025-02-06 14:58:20,0.0
-6148,988,16124,-150,191,-189,2025-02-06 14:58:20,0.0
-6076,1044,16124,-161,162,-188,2025-02-06 14:58:20,0.0
-6100,940,15916,-162,149,-185,2025-02-06 14:58:20,0.0
-6120,1036,15880,-165,152,-182,2025-02-06 14:58:20,0.0
-6068,928,15836,-156,166,-174,2025-02-06 14:58:20,0.0
-6132,964,15944,-182,175,-188,2025-02-06 14:58:20,0.0
-6112,908,16060,-163,150,-187,2025-02-06 14:58:20,0.0
-6164,940,15904,-177,170,-166,2025-02-06 14:58:20,0.0
-6164,964,16004,-191,163,-157,2025-02-06 14:58:20,0.0
-6072,1096,16084,-172,160,-187,2025-02-06 14:58:20,0.0
-6036,884,16096,-189,167,-183,2025-02-06 14:58:20,0.0
-6060,1028,15872,-148,172,-178,2025-02-06 14:58:20,0.0
-6040,920,15960,-140,164,-162,2025-02-06 14:58:20,0.0
-6272,936,15964,-167,181,-175,2025-02-06 14:58:20,0.0
-6088,908,15944,-159,159,-167,2025-02-06 14:58:20,0.0
-6160,936,15852,-155,136,-196,2025-02-06 14:58:20,0.0
-6092,1000,15960,-168,145,-171,2025-02-06 14:58:20,0.0
-6072,908,15972,-173,183,-175,2025-02-06 14:58:20,0.0
-6056,1044,15960,-144,152,-144,2025-02-06 14:58:20,0.0
-6044,1000,16000,-162,162,-167,2025-02-06 14:58:20,0.0
-6152,920,15796,-153,148,-176,2025-02-06 14:58:20,0.0
-6176,992,16060,-171,137,-178,2025-02-06 14:58:20,0.0
-6060,1004,15996,-171,175,-183,2025-02-06 14:58:20,0.0
-6144,956,16032,-170,159,-179,2025-02-06 14:58:20,0.0
-6164,984,15964,-169,152,-187,2025-02-06 14:58:20,0.0
-6044,928,16048,-154,162,-165,2025-02-06 14:58:20,0.0
-6152,944,15960,-160,162,-180,2025-02-06 14:58:20,0.0
-6156,912,16004,-182,153,-171,2025-02-06 14:58:20,0.0
-6052,940,16028,-171,145,-168,2025-02-06 14:58:20,0.0
-6100,900,16136,-163,162,-168,2025-02-06 14:58:20,0.0
-6188,976,15840,-142,157,-159,2025-02-06 14:58:20,0.0
-6128,984,16012,-159,123,-173,2025-02-06 14:58:20,0.0
-6188,888,16008,-145,152,-195,2025-02-06 14:58:20,0.0
-6092,928,15904,-145,159,-171,2025-02-06 14:58:20,0.0
-6084,964,16044,-156,138,-182,2025-02-06 14:58:20,0.0
-6148,996,15992,-180,160,-176,2025-02-06 14:58:20,0.0
-6048,932,16068,-164,164,-160,2025-02-06 14:58:20,0.0
-6208,924,16064,-185,142,-177,2025-02-06 14:58:20,0.0
-6112,900,15936,-165,168,-166,2025-02-06 14:58:20,0.0
-6148,876,15960,-171,140,-173,2025-02-06 14:58:20,0.0
-6124,940,15944,-185,139,-183,2025-02-06 14:58:20,0.0
-6104,960,15776,-144,184,-176,2025-02-06 14:58:20,0.0
-6164,908,16076,-148,158,-192,2025-02-06 14:58:20,0.0
-6172,896,15864,-155,156,-161,2025-02-06 14:58:20,0.0
-6208,964,15884,-136,150,-144,2025-02-06 14:58:20,0.0
-6216,888,16004,-163,176,-147,2025-02-06 14:58:20,0.0
-6208,964,15864,-182,175,-176,2025-02-06 14:58:20,0.0
-6084,920,15996,-150,175,-154,2025-02-06 14:58:20,0.0
-6140,948,15948,-164,174,-154,2025-02-06 14:58:20,0.0
-6152,964,16072,-170,167,-181,2025-02-06 14:58:21,0.0
-6128,1004,15944,-142,169,-172,2025-02-06 14:58:21,0.0
-6108,948,16016,-148,154,-186,2025-02-06 14:58:21,0.0
-6160,1016,15916,-147,159,-170,2025-02-06 14:58:21,0.0
-6176,900,16064,-157,156,-140,2025-02-06 14:58:21,0.0
-6064,916,15984,-177,171,-175,2025-02-06 14:58:21,0.0
-6096,916,15960,-174,176,-178,2025-02-06 14:58:21,0.0
-6068,900,16044,-142,147,-171,2025-02-06 14:58:21,0.0
-6148,968,16008,-195,157,-186,2025-02-06 14:58:21,0.0
-6148,944,15892,-150,160,-179,2025-02-06 14:58:21,0.0
-6172,864,15904,-150,164,-182,2025-02-06 14:58:21,0.0
-6080,980,15960,-163,137,-183,2025-02-06 14:58:21,0.0
-6184,904,15828,-156,164,-186,2025-02-06 14:58:21,0.0
-6124,876,16012,-167,146,-199,2025-02-06 14:58:21,0.0
-6112,872,15980,-175,153,-173,2025-02-06 14:58:21,0.0
-6060,968,15864,-143,157,-166,2025-02-06 14:58:21,0.0
-6112,956,16132,-145,157,-183,2025-02-06 14:58:21,0.0
-6128,996,16016,-145,166,-166,2025-02-06 14:58:21,0.0
-6148,904,15916,-158,161,-188,2025-02-06 14:58:21,0.0
-6112,992,16160,-160,168,-204,2025-02-06 14:58:21,0.0
-6084,932,16020,-177,180,-192,2025-02-06 14:58:21,0.0
-6144,992,15856,-155,149,-170,2025-02-06 14:58:21,0.0
-6120,936,15896,-183,169,-180,2025-02-06 14:58:21,0.0
-6136,900,15884,-144,167,-168,2025-02-06 14:58:21,0.0
-6132,940,15976,-157,138,-174,2025-02-06 14:58:21,0.0
-6124,832,15908,-161,136,-169,2025-02-06 14:58:21,0.0
-6076,888,15960,-181,174,-173,2025-02-06 14:58:21,
-6196,976,15912,-179,177,-169,2025-02-06 14:58:21,0.0
-6232,980,16096,-155,154,-158,2025-02-06 14:58:21,0.0
-6124,1036,15828,-162,158,-169,2025-02-06 14:58:21,0.0
-6160,1024,15968,-144,165,-183,2025-02-06 14:58:21,0.0
-6216,900,16020,-160,153,-147,2025-02-06 14:58:21,0.0
-6240,908,16000,-149,165,-193,2025-02-06 14:58:21,0.0
-6172,920,16032,-152,155,-167,2025-02-06 14:58:21,0.0
-6140,940,15940,-141,162,-172,2025-02-06 14:58:21,0.0
-6140,908,15932,-163,151,-174,2025-02-06 14:58:21,0.0
-6060,1028,15944,-181,171,-193,2025-02-06 14:58:21,0.0
-6104,932,16112,-190,181,-165,2025-02-06 14:58:21,0.0
-6104,876,16064,-150,169,-164,2025-02-06 14:58:21,0.0
-6164,968,15804,-159,166,-193,2025-02-06 14:58:21,0.0
-6232,944,15912,-159,159,-169,2025-02-06 14:58:21,0.0
-6044,956,16044,-174,139,-144,2025-02-06 14:58:21,0.0
-6096,836,15828,-164,120,-159,2025-02-06 14:58:21,0.0
-6072,1012,16060,-144,172,-158,2025-02-06 14:58:21,0.0
-6020,932,16000,-183,182,-167,2025-02-06 14:58:21,0.0
-6100,1040,16044,-176,168,-172,2025-02-06 14:58:21,0.0
-6120,964,15816,-154,160,-160,2025-02-06 14:58:21,0.0
-6108,960,15976,-153,148,-179,2025-02-06 14:58:21,0.0
-6140,936,15908,-142,156,-185,2025-02-06 14:58:21,0.0
-6100,916,15884,-163,174,-182,2025-02-06 14:58:21,0.0
-6260,956,15952,-185,135,-160,2025-02-06 14:58:21,0.0
-6172,876,15936,-160,148,-165,2025-02-06 14:58:21,0.0
-6084,996,15852,-164,177,-182,2025-02-06 14:58:21,0.0
-6136,988,15904,-160,159,-196,2025-02-06 14:58:21,0.0
-6220,900,15808,-176,161,-180,2025-02-06 14:58:21,0.0
-6260,976,15972,-145,199,-180,2025-02-06 14:58:21,0.0
-6124,920,16052,-170,160,-168,2025-02-06 14:58:21,0.0
-6112,868,15984,-153,155,-157,2025-02-06 14:58:21,0.0
-6136,864,15996,-176,160,-168,2025-02-06 14:58:21,0.0
-6164,952,16096,-175,155,-175,2025-02-06 14:58:22,0.0
-6120,972,16012,-159,182,-185,2025-02-06 14:58:22,0.0
-6164,996,16112,-158,177,-182,2025-02-06 14:58:22,0.0
-6128,932,16068,-156,180,-168,2025-02-06 14:58:22,0.0
-6356,872,15964,-163,181,-181,2025-02-06 14:58:22,0.0
-6260,896,16008,-179,144,-175,2025-02-06 14:58:22,0.0
-6088,948,15888,-151,135,-169,2025-02-06 14:58:22,0.0
-6060,928,16032,-164,156,-170,2025-02-06 14:58:22,0.0
-6188,896,15996,-166,182,-186,2025-02-06 14:58:22,0.0
-6240,876,15840,-169,177,-179,2025-02-06 14:58:22,0.0
-6204,840,16032,-140,133,-191,2025-02-06 14:58:22,0.0
-6152,848,16088,-153,102,-163,2025-02-06 14:58:22,0.0
-6032,940,15820,-178,168,-179,2025-02-06 14:58:22,0.0
-6096,988,15992,-158,189,-173,2025-02-06 14:58:22,0.0
-6132,1012,16060,-164,169,-172,2025-02-06 14:58:22,0.0
-6196,864,16012,-168,165,-169,2025-02-06 14:58:22,0.0
-6184,996,15984,-153,136,-173,2025-02-06 14:58:22,0.0
-6128,956,15976,-187,113,-165,2025-02-06 14:58:22,0.0
-6100,996,15880,-143,147,-191,2025-02-06 14:58:22,0.0
-6060,988,16056,-162,215,-167,2025-02-06 14:58:22,0.0
-6188,924,15960,-178,159,-191,2025-02-06 14:58:22,0.0
-6116,888,15868,-155,138,-180,2025-02-06 14:58:22,0.0
-6188,904,15960,-187,117,-177,2025-02-06 14:58:22,0.0
-6088,928,16028,-151,170,-162,2025-02-06 14:58:22,0.0
-6200,876,15912,-169,153,-175,2025-02-06 14:58:22,0.0
-6168,912,15980,-172,161,-181,2025-02-06 14:58:22,0.0
-6096,888,16004,-160,155,-162,2025-02-06 14:58:22,0.0
-6148,852,16024,-158,153,-172,2025-02-06 14:58:22,0.0
-6164,980,16012,-168,146,-185,2025-02-06 14:58:22,0.0
-6052,956,15940,-168,174,-177,2025-02-06 14:58:22,0.0
-6100,980,16012,-161,156,-173,2025-02-06 14:58:22,0.0
-6196,948,15900,-162,156,-167,2025-02-06 14:58:22,0.0
-6136,992,16088,-182,176,-156,2025-02-06 14:58:22,0.0
-6224,868,15884,-180,181,-181,2025-02-06 14:58:22,0.0
-6260,948,16048,-170,186,-163,2025-02-06 14:58:22,0.0
-6192,916,16056,-155,122,-188,2025-02-06 14:58:22,0.0
-6064,952,15948,-154,112,-161,2025-02-06 14:58:22,0.0
-5988,968,15944,-154,156,-160,2025-02-06 14:58:22,0.0
-6024,1060,15996,-151,189,-194,2025-02-06 14:58:22,0.0
-6108,1012,15896,-151,167,-172,2025-02-06 14:58:22,0.0
-6176,984,16076,-162,170,-182,2025-02-06 14:58:22,0.0
-6140,972,15940,-163,152,-193,2025-02-06 14:58:22,0.0
-6144,872,15848,-171,147,-169,2025-02-06 14:58:22,0.0
-6120,944,15956,-148,168,-169,2025-02-06 14:58:22,0.0
-6180,976,15968,-161,138,-174,2025-02-06 14:58:22,0.0
-6052,960,15932,-176,164,-176,2025-02-06 14:58:22,0.0
-6072,952,15928,-165,140,-179,2025-02-06 14:58:22,0.0
-6076,992,16044,-152,143,-180,2025-02-06 14:58:22,0.0
-6104,1008,15924,-182,152,-162,2025-02-06 14:58:22,0.0
-6108,956,15988,-161,163,-175,2025-02-06 14:58:22,0.0
-6020,876,15880,-165,169,-163,2025-02-06 14:58:22,0.0
-6148,952,15908,-138,185,-156,2025-02-06 14:58:22,0.0
-6116,996,16020,-182,171,-169,2025-02-06 14:58:22,0.0
-6100,1072,15996,-153,192,-176,2025-02-06 14:58:22,0.0
-6176,900,15980,-167,174,-160,2025-02-06 14:58:22,0.0
-6176,948,15900,-149,127,-179,2025-02-06 14:58:22,0.0
-6372,936,15960,-162,148,-185,2025-02-06 14:58:22,0.0
-6176,1008,16024,-143,148,-193,2025-02-06 14:58:22,0.0
-6136,976,15812,-149,174,-188,2025-02-06 14:58:23,0.0
-6188,948,16004,-189,184,-185,2025-02-06 14:58:23,0.0
-6248,924,16376,-169,157,-148,2025-02-06 14:58:23,0.0
-6012,1032,15956,-174,106,-173,2025-02-06 14:58:23,0.0
-6004,904,15912,-171,182,-169,2025-02-06 14:58:23,0.0
-6316,984,16088,-155,216,-184,2025-02-06 14:58:23,0.0
-6116,940,15960,-148,194,-171,2025-02-06 14:58:23,0.0
-6204,984,15972,-141,146,-189,2025-02-06 14:58:23,0.0
-6024,1008,15948,-159,161,-162,2025-02-06 14:58:23,0.0
-6200,924,15948,-161,182,-178,2025-02-06 14:58:23,
-6040,1060,15844,-167,198,-193,2025-02-06 14:58:23,0.0
-6176,968,15708,-166,162,-182,2025-02-06 14:58:23,0.0
-6120,960,15820,-161,134,-186,2025-02-06 14:58:23,0.0
-6200,904,16012,-154,157,-157,2025-02-06 14:58:23,0.0
-6068,920,15976,-157,145,-185,2025-02-06 14:58:23,0.0
-6060,916,15840,-166,172,-158,2025-02-06 14:58:23,0.0
-6148,940,15936,-184,161,-199,2025-02-06 14:58:23,0.0
-6156,972,15972,-164,165,-186,2025-02-06 14:58:23,0.0
-6132,940,15996,-187,151,-181,2025-02-06 14:58:23,0.0
-6028,872,15996,-165,146,-154,2025-02-06 14:58:23,0.0
-6144,856,15912,-164,184,-173,2025-02-06 14:58:23,0.0
-6104,852,15900,-190,162,-172,2025-02-06 14:58:23,0.0
-6200,908,15892,-158,156,-166,2025-02-06 14:58:23,0.0
-6180,956,15972,-177,172,-183,2025-02-06 14:58:23,0.0
-6164,996,15976,-174,163,-173,2025-02-06 14:58:23,0.0
-6056,1024,15992,-162,135,-179,2025-02-06 14:58:23,0.0
-6096,972,15992,-157,134,-174,2025-02-06 14:58:23,0.0
-5992,1000,16036,-163,184,-188,2025-02-06 14:58:23,0.0
-6028,976,15788,-151,184,-158,2025-02-06 14:58:23,0.0
-6180,1016,16112,-162,146,-162,2025-02-06 14:58:23,0.0
-6184,1000,15828,-186,153,-165,2025-02-06 14:58:23,0.0
-6220,936,16004,-168,192,-169,2025-02-06 14:58:23,0.0
-6108,956,16112,-168,139,-164,2025-02-06 14:58:23,0.0
-6124,908,15900,-157,142,-157,2025-02-06 14:58:23,0.0
-6116,968,15852,-142,156,-173,2025-02-06 14:58:23,0.0
-6112,884,15868,-171,193,-164,2025-02-06 14:58:23,0.0
-6148,932,16000,-160,152,-177,2025-02-06 14:58:23,0.0
-6140,968,15904,-174,138,-170,2025-02-06 14:58:23,0.0
-6208,1024,16040,-161,134,-176,2025-02-06 14:58:23,0.0
-6092,992,16148,-155,146,-181,2025-02-06 14:58:23,0.0
-6072,1036,15980,-157,160,-181,2025-02-06 14:58:23,0.0
-6184,860,15864,-178,172,-181,2025-02-06 14:58:23,0.0
-6204,908,15976,-150,173,-167,2025-02-06 14:58:23,0.0
-6140,928,16000,-174,153,-201,2025-02-06 14:58:23,0.0
-6156,916,16080,-163,161,-181,2025-02-06 14:58:23,0.0
-6124,948,16016,-166,172,-169,2025-02-06 14:58:23,0.0
-6128,932,15928,-137,152,-180,2025-02-06 14:58:23,0.0
-6108,964,15984,-152,155,-153,2025-02-06 14:58:23,0.0
-6200,944,15972,-163,142,-183,2025-02-06 14:58:23,0.0
-6060,900,15836,-167,170,-180,2025-02-06 14:58:23,0.0
-6112,936,15824,-153,178,-162,2025-02-06 14:58:23,0.0
-5980,920,15904,-162,153,-177,2025-02-06 14:58:23,0.0
-5932,1008,15832,-163,141,-165,2025-02-06 14:58:23,0.0
-6120,920,15840,-179,177,-175,2025-02-06 14:58:23,0.0
-6068,952,16048,-153,172,-186,2025-02-06 14:58:23,0.0
-6144,968,15980,-150,153,-169,2025-02-06 14:58:23,0.0
-6080,1032,15792,-168,170,-187,2025-02-06 14:58:23,0.0
-6172,960,15948,-161,162,-173,2025-02-06 14:58:23,0.0
-6188,948,15980,-145,155,-164,2025-02-06 14:58:23,0.0
-6052,1012,15884,-162,135,-158,2025-02-06 14:58:23,0.0
-6168,1036,15948,-151,171,-178,2025-02-06 14:58:23,0.0
-6104,936,15864,-164,180,-174,2025-02-06 14:58:23,0.0
-6200,964,15940,-170,159,-148,2025-02-06 14:58:23,0.0
-6208,1004,15980,-180,145,-172,2025-02-06 14:58:23,0.0
-6080,884,15936,-151,143,-200,2025-02-06 14:58:24,0.0
-5984,948,15884,-165,170,-176,2025-02-06 14:58:24,0.0
-6104,1012,15968,-162,162,-184,2025-02-06 14:58:24,0.0
-6284,1000,16032,-182,118,-179,2025-02-06 14:58:24,0.0
-5932,984,15892,-181,159,-172,2025-02-06 14:58:24,0.0
-6208,996,15992,-152,173,-176,2025-02-06 14:58:24,0.0
-6140,880,16108,-174,138,-161,2025-02-06 14:58:24,0.0
-6108,864,15840,-137,162,-179,2025-02-06 14:58:24,0.0
-6064,968,15796,-146,142,-179,2025-02-06 14:58:24,0.0
-6048,916,15924,-181,147,-176,2025-02-06 14:58:24,0.0
-6036,988,15960,-166,157,-176,2025-02-06 14:58:24,0.0
-6132,952,15908,-167,174,-163,2025-02-06 14:58:24,0.0
-6148,944,15940,-159,187,-179,2025-02-06 14:58:24,0.0
-6192,1016,15868,-171,139,-178,2025-02-06 14:58:24,0.0
-6140,972,16036,-159,158,-203,2025-02-06 14:58:24,0.0
-6144,972,16056,-162,163,-195,2025-02-06 14:58:24,0.0
-6140,996,16000,-186,172,-158,2025-02-06 14:58:24,0.0
-6176,920,16092,-176,134,-153,2025-02-06 14:58:24,0.0
-6168,972,16128,-170,154,-172,2025-02-06 14:58:24,0.0
-6096,1036,15948,-148,174,-180,2025-02-06 14:58:24,0.0
-6108,928,15996,-149,169,-169,2025-02-06 14:58:24,0.0
-6116,920,15864,-168,150,-178,2025-02-06 14:58:24,0.0
-6128,876,16000,-175,182,-177,2025-02-06 14:58:24,0.0
-6124,884,15992,-185,158,-168,2025-02-06 14:58:24,0.0
-6020,920,16160,-178,166,-182,2025-02-06 14:58:24,0.0
-6160,952,16028,-160,176,-186,2025-02-06 14:58:24,0.0
-6112,944,15952,-154,144,-165,2025-02-06 14:58:24,0.0
-6208,884,16088,-170,127,-172,2025-02-06 14:58:24,0.0
-6044,944,15904,-151,161,-173,2025-02-06 14:58:24,0.0
-6028,976,16000,-166,168,-178,2025-02-06 14:58:24,0.0
-6112,1072,15912,-148,174,-174,2025-02-06 14:58:24,0.0
-6088,888,15696,-170,156,-194,2025-02-06 14:58:24,0.0
-6100,1000,15952,-158,163,-156,2025-02-06 14:58:24,0.0
-6148,920,15960,-186,162,-172,2025-02-06 14:58:24,0.0
-6016,980,15712,-156,151,-185,2025-02-06 14:58:24,0.0
-6192,968,15880,-184,155,-174,2025-02-06 14:58:24,0.0
-5968,972,16088,-183,167,-170,2025-02-06 14:58:24,0.0
-6112,1004,16044,-162,144,-178,2025-02-06 14:58:24,0.0
-6064,992,15960,-163,153,-164,2025-02-06 14:58:24,0.0
-6084,1012,16016,-161,169,-183,2025-02-06 14:58:24,0.0
-6144,972,15816,-154,157,-171,2025-02-06 14:58:24,0.0
-6196,920,15944,-152,156,-175,2025-02-06 14:58:24,0.0
-6024,916,15828,-160,159,-173,2025-02-06 14:58:24,0.0
-6068,944,16116,-154,150,-187,2025-02-06 14:58:24,0.0
-6140,1008,16036,-144,151,-162,2025-02-06 14:58:24,0.0
-6200,964,15856,-162,150,-154,2025-02-06 14:58:24,
-6132,1048,15900,-161,151,-179,2025-02-06 14:58:24,0.0
-6124,932,15908,-154,173,-159,2025-02-06 14:58:24,0.0
-6196,916,15864,-159,160,-172,2025-02-06 14:58:24,0.0
-6136,992,15864,-163,155,-176,2025-02-06 14:58:24,0.0
-6020,1008,15968,-145,152,-162,2025-02-06 14:58:24,0.0
-6056,928,15816,-170,152,-185,2025-02-06 14:58:24,0.0
-6092,1024,15940,-156,153,-141,2025-02-06 14:58:24,0.0
-6124,932,15916,-184,160,-168,2025-02-06 14:58:24,0.0
-6128,1036,15944,-143,153,-174,2025-02-06 14:58:24,0.0
-6216,880,15940,-187,162,-183,2025-02-06 14:58:24,0.0
-6068,956,15932,-168,152,-169,2025-02-06 14:58:24,0.0
-6200,944,16024,-152,147,-172,2025-02-06 14:58:24,0.0
-6020,928,15988,-167,188,-169,2025-02-06 14:58:24,0.0
-5952,912,15916,-169,174,-186,2025-02-06 14:58:24,0.0
-6100,944,15968,-166,142,-181,2025-02-06 14:58:24,0.0
-6060,972,15956,-190,154,-145,2025-02-06 14:58:25,0.0
-6080,896,15868,-154,133,-187,2025-02-06 14:58:25,0.0
-6220,988,15952,-188,173,-175,2025-02-06 14:58:25,0.0
-6132,1012,15784,-136,159,-175,2025-02-06 14:58:25,0.0
-6144,1008,15928,-178,159,-181,2025-02-06 14:58:25,0.0
-6108,1028,15924,-146,164,-168,2025-02-06 14:58:25,0.0
-6204,944,16068,-175,161,-183,2025-02-06 14:58:25,0.0
-6100,904,16048,-164,142,-183,2025-02-06 14:58:25,0.0
-6148,940,15860,-170,171,-174,2025-02-06 14:58:25,0.0
-6056,980,16044,-161,168,-180,2025-02-06 14:58:25,0.0
-6088,964,15964,-143,150,-175,2025-02-06 14:58:25,0.0
-6112,908,16020,-185,168,-170,2025-02-06 14:58:25,0.0
-6128,916,16184,-128,170,-174,2025-02-06 14:58:25,0.0
-6204,996,16052,-164,160,-162,2025-02-06 14:58:25,0.0
-6120,952,15940,-178,165,-175,2025-02-06 14:58:25,0.0
-6104,944,15872,-158,166,-191,2025-02-06 14:58:25,0.0
-6208,924,16088,-148,146,-170,2025-02-06 14:58:25,0.0
-6140,944,16012,-160,136,-181,2025-02-06 14:58:25,0.0
-6168,904,15952,-154,140,-180,2025-02-06 14:58:25,0.0
-6096,888,15848,-145,149,-200,2025-02-06 14:58:25,0.0
-6020,1032,15904,-186,160,-161,2025-02-06 14:58:25,0.0
-6132,984,15928,-148,172,-168,2025-02-06 14:58:25,0.0
-6216,992,15936,-161,144,-161,2025-02-06 14:58:25,0.0
-6148,1008,16052,-171,157,-167,2025-02-06 14:58:25,0.0
-6168,908,15920,-147,146,-180,2025-02-06 14:58:25,0.0
-6052,968,16080,-166,162,-177,2025-02-06 14:58:25,0.0
-6160,952,15900,-152,165,-179,2025-02-06 14:58:25,0.0
-6092,1036,16132,-167,158,-177,2025-02-06 14:58:25,0.0
-6136,912,15896,-156,159,-170,2025-02-06 14:58:25,0.0
-6176,844,15916,-154,178,-178,2025-02-06 14:58:25,0.0
-6228,900,16068,-175,169,-178,2025-02-06 14:58:25,0.0
-6104,960,15844,-154,160,-147,2025-02-06 14:58:25,0.0
-6140,944,15884,-154,174,-156,2025-02-06 14:58:25,0.0
-6060,996,15972,-170,164,-172,2025-02-06 14:58:25,0.0
-6080,932,15980,-134,161,-157,2025-02-06 14:58:25,0.0
-6132,992,15964,-164,142,-177,2025-02-06 14:58:25,0.0
-6004,932,15936,-168,171,-173,2025-02-06 14:58:25,0.0
-6084,896,16008,-148,135,-184,2025-02-06 14:58:25,0.0
-6092,872,15916,-177,167,-176,2025-02-06 14:58:25,0.0
-6296,976,15968,-147,139,-179,2025-02-06 14:58:25,0.0
-6120,988,16000,-157,155,-177,2025-02-06 14:58:25,0.0
-6148,956,16000,-158,156,-160,2025-02-06 14:58:25,0.0
-6120,964,15924,-164,150,-178,2025-02-06 14:58:25,0.0
-6128,920,15928,-160,158,-163,2025-02-06 14:58:25,0.0
-6208,976,15856,-152,137,-171,2025-02-06 14:58:25,0.0
-6132,988,15984,-166,149,-174,2025-02-06 14:58:25,0.0
-6120,888,15912,-176,164,-194,2025-02-06 14:58:25,0.0
-6100,976,16056,-137,137,-161,2025-02-06 14:58:25,0.0
-6116,904,16044,-170,156,-184,2025-02-06 14:58:25,0.0
-6280,936,15996,-163,167,-194,2025-02-06 14:58:25,0.0
-6080,888,16060,-151,160,-172,2025-02-06 14:58:26,0.0
-6156,860,15928,-143,176,-181,2025-02-06 14:58:26,0.0
-6132,952,15848,-157,145,-168,2025-02-06 14:58:26,0.0
-6192,1000,16192,-155,163,-162,2025-02-06 14:58:26,0.0
-6100,948,15904,-169,162,-179,2025-02-06 14:58:26,0.0
-6204,1040,16072,-163,166,-165,2025-02-06 14:58:26,0.0
-6052,976,15856,-153,162,-172,2025-02-06 14:58:26,0.0
-6136,988,16072,-177,150,-162,2025-02-06 14:58:26,0.0
-6088,988,15940,-169,159,-169,2025-02-06 14:58:26,0.0
-6148,948,15896,-153,165,-188,2025-02-06 14:58:26,0.0
-6152,900,16036,-177,176,-178,2025-02-06 14:58:26,0.0
-6216,920,15980,-159,165,-170,2025-02-06 14:58:26,0.0
-6248,980,16036,-175,162,-180,2025-02-06 14:58:26,0.0
-6168,924,15884,-121,161,-171,2025-02-06 14:58:26,0.0
-6096,872,16028,-169,175,-171,2025-02-06 14:58:26,0.0
-6144,984,15952,-153,159,-163,2025-02-06 14:58:26,0.0
-5988,940,15896,-152,153,-164,2025-02-06 14:58:26,0.0
-6216,992,16068,-160,170,-180,2025-02-06 14:58:26,0.0
-6160,1036,15988,-149,172,-184,2025-02-06 14:58:26,0.0
-6124,932,15864,-155,170,-169,2025-02-06 14:58:26,0.0
-6148,964,16004,-168,169,-174,2025-02-06 14:58:26,0.0
-6092,944,15888,-148,161,-166,2025-02-06 14:58:26,0.0
-5968,988,15924,-156,146,-177,2025-02-06 14:58:26,0.0
-6104,816,16024,-177,155,-171,2025-02-06 14:58:26,0.0
-6080,1016,15836,-147,173,-187,2025-02-06 14:58:26,0.0
-6084,956,15864,-173,136,-194,2025-02-06 14:58:26,0.0
-6136,964,15936,-159,142,-184,2025-02-06 14:58:26,0.0
-6164,896,15888,-169,172,-176,2025-02-06 14:58:26,0.0
-6140,1028,16152,-168,160,-185,2025-02-06 14:58:26,0.0
-6148,1032,15968,-155,162,-174,2025-02-06 14:58:26,0.0
-6040,936,15940,-173,186,-170,2025-02-06 14:58:26,0.0
-6192,952,16000,-152,167,-175,2025-02-06 14:58:26,0.0
-6168,1008,16016,-167,164,-169,2025-02-06 14:58:26,0.0
-6116,924,16112,-147,165,-175,2025-02-06 14:58:26,0.0
-6112,988,15864,-173,142,-174,2025-02-06 14:58:26,
-6088,980,15984,-163,188,-189,2025-02-06 14:58:26,0.0
-6040,940,16052,-171,155,-159,2025-02-06 14:58:26,0.0
-6156,1024,15960,-156,166,-173,2025-02-06 14:58:26,0.0
-6008,1008,15748,-154,156,-178,2025-02-06 14:58:26,0.0
-6228,948,15988,-160,163,-173,2025-02-06 14:58:26,0.0
-6192,920,15968,-153,129,-180,2025-02-06 14:58:26,0.0
-6068,952,16000,-145,171,-189,2025-02-06 14:58:26,0.0
-6108,952,15984,-168,175,-182,2025-02-06 14:58:26,0.0
-6208,960,16004,-172,160,-176,2025-02-06 14:58:26,0.0
-6080,904,15956,-164,140,-155,2025-02-06 14:58:26,0.0
-6108,1004,15988,-139,148,-170,2025-02-06 14:58:26,0.0
-6216,1036,16104,-165,175,-172,2025-02-06 14:58:26,0.0
-6168,924,16048,-156,124,-180,2025-02-06 14:58:26,0.0
-6108,1000,15792,-160,130,-175,2025-02-06 14:58:26,0.0
-6088,988,15928,-141,169,-167,2025-02-06 14:58:26,0.0
-6148,920,15904,-181,176,-162,2025-02-06 14:58:26,0.0
-6200,912,16144,-188,263,-203,2025-02-06 14:58:26,0.0
-6244,1000,15776,-174,61,-185,2025-02-06 14:58:26,0.0
-6140,1000,16172,-206,164,-172,2025-02-06 14:58:26,0.0
-5976,832,15908,-189,313,-188,2025-02-06 14:58:26,0.0
-6172,920,15948,-173,326,-154,2025-02-06 14:58:26,0.0
-6288,940,15916,-151,203,-179,2025-02-06 14:58:26,0.0
-6128,956,15836,-165,152,-174,2025-02-06 14:58:26,0.0
-6288,960,15940,-153,46,-139,2025-02-06 14:58:26,0.0
-6132,932,16104,-145,-12,-157,2025-02-06 14:58:26,0.0
-5940,1008,15952,-200,79,-159,2025-02-06 14:58:27,0.0
-6144,1000,15704,-226,-18,-218,2025-02-06 14:58:27,0.0
-6080,956,15796,-242,-515,-258,2025-02-06 14:58:27,0.0
-6224,972,15948,-222,-1066,-246,2025-02-06 14:58:27,0.0
-6016,924,15752,-142,-1702,-239,2025-02-06 14:58:27,0.0
-6348,880,15704,-164,-2696,-124,2025-02-06 14:58:27,0.0
-5608,884,15760,-203,-3254,-72,2025-02-06 14:58:27,0.0
-5880,932,16572,-135,-3276,-63,2025-02-06 14:58:27,0.0
-5564,1116,16324,-127,-2990,-113,2025-02-06 14:58:27,0.0
-5272,988,16628,125,-2406,-517,2025-02-06 14:58:27,0.0
-5616,872,16808,451,-1905,-1008,2025-02-06 14:58:27,0.0
-5048,1104,16652,45,-545,-438,2025-02-06 14:58:27,0.0
-4716,800,16832,-117,573,-355,2025-02-06 14:58:27,0.0
-5232,944,16716,-172,1828,-250,2025-02-06 14:58:27,0.0
-5800,880,15960,-235,1549,-222,2025-02-06 14:58:27,0.0
-6008,876,16096,-221,512,-79,2025-02-06 14:58:27,0.0
-5848,1008,16284,-239,119,9,2025-02-06 14:58:27,0.0
-6132,1020,16184,-375,466,189,2025-02-06 14:58:27,0.0
-4716,1104,16532,-267,95,57,2025-02-06 14:58:27,0.0
-7020,-144,14364,-433,-68,138,2025-02-06 14:58:27,0.0
-5988,1048,14576,-543,-359,398,2025-02-06 14:58:27,0.0
-5856,1372,16644,-452,-820,432,2025-02-06 14:58:27,0.0
-5200,484,16688,-522,-20,480,2025-02-06 14:58:27,0.0
-4608,832,16408,-358,481,124,2025-02-06 14:58:27,0.0
-5528,1024,16152,-257,288,-46,2025-02-06 14:58:27,0.0
-5924,956,16144,-315,298,73,2025-02-06 14:58:27,0.0
-5608,1096,16144,-427,692,247,2025-02-06 14:58:27,0.0
-5832,1264,16076,-515,975,390,2025-02-06 14:58:27,0.0
-5640,1064,16496,-543,1033,446,2025-02-06 14:58:27,0.0
-5696,780,16100,-577,961,466,2025-02-06 14:58:27,0.0
-6004,1204,16032,-668,1372,639,2025-02-06 14:58:27,0.0
-5800,1008,16252,-706,1763,790,2025-02-06 14:58:27,0.0
-5200,524,16228,-726,1587,780,2025-02-06 14:58:27,0.0
-4836,508,16796,-464,248,314,2025-02-06 14:58:27,0.0
-5464,1180,16096,-150,120,-231,2025-02-06 14:58:27,0.0
-6064,896,16292,-162,292,-122,2025-02-06 14:58:27,0.0
-5896,836,16044,-183,217,-173,2025-02-06 14:58:27,0.0
-6008,940,15892,-230,-274,-168,2025-02-06 14:58:27,0.0
-5608,1012,16308,-173,-270,-130,2025-02-06 14:58:27,0.0
-5768,852,16144,-148,-193,-156,2025-02-06 14:58:27,0.0
-5916,976,16288,-146,-776,-114,2025-02-06 14:58:27,0.0
-5496,972,16572,-142,-380,-106,2025-02-06 14:58:27,0.0
-5692,1012,16228,-196,262,-69,2025-02-06 14:58:27,0.0
-5492,980,16200,-157,198,-138,2025-02-06 14:58:27,0.0
-5948,896,16432,-153,398,-51,2025-02-06 14:58:27,0.0
-5804,932,15856,-227,249,132,2025-02-06 14:58:27,0.0
-6032,556,15844,-248,-321,127,2025-02-06 14:58:27,0.0
-5716,904,16044,-356,-531,316,2025-02-06 14:58:27,0.0
-5632,844,16316,-394,94,373,2025-02-06 14:58:27,0.0
-5208,1332,16228,-403,-91,302,2025-02-06 14:58:27,0.0
-4888,1216,16488,-333,-520,-102,2025-02-06 14:58:27,0.0
-5424,908,16548,-129,-108,-279,2025-02-06 14:58:27,0.0
-5524,608,16304,-150,-111,-191,2025-02-06 14:58:27,0.0
-5492,1000,16144,-199,-348,-213,2025-02-06 14:58:27,0.0
-5380,968,16240,-173,-257,-229,2025-02-06 14:58:27,0.0
-5504,920,16312,-163,86,-230,2025-02-06 14:58:27,0.0
-5560,1052,16308,-183,125,-190,2025-02-06 14:58:27,0.0
-5680,980,16516,-176,415,-143,2025-02-06 14:58:27,0.0
-5440,936,16076,-172,689,-188,2025-02-06 14:58:27,0.0
-5588,1112,16316,-255,213,-108,2025-02-06 14:58:27,0.0
-5596,1032,16204,-320,340,-14,2025-02-06 14:58:28,0.0
-5592,992,16284,-393,578,120,2025-02-06 14:58:28,0.0
-5608,976,16348,-412,523,160,2025-02-06 14:58:28,0.0
-5728,888,16300,-410,404,206,2025-02-06 14:58:28,0.0
-5432,800,16388,-294,247,55,2025-02-06 14:58:28,0.0
-5472,764,16292,-223,206,-102,2025-02-06 14:58:28,0.0
-5592,936,16268,-152,139,-164,2025-02-06 14:58:28,0.0
-5564,928,16368,-152,242,-154,2025-02-06 14:58:28,0.0
-5572,960,16368,-163,264,-138,2025-02-06 14:58:28,0.0
-5556,924,16280,-194,311,-139,2025-02-06 14:58:28,0.0
-5568,984,16328,-193,352,-139,2025-02-06 14:58:28,0.0
-5624,960,16180,-204,314,-153,2025-02-06 14:58:28,0.0
-5624,968,16212,-162,256,-156,2025-02-06 14:58:28,0.0
-5688,940,16328,-161,170,-166,2025-02-06 14:58:28,0.0
-5644,944,16232,-157,196,-176,2025-02-06 14:58:28,
-5636,976,16192,-165,161,-167,2025-02-06 14:58:28,0.0
-5696,932,16284,-162,218,-188,2025-02-06 14:58:28,0.0
-5712,932,16080,-171,197,-181,2025-02-06 14:58:28,0.0
-5680,1032,16416,-166,147,-206,2025-02-06 14:58:28,0.0
-5780,964,16224,-165,101,-161,2025-02-06 14:58:28,0.0
-5632,980,16288,-146,80,-158,2025-02-06 14:58:28,0.0
-5612,952,16240,-166,119,-161,2025-02-06 14:58:28,0.0
-5644,968,16208,-172,213,-208,2025-02-06 14:58:28,0.0
-5584,1064,16280,-137,211,-184,2025-02-06 14:58:28,0.0
-5740,872,16208,-179,158,-179,2025-02-06 14:58:28,0.0
-5600,908,16272,-157,120,-196,2025-02-06 14:58:28,0.0
-5708,940,16232,-161,97,-174,2025-02-06 14:58:28,0.0
-5640,980,16304,-168,64,-167,2025-02-06 14:58:28,0.0
-5744,1016,16228,-177,68,-187,2025-02-06 14:58:28,0.0
-5720,912,16368,-179,80,-184,2025-02-06 14:58:28,0.0
-5668,984,16320,-140,96,-151,2025-02-06 14:58:28,0.0
-5636,908,16232,-161,51,-174,2025-02-06 14:58:28,0.0
-5584,988,16260,-154,154,-187,2025-02-06 14:58:28,0.0
-5528,1028,16296,-149,162,-170,2025-02-06 14:58:28,0.0
-5560,992,16336,-180,232,-168,2025-02-06 14:58:28,0.0
-5636,956,16232,-164,233,-164,2025-02-06 14:58:28,0.0
-5616,996,16452,-169,281,-189,2025-02-06 14:58:28,0.0
-5672,968,16356,-169,278,-179,2025-02-06 14:58:28,0.0
-5636,944,16388,-146,161,-176,2025-02-06 14:58:28,0.0
-5712,976,16240,-142,140,-161,2025-02-06 14:58:28,0.0
-5564,908,16164,-137,150,-188,2025-02-06 14:58:28,0.0
-5616,1008,16216,-154,145,-171,2025-02-06 14:58:28,0.0
-5568,968,16260,-154,293,-210,2025-02-06 14:58:28,0.0
-5612,984,16332,-152,323,-226,2025-02-06 14:58:28,0.0
-5520,1028,16304,-157,490,-217,2025-02-06 14:58:28,0.0
-5584,996,16336,-173,811,-184,2025-02-06 14:58:28,0.0
-5964,996,15556,-742,932,764,2025-02-06 14:58:28,0.0
-5984,948,15876,-1211,463,1463,2025-02-06 14:58:28,0.0
-5748,1168,16392,-967,-292,1145,2025-02-06 14:58:28,0.0
-5188,1264,16372,-470,-22,282,2025-02-06 14:58:28,0.0
-5672,804,16044,-201,-172,-165,2025-02-06 14:58:28,0.0
-5636,1024,16316,-203,-35,-100,2025-02-06 14:58:28,0.0
-5704,1036,16024,-269,-154,-27,2025-02-06 14:58:28,0.0
-5484,700,16164,-195,-650,-123,2025-02-06 14:58:28,0.0
-5636,984,16132,-111,-1029,-181,2025-02-06 14:58:29,0.0
-5280,1104,16864,-94,-1904,-331,2025-02-06 14:58:29,0.0
-5680,864,17264,115,-778,-398,2025-02-06 14:58:29,0.0
-4348,588,16624,237,-836,-718,2025-02-06 14:58:29,0.0
-5936,436,16124,553,-1449,-987,2025-02-06 14:58:29,0.0
-5764,624,16512,731,-1238,-1245,2025-02-06 14:58:29,0.0
-5556,396,16748,889,-1422,-1550,2025-02-06 14:58:29,0.0
-4804,204,15076,288,-2362,-2075,2025-02-06 14:58:29,0.0
-5592,1004,17132,-970,-3989,-2558,2025-02-06 14:58:29,0.0
-6616,452,17260,-1890,-4144,-2994,2025-02-06 14:58:29,0.0
-7304,720,16456,-2830,-4923,-2447,2025-02-06 14:58:29,0.0
-7892,1408,18176,-4018,-5199,-1422,2025-02-06 14:58:29,0.0
-8896,-3904,32767,-14473,-10801,-2275,2025-02-06 14:58:29,0.0
-9700,-5268,32767,-12903,-15708,-3589,2025-02-06 14:58:29,0.0
-10436,-5376,32767,-12079,-20447,-4506,2025-02-06 14:58:29,0.0
-12140,-7452,32767,-11922,-23418,-5967,2025-02-06 14:58:29,0.0
-16588,-10336,32767,-13506,-21695,-6458,2025-02-06 14:58:29,0.0
-13260,-11896,32767,-14517,-22292,-9164,2025-02-06 14:58:29,0.0
-13300,-11292,32767,-13769,-27334,-11578,2025-02-06 14:58:29,0.0
-13732,-11532,32767,-13766,-31281,-12700,2025-02-06 14:58:29,0.0
-14024,-11792,30872,-14912,-32768,-15364,2025-02-06 14:58:29,0.0
-15568,-11164,27188,-15853,-32768,-15962,2025-02-06 14:58:29,0.0
-13692,-9776,26460,-14820,-32768,-15926,2025-02-06 14:58:29,0.0
-11188,-10100,26080,-11078,-32768,-17181,2025-02-06 14:58:29,0.0
-11668,-9864,25076,-7630,-32768,-18393,2025-02-06 14:58:29,0.0
-11112,-9484,25048,-4396,-32768,-19207,2025-02-06 14:58:29,0.0
-9784,-9280,23528,-1497,-32768,-20042,2025-02-06 14:58:29,0.0
-12280,-8848,18328,-1068,-32768,-20469,2025-02-06 14:58:29,0.0
-11352,-7716,13568,-3592,-32768,-20063,2025-02-06 14:58:29,0.0
-9484,-6424,10776,-7428,-32768,-19838,2025-02-06 14:58:29,0.0
-6968,-5256,9536,-10524,-32768,-19675,2025-02-06 14:58:29,0.0
-5516,-4096,9540,-11299,-32768,-20387,2025-02-06 14:58:29,0.0
-5964,-2792,8532,-11010,-32768,-21502,2025-02-06 14:58:29,0.0
-6696,-1636,5596,-10451,-32768,-22471,2025-02-06 14:58:29,0.0
-6136,140,3912,-9058,-32768,-22549,2025-02-06 14:58:29,0.0
-3928,1928,4332,-6288,-32768,-22948,2025-02-06 14:58:29,0.0
-4040,2372,2984,-2241,-32768,-24933,2025-02-06 14:58:29,0.0
-4612,2648,308,1223,-32768,-27068,2025-02-06 14:58:29,0.0
-4904,2316,-1372,5012,-32768,-29319,2025-02-06 14:58:29,0.0
-5660,2544,-4492,7917,-32768,-30692,2025-02-06 14:58:29,0.0
-6788,4064,-5880,9792,-32768,-31203,2025-02-06 14:58:29,0.0
-7392,6548,-7324,11199,-31537,-30748,2025-02-06 14:58:29,0.0
-7408,8976,-11668,11460,-29864,-29003,2025-02-06 14:58:29,0.0
-7672,10784,-16388,9544,-27605,-25448,2025-02-06 14:58:29,0.0
-10516,12336,-19112,6963,-24771,-19509,2025-02-06 14:58:29,0.0
-11140,12924,-21272,3791,-20695,-9432,2025-02-06 14:58:29,0.0
-11584,12296,-24580,835,-17797,-2448,2025-02-06 14:58:29,0.0
-11132,13280,-24564,-2112,-15735,2080,2025-02-06 14:58:29,0.0
-11056,12668,-25876,-5435,-12904,4251,2025-02-06 14:58:29,0.0
-9516,12628,-26892,-8074,-9784,3819,2025-02-06 14:58:29,0.0
-10216,13308,-26512,-8799,-6867,2730,2025-02-06 14:58:29,0.0
-12028,16544,-22084,-7524,-2863,3175,2025-02-06 14:58:29,0.0
-3356,14588,-13988,4654,-6300,-1093,2025-02-06 14:58:29,0.0
-9176,13676,-23412,11388,-8438,-3642,2025-02-06 14:58:29,0.0
-12724,11688,-26960,13258,-4692,-2939,2025-02-06 14:58:29,0.0
-11120,10964,-32768,9673,835,-1655,2025-02-06 14:58:30,0.0
-23392,10876,-32768,-7112,16715,2805,2025-02-06 14:58:30,0.0
-15944,13392,-26132,-11544,23228,13075,2025-02-06 14:58:30,0.0
-9380,14028,-19496,-7021,22990,16864,2025-02-06 14:58:30,0.0
-5164,12924,-16412,1193,24598,16866,2025-02-06 14:58:30,0.0
-1748,11764,-12452,12950,27185,12954,2025-02-06 14:58:30,
-1324,11272,-12548,20143,28314,10894,2025-02-06 14:58:30,0.0
-1804,8836,-13804,23106,31326,9653,2025-02-06 14:58:30,0.0
-1804,7672,-12804,22664,32767,8984,2025-02-06 14:58:30,0.0
-2096,6616,-9112,20856,32767,9063,2025-02-06 14:58:30,0.0
-2196,6028,-6808,18878,32767,9159,2025-02-06 14:58:30,0.0
-3392,4660,-1712,17713,32767,10337,2025-02-06 14:58:30,0.0
-2036,3576,2732,18150,32767,11500,2025-02-06 14:58:30,0.0
1608,2356,1812,17076,32767,10907,2025-02-06 14:58:30,0.0
1424,968,2904,14184,32767,9431,2025-02-06 14:58:30,0.0
1240,2104,7628,11799,32767,8283,2025-02-06 14:58:30,0.0
3292,1268,13088,11078,32767,7693,2025-02-06 14:58:30,0.0
4536,448,16112,11904,32767,8214,2025-02-06 14:58:30,0.0
6048,-812,14440,11894,32767,7891,2025-02-06 14:58:30,0.0
5044,-1664,11316,10231,32618,6965,2025-02-06 14:58:30,0.0
4608,-2188,10936,8690,32767,5688,2025-02-06 14:58:30,0.0
3668,-2520,13228,7300,32767,3814,2025-02-06 14:58:30,0.0
5744,-2452,18068,7483,32767,917,2025-02-06 14:58:30,0.0
5912,-1972,22496,9705,30834,-2146,2025-02-06 14:58:30,0.0
6552,-764,26944,12737,26921,-3687,2025-02-06 14:58:30,0.0
8380,-1252,29024,16678,24103,-5207,2025-02-06 14:58:30,0.0
8244,-1708,25980,16839,20491,-5900,2025-02-06 14:58:30,0.0
6488,-1940,21340,11601,21257,-6352,2025-02-06 14:58:30,0.0
5112,-1440,21272,4008,23960,-6001,2025-02-06 14:58:30,0.0
5112,-1644,24096,-2189,25331,-6657,2025-02-06 14:58:30,0.0
4248,240,28912,-5054,23294,-7072,2025-02-06 14:58:30,0.0
5980,416,32264,-4322,19841,-6334,2025-02-06 14:58:30,0.0
7104,804,31400,-2897,16100,-4827,2025-02-06 14:58:30,0.0
5268,808,30032,-2106,14019,-2656,2025-02-06 14:58:30,0.0
6568,-616,28336,-2577,13680,-1517,2025-02-06 14:58:30,0.0
6868,-1152,28464,-3328,14084,-2183,2025-02-06 14:58:30,0.0
6384,-1296,27524,-4422,14813,-3188,2025-02-06 14:58:30,0.0
2928,-1484,25232,-6863,16634,-2289,2025-02-06 14:58:30,0.0
6644,-1584,32767,-5853,18574,-1913,2025-02-06 14:58:30,0.0
5572,-212,32767,-760,16244,-2969,2025-02-06 14:58:30,0.0
7676,-324,32767,3633,15870,-3728,2025-02-06 14:58:30,0.0
7148,272,32767,6608,14612,-4104,2025-02-06 14:58:30,0.0
6992,80,32767,7802,12855,-3286,2025-02-06 14:58:30,0.0
9052,-460,32767,5245,11542,-1742,2025-02-06 14:58:30,0.0
8548,-204,32767,4631,6467,-3333,2025-02-06 14:58:30,0.0
9032,996,32767,393,-3295,-3267,2025-02-06 14:58:30,0.0
7392,1320,32767,1218,-7063,-3029,2025-02-06 14:58:30,0.0
6472,-300,32767,-1277,-11944,-2337,2025-02-06 14:58:30,0.0
5592,-888,32767,-2290,-17400,-2926,2025-02-06 14:58:30,0.0
4796,-1808,32767,-5366,-24232,-4575,2025-02-06 14:58:30,0.0
-3124,-1712,32767,-7395,-25277,-2565,2025-02-06 14:58:30,0.0
1104,188,32767,-7194,-27640,-2089,2025-02-06 14:58:30,0.0
776,832,32767,-5449,-31308,-4554,2025-02-06 14:58:30,0.0
-2220,-124,32767,-4033,-32768,-5739,2025-02-06 14:58:30,0.0
-3092,-1084,32767,-4152,-32768,-6438,2025-02-06 14:58:30,0.0
-992,-1104,30228,-3708,-32768,-8207,2025-02-06 14:58:30,0.0
-5828,-1108,25620,-6394,-32768,-7504,2025-02-06 14:58:30,0.0
-844,-1028,32508,-1977,-32768,-8081,2025-02-06 14:58:30,0.0
-2080,-856,31704,3515,-32768,-8509,2025-02-06 14:58:30,0.0
-4784,-3108,26292,7619,-32768,-8810,2025-02-06 14:58:30,0.0
-6860,-3900,18716,7657,-32768,-7810,2025-02-06 14:58:31,0.0
-5940,-3044,11304,3361,-32768,-6729,2025-02-06 14:58:31,0.0
-4584,-1908,8132,-2230,-32768,-5898,2025-02-06 14:58:31,0.0
-3432,-856,8728,-6372,-32768,-4836,2025-02-06 14:58:31,0.0
-2036,-476,9076,-7820,-32768,-4238,2025-02-06 14:58:31,0.0
-2560,412,7860,-8021,-32768,-3591,2025-02-06 14:58:31,0.0
-3792,1920,6140,-7071,-32768,-2917,2025-02-06 14:58:31,0.0
-4220,2444,3152,-5650,-32768,-2976,2025-02-06 14:58:31,0.0
-4260,2388,464,-4217,-32768,-3777,2025-02-06 14:58:31,0.0
-4580,1704,-2604,-2105,-32768,-5138,2025-02-06 14:58:31,0.0
-4564,1092,-5508,-1053,-32768,-6352,2025-02-06 14:58:31,0.0
-5704,1436,-6972,-838,-32768,-7075,2025-02-06 14:58:31,0.0
-5904,2076,-7468,-498,-32768,-7556,2025-02-06 14:58:31,0.0
-5048,1128,-8624,5,-32768,-8750,2025-02-06 14:58:31,0.0
-8680,1696,-10592,308,-32328,-8309,2025-02-06 14:58:31,0.0
-11876,3644,-15280,-1831,-32059,-6391,2025-02-06 14:58:31,0.0
-9956,5468,-21536,-6762,-30857,-5772,2025-02-06 14:58:31,0.0
-8316,6704,-25364,-11367,-27100,-7868,2025-02-06 14:58:31,0.0
-11816,8884,-25788,-13024,-20137,-8647,2025-02-06 14:58:31,0.0
-12588,10988,-22824,-9112,-11999,-6980,2025-02-06 14:58:31,0.0
-11892,12344,-21816,-241,-9182,-3788,2025-02-06 14:58:31,0.0
-15376,11412,-23820,3869,-7850,-1702,2025-02-06 14:58:31,0.0
-15188,10380,-27296,4363,-6525,723,2025-02-06 14:58:31,0.0
-14876,9284,-29928,1959,-3821,1687,2025-02-06 14:58:31,0.0
-14892,8820,-28344,-833,0,2588,2025-02-06 14:58:31,0.0
-14236,8752,-28500,-2484,4118,2854,2025-02-06 14:58:31,0.0
-12212,9448,-27380,-2954,8117,2650,2025-02-06 14:58:31,0.0
-10876,9472,-24880,-2289,10938,1501,2025-02-06 14:58:31,0.0
-7876,8060,-21768,-946,10991,-699,2025-02-06 14:58:31,0.0
-9080,6048,-19756,-286,10317,-5752,2025-02-06 14:58:31,0.0
-20368,10000,-19084,1294,13833,-2518,2025-02-06 14:58:31,0.0
-15716,11356,-26028,3212,18243,7303,2025-02-06 14:58:31,0.0
-12388,10928,-25560,-47,21881,11647,2025-02-06 14:58:31,0.0
-12408,8548,-18904,-1218,24650,14041,2025-02-06 14:58:31,0.0
-9124,7444,-15856,1331,26264,14432,2025-02-06 14:58:31,0.0
-9508,7580,-13756,3474,30216,14686,2025-02-06 14:58:31,0.0
-8732,7600,-13328,5503,32767,15127,2025-02-06 14:58:31,0.0
-9396,8360,-9112,7916,32767,15781,2025-02-06 14:58:31,0.0
-7804,8736,-3380,11232,32767,15811,2025-02-06 14:58:31,0.0
-5180,8532,-1388,13833,32767,14117,2025-02-06 14:58:31,0.0
-7780,8412,-188,15175,32767,13154,2025-02-06 14:58:31,0.0
-9064,7000,2844,14954,32767,15136,2025-02-06 14:58:31,0.0
-7344,5384,6368,14217,32767,17160,2025-02-06 14:58:31,0.0
-5240,3184,7524,13181,32767,17505,2025-02-06 14:58:31,0.0
-4076,324,14060,13779,32767,16894,2025-02-06 14:58:31,0.0
-724,-1404,22388,16755,32767,14500,2025-02-06 14:58:31,
3936,-3064,30900,21567,32767,9689,2025-02-06 14:58:31,0.0
9932,-4336,32767,26401,32767,2561,2025-02-06 14:58:31,0.0
15852,-4740,32767,28691,32767,-5865,2025-02-06 14:58:31,0.0
16308,-4020,29036,26809,26008,-12620,2025-02-06 14:58:31,0.0
13720,-3096,21796,20112,19402,-16134,2025-02-06 14:58:31,0.0
9420,-96,16384,10134,20020,-15648,2025-02-06 14:58:31,0.0
8540,2628,18824,3246,26462,-15016,2025-02-06 14:58:31,0.0
8752,5608,24096,425,30106,-13677,2025-02-06 14:58:31,0.0
6428,6040,32032,2591,29767,-8742,2025-02-06 14:58:31,0.0
11252,6448,32492,7775,23416,-3253,2025-02-06 14:58:31,0.0
12588,6216,27076,8991,17926,-1964,2025-02-06 14:58:31,0.0
6976,4228,23252,6307,16484,-715,2025-02-06 14:58:31,0.0
7236,1564,20700,1185,19194,1114,2025-02-06 14:58:31,0.0
2384,-780,20308,-7143,23143,605,2025-02-06 14:58:31,0.0
3804,564,32340,-9492,25538,3027,2025-02-06 14:58:32,0.0
10380,984,32104,-8468,20076,3666,2025-02-06 14:58:32,0.0
10792,-260,28880,-9389,15169,1822,2025-02-06 14:58:32,0.0
5540,-1140,30768,-7914,13789,2778,2025-02-06 14:58:32,0.0
8264,-1660,27592,-7403,11344,3567,2025-02-06 14:58:32,0.0
7720,-2844,22912,-8439,11481,1840,2025-02-06 14:58:32,0.0
8568,-3320,25628,-10225,13484,-1943,2025-02-06 14:58:32,0.0
7784,-2360,25544,-9539,13084,-5047,2025-02-06 14:58:32,0.0
6796,-640,29684,-4835,12225,-6026,2025-02-06 14:58:32,0.0
6512,-768,29624,2246,10980,-5343,2025-02-06 14:58:32,0.0
8132,-1180,25048,5585,9752,-5855,2025-02-06 14:58:32,0.0
5604,-1296,22292,5703,10222,-7179,2025-02-06 14:58:32,0.0
5756,-472,25224,4180,12383,-6746,2025-02-06 14:58:32,0.0
6872,-236,21852,4254,11038,-7674,2025-02-06 14:58:32,0.0
4496,1252,22180,4831,11272,-6893,2025-02-06 14:58:32,0.0
3716,956,21432,2765,11109,-5162,2025-02-06 14:58:32,0.0
3496,1988,22004,2126,11437,-4307,2025-02-06 14:58:32,0.0
4072,2316,21228,1635,10982,-3462,2025-02-06 14:58:32,0.0
3228,2152,21616,1020,10094,-2696,2025-02-06 14:58:32,0.0
3384,1956,22284,666,9457,-2171,2025-02-06 14:58:32,0.0
4020,2680,23156,743,7630,-1985,2025-02-06 14:58:32,0.0
3880,2724,22800,963,6361,-1680,2025-02-06 14:58:32,0.0
2676,3020,22128,1047,6233,-769,2025-02-06 14:58:32,0.0
4036,3164,21172,981,6058,-246,2025-02-06 14:58:32,0.0
2836,3188,21132,34,6585,-214,2025-02-06 14:58:32,0.0
2752,2988,21892,-1220,5631,524,2025-02-06 14:58:32,0.0
2660,2416,21844,-1667,5095,1167,2025-02-06 14:58:32,0.0
2144,2704,20348,-2566,5713,1770,2025-02-06 14:58:32,0.0
704,2580,20916,-3400,6260,2799,2025-02-06 14:58:32,0.0
1848,1820,23144,-2914,5681,3061,2025-02-06 14:58:32,0.0
3312,1512,23520,-1971,3747,1954,2025-02-06 14:58:32,0.0
2456,1776,21636,-1712,1994,1145,2025-02-06 14:58:32,0.0
572,1412,18756,-2596,2198,2148,2025-02-06 14:58:32,0.0
-384,1368,17480,-4017,3215,3892,2025-02-06 14:58:32,0.0
272,1064,17740,-5321,4694,4779,2025-02-06 14:58:32,0.0
1044,768,19452,-5307,5725,4448,2025-02-06 14:58:32,0.0
1452,344,21312,-3855,5654,3561,2025-02-06 14:58:32,0.0
1252,300,21848,-1118,5115,2189,2025-02-06 14:58:32,0.0
928,304,20672,1342,4746,1122,2025-02-06 14:58:32,0.0
-200,480,18580,2874,5037,810,2025-02-06 14:58:32,0.0
-1432,996,16504,3585,6606,1605,2025-02-06 14:58:32,0.0
-2324,732,17076,3993,8494,2949,2025-02-06 14:58:32,0.0
-1080,1008,18008,4996,9885,2887,2025-02-06 14:58:32,0.0
-608,1104,18856,5664,11623,2393,2025-02-06 14:58:32,0.0
-1100,1232,19348,5855,11397,2336,2025-02-06 14:58:32,0.0
-2364,1656,17880,4861,10160,3128,2025-02-06 14:58:32,0.0
-3508,1820,16500,2227,8119,4446,2025-02-06 14:58:32,0.0
-3236,1868,17404,-133,7214,5465,2025-02-06 14:58:32,0.0
-1824,1680,18836,-756,6205,5219,2025-02-06 14:58:32,0.0
-1516,1380,18932,-464,5918,4282,2025-02-06 14:58:32,0.0
-1764,1088,19108,60,4157,3529,2025-02-06 14:58:32,0.0
-2144,1280,18284,634,3860,3089,2025-02-06 14:58:32,0.0
-1740,1472,15892,934,5965,2757,2025-02-06 14:58:32,0.0
-1560,2012,15436,698,9847,2049,2025-02-06 14:58:32,0.0
-1560,2288,16024,475,13677,1272,2025-02-06 14:58:32,0.0
-1640,2192,16968,1365,18413,1043,2025-02-06 14:58:32,0.0
-3824,2316,18592,2750,20812,1420,2025-02-06 14:58:32,0.0
-4856,1852,18900,3583,21083,1840,2025-02-06 14:58:32,0.0
-8128,3760,19660,-1641,11008,769,2025-02-06 14:58:32,0.0
-7668,3848,18928,-571,4113,203,2025-02-06 14:58:32,0.0
-5852,2892,15080,423,197,-1004,2025-02-06 14:58:32,0.0
-7120,2808,14076,-7,-2779,-917,2025-02-06 14:58:32,0.0
-7376,2196,14936,-321,-5410,-430,2025-02-06 14:58:33,0.0
-7244,2436,15748,-162,-7743,129,2025-02-06 14:58:33,0.0
-6296,2500,15980,-71,-9157,379,2025-02-06 14:58:33,0.0
-4948,2564,16448,140,-9672,208,2025-02-06 14:58:33,0.0
-4188,2548,16708,258,-9052,-298,2025-02-06 14:58:33,0.0
-3764,2556,16964,451,-8111,-674,2025-02-06 14:58:33,0.0
-3932,2304,17160,376,-6834,-649,2025-02-06 14:58:33,0.0
-3732,2444,17000,67,-5052,-326,2025-02-06 14:58:33,0.0
-3236,2528,17544,-51,-3082,-67,2025-02-06 14:58:33,0.0
-2728,2612,17480,-102,-803,-84,2025-02-06 14:58:33,0.0
-3176,2448,17412,-131,1430,-262,2025-02-06 14:58:33,0.0
-3720,2600,17156,-160,2460,-387,2025-02-06 14:58:33,0.0
-3844,2620,16732,-193,2573,-401,2025-02-06 14:58:33,0.0
-4184,2640,16656,-243,2086,-419,2025-02-06 14:58:33,0.0
-4484,2540,16872,-216,1489,-394,2025-02-06 14:58:33,0.0
-4524,2468,16672,-169,784,-290,2025-02-06 14:58:33,0.0
-4480,2524,16644,-159,-39,-168,2025-02-06 14:58:33,0.0
-4308,2444,16680,-187,-606,-55,2025-02-06 14:58:33,0.0
-4128,2616,16680,-177,-832,-49,2025-02-06 14:58:33,0.0
-3968,2508,17160,-173,-665,-70,2025-02-06 14:58:33,0.0
-3728,2416,16964,-138,-215,-154,2025-02-06 14:58:33,0.0
-3912,2456,17216,-160,313,-217,2025-02-06 14:58:33,0.0
-4008,2500,17032,-134,617,-232,2025-02-06 14:58:33,0.0
-4024,2504,16752,-163,590,-232,2025-02-06 14:58:33,
-4324,2560,17012,-190,339,-200,2025-02-06 14:58:33,0.0
-4284,2576,16704,-136,106,-124,2025-02-06 14:58:33,0.0
-3996,2492,16816,-185,-156,-151,2025-02-06 14:58:33,0.0
-4000,2436,17068,-189,-126,-129,2025-02-06 14:58:33,0.0
-3828,2496,16892,-144,111,-145,2025-02-06 14:58:33,0.0
-3996,2592,16976,-183,280,-208,2025-02-06 14:58:33,0.0
-4044,2500,16804,-144,347,-170,2025-02-06 14:58:33,0.0
-4120,2548,16860,-145,295,-210,2025-02-06 14:58:33,0.0
-4172,2544,16856,-184,127,-197,2025-02-06 14:58:33,0.0
-4152,2464,16844,-133,49,-143,2025-02-06 14:58:33,0.0
-3996,2488,16728,-185,6,-159,2025-02-06 14:58:33,0.0
-3964,2504,17028,-152,107,-168,2025-02-06 14:58:33,0.0
-4004,2488,16824,-143,229,-163,2025-02-06 14:58:33,0.0
-3904,2480,16844,-183,239,-185,2025-02-06 14:58:33,0.0
-4088,2552,16964,-172,206,-193,2025-02-06 14:58:33,0.0
-4056,2424,16748,-147,146,-152,2025-02-06 14:58:33,0.0
-3972,2776,16948,-233,-47,-207,2025-02-06 14:58:33,0.0
-4460,2276,17172,-85,46,-63,2025-02-06 14:58:33,0.0
-3172,2660,16432,-103,151,-165,2025-02-06 14:58:33,0.0
-4056,2708,17048,-298,195,-339,2025-02-06 14:58:33,0.0
-4500,2208,17368,-76,364,-96,2025-02-06 14:58:33,0.0
-3480,2628,16380,-164,330,-174,2025-02-06 14:58:33,0.0
-4548,2444,16936,-237,85,-307,2025-02-06 14:58:33,0.0
-4332,2440,17104,-80,126,-54,2025-02-06 14:58:33,0.0
-3544,2656,16404,-202,51,-194,2025-02-06 14:58:33,0.0
-4548,2480,17404,-228,-51,-248,2025-02-06 14:58:33,0.0
-4084,2364,17056,-42,217,-38,2025-02-06 14:58:33,0.0
-3448,2676,16384,-209,231,-244,2025-02-06 14:58:33,0.0
-4436,2376,17240,-249,180,-287,2025-02-06 14:58:33,0.0
-4036,2532,16848,-90,315,-63,2025-02-06 14:58:33,0.0
-3640,2604,16448,-223,57,-266,2025-02-06 14:58:33,0.0
-4428,2384,17392,-232,45,-197,2025-02-06 14:58:33,0.0
-4004,2384,17000,-82,124,-36,2025-02-06 14:58:33,0.0
-3652,2608,16744,-260,60,-261,2025-02-06 14:58:33,0.0
-4436,2464,17480,-141,235,-166,2025-02-06 14:58:34,0.0
-3648,2632,16680,-143,311,-154,2025-02-06 14:58:34,0.0
-4128,2556,16820,-244,228,-284,2025-02-06 14:58:34,0.0
-4584,2400,17128,-143,156,-145,2025-02-06 14:58:34,0.0
-3944,2516,16728,-135,65,-97,2025-02-06 14:58:34,0.0
-3972,2584,16868,-211,-3,-237,2025-02-06 14:58:34,0.0
-4264,2484,17220,-134,131,-126,2025-02-06 14:58:34,0.0
-3816,2600,16744,-144,220,-146,2025-02-06 14:58:34,0.0
-4080,2572,16832,-229,240,-243,2025-02-06 14:58:34,0.0
-4280,2444,17228,-112,240,-124,2025-02-06 14:58:34,0.0
-3788,2536,16472,-169,122,-186,2025-02-06 14:58:34,0.0
-4244,2384,17132,-189,-13,-210,2025-02-06 14:58:34,0.0
-4068,2456,16944,-123,117,-90,2025-02-06 14:58:34,0.0
-3744,2660,16696,-181,163,-191,2025-02-06 14:58:34,0.0
-4280,2524,17124,-185,262,-224,2025-02-06 14:58:34,0.0
-4156,2448,16912,-111,319,-126,2025-02-06 14:58:34,0.0
-3920,2524,16728,-205,151,-248,2025-02-06 14:58:34,0.0
-4304,2428,16904,-152,93,-144,2025-02-06 14:58:34,0.0
-3888,2540,16804,-143,39,-147,2025-02-06 14:58:34,0.0
-3988,2500,17024,-192,87,-217,2025-02-06 14:58:34,0.0
-4164,2408,17120,-131,242,-151,2025-02-06 14:58:34,0.0
-3796,2492,16732,-155,266,-189,2025-02-06 14:58:34,0.0
-4196,2488,16944,-179,168,-205,2025-02-06 14:58:34,0.0
-4088,2500,16848,-123,136,-131,2025-02-06 14:58:34,0.0
-3884,2608,16772,-191,55,-203,2025-02-06 14:58:34,0.0
-4228,2468,17120,-168,112,-173,2025-02-06 14:58:34,0.0
-3920,2484,16948,-148,241,-168,2025-02-06 14:58:34,0.0
-3984,2540,16828,-190,201,-205,2025-02-06 14:58:34,0.0
-4220,2464,16960,-150,179,-163,2025-02-06 14:58:34,0.0
-3872,2572,16620,-182,122,-154,2025-02-06 14:58:34,0.0
-4048,2524,17016,-172,97,-173,2025-02-06 14:58:34,0.0
-4028,2512,16848,-143,106,-157,2025-02-06 14:58:34,0.0
-3944,2528,16848,-167,113,-186,2025-02-06 14:58:34,0.0
-4020,2440,17060,-156,196,-161,2025-02-06 14:58:34,0.0
-4048,2532,16792,-161,207,-173,2025-02-06 14:58:34,0.0
-4000,2476,16948,-174,148,-188,2025-02-06 14:58:34,0.0
-3996,2460,16812,-147,151,-154,2025-02-06 14:58:34,0.0
-4012,2432,16752,-182,125,-189,2025-02-06 14:58:34,0.0
-4040,2256,16804,-158,181,-173,2025-02-06 14:58:34,0.0
-3920,2496,16624,-167,192,-165,2025-02-06 14:58:34,0.0
-3992,2404,16888,-200,172,-178,2025-02-06 14:58:34,0.0
-4020,2416,16860,-156,163,-150,2025-02-06 14:58:34,0.0
-3904,2672,16864,-197,118,-185,2025-02-06 14:58:34,0.0
-4180,2564,17044,-191,129,-183,2025-02-06 14:58:34,0.0
-4020,2592,16928,-147,212,-175,2025-02-06 14:58:34,0.0
-4132,2412,16948,-177,148,-205,2025-02-06 14:58:34,0.0
-4096,2460,17056,-135,142,-158,2025-02-06 14:58:34,0.0
-3900,2528,16856,-179,96,-178,2025-02-06 14:58:34,0.0
-3984,2460,16868,-165,172,-182,2025-02-06 14:58:34,0.0
-3988,2396,16684,-128,226,-155,2025-02-06 14:58:34,0.0
-3976,2440,16796,-144,211,-213,2025-02-06 14:58:34,0.0
-4156,2404,17024,-163,116,-153,2025-02-06 14:58:34,0.0
-4016,2500,16908,-157,48,-133,2025-02-06 14:58:34,0.0
-4024,2504,16884,-200,94,-174,2025-02-06 14:58:34,0.0
-4100,2420,16936,-168,177,-193,2025-02-06 14:58:34,0.0
-3952,2464,16856,-172,241,-184,2025-02-06 14:58:34,0.0
-4092,2568,16896,-171,220,-216,2025-02-06 14:58:34,0.0
-4092,2476,16852,-154,124,-153,2025-02-06 14:58:34,0.0
-4004,2480,16940,-154,39,-182,2025-02-06 14:58:34,0.0
-4180,2568,16980,-167,77,-163,2025-02-06 14:58:34,0.0
-3924,2444,16888,-177,177,-173,2025-02-06 14:58:34,0.0
-3932,2500,16892,-163,255,-204,2025-02-06 14:58:34,0.0
-4016,2468,16908,-151,276,-169,2025-02-06 14:58:34,0.0
-4076,2448,16832,-177,120,-182,2025-02-06 14:58:35,0.0
-3996,2460,16936,-165,72,-142,2025-02-06 14:58:35,0.0
-3952,2428,16916,-183,44,-169,2025-02-06 14:58:35,
-4216,2468,16960,-179,150,-197,2025-02-06 14:58:35,0.0
-4008,2572,16700,-149,253,-160,2025-02-06 14:58:35,0.0
-3992,2488,16872,-181,258,-216,2025-02-06 14:58:35,0.0
-4052,2376,16864,-173,192,-157,2025-02-06 14:58:35,0.0
-3948,2476,16896,-154,74,-151,2025-02-06 14:58:35,0.0
-3904,2532,16904,-195,12,-170,2025-02-06 14:58:35,0.0
-4044,2580,16916,-147,113,-179,2025-02-06 14:58:35,0.0
-3992,2420,16984,-154,276,-209,2025-02-06 14:58:35,0.0
-4068,2508,16932,-165,296,-174,2025-02-06 14:58:35,0.0
-4072,2484,16772,-148,205,-175,2025-02-06 14:58:35,0.0
-4064,2500,16904,-174,45,-151,2025-02-06 14:58:35,0.0
-3948,2524,16880,-167,34,-151,2025-02-06 14:58:35,0.0
-3824,2568,16868,-163,110,-173,2025-02-06 14:58:35,0.0
-4016,2460,16968,-167,275,-205,2025-02-06 14:58:35,0.0
-4040,2504,16844,-155,302,-192,2025-02-06 14:58:35,0.0
-4088,2576,16764,-147,183,-188,2025-02-06 14:58:35,0.0
-4124,2468,16936,-142,62,-171,2025-02-06 14:58:35,0.0
-3960,2516,16760,-161,-2,-159,2025-02-06 14:58:35,0.0
-4092,2480,17068,-187,127,-162,2025-02-06 14:58:35,0.0
-3876,2404,17008,-144,249,-172,2025-02-06 14:58:35,0.0
-4024,2496,16756,-150,294,-206,2025-02-06 14:58:35,0.0
-4128,2496,16828,-184,259,-188,2025-02-06 14:58:35,0.0
-4024,2616,16816,-166,123,-167,2025-02-06 14:58:35,0.0
-4092,2472,16800,-200,38,-149,2025-02-06 14:58:35,0.0
-3952,2516,16988,-149,76,-184,2025-02-06 14:58:35,0.0
-3956,2504,16968,-169,196,-184,2025-02-06 14:58:35,0.0
-4040,2496,17032,-157,269,-181,2025-02-06 14:58:35,0.0
-4092,2424,16884,-173,259,-163,2025-02-06 14:58:35,0.0
-4020,2552,16804,-166,169,-200,2025-02-06 14:58:35,0.0
-4108,2412,16880,-139,76,-145,2025-02-06 14:58:35,0.0
-3868,2536,17016,-156,65,-160,2025-02-06 14:58:35,0.0
-3988,2496,16876,-180,156,-170,2025-02-06 14:58:35,0.0
-3944,2596,16892,-171,252,-172,2025-02-06 14:58:35,0.0
-4064,2508,16864,-183,230,-196,2025-02-06 14:58:35,0.0
-4176,2604,17068,-144,155,-161,2025-02-06 14:58:35,0.0
-4124,2588,17012,-169,74,-163,2025-02-06 14:58:35,0.0
-4040,2540,16896,-174,70,-187,2025-02-06 14:58:35,0.0
-4092,2476,16828,-136,171,-175,2025-02-06 14:58:35,0.0
-4056,2604,16828,-180,232,-186,2025-02-06 14:58:35,0.0
-4028,2540,16836,-153,213,-186,2025-02-06 14:58:35,0.0
-4096,2540,16828,-156,147,-155,2025-02-06 14:58:35,0.0
-4112,2456,16880,-181,92,-187,2025-02-06 14:58:35,0.0
-4032,2488,17044,-160,107,-174,2025-02-06 14:58:35,0.0
-4032,2416,16920,-166,160,-162,2025-02-06 14:58:35,0.0
-3996,2452,16820,-166,209,-194,2025-02-06 14:58:35,0.0
-4056,2512,16988,-156,224,-180,2025-02-06 14:58:35,0.0
-4108,2572,16812,-184,202,-175,2025-02-06 14:58:35,0.0
-4136,2532,16924,-166,102,-163,2025-02-06 14:58:35,0.0
-3952,2604,16876,-156,85,-174,2025-02-06 14:58:35,0.0
-3916,2536,16992,-189,116,-203,2025-02-06 14:58:35,0.0
-4024,2464,16876,-150,196,-165,2025-02-06 14:58:35,0.0
-4016,2520,16908,-187,222,-170,2025-02-06 14:58:35,0.0
-4104,2340,17032,-151,188,-166,2025-02-06 14:58:35,0.0
-4008,2668,16788,-176,125,-156,2025-02-06 14:58:35,0.0
-4056,2484,17016,-177,73,-190,2025-02-06 14:58:36,0.0
-3952,2600,16880,-131,112,-167,2025-02-06 14:58:36,0.0
-3968,2388,16956,-175,189,-173,2025-02-06 14:58:36,0.0
-4032,2496,16948,-167,211,-171,2025-02-06 14:58:36,0.0
-4052,2484,16996,-143,217,-162,2025-02-06 14:58:36,0.0
-4040,2520,16924,-141,184,-170,2025-02-06 14:58:36,0.0
-4084,2524,16936,-163,121,-168,2025-02-06 14:58:36,0.0
-4172,2588,16820,-153,105,-166,2025-02-06 14:58:36,0.0
-3980,2528,16836,-164,129,-168,2025-02-06 14:58:36,0.0
-3964,2536,16808,-175,138,-172,2025-02-06 14:58:36,0.0
-3920,2492,16928,-128,173,-168,2025-02-06 14:58:36,0.0
-4028,2564,16896,-177,203,-177,2025-02-06 14:58:36,0.0
-4160,2524,16900,-171,234,-162,2025-02-06 14:58:36,0.0
-4160,2540,16720,-151,180,-161,2025-02-06 14:58:36,0.0
-4108,2492,16848,-179,100,-178,2025-02-06 14:58:36,0.0
-4176,2516,17096,-175,59,-146,2025-02-06 14:58:36,0.0
-3920,2408,16796,-189,86,-141,2025-02-06 14:58:36,0.0
-4032,2412,16996,-139,195,-172,2025-02-06 14:58:36,0.0
-3984,2560,16932,-132,284,-191,2025-02-06 14:58:36,0.0
-4064,2600,16752,-167,268,-204,2025-02-06 14:58:36,0.0
-4124,2520,16944,-169,170,-171,2025-02-06 14:58:36,0.0
-4072,2452,16828,-150,14,-167,2025-02-06 14:58:36,0.0
-3916,2472,17108,-163,-4,-142,2025-02-06 14:58:36,0.0
-3932,2392,16908,-173,85,-167,2025-02-06 14:58:36,0.0
-3832,2488,16932,-154,215,-198,2025-02-06 14:58:36,0.0
-4024,2480,16940,-160,314,-183,2025-02-06 14:58:36,0.0
-4080,2496,16776,-154,288,-198,2025-02-06 14:58:36,0.0
-4056,2640,16888,-157,210,-199,2025-02-06 14:58:36,0.0
-4136,2548,16996,-176,93,-180,2025-02-06 14:58:36,0.0
-4040,2552,16880,-151,-9,-158,2025-02-06 14:58:36,0.0
-4024,2584,16884,-187,6,-139,2025-02-06 14:58:36,0.0
-3884,2412,17000,-168,146,-163,2025-02-06 14:58:36,0.0
-3944,2448,17016,-179,340,-219,2025-02-06 14:58:36,0.0
-4132,2480,16992,-169,333,-196,2025-02-06 14:58:36,0.0
-4240,2480,16720,-153,203,-192,2025-02-06 14:58:36,0.0
-4184,2544,16792,-157,-2,-148,2025-02-06 14:58:36,0.0
-4004,2468,16896,-158,-98,-140,2025-02-06 14:58:36,0.0
-3972,2500,16996,-152,23,-137,2025-02-06 14:58:36,0.0
-3932,2460,16980,-158,186,-185,2025-02-06 14:58:36,0.0
-4012,2524,16864,-155,321,-181,2025-02-06 14:58:36,0.0
-3980,2556,16864,-148,387,-210,2025-02-06 14:58:36,0.0
-4256,2432,17024,-132,311,-182,2025-02-06 14:58:36,0.0
-4148,2512,16820,-157,108,-189,2025-02-06 14:58:36,0.0
-4052,2540,16888,-148,-36,-149,2025-02-06 14:58:36,0.0
-3896,2484,16764,-159,-18,-152,2025-02-06 14:58:36,0.0
-3980,2640,16956,-167,148,-195,2025-02-06 14:58:36,
