acceleration_x,acceleration_y,acceleration_z,gyroscope_x,gyroscope_y,gyroscope_z,timestamp,label
-13792,-260,-3932,325,180,132,2025-02-06 17:28:56,0.0
-13620,-724,-3916,249,-712,166,2025-02-06 17:28:56,0.0
-13152,-1092,-3888,457,-697,415,2025-02-06 17:28:56,0.0
-12688,-1272,-4396,611,-418,384,2025-02-06 17:28:56,0.0
-12540,-1136,-4028,641,-154,181,2025-02-06 17:28:56,0.0
-12592,-940,-3996,682,-246,-54,2025-02-06 17:28:56,0.0
-12860,-276,-4372,625,-471,-135,2025-02-06 17:28:56,0.0
-12760,36,-4872,120,-670,-358,2025-02-06 17:28:56,0.0
-12752,-172,-4636,-292,-654,-402,2025-02-06 17:28:56,0.0
-12644,-356,-4488,-461,-398,-402,2025-02-06 17:28:56,0.0
-12748,-564,-4352,-663,-296,-431,2025-02-06 17:28:56,0.0
-12876,-456,-4420,-845,-377,-469,2025-02-06 17:28:56,0.0
-12876,-784,-4376,-1054,-664,-475,2025-02-06 17:28:56,0.0
-12656,-1084,-4340,-1231,-784,-495,2025-02-06 17:28:56,0.0
-12408,-1136,-4240,-1181,-708,-460,2025-02-06 17:28:56,0.0
-12232,-1076,-4416,-1231,-426,-480,2025-02-06 17:28:56,0.0
-12352,-1248,-4320,-1188,-65,-549,2025-02-06 17:28:56,0.0
-12508,-1196,-4124,-1114,317,-501,2025-02-06 17:28:56,0.0
-12768,-1208,-4300,-1036,363,-479,2025-02-06 17:28:56,0.0
-12904,-1024,-4352,-999,120,-426,2025-02-06 17:28:56,0.0
-12928,-1056,-4196,-1013,54,-416,2025-02-06 17:28:56,0.0
-12896,-1088,-4252,-961,-3,-381,2025-02-06 17:28:56,0.0
-12808,-1152,-4164,-864,-22,-318,2025-02-06 17:28:56,0.0
-12740,-1160,-4252,-807,51,-289,2025-02-06 17:28:56,0.0
-12852,-1136,-4040,-722,52,-284,2025-02-06 17:28:56,0.0
-12800,-1084,-4180,-703,-34,-265,2025-02-06 17:28:56,0.0
-12792,-1032,-4144,-701,-58,-252,2025-02-06 17:28:57,0.0
-12744,-1036,-4112,-629,-40,-228,2025-02-06 17:28:57,0.0
-12668,-1024,-4016,-584,24,-197,2025-02-06 17:28:57,0.0
-12756,-1044,-4184,-532,238,-145,2025-02-06 17:28:57,0.0
-12872,-1112,-4168,-512,262,-110,2025-02-06 17:28:57,0.0
-12916,-1108,-4288,-443,178,-58,2025-02-06 17:28:57,0.0
-12840,-1128,-4148,-343,38,14,2025-02-06 17:28:57,0.0
-12784,-1216,-4300,-329,-97,21,2025-02-06 17:28:57,0.0
-12796,-1092,-4272,-260,-52,50,2025-02-06 17:28:57,0.0
-12636,-1060,-4140,-285,191,21,2025-02-06 17:28:57,0.0
-12596,-1036,-4004,-253,299,-2,2025-02-06 17:28:57,0.0
-12704,-976,-4188,-70,445,84,2025-02-06 17:28:57,0.0
-12656,-936,-4216,96,360,98,2025-02-06 17:28:57,0.0
-12704,-708,-3968,110,389,128,2025-02-06 17:28:57,0.0
-12768,-800,-4052,124,537,164,2025-02-06 17:28:57,0.0
-12824,-832,-4440,206,859,398,2025-02-06 17:28:57,0.0
-12456,-496,-4388,190,1151,539,2025-02-06 17:28:57,0.0
-13280,144,-5096,-105,1649,922,2025-02-06 17:28:57,0.0
-12792,468,-4884,-342,1418,958,2025-02-06 17:28:57,0.0
-12412,8,-4516,-451,1125,855,2025-02-06 17:28:57,0.0
-12344,-120,-4928,-510,1360,859,2025-02-06 17:28:57,0.0
-12088,276,-4916,-563,1404,596,2025-02-06 17:28:57,0.0
-11524,328,-4684,-766,1732,365,2025-02-06 17:28:57,0.0
-11752,736,-3744,-846,1774,-11,2025-02-06 17:28:57,0.0
-12288,876,-3556,-822,1876,-335,2025-02-06 17:28:57,0.0
-12956,156,-3492,-953,2168,-693,2025-02-06 17:28:57,0.0
-13544,-660,-2696,-806,1407,-901,2025-02-06 17:28:57,0.0
-14132,-1584,-2924,-247,713,-1113,2025-02-06 17:28:57,0.0
-14376,-936,-3764,101,-44,-1031,2025-02-06 17:28:57,0.0
-13784,-156,-4484,136,-775,-931,2025-02-06 17:28:57,0.0
-13004,476,-5148,-198,-936,-1025,2025-02-06 17:28:57,0.0
-12532,700,-4948,-551,-547,-1085,2025-02-06 17:28:57,0.0
-12276,844,-4632,-641,-299,-1235,2025-02-06 17:28:57,0.0
-12280,528,-4788,-798,-531,-1572,2025-02-06 17:28:57,0.0
-12496,220,-4464,-894,-744,-1886,2025-02-06 17:28:57,0.0
-12840,-768,-4228,-922,-1276,-2277,2025-02-06 17:28:57,0.0
-12960,-1532,-3768,-695,-1790,-2536,2025-02-06 17:28:57,0.0
-13240,-2184,-4096,-297,-2311,-2574,2025-02-06 17:28:57,0.0
-12948,-2844,-4004,159,-2396,-2467,2025-02-06 17:28:57,0.0
-12564,-3028,-3932,739,-2211,-2314,2025-02-06 17:28:57,0.0
-11912,-2824,-4064,1387,-1548,-2077,2025-02-06 17:28:57,0.0
-12012,-2680,-4500,1738,-592,-2082,2025-02-06 17:28:57,0.0
-12528,-2644,-4484,2241,472,-2246,2025-02-06 17:28:57,0.0
-13760,-2988,-4224,2513,1060,-2332,2025-02-06 17:28:57,0.0
-14748,-2796,-3376,2776,-94,-2299,2025-02-06 17:28:57,0.0
-14816,-2600,-2748,2933,-2112,-2164,2025-02-06 17:28:57,0.0
-13892,-2472,-1884,2667,-3896,-2350,2025-02-06 17:28:57,0.0
-12508,-1636,-2004,2186,-4364,-2819,2025-02-06 17:28:57,0.0
-11664,-668,-3572,1217,-3620,-3278,2025-02-06 17:28:57,0.0
-11196,-396,-4180,-306,-1649,-3720,2025-02-06 17:28:57,0.0
-11300,-1460,-3328,-1700,1418,-3976,2025-02-06 17:28:57,0.0
-11992,-3292,-1196,-1999,2490,-4147,2025-02-06 17:28:57,0.0
-12828,-4712,-836,-1549,1533,-3797,2025-02-06 17:28:57,0.0
-13172,-5304,-876,-1103,757,-3279,2025-02-06 17:28:57,0.0
-13176,-5016,-1248,-806,-128,-2424,2025-02-06 17:28:57,0.0
-12216,-4184,-1416,-626,-411,-1889,2025-02-06 17:28:57,0.0
-11760,-3496,-1912,-780,-31,-1551,2025-02-06 17:28:57,0.0
-11856,-2892,-1764,-1148,821,-1118,2025-02-06 17:28:57,0.0
-12028,-2760,-2000,-1432,1686,-734,2025-02-06 17:28:57,0.0
-12408,-3208,-2256,-1566,2108,-627,2025-02-06 17:28:57,0.0
-12584,-3916,-2104,-1504,2255,-644,2025-02-06 17:28:58,0.0
-12568,-3988,-2304,-1362,2238,-688,2025-02-06 17:28:58,0.0
-12956,-3880,-2292,-1353,2007,-712,2025-02-06 17:28:58,0.0
-13360,-3460,-2680,-1497,1752,-556,2025-02-06 17:28:58,0.0
-13364,-3196,-2604,-1898,1609,-660,2025-02-06 17:28:58,0.0
-13480,-2540,-2236,-2470,1232,-1006,2025-02-06 17:28:58,0.0
-13656,-2580,-2156,-3014,589,-1300,2025-02-06 17:28:58,0.0
-13700,-2856,-2128,-3493,27,-1405,2025-02-06 17:28:58,0.0
-13568,-3248,-2548,-4043,-270,-1586,2025-02-06 17:28:58,0.0
-13392,-3720,-2372,-4633,-288,-1834,2025-02-06 17:28:58,0.0
-13496,-4112,-2124,-5020,-485,-1882,2025-02-06 17:28:58,0.0
-13172,-4896,-1964,-5352,-425,-1771,2025-02-06 17:28:58,0.0
-12572,-5436,-1832,-5326,-322,-1561,2025-02-06 17:28:58,0.0
-12284,-5500,-1544,-5247,-26,-1322,2025-02-06 17:28:58,
-12240,-5480,-936,-5198,734,-1162,2025-02-06 17:28:58,0.0
-12968,-6220,-2804,-5010,1757,-1266,2025-02-06 17:28:58,0.0
-14320,-6632,-5168,-4484,2922,-1851,2025-02-06 17:28:58,0.0
-16656,-7236,-3732,-2650,4293,-3294,2025-02-06 17:28:58,0.0
-17624,-7800,-2876,-1126,1524,-3607,2025-02-06 17:28:58,0.0
-18924,-7080,-3420,1,-2882,-2086,2025-02-06 17:28:58,0.0
-17732,-5784,-6040,354,-4309,457,2025-02-06 17:28:58,0.0
-14880,-4220,-6964,427,-3102,1220,2025-02-06 17:28:58,0.0
-14692,-3024,-7304,-338,-1504,1254,2025-02-06 17:28:58,0.0
-15212,-3084,-5544,-696,-2072,2140,2025-02-06 17:28:58,0.0
-14568,-3496,-5636,47,-4371,3202,2025-02-06 17:28:58,0.0
-13504,-2924,-6580,746,-6367,3992,2025-02-06 17:28:58,0.0
-11532,-1516,-7064,1214,-7094,4689,2025-02-06 17:28:58,0.0
-9716,668,-6360,1170,-5879,4994,2025-02-06 17:28:58,0.0
-8196,2268,-5484,812,-3955,5027,2025-02-06 17:28:58,0.0
-7648,3356,-4868,503,-1458,4477,2025-02-06 17:28:58,0.0
-9152,2112,-6760,-666,2303,3523,2025-02-06 17:28:58,0.0
-11068,-156,-6540,-1946,4823,2613,2025-02-06 17:28:58,0.0
-13508,-2064,-4548,-2092,4919,2647,2025-02-06 17:28:58,0.0
-13472,-3264,-2856,-1292,4279,2925,2025-02-06 17:28:58,0.0
-13524,-3176,-1884,321,2067,3082,2025-02-06 17:28:58,0.0
-13968,-2204,-3328,1649,390,3788,2025-02-06 17:28:58,0.0
-13408,-1036,-4588,1724,-462,4468,2025-02-06 17:28:58,0.0
-12148,-172,-4352,1865,-1356,4408,2025-02-06 17:28:58,0.0
-11256,764,-3580,2183,-1925,4101,2025-02-06 17:28:58,0.0
-10576,1148,-3280,2131,-1604,3828,2025-02-06 17:28:58,0.0
-10428,1068,-3288,2006,-741,3740,2025-02-06 17:28:58,0.0
-10772,1036,-3300,1877,169,3670,2025-02-06 17:28:58,0.0
-10976,752,-3276,1680,952,3439,2025-02-06 17:28:58,0.0
-11580,372,-2880,1548,1123,3076,2025-02-06 17:28:58,0.0
-12592,836,-2972,1526,826,2724,2025-02-06 17:28:58,0.0
-12684,964,-2948,1306,616,2385,2025-02-06 17:28:58,0.0
-12092,840,-2164,1057,256,1561,2025-02-06 17:28:58,0.0
-12636,724,-900,1113,-1089,757,2025-02-06 17:28:58,0.0
-12816,-76,-1364,1232,-2069,376,2025-02-06 17:28:58,0.0
-12688,-444,-1616,1240,-2433,263,2025-02-06 17:28:58,0.0
-12624,-436,-1840,1230,-2439,157,2025-02-06 17:28:58,0.0
-12648,64,-1392,1186,-2166,207,2025-02-06 17:28:58,0.0
-12620,372,-348,1383,-1708,553,2025-02-06 17:28:58,0.0
-12328,880,168,1559,-1656,785,2025-02-06 17:28:58,0.0
-12180,804,-444,1782,-1862,1020,2025-02-06 17:28:58,0.0
-11844,616,-1228,1976,-1597,958,2025-02-06 17:28:58,0.0
-11640,188,-2064,2402,-937,752,2025-02-06 17:28:58,0.0
-11796,84,-2516,2881,-251,606,2025-02-06 17:28:58,0.0
-12340,204,-2776,3367,958,643,2025-02-06 17:28:59,0.0
-14120,584,-2000,3330,2068,1055,2025-02-06 17:28:59,0.0
-15516,360,-1132,3303,2162,1668,2025-02-06 17:28:59,0.0
-16968,820,-4,3719,1163,2340,2025-02-06 17:28:59,0.0
-18040,1456,540,4566,-1093,3354,2025-02-06 17:28:59,0.0
-18180,2496,-1576,5123,-3153,4455,2025-02-06 17:28:59,0.0
-16912,3452,-5500,4149,-2099,4790,2025-02-06 17:28:59,0.0
-16480,4776,-7224,2013,955,4582,2025-02-06 17:28:59,0.0
-16756,6268,-5988,-102,2464,4665,2025-02-06 17:28:59,0.0
-16000,6148,-4484,-1892,1371,3600,2025-02-06 17:28:59,0.0
-15512,5420,-2944,-2502,546,561,2025-02-06 17:28:59,0.0
-15716,3112,-4580,-2207,-231,-3409,2025-02-06 17:28:59,0.0
-14004,988,-7220,-3147,-3871,-5438,2025-02-06 17:28:59,0.0
-12092,-1224,-8448,-3125,-8568,-6903,2025-02-06 17:28:59,0.0
-12348,-3788,-5768,-2210,-8001,-6213,2025-02-06 17:28:59,0.0
-9340,-5464,-5660,-1575,-3030,-4227,2025-02-06 17:28:59,0.0
-7968,-6192,-5948,-1328,1219,-2777,2025-02-06 17:28:59,0.0
-8364,-4168,-5332,-584,5638,-2251,2025-02-06 17:28:59,0.0
-9536,-2248,-4080,926,8705,-2990,2025-02-06 17:28:59,0.0
-11128,-464,-4356,1226,9406,-4181,2025-02-06 17:28:59,0.0
-12632,1064,-3920,308,7570,-5356,2025-02-06 17:28:59,0.0
-13460,1460,-3604,-1364,2643,-6227,2025-02-06 17:28:59,0.0
-13556,-56,-4276,-2136,-691,-6422,2025-02-06 17:28:59,0.0
-13088,-1016,-4728,-2775,-1927,-6109,2025-02-06 17:28:59,0.0
-12476,-1636,-5000,-3175,-2541,-5209,2025-02-06 17:28:59,0.0
-10864,-2456,-5216,-3395,-1858,-4778,2025-02-06 17:28:59,0.0
-9148,-2940,-3968,-3188,-844,-4766,2025-02-06 17:28:59,0.0
-8544,-3824,-4164,-2792,947,-5121,2025-02-06 17:28:59,0.0
-9248,-4440,-4288,-2373,3206,-5129,2025-02-06 17:28:59,0.0
-10696,-4864,-4108,-1856,4483,-4600,2025-02-06 17:28:59,0.0
-12312,-4688,-3540,-1247,4667,-3676,2025-02-06 17:28:59,0.0
-13440,-4044,-2788,-496,3379,-2458,2025-02-06 17:28:59,0.0
-13472,-3428,-2564,49,1701,-1469,2025-02-06 17:28:59,0.0
-13216,-2908,-2524,173,819,-860,2025-02-06 17:28:59,0.0
-13528,-2616,-2784,82,292,-342,2025-02-06 17:28:59,0.0
-12992,-2708,-3052,-57,-5,236,2025-02-06 17:28:59,0.0
-12456,-2332,-2340,-137,-861,565,2025-02-06 17:28:59,0.0
-11760,-1992,-2592,-6,-742,744,2025-02-06 17:28:59,0.0
-11288,-2068,-2576,-326,438,751,2025-02-06 17:28:59,0.0
-10632,-2368,-3268,-489,1438,838,2025-02-06 17:28:59,0.0
-11648,-2500,-2636,-924,1628,935,2025-02-06 17:28:59,0.0
-11792,-2708,-3504,-1339,1675,935,2025-02-06 17:28:59,0.0
-11944,-2580,-4076,-1978,2063,960,2025-02-06 17:28:59,0.0
-12008,-2008,-4220,-2604,2939,529,2025-02-06 17:28:59,0.0
-12848,-1816,-4324,-3425,3714,-164,2025-02-06 17:28:59,0.0
-13764,-2200,-3760,-3969,4057,-897,2025-02-06 17:28:59,0.0
-14604,-2252,-3428,-4195,3192,-1600,2025-02-06 17:28:59,0.0
-15384,-2316,-3412,-4371,1428,-2068,2025-02-06 17:28:59,0.0
-15584,-2284,-3672,-4865,-978,-2650,2025-02-06 17:28:59,0.0
-15980,-3484,-2580,-5411,-1900,-3131,2025-02-06 17:28:59,0.0
-16028,-4324,-1528,-5930,-1344,-2709,2025-02-06 17:28:59,0.0
-14724,-5352,-1996,-5561,-1012,-2041,2025-02-06 17:28:59,0.0
-14724,-6084,-4208,-4678,-555,-2065,2025-02-06 17:28:59,0.0
-15384,-6880,-3532,-3342,1564,-2655,2025-02-06 17:28:59,0.0
-16524,-6692,-2908,-1342,1987,-3061,2025-02-06 17:28:59,0.0
-17996,-6720,-4360,906,-502,-2321,2025-02-06 17:28:59,
-17972,-7112,-7892,2099,-1923,-899,2025-02-06 17:28:59,0.0
-16628,-6584,-8832,2673,-3637,250,2025-02-06 17:28:59,0.0
-15056,-3940,-7896,3233,-5417,1634,2025-02-06 17:28:59,0.0
-12048,-1308,-8064,2664,-6831,3505,2025-02-06 17:28:59,0.0
-9880,772,-8080,1107,-7774,5183,2025-02-06 17:28:59,0.0
-8560,2592,-7404,-31,-6394,6006,2025-02-06 17:28:59,0.0
-8388,4080,-6660,-476,-2789,5697,2025-02-06 17:29:00,0.0
-9564,4212,-6384,-786,1286,4609,2025-02-06 17:29:00,0.0
-11536,2340,-6820,-1642,4481,3629,2025-02-06 17:29:00,0.0
-13572,-672,-4056,-1690,3956,3680,2025-02-06 17:29:00,0.0
-13360,-3164,-3800,-1109,1855,4081,2025-02-06 17:29:00,0.0
-12656,-3836,-3576,-493,129,4162,2025-02-06 17:29:00,0.0
-11972,-3112,-3456,806,-1154,4254,2025-02-06 17:29:00,0.0
-11436,-2720,-4684,1763,-922,4034,2025-02-06 17:29:00,0.0
-11500,-1180,-4676,2372,-987,4189,2025-02-06 17:29:00,0.0
-10996,336,-4560,2687,-1346,4300,2025-02-06 17:29:00,0.0
-10532,992,-3220,2967,-1434,3988,2025-02-06 17:29:00,0.0
-11032,1412,-2928,2948,-1422,3554,2025-02-06 17:29:00,0.0
-11692,1524,-2812,2828,-739,3361,2025-02-06 17:29:00,0.0
-11256,1888,-3576,2378,-24,3420,2025-02-06 17:29:00,0.0
-11308,1728,-3712,1908,272,3144,2025-02-06 17:29:00,0.0
-11228,1648,-3592,1511,507,2410,2025-02-06 17:29:00,0.0
-10856,1836,-3176,1278,193,1368,2025-02-06 17:29:00,0.0
-10904,2060,-3496,1013,-432,250,2025-02-06 17:29:00,0.0
-11152,1948,-2960,676,-1239,-623,2025-02-06 17:29:00,0.0
-11152,972,-2216,333,-1833,-1069,2025-02-06 17:29:00,0.0
-11140,252,-2004,417,-1894,-1310,2025-02-06 17:29:00,0.0
-11628,-152,-2276,529,-1311,-1442,2025-02-06 17:29:00,0.0
-12244,64,-2316,614,-770,-1448,2025-02-06 17:29:00,0.0
-13180,124,-1876,790,-250,-1095,2025-02-06 17:29:00,0.0
-13440,-272,-1224,1271,-301,-566,2025-02-06 17:29:00,0.0
-13120,-528,-1096,2025,-777,-90,2025-02-06 17:29:00,0.0
-12784,-772,-604,2887,-816,341,2025-02-06 17:29:00,0.0
-12240,-1068,-1036,3805,-7,511,2025-02-06 17:29:00,0.0
-12356,-800,-1416,4637,1106,659,2025-02-06 17:29:00,0.0
-12964,-1080,-2224,5067,2031,758,2025-02-06 17:29:00,0.0
-14020,-492,-2644,5384,2844,774,2025-02-06 17:29:00,0.0
-16016,1176,-2816,5616,2852,1452,2025-02-06 17:29:00,0.0
-17000,2024,-2084,5699,1787,2348,2025-02-06 17:29:00,0.0
-16632,1360,-1016,5452,293,2788,2025-02-06 17:29:00,0.0
-15424,496,60,5092,-859,2654,2025-02-06 17:29:00,0.0
-13980,856,476,5121,-1401,1934,2025-02-06 17:29:00,0.0
-14472,1748,-856,5502,-602,1592,2025-02-06 17:29:00,0.0
-15924,1900,-3072,5488,677,1694,2025-02-06 17:29:00,0.0
-18592,2928,-4876,4405,1359,2731,2025-02-06 17:29:00,0.0
-18040,3844,-6508,1971,1418,3602,2025-02-06 17:29:00,0.0
-15860,4032,-8896,-402,2513,1606,2025-02-06 17:29:00,0.0
-14948,3724,-10380,-2338,3172,-804,2025-02-06 17:29:00,0.0
-13208,1876,-9536,-3900,-1703,-2624,2025-02-06 17:29:00,0.0
-11748,844,-7328,-3377,-9737,-4151,2025-02-06 17:29:00,0.0
-10304,-364,-6660,-2877,-17158,-5482,2025-02-06 17:29:00,0.0
-8324,-3916,-772,-2706,-7371,-6450,2025-02-06 17:29:00,0.0
-7616,-5824,-4692,-2689,-2262,-7315,2025-02-06 17:29:00,0.0
-10224,-6348,-5872,-1726,1762,-6803,2025-02-06 17:29:00,0.0
-13184,-5172,-4748,-391,4383,-4456,2025-02-06 17:29:00,0.0
-12308,-3068,-2688,1301,5922,-2275,2025-02-06 17:29:00,0.0
-12032,-924,-3108,1787,5505,-1978,2025-02-06 17:29:00,0.0
-11916,268,-3676,1167,3643,-2700,2025-02-06 17:29:00,0.0
-11968,408,-4488,520,3069,-3716,2025-02-06 17:29:00,0.0
-12268,-756,-5124,22,2999,-4709,2025-02-06 17:29:00,0.0
-12980,-844,-4404,-477,2030,-4793,2025-02-06 17:29:00,0.0
-13176,-1204,-3136,-867,-317,-4407,2025-02-06 17:29:00,0.0
-11964,-2140,-2692,-1175,-2215,-4051,2025-02-06 17:29:00,0.0
-10744,-2936,-3504,-1425,-2115,-3940,2025-02-06 17:29:00,0.0
-10492,-3172,-3224,-1596,-904,-3773,2025-02-06 17:29:00,0.0
-10080,-3476,-2744,-1405,629,-3297,2025-02-06 17:29:00,0.0
-10408,-3412,-2684,-1176,2162,-2836,2025-02-06 17:29:00,0.0
-11032,-3272,-2836,-1075,3166,-2426,2025-02-06 17:29:01,0.0
-11932,-3408,-2976,-1197,3429,-1982,2025-02-06 17:29:01,0.0
-12888,-3608,-2568,-1127,2712,-1400,2025-02-06 17:29:01,0.0
-12896,-3320,-1252,-923,1397,-656,2025-02-06 17:29:01,0.0
-12420,-2316,-1572,-651,808,-79,2025-02-06 17:29:01,0.0
-12184,-2280,-1668,-586,584,487,2025-02-06 17:29:01,0.0
-11564,-2596,-2252,-810,530,955,2025-02-06 17:29:01,0.0
-10560,-2920,-2584,-1121,834,1379,2025-02-06 17:29:01,0.0
-10168,-3896,-3128,-1389,1821,1324,2025-02-06 17:29:01,0.0
-10740,-3836,-3700,-1476,3187,1415,2025-02-06 17:29:01,0.0
-11356,-2980,-4552,-1482,4803,1398,2025-02-06 17:29:01,0.0
-12784,-1496,-4956,-1946,6035,983,2025-02-06 17:29:01,0.0
-14876,-512,-3964,-2704,6403,560,2025-02-06 17:29:01,0.0
-16368,-1172,-3056,-3070,5218,-317,2025-02-06 17:29:01,0.0
-16780,-2892,-3260,-3444,1978,-1659,2025-02-06 17:29:01,0.0
-16876,-3636,-2888,-4131,-3370,-2533,2025-02-06 17:29:01,0.0
-16096,-2832,-1968,-4255,-5032,-2605,2025-02-06 17:29:01,0.0
-14164,-1372,-1092,-4927,-4334,-2633,2025-02-06 17:29:01,0.0
-12644,-1628,-1668,-6246,-2721,-2640,2025-02-06 17:29:01,0.0
-13256,-2628,-4664,-6583,265,-2498,2025-02-06 17:29:01,0.0
-14480,-6116,-5392,-6107,4102,-2546,2025-02-06 17:29:01,0.0
-16556,-9100,-4356,-3724,6027,-3762,2025-02-06 17:29:01,0.0
-19528,-10380,-3996,-505,3886,-3963,2025-02-06 17:29:01,0.0
-22016,-9964,-5536,2574,1446,-1411,2025-02-06 17:29:01,0.0
-19528,-8752,-7656,4556,-1451,1754,2025-02-06 17:29:01,0.0
-15264,-6456,-9752,6452,-6149,2474,2025-02-06 17:29:01,0.0
-13548,-3496,-11220,6056,-12608,3023,2025-02-06 17:29:01,0.0
-14404,-368,-5384,5186,-15110,4505,2025-02-06 17:29:01,0.0
-7552,2428,-6844,3637,-9439,6123,2025-02-06 17:29:01,0.0
-6008,4772,-7256,1237,-6018,6740,2025-02-06 17:29:01,0.0
-5548,6272,-6980,129,-1226,5405,2025-02-06 17:29:01,0.0
-7036,6556,-6928,-325,4427,2547,2025-02-06 17:29:01,0.0
-11028,2820,-7664,-2828,8434,577,2025-02-06 17:29:01,
-13804,-396,-5356,-3983,8778,-183,2025-02-06 17:29:01,0.0
-15532,-2932,-3768,-3983,6323,114,2025-02-06 17:29:01,0.0
-17292,-4000,-1880,-2578,1412,1757,2025-02-06 17:29:01,0.0
-16720,-3516,-2784,-727,-1508,3561,2025-02-06 17:29:01,0.0
-12852,-2164,-3304,396,-4254,3905,2025-02-06 17:29:01,0.0
-11028,-672,-3272,628,-5398,2907,2025-02-06 17:29:01,0.0
-10160,-96,-3252,869,-4503,2427,2025-02-06 17:29:01,0.0
-9588,-28,-3336,960,-2677,2517,2025-02-06 17:29:01,0.0
-10096,-112,-2220,1534,-595,2718,2025-02-06 17:29:01,0.0
-10556,152,-2192,1933,793,2770,2025-02-06 17:29:01,0.0
-11020,456,-2268,1889,1450,2506,2025-02-06 17:29:01,0.0
-11352,708,-1940,1921,1362,1795,2025-02-06 17:29:01,0.0
-11356,1064,-1556,2210,790,847,2025-02-06 17:29:01,0.0
-10984,1416,-1880,2179,151,-66,2025-02-06 17:29:01,0.0
-11116,1352,-2500,1633,-305,-1023,2025-02-06 17:29:01,0.0
-10944,908,-2812,1093,-107,-1656,2025-02-06 17:29:01,0.0
-11280,616,-2216,552,459,-2148,2025-02-06 17:29:01,0.0
-12472,20,-1480,219,1068,-2317,2025-02-06 17:29:01,0.0
-12864,252,-1804,51,1099,-2414,2025-02-06 17:29:01,0.0
-13812,240,-1864,-169,708,-2380,2025-02-06 17:29:01,0.0
-14080,340,-1296,22,-14,-1889,2025-02-06 17:29:01,0.0
-13656,-252,-1600,618,-1075,-1530,2025-02-06 17:29:01,0.0
-12952,-808,-2980,972,-1606,-1207,2025-02-06 17:29:01,0.0
-12992,-1384,-4044,1095,-569,-759,2025-02-06 17:29:01,0.0
-13612,-1460,-3908,1296,1574,-106,2025-02-06 17:29:01,0.0
-15552,-2076,-284,2064,3776,1047,2025-02-06 17:29:01,0.0
-17432,-2876,964,3524,3704,2283,2025-02-06 17:29:01,0.0
-16576,-3776,792,4925,1408,2624,2025-02-06 17:29:01,0.0
-15736,-2852,-1460,5958,-1416,2437,2025-02-06 17:29:02,0.0
-15276,420,-3900,6726,-475,3005,2025-02-06 17:29:02,0.0
-16104,3424,-6844,6277,1788,3991,2025-02-06 17:29:02,0.0
-17740,5688,-9808,4572,4483,4886,2025-02-06 17:29:02,0.0
-17784,7008,-11156,1245,9069,5127,2025-02-06 17:29:02,0.0
-15096,6656,-10544,-2042,11100,3008,2025-02-06 17:29:02,0.0
-11268,3364,-9496,-3834,5118,-1612,2025-02-06 17:29:02,0.0
-11720,436,-9256,-4221,-4181,-5082,2025-02-06 17:29:02,0.0
-11276,-1660,-8540,-3748,-13570,-5869,2025-02-06 17:29:02,0.0
-9564,-3104,-7128,-3379,-21329,-6436,2025-02-06 17:29:02,0.0
-6108,-5216,16,-941,-6800,-5436,2025-02-06 17:29:02,0.0
-5856,-5992,-4720,35,-3124,-3493,2025-02-06 17:29:02,0.0
-7616,-5508,-7716,79,2249,-1842,2025-02-06 17:29:02,0.0
-9592,-4244,-6296,521,8728,-747,2025-02-06 17:29:02,0.0
-12108,-3768,-4644,1182,12704,-814,2025-02-06 17:29:02,0.0
-15744,-2876,-1560,1749,11742,-1569,2025-02-06 17:29:02,0.0
-17304,-1556,-1956,2271,5478,-2425,2025-02-06 17:29:02,0.0
-16428,-1104,-5152,2268,-876,-2639,2025-02-06 17:29:02,0.0
-14996,-1356,-7008,2019,-7008,-2181,2025-02-06 17:29:02,0.0
-13644,-1504,-4924,1566,-9628,-1784,2025-02-06 17:29:02,0.0
-9544,-1544,-5996,934,-5392,-1642,2025-02-06 17:29:02,0.0
-8368,-1220,-6768,452,-1941,-1269,2025-02-06 17:29:02,0.0
-7648,-1744,-7740,-956,2096,-1604,2025-02-06 17:29:02,0.0
-9288,-2048,-5964,-1713,5977,-1862,2025-02-06 17:29:02,0.0
-11976,-2884,-4472,-1951,6905,-2046,2025-02-06 17:29:02,0.0
-14400,-3320,-3528,-2012,5364,-2001,2025-02-06 17:29:02,0.0
-15824,-3484,-3360,-1873,2305,-1426,2025-02-06 17:29:02,0.0
-15140,-3136,-3080,-1463,-694,-912,2025-02-06 17:29:02,0.0
-13504,-2500,-4292,-1579,-1759,-1071,2025-02-06 17:29:02,0.0
-11824,-2092,-4828,-1836,-1259,-1304,2025-02-06 17:29:02,0.0
-11084,-2236,-5292,-1975,-261,-1230,2025-02-06 17:29:02,0.0
-10892,-2540,-5108,-2163,1023,-1092,2025-02-06 17:29:02,0.0
-11460,-2560,-4504,-2339,2156,-850,2025-02-06 17:29:02,0.0
-12544,-2608,-3656,-2385,2562,-666,2025-02-06 17:29:02,0.0
-13280,-2732,-3540,-2469,1834,-603,2025-02-06 17:29:02,0.0
-14016,-2936,-3076,-2366,528,-566,2025-02-06 17:29:02,0.0
-13668,-3076,-2932,-2187,-567,-396,2025-02-06 17:29:02,0.0
-13236,-3108,-2848,-2088,-1316,-48,2025-02-06 17:29:02,0.0
-12784,-2528,-2476,-1830,-1581,613,2025-02-06 17:29:02,0.0
-12636,-2044,-3028,-1787,-1448,1390,2025-02-06 17:29:02,0.0
-12908,-2516,-4692,-1919,-1226,1746,2025-02-06 17:29:02,0.0
-13288,-2928,-6908,-2172,-769,1396,2025-02-06 17:29:02,0.0
-13120,-3444,-7276,-1956,128,135,2025-02-06 17:29:02,0.0
-14008,-3136,-6252,-1000,688,-841,2025-02-06 17:29:02,0.0
-13900,-1904,-4912,-287,-289,-449,2025-02-06 17:29:02,0.0
-12656,-1568,-4492,-295,-1361,100,2025-02-06 17:29:02,0.0
-11336,-1456,-4628,-200,-1011,392,2025-02-06 17:29:02,0.0
-10640,-1244,-5452,-172,34,349,2025-02-06 17:29:02,0.0
-10416,-1132,-5428,-190,1229,63,2025-02-06 17:29:02,0.0
-11072,-1028,-5464,-607,2081,-208,2025-02-06 17:29:02,0.0
-11668,-1180,-4864,-907,1971,-584,2025-02-06 17:29:02,0.0
-12340,-960,-4680,-900,1248,-877,2025-02-06 17:29:02,0.0
-12468,-700,-4800,-920,547,-1095,2025-02-06 17:29:02,0.0
-12116,-476,-5440,-1154,501,-1228,2025-02-06 17:29:02,0.0
-11852,-776,-5964,-1723,896,-1464,2025-02-06 17:29:02,0.0
-11912,-1132,-6328,-2207,1523,-1799,2025-02-06 17:29:02,0.0
-12048,-1388,-6188,-2477,2193,-2150,2025-02-06 17:29:02,0.0
-12600,-1632,-6316,-2789,2443,-2412,2025-02-06 17:29:02,0.0
-13000,-1508,-6004,-2818,2301,-2173,2025-02-06 17:29:02,0.0
-13452,-980,-6628,-2936,1533,-1656,2025-02-06 17:29:02,0.0
-13068,232,-6856,-3552,633,-1319,2025-02-06 17:29:03,0.0
-12720,700,-6520,-4470,105,-1400,2025-02-06 17:29:03,0.0
-12656,704,-6116,-5218,156,-1506,2025-02-06 17:29:03,0.0
-12396,520,-5972,-5880,402,-1813,2025-02-06 17:29:03,0.0
-12608,48,-6336,-6696,363,-2035,2025-02-06 17:29:03,0.0
-12420,-980,-6156,-7507,-262,-2128,2025-02-06 17:29:03,0.0
-11980,-1700,-6100,-8104,-1004,-2086,2025-02-06 17:29:03,0.0
-11120,-1560,-6204,-8817,-1565,-2268,2025-02-06 17:29:03,0.0
-11108,-1156,-6508,-9439,-1313,-2457,2025-02-06 17:29:03,0.0
-10832,-1248,-6404,-10619,-235,-3210,2025-02-06 17:29:03,0.0
-11468,-1560,-6248,-11824,391,-4228,2025-02-06 17:29:03,0.0
-12576,-1836,-5544,-12676,302,-4920,2025-02-06 17:29:03,
-13144,-1912,-5584,-13344,-339,-5384,2025-02-06 17:29:03,0.0
-13408,-2176,-5732,-14391,-1886,-5580,2025-02-06 17:29:03,0.0
-12980,-2076,-5636,-15525,-3122,-5318,2025-02-06 17:29:03,0.0
-11800,-1936,-5868,-16716,-4226,-5253,2025-02-06 17:29:03,0.0
-11120,-1688,-6696,-17818,-4602,-5438,2025-02-06 17:29:03,0.0
-10692,-1680,-7116,-19093,-4316,-5863,2025-02-06 17:29:03,0.0
-10500,-2148,-7484,-20678,-3964,-6313,2025-02-06 17:29:03,0.0
-11016,-2296,-7192,-22110,-3470,-6354,2025-02-06 17:29:03,0.0
-11624,-1968,-6632,-23189,-3441,-5456,2025-02-06 17:29:03,0.0
-11884,-1664,-6808,-23646,-3543,-4328,2025-02-06 17:29:03,0.0
-11600,-1720,-7756,-23863,-3439,-3292,2025-02-06 17:29:03,0.0
-10240,-2932,-9156,-23637,-2157,-3279,2025-02-06 17:29:03,0.0
-9452,-4812,-9728,-23305,49,-4091,2025-02-06 17:29:03,0.0
-10060,-6732,-8836,-22681,2213,-4688,2025-02-06 17:29:03,0.0
-11640,-8012,-7244,-21287,4166,-4907,2025-02-06 17:29:03,0.0
-13956,-7464,-5360,-18723,4652,-4275,2025-02-06 17:29:03,0.0
-15584,-4460,-4628,-16911,3889,-3453,2025-02-06 17:29:03,0.0
-16256,-1184,-4532,-16688,2481,-2542,2025-02-06 17:29:03,0.0
-15768,2512,-4656,-17507,-260,-2298,2025-02-06 17:29:03,0.0
-14000,4764,-4716,-17783,-2425,-2924,2025-02-06 17:29:03,0.0
-11976,5368,-6136,-18493,-2457,-4318,2025-02-06 17:29:03,0.0
-10752,3564,-6608,-19700,-1304,-5444,2025-02-06 17:29:03,0.0
-11240,712,-5980,-20686,122,-5842,2025-02-06 17:29:03,0.0
-10728,-512,-4772,-20530,946,-5593,2025-02-06 17:29:03,0.0
-11040,-1888,-4356,-20523,1420,-5874,2025-02-06 17:29:03,0.0
-11672,-2256,-3408,-20543,1618,-6446,2025-02-06 17:29:03,0.0
-12440,-2148,-2688,-20042,1474,-7087,2025-02-06 17:29:03,0.0
-12924,-1696,-2448,-19502,652,-7501,2025-02-06 17:29:03,0.0
-12516,-608,-3388,-19281,-294,-7756,2025-02-06 17:29:03,0.0
-12016,292,-4140,-19254,-585,-7911,2025-02-06 17:29:03,0.0
-11496,292,-5072,-19536,-47,-8076,2025-02-06 17:29:03,0.0
-11712,132,-4508,-19760,880,-8096,2025-02-06 17:29:03,0.0
-13572,800,-4976,-20500,400,-8667,2025-02-06 17:29:03,0.0
-13000,56,-5052,-20690,-271,-8908,2025-02-06 17:29:03,0.0
-12100,-704,-5244,-20793,-1058,-8887,2025-02-06 17:29:03,0.0
-11412,-1308,-4976,-20711,-651,-8594,2025-02-06 17:29:03,0.0
-10980,-972,-5312,-20603,1123,-7985,2025-02-06 17:29:03,0.0
-11188,-96,-5356,-20688,3029,-7602,2025-02-06 17:29:03,0.0
-12256,904,-5792,-20922,4323,-7769,2025-02-06 17:29:03,0.0
-13376,1120,-6548,-21419,3675,-8436,2025-02-06 17:29:03,0.0
-13428,180,-6772,-21657,1787,-9216,2025-02-06 17:29:03,0.0
-12956,-1836,-5468,-21249,-603,-10167,2025-02-06 17:29:03,0.0
-12332,-3100,-3812,-20008,-2266,-10554,2025-02-06 17:29:03,0.0
-11704,-3180,-3400,-18490,-3145,-10007,2025-02-06 17:29:03,0.0
-10888,-2944,-3088,-16921,-3013,-9103,2025-02-06 17:29:04,0.0
-11408,-2596,-3976,-15547,-640,-8345,2025-02-06 17:29:04,0.0
-12736,-3144,-3816,-15020,2141,-7915,2025-02-06 17:29:04,0.0
-14588,-2864,-2644,-14225,2450,-7395,2025-02-06 17:29:04,0.0
-16280,-244,-3592,-12484,-127,-5481,2025-02-06 17:29:04,0.0
-15208,1664,-5080,-10925,-1167,-3760,2025-02-06 17:29:04,0.0
-12228,220,-3584,-9994,-1356,-4164,2025-02-06 17:29:04,0.0
-10232,-2332,-2664,-9800,-2166,-5975,2025-02-06 17:29:04,0.0
-10452,-4256,-2700,-9561,-2098,-6990,2025-02-06 17:29:04,0.0
-10976,-5696,-5236,-9114,-859,-7243,2025-02-06 17:29:04,0.0
-13040,-5872,-7584,-8855,1531,-6839,2025-02-06 17:29:04,0.0
-14436,-4068,-6960,-8590,3334,-5641,2025-02-06 17:29:04,0.0
-14348,-1452,-5120,-8559,3615,-4470,2025-02-06 17:29:04,0.0
-13160,-636,-3572,-9119,1160,-4594,2025-02-06 17:29:04,0.0
-12688,-1652,-3064,-9791,-2480,-5650,2025-02-06 17:29:04,0.0
-13444,-3576,-3332,-9825,-3256,-5911,2025-02-06 17:29:04,0.0
-13844,-5020,-4052,-8985,-2309,-5556,2025-02-06 17:29:04,0.0
-13684,-5780,-4008,-8031,-1269,-5010,2025-02-06 17:29:04,0.0
-12688,-5732,-3400,-7092,-1357,-4506,2025-02-06 17:29:04,0.0
-11984,-4672,-3400,-6214,-1620,-3886,2025-02-06 17:29:04,0.0
-11552,-3304,-4060,-5623,-556,-2930,2025-02-06 17:29:04,0.0
-11192,-2532,-4584,-5517,1001,-2341,2025-02-06 17:29:04,0.0
-11772,-2320,-4992,-5605,1643,-2235,2025-02-06 17:29:04,0.0
-12608,-2404,-4724,-5621,1640,-2146,2025-02-06 17:29:04,0.0
-13304,-2600,-4832,-5535,626,-2143,2025-02-06 17:29:04,0.0
-13304,-2596,-4700,-5355,-928,-2120,2025-02-06 17:29:04,0.0
-12744,-2432,-4400,-5187,-2177,-2193,2025-02-06 17:29:04,0.0
-12224,-2204,-4128,-5353,-2451,-2168,2025-02-06 17:29:04,0.0
-12140,-2124,-4268,-5548,-1858,-1948,2025-02-06 17:29:04,0.0
-12384,-2464,-4360,-5697,-1056,-1450,2025-02-06 17:29:04,0.0
-12588,-2852,-3912,-5763,-686,-897,2025-02-06 17:29:04,0.0
-13216,-3500,-4108,-5740,-605,-254,2025-02-06 17:29:04,0.0
-13740,-3516,-4936,-5454,-620,285,2025-02-06 17:29:04,0.0
-14260,-2716,-4496,-5275,-240,533,2025-02-06 17:29:04,0.0
-14700,-1788,-3792,-5023,-580,901,2025-02-06 17:29:04,0.0
-14704,-1624,-3960,-4908,-2129,1592,2025-02-06 17:29:04,0.0
-14040,-2504,-4388,-4310,-4315,2365,2025-02-06 17:29:04,0.0
-13084,-3432,-4108,-3287,-5621,2762,2025-02-06 17:29:04,0.0
-12148,-3744,-3640,-1857,-5034,2715,2025-02-06 17:29:04,0.0
-11192,-3412,-3544,-361,-2203,2128,2025-02-06 17:29:04,0.0
-10712,-1368,-2968,883,296,1443,2025-02-06 17:29:04,0.0
-10664,420,-2964,1515,1192,1337,2025-02-06 17:29:04,0.0
-10096,836,-3560,1671,2213,864,2025-02-06 17:29:04,0.0
-10500,880,-4336,1398,2559,-39,2025-02-06 17:29:04,0.0
-12220,468,-4604,584,2575,-686,2025-02-06 17:29:04,0.0
-12764,92,-4076,46,1665,-1140,2025-02-06 17:29:04,0.0
-12508,84,-3468,-321,677,-1574,2025-02-06 17:29:04,0.0
-11980,236,-2692,-487,128,-1981,2025-02-06 17:29:04,0.0
-12604,-656,-3796,-715,892,-1913,2025-02-06 17:29:04,0.0
-13872,-1120,-3456,-886,2251,-1090,2025-02-06 17:29:04,0.0
-14824,-816,-2612,-204,2230,-616,2025-02-06 17:29:04,0.0
-15768,-968,-2980,193,1872,-36,2025-02-06 17:29:04,0.0
-15848,-1776,-2964,322,1093,145,2025-02-06 17:29:04,0.0
-15124,-1772,-2720,827,-704,-151,2025-02-06 17:29:04,0.0
-14088,-1112,-3152,1261,-2459,-441,2025-02-06 17:29:04,0.0
-12576,-640,-3228,1301,-2555,-232,2025-02-06 17:29:04,
-11028,-668,-3304,1313,-1031,159,2025-02-06 17:29:04,0.0
-10732,-788,-2692,1825,2189,475,2025-02-06 17:29:04,0.0
-11772,-900,-2224,2261,4399,638,2025-02-06 17:29:05,0.0
-13636,-944,-1888,2429,4416,411,2025-02-06 17:29:05,0.0
-15132,-668,-2000,2408,2459,178,2025-02-06 17:29:05,0.0
-15352,-492,-2876,2131,-453,65,2025-02-06 17:29:05,0.0
-14556,-260,-3488,1863,-1954,-25,2025-02-06 17:29:05,0.0
-13408,176,-3648,1761,-1627,29,2025-02-06 17:29:05,0.0
-12364,848,-3908,1552,-289,46,2025-02-06 17:29:05,0.0
-11628,604,-4232,1188,708,-293,2025-02-06 17:29:05,0.0
-11988,-548,-3608,784,1363,-733,2025-02-06 17:29:05,0.0
-12024,-1620,-2836,853,1868,-1132,2025-02-06 17:29:05,0.0
-12400,-2376,-3292,1163,2387,-1289,2025-02-06 17:29:05,0.0
-12616,-2716,-4192,1527,2397,-1452,2025-02-06 17:29:05,0.0
-12940,-3564,-4956,2000,2302,-1769,2025-02-06 17:29:05,0.0
-13312,-3668,-4764,2657,2585,-1902,2025-02-06 17:29:05,0.0
-13412,-3608,-4464,3371,2616,-1931,2025-02-06 17:29:05,0.0
-13640,-2924,-4456,3552,2303,-1963,2025-02-06 17:29:05,0.0
-13412,-1452,-3796,3362,1118,-2036,2025-02-06 17:29:05,0.0
-13572,656,-3568,3028,74,-2021,2025-02-06 17:29:05,0.0
-12980,1700,-3740,2201,107,-2129,2025-02-06 17:29:05,0.0
-12716,1640,-4032,853,895,-2539,2025-02-06 17:29:05,0.0
-12628,796,-3740,-469,1455,-3136,2025-02-06 17:29:05,0.0
-12972,-968,-3052,-1529,1534,-3821,2025-02-06 17:29:05,0.0
-13028,-2092,-3084,-2003,1201,-4325,2025-02-06 17:29:05,0.0
-13500,-2960,-2508,-2102,394,-4558,2025-02-06 17:29:05,0.0
-13732,-3484,-2104,-1929,-458,-4271,2025-02-06 17:29:05,0.0
-13836,-3764,-1708,-1724,-1153,-3473,2025-02-06 17:29:05,0.0
-13060,-3704,-1120,-1370,-1703,-2708,2025-02-06 17:29:05,0.0
-11900,-3372,-1576,-1291,-1850,-2614,2025-02-06 17:29:05,0.0
-11972,-3092,-1656,-1365,-1263,-2513,2025-02-06 17:29:05,0.0
-11984,-3420,-1360,-1260,-291,-2202,2025-02-06 17:29:05,0.0
-12448,-3656,-1512,-950,329,-1814,2025-02-06 17:29:05,0.0
-12644,-3860,-1372,-685,501,-1358,2025-02-06 17:29:05,0.0
-12504,-4000,-1568,-405,380,-1130,2025-02-06 17:29:05,0.0
-12300,-4120,-1960,-212,469,-1034,2025-02-06 17:29:05,0.0
-12412,-4408,-1936,-155,779,-807,2025-02-06 17:29:05,0.0
-12724,-4460,-1980,-57,684,-627,2025-02-06 17:29:05,0.0
-13136,-4100,-2112,-77,624,-683,2025-02-06 17:29:05,0.0
-13444,-3304,-2060,-293,289,-831,2025-02-06 17:29:05,0.0
-13520,-2784,-2284,-741,-236,-1066,2025-02-06 17:29:05,0.0
-13308,-2512,-2368,-1351,-665,-1009,2025-02-06 17:29:05,0.0
-12804,-2944,-2608,-2116,-550,-945,2025-02-06 17:29:05,0.0
-12392,-3340,-2724,-2793,14,-717,2025-02-06 17:29:05,0.0
-11852,-4032,-2572,-3297,649,-519,2025-02-06 17:29:05,0.0
-12088,-4316,-2072,-3497,1089,-377,2025-02-06 17:29:05,0.0
-11916,-4656,-1944,-3393,1451,-506,2025-02-06 17:29:05,0.0
-12432,-4612,-2200,-3187,1686,-619,2025-02-06 17:29:05,0.0
-12984,-4328,-2500,-3087,2046,-550,2025-02-06 17:29:05,0.0
-18016,-8252,-1696,722,1021,-3104,2025-02-06 17:29:05,0.0
-18648,-9104,-3012,2660,-1714,-1978,2025-02-06 17:29:05,0.0
-18632,-8200,-6448,3186,-2809,555,2025-02-06 17:29:05,0.0
-16036,-5388,-7184,2476,-3399,2358,2025-02-06 17:29:05,0.0
-14136,-3464,-6764,1573,-4591,3193,2025-02-06 17:29:06,0.0
-12648,-2136,-6744,1274,-6123,4332,2025-02-06 17:29:06,0.0
-10824,-1700,-7016,1436,-6948,5215,2025-02-06 17:29:06,0.0
-9020,-556,-6596,1962,-7104,5282,2025-02-06 17:29:06,0.0
-8168,856,-6428,2587,-4931,4592,2025-02-06 17:29:06,0.0
-9260,1776,-6924,2506,-1693,3937,2025-02-06 17:29:06,0.0
-11072,1772,-7880,1320,1130,4007,2025-02-06 17:29:06,0.0
-12308,948,-7628,-393,2470,4110,2025-02-06 17:29:06,0.0
-12504,-1808,-4732,-1327,1597,3913,2025-02-06 17:29:06,0.0
-12536,-3652,-3180,-647,260,3663,2025-02-06 17:29:06,0.0
-12480,-4620,-2900,918,101,4085,2025-02-06 17:29:06,0.0
-12572,-3828,-2988,2491,-430,4561,2025-02-06 17:29:06,0.0
-12964,-3392,-3704,3268,-485,5415,2025-02-06 17:29:06,0.0
-12368,-2116,-3552,3800,-790,5990,2025-02-06 17:29:06,0.0
-11832,-740,-3052,4245,-1702,6266,2025-02-06 17:29:06,0.0
-11356,696,-2788,4492,-2038,6422,2025-02-06 17:29:06,0.0
-10412,1996,-2964,4257,-1775,6411,2025-02-06 17:29:06,0.0
-10372,2396,-3084,3830,-1279,6023,2025-02-06 17:29:06,0.0
-10072,1640,-2880,3236,-570,5124,2025-02-06 17:29:06,0.0
-10536,792,-2472,2925,-432,3890,2025-02-06 17:29:06,0.0
-11384,388,-2548,2633,-792,3149,2025-02-06 17:29:06,0.0
-11540,628,-2028,2443,-1108,2658,2025-02-06 17:29:06,0.0
-10956,1260,-1900,2256,-1294,1978,2025-02-06 17:29:06,0.0
-9664,1324,-1440,2056,-1352,917,2025-02-06 17:29:06,0.0
-9136,1224,-2084,1499,-254,-118,2025-02-06 17:29:06,0.0
-9288,576,-1312,1077,1021,-515,2025-02-06 17:29:06,0.0
-10116,400,-648,1246,2016,-707,2025-02-06 17:29:06,0.0
-11068,436,-332,1428,2820,-826,2025-02-06 17:29:06,0.0
-11852,632,-968,1579,3009,-991,2025-02-06 17:29:06,0.0
-13408,576,-1044,1935,3228,-1072,2025-02-06 17:29:06,0.0
-14708,-52,-1228,2335,2950,-960,2025-02-06 17:29:06,0.0
-16036,-700,-1328,3111,2097,-630,2025-02-06 17:29:06,0.0
-17024,-948,-1708,4121,776,357,2025-02-06 17:29:06,0.0
-16792,-1924,-3152,4507,-624,1295,2025-02-06 17:29:06,0.0
-16040,-1792,-3036,4480,-626,1521,2025-02-06 17:29:06,0.0
-17360,1004,-1996,5021,1565,2398,2025-02-06 17:29:06,0.0
-18596,2452,-2868,4957,3288,3805,2025-02-06 17:29:06,0.0
-18136,1156,-4408,4039,3532,3812,2025-02-06 17:29:06,0.0
-19400,1528,-4940,2652,3467,3088,2025-02-06 17:29:06,0.0
-20496,3188,-5936,2180,3924,3641,2025-02-06 17:29:06,0.0
-18960,4624,-8288,982,4943,4131,2025-02-06 17:29:06,0.0
-16488,5352,-9852,-699,3756,3327,2025-02-06 17:29:06,0.0
-12548,4572,-11392,-2682,-868,992,2025-02-06 17:29:06,0.0
-8532,2116,-10892,-4118,-9371,-2926,2025-02-06 17:29:06,0.0
-7952,24,-9832,-4426,-18076,-5798,2025-02-06 17:29:06,0.0
-9992,-2844,4856,-3413,-12002,-6310,2025-02-06 17:29:06,0.0
-4648,-4516,-2260,-1612,-4900,-5257,2025-02-06 17:29:06,
-6216,-4624,-6244,-621,-169,-3111,2025-02-06 17:29:06,0.0
-7340,-3156,-7676,-747,4904,-1954,2025-02-06 17:29:06,0.0
-8640,-1672,-6368,-523,8726,-2277,2025-02-06 17:29:06,0.0
-11580,-748,-4372,-202,9821,-3164,2025-02-06 17:29:06,0.0
-14680,-264,-2748,-128,7900,-3142,2025-02-06 17:29:06,0.0
-14544,-980,-3436,-77,4262,-4111,2025-02-06 17:29:06,0.0
-14912,-988,-5132,-837,-1314,-5826,2025-02-06 17:29:06,0.0
-14376,-1364,-4892,-670,-5282,-6023,2025-02-06 17:29:06,0.0
-12424,-1484,-4488,-359,-5320,-4896,2025-02-06 17:29:06,0.0
-8128,-1448,-5640,-284,-3676,-4673,2025-02-06 17:29:06,0.0
-7868,-1776,-4488,-804,-1536,-5146,2025-02-06 17:29:06,0.0
-8656,-1540,-6044,-1655,1752,-4979,2025-02-06 17:29:06,0.0
-10448,-1604,-3384,-2295,3722,-4789,2025-02-06 17:29:06,0.0
-12212,-1768,-2732,-2585,4108,-4349,2025-02-06 17:29:06,0.0
-12912,-2408,-2764,-2774,3652,-3970,2025-02-06 17:29:06,0.0
-13412,-2980,-1272,-2745,1925,-3447,2025-02-06 17:29:06,0.0
-13000,-3548,-1508,-2539,160,-2581,2025-02-06 17:29:06,0.0
-11896,-3704,-1764,-2166,-683,-1798,2025-02-06 17:29:06,0.0
-10732,-3252,-2436,-1985,-281,-1203,2025-02-06 17:29:06,0.0
-10224,-2112,-2904,-2456,1219,-509,2025-02-06 17:29:07,0.0
-10344,-1352,-3236,-2959,2487,217,2025-02-06 17:29:07,0.0
-10552,-1752,-3540,-3742,3688,860,2025-02-06 17:29:07,0.0
-11560,-2404,-4208,-4410,4616,894,2025-02-06 17:29:07,0.0
-12976,-2696,-5096,-4920,5085,314,2025-02-06 17:29:07,0.0
-14776,-1956,-5096,-5127,4599,-452,2025-02-06 17:29:07,0.0
-15896,-932,-4768,-5115,2843,-1800,2025-02-06 17:29:07,0.0
-16040,-1412,-3656,-5173,615,-3079,2025-02-06 17:29:07,0.0
-15848,-3024,-3024,-5621,-1110,-4188,2025-02-06 17:29:07,0.0
-15940,-4100,-2444,-6572,-2693,-4631,2025-02-06 17:29:07,0.0
-15808,-4404,-2928,-6844,-2166,-4261,2025-02-06 17:29:07,0.0
-15072,-4860,-4644,-6267,-1077,-4299,2025-02-06 17:29:07,0.0
-14964,-5736,-5076,-5436,414,-4619,2025-02-06 17:29:07,0.0
-15500,-7256,-3284,-4087,1357,-5054,2025-02-06 17:29:07,0.0
-16496,-8584,-2964,-2137,423,-5267,2025-02-06 17:29:07,0.0
-18572,-7420,-3700,-48,-1894,-3851,2025-02-06 17:29:07,0.0
-19568,-6268,-5832,728,-3282,-1232,2025-02-06 17:29:07,0.0
-14796,-4480,-5600,718,-6483,-18,2025-02-06 17:29:07,0.0
-12860,-3680,-6152,1362,-8625,941,2025-02-06 17:29:07,0.0
-10588,-3076,-7944,1754,-8637,2793,2025-02-06 17:29:07,0.0
-8708,-1600,-9984,1407,-6183,4130,2025-02-06 17:29:07,0.0
-8272,880,-10056,817,-2224,4579,2025-02-06 17:29:07,0.0
-8504,3508,-7812,243,2434,3906,2025-02-06 17:29:07,0.0
-10356,3912,-6896,-778,5086,2566,2025-02-06 17:29:07,0.0
-13204,1784,-6480,-2472,5528,1877,2025-02-06 17:29:07,0.0
-14484,-1660,-4824,-2852,3210,2382,2025-02-06 17:29:07,0.0
-14156,-3584,-4072,-2163,1761,2933,2025-02-06 17:29:07,0.0
-13676,-4256,-3268,-926,722,3526,2025-02-06 17:29:07,0.0
-13740,-3856,-3436,601,-402,4503,2025-02-06 17:29:07,0.0
-13276,-3340,-4296,1679,-1529,5477,2025-02-06 17:29:07,0.0
-11660,-1996,-3944,2379,-3351,5750,2025-02-06 17:29:07,0.0
-10264,-756,-2756,2948,-3877,5690,2025-02-06 17:29:07,0.0
-8772,308,-3020,3324,-3030,5327,2025-02-06 17:29:07,0.0
-8920,1060,-3068,3341,-1180,4760,2025-02-06 17:29:07,0.0
-9648,1612,-2840,3226,702,4490,2025-02-06 17:29:07,0.0
-10392,1932,-2856,3023,1658,4127,2025-02-06 17:29:07,0.0
-11156,2072,-2780,2742,1506,3385,2025-02-06 17:29:07,0.0
-11212,2312,-2608,2430,614,2375,2025-02-06 17:29:07,0.0
-10920,2188,-2608,1939,-265,1138,2025-02-06 17:29:07,0.0
-10716,1756,-2416,1240,-808,-156,2025-02-06 17:29:07,0.0
-10896,1476,-1540,901,-1165,-961,2025-02-06 17:29:07,0.0
-11380,556,-952,953,-1554,-1288,2025-02-06 17:29:07,0.0
-11460,-372,-988,1117,-1881,-1714,2025-02-06 17:29:07,0.0
-11976,-800,-1444,1329,-2029,-1864,2025-02-06 17:29:07,0.0
-12688,-484,-2016,1755,-1394,-1477,2025-02-06 17:29:07,0.0
-13132,-444,-2300,2371,-236,-897,2025-02-06 17:29:07,0.0
-13708,-664,-2176,2995,693,-274,2025-02-06 17:29:07,0.0
-14860,-1432,-2248,3428,1360,769,2025-02-06 17:29:07,0.0
-15780,-2116,-2008,3976,1783,1980,2025-02-06 17:29:07,0.0
-16100,-1828,-2620,4508,2010,3046,2025-02-06 17:29:07,0.0
-16204,-440,-1892,4858,1805,3678,2025-02-06 17:29:07,0.0
-16148,784,-848,4891,1291,3839,2025-02-06 17:29:07,0.0
-16020,1248,-792,4820,438,3479,2025-02-06 17:29:07,0.0
-16764,1304,-1692,4957,187,3664,2025-02-06 17:29:07,0.0
-17336,1024,-3336,4988,123,3962,2025-02-06 17:29:07,0.0
-18172,2928,-5388,4506,-58,4556,2025-02-06 17:29:07,0.0
-16712,4704,-7780,3088,-1058,4314,2025-02-06 17:29:07,0.0
-15288,6308,-9864,45,-2196,2567,2025-02-06 17:29:07,0.0
-14960,6344,-7928,-3418,-993,-150,2025-02-06 17:29:07,0.0
-14588,3788,-5220,-4342,-798,-1654,2025-02-06 17:29:07,0.0
-12100,1376,-3812,-3562,-4335,-3128,2025-02-06 17:29:08,0.0
-10052,-212,-4528,-2748,-6479,-4318,2025-02-06 17:29:08,0.0
-8808,-2472,-5860,-2627,-5325,-4878,2025-02-06 17:29:08,0.0
-8476,-4292,-7000,-2627,-1990,-4903,2025-02-06 17:29:08,0.0
-9436,-5224,-7472,-2530,2625,-4491,2025-02-06 17:29:08,0.0
-11268,-4432,-6080,-2248,6339,-3359,2025-02-06 17:29:08,0.0
-12332,-2516,-4188,-1389,7727,-2167,2025-02-06 17:29:08,0.0
-13068,-68,-3204,-209,5789,-1998,2025-02-06 17:29:08,0.0
-12716,516,-4236,-868,2813,-2697,2025-02-06 17:29:08,0.0
-12816,656,-4684,-1562,1811,-4081,2025-02-06 17:29:08,0.0
-13028,-16,-5312,-1793,1253,-4704,2025-02-06 17:29:08,0.0
-12808,-1176,-5096,-1951,235,-4668,2025-02-06 17:29:08,0.0
-11728,-1972,-4256,-1837,-529,-4401,2025-02-06 17:29:08,0.0
-11160,-2264,-3868,-1716,-613,-4182,2025-02-06 17:29:08,0.0
-10516,-2216,-3868,-1855,-247,-4263,2025-02-06 17:29:08,0.0
-10488,-2216,-4156,-1980,655,-4265,2025-02-06 17:29:08,0.0
-10276,-2876,-3572,-2052,1500,-4473,2025-02-06 17:29:08,0.0
-10492,-2740,-3912,-1908,2086,-4438,2025-02-06 17:29:08,0.0
-11260,-3212,-2620,-1778,2184,-4012,2025-02-06 17:29:08,0.0
-11328,-3212,-3072,-1641,1884,-3510,2025-02-06 17:29:08,0.0
-11616,-2924,-3324,-1494,1683,-2850,2025-02-06 17:29:08,
-11624,-2804,-3356,-1298,1789,-2250,2025-02-06 17:29:08,0.0
-11608,-2684,-3504,-1314,2033,-1720,2025-02-06 17:29:08,0.0
-11820,-2172,-3780,-1668,2287,-1273,2025-02-06 17:29:08,0.0
-12184,-1496,-2596,-1984,1984,-697,2025-02-06 17:29:08,0.0
-11852,-1148,-2280,-2317,1407,-180,2025-02-06 17:29:08,0.0
-11456,-1428,-2428,-2786,1358,-47,2025-02-06 17:29:08,0.0
-11104,-1760,-3308,-3177,1950,-105,2025-02-06 17:29:08,0.0
-11748,-1856,-3788,-3680,2806,-383,2025-02-06 17:29:08,0.0
-12720,-2436,-4256,-4141,3508,-928,2025-02-06 17:29:08,0.0
-13900,-2768,-4332,-4431,3677,-1367,2025-02-06 17:29:08,0.0
-15232,-2740,-4608,-4229,2463,-1806,2025-02-06 17:29:08,0.0
-15892,-3076,-4072,-4032,755,-2112,2025-02-06 17:29:08,0.0
-14916,-4324,-3652,-4091,-4,-3290,2025-02-06 17:29:08,0.0
-15472,-4252,-2736,-4315,-1254,-4249,2025-02-06 17:29:08,0.0
-16520,-2836,-1944,-4509,-2271,-3787,2025-02-06 17:29:08,0.0
-16208,-8096,-2640,-3112,589,-2450,2025-02-06 17:29:08,0.0
-17284,-9028,-3460,-18,-1707,-1673,2025-02-06 17:29:08,0.0
-18128,-8372,-6756,2188,-2893,575,2025-02-06 17:29:08,0.0
-14960,-6336,-7396,3635,-3050,1493,2025-02-06 17:29:08,0.0
-13276,-3804,-7524,4004,-3718,1175,2025-02-06 17:29:08,0.0
-11728,-1424,-6840,3375,-4168,2218,2025-02-06 17:29:08,0.0
-10108,1384,-6772,2049,-3870,4046,2025-02-06 17:29:08,0.0
-8924,3724,-7732,513,-1358,4823,2025-02-06 17:29:08,0.0
-9096,4484,-8520,-276,950,3806,2025-02-06 17:29:08,0.0
-10528,3104,-9200,-980,2525,2018,2025-02-06 17:29:08,0.0
-12456,748,-7700,-2036,2575,1262,2025-02-06 17:29:08,0.0
-13668,-572,-5388,-2300,1776,1890,2025-02-06 17:29:08,0.0
-12652,-1272,-4520,-2024,613,2534,2025-02-06 17:29:08,0.0
-11864,-2028,-4492,-1888,-268,2530,2025-02-06 17:29:08,0.0
-11104,-2340,-4396,-1606,-790,2420,2025-02-06 17:29:08,0.0
-11304,-1840,-4684,-982,-1262,2641,2025-02-06 17:29:08,0.0
-10892,-1144,-4612,-462,-1713,2863,2025-02-06 17:29:08,0.0
-10864,-324,-4048,-83,-1556,3032,2025-02-06 17:29:08,0.0
-10648,676,-3900,122,-577,3103,2025-02-06 17:29:08,0.0
-10840,1188,-3320,-114,326,2899,2025-02-06 17:29:08,0.0
-10936,1244,-3608,-396,1009,2390,2025-02-06 17:29:08,0.0
-11200,996,-3296,-648,1235,1794,2025-02-06 17:29:08,0.0
-11320,488,-2808,-747,749,1256,2025-02-06 17:29:09,0.0
-11320,500,-2680,-701,353,1021,2025-02-06 17:29:09,0.0
-10736,652,-2912,-469,267,708,2025-02-06 17:29:09,0.0
-10472,616,-2416,-273,513,131,2025-02-06 17:29:09,0.0
-10612,476,-2440,-173,917,-373,2025-02-06 17:29:09,0.0
-11296,-116,-1708,131,1013,-463,2025-02-06 17:29:09,0.0
-11816,-736,-1816,693,866,-417,2025-02-06 17:29:09,0.0
-12124,-1164,-1968,1227,748,-434,2025-02-06 17:29:09,0.0
-12784,-1304,-1816,1844,611,-478,2025-02-06 17:29:09,0.0
-13356,-1020,-1752,2940,167,-326,2025-02-06 17:29:09,0.0
-14168,-704,-2116,3772,-523,20,2025-02-06 17:29:09,0.0
-14280,184,-2916,4219,-1404,548,2025-02-06 17:29:09,0.0
-14496,472,-3740,4240,-1753,1165,2025-02-06 17:29:09,0.0
-13924,1012,-3828,4040,-2052,1986,2025-02-06 17:29:09,0.0
-13404,1232,-3444,3962,-999,2760,2025-02-06 17:29:09,0.0
-12308,96,-2108,3873,669,2544,2025-02-06 17:29:09,0.0
-12480,-1496,-412,3975,2229,1580,2025-02-06 17:29:09,0.0
-15152,-1444,444,4861,2734,1539,2025-02-06 17:29:09,0.0
-18684,992,-2196,6171,2399,3874,2025-02-06 17:29:09,0.0
-19468,2204,-4800,6397,1946,5907,2025-02-06 17:29:09,0.0
-19240,3348,-7252,4611,-801,6307,2025-02-06 17:29:09,0.0
-18552,4188,-9236,1748,-4102,5578,2025-02-06 17:29:09,0.0
-18856,4248,-9496,-956,-6274,5034,2025-02-06 17:29:09,0.0
-16516,4412,-6736,-2072,-7863,4271,2025-02-06 17:29:09,0.0
-9372,2852,-3368,-877,-7720,691,2025-02-06 17:29:09,0.0
-6012,-192,-5440,-1100,-9081,-4396,2025-02-06 17:29:09,0.0
-7608,-1504,-5148,-466,-6351,-6013,2025-02-06 17:29:09,0.0
-8824,-3804,-6936,1257,-1010,-4772,2025-02-06 17:29:09,0.0
-10456,-4896,-8200,1370,3394,-2785,2025-02-06 17:29:09,0.0
-12248,-3404,-7660,-57,4712,-1064,2025-02-06 17:29:09,0.0
-13320,-452,-5220,-468,4059,-375,2025-02-06 17:29:09,0.0
-14284,1340,-3924,-276,2200,-154,2025-02-06 17:29:09,0.0
-13708,1600,-4120,-634,423,-813,2025-02-06 17:29:09,0.0
-13600,1632,-5340,-1381,11,-1840,2025-02-06 17:29:09,0.0
-13016,1236,-6372,-2048,-122,-2625,2025-02-06 17:29:09,0.0
-12692,-188,-5928,-2372,-338,-3314,2025-02-06 17:29:09,0.0
-12460,-1940,-4876,-2476,-363,-3619,2025-02-06 17:29:09,0.0
-12252,-2912,-3912,-2231,-737,-3378,2025-02-06 17:29:09,0.0
-11720,-3244,-3716,-1771,-409,-3184,2025-02-06 17:29:09,0.0
-11744,-2940,-3684,-1270,93,-2880,2025-02-06 17:29:09,0.0
-11548,-2276,-3996,-950,483,-2798,2025-02-06 17:29:09,0.0
-11428,-1292,-4136,-985,600,-2710,2025-02-06 17:29:09,0.0
-11316,-1080,-3756,-1415,448,-2682,2025-02-06 17:29:09,0.0
-11028,-1504,-3488,-1789,371,-2682,2025-02-06 17:29:09,0.0
-11248,-2172,-3348,-1847,768,-2623,2025-02-06 17:29:09,0.0
-11548,-2732,-3552,-2099,1009,-2157,2025-02-06 17:29:09,0.0
-11896,-2452,-3216,-2168,1134,-1678,2025-02-06 17:29:09,0.0
-12176,-1428,-2728,-2486,1313,-1325,2025-02-06 17:29:09,0.0
-12440,-716,-2544,-3072,1543,-1144,2025-02-06 17:29:09,0.0
-12652,-296,-2236,-3655,1297,-986,2025-02-06 17:29:09,0.0
-12732,-368,-2408,-4037,440,-798,2025-02-06 17:29:09,0.0
-12392,-872,-2448,-4570,198,-635,2025-02-06 17:29:09,0.0
-11936,-1384,-2324,-5054,431,-720,2025-02-06 17:29:09,0.0
-12752,-1500,-2332,-5546,1253,-696,2025-02-06 17:29:09,0.0
-13204,-1724,-2832,-5906,1954,-773,2025-02-06 17:29:09,0.0
-13876,-1764,-4436,-6339,1942,-1019,2025-02-06 17:29:09,0.0
-14452,-2244,-3608,-6568,636,-1606,2025-02-06 17:29:09,0.0
-14480,-2596,-2744,-6484,-577,-1953,2025-02-06 17:29:09,0.0
-14652,-2832,-3016,-6695,-1001,-2316,2025-02-06 17:29:09,0.0
-14100,-2556,-2192,-7253,-1616,-2520,2025-02-06 17:29:10,0.0
-14344,-2352,-2164,-7511,-1602,-2457,2025-02-06 17:29:10,0.0
-13836,-1680,-4736,-7214,-1494,-2428,2025-02-06 17:29:10,0.0
-13204,-3528,-5420,-6982,283,-2885,2025-02-06 17:29:10,
-13156,-5244,-4072,-6170,2304,-3969,2025-02-06 17:29:10,0.0
-14720,-4980,-4276,-4845,3298,-4282,2025-02-06 17:29:10,0.0
-16152,-4404,-4584,-3633,2319,-3824,2025-02-06 17:29:10,0.0
-16692,-2764,-5420,-3036,1611,-2683,2025-02-06 17:29:10,0.0
-15420,-528,-6240,-3499,772,-1829,2025-02-06 17:29:10,0.0
-13160,972,-7404,-4737,-835,-2307,2025-02-06 17:29:10,0.0
-11984,1200,-7248,-5911,-2139,-2207,2025-02-06 17:29:10,0.0
-10688,1492,-6696,-6390,-1020,-1672,2025-02-06 17:29:10,0.0
-9996,1924,-7648,-6838,260,-1408,2025-02-06 17:29:10,0.0
-9332,2196,-8632,-7652,1733,-1748,2025-02-06 17:29:10,0.0
-9844,1748,-8024,-8037,2831,-2681,2025-02-06 17:29:10,0.0
-11136,1192,-7964,-8594,3407,-3041,2025-02-06 17:29:10,0.0
-11612,904,-7184,-8868,3177,-2792,2025-02-06 17:29:10,0.0
-11800,232,-7136,-8815,2828,-2624,2025-02-06 17:29:10,0.0
-11852,-124,-6672,-8919,2756,-2813,2025-02-06 17:29:10,0.0
-12248,-464,-5788,-9023,2146,-2848,2025-02-06 17:29:10,0.0
-12568,-172,-5036,-8837,1193,-2624,2025-02-06 17:29:10,0.0
-12372,252,-5100,-8490,152,-2260,2025-02-06 17:29:10,0.0
-11640,688,-5760,-8143,-531,-2045,2025-02-06 17:29:10,0.0
-11188,1008,-6248,-7823,-668,-2147,2025-02-06 17:29:10,0.0
-11076,760,-6256,-7691,-94,-2530,2025-02-06 17:29:10,0.0
-11340,580,-6124,-7683,453,-2878,2025-02-06 17:29:10,0.0
-12024,372,-5228,-7610,513,-2863,2025-02-06 17:29:10,0.0
-12328,256,-5264,-7633,76,-2841,2025-02-06 17:29:10,0.0
-12456,272,-5060,-7819,-558,-3066,2025-02-06 17:29:10,0.0
-12560,584,-5300,-8111,-1075,-3274,2025-02-06 17:29:10,0.0
-12580,972,-5524,-8516,-1602,-3487,2025-02-06 17:29:10,0.0
-12304,1528,-5768,-8990,-1989,-3717,2025-02-06 17:29:10,0.0
-12084,1804,-6020,-9666,-2163,-4158,2025-02-06 17:29:10,0.0
-11588,1972,-6068,-10658,-2537,-4887,2025-02-06 17:29:10,0.0
-11196,1640,-6260,-11723,-2620,-5773,2025-02-06 17:29:10,0.0
-11068,1128,-5928,-12756,-2193,-6310,2025-02-06 17:29:10,0.0
-11076,616,-5716,-13721,-1681,-6771,2025-02-06 17:29:10,0.0
-11520,568,-6020,-14275,-1848,-7060,2025-02-06 17:29:10,0.0
-12032,464,-6300,-14744,-1973,-7193,2025-02-06 17:29:10,0.0
-12128,248,-6060,-15120,-1842,-7520,2025-02-06 17:29:10,0.0
-12236,340,-5472,-15611,-2278,-8016,2025-02-06 17:29:10,0.0
-12268,360,-5388,-16230,-3309,-8476,2025-02-06 17:29:10,0.0
-11984,112,-5640,-16756,-3830,-8711,2025-02-06 17:29:10,0.0
-11552,-72,-6812,-17168,-3565,-8880,2025-02-06 17:29:10,0.0
-11932,-12,-7824,-17615,-2413,-8796,2025-02-06 17:29:10,0.0
-12520,336,-7744,-17932,-1079,-8286,2025-02-06 17:29:10,0.0
-13444,44,-7188,-17991,35,-7674,2025-02-06 17:29:10,0.0
-13956,-1932,-5908,-17893,550,-7356,2025-02-06 17:29:10,0.0
-15264,-4584,-3840,-16578,-731,-6913,2025-02-06 17:29:10,0.0
-15596,-5528,-3180,-14603,-2849,-5320,2025-02-06 17:29:10,0.0
-12688,-4284,-4076,-12512,-4553,-3863,2025-02-06 17:29:10,0.0
-10148,-1524,-6744,-11513,-3514,-3797,2025-02-06 17:29:10,0.0
-10028,1724,-7928,-11750,-128,-3837,2025-02-06 17:29:10,0.0
-11468,3048,-9536,-12495,2261,-4121,2025-02-06 17:29:10,0.0
-13548,2784,-8020,-13541,3098,-4535,2025-02-06 17:29:10,0.0
-14116,1452,-6024,-13912,588,-5276,2025-02-06 17:29:10,0.0
-13560,-320,-4620,-14066,-3515,-6039,2025-02-06 17:29:10,0.0
-11900,-2576,-4052,-13926,-5501,-6736,2025-02-06 17:29:10,0.0
-10276,-4308,-5148,-13818,-5126,-6837,2025-02-06 17:29:10,0.0
-9816,-5124,-6204,-13915,-2929,-6315,2025-02-06 17:29:10,0.0
-10044,-4976,-5804,-13952,701,-5271,2025-02-06 17:29:10,0.0
-10532,-4572,-4444,-13866,3643,-5099,2025-02-06 17:29:11,0.0
-12312,-5104,-3328,-14295,4452,-5706,2025-02-06 17:29:11,0.0
-14320,-6060,-1880,-14231,3440,-6581,2025-02-06 17:29:11,0.0
-15960,-7044,-700,-13432,1110,-6796,2025-02-06 17:29:11,0.0
-16476,-6968,-1552,-12273,-2030,-6074,2025-02-06 17:29:11,0.0
-15164,-5696,-2808,-11292,-4224,-4942,2025-02-06 17:29:11,0.0
-13064,-4264,-4072,-11032,-4713,-4697,2025-02-06 17:29:11,0.0
-11972,-2912,-4640,-11513,-4253,-4584,2025-02-06 17:29:11,0.0
-11500,-1944,-4484,-12040,-3336,-4281,2025-02-06 17:29:11,0.0
-10932,-1272,-4572,-12773,-2252,-3928,2025-02-06 17:29:11,0.0
-10232,-2048,-4696,-13715,-1345,-4156,2025-02-06 17:29:11,0.0
-10928,-2764,-4424,-14251,-565,-4433,2025-02-06 17:29:11,0.0
-11708,-3640,-4456,-14415,-73,-3977,2025-02-06 17:29:11,0.0
-11876,-4748,-4188,-14419,141,-3972,2025-02-06 17:29:11,0.0
-12252,-5248,-4104,-14116,514,-3950,2025-02-06 17:29:11,0.0
-12664,-5044,-4112,-13472,361,-3713,2025-02-06 17:29:11,0.0
-12700,-4836,-4564,-13052,56,-3591,2025-02-06 17:29:11,0.0
-12600,-4572,-4160,-12959,-278,-3403,2025-02-06 17:29:11,0.0
-12388,-4544,-4124,-12570,-407,-3391,2025-02-06 17:29:11,0.0
-12448,-4648,-4372,-12439,-446,-3432,2025-02-06 17:29:11,0.0
-12984,-4860,-4632,-12417,-490,-3565,2025-02-06 17:29:11,0.0
-13444,-4840,-4824,-12435,-857,-3565,2025-02-06 17:29:11,0.0
-13584,-4160,-4656,-12424,-1303,-3433,2025-02-06 17:29:11,0.0
-13208,-3404,-3704,-12436,-1626,-3534,2025-02-06 17:29:11,0.0
-13084,-2740,-3140,-12689,-2185,-3701,2025-02-06 17:29:11,0.0
-12652,-2472,-2720,-12945,-2693,-3757,2025-02-06 17:29:11,0.0
-12284,-3072,-3240,-13196,-2934,-3485,2025-02-06 17:29:11,0.0
-12048,-3356,-3920,-13120,-2913,-2890,2025-02-06 17:29:11,0.0
-11612,-3636,-4456,-12991,-2307,-2276,2025-02-06 17:29:11,0.0
-11536,-3848,-4784,-13107,-1388,-1921,2025-02-06 17:29:11,0.0
-11576,-3812,-4464,-13014,-248,-1804,2025-02-06 17:29:11,0.0
-12160,-3344,-3996,-12793,610,-1949,2025-02-06 17:29:11,0.0
-13012,-2868,-4308,-12487,679,-1871,2025-02-06 17:29:11,0.0
-13616,-2600,-3292,-11772,369,-1856,2025-02-06 17:29:11,0.0
-13520,-3192,-4196,-10724,-62,-2229,2025-02-06 17:29:11,0.0
-13580,-3432,-4876,-10028,-985,-2440,2025-02-06 17:29:11,0.0
-12564,-2412,-5528,-9532,-1639,-2344,2025-02-06 17:29:11,0.0
-11588,-1576,-5416,-9593,-1018,-2395,2025-02-06 17:29:11,0.0
-11608,-1188,-4952,-9715,737,-2226,2025-02-06 17:29:11,0.0
-12116,-804,-4824,-9858,2354,-1991,2025-02-06 17:29:11,0.0
-12808,-440,-5040,-9988,3047,-1718,2025-02-06 17:29:11,0.0
-13260,392,-4948,-10090,2845,-1511,2025-02-06 17:29:11,0.0
-13168,728,-4600,-10053,2072,-1517,2025-02-06 17:29:11,
-13056,876,-4280,-9874,1107,-1915,2025-02-06 17:29:11,0.0
-13148,860,-3868,-9768,632,-2112,2025-02-06 17:29:11,0.0
-12964,480,-3412,-9528,465,-2206,2025-02-06 17:29:11,0.0
-13012,-240,-3348,-9172,367,-2317,2025-02-06 17:29:11,0.0
-13144,-996,-2804,-8606,438,-2488,2025-02-06 17:29:11,0.0
-13388,-1232,-2800,-8065,494,-2602,2025-02-06 17:29:11,0.0
-13372,-580,-2544,-7528,416,-2663,2025-02-06 17:29:11,0.0
-13144,328,-3096,-7304,-116,-2606,2025-02-06 17:29:11,0.0
-13316,872,-3480,-7259,-391,-2373,2025-02-06 17:29:11,0.0
-12900,1036,-3940,-7158,-285,-2238,2025-02-06 17:29:11,0.0
-13008,588,-4148,-7065,320,-2131,2025-02-06 17:29:11,0.0
-13392,-28,-3880,-6839,858,-1888,2025-02-06 17:29:11,0.0
-13536,-420,-3296,-6176,724,-1770,2025-02-06 17:29:11,0.0
-13408,-400,-2760,-5214,196,-1731,2025-02-06 17:29:11,0.0
-13288,-376,-2712,-4231,-356,-1421,2025-02-06 17:29:11,0.0
-12836,-348,-3324,-3616,-676,-1275,2025-02-06 17:29:11,0.0
-12684,-340,-3636,-3095,-593,-1248,2025-02-06 17:29:11,0.0
-12528,-32,-3420,-2396,-18,-1050,2025-02-06 17:29:11,0.0
-12404,868,-3340,-1602,702,-630,2025-02-06 17:29:12,0.0
-12320,1264,-3164,-1237,1187,-470,2025-02-06 17:29:12,0.0
-12264,1256,-3300,-971,1166,-666,2025-02-06 17:29:12,0.0
-12456,1084,-3708,-787,832,-943,2025-02-06 17:29:12,0.0
-12820,980,-4192,-608,551,-1212,2025-02-06 17:29:12,0.0
-13064,1196,-4868,-726,404,-1261,2025-02-06 17:29:12,0.0
-12944,1152,-4400,-1058,86,-1430,2025-02-06 17:29:12,0.0
-12604,516,-4552,-1322,-869,-1931,2025-02-06 17:29:12,0.0
-12388,-56,-4844,-1623,-1597,-2643,2025-02-06 17:29:12,0.0
-13056,-844,-5248,-1918,-1587,-3084,2025-02-06 17:29:12,0.0
-13768,-1100,-5392,-1898,-1445,-2499,2025-02-06 17:29:12,0.0
-13280,-1060,-4676,-1341,-1938,-1755,2025-02-06 17:29:12,0.0
-12556,-968,-4196,-708,-2795,-1329,2025-02-06 17:29:12,0.0
-11904,-1288,-3912,-443,-3090,-1204,2025-02-06 17:29:12,0.0
-11416,-1580,-3600,29,-2713,-1266,2025-02-06 17:29:12,0.0
-11672,-1664,-4300,568,-1428,-1203,2025-02-06 17:29:12,0.0
-12148,-1628,-5072,888,512,-726,2025-02-06 17:29:12,0.0
-12124,-1604,-5136,1227,2569,-466,2025-02-06 17:29:12,0.0
-12212,-1088,-5024,1341,3133,-914,2025-02-06 17:29:12,0.0
-13012,-192,-4256,1377,2682,-1285,2025-02-06 17:29:12,0.0
-13556,272,-4364,1234,1750,-1200,2025-02-06 17:29:12,0.0
-13188,188,-4492,892,717,-1091,2025-02-06 17:29:12,0.0
-12956,-256,-5052,555,206,-1184,2025-02-06 17:29:12,0.0
-12664,-596,-5236,344,76,-1097,2025-02-06 17:29:12,0.0
-12624,-708,-5540,130,207,-822,2025-02-06 17:29:12,0.0
-12832,-592,-5736,-267,711,-348,2025-02-06 17:29:12,0.0
-13084,-524,-5484,-514,1343,132,2025-02-06 17:29:12,0.0
-13140,-880,-4728,-731,1637,386,2025-02-06 17:29:12,0.0
-13532,-820,-4200,-541,1527,621,2025-02-06 17:29:12,0.0
-13340,-1356,-3936,-333,809,733,2025-02-06 17:29:12,0.0
-13024,-1512,-3444,28,-18,629,2025-02-06 17:29:12,0.0
-12376,-1484,-3744,318,-682,508,2025-02-06 17:29:12,0.0
-12020,-1180,-4152,561,-567,432,2025-02-06 17:29:12,0.0
-11748,-1172,-4176,773,473,484,2025-02-06 17:29:12,0.0
-11792,-860,-4260,981,1705,546,2025-02-06 17:29:12,0.0
-12588,-520,-4520,916,2656,549,2025-02-06 17:29:12,0.0
-13448,4,-4596,709,2861,592,2025-02-06 17:29:12,0.0
-13820,420,-4936,423,1950,527,2025-02-06 17:29:12,0.0
-13764,508,-5200,-113,483,305,2025-02-06 17:29:12,0.0
-13580,416,-4944,-527,-354,22,2025-02-06 17:29:12,0.0
-13052,100,-4448,-708,-592,-154,2025-02-06 17:29:12,0.0
-12340,-36,-4588,-933,-862,-513,2025-02-06 17:29:12,0.0
-11800,-92,-4288,-1112,-982,-1250,2025-02-06 17:29:12,0.0
-12268,-616,-3900,-1100,-707,-1819,2025-02-06 17:29:12,0.0
-12708,-768,-3052,-818,-495,-1796,2025-02-06 17:29:12,0.0
-13228,-664,-2624,-437,-929,-1653,2025-02-06 17:29:12,0.0
-13336,-364,-2360,-182,-2101,-1683,2025-02-06 17:29:12,0.0
-13408,-376,-3364,-159,-3105,-1625,2025-02-06 17:29:12,0.0
-12868,-908,-4036,-43,-2967,-1418,2025-02-06 17:29:12,0.0
-12180,-1616,-4360,287,-1732,-1147,2025-02-06 17:29:12,0.0
-11928,-2016,-4872,766,-755,-955,2025-02-06 17:29:12,0.0
-11988,-2000,-5072,1113,131,-988,2025-02-06 17:29:12,0.0
-12420,-2040,-4800,1358,578,-1369,2025-02-06 17:29:12,0.0
-12704,-1744,-4004,1533,252,-1689,2025-02-06 17:29:12,0.0
-13100,-952,-3612,1918,-574,-1473,2025-02-06 17:29:12,0.0
-12404,-1204,-3328,1948,-836,-1077,2025-02-06 17:29:12,0.0
-11696,-1492,-3024,1545,792,-1497,2025-02-06 17:29:12,0.0
-12580,-1916,-3048,971,2133,-2245,2025-02-06 17:29:12,0.0
-14036,-2364,-2532,371,2061,-2719,2025-02-06 17:29:12,0.0
-15136,-2556,-1884,1,1094,-2475,2025-02-06 17:29:12,0.0
-14740,-2076,-1696,3,32,-2564,2025-02-06 17:29:13,0.0
-13744,-1608,-2144,-346,-215,-3340,2025-02-06 17:29:13,0.0
-13164,-1728,-1948,-986,-207,-4308,2025-02-06 17:29:13,0.0
-13052,-2240,-1804,-1151,2,-4145,2025-02-06 17:29:13,0.0
-11876,-3044,-2180,-1226,-68,-3174,2025-02-06 17:29:13,0.0
-10892,-3340,-2772,-1318,235,-2704,2025-02-06 17:29:13,0.0
-10736,-3212,-2956,-1464,1265,-2525,2025-02-06 17:29:13,0.0
-11460,-3012,-2444,-1622,2350,-1997,2025-02-06 17:29:13,0.0
-12008,-2692,-1452,-1703,2987,-1080,2025-02-06 17:29:13,0.0
-12524,-2704,-1068,-1714,2667,-279,2025-02-06 17:29:13,0.0
-12712,-3224,-656,-1489,2152,434,2025-02-06 17:29:13,0.0
-12736,-3680,-1024,-1144,1676,818,2025-02-06 17:29:13,0.0
-12884,-4096,-1392,-780,1437,904,2025-02-06 17:29:13,0.0
-12928,-4400,-2276,-438,1333,707,2025-02-06 17:29:13,0.0
-13432,-4076,-2956,-203,1323,85,2025-02-06 17:29:13,0.0
-13744,-3056,-3504,-287,814,-660,2025-02-06 17:29:13,0.0
-14044,-1716,-3744,-803,-166,-1548,2025-02-06 17:29:13,0.0
-13812,-960,-3564,-1715,-889,-2397,2025-02-06 17:29:13,0.0
-13552,-1164,-3544,-3002,-1438,-3167,2025-02-06 17:29:13,0.0
-13496,-1112,-3212,-4426,-1316,-3478,2025-02-06 17:29:13,0.0
-13064,-1816,-3740,-5623,-1109,-3820,2025-02-06 17:29:13,0.0
-13072,-3076,-5556,-6626,-735,-4726,2025-02-06 17:29:13,
-13348,-4968,-5268,-7126,145,-5896,2025-02-06 17:29:13,0.0
-13644,-6060,-3252,-6454,662,-6761,2025-02-06 17:29:13,0.0
-14628,-6844,-1888,-4651,-161,-6681,2025-02-06 17:29:13,0.0
-15480,-7224,-1924,-2678,-726,-5790,2025-02-06 17:29:13,0.0
-16032,-7572,-4152,-1096,-890,-4632,2025-02-06 17:29:13,0.0
-17180,-8424,-5608,-692,25,-3238,2025-02-06 17:29:13,0.0
-17708,-8056,-4704,-333,-770,-495,2025-02-06 17:29:13,0.0
-15684,-6536,-4540,577,-2505,1517,2025-02-06 17:29:13,0.0
-15540,-5088,-6156,987,-3229,2606,2025-02-06 17:29:13,0.0
-14868,-4120,-6640,1508,-3510,3825,2025-02-06 17:29:13,0.0
-13644,-2936,-7772,2190,-3824,4991,2025-02-06 17:29:13,0.0
-11764,-1292,-7508,2289,-3762,5789,2025-02-06 17:29:13,0.0
-10240,468,-7108,1805,-3483,5798,2025-02-06 17:29:13,0.0
-8796,2072,-5424,1055,-3165,5219,2025-02-06 17:29:13,0.0
-8368,2924,-5468,141,-1899,4326,2025-02-06 17:29:13,0.0
-8884,2012,-6224,-1212,3,3241,2025-02-06 17:29:13,0.0
-10576,440,-5912,-2193,1765,2374,2025-02-06 17:29:13,0.0
-12536,-964,-4912,-2635,2533,2254,2025-02-06 17:29:13,0.0
-13452,-2352,-3216,-1866,2174,2458,2025-02-06 17:29:13,0.0
-14748,-3188,-3228,-957,1520,3115,2025-02-06 17:29:13,0.0
-15024,-2784,-3776,-374,317,3653,2025-02-06 17:29:13,0.0
-14904,-1924,-3368,-90,-1065,4166,2025-02-06 17:29:13,0.0
-13584,-1460,-2644,238,-2486,4394,2025-02-06 17:29:13,0.0
-12632,-892,-2148,431,-3159,4597,2025-02-06 17:29:13,0.0
-10752,-280,-2544,566,-2599,4339,2025-02-06 17:29:13,0.0
-10160,360,-2900,556,-1428,3928,2025-02-06 17:29:13,0.0
-10612,992,-2648,692,46,3751,2025-02-06 17:29:13,0.0
-10736,1304,-2632,786,888,3471,2025-02-06 17:29:13,0.0
-11356,1068,-2468,799,1148,3016,2025-02-06 17:29:13,0.0
-11412,212,-2900,738,1349,2398,2025-02-06 17:29:13,0.0
-11112,-348,-2308,762,1634,1573,2025-02-06 17:29:13,0.0
-11036,-440,-1388,1055,1531,775,2025-02-06 17:29:13,0.0
-11280,112,-1192,1274,1424,207,2025-02-06 17:29:13,0.0
-11264,560,-1196,1422,1400,-360,2025-02-06 17:29:13,0.0
-11644,528,-916,1727,1078,-992,2025-02-06 17:29:13,0.0
-12264,200,-916,2186,870,-1253,2025-02-06 17:29:13,0.0
-12976,-232,-892,2471,741,-1039,2025-02-06 17:29:13,0.0
-13024,-184,-1620,2714,661,-751,2025-02-06 17:29:13,0.0
-13144,76,-2584,3004,687,-432,2025-02-06 17:29:14,0.0
-13156,-192,-3068,3298,998,55,2025-02-06 17:29:14,0.0
-13456,-608,-3612,3557,1059,540,2025-02-06 17:29:14,0.0
-14412,-316,-3832,3877,871,947,2025-02-06 17:29:14,0.0
-15508,928,-3956,4113,548,1812,2025-02-06 17:29:14,0.0
-15748,1680,-3528,4006,-150,2617,2025-02-06 17:29:14,0.0
-15192,1444,-2272,3959,-722,3000,2025-02-06 17:29:14,0.0
-14556,392,-968,3817,-780,3023,2025-02-06 17:29:14,0.0
-13836,-968,576,3963,27,3145,2025-02-06 17:29:14,0.0
-13312,-736,-28,4924,1003,3192,2025-02-06 17:29:14,0.0
-14200,1264,-3704,5780,2383,4023,2025-02-06 17:29:14,0.0
-15376,2200,-5312,5413,2137,4552,2025-02-06 17:29:14,0.0
-17100,3768,-6084,3968,1134,4422,2025-02-06 17:29:14,0.0
-17160,4664,-7108,1860,-608,3537,2025-02-06 17:29:14,0.0
-18012,4684,-9320,-899,-2337,2347,2025-02-06 17:29:14,0.0
-18060,4580,-9932,-2991,-1983,1666,2025-02-06 17:29:14,0.0
-14000,3384,-9312,-3694,-4177,-112,2025-02-06 17:29:14,0.0
-10456,576,-8312,-3830,-11657,-3394,2025-02-06 17:29:14,0.0
-9140,-928,-1756,-2982,-8936,-4414,2025-02-06 17:29:14,0.0
-7516,-2024,-4944,-2605,-5103,-3512,2025-02-06 17:29:14,0.0
-6928,-3732,-7040,-1644,-459,-2907,2025-02-06 17:29:14,0.0
-8248,-4852,-8796,-1234,3944,-2788,2025-02-06 17:29:14,0.0
-11224,-3856,-7016,-1114,7272,-2058,2025-02-06 17:29:14,0.0
-13248,-1788,-4120,-241,7470,-1899,2025-02-06 17:29:14,0.0
-13936,-784,-2772,314,4108,-2496,2025-02-06 17:29:14,0.0
-14280,-52,-3624,-29,1323,-4120,2025-02-06 17:29:14,0.0
-14728,180,-5152,-77,-1678,-4391,2025-02-06 17:29:14,0.0
-13652,-304,-5520,-235,-3143,-4199,2025-02-06 17:29:14,0.0
-11816,-440,-4776,-617,-2390,-4102,2025-02-06 17:29:14,0.0
-10420,-620,-3608,-1185,-1848,-4391,2025-02-06 17:29:14,0.0
-9960,-688,-3820,-1635,-1490,-4801,2025-02-06 17:29:14,0.0
-10212,-900,-4712,-2607,10,-5179,2025-02-06 17:29:14,0.0
-10444,-1628,-4224,-3156,1177,-5248,2025-02-06 17:29:14,0.0
-10600,-2560,-3144,-3197,1827,-5276,2025-02-06 17:29:14,0.0
-11280,-2944,-2904,-3123,2448,-4999,2025-02-06 17:29:14,0.0
-11712,-3492,-2924,-2949,2353,-4564,2025-02-06 17:29:14,0.0
-12300,-3456,-3564,-2679,2007,-4214,2025-02-06 17:29:14,0.0
-13216,-3516,-3900,-2401,1468,-3529,2025-02-06 17:29:14,0.0
-13692,-2808,-3200,-2232,1018,-2369,2025-02-06 17:29:14,0.0
-12628,-2464,-3040,-2118,171,-1544,2025-02-06 17:29:14,0.0
-12120,-1744,-3264,-2137,-407,-1029,2025-02-06 17:29:14,0.0
-11692,-1396,-2860,-2416,-518,-601,2025-02-06 17:29:14,0.0
-11624,-1572,-3040,-2604,-223,-326,2025-02-06 17:29:14,0.0
-11816,-2072,-3160,-2850,355,-145,2025-02-06 17:29:14,0.0
-12252,-2624,-2944,-2988,794,-75,2025-02-06 17:29:14,0.0
-12608,-3120,-3108,-3053,465,-244,2025-02-06 17:29:14,0.0
-12852,-2820,-3724,-3211,-499,-405,2025-02-06 17:29:14,0.0
-12516,-2168,-3392,-3512,-1225,-629,2025-02-06 17:29:14,0.0
-12388,-1064,-3456,-4017,-670,-722,2025-02-06 17:29:14,0.0
-12524,-588,-3808,-4637,204,-821,2025-02-06 17:29:14,0.0
-12892,-664,-3780,-5426,660,-875,2025-02-06 17:29:14,0.0
-13340,-1012,-3760,-5993,604,-962,2025-02-06 17:29:14,0.0
-13112,-1488,-3060,-6252,-132,-1481,2025-02-06 17:29:14,0.0
-13552,-1952,-3696,-6705,202,-1887,2025-02-06 17:29:14,0.0
-14136,-2676,-3804,-7070,1142,-2502,2025-02-06 17:29:14,0.0
-14532,-2760,-2788,-7066,1663,-3174,2025-02-06 17:29:14,0.0
-15120,-2864,-2032,-6903,1490,-3298,2025-02-06 17:29:14,0.0
-14752,-2844,-1184,-6976,1173,-2808,2025-02-06 17:29:14,0.0
-13708,-3824,8,-6880,1565,-2503,2025-02-06 17:29:14,0.0
-12876,-4820,-236,-6237,1873,-2465,2025-02-06 17:29:14,0.0
-13296,-5992,-3572,-5084,2640,-3223,2025-02-06 17:29:14,0.0
-14496,-6956,-3640,-3510,3311,-4654,2025-02-06 17:29:15,
-16552,-7616,-2308,-1725,3403,-4917,2025-02-06 17:29:15,0.0
-18624,-6472,-2540,120,1248,-3313,2025-02-06 17:29:15,0.0
-18432,-5504,-5240,1542,-1041,-1262,2025-02-06 17:29:15,0.0
-16452,-4960,-6604,2145,-2158,71,2025-02-06 17:29:15,0.0
-14596,-4688,-7112,2929,-2813,589,2025-02-06 17:29:15,0.0
-12960,-4124,-7180,3316,-3373,1733,2025-02-06 17:29:15,0.0
-10880,-3624,-7468,3302,-4449,2986,2025-02-06 17:29:15,0.0
-9664,-2396,-7652,2951,-4822,3837,2025-02-06 17:29:15,0.0
-9024,-748,-7308,2792,-3733,4186,2025-02-06 17:29:15,0.0
-9052,1304,-7092,2863,-2116,4189,2025-02-06 17:29:15,0.0
-10012,2608,-7572,2660,713,3890,2025-02-06 17:29:15,0.0
-10816,2308,-7492,1726,2086,3180,2025-02-06 17:29:15,0.0
-12008,120,-7664,614,2724,2468,2025-02-06 17:29:15,0.0
-13340,-2508,-5452,25,2726,2516,2025-02-06 17:29:15,0.0
-13208,-3760,-3124,822,2026,2839,2025-02-06 17:29:15,0.0
-13460,-3736,-3124,2143,1028,3403,2025-02-06 17:29:15,0.0
-13780,-2696,-3568,3181,-501,4001,2025-02-06 17:29:15,0.0
-13836,-1712,-4716,3760,-1255,5189,2025-02-06 17:29:15,0.0
-12508,-1140,-4060,3807,-1956,5476,2025-02-06 17:29:15,0.0
-11364,-332,-3536,4463,-2479,5171,2025-02-06 17:29:15,0.0
-10884,304,-3468,5036,-1925,5083,2025-02-06 17:29:15,0.0
-10492,392,-3964,4900,-865,5157,2025-02-06 17:29:15,0.0
-10320,212,-3276,4578,334,4851,2025-02-06 17:29:15,0.0
-10416,4,-3152,4514,1204,4380,2025-02-06 17:29:15,0.0
-10804,60,-2560,4655,1367,4028,2025-02-06 17:29:15,0.0
-11232,124,-2836,4754,1332,3702,2025-02-06 17:29:15,0.0
-10868,152,-3252,4592,1274,3143,2025-02-06 17:29:15,0.0
-10264,492,-2924,4345,1173,2079,2025-02-06 17:29:15,0.0
-10176,544,-2328,4044,974,832,2025-02-06 17:29:15,0.0
-10716,116,-1856,3757,502,-17,2025-02-06 17:29:15,0.0
-11384,-268,-1748,4001,438,-296,2025-02-06 17:29:15,0.0
-11852,-352,-1940,4209,721,-526,2025-02-06 17:29:15,0.0
-12608,204,-2308,4041,849,-711,2025-02-06 17:29:15,0.0
-14144,1072,-2900,3499,658,-671,2025-02-06 17:29:15,0.0
-15492,1604,-2724,3141,144,-101,2025-02-06 17:29:15,0.0
-15988,660,-2088,3250,-831,618,2025-02-06 17:29:15,0.0
-15416,-1224,-2012,3440,-2337,1146,2025-02-06 17:29:15,0.0
-14820,-1780,-2040,4025,-2840,1906,2025-02-06 17:29:15,0.0
-13556,-1084,-2564,4960,-2539,2447,2025-02-06 17:29:15,0.0
-13476,-268,-2720,4993,-1578,2719,2025-02-06 17:29:15,0.0
-12976,-516,-1188,5018,-526,2629,2025-02-06 17:29:15,0.0
-13856,-432,52,5340,842,2607,2025-02-06 17:29:15,0.0
-14964,308,44,5762,1966,3038,2025-02-06 17:29:15,0.0
-16356,1176,-1972,6172,3043,3839,2025-02-06 17:29:15,0.0
-17144,1460,-3884,6078,2886,4501,2025-02-06 17:29:15,0.0
-18368,3428,-5484,5138,913,5182,2025-02-06 17:29:15,0.0
-17588,4876,-6296,3442,-1306,5342,2025-02-06 17:29:15,0.0
-16028,4992,-7380,1102,-3152,3871,2025-02-06 17:29:15,0.0
-15900,4652,-8448,-1683,-3637,1456,2025-02-06 17:29:15,0.0
-15180,3608,-6364,-2656,-3520,23,2025-02-06 17:29:15,0.0
-10740,588,-5252,-2232,-4504,-2312,2025-02-06 17:29:15,0.0
-9224,-552,-5160,-1926,-5418,-3940,2025-02-06 17:29:15,0.0
-8600,-1816,-6312,-1193,-3542,-4003,2025-02-06 17:29:15,0.0
-8360,-3276,-7820,-734,35,-3756,2025-02-06 17:29:15,0.0
-9900,-3972,-7752,-843,4226,-3278,2025-02-06 17:29:15,0.0
-11844,-3200,-6252,-1200,6376,-2602,2025-02-06 17:29:15,0.0
-13236,-2256,-3776,-469,6259,-2400,2025-02-06 17:29:15,0.0
-13912,-1244,-2488,707,4103,-2492,2025-02-06 17:29:15,0.0
-13436,-384,-3944,475,-25,-3110,2025-02-06 17:29:15,0.0
-12676,-444,-5176,-10,-1340,-4168,2025-02-06 17:29:15,0.0
-12136,-1228,-5648,-133,-878,-5119,2025-02-06 17:29:16,0.0
-11972,-1148,-4888,-20,-276,-5121,2025-02-06 17:29:16,0.0
-11544,-1200,-3884,-146,-170,-4698,2025-02-06 17:29:16,0.0
-11128,-1128,-3396,-608,-396,-4509,2025-02-06 17:29:16,0.0
-10788,-1328,-4216,-1106,-520,-4557,2025-02-06 17:29:16,0.0
-10696,-1852,-4100,-1398,-328,-4759,2025-02-06 17:29:16,0.0
-10540,-3216,-3680,-1729,-196,-4864,2025-02-06 17:29:16,0.0
-10992,-3628,-3160,-1663,407,-4419,2025-02-06 17:29:16,0.0
-10892,-3736,-3236,-1474,923,-3473,2025-02-06 17:29:16,0.0
-11176,-3676,-2768,-1237,1480,-2640,2025-02-06 17:29:16,0.0
-11352,-3268,-2796,-1128,2210,-1927,2025-02-06 17:29:16,0.0
-12008,-2724,-3188,-1040,2468,-1352,2025-02-06 17:29:16,0.0
-12456,-2452,-2724,-1051,2104,-885,2025-02-06 17:29:16,0.0
-12816,-2100,-2188,-1154,1607,-336,2025-02-06 17:29:16,0.0
-12928,-1568,-2040,-1394,1060,80,2025-02-06 17:29:16,0.0
-12616,-1336,-2196,-1616,232,306,2025-02-06 17:29:16,0.0
-11724,-1384,-2660,-2005,-185,362,2025-02-06 17:29:16,0.0
-11040,-1436,-3084,-2567,130,43,2025-02-06 17:29:16,0.0
-10876,-1816,-4212,-3380,794,-459,2025-02-06 17:29:16,0.0
-11144,-1988,-4568,-4118,1787,-876,2025-02-06 17:29:16,0.0
-12364,-1792,-4596,-4585,2770,-1411,2025-02-06 17:29:16,0.0
-13732,-1004,-5344,-5151,3171,-1965,2025-02-06 17:29:16,0.0
-15032,-980,-4332,-5799,2972,-2875,2025-02-06 17:29:16,0.0
-15584,-2360,-3336,-6276,1594,-4105,2025-02-06 17:29:16,0.0
-16548,-2740,-2484,-6711,-736,-4418,2025-02-06 17:29:16,0.0
-16672,-2476,-1540,-6976,-2647,-3726,2025-02-06 17:29:16,0.0
-14224,-2064,-1052,-7386,-2125,-3230,2025-02-06 17:29:16,0.0
-12652,-3916,-1328,-8191,-157,-3394,2025-02-06 17:29:16,0.0
-12644,-6728,-3292,-7944,1520,-3652,2025-02-06 17:29:16,0.0
-14348,-8476,-3268,-6037,2906,-3914,2025-02-06 17:29:16,0.0
-17064,-9052,-2248,-2902,3332,-3721,2025-02-06 17:29:16,0.0
-18944,-8832,-3148,-329,274,-2453,2025-02-06 17:29:16,0.0
-19268,-7404,-6244,1271,-2764,93,2025-02-06 17:29:16,0.0
-15436,-5268,-7784,2300,-4259,1103,2025-02-06 17:29:16,0.0
-13260,-3004,-8436,2460,-4597,959,2025-02-06 17:29:16,0.0
-11896,-1200,-7704,2169,-5071,1985,2025-02-06 17:29:16,0.0
-10244,16,-7840,1697,-5603,3473,2025-02-06 17:29:16,0.0
-8700,1684,-7472,948,-4317,3899,2025-02-06 17:29:16,0.0
-8940,3084,-7812,-213,-755,3323,2025-02-06 17:29:16,0.0
-10748,3720,-7644,-1833,2551,2567,2025-02-06 17:29:16,
-12248,2420,-6916,-3066,4486,1956,2025-02-06 17:29:16,0.0
-14088,656,-4876,-3264,3611,1885,2025-02-06 17:29:16,0.0
-14388,-1468,-4600,-2753,1056,2389,2025-02-06 17:29:16,0.0
-13312,-2584,-4360,-2245,-701,2717,2025-02-06 17:29:16,0.0
-12540,-3316,-4760,-1665,-1527,2960,2025-02-06 17:29:16,0.0
-11900,-3236,-4264,-873,-1396,3574,2025-02-06 17:29:16,0.0
-10688,-3088,-3024,-6,-1260,3569,2025-02-06 17:29:16,0.0
-11148,-1716,-3144,1078,-1585,3663,2025-02-06 17:29:16,0.0
-11568,-732,-3308,1437,-1133,4145,2025-02-06 17:29:16,0.0
-11488,472,-2904,1945,-328,4366,2025-02-06 17:29:16,0.0
-11432,1040,-3016,2231,-251,4241,2025-02-06 17:29:16,0.0
-11332,1148,-3276,2131,-448,3948,2025-02-06 17:29:16,0.0
-10848,1336,-3352,1905,-563,3449,2025-02-06 17:29:16,0.0
-10396,1012,-2912,1800,-424,2720,2025-02-06 17:29:16,0.0
-10280,616,-2960,1669,-61,2077,2025-02-06 17:29:16,0.0
-9980,728,-2660,1687,397,1468,2025-02-06 17:29:16,0.0
-10380,640,-2484,1804,864,820,2025-02-06 17:29:16,0.0
-10808,308,-2048,1933,1231,195,2025-02-06 17:29:16,0.0
-11680,-464,-1568,2267,1107,-129,2025-02-06 17:29:17,0.0
-12332,-1028,-1764,2643,846,-202,2025-02-06 17:29:17,0.0
-12380,-732,-2248,3020,681,-306,2025-02-06 17:29:17,0.0
-13440,-204,-2800,3281,678,-297,2025-02-06 17:29:17,0.0
-14904,-120,-2068,3762,900,270,2025-02-06 17:29:17,0.0
-15516,-332,-1576,4238,-81,891,2025-02-06 17:29:17,0.0
-15472,-672,-1640,4584,-1863,1225,2025-02-06 17:29:17,0.0
-15536,-144,-2196,4756,-2626,1895,2025-02-06 17:29:17,0.0
-14972,1020,-2592,4949,-2673,2566,2025-02-06 17:29:17,0.0
-14144,1796,-2900,4831,-1683,3017,2025-02-06 17:29:17,0.0
-13476,976,-1588,4569,-369,2634,2025-02-06 17:29:17,0.0
-13176,-352,472,4701,619,1992,2025-02-06 17:29:17,0.0
-13296,-500,1292,5562,802,1698,2025-02-06 17:29:17,0.0
-13816,236,-524,6271,1071,1913,2025-02-06 17:29:17,0.0
-14808,1504,-2796,6346,930,1716,2025-02-06 17:29:17,0.0
-17048,3640,-5672,4998,-31,2101,2025-02-06 17:29:17,0.0
-17060,5168,-9384,2191,-317,928,2025-02-06 17:29:17,0.0
-18416,6040,-12168,-938,2645,261,2025-02-06 17:29:17,0.0
-17116,3424,-10700,-3283,1849,642,2025-02-06 17:29:17,0.0
-13196,412,-7340,-3314,-5640,-334,2025-02-06 17:29:17,0.0
-11880,-976,-988,-2127,-10621,-2613,2025-02-06 17:29:17,0.0
-7484,-2976,-3928,-1517,-6020,-3442,2025-02-06 17:29:17,0.0
-6736,-4536,-5360,-829,-2423,-3209,2025-02-06 17:29:17,0.0
-8312,-5348,-7340,184,2266,-3038,2025-02-06 17:29:17,0.0
-11356,-4488,-7496,826,6203,-2289,2025-02-06 17:29:17,0.0
-13876,-2484,-5440,1188,7388,-1296,2025-02-06 17:29:17,0.0
-14244,-1972,-3792,1354,5574,-1077,2025-02-06 17:29:17,0.0
-15364,24,-3748,1050,2283,-2812,2025-02-06 17:29:17,0.0
-14936,524,-4648,202,-854,-3243,2025-02-06 17:29:17,0.0
-13008,20,-4844,19,-2193,-3408,2025-02-06 17:29:17,0.0
-11660,-284,-5136,-34,-1863,-3238,2025-02-06 17:29:17,0.0
-10464,-816,-4660,-504,-567,-2929,2025-02-06 17:29:17,0.0
-10204,-1484,-3840,-714,407,-2955,2025-02-06 17:29:17,0.0
-10540,-2004,-3592,-782,1323,-3241,2025-02-06 17:29:17,0.0
-11216,-2760,-3168,-1043,1515,-3474,2025-02-06 17:29:17,0.0
-12132,-3432,-2592,-1058,916,-3516,2025-02-06 17:29:17,0.0
-12556,-3944,-2268,-549,156,-3140,2025-02-06 17:29:17,0.0
-12772,-3840,-2804,191,-157,-2146,2025-02-06 17:29:17,0.0
-11968,-3744,-3284,742,-297,-945,2025-02-06 17:29:17,0.0
-11756,-3812,-2080,1377,-458,-440,2025-02-06 17:29:17,0.0
-11544,-2996,-2736,1451,-684,-328,2025-02-06 17:29:17,0.0
-11980,-2384,-2804,1348,-797,-125,2025-02-06 17:29:17,0.0
-12236,-1132,-2324,1095,-1149,8,2025-02-06 17:29:17,0.0
-12736,-168,-2284,665,-1342,177,2025-02-06 17:29:17,0.0
-12528,-72,-2448,83,-1181,487,2025-02-06 17:29:17,0.0
-11716,-840,-2972,-423,-721,826,2025-02-06 17:29:17,0.0
-10864,-1692,-2880,-834,-57,1015,2025-02-06 17:29:17,0.0
-10172,-2272,-3476,-1378,671,964,2025-02-06 17:29:17,0.0
-10380,-2488,-3764,-2066,1848,849,2025-02-06 17:29:17,0.0
-11136,-2180,-4200,-2752,3114,611,2025-02-06 17:29:17,0.0
-12772,-1568,-3952,-3615,3844,182,2025-02-06 17:29:17,0.0
-14576,-816,-3784,-4473,3484,-45,2025-02-06 17:29:17,0.0
-15008,-1260,-2596,-5062,2241,-343,2025-02-06 17:29:17,0.0
-15308,-2028,-2244,-5019,1487,-234,2025-02-06 17:29:17,0.0
-15044,-2924,-1792,-5468,553,-354,2025-02-06 17:29:17,0.0
-14876,-2688,-1136,-5918,-751,-707,2025-02-06 17:29:17,0.0
-14208,-1604,-1360,-6392,-1318,-1071,2025-02-06 17:29:17,0.0
-13264,-580,-2636,-6684,-1527,-1780,2025-02-06 17:29:17,0.0
-13180,-800,-5676,-6806,-725,-2589,2025-02-06 17:29:17,0.0
-13060,-3600,-6876,-6289,2124,-4139,2025-02-06 17:29:17,0.0
-13464,-7064,-6236,-4012,4279,-7061,2025-02-06 17:29:17,0.0
-15452,-9636,-5440,-228,2851,-9818,2025-02-06 17:29:17,0.0
-19700,-9588,-5648,2891,212,-8150,2025-02-06 17:29:17,0.0
-21996,-7016,-7936,3900,-263,-3039,2025-02-06 17:29:18,0.0
-19312,-2836,-8576,3216,-730,1500,2025-02-06 17:29:18,0.0
-15656,652,-8480,1376,-3180,3136,2025-02-06 17:29:18,0.0
-13152,2400,-7044,-918,-6611,4942,2025-02-06 17:29:18,0.0
-9932,2132,-6608,-1068,-6490,5611,2025-02-06 17:29:18,0.0
-7388,2080,-7124,-1146,-3506,4549,2025-02-06 17:29:18,0.0
-6532,2208,-6156,-1718,997,2096,2025-02-06 17:29:18,0.0
-8964,1440,-5772,-2574,4836,193,2025-02-06 17:29:18,0.0
-12808,264,-4316,-2908,6197,333,2025-02-06 17:29:18,0.0
-15212,-884,-5216,-1986,5613,1266,2025-02-06 17:29:18,0.0
-16404,-1828,-6552,-1991,2454,1952,2025-02-06 17:29:18,0.0
-15516,-2800,-5448,-1726,-118,2880,2025-02-06 17:29:18,0.0
-13540,-2468,-4348,-884,-1246,3428,2025-02-06 17:29:18,0.0
-12020,-1516,-3596,-25,-1082,3613,2025-02-06 17:29:18,0.0
-10884,-752,-3616,646,-687,3709,2025-02-06 17:29:18,0.0
-9904,-308,-4644,1230,-402,3609,2025-02-06 17:29:18,0.0
-10068,48,-4420,1687,306,3279,2025-02-06 17:29:18,0.0
-10172,688,-4468,1700,1300,3063,2025-02-06 17:29:18,0.0
-10516,1200,-4672,1558,2116,2903,2025-02-06 17:29:18,
-11104,1768,-4928,1509,2218,2637,2025-02-06 17:29:18,0.0
-11264,1888,-5204,1492,1625,2255,2025-02-06 17:29:18,0.0
-11648,1404,-5164,1475,1072,1845,2025-02-06 17:29:18,0.0
-12060,732,-4844,1619,736,1581,2025-02-06 17:29:18,0.0
-11952,164,-4940,1640,771,1364,2025-02-06 17:29:18,0.0
-12128,-252,-4956,1795,726,1161,2025-02-06 17:29:18,0.0
-12320,72,-5368,2061,199,921,2025-02-06 17:29:18,0.0
-12504,440,-5320,2327,121,824,2025-02-06 17:29:18,0.0
-12660,76,-4104,2533,578,661,2025-02-06 17:29:18,0.0
-12664,-488,-3332,2721,725,531,2025-02-06 17:29:18,0.0
-12832,-916,-3292,2986,98,491,2025-02-06 17:29:18,0.0
-12688,-840,-4068,3303,-780,423,2025-02-06 17:29:18,0.0
-12228,-756,-3724,3900,-1096,154,2025-02-06 17:29:18,0.0
-11560,-692,-3492,4338,-970,-312,2025-02-06 17:29:18,0.0
-11060,-680,-3592,4614,-1089,-772,2025-02-06 17:29:18,0.0
-10784,-688,-3892,4830,-981,-1069,2025-02-06 17:29:18,0.0
-11016,-184,-4140,4833,-254,-1215,2025-02-06 17:29:18,0.0
-11336,100,-5052,4533,683,-1304,2025-02-06 17:29:18,0.0
-11736,-16,-5312,3864,1240,-1999,2025-02-06 17:29:18,0.0
-13680,568,-6260,2921,846,-2299,2025-02-06 17:29:18,0.0
-14728,1324,-7196,1832,-186,-1920,2025-02-06 17:29:18,0.0
-15940,2052,-7140,611,-1560,-1463,2025-02-06 17:29:18,0.0
-15832,2312,-6272,-523,-2754,-940,2025-02-06 17:29:18,0.0
-14504,1068,-5100,-1336,-4021,-733,2025-02-06 17:29:18,0.0
-12936,28,-5848,-1706,-5347,-494,2025-02-06 17:29:18,0.0
-11528,-560,-5696,-1513,-5722,-450,2025-02-06 17:29:18,0.0
-10164,216,-5868,-1347,-3881,-325,2025-02-06 17:29:18,0.0
-9192,876,-6144,-1969,-1627,-371,2025-02-06 17:29:18,0.0
-8988,992,-5704,-2810,108,-839,2025-02-06 17:29:18,0.0
-10764,-200,-5400,-3192,1667,-941,2025-02-06 17:29:18,0.0
-12044,-1280,-4536,-2991,2820,-754,2025-02-06 17:29:18,0.0
-12868,-1840,-3744,-2534,2867,-759,2025-02-06 17:29:18,0.0
-13384,-2024,-3348,-1982,2126,-647,2025-02-06 17:29:18,0.0
-13328,-1764,-3808,-1339,1258,-418,2025-02-06 17:29:18,0.0
-12520,-1332,-4628,-991,1233,-319,2025-02-06 17:29:18,0.0
-12032,-1128,-4432,-909,1871,-418,2025-02-06 17:29:18,0.0
-12232,-1260,-4388,-519,2604,-383,2025-02-06 17:29:18,0.0
-12288,-1792,-4624,-17,2840,-449,2025-02-06 17:29:18,0.0
-12792,-1760,-4488,494,2967,-525,2025-02-06 17:29:18,0.0
-13288,-1412,-4948,779,2736,-446,2025-02-06 17:29:18,0.0
-13864,-804,-4932,929,2044,-164,2025-02-06 17:29:18,0.0
-14144,-592,-4780,868,1283,158,2025-02-06 17:29:18,0.0
-13848,-824,-4604,794,869,390,2025-02-06 17:29:19,0.0
-13452,-760,-4372,997,503,576,2025-02-06 17:29:19,0.0
-12996,-688,-4496,960,264,537,2025-02-06 17:29:19,0.0
-12840,-732,-4364,939,74,358,2025-02-06 17:29:19,0.0
-12836,-704,-4268,1168,-218,317,2025-02-06 17:29:19,0.0
-12680,-820,-4400,1216,-175,334,2025-02-06 17:29:19,0.0
-12584,-660,-4248,1237,8,367,2025-02-06 17:29:19,0.0
-12276,-544,-4244,1298,150,383,2025-02-06 17:29:19,0.0
-11812,-860,-4600,1395,369,389,2025-02-06 17:29:19,0.0
-11724,-1388,-4724,1507,1150,353,2025-02-06 17:29:19,0.0
-12476,-1780,-5032,1959,2501,176,2025-02-06 17:29:19,0.0
-13572,-1592,-4888,2377,2806,289,2025-02-06 17:29:19,0.0
-14124,-928,-4612,2801,2035,578,2025-02-06 17:29:19,0.0
-13872,-468,-4000,3213,360,756,2025-02-06 17:29:19,0.0
-13548,-296,-4128,3652,-1172,778,2025-02-06 17:29:19,0.0
-12636,-960,-4516,3903,-2133,530,2025-02-06 17:29:19,0.0
-12188,-1736,-4560,4400,-2273,455,2025-02-06 17:29:19,0.0
-11472,-2420,-4636,5324,-1645,1043,2025-02-06 17:29:19,0.0
-11112,-2840,-4420,5972,-680,1392,2025-02-06 17:29:19,0.0
-11232,-2556,-4660,6488,232,1641,2025-02-06 17:29:19,0.0
-11824,-1772,-4968,6937,785,2155,2025-02-06 17:29:19,0.0
-11948,-1036,-5272,7330,1176,2596,2025-02-06 17:29:19,0.0
-11812,-772,-4944,7839,1327,2637,2025-02-06 17:29:19,0.0
-11892,-1460,-4384,8586,1632,2611,2025-02-06 17:29:19,0.0
-12128,-2464,-4276,9231,2114,2658,2025-02-06 17:29:19,0.0
-12440,-3624,-4664,10016,2758,2446,2025-02-06 17:29:19,0.0
-12580,-4348,-4660,10947,3023,2020,2025-02-06 17:29:19,0.0
-12972,-4256,-4608,12146,3440,1974,2025-02-06 17:29:19,0.0
-12424,-3884,-4872,13425,3748,2108,2025-02-06 17:29:19,0.0
-11312,-3536,-5144,14756,4785,1869,2025-02-06 17:29:19,0.0
-10728,-3460,-4812,15610,6605,1782,2025-02-06 17:29:19,0.0
-10492,-3624,-4436,16913,8989,2030,2025-02-06 17:29:19,0.0
-11040,-4024,-4144,18363,11107,2213,2025-02-06 17:29:19,0.0
-12900,-4388,-3412,19276,11505,2990,2025-02-06 17:29:19,0.0
-15228,-5000,-3760,19527,9893,4393,2025-02-06 17:29:19,0.0
-16800,-4764,-4592,19572,6155,6200,2025-02-06 17:29:19,0.0
-16604,-3664,-5540,19912,2335,7410,2025-02-06 17:29:19,0.0
-15604,-2312,-5724,19972,-310,7670,2025-02-06 17:29:19,0.0
-14836,-1024,-4652,19626,-2528,8145,2025-02-06 17:29:19,0.0
-13684,-496,-2628,19457,-3863,9364,2025-02-06 17:29:19,0.0
-11396,-544,-2596,19017,-3599,11072,2025-02-06 17:29:19,0.0
-9172,-1140,-3848,18365,-1340,11836,2025-02-06 17:29:19,0.0
-7824,-2844,-6072,17478,1533,11554,2025-02-06 17:29:19,0.0
-8448,-5132,-7836,16734,4560,10692,2025-02-06 17:29:19,0.0
-9996,-7040,-7748,16547,6876,9349,2025-02-06 17:29:19,0.0
-12104,-8224,-7188,16378,7012,8537,2025-02-06 17:29:19,0.0
-14080,-8420,-6612,16234,5096,8504,2025-02-06 17:29:19,0.0
-14120,-8104,-5372,16361,2680,8074,2025-02-06 17:29:19,0.0
-14236,-6760,-5340,16653,-13,7677,2025-02-06 17:29:19,0.0
-12588,-6172,-5992,16121,-1394,7582,2025-02-06 17:29:19,0.0
-11396,-5668,-6728,15782,-1911,7499,2025-02-06 17:29:19,0.0
-10956,-4792,-6560,15602,-1705,7949,2025-02-06 17:29:19,0.0
-10240,-4440,-7380,15444,-1182,8547,2025-02-06 17:29:19,0.0
-10288,-4436,-7352,15193,-285,8524,2025-02-06 17:29:19,0.0
-10764,-4220,-6072,14771,867,8224,2025-02-06 17:29:19,0.0
-11716,-4080,-5620,14905,1427,7817,2025-02-06 17:29:19,0.0
-12844,-3548,-4536,14895,1485,7511,2025-02-06 17:29:19,0.0
-13564,-3292,-4868,14687,418,7529,2025-02-06 17:29:19,
-13508,-2780,-5692,14729,-807,7687,2025-02-06 17:29:19,0.0
-12940,-2144,-6184,14901,-1494,7875,2025-02-06 17:29:19,0.0
-11688,-2412,-6408,15750,-1564,7640,2025-02-06 17:29:19,0.0
-10624,-3192,-7364,16492,-1745,7419,2025-02-06 17:29:20,0.0
-10168,-3192,-7820,16767,-1430,7330,2025-02-06 17:29:20,0.0
-10608,-1720,-7516,16925,-986,7858,2025-02-06 17:29:20,0.0
-11428,12,-6980,17004,-202,8911,2025-02-06 17:29:20,0.0
-11584,1700,-7564,16764,868,9987,2025-02-06 17:29:20,0.0
-11316,3596,-7372,16299,1325,10336,2025-02-06 17:29:20,0.0
-10424,3936,-7516,15682,1113,8766,2025-02-06 17:29:20,0.0
-11356,3372,-8080,15520,2065,6346,2025-02-06 17:29:20,0.0
-13592,1632,-8200,15205,3680,5269,2025-02-06 17:29:20,0.0
-15508,388,-6268,15401,3514,5797,2025-02-06 17:29:20,0.0
-14992,-500,-4700,15501,2535,6713,2025-02-06 17:29:20,0.0
-14148,-1124,-4628,15576,1060,7236,2025-02-06 17:29:20,0.0
-13512,-696,-5296,15624,-49,7683,2025-02-06 17:29:20,0.0
-12516,-180,-5764,15604,-769,8006,2025-02-06 17:29:20,0.0
-11044,-68,-6052,15574,-1153,7745,2025-02-06 17:29:20,0.0
-10104,528,-6260,15467,-991,7051,2025-02-06 17:29:20,0.0
-9924,1072,-6056,15463,-343,6359,2025-02-06 17:29:20,0.0
-10180,1276,-5496,15443,621,6042,2025-02-06 17:29:20,0.0
-10680,676,-5076,15165,1688,5582,2025-02-06 17:29:20,0.0
-10820,380,-5776,14656,1785,4945,2025-02-06 17:29:20,0.0
-11524,328,-5964,13642,1395,4305,2025-02-06 17:29:20,0.0
-12608,1052,-6240,12903,620,4056,2025-02-06 17:29:20,0.0
-12640,2000,-7316,12033,-415,4181,2025-02-06 17:29:20,0.0
-12588,2868,-8192,10855,-1656,4287,2025-02-06 17:29:20,0.0
-12236,3740,-6368,9070,-547,4037,2025-02-06 17:29:20,0.0
-11520,3632,-4340,8323,318,3791,2025-02-06 17:29:20,0.0
-11148,3916,-2692,8537,-258,3169,2025-02-06 17:29:20,0.0
-10128,2408,-3496,8042,-1066,1655,2025-02-06 17:29:20,0.0
-10008,728,-3444,7532,-1078,-370,2025-02-06 17:29:20,0.0
-10564,-1124,-3640,7464,-479,-2043,2025-02-06 17:29:20,0.0
-11344,-2028,-4300,7697,665,-2837,2025-02-06 17:29:20,0.0
-12800,-1676,-6892,7867,1760,-2838,2025-02-06 17:29:20,0.0
-14548,-1956,-8872,7301,2903,-2104,2025-02-06 17:29:20,0.0
-16112,-2200,-8944,6330,4098,-444,2025-02-06 17:29:20,0.0
-15676,-2772,-6776,5691,3529,1004,2025-02-06 17:29:20,0.0
-13760,-3064,-3388,6227,1381,1125,2025-02-06 17:29:20,0.0
-9572,-3984,-2068,7965,-98,799,2025-02-06 17:29:20,0.0
-10016,-4376,-3656,8803,2316,712,2025-02-06 17:29:20,0.0
-11696,-4168,-5528,9100,4956,629,2025-02-06 17:29:20,0.0
-13696,-3688,-6148,8636,6408,445,2025-02-06 17:29:20,0.0
-15516,-3096,-4548,8301,5575,367,2025-02-06 17:29:20,0.0
-16180,-2144,-3496,8198,1963,806,2025-02-06 17:29:20,0.0
-15200,-1608,-3588,7991,-1507,1317,2025-02-06 17:29:20,0.0
-13232,-1684,-3996,7633,-2324,1873,2025-02-06 17:29:20,0.0
-11172,-2072,-4420,6890,-1830,1964,2025-02-06 17:29:20,0.0
-9864,-2448,-4896,6005,-694,1626,2025-02-06 17:29:20,0.0
-9928,-2576,-5168,5130,359,1331,2025-02-06 17:29:20,0.0
-10736,-2776,-4732,4504,893,1217,2025-02-06 17:29:20,0.0
-11548,-2520,-4456,4240,816,1451,2025-02-06 17:29:20,0.0
-11752,-2368,-4368,4061,690,1806,2025-02-06 17:29:20,0.0
-12260,-1920,-4628,3861,608,2210,2025-02-06 17:29:20,0.0
-12844,-1400,-5124,3609,1201,2681,2025-02-06 17:29:20,0.0
-12892,-1304,-4904,3605,2429,2506,2025-02-06 17:29:20,0.0
-13140,-1852,-6220,3551,3045,1655,2025-02-06 17:29:20,0.0
-14496,-2940,-7232,2826,2598,1223,2025-02-06 17:29:20,0.0
-14576,-3424,-5760,2630,989,1066,2025-02-06 17:29:20,0.0
-14108,-3292,-5068,2750,-926,1121,2025-02-06 17:29:20,0.0
-12784,-2696,-4964,2735,-2139,1214,2025-02-06 17:29:20,0.0
-11948,-2512,-4624,2853,-2351,1261,2025-02-06 17:29:20,0.0
-11068,-2124,-4448,3029,-1754,1217,2025-02-06 17:29:20,0.0
-10884,-1592,-4916,2982,-277,1028,2025-02-06 17:29:21,0.0
-11368,-1304,-4800,2672,1073,703,2025-02-06 17:29:21,0.0
-12256,-1064,-4788,2316,1663,417,2025-02-06 17:29:21,0.0
-12580,-1032,-4580,1991,1541,212,2025-02-06 17:29:21,0.0
-12780,-1348,-4344,1578,1174,100,2025-02-06 17:29:21,0.0
-12764,-1660,-4444,1241,736,23,2025-02-06 17:29:21,0.0
-12796,-1940,-4792,983,275,83,2025-02-06 17:29:21,0.0
-12508,-1840,-5476,771,-49,171,2025-02-06 17:29:21,0.0
-12264,-1652,-5784,556,75,15,2025-02-06 17:29:21,0.0
-12012,-1516,-5772,165,349,-164,2025-02-06 17:29:21,0.0
-12064,-1800,-5036,77,717,-210,2025-02-06 17:29:21,0.0
-11936,-2224,-4908,150,928,-186,2025-02-06 17:29:21,0.0
-11988,-2376,-4816,178,969,-278,2025-02-06 17:29:21,0.0
-12496,-2344,-4904,282,971,-311,2025-02-06 17:29:21,0.0
-12656,-2176,-4632,234,991,-398,2025-02-06 17:29:21,0.0
-13136,-1908,-4816,180,780,-395,2025-02-06 17:29:21,0.0
-13220,-1920,-4632,-18,311,-496,2025-02-06 17:29:21,0.0
-13108,-1908,-4776,-264,-242,-686,2025-02-06 17:29:21,0.0
-12892,-2108,-4276,-385,-486,-940,2025-02-06 17:29:21,0.0
-12564,-2052,-4288,-319,-126,-1093,2025-02-06 17:29:21,0.0
-12668,-2028,-4384,-399,98,-1215,2025-02-06 17:29:21,0.0
-12532,-1960,-4468,-491,295,-1419,2025-02-06 17:29:21,0.0
-12600,-2252,-4020,-453,309,-1661,2025-02-06 17:29:21,0.0
-12720,-2456,-3728,-256,116,-1676,2025-02-06 17:29:21,0.0
-12532,-2724,-3724,300,26,-1607,2025-02-06 17:29:21,0.0
-12304,-3308,-3568,669,34,-1789,2025-02-06 17:29:21,0.0
-12568,-4028,-3072,856,331,-1901,2025-02-06 17:29:21,0.0
-13160,-4304,-3116,1014,-346,-1595,2025-02-06 17:29:21,0.0
-13608,-3268,-3316,1082,-1518,-947,2025-02-06 17:29:21,0.0
-13260,-2196,-3672,1004,-1942,-852,2025-02-06 17:29:21,0.0
-12952,-1180,-3912,340,-1540,-1257,2025-02-06 17:29:21,0.0
-12684,-672,-3356,-715,-759,-1697,2025-02-06 17:29:21,0.0
-12148,-1028,-3112,-1780,-93,-2161,2025-02-06 17:29:21,0.0
-12128,-1724,-2988,-2615,318,-2864,2025-02-06 17:29:21,0.0
-12424,-2856,-2592,-2950,278,-3557,2025-02-06 17:29:21,0.0
-12920,-3908,-1912,-2797,-447,-3799,2025-02-06 17:29:21,0.0
-12900,-4480,-1848,-2633,-1150,-3452,2025-02-06 17:29:21,
-12320,-4352,-1748,-2473,-1731,-3018,2025-02-06 17:29:21,0.0
-11668,-4084,-1984,-2485,-1763,-2847,2025-02-06 17:29:21,0.0
-11256,-3820,-2532,-2735,-1498,-2645,2025-02-06 17:29:21,0.0
-11472,-3804,-2732,-2929,-399,-2322,2025-02-06 17:29:21,0.0
-11704,-4048,-2728,-2880,542,-2269,2025-02-06 17:29:21,0.0
-12288,-4256,-2652,-2630,1234,-2036,2025-02-06 17:29:21,0.0
-12856,-4308,-2492,-2452,1454,-1586,2025-02-06 17:29:21,0.0
-13240,-4076,-2124,-2414,1133,-1108,2025-02-06 17:29:21,0.0
-13468,-3684,-2468,-2511,640,-854,2025-02-06 17:29:21,0.0
-13572,-3300,-2564,-2988,269,-792,2025-02-06 17:29:21,0.0
-12284,-5084,-2020,-4807,-5,-1408,2025-02-06 17:29:21,0.0
-12564,-5500,-2192,-4785,108,-1349,2025-02-06 17:29:21,0.0
-12788,-5396,-2248,-4792,98,-1410,2025-02-06 17:29:21,0.0
-13124,-5076,-2116,-4736,-3,-1365,2025-02-06 17:29:21,0.0
-13884,-4820,-2268,-4868,236,-948,2025-02-06 17:29:21,0.0
-14556,-5004,-1680,-5090,795,-290,2025-02-06 17:29:21,0.0
-14816,-5444,-1320,-5394,1273,341,2025-02-06 17:29:21,0.0
-14676,-6484,-2960,-4948,1310,-167,2025-02-06 17:29:21,0.0
-15868,-7468,-4752,-4082,1601,-1671,2025-02-06 17:29:21,0.0
-16500,-8124,-3600,-1989,2495,-3147,2025-02-06 17:29:22,0.0
-17280,-8452,-4540,1135,628,-3851,2025-02-06 17:29:22,0.0
-19116,-7488,-6032,2846,-1533,-2419,2025-02-06 17:29:22,0.0
-17816,-6296,-6600,2658,-1161,335,2025-02-06 17:29:22,0.0
-15236,-5396,-5808,2395,-2342,1525,2025-02-06 17:29:22,0.0
-13924,-4364,-6572,1981,-4921,4016,2025-02-06 17:29:22,0.0
-12016,-3316,-7548,1864,-6315,6343,2025-02-06 17:29:22,0.0
-9564,-2092,-8268,1914,-5920,7204,2025-02-06 17:29:22,0.0
-7564,-900,-7400,2109,-4283,6171,2025-02-06 17:29:22,0.0
-7508,516,-6100,2505,-1596,3960,2025-02-06 17:29:22,0.0
-10204,1284,-6168,2071,1264,3089,2025-02-06 17:29:22,0.0
-13136,1224,-6452,1118,2397,4049,2025-02-06 17:29:22,0.0
-13348,92,-5756,617,1292,4929,2025-02-06 17:29:22,0.0
-11764,-2296,-5548,594,-327,4428,2025-02-06 17:29:22,0.0
-11488,-3688,-5260,561,365,4169,2025-02-06 17:29:22,0.0
-12176,-3900,-3848,1536,644,4529,2025-02-06 17:29:22,0.0
-12748,-3992,-3716,2518,524,5126,2025-02-06 17:29:22,0.0
-13168,-3024,-3416,3399,-121,5684,2025-02-06 17:29:22,0.0
-12952,-1992,-3028,4010,-1091,6060,2025-02-06 17:29:22,0.0
-12420,-608,-3216,4477,-2068,6288,2025-02-06 17:29:22,0.0
-11656,232,-3592,4878,-2473,6536,2025-02-06 17:29:22,0.0
-10852,976,-4140,5125,-1958,6582,2025-02-06 17:29:22,0.0
-10072,848,-4104,5025,-828,5973,2025-02-06 17:29:22,0.0
-9928,464,-3608,4709,456,5157,2025-02-06 17:29:22,0.0
-10104,-12,-3704,4525,1050,4317,2025-02-06 17:29:22,0.0
-10300,596,-3532,4509,708,3587,2025-02-06 17:29:22,0.0
-10108,912,-3628,4510,164,2612,2025-02-06 17:29:22,0.0
-9932,1276,-4104,4228,-28,1429,2025-02-06 17:29:22,0.0
-10324,1340,-4092,3669,41,441,2025-02-06 17:29:22,0.0
-10952,1260,-4092,3027,91,-84,2025-02-06 17:29:22,0.0
-11692,520,-3436,2539,107,-296,2025-02-06 17:29:22,0.0
-12320,-260,-2740,2289,127,-378,2025-02-06 17:29:22,0.0
-12668,-640,-2292,2312,113,-336,2025-02-06 17:29:22,0.0
-12928,-148,-2584,2279,-385,-200,2025-02-06 17:29:22,0.0
-12852,876,-2968,2333,-1127,-90,2025-02-06 17:29:22,0.0
-12496,1388,-2528,2484,-1334,-218,2025-02-06 17:29:22,0.0
-12076,388,-1888,2573,-1390,-520,2025-02-06 17:29:22,0.0
-12212,-188,-1508,2763,-1154,-448,2025-02-06 17:29:22,0.0
-12532,-684,-2172,3290,-785,-318,2025-02-06 17:29:22,0.0
-13664,-952,-2580,4010,547,-73,2025-02-06 17:29:22,0.0
-15136,-1280,-2680,4601,1533,700,2025-02-06 17:29:22,0.0
-15508,-1444,-1680,4711,1625,1111,2025-02-06 17:29:22,0.0
-14908,-1536,-688,4786,1442,1265,2025-02-06 17:29:22,0.0
-13280,-488,-624,5151,1772,1000,2025-02-06 17:29:22,0.0
-12108,772,-852,4877,1904,69,2025-02-06 17:29:22,0.0
-14628,1912,-2052,4080,2971,104,2025-02-06 17:29:22,0.0
-17984,2032,-4836,3399,5317,1339,2025-02-06 17:29:22,0.0
-20344,3112,-6340,2289,7215,2890,2025-02-06 17:29:22,0.0
-20372,3876,-6508,780,7704,4002,2025-02-06 17:29:22,0.0
-18616,4440,-7680,-1190,6474,3628,2025-02-06 17:29:22,0.0
-15940,4264,-9020,-3567,3466,1881,2025-02-06 17:29:22,0.0
-13652,3164,-10368,-5146,-911,-533,2025-02-06 17:29:22,0.0
-12092,660,-9772,-5493,-6171,-2823,2025-02-06 17:29:22,0.0
-11260,-1548,-7912,-5437,-13300,-3734,2025-02-06 17:29:22,0.0
-13728,-2516,3588,-3783,-11742,-3764,2025-02-06 17:29:22,0.0
-6744,-3472,-2368,-1668,-4391,-3118,2025-02-06 17:29:22,0.0
-5992,-3616,-5188,-549,-1569,-2101,2025-02-06 17:29:22,0.0
-6408,-3548,-8624,-302,2150,-2056,2025-02-06 17:29:22,0.0
-8652,-2716,-9140,-460,6824,-2366,2025-02-06 17:29:22,0.0
-11932,-1972,-6860,-259,9558,-2388,2025-02-06 17:29:22,0.0
-14176,-1220,-4472,179,8452,-2467,2025-02-06 17:29:23,0.0
-14928,-1064,-3228,321,3627,-3370,2025-02-06 17:29:23,0.0
-14900,-132,-4220,-332,-2211,-3870,2025-02-06 17:29:23,0.0
-13796,32,-4936,-909,-5882,-4329,2025-02-06 17:29:23,0.0
-11812,-516,-6544,-1654,-5855,-4719,2025-02-06 17:29:23,0.0
-10912,-388,-7456,-2417,-4585,-5016,2025-02-06 17:29:23,0.0
-9932,-532,-7276,-3272,-2120,-4499,2025-02-06 17:29:23,0.0
-8912,-1204,-5252,-3817,-250,-4751,2025-02-06 17:29:23,0.0
-9896,-1764,-4432,-4000,1241,-5070,2025-02-06 17:29:23,0.0
-10660,-2732,-3912,-4172,1462,-5118,2025-02-06 17:29:23,0.0
-10848,-3652,-3880,-4148,974,-5133,2025-02-06 17:29:23,0.0
-11992,-4076,-3652,-3865,892,-4729,2025-02-06 17:29:23,0.0
-12260,-4316,-4148,-3185,958,-4067,2025-02-06 17:29:23,0.0
-12560,-4328,-3416,-2733,1317,-3455,2025-02-06 17:29:23,0.0
-12132,-3896,-3884,-2365,711,-3136,2025-02-06 17:29:23,0.0
-12264,-3416,-3356,-2075,-118,-2735,2025-02-06 17:29:23,0.0
-12284,-2948,-3288,-1750,-466,-1996,2025-02-06 17:29:23,0.0
-12284,-2676,-3236,-1714,75,-1346,2025-02-06 17:29:23,0.0
-12000,-2432,-2740,-1830,464,-821,2025-02-06 17:29:23,0.0
-11832,-2048,-2400,-1700,627,-46,2025-02-06 17:29:23,0.0
-11728,-2300,-3268,-1759,668,331,2025-02-06 17:29:23,
-11808,-2668,-3036,-1946,806,491,2025-02-06 17:29:23,0.0
-12108,-2964,-3468,-2160,751,428,2025-02-06 17:29:23,0.0
-12484,-3024,-3592,-2551,839,417,2025-02-06 17:29:23,0.0
-12904,-3100,-3508,-2842,1321,346,2025-02-06 17:29:23,0.0
-13336,-2504,-3424,-3038,1417,155,2025-02-06 17:29:23,0.0
-13644,-1088,-3512,-3341,709,-301,2025-02-06 17:29:23,0.0
-13364,-720,-4028,-3840,340,-708,2025-02-06 17:29:23,0.0
-12812,-1212,-4764,-4665,-82,-1804,2025-02-06 17:29:23,0.0
-13352,-1828,-4408,-5836,-271,-2733,2025-02-06 17:29:23,0.0
-14796,-2240,-2912,-6571,-144,-2930,2025-02-06 17:29:23,0.0
-15568,-3060,-2484,-6317,-145,-2576,2025-02-06 17:29:23,0.0
-14984,-4556,-4340,-6178,-42,-3195,2025-02-06 17:29:23,0.0
-15284,-6092,-4188,-5610,401,-4763,2025-02-06 17:29:23,0.0
-15984,-7872,-3608,-4157,324,-6007,2025-02-06 17:29:23,0.0
-17544,-8920,-2936,-1840,-1186,-5927,2025-02-06 17:29:23,0.0
-18744,-8400,-2952,572,-3066,-3538,2025-02-06 17:29:23,0.0
-17440,-7220,-3380,1996,-3623,-664,2025-02-06 17:29:23,0.0
-14548,-6156,-4484,2535,-3339,442,2025-02-06 17:29:23,0.0
-14344,-5516,-5364,2041,-3109,1165,2025-02-06 17:29:23,0.0
-14168,-5132,-5012,1833,-4264,3132,2025-02-06 17:29:23,0.0
-11832,-4128,-5728,2876,-5794,4707,2025-02-06 17:29:23,0.0
-9432,-1700,-8048,3371,-5828,5314,2025-02-06 17:29:23,0.0
-7536,928,-8240,2771,-3333,4751,2025-02-06 17:29:23,0.0
-7444,3632,-7436,1861,941,3586,2025-02-06 17:29:23,0.0
-8700,4088,-6664,880,4476,2129,2025-02-06 17:29:23,0.0
-11784,1388,-6724,-924,6212,1273,2025-02-06 17:29:23,0.0
-14104,-1504,-5700,-1449,5677,1663,2025-02-06 17:29:23,0.0
-14636,-3228,-4972,-1049,4045,2398,2025-02-06 17:29:23,0.0
-14964,-2956,-4232,-636,2009,2846,2025-02-06 17:29:23,0.0
-15164,-2432,-4424,283,450,3797,2025-02-06 17:29:23,0.0
-14672,-1968,-4776,913,-1223,5018,2025-02-06 17:29:23,0.0
-12540,-932,-5044,1051,-3049,5440,2025-02-06 17:29:23,0.0
-10328,-244,-4360,1082,-3979,5031,2025-02-06 17:29:23,0.0
-9280,-108,-4036,1164,-3436,4464,2025-02-06 17:29:23,0.0
-9012,-228,-3360,1298,-1838,4031,2025-02-06 17:29:23,0.0
-10064,-224,-2804,1493,63,3757,2025-02-06 17:29:23,0.0
-10696,-132,-2776,1600,1050,3857,2025-02-06 17:29:23,0.0
-11764,328,-3056,1713,1093,3939,2025-02-06 17:29:23,0.0
-11928,528,-2504,1811,702,3606,2025-02-06 17:29:23,0.0
-11096,672,-2448,1846,63,2739,2025-02-06 17:29:23,0.0
-10324,788,-2128,1749,-580,1347,2025-02-06 17:29:24,0.0
-9864,280,-1940,1543,-837,-385,2025-02-06 17:29:24,0.0
-9972,228,-1568,1492,-879,-1316,2025-02-06 17:29:24,0.0
-10388,132,-1788,1597,-798,-1954,2025-02-06 17:29:24,0.0
-11068,388,-2752,1602,-608,-2314,2025-02-06 17:29:24,0.0
-12504,896,-3292,1439,-52,-2235,2025-02-06 17:29:24,0.0
-14288,1212,-3404,1218,986,-1564,2025-02-06 17:29:24,0.0
-15420,1156,-3064,1233,1739,-655,2025-02-06 17:29:24,0.0
-15876,572,-2324,1518,1353,339,2025-02-06 17:29:24,0.0
-15404,-1016,-1188,2099,41,962,2025-02-06 17:29:24,0.0
-14300,-2036,-1108,2912,-766,1283,2025-02-06 17:29:24,0.0
-13384,-2880,-1852,3847,-591,1422,2025-02-06 17:29:24,0.0
-13188,-2748,-2800,4652,406,1470,2025-02-06 17:29:24,0.0
-14604,-1148,-2824,5178,1426,1599,2025-02-06 17:29:24,0.0
-15428,328,-1696,5487,1462,2207,2025-02-06 17:29:24,0.0
-15028,1020,-644,5792,795,2601,2025-02-06 17:29:24,0.0
-14568,1128,-1084,5828,568,2585,2025-02-06 17:29:24,0.0
-15340,1080,-2652,5565,1519,3173,2025-02-06 17:29:24,0.0
-16632,1104,-3312,5491,2179,4082,2025-02-06 17:29:24,0.0
-17964,2080,-4176,5102,1926,4869,2025-02-06 17:29:24,0.0
-17532,2940,-5716,3583,1157,4562,2025-02-06 17:29:24,0.0
-16472,3704,-7736,976,-403,3140,2025-02-06 17:29:24,0.0
-16080,4412,-9668,-1858,-2305,1603,2025-02-06 17:29:24,0.0
-13416,4940,-9240,-3269,-3719,-149,2025-02-06 17:29:24,0.0
-9964,856,-3816,-2710,-3369,-3679,2025-02-06 17:29:24,0.0
-9620,-196,-3844,-1963,-3540,-4038,2025-02-06 17:29:24,0.0
-8588,-2244,-5092,-717,-1866,-3651,2025-02-06 17:29:24,0.0
-9340,-3944,-6648,-299,838,-3284,2025-02-06 17:29:24,0.0
-11064,-5008,-6992,-543,3100,-2668,2025-02-06 17:29:24,0.0
-12520,-4740,-6116,-749,3654,-2349,2025-02-06 17:29:24,0.0
-13092,-2396,-4672,-192,3107,-2163,2025-02-06 17:29:24,0.0
-12720,232,-4872,482,2212,-2080,2025-02-06 17:29:24,0.0
-11948,1536,-5364,-249,1015,-2868,2025-02-06 17:29:24,0.0
-11436,1748,-6216,-1241,684,-3692,2025-02-06 17:29:24,0.0
-10876,804,-6560,-2099,1003,-4651,2025-02-06 17:29:24,0.0
-10896,-208,-5804,-2774,1147,-5916,2025-02-06 17:29:24,0.0
-12104,-924,-5068,-3301,908,-6282,2025-02-06 17:29:24,0.0
-12672,-1860,-3916,-3702,-297,-5561,2025-02-06 17:29:24,0.0
-12176,-2772,-3780,-3987,-1016,-4931,2025-02-06 17:29:24,0.0
-11348,-3276,-3712,-3978,-1328,-4709,2025-02-06 17:29:24,0.0
-10628,-3808,-3768,-3898,-834,-4751,2025-02-06 17:29:24,0.0
-10772,-3908,-4156,-3742,316,-4583,2025-02-06 17:29:24,0.0
-10892,-3808,-4148,-3536,1026,-4017,2025-02-06 17:29:24,0.0
-11668,-3476,-4404,-3262,1488,-3283,2025-02-06 17:29:24,0.0
-11764,-3200,-4412,-3058,1813,-2595,2025-02-06 17:29:24,0.0
-12436,-3012,-4056,-2757,1778,-1985,2025-02-06 17:29:24,0.0
-12376,-2640,-3188,-2594,766,-1361,2025-02-06 17:29:24,0.0
-12276,-1796,-2988,-2427,331,-888,2025-02-06 17:29:24,0.0
-11836,-1492,-3552,-2376,14,-470,2025-02-06 17:29:24,0.0
-11516,-1940,-3808,-2599,325,-259,2025-02-06 17:29:24,0.0
-11612,-2512,-4092,-2987,659,-307,2025-02-06 17:29:24,0.0
-11824,-2968,-4196,-3300,194,-430,2025-02-06 17:29:24,0.0
-11980,-3116,-3140,-3414,-368,-420,2025-02-06 17:29:24,0.0
-12024,-2576,-2504,-3445,-507,-163,2025-02-06 17:29:24,0.0
-11992,-1592,-2704,-3545,-254,10,2025-02-06 17:29:24,0.0
-12496,-1304,-3216,-4134,48,-118,2025-02-06 17:29:24,0.0
-13176,-1316,-4596,-4936,473,-521,2025-02-06 17:29:24,0.0
-13872,-1192,-4488,-5526,799,-1000,2025-02-06 17:29:24,0.0
-14588,-464,-3800,-5935,425,-1248,2025-02-06 17:29:24,0.0
-13984,-624,-3240,-6368,392,-1735,2025-02-06 17:29:25,
-13568,-1688,-2520,-6718,-35,-2708,2025-02-06 17:29:25,0.0
-14032,-3524,-2560,-7049,510,-3200,2025-02-06 17:29:25,0.0
-15156,-4968,-1500,-6593,1512,-2842,2025-02-06 17:29:25,0.0
-15404,-5500,-1172,-5901,1716,-2024,2025-02-06 17:29:25,0.0
-15012,-6216,-2856,-5284,1232,-2396,2025-02-06 17:29:25,0.0
-16260,-6436,-3736,-4290,1166,-2937,2025-02-06 17:29:25,0.0
-17852,-6224,-2764,-3057,1823,-2628,2025-02-06 17:29:25,0.0
-18016,-6016,-2376,-1406,532,-1873,2025-02-06 17:29:25,0.0
-17400,-6176,-4424,606,-1915,-377,2025-02-06 17:29:25,0.0
-15596,-6784,-6060,2023,-2906,389,2025-02-06 17:29:25,0.0
-12656,-6744,-6940,3684,-3672,421,2025-02-06 17:29:25,0.0
-10100,-4900,-7772,4900,-3231,1113,2025-02-06 17:29:25,0.0
-7668,-2800,-8188,4368,-3027,1704,2025-02-06 17:29:25,0.0
-7872,-184,-7796,3397,-2161,2142,2025-02-06 17:29:25,0.0
-9740,2488,-7996,2382,-254,2911,2025-02-06 17:29:25,0.0
-11928,3964,-8664,1508,1918,3229,2025-02-06 17:29:25,0.0
-13204,3540,-8632,558,3506,2869,2025-02-06 17:29:25,0.0
-14360,1444,-7996,-257,2695,2398,2025-02-06 17:29:25,0.0
-14092,-1316,-6268,-672,1072,2664,2025-02-06 17:29:25,0.0
-12608,-2836,-4468,-116,-220,2867,2025-02-06 17:29:25,0.0
-12004,-3432,-5120,546,-576,2859,2025-02-06 17:29:25,0.0
-12400,-3076,-4912,1202,-99,3347,2025-02-06 17:29:25,0.0
-12496,-2784,-5020,2006,-57,4093,2025-02-06 17:29:25,0.0
-12260,-1976,-4296,2886,-744,4644,2025-02-06 17:29:25,0.0
-11776,-1328,-3360,3480,-1230,4745,2025-02-06 17:29:25,0.0
-11668,-936,-4040,4012,-1345,4488,2025-02-06 17:29:25,0.0
-11724,-800,-3640,4459,-1014,4458,2025-02-06 17:29:25,0.0
-11628,-540,-4036,4576,-684,4693,2025-02-06 17:29:25,0.0
-10956,-312,-3660,4619,-684,4643,2025-02-06 17:29:25,0.0
-10060,208,-3664,4697,-679,4118,2025-02-06 17:29:25,0.0
-9664,872,-4024,4595,-362,3135,2025-02-06 17:29:25,0.0
-9740,1432,-4420,4235,365,2064,2025-02-06 17:29:25,0.0
-10992,1392,-4552,3655,852,1062,2025-02-06 17:29:25,0.0
-12112,1092,-4368,2910,668,585,2025-02-06 17:29:25,0.0
-12672,504,-3992,2527,-66,249,2025-02-06 17:29:25,0.0
-13532,-272,-3060,2286,-706,189,2025-02-06 17:29:25,0.0
-13488,-384,-2844,2013,-1414,284,2025-02-06 17:29:25,0.0
-13108,-752,-2544,1840,-1789,245,2025-02-06 17:29:25,0.0
-12188,-688,-1948,1891,-1764,42,2025-02-06 17:29:25,0.0
-11460,336,-2164,2220,-1752,-316,2025-02-06 17:29:25,0.0
-10824,1216,-2600,2373,-1773,-520,2025-02-06 17:29:25,0.0
-10620,1888,-3592,2310,-1689,-651,2025-02-06 17:29:25,0.0
-10748,1156,-4132,2152,-808,-1088,2025-02-06 17:29:25,0.0
-11460,-596,-3620,2040,888,-1346,2025-02-06 17:29:25,0.0
-12896,-2328,-2348,2461,2796,-1242,2025-02-06 17:29:25,0.0
-14856,-3544,-864,3270,4084,-553,2025-02-06 17:29:25,0.0
-15984,-2816,-188,4457,2535,354,2025-02-06 17:29:25,0.0
-16248,-2292,-1096,5114,498,649,2025-02-06 17:29:25,0.0
-15732,-2644,-720,5549,-286,779,2025-02-06 17:29:25,0.0
-15152,-2412,-908,6381,-362,1164,2025-02-06 17:29:25,0.0
-14500,-1736,-1536,7074,408,1923,2025-02-06 17:29:25,0.0
-14400,-860,-3468,7229,1695,2520,2025-02-06 17:29:25,0.0
-14864,-260,-5372,6539,3109,2818,2025-02-06 17:29:25,0.0
-16468,600,-6216,5504,4162,3125,2025-02-06 17:29:25,0.0
-18072,2188,-6396,4443,4539,3706,2025-02-06 17:29:26,0.0
-8584,-3000,-6128,169,159,-2127,2025-02-06 17:29:26,0.0
-8892,-3112,-6068,75,2042,-1442,2025-02-06 17:29:26,0.0
-9648,-2968,-6308,276,3093,-1541,2025-02-06 17:29:26,0.0
-11476,-2948,-5908,743,3898,-1365,2025-02-06 17:29:26,0.0
-12160,-2292,-6064,1497,3804,-817,2025-02-06 17:29:26,0.0
-13008,-756,-6384,1703,3666,-1073,2025-02-06 17:29:26,0.0
-13344,572,-7280,707,1882,-2214,2025-02-06 17:29:26,0.0
-13508,896,-7516,-1046,-11,-3685,2025-02-06 17:29:26,0.0
-13288,148,-6628,-2059,-1151,-4313,2025-02-06 17:29:26,0.0
-12704,-776,-6412,-2323,-1466,-4320,2025-02-06 17:29:26,0.0
-11796,-1292,-6048,-2803,-1528,-4572,2025-02-06 17:29:26,0.0
-11544,-1028,-5648,-3197,-1474,-4832,2025-02-06 17:29:26,0.0
-11192,-1868,-5176,-3849,-2147,-4771,2025-02-06 17:29:26,0.0
-11192,-2284,-4700,-3902,-1004,-4990,2025-02-06 17:29:26,0.0
-11480,-3160,-3788,-3828,-514,-4719,2025-02-06 17:29:26,0.0
-11508,-3672,-3072,-3694,-48,-4280,2025-02-06 17:29:26,0.0
-11396,-3880,-3288,-3327,539,-3722,2025-02-06 17:29:26,0.0
-11288,-3744,-3656,-3038,922,-3238,2025-02-06 17:29:26,0.0
-11284,-3616,-3232,-2834,1115,-2625,2025-02-06 17:29:26,0.0
-11488,-2556,-4036,-2428,1814,-1971,2025-02-06 17:29:26,0.0
-11420,-1960,-4112,-2471,1970,-1279,2025-02-06 17:29:26,0.0
-11916,-1288,-3876,-2842,1758,-795,2025-02-06 17:29:26,0.0
-12240,-1120,-3720,-3194,1701,-263,2025-02-06 17:29:26,0.0
-12424,-1192,-3760,-3613,1767,155,2025-02-06 17:29:26,0.0
-12740,-1744,-3780,-3829,1790,438,2025-02-06 17:29:26,0.0
-12784,-2424,-4504,-4010,1874,594,2025-02-06 17:29:26,0.0
-13404,-3044,-4440,-4100,1726,346,2025-02-06 17:29:26,0.0
-13644,-2676,-4700,-3981,965,187,2025-02-06 17:29:26,0.0
-13680,-1928,-4496,-3860,206,217,2025-02-06 17:29:26,0.0
-13740,-1388,-4344,-4136,-214,223,2025-02-06 17:29:26,0.0
-13408,-1500,-4304,-4436,-437,-3,2025-02-06 17:29:26,0.0
-13560,-1460,-3940,-4824,-737,-482,2025-02-06 17:29:26,0.0
-13540,-1528,-3936,-5502,-1497,-969,2025-02-06 17:29:26,0.0
-13500,-1396,-4000,-6059,-2175,-1332,2025-02-06 17:29:26,0.0
-13176,-1436,-3900,-6551,-2216,-1618,2025-02-06 17:29:26,0.0
-13020,-1516,-3456,-7134,-1626,-1607,2025-02-06 17:29:26,0.0
-12172,-2228,-3584,-7664,-1365,-1351,2025-02-06 17:29:26,0.0
-12340,-3244,-4392,-7607,-998,-1559,2025-02-06 17:29:26,0.0
-13204,-4836,-4788,-7133,669,-1751,2025-02-06 17:29:26,0.0
-14316,-6012,-4680,-5785,1239,-1893,2025-02-06 17:29:26,0.0
-14952,-6488,-4344,-4128,54,-1549,2025-02-06 17:29:26,0.0
-14304,-5660,-5092,-2259,-804,-1440,2025-02-06 17:29:26,0.0
-13876,-4308,-6784,-1061,-528,-1975,2025-02-06 17:29:26,0.0
-14168,-3044,-6636,-530,-210,-2376,2025-02-06 17:29:26,0.0
-15444,-2272,-5844,-113,-826,-1217,2025-02-06 17:29:26,
-15060,-1928,-5852,18,-2510,1047,2025-02-06 17:29:26,0.0
-13316,-2500,-6072,292,-3999,2057,2025-02-06 17:29:26,0.0
-12156,-2140,-6636,486,-4450,2279,2025-02-06 17:29:26,0.0
-11060,-1200,-6604,642,-4185,2093,2025-02-06 17:29:26,0.0
-10100,184,-6804,704,-3698,1825,2025-02-06 17:29:26,0.0
-9004,1448,-7040,510,-2832,1594,2025-02-06 17:29:26,0.0
-8276,3016,-6916,-239,-280,1325,2025-02-06 17:29:26,0.0
-8564,3804,-6816,-1263,2322,1009,2025-02-06 17:29:26,0.0
-9628,3308,-6792,-2347,4207,93,2025-02-06 17:29:26,0.0
-12324,1680,-5920,-3091,4616,-394,2025-02-06 17:29:26,0.0
-14316,-296,-4284,-3236,4283,-181,2025-02-06 17:29:26,0.0
-16544,-1800,-3652,-2782,3076,735,2025-02-06 17:29:26,0.0
-15784,-3128,-3504,-1856,915,2401,2025-02-06 17:29:26,0.0
-14192,-3192,-4040,-393,-1691,2958,2025-02-06 17:29:26,0.0
-11928,-1536,-5104,796,-3313,2981,2025-02-06 17:29:27,0.0
-10232,-688,-5900,1370,-2259,2715,2025-02-06 17:29:27,0.0
-9084,400,-5900,1659,-543,2193,2025-02-06 17:29:27,0.0
-8984,1628,-6004,1338,1468,1672,2025-02-06 17:29:27,0.0
-10224,2852,-5264,490,3238,1124,2025-02-06 17:29:27,0.0
-11656,3424,-4920,-491,3777,925,2025-02-06 17:29:27,0.0
-12372,3004,-5464,-1495,2943,705,2025-02-06 17:29:27,0.0
-12092,2312,-6052,-2065,2089,522,2025-02-06 17:29:27,0.0
-11136,1444,-5452,-2469,2525,-96,2025-02-06 17:29:27,0.0
-11600,216,-4088,-2948,3026,-897,2025-02-06 17:29:27,0.0
-12468,-152,-3756,-2952,2797,-1335,2025-02-06 17:29:27,0.0
-13720,-200,-3880,-2400,2010,-1186,2025-02-06 17:29:27,0.0
-14336,-192,-4344,-1854,1118,-977,2025-02-06 17:29:27,0.0
-13984,-316,-4300,-1370,697,-732,2025-02-06 17:29:27,0.0
-13652,-680,-3032,-803,409,-696,2025-02-06 17:29:27,0.0
-12824,-1120,-2472,40,-70,-918,2025-02-06 17:29:27,0.0
-11888,-1796,-3664,1317,-595,-1518,2025-02-06 17:29:27,0.0
-11688,-2000,-4452,2289,-46,-1818,2025-02-06 17:29:27,0.0
-11276,-1912,-5056,3177,520,-2023,2025-02-06 17:29:27,0.0
-11320,-1520,-5096,3572,946,-2156,2025-02-06 17:29:27,0.0
-11748,-164,-5768,3923,1350,-2381,2025-02-06 17:29:27,0.0
-13124,300,-7092,3846,1830,-2147,2025-02-06 17:29:27,0.0
-15044,-228,-8556,3134,2361,-1216,2025-02-06 17:29:27,0.0
-15924,-176,-8644,2298,2122,274,2025-02-06 17:29:27,0.0
-13656,-12,-6036,1905,-926,917,2025-02-06 17:29:27,0.0
-11384,-300,-4864,1762,-2414,260,2025-02-06 17:29:27,0.0
-10324,-552,-4928,1448,-2140,-20,2025-02-06 17:29:27,0.0
-9704,-592,-5380,1625,-513,276,2025-02-06 17:29:27,0.0
-9620,-468,-6500,1575,1215,417,2025-02-06 17:29:27,0.0
-10304,148,-6752,1075,2839,296,2025-02-06 17:29:27,0.0
-11772,164,-6568,467,3409,318,2025-02-06 17:29:27,0.0
-13228,-348,-6184,197,3091,339,2025-02-06 17:29:27,0.0
-14064,-1092,-5676,316,1768,160,2025-02-06 17:29:27,0.0
-14116,-1376,-5060,693,-18,22,2025-02-06 17:29:27,0.0
-12716,-1252,-4916,851,-1224,-206,2025-02-06 17:29:27,0.0
-11804,-1032,-5468,733,-1247,-474,2025-02-06 17:29:27,0.0
-11528,-876,-5940,658,-115,-486,2025-02-06 17:29:27,0.0
-11600,-792,-5828,530,988,-329,2025-02-06 17:29:27,0.0
-12008,-900,-5296,367,1378,-360,2025-02-06 17:29:27,0.0
-12536,-796,-5332,80,981,-542,2025-02-06 17:29:27,0.0
-12684,-728,-5252,-118,188,-623,2025-02-06 17:29:27,0.0
-12420,-364,-5572,-368,-360,-758,2025-02-06 17:29:27,0.0
-11776,-220,-5888,-823,-489,-970,2025-02-06 17:29:27,0.0
-11600,-84,-6176,-1188,-109,-1097,2025-02-06 17:29:27,0.0
-11656,136,-6324,-1542,507,-1124,2025-02-06 17:29:27,0.0
-11848,268,-6380,-2006,1019,-1220,2025-02-06 17:29:27,0.0
-12052,336,-6688,-2441,942,-1380,2025-02-06 17:29:27,0.0
-12684,368,-6420,-3174,180,-1761,2025-02-06 17:29:27,0.0
-12780,484,-5868,-3680,-720,-2146,2025-02-06 17:29:27,0.0
-12480,680,-5796,-4172,-1486,-2572,2025-02-06 17:29:27,0.0
-12080,612,-6072,-4725,-1948,-3053,2025-02-06 17:29:27,0.0
-12128,512,-5572,-5249,-1818,-3515,2025-02-06 17:29:27,0.0
-12048,404,-5796,-5818,-1434,-3854,2025-02-06 17:29:27,0.0
-12064,360,-5872,-6617,-1314,-4295,2025-02-06 17:29:27,0.0
-12484,508,-5828,-7384,-1469,-4679,2025-02-06 17:29:27,0.0
-11440,-892,-5908,-10726,-1547,-5956,2025-02-06 17:29:28,0.0
-11212,-1216,-6268,-11318,-1206,-5911,2025-02-06 17:29:28,0.0
-11104,-1352,-5876,-12174,-925,-6028,2025-02-06 17:29:28,0.0
-11436,-1332,-5836,-12914,-723,-6065,2025-02-06 17:29:28,0.0
-12016,-1760,-6024,-13773,-460,-6239,2025-02-06 17:29:28,0.0
-12592,-2388,-5852,-14518,-557,-6785,2025-02-06 17:29:28,0.0
-13532,-2792,-5616,-15142,-1442,-7212,2025-02-06 17:29:28,0.0
-13976,-2828,-5348,-15705,-2185,-7232,2025-02-06 17:29:28,0.0
-13272,-2780,-5732,-16519,-2479,-7476,2025-02-06 17:29:28,0.0
-13180,-2152,-5932,-17323,-2962,-7633,2025-02-06 17:29:28,0.0
-12616,-2112,-6456,-18207,-3197,-7601,2025-02-06 17:29:28,0.0
-12148,-2200,-6720,-18872,-3162,-7633,2025-02-06 17:29:28,0.0
-11604,-2424,-6564,-19361,-3310,-7533,2025-02-06 17:29:28,0.0
-11012,-3012,-6372,-19604,-3311,-7365,2025-02-06 17:29:28,0.0
-10528,-3672,-6432,-19740,-2850,-7383,2025-02-06 17:29:28,0.0
-10620,-4508,-6548,-19617,-1808,-7443,2025-02-06 17:29:28,0.0
-11032,-5252,-6580,-19404,-1025,-7386,2025-02-06 17:29:28,0.0
-12008,-5276,-5880,-18904,-820,-7188,2025-02-06 17:29:28,0.0
-12632,-4652,-5260,-18186,-928,-6368,2025-02-06 17:29:28,0.0
-12092,-4212,-5200,-17849,-1228,-5962,2025-02-06 17:29:28,0.0
-11652,-3968,-5312,-17835,-1405,-6051,2025-02-06 17:29:28,0.0
-11868,-4212,-5628,-18197,-1667,-6296,2025-02-06 17:29:28,0.0
-12084,-4036,-5320,-18161,-2380,-6406,2025-02-06 17:29:28,0.0
-12256,-3276,-5188,-18240,-2575,-6267,2025-02-06 17:29:28,0.0
-12432,-3084,-5036,-18557,-2807,-6021,2025-02-06 17:29:28,0.0
-12288,-3560,-4948,-18905,-2959,-5881,2025-02-06 17:29:28,0.0
-11708,-4548,-4704,-19193,-2986,-5933,2025-02-06 17:29:28,0.0
-11832,-4392,-4560,-19305,-3159,-5822,2025-02-06 17:29:28,0.0
-12040,-4008,-5088,-19351,-3412,-5427,2025-02-06 17:29:28,0.0
-12136,-5028,-4516,-19562,-2521,-5291,2025-02-06 17:29:28,0.0
-12408,-6016,-3488,-18441,-2443,-4774,2025-02-06 17:29:28,
-12332,-6024,-3856,-17346,-2719,-4492,2025-02-06 17:29:28,0.0
-12248,-5604,-4888,-16460,-3062,-4284,2025-02-06 17:29:28,0.0
-12500,-5456,-5844,-15730,-2909,-3709,2025-02-06 17:29:28,0.0
-12884,-4748,-6468,-14946,-2001,-3232,2025-02-06 17:29:28,0.0
-13380,-2220,-6176,-14355,-782,-2786,2025-02-06 17:29:28,0.0
-13368,812,-5256,-14178,48,-2262,2025-02-06 17:29:28,0.0
-11884,1960,-5280,-13768,-204,-2117,2025-02-06 17:29:28,0.0
-10652,1388,-6136,-14206,700,-2242,2025-02-06 17:29:28,0.0
-9980,1468,-6556,-15394,2883,-2512,2025-02-06 17:29:28,0.0
-11088,1676,-5860,-16877,4610,-2927,2025-02-06 17:29:28,0.0
-14244,1476,-4028,-18233,4566,-3300,2025-02-06 17:29:28,0.0
-16580,1104,-2752,-18463,1579,-2923,2025-02-06 17:29:28,0.0
-16592,1536,-2468,-18152,-2154,-2616,2025-02-06 17:29:28,0.0
-14560,1584,-3728,-18067,-3171,-2550,2025-02-06 17:29:28,0.0
-12728,92,-3592,-18351,-2619,-3130,2025-02-06 17:29:28,0.0
-11372,-1712,-3460,-18540,-1461,-4167,2025-02-06 17:29:28,0.0
-10084,-3208,-2788,-18180,168,-5354,2025-02-06 17:29:28,0.0
-10156,-4020,-1580,-17106,1905,-6305,2025-02-06 17:29:28,0.0
-12484,-2260,-1524,-14521,3747,-5769,2025-02-06 17:29:28,0.0
-13156,132,-4188,-13223,3080,-5312,2025-02-06 17:29:28,0.0
-12736,1880,-6404,-13415,3690,-4951,2025-02-06 17:29:28,0.0
-12356,2436,-4780,-13400,5527,-4602,2025-02-06 17:29:28,0.0
-12120,3168,-4576,-13166,6466,-4563,2025-02-06 17:29:28,0.0
-12112,4268,-5880,-13659,5607,-4994,2025-02-06 17:29:28,0.0
-12428,4852,-6944,-14771,3699,-5698,2025-02-06 17:29:28,0.0
-12328,3224,-7460,-16069,1907,-6380,2025-02-06 17:29:28,0.0
-12008,1492,-7196,-16316,1620,-6449,2025-02-06 17:29:28,0.0
-12180,-540,-5708,-15825,1876,-6073,2025-02-06 17:29:28,0.0
-11888,-1716,-5044,-14630,2142,-5623,2025-02-06 17:29:28,0.0
-11788,-2264,-5116,-13487,2871,-5230,2025-02-06 17:29:28,0.0
-12304,-1968,-4976,-12377,3193,-4831,2025-02-06 17:29:29,0.0
-12416,-1452,-5064,-11567,2303,-4798,2025-02-06 17:29:29,0.0
-12696,-944,-4620,-10828,1000,-5226,2025-02-06 17:29:29,0.0
-12636,-80,-3808,-10035,-299,-5554,2025-02-06 17:29:29,0.0
-12016,56,-2916,-9218,-1051,-5859,2025-02-06 17:29:29,0.0
-11724,-276,-2412,-8303,-1510,-5930,2025-02-06 17:29:29,0.0
-11140,-680,-2856,-7550,-1615,-6149,2025-02-06 17:29:29,0.0
-11312,-996,-4080,-7005,-1106,-6473,2025-02-06 17:29:29,0.0
-12628,-1060,-4436,-6403,179,-6104,2025-02-06 17:29:29,0.0
-13736,-1776,-5056,-5851,2220,-5181,2025-02-06 17:29:29,0.0
-15284,-2220,-6352,-5538,3684,-4117,2025-02-06 17:29:29,0.0
-16092,-1436,-6664,-5335,3688,-3019,2025-02-06 17:29:29,0.0
-15296,-676,-5084,-4724,1178,-2493,2025-02-06 17:29:29,0.0
-13588,236,-4144,-3326,-2089,-2867,2025-02-06 17:29:29,0.0
-12760,836,-3284,-2568,-2824,-2795,2025-02-06 17:29:29,0.0
-12400,152,-3012,-1930,-2094,-2484,2025-02-06 17:29:29,0.0
-12152,-536,-3392,-1228,-1191,-2032,2025-02-06 17:29:29,0.0
-11964,-1204,-3964,-650,-372,-1984,2025-02-06 17:29:29,0.0
-12600,-1144,-4464,-619,547,-2166,2025-02-06 17:29:29,0.0
-13020,-440,-3540,-368,1140,-2196,2025-02-06 17:29:29,0.0
-13508,380,-3452,132,620,-2153,2025-02-06 17:29:29,0.0
-13268,964,-3988,232,-674,-2292,2025-02-06 17:29:29,0.0
-12700,792,-4412,9,-1894,-2713,2025-02-06 17:29:29,0.0
-12100,412,-5320,-55,-2719,-3258,2025-02-06 17:29:29,0.0
-12048,-176,-5728,-93,-2976,-3444,2025-02-06 17:29:29,0.0
-11588,-396,-5648,-182,-2164,-3254,2025-02-06 17:29:29,0.0
-11528,244,-5108,-451,-1171,-3246,2025-02-06 17:29:29,0.0
-12308,816,-5080,-690,-439,-3074,2025-02-06 17:29:29,0.0
-13068,1592,-5100,-885,78,-2643,2025-02-06 17:29:29,0.0
-13612,1488,-5896,-1273,-74,-2225,2025-02-06 17:29:29,0.0
-13480,640,-5564,-1872,-981,-2329,2025-02-06 17:29:29,0.0
-12820,-728,-4692,-2239,-1696,-2541,2025-02-06 17:29:29,0.0
-11408,-2288,-3432,-1960,-954,-3007,2025-02-06 17:29:29,0.0
-11624,-3112,-4172,-1543,-535,-3569,2025-02-06 17:29:29,0.0
-11844,-3968,-3832,-1373,-125,-3715,2025-02-06 17:29:29,0.0
-12648,-3780,-3436,-1169,794,-3651,2025-02-06 17:29:29,0.0
-13368,-2908,-4296,-1160,-396,-3701,2025-02-06 17:29:29,0.0
-14112,-1996,-4784,-1402,-2277,-3952,2025-02-06 17:29:29,0.0
-13588,-1072,-3628,-2138,-2733,-3777,2025-02-06 17:29:29,0.0
-12876,-740,-3644,-3141,-2831,-3523,2025-02-06 17:29:29,0.0
-12092,-932,-3384,-4280,-3214,-3580,2025-02-06 17:29:29,0.0
-11944,-1876,-5204,-5230,-2084,-3731,2025-02-06 17:29:29,0.0
-12032,-3040,-5088,-5645,-272,-4013,2025-02-06 17:29:29,0.0
-12464,-3456,-3600,-5620,759,-4182,2025-02-06 17:29:29,0.0
-12764,-3376,-2572,-5288,-64,-4005,2025-02-06 17:29:29,0.0
-12316,-3548,-2284,-5034,-1088,-4033,2025-02-06 17:29:29,0.0
-11836,-3916,-2436,-4739,-1269,-4067,2025-02-06 17:29:29,0.0
-11696,-4008,-2376,-4421,-949,-3751,2025-02-06 17:29:29,0.0
-11768,-3972,-2672,-4067,-487,-3044,2025-02-06 17:29:29,0.0
-11620,-3940,-2700,-3797,234,-2336,2025-02-06 17:29:29,0.0
-11796,-3984,-2592,-3514,966,-1989,2025-02-06 17:29:29,0.0
-12308,-3624,-2356,-3288,1203,-1672,2025-02-06 17:29:29,0.0
-12656,-3244,-2612,-3225,1379,-1165,2025-02-06 17:29:29,0.0
-12480,-2772,-2248,-3251,1492,-714,2025-02-06 17:29:29,0.0
-12556,-3248,-2184,-3294,1259,-515,2025-02-06 17:29:29,0.0
-12424,-3672,-2756,-3081,1094,-273,2025-02-06 17:29:29,0.0
-12192,-3480,-3476,-3126,1329,-284,2025-02-06 17:29:29,0.0
-12672,-3020,-3388,-3620,1647,-505,2025-02-06 17:29:29,0.0
-13208,-2868,-2856,-4046,1843,-797,2025-02-06 17:29:29,0.0
-13720,-2564,-2932,-4462,1491,-1158,2025-02-06 17:29:29,0.0
-14176,-2380,-3172,-4944,402,-1738,2025-02-06 17:29:30,0.0
-14348,-1744,-3340,-5241,-814,-2374,2025-02-06 17:29:30,0.0
-14116,-2164,-3380,-5515,-1412,-2728,2025-02-06 17:29:30,0.0
-13088,-3760,-3496,-5855,-1507,-3478,2025-02-06 17:29:30,0.0
-13200,-5172,-2612,-6067,-1445,-4171,2025-02-06 17:29:30,0.0
-13144,-5064,-1212,-5858,-1314,-4192,2025-02-06 17:29:30,0.0
-12952,-4488,-2164,-5575,-1138,-4403,2025-02-06 17:29:30,0.0
-13208,-4492,-3216,-5447,-316,-5055,2025-02-06 17:29:30,0.0
-13760,-5992,-2912,-4585,-27,-6011,2025-02-06 17:29:30,0.0
-15252,-8792,-2976,-3030,-809,-6941,2025-02-06 17:29:30,
-17408,-10236,-4308,-466,-1713,-6627,2025-02-06 17:29:30,0.0
-19476,-10644,-6356,1993,-1363,-3979,2025-02-06 17:29:30,0.0
-19136,-7968,-5700,2345,27,926,2025-02-06 17:29:30,0.0
-16064,-4808,-4208,2434,-1722,2629,2025-02-06 17:29:30,0.0
-16064,-3560,-4472,1990,-4044,4584,2025-02-06 17:29:30,0.0
-14300,-4136,-5176,2491,-5351,6681,2025-02-06 17:29:30,0.0
-12056,-4912,-6908,3481,-5389,7633,2025-02-06 17:29:30,0.0
-9504,-5124,-8328,4078,-4089,7100,2025-02-06 17:29:30,0.0
-8040,-3408,-7152,4414,-1956,5787,2025-02-06 17:29:30,0.0
-8060,-800,-5244,4648,-231,5061,2025-02-06 17:29:30,0.0
-9072,1824,-5300,3849,1042,5245,2025-02-06 17:29:30,0.0
-9804,3256,-6368,1750,1791,5302,2025-02-06 17:29:30,0.0
-10616,2612,-6744,297,2423,4275,2025-02-06 17:29:30,0.0
-11120,524,-5700,-1079,2846,2907,2025-02-06 17:29:30,0.0
-12256,-788,-4104,-1331,2887,2300,2025-02-06 17:29:30,0.0
-13332,-2472,-4424,-1090,3280,2157,2025-02-06 17:29:30,0.0
-15308,-2420,-4012,-91,2161,2851,2025-02-06 17:29:30,0.0
-15544,-1932,-4688,590,-39,3981,2025-02-06 17:29:30,0.0
-13384,-1328,-3612,394,-1942,4227,2025-02-06 17:29:30,0.0
-11580,-992,-3292,674,-2649,3966,2025-02-06 17:29:30,0.0
-11248,-844,-3420,1004,-2521,3850,2025-02-06 17:29:30,0.0
-10868,-740,-3432,1327,-1414,4056,2025-02-06 17:29:30,0.0
-11076,-604,-3324,1666,-438,4019,2025-02-06 17:29:30,0.0
-11844,-296,-2188,1834,-216,3773,2025-02-06 17:29:30,0.0
-12148,348,-1892,1990,-364,3480,2025-02-06 17:29:30,0.0
-11456,764,-2612,1891,-551,3055,2025-02-06 17:29:30,0.0
-10712,828,-2736,1789,-355,2273,2025-02-06 17:29:30,0.0
-10484,924,-2708,1654,129,1336,2025-02-06 17:29:30,0.0
-11176,632,-2392,1276,769,520,2025-02-06 17:29:30,0.0
-11656,360,-1380,1013,1070,232,2025-02-06 17:29:30,0.0
-11756,200,-936,956,1054,-61,2025-02-06 17:29:30,0.0
-11788,212,-980,1010,981,-461,2025-02-06 17:29:30,0.0
-12364,244,-900,1145,810,-806,2025-02-06 17:29:30,0.0
-13148,300,-952,1249,390,-898,2025-02-06 17:29:30,0.0
-13892,528,-1576,1410,-492,-786,2025-02-06 17:29:30,0.0
-14092,720,-2524,1357,-1347,-441,2025-02-06 17:29:30,0.0
-14260,404,-3088,1313,-1744,157,2025-02-06 17:29:30,0.0
-13728,-376,-3256,1438,-1041,929,2025-02-06 17:29:30,0.0
-13448,-1140,-3208,1791,42,1579,2025-02-06 17:29:30,0.0
-13744,-1476,-2780,2234,1455,2432,2025-02-06 17:29:30,0.0
-14264,-1424,-1460,2765,2651,3394,2025-02-06 17:29:30,0.0
-14240,-1692,-396,3725,2518,3986,2025-02-06 17:29:30,0.0
-14380,-988,-980,5247,1112,3975,2025-02-06 17:29:30,0.0
-14964,-452,-3092,6039,771,4169,2025-02-06 17:29:30,0.0
-15784,60,-4316,6354,877,4393,2025-02-06 17:29:30,0.0
-17140,2540,-6044,5956,1187,5169,2025-02-06 17:29:30,0.0
-16708,5352,-7220,4653,1033,5289,2025-02-06 17:29:30,0.0
-15564,6988,-8500,2070,-903,3803,2025-02-06 17:29:30,0.0
-15192,7008,-7124,-1313,-2141,913,2025-02-06 17:29:30,0.0
-16132,4676,-5620,-2816,-1707,-738,2025-02-06 17:29:30,0.0
-15072,2688,-3432,-3084,-3083,-1617,2025-02-06 17:29:30,0.0
-12340,1944,-3800,-2954,-5606,-3611,2025-02-06 17:29:31,0.0
-11004,1532,-5984,-3856,-6242,-4950,2025-02-06 17:29:31,0.0
-9600,416,-7108,-4621,-5048,-5981,2025-02-06 17:29:31,0.0
-9160,-1596,-7196,-4865,-2238,-6423,2025-02-06 17:29:31,0.0
-9588,-3172,-6260,-4623,996,-5482,2025-02-06 17:29:31,0.0
-9532,-4580,-4860,-3924,3787,-3976,2025-02-06 17:29:31,0.0
-10236,-4164,-3928,-3043,5448,-2836,2025-02-06 17:29:31,0.0
-10908,-3512,-2912,-1975,5344,-2858,2025-02-06 17:29:31,0.0
-12192,-2364,-3192,-835,4320,-3728,2025-02-06 17:29:31,0.0
-13248,-1572,-4584,-931,3500,-4179,2025-02-06 17:29:31,0.0
-13828,-1440,-4608,-1315,2061,-4559,2025-02-06 17:29:31,0.0
-13788,-1892,-4572,-988,1779,-5038,2025-02-06 17:29:31,0.0
-13328,-2152,-4680,-631,1269,-5253,2025-02-06 17:29:31,0.0
-13096,-2000,-3812,-780,325,-5294,2025-02-06 17:29:31,0.0
