acceleration_x,acceleration_y,acceleration_z,gyroscope_x,gyroscope_y,gyroscope_z,timestamp,label
-13236,-912,-2776,-48,220,-152,2025-02-17 11:20:00,0.0
-13200,-792,-2824,-188,318,-223,2025-02-17 11:20:00,0.0
-13272,-984,-2784,-119,292,-266,2025-02-17 11:20:00,0.0
-13220,-932,-2672,32,283,-245,2025-02-17 11:20:00,0.0
-13200,-996,-2780,-58,270,-237,2025-02-17 11:20:00,0.0
-13228,-1016,-2888,-229,328,-313,2025-02-17 11:20:00,0.0
-13312,-1060,-2744,-134,303,-244,2025-02-17 11:20:00,0.0
-13220,-988,-2876,-110,255,-217,2025-02-17 11:20:00,0.0
-13236,-992,-2708,-57,205,-207,2025-02-17 11:20:00,0.0
-13244,-904,-3072,-95,202,-202,2025-02-17 11:20:00,0.0
-13128,-804,-2804,-229,320,-307,2025-02-17 11:20:00,0.0
-13300,-884,-2656,22,404,-205,2025-02-17 11:20:00,0.0
-13220,-900,-3076,2,327,-119,2025-02-17 11:20:00,0.0
-13300,-1016,-3112,-170,218,-229,2025-02-17 11:20:00,0.0
-13340,-972,-2716,-104,110,-209,2025-02-17 11:20:00,0.0
-13252,-984,-2880,-59,128,-217,2025-02-17 11:20:00,0.0
-13176,-988,-2836,7,115,-240,2025-02-17 11:20:00,0.0
-13216,-988,-2728,19,194,-254,2025-02-17 11:20:00,0.0
-13148,-880,-2968,-14,278,-255,2025-02-17 11:20:00,0.0
-13308,-1000,-3080,-40,273,-223,2025-02-17 11:20:00,0.0
-13144,-936,-3280,-161,204,-190,2025-02-17 11:20:00,0.0
-13348,-1072,-3048,-186,288,-222,2025-02-17 11:20:00,0.0
-13200,-1064,-2776,-86,325,-220,2025-02-17 11:20:01,0.0
-13152,-904,-2832,-28,288,-147,2025-02-17 11:20:01,0.0
-13244,-920,-3144,-51,358,-163,2025-02-17 11:20:01,0.0
-13148,-1004,-3076,-49,315,-195,2025-02-17 11:20:01,0.0
-13240,-972,-2936,-4,261,-140,2025-02-17 11:20:01,0.0
-13104,-944,-3072,-64,305,-181,2025-02-17 11:20:01,0.0
-13116,-1040,-3072,-173,277,-241,2025-02-17 11:20:01,0.0
-13096,-1056,-2864,-112,279,-214,2025-02-17 11:20:01,0.0
-13120,-1000,-2872,37,340,-194,2025-02-17 11:20:01,0.0
-13052,-952,-3076,127,295,-142,2025-02-17 11:20:01,0.0
-13176,-856,-3124,9,309,-168,2025-02-17 11:20:01,0.0
-13228,-1088,-2948,111,321,-109,2025-02-17 11:20:01,0.0
-13228,-960,-2972,246,312,-22,2025-02-17 11:20:01,0.0
-13172,-868,-3316,140,389,-117,2025-02-17 11:20:01,0.0
-13164,-868,-3208,99,408,-88,2025-02-17 11:20:01,0.0
-13240,-840,-3120,161,339,-47,2025-02-17 11:20:01,0.0
-13220,-996,-3088,183,294,-61,2025-02-17 11:20:01,0.0
-13088,-836,-2872,184,356,-76,2025-02-17 11:20:01,0.0
-13216,-776,-3136,159,365,-70,2025-02-17 11:20:01,0.0
-12992,-760,-2948,171,403,-125,2025-02-17 11:20:01,0.0
-13084,-828,-3108,100,496,-151,2025-02-17 11:20:01,0.0
-13136,-844,-3036,105,477,-159,2025-02-17 11:20:01,0.0
-13076,-888,-3096,118,577,-125,2025-02-17 11:20:01,0.0
-13056,-780,-3068,180,697,-45,2025-02-17 11:20:01,0.0
-13124,-820,-3260,131,761,-52,2025-02-17 11:20:01,0.0
-13144,-764,-3140,111,732,-94,2025-02-17 11:20:01,0.0
-13304,-808,-3328,60,710,-57,2025-02-17 11:20:01,0.0
-13172,-760,-3088,70,684,-39,2025-02-17 11:20:01,0.0
-13072,-616,-3004,118,733,-81,2025-02-17 11:20:01,0.0
-13164,-616,-2960,163,686,-95,2025-02-17 11:20:01,0.0
-13300,-652,-3088,210,679,-81,2025-02-17 11:20:01,0.0
-13208,-612,-3020,213,534,-84,2025-02-17 11:20:01,0.0
-13332,-608,-2944,286,425,-33,2025-02-17 11:20:01,0.0
-13208,-464,-3432,278,304,29,2025-02-17 11:20:01,0.0
-13276,-308,-3004,218,195,14,2025-02-17 11:20:01,0.0
-13272,-108,-3144,172,263,-5,2025-02-17 11:20:01,0.0
-13400,-16,-3092,124,212,-29,2025-02-17 11:20:01,0.0
-13696,20,-2816,141,97,-7,2025-02-17 11:20:01,0.0
-13772,160,-2768,143,-182,-23,2025-02-17 11:20:01,0.0
-13700,300,-2728,7,-477,-127,2025-02-17 11:20:01,0.0
-13428,200,-2824,-105,-1043,-389,2025-02-17 11:20:01,0.0
-13324,96,-2984,-407,-1761,-763,2025-02-17 11:20:01,0.0
-13344,-356,-3580,-1377,-1864,-1667,2025-02-17 11:20:01,0.0
-13044,-760,-3616,-1455,-1833,-1989,2025-02-17 11:20:01,0.0
-12932,-1044,-3868,-1424,-2078,-2044,2025-02-17 11:20:01,0.0
-12276,-1212,-3604,-1391,-2100,-2087,2025-02-17 11:20:01,0.0
-11924,-1704,-2968,-1185,-1356,-1914,2025-02-17 11:20:01,0.0
-11572,-2272,-2128,-1013,-153,-1642,2025-02-17 11:20:01,0.0
-11904,-2780,-1768,-833,1088,-1353,2025-02-17 11:20:01,0.0
-12992,-3092,-1516,-744,2246,-893,2025-02-17 11:20:01,0.0
-13280,-3092,-1208,-544,2647,-809,2025-02-17 11:20:01,0.0
-13732,-2708,-1112,-206,2575,-983,2025-02-17 11:20:01,0.0
-13984,-1732,-768,344,1551,-1020,2025-02-17 11:20:01,0.0
-13696,-1160,-1072,703,834,-1131,2025-02-17 11:20:01,0.0
-12704,-1316,-1196,349,1026,-1764,2025-02-17 11:20:01,0.0
-12436,-1836,-1624,73,1594,-2446,2025-02-17 11:20:01,0.0
-12692,-2660,-2072,-171,2274,-2643,2025-02-17 11:20:01,0.0
-13156,-3172,-2472,-389,2723,-2522,2025-02-17 11:20:01,0.0
-13852,-2940,-2152,-402,2736,-2016,2025-02-17 11:20:01,0.0
-14232,-2240,-1844,-457,2175,-1604,2025-02-17 11:20:01,0.0
-14088,-1560,-1248,-665,879,-1443,2025-02-17 11:20:02,0.0
-13376,-1520,-1040,-801,-772,-1421,2025-02-17 11:20:02,0.0
-12688,-1548,-952,-899,-1638,-1457,2025-02-17 11:20:02,0.0
-12152,-2004,-692,-951,-1482,-1398,2025-02-17 11:20:02,0.0
-11788,-2132,-920,-1009,-499,-1229,2025-02-17 11:20:02,0.0
-12168,-2272,-1216,-1145,1553,-949,2025-02-17 11:20:02,0.0
-13060,-2092,-1444,-1399,3228,-494,2025-02-17 11:20:02,0.0
-13784,-1656,-856,-1653,3393,-341,2025-02-17 11:20:02,0.0
-14780,-1520,-536,-2042,2488,-343,2025-02-17 11:20:02,0.0
-15268,-1520,-352,-2292,932,-183,2025-02-17 11:20:02,0.0
-15104,-1328,-560,-2406,-596,-174,2025-02-17 11:20:03,0.0
-14640,-1280,-508,-2360,-1691,-341,2025-02-17 11:20:03,0.0
-13872,-1124,-812,-2405,-2607,-667,2025-02-17 11:20:03,0.0
-13384,-1384,-328,-2635,-3175,-1086,2025-02-17 11:20:03,0.0
-13264,-1728,220,-3536,-2722,-1920,2025-02-17 11:20:03,0.0
-13508,-2084,448,-4368,-1987,-1998,2025-02-17 11:20:03,0.0
-13820,-2864,-20,-5249,-2040,-1965,2025-02-17 11:20:03,0.0
-13516,-3888,-2880,-6540,-2126,-2317,2025-02-17 11:20:03,
-14156,-780,-4984,208,5901,2758,2025-02-17 11:20:04,0.0
-12252,696,-4268,-8871,330,-1081,2025-02-17 11:20:04,0.0
-12268,856,-3872,-8152,353,-845,2025-02-17 11:20:04,0.0
-12688,1136,-4184,-7720,574,-434,2025-02-17 11:20:04,0.0
-12960,1396,-4528,-7463,890,154,2025-02-17 11:20:04,0.0
-13364,1296,-4548,-7051,1372,997,2025-02-17 11:20:04,0.0
-13676,1156,-4820,-6754,1490,2195,2025-02-17 11:20:04,0.0
-13588,1092,-4748,-6486,1511,3284,2025-02-17 11:20:04,0.0
-12876,1180,-4996,-6041,1625,3888,2025-02-17 11:20:04,0.0
-12104,1476,-5208,-5544,1545,4014,2025-02-17 11:20:04,0.0
-12628,1272,-4948,-4683,2486,3768,2025-02-17 11:20:04,0.0
-13948,1100,-4912,-4052,4832,4987,2025-02-17 11:20:04,0.0
-14088,752,-3584,-3062,7710,6849,2025-02-17 11:20:04,0.0
-11980,672,-4692,-2251,12687,7907,2025-02-17 11:20:04,0.0
-10720,1280,-4300,-1267,18207,8137,2025-02-17 11:20:04,0.0
-12148,1408,-4420,-268,24458,9242,2025-02-17 11:20:04,0.0
-13128,712,-6124,24,32695,11840,2025-02-17 11:20:04,0.0
-11620,-96,-7340,-1016,32767,13692,2025-02-17 11:20:04,0.0
-7688,-1276,-7960,-2151,32767,13127,2025-02-17 11:20:04,0.0
-1816,456,4872,-696,32767,11102,2025-02-17 11:20:04,0.0
-10956,-2328,-23688,-4023,29048,10507,2025-02-17 11:20:04,0.0
-8588,-3732,-19564,-11889,32767,9337,2025-02-17 11:20:04,0.0
-7496,-2540,-15824,-13223,32767,7729,2025-02-17 11:20:04,0.0
-5960,-980,-14268,-13763,32767,6825,2025-02-17 11:20:04,0.0
-3344,224,-12472,-14890,31589,5700,2025-02-17 11:20:04,0.0
-1176,524,-10172,-14911,23891,4107,2025-02-17 11:20:04,0.0
200,1224,-9576,-14550,14294,2956,2025-02-17 11:20:04,0.0
-424,2620,-9132,-13871,2527,2729,2025-02-17 11:20:04,0.0
-1204,2904,-8008,-12622,-9665,4335,2025-02-17 11:20:04,0.0
680,1616,-3260,-9252,-23746,6471,2025-02-17 11:20:04,0.0
-864,-1492,2424,-7959,-32768,11301,2025-02-17 11:20:04,0.0
2976,-636,588,-4564,-32768,14845,2025-02-17 11:20:04,0.0
2404,-496,1864,-4091,-32749,14472,2025-02-17 11:20:04,0.0
2560,-468,1848,-3055,-31914,14249,2025-02-17 11:20:04,0.0
2712,-428,1840,-2151,-30985,13760,2025-02-17 11:20:04,0.0
2692,-396,1744,-1205,-30155,13456,2025-02-17 11:20:04,0.0
2544,-416,2052,-179,-29510,13200,2025-02-17 11:20:04,0.0
2624,-368,1980,758,-29016,12842,2025-02-17 11:20:04,0.0
2928,-348,1768,1730,-28430,12252,2025-02-17 11:20:04,0.0
2604,-356,2236,2692,-27684,11790,2025-02-17 11:20:04,0.0
2476,-348,2164,3591,-27220,11262,2025-02-17 11:20:04,0.0
2480,-380,2148,4623,-26860,10877,2025-02-17 11:20:04,0.0
2540,-360,2212,5653,-26564,10563,2025-02-17 11:20:04,0.0
2672,-268,2208,6664,-26226,10063,2025-02-17 11:20:04,0.0
2608,-284,2168,7610,-25703,9523,2025-02-17 11:20:04,0.0
2636,-252,2164,8731,-24848,8760,2025-02-17 11:20:04,0.0
2728,-264,2232,9921,-23590,7749,2025-02-17 11:20:05,0.0
2640,-252,2188,10921,-22249,6732,2025-02-17 11:20:05,0.0
2728,-228,2156,11811,-20851,5694,2025-02-17 11:20:05,0.0
2768,-320,2008,12750,-19357,4707,2025-02-17 11:20:05,0.0
2768,-196,1728,13630,-17990,3668,2025-02-17 11:20:05,0.0
7256,2396,7564,20364,-16881,-179,2025-02-17 11:20:05,0.0
32767,32767,32767,32767,26998,-32768,2025-02-17 11:20:05,0.0
18580,31332,7316,32767,29564,-32768,2025-02-17 11:20:05,0.0
-32768,-32768,-32768,32767,-119,-32768,2025-02-17 11:20:05,0.0
-32768,-32768,-32768,19419,32767,-14534,2025-02-17 11:20:05,0.0
-9656,-32768,-32768,-23275,284,5626,2025-02-17 11:20:05,0.0
4020,-8412,-4740,-27351,-6926,10578,2025-02-17 11:20:05,0.0
7364,1588,4376,-24759,-5123,7219,2025-02-17 11:20:05,0.0
7416,4056,11532,-16758,-4781,1837,2025-02-17 11:20:05,0.0
3600,3516,11560,-6581,-7563,-4912,2025-02-17 11:20:05,0.0
-5820,-4,7216,2437,-6475,-9188,2025-02-17 11:20:05,0.0
-14244,-4400,-3220,5517,4860,-8504,2025-02-17 11:20:05,0.0
-18608,-7188,-12724,4136,13797,-4671,2025-02-17 11:20:05,0.0
-14616,-6996,-18460,1671,11611,-453,2025-02-17 11:20:05,0.0
-5996,-2616,-18980,-562,4690,865,2025-02-17 11:20:05,0.0
-3436,-400,-12128,-588,-2137,-261,2025-02-17 11:20:05,0.0
-9304,-3016,-9116,318,-1849,-486,2025-02-17 11:20:05,0.0
-8388,-3088,-10640,47,1297,-121,2025-02-17 11:20:05,0.0
-7236,-2540,-11820,-205,244,-171,2025-02-17 11:20:06,0.0
-8188,-2536,-11236,-193,101,-157,2025-02-17 11:20:06,0.0
-7660,-2784,-11284,-57,298,-141,2025-02-17 11:20:06,0.0
-7972,-2624,-11308,-120,-20,-163,2025-02-17 11:20:06,0.0
-7968,-2828,-10968,-140,111,-170,2025-02-17 11:20:06,0.0
-7776,-2700,-11220,-133,344,-176,2025-02-17 11:20:06,0.0
-7736,-2568,-11160,-183,215,-185,2025-02-17 11:20:06,0.0
-7772,-2736,-11252,-136,134,-191,2025-02-17 11:20:06,0.0
-7708,-2664,-11108,-141,133,-200,2025-02-17 11:20:06,0.0
-7768,-2696,-11108,-132,179,-175,2025-02-17 11:20:06,0.0
-7872,-2720,-11144,-128,172,-142,2025-02-17 11:20:06,0.0
-7748,-2748,-11212,-157,176,-182,2025-02-17 11:20:06,0.0
-7760,-2676,-11268,-136,205,-180,2025-02-17 11:20:06,0.0
-7844,-2748,-11076,-149,187,-185,2025-02-17 11:20:06,0.0
-7792,-2668,-11216,-157,165,-179,2025-02-17 11:20:06,0.0
-7788,-2768,-11108,-160,174,-168,2025-02-17 11:20:06,0.0
-7740,-2760,-11208,-166,175,-163,2025-02-17 11:20:06,0.0
-7764,-2724,-11228,-130,165,-174,2025-02-17 11:20:06,0.0
-7624,-2636,-11172,-153,181,-177,2025-02-17 11:20:06,0.0
-7764,-2752,-11112,-148,180,-200,2025-02-17 11:20:07,0.0
-7752,-2712,-11220,-146,190,-172,2025-02-17 11:20:07,0.0
-7812,-2716,-11116,-159,184,-173,2025-02-17 11:20:07,0.0
-7848,-2756,-11200,-176,192,-171,2025-02-17 11:20:07,0.0
-7796,-2776,-11188,-149,152,-178,2025-02-17 11:20:07,0.0
-7852,-2732,-11020,-148,182,-177,2025-02-17 11:20:07,0.0
-7888,-2752,-11192,-168,170,-174,2025-02-17 11:20:07,0.0
-7852,-2740,-11076,-164,182,-181,2025-02-17 11:20:07,0.0
-7740,-2764,-11108,-171,177,-161,2025-02-17 11:20:07,0.0
-7740,-2652,-11260,-146,173,-171,2025-02-17 11:20:07,0.0
-7684,-2708,-11216,-183,171,-189,2025-02-17 11:20:07,0.0
-7752,-2700,-11172,-153,159,-189,2025-02-17 11:20:07,
-7764,-2672,-11136,-129,242,-226,2025-02-17 11:20:07,0.0
-7708,-2724,-11136,-160,159,-187,2025-02-17 11:20:07,0.0
-7856,-2600,-11048,-23,372,-314,2025-02-17 11:20:07,0.0
-7132,-2664,-11192,-80,472,-328,2025-02-17 11:20:07,0.0
-7552,-2848,-11336,-45,371,-261,2025-02-17 11:20:07,0.0
-8032,-2780,-11252,33,75,-219,2025-02-17 11:20:07,0.0
-7728,-2684,-11316,-24,27,-285,2025-02-17 11:20:07,0.0
-7656,-2820,-10784,-213,158,-242,2025-02-17 11:20:07,0.0
-7420,-2784,-11448,-185,53,-342,2025-02-17 11:20:07,0.0
-7680,-2564,-11580,-202,-509,-426,2025-02-17 11:20:07,0.0
-7688,-2576,-10796,-139,-566,-500,2025-02-17 11:20:07,0.0
-7332,-2560,-10896,198,-1830,-500,2025-02-17 11:20:07,0.0
-7584,-2812,-11756,96,-2609,-441,2025-02-17 11:20:07,0.0
-7548,-2672,-10940,246,-2916,-433,2025-02-17 11:20:07,0.0
-8320,-3072,-11380,59,-1883,-713,2025-02-17 11:20:07,0.0
-9196,-3164,-9212,-540,876,-341,2025-02-17 11:20:07,0.0
-5696,-532,-4592,3029,4743,-1771,2025-02-17 11:20:07,0.0
-5512,-3400,-13296,3808,8084,-2568,2025-02-17 11:20:07,0.0
-9516,-5324,-14500,1868,7732,-1345,2025-02-17 11:20:07,0.0
-7228,-5096,-16808,434,4434,-688,2025-02-17 11:20:07,0.0
-6444,-3660,-15232,-758,-1065,89,2025-02-17 11:20:07,0.0
-7260,-1760,-10628,-414,-1780,-373,2025-02-17 11:20:07,0.0
-9112,-3576,-10140,406,112,-421,2025-02-17 11:20:07,0.0
-7016,-3560,-10784,-233,903,-80,2025-02-17 11:20:07,0.0
-6904,-2820,-11392,-265,250,-160,2025-02-17 11:20:07,0.0
-7740,-3436,-11484,-56,188,-413,2025-02-17 11:20:07,0.0
-7384,-3292,-11424,212,81,-299,2025-02-17 11:20:07,0.0
-7828,-4060,-12248,-142,68,61,2025-02-17 11:20:07,0.0
-6828,-3080,-11340,-612,-705,68,2025-02-17 11:20:07,0.0
-7568,-2976,-11616,-763,-541,-65,2025-02-17 11:20:07,0.0
-7496,-3264,-12336,-803,-809,-12,2025-02-17 11:20:07,0.0
-7236,-3380,-11656,-679,-1632,88,2025-02-17 11:20:07,0.0
-7876,-3488,-11736,-516,-1887,-42,2025-02-17 11:20:07,0.0
-8424,-4088,-12696,-998,-1485,151,2025-02-17 11:20:07,0.0
-8908,-4280,-12812,-1284,-1014,157,2025-02-17 11:20:07,0.0
-7556,-4868,-12912,-908,-1284,280,2025-02-17 11:20:07,0.0
-7120,-3460,-11788,1906,-836,-466,2025-02-17 11:20:07,0.0
-8040,-3512,-10652,6524,-1004,-1397,2025-02-17 11:20:07,0.0
-7076,-5232,-11888,12429,-16,-3288,2025-02-17 11:20:07,0.0
-8852,-7532,-17376,11727,2822,-6268,2025-02-17 11:20:07,0.0
-10512,-8500,-16880,10107,6637,-6176,2025-02-17 11:20:07,0.0
-10036,-9992,-20716,8390,4728,-4447,2025-02-17 11:20:07,0.0
-10524,-8136,-17876,4038,-3164,-2495,2025-02-17 11:20:07,0.0
-11516,-5532,-14996,995,-14770,-231,2025-02-17 11:20:07,0.0
-11256,-5416,-11556,2416,-23166,-496,2025-02-17 11:20:07,0.0
-12804,-7288,-4668,11094,-22000,-4285,2025-02-17 11:20:07,0.0
-17272,-10572,-17116,11642,-18758,-4385,2025-02-17 11:20:07,0.0
-17328,-13208,-32768,-2779,387,-782,2025-02-17 11:20:07,0.0
-8904,-11232,-25804,-12308,18596,-736,2025-02-17 11:20:07,0.0
-2460,-7836,-15652,-12170,28601,-6490,2025-02-17 11:20:07,0.0
-3144,-5120,-13636,-9008,32767,-10215,2025-02-17 11:20:08,0.0
-7124,-2516,-12992,-7843,32767,-9687,2025-02-17 11:20:08,0.0
-5320,-1488,-12624,-7015,32767,-8470,2025-02-17 11:20:08,0.0
-3548,-1484,-13488,-4690,32767,-9436,2025-02-17 11:20:08,0.0
-3144,-1768,-15116,-2897,32767,-10372,2025-02-17 11:20:08,0.0
-3340,-2200,-18012,-1828,32732,-10486,2025-02-17 11:20:08,0.0
-3316,-2604,-20452,-2565,22336,-9155,2025-02-17 11:20:08,0.0
-2140,-2736,-20456,-3586,10229,-7532,2025-02-17 11:20:08,0.0
-1700,-2724,-17824,-3454,-1853,-6551,2025-02-17 11:20:08,0.0
-1224,-2584,-15816,-1785,-11390,-6540,2025-02-17 11:20:08,0.0
-1240,-2880,-15168,-317,-18371,-7736,2025-02-17 11:20:08,0.0
-2136,-2960,-14916,66,-21425,-8625,2025-02-17 11:20:08,0.0
-4676,-3016,-15304,300,-22448,-8143,2025-02-17 11:20:08,0.0
-7184,-3320,-16712,39,-21061,-5845,2025-02-17 11:20:08,0.0
-7744,-4124,-18104,-627,-18142,-2882,2025-02-17 11:20:08,0.0
-4424,-6008,-18040,-1599,-16379,-1753,2025-02-17 11:20:08,0.0
-2124,-8280,-17960,-3752,-17053,-3180,2025-02-17 11:20:08,0.0
-3604,-8068,-14692,-5766,-16877,-4375,2025-02-17 11:20:08,0.0
-5304,-6756,-12652,-6064,-14515,-3736,2025-02-17 11:20:08,0.0
-6304,-5336,-12056,-6059,-10206,-2887,2025-02-17 11:20:08,0.0
-6544,-4140,-13128,-6835,-5619,-1841,2025-02-17 11:20:08,0.0
-4112,-2952,-13044,-8404,-1985,-1871,2025-02-17 11:20:08,0.0
-2116,-1884,-12120,-9180,-1157,-3390,2025-02-17 11:20:08,0.0
-2612,-1200,-11528,-9986,-2310,-4171,2025-02-17 11:20:08,0.0
-3316,-812,-10240,-10164,-4130,-4071,2025-02-17 11:20:08,0.0
-4192,-940,-9112,-9509,-5560,-3307,2025-02-17 11:20:08,0.0
-3944,-1024,-8136,-8472,-6366,-2379,2025-02-17 11:20:08,0.0
-3112,-1556,-7900,-7461,-7332,-2228,2025-02-17 11:20:08,0.0
-3224,-2248,-9064,-7687,-8761,-2509,2025-02-17 11:20:08,0.0
-3244,-3100,-8860,-8598,-11318,-2272,2025-02-17 11:20:08,0.0
-2276,-4052,-8240,-8828,-14258,-2545,2025-02-17 11:20:08,0.0
-1648,-4724,-9556,-9388,-17173,-3563,2025-02-17 11:20:08,0.0
-2632,-4880,-10272,-11176,-19290,-4448,2025-02-17 11:20:08,0.0
-5568,-4100,-9212,-12897,-18384,-4130,2025-02-17 11:20:08,0.0
-6388,-3444,-7668,-13321,-14571,-3065,2025-02-17 11:20:08,0.0
-6704,-2700,-6656,-12836,-9106,-2125,2025-02-17 11:20:08,0.0
-6684,-1868,-6296,-12077,-4289,-1354,2025-02-17 11:20:08,0.0
-5164,-1504,-6404,-11107,-60,-1455,2025-02-17 11:20:08,0.0
-4056,-876,-6876,-10331,3020,-2904,2025-02-17 11:20:08,0.0
-4416,-316,-7232,-9674,5643,-4280,2025-02-17 11:20:08,0.0
-3568,-320,-7592,-9098,7241,-5507,2025-02-17 11:20:08,0.0
-2408,-592,-7924,-9188,5630,-6826,2025-02-17 11:20:08,0.0
-3044,-856,-8596,-9623,1868,-7126,2025-02-17 11:20:08,0.0
-2360,-1736,-10080,-11228,-2136,-7299,2025-02-17 11:20:08,0.0
-4836,-1444,-6972,-10834,-4216,-6478,2025-02-17 11:20:08,0.0
-4960,-1280,-6824,-9996,-2925,-4857,2025-02-17 11:20:08,0.0
-3760,-972,-7660,-9401,70,-6049,2025-02-17 11:20:08,0.0
-3732,-844,-8700,-9573,1875,-7828,2025-02-17 11:20:08,0.0
-4704,-800,-9396,-9513,1841,-8791,2025-02-17 11:20:08,0.0
-5984,-780,-9088,-8874,801,-8547,2025-02-17 11:20:08,
-6036,-904,-8752,-7710,-534,-8329,2025-02-17 11:20:08,0.0
-5428,-1200,-8004,-6179,-1973,-8201,2025-02-17 11:20:08,0.0
-6792,-1476,-7564,-4632,-3727,-7523,2025-02-17 11:20:08,0.0
-7356,-1580,-7820,-3384,-4951,-6478,2025-02-17 11:20:08,0.0
-7532,-2096,-8444,-2293,-6421,-5165,2025-02-17 11:20:08,0.0
-7812,-2436,-9080,-1669,-7580,-4571,2025-02-17 11:20:08,0.0
-8644,-3828,-10332,-2023,-7913,-4286,2025-02-17 11:20:08,0.0
-10544,-9020,-11552,-6130,-4637,-7685,2025-02-17 11:20:08,0.0
-13120,-9816,-7916,-12430,-2752,-11115,2025-02-17 11:20:08,0.0
-17508,-6624,-1624,-11366,-3713,-9382,2025-02-17 11:20:08,0.0
-13884,-2924,-4096,-3804,-7086,-4381,2025-02-17 11:20:08,0.0
-9488,-2544,-12668,332,-15039,-2245,2025-02-17 11:20:08,0.0
-10580,756,-14724,-2985,-22091,-3587,2025-02-17 11:20:09,0.0
-8748,572,-13500,-5433,-29644,-4390,2025-02-17 11:20:09,0.0
-11128,-1468,-6160,-4439,-32768,-5178,2025-02-17 11:20:09,0.0
-13396,-2192,-2940,-1460,-32768,-3931,2025-02-17 11:20:09,0.0
-12964,-1780,2968,3799,-32768,-1112,2025-02-17 11:20:09,0.0
-12448,-1748,-5200,4831,-32768,1969,2025-02-17 11:20:09,0.0
-11412,-1316,-5032,1870,-32768,3845,2025-02-17 11:20:09,0.0
-10140,-1716,-1804,388,-17739,2721,2025-02-17 11:20:09,0.0
-7104,-1576,-216,473,883,-522,2025-02-17 11:20:09,0.0
-7564,-1692,-1652,1823,12294,-2803,2025-02-17 11:20:09,0.0
-10936,-1040,-1684,2516,18184,-1951,2025-02-17 11:20:09,0.0
-11736,-1096,-2888,751,18012,-881,2025-02-17 11:20:09,0.0
-13588,-840,-3736,-488,19956,-982,2025-02-17 11:20:09,0.0
-14632,388,-5640,-3637,21793,-468,2025-02-17 11:20:09,0.0
-13568,444,-3212,-4694,20699,-1047,2025-02-17 11:20:09,0.0
-14576,-672,-4276,-3603,14713,-2547,2025-02-17 11:20:09,0.0
-16716,-1244,-3368,-1725,8383,-2538,2025-02-17 11:20:09,0.0
-17188,-1180,-3880,50,2328,-1070,2025-02-17 11:20:09,0.0
-16304,-712,-4472,473,-1575,-10,2025-02-17 11:20:09,0.0
-13436,8,-5112,-202,-3506,-186,2025-02-17 11:20:09,0.0
-11920,160,-5512,-1459,-3788,-1120,2025-02-17 11:20:09,0.0
-12524,528,-4760,-2452,-2695,-1126,2025-02-17 11:20:09,0.0
-12748,292,-5132,-3243,-135,-394,2025-02-17 11:20:09,0.0
-11720,700,-4508,-4382,1953,-339,2025-02-17 11:20:09,0.0
-11668,596,-4232,-5704,2921,-1107,2025-02-17 11:20:09,0.0
-11908,328,-4344,-5893,3367,-1810,2025-02-17 11:20:09,0.0
-13192,720,-3996,-7153,4110,-2810,2025-02-17 11:20:09,0.0
-13252,-280,-4784,-6494,2874,-3367,2025-02-17 11:20:09,0.0
-13860,36,-4884,-6853,1052,-3661,2025-02-17 11:20:09,0.0
-13592,-108,-4368,-6286,-743,-3633,2025-02-17 11:20:09,0.0
-13100,-240,-5064,-6470,-2140,-3502,2025-02-17 11:20:09,0.0
-12200,-92,-5296,-7272,-1895,-3471,2025-02-17 11:20:09,0.0
-11500,-464,-4464,-7701,-589,-3526,2025-02-17 11:20:09,0.0
-12092,-1164,-4636,-7814,538,-3103,2025-02-17 11:20:09,0.0
-12728,-1092,-4716,-8353,773,-2460,2025-02-17 11:20:09,0.0
-13512,-352,-3556,-8548,644,-2229,2025-02-17 11:20:09,0.0
-12676,2108,-4740,-9210,-1074,-2616,2025-02-17 11:20:09,0.0
-12968,3616,-5164,-9704,-2833,-3486,2025-02-17 11:20:09,0.0
-11992,1944,-7080,-10973,-4096,-4767,2025-02-17 11:20:09,0.0
-12636,-1120,-5480,-10840,-3074,-4995,2025-02-17 11:20:09,0.0
-12324,-2624,-5660,-10126,-2538,-3438,2025-02-17 11:20:09,0.0
-11888,-1812,-5380,-10568,-378,-1693,2025-02-17 11:20:09,0.0
-10632,-752,-5120,-11094,1579,-1511,2025-02-17 11:20:09,0.0
-12364,-124,-4960,-11760,2660,-2088,2025-02-17 11:20:09,0.0
-13360,244,-4208,-11760,3455,-2679,2025-02-17 11:20:09,0.0
-14316,704,-4896,-12278,1493,-3288,2025-02-17 11:20:09,0.0
-14180,304,-5516,-12872,-1120,-3679,2025-02-17 11:20:09,0.0
-13184,-252,-5612,-13124,-2745,-3593,2025-02-17 11:20:09,0.0
-11800,-480,-5356,-13166,-2461,-3311,2025-02-17 11:20:09,0.0
-11292,-168,-4528,-13468,-979,-3205,2025-02-17 11:20:09,0.0
-10912,-28,-5152,-14190,693,-3433,2025-02-17 11:20:09,0.0
-11664,-320,-4560,-14248,2361,-3798,2025-02-17 11:20:09,0.0
-12688,-196,-5260,-14517,2991,-3887,2025-02-17 11:20:09,0.0
-13008,-92,-5376,-14577,3038,-3868,2025-02-17 11:20:09,0.0
-12544,116,-5840,-14650,2069,-3796,2025-02-17 11:20:09,0.0
-11172,472,-6548,-15240,2009,-4081,2025-02-17 11:20:09,0.0
-10496,392,-5660,-15835,2830,-4866,2025-02-17 11:20:09,0.0
-11348,-68,-4568,-16045,3539,-5438,2025-02-17 11:20:09,0.0
-11692,-572,-3844,-15857,3804,-5692,2025-02-17 11:20:09,0.0
-12648,-1048,-4184,-15664,3846,-5675,2025-02-17 11:20:09,0.0
-13784,-1688,-3872,-15384,3190,-4897,2025-02-17 11:20:09,0.0
-13416,-1628,-7464,-15650,2361,-4394,2025-02-17 11:20:10,0.0
-13400,-1516,-4716,-16095,2306,-4790,2025-02-17 11:20:10,0.0
-14236,-1280,-3248,-15644,1735,-4151,2025-02-17 11:20:10,0.0
-13820,-1068,-3084,-14807,981,-3400,2025-02-17 11:20:10,0.0
-13220,-992,-3832,-14096,278,-2992,2025-02-17 11:20:10,0.0
-12508,-1344,-3444,-13366,48,-3028,2025-02-17 11:20:10,0.0
-12700,-1988,-3116,-12203,73,-2826,2025-02-17 11:20:10,0.0
-12628,-2288,-3176,-10558,1490,-2811,2025-02-17 11:20:10,0.0
-12836,-1672,-2616,-9464,2349,-2664,2025-02-17 11:20:10,0.0
-13740,232,-3432,-7158,3010,-2281,2025-02-17 11:20:10,0.0
-14284,156,-3236,-6913,1886,-2012,2025-02-17 11:20:10,0.0
-14776,452,-3120,-6132,1024,-1438,2025-02-17 11:20:10,0.0
-14156,572,-2392,-5201,1405,-1556,2025-02-17 11:20:10,0.0
-14400,1024,-2540,-4456,647,-1723,2025-02-17 11:20:10,0.0
-13652,1056,-2852,-4107,-855,-1812,2025-02-17 11:20:10,0.0
-13432,872,-2500,-3501,-2418,-1406,2025-02-17 11:20:10,0.0
-11824,984,-2744,-2649,-2323,-1229,2025-02-17 11:20:10,0.0
-11744,1148,-2464,-2126,-1174,-1067,2025-02-17 11:20:10,0.0
-11500,1200,-2844,-1981,70,-951,2025-02-17 11:20:10,0.0
-12180,1248,-1788,-1911,583,-1227,2025-02-17 11:20:10,0.0
-13184,1380,-1116,-1350,-33,-1227,2025-02-17 11:20:10,0.0
-13152,1596,-740,-666,-823,-1131,2025-02-17 11:20:10,0.0
-12368,2004,-1036,16,-1310,-1183,2025-02-17 11:20:10,0.0
-11724,2400,-1024,608,-1720,-1458,2025-02-17 11:20:10,0.0
-11948,2780,-396,1010,-1852,-1793,2025-02-17 11:20:10,0.0
-12560,3168,-1348,1361,-1527,-1779,2025-02-17 11:20:10,0.0
-13656,3176,-3012,1334,58,-1435,2025-02-17 11:20:10,
-14780,2808,-4716,949,2277,-1397,2025-02-17 11:20:10,0.0
-16716,2816,-5948,578,3668,-1162,2025-02-17 11:20:10,0.0
-17940,3064,-6936,124,3498,-419,2025-02-17 11:20:10,0.0
-18164,3164,-7092,-564,2329,147,2025-02-17 11:20:10,0.0
-17240,3376,-6108,-1555,-337,-102,2025-02-17 11:20:10,0.0
-15540,3384,-3976,-1725,-3716,-1128,2025-02-17 11:20:10,0.0
-13352,2740,-2284,-1211,-6502,-2650,2025-02-17 11:20:10,0.0
-11484,2768,-1904,-362,-8226,-3714,2025-02-17 11:20:10,0.0
-10008,2300,-3524,732,-7530,-4406,2025-02-17 11:20:10,0.0
-9540,1788,-5456,1204,-5044,-5002,2025-02-17 11:20:10,0.0
-9780,576,-7004,1027,-1301,-4939,2025-02-17 11:20:10,0.0
-9968,-700,-7484,173,1253,-4777,2025-02-17 11:20:10,0.0
-10852,-1064,-6092,-750,1885,-4638,2025-02-17 11:20:10,0.0
-11712,-1152,-5632,-1466,2070,-4478,2025-02-17 11:20:10,0.0
-12116,-484,-6112,-2573,1575,-4413,2025-02-17 11:20:10,0.0
-12768,16,-5820,-3502,-153,-4359,2025-02-17 11:20:10,0.0
-12720,-480,-5572,-3750,-1468,-4151,2025-02-17 11:20:10,0.0
-13084,-1396,-4092,-3576,-2007,-4310,2025-02-17 11:20:10,0.0
-12200,-1548,-4648,-3392,-1607,-4546,2025-02-17 11:20:10,0.0
-12136,-1444,-4440,-3015,-888,-4577,2025-02-17 11:20:10,0.0
-11736,-1696,-4568,-3052,-272,-5032,2025-02-17 11:20:10,0.0
-12276,-2072,-3800,-2871,-25,-5251,2025-02-17 11:20:10,0.0
-12704,-2308,-3332,-2454,85,-5027,2025-02-17 11:20:10,0.0
-12968,-2876,-4052,-2318,-587,-4591,2025-02-17 11:20:10,0.0
-13436,-2328,-2000,-1612,-1174,-3836,2025-02-17 11:20:10,0.0
-13340,-3196,-2492,113,-1717,-2068,2025-02-17 11:20:10,0.0
-9956,-2260,-6080,-1281,-3214,-2838,2025-02-17 11:20:10,0.0
-10192,-1860,-4064,-2946,-3633,-3865,2025-02-17 11:20:10,0.0
-11120,-1844,-3448,-3325,-2079,-3644,2025-02-17 11:20:10,0.0
-11168,-2132,-3124,-3327,717,-2769,2025-02-17 11:20:10,0.0
-11552,-2096,-3264,-3528,2669,-2237,2025-02-17 11:20:10,0.0
-12192,-2228,-2056,-3180,3192,-1844,2025-02-17 11:20:10,0.0
-12496,-2384,-2128,-2733,2835,-1582,2025-02-17 11:20:10,0.0
-12952,-2196,-1968,-2548,1800,-1565,2025-02-17 11:20:10,0.0
-12768,-2344,-1972,-2152,234,-1646,2025-02-17 11:20:11,0.0
-12748,-2544,-2836,-2389,-1260,-1622,2025-02-17 11:20:11,0.0
-12836,-2684,-2516,-2772,-1346,-1154,2025-02-17 11:20:11,0.0
-12584,-2808,-2816,-2896,-296,-725,2025-02-17 11:20:11,0.0
-13132,-2428,-2488,-3066,751,-612,2025-02-17 11:20:11,0.0
-12760,-1728,-2408,-3121,867,-1436,2025-02-17 11:20:11,0.0
-12960,-760,-3344,-3385,-169,-2813,2025-02-17 11:20:11,0.0
-13120,-732,-3348,-3526,-1260,-3752,2025-02-17 11:20:11,0.0
-13480,-1728,-3168,-3601,-2474,-4129,2025-02-17 11:20:11,0.0
-14180,-3128,-2720,-3964,-3197,-3562,2025-02-17 11:20:11,0.0
-15040,-3100,-2332,-4494,-2167,-2395,2025-02-17 11:20:11,0.0
-15184,-2716,-2948,-5382,-460,-1546,2025-02-17 11:20:11,0.0
-14660,-2696,-4028,-6938,1179,-2122,2025-02-17 11:20:11,0.0
-15368,-3332,-3728,-7462,1449,-3443,2025-02-17 11:20:11,0.0
-16464,-4408,-3252,-7087,1256,-4032,2025-02-17 11:20:11,0.0
-17088,-6084,-4204,-6955,210,-4086,2025-02-17 11:20:11,0.0
-16908,-6032,-5304,-6174,-1025,-3577,2025-02-17 11:20:11,0.0
-16068,-5152,-6432,-5302,-1233,-2941,2025-02-17 11:20:11,0.0
-14920,-3940,-7252,-5317,-1309,-2037,2025-02-17 11:20:11,0.0
-13704,-2764,-7056,-5509,-1855,-1099,2025-02-17 11:20:11,0.0
-12256,-2720,-6504,-5566,-2648,-498,2025-02-17 11:20:11,0.0
-10684,-1484,-6104,-4635,-3114,67,2025-02-17 11:20:11,0.0
-9752,-788,-5868,-3946,-2242,305,2025-02-17 11:20:11,0.0
-9396,36,-5648,-3350,-1091,379,2025-02-17 11:20:11,0.0
-9380,368,-5404,-2916,636,193,2025-02-17 11:20:11,0.0
-10096,0,-5508,-2737,2501,73,2025-02-17 11:20:11,0.0
-11488,-1252,-6096,-2644,4259,272,2025-02-17 11:20:11,0.0
-12560,-2184,-6120,-2604,6432,815,2025-02-17 11:20:11,0.0
-13652,-2804,-5924,-2473,7370,1683,2025-02-17 11:20:11,0.0
-14252,-2732,-5768,-2380,6687,2561,2025-02-17 11:20:11,0.0
-14116,-1924,-6244,-2229,3374,2874,2025-02-17 11:20:11,0.0
-12548,-1596,-6216,-1847,-443,2348,2025-02-17 11:20:11,0.0
-11780,-980,-5844,-1453,-2414,1810,2025-02-17 11:20:11,0.0
-10648,-628,-4864,-965,-2063,1613,2025-02-17 11:20:11,0.0
-10160,-220,-4752,-317,-1070,1392,2025-02-17 11:20:11,0.0
-10364,140,-4704,115,-10,1419,2025-02-17 11:20:11,0.0
-10684,368,-4472,256,956,1293,2025-02-17 11:20:11,0.0
-11444,448,-4444,386,1647,1112,2025-02-17 11:20:11,0.0
-11704,-132,-4260,399,2178,1091,2025-02-17 11:20:11,0.0
-13192,-908,-4076,638,2447,1049,2025-02-17 11:20:11,0.0
-13432,-1876,-4200,1038,2204,1482,2025-02-17 11:20:11,0.0
-13504,-2336,-3744,1453,1794,1580,2025-02-17 11:20:11,0.0
-12992,-2512,-4036,2013,1417,1710,2025-02-17 11:20:11,0.0
-12512,-2276,-3600,2725,848,1825,2025-02-17 11:20:11,0.0
-12764,-1868,-3504,3610,703,1963,2025-02-17 11:20:11,0.0
-12908,-868,-3028,4526,589,2448,2025-02-17 11:20:11,0.0
-12448,4,-3916,5085,611,2743,2025-02-17 11:20:11,0.0
-12160,460,-4504,5240,766,2728,2025-02-17 11:20:11,0.0
-12000,-152,-4596,5005,1043,2353,2025-02-17 11:20:11,0.0
-11752,-992,-5072,4976,980,2142,2025-02-17 11:20:11,0.0
-12144,-1192,-5508,5392,1212,2375,2025-02-17 11:20:11,0.0
-11632,-440,-6024,5728,1577,2705,2025-02-17 11:20:11,0.0
-11880,604,-5828,5568,1677,2623,2025-02-17 11:20:11,0.0
-11744,856,-4712,5206,2022,2187,2025-02-17 11:20:11,0.0
-13292,-764,-3576,4999,2408,1881,2025-02-17 11:20:11,0.0
-14028,-1992,-1944,6338,1744,2737,2025-02-17 11:20:11,0.0
-13364,-2660,-1472,8114,299,3040,2025-02-17 11:20:11,0.0
-12664,-2248,-1604,9250,-336,2767,2025-02-17 11:20:11,0.0
-12136,-1664,-2456,9885,339,2341,2025-02-17 11:20:11,0.0
-13320,-708,-4316,10362,1123,2489,2025-02-17 11:20:11,0.0
-14232,-2176,-7624,10698,1124,3223,2025-02-17 11:20:11,0.0
-14132,-3280,-8604,11057,536,4081,2025-02-17 11:20:12,0.0
-13456,-2740,-8404,10321,531,4716,2025-02-17 11:20:12,0.0
-11076,-2304,-7384,10023,817,4693,2025-02-17 11:20:12,0.0
-9952,-2148,-6668,10564,1814,4808,2025-02-17 11:20:12,0.0
-9856,-2324,-5416,11909,3967,5620,2025-02-17 11:20:12,
-9216,-1796,-6244,12981,4777,6228,2025-02-17 11:20:12,0.0
-9464,-1696,-7084,13156,4774,6275,2025-02-17 11:20:12,0.0
-10160,-2484,-7792,13065,5033,6032,2025-02-17 11:20:12,0.0
-11492,-3556,-7728,13530,4887,6340,2025-02-17 11:20:12,0.0
-12384,-3924,-6868,14643,3971,7119,2025-02-17 11:20:12,0.0
-12344,-3628,-6184,15547,2890,7172,2025-02-17 11:20:12,0.0
-11940,-2664,-6700,15463,2478,6316,2025-02-17 11:20:12,0.0
-11812,-2100,-6672,15275,2149,5783,2025-02-17 11:20:12,0.0
-11432,-2432,-6784,15438,2125,5808,2025-02-17 11:20:12,0.0
-11860,-3212,-6372,16336,2894,6347,2025-02-17 11:20:12,0.0
-11828,-3716,-6924,17120,4215,6916,2025-02-17 11:20:12,0.0
-11904,-3560,-7272,16966,4611,7146,2025-02-17 11:20:12,0.0
-12296,-2972,-6816,16740,3872,7209,2025-02-17 11:20:12,0.0
-12644,-2448,-6624,16574,2685,7205,2025-02-17 11:20:12,0.0
-12480,-2316,-6428,16499,1971,7220,2025-02-17 11:20:12,0.0
-12720,-2392,-6524,16563,1202,7446,2025-02-17 11:20:12,0.0
-12580,-2524,-6388,16760,210,7547,2025-02-17 11:20:12,0.0
-12324,-3088,-6252,17100,-610,7841,2025-02-17 11:20:12,0.0
-12532,-3600,-5484,17583,-607,8440,2025-02-17 11:20:12,0.0
-12088,-4028,-5596,17955,-204,9052,2025-02-17 11:20:12,0.0
-11524,-4100,-6820,17986,-382,9341,2025-02-17 11:20:12,0.0
-11552,-3596,-6472,17638,-1229,9615,2025-02-17 11:20:12,0.0
-11100,-3708,-6660,17363,-2057,9792,2025-02-17 11:20:12,0.0
-10788,-3860,-6280,17382,-1807,9808,2025-02-17 11:20:12,0.0
-11084,-4376,-6560,17574,-1409,9929,2025-02-17 11:20:12,0.0
-11264,-4880,-6764,18020,-1456,10191,2025-02-17 11:20:12,0.0
-11068,-4380,-6800,18574,-1664,10254,2025-02-17 11:20:12,0.0
-11116,-3712,-6584,18606,-1727,10067,2025-02-17 11:20:12,0.0
-10780,-2936,-6584,18461,-1598,9754,2025-02-17 11:20:12,0.0
-10420,-2376,-7256,18167,-1206,9507,2025-02-17 11:20:12,0.0
-11028,-2028,-7140,17819,-448,9510,2025-02-17 11:20:12,0.0
-10468,-2008,-7648,17310,314,9368,2025-02-17 11:20:12,0.0
-10580,-2168,-7880,16676,1064,9135,2025-02-17 11:20:12,0.0
-11284,-2044,-7404,16209,1465,9020,2025-02-17 11:20:12,0.0
-11456,-1512,-7460,15657,1671,8868,2025-02-17 11:20:12,0.0
-11688,-1804,-7144,14789,1334,8651,2025-02-17 11:20:12,0.0
-11824,-1056,-7792,14195,1296,8277,2025-02-17 11:20:12,0.0
-11572,-2104,-7252,13334,847,7314,2025-02-17 11:20:12,0.0
-11272,-2404,-6680,13435,242,6418,2025-02-17 11:20:12,0.0
-10792,-1080,-7472,12810,171,6040,2025-02-17 11:20:12,0.0
-11180,-40,-6200,12578,2051,5505,2025-02-17 11:20:12,0.0
-11772,636,-6224,11593,3868,4990,2025-02-17 11:20:12,0.0
-12520,428,-5828,10989,4368,4710,2025-02-17 11:20:12,0.0
-12976,-1220,-5980,11258,3439,4713,2025-02-17 11:20:12,0.0
-13924,-2140,-6104,12149,1786,5166,2025-02-17 11:20:12,0.0
-14236,-1772,-6300,12855,1451,5450,2025-02-17 11:20:12,0.0
-14224,-1304,-7800,13111,1337,5566,2025-02-17 11:20:12,0.0
-14020,-368,-8156,13336,696,5938,2025-02-17 11:20:12,0.0
-13668,64,-7028,13153,293,6485,2025-02-17 11:20:12,0.0
-13132,28,-5412,13236,699,6860,2025-02-17 11:20:12,0.0
-12752,-188,-4564,13729,367,7306,2025-02-17 11:20:12,0.0
-11860,-248,-3984,14604,-1273,7437,2025-02-17 11:20:12,0.0
-11404,388,-3844,14781,-2710,7497,2025-02-17 11:20:12,0.0
-10184,784,-4368,15202,-2154,6999,2025-02-17 11:20:12,0.0
-10040,1092,-5100,15253,-153,6070,2025-02-17 11:20:12,0.0
-11380,908,-5420,15164,1639,5641,2025-02-17 11:20:12,0.0
-12784,540,-5644,15018,1984,5736,2025-02-17 11:20:13,0.0
-13180,148,-6108,15129,1114,5935,2025-02-17 11:20:13,0.0
-13400,344,-6404,14669,118,6002,2025-02-17 11:20:13,0.0
-12636,216,-6296,14484,-1087,5668,2025-02-17 11:20:13,0.0
-12216,184,-6028,13776,-1822,5036,2025-02-17 11:20:13,0.0
-12256,-68,-5876,13495,-2332,4441,2025-02-17 11:20:13,0.0
-11600,-424,-6076,13089,-2581,3964,2025-02-17 11:20:13,0.0
-11156,56,-5920,12745,-2864,3400,2025-02-17 11:20:13,0.0
-10876,684,-6148,12174,-2839,3066,2025-02-17 11:20:13,0.0
-9912,1828,-6016,11283,-2096,2217,2025-02-17 11:20:13,0.0
-10200,2008,-7004,10250,-540,1340,2025-02-17 11:20:13,0.0
-10500,2072,-6508,9224,1138,659,2025-02-17 11:20:13,0.0
-10892,1624,-6496,8549,1711,21,2025-02-17 11:20:13,0.0
-11568,236,-4856,8185,1832,-720,2025-02-17 11:20:13,0.0
-13696,-1340,-5424,7944,2571,-547,2025-02-17 11:20:13,0.0
-14344,-2776,-7048,7078,3812,62,2025-02-17 11:20:13,0.0
-14636,-4056,-6256,6777,4424,847,2025-02-17 11:20:13,0.0
-14460,-4612,-3684,7529,2227,2289,2025-02-17 11:20:13,0.0
-12596,-4388,-3128,8423,617,3044,2025-02-17 11:20:13,0.0
-10984,-3528,-3912,9078,-289,3175,2025-02-17 11:20:13,0.0
-10132,-2668,-4224,9216,-237,3136,2025-02-17 11:20:13,0.0
-10796,-1752,-5192,9347,809,3462,2025-02-17 11:20:13,0.0
-11408,-1604,-4840,9512,1832,4145,2025-02-17 11:20:13,0.0
-11548,-1572,-4584,9776,2475,4575,2025-02-17 11:20:13,0.0
-10900,-1712,-5048,10045,2279,4286,2025-02-17 11:20:13,0.0
-10588,-1300,-5604,10014,2233,3121,2025-02-17 11:20:13,0.0
-11492,-1004,-6604,9590,3296,1467,2025-02-17 11:20:13,0.0
-12988,-804,-6844,8657,3793,766,2025-02-17 11:20:13,0.0
-14316,-20,-7384,7302,3728,674,2025-02-17 11:20:13,0.0
-14932,432,-7928,5543,3108,991,2025-02-17 11:20:13,0.0
-14520,528,-8008,3788,1943,1247,2025-02-17 11:20:13,0.0
-13836,100,-6444,2804,-62,1081,2025-02-17 11:20:13,0.0
-12704,-1252,-5336,2207,-1614,763,2025-02-17 11:20:13,0.0
-12492,-1808,-4036,2150,-2150,612,2025-02-17 11:20:13,0.0
-12076,-1960,-4044,2671,-1864,941,2025-02-17 11:20:13,0.0
-11544,-1824,-4508,2723,-915,747,2025-02-17 11:20:13,0.0
-12100,-1368,-4044,2112,503,504,2025-02-17 11:20:13,0.0
-12420,-1368,-3836,1834,713,247,2025-02-17 11:20:13,0.0
-12600,-2296,-4020,1793,252,-33,2025-02-17 11:20:13,0.0
-12564,-2844,-4584,1931,-184,-310,2025-02-17 11:20:13,0.0
-12520,-2928,-4740,1834,-574,-481,2025-02-17 11:20:13,0.0
-12300,-2396,-5308,1328,-516,-755,2025-02-17 11:20:13,0.0
-12360,-1796,-5184,641,-286,-934,2025-02-17 11:20:13,0.0
-12720,-1540,-4584,-379,-9,-1014,2025-02-17 11:20:13,
-13140,-2008,-4300,-1147,221,-972,2025-02-17 11:20:13,0.0
-13196,-2468,-4316,-1221,46,-1290,2025-02-17 11:20:13,0.0
-13228,-2604,-4232,-1453,-350,-1772,2025-02-17 11:20:13,0.0
-13140,-2300,-3820,-1820,-985,-2218,2025-02-17 11:20:13,0.0
-12672,-2088,-3760,-2379,-1136,-2844,2025-02-17 11:20:13,0.0
-12596,-2472,-4092,-2902,-1272,-3144,2025-02-17 11:20:13,0.0
-12444,-3280,-4324,-3054,-1027,-3023,2025-02-17 11:20:13,0.0
-12208,-3472,-4536,-3032,-702,-2681,2025-02-17 11:20:13,0.0
-11924,-3692,-4508,-3048,-435,-2415,2025-02-17 11:20:13,0.0
-11704,-3848,-4212,-2898,-54,-2439,2025-02-17 11:20:13,0.0
-11696,-3672,-4100,-2895,-153,-2467,2025-02-17 11:20:13,0.0
-11616,-3412,-4312,-2732,-258,-2193,2025-02-17 11:20:13,0.0
-11692,-3340,-4280,-2629,145,-1908,2025-02-17 11:20:13,0.0
-11372,-3388,-4288,-2551,943,-1836,2025-02-17 11:20:13,0.0
-11968,-3704,-3992,-2077,1536,-1662,2025-02-17 11:20:13,0.0
-11880,-3640,-3932,-1815,1638,-1437,2025-02-17 11:20:13,0.0
-12128,-4072,-3460,-1724,1728,-1402,2025-02-17 11:20:13,0.0
-12464,-2788,-3924,-1374,2087,-1168,2025-02-17 11:20:13,0.0
-12240,-2660,-3876,-1569,1742,-1108,2025-02-17 11:20:13,0.0
-12832,-2304,-4224,-1820,1221,-1213,2025-02-17 11:20:14,0.0
-13060,-2328,-4040,-2130,603,-1218,2025-02-17 11:20:14,0.0
-12772,-2448,-4180,-2152,56,-1035,2025-02-17 11:20:14,0.0
-12368,-2368,-3812,-2403,-275,-773,2025-02-17 11:20:14,0.0
-11996,-2604,-3420,-2422,-510,-533,2025-02-17 11:20:14,0.0
-11856,-2752,-3424,-2608,30,-324,2025-02-17 11:20:14,0.0
-11944,-2572,-3776,-3067,1245,-245,2025-02-17 11:20:14,0.0
-12140,-2792,-3844,-3521,2194,-472,2025-02-17 11:20:14,0.0
-12704,-2964,-3956,-4385,2340,-991,2025-02-17 11:20:14,0.0
-12888,-3032,-4256,-5279,2246,-1393,2025-02-17 11:20:14,0.0
-13056,-3396,-4220,-5942,2000,-1636,2025-02-17 11:20:14,0.0
-13596,-3400,-3736,-5981,1710,-1529,2025-02-17 11:20:14,0.0
-13840,-3576,-3536,-5317,913,-930,2025-02-17 11:20:14,0.0
-13604,-3836,-3700,-4556,-190,-138,2025-02-17 11:20:14,0.0
-12824,-3868,-2972,-4252,-505,161,2025-02-17 11:20:14,0.0
-12456,-4732,-3212,-3916,-270,-171,2025-02-17 11:20:14,0.0
-12700,-5136,-4736,-3942,559,-459,2025-02-17 11:20:14,0.0
-14308,-4984,-5424,-3061,2392,-552,2025-02-17 11:20:14,0.0
-15776,-4960,-5984,-1529,3165,-825,2025-02-17 11:20:14,0.0
-17068,-5016,-6680,-955,1106,-614,2025-02-17 11:20:14,0.0
-16532,-5004,-6896,-294,-1043,-609,2025-02-17 11:20:14,0.0
-15760,-4644,-7112,99,-2012,-856,2025-02-17 11:20:14,0.0
-15312,-4120,-6716,614,-2514,-686,2025-02-17 11:20:14,0.0
-14236,-3744,-6276,1222,-3311,275,2025-02-17 11:20:14,0.0
-12960,-3684,-6056,1188,-4438,1732,2025-02-17 11:20:14,0.0
-11708,-3544,-6724,299,-4483,2540,2025-02-17 11:20:14,0.0
-11204,-2404,-6780,-71,-4689,3123,2025-02-17 11:20:14,0.0
-10324,-1240,-7532,163,-4849,3489,2025-02-17 11:20:14,0.0
-9016,-64,-7468,-161,-4675,3141,2025-02-17 11:20:14,0.0
-8444,504,-6704,-191,-3837,2518,2025-02-17 11:20:14,0.0
-8340,348,-6124,-178,-2475,2116,2025-02-17 11:20:14,0.0
-8656,124,-6000,-116,-685,1952,2025-02-17 11:20:14,0.0
-9604,-552,-6716,-267,1634,2047,2025-02-17 11:20:14,0.0
-12476,-1552,-7100,-1621,6661,2685,2025-02-17 11:20:14,0.0
-14116,-1608,-5972,-1508,6620,3313,2025-02-17 11:20:14,0.0
-15020,-1656,-5836,-1096,3652,3510,2025-02-17 11:20:14,0.0
-15152,-1236,-6032,-579,-122,3540,2025-02-17 11:20:14,0.0
-14508,-1020,-5548,118,-2493,3768,2025-02-17 11:20:14,0.0
-13124,-744,-4992,953,-3680,4102,2025-02-17 11:20:14,0.0
-11240,-840,-4388,1564,-4144,4515,2025-02-17 11:20:14,0.0
-10128,-408,-3960,1885,-3786,4163,2025-02-17 11:20:14,0.0
-9788,-152,-4008,2241,-2857,3643,2025-02-17 11:20:14,0.0
-9892,-156,-3860,2361,-1765,3315,2025-02-17 11:20:14,0.0
-9508,4,-3924,2369,-655,2933,2025-02-17 11:20:14,0.0
-9744,380,-3928,2224,471,2242,2025-02-17 11:20:14,0.0
-9856,1020,-3820,2189,1553,1435,2025-02-17 11:20:14,0.0
-10188,1012,-3276,2431,2359,356,2025-02-17 11:20:14,0.0
-11216,348,-2680,2538,2485,1,2025-02-17 11:20:14,0.0
-11908,-196,-3408,2764,1923,-57,2025-02-17 11:20:14,0.0
-12916,-644,-3420,2693,1062,-207,2025-02-17 11:20:14,0.0
-13576,-420,-3236,2647,-164,-271,2025-02-17 11:20:14,0.0
-13428,-152,-4040,2233,-1359,-464,2025-02-17 11:20:14,0.0
-13824,224,-3496,1869,-2251,-689,2025-02-17 11:20:14,0.0
-13320,-280,-3336,1973,-2873,-768,2025-02-17 11:20:14,0.0
-13448,-604,-2504,2344,-3257,-764,2025-02-17 11:20:14,0.0
-13480,-948,-2716,2385,-3337,-610,2025-02-17 11:20:14,0.0
-13504,-756,-3204,2032,-3360,-457,2025-02-17 11:20:14,0.0
-13844,-1064,-2356,1818,-3523,-362,2025-02-17 11:20:14,0.0
-13520,-1552,-3052,1364,-3580,180,2025-02-17 11:20:14,0.0
-12372,-488,-3972,-105,-3164,105,2025-02-17 11:20:14,0.0
-12260,312,-3700,-2375,-2320,-156,2025-02-17 11:20:14,0.0
-14368,-344,-1376,-2633,-2472,1196,2025-02-17 11:20:15,0.0
-16380,-2584,-2336,2627,-741,4430,2025-02-17 11:20:15,0.0
-16160,-1104,-6764,6423,2441,7051,2025-02-17 11:20:15,0.0
-16804,2596,-9608,4801,3539,8727,2025-02-17 11:20:15,0.0
-16684,4232,-9256,1961,3536,8077,2025-02-17 11:20:15,0.0
-18060,4248,-9360,1680,3281,6161,2025-02-17 11:20:15,0.0
-17740,2672,-9416,1814,-500,4768,2025-02-17 11:20:15,0.0
-9760,3344,-2412,3326,-5669,113,2025-02-17 11:20:15,0.0
-11308,2100,-4876,3650,-6077,-3539,2025-02-17 11:20:15,0.0
-9292,544,-5636,3322,-4056,-4262,2025-02-17 11:20:15,0.0
-9176,-152,-6604,3968,-3351,-4769,2025-02-17 11:20:15,0.0
-10524,-880,-7976,4262,-1708,-3211,2025-02-17 11:20:15,0.0
-9484,-1416,-6836,3839,-420,-1525,2025-02-17 11:20:15,0.0
-8808,-1756,-5232,3015,325,-511,2025-02-17 11:20:15,0.0
-9316,-1064,-4756,1711,1461,-410,2025-02-17 11:20:15,0.0
-10540,-444,-4792,854,2368,-745,2025-02-17 11:20:15,0.0
-12032,72,-5212,339,2461,-1390,2025-02-17 11:20:15,0.0
-13500,-256,-6104,-186,2107,-2508,2025-02-17 11:20:15,0.0
-14336,-624,-5348,-531,580,-2989,2025-02-17 11:20:15,0.0
-13948,-972,-6024,-882,-991,-2961,2025-02-17 11:20:15,
-12996,-1244,-5904,-1592,-1878,-3021,2025-02-17 11:20:15,0.0
-12904,-1264,-4980,-2254,-1761,-3143,2025-02-17 11:20:15,0.0
-12184,-1224,-4580,-2546,-1156,-2709,2025-02-17 11:20:15,0.0
-11984,-1348,-4496,-2290,-667,-2364,2025-02-17 11:20:15,0.0
-11808,-1268,-4220,-1943,-872,-2318,2025-02-17 11:20:15,0.0
-11552,-1156,-5132,-2179,-1045,-2330,2025-02-17 11:20:15,0.0
-11460,-892,-4808,-3198,-923,-2594,2025-02-17 11:20:15,0.0
-11604,-724,-4316,-5010,-138,-3334,2025-02-17 11:20:15,0.0
-11976,-1160,-4808,-5728,190,-3522,2025-02-17 11:20:15,0.0
-12588,-1592,-4876,-6211,185,-3393,2025-02-17 11:20:15,0.0
-12504,-1488,-4696,-6447,-505,-2995,2025-02-17 11:20:15,0.0
-12096,-1200,-4920,-7333,-498,-3178,2025-02-17 11:20:15,0.0
-12824,-1188,-4128,-8184,-422,-3337,2025-02-17 11:20:15,0.0
-12660,-1548,-4252,-8658,-993,-3200,2025-02-17 11:20:15,0.0
-12272,-1760,-4436,-9076,-1086,-3255,2025-02-17 11:20:15,0.0
-12012,-1564,-3932,-9552,-565,-3306,2025-02-17 11:20:15,0.0
-12032,-1852,-5088,-9907,59,-3198,2025-02-17 11:20:15,0.0
-12536,-1964,-4488,-10072,873,-3350,2025-02-17 11:20:15,0.0
-13020,-2356,-4496,-9886,1324,-3278,2025-02-17 11:20:15,0.0
-13292,-1696,-5376,-10983,77,-4395,2025-02-17 11:20:15,0.0
-12972,-1924,-5084,-11671,-931,-4612,2025-02-17 11:20:15,0.0
-12384,-1960,-4752,-12141,-1253,-4558,2025-02-17 11:20:15,0.0
-11452,-2120,-4500,-12261,-1029,-4379,2025-02-17 11:20:15,0.0
-11356,-2336,-3664,-12155,-114,-4222,2025-02-17 11:20:15,0.0
-12048,-2164,-2668,-11267,286,-3923,2025-02-17 11:20:15,0.0
-11176,-1424,-2740,-9939,-940,-4590,2025-02-17 11:20:15,0.0
-12600,-776,-5244,-10419,-2532,-5309,2025-02-17 11:20:15,0.0
-13132,-1244,-6692,-12449,-4331,-5223,2025-02-17 11:20:15,0.0
-12732,-2520,-5296,-14638,-4050,-4682,2025-02-17 11:20:15,0.0
-12028,-3828,-3704,-14557,-3227,-4495,2025-02-17 11:20:15,0.0
-12536,-4664,-4016,-13934,-2514,-4126,2025-02-17 11:20:15,0.0
-13264,-3924,-5488,-13781,-1697,-3319,2025-02-17 11:20:15,0.0
-11632,-3176,-5724,-14949,-1409,-3398,2025-02-17 11:20:15,0.0
-12324,-3972,-5568,-15399,-1928,-4091,2025-02-17 11:20:15,0.0
-12892,-3348,-7680,-14031,-1221,-3832,2025-02-17 11:20:15,0.0
-11944,-2476,-8464,-12672,1394,-4728,2025-02-17 11:20:15,0.0
-13212,-788,-7544,-11928,2668,-5662,2025-02-17 11:20:15,0.0
-14340,372,-6156,-12577,2299,-5079,2025-02-17 11:20:15,0.0
-14120,584,-4476,-12762,1334,-3931,2025-02-17 11:20:15,0.0
-13592,284,-4824,-12527,729,-3101,2025-02-17 11:20:15,0.0
-12828,332,-5392,-12687,241,-2597,2025-02-17 11:20:16,0.0
-11540,728,-4580,-12653,-362,-3052,2025-02-17 11:20:16,0.0
-10672,532,-5628,-13032,-282,-4054,2025-02-17 11:20:16,0.0
-11660,808,-4128,-13541,1219,-5480,2025-02-17 11:20:16,0.0
-16992,936,-3844,-12853,2013,-4054,2025-02-17 11:20:16,0.0
-15288,640,-3584,-13018,881,-1844,2025-02-17 11:20:16,0.0
-15280,756,-7104,-13650,-1969,-1198,2025-02-17 11:20:16,0.0
-12016,532,-5872,-15631,-3618,-1665,2025-02-17 11:20:16,0.0
-11260,-796,-3052,-14400,-2672,-2376,2025-02-17 11:20:16,0.0
-11508,-1328,-4280,-13032,-1673,-2794,2025-02-17 11:20:16,0.0
-12072,-1492,-5064,-13474,33,-1822,2025-02-17 11:20:16,0.0
-11348,-1356,-3956,-13631,1288,-1987,2025-02-17 11:20:16,0.0
-11972,-648,-3428,-13182,2000,-2198,2025-02-17 11:20:16,0.0
-13324,252,-3624,-12680,2706,-1745,2025-02-17 11:20:16,0.0
-13872,856,-3812,-12467,2980,-1158,2025-02-17 11:20:16,0.0
-13612,880,-3724,-12017,2594,-844,2025-02-17 11:20:16,0.0
-12556,800,-4100,-11173,1554,-1135,2025-02-17 11:20:16,0.0
-12488,876,-3804,-10112,837,-1514,2025-02-17 11:20:16,0.0
-12548,636,-4152,-9272,722,-1843,2025-02-17 11:20:16,0.0
-12696,148,-3348,-8586,1240,-1980,2025-02-17 11:20:16,0.0
-14128,-200,-3248,-7742,1631,-1450,2025-02-17 11:20:16,0.0
-15156,-1056,-2220,-6973,1763,-246,2025-02-17 11:20:16,0.0
-16500,-1928,-1864,-6258,2689,2548,2025-02-17 11:20:16,0.0
-17196,-1984,-2076,-6185,4228,5914,2025-02-17 11:20:16,0.0
-17064,-1520,-1256,-5638,5452,9160,2025-02-17 11:20:16,0.0
-14864,-388,-2580,-4236,7378,11608,2025-02-17 11:20:16,0.0
-13720,716,-3352,-3015,10196,12328,2025-02-17 11:20:16,0.0
-11888,1444,-4972,-2028,14542,11880,2025-02-17 11:20:16,0.0
-13612,1532,-6140,-2025,18995,12456,2025-02-17 11:20:16,0.0
-15080,256,-7556,-2623,25014,15059,2025-02-17 11:20:16,0.0
-14052,-1824,-8176,-3398,30158,17460,2025-02-17 11:20:16,0.0
-12368,-4420,-9120,-3821,32767,17967,2025-02-17 11:20:16,0.0
-13020,-5808,-7228,2224,20529,17914,2025-02-17 11:20:16,0.0
-14472,-8004,-18716,-4006,25017,20603,2025-02-17 11:20:16,0.0
-9716,-6788,-15044,-11514,31492,19692,2025-02-17 11:20:16,0.0
-6228,-3888,-13076,-15390,31430,16734,2025-02-17 11:20:16,0.0
-1648,-1904,-12952,-17517,27883,12285,2025-02-17 11:20:16,0.0
2352,440,-8916,-17988,21642,7555,2025-02-17 11:20:16,0.0
232,1980,-8368,-15246,11666,4438,2025-02-17 11:20:16,0.0
588,1896,-7544,-13431,676,4130,2025-02-17 11:20:16,0.0
2008,924,-6144,-12961,-10433,4382,2025-02-17 11:20:16,0.0
2364,4,-2828,-13781,-18521,5058,2025-02-17 11:20:16,0.0
844,-284,448,-15556,-24971,7846,2025-02-17 11:20:16,0.0
2860,-600,2072,-15458,-27427,8941,2025-02-17 11:20:16,0.0
2712,-564,1620,-15403,-27067,9372,2025-02-17 11:20:16,0.0
2644,-740,1796,-14921,-27362,10071,2025-02-17 11:20:16,0.0
2788,-716,1796,-14338,-27605,10766,2025-02-17 11:20:16,0.0
2572,-672,1920,-13698,-27662,11388,2025-02-17 11:20:16,0.0
2580,-656,1956,-13003,-27617,11834,2025-02-17 11:20:16,0.0
2584,-676,1928,-12259,-27594,12351,2025-02-17 11:20:16,0.0
2432,-588,1840,-11168,-27585,13052,2025-02-17 11:20:16,0.0
2480,-556,1920,-10202,-27281,13551,2025-02-17 11:20:16,0.0
2476,-456,1944,-9114,-26572,13955,2025-02-17 11:20:16,0.0
2252,-432,2060,-8067,-25844,14245,2025-02-17 11:20:16,0.0
2452,-500,2016,-7152,-25226,14515,2025-02-17 11:20:16,0.0
2388,-448,2288,-6085,-24571,14881,2025-02-17 11:20:16,0.0
2040,-284,2160,-4620,-23910,15374,2025-02-17 11:20:16,0.0
2480,-300,2028,-3370,-23710,15714,2025-02-17 11:20:16,0.0
2720,-232,2196,-1986,-23745,15814,2025-02-17 11:20:16,0.0
3364,-12,2232,-547,-24005,15511,2025-02-17 11:20:16,
4244,20,4076,1818,-24871,14571,2025-02-17 11:20:17,0.0
3012,208,7056,7375,-29658,14830,2025-02-17 11:20:17,0.0
0,1928,11456,21254,-32768,25555,2025-02-17 11:20:17,0.0
-9728,27160,23904,32767,-32768,32767,2025-02-17 11:20:17,0.0
-4816,-32768,32767,32767,32767,25036,2025-02-17 11:20:17,0.0
-2084,32767,-32768,32767,-17595,32767,2025-02-17 11:20:17,0.0
32767,-27344,-32768,32767,-25044,32767,2025-02-17 11:20:17,0.0
31184,-32768,-32768,32767,-16235,16934,2025-02-17 11:20:17,0.0
17576,-32376,-32768,4751,-5638,2140,2025-02-17 11:20:17,0.0
4724,-21700,-22552,-13923,-4964,-3287,2025-02-17 11:20:17,0.0
7336,-9444,-7656,-15870,-10585,-4714,2025-02-17 11:20:17,0.0
3780,1924,-7300,-18055,-11811,-5337,2025-02-17 11:20:17,0.0
1528,12208,-2056,-14342,-11349,-3943,2025-02-17 11:20:17,0.0
-992,22836,-2332,-8972,-7562,-158,2025-02-17 11:20:17,0.0
1596,32140,-1208,-6852,-3390,-1302,2025-02-17 11:20:17,0.0
-2052,26296,2900,-153,730,-1109,2025-02-17 11:20:17,0.0
1768,7148,-7872,4092,1064,482,2025-02-17 11:20:17,0.0
3272,6888,-13700,1911,1124,645,2025-02-17 11:20:17,0.0
4848,12780,-14200,-370,1114,314,2025-02-17 11:20:17,0.0
4980,13024,-9860,-849,150,-246,2025-02-17 11:20:17,0.0
3376,10968,-7508,-509,-138,-606,2025-02-17 11:20:17,0.0
1880,11924,-9212,-29,104,-269,2025-02-17 11:20:17,0.0
3244,11840,-9720,-138,399,30,2025-02-17 11:20:17,0.0
3804,11800,-9440,-148,202,-148,2025-02-17 11:20:17,0.0
3536,11636,-9720,-168,39,-265,2025-02-17 11:20:17,0.0
3176,11976,-9556,-269,85,-285,2025-02-17 11:20:17,0.0
2840,11588,-9104,-164,235,-117,2025-02-17 11:20:17,0.0
3320,12016,-9272,-66,282,-116,2025-02-17 11:20:17,0.0
3652,11652,-9888,-99,187,-118,2025-02-17 11:20:17,0.0
3336,11848,-9464,-198,199,-297,2025-02-17 11:20:17,0.0
2904,11648,-9468,-136,134,-205,2025-02-17 11:20:17,0.0
3000,11884,-9672,-128,167,-73,2025-02-17 11:20:17,0.0
3588,11888,-9584,-148,271,-218,2025-02-17 11:20:17,0.0
3136,11708,-9584,-221,130,-191,2025-02-17 11:20:17,0.0
3196,11824,-9476,-98,301,-127,2025-02-17 11:20:17,0.0
3360,11972,-8964,-121,211,-201,2025-02-17 11:20:17,0.0
3464,11704,-10128,-151,181,-141,2025-02-17 11:20:17,0.0
3056,11928,-9348,-190,141,-145,2025-02-17 11:20:17,0.0
3352,11696,-9400,-124,133,-201,2025-02-17 11:20:17,0.0
3212,11848,-9464,-160,215,-200,2025-02-17 11:20:17,0.0
3368,11820,-9352,-140,204,-170,2025-02-17 11:20:17,0.0
3256,11776,-9308,-151,200,-186,2025-02-17 11:20:17,0.0
3292,11856,-9512,-135,109,-190,2025-02-17 11:20:17,0.0
3252,11796,-9512,-168,183,-152,2025-02-17 11:20:17,0.0
3304,11800,-9544,-154,149,-181,2025-02-17 11:20:17,0.0
3204,11800,-9504,-160,183,-180,2025-02-17 11:20:17,0.0
3412,11876,-9492,-148,198,-199,2025-02-17 11:20:17,0.0
3208,11856,-9376,-150,171,-153,2025-02-17 11:20:17,0.0
3216,11832,-9448,-159,166,-166,2025-02-17 11:20:17,0.0
3256,11856,-9500,-165,172,-156,2025-02-17 11:20:17,0.0
3292,11852,-9368,-144,163,-168,2025-02-17 11:20:17,0.0
3244,11852,-9524,-179,155,-162,2025-02-17 11:20:17,0.0
3320,11784,-9384,-176,143,-181,2025-02-17 11:20:17,0.0
3272,11788,-9520,-152,164,-151,2025-02-17 11:20:17,0.0
3284,11800,-9564,-134,178,-166,2025-02-17 11:20:17,0.0
3316,11868,-9512,-169,194,-160,2025-02-17 11:20:17,0.0
3200,11784,-9300,-154,170,-182,2025-02-17 11:20:17,0.0
3152,11776,-9344,-133,188,-157,2025-02-17 11:20:17,0.0
3228,11728,-9528,-154,186,-168,2025-02-17 11:20:17,0.0
3272,11804,-9444,-177,166,-175,2025-02-17 11:20:17,0.0
3364,11696,-9392,-161,162,-178,2025-02-17 11:20:17,0.0
3108,11800,-9492,-146,176,-175,2025-02-17 11:20:17,0.0
3400,11768,-9452,-172,166,-157,2025-02-17 11:20:18,0.0
3328,11756,-9324,-173,165,-170,2025-02-17 11:20:18,0.0
3240,11816,-9448,-135,133,-174,2025-02-17 11:20:18,0.0
3260,11796,-9556,-178,185,-167,2025-02-17 11:20:18,0.0
3296,11744,-9436,-150,177,-160,2025-02-17 11:20:18,0.0
3296,11764,-9420,-156,162,-177,2025-02-17 11:20:18,0.0
3316,11768,-9412,-137,181,-171,2025-02-17 11:20:18,0.0
3352,11824,-9320,-132,176,-172,2025-02-17 11:20:18,0.0
3228,11728,-9464,-168,148,-178,2025-02-17 11:20:18,0.0
3256,11732,-9436,-155,180,-166,2025-02-17 11:20:18,0.0
3388,11824,-9444,-145,186,-183,2025-02-17 11:20:18,0.0
3324,11776,-9508,-184,168,-167,2025-02-17 11:20:18,0.0
3276,11772,-9364,-159,167,-158,2025-02-17 11:20:18,0.0
3332,11820,-9456,-185,181,-163,2025-02-17 11:20:18,0.0
3260,11816,-9364,-154,155,-179,2025-02-17 11:20:18,0.0
3332,11840,-9600,-163,177,-156,2025-02-17 11:20:18,0.0
3268,11756,-9416,-173,174,-162,2025-02-17 11:20:18,0.0
3268,11780,-9336,-134,155,-174,2025-02-17 11:20:18,0.0
3308,11744,-9516,-172,187,-184,2025-02-17 11:20:18,0.0
3236,11828,-9616,-149,186,-181,2025-02-17 11:20:18,0.0
3328,11860,-9476,-164,154,-183,2025-02-17 11:20:18,0.0
3220,11816,-9576,-150,170,-185,2025-02-17 11:20:18,0.0
3248,11872,-9600,-160,188,-158,2025-02-17 11:20:18,0.0
3296,11760,-9444,-148,178,-183,2025-02-17 11:20:18,0.0
3228,11824,-9588,-155,180,-174,2025-02-17 11:20:18,0.0
3328,11868,-9484,-180,175,-165,2025-02-17 11:20:18,0.0
3340,11808,-9404,-154,176,-179,2025-02-17 11:20:18,0.0
3436,11736,-9416,-152,177,-174,2025-02-17 11:20:18,0.0
3340,11832,-9396,-148,171,-186,2025-02-17 11:20:18,0.0
3244,11788,-9496,-164,185,-180,2025-02-17 11:20:18,0.0
3288,11872,-9464,-140,177,-180,2025-02-17 11:20:18,0.0
3280,11828,-9584,-177,179,-175,2025-02-17 11:20:18,0.0
3260,11860,-9448,-128,167,-155,2025-02-17 11:20:18,0.0
3308,11796,-9276,-139,156,-177,2025-02-17 11:20:18,0.0
3268,11800,-9364,-156,174,-175,2025-02-17 11:20:18,0.0
3260,11716,-9484,-156,140,-175,2025-02-17 11:20:18,0.0
3280,11764,-9436,-165,158,-180,2025-02-17 11:20:18,0.0
3368,11760,-9404,-150,183,-164,2025-02-17 11:20:18,
3268,11800,-9508,-185,178,-157,2025-02-17 11:20:18,0.0
3248,11816,-9352,-176,175,-194,2025-02-17 11:20:18,0.0
3324,11920,-9516,-142,167,-164,2025-02-17 11:20:18,0.0
3316,11884,-9536,-161,172,-183,2025-02-17 11:20:18,0.0
3280,11872,-9576,-163,152,-180,2025-02-17 11:20:18,0.0
3312,11828,-9524,-146,140,-169,2025-02-17 11:20:18,0.0
3244,11836,-9476,-147,165,-187,2025-02-17 11:20:18,0.0
3316,11812,-9568,-160,170,-170,2025-02-17 11:20:18,0.0
3292,11788,-9364,-174,162,-185,2025-02-17 11:20:18,0.0
3304,11820,-9460,-173,156,-172,2025-02-17 11:20:18,0.0
3236,11856,-9532,-175,190,-172,2025-02-17 11:20:18,0.0
3356,11876,-9468,-167,171,-164,2025-02-17 11:20:18,0.0
3212,11856,-9504,-153,177,-176,2025-02-17 11:20:18,0.0
3212,11816,-9452,-171,180,-166,2025-02-17 11:20:18,0.0
3296,11884,-9320,-122,188,-189,2025-02-17 11:20:18,0.0
3344,11736,-9528,-143,172,-185,2025-02-17 11:20:18,0.0
3376,11776,-9640,-163,179,-190,2025-02-17 11:20:18,0.0
3320,11760,-9596,-156,179,-190,2025-02-17 11:20:18,0.0
3272,11872,-9412,-154,176,-188,2025-02-17 11:20:18,0.0
3232,11824,-9556,-163,181,-166,2025-02-17 11:20:18,0.0
3284,11872,-9412,-159,179,-170,2025-02-17 11:20:18,0.0
3296,11812,-9424,-131,156,-190,2025-02-17 11:20:18,0.0
3304,11740,-9416,-181,206,-171,2025-02-17 11:20:18,0.0
3324,11708,-9416,-147,164,-182,2025-02-17 11:20:19,0.0
3248,11752,-9480,-151,155,-191,2025-02-17 11:20:19,0.0
3304,11784,-9336,-168,165,-197,2025-02-17 11:20:19,0.0
3336,11772,-9572,-138,169,-174,2025-02-17 11:20:19,0.0
3276,11808,-9468,-164,164,-166,2025-02-17 11:20:19,0.0
3288,11780,-9492,-150,154,-164,2025-02-17 11:20:19,0.0
3280,11784,-9612,-157,181,-181,2025-02-17 11:20:19,0.0
3340,11812,-9432,-183,185,-174,2025-02-17 11:20:19,0.0
3368,11856,-9356,-161,177,-174,2025-02-17 11:20:19,0.0
3304,11756,-9448,-155,189,-171,2025-02-17 11:20:19,0.0
3288,11732,-9496,-153,169,-191,2025-02-17 11:20:19,0.0
3376,11864,-9560,-174,144,-162,2025-02-17 11:20:19,0.0
3296,11708,-9564,-179,159,-152,2025-02-17 11:20:19,0.0
3272,11784,-9456,-169,175,-165,2025-02-17 11:20:19,0.0
3388,11708,-9288,-148,191,-166,2025-02-17 11:20:19,0.0
3216,11808,-9564,-150,170,-185,2025-02-17 11:20:19,0.0
3340,11820,-9436,-179,182,-196,2025-02-17 11:20:19,0.0
3204,11796,-9464,-162,177,-188,2025-02-17 11:20:19,0.0
3308,11816,-9480,-150,165,-192,2025-02-17 11:20:19,0.0
3212,11768,-9468,-141,185,-184,2025-02-17 11:20:19,0.0
3228,11864,-9504,-171,173,-170,2025-02-17 11:20:19,0.0
3272,11760,-9572,-154,174,-162,2025-02-17 11:20:19,0.0
3260,11740,-9492,-173,163,-188,2025-02-17 11:20:19,0.0
3264,11716,-9456,-156,170,-186,2025-02-17 11:20:19,0.0
3188,11788,-9384,-153,170,-178,2025-02-17 11:20:19,0.0
3360,11868,-9448,-134,160,-168,2025-02-17 11:20:19,0.0
3256,11804,-9612,-155,154,-173,2025-02-17 11:20:19,0.0
3312,11740,-9624,-124,132,-190,2025-02-17 11:20:19,0.0
3204,11828,-9444,-162,169,-188,2025-02-17 11:20:19,0.0
3232,11764,-9548,-157,155,-166,2025-02-17 11:20:19,0.0
3272,11776,-9460,-162,173,-202,2025-02-17 11:20:19,0.0
3324,11740,-9556,-160,173,-167,2025-02-17 11:20:19,0.0
3252,11800,-9512,-142,167,-203,2025-02-17 11:20:19,0.0
3236,11804,-9556,-184,180,-157,2025-02-17 11:20:19,0.0
3416,11772,-9464,-159,169,-178,2025-02-17 11:20:19,0.0
3244,11820,-9604,-179,196,-174,2025-02-17 11:20:19,0.0
3256,11820,-9368,-151,159,-194,2025-02-17 11:20:19,0.0
3232,11828,-9568,-167,147,-182,2025-02-17 11:20:19,0.0
3248,11764,-9384,-193,170,-163,2025-02-17 11:20:19,0.0
3304,11760,-9384,-130,187,-159,2025-02-17 11:20:19,0.0
3356,11816,-9356,-142,187,-171,2025-02-17 11:20:19,0.0
3336,11780,-9400,-169,169,-169,2025-02-17 11:20:19,0.0
3252,11864,-9472,-170,163,-198,2025-02-17 11:20:19,0.0
3228,11848,-9500,-173,189,-169,2025-02-17 11:20:19,0.0
3332,11820,-9544,-145,169,-146,2025-02-17 11:20:19,0.0
3300,11768,-9460,-148,166,-184,2025-02-17 11:20:19,0.0
3368,11780,-9564,-143,192,-159,2025-02-17 11:20:19,0.0
3232,11772,-9436,-168,173,-200,2025-02-17 11:20:19,0.0
3292,12016,-9140,-48,166,-176,2025-02-17 11:20:19,0.0
2608,11772,-8440,246,284,-64,2025-02-17 11:20:19,0.0
1496,11848,-7296,1068,537,370,2025-02-17 11:20:19,0.0
2696,11544,-10080,1125,1787,926,2025-02-17 11:20:20,0.0
5836,11824,-10220,916,823,488,2025-02-17 11:20:20,0.0
5560,11796,-10436,641,170,-344,2025-02-17 11:20:20,0.0
3620,11744,-11032,255,-237,-599,2025-02-17 11:20:20,0.0
2136,11980,-9964,-62,9,-290,2025-02-17 11:20:20,0.0
2980,11624,-9628,4,289,-14,2025-02-17 11:20:20,0.0
4784,11040,-10560,-344,100,-316,2025-02-17 11:20:20,0.0
4592,11692,-10400,-665,-198,-801,2025-02-17 11:20:20,0.0
3156,11632,-9592,-732,-382,-867,2025-02-17 11:20:20,0.0
2088,11660,-9220,-672,-137,-525,2025-02-17 11:20:20,0.0
2184,11556,-10040,-822,72,-74,2025-02-17 11:20:20,0.0
3176,11440,-10512,-1450,649,483,2025-02-17 11:20:20,0.0
9920,12456,-6352,-1036,-907,-837,2025-02-17 11:20:20,0.0
368,11312,-8676,336,-99,-143,2025-02-17 11:20:20,0.0
5864,12728,-11272,-320,748,-193,2025-02-17 11:20:20,0.0
3880,12428,-9212,21,47,-566,2025-02-17 11:20:20,0.0
3352,10428,-6580,496,721,-491,2025-02-17 11:20:20,0.0
4912,12820,-4352,4517,3023,-594,2025-02-17 11:20:20,0.0
448,12016,-5452,6833,3192,-1058,2025-02-17 11:20:20,0.0
4768,11400,-11484,6705,1576,-1456,2025-02-17 11:20:20,0.0
3524,11444,-13656,5148,197,-1677,2025-02-17 11:20:20,0.0
880,10832,-13724,3596,1711,-1246,2025-02-17 11:20:20,0.0
1704,9956,-11344,2691,2143,-714,2025-02-17 11:20:20,0.0
264,10692,-12116,1694,2566,812,2025-02-17 11:20:20,0.0
1124,9780,-12304,660,5106,2016,2025-02-17 11:20:20,0.0
5432,10120,-11444,-5,5714,1937,2025-02-17 11:20:20,
17696,8276,-31536,-3172,-2675,-53,2025-02-17 11:20:20,0.0
5788,9216,-14732,-7226,-7062,-479,2025-02-17 11:20:20,0.0
1876,12748,-5356,-6323,81,-1140,2025-02-17 11:20:20,0.0
1752,13040,-1540,-2371,-326,-207,2025-02-17 11:20:20,0.0
3272,11340,-5256,961,322,53,2025-02-17 11:20:20,0.0
4028,11264,-11964,1000,196,109,2025-02-17 11:20:20,0.0
4716,11168,-12612,-27,217,-115,2025-02-17 11:20:20,0.0
4840,11580,-9428,-229,-144,-632,2025-02-17 11:20:20,0.0
3924,11676,-8780,348,-789,-956,2025-02-17 11:20:20,0.0
4324,10360,-9956,466,-524,-1217,2025-02-17 11:20:20,0.0
3508,11288,-11324,-606,-560,-1145,2025-02-17 11:20:20,0.0
3452,12032,-8924,-492,-600,-1148,2025-02-17 11:20:20,0.0
3452,10704,-10308,-321,-413,-1027,2025-02-17 11:20:20,0.0
4084,10232,-12156,-1252,-156,-1245,2025-02-17 11:20:20,0.0
4864,9488,-15148,-3366,-18,-1963,2025-02-17 11:20:20,0.0
5464,9980,-14064,-5544,66,-3035,2025-02-17 11:20:20,0.0
-1768,14904,-5092,-5176,-2477,-794,2025-02-17 11:20:20,0.0
-2280,12924,-10188,-4682,-1956,1336,2025-02-17 11:20:20,0.0
-2896,10696,-13008,-5997,383,4491,2025-02-17 11:20:20,0.0
460,11612,-12336,-7429,-560,6368,2025-02-17 11:20:20,0.0
5768,11436,-11796,-9112,194,5947,2025-02-17 11:20:20,0.0
7332,12768,-9568,-9179,3670,4076,2025-02-17 11:20:20,0.0
7096,12624,-8088,-9153,5104,2781,2025-02-17 11:20:20,0.0
5536,12000,-8556,-9566,5182,2027,2025-02-17 11:20:20,0.0
5676,12188,-7752,-9590,4430,1143,2025-02-17 11:20:20,0.0
7852,12844,-5248,-7713,-52,-730,2025-02-17 11:20:20,0.0
7408,12864,-6216,-7358,-2891,-2049,2025-02-17 11:20:20,0.0
6268,12416,-5788,-6209,-2926,-3230,2025-02-17 11:20:20,0.0
5328,12248,-5468,-5332,-3032,-3781,2025-02-17 11:20:20,0.0
824,13256,-8384,-4593,-3223,-2889,2025-02-17 11:20:20,0.0
-2456,13640,-6648,-4321,-2382,-829,2025-02-17 11:20:20,0.0
-1208,13604,-2900,-3241,-768,1612,2025-02-17 11:20:20,0.0
-604,13864,-1912,-1285,-1672,3520,2025-02-17 11:20:20,0.0
2820,15104,-6648,-772,-2390,4423,2025-02-17 11:20:20,0.0
8160,13744,-8024,-1311,-2889,3038,2025-02-17 11:20:20,0.0
9704,13120,-7788,-1574,-781,479,2025-02-17 11:20:20,0.0
6828,13456,-4648,-1043,183,-1166,2025-02-17 11:20:20,0.0
2696,14520,-2932,420,-82,-1537,2025-02-17 11:20:21,0.0
3964,13788,-5128,1452,-393,-1418,2025-02-17 11:20:21,0.0
5624,13524,-7028,1697,-598,-1862,2025-02-17 11:20:21,0.0
4428,14112,-6968,1417,-359,-2502,2025-02-17 11:20:21,0.0
1740,12408,-12032,-703,293,-2260,2025-02-17 11:20:21,0.0
1696,14532,-12280,-3038,357,-1270,2025-02-17 11:20:21,0.0
3196,14612,-10164,-4590,526,-871,2025-02-17 11:20:21,0.0
5356,14364,-5688,-5010,-597,-1305,2025-02-17 11:20:21,0.0
5344,14340,940,-2618,-1619,-2473,2025-02-17 11:20:21,0.0
5868,13044,2352,1240,-42,-3526,2025-02-17 11:20:21,0.0
7056,12672,-5292,2664,1328,-5529,2025-02-17 11:20:21,0.0
6584,14200,-5768,2758,827,-7629,2025-02-17 11:20:21,0.0
2048,16112,-9564,3021,-160,-8006,2025-02-17 11:20:21,0.0
-3532,12632,-19108,-947,5548,-6025,2025-02-17 11:20:21,0.0
-708,12332,-17824,-8089,3842,-3896,2025-02-17 11:20:21,0.0
3996,13744,-14124,-10813,-2922,-3711,2025-02-17 11:20:21,0.0
4152,14412,-12384,-14283,-5988,-5426,2025-02-17 11:20:21,0.0
-2104,15280,-6576,-15434,-2581,-4232,2025-02-17 11:20:21,0.0
-4448,14384,-904,-14315,-1694,-1197,2025-02-17 11:20:21,0.0
-3080,13888,204,-12781,-1323,1014,2025-02-17 11:20:21,0.0
-356,13292,5168,-9061,-3119,2076,2025-02-17 11:20:21,0.0
1664,13744,5396,-4447,-5688,2149,2025-02-17 11:20:21,0.0
2168,15808,1864,-1257,-4723,1885,2025-02-17 11:20:21,0.0
2036,16648,-3204,-1080,-1426,2563,2025-02-17 11:20:21,0.0
3524,16956,-15008,-4836,21,1535,2025-02-17 11:20:21,0.0
5280,17300,-17492,-12234,990,-245,2025-02-17 11:20:21,0.0
5844,16956,-15260,-19933,1235,-2819,2025-02-17 11:20:21,0.0
5052,16924,-6124,-22758,-1627,-4537,2025-02-17 11:20:21,0.0
3004,18144,5580,-17772,-5250,-4475,2025-02-17 11:20:21,0.0
452,18348,7236,-10292,-7500,-3008,2025-02-17 11:20:21,0.0
-616,19068,4260,-5155,-8229,-451,2025-02-17 11:20:21,0.0
-1876,19712,2884,-4462,-7470,1898,2025-02-17 11:20:21,0.0
284,21324,-3412,-6165,-7427,3968,2025-02-17 11:20:21,0.0
1432,22016,-3424,-8884,-8307,5258,2025-02-17 11:20:21,0.0
4656,23072,-4620,-12566,-9791,4571,2025-02-17 11:20:21,0.0
2556,23408,432,-13872,-11442,3687,2025-02-17 11:20:21,0.0
-132,22212,4644,-10518,-12941,5019,2025-02-17 11:20:21,0.0
496,21416,3868,-6984,-13583,6260,2025-02-17 11:20:21,0.0
3532,21340,552,-5464,-14351,5810,2025-02-17 11:20:21,0.0
5732,21108,136,-5582,-14935,3108,2025-02-17 11:20:21,0.0
6552,20172,492,-5671,-15081,-344,2025-02-17 11:20:21,0.0
3352,19624,2592,-4203,-14353,-3508,2025-02-17 11:20:21,0.0
1612,19500,2108,-3047,-12972,-4339,2025-02-17 11:20:21,0.0
3984,21508,1244,-2275,-11065,-6105,2025-02-17 11:20:21,0.0
5704,22100,-1724,-3185,-9124,-9330,2025-02-17 11:20:21,0.0
1844,21048,-5068,-5719,-7371,-10946,2025-02-17 11:20:21,0.0
1828,20152,-4772,-10236,-5128,-11445,2025-02-17 11:20:21,0.0
4388,21200,3920,-9501,-2036,-13305,2025-02-17 11:20:21,0.0
1276,24016,11340,-428,1662,-15464,2025-02-17 11:20:21,0.0
-3892,22280,6508,10737,5522,-13345,2025-02-17 11:20:21,0.0
-3824,21380,-2208,13148,7550,-9809,2025-02-17 11:20:21,0.0
-1484,20480,-8068,11983,7520,-7910,2025-02-17 11:20:21,0.0
12,19396,-8904,9104,4235,-5767,2025-02-17 11:20:21,0.0
356,17400,-2708,7816,-283,-3308,2025-02-17 11:20:21,0.0
-1752,16788,1512,7681,-2043,-355,2025-02-17 11:20:21,0.0
-2772,16352,5476,11121,-2389,3465,2025-02-17 11:20:21,0.0
-912,16400,3472,14926,-3069,6244,2025-02-17 11:20:21,0.0
560,17144,524,15626,-3956,7522,2025-02-17 11:20:21,0.0
-1704,16348,-684,14681,-4676,8278,2025-02-17 11:20:21,0.0
-5056,15380,-752,13188,-5106,12104,2025-02-17 11:20:21,0.0
-3740,15176,756,10283,-8175,13828,2025-02-17 11:20:22,0.0
308,14108,1008,9350,-10252,14776,2025-02-17 11:20:22,0.0
3600,13424,1732,8942,-12910,12490,2025-02-17 11:20:22,
3752,13744,1672,8673,-15955,9133,2025-02-17 11:20:22,0.0
4328,13688,1008,8082,-18407,6151,2025-02-17 11:20:22,0.0
3704,13372,-560,6128,-20054,3161,2025-02-17 11:20:22,0.0
2492,13556,-796,3613,-20280,1810,2025-02-17 11:20:22,0.0
1220,13536,-108,1471,-19223,1376,2025-02-17 11:20:22,0.0
1556,12804,-148,-103,-17515,1439,2025-02-17 11:20:22,0.0
4528,10796,-480,-1927,-13900,-796,2025-02-17 11:20:22,0.0
4728,10360,-928,-3804,-9604,-3936,2025-02-17 11:20:22,0.0
3368,10544,-664,-5516,-3636,-6391,2025-02-17 11:20:22,0.0
2184,11184,-1208,-7137,3566,-7664,2025-02-17 11:20:22,0.0
2152,11196,-572,-8901,11830,-8499,2025-02-17 11:20:22,0.0
2884,10644,64,-9828,19663,-9972,2025-02-17 11:20:22,0.0
2568,10044,-916,-11342,27099,-12110,2025-02-17 11:20:22,0.0
1796,9648,-1212,-12811,32594,-13363,2025-02-17 11:20:22,0.0
860,8552,224,-13417,32767,-14261,2025-02-17 11:20:22,0.0
1140,8112,-1152,-14321,32767,-14967,2025-02-17 11:20:22,0.0
-352,7344,-732,-15561,32767,-14049,2025-02-17 11:20:22,0.0
1960,8612,-608,-16494,32767,-14627,2025-02-17 11:20:22,0.0
-1832,8968,-512,-17686,32767,-13238,2025-02-17 11:20:22,0.0
-804,8512,-152,-19558,32767,-10554,2025-02-17 11:20:22,0.0
1160,8284,-560,-21106,31266,-9920,2025-02-17 11:20:22,0.0
380,10292,1040,-21595,29060,-10686,2025-02-17 11:20:22,0.0
-772,13656,-1768,-16564,29506,-11190,2025-02-17 11:20:22,0.0
-668,13460,-2020,-15647,29017,-13066,2025-02-17 11:20:22,0.0
-1376,12024,308,-14136,27046,-15254,2025-02-17 11:20:22,0.0
-1892,10464,-832,-13443,23044,-16650,2025-02-17 11:20:22,0.0
-3072,10012,-1672,-13930,18074,-17053,2025-02-17 11:20:22,0.0
-3048,9128,-2168,-14598,13163,-16810,2025-02-17 11:20:22,0.0
-1216,8268,-1596,-15060,9702,-17988,2025-02-17 11:20:22,0.0
-476,8024,-924,-14519,7186,-21199,2025-02-17 11:20:22,0.0
-2912,7868,-108,-14039,6586,-24780,2025-02-17 11:20:22,0.0
-4864,7348,-1180,-15413,8114,-27462,2025-02-17 11:20:22,0.0
-7976,6556,700,-17434,11183,-28538,2025-02-17 11:20:22,0.0
-10296,6388,1852,-18262,15669,-28385,2025-02-17 11:20:22,0.0
-11028,5784,1392,-18689,19161,-26565,2025-02-17 11:20:22,0.0
-9004,5420,1932,-16347,20875,-24952,2025-02-17 11:20:22,0.0
-7576,4860,264,-13729,20576,-25656,2025-02-17 11:20:22,0.0
-10808,3900,-1056,-12319,19850,-26490,2025-02-17 11:20:22,0.0
-12768,2000,-2548,-11168,18757,-25120,2025-02-17 11:20:22,0.0
-16676,1916,-3868,-10993,17192,-22700,2025-02-17 11:20:22,0.0
-16040,904,-1716,-10366,15898,-20395,2025-02-17 11:20:22,0.0
-14076,-280,3020,-9699,14669,-19676,2025-02-17 11:20:22,0.0
-13748,-244,1776,-9134,11933,-19209,2025-02-17 11:20:22,0.0
-15796,-764,2008,-9101,9163,-17712,2025-02-17 11:20:22,0.0
-16672,-1448,1332,-8447,6449,-15935,2025-02-17 11:20:22,0.0
-16228,-1488,2020,-6969,3524,-13964,2025-02-17 11:20:22,0.0
-13840,-920,2320,-5137,1278,-13896,2025-02-17 11:20:22,0.0
-12652,-232,2952,-3307,-748,-13604,2025-02-17 11:20:22,0.0
-12996,-848,1392,-1857,-3412,-13024,2025-02-17 11:20:22,0.0
-14920,-1620,-352,-933,-6171,-10449,2025-02-17 11:20:22,0.0
-16284,-2312,-1556,-745,-7775,-7514,2025-02-17 11:20:22,0.0
-16192,-3152,-332,-503,-6808,-5823,2025-02-17 11:20:22,0.0
-16052,-3996,676,-439,-3725,-4710,2025-02-17 11:20:22,0.0
-16788,-4496,1876,-282,310,-3438,2025-02-17 11:20:22,0.0
-16540,-5368,444,-830,4617,-2296,2025-02-17 11:20:22,0.0
-15900,-5916,-952,-2349,8835,-1965,2025-02-17 11:20:22,0.0
-17732,-5060,-1156,-3640,13049,-1771,2025-02-17 11:20:22,0.0
-18060,-4080,-2124,-4270,15338,-1336,2025-02-17 11:20:22,0.0
-19604,-2652,-1584,-4307,16125,196,2025-02-17 11:20:22,0.0
-17540,-2248,-2216,-4211,15423,1752,2025-02-17 11:20:22,0.0
-14964,-2620,-2336,-4549,13685,2028,2025-02-17 11:20:22,0.0
-5068,4076,32767,705,951,1606,2025-02-17 11:20:23,0.0
-12392,804,2396,4247,-20488,1748,2025-02-17 11:20:23,0.0
-14576,1136,-1844,2218,-26123,2283,2025-02-17 11:20:23,0.0
-16164,2744,2072,3393,-25184,1909,2025-02-17 11:20:23,0.0
-16948,3240,1124,3473,-13764,-429,2025-02-17 11:20:23,0.0
-13572,3876,564,1288,4287,-2949,2025-02-17 11:20:23,0.0
-13640,-48,-564,-1962,3779,-3333,2025-02-17 11:20:23,0.0
-16168,-948,-92,-3785,1636,-1540,2025-02-17 11:20:23,0.0
-13972,-1672,1092,-3400,653,-1064,2025-02-17 11:20:23,0.0
-12104,-1704,352,-2724,211,-2681,2025-02-17 11:20:23,0.0
-12172,-1572,612,-2490,423,-4194,2025-02-17 11:20:23,0.0
-10572,-2176,3624,-1678,869,-5830,2025-02-17 11:20:23,0.0
-14904,-1300,-1740,-2215,1816,-6283,2025-02-17 11:20:23,0.0
-17012,-236,-2744,-5085,1294,-3656,2025-02-17 11:20:23,0.0
-15532,96,1100,-6225,355,-1400,2025-02-17 11:20:23,0.0
-13748,200,-608,-5374,-427,-1879,2025-02-17 11:20:23,0.0
-13992,1068,-480,-6013,-394,-1846,2025-02-17 11:20:23,0.0
-13980,1228,-1504,-6360,-405,-1914,2025-02-17 11:20:23,0.0
-15388,860,-1256,-6922,-740,-938,2025-02-17 11:20:23,0.0
-13456,280,-588,-7010,-698,-30,2025-02-17 11:20:23,0.0
-13612,724,-1264,-7605,-630,-133,2025-02-17 11:20:23,0.0
-13432,1196,-488,-8612,-487,-16,2025-02-17 11:20:23,0.0
-13396,1208,-468,-9152,-533,193,2025-02-17 11:20:23,0.0
-13300,1396,364,-8932,-266,-494,2025-02-17 11:20:23,0.0
-12840,1144,-2332,-9838,39,-726,2025-02-17 11:20:23,0.0
-13372,560,-1160,-11478,538,-1873,2025-02-17 11:20:23,0.0
-13912,384,-2896,-12722,-94,-2284,2025-02-17 11:20:23,0.0
-14328,952,-3312,-14853,276,-1912,2025-02-17 11:20:23,0.0
-13740,584,-2220,-16385,1630,-1091,2025-02-17 11:20:23,0.0
-12624,-108,-2396,-17423,2616,-1163,2025-02-17 11:20:23,0.0
-12552,-428,-2680,-17770,3196,-1633,2025-02-17 11:20:23,0.0
-13416,-964,-2520,-18087,4210,-1888,2025-02-17 11:20:23,0.0
-14028,-1516,-1680,-17723,5171,-1643,2025-02-17 11:20:23,0.0
-14560,-1860,-1812,-17476,4998,-1224,2025-02-17 11:20:23,0.0
-14708,-2216,-1940,-18067,3999,-1141,2025-02-17 11:20:23,0.0
-14940,-2584,-632,-17959,2313,-929,2025-02-17 11:20:23,0.0
-14432,-2416,-1120,-16547,155,19,2025-02-17 11:20:23,0.0
-13916,-1080,-3500,-16502,-796,596,2025-02-17 11:20:23,0.0
-13552,-936,-1256,-16559,-252,991,2025-02-17 11:20:23,
-13452,-236,-1748,-16113,679,1766,2025-02-17 11:20:23,0.0
-12840,-404,-1956,-17408,1731,1798,2025-02-17 11:20:23,0.0
-12352,-1264,-776,-17259,2586,913,2025-02-17 11:20:23,0.0
-12816,-1368,-1156,-16920,1916,314,2025-02-17 11:20:23,0.0
-12632,-1456,-756,-16670,1675,-389,2025-02-17 11:20:23,0.0
-12920,-1940,-124,-15650,2227,-1018,2025-02-17 11:20:23,0.0
-12708,-2312,-612,-14486,2815,-1491,2025-02-17 11:20:23,0.0
-12792,-2292,-284,-13969,3743,-1932,2025-02-17 11:20:23,0.0
-12656,-2788,-448,-13498,5852,-2898,2025-02-17 11:20:23,0.0
-11868,-1280,-1580,-12516,7389,-3316,2025-02-17 11:20:23,0.0
-13484,-2756,-268,-11494,8688,-3100,2025-02-17 11:20:23,0.0
-13864,-1784,-184,-10383,9187,-2794,2025-02-17 11:20:23,0.0
-14028,-1256,516,-9247,8850,-2618,2025-02-17 11:20:23,0.0
-14452,-856,360,-7708,7580,-2352,2025-02-17 11:20:23,0.0
-14892,-1640,1096,-6253,5911,-1935,2025-02-17 11:20:23,0.0
-15172,-1456,988,-4935,3334,-1180,2025-02-17 11:20:23,0.0
-15252,-952,1192,-3490,604,-199,2025-02-17 11:20:23,0.0
-14780,-440,608,-2327,-1539,305,2025-02-17 11:20:23,0.0
-14356,40,548,-1687,-2765,147,2025-02-17 11:20:23,0.0
-14524,256,736,-1137,-3539,112,2025-02-17 11:20:24,0.0
-14604,1204,404,-375,-4233,204,2025-02-17 11:20:24,0.0
-15576,2024,-288,309,-4355,673,2025-02-17 11:20:24,0.0
-15400,1692,-2620,335,-3630,937,2025-02-17 11:20:24,0.0
-15668,976,-4740,-638,-2386,1229,2025-02-17 11:20:24,0.0
-16060,816,-4900,-1393,-1067,924,2025-02-17 11:20:24,0.0
-14768,1992,-4052,-1964,-2770,-339,2025-02-17 11:20:24,0.0
-13320,3224,-4428,-2349,-4501,-2322,2025-02-17 11:20:24,0.0
-12544,2920,-5864,-2818,-5215,-4305,2025-02-17 11:20:24,0.0
-11864,1304,-4552,-2256,-3743,-6423,2025-02-17 11:20:24,0.0
-12516,916,-4364,-1850,-1444,-6527,2025-02-17 11:20:24,0.0
-12196,48,-3720,-2160,469,-6865,2025-02-17 11:20:24,0.0
-12784,-1044,-3244,-2845,-26,-7469,2025-02-17 11:20:24,0.0
-13424,-2220,-2772,-3618,-1723,-7604,2025-02-17 11:20:24,0.0
-14088,-3464,-2040,-3762,-3511,-7077,2025-02-17 11:20:24,0.0
-13920,-4048,-1728,-4142,-4369,-5826,2025-02-17 11:20:24,0.0
-12408,-4036,-1400,-4019,-3855,-5361,2025-02-17 11:20:24,0.0
-11796,-3836,-1144,-3189,-1709,-5094,2025-02-17 11:20:24,0.0
-11860,-3860,-268,-2878,1058,-4073,2025-02-17 11:20:24,0.0
-12848,-3404,-1632,-2729,2944,-3022,2025-02-17 11:20:24,0.0
-12072,-2512,-980,-2337,3693,-2586,2025-02-17 11:20:24,0.0
-13148,-1856,-1248,-1038,3581,-2510,2025-02-17 11:20:24,0.0
-11740,-1616,-3504,-1764,2239,-3077,2025-02-17 11:20:24,0.0
-12916,-2180,-1692,-1483,1222,-3339,2025-02-17 11:20:24,0.0
-13032,-2184,-1596,-1282,652,-2749,2025-02-17 11:20:24,0.0
-12516,-2280,-900,-961,-141,-2509,2025-02-17 11:20:24,0.0
-12600,-2448,-768,-581,-100,-2115,2025-02-17 11:20:24,0.0
-12756,-2668,-396,-287,67,-1561,2025-02-17 11:20:24,0.0
-12756,-2388,-472,-136,294,-1073,2025-02-17 11:20:24,0.0
-12388,-2164,-900,-80,244,-530,2025-02-17 11:20:24,0.0
-13168,-2208,584,-171,-363,-17,2025-02-17 11:20:24,0.0
-13072,-2092,-128,-16,-1544,868,2025-02-17 11:20:24,0.0
-12948,-2240,388,157,-2764,1641,2025-02-17 11:20:24,0.0
-13292,-2348,-1144,-59,-4026,2412,2025-02-17 11:20:24,0.0
-11088,-2756,-1404,-1117,-3924,2055,2025-02-17 11:20:24,0.0
-13108,-2592,20,-1600,-1325,1030,2025-02-17 11:20:24,0.0
-13304,-2236,-264,-1963,416,2095,2025-02-17 11:20:24,0.0
-13152,-1092,-84,-1741,530,2208,2025-02-17 11:20:24,0.0
-13352,-688,-556,-1389,704,2189,2025-02-17 11:20:24,0.0
-13044,-1292,-2584,-2710,1185,1165,2025-02-17 11:20:24,0.0
-13236,-3140,-1196,-4203,1595,-818,2025-02-17 11:20:24,0.0
-15552,-3032,932,-4375,606,-1431,2025-02-17 11:20:24,0.0
-16128,-1944,1148,-4662,-2446,-932,2025-02-17 11:20:24,0.0
-15860,-1828,-1108,-5782,-3041,-1373,2025-02-17 11:20:24,0.0
-15244,-3208,-1704,-6784,-1835,-2787,2025-02-17 11:20:24,0.0
-15624,-4636,-1152,-6960,-1145,-3549,2025-02-17 11:20:24,0.0
-16864,-6008,-2496,-6992,345,-3158,2025-02-17 11:20:24,0.0
-17360,-6364,-1732,-6343,2137,-2913,2025-02-17 11:20:24,0.0
-18028,-5136,-3028,-5492,2960,-2318,2025-02-17 11:20:24,0.0
-17264,-3044,-2712,-4402,1520,-1647,2025-02-17 11:20:24,0.0
-17728,-1924,-2768,-3811,-1857,-1358,2025-02-17 11:20:24,0.0
-16716,-2544,-3368,-3853,-5720,-536,2025-02-17 11:20:24,0.0
-14168,-3188,-4728,-3312,-7695,174,2025-02-17 11:20:24,0.0
-11512,-2392,-5700,-2947,-6032,565,2025-02-17 11:20:24,0.0
-10508,-540,-4836,-2982,-2685,396,2025-02-17 11:20:24,0.0
-10136,1128,-3976,-3151,-368,70,2025-02-17 11:20:24,0.0
-10592,1920,-3040,-2812,486,185,2025-02-17 11:20:24,0.0
-10908,1560,-1836,-2120,1025,66,2025-02-17 11:20:24,0.0
-12452,356,-2524,-1754,2534,136,2025-02-17 11:20:24,0.0
-14384,-1556,-2792,-2152,4824,1118,2025-02-17 11:20:24,0.0
-15260,-2324,-3388,-2676,6457,2209,2025-02-17 11:20:24,0.0
-14804,-2304,-3296,-3059,6547,2691,2025-02-17 11:20:24,0.0
-13784,-1640,-3648,-3180,5159,2553,2025-02-17 11:20:24,0.0
-12964,-780,-3236,-3438,3175,2111,2025-02-17 11:20:24,0.0
-12084,-4,-2692,-3827,1493,1115,2025-02-17 11:20:24,0.0
-12152,84,-1512,-3301,1129,341,2025-02-17 11:20:25,0.0
-12740,212,-892,-2472,814,392,2025-02-17 11:20:25,0.0
-12436,-8,-744,-1398,-368,1059,2025-02-17 11:20:25,0.0
-11100,516,-684,-161,-1947,426,2025-02-17 11:20:25,0.0
-11256,124,-2172,649,-942,759,2025-02-17 11:20:25,0.0
-11108,-364,-2336,541,929,725,2025-02-17 11:20:25,0.0
-11268,-688,-2196,564,2567,696,2025-02-17 11:20:25,0.0
-11880,-980,-2688,664,3631,498,2025-02-17 11:20:25,0.0
-12944,-1304,-2684,684,4016,495,2025-02-17 11:20:25,0.0
-14008,-1668,-3064,657,3924,684,2025-02-17 11:20:25,0.0
-13112,460,-2116,4841,-2649,1387,2025-02-17 11:20:25,0.0
-13576,728,-2948,5517,-2484,1397,2025-02-17 11:20:25,0.0
-13992,200,-3396,5378,-1738,2116,2025-02-17 11:20:25,0.0
-13212,-280,-2760,4865,-1876,2115,2025-02-17 11:20:25,0.0
-13036,-352,-344,5903,-3200,2046,2025-02-17 11:20:25,0.0
-13156,-348,-688,6739,-4284,2718,2025-02-17 11:20:25,
-10920,360,4,7227,-4374,1647,2025-02-17 11:20:25,0.0
-12408,1024,-692,7844,-3261,423,2025-02-17 11:20:25,0.0
-12580,1668,-2128,7475,-2361,149,2025-02-17 11:20:25,0.0
-14060,1916,-3720,7222,-627,26,2025-02-17 11:20:25,0.0
-14144,176,-6072,6347,1698,-416,2025-02-17 11:20:25,0.0
-16456,-464,-6084,5600,3608,-496,2025-02-17 11:20:25,0.0
-17096,-1168,-4920,4715,4671,131,2025-02-17 11:20:25,0.0
-15704,-1544,-4696,4317,3237,522,2025-02-17 11:20:25,0.0
-13260,-2256,-3780,4234,-721,56,2025-02-17 11:20:25,0.0
-12928,-2404,-2372,4971,-3254,333,2025-02-17 11:20:25,0.0
-11252,-564,-2084,5858,-3030,1039,2025-02-17 11:20:25,0.0
-9844,276,-3792,5631,-589,970,2025-02-17 11:20:25,0.0
-9832,-792,-4816,4457,4612,10,2025-02-17 11:20:25,0.0
-11280,-1864,-1148,4343,7756,-984,2025-02-17 11:20:25,0.0
-14260,-2520,-2872,4407,7341,-1589,2025-02-17 11:20:25,0.0
-13540,-3964,-1684,5537,4134,-1358,2025-02-17 11:20:25,0.0
-14492,-3960,-2804,7038,1084,-814,2025-02-17 11:20:25,0.0
-13696,-3600,-4936,7542,-252,398,2025-02-17 11:20:25,0.0
-12156,-3196,-4728,7946,273,1136,2025-02-17 11:20:25,0.0
-11916,-3104,-4184,8299,1665,1514,2025-02-17 11:20:25,0.0
-12092,-3524,-3496,8754,2627,1794,2025-02-17 11:20:25,0.0
-12588,-3756,-3356,9312,2301,2000,2025-02-17 11:20:25,0.0
-13060,-4304,-2672,10042,1536,2590,2025-02-17 11:20:25,0.0
-12508,-4820,-2596,11117,721,2788,2025-02-17 11:20:25,0.0
-12076,-4988,-3728,12022,611,2971,2025-02-17 11:20:25,0.0
-11380,-4912,-4028,12570,1352,2941,2025-02-17 11:20:25,0.0
-11324,-4900,-4208,13111,3566,2881,2025-02-17 11:20:25,0.0
-11936,-4656,-3860,13929,5535,3286,2025-02-17 11:20:25,0.0
-13056,-4756,-3160,14815,7023,3902,2025-02-17 11:20:25,0.0
-12904,-4896,-3748,16135,7031,4179,2025-02-17 11:20:25,0.0
-12736,-4864,-4412,17270,5660,4242,2025-02-17 11:20:25,0.0
-13280,-5348,-4620,18100,4109,4377,2025-02-17 11:20:25,0.0
-13240,-5580,-4760,19413,2348,4766,2025-02-17 11:20:25,0.0
-13356,-5380,-4944,20846,1373,5501,2025-02-17 11:20:25,0.0
-12700,-4572,-5240,22192,818,6286,2025-02-17 11:20:26,0.0
-12156,-3712,-6440,22828,543,6563,2025-02-17 11:20:26,0.0
-12060,-3368,-5904,23302,570,6602,2025-02-17 11:20:26,0.0
-12392,-3524,-5868,23906,573,6750,2025-02-17 11:20:26,0.0
-12804,-3604,-5468,24338,159,7052,2025-02-17 11:20:26,0.0
-12420,-3672,-5776,24929,-690,7220,2025-02-17 11:20:26,0.0
-11876,-3564,-5692,25217,-1129,7182,2025-02-17 11:20:26,0.0
-11600,-3240,-6088,25221,-1053,6892,2025-02-17 11:20:26,0.0
-12432,-3016,-5684,24689,-533,6542,2025-02-17 11:20:26,0.0
-12672,-2616,-6192,23248,229,6121,2025-02-17 11:20:26,0.0
-13060,-2980,-5496,22828,458,6631,2025-02-17 11:20:26,0.0
-12304,-3312,-4772,23045,658,7254,2025-02-17 11:20:26,0.0
-11676,-3288,-5484,23085,814,7684,2025-02-17 11:20:26,0.0
-11360,-3572,-5700,22587,1248,7819,2025-02-17 11:20:26,0.0
-10672,-3724,-7320,22466,3052,7916,2025-02-17 11:20:26,0.0
-12276,-3704,-6216,22389,4904,8026,2025-02-17 11:20:26,0.0
-12156,-3260,-7216,21781,5620,7972,2025-02-17 11:20:26,0.0
-11952,-3256,-7120,21252,5429,7746,2025-02-17 11:20:26,0.0
-11828,-3020,-7664,20852,4982,7601,2025-02-17 11:20:26,0.0
-11232,-2360,-7544,20572,4061,7252,2025-02-17 11:20:26,0.0
-11356,-208,-7096,20172,2281,6595,2025-02-17 11:20:26,0.0
-11280,1748,-7180,19103,1335,5594,2025-02-17 11:20:26,0.0
-11516,2216,-7040,17789,1871,4937,2025-02-17 11:20:26,0.0
-12020,2540,-6488,16953,2630,4488,2025-02-17 11:20:26,0.0
-13092,2204,-6748,15904,3901,4607,2025-02-17 11:20:26,0.0
-12528,1748,-6560,14309,4545,4209,2025-02-17 11:20:26,0.0
-11644,712,-5316,13387,3959,2727,2025-02-17 11:20:26,0.0
-11508,-784,-5464,12181,2987,-277,2025-02-17 11:20:26,0.0
-12584,-2124,-5100,10917,2399,-1921,2025-02-17 11:20:26,0.0
-14552,-2860,-4496,10070,1944,-2050,2025-02-17 11:20:26,0.0
-15140,-2632,-4336,9481,1070,-962,2025-02-17 11:20:26,0.0
-15116,-2380,-2964,9202,-360,851,2025-02-17 11:20:26,0.0
-13764,-2660,-1768,9101,-1505,2209,2025-02-17 11:20:26,0.0
-12956,-3048,-2008,9178,-1734,2622,2025-02-17 11:20:26,0.0
-13016,-2672,-2356,8951,-438,2934,2025-02-17 11:20:26,0.0
-12760,-2544,-2204,8663,1183,3360,2025-02-17 11:20:26,0.0
-12820,-2564,-1192,9081,1776,3345,2025-02-17 11:20:26,0.0
-13256,-2196,-1804,9669,1133,3375,2025-02-17 11:20:26,0.0
-13156,-2524,-2156,10061,44,3486,2025-02-17 11:20:26,0.0
-13356,-2844,-2712,10180,-559,3527,2025-02-17 11:20:26,0.0
-13016,-2756,-2472,10387,-843,3830,2025-02-17 11:20:26,0.0
-12828,-2888,-3156,10273,-550,4254,2025-02-17 11:20:26,0.0
-12920,-3044,-3468,10045,140,4466,2025-02-17 11:20:26,0.0
-12632,-2640,-3216,9978,324,4605,2025-02-17 11:20:26,0.0
-12676,-2296,-3368,9721,775,4707,2025-02-17 11:20:26,0.0
-12840,-2352,-3380,9430,921,4785,2025-02-17 11:20:26,0.0
-12516,-2920,-3596,9341,1006,4881,2025-02-17 11:20:26,0.0
-11908,-2788,-6024,8681,2437,4309,2025-02-17 11:20:26,0.0
-13088,-1400,-5676,8278,4526,3812,2025-02-17 11:20:26,0.0
-14304,-660,-4752,8240,6301,3819,2025-02-17 11:20:26,0.0
-14368,-464,-4380,8324,5334,3883,2025-02-17 11:20:26,0.0
-14068,-640,-4312,8756,2424,4107,2025-02-17 11:20:26,0.0
-13332,-2128,-4596,9060,-1330,4806,2025-02-17 11:20:26,0.0
-11772,-1492,-4608,8682,-3773,5314,2025-02-17 11:20:26,0.0
-10672,-480,-4636,7308,-3424,5224,2025-02-17 11:20:26,0.0
-10544,636,-5320,5962,-1035,4726,2025-02-17 11:20:26,0.0
-10804,1596,-5680,5370,2700,3343,2025-02-17 11:20:26,0.0
-13544,2464,-5164,4831,7255,1759,2025-02-17 11:20:26,0.0
-13248,3272,-5628,4778,6418,1207,2025-02-17 11:20:26,0.0
-13916,2972,-4504,4958,3226,1414,2025-02-17 11:20:26,0.0
-12540,632,-3572,5520,-253,1714,2025-02-17 11:20:26,0.0
-12168,-504,-3156,5589,-149,2213,2025-02-17 11:20:26,0.0
-11608,-308,-4516,5155,2344,2274,2025-02-17 11:20:26,0.0
-12740,520,-4484,4381,3838,2296,2025-02-17 11:20:26,0.0
-14448,1932,-4264,3848,3729,2086,2025-02-17 11:20:27,0.0
-14260,2088,-3932,3932,1737,1904,2025-02-17 11:20:27,
-12892,1304,-4224,3996,-406,1633,2025-02-17 11:20:27,0.0
-11364,564,-4080,4125,-1004,1364,2025-02-17 11:20:27,0.0
-10568,660,-4224,4159,394,1045,2025-02-17 11:20:27,0.0
-10724,984,-4604,3739,2624,655,2025-02-17 11:20:27,0.0
-12184,816,-4168,3325,3889,138,2025-02-17 11:20:27,0.0
-14020,744,-3776,3234,2889,152,2025-02-17 11:20:27,0.0
-14256,416,-3744,3203,999,300,2025-02-17 11:20:27,0.0
-13804,-44,-4360,3317,-841,57,2025-02-17 11:20:27,0.0
-13092,-276,-5244,2948,-1880,-199,2025-02-17 11:20:27,0.0
-12304,-520,-5000,2714,-1287,-197,2025-02-17 11:20:27,0.0
-11924,-680,-5100,2330,991,63,2025-02-17 11:20:27,0.0
-11728,-696,-5144,1894,2634,173,2025-02-17 11:20:27,0.0
-12320,-668,-4608,1602,2738,132,2025-02-17 11:20:27,0.0
-12836,-392,-3952,1708,2057,166,2025-02-17 11:20:27,0.0
-13148,-104,-4044,1776,767,-61,2025-02-17 11:20:27,0.0
-13216,132,-4580,1540,-517,-393,2025-02-17 11:20:27,0.0
-12964,-100,-4472,1374,-823,-619,2025-02-17 11:20:27,0.0
-12936,-152,-4760,1202,-516,-784,2025-02-17 11:20:27,0.0
-12556,-380,-4464,1054,-463,-910,2025-02-17 11:20:27,0.0
-12372,-584,-3876,1125,-600,-866,2025-02-17 11:20:27,0.0
-11684,-1108,-3468,1405,-572,-655,2025-02-17 11:20:27,0.0
-11040,-1668,-4136,1703,289,-377,2025-02-17 11:20:27,0.0
-10572,-1920,-4288,2143,1338,212,2025-02-17 11:20:27,0.0
-10656,-2864,-4060,2559,2160,929,2025-02-17 11:20:27,0.0
-11736,-4532,-3980,2195,3018,1637,2025-02-17 11:20:27,0.0
-13384,-3984,-5028,1105,4656,1662,2025-02-17 11:20:27,0.0
-14032,-1104,-5396,84,5764,705,2025-02-17 11:20:27,0.0
-15336,500,-4340,-489,4459,-831,2025-02-17 11:20:27,0.0
-15532,116,-3156,-237,2677,-2321,2025-02-17 11:20:27,0.0
-15124,-1112,-3132,-2,656,-3385,2025-02-17 11:20:27,0.0
-14164,-2440,-2768,135,-1395,-4075,2025-02-17 11:20:27,0.0
-13492,-3024,-2576,403,-3291,-4378,2025-02-17 11:20:27,0.0
-13284,-3052,-2336,620,-4527,-3681,2025-02-17 11:20:27,0.0
-13468,-2764,-2200,667,-4337,-2546,2025-02-17 11:20:27,0.0
-12872,-2304,-2184,550,-3987,-1378,2025-02-17 11:20:27,0.0
-11600,-2096,-2096,465,-4051,-633,2025-02-17 11:20:27,0.0
-11080,-1684,-2116,125,-3894,-555,2025-02-17 11:20:27,0.0
-11216,-1428,-2292,-351,-2395,-633,2025-02-17 11:20:27,0.0
-11556,-1688,-1828,-572,-355,-834,2025-02-17 11:20:27,0.0
-12020,-1896,-1960,-800,1445,-1042,2025-02-17 11:20:27,0.0
-13076,-2016,-1044,-638,1956,-1175,2025-02-17 11:20:27,0.0
-13516,-2072,-812,-592,1218,-1225,2025-02-17 11:20:27,0.0
-13876,-1892,-500,-529,-441,-1202,2025-02-17 11:20:27,0.0
-13436,-2008,-740,-60,-2974,-437,2025-02-17 11:20:27,0.0
-12912,-2008,-1480,70,-3365,20,2025-02-17 11:20:27,0.0
-13392,-1544,-2268,-186,-2387,584,2025-02-17 11:20:27,0.0
-13680,-1476,-2128,-1158,251,993,2025-02-17 11:20:27,0.0
-14340,-1292,-680,-2223,1821,285,2025-02-17 11:20:27,0.0
-15508,-2128,20,-2634,1181,-492,2025-02-17 11:20:27,0.0
-15948,-3548,664,-2371,-1073,-699,2025-02-17 11:20:27,0.0
-14744,-5288,-1488,-2163,-2330,-1175,2025-02-17 11:20:27,0.0
-13944,-5516,-3480,-2299,-2575,-2181,2025-02-17 11:20:27,0.0
-13768,-4352,-5108,-2657,-89,-3572,2025-02-17 11:20:27,0.0
-14476,-3564,-5452,-2808,2022,-4647,2025-02-17 11:20:27,0.0
-15896,-3268,-5032,-1975,2421,-4469,2025-02-17 11:20:27,0.0
-16420,-3624,-4648,-827,2185,-4154,2025-02-17 11:20:27,0.0
-17716,-4616,-6088,-518,2316,-3676,2025-02-17 11:20:27,0.0
-17416,-5180,-7268,-411,2605,-2579,2025-02-17 11:20:27,0.0
-16368,-5904,-8192,-570,1600,-970,2025-02-17 11:20:27,0.0
-14716,-5128,-7964,-754,-78,431,2025-02-17 11:20:27,0.0
-12756,-3900,-6756,-716,-1287,1326,2025-02-17 11:20:28,0.0
-11892,-2436,-6768,-641,-1955,2127,2025-02-17 11:20:28,0.0
-11800,-1528,-5416,-494,-2269,3107,2025-02-17 11:20:28,0.0
-10692,-1372,-3316,298,-2752,3935,2025-02-17 11:20:28,0.0
-10396,-1400,-2552,1616,-3548,4421,2025-02-17 11:20:28,0.0
-10304,-1892,-3340,2640,-3536,5066,2025-02-17 11:20:28,0.0
-9728,-2820,-4232,3168,-1830,5330,2025-02-17 11:20:28,0.0
-10288,-3148,-5424,2908,488,5708,2025-02-17 11:20:28,0.0
-9632,-2700,-5344,2371,3637,5922,2025-02-17 11:20:28,0.0
-10240,-1736,-4844,1919,5917,5394,2025-02-17 11:20:28,0.0
-11272,-1232,-4620,1534,7168,4967,2025-02-17 11:20:28,0.0
-11480,-692,-4996,1601,6676,3841,2025-02-17 11:20:28,0.0
-12460,68,-4572,2022,3810,2479,2025-02-17 11:20:28,0.0
-12976,144,-5084,2514,431,1788,2025-02-17 11:20:28,0.0
-13232,-92,-4064,3217,-1606,1982,2025-02-17 11:20:28,0.0
-11456,-308,-3840,3973,-1847,2279,2025-02-17 11:20:28,0.0
-10416,-688,-4272,4293,-1170,2287,2025-02-17 11:20:28,0.0
-10792,-1008,-4076,4458,-199,2520,2025-02-17 11:20:28,0.0
-10444,-1108,-4464,4453,644,2569,2025-02-17 11:20:28,0.0
-10208,-988,-4372,4332,971,2019,2025-02-17 11:20:28,0.0
-11256,-788,-3676,4038,1100,1325,2025-02-17 11:20:28,0.0
-11920,-472,-4164,4043,1407,1065,2025-02-17 11:20:28,0.0
-12136,128,-4100,3623,1391,860,2025-02-17 11:20:28,0.0
-12316,500,-3760,3017,605,410,2025-02-17 11:20:28,0.0
-12672,676,-3288,2485,-434,-238,2025-02-17 11:20:28,0.0
-13048,844,-3300,1846,-1357,-773,2025-02-17 11:20:28,0.0
-13000,932,-3816,1054,-2165,-1218,2025-02-17 11:20:28,0.0
-13204,836,-2748,1123,-2748,-1676,2025-02-17 11:20:28,0.0
-13388,528,-2776,1391,-3266,-1891,2025-02-17 11:20:28,0.0
-14072,108,-2456,1436,-3655,-1927,2025-02-17 11:20:28,0.0
-14416,-572,-1944,1449,-4000,-1837,2025-02-17 11:20:28,0.0
-14360,-2212,-3228,943,-3984,-902,2025-02-17 11:20:28,0.0
-13524,-2304,-3004,848,-2987,-328,2025-02-17 11:20:28,0.0
-13220,-1292,-2424,827,-1832,202,2025-02-17 11:20:28,0.0
-12476,-1396,-608,1238,-776,373,2025-02-17 11:20:28,0.0
-13600,-2388,708,2161,-300,874,2025-02-17 11:20:28,0.0
-14700,-3296,-620,3341,358,2279,2025-02-17 11:20:28,0.0
-14688,-3120,-2696,3941,886,3437,2025-02-17 11:20:28,0.0
-16024,-88,-5268,3842,655,4617,2025-02-17 11:20:28,0.0
-16948,2176,-5604,3419,259,5423,2025-02-17 11:20:28,
-15932,2632,-6644,3350,249,5909,2025-02-17 11:20:28,0.0
-14872,3132,-7480,2569,1862,4687,2025-02-17 11:20:28,0.0
-16668,2020,-7180,2023,4707,3211,2025-02-17 11:20:28,0.0
-15436,232,-6644,1789,4388,2422,2025-02-17 11:20:28,0.0
-14632,-612,-6624,1735,1508,1133,2025-02-17 11:20:28,0.0
-12672,-164,-7652,1504,-2259,-83,2025-02-17 11:20:28,0.0
-11888,-700,-6200,1374,-4165,-612,2025-02-17 11:20:28,0.0
-11856,-1368,-3892,1923,-2548,94,2025-02-17 11:20:28,0.0
-10920,-2188,-3120,1955,-204,775,2025-02-17 11:20:28,0.0
-9884,-3112,-3296,1566,160,518,2025-02-17 11:20:28,0.0
-10504,-2968,-3420,1429,323,194,2025-02-17 11:20:28,0.0
-10872,-1904,-4072,1371,996,-261,2025-02-17 11:20:28,0.0
-11440,-828,-4816,1465,1899,-876,2025-02-17 11:20:28,0.0
-11832,392,-5496,855,2262,-1783,2025-02-17 11:20:28,0.0
-11456,64,-5652,-74,1565,-2869,2025-02-17 11:20:28,0.0
-11344,-1580,-4012,-100,45,-3450,2025-02-17 11:20:28,0.0
-11268,-2304,-3672,1019,-2015,-2913,2025-02-17 11:20:28,0.0
-9900,-1136,-4724,1317,-2652,-2867,2025-02-17 11:20:28,0.0
-9852,-884,-5328,817,-2611,-2996,2025-02-17 11:20:28,0.0
-11164,-1348,-5424,40,-2137,-2315,2025-02-17 11:20:28,0.0
-11448,-1624,-5156,-529,-704,-1760,2025-02-17 11:20:29,0.0
-11904,-1916,-5616,-1751,1299,-1645,2025-02-17 11:20:29,0.0
-12212,-2088,-4656,-2781,2369,-1983,2025-02-17 11:20:29,0.0
-12780,-2028,-4312,-3550,2121,-2413,2025-02-17 11:20:29,0.0
-13184,-1600,-3808,-4092,1281,-3263,2025-02-17 11:20:29,0.0
-13712,-1452,-3208,-4089,-15,-3687,2025-02-17 11:20:29,0.0
-13588,-1544,-3456,-3914,-1275,-3791,2025-02-17 11:20:29,0.0
-13868,-932,-3740,-3809,-2210,-3445,2025-02-17 11:20:29,0.0
-13624,-956,-3864,-4044,-2391,-2902,2025-02-17 11:20:29,0.0
-13540,-1104,-3412,-4460,-2422,-2560,2025-02-17 11:20:29,0.0
-13088,-1584,-3128,-5009,-3020,-2577,2025-02-17 11:20:29,0.0
-12764,-1712,-3076,-5746,-3475,-2737,2025-02-17 11:20:29,0.0
-12624,-1880,-3496,-6471,-3484,-2779,2025-02-17 11:20:29,0.0
-12204,-1912,-2780,-7252,-2913,-2688,2025-02-17 11:20:29,0.0
-12192,-1488,-3088,-8081,-1907,-2499,2025-02-17 11:20:29,0.0
-12180,-1388,-3284,-9447,277,-2694,2025-02-17 11:20:29,0.0
-12788,-1528,-2444,-10731,-26,-3059,2025-02-17 11:20:29,0.0
-12912,-1456,-2924,-11561,-621,-3338,2025-02-17 11:20:29,0.0
-13244,-1732,-3004,-12498,-895,-3574,2025-02-17 11:20:29,0.0
-12644,-1868,-3044,-13260,-1230,-3678,2025-02-17 11:20:29,0.0
-13220,-2108,-2748,-14103,-1389,-3812,2025-02-17 11:20:29,0.0
-13028,-2592,-2368,-14839,-1847,-3790,2025-02-17 11:20:29,0.0
-12124,-3424,-3716,-16011,-1900,-3890,2025-02-17 11:20:29,0.0
-12504,-3316,-3676,-17599,-1282,-4104,2025-02-17 11:20:29,0.0
-13852,-2084,-248,-18228,-833,-4033,2025-02-17 11:20:29,0.0
-12380,-2712,-2964,-18025,-891,-3716,2025-02-17 11:20:29,0.0
-12544,-4120,-7796,-19583,169,-3802,2025-02-17 11:20:29,0.0
-12792,-3004,-12000,-21549,3302,-5525,2025-02-17 11:20:29,0.0
-12792,-2192,-12656,-21964,10260,-7385,2025-02-17 11:20:29,0.0
-12476,-1736,-6368,-19828,11443,-9814,2025-02-17 11:20:29,0.0
-15272,-284,-4788,-17933,6237,-9084,2025-02-17 11:20:29,0.0
-14916,292,-5088,-17261,941,-6776,2025-02-17 11:20:29,0.0
-13972,192,-6892,-16171,-2019,-6335,2025-02-17 11:20:29,0.0
-13928,-56,-7660,-16437,-3518,-5519,2025-02-17 11:20:29,0.0
-12740,-1008,-6668,-16655,-4633,-4370,2025-02-17 11:20:29,0.0
-11140,-1864,-5984,-16405,-4590,-3627,2025-02-17 11:20:29,0.0
-11284,-1032,-5412,-15919,-3225,-2968,2025-02-17 11:20:29,0.0
-11024,436,-4260,-15745,-2360,-1953,2025-02-17 11:20:29,0.0
-11624,908,-2640,-15859,-2238,-2117,2025-02-17 11:20:29,0.0
-12172,608,-4024,-15763,-1237,-2238,2025-02-17 11:20:29,0.0
-12676,80,-3668,-14927,-214,-1421,2025-02-17 11:20:29,0.0
-12704,-856,-4736,-14287,548,-350,2025-02-17 11:20:29,0.0
-14024,-732,-5032,-14370,1210,365,2025-02-17 11:20:29,0.0
-16524,-796,-5536,-15030,1461,2291,2025-02-17 11:20:29,0.0
-17488,-364,-5040,-15012,689,4222,2025-02-17 11:20:29,0.0
-18220,396,-5308,-13885,592,6588,2025-02-17 11:20:29,0.0
-19492,-824,-3860,-11996,2945,9802,2025-02-17 11:20:29,0.0
-17956,-3584,-2256,-9187,8932,12540,2025-02-17 11:20:29,0.0
-17376,-7996,-1948,-6218,21029,15577,2025-02-17 11:20:29,0.0
-13172,-6172,-1044,-8749,32268,18923,2025-02-17 11:20:29,0.0
-12996,-5352,-4452,-10995,28664,19299,2025-02-17 11:20:29,0.0
-16660,-5848,-10496,-16410,32767,18802,2025-02-17 11:20:29,0.0
-15084,-4092,-9216,-17448,32767,17428,2025-02-17 11:20:29,0.0
-12432,-3332,-11124,-18481,32767,17325,2025-02-17 11:20:29,0.0
-6384,-2648,-14052,-22049,32767,16623,2025-02-17 11:20:29,0.0
-968,-1168,-12756,-24883,32767,14397,2025-02-17 11:20:29,0.0
2344,560,-9876,-25638,15023,11890,2025-02-17 11:20:29,0.0
3696,332,-3552,-23388,-1168,10425,2025-02-17 11:20:29,0.0
3588,388,2740,-18053,-13046,9437,2025-02-17 11:20:29,0.0
1140,-176,3824,-12833,-20510,11002,2025-02-17 11:20:29,0.0
1772,-988,2512,-10984,-25607,13046,2025-02-17 11:20:29,0.0
2448,-752,2012,-9847,-27812,14545,2025-02-17 11:20:29,0.0
2596,-720,1692,-9138,-27843,14967,2025-02-17 11:20:30,0.0
2816,-744,1548,-8423,-27613,15145,2025-02-17 11:20:30,0.0
2540,-868,1640,-7806,-27136,15206,2025-02-17 11:20:30,0.0
2844,-760,1360,-7226,-26578,15239,2025-02-17 11:20:30,0.0
2784,-752,1508,-6769,-25815,15081,2025-02-17 11:20:30,0.0
2980,-860,1292,-6471,-25221,14828,2025-02-17 11:20:30,0.0
3032,-724,1132,-6247,-24831,14538,2025-02-17 11:20:30,0.0
2784,-748,1288,-6045,-24556,14508,2025-02-17 11:20:30,0.0
2344,-716,1416,-5767,-24258,14804,2025-02-17 11:20:30,0.0
1956,-752,1284,-5391,-23897,15510,2025-02-17 11:20:30,0.0
1772,-940,1572,-5049,-23325,16499,2025-02-17 11:20:30,0.0
1404,-1080,952,-4633,-22312,18380,2025-02-17 11:20:30,0.0
1296,-1132,704,-4667,-21214,20212,2025-02-17 11:20:30,0.0
880,-1372,808,-5085,-19799,22109,2025-02-17 11:20:30,0.0
1400,-1512,492,-5769,-17708,24498,2025-02-17 11:20:30,0.0
1884,-1552,868,-5992,-15937,25971,2025-02-17 11:20:30,0.0
2324,-1736,1116,-5865,-14378,26836,2025-02-17 11:20:30,0.0
2792,-1600,1128,-5495,-13065,27219,2025-02-17 11:20:30,
2672,-1732,1068,-4950,-12022,27551,2025-02-17 11:20:30,0.0
2364,-1776,988,-3988,-12723,29216,2025-02-17 11:20:30,0.0
-4872,-4052,-2868,-5877,-13349,32767,2025-02-17 11:20:30,0.0
8940,32767,32767,7676,-24071,32767,2025-02-17 11:20:30,0.0
17036,32767,32767,32767,-32768,32767,2025-02-17 11:20:30,0.0
32767,-9344,-32768,32767,-32768,32767,2025-02-17 11:20:30,0.0
32767,-32768,-32768,32767,-32768,32767,2025-02-17 11:20:30,0.0
7188,-32768,-32768,15094,-32768,17006,2025-02-17 11:20:30,0.0
-500,-23976,-32768,-3507,-29153,5333,2025-02-17 11:20:30,0.0
-6784,-9140,-23088,-16090,-9731,753,2025-02-17 11:20:30,0.0
-6396,2116,-4272,-16105,4244,-681,2025-02-17 11:20:30,0.0
-1896,7684,-2812,-10590,13723,-1215,2025-02-17 11:20:30,0.0
12588,13244,-6168,-716,22775,-2150,2025-02-17 11:20:30,0.0
15764,13864,-7888,1110,17416,-1903,2025-02-17 11:20:30,0.0
15288,12092,-8884,-421,6930,226,2025-02-17 11:20:30,0.0
15840,7480,-4996,1430,-3095,170,2025-02-17 11:20:30,0.0
10908,4812,-11740,1154,-6614,-517,2025-02-17 11:20:30,0.0
7552,6328,-14392,-129,-3781,-736,2025-02-17 11:20:30,0.0
7512,7892,-12656,-312,1096,-159,2025-02-17 11:20:30,0.0
11100,6980,-10416,-36,1715,-30,2025-02-17 11:20:30,0.0
11272,6708,-10004,-180,-287,-224,2025-02-17 11:20:30,0.0
9904,7236,-11520,-106,-538,-279,2025-02-17 11:20:30,0.0
9312,7096,-11272,-115,363,-137,2025-02-17 11:20:30,0.0
10488,7044,-11120,-175,517,-131,2025-02-17 11:20:30,0.0
10576,7048,-11004,-200,-40,-246,2025-02-17 11:20:30,0.0
10032,7252,-11352,-139,22,-261,2025-02-17 11:20:30,0.0
10312,6864,-11132,-47,140,-93,2025-02-17 11:20:30,0.0
10412,7256,-11124,-244,166,-201,2025-02-17 11:20:30,0.0
9964,7036,-11088,-186,-51,-205,2025-02-17 11:20:30,0.0
9548,7000,-11092,-87,258,-142,2025-02-17 11:20:30,0.0
10400,6940,-11336,-185,162,-140,2025-02-17 11:20:30,0.0
10212,7056,-11364,-244,193,-221,2025-02-17 11:20:30,0.0
10116,7140,-10636,-129,169,-186,2025-02-17 11:20:30,0.0
10140,7120,-10828,-120,124,-176,2025-02-17 11:20:30,0.0
10156,7008,-11304,-115,144,-162,2025-02-17 11:20:30,0.0
10252,7048,-11292,-165,172,-206,2025-02-17 11:20:30,0.0
10084,6996,-10936,-153,158,-180,2025-02-17 11:20:30,0.0
10124,7152,-11088,-199,129,-174,2025-02-17 11:20:30,0.0
10148,7060,-11076,-166,169,-167,2025-02-17 11:20:30,0.0
10200,7044,-11184,-143,213,-193,2025-02-17 11:20:30,0.0
10284,7108,-11096,-134,98,-183,2025-02-17 11:20:30,0.0
10144,7028,-11024,-157,120,-179,2025-02-17 11:20:31,0.0
10132,6980,-11104,-165,140,-181,2025-02-17 11:20:31,0.0
10236,7128,-11164,-183,174,-189,2025-02-17 11:20:31,0.0
10180,7048,-11088,-157,135,-176,2025-02-17 11:20:31,0.0
10228,7076,-11076,-119,146,-174,2025-02-17 11:20:31,0.0
10100,6992,-10944,-130,159,-167,2025-02-17 11:20:31,0.0
10180,6940,-11080,-156,156,-207,2025-02-17 11:20:31,0.0
10184,7036,-11220,-150,144,-199,2025-02-17 11:20:31,0.0
10132,7100,-11004,-150,177,-179,2025-02-17 11:20:31,0.0
10088,7068,-10964,-158,185,-186,2025-02-17 11:20:31,0.0
10216,7052,-10980,-140,149,-166,2025-02-17 11:20:31,0.0
10196,7012,-11124,-156,148,-198,2025-02-17 11:20:31,0.0
10036,7084,-11020,-174,142,-187,2025-02-17 11:20:31,0.0
10116,7012,-11060,-166,172,-176,2025-02-17 11:20:31,0.0
10124,7064,-11044,-142,156,-185,2025-02-17 11:20:31,0.0
10036,6936,-11156,-146,159,-173,2025-02-17 11:20:31,0.0
10156,7088,-11108,-141,169,-191,2025-02-17 11:20:31,0.0
10196,6984,-11136,-153,153,-180,2025-02-17 11:20:31,0.0
10068,6980,-11056,-149,152,-171,2025-02-17 11:20:31,0.0
10116,6996,-11036,-170,168,-161,2025-02-17 11:20:31,0.0
10100,7112,-11348,-140,176,-149,2025-02-17 11:20:31,0.0
10140,7052,-11092,-153,165,-162,2025-02-17 11:20:31,0.0
10076,7072,-11216,-182,181,-179,2025-02-17 11:20:31,0.0
10100,7092,-11164,-133,152,-158,2025-02-17 11:20:31,0.0
10204,7080,-11012,-126,190,-163,2025-02-17 11:20:31,0.0
10132,6960,-11064,-141,172,-179,2025-02-17 11:20:31,0.0
10104,7076,-10956,-171,152,-171,2025-02-17 11:20:31,0.0
10176,6968,-11084,-172,166,-181,2025-02-17 11:20:31,0.0
10112,7060,-11000,-162,159,-172,2025-02-17 11:20:31,0.0
10076,7020,-11196,-152,161,-172,2025-02-17 11:20:31,0.0
10124,7036,-11140,-155,174,-154,2025-02-17 11:20:31,0.0
10116,7004,-11044,-162,159,-181,2025-02-17 11:20:31,0.0
10092,7044,-11108,-162,131,-166,2025-02-17 11:20:31,0.0
10156,7008,-11120,-170,141,-185,2025-02-17 11:20:31,0.0
10152,7028,-11000,-144,163,-157,2025-02-17 11:20:31,0.0
10104,7080,-11100,-164,155,-175,2025-02-17 11:20:31,0.0
10136,6976,-11132,-168,165,-179,2025-02-17 11:20:31,0.0
10184,7004,-11120,-148,189,-159,2025-02-17 11:20:31,0.0
10176,7004,-11160,-176,162,-173,2025-02-17 11:20:31,0.0
10096,7004,-11128,-152,173,-177,2025-02-17 11:20:31,0.0
10060,7052,-11164,-176,164,-186,2025-02-17 11:20:31,0.0
10200,7008,-11116,-161,161,-163,2025-02-17 11:20:31,0.0
10072,6964,-11096,-174,153,-179,2025-02-17 11:20:31,0.0
10100,7180,-11116,-176,162,-176,2025-02-17 11:20:31,0.0
10132,7112,-11096,-164,175,-173,2025-02-17 11:20:31,0.0
10132,7008,-11288,-164,170,-178,2025-02-17 11:20:31,0.0
10176,6988,-11004,-171,178,-185,2025-02-17 11:20:31,0.0
10160,7020,-11220,-146,149,-183,2025-02-17 11:20:31,0.0
10172,7104,-11220,-170,177,-152,2025-02-17 11:20:31,0.0
10192,7060,-11076,-156,166,-183,2025-02-17 11:20:31,0.0
10168,6956,-10952,-147,171,-156,2025-02-17 11:20:31,0.0
10160,7020,-11192,-143,176,-181,2025-02-17 11:20:31,0.0
10176,7048,-11068,-140,171,-182,2025-02-17 11:20:31,0.0
10196,6968,-11124,-171,164,-194,2025-02-17 11:20:31,0.0
10100,6944,-11076,-131,137,-168,2025-02-17 11:20:31,0.0
10148,7004,-11120,-141,168,-167,2025-02-17 11:20:31,0.0
10060,6996,-11148,-142,176,-181,2025-02-17 11:20:31,0.0
10156,7020,-11124,-182,165,-180,2025-02-17 11:20:31,0.0
9932,6948,-11048,-182,156,-189,2025-02-17 11:20:31,
10140,6992,-11032,-184,149,-163,2025-02-17 11:20:31,0.0
10140,7028,-11080,-166,175,-168,2025-02-17 11:20:31,0.0
10240,7032,-11292,-130,181,-180,2025-02-17 11:20:31,0.0
10112,7008,-11076,-158,186,-195,2025-02-17 11:20:32,0.0
10212,7112,-11096,-149,176,-180,2025-02-17 11:20:32,0.0
10244,7060,-11072,-167,181,-187,2025-02-17 11:20:32,0.0
10176,7008,-11068,-144,183,-169,2025-02-17 11:20:32,0.0
10140,6996,-11052,-167,160,-180,2025-02-17 11:20:32,0.0
10196,6912,-11072,-158,170,-187,2025-02-17 11:20:32,0.0
10132,7028,-10956,-151,170,-166,2025-02-17 11:20:32,0.0
10040,7084,-11104,-164,178,-168,2025-02-17 11:20:32,0.0
10100,6980,-11100,-128,170,-176,2025-02-17 11:20:32,0.0
10208,7016,-11076,-151,145,-185,2025-02-17 11:20:32,0.0
10196,6980,-11256,-156,157,-191,2025-02-17 11:20:32,0.0
10092,7024,-11032,-165,167,-184,2025-02-17 11:20:32,0.0
10244,7064,-11044,-161,172,-178,2025-02-17 11:20:32,0.0
10192,7064,-10968,-148,147,-181,2025-02-17 11:20:32,0.0
10012,6972,-11184,-156,183,-166,2025-02-17 11:20:32,0.0
10228,7088,-10924,-147,172,-174,2025-02-17 11:20:32,0.0
10172,7072,-11032,-177,189,-180,2025-02-17 11:20:32,0.0
10128,7060,-11132,-145,171,-173,2025-02-17 11:20:32,0.0
10080,7060,-11128,-162,167,-154,2025-02-17 11:20:32,0.0
10148,6992,-11172,-158,164,-172,2025-02-17 11:20:32,0.0
10080,6936,-11216,-142,179,-190,2025-02-17 11:20:32,0.0
10084,6984,-11124,-142,193,-194,2025-02-17 11:20:32,0.0
10188,6940,-11152,-163,150,-166,2025-02-17 11:20:32,0.0
10196,7092,-11096,-167,172,-174,2025-02-17 11:20:32,0.0
10120,6964,-11068,-147,160,-152,2025-02-17 11:20:32,0.0
10228,7044,-11184,-139,171,-146,2025-02-17 11:20:32,0.0
10172,7092,-11108,-176,167,-175,2025-02-17 11:20:32,0.0
10156,7012,-11028,-164,177,-182,2025-02-17 11:20:32,0.0
10068,7052,-11064,-157,142,-185,2025-02-17 11:20:32,0.0
10136,7064,-11108,-183,165,-189,2025-02-17 11:20:32,0.0
10076,6984,-11164,-144,170,-166,2025-02-17 11:20:32,0.0
10080,7036,-11096,-157,149,-186,2025-02-17 11:20:32,0.0
10200,7024,-11196,-141,178,-194,2025-02-17 11:20:32,0.0
10144,7004,-11128,-169,169,-191,2025-02-17 11:20:32,0.0
10084,7104,-11068,-157,156,-161,2025-02-17 11:20:32,0.0
10108,7004,-11124,-168,161,-176,2025-02-17 11:20:32,0.0
10120,7052,-11232,-149,163,-174,2025-02-17 11:20:32,0.0
9992,6968,-11048,-153,161,-177,2025-02-17 11:20:32,0.0
10140,6988,-11096,-167,164,-169,2025-02-17 11:20:32,0.0
10148,6972,-11148,-161,183,-178,2025-02-17 11:20:32,0.0
10148,7012,-11068,-137,134,-182,2025-02-17 11:20:32,0.0
11880,10116,-3040,6387,-4091,5185,2025-02-17 11:20:32,0.0
7644,6212,-12556,3668,-2621,3367,2025-02-17 11:20:32,0.0
10776,6216,-14956,2941,-626,3130,2025-02-17 11:20:32,0.0
11200,6172,-15068,2072,2428,3292,2025-02-17 11:20:32,0.0
13384,5812,-11116,596,2509,1614,2025-02-17 11:20:32,0.0
15116,5912,-13044,-467,1800,37,2025-02-17 11:20:32,0.0
11544,6368,-12056,-1092,278,-730,2025-02-17 11:20:32,0.0
8768,6492,-9836,-589,805,-552,2025-02-17 11:20:32,0.0
11396,6100,-10564,-577,418,-598,2025-02-17 11:20:32,0.0
11596,6596,-11132,-453,-1583,-783,2025-02-17 11:20:32,0.0
9076,6476,-11856,-453,-1163,-672,2025-02-17 11:20:32,0.0
8320,6616,-11872,-296,918,-308,2025-02-17 11:20:32,0.0
10660,6532,-10748,-122,1269,-104,2025-02-17 11:20:32,0.0
11108,6452,-9756,-167,-330,-283,2025-02-17 11:20:32,0.0
10580,6400,-11424,-74,-1135,-317,2025-02-17 11:20:32,0.0
10508,6424,-11904,-608,137,-771,2025-02-17 11:20:32,0.0
10100,6648,-10596,-587,-142,-456,2025-02-17 11:20:32,0.0
10128,6800,-10400,228,-756,74,2025-02-17 11:20:32,0.0
9984,6420,-11260,200,-701,68,2025-02-17 11:20:32,0.0
9644,6764,-11836,182,134,55,2025-02-17 11:20:32,0.0
9548,6224,-12068,91,848,276,2025-02-17 11:20:32,0.0
11060,6080,-11360,7,866,93,2025-02-17 11:20:32,0.0
11160,6376,-10920,39,-153,-55,2025-02-17 11:20:32,0.0
10516,6288,-10772,180,-590,-95,2025-02-17 11:20:33,0.0
11392,6436,-11920,38,-1218,-429,2025-02-17 11:20:33,0.0
11372,6624,-11488,-253,-2202,-671,2025-02-17 11:20:33,0.0
8516,5984,-11652,-118,-2178,-333,2025-02-17 11:20:33,0.0
9628,6308,-12432,-26,102,-329,2025-02-17 11:20:33,0.0
3872,7416,-10568,765,3436,1000,2025-02-17 11:20:33,0.0
13452,5356,-14896,-1300,4321,511,2025-02-17 11:20:33,0.0
13360,5668,-13520,-2073,3629,-194,2025-02-17 11:20:33,0.0
10320,6928,-9912,-1986,2587,89,2025-02-17 11:20:33,0.0
11744,6104,-8968,-1056,1672,-744,2025-02-17 11:20:33,0.0
11988,7064,-9572,-802,-666,-809,2025-02-17 11:20:33,0.0
8964,7140,-10560,-181,-1708,-681,2025-02-17 11:20:33,0.0
6968,6292,-11788,-572,149,-74,2025-02-17 11:20:33,0.0
9684,6228,-14764,-1351,4969,-47,2025-02-17 11:20:33,0.0
12144,5132,-15084,-1472,-1323,-1002,2025-02-17 11:20:33,0.0
10608,6220,-10688,-1552,-8363,-3814,2025-02-17 11:20:33,0.0
10704,6936,-13756,-2176,-8969,-6131,2025-02-17 11:20:33,0.0
10232,6392,-14264,-2718,-7790,-7487,2025-02-17 11:20:33,0.0
6504,7136,-14444,-4094,-6519,-6204,2025-02-17 11:20:33,0.0
6940,7800,-10908,-4301,-5567,-5075,2025-02-17 11:20:33,0.0
5744,7892,-9900,-3276,-5260,-3569,2025-02-17 11:20:33,0.0
5928,7384,-9348,-2992,-4112,-2238,2025-02-17 11:20:33,0.0
5336,6976,-8352,-1455,-1932,-774,2025-02-17 11:20:33,0.0
8172,7948,-9768,-211,579,-190,2025-02-17 11:20:33,0.0
12192,8424,-14124,-773,-705,-1435,2025-02-17 11:20:33,0.0
12416,7324,-14820,-2392,-1977,-2947,2025-02-17 11:20:33,0.0
10588,7064,-14516,-3989,-3128,-4448,2025-02-17 11:20:33,0.0
6564,8028,-12812,-4558,-3425,-3885,2025-02-17 11:20:33,0.0
5732,9168,-11592,-4354,-2254,-2949,2025-02-17 11:20:33,0.0
6416,8964,-12164,-4449,-1135,-2503,2025-02-17 11:20:33,0.0
8024,7312,-16744,-7219,-1594,-2556,2025-02-17 11:20:33,0.0
13068,7364,-18208,-11184,-5317,-6197,2025-02-17 11:20:33,0.0
9616,8500,-15272,-14102,-8129,-7490,2025-02-17 11:20:33,
8696,9748,-12376,-13860,-8966,-7219,2025-02-17 11:20:33,0.0
6148,10248,-9712,-13029,-9193,-6825,2025-02-17 11:20:33,0.0
6136,10884,-8944,-12661,-10299,-6749,2025-02-17 11:20:33,0.0
4248,10928,-6532,-11550,-11579,-6199,2025-02-17 11:20:33,0.0
2088,10164,-9560,-12168,-12579,-4887,2025-02-17 11:20:33,0.0
128,4776,-13384,-14355,-12529,-2534,2025-02-17 11:20:33,0.0
-1180,8072,-18708,-19182,-8690,1590,2025-02-17 11:20:33,0.0
448,10816,-16420,-21806,-2907,3208,2025-02-17 11:20:33,0.0
4540,13160,-7060,-19919,733,3170,2025-02-17 11:20:33,0.0
6372,13892,-7452,-19389,-1244,3031,2025-02-17 11:20:33,0.0
8240,14780,-5896,-20970,-5802,1878,2025-02-17 11:20:33,0.0
8888,14460,-3292,-20697,-10226,-374,2025-02-17 11:20:33,0.0
7788,13400,-3424,-20002,-13866,-1670,2025-02-17 11:20:33,0.0
6996,13104,-3764,-19639,-15923,-2187,2025-02-17 11:20:33,0.0
6524,13568,-3336,-19077,-15877,-2827,2025-02-17 11:20:33,0.0
5976,14756,-3272,-18813,-15425,-3804,2025-02-17 11:20:33,0.0
3684,15700,-2416,-18933,-15072,-4092,2025-02-17 11:20:33,0.0
1348,16700,-1064,-18361,-13653,-3004,2025-02-17 11:20:33,0.0
1472,17460,-1804,-17790,-11509,-1536,2025-02-17 11:20:33,0.0
2080,18376,-1428,-17447,-9022,-527,2025-02-17 11:20:33,0.0
3392,19228,-612,-16866,-6997,-473,2025-02-17 11:20:33,0.0
1348,20132,1672,-15489,-6154,11,2025-02-17 11:20:33,0.0
-704,20928,3836,-13066,-6194,1840,2025-02-17 11:20:33,0.0
-684,21792,3992,-10258,-6808,4466,2025-02-17 11:20:33,0.0
1064,22188,2736,-8013,-6556,5701,2025-02-17 11:20:33,0.0
3296,21592,864,-7172,-6178,5170,2025-02-17 11:20:33,0.0
3236,20104,-384,-7706,-5788,4042,2025-02-17 11:20:33,0.0
2968,19356,1788,-7714,-5087,3032,2025-02-17 11:20:33,0.0
3436,20724,6056,-5009,-4254,2052,2025-02-17 11:20:33,0.0
3460,22528,6412,572,-2975,658,2025-02-17 11:20:34,0.0
2564,23032,2184,3120,-1896,-325,2025-02-17 11:20:34,0.0
2480,22724,-556,2836,-631,-1046,2025-02-17 11:20:34,0.0
2440,21248,-372,1553,1224,-1563,2025-02-17 11:20:34,0.0
1608,19936,1680,1552,3719,-1821,2025-02-17 11:20:34,0.0
408,19524,2964,2761,6547,-1205,2025-02-17 11:20:34,0.0
2248,19712,1856,3962,8993,-947,2025-02-17 11:20:34,0.0
3876,19804,-340,3585,10901,-2600,2025-02-17 11:20:34,0.0
2684,19320,-808,2379,12096,-3725,2025-02-17 11:20:34,0.0
1628,19020,-92,1646,12953,-3517,2025-02-17 11:20:34,0.0
1956,19036,1532,2118,12917,-2997,2025-02-17 11:20:34,0.0
2312,18380,7000,6681,9734,-1809,2025-02-17 11:20:34,0.0
2624,17176,-5404,9739,1680,1352,2025-02-17 11:20:34,0.0
8364,18840,-6584,5526,-5856,2079,2025-02-17 11:20:34,0.0
4796,18664,-1040,3969,-9231,-457,2025-02-17 11:20:34,0.0
1060,19992,3088,6119,-10236,110,2025-02-17 11:20:34,0.0
224,20556,4288,8893,-9087,901,2025-02-17 11:20:34,0.0
-780,17556,-604,9868,-7188,3212,2025-02-17 11:20:34,0.0
1372,16980,-4568,6449,-5746,4557,2025-02-17 11:20:34,0.0
3632,17028,-3512,2464,-4650,3952,2025-02-17 11:20:34,0.0
4864,16592,84,814,-2982,1889,2025-02-17 11:20:34,0.0
5740,15924,1772,1284,-1169,-628,2025-02-17 11:20:34,0.0
4116,15488,1572,1941,715,-2461,2025-02-17 11:20:34,0.0
2984,15136,-2392,13,3088,-3103,2025-02-17 11:20:34,0.0
900,15540,-2852,-3388,5924,-2968,2025-02-17 11:20:34,0.0
912,16940,-1508,-6041,8494,-2247,2025-02-17 11:20:34,0.0
2836,16352,624,-6862,10824,-2612,2025-02-17 11:20:34,0.0
4856,15796,1768,-6349,12986,-4859,2025-02-17 11:20:34,0.0
4336,15636,1424,-5689,14453,-6658,2025-02-17 11:20:34,0.0
2872,15648,-344,-5988,15828,-7366,2025-02-17 11:20:34,0.0
1552,14424,-1276,-7801,17198,-7137,2025-02-17 11:20:34,0.0
1656,13300,-1032,-9905,18191,-7137,2025-02-17 11:20:34,0.0
1680,12848,284,-10890,18649,-7101,2025-02-17 11:20:34,0.0
1768,12756,1184,-11034,18257,-7049,2025-02-17 11:20:34,0.0
3048,12008,1056,-11328,16782,-7428,2025-02-17 11:20:34,0.0
4872,11272,1264,-11615,14048,-8825,2025-02-17 11:20:34,0.0
5916,10720,3252,-10856,9269,-11521,2025-02-17 11:20:34,0.0
4436,10672,5764,-8116,4691,-13560,2025-02-17 11:20:34,0.0
3584,10020,3748,-5730,123,-14060,2025-02-17 11:20:34,0.0
3704,9320,952,-5792,-5570,-14262,2025-02-17 11:20:34,0.0
2832,9056,2920,-5028,-14068,-12561,2025-02-17 11:20:34,0.0
5964,10180,2268,-4380,-22065,-13240,2025-02-17 11:20:34,0.0
5316,9772,3180,-3113,-29338,-13500,2025-02-17 11:20:34,0.0
4052,9424,3496,-1839,-32768,-14311,2025-02-17 11:20:34,0.0
2036,8956,3012,-660,-32768,-13624,2025-02-17 11:20:34,0.0
1628,8968,1616,239,-32768,-12991,2025-02-17 11:20:34,0.0
584,9148,-936,-2864,-32768,-11754,2025-02-17 11:20:34,0.0
-4396,8324,5400,-3023,-32768,-7791,2025-02-17 11:20:34,0.0
1272,9716,4204,-951,-32768,-6878,2025-02-17 11:20:34,0.0
1296,9700,2104,-1075,-32768,-8992,2025-02-17 11:20:34,0.0
84,9776,2256,-2331,-32630,-12231,2025-02-17 11:20:34,0.0
-2472,9336,3136,-3696,-26347,-14579,2025-02-17 11:20:34,0.0
-5960,7340,2860,-4832,-17381,-10681,2025-02-17 11:20:34,0.0
-2952,6480,-1968,-11843,-4690,-7183,2025-02-17 11:20:34,0.0
-456,4560,2592,-22660,12345,-6169,2025-02-17 11:20:34,0.0
3492,4548,14968,-24817,29925,-10039,2025-02-17 11:20:34,0.0
52,5864,13124,-18076,32767,-14951,2025-02-17 11:20:34,0.0
-360,9112,8584,-16805,32767,-18700,2025-02-17 11:20:34,0.0
-4876,11896,6884,-15460,32767,-22185,2025-02-17 11:20:34,0.0
-9028,11428,2280,-14959,32767,-23977,2025-02-17 11:20:34,0.0
-10024,9796,-124,-14870,32767,-25731,2025-02-17 11:20:34,0.0
-10128,7876,1596,-10850,32767,-29192,2025-02-17 11:20:34,0.0
-10592,5784,1104,-3498,32767,-31497,2025-02-17 11:20:35,0.0
-13980,3672,-944,5253,32767,-31072,2025-02-17 11:20:35,0.0
-15032,1632,-6572,9571,32767,-27840,2025-02-17 11:20:35,0.0
-14452,1000,-9852,9912,32767,-22989,2025-02-17 11:20:35,0.0
-9512,440,-9888,8498,32767,-19929,2025-02-17 11:20:35,0.0
-7188,1160,-5724,8580,22420,-18957,2025-02-17 11:20:35,0.0
-7524,1068,-2928,9451,4648,-18565,2025-02-17 11:20:35,0.0
-8892,1176,-2364,8474,-7746,-16925,2025-02-17 11:20:35,0.0
-10160,468,-2188,6481,-18417,-15044,2025-02-17 11:20:35,
-13604,-16,-4584,4595,-26903,-12423,2025-02-17 11:20:35,0.0
-16272,-128,-5468,2310,-32768,-9530,2025-02-17 11:20:35,0.0
-18076,-676,-5324,1479,-32768,-7566,2025-02-17 11:20:35,0.0
-18260,-1268,-5908,1095,-32768,-7463,2025-02-17 11:20:35,0.0
-19152,-1412,-5460,-275,-32768,-6852,2025-02-17 11:20:35,0.0
-18876,-1764,-4204,-2338,-32768,-5110,2025-02-17 11:20:35,0.0
-18212,-3140,-1412,-4114,-32688,-2506,2025-02-17 11:20:35,0.0
-18716,-1232,1960,-4243,-24710,-885,2025-02-17 11:20:35,0.0
-17548,-948,3060,-2969,-15116,-66,2025-02-17 11:20:35,0.0
-17552,-1088,1632,-3035,-4133,-971,2025-02-17 11:20:35,0.0
-18952,-1268,664,-4114,5416,-1066,2025-02-17 11:20:35,0.0
-18640,-1512,488,-5056,13006,337,2025-02-17 11:20:35,0.0
-16156,-532,548,-4763,18758,2035,2025-02-17 11:20:35,0.0
-12448,584,-832,-4305,19910,2033,2025-02-17 11:20:35,0.0
-1712,4864,32592,-4048,7779,1304,2025-02-17 11:20:35,0.0
-13980,644,2976,-3776,-5531,-1602,2025-02-17 11:20:35,0.0
-16368,336,-3516,-7321,-5713,-2356,2025-02-17 11:20:35,0.0
-15600,284,-1320,-8465,-10530,-1366,2025-02-17 11:20:35,0.0
-15828,1068,3024,-5387,-17084,557,2025-02-17 11:20:35,0.0
-16448,2156,2144,-3932,-19863,3083,2025-02-17 11:20:35,0.0
-14216,3048,2112,-6671,-13673,2825,2025-02-17 11:20:35,0.0
-10160,3780,1228,-7617,-654,495,2025-02-17 11:20:35,0.0
-11656,1052,88,-8092,3669,-376,2025-02-17 11:20:35,0.0
-12760,1168,672,-8539,5784,-605,2025-02-17 11:20:35,0.0
-13864,1724,1380,-8877,6041,-461,2025-02-17 11:20:35,0.0
-14852,1876,900,-9837,4302,-39,2025-02-17 11:20:35,0.0
-15236,1612,52,-10954,1800,212,2025-02-17 11:20:35,0.0
-13712,792,-848,-12671,-582,-384,2025-02-17 11:20:35,0.0
-13120,-504,-952,-14084,-1605,-1576,2025-02-17 11:20:35,0.0
-14036,-1548,380,-15011,-1293,-2007,2025-02-17 11:20:35,0.0
-15284,-1648,-152,-16145,-57,80,2025-02-17 11:20:35,0.0
-14000,-1684,-300,-16843,530,1046,2025-02-17 11:20:35,0.0
-13856,-1724,888,-17164,826,1512,2025-02-17 11:20:35,0.0
-13696,-1032,2040,-17046,137,2004,2025-02-17 11:20:35,0.0
-12796,-688,2104,-16588,-6,2259,2025-02-17 11:20:35,0.0
-12676,-796,308,-16428,892,1876,2025-02-17 11:20:35,0.0
-11244,-2552,-848,-18009,1938,1663,2025-02-17 11:20:35,0.0
-14084,-1976,604,-17251,3604,898,2025-02-17 11:20:35,0.0
-13608,-2196,656,-15956,5230,2313,2025-02-17 11:20:35,0.0
-10980,-2096,2796,-12877,5912,1133,2025-02-17 11:20:35,0.0
-12440,-2204,-6092,-14045,6270,208,2025-02-17 11:20:35,0.0
-11184,-696,-8220,-19666,5394,-678,2025-02-17 11:20:35,0.0
-12344,-368,-4636,-21235,4927,-1927,2025-02-17 11:20:35,0.0
-14124,-1780,-1500,-21250,4770,-1634,2025-02-17 11:20:35,0.0
-12976,-3336,-784,-20825,4213,-2044,2025-02-17 11:20:35,0.0
-14304,-3556,-1792,-21335,4070,-2461,2025-02-17 11:20:35,0.0
-14680,-3372,-824,-21753,4167,-1998,2025-02-17 11:20:35,0.0
-14672,-3704,-896,-21451,3925,-1615,2025-02-17 11:20:35,0.0
-14876,-2888,-692,-20634,3521,-832,2025-02-17 11:20:35,0.0
-13740,-2372,-2796,-20788,3222,-520,2025-02-17 11:20:35,0.0
-13556,-2188,-2400,-20862,3649,-831,2025-02-17 11:20:35,0.0
-13776,-1196,-1892,-20855,5565,-956,2025-02-17 11:20:35,0.0
-13496,2008,68,-20241,8450,-1571,2025-02-17 11:20:36,0.0
-14308,4068,120,-19843,9939,-2239,2025-02-17 11:20:36,0.0
-15096,3288,-2520,-19174,10569,-2534,2025-02-17 11:20:36,0.0
-15548,1348,-4264,-19447,11787,-2559,2025-02-17 11:20:36,0.0
-14996,-2540,-1696,-18333,14017,-3938,2025-02-17 11:20:36,0.0
-17760,-5120,-376,-17611,13035,-4462,2025-02-17 11:20:36,0.0
-17596,-4020,788,-17194,7655,-3212,2025-02-17 11:20:36,0.0
-16608,-1140,-420,-16888,1726,-3574,2025-02-17 11:20:36,0.0
-17168,1532,-776,-16894,-2640,-3116,2025-02-17 11:20:36,0.0
-14064,1648,-1360,-16783,-3967,-1412,2025-02-17 11:20:36,0.0
-9864,76,-1672,-16033,-2556,-1937,2025-02-17 11:20:36,0.0
-9640,-480,-1176,-14693,-191,-2607,2025-02-17 11:20:36,0.0
-8988,-540,-428,-13614,1985,-3038,2025-02-17 11:20:36,0.0
-10508,-624,588,-12260,2940,-3770,2025-02-17 11:20:36,0.0
-12420,12,396,-11430,2359,-3627,2025-02-17 11:20:36,0.0
-14116,-1064,-4724,-15128,123,-3466,2025-02-17 11:20:36,0.0
-13564,-1672,-3216,-15890,907,-3332,2025-02-17 11:20:36,0.0
-13440,-1248,-2700,-15611,1519,-3098,2025-02-17 11:20:36,0.0
-12704,-1032,-2404,-15619,2207,-2825,2025-02-17 11:20:36,0.0
-12652,-748,-2016,-15116,3314,-2751,2025-02-17 11:20:36,0.0
-12636,-520,-2264,-14375,3993,-2595,2025-02-17 11:20:36,0.0
-13152,-388,-2112,-13526,4103,-2342,2025-02-17 11:20:36,0.0
-13256,-616,-1500,-12293,3798,-2042,2025-02-17 11:20:36,0.0
-12632,-744,-428,-10817,2306,-2261,2025-02-17 11:20:36,0.0
-12828,-916,-1580,-10136,1808,-2871,2025-02-17 11:20:36,0.0
-13712,-660,-2320,-9946,2101,-2997,2025-02-17 11:20:36,0.0
-14440,-412,-2860,-9190,3297,-2727,2025-02-17 11:20:36,0.0
-15080,-148,-2928,-8107,4422,-2195,2025-02-17 11:20:36,0.0
-16012,-572,-1228,-7307,4549,-1841,2025-02-17 11:20:36,0.0
-14692,544,-524,-6379,2217,-2069,2025-02-17 11:20:36,0.0
-14240,1448,-180,-5083,-1318,-2520,2025-02-17 11:20:36,0.0
-13292,780,144,-4048,-4126,-3244,2025-02-17 11:20:36,0.0
-12724,-416,-456,-3483,-5016,-3721,2025-02-17 11:20:36,0.0
-13032,-664,-984,-2848,-3357,-3615,2025-02-17 11:20:36,0.0
-13636,-88,-2144,-2755,-1213,-3000,2025-02-17 11:20:36,0.0
-14316,348,-2792,-3313,324,-1987,2025-02-17 11:20:36,0.0
-13632,204,-2332,-3614,665,-1803,2025-02-17 11:20:36,0.0
-13572,440,-1960,-3686,-28,-1659,2025-02-17 11:20:36,0.0
-12852,976,-2984,-4102,-723,-1702,2025-02-17 11:20:36,0.0
-12344,692,-3308,-4624,-1134,-1802,2025-02-17 11:20:36,0.0
-11920,236,-3220,-4833,-681,-1861,2025-02-17 11:20:36,0.0
-11612,-500,-3400,-5071,241,-2103,2025-02-17 11:20:36,0.0
-11704,-852,-3128,-5458,1143,-2474,2025-02-17 11:20:36,0.0
-12340,-1804,-1916,-5637,2142,-2911,2025-02-17 11:20:36,0.0
-13208,-1760,-2064,-5453,2391,-2826,2025-02-17 11:20:36,0.0
-15208,-3420,-1796,-4928,1352,-2037,2025-02-17 11:20:36,0.0
-14576,-2472,-2300,-5708,2393,-2716,2025-02-17 11:20:36,0.0
-14664,-2868,-816,-5274,2828,-2426,2025-02-17 11:20:36,
-14800,-2232,-1556,-4565,2959,-1979,2025-02-17 11:20:36,0.0
-15020,-1612,-1488,-4188,1524,-1452,2025-02-17 11:20:36,0.0
-14560,-1648,-2648,-4095,-361,-1832,2025-02-17 11:20:37,0.0
-14404,-1836,-1436,-3616,-1425,-2638,2025-02-17 11:20:37,0.0
-13932,-1620,-1140,-3035,-1976,-2781,2025-02-17 11:20:37,0.0
-12504,-1456,-2020,-2500,-1826,-3200,2025-02-17 11:20:37,0.0
-12400,-1500,-2120,-2247,-1541,-3291,2025-02-17 11:20:37,0.0
-11964,-1624,-2900,-3003,-1202,-3483,2025-02-17 11:20:37,0.0
-12476,-1864,-1468,-3575,-775,-3693,2025-02-17 11:20:37,0.0
-12696,-1892,-1220,-3711,-415,-3555,2025-02-17 11:20:37,0.0
-12784,-1880,-1144,-3920,-292,-3354,2025-02-17 11:20:37,0.0
-13208,-1728,-752,-3988,-225,-2649,2025-02-17 11:20:37,0.0
-12696,-1940,-732,-4291,-200,-1987,2025-02-17 11:20:37,0.0
-12564,-2756,-396,-4891,897,-1381,2025-02-17 11:20:37,0.0
-12712,-2908,8,-4880,1980,-702,2025-02-17 11:20:37,0.0
-13072,-2868,212,-4763,2308,-172,2025-02-17 11:20:37,0.0
-13544,-2580,532,-4297,2264,326,2025-02-17 11:20:37,0.0
-13524,-2476,632,-3723,1805,763,2025-02-17 11:20:37,0.0
-13104,-2680,1384,-2910,1461,1084,2025-02-17 11:20:37,0.0
-12572,-3072,1088,-1842,1063,1154,2025-02-17 11:20:37,0.0
-13308,-3340,1028,-411,1270,1364,2025-02-17 11:20:37,0.0
-12824,-2604,-744,-711,1777,1812,2025-02-17 11:20:37,0.0
-12632,-1772,-1388,-1800,2096,1198,2025-02-17 11:20:37,0.0
-13080,-1012,-760,-2520,1920,900,2025-02-17 11:20:37,0.0
-13424,-712,292,-2349,997,579,2025-02-17 11:20:37,0.0
-13656,-856,-180,-1960,373,432,2025-02-17 11:20:37,0.0
-13624,-1836,-240,-1865,-9,-412,2025-02-17 11:20:37,0.0
-13908,-2432,-560,-2347,-1494,-1773,2025-02-17 11:20:37,0.0
-15020,-2084,-432,-3103,-3835,-2698,2025-02-17 11:20:37,0.0
-14036,-1368,800,-3188,-5880,-3786,2025-02-17 11:20:37,0.0
-13480,-1592,292,-3351,-6893,-4891,2025-02-17 11:20:37,0.0
-11896,-2556,1428,-3874,-7744,-6755,2025-02-17 11:20:37,0.0
-11828,-4240,112,-4249,-6704,-8660,2025-02-17 11:20:37,0.0
-12556,-4600,-3724,-4850,-2006,-9512,2025-02-17 11:20:37,0.0
-16732,-5344,1252,-3108,2650,-7053,2025-02-17 11:20:37,0.0
-18648,-6672,-1948,-1462,4312,-4045,2025-02-17 11:20:37,0.0
-19052,-5984,-5672,-3119,4099,-2537,2025-02-17 11:20:37,0.0
-17280,-5272,-3948,-3908,4899,-2647,2025-02-17 11:20:37,0.0
-19176,-4216,-5096,-5191,6441,-2531,2025-02-17 11:20:37,0.0
-18088,-2004,-3164,-5844,5674,-1903,2025-02-17 11:20:37,0.0
-17772,-700,-3428,-5479,1467,-958,2025-02-17 11:20:37,0.0
-17392,-2256,-4832,-4260,-5381,991,2025-02-17 11:20:37,0.0
-14680,-2372,-6012,-2741,-7670,1791,2025-02-17 11:20:37,0.0
-13320,-852,-7336,-2099,-6860,1394,2025-02-17 11:20:37,0.0
-12304,1052,-5120,-2368,-4894,1296,2025-02-17 11:20:37,0.0
-10936,1796,-3368,-1366,-5318,639,2025-02-17 11:20:37,0.0
-10496,1960,-2916,-408,-7177,-492,2025-02-17 11:20:37,0.0
-10784,1260,-2300,100,-8082,-1143,2025-02-17 11:20:37,0.0
-11752,-848,-936,746,-6375,-939,2025-02-17 11:20:37,0.0
-13144,-2320,-1728,964,-2802,64,2025-02-17 11:20:37,0.0
-15408,-3212,-2248,1245,786,2224,2025-02-17 11:20:37,0.0
-14284,-3200,-2508,1075,3240,3788,2025-02-17 11:20:37,0.0
-13676,-2240,-2668,315,3930,4214,2025-02-17 11:20:37,0.0
-14992,-736,-2428,-369,3165,4592,2025-02-17 11:20:37,0.0
-14528,1068,-2184,-543,1968,5369,2025-02-17 11:20:37,0.0
-12276,1832,-2088,-585,355,4574,2025-02-17 11:20:37,0.0
-11988,1364,-1972,-564,-1138,3153,2025-02-17 11:20:37,0.0
-11980,648,-1836,-79,-2559,2197,2025-02-17 11:20:37,0.0
-12224,592,-1116,832,-4447,1699,2025-02-17 11:20:37,0.0
-11644,264,-2516,1253,-6612,1701,2025-02-17 11:20:37,0.0
-10496,-60,-1588,1120,-7259,1324,2025-02-17 11:20:38,0.0
-10152,-504,-808,1555,-6095,1002,2025-02-17 11:20:38,0.0
-10216,-708,-744,1811,-3112,1055,2025-02-17 11:20:38,0.0
-9956,-1000,-628,2209,451,1138,2025-02-17 11:20:38,0.0
-10536,-332,-2228,1704,2879,918,2025-02-17 11:20:38,0.0
-11672,-312,-1152,1239,4907,1187,2025-02-17 11:20:38,0.0
-11272,-72,-2512,937,4608,909,2025-02-17 11:20:38,0.0
-13440,20,-1600,303,4950,1203,2025-02-17 11:20:38,0.0
-13868,92,-976,80,5618,1738,2025-02-17 11:20:38,0.0
-14668,388,-124,106,5448,2025,2025-02-17 11:20:38,0.0
-14760,660,40,651,4334,1861,2025-02-17 11:20:38,0.0
-14600,984,216,1373,1176,1135,2025-02-17 11:20:38,0.0
-14348,512,60,1786,-3057,170,2025-02-17 11:20:38,0.0
-14168,456,-232,1971,-5453,-25,2025-02-17 11:20:38,0.0
-13084,608,-856,2052,-5726,-75,2025-02-17 11:20:38,0.0
-12656,580,-768,2262,-4951,-15,2025-02-17 11:20:38,0.0
