acceleration_x,acceleration_y,acceleration_z,gyroscope_x,gyroscope_y,gyroscope_z,timestamp,label
-13452,884,260,-121,2613,773,2025-02-17 11:29:47,0.0
-12940,1044,-500,204,2232,194,2025-02-17 11:29:47,0.0
-13852,1364,-1596,-484,1500,-288,2025-02-17 11:29:47,0.0
-13792,1156,-808,-867,1327,-586,2025-02-17 11:29:47,0.0
-13904,748,-152,-154,1433,-135,2025-02-17 11:29:47,0.0
-13548,936,-1340,559,1406,144,2025-02-17 11:29:47,0.0
-13180,1488,-1988,-161,1395,-142,2025-02-17 11:29:47,0.0
-13280,1380,-1724,-1122,1692,-691,2025-02-17 11:29:47,0.0
-13164,1324,-1012,-1362,1942,-1175,2025-02-17 11:29:47,0.0
-13964,920,-816,-664,1608,-977,2025-02-17 11:29:47,0.0
-14112,908,-1132,174,690,-566,2025-02-17 11:29:47,0.0
-14344,1008,-1520,357,57,170,2025-02-17 11:29:47,0.0
-13600,1276,-1700,124,-380,-68,2025-02-17 11:29:47,0.0
-13596,1288,-1452,-375,-914,-395,2025-02-17 11:29:47,0.0
-13348,1244,-1172,-578,-1142,-530,2025-02-17 11:29:47,0.0
-13336,1168,-432,-199,-193,-209,2025-02-17 11:29:47,0.0
-12760,1128,-1236,-279,1663,-259,2025-02-17 11:29:47,0.0
-12864,1404,-1604,-369,1690,-1205,2025-02-17 11:29:47,0.0
-13364,1040,-1524,-535,1252,-1817,2025-02-17 11:29:47,0.0
-14344,852,-1404,-563,852,-1809,2025-02-17 11:29:47,0.0
-14316,880,-1076,-692,374,-1055,2025-02-17 11:29:47,0.0
-13636,808,-644,-154,-153,-824,2025-02-17 11:29:47,0.0
-13176,932,-1208,331,-468,-1248,2025-02-17 11:29:47,0.0
-13544,872,-1268,786,-972,-1375,2025-02-17 11:29:47,0.0
-13608,932,-1720,950,-1346,-598,2025-02-17 11:29:47,0.0
-13260,868,-1260,1012,-629,-575,2025-02-17 11:29:47,0.0
-13200,988,-1480,600,241,-545,2025-02-17 11:29:47,0.0
-13224,928,-1052,279,1079,-805,2025-02-17 11:29:47,0.0
-13520,952,-1368,261,1260,-992,2025-02-17 11:29:47,0.0
-14312,840,-1604,74,673,-326,2025-02-17 11:29:47,0.0
-13648,632,-1364,107,293,257,2025-02-17 11:29:47,0.0
-13228,800,-1100,182,563,213,2025-02-17 11:29:47,0.0
-13260,840,-1504,79,885,187,2025-02-17 11:29:47,0.0
-13184,856,-1164,-110,1456,149,2025-02-17 11:29:47,0.0
-13480,700,-1556,-69,2051,48,2025-02-17 11:29:47,0.0
-13704,852,-2080,-408,2420,153,2025-02-17 11:29:47,0.0
-13660,940,-1892,-416,2257,424,2025-02-17 11:29:47,0.0
-13236,1140,-1596,-350,1906,287,2025-02-17 11:29:47,0.0
-13512,948,-1748,-498,2446,263,2025-02-17 11:29:48,0.0
-13324,2956,-2104,2018,5174,381,2025-02-17 11:29:48,0.0
-13564,2396,-2364,2214,3870,125,2025-02-17 11:29:48,0.0
-13432,1604,-3064,2191,2127,-243,2025-02-17 11:29:48,0.0
-13488,1148,-2756,1619,120,-838,2025-02-17 11:29:48,0.0
-13264,940,-3156,689,-1663,-1741,2025-02-17 11:29:48,0.0
-13476,744,-3172,-385,-1904,-2307,2025-02-17 11:29:48,0.0
-13880,956,-3340,-1019,297,-2070,2025-02-17 11:29:48,0.0
-13356,1492,-3368,-978,2241,-1508,2025-02-17 11:29:48,0.0
-12512,1372,-3208,-506,2360,-1478,2025-02-17 11:29:48,0.0
-12668,1256,-3468,-345,1743,-1524,2025-02-17 11:29:48,0.0
-12360,240,-3664,-920,2067,-1695,2025-02-17 11:29:48,0.0
-12240,-596,-3400,-1872,2419,-2426,2025-02-17 11:29:48,0.0
-12868,-1016,-2440,-2255,2339,-3011,2025-02-17 11:29:48,0.0
-13492,-380,-2260,-2112,1813,-3108,2025-02-17 11:29:48,0.0
-13984,560,-1724,-1819,1682,-3216,2025-02-17 11:29:48,0.0
-13892,1360,-1264,-1190,1366,-3108,2025-02-17 11:29:48,0.0
-13828,956,-492,-436,932,-3083,2025-02-17 11:29:48,0.0
-12728,-236,-1564,-663,633,-3926,2025-02-17 11:29:48,0.0
-13864,-1428,-1056,-827,1173,-4113,2025-02-17 11:29:48,0.0
-13736,-2060,-1456,-921,1548,-3463,2025-02-17 11:29:48,0.0
-13380,-2336,-1656,-437,1317,-3018,2025-02-17 11:29:48,0.0
-13676,-2004,-2716,-207,682,-2569,2025-02-17 11:29:48,0.0
-13392,-1092,-2792,-616,184,-1962,2025-02-17 11:29:48,0.0
-12524,-292,-2716,-1110,-75,-1801,2025-02-17 11:29:48,0.0
-11888,-160,-2280,-1449,134,-1881,2025-02-17 11:29:48,0.0
-11792,-392,-1592,-1657,539,-1955,2025-02-17 11:29:48,0.0
-11772,-736,-1468,-1693,2063,-2148,2025-02-17 11:29:48,0.0
-12076,-1080,-1488,-2101,4161,-2302,2025-02-17 11:29:48,0.0
-12756,-1400,-1464,-2302,5046,-2426,2025-02-17 11:29:48,0.0
-13064,-1080,-1852,-2553,4617,-2481,2025-02-17 11:29:48,0.0
-13648,-760,-1516,-2673,3240,-2437,2025-02-17 11:29:48,0.0
-13840,-700,-1284,-2496,1711,-2234,2025-02-17 11:29:48,0.0
-13580,-588,-988,-2282,-189,-1913,2025-02-17 11:29:48,0.0
-13460,-484,-1188,-2338,-1249,-1654,2025-02-17 11:29:48,0.0
-12964,-1028,-1404,-2186,-1726,-1293,2025-02-17 11:29:48,0.0
-12556,-1616,-1616,-2060,-959,-995,2025-02-17 11:29:48,0.0
-13188,-1732,-2044,-1923,905,-866,2025-02-17 11:29:48,0.0
-13984,-1524,-1980,-1937,1791,-1031,2025-02-17 11:29:48,0.0
-15140,-1536,-2088,-1980,1193,-1281,2025-02-17 11:29:48,0.0
-15904,-2236,-1912,-2381,-115,-1234,2025-02-17 11:29:48,0.0
-16732,-3492,-1752,-2755,-798,-782,2025-02-17 11:29:48,0.0
-17000,-4640,-1804,-3157,-1569,-305,2025-02-17 11:29:48,0.0
-16264,-5332,-2264,-3649,-1982,95,2025-02-17 11:29:48,0.0
-15424,-4976,-6248,-3885,-59,-323,2025-02-17 11:29:48,0.0
-16224,-2752,-3768,-3053,4220,-1356,2025-02-17 11:29:48,0.0
-15932,-2300,-5808,-3546,5760,-3024,2025-02-17 11:29:48,0.0
-17136,-2912,-5180,-3771,4522,-4557,2025-02-17 11:29:48,0.0
-19396,-3956,-5620,-2857,692,-3400,2025-02-17 11:29:48,0.0
-18500,-4236,-6464,-1788,-1948,-1468,2025-02-17 11:29:48,0.0
-16552,-2236,-7044,-790,-4477,-263,2025-02-17 11:29:48,0.0
-14744,-692,-6852,-242,-7489,404,2025-02-17 11:29:48,0.0
-12232,-752,-6864,236,-10528,1263,2025-02-17 11:29:48,0.0
-9760,1336,-4908,1891,-11108,2590,2025-02-17 11:29:48,0.0
-9976,3084,-3552,2896,-6898,3185,2025-02-17 11:29:48,0.0
-10316,3972,-2980,3570,-2217,3228,2025-02-17 11:29:48,0.0
-10976,2780,-3760,3884,1104,3045,2025-02-17 11:29:48,0.0
-11780,268,-4812,4292,3320,3240,2025-02-17 11:29:48,0.0
-12096,-1184,-5880,4525,6391,3978,2025-02-17 11:29:48,0.0
-12872,-1920,-6384,3221,10230,4418,2025-02-17 11:29:49,0.0
-13456,-1452,-6500,1328,11512,4244,2025-02-17 11:29:49,0.0
-14704,-1028,-5180,273,7866,3510,2025-02-17 11:29:49,
-14436,-140,-4136,251,938,2804,2025-02-17 11:29:49,0.0
-24244,-2288,-8772,-537,-5161,5346,2025-02-17 11:29:49,0.0
-6704,3832,-3888,2942,-13787,3483,2025-02-17 11:29:49,0.0
-9448,3576,-2856,1815,-13144,4302,2025-02-17 11:29:49,0.0
-7872,3140,-2472,2439,-11837,3177,2025-02-17 11:29:49,0.0
-8060,3068,-2160,3030,-10201,2413,2025-02-17 11:29:49,0.0
-8536,2048,-2324,3900,-7246,2137,2025-02-17 11:29:49,0.0
-7948,2100,-1016,4241,-2566,2010,2025-02-17 11:29:49,0.0
-8436,1588,-1800,3281,1522,916,2025-02-17 11:29:49,0.0
-10408,1476,-1936,2405,3912,-170,2025-02-17 11:29:49,0.0
-11364,1316,-1800,1594,5165,-249,2025-02-17 11:29:49,0.0
-12224,1256,-1488,1445,4678,-185,2025-02-17 11:29:49,0.0
-13388,1264,-1404,2051,2534,-537,2025-02-17 11:29:49,0.0
-14664,904,-1312,2591,224,-259,2025-02-17 11:29:49,0.0
-15364,1324,-520,2466,-996,180,2025-02-17 11:29:49,0.0
-14776,1748,-744,1874,-1465,429,2025-02-17 11:29:49,0.0
-14484,1460,-1432,943,-1991,378,2025-02-17 11:29:49,0.0
-14204,1116,-1892,771,-2087,306,2025-02-17 11:29:49,0.0
-13736,1408,-2392,1113,-2708,237,2025-02-17 11:29:49,0.0
-13648,3080,-1848,1811,-3176,520,2025-02-17 11:29:49,0.0
-14088,3220,-876,2730,-2432,1053,2025-02-17 11:29:49,0.0
-14488,1676,64,3089,-2720,1407,2025-02-17 11:29:49,0.0
-15164,460,164,3518,-3686,1815,2025-02-17 11:29:49,0.0
-14124,32,-296,4243,-2871,1629,2025-02-17 11:29:49,0.0
-13668,2532,-3496,5348,-1158,51,2025-02-17 11:29:49,0.0
-14352,3936,-7324,3626,2560,-1160,2025-02-17 11:29:49,0.0
-15912,3832,-8984,1871,7316,-1934,2025-02-17 11:29:49,0.0
-17388,2800,-8648,2188,10889,-1594,2025-02-17 11:29:49,0.0
-20780,960,-5808,3083,9174,709,2025-02-17 11:29:49,0.0
-12756,-248,-7264,3062,1814,664,2025-02-17 11:29:49,0.0
-14144,-1684,-4956,2598,-2239,-39,2025-02-17 11:29:49,0.0
-11572,-2596,-5876,1419,-2463,241,2025-02-17 11:29:49,0.0
-10040,-2444,-6164,758,-368,-506,2025-02-17 11:29:49,0.0
-10360,-1000,-5548,822,1631,-1182,2025-02-17 11:29:49,0.0
-10764,880,-4912,1338,3231,-2152,2025-02-17 11:29:49,0.0
-11592,2056,-3756,1873,3291,-3298,2025-02-17 11:29:49,0.0
-12100,1760,-3000,1722,2722,-3890,2025-02-17 11:29:49,0.0
-13004,160,-3832,1445,2803,-3916,2025-02-17 11:29:49,0.0
-13172,-1520,-4248,1120,1664,-2862,2025-02-17 11:29:49,0.0
-12672,-2048,-4140,1064,-340,-1984,2025-02-17 11:29:49,0.0
-11912,-1688,-4320,1155,-2015,-1550,2025-02-17 11:29:49,0.0
-11408,-1384,-4564,844,-3006,-1407,2025-02-17 11:29:49,0.0
-11492,-952,-4448,73,-3083,-1492,2025-02-17 11:29:49,0.0
-11708,-612,-3856,-521,-2186,-1401,2025-02-17 11:29:49,0.0
-11776,-516,-3648,-797,-873,-1369,2025-02-17 11:29:49,0.0
-11944,-876,-3756,-1431,505,-1260,2025-02-17 11:29:49,0.0
-11840,-1152,-3960,-2072,1785,-1218,2025-02-17 11:29:49,0.0
-12144,-1008,-3652,-2228,2733,-1229,2025-02-17 11:29:49,0.0
-12564,-356,-3540,-2353,2769,-1255,2025-02-17 11:29:49,0.0
-12908,-228,-2956,-2687,2050,-1496,2025-02-17 11:29:49,0.0
-13604,-1016,-2796,-3032,1091,-1528,2025-02-17 11:29:49,0.0
-13888,-1820,-3716,-3358,509,-1239,2025-02-17 11:29:49,0.0
-14032,-1852,-4600,-3618,430,-898,2025-02-17 11:29:49,0.0
-13676,-1480,-5252,-4256,462,-718,2025-02-17 11:29:49,0.0
-12848,-1060,-4448,-4730,993,-513,2025-02-17 11:29:50,0.0
-11996,-1168,-3740,-4540,1149,-564,2025-02-17 11:29:50,0.0
-11888,-1152,-2812,-4295,1239,-384,2025-02-17 11:29:50,0.0
-12180,-1596,-2760,-3801,2062,57,2025-02-17 11:29:50,0.0
-12284,-1672,-2940,-3644,2042,338,2025-02-17 11:29:50,0.0
-12340,-1992,-2728,-3390,765,482,2025-02-17 11:29:50,0.0
-12784,-2440,-2156,-3302,-718,616,2025-02-17 11:29:50,0.0
-12776,-3784,-1732,-2618,-2039,1096,2025-02-17 11:29:50,0.0
-12244,-5724,-1456,-1488,-3031,1575,2025-02-17 11:29:50,0.0
-14148,-5716,-4316,1174,-642,3405,2025-02-17 11:29:50,0.0
-13192,-2752,-5084,2541,1762,3681,2025-02-17 11:29:50,0.0
-14828,932,-4188,4590,4883,3414,2025-02-17 11:29:50,0.0
-16012,2568,-1592,5970,5426,2534,2025-02-17 11:29:50,0.0
-14328,276,-2132,6993,2871,1832,2025-02-17 11:29:50,0.0
-13224,-2396,-2160,9383,963,1699,2025-02-17 11:29:50,0.0
-12692,-4608,-3320,12317,-240,1891,2025-02-17 11:29:50,0.0
-12820,-5500,-3476,13994,-893,3025,2025-02-17 11:29:50,0.0
-13140,-5144,-5372,13915,-1674,3674,2025-02-17 11:29:50,0.0
-13472,-4752,-4828,13379,-3213,4082,2025-02-17 11:29:50,0.0
-14612,-3464,-4360,13466,-4933,4673,2025-02-17 11:29:50,0.0
-14620,-2148,-4724,13373,-5838,5541,2025-02-17 11:29:50,0.0
-12760,-1268,-4252,13678,-5851,5412,2025-02-17 11:29:50,0.0
-12124,-1060,-3480,14925,-4871,4109,2025-02-17 11:29:50,0.0
-12400,-1132,-3576,16850,-3276,3372,2025-02-17 11:29:50,0.0
-12112,-2032,-3888,18544,-2944,2857,2025-02-17 11:29:50,0.0
-12488,-2656,-3756,20363,-2883,2076,2025-02-17 11:29:50,0.0
-13112,-2816,-3396,21438,-3285,979,2025-02-17 11:29:50,0.0
-13644,-2352,-4364,21470,-4350,221,2025-02-17 11:29:50,0.0
-13956,-2328,-3660,21432,-5929,73,2025-02-17 11:29:50,0.0
-14320,-3092,-3528,22248,-7358,158,2025-02-17 11:29:50,0.0
-15140,-3744,-3248,23194,-8860,1242,2025-02-17 11:29:50,0.0
-14740,-3304,-2360,23014,-9477,2860,2025-02-17 11:29:50,0.0
-13720,-3384,-3064,22193,-8774,2932,2025-02-17 11:29:50,0.0
-14656,-2752,-3780,20851,-7837,2925,2025-02-17 11:29:50,0.0
-14916,-2304,-4424,18897,-5584,2856,2025-02-17 11:29:50,0.0
-14368,-1852,-3764,16541,-3691,2631,2025-02-17 11:29:50,0.0
-13956,-2148,-3664,14454,-2303,2668,2025-02-17 11:29:50,0.0
-14888,-2008,-3220,12694,911,3891,2025-02-17 11:29:50,0.0
-12928,-1196,3128,12859,4210,5798,2025-02-17 11:29:50,0.0
-10744,-376,7068,14640,4854,6971,2025-02-17 11:29:50,0.0
-8364,-268,6612,15638,4193,6581,2025-02-17 11:29:50,0.0
-8108,528,5400,14807,1239,5963,2025-02-17 11:29:50,0.0
-4768,1100,2472,13164,-4756,6471,2025-02-17 11:29:50,0.0
220,220,2792,14068,-12915,6795,2025-02-17 11:29:50,0.0
5300,-684,2644,17010,-18319,3488,2025-02-17 11:29:50,0.0
2408,-1396,2812,17936,-20645,2367,2025-02-17 11:29:50,
1660,-1260,2196,18420,-22202,3043,2025-02-17 11:29:50,0.0
1672,-1396,1916,18552,-22403,3512,2025-02-17 11:29:50,0.0
1768,-1212,1676,18757,-22447,3856,2025-02-17 11:29:50,0.0
1852,-1200,1876,18891,-22406,3850,2025-02-17 11:29:50,0.0
1976,-1192,1764,18966,-22662,3875,2025-02-17 11:29:50,0.0
2248,-1160,1552,18985,-22875,3559,2025-02-17 11:29:50,0.0
2232,-1168,1580,18881,-23093,3085,2025-02-17 11:29:50,0.0
2272,-996,1600,18724,-23227,2395,2025-02-17 11:29:50,0.0
2580,-1100,1488,18528,-23391,1505,2025-02-17 11:29:50,0.0
2808,-1088,1288,18061,-23763,380,2025-02-17 11:29:50,0.0
3020,-1036,1448,17258,-24557,-1203,2025-02-17 11:29:50,0.0
3064,-1016,1224,16208,-25647,-2870,2025-02-17 11:29:50,0.0
2736,-1024,1556,14842,-26629,-4495,2025-02-17 11:29:50,0.0
2668,-976,1500,14091,-27223,-5604,2025-02-17 11:29:51,0.0
2656,-1028,1540,13186,-27608,-6496,2025-02-17 11:29:51,0.0
2572,-1100,1740,12158,-27998,-7315,2025-02-17 11:29:51,0.0
2480,-984,1592,10898,-28466,-8007,2025-02-17 11:29:51,0.0
2840,-936,1396,9176,-29157,-8786,2025-02-17 11:29:51,0.0
2840,-832,292,6846,-30204,-9592,2025-02-17 11:29:51,0.0
4292,-360,-316,3129,-31672,-11108,2025-02-17 11:29:51,0.0
32767,16068,-21100,-29241,-32768,-32768,2025-02-17 11:29:51,0.0
-16668,-30276,23364,-32768,-32768,-32768,2025-02-17 11:29:51,0.0
-32768,-18640,32767,-31833,-32768,-366,2025-02-17 11:29:51,0.0
17600,-32716,32767,-12039,-32768,19639,2025-02-17 11:29:51,0.0
21376,-13644,21420,-9037,-32768,5798,2025-02-17 11:29:51,0.0
10292,-8348,6424,-6496,-32768,-1554,2025-02-17 11:29:51,0.0
5384,-8392,-188,-8713,-32768,-3328,2025-02-17 11:29:51,0.0
-48,-9432,-1124,-11769,-32768,-1941,2025-02-17 11:29:51,0.0
-2160,-12716,76,-13054,-32768,1540,2025-02-17 11:29:51,0.0
3252,-9608,1880,-11059,-29290,1608,2025-02-17 11:29:51,0.0
11280,-7128,2088,-9143,-10044,-3958,2025-02-17 11:29:51,0.0
12136,-4768,4352,-5751,2564,-11891,2025-02-17 11:29:51,0.0
13744,-3456,7784,-185,9919,-17890,2025-02-17 11:29:51,0.0
15796,-3076,10344,7618,13660,-22051,2025-02-17 11:29:51,0.0
18460,-3388,8268,14254,12871,-22247,2025-02-17 11:29:51,0.0
19692,-3112,7288,15574,22316,-20361,2025-02-17 11:29:51,0.0
23312,-2080,7040,10963,32767,-20476,2025-02-17 11:29:51,0.0
23816,188,13656,6735,32767,-20037,2025-02-17 11:29:51,0.0
19188,2148,16436,4322,32767,-15782,2025-02-17 11:29:51,0.0
11412,3328,17076,2538,32767,-8397,2025-02-17 11:29:51,0.0
7916,3496,16288,864,28605,-636,2025-02-17 11:29:51,0.0
8712,1588,15352,-68,24056,2680,2025-02-17 11:29:51,0.0
9236,-56,16196,-1830,15044,2147,2025-02-17 11:29:51,0.0
7276,-472,19420,-2358,6156,606,2025-02-17 11:29:51,0.0
6836,-776,19960,-1073,-2841,-361,2025-02-17 11:29:51,0.0
8460,-700,17672,-36,-8198,181,2025-02-17 11:29:51,0.0
10436,244,16196,-361,-9433,750,2025-02-17 11:29:51,0.0
12788,336,15152,-648,-8085,1125,2025-02-17 11:29:51,0.0
13384,-264,14452,-826,-5784,1139,2025-02-17 11:29:51,0.0
13912,-768,14136,-764,-2525,668,2025-02-17 11:29:51,0.0
13488,-1100,14476,-361,1007,12,2025-02-17 11:29:51,0.0
12760,-692,15456,346,3658,-356,2025-02-17 11:29:51,0.0
11688,-60,15548,265,4475,-403,2025-02-17 11:29:51,0.0
11000,80,16208,-9,3503,-190,2025-02-17 11:29:51,0.0
10640,-156,16532,-302,1733,-72,2025-02-17 11:29:51,0.0
10748,-432,16788,-254,-188,-78,2025-02-17 11:29:51,0.0
11364,-356,16048,-198,-1457,-206,2025-02-17 11:29:51,0.0
11936,-256,15524,-155,-1128,-203,2025-02-17 11:29:51,0.0
12164,-304,15280,-171,-167,-182,2025-02-17 11:29:51,0.0
11864,-280,15280,-174,759,-144,2025-02-17 11:29:51,0.0
11564,-296,15880,-159,1018,-163,2025-02-17 11:29:51,0.0
11296,-352,16012,-193,642,-162,2025-02-17 11:29:51,0.0
11340,-396,16100,-146,57,-196,2025-02-17 11:29:51,0.0
11540,-200,15804,-133,-303,-184,2025-02-17 11:29:51,0.0
11664,-328,15504,-230,-191,-181,2025-02-17 11:29:51,0.0
11776,-332,15436,-219,180,-143,2025-02-17 11:29:51,0.0
11728,-260,15796,-148,442,-133,2025-02-17 11:29:51,0.0
11428,-216,16024,-146,425,-172,2025-02-17 11:29:51,0.0
11464,-208,15720,-191,80,-154,2025-02-17 11:29:51,0.0
11552,-328,15676,-139,-13,-185,2025-02-17 11:29:51,0.0
11764,-328,15732,-164,130,-164,2025-02-17 11:29:51,0.0
11596,-248,15876,-186,292,-180,2025-02-17 11:29:51,0.0
11648,-288,15812,-152,245,-172,2025-02-17 11:29:51,0.0
11560,-280,15864,-133,170,-169,2025-02-17 11:29:51,0.0
11612,-356,15852,-140,87,-167,2025-02-17 11:29:51,0.0
11692,-260,15760,-164,98,-179,2025-02-17 11:29:51,0.0
11532,-300,15744,-171,202,-181,2025-02-17 11:29:51,0.0
11708,-356,15800,-156,199,-168,2025-02-17 11:29:51,0.0
11672,-240,15696,-166,152,-185,2025-02-17 11:29:51,0.0
11596,-296,15880,-178,155,-148,2025-02-17 11:29:52,0.0
11420,-320,15644,-205,179,-145,2025-02-17 11:29:52,0.0
11556,-288,15996,-158,258,-172,2025-02-17 11:29:52,0.0
11408,-544,15972,-193,304,-128,2025-02-17 11:29:52,0.0
11740,-264,15776,-9,-8,-327,2025-02-17 11:29:52,0.0
11364,76,15468,-201,52,-164,2025-02-17 11:29:52,0.0
11604,-468,15748,-275,235,-25,2025-02-17 11:29:52,0.0
11800,-580,16200,-119,315,-159,2025-02-17 11:29:52,0.0
11428,-208,15740,37,150,-336,2025-02-17 11:29:52,0.0
11820,-392,16056,-248,148,-139,2025-02-17 11:29:52,0.0
11600,-324,15748,-134,235,-220,2025-02-17 11:29:52,0.0
11632,-248,15760,-191,280,-150,2025-02-17 11:29:52,0.0
11544,-340,16092,-157,194,-211,2025-02-17 11:29:52,0.0
11496,-168,15616,-88,53,-246,2025-02-17 11:29:52,0.0
11584,-192,15548,-216,108,-136,2025-02-17 11:29:52,0.0
11684,-396,15856,-193,293,-128,2025-02-17 11:29:52,0.0
11448,-280,16016,-122,255,-223,2025-02-17 11:29:52,0.0
11492,-268,15880,-187,162,-160,2025-02-17 11:29:52,0.0
11560,-344,15936,-176,63,-167,2025-02-17 11:29:52,0.0
11652,-236,15656,-160,150,-185,2025-02-17 11:29:52,0.0
11684,-368,15828,-147,239,-172,2025-02-17 11:29:52,
11496,-208,15840,-156,205,-171,2025-02-17 11:29:52,0.0
11592,-364,15820,-175,167,-167,2025-02-17 11:29:52,0.0
11628,-344,15776,-170,121,-171,2025-02-17 11:29:52,0.0
11576,-344,15740,-135,146,-198,2025-02-17 11:29:52,0.0
11656,-356,15780,-144,171,-194,2025-02-17 11:29:52,0.0
11604,-220,15788,-179,177,-177,2025-02-17 11:29:52,0.0
11576,-212,15740,-180,185,-164,2025-02-17 11:29:52,0.0
11600,-308,15836,-151,158,-172,2025-02-17 11:29:52,0.0
11568,-300,15812,-152,174,-176,2025-02-17 11:29:52,0.0
11692,-236,15852,-190,171,-174,2025-02-17 11:29:52,0.0
11556,-412,15700,-151,164,-151,2025-02-17 11:29:52,0.0
11580,-216,15820,-153,180,-165,2025-02-17 11:29:52,0.0
11524,-360,15808,-150,154,-167,2025-02-17 11:29:52,0.0
11648,-320,15780,-147,140,-170,2025-02-17 11:29:52,0.0
11568,-296,15848,-166,173,-194,2025-02-17 11:29:52,0.0
11640,-268,15800,-194,193,-165,2025-02-17 11:29:52,0.0
11536,-380,15844,-169,175,-177,2025-02-17 11:29:52,0.0
11536,-300,15664,-180,137,-186,2025-02-17 11:29:52,0.0
11540,-268,15816,-162,153,-161,2025-02-17 11:29:52,0.0
11576,-288,15920,-129,191,-190,2025-02-17 11:29:52,0.0
11672,-292,15716,-167,194,-189,2025-02-17 11:29:52,0.0
11516,-204,15808,-201,111,-152,2025-02-17 11:29:52,0.0
11684,-284,15752,-229,103,-155,2025-02-17 11:29:52,0.0
11636,-300,15612,-205,59,-189,2025-02-17 11:29:52,0.0
10296,356,15428,-363,-270,440,2025-02-17 11:29:52,0.0
10836,4,16344,-779,-1989,1066,2025-02-17 11:29:52,0.0
11176,-164,16132,-743,-2777,1312,2025-02-17 11:29:52,0.0
12472,-1192,15552,-377,-2663,926,2025-02-17 11:29:52,0.0
13304,-1120,15568,-211,-2286,109,2025-02-17 11:29:52,0.0
12076,-276,14328,-83,-459,105,2025-02-17 11:29:52,0.0
12088,-4,14084,-262,1303,360,2025-02-17 11:29:52,0.0
12596,-400,15168,-655,2242,552,2025-02-17 11:29:52,0.0
12712,-820,16200,-641,2241,264,2025-02-17 11:29:52,0.0
13040,-836,15040,-943,2445,-188,2025-02-17 11:29:52,0.0
12508,-908,15276,-1518,4285,-889,2025-02-17 11:29:52,0.0
10276,-332,16056,-460,5247,651,2025-02-17 11:29:52,0.0
11648,-1144,15060,119,5262,401,2025-02-17 11:29:52,0.0
11620,-1204,16356,-183,5021,-656,2025-02-17 11:29:53,0.0
8924,-332,18120,438,4647,461,2025-02-17 11:29:53,0.0
10072,-16,17120,602,1942,1472,2025-02-17 11:29:53,0.0
11964,-1236,18088,923,2315,148,2025-02-17 11:29:53,0.0
12476,-2488,20212,4764,3473,-2387,2025-02-17 11:29:53,0.0
10112,-2112,23524,8624,5185,-3315,2025-02-17 11:29:53,0.0
7212,-72,24768,11676,7921,-3282,2025-02-17 11:29:53,0.0
7144,1900,23760,11104,14414,2531,2025-02-17 11:29:53,0.0
13444,840,25924,11365,14678,3205,2025-02-17 11:29:53,0.0
14200,1276,26100,12017,6590,1058,2025-02-17 11:29:53,0.0
12888,2864,26440,12841,2787,-1461,2025-02-17 11:29:53,0.0
9900,4420,25808,13587,2654,-1133,2025-02-17 11:29:53,0.0
4612,3184,23768,9484,3133,3103,2025-02-17 11:29:53,0.0
5704,2624,26436,8367,3752,4877,2025-02-17 11:29:53,0.0
8020,3700,21844,9401,3794,4476,2025-02-17 11:29:53,0.0
9688,4160,20260,8437,9079,214,2025-02-17 11:29:53,0.0
7668,4148,21164,7136,14034,-4013,2025-02-17 11:29:53,0.0
3972,5532,19564,3630,18224,-791,2025-02-17 11:29:53,0.0
4512,4400,20148,1497,21608,3883,2025-02-17 11:29:53,0.0
6180,4180,19696,1281,29467,6123,2025-02-17 11:29:53,0.0
7512,4764,24504,2143,29046,7202,2025-02-17 11:29:53,0.0
6944,5856,26616,5612,27957,5690,2025-02-17 11:29:53,0.0
5856,2788,22912,5539,30364,5722,2025-02-17 11:29:53,0.0
6092,-332,21368,2906,29097,7813,2025-02-17 11:29:53,0.0
5448,432,27776,5887,23250,9994,2025-02-17 11:29:53,0.0
6216,1388,23444,5146,21181,6188,2025-02-17 11:29:53,0.0
768,2048,23876,6868,20193,5594,2025-02-17 11:29:53,0.0
-2748,672,20816,7884,23394,8532,2025-02-17 11:29:53,0.0
3708,4436,16424,7298,25123,7150,2025-02-17 11:29:53,0.0
-1656,4448,12872,3636,15217,705,2025-02-17 11:29:53,0.0
-5924,7664,16368,2546,12389,896,2025-02-17 11:29:53,0.0
-4120,4388,18140,4135,15220,657,2025-02-17 11:29:53,0.0
-724,4480,18920,6656,11534,-435,2025-02-17 11:29:53,0.0
-1616,4984,20388,9008,4440,-3008,2025-02-17 11:29:53,0.0
-7348,4168,15808,8740,4504,-3471,2025-02-17 11:29:53,0.0
-8012,5424,16872,8756,11244,-1611,2025-02-17 11:29:53,0.0
-2948,7464,17684,8694,13375,-1494,2025-02-17 11:29:53,0.0
-2524,9328,18104,7526,7900,-1897,2025-02-17 11:29:53,0.0
-4280,8724,16800,7128,10836,-1945,2025-02-17 11:29:53,0.0
-4924,7108,15168,6205,16365,-3055,2025-02-17 11:29:53,0.0
-5472,6012,16104,5142,19794,-5146,2025-02-17 11:29:53,0.0
-4828,6692,13300,4080,18712,-6075,2025-02-17 11:29:53,0.0
-6360,7692,11228,1943,12675,-5474,2025-02-17 11:29:53,0.0
-8692,6748,11524,2162,13791,-6764,2025-02-17 11:29:53,0.0
-8400,8176,11736,-1271,11965,-5269,2025-02-17 11:29:53,0.0
-6928,7324,11580,-3820,7749,-4260,2025-02-17 11:29:53,0.0
-7016,6524,10796,-5307,4348,-4026,2025-02-17 11:29:53,0.0
-6936,5616,8860,-7000,3579,-4593,2025-02-17 11:29:53,0.0
-6840,5388,8892,-8710,3801,-5120,2025-02-17 11:29:53,0.0
-7360,6612,11784,-9503,4702,-6793,2025-02-17 11:29:53,0.0
-4996,5484,9360,-9549,4085,-7412,2025-02-17 11:29:53,0.0
-6296,2728,9452,-10856,2964,-8612,2025-02-17 11:29:53,0.0
-5784,2808,8192,-13206,3314,-8562,2025-02-17 11:29:53,0.0
-4464,1808,8168,-15362,4796,-8091,2025-02-17 11:29:53,0.0
-3304,2556,9664,-13761,8508,-7005,2025-02-17 11:29:53,0.0
-728,1612,7188,-9544,6647,-7671,2025-02-17 11:29:53,0.0
-3836,2696,7860,-8372,5649,-8942,2025-02-17 11:29:53,0.0
-5184,3088,7728,-7301,6533,-8866,2025-02-17 11:29:53,0.0
-4720,3392,6576,-6697,4160,-7772,2025-02-17 11:29:53,0.0
-3752,4060,7584,-7880,905,-5629,2025-02-17 11:29:53,0.0
-2320,3680,10128,-8020,-2146,-2093,2025-02-17 11:29:53,0.0
-1204,1408,11488,-7155,-5383,762,2025-02-17 11:29:54,0.0
-2648,1200,11336,-8456,-3557,-776,2025-02-17 11:29:54,
-3712,2660,10112,-8208,-2836,1671,2025-02-17 11:29:54,0.0
-3340,3312,7348,-8379,4350,1783,2025-02-17 11:29:54,0.0
-2256,1992,8164,-4972,13353,373,2025-02-17 11:29:54,0.0
-2988,-1860,2464,-3130,18038,-1120,2025-02-17 11:29:54,0.0
-6060,-1160,5408,-1572,18741,-2234,2025-02-17 11:29:54,0.0
-9196,488,9212,-620,19031,-2173,2025-02-17 11:29:54,0.0
-8300,364,7084,100,18289,-1896,2025-02-17 11:29:54,0.0
-8692,-224,8208,-57,16520,-1878,2025-02-17 11:29:54,0.0
-11924,-692,10140,2843,14186,170,2025-02-17 11:29:54,0.0
-12208,-1088,8784,5328,8710,2609,2025-02-17 11:29:54,0.0
-10728,-1872,5304,5577,1661,3183,2025-02-17 11:29:54,0.0
-11020,-2336,5712,361,-5217,1895,2025-02-17 11:29:54,0.0
-9828,-5016,8064,-4813,-8957,337,2025-02-17 11:29:54,0.0
-8056,-3260,10420,-7651,-9295,-3034,2025-02-17 11:29:54,0.0
-10404,344,11280,-7457,-6613,-3790,2025-02-17 11:29:54,0.0
-13260,-580,10268,-6787,544,-3152,2025-02-17 11:29:54,0.0
-14104,-1232,9088,-6397,9943,-2023,2025-02-17 11:29:54,0.0
-17404,-668,8040,-6417,20716,-359,2025-02-17 11:29:54,0.0
-19072,1204,10304,-5177,30263,2034,2025-02-17 11:29:54,0.0
-17776,3936,12520,-388,32767,3820,2025-02-17 11:29:54,0.0
-15280,4248,7948,3295,30727,4028,2025-02-17 11:29:54,0.0
-13196,528,6420,3158,24316,2287,2025-02-17 11:29:54,0.0
-12576,-924,6132,2605,16374,1444,2025-02-17 11:29:54,0.0
-14428,1956,8216,982,13130,370,2025-02-17 11:29:54,0.0
-10440,1316,13752,2660,10774,-1532,2025-02-17 11:29:54,0.0
-13940,2592,2592,3516,2961,-716,2025-02-17 11:29:54,0.0
-13480,564,228,3104,135,-1044,2025-02-17 11:29:54,0.0
-14536,-740,1632,2401,2717,-759,2025-02-17 11:29:54,0.0
-12576,-3188,3992,2670,5339,-1333,2025-02-17 11:29:54,0.0
-14680,-736,4884,4812,3873,-1442,2025-02-17 11:29:54,0.0
-15104,228,16,4196,2107,-500,2025-02-17 11:29:54,0.0
-13948,232,1164,2816,1688,-661,2025-02-17 11:29:54,0.0
-12832,-368,2128,2884,1441,-1704,2025-02-17 11:29:54,0.0
-15612,520,-492,2924,2586,-995,2025-02-17 11:29:54,0.0
-13744,1316,-392,808,3610,622,2025-02-17 11:29:54,0.0
-12568,136,1848,-66,3825,-84,2025-02-17 11:29:54,0.0
-12728,-852,3048,1923,3237,-549,2025-02-17 11:29:54,0.0
-13008,-1172,1428,3486,3646,-1006,2025-02-17 11:29:54,0.0
-13012,-856,684,3116,4102,-1195,2025-02-17 11:29:54,0.0
-11748,-1596,588,2776,3888,-2153,2025-02-17 11:29:54,0.0
-13300,-1804,1044,2273,3906,-3755,2025-02-17 11:29:54,0.0
-14676,-2440,1316,2465,4224,-2699,2025-02-17 11:29:54,0.0
-11748,-2896,968,3107,5581,-2412,2025-02-17 11:29:54,0.0
-10872,-2596,-412,2515,6215,-4928,2025-02-17 11:29:54,0.0
-14732,-2456,328,2408,7668,-4339,2025-02-17 11:29:54,0.0
-15936,-3600,1144,2862,8133,-1951,2025-02-17 11:29:54,0.0
-13948,-4420,692,5172,7634,-325,2025-02-17 11:29:54,0.0
-14284,-3648,252,6383,6917,29,2025-02-17 11:29:54,0.0
-15092,-2664,-1448,6221,8585,1472,2025-02-17 11:29:54,0.0
-13456,-2344,12,6146,8567,921,2025-02-17 11:29:54,0.0
-14244,-2964,692,7191,7595,-127,2025-02-17 11:29:54,0.0
-15332,-2848,-788,6310,7046,527,2025-02-17 11:29:54,0.0
-14368,-3276,-68,6664,5955,508,2025-02-17 11:29:54,0.0
-13912,-2524,-664,8039,5628,632,2025-02-17 11:29:54,0.0
-11940,-3004,3736,11049,5881,10,2025-02-17 11:29:54,0.0
-13124,-528,-5612,9287,5817,1401,2025-02-17 11:29:54,0.0
-12508,-1616,112,7688,7456,-94,2025-02-17 11:29:54,0.0
-13784,-3484,2144,11897,8901,-65,2025-02-17 11:29:54,0.0
-14544,-4572,-1692,14613,8552,1760,2025-02-17 11:29:55,0.0
-15420,-4352,-3580,14699,7239,3928,2025-02-17 11:29:55,0.0
-14852,-2612,-2140,14045,5576,5492,2025-02-17 11:29:55,0.0
-13264,-1104,-1596,13765,4199,5409,2025-02-17 11:29:55,0.0
-12312,-428,-2392,13986,3589,4744,2025-02-17 11:29:55,0.0
-12276,204,-3040,14126,4494,4413,2025-02-17 11:29:55,0.0
-13088,148,-3868,14138,5656,4986,2025-02-17 11:29:55,0.0
-13616,336,-3744,14286,5777,5808,2025-02-17 11:29:55,0.0
-14436,-308,-2432,14868,5918,8152,2025-02-17 11:29:55,0.0
-10968,388,-3924,12321,4071,4132,2025-02-17 11:29:55,0.0
-12920,-2100,-760,11290,286,2645,2025-02-17 11:29:55,0.0
-13496,-4076,-1680,11405,-1556,2325,2025-02-17 11:29:55,0.0
-12608,-4020,-2788,10339,-884,2392,2025-02-17 11:29:55,0.0
-11992,-3012,-3720,9689,1058,2578,2025-02-17 11:29:55,0.0
-11232,-1496,-3968,9040,2590,2638,2025-02-17 11:29:55,0.0
-12736,68,-768,9571,2537,3149,2025-02-17 11:29:55,0.0
-12788,-336,-1668,9212,2818,3161,2025-02-17 11:29:55,0.0
-13784,140,-3496,8086,2714,2843,2025-02-17 11:29:55,0.0
-13268,48,-2904,6256,594,1531,2025-02-17 11:29:55,0.0
-13464,-1364,-780,6618,-3191,548,2025-02-17 11:29:55,0.0
-13660,-3384,-232,7258,-7013,-63,2025-02-17 11:29:55,0.0
-13944,-4840,-2216,5836,-6567,4,2025-02-17 11:29:55,0.0
-14000,-3988,-3112,3420,-3486,856,2025-02-17 11:29:55,0.0
-11696,-2268,-568,2955,-2016,319,2025-02-17 11:29:55,0.0
-13584,-1852,-684,2813,-1427,474,2025-02-17 11:29:55,0.0
-13284,-3520,2976,3159,-853,513,2025-02-17 11:29:55,0.0
-13644,-3140,-1452,3472,-1011,27,2025-02-17 11:29:55,0.0
-14108,-2372,-5016,3082,-1164,-791,2025-02-17 11:29:55,0.0
-15460,-2740,-6204,2241,2446,-1390,2025-02-17 11:29:55,0.0
-15996,-4304,-6908,1494,4136,-2066,2025-02-17 11:29:55,0.0
-17356,-5112,-5536,1018,5124,-2027,2025-02-17 11:29:55,0.0
-18368,-5208,-5836,-148,6132,-981,2025-02-17 11:29:55,0.0
-18252,-4828,-6376,-1144,7340,322,2025-02-17 11:29:55,0.0
-17720,-3844,-6520,-906,5161,1804,2025-02-17 11:29:55,0.0
-16696,-3288,-6556,474,480,3492,2025-02-17 11:29:55,0.0
-15108,-2988,-6924,2065,-3539,4435,2025-02-17 11:29:55,0.0
-13576,-1684,-6996,2764,-5841,4822,2025-02-17 11:29:55,0.0
-10748,-52,-6008,2854,-6872,4035,2025-02-17 11:29:55,0.0
-9948,1076,-5540,1979,-6340,2967,2025-02-17 11:29:55,0.0
-10084,1420,-5680,343,-4717,2353,2025-02-17 11:29:55,0.0
-10856,956,-5192,-821,-2165,2780,2025-02-17 11:29:55,0.0
-11260,-36,-4092,-232,874,2697,2025-02-17 11:29:55,
-11140,-276,-5028,1489,3165,3430,2025-02-17 11:29:55,0.0
-11148,316,-6008,1600,6110,2852,2025-02-17 11:29:55,0.0
-11440,908,-4268,2519,7811,2874,2025-02-17 11:29:55,0.0
-12708,796,-3908,3101,7805,2963,2025-02-17 11:29:55,0.0
-14228,116,-3536,2904,6740,3679,2025-02-17 11:29:55,0.0
-14344,-456,-3616,3333,4897,3914,2025-02-17 11:29:55,0.0
-15076,-1144,-4172,4010,562,4439,2025-02-17 11:29:55,0.0
-32768,-19008,-29564,-185,-2003,11407,2025-02-17 11:29:55,0.0
-14184,-2132,-7940,5048,-7947,6909,2025-02-17 11:29:55,0.0
-8904,1716,-2052,4761,-10890,6388,2025-02-17 11:29:55,0.0
-8012,1920,-3260,4629,-12689,5199,2025-02-17 11:29:55,0.0
-7172,1136,-2060,4493,-9849,3583,2025-02-17 11:29:55,0.0
-9752,1324,-1776,4302,-4650,2484,2025-02-17 11:29:55,0.0
-10108,1156,-2452,2941,1688,2704,2025-02-17 11:29:55,0.0
-10116,640,-1976,2645,1670,1495,2025-02-17 11:29:55,0.0
-11204,628,-1728,2388,-6,274,2025-02-17 11:29:55,0.0
-11944,124,-1148,2263,-797,-305,2025-02-17 11:29:55,0.0
-12068,124,-344,1853,-1183,-596,2025-02-17 11:29:55,0.0
-12620,1080,-748,1574,-1059,-658,2025-02-17 11:29:55,0.0
-13052,1668,-1628,873,-1154,-663,2025-02-17 11:29:55,0.0
-13416,2052,-1728,1109,-1354,-1006,2025-02-17 11:29:55,0.0
-14204,1820,-1512,1559,-1490,-805,2025-02-17 11:29:56,0.0
-14360,-24,-2148,1855,-1274,-82,2025-02-17 11:29:56,0.0
-14208,-52,-1956,2226,1,654,2025-02-17 11:29:56,0.0
-14132,544,-1424,2506,1024,1037,2025-02-17 11:29:56,0.0
-14356,252,-644,2797,1221,1325,2025-02-17 11:29:56,0.0
-15040,-840,52,3222,305,1830,2025-02-17 11:29:56,0.0
-16168,-1172,-864,3195,-1106,3088,2025-02-17 11:29:56,0.0
-17436,-912,-2552,4004,-309,3585,2025-02-17 11:29:56,0.0
-16920,1828,-6340,3394,618,4088,2025-02-17 11:29:56,0.0
-15064,3308,-5964,2708,1261,4191,2025-02-17 11:29:56,0.0
-13956,3192,-5444,2890,2389,2476,2025-02-17 11:29:56,0.0
-16356,4616,-6560,2855,4381,1372,2025-02-17 11:29:56,0.0
-16584,3768,-5628,2508,4092,1796,2025-02-17 11:29:56,0.0
-13844,2040,-5104,3274,102,1128,2025-02-17 11:29:56,0.0
-12040,-788,-5280,3784,-3806,339,2025-02-17 11:29:56,0.0
-10520,-1512,-4844,3908,-4569,83,2025-02-17 11:29:56,0.0
-8848,-1832,-6728,3127,-5372,-1275,2025-02-17 11:29:56,0.0
-9616,-1368,-7044,1325,-4836,-2253,2025-02-17 11:29:56,0.0
-10000,-708,-4852,190,-1844,-2852,2025-02-17 11:29:56,0.0
-11120,80,-3364,279,1773,-2800,2025-02-17 11:29:56,0.0
-11936,796,-3760,12,4066,-2334,2025-02-17 11:29:56,0.0
-12340,444,-3488,-95,5794,-2335,2025-02-17 11:29:56,0.0
-13340,-512,-3936,55,6496,-2553,2025-02-17 11:29:56,0.0
-13804,-1320,-3476,506,5349,-2154,2025-02-17 11:29:56,0.0
-14384,-1640,-3364,668,2080,-1133,2025-02-17 11:29:56,0.0
-13624,-1388,-4568,575,-381,-252,2025-02-17 11:29:56,0.0
-13296,-1504,-5392,-160,-2041,184,2025-02-17 11:29:56,0.0
-12372,-1088,-4256,-507,-3672,229,2025-02-17 11:29:56,0.0
-12128,-364,-3040,-353,-4523,398,2025-02-17 11:29:56,0.0
-11120,-400,-1936,99,-5247,502,2025-02-17 11:29:56,0.0
-10300,-884,-2224,-144,-5294,-36,2025-02-17 11:29:56,0.0
-9316,-1060,-2828,-879,-4148,-783,2025-02-17 11:29:56,0.0
-9952,-1424,-2240,-1047,-1216,-900,2025-02-17 11:29:56,0.0
-10644,-1700,-1604,-836,2413,-445,2025-02-17 11:29:56,0.0
-11484,-736,-1668,-562,4868,359,2025-02-17 11:29:56,0.0
-12048,-40,-1716,-288,5075,700,2025-02-17 11:29:56,0.0
-12356,340,-2256,-495,3969,590,2025-02-17 11:29:56,0.0
-12732,64,-2584,-680,2852,260,2025-02-17 11:29:56,0.0
-13336,-340,-2880,-686,2410,293,2025-02-17 11:29:56,0.0
-13388,-528,-2596,-125,3128,10,2025-02-17 11:29:56,0.0
-13544,-164,-3264,99,3524,-550,2025-02-17 11:29:56,0.0
-12920,192,-1900,349,2479,-1596,2025-02-17 11:29:56,0.0
-12948,972,-1740,1061,345,-3263,2025-02-17 11:29:56,0.0
-13868,1108,-5128,-371,-1474,-4048,2025-02-17 11:29:56,0.0
-13400,456,-4380,-2314,-3536,-4488,2025-02-17 11:29:56,0.0
-13152,-752,-1936,-3168,-5868,-5025,2025-02-17 11:29:56,0.0
-13780,-1664,-2672,-3350,-6065,-5098,2025-02-17 11:29:56,0.0
-14492,-1416,-4008,-3647,-3321,-4872,2025-02-17 11:29:56,0.0
-13860,-1684,-4288,-3870,-1504,-5234,2025-02-17 11:29:56,0.0
-14120,-3504,-5288,-4228,-1053,-5576,2025-02-17 11:29:56,0.0
-14992,-4388,-6172,-4272,949,-4829,2025-02-17 11:29:56,0.0
-15332,-3988,-8200,-4550,6414,-3523,2025-02-17 11:29:56,0.0
-15644,-3012,-6884,-4521,10353,-3035,2025-02-17 11:29:56,0.0
-14760,-2412,-6860,-4558,10979,-2841,2025-02-17 11:29:56,0.0
-15212,-2012,-5700,-4784,10426,-1854,2025-02-17 11:29:56,0.0
-13656,-1456,-5880,-3967,9239,209,2025-02-17 11:29:56,0.0
-11700,-112,-6556,-2835,7329,1744,2025-02-17 11:29:56,0.0
-10276,908,-7388,-1859,4811,2101,2025-02-17 11:29:56,0.0
-10636,1424,-7268,-1344,1907,1544,2025-02-17 11:29:56,0.0
-11780,444,-7732,-1226,-354,993,2025-02-17 11:29:56,0.0
-13208,-560,-7520,-1751,180,624,2025-02-17 11:29:56,0.0
-13592,-1148,-6832,-2336,1119,457,2025-02-17 11:29:57,0.0
-14136,-1544,-6688,-2379,883,894,2025-02-17 11:29:57,0.0
-13988,-1136,-6564,-1867,-655,2171,2025-02-17 11:29:57,0.0
-12344,-116,-6340,-968,-3037,2688,2025-02-17 11:29:57,0.0
-10516,964,-7544,-837,-5963,1853,2025-02-17 11:29:57,0.0
-10160,1432,-7484,-1327,-8659,784,2025-02-17 11:29:57,0.0
-11892,1548,-3776,-2182,-6262,394,2025-02-17 11:29:57,0.0
-11280,572,-3112,-1338,-84,934,2025-02-17 11:29:57,0.0
-11228,108,-3800,-470,2501,1455,2025-02-17 11:29:57,0.0
-11676,-100,-4096,-64,2510,1545,2025-02-17 11:29:57,0.0
-12516,-540,-3548,190,1653,1446,2025-02-17 11:29:57,0.0
-12920,-680,-3140,373,125,1236,2025-02-17 11:29:57,0.0
-12208,-524,-2776,441,-2937,734,2025-02-17 11:29:57,0.0
-11204,-968,-1016,1327,-5713,82,2025-02-17 11:29:57,0.0
-10216,-1844,-428,2982,-7223,-624,2025-02-17 11:29:57,0.0
-9440,-1416,-1980,4111,-7375,-1099,2025-02-17 11:29:57,0.0
-9484,832,-6200,4193,-5466,-1677,2025-02-17 11:29:57,0.0
-10460,1444,-8428,3067,-1404,-2357,2025-02-17 11:29:57,
-13300,-272,-7736,2236,4584,-2638,2025-02-17 11:29:57,0.0
-15940,-1932,-5212,2500,7702,-1755,2025-02-17 11:29:57,0.0
-17052,-3012,-3988,3008,5486,-151,2025-02-17 11:29:57,0.0
-16568,-2844,-3856,3292,196,1405,2025-02-17 11:29:57,0.0
-13020,-1968,-4376,3303,-3386,1561,2025-02-17 11:29:57,0.0
-11096,-1260,-4104,3812,-3279,966,2025-02-17 11:29:57,0.0
-10532,-1164,-4504,4041,-245,655,2025-02-17 11:29:57,0.0
-11800,-1560,-4036,4577,3005,1144,2025-02-17 11:29:57,0.0
-12068,-1712,-3676,5534,3823,1491,2025-02-17 11:29:57,0.0
-12700,-1452,-3432,6699,2423,1440,2025-02-17 11:29:57,0.0
-12800,-1844,-3932,7416,728,1292,2025-02-17 11:29:57,0.0
-12880,-2840,-4896,7663,6,1595,2025-02-17 11:29:57,0.0
-12560,-3328,-5388,7783,374,1877,2025-02-17 11:29:57,0.0
-12052,-3052,-4508,7889,1077,2223,2025-02-17 11:29:57,0.0
-12120,-2948,-3396,8468,2597,2437,2025-02-17 11:29:57,0.0
-12512,-3216,-3272,9169,3728,2685,2025-02-17 11:29:57,0.0
-12692,-3348,-4256,9567,3736,2663,2025-02-17 11:29:57,0.0
-12540,-3816,-4124,10318,2923,2632,2025-02-17 11:29:57,0.0
-11864,-3632,-5060,10638,2697,2869,2025-02-17 11:29:57,0.0
-10856,-3068,-5828,10684,3526,2912,2025-02-17 11:29:57,0.0
-10736,-1780,-6128,10873,4596,2463,2025-02-17 11:29:57,0.0
-12648,-92,-6100,11002,5773,2513,2025-02-17 11:29:57,0.0
-13740,-732,-4264,11793,5770,2981,2025-02-17 11:29:57,0.0
-13876,-3204,-3452,13095,4030,3858,2025-02-17 11:29:57,0.0
-13096,-6956,-3588,14872,2213,3712,2025-02-17 11:29:57,0.0
-15144,-7956,-4812,15732,1398,5241,2025-02-17 11:29:57,0.0
-11948,-7212,-6260,15178,-464,7188,2025-02-17 11:29:57,0.0
-11000,-3876,-6592,14679,-847,6448,2025-02-17 11:29:57,0.0
-11040,-668,-6916,14102,-586,6051,2025-02-17 11:29:57,0.0
-12096,2672,-6872,12236,-426,4259,2025-02-17 11:29:57,0.0
-13880,3532,-4628,12400,-242,3671,2025-02-17 11:29:57,0.0
-13940,2420,-4156,13387,-574,3759,2025-02-17 11:29:57,0.0
-13384,-212,-5212,14819,-902,3906,2025-02-17 11:29:57,0.0
-12768,-2672,-5376,15471,195,4488,2025-02-17 11:29:57,0.0
-12556,-4216,-4740,16101,1924,5769,2025-02-17 11:29:57,0.0
-12204,-4768,-3976,16545,3532,7026,2025-02-17 11:29:57,0.0
-13384,-3920,-3508,16766,4302,7841,2025-02-17 11:29:57,0.0
-14452,-2932,-4472,16934,2925,8386,2025-02-17 11:29:57,0.0
-14332,-1664,-5268,17774,-267,8871,2025-02-17 11:29:57,0.0
-12948,-660,-6064,18421,-1743,8462,2025-02-17 11:29:57,0.0
-11692,-176,-6180,18494,-1871,7792,2025-02-17 11:29:57,0.0
-10536,-504,-6316,18496,-966,7162,2025-02-17 11:29:57,0.0
-10200,-608,-5624,18521,279,6770,2025-02-17 11:29:57,0.0
-10720,-828,-5164,18986,994,6829,2025-02-17 11:29:58,0.0
-11860,-1108,-5596,19446,1483,7234,2025-02-17 11:29:58,0.0
-12168,-1904,-5304,19827,1641,7110,2025-02-17 11:29:58,0.0
-15080,-3248,-4748,20334,802,7690,2025-02-17 11:29:58,0.0
-11924,-1492,-5024,20851,-552,7512,2025-02-17 11:29:58,0.0
-12684,-1104,-5972,20191,-226,7010,2025-02-17 11:29:58,0.0
-11748,-1220,-5984,19756,311,6767,2025-02-17 11:29:58,0.0
-12156,-788,-6428,19089,806,6699,2025-02-17 11:29:58,0.0
-12008,-380,-4876,18986,357,6579,2025-02-17 11:29:58,0.0
-12240,-716,-4464,19401,-625,6295,2025-02-17 11:29:58,0.0
-12080,-1256,-4620,20018,-1124,6259,2025-02-17 11:29:58,0.0
-11776,-900,-5472,20148,-401,5842,2025-02-17 11:29:58,0.0
-11280,-24,-5244,20164,389,5477,2025-02-17 11:29:58,0.0
-10612,-56,-4688,20094,-832,4479,2025-02-17 11:29:58,0.0
-10560,-1496,-4220,20317,-1034,3793,2025-02-17 11:29:58,0.0
-10124,-2212,-4852,20900,233,3217,2025-02-17 11:29:58,0.0
-11032,-2720,-6240,21236,1864,3043,2025-02-17 11:29:58,0.0
-11848,-3548,-8492,20582,4645,3370,2025-02-17 11:29:58,0.0
-13028,-3168,-9400,19022,8594,3892,2025-02-17 11:29:58,0.0
-13380,-3192,-8368,17202,10493,4473,2025-02-17 11:29:58,0.0
-12872,-3768,-4680,16358,7352,4697,2025-02-17 11:29:58,0.0
-13756,-3856,-2972,17179,3660,4910,2025-02-17 11:29:58,0.0
-12556,-3984,-3644,18023,2131,5532,2025-02-17 11:29:58,0.0
-11440,-4292,-5832,18013,2195,5873,2025-02-17 11:29:58,0.0
-10820,-4328,-7276,17292,3005,6112,2025-02-17 11:29:58,0.0
-11188,-3480,-7200,16032,5253,6075,2025-02-17 11:29:58,0.0
-11952,-2564,-7200,15508,6379,5664,2025-02-17 11:29:58,0.0
-13608,-1916,-5436,15197,5675,5207,2025-02-17 11:29:58,0.0
-14328,-2192,-4224,15639,3220,5052,2025-02-17 11:29:58,0.0
-14304,-2768,-4344,15693,1188,5188,2025-02-17 11:29:58,0.0
-13036,-3504,-4524,15390,-17,5420,2025-02-17 11:29:58,0.0
-11736,-3656,-5036,14786,206,5748,2025-02-17 11:29:58,0.0
-11100,-3392,-4764,14657,688,5757,2025-02-17 11:29:58,0.0
-11316,-3052,-5016,13890,1762,5739,2025-02-17 11:29:58,0.0
-11960,-2696,-4712,12774,2328,5878,2025-02-17 11:29:58,0.0
-12080,-2464,-4756,11882,2460,6095,2025-02-17 11:29:58,0.0
-12156,-2288,-5116,10707,2305,5856,2025-02-17 11:29:58,0.0
-11980,-2332,-4008,9789,2341,5672,2025-02-17 11:29:58,0.0
-12004,-2792,-3672,10242,2190,5382,2025-02-17 11:29:58,0.0
-12540,-2988,-4272,10636,2456,5670,2025-02-17 11:29:58,0.0
-12396,-2764,-5416,10872,2472,5974,2025-02-17 11:29:58,0.0
-12380,-2260,-5788,10465,1995,5634,2025-02-17 11:29:58,0.0
-12196,-1664,-5552,9906,1546,4976,2025-02-17 11:29:58,0.0
-12288,-1448,-5428,9564,1335,4449,2025-02-17 11:29:58,0.0
-12140,-1756,-5712,9165,1401,4118,2025-02-17 11:29:58,0.0
-11664,-2796,-5276,9046,1931,3531,2025-02-17 11:29:58,0.0
-11808,-3836,-7192,9544,2842,2935,2025-02-17 11:29:58,0.0
-11756,-3856,-7992,9636,4731,2270,2025-02-17 11:29:58,0.0
-12940,-2808,-5844,9784,5711,1405,2025-02-17 11:29:58,0.0
-14140,-1332,-5248,9426,3816,2456,2025-02-17 11:29:58,0.0
-13020,-360,-4996,8159,478,3555,2025-02-17 11:29:58,0.0
-11752,384,-5256,7424,-470,3900,2025-02-17 11:29:58,0.0
-10868,64,-6000,6761,-503,3668,2025-02-17 11:29:58,0.0
-10768,-1036,-5144,6371,296,3442,2025-02-17 11:29:58,0.0
-10676,-1584,-4904,6399,1831,3027,2025-02-17 11:29:58,0.0
-11420,-1592,-5304,6831,3463,2417,2025-02-17 11:29:58,0.0
-12368,-1108,-5812,6544,3796,2185,2025-02-17 11:29:58,
-13164,-752,-5892,6072,3238,2189,2025-02-17 11:29:58,0.0
-13256,-304,-6120,5309,2258,2253,2025-02-17 11:29:58,0.0
-12904,212,-5788,4532,1412,2215,2025-02-17 11:29:58,0.0
-12284,172,-5392,4155,1046,2005,2025-02-17 11:29:58,0.0
-11784,-428,-5068,3883,1017,1348,2025-02-17 11:29:59,0.0
-11928,-1160,-5524,3628,881,984,2025-02-17 11:29:59,0.0
-12196,-1576,-5320,3540,789,740,2025-02-17 11:29:59,0.0
-12660,-1804,-5180,3422,783,648,2025-02-17 11:29:59,0.0
-12868,-2244,-4636,3274,798,539,2025-02-17 11:29:59,0.0
-13108,-2200,-4656,3194,343,530,2025-02-17 11:29:59,0.0
-13432,-1272,-4460,3218,-1184,690,2025-02-17 11:29:59,0.0
-12904,-364,-5312,2929,-1704,1053,2025-02-17 11:29:59,0.0
-12172,-628,-5336,2377,-1182,633,2025-02-17 11:29:59,0.0
-12556,-1108,-4448,2428,-692,143,2025-02-17 11:29:59,0.0
-13288,-1456,-4588,2476,-760,-244,2025-02-17 11:29:59,0.0
-13624,-1524,-4804,2087,-1814,-558,2025-02-17 11:29:59,0.0
-13096,-1232,-5088,1648,-3276,-881,2025-02-17 11:29:59,0.0
-12576,-916,-4688,1458,-3815,-712,2025-02-17 11:29:59,0.0
-11492,-848,-4872,1202,-3558,-528,2025-02-17 11:29:59,0.0
-10432,-1132,-4840,890,-2766,-442,2025-02-17 11:29:59,0.0
-10336,-1168,-5188,428,-815,-523,2025-02-17 11:29:59,0.0
-10996,-1472,-4148,322,428,-317,2025-02-17 11:29:59,0.0
-11652,-2212,-4036,-103,990,-76,2025-02-17 11:29:59,0.0
-12308,-2908,-4676,-704,1789,-301,2025-02-17 11:29:59,0.0
-13248,-3084,-4420,-1158,2432,-936,2025-02-17 11:29:59,0.0
-13812,-3036,-4324,-1665,2939,-1644,2025-02-17 11:29:59,0.0
-14312,-3096,-4020,-2176,2157,-2545,2025-02-17 11:29:59,0.0
-14300,-3516,-3892,-2476,766,-3156,2025-02-17 11:29:59,0.0
-13900,-3448,-3816,-2390,-253,-3249,2025-02-17 11:29:59,0.0
-13356,-3356,-4256,-2461,-947,-3283,2025-02-17 11:29:59,0.0
-12700,-3032,-3532,-2566,-1252,-3116,2025-02-17 11:29:59,0.0
-11740,-2904,-3752,-2533,-1448,-2925,2025-02-17 11:29:59,0.0
-11240,-2752,-3324,-2415,-1642,-2577,2025-02-17 11:29:59,0.0
-10436,-2764,-2964,-2201,-761,-2358,2025-02-17 11:29:59,0.0
-10308,-3008,-2988,-2035,237,-2239,2025-02-17 11:29:59,0.0
-10708,-2908,-2184,-1826,1626,-2199,2025-02-17 11:29:59,0.0
-11916,-3076,-2516,-1652,2660,-2052,2025-02-17 11:29:59,0.0
-13076,-3340,-1952,-1565,2489,-2047,2025-02-17 11:29:59,0.0
-13696,-3568,-2260,-1615,1344,-1924,2025-02-17 11:29:59,0.0
-13516,-3248,-2064,-1744,-88,-1721,2025-02-17 11:29:59,0.0
-12504,-2960,-2688,-2137,-333,-1553,2025-02-17 11:29:59,0.0
-12072,-2440,-2656,-2457,-66,-1699,2025-02-17 11:29:59,0.0
-11568,-2048,-3052,-2990,1068,-1748,2025-02-17 11:29:59,0.0
-11496,-1616,-2380,-3420,1508,-1649,2025-02-17 11:29:59,0.0
-11816,-1992,-3164,-3901,2219,-1488,2025-02-17 11:29:59,0.0
-12616,-2888,-3716,-4473,3243,-1665,2025-02-17 11:29:59,0.0
-13748,-3668,-3088,-4878,2782,-2220,2025-02-17 11:29:59,0.0
-14688,-4332,-2392,-4851,1182,-2179,2025-02-17 11:29:59,0.0
-14320,-4572,-1688,-4543,-730,-1897,2025-02-17 11:29:59,0.0
-13472,-4676,-2140,-4246,-1088,-1943,2025-02-17 11:29:59,0.0
-13700,-5592,-3172,-4447,416,-1786,2025-02-17 11:29:59,0.0
-14272,-5764,-3328,-4423,796,-1557,2025-02-17 11:29:59,0.0
-14604,-5240,-2432,-4279,316,-1435,2025-02-17 11:29:59,0.0
-15032,-5592,-1652,-4029,20,-1228,2025-02-17 11:29:59,0.0
-14856,-6692,-2816,-3719,509,-954,2025-02-17 11:29:59,0.0
-15344,-7304,-6948,-3310,1941,-1391,2025-02-17 11:29:59,0.0
-17316,-6100,-4096,-1777,3021,-1814,2025-02-17 11:29:59,0.0
-17164,-7068,-3028,348,2113,-2027,2025-02-17 11:29:59,0.0
-17336,-8316,-4844,2016,-739,-1108,2025-02-17 11:29:59,0.0
-16384,-6704,-4544,3673,-3919,2085,2025-02-17 11:29:59,0.0
-14228,-5612,-6292,4661,-2673,2373,2025-02-17 11:29:59,0.0
-14676,-3488,-10468,3432,-1770,1729,2025-02-17 11:29:59,0.0
-14624,-2716,-12320,-264,-3166,1893,2025-02-17 11:29:59,0.0
-13168,-3920,-8792,-1629,-5739,2371,2025-02-17 11:29:59,0.0
-11400,-4048,-7420,-963,-7191,3259,2025-02-17 11:29:59,0.0
-9448,-3252,-7432,36,-7427,3705,2025-02-17 11:30:00,0.0
-8740,-2392,-7432,23,-5909,3903,2025-02-17 11:30:00,0.0
-8112,-584,-6280,16,-3943,3866,2025-02-17 11:30:00,0.0
-8200,588,-5608,27,-1839,3359,2025-02-17 11:30:00,0.0
-8928,940,-5388,130,-3,2329,2025-02-17 11:30:00,0.0
-11704,-620,-6064,153,2074,2659,2025-02-17 11:30:00,0.0
-12340,-1680,-5780,422,3347,3655,2025-02-17 11:30:00,0.0
-11968,-2476,-6024,777,3553,3988,2025-02-17 11:30:00,0.0
-11464,-2728,-6344,553,2239,3743,2025-02-17 11:30:00,0.0
-11776,-2388,-5512,244,341,3531,2025-02-17 11:30:00,0.0
-11516,-1612,-4936,341,-2262,2862,2025-02-17 11:30:00,0.0
-12816,-732,-4920,278,-3423,2682,2025-02-17 11:30:00,0.0
-25748,-7412,-8104,-376,-4237,6024,2025-02-17 11:30:00,0.0
-8228,2108,-2416,2258,-6419,4794,2025-02-17 11:30:00,0.0
-9776,1616,-1664,2089,-6589,4652,2025-02-17 11:30:00,0.0
-10272,376,-3260,3159,-6556,3990,2025-02-17 11:30:00,0.0
-9400,-100,-3140,3829,-4565,3452,2025-02-17 11:30:00,0.0
-7732,760,-600,4493,-3395,2619,2025-02-17 11:30:00,0.0
-7244,1116,-148,5617,-3769,516,2025-02-17 11:30:00,0.0
-7872,316,-1792,5876,-3310,-1457,2025-02-17 11:30:00,0.0
-11764,-1724,-4184,3824,1152,-1807,2025-02-17 11:30:00,0.0
-18256,-3552,-3180,2074,5086,1909,2025-02-17 11:30:00,0.0
-13020,-1632,-1300,3180,-39,23,2025-02-17 11:30:00,0.0
-13796,-1348,-1180,3569,-397,500,2025-02-17 11:30:00,0.0
-12272,-1256,-1428,3996,713,799,2025-02-17 11:30:00,0.0
-11920,-924,-1808,4192,742,651,2025-02-17 11:30:00,0.0
-11768,-320,-1288,4157,1333,526,2025-02-17 11:30:00,0.0
-11968,60,-1332,4273,1789,285,2025-02-17 11:30:00,0.0
-13036,-336,-1856,4617,2367,273,2025-02-17 11:30:00,0.0
-13928,-1424,-2880,5103,2305,712,2025-02-17 11:30:00,0.0
-14516,-1532,-3816,5306,1760,1694,2025-02-17 11:30:00,0.0
-16588,-1464,-4168,5536,762,2862,2025-02-17 11:30:00,0.0
-15744,-1440,-3280,5661,-161,4843,2025-02-17 11:30:00,0.0
-14468,-148,-3592,5453,-1410,5285,2025-02-17 11:30:00,0.0
-13948,88,-1708,5664,-760,4745,2025-02-17 11:30:00,
-12488,356,-2260,6608,-56,3220,2025-02-17 11:30:00,0.0
-11960,780,-440,6688,1364,1872,2025-02-17 11:30:00,0.0
-12004,880,1624,8101,544,1,2025-02-17 11:30:00,0.0
-14184,536,-3964,7911,4043,-332,2025-02-17 11:30:00,0.0
-17012,2656,-8436,6246,6672,-556,2025-02-17 11:30:00,0.0
-19860,3384,-10432,4776,8952,135,2025-02-17 11:30:00,0.0
-23624,856,-12472,3180,8957,2792,2025-02-17 11:30:00,0.0
-18648,-1164,-7820,2473,2453,4494,2025-02-17 11:30:00,0.0
-11060,-100,-6376,2879,-7584,895,2025-02-17 11:30:00,0.0
-9588,-1908,-5628,2370,-10262,-1255,2025-02-17 11:30:00,0.0
-7880,-2964,-5724,1873,-6017,-1732,2025-02-17 11:30:00,0.0
-7636,-4056,-5896,1226,-1370,-2054,2025-02-17 11:30:00,0.0
-8656,-4556,-6268,839,1305,-2269,2025-02-17 11:30:00,0.0
-11780,-3384,-5392,254,3077,-2212,2025-02-17 11:30:00,0.0
-13252,-1992,-6220,-290,3630,-1884,2025-02-17 11:30:00,0.0
-13836,-1796,-5296,-258,950,-1956,2025-02-17 11:30:01,0.0
-13708,-1920,-4492,-196,-2255,-1861,2025-02-17 11:30:01,0.0
-12024,-3016,-4724,387,-3721,-2004,2025-02-17 11:30:01,0.0
-10928,-4196,-5592,1055,-3387,-2499,2025-02-17 11:30:01,0.0
-10796,-4396,-6716,1142,-2108,-2943,2025-02-17 11:30:01,0.0
-11048,-3888,-6420,814,-952,-3119,2025-02-17 11:30:01,0.0
-11216,-2988,-5624,362,-604,-3362,2025-02-17 11:30:01,0.0
-11292,-2584,-4924,189,-632,-3505,2025-02-17 11:30:01,0.0
-11844,-2504,-4592,289,-964,-3210,2025-02-17 11:30:01,0.0
-12892,-3760,-3736,-2778,-263,-1421,2025-02-17 11:30:01,0.0
-12120,-3692,-4628,-2709,361,-1366,2025-02-17 11:30:01,0.0
-11648,-3384,-4960,-2915,541,-1691,2025-02-17 11:30:01,0.0
-12644,-3284,-4628,-3310,144,-1665,2025-02-17 11:30:01,0.0
-11896,-3396,-4308,-3629,-104,-1468,2025-02-17 11:30:01,0.0
-11776,-3120,-4300,-3876,-130,-1343,2025-02-17 11:30:01,0.0
-11108,-3020,-4844,-4426,233,-1017,2025-02-17 11:30:01,0.0
-10928,-3428,-4200,-4725,1341,-811,2025-02-17 11:30:01,0.0
-11244,-3376,-4460,-5145,2238,-174,2025-02-17 11:30:01,0.0
-11448,-3784,-2792,-3835,2202,10,2025-02-17 11:30:01,0.0
-10796,-4164,-4928,-3341,1775,805,2025-02-17 11:30:01,0.0
-10900,-4476,-3660,-3506,1288,1330,2025-02-17 11:30:01,0.0
-11128,-5100,-3132,-2998,1726,2171,2025-02-17 11:30:01,0.0
-10380,-4864,-2380,-3002,1186,2934,2025-02-17 11:30:01,0.0
-10164,-4080,-1512,-2250,279,2916,2025-02-17 11:30:01,0.0
-9768,-4640,-644,-353,-509,2332,2025-02-17 11:30:01,0.0
-12376,-4744,-7184,282,1825,400,2025-02-17 11:30:01,0.0
-15952,-4408,-12880,581,10521,-733,2025-02-17 11:30:01,0.0
-17868,-6328,-10044,763,19891,-2041,2025-02-17 11:30:01,0.0
-19716,-7584,-3776,2241,14351,-1233,2025-02-17 11:30:01,0.0
-19868,-6568,-2264,4336,1213,2638,2025-02-17 11:30:01,0.0
-16584,-6724,-2660,6219,-8112,4420,2025-02-17 11:30:01,0.0
-12280,-5868,-3864,8083,-10435,5837,2025-02-17 11:30:01,0.0
-9264,-4484,-4712,7819,-8775,5275,2025-02-17 11:30:01,0.0
-8392,-4808,-2932,7607,-5878,4534,2025-02-17 11:30:01,0.0
-9856,-5612,-2028,9297,-1281,4444,2025-02-17 11:30:01,0.0
-10732,-4332,-4012,10153,2009,4274,2025-02-17 11:30:01,0.0
-12272,-3492,-3804,10653,3633,4290,2025-02-17 11:30:01,0.0
-12460,-4760,-2232,12579,2963,4639,2025-02-17 11:30:01,0.0
-12496,-5016,-4932,13935,1265,4800,2025-02-17 11:30:01,0.0
-11512,-5112,-5084,14714,-485,4436,2025-02-17 11:30:01,0.0
-11392,-5736,-5804,14973,-1805,3454,2025-02-17 11:30:01,0.0
-12268,-5080,-6208,14631,-2396,3133,2025-02-17 11:30:01,0.0
-11260,-4256,-5892,14217,-1522,1920,2025-02-17 11:30:01,0.0
-11476,-3560,-7136,13889,-160,112,2025-02-17 11:30:01,0.0
-12696,-3672,-5356,13545,341,-88,2025-02-17 11:30:01,0.0
-13508,-4276,-3904,16031,108,1586,2025-02-17 11:30:01,0.0
-11468,-3072,-5732,16900,3481,3876,2025-02-17 11:30:01,0.0
-12948,-3768,-6380,16751,4174,4173,2025-02-17 11:30:01,0.0
-12904,-4388,-6924,15960,4049,4702,2025-02-17 11:30:01,0.0
-13256,-3324,-7360,14787,3674,4761,2025-02-17 11:30:01,0.0
-12384,-3096,-7216,13800,2614,4230,2025-02-17 11:30:01,0.0
-11884,-3216,-6984,12800,1019,2624,2025-02-17 11:30:01,0.0
-11528,-1916,-6780,10612,-268,803,2025-02-17 11:30:01,0.0
-11752,-1632,-4652,8495,1126,-1506,2025-02-17 11:30:01,0.0
-12112,-2296,-2452,7953,6522,-2164,2025-02-17 11:30:01,0.0
-10432,-1920,-4928,7143,14962,-1378,2025-02-17 11:30:01,0.0
-9504,-1548,-1260,8626,22887,501,2025-02-17 11:30:01,0.0
-9728,-2508,1452,14462,32767,3443,2025-02-17 11:30:02,0.0
-13736,-3956,892,19386,32767,8214,2025-02-17 11:30:02,0.0
-12716,-5248,-3160,18950,32767,13401,2025-02-17 11:30:02,0.0
-11364,-6280,-6612,14516,32767,19660,2025-02-17 11:30:02,0.0
-9988,-7256,-7076,7151,32767,25416,2025-02-17 11:30:02,0.0
-7780,-6144,-5764,615,32767,29574,2025-02-17 11:30:02,0.0
-1636,-4392,-3260,-4639,32767,30868,2025-02-17 11:30:02,0.0
6096,-3456,-1460,-10474,32767,26680,2025-02-17 11:30:02,0.0
5724,-2624,1208,-12757,32767,20588,2025-02-17 11:30:02,0.0
4384,-2016,-984,-15372,32767,17735,2025-02-17 11:30:02,0.0
5352,-2016,-824,-19386,29901,15365,2025-02-17 11:30:02,0.0
4648,-1812,1832,-21534,24460,12150,2025-02-17 11:30:02,0.0
3252,-1672,2248,-21985,22166,10543,2025-02-17 11:30:02,0.0
2732,-1448,2288,-21878,20998,9388,2025-02-17 11:30:02,0.0
2212,-1320,2232,-21711,20499,8719,2025-02-17 11:30:02,0.0
2632,-1040,1632,-21581,20471,8169,2025-02-17 11:30:02,0.0
2272,-1136,2100,-21323,21009,7681,2025-02-17 11:30:02,0.0
2296,-1232,2412,-20986,21235,7058,2025-02-17 11:30:02,0.0
2316,-1136,2268,-20584,21197,6498,2025-02-17 11:30:02,0.0
2452,-992,2228,-20132,20991,5947,2025-02-17 11:30:02,0.0
2376,-912,2428,-19649,20689,5538,2025-02-17 11:30:02,0.0
2356,-908,2368,-19129,20331,5185,2025-02-17 11:30:02,0.0
2432,-888,2328,-18527,19992,4763,2025-02-17 11:30:02,0.0
2492,-812,2608,-17816,19691,4391,2025-02-17 11:30:02,0.0
2448,-696,2376,-17076,19642,3945,2025-02-17 11:30:02,0.0
2560,-552,2544,-16391,19781,3498,2025-02-17 11:30:02,0.0
2724,-284,2976,-15470,19861,3113,2025-02-17 11:30:02,0.0
2864,-92,3800,-13893,19750,2777,2025-02-17 11:30:02,
1876,-212,4748,-10355,19602,2541,2025-02-17 11:30:02,0.0
-23460,12384,2600,-15142,24333,32767,2025-02-17 11:30:02,0.0
32767,32767,32767,17021,-32768,32767,2025-02-17 11:30:02,0.0
32767,-3788,32767,17887,-32768,8186,2025-02-17 11:30:02,0.0
-6568,-8012,-17600,12321,-32768,-8645,2025-02-17 11:30:02,0.0
-14308,-6880,-5756,7743,-32768,-5669,2025-02-17 11:30:02,0.0
-9436,-6772,-1872,8346,-32768,-4359,2025-02-17 11:30:02,0.0
-5720,-5132,-1432,7237,-32768,-3114,2025-02-17 11:30:02,0.0
-3328,-2500,-176,6365,-32768,-2858,2025-02-17 11:30:02,0.0
-1616,-1108,-2932,5766,-32768,-1843,2025-02-17 11:30:02,0.0
-1088,440,-2344,4620,-32768,62,2025-02-17 11:30:02,0.0
-224,1240,-5964,1732,-32768,-43,2025-02-17 11:30:02,0.0
-5648,1512,-10596,-4519,-17568,1175,2025-02-17 11:30:02,0.0
-11688,1196,-10940,-9641,5974,5227,2025-02-17 11:30:02,0.0
-14920,1192,-9020,-13268,32767,11085,2025-02-17 11:30:02,0.0
-12496,1532,-4420,-12202,32767,14462,2025-02-17 11:30:02,0.0
-7212,3444,-1284,-7386,32767,13480,2025-02-17 11:30:02,0.0
-888,5484,-3448,379,32767,10063,2025-02-17 11:30:02,0.0
4836,5648,-4924,7217,32767,6499,2025-02-17 11:30:02,0.0
11980,5584,-11108,12707,32767,5183,2025-02-17 11:30:02,0.0
24560,3892,-24684,13692,32767,4566,2025-02-17 11:30:02,0.0
32767,1708,-32768,6111,27687,562,2025-02-17 11:30:02,0.0
22992,-1084,-15672,-1418,9815,-1156,2025-02-17 11:30:02,0.0
13204,832,-5536,-2144,4524,-312,2025-02-17 11:30:02,0.0
10052,1448,-2980,-1923,-1547,-1109,2025-02-17 11:30:02,0.0
10332,2708,-5464,-1503,-6912,-1111,2025-02-17 11:30:02,0.0
12536,3512,-9848,-1102,-11195,-311,2025-02-17 11:30:02,0.0
13052,2840,-14316,-855,-12754,648,2025-02-17 11:30:02,0.0
10688,1496,-16460,-1115,-11329,698,2025-02-17 11:30:02,0.0
7152,1352,-15572,-1709,-5609,184,2025-02-17 11:30:02,0.0
7012,2472,-13068,-1073,796,-392,2025-02-17 11:30:02,0.0
9680,3284,-12028,595,4083,-483,2025-02-17 11:30:02,0.0
11300,2324,-12772,1113,3138,-181,2025-02-17 11:30:02,0.0
11712,1364,-12428,21,737,-47,2025-02-17 11:30:02,0.0
11236,1600,-12176,-587,-1067,-214,2025-02-17 11:30:02,0.0
10324,2148,-13032,-605,-1150,-207,2025-02-17 11:30:03,0.0
10012,2536,-13048,-370,-378,-237,2025-02-17 11:30:03,0.0
10012,2592,-12608,-3,467,-125,2025-02-17 11:30:03,0.0
10452,1984,-12920,217,715,-94,2025-02-17 11:30:03,0.0
10880,1764,-12888,-132,572,-190,2025-02-17 11:30:03,0.0
10808,2148,-12620,-421,-39,-253,2025-02-17 11:30:03,0.0
10304,2420,-12248,-218,-367,-111,2025-02-17 11:30:03,0.0
10200,2032,-13024,-44,111,-202,2025-02-17 11:30:03,0.0
10496,2216,-13224,-229,592,-173,2025-02-17 11:30:03,0.0
10552,2164,-12568,-123,177,-164,2025-02-17 11:30:03,0.0
10684,2012,-12576,-189,50,-149,2025-02-17 11:30:03,0.0
10360,2048,-12900,-213,196,-232,2025-02-17 11:30:03,0.0
10636,2316,-12564,-128,291,-202,2025-02-17 11:30:03,0.0
10452,2316,-12884,-139,20,-217,2025-02-17 11:30:03,0.0
10636,2064,-12652,-144,149,-116,2025-02-17 11:30:03,0.0
10292,2108,-12860,-114,285,-196,2025-02-17 11:30:03,0.0
10644,2072,-12744,-251,150,-215,2025-02-17 11:30:03,0.0
10472,2348,-12592,-148,21,-166,2025-02-17 11:30:03,0.0
10376,2136,-12924,-132,140,-158,2025-02-17 11:30:03,0.0
10480,2040,-12664,-196,350,-198,2025-02-17 11:30:03,0.0
10516,2180,-12776,-174,166,-191,2025-02-17 11:30:03,0.0
10588,2252,-12604,-190,24,-165,2025-02-17 11:30:03,0.0
10488,2096,-12668,-104,163,-172,2025-02-17 11:30:03,0.0
10532,2036,-12988,-154,239,-184,2025-02-17 11:30:03,0.0
10528,2312,-12704,-239,164,-182,2025-02-17 11:30:03,0.0
10424,2116,-12728,-194,192,-199,2025-02-17 11:30:03,0.0
10544,2260,-12804,-191,159,-175,2025-02-17 11:30:03,0.0
10440,2244,-12644,-136,151,-182,2025-02-17 11:30:03,0.0
10540,2104,-12780,-174,195,-177,2025-02-17 11:30:03,0.0
10608,2128,-12804,-161,169,-202,2025-02-17 11:30:03,0.0
10524,2136,-12728,-156,141,-177,2025-02-17 11:30:03,0.0
10516,2156,-12832,-192,139,-189,2025-02-17 11:30:03,0.0
10456,2188,-12712,-187,141,-178,2025-02-17 11:30:03,0.0
10548,2144,-12916,-159,188,-188,2025-02-17 11:30:03,0.0
10452,2128,-12744,-174,185,-179,2025-02-17 11:30:03,0.0
10496,2276,-12792,-153,154,-180,2025-02-17 11:30:03,0.0
10580,2144,-12688,-133,140,-170,2025-02-17 11:30:03,0.0
10504,2156,-12856,-139,198,-176,2025-02-17 11:30:03,0.0
10556,2116,-12800,-159,180,-177,2025-02-17 11:30:03,0.0
10528,2120,-12772,-168,162,-173,2025-02-17 11:30:03,0.0
10528,2136,-12728,-150,147,-173,2025-02-17 11:30:03,0.0
10508,2200,-12684,-170,177,-176,2025-02-17 11:30:03,0.0
10572,2172,-12732,-198,135,-180,2025-02-17 11:30:03,0.0
10492,2168,-12620,-161,174,-169,2025-02-17 11:30:03,0.0
10456,2156,-12760,-182,181,-167,2025-02-17 11:30:03,0.0
10484,2212,-12748,-168,177,-178,2025-02-17 11:30:03,0.0
10592,2268,-12800,-163,175,-174,2025-02-17 11:30:03,0.0
10516,2124,-12900,-146,172,-186,2025-02-17 11:30:03,0.0
10492,2184,-12832,-127,184,-169,2025-02-17 11:30:03,0.0
10468,2132,-12796,-166,169,-185,2025-02-17 11:30:03,0.0
10392,2228,-12628,-153,147,-175,2025-02-17 11:30:03,0.0
10432,2136,-12756,-147,161,-177,2025-02-17 11:30:03,0.0
10560,2272,-12744,-162,157,-174,2025-02-17 11:30:03,0.0
10540,2144,-12668,-153,164,-182,2025-02-17 11:30:03,0.0
10500,2256,-12824,-175,174,-185,2025-02-17 11:30:03,0.0
10456,2212,-12744,-158,191,-162,2025-02-17 11:30:03,0.0
10516,2208,-12648,-153,167,-192,2025-02-17 11:30:03,0.0
10532,2156,-12776,-174,165,-184,2025-02-17 11:30:03,0.0
10496,2144,-12792,-165,174,-183,2025-02-17 11:30:03,0.0
10524,2176,-12764,-181,167,-184,2025-02-17 11:30:04,0.0
10520,2132,-12708,-187,119,-188,2025-02-17 11:30:04,0.0
10664,2316,-12800,-209,262,-185,2025-02-17 11:30:04,0.0
10480,2288,-12460,-105,317,-290,2025-02-17 11:30:04,0.0
10444,3128,-12060,250,1202,-77,2025-02-17 11:30:04,0.0
9988,2580,-11276,1369,1249,-63,2025-02-17 11:30:04,
11080,2708,-11732,2273,1218,-172,2025-02-17 11:30:04,0.0
11432,1580,-12316,2780,696,-405,2025-02-17 11:30:04,0.0
12576,-100,-15488,2119,-399,-854,2025-02-17 11:30:04,0.0
10868,-640,-17308,-2024,-1080,-1212,2025-02-17 11:30:04,0.0
9952,3148,-10336,-2898,-1061,-973,2025-02-17 11:30:04,0.0
9096,4536,-7192,1044,-597,-762,2025-02-17 11:30:04,0.0
11192,2252,-12480,3096,-182,-535,2025-02-17 11:30:04,0.0
10840,548,-14192,2443,-147,-960,2025-02-17 11:30:04,0.0
13200,2400,-14432,-4591,-688,-1958,2025-02-17 11:30:04,0.0
16176,1576,-16552,-6382,-1104,-4459,2025-02-17 11:30:04,0.0
18024,860,-16568,-9016,-1143,-9016,2025-02-17 11:30:04,0.0
13200,2380,-13804,-9099,-2688,-11807,2025-02-17 11:30:04,0.0
7992,4268,-12348,-8425,-3773,-10803,2025-02-17 11:30:04,0.0
4580,6684,-10016,-7515,-2635,-6128,2025-02-17 11:30:04,0.0
5360,8608,-8584,-5116,-3181,-486,2025-02-17 11:30:04,0.0
8860,10296,-8396,-833,-4840,2922,2025-02-17 11:30:04,0.0
11712,10664,-10444,3299,-9132,3543,2025-02-17 11:30:04,0.0
11712,7216,-16784,5990,-13875,3568,2025-02-17 11:30:04,0.0
9104,3492,-18092,3233,-14230,2039,2025-02-17 11:30:04,0.0
7312,724,-20144,6477,-12681,1609,2025-02-17 11:30:04,0.0
7256,-188,-23280,7302,-11134,1342,2025-02-17 11:30:04,0.0
6912,644,-21140,6485,-7699,527,2025-02-17 11:30:04,0.0
7752,1988,-18632,5421,-1732,-1913,2025-02-17 11:30:04,0.0
9152,2224,-16824,3202,315,-4599,2025-02-17 11:30:04,0.0
10360,2396,-15612,861,-5553,-6518,2025-02-17 11:30:04,0.0
8104,2180,-15952,-1849,-15364,-6373,2025-02-17 11:30:04,0.0
5284,1636,-18588,-3812,-26124,-3424,2025-02-17 11:30:04,0.0
3940,1892,-17572,-3500,-32768,515,2025-02-17 11:30:04,0.0
2276,1252,-17868,302,-32768,3560,2025-02-17 11:30:04,0.0
4912,1364,-24948,2989,-32768,2452,2025-02-17 11:30:04,0.0
7832,1036,-26924,-736,-32768,-4736,2025-02-17 11:30:04,0.0
2108,640,-27200,-6128,-32768,-10786,2025-02-17 11:30:04,0.0
-672,264,-25092,-9188,-32768,-11809,2025-02-17 11:30:04,0.0
-4196,164,-19856,-7987,-24626,-8184,2025-02-17 11:30:04,0.0
-4756,1556,-18584,-2192,-17600,-1720,2025-02-17 11:30:04,0.0
-2592,2540,-23064,1462,-8718,2280,2025-02-17 11:30:04,0.0
-1384,3392,-22596,215,2251,2694,2025-02-17 11:30:04,0.0
-3036,4096,-18160,-737,13639,2441,2025-02-17 11:30:04,0.0
-2924,4116,-13856,-51,23487,2083,2025-02-17 11:30:04,0.0
-2620,3796,-10124,2648,32767,1332,2025-02-17 11:30:04,0.0
-660,3324,-11304,4674,32767,-636,2025-02-17 11:30:04,0.0
2104,3876,-13832,6089,32767,-4230,2025-02-17 11:30:04,0.0
4544,6820,-11360,10772,32767,-7735,2025-02-17 11:30:04,0.0
4056,8452,-14644,14556,21494,-8546,2025-02-17 11:30:04,0.0
2940,4608,-16232,13011,3465,-6794,2025-02-17 11:30:04,0.0
288,1836,-18120,10199,-14672,-4694,2025-02-17 11:30:04,0.0
-2336,-76,-16104,8084,-22933,-3154,2025-02-17 11:30:04,0.0
-4832,-36,-16964,7366,-26428,-805,2025-02-17 11:30:04,0.0
-4296,4,-16796,5195,-25285,380,2025-02-17 11:30:04,0.0
-2940,-40,-15148,3356,-21139,-395,2025-02-17 11:30:04,0.0
-3772,280,-13812,1866,-15574,-1838,2025-02-17 11:30:04,0.0
-5504,624,-12328,1642,-10478,-1394,2025-02-17 11:30:04,0.0
-5928,1184,-11880,2737,-4575,1065,2025-02-17 11:30:05,0.0
-3820,1692,-11000,4550,77,1157,2025-02-17 11:30:05,0.0
-1944,2024,-10260,6688,3928,-1266,2025-02-17 11:30:05,0.0
-2760,2260,-9984,8719,6662,-3785,2025-02-17 11:30:05,0.0
-5048,2372,-9760,10557,8626,-4245,2025-02-17 11:30:05,0.0
-5624,1660,-10996,11426,8537,-2563,2025-02-17 11:30:05,0.0
-3556,-204,-11908,10466,4025,-440,2025-02-17 11:30:05,0.0
-1816,-2500,-12180,8495,-3717,913,2025-02-17 11:30:05,0.0
-2576,-3992,-10664,6294,-12180,2302,2025-02-17 11:30:05,0.0
-3024,-3788,-7992,4104,-21151,3458,2025-02-17 11:30:05,0.0
-3068,-2308,-7612,2547,-25342,3611,2025-02-17 11:30:05,0.0
-3392,-908,-6728,1073,-28285,3474,2025-02-17 11:30:05,0.0
-2872,500,-7632,-350,-30947,3268,2025-02-17 11:30:05,0.0
-3216,1552,-6808,-185,-32768,3634,2025-02-17 11:30:05,0.0
-2848,1352,-7088,-514,-32768,4055,2025-02-17 11:30:05,0.0
-1868,688,-7352,-2788,-32768,4613,2025-02-17 11:30:05,0.0
-2136,-892,-5928,-4832,-32768,3127,2025-02-17 11:30:05,0.0
-3912,-1260,-5344,-6541,-32768,2010,2025-02-17 11:30:05,0.0
-5664,-1224,-4540,-7526,-32657,1534,2025-02-17 11:30:05,0.0
-8256,-928,-4016,-7597,-24372,1469,2025-02-17 11:30:05,0.0
-10972,-372,-3136,-6297,-13951,2444,2025-02-17 11:30:05,0.0
-13496,516,-2892,-4045,-2602,4763,2025-02-17 11:30:05,0.0
-13592,1308,-3604,-1357,8144,7392,2025-02-17 11:30:05,0.0
-11496,1128,-4312,618,19749,8172,2025-02-17 11:30:05,0.0
-9516,612,-5224,1654,25787,7516,2025-02-17 11:30:05,0.0
-7976,68,-6396,2294,28671,6267,2025-02-17 11:30:05,0.0
-7416,-32,-7768,2376,28870,4588,2025-02-17 11:30:05,0.0
-7864,292,-8200,1932,27276,3194,2025-02-17 11:30:05,0.0
-8472,820,-7620,1752,23635,2802,2025-02-17 11:30:05,0.0
-7876,652,-6984,2641,17635,2981,2025-02-17 11:30:05,0.0
-7540,-528,-7060,3309,10752,3475,2025-02-17 11:30:05,0.0
-5092,-1600,-7788,2503,1199,3305,2025-02-17 11:30:05,0.0
-4784,-2284,-7368,1467,-7300,2217,2025-02-17 11:30:05,0.0
-5600,-7096,2348,-2209,-8074,-648,2025-02-17 11:30:05,0.0
-10076,-468,-7132,-3394,-7343,-1052,2025-02-17 11:30:05,0.0
-3532,712,-13072,-3264,-17822,-168,2025-02-17 11:30:05,0.0
-3308,744,-14588,-1202,-32768,362,2025-02-17 11:30:05,0.0
-6692,-200,-14832,894,-32768,-1552,2025-02-17 11:30:05,0.0
-17004,-2308,-13948,-1914,-28457,-5179,2025-02-17 11:30:05,0.0
-22072,1464,13580,-4639,-21277,-4997,2025-02-17 11:30:05,0.0
-16036,-828,-1280,437,-13916,-2493,2025-02-17 11:30:05,0.0
-11116,-488,-8676,1300,-11452,-1107,2025-02-17 11:30:05,0.0
-9352,-564,-6772,863,-15802,-584,2025-02-17 11:30:05,0.0
-11652,-944,-3052,2100,-17707,-249,2025-02-17 11:30:05,0.0
-14332,-1128,-648,6021,-14933,1032,2025-02-17 11:30:05,0.0
-13448,-752,-3528,4789,-13121,1388,2025-02-17 11:30:05,0.0
-12128,-856,-4692,2273,-12195,249,2025-02-17 11:30:05,0.0
-11520,-2860,-872,1883,-12485,-2230,2025-02-17 11:30:05,
-14804,-4620,316,3383,-11362,-2143,2025-02-17 11:30:05,0.0
-14832,-5156,1804,4346,-9185,466,2025-02-17 11:30:05,0.0
-11520,-5340,2040,6321,-6355,1272,2025-02-17 11:30:05,0.0
-11728,-4704,1476,8399,-2449,702,2025-02-17 11:30:05,0.0
-12116,-3628,-172,9650,1643,852,2025-02-17 11:30:05,0.0
-12648,-2172,-816,9668,5080,1694,2025-02-17 11:30:05,0.0
-12728,-1740,272,10326,7251,1970,2025-02-17 11:30:05,0.0
-13964,-2004,728,11658,7948,1938,2025-02-17 11:30:05,0.0
-12752,-2240,-100,13703,7265,1604,2025-02-17 11:30:05,0.0
-13068,-1776,-1164,14708,6424,1063,2025-02-17 11:30:05,0.0
-12076,-1912,-392,15400,6005,210,2025-02-17 11:30:05,0.0
-11980,-1412,-3628,14863,5497,-1182,2025-02-17 11:30:05,0.0
-14424,-932,-3324,11896,7026,-412,2025-02-17 11:30:06,0.0
-14848,-1664,-816,12208,8020,712,2025-02-17 11:30:06,0.0
-14176,-1656,-1668,12257,7597,1415,2025-02-17 11:30:06,0.0
-13092,-1532,-2748,11998,5459,947,2025-02-17 11:30:06,0.0
-13392,-1000,-2656,11469,2421,-160,2025-02-17 11:30:06,0.0
-13092,-1020,-2924,10692,-687,-1182,2025-02-17 11:30:06,0.0
-14052,-1436,-2960,9617,-2870,-1687,2025-02-17 11:30:06,0.0
-13652,-2088,-1936,9236,-4571,-1288,2025-02-17 11:30:06,0.0
-14072,-1972,-2900,8284,-5727,-447,2025-02-17 11:30:06,0.0
-14312,-1836,-428,8074,-5511,663,2025-02-17 11:30:06,0.0
-11764,-2024,-1708,7689,-6209,410,2025-02-17 11:30:06,0.0
-12100,-1300,-52,6649,-4886,-871,2025-02-17 11:30:06,0.0
-12116,-1124,-328,6356,-1397,-1425,2025-02-17 11:30:06,0.0
-13356,-1400,-1764,4252,2380,-1081,2025-02-17 11:30:06,0.0
-13344,-1680,-840,2803,4330,-426,2025-02-17 11:30:06,0.0
-13512,-2256,24,2165,4361,-718,2025-02-17 11:30:06,0.0
-14204,-2600,392,1659,3384,-1042,2025-02-17 11:30:06,0.0
-15108,-2740,1120,1252,2219,-877,2025-02-17 11:30:06,0.0
-15140,-2628,792,1003,753,-153,2025-02-17 11:30:06,0.0
-14568,-3032,1048,719,-972,568,2025-02-17 11:30:06,0.0
-13520,-3460,1368,642,-2097,721,2025-02-17 11:30:06,0.0
-12948,-4308,680,556,-1207,955,2025-02-17 11:30:06,0.0
-13184,-4996,-580,278,810,693,2025-02-17 11:30:06,0.0
-14088,-4852,-1544,-3,2979,232,2025-02-17 11:30:06,0.0
-14552,-5020,-1988,-423,4980,-128,2025-02-17 11:30:06,0.0
-14604,-5616,-1164,-267,6025,-981,2025-02-17 11:30:06,0.0
-15532,-5308,-2536,-432,7294,-1047,2025-02-17 11:30:06,0.0
-15792,-3892,-2608,-1164,9280,-794,2025-02-17 11:30:06,0.0
-15688,-3136,-3608,-2275,10591,-1222,2025-02-17 11:30:06,0.0
-15596,-3400,-4948,-2982,9881,-1725,2025-02-17 11:30:06,0.0
-16732,-4204,-5600,-3315,6908,-1289,2025-02-17 11:30:06,0.0
-17128,-4968,-5164,-2995,3026,230,2025-02-17 11:30:06,0.0
-15616,-4744,-5668,-2207,-198,1757,2025-02-17 11:30:06,0.0
-13956,-2332,-5356,-983,-2232,2403,2025-02-17 11:30:06,0.0
-13984,-64,-4040,84,-3572,2784,2025-02-17 11:30:06,0.0
-13568,1616,-3168,1662,-4380,3301,2025-02-17 11:30:06,0.0
-13668,1412,-3564,3798,-4318,4644,2025-02-17 11:30:06,0.0
-13092,996,-4240,5094,-3728,5886,2025-02-17 11:30:06,0.0
-12660,32,-4324,6190,-1747,6560,2025-02-17 11:30:06,0.0
-11072,-132,-5416,6137,637,6150,2025-02-17 11:30:06,0.0
-10668,-76,-4828,5659,2301,5398,2025-02-17 11:30:06,0.0
-10728,36,-4884,5274,2369,5133,2025-02-17 11:30:06,0.0
-11016,480,-2796,4752,1479,4483,2025-02-17 11:30:06,0.0
-11760,924,-3548,4759,897,4034,2025-02-17 11:30:06,0.0
-32768,-12436,-28760,-43,6547,12640,2025-02-17 11:30:06,0.0
-11304,2084,-3276,6776,-6875,9405,2025-02-17 11:30:06,0.0
-12996,1336,-5360,4032,-9287,9144,2025-02-17 11:30:06,0.0
-13252,-140,-2652,3242,-8546,10106,2025-02-17 11:30:06,0.0
-11320,-1120,-7260,1144,-6167,10738,2025-02-17 11:30:06,0.0
-10712,-144,-324,662,-2332,10918,2025-02-17 11:30:06,0.0
-11988,3636,11180,6615,-1933,12624,2025-02-17 11:30:06,0.0
16804,9524,11536,21835,-29301,3014,2025-02-17 11:30:06,0.0
-5236,4576,-12224,15199,-22318,-5511,2025-02-17 11:30:06,0.0
-21944,1112,-6980,3969,4550,348,2025-02-17 11:30:06,0.0
-8728,-2296,2488,3738,14631,4522,2025-02-17 11:30:06,0.0
-11292,-244,352,4964,10358,1650,2025-02-17 11:30:06,0.0
-12252,3020,-840,4446,1718,-228,2025-02-17 11:30:06,0.0
-13352,3260,-104,3071,-619,-2193,2025-02-17 11:30:06,0.0
-13156,3240,24,2253,8,-3380,2025-02-17 11:30:06,0.0
-13952,3768,-1156,2163,-626,-3343,2025-02-17 11:30:06,0.0
-15516,2720,-1424,2933,-1572,-1618,2025-02-17 11:30:06,0.0
-14904,2260,-1104,3990,-1448,-746,2025-02-17 11:30:07,0.0
-16996,1396,-1220,4098,1298,-336,2025-02-17 11:30:07,0.0
-18544,668,-356,3259,3415,399,2025-02-17 11:30:07,0.0
-18348,36,1040,4706,606,442,2025-02-17 11:30:07,0.0
-18532,-628,-1036,6793,-5719,-266,2025-02-17 11:30:07,0.0
-17396,1952,-6088,5217,-6030,-1984,2025-02-17 11:30:07,0.0
-15648,4224,-9560,3018,-3212,-2058,2025-02-17 11:30:07,0.0
-13172,4736,-8428,1982,-836,-2003,2025-02-17 11:30:07,0.0
-12524,2804,-5892,1976,1325,-1361,2025-02-17 11:30:07,0.0
-12096,-364,-3420,1931,4021,-397,2025-02-17 11:30:07,0.0
-11240,-3240,-1836,2478,5978,280,2025-02-17 11:30:07,0.0
-11400,-2832,-4132,3706,7246,407,2025-02-17 11:30:07,0.0
-11492,-880,-7212,2824,6954,-225,2025-02-17 11:30:07,0.0
-12136,1504,-5776,2044,6315,-1116,2025-02-17 11:30:07,0.0
-12096,2656,-4408,1991,5094,-2286,2025-02-17 11:30:07,0.0
-12076,-688,-480,-1378,-504,367,2025-02-17 11:30:07,0.0
-10832,-568,-1104,-904,-109,-570,2025-02-17 11:30:07,0.0
-10676,-376,-724,227,512,-1470,2025-02-17 11:30:07,0.0
-10896,-636,-1228,218,1948,-2392,2025-02-17 11:30:07,0.0
-10868,-1112,-2040,-958,2752,-3560,2025-02-17 11:30:07,0.0
-12524,-1412,-2832,-1819,3079,-4049,2025-02-17 11:30:07,0.0
-16256,-1228,-1884,-1950,3445,-2662,2025-02-17 11:30:07,0.0
-17500,-1268,-1700,-2225,2535,151,2025-02-17 11:30:07,0.0
-16308,-1344,-1400,-1316,-389,2309,2025-02-17 11:30:07,0.0
-15036,-1032,-2556,-822,-4281,2795,2025-02-17 11:30:07,0.0
-13528,-1116,-4884,-2606,-6351,2538,2025-02-17 11:30:07,0.0
-9324,-572,-1228,-4535,-7205,-1991,2025-02-17 11:30:07,
-12084,-1256,-1620,-5566,-4175,-2673,2025-02-17 11:30:07,0.0
-13012,-2268,-1356,-6381,2260,-2519,2025-02-17 11:30:07,0.0
-14044,-2460,-1472,-6378,5613,-3087,2025-02-17 11:30:07,0.0
-15588,-2420,-1664,-6148,6640,-3855,2025-02-17 11:30:07,0.0
-16776,-3412,-2532,-6040,6031,-4683,2025-02-17 11:30:07,0.0
-18244,-4200,-3188,-5899,4406,-5158,2025-02-17 11:30:07,0.0
-18740,-4552,-4864,-5683,2745,-4880,2025-02-17 11:30:07,0.0
-18108,-4500,-7076,-5770,734,-3505,2025-02-17 11:30:07,0.0
-16920,-4252,-6500,-5939,-2114,-1202,2025-02-17 11:30:07,0.0
-14716,-3964,-3512,-4820,-4801,1093,2025-02-17 11:30:07,0.0
-12380,-2564,-3124,-2662,-5611,2594,2025-02-17 11:30:07,0.0
-10716,-32,-3992,-2742,-3832,2920,2025-02-17 11:30:07,0.0
-9496,1536,-3460,-2778,-1296,2017,2025-02-17 11:30:07,0.0
-10156,2108,-3896,-2002,1004,995,2025-02-17 11:30:07,0.0
-11800,1688,-4240,-1699,2938,590,2025-02-17 11:30:07,0.0
-13164,964,-4528,-1580,4173,676,2025-02-17 11:30:07,0.0
-13704,-156,-4788,-1859,4873,807,2025-02-17 11:30:07,0.0
-13964,-864,-5012,-1748,3947,424,2025-02-17 11:30:07,0.0
-14140,-452,-4760,-1945,2022,658,2025-02-17 11:30:07,0.0
-13320,380,-4748,-2588,488,1240,2025-02-17 11:30:07,0.0
-11712,764,-5248,-3258,282,1166,2025-02-17 11:30:07,0.0
-11136,1124,-4580,-3512,839,757,2025-02-17 11:30:07,0.0
-11408,1012,-3756,-3346,2039,574,2025-02-17 11:30:07,0.0
-12252,136,-2268,-2676,3579,891,2025-02-17 11:30:08,0.0
-12608,-420,-1696,-1799,3751,972,2025-02-17 11:30:08,0.0
-13064,-924,-468,-899,2742,1020,2025-02-17 11:30:08,0.0
-12820,-1248,-1920,-418,2161,1116,2025-02-17 11:30:08,0.0
-12416,-892,-1916,-56,1503,1004,2025-02-17 11:30:08,0.0
-11956,-548,-2128,371,725,660,2025-02-17 11:30:08,0.0
-11656,-416,-1884,899,-337,-167,2025-02-17 11:30:08,0.0
-11620,-188,-2448,962,-1735,-1494,2025-02-17 11:30:08,0.0
-12264,-140,-2180,1084,-2567,-2216,2025-02-17 11:30:08,0.0
-12468,-220,-3728,1817,-2741,-2519,2025-02-17 11:30:08,0.0
-12672,-80,-4516,2390,-1676,-2472,2025-02-17 11:30:08,0.0
-12976,-124,-4368,2692,-417,-2049,2025-02-17 11:30:08,0.0
-13496,-1012,-3160,3166,828,-1195,2025-02-17 11:30:08,0.0
-14716,-2332,-1960,5026,1914,0,2025-02-17 11:30:08,0.0
-15856,-2244,-3736,5837,2109,1404,2025-02-17 11:30:08,0.0
-15540,-1496,-5348,5408,1391,2413,2025-02-17 11:30:08,0.0
-13632,-980,-5832,4660,-628,2241,2025-02-17 11:30:08,0.0
-12148,-1160,-4132,4445,-2156,1321,2025-02-17 11:30:08,0.0
-11420,-1368,-2880,5294,-2497,994,2025-02-17 11:30:08,0.0
-11088,-1176,-2596,6561,-1340,1019,2025-02-17 11:30:08,0.0
-11336,-1416,-2772,7722,237,1060,2025-02-17 11:30:08,0.0
-11796,-1508,-3176,8430,2088,1044,2025-02-17 11:30:08,0.0
-12896,-1880,-4324,8795,2880,1152,2025-02-17 11:30:08,0.0
-13208,-1848,-5012,8769,2191,1216,2025-02-17 11:30:08,0.0
-13028,-1612,-5288,8666,1387,1334,2025-02-17 11:30:08,0.0
-12272,-1776,-4920,8821,1165,1261,2025-02-17 11:30:08,0.0
-11888,-1920,-4520,9219,1654,1170,2025-02-17 11:30:08,0.0
-12200,-1900,-4344,10106,2663,1529,2025-02-17 11:30:08,0.0
-12628,-1832,-4736,10638,3313,2032,2025-02-17 11:30:08,0.0
-13208,-2364,-4432,11137,3011,2562,2025-02-17 11:30:08,0.0
-13852,-2836,-3540,11999,2318,3343,2025-02-17 11:30:08,0.0
-12976,-3340,-3652,12668,1667,3404,2025-02-17 11:30:08,0.0
-12228,-3392,-3704,13418,1230,3084,2025-02-17 11:30:08,0.0
-11632,-3188,-4836,13630,1951,2635,2025-02-17 11:30:08,0.0
-11760,-3208,-4072,14171,2896,2481,2025-02-17 11:30:08,0.0
-11148,-2884,-4052,14668,4145,2294,2025-02-17 11:30:08,0.0
-11360,-3132,-4124,14760,5100,1482,2025-02-17 11:30:08,0.0
-12340,-3448,-4576,15242,5829,1561,2025-02-17 11:30:08,0.0
-13144,-3396,-4344,14900,6114,1754,2025-02-17 11:30:08,0.0
-13856,-3276,-3828,14678,5661,2167,2025-02-17 11:30:08,0.0
-14464,-2988,-3428,15244,4143,2523,2025-02-17 11:30:08,0.0
-14772,-3092,-3020,15746,2308,3236,2025-02-17 11:30:08,0.0
-14032,-3560,-3512,16465,924,3860,2025-02-17 11:30:08,0.0
-13328,-3928,-4052,16881,455,4324,2025-02-17 11:30:08,0.0
-12528,-4352,-4448,17217,1102,4784,2025-02-17 11:30:08,0.0
-12456,-4272,-4900,17200,2357,5147,2025-02-17 11:30:08,0.0
-13076,-3452,-5376,16526,3183,5206,2025-02-17 11:30:08,0.0
-13888,-3120,-4324,16082,3049,5356,2025-02-17 11:30:08,0.0
-13936,-3560,-4444,16280,2126,5498,2025-02-17 11:30:08,0.0
-14272,-3724,-4420,16307,700,5708,2025-02-17 11:30:08,0.0
-13596,-3892,-5084,16005,-1073,6291,2025-02-17 11:30:08,0.0
-12784,-3928,-5032,15789,-2115,6589,2025-02-17 11:30:08,0.0
-11632,-4100,-4756,15739,-1774,6643,2025-02-17 11:30:08,0.0
-11584,-3820,-4420,15250,-145,6811,2025-02-17 11:30:08,0.0
-11820,-3472,-4148,14670,1085,7009,2025-02-17 11:30:08,0.0
-12160,-3228,-4244,14115,1315,7311,2025-02-17 11:30:08,0.0
-12112,-2652,-4280,13154,683,7729,2025-02-17 11:30:09,0.0
-11856,-2756,-4604,12074,-167,7981,2025-02-17 11:30:10,0.0
-11336,-3160,-3992,11695,-757,8056,2025-02-17 11:30:10,0.0
-10816,-3436,-3400,11585,-1743,7952,2025-02-17 11:30:10,0.0
-9904,-3676,-3972,11389,-3161,7667,2025-02-17 11:30:10,0.0
-9812,-2664,-4432,11204,-2830,6658,2025-02-17 11:30:10,0.0
-10468,-560,-4464,11770,2098,4429,2025-02-17 11:30:10,0.0
-10868,376,-6128,12645,5288,1375,2025-02-17 11:30:10,0.0
-13200,88,-5720,12901,1998,496,2025-02-17 11:30:10,0.0
-14080,-1040,-2652,12435,-1741,1933,2025-02-17 11:30:10,0.0
-13396,-2900,-3032,-2955,1690,-3956,2025-02-17 11:30:10,0.0
-14252,-2648,-1600,-2551,26,-3447,2025-02-17 11:30:10,0.0
-13780,-2920,-1752,-2437,-1175,-2728,2025-02-17 11:30:10,0.0
-12724,-3044,-1792,-2504,-1792,-2400,2025-02-17 11:30:10,0.0
-11372,-3500,-1864,-2485,-1856,-1937,2025-02-17 11:30:10,0.0
-10708,-3812,-1032,-2127,-649,-1608,2025-02-17 11:30:10,0.0
-10748,-4084,-768,-1180,1227,-1181,2025-02-17 11:30:10,0.0
-11236,-3652,-1344,-832,2340,-875,2025-02-17 11:30:10,0.0
-12256,-3492,-1736,-700,2767,-702,2025-02-17 11:30:10,0.0
-12144,-3832,-2512,-559,2475,-409,2025-02-17 11:30:10,0.0
-12580,-3852,-1544,-259,2013,41,2025-02-17 11:30:10,
-12396,-3732,-2556,126,2190,687,2025-02-17 11:30:10,0.0
-11908,-3352,-3064,184,3012,1036,2025-02-17 11:30:10,0.0
-12872,-2384,-2520,171,3675,1186,2025-02-17 11:30:10,0.0
-13344,-2000,-4072,-449,4602,1222,2025-02-17 11:30:10,0.0
-14040,-3572,-3740,-1759,4830,198,2025-02-17 11:30:10,0.0
-14392,-4692,-2600,-1628,3718,-896,2025-02-17 11:30:10,0.0
-15488,-4304,-3188,-873,1099,-1020,2025-02-17 11:30:11,0.0
-15632,-2708,-2604,-1073,-492,-439,2025-02-17 11:30:11,0.0
-14928,-2744,-2204,-1423,-83,-910,2025-02-17 11:30:11,0.0
-15248,-2920,-1876,-2024,-158,-1577,2025-02-17 11:30:11,0.0
-14844,-4280,-4088,-3280,-248,-1419,2025-02-17 11:30:11,0.0
-14648,-5460,-3756,-2926,143,-1544,2025-02-17 11:30:11,0.0
-16040,-5772,-4068,-1380,2549,-1285,2025-02-17 11:30:11,0.0
-16440,-6852,-4604,-472,3576,-1523,2025-02-17 11:30:11,0.0
-18356,-7656,-6076,239,1856,-592,2025-02-17 11:30:11,0.0
-17300,-7484,-6920,1299,-577,461,2025-02-17 11:30:11,0.0
-16080,-6396,-7520,2260,-2130,1063,2025-02-17 11:30:11,0.0
-14276,-5172,-7172,2352,-3408,1443,2025-02-17 11:30:11,0.0
-12800,-4000,-6728,2529,-5677,2291,2025-02-17 11:30:11,0.0
-11096,-2692,-7500,2391,-7474,3471,2025-02-17 11:30:11,0.0
-9224,-1152,-6944,2361,-8277,4349,2025-02-17 11:30:11,0.0
-8376,452,-6564,3076,-7050,4451,2025-02-17 11:30:11,0.0
-7940,1476,-5824,3782,-3224,3529,2025-02-17 11:30:11,0.0
-8960,1500,-5276,4184,-67,2063,2025-02-17 11:30:11,0.0
-11008,412,-4860,3843,1507,1418,2025-02-17 11:30:11,0.0
-13020,-1016,-5048,3255,1929,1801,2025-02-17 11:30:11,0.0
-13872,-3508,-5104,2948,2830,2655,2025-02-17 11:30:11,0.0
-14208,-4492,-4492,3486,3709,4040,2025-02-17 11:30:11,0.0
-14624,-4100,-4592,3960,3752,5214,2025-02-17 11:30:11,0.0
-14148,-3124,-5676,4126,2893,6047,2025-02-17 11:30:11,0.0
-13992,-2128,-5668,4075,1023,6544,2025-02-17 11:30:11,0.0
-12924,-1180,-5132,4146,-1513,6527,2025-02-17 11:30:11,0.0
-11372,-636,-5392,4347,-3197,6581,2025-02-17 11:30:11,0.0
-10320,-100,-4860,4840,-3219,6760,2025-02-17 11:30:11,0.0
-9940,408,-4660,5305,-2561,6769,2025-02-17 11:30:11,0.0
-11568,-2184,-3824,5743,-2316,8252,2025-02-17 11:30:11,0.0
-8948,12,-5452,7054,-4341,6257,2025-02-17 11:30:11,0.0
-9120,1444,-3860,6730,-4192,5149,2025-02-17 11:30:11,0.0
-9228,1232,-3572,6108,-2815,4268,2025-02-17 11:30:11,0.0
-11600,1400,-4728,4986,-1347,4453,2025-02-17 11:30:11,0.0
-10496,1416,-4144,4448,-779,3724,2025-02-17 11:30:11,0.0
-11396,1116,-4144,3952,-353,2818,2025-02-17 11:30:11,0.0
-11628,1196,-4252,3734,-104,1894,2025-02-17 11:30:11,0.0
-11204,700,-4132,3371,218,937,2025-02-17 11:30:11,0.0
-11144,244,-3520,3018,1041,280,2025-02-17 11:30:11,0.0
-11652,-276,-2656,3162,918,-187,2025-02-17 11:30:11,0.0
-11988,36,-2948,3004,481,-222,2025-02-17 11:30:11,0.0
-11584,240,-2436,2448,-350,-246,2025-02-17 11:30:11,0.0
-12124,1124,-2600,2108,-1027,650,2025-02-17 11:30:11,0.0
-12912,1596,-2656,1669,-2585,1180,2025-02-17 11:30:11,0.0
-14748,1144,-1396,1492,-4278,2302,2025-02-17 11:30:11,0.0
-16132,268,-1680,1909,-6339,3541,2025-02-17 11:30:11,0.0
-13376,116,1464,2688,-6973,3768,2025-02-17 11:30:11,0.0
-12808,352,-684,3532,-7679,2961,2025-02-17 11:30:11,0.0
-7204,2696,-848,4806,-9133,-173,2025-02-17 11:30:11,0.0
-12084,2376,-4576,3290,-4630,-3346,2025-02-17 11:30:11,0.0
-17252,260,-1076,2381,3482,-1254,2025-02-17 11:30:11,0.0
-18148,-372,1320,2662,2851,120,2025-02-17 11:30:11,0.0
-14176,-1364,704,4126,-3780,-1567,2025-02-17 11:30:11,0.0
-14264,96,920,4561,-2805,-1871,2025-02-17 11:30:11,0.0
-15788,1008,464,4863,-1271,-839,2025-02-17 11:30:11,0.0
-15892,232,-776,6435,-1056,-624,2025-02-17 11:30:11,0.0
-19752,1040,-3144,6848,-266,61,2025-02-17 11:30:11,0.0
-21444,1752,-6376,6217,1082,1731,2025-02-17 11:30:11,0.0
-18084,1724,-8016,4568,632,2820,2025-02-17 11:30:11,0.0
-13220,-776,-6696,3186,-1368,1367,2025-02-17 11:30:11,0.0
-12432,-960,-6892,2546,-1516,1014,2025-02-17 11:30:11,0.0
-10180,-896,-6328,2745,467,805,2025-02-17 11:30:11,0.0
-10124,-900,-5896,2711,2037,260,2025-02-17 11:30:12,0.0
-11980,-876,-6292,1095,2514,274,2025-02-17 11:30:12,0.0
-8864,-580,-7172,-1645,5538,-1326,2025-02-17 11:30:12,0.0
-12108,-476,-5144,-2605,5996,-2655,2025-02-17 11:30:12,0.0
-14204,-812,-5376,-3222,4575,-2991,2025-02-17 11:30:12,0.0
-14868,-1064,-6824,-4384,2043,-3400,2025-02-17 11:30:12,0.0
-13416,-1540,-6416,-4529,38,-4443,2025-02-17 11:30:12,0.0
-12156,-1568,-5636,-4178,-300,-4716,2025-02-17 11:30:12,0.0
-10636,-1840,-5088,-3850,-155,-4596,2025-02-17 11:30:12,0.0
-9940,-1892,-4788,-3931,159,-4632,2025-02-17 11:30:12,0.0
-9848,-2028,-4152,-4339,1180,-4429,2025-02-17 11:30:12,0.0
-10484,-1988,-4088,-4491,2837,-3731,2025-02-17 11:30:12,0.0
-11004,-2428,-3976,-4301,3774,-2954,2025-02-17 11:30:12,0.0
-12256,-2872,-3864,-2668,3039,-2070,2025-02-17 11:30:12,0.0
-12332,-1836,-4700,-2640,2070,-1693,2025-02-17 11:30:12,0.0
-12668,-1412,-4704,-3272,1898,-2023,2025-02-17 11:30:12,0.0
-12636,-1548,-4448,-4130,1868,-2282,2025-02-17 11:30:12,0.0
-12584,-2204,-3596,-4187,1502,-2652,2025-02-17 11:30:12,0.0
-12972,-2920,-2796,-2924,425,-2635,2025-02-17 11:30:12,0.0
-13436,-2724,-4024,-1857,-1313,-1676,2025-02-17 11:30:12,0.0
-12880,-2392,-4512,-1709,-2451,-463,2025-02-17 11:30:12,0.0
-11812,-2516,-4064,-1622,-3044,-57,2025-02-17 11:30:12,0.0
-11548,-2764,-3636,-1026,-3642,41,2025-02-17 11:30:12,0.0
-12276,-2712,-3508,-732,-2793,659,2025-02-17 11:30:12,0.0
-11428,-2736,-2788,-564,-2034,1827,2025-02-17 11:30:12,0.0
-10288,-2924,-2944,545,-1480,1876,2025-02-17 11:30:12,0.0
-13280,-3884,-4004,18272,-749,2598,2025-02-17 11:30:12,0.0
-12700,-3824,-3060,18919,-1929,2860,2025-02-17 11:30:12,0.0
-10640,-3540,-772,21306,-2938,2355,2025-02-17 11:30:12,0.0
-10640,-3384,-4224,22554,-2940,858,2025-02-17 11:30:12,0.0
-11936,-3448,-5044,21926,-1246,-73,2025-02-17 11:30:12,0.0
-12664,-4236,-5084,21152,641,-491,2025-02-17 11:30:12,
-13660,-4664,-5384,20181,1346,-582,2025-02-17 11:30:12,0.0
-14888,-4172,-5244,18519,-671,-410,2025-02-17 11:30:12,0.0
-14544,-3260,-3912,18499,-2351,-36,2025-02-17 11:30:12,0.0
-13072,-2724,-4288,18324,-2921,-486,2025-02-17 11:30:12,0.0
-11748,-2688,-4924,17489,-1935,-1914,2025-02-17 11:30:12,0.0
-12108,-2868,-5768,15427,1036,-3325,2025-02-17 11:30:12,0.0
-14228,-3704,-3844,14081,3806,-2921,2025-02-17 11:30:12,0.0
-16872,-4096,-112,14559,7315,-216,2025-02-17 11:30:12,0.0
-12692,-3936,-2056,14580,9298,2019,2025-02-17 11:30:12,0.0
-7356,-4280,-2756,10912,6973,1617,2025-02-17 11:30:12,0.0
-6732,-5100,1248,7688,2344,618,2025-02-17 11:30:12,0.0
-9272,-5504,4592,8430,1345,2783,2025-02-17 11:30:12,0.0
-9884,-5704,5872,11625,4135,7169,2025-02-17 11:30:12,0.0
-9100,-6244,5648,15291,9711,10988,2025-02-17 11:30:12,0.0
-8220,-5836,4640,18679,17620,14814,2025-02-17 11:30:12,0.0
-5184,-4924,2124,20406,27373,18562,2025-02-17 11:30:12,0.0
-3528,-3308,308,18675,32767,22407,2025-02-17 11:30:13,0.0
-224,-2016,-1204,14257,32767,26323,2025-02-17 11:30:13,0.0
3076,-1664,-3192,8403,32767,27202,2025-02-17 11:30:13,0.0
4228,-1896,-156,3801,32767,26357,2025-02-17 11:30:13,0.0
3280,-1816,1808,1397,30657,25543,2025-02-17 11:30:13,0.0
2620,-1820,2408,148,30017,25316,2025-02-17 11:30:13,0.0
2628,-1928,2068,-1438,29611,24908,2025-02-17 11:30:13,0.0
2692,-1700,2144,-2652,29419,24480,2025-02-17 11:30:13,0.0
2680,-1628,2216,-3645,29295,23984,2025-02-17 11:30:13,0.0
2760,-1472,2256,-4556,29011,23356,2025-02-17 11:30:13,0.0
2948,-1368,2312,-5227,28552,22789,2025-02-17 11:30:13,0.0
2864,-1456,2356,-5849,27985,22196,2025-02-17 11:30:13,0.0
2880,-1360,2532,-6366,27385,21672,2025-02-17 11:30:13,0.0
2836,-1328,2268,-6757,26895,21107,2025-02-17 11:30:13,0.0
2812,-1256,2192,-7223,26393,20530,2025-02-17 11:30:13,0.0
3140,-1496,2416,-7447,25862,19931,2025-02-17 11:30:13,0.0
3056,-1272,2168,-7786,25206,19324,2025-02-17 11:30:13,0.0
3116,-1128,2028,-8026,24367,18583,2025-02-17 11:30:13,0.0
3244,-1064,1824,-8264,23470,17818,2025-02-17 11:30:13,0.0
3340,-956,1852,-8413,22492,16985,2025-02-17 11:30:13,0.0
3712,-888,2104,-8354,21691,16044,2025-02-17 11:30:13,0.0
3608,-788,2008,-7992,20407,15157,2025-02-17 11:30:13,0.0
2524,-676,2728,-18117,-32768,9653,2025-02-17 11:30:13,0.0
-6532,-1456,8100,-16210,-32768,11062,2025-02-17 11:30:13,0.0
-25572,-4516,22296,-6071,-23833,16948,2025-02-17 11:30:13,0.0
-22236,-6124,32767,10659,11241,16003,2025-02-17 11:30:13,0.0
-19280,280,26508,11123,22311,4390,2025-02-17 11:30:13,0.0
-22228,10088,14300,1952,25798,-123,2025-02-17 11:30:13,0.0
-15304,9908,10332,422,32767,-242,2025-02-17 11:30:13,0.0
-9028,5816,6712,2848,32767,-169,2025-02-17 11:30:13,0.0
-4736,4276,3496,4516,32767,920,2025-02-17 11:30:13,0.0
-2884,4828,1036,5659,32767,-299,2025-02-17 11:30:13,0.0
-7036,6848,-4900,4723,32767,-5284,2025-02-17 11:30:13,0.0
-11544,8792,-8304,1536,32767,-8372,2025-02-17 11:30:13,0.0
-15668,9636,-3620,1857,30904,-7481,2025-02-17 11:30:13,0.0
-14620,6940,-7020,3058,24326,-3670,2025-02-17 11:30:13,0.0
-13640,4204,-8620,2039,19865,-3355,2025-02-17 11:30:13,0.0
-12524,3444,-8276,263,15423,-1494,2025-02-17 11:30:13,0.0
-10528,4148,-7540,-757,10232,-220,2025-02-17 11:30:13,0.0
-9756,5128,-6492,-456,5506,-221,2025-02-17 11:30:13,0.0
-10284,6044,-5848,-356,740,595,2025-02-17 11:30:13,0.0
-10780,6872,-5236,-6,-2120,-469,2025-02-17 11:30:13,0.0
-9388,4544,-5152,337,-3812,-155,2025-02-17 11:30:13,0.0
-12260,5276,-4804,151,-3451,-215,2025-02-17 11:30:13,0.0
-11744,4832,-4676,-50,-2579,-126,2025-02-17 11:30:13,0.0
-12308,5404,-4104,-250,-1183,149,2025-02-17 11:30:13,0.0
-6992,4208,-6204,324,-1529,804,2025-02-17 11:30:13,0.0
-15656,6528,-2952,46,-1156,-197,2025-02-17 11:30:13,0.0
-11216,5328,-4280,-57,-11,-473,2025-02-17 11:30:13,0.0
-11920,5012,-4312,-116,897,-243,2025-02-17 11:30:13,0.0
-11488,5204,-4660,-173,1133,-193,2025-02-17 11:30:14,0.0
-11196,5468,-5400,-129,622,-143,2025-02-17 11:30:14,0.0
-11172,5144,-5024,-127,-35,-295,2025-02-17 11:30:14,0.0
-11692,5264,-4924,-139,-393,-128,2025-02-17 11:30:14,0.0
-11588,5408,-4504,-163,-178,-151,2025-02-17 11:30:14,0.0
-11344,5392,-4536,-152,171,-172,2025-02-17 11:30:14,0.0
-11484,5292,-4732,-120,455,-239,2025-02-17 11:30:14,0.0
-11500,5304,-5072,-127,390,-228,2025-02-17 11:30:14,0.0
-11488,5340,-4952,-112,136,-181,2025-02-17 11:30:14,0.0
-11468,5368,-4892,-172,51,-157,2025-02-17 11:30:14,0.0
-11420,5328,-4728,-145,152,-194,2025-02-17 11:30:14,0.0
-11468,5364,-4720,-130,253,-180,2025-02-17 11:30:14,0.0
-11496,5204,-4744,-139,221,-191,2025-02-17 11:30:14,0.0
-11412,5200,-4872,-177,119,-183,2025-02-17 11:30:14,0.0
-11548,5296,-4748,-156,125,-169,2025-02-17 11:30:14,0.0
-11556,5308,-4760,-164,167,-173,2025-02-17 11:30:14,0.0
-11460,5288,-4740,-143,209,-200,2025-02-17 11:30:14,0.0
-11464,5280,-4840,-132,167,-189,2025-02-17 11:30:14,0.0
-11456,5284,-4800,-127,143,-187,2025-02-17 11:30:14,0.0
-11512,5396,-4764,-155,163,-152,2025-02-17 11:30:14,0.0
-11500,5268,-4872,-172,189,-183,2025-02-17 11:30:14,0.0
-11496,5300,-4868,-121,200,-178,2025-02-17 11:30:14,0.0
-11432,5324,-4756,-150,216,-198,2025-02-17 11:30:14,0.0
-11440,5356,-4952,-168,162,-209,2025-02-17 11:30:14,0.0
-11468,5208,-4520,-144,199,-173,2025-02-17 11:30:14,0.0
-11440,5324,-4780,-172,175,-167,2025-02-17 11:30:14,0.0
-11512,5368,-4760,-148,182,-193,2025-02-17 11:30:14,0.0
-11512,5400,-4848,-151,167,-185,2025-02-17 11:30:14,0.0
-11456,5252,-4808,-134,173,-172,2025-02-17 11:30:14,0.0
-11364,5292,-4704,-144,154,-189,2025-02-17 11:30:14,0.0
-11504,5312,-4812,-151,190,-157,2025-02-17 11:30:14,0.0
-11492,5460,-4852,-151,208,-170,2025-02-17 11:30:14,0.0
-11520,5364,-4844,-152,171,-189,2025-02-17 11:30:14,0.0
-11452,5344,-4724,-136,164,-186,2025-02-17 11:30:14,
-11396,5312,-4744,-140,159,-187,2025-02-17 11:30:14,0.0
-11536,5384,-4788,-148,192,-209,2025-02-17 11:30:14,0.0
-11412,5304,-4852,-152,175,-166,2025-02-17 11:30:14,0.0
-11480,5228,-4696,-130,164,-174,2025-02-17 11:30:14,0.0
-11364,5244,-4812,-117,188,-184,2025-02-17 11:30:14,0.0
-11444,5308,-4804,-152,177,-191,2025-02-17 11:30:14,0.0
-11408,5348,-4888,-154,155,-207,2025-02-17 11:30:14,0.0
-11476,5284,-4824,-161,175,-167,2025-02-17 11:30:14,0.0
-11484,5344,-4936,-148,169,-167,2025-02-17 11:30:14,0.0
-11604,5304,-4796,-164,175,-174,2025-02-17 11:30:14,0.0
-11540,5256,-4768,-147,189,-179,2025-02-17 11:30:14,0.0
-11520,5360,-4896,-142,174,-169,2025-02-17 11:30:14,0.0
-11432,5332,-4788,-173,173,-190,2025-02-17 11:30:14,0.0
-11360,5260,-4964,-161,191,-201,2025-02-17 11:30:14,0.0
-11416,5312,-4788,-141,194,-193,2025-02-17 11:30:14,0.0
-11460,5276,-4880,-135,192,-193,2025-02-17 11:30:14,0.0
-11536,5280,-4764,-147,179,-186,2025-02-17 11:30:14,0.0
-11632,5148,-4508,-154,200,-194,2025-02-17 11:30:14,0.0
-11444,5356,-4796,-140,193,-191,2025-02-17 11:30:14,0.0
-11468,5284,-4692,-116,175,-189,2025-02-17 11:30:14,0.0
-11528,5308,-4872,-156,180,-188,2025-02-17 11:30:14,0.0
-11416,5268,-4872,-133,185,-193,2025-02-17 11:30:14,0.0
-11476,5340,-4808,-182,175,-189,2025-02-17 11:30:14,0.0
-11540,5280,-4628,-161,180,-189,2025-02-17 11:30:14,0.0
-11512,5284,-4812,-169,188,-182,2025-02-17 11:30:14,0.0
-11500,5276,-4844,-178,180,-166,2025-02-17 11:30:14,0.0
-11396,5268,-4820,-143,178,-203,2025-02-17 11:30:14,0.0
-11452,5304,-4756,-134,207,-181,2025-02-17 11:30:15,0.0
-11484,5300,-4748,-149,174,-180,2025-02-17 11:30:15,0.0
-11540,5296,-4772,-153,155,-172,2025-02-17 11:30:15,0.0
-11408,5296,-4840,-114,166,-194,2025-02-17 11:30:15,0.0
-11628,5268,-4828,-157,179,-156,2025-02-17 11:30:15,0.0
-11468,5344,-4736,-131,175,-191,2025-02-17 11:30:15,0.0
-11640,5320,-4884,-155,174,-204,2025-02-17 11:30:15,0.0
-11432,5264,-4824,-157,143,-179,2025-02-17 11:30:15,0.0
-11440,5284,-4800,-147,184,-194,2025-02-17 11:30:15,0.0
-11356,5380,-5108,-209,180,-194,2025-02-17 11:30:15,0.0
-11320,5468,-4740,-65,-20,-168,2025-02-17 11:30:15,0.0
-10572,5148,-5228,-293,99,-739,2025-02-17 11:30:15,0.0
-11464,6740,-2260,535,-1187,-627,2025-02-17 11:30:15,0.0
-8312,3748,-5432,101,345,-2483,2025-02-17 11:30:15,0.0
-12344,4880,-4968,880,434,-1794,2025-02-17 11:30:15,0.0
-11052,3528,-3460,806,1344,-1814,2025-02-17 11:30:15,0.0
-12476,3956,-4680,1738,2956,-1441,2025-02-17 11:30:15,0.0
-12064,4492,-4940,1471,4458,-1472,2025-02-17 11:30:15,0.0
-12068,5604,-6144,590,5412,-1487,2025-02-17 11:30:15,0.0
-12280,6452,-6896,-251,3773,-721,2025-02-17 11:30:15,0.0
-12284,5752,-6516,-982,747,1005,2025-02-17 11:30:15,0.0
-10572,5928,-5032,81,-800,632,2025-02-17 11:30:15,0.0
-10760,3656,-6664,-837,-664,877,2025-02-17 11:30:15,0.0
-13468,6380,-2112,1411,-1286,1688,2025-02-17 11:30:15,0.0
-12304,4108,-5748,2229,-7,2088,2025-02-17 11:30:15,0.0
-13740,5612,-6700,-1360,4985,3453,2025-02-17 11:30:15,0.0
-12644,6768,-8228,810,9772,2224,2025-02-17 11:30:15,0.0
-14412,7204,-7076,4170,18209,653,2025-02-17 11:30:15,0.0
-16932,8852,-10040,8723,30600,691,2025-02-17 11:30:15,0.0
-16720,9340,-15468,10579,32767,2439,2025-02-17 11:30:15,0.0
-13248,8660,-16536,10850,32767,3616,2025-02-17 11:30:15,0.0
-11344,6784,-17828,10358,32767,4635,2025-02-17 11:30:15,0.0
-9832,6028,-18948,6408,32767,7609,2025-02-17 11:30:15,0.0
-3632,3664,-19504,931,32767,8690,2025-02-17 11:30:15,0.0
-1180,4536,-19052,-2285,18930,6870,2025-02-17 11:30:15,0.0
-1200,6504,-16844,-2126,3171,5502,2025-02-17 11:30:15,0.0
-2368,7132,-16916,-1045,-8190,4500,2025-02-17 11:30:15,0.0
-5712,5644,-16896,-861,-12978,4910,2025-02-17 11:30:15,0.0
-4780,4836,-16756,-143,-12696,4308,2025-02-17 11:30:15,0.0
-3352,5384,-16952,937,-11359,2358,2025-02-17 11:30:15,0.0
-4444,6016,-19056,922,-9738,790,2025-02-17 11:30:15,0.0
-5960,5072,-17408,864,-4328,282,2025-02-17 11:30:15,0.0
-5972,4900,-17376,1067,-2593,1781,2025-02-17 11:30:15,0.0
-4736,4476,-18672,1474,-124,1663,2025-02-17 11:30:15,0.0
-5952,4068,-18352,802,2295,1993,2025-02-17 11:30:15,0.0
-6652,3572,-16180,1644,4786,2309,2025-02-17 11:30:15,0.0
-5448,3772,-14572,1453,7162,1989,2025-02-17 11:30:15,0.0
-4476,3948,-14516,2600,7070,2232,2025-02-17 11:30:15,0.0
-5376,3852,-16928,2814,6629,3282,2025-02-17 11:30:15,0.0
-5308,4256,-16148,1797,5792,6177,2025-02-17 11:30:15,0.0
-5184,4096,-13688,1523,4885,7817,2025-02-17 11:30:15,0.0
-4572,3576,-14196,672,3741,8738,2025-02-17 11:30:15,0.0
-2700,3252,-15884,-1360,185,9633,2025-02-17 11:30:15,0.0
-1352,2592,-14904,-3230,-4591,9009,2025-02-17 11:30:16,0.0
-1624,1376,-12852,-3899,-9610,8392,2025-02-17 11:30:16,0.0
-2148,852,-13272,-2451,-14517,9048,2025-02-17 11:30:16,0.0
-748,252,-14692,-512,-17968,10260,2025-02-17 11:30:16,0.0
1444,1388,-15376,-2400,-19247,9168,2025-02-17 11:30:16,0.0
-784,2836,-11512,-3128,-18800,7024,2025-02-17 11:30:16,0.0
-3552,4540,-9524,-4129,-16987,6775,2025-02-17 11:30:16,0.0
-3472,5760,-7396,-5283,-14672,7956,2025-02-17 11:30:16,0.0
-2332,5736,-5388,-4427,-12894,8238,2025-02-17 11:30:16,0.0
-4500,6660,-9408,-3476,-3112,3479,2025-02-17 11:30:16,0.0
-4040,7524,-9312,-4036,-2049,3467,2025-02-17 11:30:16,0.0
-1948,8564,-8064,-4292,-4266,3622,2025-02-17 11:30:16,0.0
-1772,8968,-6336,-3694,-7091,2291,2025-02-17 11:30:16,0.0
-3056,9260,-6020,-2220,-9043,948,2025-02-17 11:30:16,0.0
-4484,9408,-6748,-1620,-9600,-339,2025-02-17 11:30:16,0.0
-5556,10120,-6504,-392,-10114,184,2025-02-17 11:30:16,0.0
-4524,9952,-6380,1335,-12226,1724,2025-02-17 11:30:16,0.0
-1972,8704,-5072,3455,-16571,2823,2025-02-17 11:30:16,0.0
-2376,7872,-3800,5671,-21226,3485,2025-02-17 11:30:16,0.0
-1900,6780,-4324,7751,-24503,4213,2025-02-17 11:30:16,
-1292,5740,-4876,8799,-24945,2377,2025-02-17 11:30:16,0.0
-3988,5016,-4488,8359,-22769,15,2025-02-17 11:30:16,0.0
-8268,6512,-464,9769,-20347,910,2025-02-17 11:30:16,0.0
-2072,5112,-5324,10751,-18410,-533,2025-02-17 11:30:16,0.0
-6024,4668,-5692,11076,-16226,-3254,2025-02-17 11:30:16,0.0
-4744,4396,-4256,10781,-14534,-3797,2025-02-17 11:30:16,0.0
-4248,4004,-4432,11563,-14335,-5218,2025-02-17 11:30:16,0.0
-4016,4360,-4932,10444,-14563,-6178,2025-02-17 11:30:16,0.0
-3936,4228,-2500,11088,-16052,-9237,2025-02-17 11:30:16,0.0
-7168,4876,-3616,11294,-17733,-11269,2025-02-17 11:30:16,0.0
-8680,5192,-3064,10666,-17723,-12455,2025-02-17 11:30:16,0.0
-9620,4524,-1176,11321,-16921,-13544,2025-02-17 11:30:16,0.0
-10468,4416,-1468,13057,-16639,-12282,2025-02-17 11:30:16,0.0
-9896,4304,-2584,13519,-16443,-9816,2025-02-17 11:30:16,0.0
-9232,4516,-2552,12836,-15780,-9013,2025-02-17 11:30:16,0.0
-9744,5488,-1820,11709,-13790,-9017,2025-02-17 11:30:16,0.0
-13424,2896,-996,11701,-8975,-8377,2025-02-17 11:30:16,0.0
-15444,2684,-336,11290,-3507,-6382,2025-02-17 11:30:16,0.0
-15292,3240,-60,10983,1986,-4000,2025-02-17 11:30:16,0.0
-13496,4044,-520,11319,5268,-1571,2025-02-17 11:30:16,0.0
-10288,4180,-1888,11416,6903,-570,2025-02-17 11:30:16,0.0
-8660,3696,-1916,11122,7296,-1348,2025-02-17 11:30:16,0.0
-9148,2620,-1744,10278,7057,-2869,2025-02-17 11:30:16,0.0
-10740,1584,-2568,9627,7349,-3917,2025-02-17 11:30:16,0.0
-8920,-2828,6524,11327,2758,-3503,2025-02-17 11:30:16,0.0
-18320,-2212,-124,7100,-959,-3699,2025-02-17 11:30:16,0.0
-19116,344,-5084,3600,2264,-3128,2025-02-17 11:30:16,0.0
-16188,-700,-3336,5597,671,-2853,2025-02-17 11:30:16,0.0
-15560,-864,-3144,8343,-7980,-2493,2025-02-17 11:30:16,0.0
-15640,-864,-2340,8883,-14805,-2205,2025-02-17 11:30:16,0.0
-16444,188,-2548,7941,-16049,-1499,2025-02-17 11:30:16,0.0
-12576,564,-1976,4858,-9894,-671,2025-02-17 11:30:16,0.0
-11460,-476,-1008,4718,-2595,539,2025-02-17 11:30:16,0.0
-11120,-1148,-1260,4201,3744,921,2025-02-17 11:30:16,0.0
-11856,-1644,-1240,3968,5735,582,2025-02-17 11:30:16,0.0
-12512,-1336,-2372,2796,4963,-291,2025-02-17 11:30:16,0.0
-12588,-1172,-2724,935,3862,-2027,2025-02-17 11:30:16,0.0
-10556,-732,-2508,-920,3177,-5029,2025-02-17 11:30:16,0.0
-12760,-384,-2456,-2485,3512,-7078,2025-02-17 11:30:16,0.0
-14916,732,-476,-2862,4669,-6682,2025-02-17 11:30:16,0.0
-14476,248,-1148,-2448,3706,-6247,2025-02-17 11:30:16,0.0
-14492,-1608,-2096,-2912,712,-6211,2025-02-17 11:30:16,0.0
-14832,-2408,-1648,-3114,-843,-4601,2025-02-17 11:30:16,0.0
-13184,-2664,-1152,-3371,-127,-3888,2025-02-17 11:30:16,0.0
-12920,-2244,-604,-3956,1454,-3839,2025-02-17 11:30:17,0.0
-12724,-2520,-608,-4433,2958,-3735,2025-02-17 11:30:17,0.0
-12528,-3168,-188,-4059,4052,-4153,2025-02-17 11:30:17,0.0
-13500,-3264,-1108,-3177,4742,-4304,2025-02-17 11:30:17,0.0
-12700,-4316,-1108,-2418,5127,-2828,2025-02-17 11:30:17,0.0
-12652,-4116,-2128,-749,6119,-2718,2025-02-17 11:30:17,0.0
-11700,-2936,-2076,-2056,6483,-5132,2025-02-17 11:30:17,0.0
-13960,-3280,-2508,-2220,5129,-6380,2025-02-17 11:30:17,0.0
-14504,-4036,-1560,-1819,3765,-5589,2025-02-17 11:30:17,0.0
-14464,-4292,-2632,-666,1429,-4338,2025-02-17 11:30:17,0.0
-13484,-3624,-2568,-903,660,-4393,2025-02-17 11:30:17,0.0
-15388,-3920,-2956,123,1614,-1702,2025-02-17 11:30:17,0.0
-11904,-3564,-3712,-344,2994,-1449,2025-02-17 11:30:17,0.0
-12156,-3768,-2308,-1018,2518,-3055,2025-02-17 11:30:17,0.0
-13008,-4328,-2716,-1338,671,-3821,2025-02-17 11:30:17,0.0
-13672,-4644,-1136,-906,535,-3608,2025-02-17 11:30:17,0.0
-13960,-4472,-1876,-968,681,-2791,2025-02-17 11:30:17,0.0
-13288,-4472,-1836,-1376,799,-2277,2025-02-17 11:30:17,0.0
-12760,-4228,-2136,-2039,1223,-2046,2025-02-17 11:30:17,0.0
-11808,-4216,-1556,-2499,1766,-2612,2025-02-17 11:30:17,0.0
-11344,-4396,-1328,-2430,2484,-4145,2025-02-17 11:30:17,0.0
-14332,-4372,-1852,-1893,1097,-2570,2025-02-17 11:30:17,0.0
-12404,-4752,-1456,-1435,1379,435,2025-02-17 11:30:17,0.0
-11532,-4708,-2656,-1529,2107,194,2025-02-17 11:30:17,0.0
-12452,-4260,-3268,-2619,2501,752,2025-02-17 11:30:17,0.0
-12024,-4740,-2772,-3600,3717,1199,2025-02-17 11:30:17,0.0
-12112,-5304,-1668,-3189,4846,1505,2025-02-17 11:30:17,0.0
-12944,-5236,-1384,-2655,6006,1814,2025-02-17 11:30:17,0.0
-13384,-4864,-824,-1945,5526,1565,2025-02-17 11:30:17,0.0
-14172,-5004,-1824,-1692,4129,1758,2025-02-17 11:30:17,0.0
-12628,-4160,-2868,-2146,2000,1168,2025-02-17 11:30:17,0.0
-11708,-4636,-1756,-2379,935,823,2025-02-17 11:30:17,0.0
-13896,-4980,-2628,-1531,163,803,2025-02-17 11:30:17,0.0
-13220,-5132,-2592,-2266,701,1224,2025-02-17 11:30:17,0.0
-13904,-5444,-1432,-1886,972,1620,2025-02-17 11:30:17,0.0
-13832,-5664,-1864,-1304,667,1678,2025-02-17 11:30:17,0.0
-13496,-6164,-2636,-1178,868,1727,2025-02-17 11:30:17,0.0
-14160,-5992,-5504,-1384,1605,1275,2025-02-17 11:30:17,0.0
-14596,-6092,-5076,-2296,2702,594,2025-02-17 11:30:17,0.0
-15556,-6988,-2984,-1741,2307,-19,2025-02-17 11:30:17,0.0
-16472,-7020,-2780,-284,725,560,2025-02-17 11:30:17,0.0
-16144,-6808,-3912,876,-849,1048,2025-02-17 11:30:17,0.0
-15908,-5852,-4812,704,-1973,933,2025-02-17 11:30:17,0.0
-14672,-4480,-4992,254,-4533,72,2025-02-17 11:30:17,0.0
-14704,-3812,-4208,747,-8204,-172,2025-02-17 11:30:17,0.0
-12476,-3624,-5732,1048,-11360,414,2025-02-17 11:30:17,0.0
-11612,-3108,-5808,1610,-13174,1227,2025-02-17 11:30:17,0.0
-10836,-2076,-6436,2171,-13148,1520,2025-02-17 11:30:17,0.0
-10500,-1356,-7708,1882,-11775,1405,2025-02-17 11:30:17,0.0
-9640,-1096,-7340,1481,-8746,956,2025-02-17 11:30:17,0.0
-9656,-932,-6044,1353,-5360,-84,2025-02-17 11:30:17,0.0
-11068,-1316,-4564,852,-1849,-520,2025-02-17 11:30:17,0.0
-12568,-2056,-3420,1068,1528,222,2025-02-17 11:30:17,0.0
-10536,-1024,-3228,-2235,5183,2361,2025-02-17 11:30:17,0.0
-13588,-1880,-2872,-835,5864,2539,2025-02-17 11:30:17,0.0
-12136,-1820,-3928,-94,2963,2712,2025-02-17 11:30:17,
-11480,-1156,-3164,336,-887,2555,2025-02-17 11:30:17,0.0
-12964,-1024,-2580,847,-2123,2770,2025-02-17 11:30:17,0.0
-32768,-16484,-7944,-1821,-145,9172,2025-02-17 11:30:17,0.0
-16188,-5984,-6656,-559,-750,10840,2025-02-17 11:30:17,0.0
-10988,-3504,-2520,-40,-4278,8710,2025-02-17 11:30:18,0.0
-10192,-1120,-3356,-737,-9153,7724,2025-02-17 11:30:18,0.0
-7024,1428,-2260,-497,-13232,6032,2025-02-17 11:30:18,0.0
-6964,3864,3360,1142,-14691,4075,2025-02-17 11:30:18,0.0
-8680,1348,-1120,2642,-9893,3487,2025-02-17 11:30:18,0.0
-6660,-1012,680,4085,-2927,2285,2025-02-17 11:30:18,0.0
-7524,-936,-328,5054,3593,1249,2025-02-17 11:30:18,0.0
-8464,-160,704,5859,8879,1063,2025-02-17 11:30:18,0.0
-10680,424,1160,7621,13720,1806,2025-02-17 11:30:18,0.0
-14416,-372,-3460,7788,8568,1013,2025-02-17 11:30:18,0.0
-17532,960,-4116,6599,448,357,2025-02-17 11:30:18,0.0
-17504,420,-4208,6069,-5945,76,2025-02-17 11:30:18,0.0
-16328,-200,-3160,5447,-8925,-78,2025-02-17 11:30:18,0.0
-14528,-1396,-1732,5458,-8794,93,2025-02-17 11:30:18,0.0
-14720,-1144,-796,5831,-5575,1424,2025-02-17 11:30:18,0.0
-12816,-868,-348,5473,-2362,2231,2025-02-17 11:30:18,0.0
-13616,-748,144,4909,-1258,1508,2025-02-17 11:30:18,0.0
-15668,-1452,-340,4657,704,948,2025-02-17 11:30:18,0.0
-16956,-568,-3360,5059,1313,845,2025-02-17 11:30:18,0.0
-19144,1088,-3712,4187,1458,1711,2025-02-17 11:30:18,0.0
-17492,1152,-4708,3287,788,2461,2025-02-17 11:30:18,0.0
-16388,1616,-6636,3073,1972,692,2025-02-17 11:30:18,0.0
-17676,1184,-7344,2411,2598,812,2025-02-17 11:30:18,0.0
-15784,84,-6540,1885,2596,1767,2025-02-17 11:30:18,0.0
-13208,-452,-5044,2123,1464,1272,2025-02-17 11:30:18,0.0
-13472,-1328,-3532,3004,-778,1194,2025-02-17 11:30:18,0.0
-11452,-3372,-4472,2858,-1426,2665,2025-02-17 11:30:18,0.0
-9292,-4116,-4452,3258,66,1874,2025-02-17 11:30:18,0.0
-9140,-3244,-5528,3350,2287,570,2025-02-17 11:30:18,0.0
-8536,-1304,-7008,2053,4936,-1787,2025-02-17 11:30:18,0.0
-9580,832,-4940,1528,6846,-4086,2025-02-17 11:30:18,0.0
-11664,956,-4204,2140,7534,-4792,2025-02-17 11:30:18,0.0
-12552,-52,-3928,2874,8324,-4610,2025-02-17 11:30:18,0.0
-14140,-1384,-3920,3854,7840,-3588,2025-02-17 11:30:18,0.0
-15472,-2044,-3748,4743,6091,-1371,2025-02-17 11:30:18,0.0
-14180,-2584,-5284,5037,2135,701,2025-02-17 11:30:18,0.0
-13164,-2836,-4792,4868,-1863,1204,2025-02-17 11:30:18,0.0
-11928,-2712,-4324,4406,-5840,912,2025-02-17 11:30:18,0.0
-10832,-2756,-4292,4217,-7446,748,2025-02-17 11:30:18,0.0
-11056,-3008,-3880,3616,-4687,1027,2025-02-17 11:30:18,0.0
-11616,-3564,-5052,2250,425,2469,2025-02-17 11:30:18,0.0
-12572,-2696,-4040,732,4696,4294,2025-02-17 11:30:18,0.0
-10944,-1112,-4400,-606,5625,5278,2025-02-17 11:30:18,0.0
-9056,424,-4220,-1764,3173,3826,2025-02-17 11:30:18,0.0
-8512,1352,-4976,-3162,-406,1173,2025-02-17 11:30:18,0.0
-11108,2340,-2700,-4367,-535,-1512,2025-02-17 11:30:18,0.0
-12564,2044,-2468,-3720,1498,-1645,2025-02-17 11:30:18,0.0
-13768,1604,-2804,-2656,1610,-912,2025-02-17 11:30:18,0.0
-13864,-500,-3684,-2240,286,-241,2025-02-17 11:30:18,0.0
-13696,-1124,-3696,-1883,-1724,-311,2025-02-17 11:30:18,0.0
-13784,-792,-3532,-2020,-3515,-252,2025-02-17 11:30:18,0.0
-12148,-340,-3584,-2751,-4265,-1432,2025-02-17 11:30:18,0.0
-12080,-204,-3808,-3741,-3392,-2561,2025-02-17 11:30:18,0.0
-12872,16,-3428,-4580,-1893,-2862,2025-02-17 11:30:18,0.0
-13688,220,-2656,-5423,-777,-2845,2025-02-17 11:30:18,0.0
-14956,0,-1608,-5905,-155,-2748,2025-02-17 11:30:18,0.0
-15184,-696,-1468,-6144,-1763,-2729,2025-02-17 11:30:18,0.0
-14736,-1300,-1644,-6254,-5660,-2627,2025-02-17 11:30:18,0.0
-13300,-1472,-1996,-6413,-10417,-2571,2025-02-17 11:30:19,0.0
-12640,-1764,-3028,-6484,-13173,-3094,2025-02-17 11:30:19,0.0
-14184,-2436,-4264,-7014,-11609,-2936,2025-02-17 11:30:19,0.0
-14936,-3492,-4620,-7568,-3553,-1924,2025-02-17 11:30:19,0.0
-14492,-4016,-6036,-8211,3015,-962,2025-02-17 11:30:19,0.0
-14280,-3772,-7728,-9526,7096,-298,2025-02-17 11:30:19,0.0
-13248,-3448,-8736,-12028,9241,-1002,2025-02-17 11:30:19,0.0
-13480,-2656,-5980,-12384,8605,-1441,2025-02-17 11:30:19,0.0
-14628,-1408,-8036,-11892,7768,-223,2025-02-17 11:30:19,0.0
-14344,-424,-6396,-13067,7442,1436,2025-02-17 11:30:19,0.0
-13144,-104,-3972,-11989,5373,1344,2025-02-17 11:30:19,0.0
-13112,1680,-3884,-8858,3004,1000,2025-02-17 11:30:19,0.0
-12612,2952,-5036,-7194,3494,754,2025-02-17 11:30:19,0.0
-12048,3068,-7136,-6320,3947,1329,2025-02-17 11:30:19,0.0
-11312,2412,-6620,-5028,3696,2015,2025-02-17 11:30:19,0.0
-10464,628,-6832,-3188,4525,2726,2025-02-17 11:30:19,0.0
-9476,-344,-5724,-1615,6778,2328,2025-02-17 11:30:19,0.0
-9148,-956,-5132,-804,7734,459,2025-02-17 11:30:19,0.0
-10320,-104,-5124,-536,6627,-1924,2025-02-17 11:30:19,0.0
-12556,284,-4784,-647,4361,-3164,2025-02-17 11:30:19,0.0
-13684,440,-3704,62,1659,-2881,2025-02-17 11:30:19,0.0
-13352,-968,-3976,1085,-1570,-1323,2025-02-17 11:30:19,0.0
-12308,-1924,-3348,2517,-3369,286,2025-02-17 11:30:19,0.0
-11424,-3372,-2184,3237,-3976,1310,2025-02-17 11:30:19,0.0
-11392,-3652,-2332,3862,-2388,2015,2025-02-17 11:30:19,0.0
-11740,-2420,-2580,4830,1492,2396,2025-02-17 11:30:19,0.0
-12620,-1280,-5384,5302,3821,2629,2025-02-17 11:30:19,0.0
-13836,-712,-5364,5178,3873,2599,2025-02-17 11:30:19,0.0
-15076,-1272,-3584,5777,2894,2825,2025-02-17 11:30:19,0.0
-14620,-1836,-2752,7070,251,2522,2025-02-17 11:30:19,0.0
-14788,-1816,-3916,7975,-2851,1926,2025-02-17 11:30:19,0.0
-14764,-1668,-4116,9348,-6923,2101,2025-02-17 11:30:19,0.0
-11544,-1560,-5776,10443,-8760,1868,2025-02-17 11:30:19,0.0
-9560,-1148,-7024,10718,-8694,875,2025-02-17 11:30:19,0.0
-9612,-1084,-5940,11343,-6421,502,2025-02-17 11:30:19,0.0
-9988,-1208,-6224,11396,-2573,856,2025-02-17 11:30:19,0.0
-10912,-1364,-5672,11244,1331,1479,2025-02-17 11:30:19,0.0
-12224,-1516,-5872,10445,3622,2400,2025-02-17 11:30:19,
-12876,-2244,-6000,10248,3888,2589,2025-02-17 11:30:19,0.0
-14016,-2300,-6432,10183,2551,2943,2025-02-17 11:30:19,0.0
-13556,-2240,-6152,10129,1129,3369,2025-02-17 11:30:19,0.0
-12684,-1768,-6252,10357,392,3648,2025-02-17 11:30:19,0.0
-11972,-1176,-6408,10670,806,3823,2025-02-17 11:30:19,0.0
-11640,-560,-7300,11049,2667,3766,2025-02-17 11:30:19,0.0
-12004,-240,-7280,11594,5154,3465,2025-02-17 11:30:19,0.0
-13128,212,-6852,11707,6590,3524,2025-02-17 11:30:19,0.0
-15076,1112,-5160,11688,5936,4821,2025-02-17 11:30:19,0.0
-28088,-7612,-96,15174,-12254,15100,2025-02-17 11:30:19,0.0
-10428,644,-3172,18164,-16607,14941,2025-02-17 11:30:19,0.0
-6544,6400,-1500,19655,-10032,15761,2025-02-17 11:30:19,0.0
-3476,-3748,-3736,22000,968,10653,2025-02-17 11:30:19,0.0
-9236,-8744,-2720,23122,4647,10030,2025-02-17 11:30:19,0.0
-8252,-6848,-4500,23020,-247,8997,2025-02-17 11:30:19,0.0
-9552,2328,-6512,22535,-1230,7601,2025-02-17 11:30:19,0.0
-11048,3420,-5660,21649,-762,5600,2025-02-17 11:30:19,0.0
-12016,3448,-5764,21300,-979,4609,2025-02-17 11:30:19,0.0
-11900,3148,-6420,20369,-40,3877,2025-02-17 11:30:19,0.0
-11400,2352,-6384,19808,794,3125,2025-02-17 11:30:19,0.0
-12324,936,-6400,19682,1027,3219,2025-02-17 11:30:19,0.0
-12340,-332,-5624,19664,-94,3581,2025-02-17 11:30:19,0.0
-13320,148,-5168,19349,-891,3896,2025-02-17 11:30:20,0.0
-13496,1520,-6216,17873,-725,4047,2025-02-17 11:30:20,0.0
-13324,1744,-5588,16522,-1005,3829,2025-02-17 11:30:20,0.0
-12872,700,-4420,15868,-2302,3270,2025-02-17 11:30:20,0.0
-12968,724,-3632,16206,-3248,3035,2025-02-17 11:30:20,0.0
-12452,800,-3008,17405,-3551,2862,2025-02-17 11:30:20,0.0
-12636,344,-4164,18964,-2788,2870,2025-02-17 11:30:20,0.0
-11852,-424,-7204,19042,-1745,2977,2025-02-17 11:30:20,0.0
-11432,-328,-8732,18151,559,3257,2025-02-17 11:30:20,0.0
-11500,-572,-7980,16848,3633,3778,2025-02-17 11:30:20,0.0
-11172,-892,-6024,16144,6479,4148,2025-02-17 11:30:20,0.0
-11512,-2280,-4476,15821,7238,3957,2025-02-17 11:30:20,0.0
-11968,-2752,-4508,16059,6218,3566,2025-02-17 11:30:20,0.0
-13412,-2092,-4840,16174,4520,3950,2025-02-17 11:30:20,0.0
-13184,-1976,-5524,16117,3991,4442,2025-02-17 11:30:20,0.0
-12808,-2288,-5448,15843,4725,4385,2025-02-17 11:30:20,0.0
-12964,-2928,-6600,14722,5773,3899,2025-02-17 11:30:20,0.0
-13192,-3004,-4940,13956,6912,3187,2025-02-17 11:30:20,0.0
-13460,-2552,-3748,13910,7280,2953,2025-02-17 11:30:20,0.0
-13968,-1592,-4072,14198,6233,3498,2025-02-17 11:30:20,0.0
-13416,-1020,-5216,14106,3911,4511,2025-02-17 11:30:20,0.0
-12632,-1528,-5040,14070,1511,5045,2025-02-17 11:30:20,0.0
-12476,-2184,-4248,14400,405,5512,2025-02-17 11:30:20,0.0
-12112,-2892,-3692,15329,-66,6297,2025-02-17 11:30:20,0.0
-11456,-3364,-4928,15868,-497,7052,2025-02-17 11:30:20,0.0
-10692,-3476,-4984,16150,-732,7529,2025-02-17 11:30:20,0.0
-10480,-3340,-5144,16464,-815,8097,2025-02-17 11:30:20,0.0
-10144,-3380,-6640,16355,17,8467,2025-02-17 11:30:20,0.0
-10644,-2784,-7796,15511,2108,8475,2025-02-17 11:30:20,0.0
-11976,-2196,-8340,14506,4780,8358,2025-02-17 11:30:20,0.0
-13884,-1484,-7512,13461,6239,8518,2025-02-17 11:30:20,0.0
-14060,-1228,-6456,12979,5204,8368,2025-02-17 11:30:20,0.0
-13836,-1932,-5864,12760,2487,7691,2025-02-17 11:30:20,0.0
-13144,-2736,-5444,12773,-495,7439,2025-02-17 11:30:20,0.0
-13268,-3288,-4580,13153,-2154,7180,2025-02-17 11:30:20,0.0
-12188,-3212,-5300,13316,-2857,6974,2025-02-17 11:30:20,0.0
-11932,-3032,-5536,13608,-2152,6774,2025-02-17 11:30:20,0.0
-11776,-2444,-5820,13651,-1312,6933,2025-02-17 11:30:20,0.0
-11256,-1576,-6156,13589,-935,7023,2025-02-17 11:30:20,0.0
-11208,-884,-6368,13219,-103,6974,2025-02-17 11:30:20,0.0
-11188,-364,-6852,12849,426,7055,2025-02-17 11:30:20,0.0
-11080,-284,-7124,12524,832,7138,2025-02-17 11:30:20,0.0
-11456,-692,-6792,12517,1498,7094,2025-02-17 11:30:20,0.0
-11484,-1168,-7356,12380,2612,6817,2025-02-17 11:30:20,0.0
-11728,-1080,-7844,12084,3159,6153,2025-02-17 11:30:20,0.0
-12708,396,-7056,11631,3549,5372,2025-02-17 11:30:20,0.0
-12800,1860,-7664,10649,3036,4891,2025-02-17 11:30:20,0.0
-12700,2444,-6880,9394,1598,4392,2025-02-17 11:30:20,0.0
-12916,1916,-5668,8774,-3,4176,2025-02-17 11:30:20,0.0
-12696,1368,-5076,8232,-1576,4044,2025-02-17 11:30:20,0.0
-12252,440,-4484,8080,-3017,3946,2025-02-17 11:30:20,0.0
-11388,-428,-4852,8322,-3336,3833,2025-02-17 11:30:20,0.0
-10964,-852,-5804,8055,-2203,3473,2025-02-17 11:30:20,0.0
-11408,-592,-6336,8038,379,3498,2025-02-17 11:30:20,0.0
-11292,192,-6644,7021,2590,3881,2025-02-17 11:30:20,0.0
-11712,680,-6084,6275,3628,3687,2025-02-17 11:30:21,0.0
-12236,720,-5948,5610,3830,3378,2025-02-17 11:30:21,0.0
-12348,676,-5952,5222,3525,3067,2025-02-17 11:30:21,0.0
-12992,456,-6196,4825,2993,3140,2025-02-17 11:30:21,0.0
-12732,-72,-5768,4535,2689,3058,2025-02-17 11:30:21,0.0
-13040,-276,-5592,4692,2163,2997,2025-02-17 11:30:21,0.0
-12208,308,-6756,4444,1312,2928,2025-02-17 11:30:21,0.0
-11852,1000,-6296,4066,334,2574,2025-02-17 11:30:21,0.0
-11216,1424,-6624,3796,-262,2120,2025-02-17 11:30:21,0.0
-12740,232,-4432,3945,503,-414,2025-02-17 11:30:21,0.0
-12820,-112,-5548,3971,-316,-574,2025-02-17 11:30:21,0.0
-12884,48,-6564,3638,-554,-605,2025-02-17 11:30:21,0.0
-13036,524,-7472,2873,-194,-490,2025-02-17 11:30:21,0.0
-12920,936,-7468,1942,288,-371,2025-02-17 11:30:21,0.0
-12480,1092,-7224,1131,91,-488,2025-02-17 11:30:21,0.0
-12408,528,-6028,375,-504,-739,2025-02-17 11:30:21,0.0
-12424,-36,-5248,87,-838,-746,2025-02-17 11:30:21,0.0
-12496,56,-4960,201,-1463,-738,2025-02-17 11:30:21,0.0
-12764,48,-4716,334,-2022,-744,2025-02-17 11:30:21,0.0
-12604,-116,-4908,582,-2226,-804,2025-02-17 11:30:21,0.0
-12208,-428,-4328,873,-1775,-999,2025-02-17 11:30:21,0.0
-11612,-576,-5496,1058,-938,-1066,2025-02-17 11:30:21,0.0
-11076,-1008,-5668,779,-954,-1168,2025-02-17 11:30:21,
-10756,-1588,-5760,952,-948,-1351,2025-02-17 11:30:21,0.0
-10388,-2012,-6844,863,-335,-1410,2025-02-17 11:30:21,0.0
-11556,-1580,-6632,692,922,-937,2025-02-17 11:30:21,0.0
-12356,-1460,-6896,142,2461,-182,2025-02-17 11:30:21,0.0
-12972,-1332,-5736,-304,3520,232,2025-02-17 11:30:23,0.0
-13088,-1324,-5752,-498,3312,76,2025-02-17 11:30:23,0.0
-12644,-1100,-4896,-190,1755,-637,2025-02-17 11:30:23,0.0
-11956,-1556,-5688,306,-811,-1958,2025-02-17 11:30:23,0.0
-13392,-1520,-4788,731,-3194,-3202,2025-02-17 11:30:23,0.0
-13788,-2008,-3332,851,-3398,-3934,2025-02-17 11:30:23,0.0
-13408,-2772,-4140,142,-2724,-4307,2025-02-17 11:30:23,0.0
-13544,-2640,-3440,-581,-2705,-3741,2025-02-17 11:30:23,0.0
-12556,-2088,-2468,-532,-2881,-1770,2025-02-17 11:30:23,0.0
-12572,-1332,-4932,-3853,1386,-1067,2025-02-17 11:30:23,0.0
-12460,-1800,-5504,-4275,1731,-1176,2025-02-17 11:30:23,0.0
-12360,-2036,-4696,-4119,1804,-1397,2025-02-17 11:30:23,0.0
-12364,-1892,-4748,-3294,1424,-1533,2025-02-17 11:30:23,0.0
-12020,-1300,-6096,-3387,874,-1808,2025-02-17 11:30:23,0.0
-11684,-1100,-5476,-4093,713,-2430,2025-02-17 11:30:23,0.0
-11972,-1460,-5760,-4987,886,-2676,2025-02-17 11:30:23,0.0
-11748,-2024,-5236,-5223,1047,-2988,2025-02-17 11:30:23,0.0
-11976,-1944,-4352,-5126,1175,-3001,2025-02-17 11:30:23,0.0
-13296,-2176,-2756,-3994,1338,-2188,2025-02-17 11:30:23,0.0
-12248,-2804,-3604,-2624,1167,-1003,2025-02-17 11:30:23,0.0
-11692,-2044,-3924,-2217,753,-1809,2025-02-17 11:30:23,0.0
-12800,-2036,-4304,-2137,-288,-1297,2025-02-17 11:30:23,0.0
-12156,-2108,-4312,-2262,-1353,-754,2025-02-17 11:30:23,0.0
-11112,-1936,-4200,-2397,-1339,-961,2025-02-17 11:30:23,0.0
-12448,-2200,-2476,-2735,-852,-1539,2025-02-17 11:30:23,0.0
-11868,-2748,-2792,-1560,-182,-1721,2025-02-17 11:30:23,0.0
-13488,-4544,-3108,-196,-1440,-383,2025-02-17 11:30:23,0.0
-14268,-7112,-6048,406,-1173,1738,2025-02-17 11:30:23,0.0
-13788,-7352,-11000,778,2643,3746,2025-02-17 11:30:23,0.0
-12776,-5340,-11576,1512,8605,3657,2025-02-17 11:30:23,0.0
-13528,-3224,-8352,2271,12131,2330,2025-02-17 11:30:23,0.0
-17788,-3584,-2164,3009,9486,2002,2025-02-17 11:30:23,0.0
-16200,-4492,-3416,4528,2211,3463,2025-02-17 11:30:23,0.0
-15900,-3760,-4136,6032,-3214,4823,2025-02-17 11:30:23,0.0
-14416,-2932,-5468,7750,-5010,4819,2025-02-17 11:30:23,0.0
-12968,-2588,-6528,8723,-6051,5087,2025-02-17 11:30:23,0.0
-11360,-2472,-6528,10686,-7359,5574,2025-02-17 11:30:23,0.0
-9896,-2156,-6828,12514,-7102,6100,2025-02-17 11:30:23,0.0
-8964,-2392,-6916,14872,-5416,6803,2025-02-17 11:30:23,0.0
-10256,-2360,-8508,15670,-2314,7851,2025-02-17 11:30:23,0.0
-10536,-1520,-7764,15203,-260,8724,2025-02-17 11:30:23,0.0
-10024,-740,-7008,14792,-337,8895,2025-02-17 11:30:23,0.0
-10532,-544,-5704,16714,-1176,8847,2025-02-17 11:30:23,0.0
-10552,-1984,-7292,17082,-1692,8304,2025-02-17 11:30:23,0.0
-11688,-3192,-7848,16815,-634,7998,2025-02-17 11:30:23,0.0
-12016,-2824,-7636,16490,608,8269,2025-02-17 11:30:23,0.0
-12160,-2132,-7708,15974,685,7958,2025-02-17 11:30:23,0.0
-12668,-1288,-6356,15953,-302,7464,2025-02-17 11:30:23,0.0
-12216,-1412,-5828,16558,-1310,7321,2025-02-17 11:30:23,0.0
-11264,-1160,-5380,17589,-2254,7264,2025-02-17 11:30:23,0.0
-10508,-1628,-6004,18281,-2086,7030,2025-02-17 11:30:23,0.0
-10572,-1872,-7740,18123,-777,6921,2025-02-17 11:30:23,0.0
-10672,-1736,-7244,18065,181,6595,2025-02-17 11:30:23,0.0
-11304,-1392,-6784,18364,411,6320,2025-02-17 11:30:23,0.0
-11944,-1032,-5900,18978,-193,5853,2025-02-17 11:30:23,0.0
-12860,-848,-5592,19794,-1566,5883,2025-02-17 11:30:23,0.0
-12640,-1044,-6688,20011,-3174,5917,2025-02-17 11:30:23,0.0
-12436,-1160,-6768,20047,-4492,5755,2025-02-17 11:30:23,0.0
-12512,-1132,-6480,19465,-4420,5982,2025-02-17 11:30:24,0.0
-11912,-392,-5704,18918,-4460,5601,2025-02-17 11:30:24,0.0
-12004,76,-5964,17865,-4121,4684,2025-02-17 11:30:24,0.0
-12068,480,-3684,16815,-3621,3534,2025-02-17 11:30:24,0.0
-14052,-72,-4184,16152,-4681,3169,2025-02-17 11:30:24,0.0
-13756,-520,-1328,16147,-4558,3888,2025-02-17 11:30:24,0.0
-14112,-88,-3508,15585,-6240,3948,2025-02-17 11:30:24,0.0
-13692,-320,-5412,14014,-5715,4893,2025-02-17 11:30:24,0.0
-13156,-748,-5268,12049,-1509,5570,2025-02-17 11:30:24,0.0
-12992,-672,-1084,11030,5380,6162,2025-02-17 11:30:24,0.0
-10732,-616,-476,10311,15210,6727,2025-02-17 11:30:24,0.0
-7992,284,1116,8212,24107,4910,2025-02-17 11:30:24,0.0
-6660,628,3284,6451,29227,2893,2025-02-17 11:30:24,0.0
-6036,148,4592,7573,29665,1785,2025-02-17 11:30:24,0.0
-6404,-352,908,8301,27505,2488,2025-02-17 11:30:24,0.0
-6780,-720,-2020,7512,26329,4678,2025-02-17 11:30:24,0.0
-5132,-964,-1116,6911,27510,8013,2025-02-17 11:30:24,0.0
-3956,-320,-1840,5925,30049,10187,2025-02-17 11:30:24,0.0
-1064,-616,-188,3182,31574,14245,2025-02-17 11:30:24,0.0
1968,-1164,1324,1234,30815,15809,2025-02-17 11:30:24,0.0
2352,-1132,2032,285,29881,16044,2025-02-17 11:30:24,0.0
2156,-1148,1984,-479,29308,16298,2025-02-17 11:30:24,0.0
2632,-1148,1536,-1435,29098,16407,2025-02-17 11:30:24,0.0
2368,-1208,1880,-2452,29036,16230,2025-02-17 11:30:24,0.0
2280,-1320,1892,-3241,28917,16210,2025-02-17 11:30:24,0.0
2456,-1320,1968,-3950,28720,15976,2025-02-17 11:30:24,0.0
2368,-1220,1928,-4667,28318,15803,2025-02-17 11:30:24,0.0
2428,-1316,1900,-5368,27885,15708,2025-02-17 11:30:24,0.0
2320,-1300,1908,-5989,27449,15684,2025-02-17 11:30:24,0.0
2376,-1300,1724,-6657,26937,15727,2025-02-17 11:30:24,0.0
2368,-1348,1788,-7251,26224,15739,2025-02-17 11:30:24,0.0
2584,-1256,1688,-7777,25472,15635,2025-02-17 11:30:24,0.0
2512,-1288,1828,-8209,24779,15372,2025-02-17 11:30:24,0.0
2736,-1204,1868,-8535,23855,14922,2025-02-17 11:30:24,0.0
2772,-1232,1672,-8724,23021,14511,2025-02-17 11:30:24,0.0
2728,-1200,1812,-8870,22092,13988,2025-02-17 11:30:24,0.0
2664,-944,1824,-8795,21356,13709,2025-02-17 11:30:24,0.0
1884,-1380,3028,-8123,20192,13800,2025-02-17 11:30:24,
-7900,2324,32767,32767,-27917,32767,2025-02-17 11:30:24,0.0
29032,-3724,-32768,32767,-32768,32767,2025-02-17 11:30:24,0.0
-3236,-5744,-32768,29873,14702,8289,2025-02-17 11:30:24,0.0
9284,-8436,-13776,25162,-32768,8464,2025-02-17 11:30:24,0.0
-6948,-5992,5860,29337,-32768,8827,2025-02-17 11:30:24,0.0
-960,-9644,9324,32767,-32768,1567,2025-02-17 11:30:24,0.0
-1536,-9764,9240,30424,-32768,-8402,2025-02-17 11:30:24,0.0
-6272,-7000,9236,27395,-32768,-10637,2025-02-17 11:30:24,0.0
-8584,-4120,8476,21597,-32768,-7294,2025-02-17 11:30:24,0.0
-6700,-1380,10192,22201,-32768,-2182,2025-02-17 11:30:24,0.0
-5912,-1452,9348,24867,-32768,56,2025-02-17 11:30:24,0.0
-5784,-1828,7876,26967,-32768,1833,2025-02-17 11:30:24,0.0
-6812,-2940,7352,26862,-28523,3333,2025-02-17 11:30:24,0.0
-7268,-3536,6176,23363,-13847,2568,2025-02-17 11:30:24,0.0
-10044,-4236,7676,17981,5073,511,2025-02-17 11:30:24,0.0
-12308,-5152,7864,8484,22915,-1893,2025-02-17 11:30:24,0.0
-14484,-4364,11968,-2638,32767,-3505,2025-02-17 11:30:24,0.0
-17256,-3812,16920,-4861,32767,-5100,2025-02-17 11:30:24,0.0
-12016,-3952,10092,-3134,32767,-5307,2025-02-17 11:30:24,0.0
-8796,-2800,6384,-1728,32767,-6110,2025-02-17 11:30:24,0.0
-8744,-2596,3728,-1074,32767,-6987,2025-02-17 11:30:24,0.0
-9464,-2760,1540,-1081,32767,-7523,2025-02-17 11:30:24,0.0
-12468,-3856,-1816,-2310,32767,-6384,2025-02-17 11:30:24,0.0
-16788,-7188,-8556,-6837,32767,-2552,2025-02-17 11:30:25,0.0
-14708,-12336,-16080,-17404,32767,2155,2025-02-17 11:30:25,0.0
-7428,-12336,-19416,-28144,32767,2221,2025-02-17 11:30:25,0.0
-1340,-12788,-27228,-32768,32767,-1220,2025-02-17 11:30:25,0.0
1524,-13208,-24256,-32768,32767,-6125,2025-02-17 11:30:25,0.0
4832,-6748,-13340,-32768,32767,-11424,2025-02-17 11:30:25,0.0
3192,-932,-10356,-32768,32767,-14899,2025-02-17 11:30:25,0.0
3488,2616,-5976,-28133,32767,-17094,2025-02-17 11:30:25,0.0
11368,5356,-5812,-17852,32767,-19696,2025-02-17 11:30:25,0.0
9716,9088,-3504,-3557,10258,-18353,2025-02-17 11:30:25,0.0
5792,8828,-2896,6223,-6288,-11777,2025-02-17 11:30:25,0.0
5848,8032,-6372,10357,-13338,-6043,2025-02-17 11:30:25,0.0
6808,7512,-12544,9618,-18473,-3268,2025-02-17 11:30:25,0.0
4332,4712,-17832,7551,-20495,-1183,2025-02-17 11:30:25,0.0
1960,2052,-20412,6686,-16576,294,2025-02-17 11:30:25,0.0
596,904,-20172,5339,-10721,366,2025-02-17 11:30:25,0.0
-76,1068,-17244,1754,-2472,-640,2025-02-17 11:30:25,0.0
840,1484,-14964,-1011,3763,83,2025-02-17 11:30:25,0.0
4788,2092,-14380,-1128,4234,350,2025-02-17 11:30:25,0.0
6660,2900,-14876,-404,1471,-104,2025-02-17 11:30:25,0.0
5328,2472,-13784,90,-849,-231,2025-02-17 11:30:25,0.0
3708,2012,-14928,78,-1130,-284,2025-02-17 11:30:25,0.0
3096,2004,-15768,-320,244,-161,2025-02-17 11:30:25,0.0
4080,2432,-14828,-415,781,-130,2025-02-17 11:30:25,0.0
4428,2356,-14388,-254,392,-149,2025-02-17 11:30:25,0.0
4544,2188,-14880,-107,-95,-189,2025-02-17 11:30:25,0.0
3764,2184,-14992,-63,-16,-194,2025-02-17 11:30:25,0.0
4012,2352,-14804,-159,287,-198,2025-02-17 11:30:25,0.0
4232,2408,-14492,-106,164,-153,2025-02-17 11:30:25,0.0
4136,2360,-14836,-103,114,-191,2025-02-17 11:30:25,0.0
3964,2232,-14732,-167,172,-178,2025-02-17 11:30:25,0.0
4164,2432,-14868,-113,240,-144,2025-02-17 11:30:25,0.0
4124,2256,-14692,-86,145,-185,2025-02-17 11:30:25,0.0
4108,2240,-14892,-107,114,-177,2025-02-17 11:30:25,0.0
4144,2236,-14740,-115,217,-166,2025-02-17 11:30:25,0.0
4288,2168,-14744,-145,188,-195,2025-02-17 11:30:25,0.0
4108,2276,-14768,-163,133,-187,2025-02-17 11:30:25,0.0
4028,2360,-14780,-106,160,-166,2025-02-17 11:30:25,0.0
4196,2168,-14764,-134,157,-179,2025-02-17 11:30:25,0.0
4132,2548,-14652,-128,115,-170,2025-02-17 11:30:25,0.0
4152,2128,-14816,38,242,-134,2025-02-17 11:30:25,0.0
4388,1592,-15148,-143,500,-166,2025-02-17 11:30:25,0.0
4628,1672,-14980,-570,203,-195,2025-02-17 11:30:25,0.0
4212,2572,-14492,-596,-185,-230,2025-02-17 11:30:25,0.0
3636,3164,-14340,-253,-102,-189,2025-02-17 11:30:25,0.0
3856,2492,-14888,169,462,-122,2025-02-17 11:30:25,0.0
4536,1796,-14916,-69,418,-124,2025-02-17 11:30:25,0.0
4532,1820,-14788,-305,56,-207,2025-02-17 11:30:25,0.0
4052,2448,-14788,-302,-68,-202,2025-02-17 11:30:25,0.0
3804,2540,-14856,-148,206,-144,2025-02-17 11:30:25,0.0
4088,2244,-14716,-69,293,-151,2025-02-17 11:30:25,0.0
4408,2012,-14852,-173,152,-195,2025-02-17 11:30:25,0.0
4076,2244,-14900,-222,91,-178,2025-02-17 11:30:25,0.0
4048,2352,-14728,-155,167,-166,2025-02-17 11:30:25,0.0
4128,2300,-14792,-102,242,-169,2025-02-17 11:30:25,0.0
4204,2148,-14796,-123,177,-164,2025-02-17 11:30:25,0.0
4164,2156,-14780,-172,132,-161,2025-02-17 11:30:25,0.0
4080,2372,-14936,-167,140,-199,2025-02-17 11:30:25,0.0
4104,2348,-14840,-154,194,-153,2025-02-17 11:30:25,0.0
