acceleration_x,acceleration_y,acceleration_z,gyroscope_x,gyroscope_y,gyroscope_z,timestamp,label
-11644,352,10576,-187,403,-189,2025-02-17 10:54:57,0.0
-11628,492,10496,-122,302,-67,2025-02-17 10:54:57,0.0
-11460,504,10552,9,307,5,2025-02-17 10:54:57,0.0
-11460,400,10276,-136,281,-30,2025-02-17 10:54:57,0.0
-11424,516,10544,-257,171,-115,2025-02-17 10:54:57,0.0
-11544,544,10488,-262,211,-178,2025-02-17 10:54:57,0.0
-11344,520,10248,-236,267,-177,2025-02-17 10:54:57,0.0
-11444,420,10232,-254,224,-198,2025-02-17 10:54:57,0.0
-11464,472,10344,-216,150,-123,2025-02-17 10:54:57,0.0
-11420,540,10400,-203,92,-100,2025-02-17 10:54:57,0.0
-11504,436,10428,-124,98,-68,2025-02-17 10:54:57,0.0
-11380,504,10576,-146,120,-139,2025-02-17 10:54:57,0.0
-11416,500,10360,-170,123,-219,2025-02-17 10:54:57,0.0
-11440,592,10452,-166,-25,-275,2025-02-17 10:54:57,0.0
-11340,404,10476,-138,7,-289,2025-02-17 10:54:57,0.0
-11352,384,10600,-106,96,-252,2025-02-17 10:54:57,0.0
-11440,516,10444,-77,162,-169,2025-02-17 10:54:57,0.0
-11392,516,10548,-147,171,-148,2025-02-17 10:54:57,0.0
-11480,620,10508,-158,209,-199,2025-02-17 10:54:57,0.0
-11480,688,10264,-181,184,-160,2025-02-17 10:54:57,0.0
-11504,492,10600,-169,173,-170,2025-02-17 10:54:57,0.0
-11564,432,10468,-158,179,-93,2025-02-17 10:54:57,0.0
-11476,588,10224,-201,95,-140,2025-02-17 10:54:57,0.0
-11416,700,10440,-232,38,-168,2025-02-17 10:54:57,0.0
-11348,568,10576,-196,123,-169,2025-02-17 10:54:57,0.0
-11468,588,10300,-207,151,-184,2025-02-17 10:54:57,0.0
-11468,472,10448,-185,76,-196,2025-02-17 10:54:57,0.0
-11336,448,10468,-226,-44,-235,2025-02-17 10:54:58,0.0
-11344,384,10680,-173,48,-241,2025-02-17 10:54:58,0.0
-11256,476,10668,-116,161,-249,2025-02-17 10:54:58,0.0
-11364,472,10364,-133,210,-174,2025-02-17 10:54:58,0.0
-11484,404,10532,-102,167,-141,2025-02-17 10:54:58,0.0
-11380,464,10436,-64,194,-64,2025-02-17 10:54:58,0.0
-11376,532,10456,-104,82,-133,2025-02-17 10:54:58,0.0
-11320,536,10560,-126,112,-188,2025-02-17 10:54:58,0.0
-11308,464,10400,-139,170,-194,2025-02-17 10:54:58,0.0
-11460,556,10440,-133,176,-210,2025-02-17 10:54:58,0.0
-11464,552,10500,-83,162,-170,2025-02-17 10:54:58,0.0
-11344,528,10460,-79,145,-131,2025-02-17 10:54:58,0.0
-11356,484,10376,-154,71,-169,2025-02-17 10:54:58,0.0
-11348,508,10672,-143,85,-143,2025-02-17 10:54:58,0.0
-11380,540,10552,-142,210,-179,2025-02-17 10:54:58,0.0
-11392,680,10476,-182,191,-208,2025-02-17 10:54:58,0.0
-11452,592,10456,-164,162,-175,2025-02-17 10:54:58,0.0
-11480,572,10592,-159,133,-144,2025-02-17 10:54:58,0.0
-11312,624,10620,-189,85,-195,2025-02-17 10:54:58,0.0
-11352,612,10548,-157,202,-181,2025-02-17 10:54:58,0.0
-11560,636,10404,-245,284,-137,2025-02-17 10:54:58,0.0
-11476,484,10336,-199,172,-162,2025-02-17 10:54:58,0.0
-11452,420,10344,-192,104,-118,2025-02-17 10:54:58,0.0
-11496,468,10460,-175,125,-153,2025-02-17 10:54:58,0.0
-11352,560,10504,-224,125,-187,2025-02-17 10:54:58,0.0
-11444,452,10672,-191,94,-167,2025-02-17 10:54:58,0.0
-11424,524,10660,-175,77,-236,2025-02-17 10:54:58,0.0
-11468,496,10676,-175,83,-196,2025-02-17 10:54:58,0.0
-11416,452,10520,-136,131,-170,2025-02-17 10:54:58,0.0
-11328,428,10484,-93,117,-138,2025-02-17 10:54:58,0.0
-11380,512,10596,-87,133,-135,2025-02-17 10:54:58,0.0
-11328,484,10440,-140,180,-164,2025-02-17 10:54:58,0.0
-11360,628,10488,-144,122,-185,2025-02-17 10:54:58,0.0
-11424,584,10608,-151,161,-189,2025-02-17 10:54:58,0.0
-11432,588,10640,-164,229,-168,2025-02-17 10:54:58,0.0
-11556,612,10492,-154,276,-123,2025-02-17 10:54:58,0.0
-11292,500,10316,-182,163,-116,2025-02-17 10:54:58,0.0
-11296,580,10412,-219,144,-155,2025-02-17 10:54:58,0.0
-11376,516,10548,-167,238,-141,2025-02-17 10:54:58,0.0
-11444,440,10316,-139,162,-158,2025-02-17 10:54:58,0.0
-11388,504,10480,-178,95,-170,2025-02-17 10:54:58,0.0
-11380,472,10528,-173,178,-151,2025-02-17 10:54:58,0.0
-11424,524,10636,-191,277,-132,2025-02-17 10:54:58,0.0
-11264,552,10780,-196,449,-62,2025-02-17 10:54:58,0.0
-11324,568,10568,-222,515,-143,2025-02-17 10:54:58,0.0
-11508,504,10532,-214,407,-224,2025-02-17 10:54:58,0.0
-11556,648,10376,-220,197,-250,2025-02-17 10:54:58,0.0
-11344,528,10460,-249,26,-298,2025-02-17 10:54:58,0.0
-11360,536,10604,-213,36,-290,2025-02-17 10:54:58,0.0
-11408,460,10544,-144,51,-202,2025-02-17 10:54:58,0.0
-11608,472,10528,-20,-50,-46,2025-02-17 10:54:58,0.0
-11496,468,10408,-189,-92,98,2025-02-17 10:54:58,0.0
-11248,508,10560,-483,77,68,2025-02-17 10:54:58,0.0
-11316,552,10548,-407,259,-157,2025-02-17 10:54:58,0.0
-11472,544,10240,-255,-6,-135,2025-02-17 10:54:58,0.0
-11432,588,9944,-483,-238,-86,2025-02-17 10:54:58,0.0
-11424,1036,10468,-375,37,-4,2025-02-17 10:54:58,0.0
-11620,812,9464,-304,-144,327,2025-02-17 10:54:58,0.0
-12320,476,9196,-765,-1837,1004,2025-02-17 10:54:58,0.0
-11896,320,9824,-1124,-3276,986,2025-02-17 10:54:58,0.0
-10992,224,10760,-1431,-3789,696,2025-02-17 10:54:58,0.0
-10704,268,11760,-1422,-2510,254,2025-02-17 10:54:58,0.0
-10700,432,11744,-1347,-599,17,2025-02-17 10:54:58,0.0
-11448,196,11684,-1146,-153,133,2025-02-17 10:54:58,0.0
-11384,-24,10356,-1329,-142,462,2025-02-17 10:54:59,0.0
-10956,172,11252,-965,-267,806,2025-02-17 10:54:59,0.0
-10572,216,10700,-927,-88,636,2025-02-17 10:54:59,0.0
-9988,432,11508,-597,412,211,2025-02-17 10:54:59,0.0
-10312,396,11312,-393,827,-323,2025-02-17 10:54:59,0.0
-10668,380,11196,-236,1265,-216,2025-02-17 10:54:59,0.0
-11220,284,10960,-69,1626,271,2025-02-17 10:54:59,0.0
-11152,160,10592,154,1796,834,2025-02-17 10:54:59,0.0
-11132,164,10760,254,2215,1526,2025-02-17 10:54:59,
-10800,376,10460,323,2745,1504,2025-02-17 10:54:59,0.0
-10812,524,10340,363,2983,1302,2025-02-17 10:54:59,0.0
-10976,396,9720,115,3032,1075,2025-02-17 10:54:59,0.0
-11820,852,10616,-6,3159,1009,2025-02-17 10:54:59,0.0
-11644,1076,10888,27,3225,1072,2025-02-17 10:54:59,0.0
-11672,1120,10476,-63,3332,1017,2025-02-17 10:54:59,0.0
-11464,1040,10068,-320,3150,1095,2025-02-17 10:54:59,0.0
-11164,1280,11012,-230,2814,521,2025-02-17 10:54:59,0.0
-10968,1140,10680,-85,3089,126,2025-02-17 10:54:59,0.0
-10820,1120,11340,88,3428,-161,2025-02-17 10:54:59,0.0
-11024,1012,10608,63,4073,-167,2025-02-17 10:54:59,0.0
-11192,596,10128,59,4794,9,2025-02-17 10:54:59,0.0
-11196,1020,9968,-120,5479,107,2025-02-17 10:54:59,0.0
-11548,1384,9792,-198,5519,-60,2025-02-17 10:54:59,0.0
-12352,1220,10248,-328,5207,318,2025-02-17 10:54:59,0.0
-11620,916,10204,-482,4573,621,2025-02-17 10:54:59,0.0
-11216,1200,10736,-553,4517,682,2025-02-17 10:54:59,0.0
-10396,1800,9920,-852,6289,666,2025-02-17 10:54:59,0.0
-11112,2348,9760,-673,8904,908,2025-02-17 10:54:59,0.0
-11852,2076,8484,-851,10583,895,2025-02-17 10:54:59,0.0
-13808,1924,7964,-920,10096,473,2025-02-17 10:54:59,0.0
-14020,1444,7508,-793,7753,-151,2025-02-17 10:54:59,0.0
-14508,1232,6976,-1060,6715,-117,2025-02-17 10:54:59,0.0
-12724,1064,7048,-1303,7256,65,2025-02-17 10:54:59,0.0
-11980,772,7028,-1406,9026,157,2025-02-17 10:54:59,0.0
-13292,1228,5364,-1537,10626,529,2025-02-17 10:54:59,0.0
-22860,728,7056,-1157,11630,1062,2025-02-17 10:54:59,0.0
-12564,2008,6740,-456,9025,783,2025-02-17 10:54:59,0.0
-12904,1560,7764,568,7710,561,2025-02-17 10:54:59,0.0
-10920,920,8548,1272,7971,215,2025-02-17 10:54:59,0.0
-14116,1176,8232,1239,8902,581,2025-02-17 10:54:59,0.0
-16264,476,8920,145,12505,1443,2025-02-17 10:54:59,0.0
-17544,308,7056,-803,15421,2840,2025-02-17 10:54:59,0.0
-21908,-200,7452,-1775,19573,4899,2025-02-17 10:54:59,0.0
-19272,-624,4628,-2306,20698,5806,2025-02-17 10:54:59,0.0
-14560,-424,6896,-520,18733,3867,2025-02-17 10:54:59,0.0
-16176,1140,4456,1169,17199,2849,2025-02-17 10:54:59,0.0
-16812,3116,2816,2594,17223,1592,2025-02-17 10:54:59,0.0
-15464,4028,1100,2118,15430,112,2025-02-17 10:54:59,0.0
-16328,3432,1120,933,11640,-464,2025-02-17 10:54:59,0.0
-17040,2020,-280,384,8964,-13,2025-02-17 10:54:59,0.0
-17072,2224,224,394,7075,262,2025-02-17 10:54:59,0.0
-15816,2144,564,715,4809,377,2025-02-17 10:54:59,0.0
-13616,2364,528,1106,3570,263,2025-02-17 10:54:59,0.0
-14088,2116,428,1351,2915,-224,2025-02-17 10:54:59,0.0
-14020,2344,-1516,1456,3005,-299,2025-02-17 10:54:59,0.0
-14264,2236,-2932,1583,2643,-327,2025-02-17 10:54:59,0.0
-13244,2176,-3972,1138,73,-797,2025-02-17 10:54:59,0.0
-14036,2976,-3628,93,-1620,-1080,2025-02-17 10:54:59,0.0
-14644,3172,-2400,-920,-723,-826,2025-02-17 10:54:59,0.0
-15052,3024,-612,-1410,1605,-444,2025-02-17 10:54:59,0.0
-10988,3360,-1740,-1641,3841,-698,2025-02-17 10:54:59,0.0
-14052,2456,-1580,-1813,2976,-733,2025-02-17 10:55:00,0.0
-12744,2040,-2196,-734,840,-1543,2025-02-17 10:55:00,0.0
-12680,2368,-2068,583,-1032,-2357,2025-02-17 10:55:00,0.0
-11528,2612,-2412,1645,-2353,-3374,2025-02-17 10:55:00,0.0
-10760,1944,-3564,2218,-4071,-5338,2025-02-17 10:55:00,0.0
-12888,1644,-2164,2806,-3052,-6512,2025-02-17 10:55:00,0.0
-13832,796,-1056,3905,-1256,-6606,2025-02-17 10:55:00,0.0
-14264,768,-1056,5169,-365,-5730,2025-02-17 10:55:00,0.0
-13828,936,-2028,5728,-1259,-4656,2025-02-17 10:55:00,0.0
-13300,1132,-1084,5544,-2600,-4131,2025-02-17 10:55:00,0.0
-12380,504,-1880,6136,-3023,-4320,2025-02-17 10:55:00,0.0
-13640,1292,-1656,4950,-412,-5553,2025-02-17 10:55:00,0.0
-11140,1556,-2048,3468,-1066,-6052,2025-02-17 10:55:00,0.0
-14496,588,-1400,1578,-3991,-4980,2025-02-17 10:55:00,0.0
-12648,-680,-1644,1281,-6646,-3761,2025-02-17 10:55:00,0.0
-11648,-1472,-2836,1305,-8242,-2795,2025-02-17 10:55:00,0.0
-12400,-996,-2280,440,-5550,-3371,2025-02-17 10:55:00,0.0
-13212,20,-1848,-442,-1245,-3827,2025-02-17 10:55:00,0.0
-12692,124,-2572,-1869,198,-3489,2025-02-17 10:55:00,0.0
-12220,-552,-2408,-3232,-855,-2720,2025-02-17 10:55:00,0.0
-12136,-1376,-1792,-3553,-2698,-2839,2025-02-17 10:55:00,0.0
-14232,-1332,928,-2934,-1417,-3408,2025-02-17 10:55:00,0.0
-15368,-1084,2048,-1420,-208,-2652,2025-02-17 10:55:00,0.0
-14852,-152,1532,-39,-117,-1129,2025-02-17 10:55:00,0.0
-12432,-1884,-3144,-537,454,-37,2025-02-17 10:55:00,0.0
-13132,-1884,-896,-2074,1609,-811,2025-02-17 10:55:00,0.0
-15344,-1500,1428,-1017,5775,-117,2025-02-17 10:55:00,0.0
-14948,-2176,200,-1063,8899,2324,2025-02-17 10:55:00,0.0
-12200,-1304,-1008,-3010,9938,2986,2025-02-17 10:55:00,0.0
-9648,384,-2816,-4351,10197,1273,2025-02-17 10:55:00,0.0
-9700,552,-3360,-6166,10084,-1167,2025-02-17 10:55:00,0.0
-12044,-436,-532,-5622,10180,-2182,2025-02-17 10:55:00,0.0
-13468,-2800,272,-2847,9006,-1226,2025-02-17 10:55:00,0.0
-14124,-3872,-1144,-1803,6977,395,2025-02-17 10:55:00,0.0
-14332,-3768,-2680,-1995,4408,2858,2025-02-17 10:55:00,0.0
-14112,-2992,-3220,-1850,2409,5210,2025-02-17 10:55:00,0.0
-14028,-2556,-3332,-1016,2039,7463,2025-02-17 10:55:00,0.0
-13120,-2608,-2932,348,3310,9297,2025-02-17 10:55:00,0.0
-12672,-3136,-3104,1551,5547,10791,2025-02-17 10:55:00,0.0
-13052,-4724,-4000,1191,11127,11769,2025-02-17 10:55:00,0.0
-13480,-6136,-5112,-673,18842,12336,2025-02-17 10:55:00,0.0
-12420,-6652,-5652,-3828,27807,12963,2025-02-17 10:55:00,0.0
-11188,-5776,-5340,-5396,32184,13539,2025-02-17 10:55:00,0.0
-10420,-4080,-6880,-6706,32767,15001,2025-02-17 10:55:00,0.0
-8292,-2808,-7992,-8643,30115,16263,2025-02-17 10:55:00,0.0
-5704,-1868,-8500,-10530,24121,16083,2025-02-17 10:55:00,0.0
-4668,-1252,-8656,-12010,17486,15490,2025-02-17 10:55:00,0.0
-3200,-948,-7916,-12315,10668,14205,2025-02-17 10:55:00,
-4076,-352,-7920,-11141,4415,13444,2025-02-17 10:55:00,0.0
-6208,224,-9096,-10275,-126,14113,2025-02-17 10:55:00,0.0
-7600,556,-9888,-11668,-2107,16156,2025-02-17 10:55:00,0.0
-8504,1136,-8056,-13005,-1384,18687,2025-02-17 10:55:00,0.0
-7900,1744,-5968,-12775,333,20880,2025-02-17 10:55:00,0.0
-6540,2340,-4764,-11784,2096,22483,2025-02-17 10:55:00,0.0
-6032,2728,-6080,-11781,3961,23953,2025-02-17 10:55:00,0.0
-6920,1760,-9356,-16328,5455,28149,2025-02-17 10:55:00,0.0
-4412,-352,-9956,-25456,5925,32767,2025-02-17 10:55:00,0.0
-516,-2384,-4964,-32768,5988,32767,2025-02-17 10:55:00,0.0
1408,-4124,-204,-32768,5789,32767,2025-02-17 10:55:00,0.0
4088,-5532,1480,-32768,4920,32767,2025-02-17 10:55:00,0.0
3056,-5332,2244,-32768,4286,32767,2025-02-17 10:55:00,0.0
3332,-5160,2448,-32768,3938,32767,2025-02-17 10:55:01,0.0
3324,-4964,2432,-32768,3687,32767,2025-02-17 10:55:01,0.0
3256,-4748,2636,-32768,3437,32767,2025-02-17 10:55:01,0.0
3052,-4604,2592,-32768,2764,32767,2025-02-17 10:55:01,0.0
3028,-4504,2796,-32768,1726,32659,2025-02-17 10:55:01,0.0
3096,-4468,2668,-32768,801,32514,2025-02-17 10:55:01,0.0
3028,-4464,2744,-32768,-139,32482,2025-02-17 10:55:01,0.0
3144,-4212,3028,-32768,-854,32385,2025-02-17 10:55:01,0.0
3220,-4192,3344,-32768,-1123,32075,2025-02-17 10:55:01,0.0
3404,-3884,3788,-31596,-1141,31622,2025-02-17 10:55:01,0.0
3488,-3808,4492,-29642,-944,30931,2025-02-17 10:55:01,0.0
3624,-3968,4316,-27214,-775,29985,2025-02-17 10:55:01,0.0
3456,-4952,2864,-25763,-422,28526,2025-02-17 10:55:01,0.0
2108,-4824,2344,-26545,-210,28683,2025-02-17 10:55:01,0.0
3112,-3204,2792,-25970,-768,29474,2025-02-17 10:55:01,0.0
2940,-5656,5332,-24285,-670,29119,2025-02-17 10:55:01,0.0
-9992,-12948,-5372,-27838,-183,32767,2025-02-17 10:55:01,0.0
3940,-28972,-2520,-32768,1846,32767,2025-02-17 10:55:01,0.0
32767,-32768,32767,-32768,-17512,21105,2025-02-17 10:55:01,0.0
-32768,-16460,32767,21917,-32768,-31583,2025-02-17 10:55:01,0.0
32767,1988,32767,25302,98,-11984,2025-02-17 10:55:01,0.0
8056,5544,13712,22622,-4150,-13918,2025-02-17 10:55:01,0.0
724,4756,13304,28875,-7598,-14760,2025-02-17 10:55:01,0.0
664,800,476,31084,-6961,-12754,2025-02-17 10:55:01,0.0
-348,-1028,216,29712,-6821,-8817,2025-02-17 10:55:01,0.0
-928,-1048,692,28007,-7040,-6672,2025-02-17 10:55:01,0.0
-2188,-484,-1736,23997,-6417,-2594,2025-02-17 10:55:01,0.0
-2328,568,-1896,16987,-3508,4256,2025-02-17 10:55:01,0.0
-2636,1724,-2288,11861,5,10820,2025-02-17 10:55:01,0.0
-4464,3896,-112,6897,2971,21058,2025-02-17 10:55:01,0.0
19264,4580,4556,2665,-486,28267,2025-02-17 10:55:01,0.0
32767,5880,6920,-2321,-32768,13259,2025-02-17 10:55:01,0.0
29052,4816,12428,-707,-32768,6677,2025-02-17 10:55:01,0.0
32767,3804,10616,1946,-20619,1755,2025-02-17 10:55:01,0.0
29252,4264,3916,2060,-8542,-2563,2025-02-17 10:55:01,0.0
18784,4076,1632,2137,-5069,-2790,2025-02-17 10:55:01,0.0
13060,4720,1648,956,-2517,-2267,2025-02-17 10:55:01,0.0
13308,2316,1660,452,940,-1389,2025-02-17 10:55:01,0.0
14788,3012,3296,-722,3699,-543,2025-02-17 10:55:01,0.0
14980,5224,4836,-1480,4369,606,2025-02-17 10:55:01,0.0
19256,4616,8324,-1111,4262,117,2025-02-17 10:55:01,0.0
19248,5472,8648,665,22745,3208,2025-02-17 10:55:01,0.0
17236,4428,9944,-588,336,-496,2025-02-17 10:55:01,0.0
12948,5852,10192,-2057,-1732,813,2025-02-17 10:55:01,0.0
17100,4040,3840,-395,3585,-2661,2025-02-17 10:55:01,0.0
18972,4872,4632,189,1527,1181,2025-02-17 10:55:01,0.0
16724,3184,9072,-164,-1081,-452,2025-02-17 10:55:01,0.0
19476,4604,6512,-223,-1394,32,2025-02-17 10:55:01,0.0
17080,5012,5996,134,222,-349,2025-02-17 10:55:01,0.0
16936,4376,6944,-147,-107,-84,2025-02-17 10:55:01,0.0
17040,4372,5824,-185,106,-28,2025-02-17 10:55:01,0.0
17808,4292,6028,-289,441,-11,2025-02-17 10:55:01,0.0
18124,4424,6916,-157,726,-192,2025-02-17 10:55:01,0.0
17824,4548,6808,-211,-87,-208,2025-02-17 10:55:01,0.0
17104,4600,6560,-20,-51,-148,2025-02-17 10:55:01,0.0
17416,4208,6404,-160,195,-94,2025-02-17 10:55:01,0.0
17780,4392,6504,-190,183,-177,2025-02-17 10:55:01,0.0
17580,4572,6472,-166,265,-191,2025-02-17 10:55:01,0.0
17444,4388,6232,-201,347,-109,2025-02-17 10:55:01,0.0
17412,4412,6372,-218,308,-135,2025-02-17 10:55:01,0.0
17400,4436,6580,-167,128,-141,2025-02-17 10:55:01,0.0
17544,4468,6368,-163,113,-159,2025-02-17 10:55:02,0.0
17448,4356,6324,-164,160,-115,2025-02-17 10:55:02,0.0
17512,4364,6360,-186,314,-106,2025-02-17 10:55:02,0.0
17452,4436,6356,-222,260,-135,2025-02-17 10:55:02,0.0
17636,4388,6604,-194,197,-128,2025-02-17 10:55:02,0.0
17636,4364,6468,-190,180,-110,2025-02-17 10:55:02,0.0
17484,4368,6428,-176,175,-159,2025-02-17 10:55:02,0.0
17636,4400,6404,-186,162,-145,2025-02-17 10:55:02,0.0
17564,4512,6456,-168,211,-142,2025-02-17 10:55:02,0.0
17616,4424,6472,-201,187,-162,2025-02-17 10:55:02,0.0
17600,4428,6536,-164,194,-171,2025-02-17 10:55:02,0.0
17576,4372,6612,-166,185,-150,2025-02-17 10:55:02,0.0
17548,4452,6456,-159,193,-159,2025-02-17 10:55:02,0.0
17680,4396,6408,-170,169,-135,2025-02-17 10:55:02,0.0
17708,4452,6452,-136,182,-158,2025-02-17 10:55:02,0.0
17540,4404,6380,-188,218,-157,2025-02-17 10:55:02,0.0
17560,4476,6332,-193,201,-149,2025-02-17 10:55:02,0.0
17548,4396,6480,-195,176,-141,2025-02-17 10:55:02,0.0
17556,4492,6520,-185,174,-155,2025-02-17 10:55:02,0.0
17592,4364,6608,-153,182,-156,2025-02-17 10:55:02,0.0
17532,4384,6416,-148,202,-128,2025-02-17 10:55:02,0.0
17488,4424,6616,-167,185,-154,2025-02-17 10:55:02,0.0
17672,4364,6364,-185,177,-161,2025-02-17 10:55:02,0.0
17624,4464,6336,-174,210,-139,2025-02-17 10:55:02,0.0
17528,4324,6468,-172,192,-167,2025-02-17 10:55:02,0.0
17596,4316,6544,-165,186,-148,2025-02-17 10:55:02,
17600,4384,6436,-167,160,-160,2025-02-17 10:55:02,0.0
17624,4376,6444,-166,170,-145,2025-02-17 10:55:02,0.0
17584,4392,6356,-160,164,-156,2025-02-17 10:55:02,0.0
17724,4376,6412,-154,208,-146,2025-02-17 10:55:02,0.0
17508,4396,6544,-194,211,-134,2025-02-17 10:55:02,0.0
17548,4316,6512,-185,217,-152,2025-02-17 10:55:02,0.0
17536,4272,6624,-166,177,-164,2025-02-17 10:55:02,0.0
17532,4316,6316,-166,179,-172,2025-02-17 10:55:02,0.0
17480,4280,6348,-165,174,-151,2025-02-17 10:55:02,0.0
17516,4380,6420,-182,198,-169,2025-02-17 10:55:02,0.0
17624,4352,6292,-186,183,-167,2025-02-17 10:55:02,0.0
17544,4424,6452,-167,180,-136,2025-02-17 10:55:02,0.0
17640,4372,6420,-181,184,-152,2025-02-17 10:55:02,0.0
17592,4340,6540,-163,172,-156,2025-02-17 10:55:02,0.0
17704,4360,6452,-194,191,-181,2025-02-17 10:55:02,0.0
17556,4372,6668,-155,132,-139,2025-02-17 10:55:02,0.0
17704,4284,6192,-174,81,-146,2025-02-17 10:55:02,0.0
17488,4348,6336,-188,317,-151,2025-02-17 10:55:02,0.0
17464,4428,6600,-193,260,-123,2025-02-17 10:55:02,0.0
17628,4404,6612,-156,123,-115,2025-02-17 10:55:02,0.0
17620,4360,6516,-154,101,-140,2025-02-17 10:55:02,0.0
17688,4344,6372,-151,148,-175,2025-02-17 10:55:02,0.0
17612,4272,6344,-156,248,-152,2025-02-17 10:55:02,0.0
17524,4372,6524,-178,212,-133,2025-02-17 10:55:02,0.0
17664,4284,6600,-157,177,-129,2025-02-17 10:55:02,0.0
17608,4388,6492,-168,183,-190,2025-02-17 10:55:02,0.0
17652,4360,6440,-179,178,-157,2025-02-17 10:55:02,0.0
17608,4360,6528,-173,200,-164,2025-02-17 10:55:02,0.0
17564,4428,6520,-169,161,-162,2025-02-17 10:55:02,0.0
17672,4368,6520,-165,208,-166,2025-02-17 10:55:02,0.0
17580,4404,6416,-154,189,-153,2025-02-17 10:55:02,0.0
17580,4356,6684,-157,177,-157,2025-02-17 10:55:02,0.0
17652,4288,6328,-172,169,-140,2025-02-17 10:55:02,0.0
17564,4320,6544,-158,212,-137,2025-02-17 10:55:02,0.0
17580,4376,6328,-181,195,-146,2025-02-17 10:55:03,0.0
17504,4364,6432,-197,181,-165,2025-02-17 10:55:03,0.0
17480,4448,6524,-137,175,-162,2025-02-17 10:55:03,0.0
17588,4424,6424,-181,201,-179,2025-02-17 10:55:03,0.0
17620,4312,6364,-177,181,-145,2025-02-17 10:55:03,0.0
17588,4356,6404,-155,208,-137,2025-02-17 10:55:03,0.0
17600,4320,6460,-159,202,-164,2025-02-17 10:55:03,0.0
17604,4416,6496,-191,199,-148,2025-02-17 10:55:03,0.0
17568,4284,6676,-168,163,-160,2025-02-17 10:55:03,0.0
17600,4368,6460,-174,184,-189,2025-02-17 10:55:03,0.0
17564,4472,6436,-178,182,-156,2025-02-17 10:55:03,0.0
17532,4436,6476,-167,202,-169,2025-02-17 10:55:03,0.0
17692,4328,6324,-160,197,-170,2025-02-17 10:55:03,0.0
17600,4348,6452,-151,187,-147,2025-02-17 10:55:03,0.0
17576,4380,6380,-191,167,-161,2025-02-17 10:55:03,0.0
17712,4292,6448,-148,167,-170,2025-02-17 10:55:03,0.0
17536,4380,6508,-158,179,-153,2025-02-17 10:55:03,0.0
17720,4304,6404,-183,214,-156,2025-02-17 10:55:03,0.0
17596,4344,6572,-193,228,-164,2025-02-17 10:55:03,0.0
17680,4340,6624,-163,178,-173,2025-02-17 10:55:03,0.0
17632,4348,6532,-154,159,-159,2025-02-17 10:55:03,0.0
17636,4312,6296,-169,172,-173,2025-02-17 10:55:03,0.0
17672,4384,6480,-173,226,-174,2025-02-17 10:55:03,0.0
17540,4320,6492,-187,210,-171,2025-02-17 10:55:03,0.0
17568,4316,6476,-162,158,-153,2025-02-17 10:55:03,0.0
17516,4376,6408,-157,185,-154,2025-02-17 10:55:03,0.0
17632,4296,6360,-155,191,-170,2025-02-17 10:55:03,0.0
17576,4396,6344,-155,206,-166,2025-02-17 10:55:03,0.0
17556,4348,6424,-159,180,-153,2025-02-17 10:55:03,0.0
17520,4340,6576,-154,142,-167,2025-02-17 10:55:03,0.0
17588,4360,6348,-153,196,-151,2025-02-17 10:55:03,0.0
17616,4340,6340,-159,217,-164,2025-02-17 10:55:03,0.0
17584,4472,6432,-172,219,-165,2025-02-17 10:55:03,0.0
17496,4308,6520,-190,183,-156,2025-02-17 10:55:03,0.0
17632,4300,6460,-132,173,-152,2025-02-17 10:55:03,0.0
17636,4336,6344,-144,189,-162,2025-02-17 10:55:03,0.0
17592,4332,6492,-154,199,-176,2025-02-17 10:55:03,0.0
17588,4352,6412,-157,195,-184,2025-02-17 10:55:03,0.0
17552,4336,6492,-147,186,-166,2025-02-17 10:55:03,0.0
17700,4452,6448,-177,176,-176,2025-02-17 10:55:03,0.0
17588,4352,6528,-172,210,-130,2025-02-17 10:55:03,0.0
17604,4304,6516,-184,191,-160,2025-02-17 10:55:03,0.0
17580,4408,6432,-152,247,-178,2025-02-17 10:55:03,0.0
17688,4356,6520,-165,148,-148,2025-02-17 10:55:03,0.0
17624,4364,6364,-191,187,-178,2025-02-17 10:55:03,0.0
17576,4424,6416,-185,200,-177,2025-02-17 10:55:03,0.0
17564,4340,6508,-182,216,-167,2025-02-17 10:55:03,0.0
17680,4292,6520,-180,207,-147,2025-02-17 10:55:03,0.0
17600,4376,6504,-156,152,-147,2025-02-17 10:55:03,0.0
17600,4360,6492,-157,196,-168,2025-02-17 10:55:03,0.0
17588,4364,6424,-185,214,-151,2025-02-17 10:55:03,0.0
17632,4432,6424,-183,206,-169,2025-02-17 10:55:03,0.0
17716,4368,6436,-153,171,-137,2025-02-17 10:55:03,0.0
17584,4408,6392,-145,175,-165,2025-02-17 10:55:03,0.0
17620,4244,6324,-136,172,-165,2025-02-17 10:55:03,0.0
17608,4304,6540,-136,208,-179,2025-02-17 10:55:03,0.0
17532,4328,6512,-177,162,-148,2025-02-17 10:55:03,0.0
17628,4372,6548,-179,170,-158,2025-02-17 10:55:03,0.0
17592,4336,6488,-172,200,-154,2025-02-17 10:55:03,0.0
17612,4356,6404,-146,164,-157,2025-02-17 10:55:04,0.0
17652,4396,6444,-177,173,-162,2025-02-17 10:55:04,0.0
17676,4404,6584,-174,196,-164,2025-02-17 10:55:04,0.0
17696,4364,6556,-164,186,-148,2025-02-17 10:55:04,0.0
17584,4388,6548,-167,183,-159,2025-02-17 10:55:04,0.0
17496,4380,6468,-165,190,-154,2025-02-17 10:55:04,0.0
17688,4324,6348,-157,214,-153,2025-02-17 10:55:04,
17628,4368,6544,-153,182,-172,2025-02-17 10:55:04,0.0
17540,4228,6588,-156,142,-165,2025-02-17 10:55:04,0.0
17652,4368,6356,-171,206,-161,2025-02-17 10:55:04,0.0
17644,4348,6420,-139,179,-158,2025-02-17 10:55:04,0.0
17620,4340,6512,-147,183,-165,2025-02-17 10:55:04,0.0
17524,4364,6580,-159,159,-167,2025-02-17 10:55:04,0.0
17512,4408,6444,-167,196,-161,2025-02-17 10:55:04,0.0
17480,4324,6552,-171,179,-153,2025-02-17 10:55:04,0.0
17552,4376,6492,-192,209,-173,2025-02-17 10:55:04,0.0
17512,4272,6468,-203,209,-149,2025-02-17 10:55:04,0.0
17624,4320,6448,-164,167,-154,2025-02-17 10:55:04,0.0
17732,4204,6400,-150,175,-151,2025-02-17 10:55:04,0.0
17612,4328,6504,-184,203,-166,2025-02-17 10:55:04,0.0
17580,4352,6552,-171,198,-148,2025-02-17 10:55:04,0.0
17608,4212,6720,-175,177,-142,2025-02-17 10:55:04,0.0
17592,4324,6364,-186,192,-161,2025-02-17 10:55:04,0.0
17620,4312,6356,-195,184,-194,2025-02-17 10:55:04,0.0
17644,4356,6416,-155,185,-180,2025-02-17 10:55:04,0.0
17568,4280,6572,-164,188,-156,2025-02-17 10:55:04,0.0
17732,4304,6388,-161,200,-159,2025-02-17 10:55:04,0.0
17612,4276,6532,-131,174,-158,2025-02-17 10:55:04,0.0
17560,4380,6584,-161,172,-144,2025-02-17 10:55:04,0.0
17620,4336,6504,-190,231,-135,2025-02-17 10:55:04,0.0
17696,4324,6596,-166,187,-165,2025-02-17 10:55:04,0.0
17568,4200,6520,-148,173,-175,2025-02-17 10:55:04,0.0
17560,4376,6512,-149,191,-175,2025-02-17 10:55:04,0.0
17592,4272,6664,-163,161,-166,2025-02-17 10:55:04,0.0
17572,4288,6448,-187,177,-160,2025-02-17 10:55:04,0.0
17688,4296,6464,-172,173,-169,2025-02-17 10:55:04,0.0
17672,4312,6468,-193,157,-175,2025-02-17 10:55:04,0.0
17588,4396,6292,-163,157,-162,2025-02-17 10:55:04,0.0
17620,4344,6412,-175,186,-172,2025-02-17 10:55:04,0.0
17636,4324,6496,-142,173,-160,2025-02-17 10:55:04,0.0
18608,4436,6436,-177,-31,-359,2025-02-17 10:55:04,0.0
18752,3932,6996,14,-238,-639,2025-02-17 10:55:04,0.0
17396,4900,5692,-53,-441,-692,2025-02-17 10:55:04,0.0
16808,4656,5372,-106,292,-168,2025-02-17 10:55:04,0.0
17544,3952,6436,-217,671,-45,2025-02-17 10:55:04,0.0
18672,4168,6620,-231,423,-403,2025-02-17 10:55:04,0.0
18244,4332,7112,-66,200,-698,2025-02-17 10:55:04,0.0
18004,4704,6916,99,-186,-1044,2025-02-17 10:55:04,0.0
18384,4708,6860,192,-660,-1422,2025-02-17 10:55:04,0.0
18572,4748,7500,719,-943,-2048,2025-02-17 10:55:04,0.0
20348,4072,6872,1208,-2085,-3286,2025-02-17 10:55:04,0.0
21808,4240,5612,975,-4738,-5031,2025-02-17 10:55:05,0.0
23456,4388,5116,73,-8037,-7216,2025-02-17 10:55:05,0.0
26948,5124,5908,-414,-12577,-11414,2025-02-17 10:55:05,0.0
29000,5196,7120,-82,-16836,-17160,2025-02-17 10:55:05,0.0
29220,4484,7656,531,-19629,-23470,2025-02-17 10:55:05,0.0
25940,4404,6460,1026,-21529,-28268,2025-02-17 10:55:05,0.0
21572,5428,6088,715,-22622,-31206,2025-02-17 10:55:05,0.0
19388,6332,5056,349,-23633,-32768,2025-02-17 10:55:05,0.0
16148,7024,3496,-720,-24891,-32768,2025-02-17 10:55:05,0.0
2860,27652,6444,-21227,-32768,-12906,2025-02-17 10:55:05,0.0
208,25828,4096,-18590,-32768,-10292,2025-02-17 10:55:05,0.0
-1292,24164,4008,-16105,-32768,-6240,2025-02-17 10:55:05,0.0
172,22548,7112,-11210,-23979,-4256,2025-02-17 10:55:05,0.0
-976,22012,7812,-4054,-12474,-2469,2025-02-17 10:55:05,0.0
-216,20896,6376,3387,-127,-671,2025-02-17 10:55:05,0.0
516,19612,4524,8804,10316,-204,2025-02-17 10:55:05,0.0
-360,18672,2752,12188,19264,429,2025-02-17 10:55:05,0.0
-528,19424,2080,13671,26160,2084,2025-02-17 10:55:05,0.0
1268,19068,1804,14310,30860,3575,2025-02-17 10:55:05,0.0
4492,18000,1884,15002,32767,2984,2025-02-17 10:55:05,0.0
5236,17132,2352,14899,32767,2480,2025-02-17 10:55:05,0.0
1004,15764,-796,13531,32208,2219,2025-02-17 10:55:05,0.0
-1368,15148,-1324,9338,30562,4095,2025-02-17 10:55:05,0.0
240,16404,1300,5840,26930,5559,2025-02-17 10:55:05,0.0
1360,16808,3752,5105,22368,6194,2025-02-17 10:55:05,0.0
3128,15592,3484,5742,16028,5877,2025-02-17 10:55:05,0.0
4348,13516,896,5104,10236,4795,2025-02-17 10:55:05,0.0
6488,11184,-728,2370,3509,1390,2025-02-17 10:55:05,0.0
7292,10124,-776,3,-851,-2392,2025-02-17 10:55:05,0.0
5672,9732,656,-1489,-4274,-5679,2025-02-17 10:55:05,0.0
2692,9908,2600,-1558,-6946,-6709,2025-02-17 10:55:05,0.0
2492,10016,4156,-247,-9225,-6573,2025-02-17 10:55:05,0.0
3072,9488,4284,1631,-10902,-6878,2025-02-17 10:55:05,0.0
1720,9012,2104,2697,-12097,-6907,2025-02-17 10:55:05,0.0
976,8848,644,1965,-12692,-5892,2025-02-17 10:55:05,0.0
176,9476,-96,752,-12950,-4727,2025-02-17 10:55:05,0.0
2044,9912,1048,-550,-12757,-3559,2025-02-17 10:55:05,0.0
1244,10600,1260,-1214,-13032,-2502,2025-02-17 10:55:05,0.0
120,11484,1036,-2049,-13119,-596,2025-02-17 10:55:05,0.0
408,11880,376,-3095,-12653,1604,2025-02-17 10:55:05,0.0
1576,11572,8,-4281,-11466,3004,2025-02-17 10:55:05,0.0
3760,10980,760,-5413,-9592,2458,2025-02-17 10:55:05,0.0
2704,18556,7900,-2455,-319,-169,2025-02-17 10:55:05,0.0
2656,15696,4780,2902,13206,-3041,2025-02-17 10:55:05,0.0
3572,14556,-660,5553,15568,-6127,2025-02-17 10:55:05,0.0
3072,11016,-1848,3571,28460,-10863,2025-02-17 10:55:05,0.0
6420,10152,1780,3342,32767,-16655,2025-02-17 10:55:05,0.0
4648,10480,2024,5054,32767,-20950,2025-02-17 10:55:05,0.0
772,8708,1168,5746,31927,-21891,2025-02-17 10:55:05,0.0
-24,7376,-3672,3965,27490,-25450,2025-02-17 10:55:05,0.0
-3496,8980,-4452,1181,24274,-27053,2025-02-17 10:55:05,0.0
-5152,9456,-4628,-1886,22982,-27341,2025-02-17 10:55:05,0.0
132,9024,-2972,-3036,25919,-30808,2025-02-17 10:55:05,0.0
-3748,9712,-460,87,24187,-31524,2025-02-17 10:55:05,0.0
-9216,8808,-4200,459,20963,-27576,2025-02-17 10:55:05,0.0
-8840,7776,-4552,-687,19833,-25449,2025-02-17 10:55:05,
-9608,7744,-4596,-1697,18781,-25301,2025-02-17 10:55:05,0.0
-10928,9536,-3976,-4208,17499,-22414,2025-02-17 10:55:05,0.0
-7888,6012,-1132,-2757,16365,-19440,2025-02-17 10:55:05,0.0
-6460,4556,464,5552,14865,-21551,2025-02-17 10:55:05,0.0
-3048,7776,-6480,11440,14421,-19308,2025-02-17 10:55:06,0.0
-6416,6328,-10532,8621,15208,-17066,2025-02-17 10:55:06,0.0
-1788,3544,-8392,3793,12937,-19980,2025-02-17 10:55:06,0.0
-4600,3580,-6964,3927,9002,-22971,2025-02-17 10:55:06,0.0
-7496,2976,-5880,2745,3493,-21978,2025-02-17 10:55:06,0.0
-6492,2184,-3680,1109,-3757,-19822,2025-02-17 10:55:06,0.0
-4620,-368,-2252,-503,-8858,-21229,2025-02-17 10:55:06,0.0
-4768,-1280,-344,-746,-10595,-23057,2025-02-17 10:55:06,0.0
-7992,-1200,148,-1172,-10815,-23765,2025-02-17 10:55:06,0.0
-11488,68,1448,473,-8740,-21501,2025-02-17 10:55:06,0.0
-12492,320,-416,3556,-4790,-18118,2025-02-17 10:55:06,0.0
-12816,-364,-5564,3755,1533,-14738,2025-02-17 10:55:06,0.0
-11304,-2264,-11448,-523,11115,-12008,2025-02-17 10:55:06,0.0
-8740,-2704,-10844,-4405,23270,-13380,2025-02-17 10:55:06,0.0
-7952,-620,-7836,-910,32767,-18317,2025-02-17 10:55:06,0.0
-12180,916,-13648,2326,32767,-18701,2025-02-17 10:55:06,0.0
-11712,720,-18232,1926,32767,-16067,2025-02-17 10:55:06,0.0
-12024,8,-18164,813,32767,-13315,2025-02-17 10:55:06,0.0
-11808,-460,-17976,1208,32767,-10206,2025-02-17 10:55:06,0.0
-10384,-1632,-18760,-473,32571,-8071,2025-02-17 10:55:06,0.0
-8764,-2064,-16860,-4255,18109,-6733,2025-02-17 10:55:06,0.0
-10108,-528,-12576,-3421,-925,-4099,2025-02-17 10:55:06,0.0
-11016,-920,-12992,-2306,-15403,-3198,2025-02-17 10:55:06,0.0
-32768,-4832,4296,-404,-11530,5666,2025-02-17 10:55:06,0.0
-18144,-4972,-8684,1140,-3052,11440,2025-02-17 10:55:06,0.0
1216,-260,-16392,3979,-22233,8739,2025-02-17 10:55:06,0.0
1484,696,-21316,-313,-32768,2166,2025-02-17 10:55:06,0.0
-12544,1568,-22564,-5995,-32768,-1506,2025-02-17 10:55:06,0.0
-11652,732,-11936,-7973,-27212,-787,2025-02-17 10:55:06,0.0
-9728,328,-6936,-6232,-31313,-429,2025-02-17 10:55:06,0.0
-6660,-44,-9556,-6051,-32768,-1263,2025-02-17 10:55:06,0.0
-5372,608,-8848,-7585,-32768,-2449,2025-02-17 10:55:06,0.0
-2284,1072,-5992,-8919,-32768,-3546,2025-02-17 10:55:06,0.0
592,1384,-4832,-8219,-32768,-5980,2025-02-17 10:55:06,0.0
-2424,668,-7872,-9341,-32768,-9043,2025-02-17 10:55:06,0.0
-9032,1620,12720,-12124,-32768,-9962,2025-02-17 10:55:06,0.0
-15452,-1208,17056,-2662,-29548,-8256,2025-02-17 10:55:06,0.0
-17648,-2192,1896,2426,5782,-5225,2025-02-17 10:55:06,0.0
-10364,-4180,-7172,704,23203,-2876,2025-02-17 10:55:06,0.0
-6112,-5616,-5052,-2150,27659,-3504,2025-02-17 10:55:06,0.0
-7808,-3180,-996,-2988,26748,-6130,2025-02-17 10:55:06,0.0
-10404,-1612,-548,-2366,25603,-6403,2025-02-17 10:55:06,0.0
-12216,-2736,1456,871,23441,-5983,2025-02-17 10:55:06,0.0
-17616,-2072,-2988,2391,23230,-4022,2025-02-17 10:55:06,0.0
-13936,-2572,-3996,2567,19887,-1552,2025-02-17 10:55:06,0.0
-19584,-2276,-4948,2218,12046,-777,2025-02-17 10:55:06,0.0
-21300,-2672,-7028,492,5974,4119,2025-02-17 10:55:06,0.0
-14260,-1508,-7480,-923,-2585,5749,2025-02-17 10:55:06,0.0
-10948,-972,-7152,-2452,-12962,3926,2025-02-17 10:55:06,0.0
-11316,80,5748,-3940,-23668,2562,2025-02-17 10:55:06,0.0
-10776,-2460,852,-396,-12247,3367,2025-02-17 10:55:06,0.0
-6684,-2244,-1368,101,-1774,2582,2025-02-17 10:55:06,0.0
-7948,-1716,-2040,-99,1619,2854,2025-02-17 10:55:06,0.0
-8672,-1360,-2868,-492,2394,3183,2025-02-17 10:55:06,0.0
-9592,-1036,-3276,-829,1501,2291,2025-02-17 10:55:06,0.0
-11640,-1064,-4908,-1668,-116,1399,2025-02-17 10:55:06,0.0
-13524,-1092,-4572,-1841,-1681,2001,2025-02-17 10:55:06,0.0
-14492,-524,-3512,-904,-3392,3841,2025-02-17 10:55:06,0.0
-15948,-136,-2048,54,-3783,6678,2025-02-17 10:55:06,0.0
-12828,792,-2220,856,-2991,8345,2025-02-17 10:55:06,0.0
-11988,1236,-560,1407,-1678,7493,2025-02-17 10:55:06,0.0
-11160,156,-360,1890,314,6412,2025-02-17 10:55:06,0.0
-9916,-148,-3644,1583,3,5830,2025-02-17 10:55:07,0.0
-13940,-1260,-2000,-59,2136,6798,2025-02-17 10:55:07,0.0
-12968,-1540,-892,1033,1966,8039,2025-02-17 10:55:07,0.0
-12024,192,-140,775,2243,7295,2025-02-17 10:55:07,0.0
-13992,2236,-36,1076,1962,6619,2025-02-17 10:55:07,0.0
-15376,3360,-1016,1432,2337,5397,2025-02-17 10:55:07,0.0
-17032,2032,-3176,603,1165,3597,2025-02-17 10:55:07,0.0
-12808,5100,-4204,-352,-2360,754,2025-02-17 10:55:07,0.0
-15296,4324,-1200,-601,-1923,454,2025-02-17 10:55:07,0.0
-13868,4680,-2860,-215,-3785,-91,2025-02-17 10:55:07,0.0
-13172,3752,228,326,-3076,-487,2025-02-17 10:55:07,0.0
-14640,2488,-1284,343,-1531,-118,2025-02-17 10:55:07,0.0
-15532,276,-1100,-161,270,754,2025-02-17 10:55:07,0.0
-15588,1712,-92,454,1374,1559,2025-02-17 10:55:07,0.0
-17292,2124,-272,1473,4217,2238,2025-02-17 10:55:07,0.0
-20216,2428,516,2294,9530,3497,2025-02-17 10:55:07,0.0
-9652,1968,-1752,3074,5803,4081,2025-02-17 10:55:07,0.0
-3308,1368,-3164,2946,-3832,2345,2025-02-17 10:55:07,0.0
-11228,1788,-3140,1649,-3902,-364,2025-02-17 10:55:07,0.0
-11580,2868,-4220,1394,-1308,-934,2025-02-17 10:55:07,0.0
-14008,2788,-3624,1896,-4937,-283,2025-02-17 10:55:07,0.0
-14732,3252,-3224,2297,-11133,337,2025-02-17 10:55:07,0.0
-14036,4084,-4412,1272,-13534,685,2025-02-17 10:55:07,0.0
-11976,4764,656,-137,-11526,305,2025-02-17 10:55:07,0.0
-19896,5972,4024,183,-3674,-2947,2025-02-17 10:55:07,0.0
-21680,11220,-1628,-3142,4148,-9515,2025-02-17 10:55:07,0.0
-32768,11340,-1180,-6226,-5948,-10667,2025-02-17 10:55:07,0.0
-32768,7500,1372,-3596,-7647,-3170,2025-02-17 10:55:07,0.0
-19268,3460,-3400,-1637,-2038,-368,2025-02-17 10:55:07,0.0
-8272,-628,-5364,318,-9546,385,2025-02-17 10:55:07,0.0
-8212,-2400,-1196,-1005,-12936,-1078,2025-02-17 10:55:07,0.0
-12368,-404,4596,-1244,-6216,-1981,2025-02-17 10:55:07,0.0
-14564,-288,3820,-415,805,-1718,2025-02-17 10:55:07,0.0
-12552,-1460,1416,-930,2593,-2459,2025-02-17 10:55:07,
-15732,-1600,-1004,-1500,956,-3150,2025-02-17 10:55:07,0.0
-12976,-648,320,-1466,-3379,-4360,2025-02-17 10:55:07,0.0
-9132,-728,2384,-108,-9046,-6641,2025-02-17 10:55:07,0.0
-13432,124,1940,387,-9834,-5682,2025-02-17 10:55:07,0.0
-14596,244,2108,159,-9438,-3564,2025-02-17 10:55:07,0.0
-17756,796,3404,-189,-9567,-1027,2025-02-17 10:55:07,0.0
-14232,1004,4720,-542,-9507,-676,2025-02-17 10:55:07,0.0
-14632,232,4512,-1215,-10573,-292,2025-02-17 10:55:07,0.0
-13668,-992,5136,-1421,-10917,944,2025-02-17 10:55:07,0.0
-14336,-224,5776,-806,-9283,1324,2025-02-17 10:55:07,0.0
-13512,1280,6308,-438,-7282,961,2025-02-17 10:55:07,0.0
-13496,632,4684,-678,-6858,757,2025-02-17 10:55:07,0.0
-10188,576,4480,-662,-8305,593,2025-02-17 10:55:07,0.0
-13112,1016,3676,-987,-10861,320,2025-02-17 10:55:07,0.0
-13904,408,4016,-2021,-15988,1608,2025-02-17 10:55:07,0.0
-12080,2368,5532,-1460,-13492,1668,2025-02-17 10:55:07,0.0
-14960,2388,9452,-405,-6697,237,2025-02-17 10:55:07,0.0
-13100,1336,6768,-529,-1346,-138,2025-02-17 10:55:07,0.0
-11660,1228,5552,-723,-2324,-497,2025-02-17 10:55:07,0.0
-12428,976,6056,-705,-4063,-560,2025-02-17 10:55:07,0.0
-12252,552,6260,-652,-4533,-225,2025-02-17 10:55:07,0.0
-12180,900,7396,-319,-4584,-16,2025-02-17 10:55:07,0.0
-12484,1112,7376,-357,-5823,-389,2025-02-17 10:55:07,0.0
-13092,1164,8124,-357,-7522,-908,2025-02-17 10:55:07,0.0
-13776,1248,10196,-396,-9613,-2029,2025-02-17 10:55:07,0.0
-13032,972,9676,-395,-9251,-2282,2025-02-17 10:55:07,0.0
-11680,500,9500,-38,-7431,-2122,2025-02-17 10:55:07,0.0
-11192,772,9152,76,-5033,-1843,2025-02-17 10:55:07,0.0
-14828,-504,7940,260,-3928,-765,2025-02-17 10:55:08,0.0
-13988,180,7908,-702,-3455,-658,2025-02-17 10:55:08,0.0
-12824,1436,9296,-1588,-6038,-53,2025-02-17 10:55:08,0.0
-11760,1232,9396,-1634,-8592,-525,2025-02-17 10:55:08,0.0
-9772,228,9628,-1655,-8436,-1365,2025-02-17 10:55:08,0.0
-10700,-984,11308,-1283,-4515,-1218,2025-02-17 10:55:08,0.0
-10556,-568,11804,175,163,-619,2025-02-17 10:55:08,0.0
-9504,432,9036,103,2427,-1314,2025-02-17 10:55:08,0.0
-10000,812,8024,-536,1463,-2547,2025-02-17 10:55:08,0.0
-9876,760,8096,-1236,183,-3623,2025-02-17 10:55:08,0.0
-10928,620,8480,-1745,-307,-4342,2025-02-17 10:55:08,0.0
-14876,-716,11352,-722,507,-3279,2025-02-17 10:55:08,0.0
-15732,-1156,10724,821,1579,-1103,2025-02-17 10:55:08,0.0
-11920,-12,6908,894,1275,388,2025-02-17 10:55:08,0.0
-12780,564,7296,-301,-319,134,2025-02-17 10:55:08,0.0
-14044,-200,10700,450,-520,318,2025-02-17 10:55:08,0.0
-12460,92,10108,1564,258,1488,2025-02-17 10:55:08,0.0
-10296,652,8840,2255,506,979,2025-02-17 10:55:08,0.0
-10128,900,8924,2178,1119,-123,2025-02-17 10:55:08,0.0
-8876,1324,6756,543,768,-2228,2025-02-17 10:55:08,0.0
-10304,820,8524,-625,1229,-3430,2025-02-17 10:55:08,0.0
-14440,-872,10984,155,2111,-2634,2025-02-17 10:55:08,0.0
-16048,-1444,10108,680,2086,-675,2025-02-17 10:55:08,0.0
-13536,-700,7924,239,121,411,2025-02-17 10:55:08,0.0
-12740,-436,9316,-316,-1488,-349,2025-02-17 10:55:08,0.0
-11696,-428,10620,44,-546,-483,2025-02-17 10:55:08,0.0
-11948,-956,9532,360,580,-152,2025-02-17 10:55:08,0.0
-13164,-288,9428,449,249,262,2025-02-17 10:55:08,0.0
-12900,-328,9844,1062,-619,639,2025-02-17 10:55:08,0.0
-12572,-420,9636,1685,-1113,1309,2025-02-17 10:55:08,0.0
-12232,-660,10856,3125,-1186,1862,2025-02-17 10:55:08,0.0
-10784,-100,9524,3490,-908,1872,2025-02-17 10:55:08,0.0
-9508,472,8852,3449,-550,684,2025-02-17 10:55:08,0.0
-9484,1584,6188,1376,225,-1457,2025-02-17 10:55:08,0.0
-11372,1120,7288,-1575,3,-2243,2025-02-17 10:55:08,0.0
-13628,-336,11440,-1048,-859,-1891,2025-02-17 10:55:08,0.0
-13784,-328,12132,437,731,153,2025-02-17 10:55:08,0.0
-12504,-36,9692,720,1409,1105,2025-02-17 10:55:08,0.0
-13136,0,9548,1248,1155,2228,2025-02-17 10:55:08,0.0
-12220,832,7600,557,363,2496,2025-02-17 10:55:08,0.0
-10960,1280,6160,-734,-354,1481,2025-02-17 10:55:08,0.0
-9396,1584,7036,-2317,-918,-231,2025-02-17 10:55:08,0.0
-12208,872,12212,-1008,164,-871,2025-02-17 10:55:08,0.0
-12728,396,8992,76,684,180,2025-02-17 10:55:08,0.0
-12052,1012,7968,-815,-665,84,2025-02-17 10:55:08,0.0
-11832,1164,9444,-1328,-843,-298,2025-02-17 10:55:08,0.0
-11576,452,10652,-913,-183,-689,2025-02-17 10:55:08,0.0
-12024,368,10100,-162,361,-562,2025-02-17 10:55:08,0.0
-12152,544,10184,-27,585,78,2025-02-17 10:55:08,0.0
-12104,720,8896,-346,-75,38,2025-02-17 10:55:08,0.0
-12132,756,9152,-426,-372,-145,2025-02-17 10:55:08,0.0
-11948,300,9144,-594,-204,-22,2025-02-17 10:55:08,0.0
-12440,-60,9768,-592,-301,-33,2025-02-17 10:55:08,0.0
-12248,-68,10284,-400,-570,235,2025-02-17 10:55:08,0.0
-11460,304,10160,-223,-470,27,2025-02-17 10:55:08,0.0
-12320,892,8748,-655,590,207,2025-02-17 10:55:08,0.0
-11460,324,10140,-726,402,421,2025-02-17 10:55:08,0.0
-11280,656,10008,-616,707,-532,2025-02-17 10:55:08,0.0
-10744,448,9108,-787,790,-946,2025-02-17 10:55:08,0.0
-12284,532,9356,-986,631,-1486,2025-02-17 10:55:09,0.0
-12984,236,9776,-949,259,-1122,2025-02-17 10:55:09,0.0
-12788,-36,9932,-487,84,-412,2025-02-17 10:55:09,0.0
-12272,-108,9696,-317,-54,-35,2025-02-17 10:55:09,0.0
-12088,28,10112,-264,288,62,2025-02-17 10:55:09,0.0
-12216,16,9836,-101,556,275,2025-02-17 10:55:09,0.0
-12388,-1544,7048,-832,388,554,2025-02-17 10:55:09,0.0
-12244,1064,8696,-663,-453,883,2025-02-17 10:55:09,0.0
-11012,808,7428,-2361,-1290,229,2025-02-17 10:55:09,0.0
-11816,-120,11964,-982,-929,-291,2025-02-17 10:55:09,0.0
-10640,144,9840,70,306,-152,2025-02-17 10:55:09,0.0
-11184,884,8452,-356,1035,-498,2025-02-17 10:55:09,0.0
-11928,352,9344,-680,256,-985,2025-02-17 10:55:09,
-11872,40,9760,-553,-59,-852,2025-02-17 10:55:09,0.0
-12340,96,10064,-380,7,-571,2025-02-17 10:55:09,0.0
-12016,-76,9904,302,337,-35,2025-02-17 10:55:09,0.0
-11824,232,10188,504,463,46,2025-02-17 10:55:09,0.0
-11124,440,8956,316,560,-300,2025-02-17 10:55:09,0.0
-11984,508,9216,34,534,-544,2025-02-17 10:55:09,0.0
-12180,452,9060,-188,329,-625,2025-02-17 10:55:09,0.0
-12524,396,9744,-61,153,-471,2025-02-17 10:55:09,0.0
-12208,512,9556,44,136,-252,2025-02-17 10:55:09,0.0
-11896,328,9500,44,196,20,2025-02-17 10:55:09,0.0
-11648,312,9524,-148,435,-70,2025-02-17 10:55:09,0.0
-11668,224,9692,-268,550,-128,2025-02-17 10:55:09,0.0
-12008,192,9552,-404,651,-201,2025-02-17 10:55:09,0.0
-12032,216,9576,-431,579,-176,2025-02-17 10:55:09,0.0
-12060,0,9544,-423,440,-251,2025-02-17 10:55:09,0.0
-12008,48,9576,-394,320,-275,2025-02-17 10:55:09,0.0
-12008,68,9824,-293,287,-229,2025-02-17 10:55:09,0.0
-11800,264,9564,-213,342,-65,2025-02-17 10:55:09,0.0
-11904,232,9464,-193,323,-62,2025-02-17 10:55:09,0.0
-12008,280,9512,-138,303,-84,2025-02-17 10:55:09,0.0
-11948,280,9356,-136,222,-106,2025-02-17 10:55:09,0.0
-11908,344,9344,-164,152,-177,2025-02-17 10:55:09,0.0
-11964,352,9392,-113,138,-202,2025-02-17 10:55:09,0.0
-11936,408,9436,-184,145,-239,2025-02-17 10:55:09,0.0
-11420,344,8564,-193,8,-286,2025-02-17 10:55:09,0.0
-11964,236,9420,-124,120,-150,2025-02-17 10:55:09,0.0
-11912,264,9376,-158,-37,-55,2025-02-17 10:55:09,0.0
-11864,104,9556,-147,-75,-74,2025-02-17 10:55:09,0.0
-11864,192,9796,-151,32,-111,2025-02-17 10:55:09,0.0
-11804,192,9420,-169,89,-207,2025-02-17 10:55:09,0.0
-12000,268,9660,-190,94,-279,2025-02-17 10:55:09,0.0
-11652,264,9268,-155,-169,-168,2025-02-17 10:55:09,0.0
-11876,392,9552,-46,50,-127,2025-02-17 10:55:09,0.0
-12032,372,9720,-3,-4,-126,2025-02-17 10:55:09,0.0
-11916,364,9424,-62,-56,-181,2025-02-17 10:55:09,0.0
-11940,168,9604,-96,-100,-258,2025-02-17 10:55:09,0.0
-11840,188,9668,-77,-56,-199,2025-02-17 10:55:09,0.0
-11828,236,9560,-58,10,-158,2025-02-17 10:55:09,0.0
-11868,212,9596,-98,102,-171,2025-02-17 10:55:09,0.0
-11920,260,9520,-96,86,-153,2025-02-17 10:55:09,0.0
-11888,232,9488,-117,79,-135,2025-02-17 10:55:09,0.0
-11936,312,9484,-128,81,-158,2025-02-17 10:55:09,0.0
-11860,400,9696,-149,102,-179,2025-02-17 10:55:09,0.0
-12168,468,9844,-168,-19,-212,2025-02-17 10:55:09,0.0
-11712,308,9376,-69,45,-188,2025-02-17 10:55:09,0.0
-12164,400,9596,-29,-39,-195,2025-02-17 10:55:10,0.0
-11820,344,9336,8,-128,-171,2025-02-17 10:55:10,0.0
-11676,424,9452,38,-371,-105,2025-02-17 10:55:10,0.0
-11764,128,9468,-25,-390,-227,2025-02-17 10:55:10,0.0
-11664,-84,9544,-53,-241,-353,2025-02-17 10:55:10,0.0
-11708,-772,10184,103,-345,-103,2025-02-17 10:55:10,0.0
-10988,-1340,8768,225,-102,467,2025-02-17 10:55:10,0.0
-12064,-452,9020,-210,67,823,2025-02-17 10:55:10,0.0
-12988,92,9080,-71,954,1959,2025-02-17 10:55:10,0.0
-13216,1184,9136,-127,399,2674,2025-02-17 10:55:10,0.0
-11724,1692,9692,-148,-669,2325,2025-02-17 10:55:10,0.0
-10668,1200,10104,-139,-922,1455,2025-02-17 10:55:10,0.0
-10812,1372,10220,222,29,855,2025-02-17 10:55:10,0.0
-11292,1196,9724,268,700,535,2025-02-17 10:55:10,0.0
-12024,768,9500,-66,677,617,2025-02-17 10:55:10,0.0
-10636,664,9356,-308,324,124,2025-02-17 10:55:10,0.0
-10548,592,9736,-1059,1173,-878,2025-02-17 10:55:10,0.0
-13056,8,9976,-41,1496,353,2025-02-17 10:55:10,0.0
-13212,76,9256,-183,228,446,2025-02-17 10:55:10,0.0
-11544,364,9432,-162,-738,308,2025-02-17 10:55:10,0.0
-10712,544,9124,-528,-825,-498,2025-02-17 10:55:10,0.0
-11376,136,9992,-470,-50,-476,2025-02-17 10:55:10,0.0
-11380,500,9880,-671,137,-538,2025-02-17 10:55:10,0.0
-11616,868,10228,-542,105,-828,2025-02-17 10:55:10,0.0
-11392,1056,10436,-258,316,-772,2025-02-17 10:55:10,0.0
-11532,1388,10412,-367,716,-796,2025-02-17 10:55:10,0.0
-11472,1308,9984,-886,250,-792,2025-02-17 10:55:10,0.0
-11504,976,11116,-1226,250,-834,2025-02-17 10:55:10,0.0
-11084,436,11160,-1260,767,-583,2025-02-17 10:55:10,0.0
-10556,136,11028,-1402,1868,-537,2025-02-17 10:55:10,0.0
-10504,0,10988,-901,2655,-275,2025-02-17 10:55:10,0.0
-10300,-332,10776,-798,3475,-193,2025-02-17 10:55:10,0.0
-10268,-212,10728,-464,4531,-418,2025-02-17 10:55:10,0.0
-11684,212,10300,-164,5733,-296,2025-02-17 10:55:10,0.0
-12316,716,9444,29,6371,192,2025-02-17 10:55:10,0.0
-12704,728,8884,118,6516,512,2025-02-17 10:55:10,0.0
-12908,960,6664,-180,5863,522,2025-02-17 10:55:10,0.0
-12328,860,8232,-552,5456,660,2025-02-17 10:55:10,0.0
-12004,992,7892,-669,5459,737,2025-02-17 10:55:10,0.0
-14088,2220,6480,-872,6935,909,2025-02-17 10:55:10,0.0
-13164,2348,7056,-1744,7800,1151,2025-02-17 10:55:10,0.0
-14476,2072,10084,-1324,6320,1157,2025-02-17 10:55:10,0.0
-14448,60,7932,-1748,7002,2299,2025-02-17 10:55:10,0.0
-13164,-720,8536,-861,4932,3192,2025-02-17 10:55:10,0.0
-7672,-788,12332,461,1099,2052,2025-02-17 10:55:10,0.0
-12568,-696,5900,362,4373,1803,2025-02-17 10:55:10,0.0
-13008,-352,7848,569,4916,1976,2025-02-17 10:55:10,0.0
-13948,-100,7572,940,4575,2199,2025-02-17 10:55:10,0.0
-13636,-724,7368,118,6361,3220,2025-02-17 10:55:10,0.0
-10116,-4,13504,1448,6595,3138,2025-02-17 10:55:10,0.0
-16880,1036,8872,154,10508,3955,2025-02-17 10:55:10,0.0
-20016,3764,14708,699,13334,3608,2025-02-17 10:55:10,0.0
-20904,3676,11264,122,18296,5345,2025-02-17 10:55:10,0.0
-20736,2688,8184,626,20557,5162,2025-02-17 10:55:10,0.0
-19676,816,7652,553,17102,3251,2025-02-17 10:55:10,
-17860,484,8124,1401,9394,1102,2025-02-17 10:55:10,0.0
-15552,2372,6760,2200,4723,386,2025-02-17 10:55:10,0.0
-14220,3704,5968,1957,4376,920,2025-02-17 10:55:10,0.0
-13848,3360,5744,1804,4800,49,2025-02-17 10:55:10,0.0
-15984,4332,6120,2187,5882,-1020,2025-02-17 10:55:10,0.0
-15732,3452,5536,2889,7817,-1643,2025-02-17 10:55:10,0.0
-15852,2904,2160,3892,9482,-1663,2025-02-17 10:55:10,0.0
-14356,2172,-764,3565,10017,-1548,2025-02-17 10:55:10,0.0
-12488,1564,-3936,2432,9145,-1740,2025-02-17 10:55:10,0.0
-12576,1632,-4936,1046,8708,-2088,2025-02-17 10:55:10,0.0
-13388,2208,-2736,377,9049,-2213,2025-02-17 10:55:10,0.0
-15180,2784,-3592,-102,8349,-2822,2025-02-17 10:55:11,0.0
-15744,2640,-2376,-145,7191,-2895,2025-02-17 10:55:11,0.0
-15096,2084,-2488,617,5419,-2913,2025-02-17 10:55:11,0.0
-14828,1816,-108,1426,4676,-2812,2025-02-17 10:55:11,0.0
-12588,2300,-1500,2571,3349,-2053,2025-02-17 10:55:11,0.0
-12192,2616,-1496,2391,2260,-1882,2025-02-17 10:55:11,0.0
-12312,2784,-1420,2091,2386,-2549,2025-02-17 10:55:11,0.0
-12472,1980,-2260,1453,3632,-3404,2025-02-17 10:55:11,0.0
-13352,1672,-2080,826,5039,-3702,2025-02-17 10:55:11,0.0
-12680,1904,-1784,-272,4470,-4384,2025-02-17 10:55:11,0.0
-13068,1764,-2236,-517,3893,-4703,2025-02-17 10:55:11,0.0
-11844,1392,-2344,-312,2581,-4655,2025-02-17 10:55:11,0.0
-12036,984,-1552,249,1317,-4872,2025-02-17 10:55:11,0.0
-11964,472,-1644,385,531,-5207,2025-02-17 10:55:11,0.0
-12332,192,-2004,347,175,-5232,2025-02-17 10:55:11,0.0
-12160,-88,-3060,-151,-702,-4847,2025-02-17 10:55:11,0.0
-12324,148,-2736,-870,-2298,-4707,2025-02-17 10:55:11,0.0
-12412,-200,-1072,-967,-3493,-4718,2025-02-17 10:55:11,0.0
-12624,-228,-688,-890,-4018,-4377,2025-02-17 10:55:11,0.0
-12636,-344,-1060,-971,-4094,-3704,2025-02-17 10:55:11,0.0
-11540,-384,-2988,-1591,-3136,-2807,2025-02-17 10:55:11,0.0
-11328,-896,-2740,-2289,-2793,-2344,2025-02-17 10:55:11,0.0
-11716,-1112,-1668,-3050,-2053,-1932,2025-02-17 10:55:11,0.0
-12704,-1268,524,-2771,-2031,-1698,2025-02-17 10:55:11,0.0
-12124,-1352,-980,-2372,-1252,-1510,2025-02-17 10:55:11,0.0
-11700,-1048,-628,-2027,-572,-1644,2025-02-17 10:55:11,0.0
-11960,-532,-1788,-2731,-641,-1437,2025-02-17 10:55:11,0.0
-11828,-624,-2460,-3835,-1311,-1364,2025-02-17 10:55:11,0.0
-11592,-744,-1272,-4388,-2111,-1290,2025-02-17 10:55:11,0.0
-12048,-1308,768,-3662,-2581,-1170,2025-02-17 10:55:11,0.0
-12432,-2032,732,-2801,-1895,-970,2025-02-17 10:55:11,0.0
-12120,-1988,-88,-2340,-695,-519,2025-02-17 10:55:11,0.0
-12208,-1844,-964,-2154,698,124,2025-02-17 10:55:11,0.0
-12124,-1468,-1632,-2827,3237,884,2025-02-17 10:55:11,0.0
-12056,-1420,-852,-2754,6741,1436,2025-02-17 10:55:11,0.0
-12612,-1696,164,-1731,10206,2005,2025-02-17 10:55:11,0.0
-13180,-1632,996,-133,13299,3168,2025-02-17 10:55:11,0.0
-13376,-2156,-616,854,16339,4794,2025-02-17 10:55:11,0.0
-13784,-1828,-1840,1124,19266,6687,2025-02-17 10:55:11,0.0
-13004,-1604,-3388,932,22284,8514,2025-02-17 10:55:11,0.0
-11172,-1572,-4724,845,24902,9080,2025-02-17 10:55:11,0.0
-10492,-1396,-5844,629,26514,8965,2025-02-17 10:55:11,0.0
-10040,-1592,-7740,-377,28378,8645,2025-02-17 10:55:11,0.0
-10584,-2204,-8612,-1844,30747,8324,2025-02-17 10:55:11,0.0
-10880,-2800,-8904,-3995,32767,7935,2025-02-17 10:55:11,0.0
-10180,-2788,-8816,-5787,32767,7872,2025-02-17 10:55:11,0.0
-9648,-2480,-8164,-6656,32767,8317,2025-02-17 10:55:11,0.0
-8272,-1788,-8328,-7152,29224,8424,2025-02-17 10:55:11,0.0
-7076,-1188,-9524,-7618,22431,8129,2025-02-17 10:55:11,0.0
-7100,-684,-10624,-8123,14392,7923,2025-02-17 10:55:11,0.0
-7900,-408,-11476,-8228,6990,8432,2025-02-17 10:55:11,0.0
-7872,-208,-12368,-8431,-96,9640,2025-02-17 10:55:11,0.0
-6556,-252,-12080,-9124,-8797,10944,2025-02-17 10:55:11,0.0
-5860,68,-11492,-9250,-16354,11373,2025-02-17 10:55:11,0.0
-6896,464,-10872,-9237,-20556,12023,2025-02-17 10:55:11,0.0
-8372,984,-10728,-9034,-21099,12854,2025-02-17 10:55:11,0.0
-9980,1504,-10384,-8907,-18527,13960,2025-02-17 10:55:11,0.0
-10316,2000,-10100,-8518,-13736,15271,2025-02-17 10:55:11,0.0
-10024,2164,-10004,-8272,-8089,16233,2025-02-17 10:55:11,0.0
-8568,2224,-10868,-8448,-3430,16789,2025-02-17 10:55:11,0.0
-6928,2116,-11488,-9456,-413,17322,2025-02-17 10:55:11,0.0
-6344,960,-13340,-13866,25,18796,2025-02-17 10:55:12,0.0
-6612,-356,-13812,-21810,-1743,22877,2025-02-17 10:55:12,0.0
-3364,-1532,-12004,-31680,-3348,27870,2025-02-17 10:55:12,0.0
4440,-2764,-3492,-32768,-4948,29677,2025-02-17 10:55:12,0.0
6236,-4140,2000,-32768,-6281,27082,2025-02-17 10:55:12,0.0
4392,-4276,3092,-32768,-6411,24959,2025-02-17 10:55:12,0.0
3004,-3912,2936,-32768,-6821,24838,2025-02-17 10:55:12,0.0
2952,-3832,2792,-32768,-7112,24963,2025-02-17 10:55:12,0.0
3240,-3824,2624,-32768,-7159,25011,2025-02-17 10:55:12,0.0
3140,-3612,2216,-32768,-6592,24905,2025-02-17 10:55:12,0.0
2944,-3492,2060,-32768,-5686,24702,2025-02-17 10:55:12,0.0
2768,-3448,2432,-32768,-4840,24591,2025-02-17 10:55:12,0.0
2816,-3236,2676,-32768,-4270,24463,2025-02-17 10:55:12,0.0
2840,-3080,2672,-32768,-4242,24489,2025-02-17 10:55:12,0.0
2960,-3020,3004,-31725,-4527,24742,2025-02-17 10:55:12,0.0
2976,-2844,3552,-30101,-5461,25164,2025-02-17 10:55:12,0.0
2656,-2912,3900,-28084,-7024,25845,2025-02-17 10:55:12,0.0
2616,-2888,3500,-25437,-9684,27136,2025-02-17 10:55:12,0.0
3284,-3272,4560,-22780,-11670,28272,2025-02-17 10:55:12,0.0
2056,-2248,3232,-19685,-13617,30388,2025-02-17 10:55:12,0.0
2340,-2468,3116,-17782,-14982,32183,2025-02-17 10:55:12,0.0
2400,-2652,3168,-15565,-15684,32767,2025-02-17 10:55:12,0.0
2692,-2628,2676,-13877,-15587,32767,2025-02-17 10:55:12,0.0
2416,-2648,2948,-12128,-15698,32767,2025-02-17 10:55:12,0.0
1420,-2772,3832,-9819,-15274,32767,2025-02-17 10:55:12,0.0
32767,32767,-32768,-32768,-15292,32767,2025-02-17 10:55:12,0.0
32767,2448,32767,-14731,21623,14512,2025-02-17 10:55:12,0.0
32767,224,29964,15166,4388,-32768,2025-02-17 10:55:12,
10060,-2312,8260,21418,12097,-32768,2025-02-17 10:55:12,0.0
-4400,-1936,4104,20023,8040,-32768,2025-02-17 10:55:12,0.0
-7912,-1544,6340,20070,880,-26683,2025-02-17 10:55:12,0.0
-1668,924,-1260,16417,-2058,-19290,2025-02-17 10:55:12,0.0
-248,4096,1196,12150,-2260,-15884,2025-02-17 10:55:12,0.0
-636,7600,3420,11114,-2871,-11560,2025-02-17 10:55:12,0.0
-1572,11800,5492,12214,-4019,-6678,2025-02-17 10:55:12,0.0
-3084,16064,6196,14081,-3708,34,2025-02-17 10:55:12,0.0
588,18596,5212,14011,-1019,12899,2025-02-17 10:55:12,0.0
2304,15360,3728,13730,-5373,17802,2025-02-17 10:55:12,0.0
-5432,11016,7000,13545,-8750,23650,2025-02-17 10:55:12,0.0
-292,10396,3380,13644,-8985,30148,2025-02-17 10:55:12,0.0
2292,8684,1000,14834,-5550,32767,2025-02-17 10:55:12,0.0
23340,5956,-14136,11925,-8770,32767,2025-02-17 10:55:12,0.0
32767,-2520,-14512,5310,-7804,29680,2025-02-17 10:55:12,0.0
32767,-7268,5212,3977,-12340,12977,2025-02-17 10:55:12,0.0
32444,-844,-9632,4809,-6973,-5914,2025-02-17 10:55:12,0.0
21132,5780,-9232,-2404,-2101,-9364,2025-02-17 10:55:12,0.0
13424,11260,-2092,-4046,-88,-9493,2025-02-17 10:55:12,0.0
6384,13788,456,-2889,979,-5878,2025-02-17 10:55:12,0.0
8224,12020,1232,-2149,5110,-1599,2025-02-17 10:55:12,0.0
9920,10032,1056,-1478,6187,1744,2025-02-17 10:55:12,0.0
12584,8960,1760,-1045,6302,3256,2025-02-17 10:55:12,0.0
15372,8512,988,-892,5667,4175,2025-02-17 10:55:12,0.0
18776,8548,660,-1151,4091,3071,2025-02-17 10:55:12,0.0
25304,7448,3456,-748,3139,653,2025-02-17 10:55:12,0.0
16024,8632,1492,-395,1133,-984,2025-02-17 10:55:12,0.0
13296,9496,1756,-145,189,-272,2025-02-17 10:55:12,0.0
15448,8812,1196,-142,-1190,432,2025-02-17 10:55:12,0.0
17144,8420,976,-213,-1789,57,2025-02-17 10:55:12,0.0
17912,8740,-1048,-41,197,-499,2025-02-17 10:55:12,0.0
15956,8536,-64,-279,759,-258,2025-02-17 10:55:13,0.0
16252,8876,952,-307,1041,-229,2025-02-17 10:55:13,0.0
16520,9340,1800,-287,89,-262,2025-02-17 10:55:13,0.0
16320,8568,1016,-3,-276,-255,2025-02-17 10:55:13,0.0
16284,8920,732,22,-449,-146,2025-02-17 10:55:13,0.0
16640,8576,476,-139,-9,-91,2025-02-17 10:55:13,0.0
16364,8556,660,-101,437,-201,2025-02-17 10:55:13,0.0
15816,8708,804,-193,315,-182,2025-02-17 10:55:13,0.0
16304,8692,1260,-174,166,-136,2025-02-17 10:55:13,0.0
16264,8840,828,-124,13,-174,2025-02-17 10:55:13,0.0
16028,8680,900,-137,180,-164,2025-02-17 10:55:13,0.0
16608,8712,684,-138,151,-197,2025-02-17 10:55:13,0.0
16140,8740,1008,-147,309,-239,2025-02-17 10:55:13,0.0
16344,8692,1064,-149,227,-203,2025-02-17 10:55:13,0.0
16400,8792,1100,-122,74,-152,2025-02-17 10:55:13,0.0
16232,8700,680,-149,172,-121,2025-02-17 10:55:13,0.0
16472,8588,908,-147,196,-168,2025-02-17 10:55:13,0.0
16176,8676,948,-138,128,-133,2025-02-17 10:55:13,0.0
16268,8704,716,-110,83,-150,2025-02-17 10:55:13,0.0
16276,8660,768,-132,158,-192,2025-02-17 10:55:13,0.0
16116,8636,808,-156,199,-150,2025-02-17 10:55:13,0.0
16304,8748,888,-153,141,-162,2025-02-17 10:55:13,0.0
16292,8684,804,-128,143,-171,2025-02-17 10:55:13,0.0
16124,8696,752,-131,206,-178,2025-02-17 10:55:13,0.0
16184,8732,928,-167,196,-159,2025-02-17 10:55:13,0.0
16232,8640,728,-157,189,-185,2025-02-17 10:55:13,0.0
16164,8736,872,-152,216,-166,2025-02-17 10:55:13,0.0
16228,8656,848,-158,149,-150,2025-02-17 10:55:13,0.0
16132,8704,888,-120,185,-150,2025-02-17 10:55:13,0.0
16244,8712,720,-165,179,-179,2025-02-17 10:55:13,0.0
16276,8664,940,-179,199,-161,2025-02-17 10:55:13,0.0
16284,8680,872,-154,175,-205,2025-02-17 10:55:13,0.0
16180,8600,836,-190,181,-154,2025-02-17 10:55:13,0.0
16320,8692,780,-140,132,-162,2025-02-17 10:55:13,0.0
16196,8700,852,-175,167,-188,2025-02-17 10:55:13,0.0
16232,8684,792,-147,177,-149,2025-02-17 10:55:13,0.0
16120,8596,768,-151,147,-175,2025-02-17 10:55:13,0.0
16216,8692,852,-151,175,-178,2025-02-17 10:55:13,0.0
16264,8656,820,-142,187,-171,2025-02-17 10:55:13,0.0
16280,8580,940,-124,170,-162,2025-02-17 10:55:13,0.0
16296,8612,868,-166,171,-193,2025-02-17 10:55:13,0.0
16292,8644,760,-134,168,-166,2025-02-17 10:55:13,0.0
16244,8676,844,-168,190,-164,2025-02-17 10:55:13,0.0
16212,8748,760,-128,193,-162,2025-02-17 10:55:13,0.0
16288,8612,764,-138,166,-148,2025-02-17 10:55:13,0.0
16300,8660,908,-137,162,-171,2025-02-17 10:55:13,0.0
16280,8680,820,-171,192,-167,2025-02-17 10:55:13,0.0
16248,8720,740,-168,173,-156,2025-02-17 10:55:13,0.0
16180,8712,844,-151,185,-168,2025-02-17 10:55:13,0.0
16292,8648,792,-166,186,-166,2025-02-17 10:55:13,0.0
16208,8684,780,-167,177,-178,2025-02-17 10:55:13,0.0
16164,8644,696,-159,183,-152,2025-02-17 10:55:13,0.0
16188,8664,784,-167,155,-172,2025-02-17 10:55:13,0.0
16188,8676,736,-188,168,-160,2025-02-17 10:55:13,0.0
16248,8660,816,-185,171,-168,2025-02-17 10:55:13,0.0
16160,8524,676,-180,165,-164,2025-02-17 10:55:13,0.0
16188,8640,896,-160,175,-177,2025-02-17 10:55:13,0.0
16232,8668,856,-143,155,-166,2025-02-17 10:55:13,0.0
16220,8608,792,-159,172,-178,2025-02-17 10:55:13,0.0
16348,8660,868,-180,138,-175,2025-02-17 10:55:13,0.0
16188,8652,812,-148,183,-178,2025-02-17 10:55:14,0.0
16276,8612,828,-164,175,-160,2025-02-17 10:55:14,0.0
16260,8664,816,-154,196,-161,2025-02-17 10:55:14,0.0
16264,8680,828,-149,169,-164,2025-02-17 10:55:14,0.0
16252,8776,800,-164,152,-166,2025-02-17 10:55:14,0.0
16148,8764,788,-180,178,-180,2025-02-17 10:55:14,0.0
16236,8652,852,-166,194,-159,2025-02-17 10:55:14,0.0
16280,8684,836,-144,158,-171,2025-02-17 10:55:14,0.0
16212,8680,720,-160,164,-180,2025-02-17 10:55:14,
16192,8628,844,-139,154,-158,2025-02-17 10:55:14,0.0
16288,8708,888,-184,195,-208,2025-02-17 10:55:14,0.0
16168,8660,772,-192,196,-166,2025-02-17 10:55:14,0.0
16244,8672,940,-156,173,-169,2025-02-17 10:55:14,0.0
16284,8668,820,-149,147,-159,2025-02-17 10:55:14,0.0
16188,8604,972,-168,162,-168,2025-02-17 10:55:14,0.0
16260,8604,732,-202,202,-173,2025-02-17 10:55:14,0.0
16280,8676,820,-146,197,-164,2025-02-17 10:55:14,0.0
16288,8640,848,-159,190,-178,2025-02-17 10:55:14,0.0
16228,8672,908,-163,154,-184,2025-02-17 10:55:14,0.0
16236,8704,880,-164,173,-162,2025-02-17 10:55:14,0.0
16268,8596,828,-171,160,-157,2025-02-17 10:55:14,0.0
16292,8684,816,-156,169,-153,2025-02-17 10:55:14,0.0
16276,8780,852,-132,184,-169,2025-02-17 10:55:14,0.0
16212,8716,824,-168,157,-161,2025-02-17 10:55:14,0.0
16304,8768,816,-150,155,-164,2025-02-17 10:55:14,0.0
16216,8684,880,-179,173,-161,2025-02-17 10:55:14,0.0
16180,8620,872,-156,174,-170,2025-02-17 10:55:14,0.0
16228,8704,788,-165,186,-197,2025-02-17 10:55:14,0.0
16276,8712,944,-167,202,-151,2025-02-17 10:55:14,0.0
16220,8744,792,-163,176,-197,2025-02-17 10:55:14,0.0
16252,8644,868,-132,182,-162,2025-02-17 10:55:14,0.0
16296,8692,800,-161,186,-165,2025-02-17 10:55:14,0.0
16272,8604,736,-207,196,-172,2025-02-17 10:55:14,0.0
16208,8652,732,-177,170,-179,2025-02-17 10:55:14,0.0
16220,8624,748,-168,185,-185,2025-02-17 10:55:14,0.0
16208,8736,864,-153,190,-172,2025-02-17 10:55:14,0.0
16268,8620,836,-165,194,-160,2025-02-17 10:55:14,0.0
16288,8648,840,-156,175,-155,2025-02-17 10:55:14,0.0
16268,8788,924,-158,190,-189,2025-02-17 10:55:14,0.0
16196,8716,796,-141,177,-180,2025-02-17 10:55:14,0.0
16292,8616,896,-157,165,-160,2025-02-17 10:55:14,0.0
16204,8704,864,-159,195,-178,2025-02-17 10:55:14,0.0
16248,8720,660,-149,165,-151,2025-02-17 10:55:14,0.0
16144,8736,644,-160,180,-167,2025-02-17 10:55:14,0.0
16204,8688,956,-163,174,-174,2025-02-17 10:55:14,0.0
16300,8676,936,-149,160,-185,2025-02-17 10:55:14,0.0
16296,8708,816,-148,185,-165,2025-02-17 10:55:14,0.0
16200,8704,804,-151,172,-195,2025-02-17 10:55:14,0.0
16184,8612,872,-149,199,-174,2025-02-17 10:55:14,0.0
16252,8672,732,-170,181,-147,2025-02-17 10:55:14,0.0
16200,8668,808,-178,190,-171,2025-02-17 10:55:14,0.0
16208,8576,804,-151,174,-191,2025-02-17 10:55:14,0.0
16244,8720,924,-137,186,-181,2025-02-17 10:55:14,0.0
16188,8692,792,-135,158,-188,2025-02-17 10:55:14,0.0
16240,8596,764,-137,179,-159,2025-02-17 10:55:14,0.0
16268,8624,704,-161,145,-187,2025-02-17 10:55:14,0.0
16224,8676,936,-137,169,-159,2025-02-17 10:55:14,0.0
16160,8644,728,-157,179,-187,2025-02-17 10:55:14,0.0
16344,8688,812,-143,183,-170,2025-02-17 10:55:14,0.0
16292,8616,708,-170,199,-133,2025-02-17 10:55:14,0.0
16164,8732,660,-167,153,-172,2025-02-17 10:55:14,0.0
16256,8712,928,-137,187,-181,2025-02-17 10:55:15,0.0
16292,8684,916,-127,180,-177,2025-02-17 10:55:15,0.0
16320,8616,764,-156,184,-162,2025-02-17 10:55:15,0.0
16236,8784,808,-137,184,-179,2025-02-17 10:55:15,0.0
16264,8712,780,-138,161,-166,2025-02-17 10:55:15,0.0
16196,8756,936,-129,196,-180,2025-02-17 10:55:15,0.0
16232,8652,868,-167,174,-186,2025-02-17 10:55:15,0.0
16160,8660,792,-158,169,-158,2025-02-17 10:55:15,0.0
16304,8632,904,-177,167,-172,2025-02-17 10:55:15,0.0
16236,8660,844,-162,174,-178,2025-02-17 10:55:15,0.0
16264,8688,736,-141,182,-186,2025-02-17 10:55:15,0.0
16224,8740,840,-178,171,-153,2025-02-17 10:55:15,0.0
16160,8628,832,-146,146,-161,2025-02-17 10:55:15,0.0
16188,8680,792,-168,176,-157,2025-02-17 10:55:15,0.0
16140,8652,852,-165,161,-167,2025-02-17 10:55:15,0.0
16200,8668,748,-144,159,-182,2025-02-17 10:55:15,0.0
16228,8624,868,-152,135,-180,2025-02-17 10:55:15,0.0
16244,8684,776,-161,184,-192,2025-02-17 10:55:15,0.0
16204,8636,852,-181,171,-163,2025-02-17 10:55:15,0.0
16280,8724,752,-184,189,-145,2025-02-17 10:55:15,0.0
16264,8656,840,-180,190,-173,2025-02-17 10:55:15,0.0
16284,8628,920,-157,168,-163,2025-02-17 10:55:15,0.0
16264,8616,912,-149,158,-153,2025-02-17 10:55:15,0.0
16272,8644,780,-142,168,-162,2025-02-17 10:55:15,0.0
16264,8660,636,-162,167,-172,2025-02-17 10:55:15,0.0
16216,8616,736,-153,203,-173,2025-02-17 10:55:15,0.0
16088,8692,860,-148,186,-178,2025-02-17 10:55:15,0.0
16276,8612,808,-179,155,-182,2025-02-17 10:55:15,0.0
16200,8632,860,-158,183,-176,2025-02-17 10:55:15,0.0
16212,8608,932,-158,175,-166,2025-02-17 10:55:15,0.0
16304,8764,800,-142,186,-171,2025-02-17 10:55:15,0.0
16184,8716,860,-162,170,-144,2025-02-17 10:55:15,0.0
16212,8680,860,-152,179,-173,2025-02-17 10:55:15,0.0
16344,8636,940,-149,174,-167,2025-02-17 10:55:15,0.0
16208,8660,800,-155,160,-173,2025-02-17 10:55:15,0.0
16268,8588,732,-160,160,-177,2025-02-17 10:55:15,0.0
16224,8756,712,-163,190,-175,2025-02-17 10:55:15,0.0
16224,8752,800,-169,166,-168,2025-02-17 10:55:15,0.0
16176,8680,756,-156,160,-166,2025-02-17 10:55:15,0.0
16184,8576,724,-173,181,-190,2025-02-17 10:55:15,0.0
16324,8640,976,-140,179,-185,2025-02-17 10:55:15,0.0
16292,8688,760,-179,186,-175,2025-02-17 10:55:15,0.0
16228,8672,672,-151,191,-166,2025-02-17 10:55:15,0.0
16268,8660,736,-176,193,-171,2025-02-17 10:55:15,0.0
16120,8720,792,-117,159,-188,2025-02-17 10:55:15,0.0
16196,8708,772,-175,174,-188,2025-02-17 10:55:15,0.0
16292,8660,736,-185,172,-157,2025-02-17 10:55:15,0.0
16416,8624,864,-192,218,-178,2025-02-17 10:55:15,
16636,8680,1300,-78,307,-312,2025-02-17 10:55:15,0.0
15372,9340,876,-144,-280,-110,2025-02-17 10:55:15,0.0
16360,8864,768,2,-116,45,2025-02-17 10:55:15,0.0
16104,8624,124,-192,248,-121,2025-02-17 10:55:15,0.0
16132,8728,196,-358,731,-130,2025-02-17 10:55:15,0.0
16888,8316,1192,-275,871,-336,2025-02-17 10:55:15,0.0
16504,8596,1452,-199,279,-592,2025-02-17 10:55:15,0.0
16108,9048,1056,-123,-202,-517,2025-02-17 10:55:15,0.0
17072,8764,952,-19,-69,-668,2025-02-17 10:55:16,0.0
18328,8348,1180,6,-385,-1496,2025-02-17 10:55:16,0.0
19916,7952,1640,172,-1258,-3057,2025-02-17 10:55:16,0.0
21532,8100,2024,242,-3753,-5862,2025-02-17 10:55:16,0.0
22848,8800,1972,138,-7273,-8705,2025-02-17 10:55:16,0.0
25220,9028,1244,-256,-12740,-13021,2025-02-17 10:55:16,0.0
27624,9088,-696,-2178,-19403,-19713,2025-02-17 10:55:16,0.0
25900,9348,-2700,-5451,-25977,-25438,2025-02-17 10:55:16,0.0
20112,9604,-3540,-9288,-32147,-28517,2025-02-17 10:55:16,0.0
13512,10548,-2444,-12726,-32768,-28560,2025-02-17 10:55:16,0.0
7728,12108,-2208,-15450,-32768,-25728,2025-02-17 10:55:16,0.0
2316,14172,-448,-17204,-32768,-20248,2025-02-17 10:55:16,0.0
880,15912,892,-17122,-32768,-13483,2025-02-17 10:55:16,0.0
2408,17252,2232,-15786,-32768,-9654,2025-02-17 10:55:16,0.0
6100,17732,496,-15483,-32768,-9166,2025-02-17 10:55:16,0.0
8412,17036,-2540,-17932,-32768,-11174,2025-02-17 10:55:16,0.0
7624,16632,-6216,-23101,-32768,-13654,2025-02-17 10:55:16,0.0
6008,16688,-10192,-30760,-32768,-13958,2025-02-17 10:55:16,0.0
1880,17696,-8164,-32768,-32768,-12694,2025-02-17 10:55:16,0.0
1428,20420,8,-32768,-32018,-9845,2025-02-17 10:55:16,0.0
1616,23444,7824,-32768,-23308,-7543,2025-02-17 10:55:16,0.0
4036,25644,10776,-28031,-12149,-8049,2025-02-17 10:55:16,0.0
2272,25928,7692,-19349,-1106,-9171,2025-02-17 10:55:16,0.0
-760,25292,3452,-14569,9601,-8283,2025-02-17 10:55:16,0.0
-2960,24692,3044,-11832,19580,-5568,2025-02-17 10:55:16,0.0
-2748,24068,4120,-8840,28860,-2225,2025-02-17 10:55:16,0.0
-1124,23208,5952,-4963,32767,325,2025-02-17 10:55:16,0.0
356,21664,5940,-450,32767,2283,2025-02-17 10:55:16,0.0
1424,20124,4688,2372,32767,3550,2025-02-17 10:55:16,0.0
2584,19068,3188,3633,32767,4155,2025-02-17 10:55:16,0.0
2688,19220,2520,4055,32767,5039,2025-02-17 10:55:16,0.0
3384,18136,1124,2897,32767,5109,2025-02-17 10:55:16,0.0
-364,17660,3752,1456,32767,6013,2025-02-17 10:55:16,0.0
972,12444,-3300,-6820,32767,10786,2025-02-17 10:55:16,0.0
7316,15780,9920,-11611,32767,8964,2025-02-17 10:55:16,0.0
5872,18020,14492,-5386,32767,6593,2025-02-17 10:55:16,0.0
4148,20440,10884,1136,32161,6031,2025-02-17 10:55:16,0.0
3080,20108,1900,3534,25958,6166,2025-02-17 10:55:16,0.0
4900,18712,-4008,-917,18787,5603,2025-02-17 10:55:16,0.0
6004,17332,-1012,-5390,10933,2930,2025-02-17 10:55:16,0.0
4532,15984,4764,-5351,3188,86,2025-02-17 10:55:16,0.0
3288,16968,6272,-2268,-3088,-711,2025-02-17 10:55:16,0.0
2532,14940,5616,1234,-9399,-646,2025-02-17 10:55:16,0.0
4052,14056,3564,2787,-15320,-1133,2025-02-17 10:55:16,0.0
5664,13836,1288,3562,-20679,-2834,2025-02-17 10:55:16,0.0
4300,13608,1084,2836,-24928,-4499,2025-02-17 10:55:16,0.0
2896,13564,1484,2066,-27812,-5088,2025-02-17 10:55:16,0.0
1688,13648,2548,2181,-29087,-4826,2025-02-17 10:55:16,0.0
1492,13616,3860,3473,-28742,-4750,2025-02-17 10:55:16,0.0
1624,12552,2792,5128,-26339,-5359,2025-02-17 10:55:16,0.0
1572,12724,1396,5468,-22576,-6491,2025-02-17 10:55:16,0.0
1512,13388,-244,4787,-17705,-7778,2025-02-17 10:55:16,0.0
732,13876,-1080,3161,-11771,-8071,2025-02-17 10:55:16,0.0
304,13864,-212,1441,-4932,-7826,2025-02-17 10:55:16,0.0
-1412,13988,2572,1911,2391,-6355,2025-02-17 10:55:16,0.0
-2236,13472,2748,3628,8324,-4198,2025-02-17 10:55:16,0.0
-1712,12588,1296,4464,13590,-1921,2025-02-17 10:55:16,0.0
-804,11732,-20,4136,18517,-77,2025-02-17 10:55:16,0.0
232,11220,360,3360,22191,1135,2025-02-17 10:55:16,0.0
556,10936,1596,3221,24161,2208,2025-02-17 10:55:16,0.0
1388,10936,1736,3458,24217,2984,2025-02-17 10:55:16,0.0
2556,10672,632,3081,22956,2844,2025-02-17 10:55:17,0.0
3592,10476,636,2239,20249,1905,2025-02-17 10:55:17,0.0
3916,10580,1348,1899,16699,549,2025-02-17 10:55:17,0.0
4596,10556,1804,2056,12157,-1021,2025-02-17 10:55:17,0.0
4800,10420,2056,2556,6527,-2943,2025-02-17 10:55:17,0.0
4856,11012,1864,3024,244,-4565,2025-02-17 10:55:17,0.0
4856,11556,1224,2960,-6040,-6251,2025-02-17 10:55:17,0.0
4504,12000,976,1822,-11921,-8163,2025-02-17 10:55:17,0.0
3912,11900,1728,476,-17114,-9705,2025-02-17 10:55:17,0.0
180,9968,1384,-1954,-25751,-10937,2025-02-17 10:55:17,0.0
1920,10256,1968,-2232,-22506,-12147,2025-02-17 10:55:17,0.0
8,10588,3928,-162,-16061,-15450,2025-02-17 10:55:17,0.0
-2676,11320,3332,3880,-6874,-17860,2025-02-17 10:55:17,0.0
-5056,11424,1068,6562,4160,-19748,2025-02-17 10:55:17,0.0
-6252,11672,-1276,6278,14299,-20614,2025-02-17 10:55:17,0.0
-4848,10964,-2652,4844,23736,-22143,2025-02-17 10:55:17,0.0
-5016,10736,-2288,3878,32391,-24099,2025-02-17 10:55:17,0.0
-5352,9796,-1144,5757,32767,-25778,2025-02-17 10:55:17,0.0
-6124,8856,-2356,8566,32767,-26206,2025-02-17 10:55:17,0.0
-7680,7776,-2360,10229,32767,-25665,2025-02-17 10:55:17,0.0
-7300,6392,-5236,10742,32767,-23519,2025-02-17 10:55:17,0.0
-7200,5708,-5520,10622,32767,-23133,2025-02-17 10:55:17,0.0
-8332,5084,-7440,11872,32767,-23744,2025-02-17 10:55:17,0.0
-10648,4632,-8824,10795,32767,-20604,2025-02-17 10:55:17,0.0
-7068,3080,-7540,12908,32767,-19419,2025-02-17 10:55:17,0.0
-4560,1744,-10284,12544,26432,-20330,2025-02-17 10:55:17,0.0
-5080,2404,-11032,10695,12594,-22012,2025-02-17 10:55:17,0.0
-7316,3240,-10808,9379,-989,-20839,2025-02-17 10:55:17,0.0
-7464,3412,-8540,10707,-16188,-18424,2025-02-17 10:55:17,0.0
-7208,3432,-9008,11454,-28420,-17349,2025-02-17 10:55:17,0.0
-6028,2960,-10984,9407,-32768,-17815,2025-02-17 10:55:17,
-7656,2196,-8568,6234,-32768,-18388,2025-02-17 10:55:17,0.0
-7616,944,-7660,4458,-32768,-19165,2025-02-17 10:55:17,0.0
-8908,-84,-7448,2072,-32768,-20193,2025-02-17 10:55:17,0.0
-12056,-492,-7456,-1799,-32768,-20030,2025-02-17 10:55:17,0.0
-15140,-812,-6052,-5120,-32768,-17976,2025-02-17 10:55:17,0.0
-17008,-1228,-3736,-5915,-25023,-14729,2025-02-17 10:55:17,0.0
-16796,-1340,-4620,-5843,-15321,-13163,2025-02-17 10:55:17,0.0
-17672,-844,-4732,-6872,-5200,-11570,2025-02-17 10:55:17,0.0
-17352,-644,-4756,-8154,5999,-10515,2025-02-17 10:55:17,0.0
-16724,-1048,-4408,-9021,16047,-10642,2025-02-17 10:55:17,0.0
-17028,-1692,-3396,-8752,23655,-9983,2025-02-17 10:55:17,0.0
-17132,-1768,-2876,-7189,28706,-9002,2025-02-17 10:55:17,0.0
-17124,-1992,-4168,-5489,30977,-7167,2025-02-17 10:55:17,0.0
-16320,-2444,-3460,-4159,30621,-4883,2025-02-17 10:55:17,0.0
-13944,-2720,-5192,-2687,25722,-3303,2025-02-17 10:55:17,0.0
-13264,-2044,-6688,-2695,17942,-2553,2025-02-17 10:55:17,0.0
-11380,-2044,-6400,-2282,7459,-2673,2025-02-17 10:55:17,0.0
-10092,-2804,-5596,-1714,-3431,-3223,2025-02-17 10:55:17,0.0
5912,-6000,-3288,-3149,-10617,-4515,2025-02-17 10:55:17,0.0
-11220,-3188,2068,3102,-21887,-195,2025-02-17 10:55:17,0.0
-9612,-2412,-8876,4236,-30902,556,2025-02-17 10:55:17,0.0
-9964,-1596,-11576,1142,-32768,-182,2025-02-17 10:55:17,0.0
-11388,-1712,-12360,-1979,-32484,-2052,2025-02-17 10:55:17,0.0
-14584,-1800,-12388,-5168,-28670,-2135,2025-02-17 10:55:17,0.0
-16032,-2600,-9980,-7832,-23088,-1124,2025-02-17 10:55:17,0.0
-14792,-3560,-2072,-8392,-19239,-412,2025-02-17 10:55:17,0.0
-14200,-3504,14280,515,-24455,-143,2025-02-17 10:55:17,0.0
-15548,-2592,-16,3756,-13574,1329,2025-02-17 10:55:17,0.0
-11832,-2320,-5256,1772,-4539,1035,2025-02-17 10:55:17,0.0
-11044,-2408,-3100,-663,10,-298,2025-02-17 10:55:17,0.0
-11180,-2508,912,-1055,2272,-726,2025-02-17 10:55:17,0.0
-13060,-2288,1016,-491,3840,-533,2025-02-17 10:55:18,0.0
-12256,-2232,1416,131,5274,-700,2025-02-17 10:55:18,0.0
-11120,-2580,-520,505,5605,-2190,2025-02-17 10:55:18,0.0
-13536,-2544,-2628,-388,6025,-2860,2025-02-17 10:55:18,0.0
-15320,-2324,-2440,-1286,6964,-1912,2025-02-17 10:55:18,0.0
-15632,-2612,-984,-1501,6837,-726,2025-02-17 10:55:18,0.0
-16420,-2912,-2248,-1255,4960,639,2025-02-17 10:55:18,0.0
-15168,-2796,-4432,-2456,1879,2154,2025-02-17 10:55:18,0.0
-12668,-2084,-2292,-3513,-780,2273,2025-02-17 10:55:18,0.0
-11084,-1476,-248,-2242,-432,487,2025-02-17 10:55:18,0.0
-12856,-1552,-3732,-2724,2824,-305,2025-02-17 10:55:18,0.0
-13252,-1696,-2968,-3406,5661,233,2025-02-17 10:55:18,0.0
-14220,-2100,-1488,-1263,5122,1250,2025-02-17 10:55:18,0.0
-16168,-916,488,2339,2000,3195,2025-02-17 10:55:18,0.0
-13740,-672,-3040,2861,-2316,3970,2025-02-17 10:55:18,0.0
-9632,-476,-4120,2666,-5574,2743,2025-02-17 10:55:18,0.0
-11176,-924,-1876,3462,-5539,1675,2025-02-17 10:55:18,0.0
-12456,-1752,-3064,3180,-2182,3413,2025-02-17 10:55:18,0.0
-10240,-1508,-3180,2467,1876,4144,2025-02-17 10:55:18,0.0
-8148,-968,-4020,2058,4453,3412,2025-02-17 10:55:18,0.0
-8580,-688,-4428,727,6148,2012,2025-02-17 10:55:18,0.0
-11060,-984,-4080,-829,8388,1985,2025-02-17 10:55:18,0.0
-7636,592,-4932,-3467,9443,1234,2025-02-17 10:55:18,0.0
-8076,848,-3464,-4235,11007,-610,2025-02-17 10:55:18,0.0
-7532,-536,-3264,-5066,14691,-2049,2025-02-17 10:55:18,0.0
-10560,240,-344,-3720,18241,-2950,2025-02-17 10:55:18,0.0
-16788,-1104,-124,-1440,17962,-893,2025-02-17 10:55:18,0.0
-18428,-2800,-2840,-58,13220,2772,2025-02-17 10:55:18,0.0
-12704,-2012,-7060,-757,7442,2919,2025-02-17 10:55:18,0.0
-8868,-900,-8520,-2158,2558,556,2025-02-17 10:55:18,0.0
-11572,-1784,-6964,-2959,-1972,-595,2025-02-17 10:55:18,0.0
-14088,-2596,-5164,-3243,-6424,893,2025-02-17 10:55:18,0.0
-12856,-1844,-2968,-2136,-6196,2055,2025-02-17 10:55:18,0.0
-12376,-412,-2960,-2056,-3617,2281,2025-02-17 10:55:18,0.0
-11628,604,-3420,-2022,-4498,1958,2025-02-17 10:55:18,0.0
-13896,676,-2980,-2001,-7938,1755,2025-02-17 10:55:18,0.0
-12476,524,-3688,-2221,-11725,2070,2025-02-17 10:55:18,0.0
-12236,876,-3256,-2076,-12887,2746,2025-02-17 10:55:18,0.0
-10620,-632,364,2401,4215,8117,2025-02-17 10:55:18,0.0
-9796,-316,-2288,55,6167,5773,2025-02-17 10:55:18,0.0
-12260,1560,-2644,-2416,4218,2292,2025-02-17 10:55:18,0.0
-15496,3660,-4620,-2664,-885,1333,2025-02-17 10:55:18,0.0
-12260,4884,-4480,-3267,-6091,1092,2025-02-17 10:55:18,0.0
-9872,5176,-4036,-2568,-9445,547,2025-02-17 10:55:18,0.0
-9432,1408,780,-1377,-7862,8,2025-02-17 10:55:18,0.0
-13792,1284,-1728,-403,-4006,1467,2025-02-17 10:55:18,0.0
-13852,224,-2712,-201,-1070,1822,2025-02-17 10:55:18,0.0
-16376,2404,-7128,-449,-2695,2147,2025-02-17 10:55:18,0.0
-13868,1792,-3800,-383,-5312,1629,2025-02-17 10:55:18,0.0
-13648,1804,-3000,-831,-7099,1039,2025-02-17 10:55:18,0.0
-13472,1972,-2740,-379,-6311,872,2025-02-17 10:55:18,0.0
-14964,3384,-2176,631,-6305,1078,2025-02-17 10:55:18,0.0
-14592,3224,-1880,885,-6669,257,2025-02-17 10:55:18,0.0
-8212,1436,4820,2996,-9276,-1211,2025-02-17 10:55:18,0.0
-14516,2600,-3956,1347,-7413,311,2025-02-17 10:55:18,0.0
-14412,-144,-2588,1330,-7747,1056,2025-02-17 10:55:18,0.0
-14552,-240,-2952,2030,-9321,1240,2025-02-17 10:55:18,0.0
-12868,524,-284,1894,-10200,513,2025-02-17 10:55:18,0.0
-12740,3200,1228,1420,-12198,-907,2025-02-17 10:55:18,0.0
-15408,4068,2780,768,-12151,-2244,2025-02-17 10:55:19,0.0
-14124,2080,3428,1022,-10678,-2156,2025-02-17 10:55:19,0.0
-13404,-380,4676,1836,-9219,-1872,2025-02-17 10:55:19,0.0
-13832,712,2852,1513,-8102,-1637,2025-02-17 10:55:19,0.0
-13192,2684,2840,1492,-7921,-1551,2025-02-17 10:55:19,0.0
-13980,3612,2592,1140,-8726,-1572,2025-02-17 10:55:19,0.0
-13740,2312,3480,916,-11180,-836,2025-02-17 10:55:19,0.0
-13004,692,5440,664,-12245,-144,2025-02-17 10:55:19,0.0
-16252,1108,7952,266,-12624,648,2025-02-17 10:55:19,0.0
-19328,1856,11428,-930,-11199,-617,2025-02-17 10:55:19,
-20452,3032,16420,-2144,-7436,-2843,2025-02-17 10:55:19,0.0
-22984,2004,18944,-2602,-3731,-1090,2025-02-17 10:55:19,0.0
-21480,1344,14752,-3094,1613,-3436,2025-02-17 10:55:19,0.0
-18904,2188,4904,-2474,9439,-4533,2025-02-17 10:55:19,0.0
-18896,1740,1788,-276,7436,-2413,2025-02-17 10:55:19,0.0
-15496,3180,804,1206,484,88,2025-02-17 10:55:19,0.0
-13532,3052,2164,-58,-4262,419,2025-02-17 10:55:19,0.0
-10572,1872,4900,-1483,-6072,-319,2025-02-17 10:55:19,0.0
-12128,452,8736,-1502,-4683,-1318,2025-02-17 10:55:19,0.0
-11768,216,9196,-1126,-2460,-1712,2025-02-17 10:55:19,0.0
-12984,372,7480,-639,-1517,-1693,2025-02-17 10:55:19,0.0
-11844,-204,5900,6,-2045,-1864,2025-02-17 10:55:19,0.0
-13504,268,5580,-708,-3113,-1628,2025-02-17 10:55:19,0.0
-13164,320,7472,-376,-2769,-1398,2025-02-17 10:55:19,0.0
-14460,-928,7424,126,-4644,-437,2025-02-17 10:55:19,0.0
-12764,-280,7868,131,-6060,-75,2025-02-17 10:55:19,0.0
-12444,216,8344,325,-5573,-250,2025-02-17 10:55:19,0.0
-12092,460,7324,-147,-4666,-106,2025-02-17 10:55:19,0.0
-12816,672,8376,-421,-3241,-132,2025-02-17 10:55:19,0.0
-14792,936,7832,-520,-3348,338,2025-02-17 10:55:19,0.0
-13304,816,7816,-518,-2299,-66,2025-02-17 10:55:19,0.0
-12608,776,7184,-329,-2776,-306,2025-02-17 10:55:19,0.0
-13360,804,8920,-13,-3567,-444,2025-02-17 10:55:19,0.0
-13384,852,8260,485,-3131,-875,2025-02-17 10:55:19,0.0
-12312,932,7968,502,-2601,-863,2025-02-17 10:55:19,0.0
-12636,604,8156,721,-2363,-601,2025-02-17 10:55:19,0.0
-11616,100,8564,1043,-1164,553,2025-02-17 10:55:19,0.0
-12176,1668,8076,1036,-1336,254,2025-02-17 10:55:19,0.0
-12108,1856,7840,792,-1705,-249,2025-02-17 10:55:19,0.0
-12572,1272,8252,858,-2093,-654,2025-02-17 10:55:19,0.0
-12992,876,7828,1234,-2437,-720,2025-02-17 10:55:19,0.0
-13196,876,7848,934,-3921,-458,2025-02-17 10:55:19,0.0
-12264,1088,8272,723,-4749,-787,2025-02-17 10:55:19,0.0
-12080,992,9040,1237,-4850,-1272,2025-02-17 10:55:19,0.0
-11548,812,8168,1620,-4495,-1931,2025-02-17 10:55:19,0.0
-11816,828,7436,1175,-3843,-1785,2025-02-17 10:55:19,0.0
-11916,888,8516,588,-3359,-985,2025-02-17 10:55:19,0.0
-11992,884,9736,158,-2511,-238,2025-02-17 10:55:19,0.0
-11736,804,10140,195,-2251,-148,2025-02-17 10:55:19,0.0
-11992,1196,9948,580,-2002,-398,2025-02-17 10:55:19,0.0
-10988,1236,9652,255,-2138,-1063,2025-02-17 10:55:19,0.0
-11004,900,11184,484,-2258,-1782,2025-02-17 10:55:19,0.0
-11520,1020,7884,319,-924,-2151,2025-02-17 10:55:19,0.0
-11796,1080,8460,325,418,-1391,2025-02-17 10:55:19,0.0
-12108,844,9220,-297,520,-959,2025-02-17 10:55:19,0.0
-13104,340,9236,-425,-153,-754,2025-02-17 10:55:19,0.0
-11992,-184,9892,-742,-924,-863,2025-02-17 10:55:19,0.0
-11140,48,9584,-726,-1931,-1576,2025-02-17 10:55:19,0.0
-12156,-204,9712,-438,-1693,-1473,2025-02-17 10:55:19,0.0
-12248,388,10552,-66,-1615,-613,2025-02-17 10:55:19,0.0
-10924,1648,8312,-869,-1268,-1066,2025-02-17 10:55:20,0.0
-11452,480,9640,-1193,-2127,-2109,2025-02-17 10:55:20,0.0
-12828,16,10388,-595,-2386,-1644,2025-02-17 10:55:20,0.0
-11868,-36,10192,-266,-2180,-1172,2025-02-17 10:55:20,0.0
-11204,180,9164,-596,-1793,-1538,2025-02-17 10:55:20,0.0
-12356,-572,10352,-857,-1053,-1334,2025-02-17 10:55:20,0.0
-12536,-608,10320,-672,-963,-546,2025-02-17 10:55:20,0.0
-11768,-88,10040,-657,-1250,-219,2025-02-17 10:55:20,0.0
-11176,-36,10188,-688,-1245,-99,2025-02-17 10:55:20,0.0
-10788,-108,10004,-706,-660,-221,2025-02-17 10:55:20,0.0
-10956,-56,10252,-737,252,-250,2025-02-17 10:55:20,0.0
-11112,-112,10172,-728,818,-313,2025-02-17 10:55:20,0.0
-12036,-224,10288,-801,673,-212,2025-02-17 10:55:20,0.0
-11824,-20,10336,-530,892,-383,2025-02-17 10:55:20,0.0
-12336,-76,10416,-377,604,-333,2025-02-17 10:55:20,0.0
-12076,-148,10312,-156,411,-200,2025-02-17 10:55:20,0.0
-11604,-64,9772,-121,248,-141,2025-02-17 10:55:20,0.0
-11380,164,9760,-255,156,-270,2025-02-17 10:55:20,0.0
-11512,88,10104,-247,207,-438,2025-02-17 10:55:20,0.0
-11756,192,10064,-199,257,-386,2025-02-17 10:55:20,0.0
-12204,164,9944,-125,56,-265,2025-02-17 10:55:20,0.0
-12060,212,9916,-162,-324,-102,2025-02-17 10:55:20,0.0
-11584,20,10068,-242,-613,-72,2025-02-17 10:55:20,0.0
-11268,-20,10428,-252,-626,-122,2025-02-17 10:55:20,0.0
-11384,-112,10448,-227,-153,-138,2025-02-17 10:55:20,0.0
-11340,-196,10544,-156,97,-120,2025-02-17 10:55:20,0.0
-11668,-128,10424,-200,145,-62,2025-02-17 10:55:20,0.0
-11560,-188,10276,-286,-130,-128,2025-02-17 10:55:20,0.0
-11384,36,10240,-292,-151,-223,2025-02-17 10:55:20,0.0
-11512,68,10328,-349,68,-344,2025-02-17 10:55:20,0.0
-11472,28,10232,-290,150,-270,2025-02-17 10:55:20,0.0
-11504,-116,10484,-135,175,-206,2025-02-17 10:55:20,0.0
-11500,-84,10292,-78,305,-97,2025-02-17 10:55:20,0.0
-11472,-164,10184,-87,389,-17,2025-02-17 10:55:20,0.0
-11432,-276,10212,-158,376,-125,2025-02-17 10:55:20,0.0
-11676,-272,10396,-159,461,-226,2025-02-17 10:55:20,0.0
-11896,-268,10176,-149,425,-265,2025-02-17 10:55:20,0.0
-11964,-224,10160,-108,119,-276,2025-02-17 10:55:20,0.0
-11624,-144,10048,-44,-68,-178,2025-02-17 10:55:20,0.0
-11492,-16,10204,-34,-18,-126,2025-02-17 10:55:20,0.0
-11484,-68,10052,-21,93,-126,2025-02-17 10:55:20,0.0
-11520,-32,10112,-27,133,-134,2025-02-17 10:55:20,0.0
-11556,-152,10300,-23,49,-239,2025-02-17 10:55:20,0.0
-11552,8,10140,-7,-156,-287,2025-02-17 10:55:20,0.0
-11676,-32,10196,72,-117,-232,2025-02-17 10:55:20,0.0
-11428,96,10192,54,-75,-158,2025-02-17 10:55:20,0.0
-11548,88,10308,20,-69,-225,2025-02-17 10:55:20,0.0
-11544,144,10428,-48,36,-282,2025-02-17 10:55:20,0.0
-11532,108,10288,-99,53,-303,2025-02-17 10:55:20,0.0
-11608,56,10440,-93,169,-249,2025-02-17 10:55:20,
-11528,80,10344,-199,335,-190,2025-02-17 10:55:20,0.0
-11544,-84,10348,-200,342,-174,2025-02-17 10:55:20,0.0
-11540,-120,10292,-207,441,-187,2025-02-17 10:55:20,0.0
-11672,32,10128,-205,370,-135,2025-02-17 10:55:20,0.0
-11576,-64,10392,-253,295,-162,2025-02-17 10:55:20,0.0
-11580,68,10320,-223,401,-126,2025-02-17 10:55:20,0.0
-11640,12,10148,-170,462,-107,2025-02-17 10:55:20,0.0
-11512,-4,10136,-229,415,-108,2025-02-17 10:55:20,0.0
-11700,-44,10024,-191,325,-90,2025-02-17 10:55:20,0.0
-11496,-48,10040,-182,234,-130,2025-02-17 10:55:20,0.0
-11592,-72,10292,-202,270,-108,2025-02-17 10:55:20,0.0
-11424,-4,10148,-202,442,-106,2025-02-17 10:55:21,0.0
-11556,-144,10228,-190,618,30,2025-02-17 10:55:21,0.0
-11888,-176,9932,-187,286,391,2025-02-17 10:55:21,0.0
-11788,-16,10744,-47,1019,414,2025-02-17 10:55:21,0.0
-11908,-76,10316,-1,1085,401,2025-02-17 10:55:21,0.0
-12196,96,10192,47,1210,540,2025-02-17 10:55:21,0.0
-12164,-460,9928,303,849,1046,2025-02-17 10:55:21,0.0
-11988,-456,9492,443,368,1349,2025-02-17 10:55:21,0.0
-11608,-192,9488,325,-125,1298,2025-02-17 10:55:21,0.0
-11284,436,9736,134,-1034,-155,2025-02-17 10:55:21,0.0
-11220,276,9976,286,-1427,-451,2025-02-17 10:55:21,0.0
-10892,60,10552,373,-1659,-854,2025-02-17 10:55:21,0.0
-11128,-264,10312,658,-1429,-948,2025-02-17 10:55:21,0.0
-11608,-184,9836,686,-598,-496,2025-02-17 10:55:21,0.0
-11316,456,9056,641,-38,-94,2025-02-17 10:55:21,0.0
-11764,396,10224,690,9,198,2025-02-17 10:55:21,0.0
-11276,200,10088,611,-213,164,2025-02-17 10:55:21,0.0
-11660,408,10100,500,-160,241,2025-02-17 10:55:21,0.0
-11460,552,9856,518,549,440,2025-02-17 10:55:21,0.0
-11648,724,9840,216,468,504,2025-02-17 10:55:21,0.0
-11880,696,10188,113,356,556,2025-02-17 10:55:21,0.0
-11468,548,9976,75,437,725,2025-02-17 10:55:21,0.0
-11688,652,10024,207,614,588,2025-02-17 10:55:21,0.0
-11404,552,9976,101,548,454,2025-02-17 10:55:21,0.0
-11436,196,9752,-146,558,170,2025-02-17 10:55:21,0.0
-11952,216,10496,-460,606,211,2025-02-17 10:55:21,0.0
-11732,760,11020,-186,4,229,2025-02-17 10:55:21,0.0
-11344,848,10640,-268,-21,253,2025-02-17 10:55:21,0.0
-10968,740,10664,-267,166,504,2025-02-17 10:55:21,0.0
-10764,644,10532,-252,444,549,2025-02-17 10:55:21,0.0
-10732,532,11232,-347,955,691,2025-02-17 10:55:21,0.0
-10348,612,11752,-281,1812,621,2025-02-17 10:55:21,0.0
-9992,524,11692,-228,2597,269,2025-02-17 10:55:21,0.0
-10752,540,11652,-290,3354,60,2025-02-17 10:55:21,0.0
-11508,448,11212,-326,3657,94,2025-02-17 10:55:21,0.0
-11200,440,11140,-391,3230,119,2025-02-17 10:55:21,0.0
-10964,276,10688,-606,3460,55,2025-02-17 10:55:21,0.0
-10048,368,11264,-495,4200,-133,2025-02-17 10:55:21,0.0
-9760,540,10828,-195,5325,-582,2025-02-17 10:55:21,0.0
-9552,516,10380,-4,5862,-1431,2025-02-17 10:55:21,0.0
-9104,1036,9096,-230,6777,-2609,2025-02-17 10:55:21,0.0
-9600,648,9200,-389,8394,-3667,2025-02-17 10:55:21,0.0
-13704,1636,8076,-725,10223,-3393,2025-02-17 10:55:21,0.0
-12592,1088,10072,-517,9374,-3118,2025-02-17 10:55:21,0.0
-14984,856,6520,-1455,8944,-2115,2025-02-17 10:55:21,0.0
-12476,-740,7596,-760,8075,-1055,2025-02-17 10:55:21,0.0
-14980,-1036,6716,-1309,8759,805,2025-02-17 10:55:21,0.0
-15380,-136,7924,-980,8874,1357,2025-02-17 10:55:21,0.0
-9180,288,10144,804,7779,791,2025-02-17 10:55:21,0.0
-15168,204,2820,-1385,9893,1094,2025-02-17 10:55:21,0.0
-13992,660,5964,-1763,8659,1714,2025-02-17 10:55:21,0.0
-14264,944,6784,-1190,7707,2547,2025-02-17 10:55:21,0.0
-14432,312,7720,-599,6836,3239,2025-02-17 10:55:21,0.0
-14468,-12,8988,332,5548,3603,2025-02-17 10:55:21,0.0
-14436,1128,4676,-912,7044,3683,2025-02-17 10:55:21,0.0
-15100,696,9324,-1262,7006,3533,2025-02-17 10:55:21,0.0
-14540,-20,10036,-1228,7353,2877,2025-02-17 10:55:21,0.0
-19608,208,6572,-1141,8651,2843,2025-02-17 10:55:21,0.0
-15940,-1552,8920,174,10228,2508,2025-02-17 10:55:21,0.0
-17448,-432,8340,1661,10914,2415,2025-02-17 10:55:22,0.0
-18596,1892,8184,2018,10777,1420,2025-02-17 10:55:22,0.0
-17600,2756,6956,2034,8338,911,2025-02-17 10:55:22,0.0
-11696,1156,8732,2562,4959,-623,2025-02-17 10:55:22,0.0
-17916,496,5572,2000,7042,-320,2025-02-17 10:55:22,0.0
-18700,1920,6284,2640,6796,-334,2025-02-17 10:55:22,0.0
-16440,1176,4420,3646,6935,147,2025-02-17 10:55:22,0.0
-15676,984,3692,4573,9107,677,2025-02-17 10:55:22,0.0
-14012,1296,652,4646,13037,923,2025-02-17 10:55:22,0.0
-13784,2388,-1512,4241,16342,353,2025-02-17 10:55:22,0.0
-13684,2604,-4952,3226,12710,-191,2025-02-17 10:55:22,0.0
-14460,2788,-5552,1734,7457,-385,2025-02-17 10:55:22,0.0
-13984,1780,-3352,797,4804,-366,2025-02-17 10:55:22,0.0
-13500,1588,-2576,268,4235,-853,2025-02-17 10:55:22,0.0
-13832,888,-1132,19,4496,-920,2025-02-17 10:55:22,0.0
-13804,1260,-524,430,4788,-946,2025-02-17 10:55:22,0.0
-13080,1584,-1292,904,3359,-1400,2025-02-17 10:55:22,0.0
-13080,1992,-1728,1205,2042,-1698,2025-02-17 10:55:22,0.0
-13508,1708,-1024,1929,1589,-1723,2025-02-17 10:55:22,0.0
-13896,1296,-820,2206,1624,-1677,2025-02-17 10:55:22,0.0
-9716,-760,-3960,286,-565,-4596,2025-02-17 10:55:22,0.0
-12452,952,-648,2072,-258,-4291,2025-02-17 10:55:22,0.0
-12212,1088,-1176,3205,-503,-3194,2025-02-17 10:55:22,0.0
-12860,1188,-1256,2196,1687,-3766,2025-02-17 10:55:22,0.0
-13440,1052,-2496,707,2409,-3694,2025-02-17 10:55:22,0.0
-11884,280,-1088,-791,2078,-3593,2025-02-17 10:55:22,0.0
-11268,172,-1084,-1824,2701,-4761,2025-02-17 10:55:22,0.0
-10256,384,-672,-1757,4359,-6154,2025-02-17 10:55:22,0.0
-11372,-236,-1376,-1402,6984,-7218,2025-02-17 10:55:22,0.0
-12600,-1028,-2936,-1873,9217,-6237,2025-02-17 10:55:22,
-23196,-1400,1088,-2540,8522,-3684,2025-02-17 10:55:22,0.0
-12488,-1492,-3824,-2422,11115,-841,2025-02-17 10:55:22,0.0
-11756,-784,-4188,-1829,14134,-373,2025-02-17 10:55:22,0.0
-12044,804,-2920,-1619,13502,-2401,2025-02-17 10:55:22,0.0
-13548,516,-3884,-1513,10253,-3766,2025-02-17 10:55:22,0.0
-13640,-300,-4844,-1979,8006,-4504,2025-02-17 10:55:22,0.0
-12888,-1404,-4492,-2707,6896,-4899,2025-02-17 10:55:22,0.0
-12696,-1560,-5172,-3934,6759,-5530,2025-02-17 10:55:22,0.0
-12464,-1676,-4776,-4705,6671,-5256,2025-02-17 10:55:22,0.0
-11976,-1680,-4800,-5028,5946,-4451,2025-02-17 10:55:22,0.0
-11420,-2164,-4476,-5046,6128,-3707,2025-02-17 10:55:22,0.0
-11440,-2364,-4160,-4202,7424,-3131,2025-02-17 10:55:22,0.0
-10468,-2656,-5492,-3325,10139,-2617,2025-02-17 10:55:22,0.0
-10156,-2016,-5004,-3087,11886,-1884,2025-02-17 10:55:22,0.0
-10316,-1676,-4400,-2187,12636,-1003,2025-02-17 10:55:22,0.0
-10292,-2016,-5152,-1678,12998,728,2025-02-17 10:55:22,0.0
-9796,-2132,-5704,-1047,14268,1968,2025-02-17 10:55:22,0.0
-9880,-2424,-6932,-825,16710,3347,2025-02-17 10:55:22,0.0
-9652,-2868,-7636,-1178,18781,4224,2025-02-17 10:55:22,0.0
-10372,-2940,-9216,-1974,20777,5052,2025-02-17 10:55:22,0.0
-11840,-3076,-11044,-2676,23272,6426,2025-02-17 10:55:22,0.0
-11284,-3428,-12636,-3798,25938,8091,2025-02-17 10:55:22,0.0
-7664,-3756,-12900,-5627,26585,9221,2025-02-17 10:55:22,0.0
-4856,-3824,-12424,-7717,22540,8678,2025-02-17 10:55:22,0.0
-3184,-3792,-11644,-9508,14793,7628,2025-02-17 10:55:22,0.0
-2996,-3584,-11184,-10551,6417,6704,2025-02-17 10:55:22,0.0
-3796,-2904,-11232,-11118,-1750,6433,2025-02-17 10:55:22,0.0
-4504,-1904,-11688,-11484,-8900,6751,2025-02-17 10:55:22,0.0
-5392,-1084,-11416,-11398,-14633,7814,2025-02-17 10:55:22,0.0
-6420,-600,-10672,-10830,-18991,10204,2025-02-17 10:55:23,0.0
-6596,-640,-10068,-9967,-19839,12170,2025-02-17 10:55:23,0.0
-6440,-900,-10228,-9684,-18020,12923,2025-02-17 10:55:23,0.0
-6596,-756,-10552,-9782,-14463,12847,2025-02-17 10:55:23,0.0
-6680,-396,-10324,-9731,-10243,12563,2025-02-17 10:55:23,0.0
-7024,144,-10472,-9336,-5766,12812,2025-02-17 10:55:23,0.0
-6876,864,-10756,-9034,-737,12572,2025-02-17 10:55:23,0.0
-6584,1488,-10464,-8659,3224,12345,2025-02-17 10:55:23,0.0
-6292,1908,-9848,-8833,6594,12265,2025-02-17 10:55:23,0.0
-5568,2112,-8444,-8854,7703,11795,2025-02-17 10:55:23,0.0
-4252,1696,-6584,-8119,6192,11194,2025-02-17 10:55:23,0.0
-3344,1412,-7264,-8290,2072,10916,2025-02-17 10:55:23,0.0
-1828,952,-8336,-12717,-3417,11953,2025-02-17 10:55:23,0.0
1236,-360,-7012,-19316,-8268,13448,2025-02-17 10:55:23,0.0
3184,-1176,-3596,-24391,-10983,13892,2025-02-17 10:55:23,0.0
4620,-956,1484,-26015,-12799,12919,2025-02-17 10:55:23,0.0
3228,-1288,2736,-25060,-13207,12259,2025-02-17 10:55:23,0.0
3156,-1324,2272,-23914,-13245,12317,2025-02-17 10:55:23,0.0
2724,-1336,2272,-23088,-13196,12332,2025-02-17 10:55:23,0.0
2928,-1172,2312,-22228,-13053,12530,2025-02-17 10:55:23,0.0
2836,-1208,2760,-21254,-12934,12850,2025-02-17 10:55:23,0.0
2912,-1028,3112,-19894,-12732,12888,2025-02-17 10:55:23,0.0
2956,-1012,2660,-18570,-12467,12782,2025-02-17 10:55:23,0.0
3060,-976,3196,-17058,-12223,12821,2025-02-17 10:55:23,0.0
2964,-732,3284,-15398,-11985,12603,2025-02-17 10:55:23,0.0
3148,-712,3144,-13978,-11857,12706,2025-02-17 10:55:23,0.0
2792,-692,3008,-12373,-11877,12426,2025-02-17 10:55:23,0.0
2716,-648,2688,-11122,-12018,12781,2025-02-17 10:55:23,0.0
2732,-528,2808,-10016,-12251,13115,2025-02-17 10:55:23,0.0
2532,-480,2584,-8924,-12263,13418,2025-02-17 10:55:23,0.0
2588,-456,2680,-7940,-12140,13679,2025-02-17 10:55:23,0.0
2520,-388,2768,-6999,-11849,13897,2025-02-17 10:55:23,0.0
836,-1112,3484,-5556,-12115,15184,2025-02-17 10:55:23,0.0
1104,-856,3264,-3504,-13227,18346,2025-02-17 10:55:23,0.0
-6848,636,-8568,-10428,-8083,29545,2025-02-17 10:55:23,0.0
-32768,32767,-32768,-32768,-4140,32767,2025-02-17 10:55:23,0.0
32767,21048,32767,-32768,-20490,32767,2025-02-17 10:55:23,0.0
10704,-10660,11496,28171,32767,-4221,2025-02-17 10:55:23,0.0
17600,-6600,9740,17153,32767,-7630,2025-02-17 10:55:23,0.0
9156,-3980,11488,15562,30300,-12278,2025-02-17 10:55:23,0.0
11524,-1696,-2724,3036,17877,-13956,2025-02-17 10:55:23,0.0
5368,4656,1476,-4843,17018,-18211,2025-02-17 10:55:23,0.0
-664,11200,11460,-2836,18922,-21889,2025-02-17 10:55:23,0.0
-548,15780,7496,-697,15075,-22874,2025-02-17 10:55:23,0.0
-7984,20108,8896,161,9198,-20017,2025-02-17 10:55:23,0.0
-10412,20068,3472,-973,2992,-16182,2025-02-17 10:55:23,0.0
-12156,17248,6504,-2014,5234,-15035,2025-02-17 10:55:23,0.0
-10684,12676,7680,-3337,4654,-12077,2025-02-17 10:55:23,0.0
-9576,9044,8680,-3650,3976,-8365,2025-02-17 10:55:23,0.0
-12496,8472,10656,-3075,2,-4981,2025-02-17 10:55:23,0.0
-11956,11348,9836,-3060,-2425,-2666,2025-02-17 10:55:23,0.0
-10932,12784,12900,-2182,-4257,67,2025-02-17 10:55:23,0.0
-7728,12432,13244,-909,-5677,1315,2025-02-17 10:55:23,0.0
-4688,11272,11852,4,-4936,1556,2025-02-17 10:55:23,0.0
-1892,11940,10096,26,-2639,642,2025-02-17 10:55:23,0.0
-2584,12168,9848,-110,738,-320,2025-02-17 10:55:23,0.0
-3996,11932,10348,-71,1643,-807,2025-02-17 10:55:23,0.0
-5920,11996,10424,-229,1560,-862,2025-02-17 10:55:23,0.0
-5004,11384,9340,-648,1311,-879,2025-02-17 10:55:23,0.0
-6024,11692,11188,168,467,-162,2025-02-17 10:55:23,0.0
-5888,11932,9120,-2,-310,167,2025-02-17 10:55:23,0.0
-4324,12488,9824,-182,-458,107,2025-02-17 10:55:24,0.0
-3900,11496,9704,-357,-479,-264,2025-02-17 10:55:24,0.0
-5264,11228,10644,-250,317,-359,2025-02-17 10:55:24,0.0
-5896,12028,10700,34,154,-144,2025-02-17 10:55:24,0.0
-4624,11788,9824,-5,-179,1,2025-02-17 10:55:24,0.0
-4288,11696,9072,-257,-111,-93,2025-02-17 10:55:24,0.0
-4608,11960,10344,-198,-10,-168,2025-02-17 10:55:24,0.0
-4752,11632,10460,-192,47,-222,2025-02-17 10:55:24,0.0
-5036,11668,10236,-51,291,-183,2025-02-17 10:55:24,0.0
-5024,11920,9920,-186,306,-193,2025-02-17 10:55:24,
-4848,11712,10164,-169,50,-150,2025-02-17 10:55:24,0.0
-4744,11828,10020,-186,145,-161,2025-02-17 10:55:24,0.0
-4824,11796,9892,-205,325,-198,2025-02-17 10:55:24,0.0
-4756,11760,10276,-204,462,-300,2025-02-17 10:55:24,0.0
-5140,11676,10016,-104,371,-245,2025-02-17 10:55:24,0.0
-4900,11832,10092,-149,194,-211,2025-02-17 10:55:24,0.0
-4828,11784,9964,-210,90,-160,2025-02-17 10:55:24,0.0
-4912,11800,10216,-160,100,-173,2025-02-17 10:55:24,0.0
-4804,11776,10276,-144,214,-162,2025-02-17 10:55:24,0.0
-4844,11656,10160,-139,267,-199,2025-02-17 10:55:24,0.0
-5004,11848,9944,-166,236,-204,2025-02-17 10:55:24,0.0
-4904,11868,10156,-164,152,-172,2025-02-17 10:55:24,0.0
-4912,11816,9948,-172,161,-187,2025-02-17 10:55:24,0.0
-4848,11804,10148,-174,173,-176,2025-02-17 10:55:24,0.0
-4940,11828,10196,-165,198,-189,2025-02-17 10:55:24,0.0
-4912,11796,10112,-147,129,-163,2025-02-17 10:55:24,0.0
-5008,11880,9968,-154,100,-147,2025-02-17 10:55:24,0.0
-4992,11684,10124,-155,98,-176,2025-02-17 10:55:24,0.0
-4804,11852,9952,-164,70,-165,2025-02-17 10:55:24,0.0
-4896,11832,10180,-183,140,-159,2025-02-17 10:55:24,0.0
-4820,11792,10176,-163,152,-188,2025-02-17 10:55:24,0.0
-4804,11828,10008,-192,291,-227,2025-02-17 10:55:24,0.0
-5044,11772,10292,-104,227,-193,2025-02-17 10:55:24,0.0
-4920,11812,10144,-169,157,-158,2025-02-17 10:55:24,0.0
-4900,11880,10084,-172,181,-190,2025-02-17 10:55:24,0.0
-4928,11756,10260,-157,179,-198,2025-02-17 10:55:24,0.0
-4904,11712,10268,-160,238,-184,2025-02-17 10:55:24,0.0
-4996,11720,10084,-171,199,-179,2025-02-17 10:55:24,0.0
-4844,11796,10128,-171,179,-192,2025-02-17 10:55:24,0.0
-4968,11760,10140,-166,169,-181,2025-02-17 10:55:24,0.0
-4968,11876,10224,-164,200,-180,2025-02-17 10:55:24,0.0
-4884,11804,10004,-158,197,-180,2025-02-17 10:55:24,0.0
-4912,11768,10044,-182,180,-196,2025-02-17 10:55:24,0.0
-4932,11736,10216,-182,199,-169,2025-02-17 10:55:24,0.0
-5028,11740,10128,-151,183,-166,2025-02-17 10:55:24,0.0
-4868,11768,10108,-160,180,-161,2025-02-17 10:55:24,0.0
-4984,11756,9932,-157,167,-164,2025-02-17 10:55:24,0.0
-4836,11792,10044,-164,171,-191,2025-02-17 10:55:24,0.0
-4916,11804,10104,-184,159,-175,2025-02-17 10:55:24,0.0
-4968,11760,10044,-158,179,-176,2025-02-17 10:55:24,0.0
-4920,11796,10096,-157,187,-159,2025-02-17 10:55:25,0.0
-4972,11856,10104,-147,184,-176,2025-02-17 10:55:25,0.0
-4956,11732,10092,-163,184,-192,2025-02-17 10:55:25,0.0
-4980,11732,10036,-157,188,-183,2025-02-17 10:55:25,0.0
-4896,11756,10100,-157,176,-177,2025-02-17 10:55:25,0.0
-4928,11728,10036,-165,172,-176,2025-02-17 10:55:25,0.0
-4848,11860,10092,-166,177,-164,2025-02-17 10:55:25,0.0
-4992,11792,10184,-178,192,-162,2025-02-17 10:55:25,0.0
-4956,11708,10160,-145,173,-171,2025-02-17 10:55:25,0.0
-4932,11852,10220,-167,199,-179,2025-02-17 10:55:25,0.0
-4988,11800,10076,-187,185,-158,2025-02-17 10:55:25,0.0
-4968,11740,10244,-168,173,-169,2025-02-17 10:55:25,0.0
-4936,11776,10188,-196,202,-169,2025-02-17 10:55:25,0.0
-4956,11856,10032,-138,168,-191,2025-02-17 10:55:25,0.0
-4884,11816,10060,-195,173,-173,2025-02-17 10:55:25,0.0
-4884,11788,10064,-157,178,-168,2025-02-17 10:55:25,0.0
-4876,11772,10012,-157,184,-168,2025-02-17 10:55:25,0.0
-5028,11720,10092,-142,203,-180,2025-02-17 10:55:25,0.0
-4804,11720,10296,-160,179,-169,2025-02-17 10:55:25,0.0
-5032,11824,10204,-172,151,-195,2025-02-17 10:55:25,0.0
-4992,11796,10068,-168,169,-204,2025-02-17 10:55:25,0.0
-4912,11860,10072,-151,166,-205,2025-02-17 10:55:25,0.0
-4836,11856,10116,-125,187,-157,2025-02-17 10:55:25,0.0
-4920,11756,10204,-188,175,-177,2025-02-17 10:55:25,0.0
-4836,11748,10304,-162,187,-183,2025-02-17 10:55:25,0.0
-4964,11784,10132,-161,166,-187,2025-02-17 10:55:25,0.0
-4924,11788,10076,-165,197,-180,2025-02-17 10:55:25,0.0
-4944,11772,10128,-148,201,-164,2025-02-17 10:55:25,0.0
-4880,11824,10064,-162,184,-184,2025-02-17 10:55:25,0.0
-5116,11792,10288,-161,184,-176,2025-02-17 10:55:25,0.0
-4848,11804,10092,-128,138,-168,2025-02-17 10:55:25,0.0
-4788,11760,10008,-206,205,-200,2025-02-17 10:55:25,0.0
-5032,11744,10196,-186,155,-180,2025-02-17 10:55:25,0.0
-5040,11868,10028,-147,184,-156,2025-02-17 10:55:25,0.0
-4812,11736,10024,-163,180,-163,2025-02-17 10:55:25,0.0
-4860,11776,10140,-169,185,-190,2025-02-17 10:55:25,0.0
-4968,11836,10240,-175,191,-195,2025-02-17 10:55:25,0.0
-4992,11792,10104,-132,194,-179,2025-02-17 10:55:25,0.0
-4896,11880,10140,-145,168,-196,2025-02-17 10:55:25,0.0
-4896,11764,10260,-163,162,-164,2025-02-17 10:55:25,0.0
-4948,11740,10292,-161,186,-167,2025-02-17 10:55:25,0.0
-4932,11796,10096,-128,187,-167,2025-02-17 10:55:25,0.0
-4948,11744,10172,-156,194,-173,2025-02-17 10:55:25,0.0
-5024,11888,10076,-146,158,-187,2025-02-17 10:55:25,0.0
-4944,11752,10020,-169,128,-172,2025-02-17 10:55:25,0.0
-4880,11800,9988,-172,184,-166,2025-02-17 10:55:25,0.0
-4972,11736,9988,-128,196,-203,2025-02-17 10:55:25,0.0
-4980,11700,10108,-162,222,-208,2025-02-17 10:55:25,0.0
-4908,11800,10220,-176,179,-191,2025-02-17 10:55:25,0.0
-4860,11816,10072,-139,180,-179,2025-02-17 10:55:25,0.0
-4848,11804,10092,-169,165,-159,2025-02-17 10:55:25,0.0
-4988,11732,10220,-156,177,-214,2025-02-17 10:55:25,0.0
-4996,11800,10172,-132,173,-146,2025-02-17 10:55:25,0.0
-4868,11780,10088,-151,170,-176,2025-02-17 10:55:26,0.0
-4956,11804,10080,-145,183,-160,2025-02-17 10:55:26,0.0
-4860,11776,10008,-172,201,-174,2025-02-17 10:55:26,0.0
-4952,11792,10160,-157,199,-178,2025-02-17 10:55:26,0.0
-4852,11800,10124,-149,168,-182,2025-02-17 10:55:26,0.0
-5040,11776,10228,-146,202,-164,2025-02-17 10:55:26,0.0
-4808,11812,10092,-187,168,-152,2025-02-17 10:55:26,
-4964,11788,10096,-157,174,-184,2025-02-17 10:55:26,0.0
-4872,11776,10156,-138,173,-161,2025-02-17 10:55:26,0.0
-4896,11912,10072,-170,186,-174,2025-02-17 10:55:26,0.0
-4992,11748,10016,-165,168,-171,2025-02-17 10:55:26,0.0
-4928,11792,10168,-169,165,-163,2025-02-17 10:55:26,0.0
-4832,11852,10144,-161,190,-174,2025-02-17 10:55:26,0.0
-4976,11732,10152,-154,201,-162,2025-02-17 10:55:26,0.0
-4960,11912,10080,-171,175,-185,2025-02-17 10:55:26,0.0
-4836,11748,9968,-164,173,-166,2025-02-17 10:55:26,0.0
-4968,11860,10076,-144,156,-158,2025-02-17 10:55:26,0.0
-4932,11712,10044,-179,199,-173,2025-02-17 10:55:26,0.0
-4836,11780,10092,-150,171,-174,2025-02-17 10:55:26,0.0
-4920,11860,10052,-180,197,-196,2025-02-17 10:55:26,0.0
-4968,11748,10200,-179,186,-184,2025-02-17 10:55:26,0.0
-4816,11740,10128,-184,187,-158,2025-02-17 10:55:26,0.0
-4952,11868,10204,-149,229,-193,2025-02-17 10:55:26,0.0
-4916,11836,10124,-146,193,-183,2025-02-17 10:55:26,0.0
-4944,11740,10168,-138,185,-206,2025-02-17 10:55:26,0.0
-4764,11868,10160,-168,196,-172,2025-02-17 10:55:26,0.0
-4900,11776,10116,-194,165,-184,2025-02-17 10:55:26,0.0
-4968,11804,9952,-152,175,-157,2025-02-17 10:55:26,0.0
-5000,11768,10092,-175,188,-163,2025-02-17 10:55:26,0.0
-4896,11772,10264,-186,178,-193,2025-02-17 10:55:26,0.0
-4908,11744,10144,-183,182,-174,2025-02-17 10:55:26,0.0
-4976,11748,10140,-150,186,-160,2025-02-17 10:55:26,0.0
-4872,11728,10184,-165,182,-212,2025-02-17 10:55:26,0.0
-4832,11788,10088,-165,178,-163,2025-02-17 10:55:26,0.0
-4828,11816,10140,-157,163,-163,2025-02-17 10:55:26,0.0
-4972,11768,10144,-133,172,-181,2025-02-17 10:55:26,0.0
-5012,11796,10228,-134,161,-167,2025-02-17 10:55:26,0.0
-4912,11740,10232,-187,175,-197,2025-02-17 10:55:26,0.0
-4992,11752,10164,-175,173,-197,2025-02-17 10:55:26,0.0
-4916,11760,10048,-163,188,-178,2025-02-17 10:55:26,0.0
-4892,11784,10132,-150,195,-176,2025-02-17 10:55:26,0.0
-4960,11852,10040,-154,164,-204,2025-02-17 10:55:26,0.0
-4936,11784,10140,-161,187,-177,2025-02-17 10:55:26,0.0
-4896,11832,10088,-166,157,-171,2025-02-17 10:55:26,0.0
-4824,11780,10144,-168,162,-170,2025-02-17 10:55:26,0.0
-4980,11800,10080,-176,171,-183,2025-02-17 10:55:26,0.0
-4984,11748,10068,-171,168,-178,2025-02-17 10:55:26,0.0
-4848,11820,10128,-169,178,-177,2025-02-17 10:55:26,0.0
-4924,11752,10152,-167,189,-200,2025-02-17 10:55:26,0.0
-4968,11696,10136,-163,178,-183,2025-02-17 10:55:26,0.0
-4864,11772,10188,-155,219,-174,2025-02-17 10:55:26,0.0
-4908,11684,10092,-148,175,-178,2025-02-17 10:55:26,0.0
-4896,11800,10040,-158,181,-175,2025-02-17 10:55:27,0.0
-4868,11740,10168,-141,162,-163,2025-02-17 10:55:27,0.0
-4956,11800,10144,-158,182,-162,2025-02-17 10:55:27,0.0
-4884,11756,9972,-185,184,-196,2025-02-17 10:55:27,0.0
-4936,11740,10232,-148,185,-188,2025-02-17 10:55:27,0.0
-4832,11828,10128,-169,158,-158,2025-02-17 10:55:27,0.0
-4868,11800,10248,-149,161,-166,2025-02-17 10:55:27,0.0
-4824,11748,10116,-144,152,-174,2025-02-17 10:55:27,0.0
-4796,11732,10180,-176,190,-187,2025-02-17 10:55:27,0.0
-4872,11776,10256,-122,202,-167,2025-02-17 10:55:27,0.0
-4916,11748,10212,-158,177,-169,2025-02-17 10:55:27,0.0
-4960,11740,10008,-156,155,-177,2025-02-17 10:55:27,0.0
-4928,11768,10148,-158,173,-182,2025-02-17 10:55:27,0.0
-4904,11808,10076,-148,199,-165,2025-02-17 10:55:27,0.0
-4880,11748,10116,-156,206,-193,2025-02-17 10:55:27,0.0
-4864,11880,10196,-165,185,-161,2025-02-17 10:55:27,0.0
-4920,11744,10072,-168,154,-175,2025-02-17 10:55:27,0.0
-4856,11792,10256,-166,189,-163,2025-02-17 10:55:27,0.0
-4844,11692,10180,-138,180,-204,2025-02-17 10:55:27,0.0
-4908,11776,10160,-154,215,-197,2025-02-17 10:55:27,0.0
-5088,11812,10004,-184,190,-175,2025-02-17 10:55:27,0.0
-4960,11728,10116,-163,165,-183,2025-02-17 10:55:27,0.0
-4984,11760,10044,-184,179,-156,2025-02-17 10:55:27,0.0
-4832,11792,10128,-167,194,-188,2025-02-17 10:55:27,0.0
-4956,11768,10088,-159,192,-192,2025-02-17 10:55:27,0.0
-5008,11780,10048,-164,168,-164,2025-02-17 10:55:27,0.0
-4856,11744,10092,-160,185,-183,2025-02-17 10:55:27,0.0
-4808,11804,10220,-155,139,-198,2025-02-17 10:55:27,0.0
-4940,11772,10084,-186,210,-189,2025-02-17 10:55:27,0.0
-4876,11816,10080,-169,163,-180,2025-02-17 10:55:27,0.0
-4972,11732,10176,-154,194,-171,2025-02-17 10:55:27,0.0
-5100,11796,10200,-170,193,-192,2025-02-17 10:55:27,0.0
-4992,11756,10224,-143,179,-171,2025-02-17 10:55:27,0.0
-4956,11756,10180,-145,213,-153,2025-02-17 10:55:27,0.0
-3548,11488,10888,-46,137,-425,2025-02-17 10:55:27,0.0
-4332,11812,10632,290,1878,-1241,2025-02-17 10:55:27,0.0
-932,11888,11752,956,3592,-2962,2025-02-17 10:55:27,0.0
-6656,12588,8656,823,3871,-3306,2025-02-17 10:55:27,0.0
-13252,11616,6904,-287,2549,-1332,2025-02-17 10:55:27,0.0
-9812,10908,8948,-838,-1702,738,2025-02-17 10:55:27,0.0
-6316,11372,9032,-942,-4771,1503,2025-02-17 10:55:27,0.0
-6556,11736,11628,-772,-4877,2232,2025-02-17 10:55:27,0.0
-5704,11628,12224,-41,-3723,2794,2025-02-17 10:55:27,0.0
-5104,11488,12704,1019,-1828,3015,2025-02-17 10:55:27,0.0
-388,12272,12784,1959,413,1520,2025-02-17 10:55:27,0.0
180,11852,9004,1949,3362,-308,2025-02-17 10:55:27,0.0
-3588,11776,7552,929,4945,-594,2025-02-17 10:55:27,0.0
-4032,12156,8032,712,1516,-1108,2025-02-17 10:55:27,0.0
-4760,12024,7660,112,-722,-1628,2025-02-17 10:55:27,0.0
-7608,11940,9316,-716,546,-770,2025-02-17 10:55:27,0.0
-5652,11868,9804,-800,-928,-512,2025-02-17 10:55:27,0.0
-4532,11488,9428,-849,-1456,-269,2025-02-17 10:55:27,0.0
-4212,11960,11444,-438,-913,-437,2025-02-17 10:55:27,0.0
-3940,12400,11828,-3,1035,-819,2025-02-17 10:55:27,0.0
-3948,11980,11720,1020,1542,-1333,2025-02-17 10:55:27,
-4164,11560,11124,1541,2623,-1775,2025-02-17 10:55:27,0.0
-4012,11540,9228,1489,4289,-2323,2025-02-17 10:55:27,0.0
-6324,11132,8500,1305,5429,-1998,2025-02-17 10:55:27,0.0
-6752,11984,8612,938,5690,-1639,2025-02-17 10:55:27,0.0
-6740,12200,10820,1091,3731,-1129,2025-02-17 10:55:27,0.0
-7004,11968,12000,2233,957,-624,2025-02-17 10:55:27,0.0
-9720,11488,8680,2323,550,850,2025-02-17 10:55:27,0.0
-7796,11832,9996,2839,-208,2043,2025-02-17 10:55:27,0.0
-5400,12284,10496,3413,-522,2361,2025-02-17 10:55:27,0.0
-3228,12356,9276,3328,102,1488,2025-02-17 10:55:27,0.0
-3404,12264,8632,3155,1492,671,2025-02-17 10:55:28,0.0
-5164,12372,8820,3046,1324,336,2025-02-17 10:55:28,0.0
-6792,12476,8704,3050,1086,790,2025-02-17 10:55:28,0.0
-5368,12956,10132,3446,282,798,2025-02-17 10:55:28,0.0
-4252,12032,5376,3281,-927,902,2025-02-17 10:55:28,0.0
-8848,12204,6864,3284,-820,2049,2025-02-17 10:55:28,0.0
-10572,11908,7412,2883,-1331,4164,2025-02-17 10:55:28,0.0
-8996,12488,9292,3183,-2852,5719,2025-02-17 10:55:28,0.0
-5112,12852,9720,3823,-3626,6019,2025-02-17 10:55:28,0.0
-5240,13152,9900,4885,-5170,7105,2025-02-17 10:55:28,0.0
-5548,13560,10324,5537,-6131,7424,2025-02-17 10:55:28,0.0
-128,23240,2820,15327,-23699,-556,2025-02-17 10:55:28,0.0
-524,23604,3396,14141,-22354,731,2025-02-17 10:55:28,0.0
608,23656,3172,13132,-20183,1840,2025-02-17 10:55:28,0.0
2812,23196,1132,11091,-17286,1628,2025-02-17 10:55:28,0.0
5700,22264,-148,7877,-14247,-695,2025-02-17 10:55:28,0.0
4204,21920,-780,3971,-10766,-3092,2025-02-17 10:55:28,0.0
1508,21860,1640,897,-6809,-2958,2025-02-17 10:55:28,0.0
-564,22192,3552,-545,-2450,-1069,2025-02-17 10:55:28,0.0
112,21892,2816,-2077,2067,933,2025-02-17 10:55:28,0.0
2552,20944,2884,-4859,6503,1459,2025-02-17 10:55:28,0.0
4384,20056,5252,-6534,10919,96,2025-02-17 10:55:28,0.0
6024,17672,3100,-7716,13525,-2531,2025-02-17 10:55:28,0.0
6852,15768,2524,-10952,15351,-6584,2025-02-17 10:55:28,0.0
4668,15708,5108,-12999,15890,-9630,2025-02-17 10:55:28,0.0
1540,17188,8940,-11399,14199,-9899,2025-02-17 10:55:28,0.0
1944,18324,9140,-6462,9705,-6777,2025-02-17 10:55:28,0.0
3072,17988,4188,-3889,3300,-5918,2025-02-17 10:55:28,0.0
332,17584,648,-4362,-2916,-3067,2025-02-17 10:55:28,0.0
560,17956,2016,-4565,-8593,-579,2025-02-17 10:55:28,0.0
2580,17264,4132,-3362,-13623,106,2025-02-17 10:55:28,0.0
2276,15356,4804,-1127,-17769,-46,2025-02-17 10:55:28,0.0
164,14656,4528,1425,-20238,511,2025-02-17 10:55:28,0.0
-556,14876,3536,3372,-21542,2209,2025-02-17 10:55:28,0.0
-688,15124,3788,5234,-21716,3880,2025-02-17 10:55:28,0.0
-132,15396,5232,7415,-21063,5166,2025-02-17 10:55:28,0.0
1044,15284,5396,10149,-20288,5734,2025-02-17 10:55:28,0.0
1632,14864,3740,12425,-20002,5706,2025-02-17 10:55:28,0.0
1484,14548,1356,12865,-19317,5608,2025-02-17 10:55:28,0.0
1764,14048,1040,12030,-17374,5072,2025-02-17 10:55:28,0.0
1708,13696,1588,11660,-15646,3809,2025-02-17 10:55:28,0.0
1144,12992,1984,11356,-13668,2817,2025-02-17 10:55:28,0.0
1724,12956,2072,11331,-11950,1824,2025-02-17 10:55:28,0.0
1192,12720,-712,10144,-8741,474,2025-02-17 10:55:28,0.0
988,13284,-4284,6513,-6401,426,2025-02-17 10:55:28,0.0
3228,13688,-5920,864,-3829,-452,2025-02-17 10:55:28,0.0
3168,13160,-3148,-3835,-1361,-2310,2025-02-17 10:55:28,0.0
-1152,11608,2564,-4189,1360,-1635,2025-02-17 10:55:28,0.0
-2340,9496,4712,-666,5002,998,2025-02-17 10:55:28,0.0
-1988,8200,3960,2851,8989,3200,2025-02-17 10:55:29,0.0
1776,8068,3920,5644,12029,3350,2025-02-17 10:55:29,0.0
4140,8444,3320,7611,13359,1217,2025-02-17 10:55:29,0.0
4028,9044,2072,8773,13093,-903,2025-02-17 10:55:29,0.0
3280,10452,1636,9131,11590,-2265,2025-02-17 10:55:29,0.0
3024,11572,1548,9645,8370,-3451,2025-02-17 10:55:29,0.0
2384,12676,1012,9740,5600,-4253,2025-02-17 10:55:29,0.0
2132,12896,676,9357,2126,-4253,2025-02-17 10:55:29,0.0
2748,13216,496,8680,-1486,-5006,2025-02-17 10:55:29,0.0
3540,12352,-1708,6202,-4613,-7180,2025-02-17 10:55:29,0.0
1728,12136,-2084,1121,-7303,-10114,2025-02-17 10:55:29,0.0
-84,11988,-436,-3538,-9362,-11527,2025-02-17 10:55:29,0.0
-960,13408,4396,-4061,-11119,-9457,2025-02-17 10:55:29,0.0
576,13436,3732,-3112,-12006,-7680,2025-02-17 10:55:29,0.0
3968,12184,1428,-2601,-12706,-7773,2025-02-17 10:55:29,0.0
3052,11176,-1956,-4352,-13259,-9447,2025-02-17 10:55:29,0.0
-1164,12368,-2132,-6759,-13511,-9137,2025-02-17 10:55:29,0.0
-3412,13020,0,-7460,-12737,-7763,2025-02-17 10:55:29,0.0
5588,13688,1104,-4893,-12923,-7348,2025-02-17 10:55:29,0.0
-5680,12672,3408,-269,-7710,-10053,2025-02-17 10:55:29,0.0
-7332,12340,-584,2429,-2064,-10783,2025-02-17 10:55:29,0.0
-7360,12700,-1796,4169,4784,-10632,2025-02-17 10:55:29,0.0
-4788,13940,-3380,5044,11201,-10321,2025-02-17 10:55:29,0.0
-3720,14692,-1524,5095,16344,-10004,2025-02-17 10:55:29,0.0
-2052,14908,-224,5634,19570,-9418,2025-02-17 10:55:29,0.0
-2492,13204,1508,6621,23183,-9740,2025-02-17 10:55:29,0.0
-4896,11856,1912,7330,26582,-9230,2025-02-17 10:55:29,0.0
-3784,10284,1752,7597,29801,-9139,2025-02-17 10:55:29,0.0
-2856,10392,1844,7637,31567,-10128,2025-02-17 10:55:29,0.0
-2288,10584,392,7435,31461,-10301,2025-02-17 10:55:29,0.0
-840,10788,-1340,6674,29227,-10810,2025-02-17 10:55:29,0.0
-780,10300,-2928,6174,25209,-11237,2025-02-17 10:55:29,0.0
-2064,10016,-3996,6173,19331,-11358,2025-02-17 10:55:29,0.0
-3552,10104,-5040,6973,13102,-10923,2025-02-17 10:55:29,0.0
-3864,9728,-7324,7687,5381,-8794,2025-02-17 10:55:29,0.0
-2032,9428,-6752,8671,-3354,-7660,2025-02-17 10:55:29,0.0
-2196,8472,-8676,11159,-8144,-9462,2025-02-17 10:55:29,0.0
-4628,7360,-10428,12747,-9030,-11727,2025-02-17 10:55:29,0.0
-6328,6184,-12632,12334,-6860,-14182,2025-02-17 10:55:29,0.0
-9240,5232,-14028,10140,-1535,-16398,2025-02-17 10:55:29,0.0
-12012,6136,-12500,6805,5402,-16955,2025-02-17 10:55:29,
-10172,7164,-11000,5045,7413,-15853,2025-02-17 10:55:29,0.0
-6008,7384,-7812,3795,4229,-15867,2025-02-17 10:55:29,0.0
-4420,7272,-5332,4848,-3545,-17519,2025-02-17 10:55:29,0.0
-4792,6452,-7384,5385,-12625,-19104,2025-02-17 10:55:29,0.0
-7352,5028,-8280,1307,-19977,-20785,2025-02-17 10:55:29,0.0
-10820,4556,-5080,-2624,-25616,-21766,2025-02-17 10:55:29,0.0
-13036,4640,-2860,-3360,-30857,-20779,2025-02-17 10:55:29,0.0
-12996,4776,-2240,-2621,-32768,-20468,2025-02-17 10:55:29,0.0
-13468,5420,-3956,-2165,-32768,-20430,2025-02-17 10:55:29,0.0
-18344,6100,-5188,-3741,-32768,-19136,2025-02-17 10:55:29,0.0
-20052,5272,-5332,-6715,-31706,-16504,2025-02-17 10:55:29,0.0
-19728,4004,-2944,-8048,-27013,-14906,2025-02-17 10:55:29,0.0
-18616,3224,-1204,-7608,-21342,-12986,2025-02-17 10:55:29,0.0
-15128,2452,104,-7215,-14562,-11452,2025-02-17 10:55:29,0.0
-13040,1928,824,-7256,-7187,-10813,2025-02-17 10:55:29,0.0
-11284,1824,1880,-6939,-378,-10706,2025-02-17 10:55:29,0.0
-12964,2316,2228,-5528,6986,-10900,2025-02-17 10:55:29,0.0
-15412,2824,2228,-4683,11180,-9108,2025-02-17 10:55:29,0.0
-14992,2368,2560,-3374,13161,-7361,2025-02-17 10:55:29,0.0
-13436,2364,4568,-1704,10068,-6141,2025-02-17 10:55:29,0.0
-15464,3888,15432,1345,10272,-5622,2025-02-17 10:55:29,0.0
-14548,996,1840,1760,3163,-4847,2025-02-17 10:55:30,0.0
-16144,144,-5064,-1513,-5015,-4691,2025-02-17 10:55:30,0.0
-18988,2020,-1176,-1569,-859,-2641,2025-02-17 10:55:30,0.0
-14752,2052,2256,765,1814,-1090,2025-02-17 10:55:30,0.0
-14304,324,92,1154,859,-243,2025-02-17 10:55:30,0.0
-13420,972,-888,697,-52,-594,2025-02-17 10:55:30,0.0
-13748,468,192,467,-379,-1131,2025-02-17 10:55:30,0.0
-14212,800,-1500,686,292,-903,2025-02-17 10:55:30,0.0
-13208,540,-1380,235,985,-768,2025-02-17 10:55:30,0.0
-13660,740,-900,30,961,-1015,2025-02-17 10:55:30,0.0
-22304,-584,840,-284,-512,88,2025-02-17 10:55:30,0.0
-13408,452,-1424,-550,2512,-287,2025-02-17 10:55:30,0.0
-12504,620,-1024,-276,2781,-587,2025-02-17 10:55:30,0.0
-13380,716,-1680,-202,3131,-937,2025-02-17 10:55:30,0.0
-14608,392,-1064,112,2500,-334,2025-02-17 10:55:30,0.0
-15096,372,-472,504,2694,-419,2025-02-17 10:55:30,0.0
-14660,616,-1204,800,1532,-446,2025-02-17 10:55:30,0.0
-13980,620,-1612,743,531,-609,2025-02-17 10:55:30,0.0
-13932,436,-1900,807,-302,-335,2025-02-17 10:55:30,0.0
-13148,304,-1980,1001,-122,-179,2025-02-17 10:55:30,0.0
-12356,260,-3040,958,529,-46,2025-02-17 10:55:30,0.0
-12408,268,-1672,1197,1745,-227,2025-02-17 10:55:30,0.0
-12540,492,-2052,1361,2973,-615,2025-02-17 10:55:30,0.0
-11420,444,-4560,1161,3704,-1029,2025-02-17 10:55:30,0.0
-12948,520,-4076,544,4512,-1410,2025-02-17 10:55:30,0.0
-12920,168,-4064,705,3978,-1295,2025-02-17 10:55:30,0.0
-12508,4,-4860,-296,1526,-1440,2025-02-17 10:55:30,0.0
-12464,-92,-4124,-751,762,-1659,2025-02-17 10:55:30,0.0
-7628,160,-4932,-602,1566,-2287,2025-02-17 10:55:30,0.0
-11488,84,-3240,-331,2186,-2290,2025-02-17 10:55:30,0.0
-11848,-164,-3444,65,2708,-2166,2025-02-17 10:55:30,0.0
-11064,76,-3956,135,2869,-2308,2025-02-17 10:55:30,0.0
-11356,-352,-2796,1168,2108,-956,2025-02-17 10:55:30,0.0
-11396,-240,-2128,2119,1562,-681,2025-02-17 10:55:30,0.0
-10896,240,-3036,2117,1279,-646,2025-02-17 10:55:30,0.0
-9728,248,-2432,2219,380,-835,2025-02-17 10:55:30,0.0
-8908,-368,-4832,1712,742,-1492,2025-02-17 10:55:30,0.0
-11112,-296,-2988,315,2137,-452,2025-02-17 10:55:30,0.0
-10536,-184,-1240,102,3172,395,2025-02-17 10:55:30,0.0
-9672,-348,-2556,-274,3363,-60,2025-02-17 10:55:30,0.0
-11852,352,-2156,-1597,2716,-711,2025-02-17 10:55:30,0.0
-12400,44,-348,-1260,1068,-1223,2025-02-17 10:55:30,0.0
-12416,48,-2976,-1497,1653,-314,2025-02-17 10:55:30,0.0
-12276,504,-2476,-1475,2083,352,2025-02-17 10:55:30,0.0
-12000,1028,-1080,-931,538,685,2025-02-17 10:55:30,0.0
-11984,1124,-260,-229,-1654,1113,2025-02-17 10:55:30,0.0
-11480,916,248,697,-5198,735,2025-02-17 10:55:30,0.0
-13484,-956,-700,1137,-6341,1338,2025-02-17 10:55:30,0.0
-14944,-1680,-252,1565,-6975,2977,2025-02-17 10:55:30,0.0
-15784,-896,120,1368,-7599,5268,2025-02-17 10:55:30,0.0
-13668,392,1272,1213,-7862,6682,2025-02-17 10:55:30,0.0
-11468,1940,632,1001,-8402,6343,2025-02-17 10:55:30,0.0
-10084,2116,256,401,-9462,5201,2025-02-17 10:55:30,0.0
-13332,1100,408,560,-9129,4323,2025-02-17 10:55:30,0.0
-11852,-848,184,1013,-8872,3962,2025-02-17 10:55:30,0.0
-12352,-1132,-1972,834,-9612,3055,2025-02-17 10:55:30,0.0
-11616,-1012,700,574,-9503,2269,2025-02-17 10:55:30,0.0
-12484,520,608,210,-9551,1937,2025-02-17 10:55:30,0.0
-13932,1632,544,-489,-8182,1745,2025-02-17 10:55:30,0.0
-13876,1808,-308,-793,-7334,787,2025-02-17 10:55:31,0.0
-13656,1072,280,-1145,-5256,517,2025-02-17 10:55:31,0.0
-14572,2224,2864,-840,-3623,450,2025-02-17 10:55:31,0.0
-16588,3128,2164,-787,-3392,669,2025-02-17 10:55:31,0.0
-14052,3300,3784,-582,-4184,-244,2025-02-17 10:55:31,0.0
-14428,2956,2572,-538,-4705,-833,2025-02-17 10:55:31,0.0
-16476,1088,3316,-148,-4600,-522,2025-02-17 10:55:31,0.0
-16696,692,4216,333,-5510,-188,2025-02-17 10:55:31,0.0
-15652,1364,3080,864,-6845,-155,2025-02-17 10:55:31,0.0
-15692,2656,5000,1467,-8015,-527,2025-02-17 10:55:31,0.0
-14760,3012,5016,2211,-8942,-920,2025-02-17 10:55:31,0.0
-15192,2384,4620,2601,-8482,-795,2025-02-17 10:55:31,0.0
-15368,2336,3992,2784,-7770,-484,2025-02-17 10:55:31,0.0
-15116,2028,3844,2766,-7983,-98,2025-02-17 10:55:31,0.0
-15444,1848,3872,2728,-8665,364,2025-02-17 10:55:31,0.0
-13856,1552,4144,2345,-10096,535,2025-02-17 10:55:31,0.0
-12124,2184,4448,1768,-11084,401,2025-02-17 10:55:31,0.0
-11052,2804,4792,845,-10931,159,2025-02-17 10:55:31,0.0
-11336,2132,8500,-72,-9685,114,2025-02-17 10:55:31,0.0
-12844,1104,11872,54,-5547,-88,2025-02-17 10:55:31,
-22932,828,12332,-292,1239,-643,2025-02-17 10:55:31,0.0
-26816,5228,17672,-3269,-4184,-1201,2025-02-17 10:55:31,0.0
-26656,4264,16176,-3925,-5423,-712,2025-02-17 10:55:31,0.0
-19436,3804,10180,-2581,-1672,-469,2025-02-17 10:55:31,0.0
-14092,1392,5072,-797,-3592,512,2025-02-17 10:55:31,0.0
-10520,136,4048,-70,-5014,1995,2025-02-17 10:55:31,0.0
-9880,352,6264,-557,-3042,2226,2025-02-17 10:55:31,0.0
-12136,1124,8296,-1287,-1629,1122,2025-02-17 10:55:31,0.0
-12472,108,8912,-1812,-2543,-50,2025-02-17 10:55:31,0.0
-12376,-216,9348,-1547,-4279,-816,2025-02-17 10:55:31,0.0
-11632,-32,9456,-1197,-5592,-1337,2025-02-17 10:55:31,0.0
-11092,56,9568,-707,-6735,-1690,2025-02-17 10:55:31,0.0
-9396,312,9760,-140,-6549,-2353,2025-02-17 10:55:31,0.0
-9700,168,10652,82,-5566,-3045,2025-02-17 10:55:31,0.0
-9444,-328,10812,133,-3493,-3086,2025-02-17 10:55:31,0.0
-10584,224,10632,204,-2083,-2934,2025-02-17 10:55:31,0.0
-12636,848,11164,173,-1501,-2690,2025-02-17 10:55:31,0.0
-12928,1008,10768,444,-1865,-2299,2025-02-17 10:55:31,0.0
-12340,240,10084,617,-1624,-1915,2025-02-17 10:55:31,0.0
-12012,304,10040,396,-443,-1400,2025-02-17 10:55:31,0.0
-11400,376,9824,509,609,-1393,2025-02-17 10:55:31,0.0
-11296,560,8968,582,1251,-1603,2025-02-17 10:55:31,0.0
-12204,764,9580,708,762,-1731,2025-02-17 10:55:31,0.0
-11892,1020,9224,587,731,-2137,2025-02-17 10:55:31,0.0
-12644,1008,8668,285,1322,-2130,2025-02-17 10:55:31,0.0
-13516,1288,8380,147,693,-1670,2025-02-17 10:55:31,0.0
-13412,1672,7752,6,-832,-989,2025-02-17 10:55:31,0.0
-13240,1588,8904,15,-1623,-743,2025-02-17 10:55:31,0.0
-12264,1280,7960,58,-1880,-439,2025-02-17 10:55:31,0.0
-12052,696,8168,-27,-1706,-138,2025-02-17 10:55:31,0.0
-11696,256,8032,-193,-1701,106,2025-02-17 10:55:31,0.0
-11872,68,9052,-310,-1803,123,2025-02-17 10:55:31,0.0
-11576,24,9104,-304,-1988,-59,2025-02-17 10:55:31,0.0
-11528,236,9756,-117,-2229,-240,2025-02-17 10:55:31,0.0
-11548,128,9472,-60,-2077,-277,2025-02-17 10:55:31,0.0
-11832,284,9944,-177,-1827,-287,2025-02-17 10:55:31,0.0
-11844,424,9792,-255,-1364,-353,2025-02-17 10:55:31,0.0
-11392,652,10132,-171,-986,-307,2025-02-17 10:55:31,0.0
-10956,940,10092,-507,-187,-346,2025-02-17 10:55:31,0.0
-11196,1276,10444,-1077,535,-769,2025-02-17 10:55:31,0.0
-11364,772,10960,-1570,1134,-1133,2025-02-17 10:55:31,0.0
-11856,64,10056,-944,1138,-701,2025-02-17 10:55:31,0.0
-11500,-76,9504,-473,35,-548,2025-02-17 10:55:32,0.0
-12084,-152,9900,-313,-978,-550,2025-02-17 10:55:32,0.0
-11264,-72,8776,-199,-1833,-497,2025-02-17 10:55:32,0.0
-11764,-60,9888,-241,-2637,-431,2025-02-17 10:55:32,0.0
-11924,-32,9552,-341,-2115,-355,2025-02-17 10:55:32,0.0
-11592,20,10104,-474,-1388,-291,2025-02-17 10:55:32,0.0
-11192,36,9792,-567,-1432,-515,2025-02-17 10:55:32,0.0
-11872,352,9924,-450,-1296,-342,2025-02-17 10:55:32,0.0
-11588,200,9804,-221,-1092,70,2025-02-17 10:55:32,0.0
-10808,404,9452,-246,-989,-11,2025-02-17 10:55:32,0.0
-10972,672,9584,-373,-754,-452,2025-02-17 10:55:32,0.0
-11184,500,9472,-583,-360,-464,2025-02-17 10:55:32,0.0
-10848,228,9868,-675,-62,-532,2025-02-17 10:55:32,0.0
-12024,608,11468,-583,483,-440,2025-02-17 10:55:32,0.0
-12392,372,10384,-641,992,-178,2025-02-17 10:55:32,0.0
-12504,48,10144,-376,684,255,2025-02-17 10:55:32,0.0
-12528,288,10096,-207,277,571,2025-02-17 10:55:32,0.0
-11360,196,10596,-63,77,285,2025-02-17 10:55:32,0.0
-11052,228,10136,-136,406,138,2025-02-17 10:55:32,0.0
-11200,248,10140,-235,528,2,2025-02-17 10:55:32,0.0
-11388,268,10224,-184,670,-88,2025-02-17 10:55:32,0.0
-11712,192,10348,-143,638,-172,2025-02-17 10:55:32,0.0
-11736,96,10184,-87,383,-267,2025-02-17 10:55:32,0.0
-11848,272,10028,-82,93,-402,2025-02-17 10:55:32,0.0
-11724,372,10052,0,38,-424,2025-02-17 10:55:32,0.0
-11500,492,10064,37,-55,-360,2025-02-17 10:55:32,0.0
-11484,436,9820,21,-106,-334,2025-02-17 10:55:32,0.0
-11520,528,9972,-111,96,-345,2025-02-17 10:55:32,0.0
-11720,464,10088,-165,331,-389,2025-02-17 10:55:32,0.0
-11972,316,10108,-206,161,-298,2025-02-17 10:55:32,0.0
-11808,252,10080,-168,11,-202,2025-02-17 10:55:32,0.0
-11476,260,10084,-77,-4,-179,2025-02-17 10:55:32,0.0
-11448,260,10172,-111,154,-228,2025-02-17 10:55:32,0.0
-11640,408,10088,-190,292,-184,2025-02-17 10:55:32,0.0
-11748,440,10292,-150,197,-116,2025-02-17 10:55:32,0.0
-11640,392,10348,-212,170,-127,2025-02-17 10:55:32,0.0
-11556,412,10204,-239,128,-184,2025-02-17 10:55:32,0.0
-11404,272,10108,-272,45,-250,2025-02-17 10:55:32,0.0
-11680,224,10276,-237,91,-190,2025-02-17 10:55:32,0.0
-11748,256,10292,-252,94,-234,2025-02-17 10:55:32,0.0
-11640,240,10280,-266,85,-261,2025-02-17 10:55:32,0.0
-11576,308,10168,-180,122,-282,2025-02-17 10:55:32,0.0
-11492,268,10116,-134,151,-212,2025-02-17 10:55:32,0.0
-11576,208,10036,-168,148,-238,2025-02-17 10:55:32,0.0
-11500,84,10020,-175,145,-278,2025-02-17 10:55:32,0.0
-11816,128,9928,-84,141,-142,2025-02-17 10:55:32,0.0
-11560,232,10272,-96,199,-127,2025-02-17 10:55:32,0.0
-11560,212,10128,-174,282,-203,2025-02-17 10:55:32,0.0
-11720,340,10080,-123,145,-181,2025-02-17 10:55:32,0.0
-11528,348,10384,-33,83,-101,2025-02-17 10:55:32,0.0
-11396,260,10504,43,46,-82,2025-02-17 10:55:32,0.0
-11748,664,10816,334,245,-88,2025-02-17 10:55:32,0.0
-12388,236,10948,771,178,124,2025-02-17 10:55:33,0.0
-12408,36,10628,1283,47,440,2025-02-17 10:55:33,0.0
-11648,-12,9920,1516,-379,645,2025-02-17 10:55:33,0.0
-11184,100,9692,1528,-796,621,2025-02-17 10:55:33,0.0
-10268,152,8452,999,-592,331,2025-02-17 10:55:33,0.0
-10652,528,9768,64,517,76,2025-02-17 10:55:33,
-10936,500,9844,-382,947,-232,2025-02-17 10:55:33,0.0
-11252,388,9864,-641,784,-329,2025-02-17 10:55:33,0.0
-11008,348,10040,-578,778,-355,2025-02-17 10:55:33,0.0
-11520,612,10184,-37,914,-108,2025-02-17 10:55:33,0.0
-11788,784,9832,304,747,116,2025-02-17 10:55:33,0.0
-11656,964,9584,189,288,116,2025-02-17 10:55:33,0.0
-11648,1020,9328,-115,-11,-35,2025-02-17 10:55:33,0.0
-12112,920,10116,-177,-105,-121,2025-02-17 10:55:33,0.0
-12200,760,10292,9,175,71,2025-02-17 10:55:33,0.0
-11840,528,9880,3,-16,125,2025-02-17 10:55:33,0.0
-11488,508,9508,-28,-19,215,2025-02-17 10:55:33,0.0
-10988,504,9380,-310,138,-152,2025-02-17 10:55:33,0.0
-10752,540,9692,-652,572,-452,2025-02-17 10:55:33,0.0
-11860,468,10512,-598,800,-480,2025-02-17 10:55:33,0.0
-11988,504,10708,-338,940,-185,2025-02-17 10:55:33,0.0
-11300,576,10116,-138,1091,78,2025-02-17 10:55:33,0.0
-12108,672,10716,-174,1283,153,2025-02-17 10:55:33,0.0
-11564,848,10132,-400,1206,160,2025-02-17 10:55:33,0.0
-11812,748,10432,-743,1410,25,2025-02-17 10:55:33,0.0
-11552,464,10376,-806,1432,123,2025-02-17 10:55:33,0.0
-11988,-208,10860,-569,1489,187,2025-02-17 10:55:33,0.0
-10892,-264,10772,-315,1553,535,2025-02-17 10:55:33,0.0
-11076,8,10624,-367,2019,640,2025-02-17 10:55:33,0.0
-10792,112,9832,-229,2143,410,2025-02-17 10:55:33,0.0
-10360,248,10396,-254,1876,-175,2025-02-17 10:55:33,0.0
-12744,376,11096,-103,2169,-399,2025-02-17 10:55:33,0.0
-12284,416,10484,-140,1297,-55,2025-02-17 10:55:33,0.0
-11332,220,10452,-344,1016,-36,2025-02-17 10:55:33,0.0
-11160,456,10356,-475,1423,-185,2025-02-17 10:55:33,0.0
-10656,848,10128,-525,1798,-507,2025-02-17 10:55:33,0.0
-10952,984,10052,-876,2320,-699,2025-02-17 10:55:33,0.0
-10516,856,8776,-1031,2827,-876,2025-02-17 10:55:33,0.0
-11720,916,10248,-781,3248,-865,2025-02-17 10:55:33,0.0
-12296,804,10908,-434,3492,-603,2025-02-17 10:55:33,0.0
-11700,716,10172,-329,3736,-293,2025-02-17 10:55:33,0.0
-10900,544,9336,-505,4479,-129,2025-02-17 10:55:33,0.0
-11304,788,8216,-601,5628,46,2025-02-17 10:55:33,0.0
-11528,964,8500,-417,6330,295,2025-02-17 10:55:33,0.0
-12568,1680,7620,-111,6854,359,2025-02-17 10:55:33,0.0
-13872,1584,7636,-333,7144,742,2025-02-17 10:55:33,0.0
