acceleration_x,acceleration_y,acceleration_z,gyroscope_x,gyroscope_y,gyroscope_z,timestamp,label
-12180,160,9180,-179,122,-186,2025-02-17 10:56:39,0.0
-12168,160,9404,-184,197,-211,2025-02-17 10:56:39,0.0
-12216,224,9228,-171,200,-182,2025-02-17 10:56:39,0.0
-12116,144,9216,-162,164,-161,2025-02-17 10:56:39,0.0
-12172,268,8956,-131,162,-135,2025-02-17 10:56:39,0.0
-11968,240,9188,-172,137,-145,2025-02-17 10:56:39,0.0
-12120,208,9228,-149,220,-167,2025-02-17 10:56:39,0.0
-12168,192,9040,-170,296,-182,2025-02-17 10:56:39,0.0
-12084,224,9248,-175,316,-180,2025-02-17 10:56:40,0.0
-12248,216,9100,-182,320,-141,2025-02-17 10:56:40,0.0
-12188,228,9096,-191,332,-140,2025-02-17 10:56:40,0.0
-12112,212,9012,-190,296,-154,2025-02-17 10:56:40,0.0
-12108,276,9032,-177,206,-138,2025-02-17 10:56:40,0.0
-12128,180,8952,-174,168,-175,2025-02-17 10:56:40,0.0
-12184,212,9256,-170,176,-213,2025-02-17 10:56:40,0.0
-12252,84,9172,-171,192,-213,2025-02-17 10:56:40,0.0
-12256,204,9032,-182,218,-206,2025-02-17 10:56:40,0.0
-12236,188,9188,-164,121,-209,2025-02-17 10:56:40,0.0
-12180,160,9196,-166,93,-195,2025-02-17 10:56:40,0.0
-12184,200,9144,-162,142,-202,2025-02-17 10:56:40,0.0
-12188,232,9240,-131,128,-187,2025-02-17 10:56:40,0.0
-12136,364,9016,-142,94,-150,2025-02-17 10:56:40,0.0
-12048,216,9180,-172,66,-126,2025-02-17 10:56:40,0.0
-12064,300,9048,-136,131,-172,2025-02-17 10:56:40,0.0
-12172,288,9084,-191,199,-164,2025-02-17 10:56:40,0.0
-12208,184,9236,-151,219,-196,2025-02-17 10:56:40,0.0
-12224,292,9304,-165,150,-180,2025-02-17 10:56:40,0.0
-12124,216,9208,-172,215,-171,2025-02-17 10:56:40,0.0
-12228,260,9140,-172,191,-158,2025-02-17 10:56:40,0.0
-12072,164,9188,-139,141,-136,2025-02-17 10:56:40,0.0
-11940,144,9108,-160,178,-195,2025-02-17 10:56:40,0.0
-12128,208,9216,-185,293,-171,2025-02-17 10:56:40,0.0
-12264,216,9184,-190,363,-199,2025-02-17 10:56:40,0.0
-12244,180,9300,-158,283,-182,2025-02-17 10:56:40,0.0
-12260,160,9160,-156,300,-177,2025-02-17 10:56:40,0.0
-12108,200,9056,-142,300,-165,2025-02-17 10:56:40,0.0
-12168,288,8952,-156,222,-136,2025-02-17 10:56:40,0.0
-12024,236,9188,-146,241,-181,2025-02-17 10:56:40,0.0
-12148,120,9108,-175,238,-157,2025-02-17 10:56:40,0.0
-12276,208,9080,-169,256,-194,2025-02-17 10:56:40,0.0
-12144,240,9088,-143,257,-154,2025-02-17 10:56:40,0.0
-12200,156,8964,-176,261,-183,2025-02-17 10:56:40,0.0
-12200,204,9048,-114,320,-156,2025-02-17 10:56:40,0.0
-12152,196,9060,-165,312,-166,2025-02-17 10:56:40,0.0
-12188,216,8972,-184,237,-144,2025-02-17 10:56:40,0.0
-12156,220,9096,-193,285,-170,2025-02-17 10:56:40,0.0
-12216,272,9096,-197,368,-184,2025-02-17 10:56:40,0.0
-12320,380,8884,-174,247,-178,2025-02-17 10:56:40,0.0
-12348,260,9140,-169,49,-146,2025-02-17 10:56:40,0.0
-12120,180,8984,-175,130,-139,2025-02-17 10:56:40,0.0
-12156,152,9128,-152,162,-158,2025-02-17 10:56:40,0.0
-12180,96,8996,-198,159,-176,2025-02-17 10:56:40,0.0
-12088,180,9184,-189,181,-192,2025-02-17 10:56:40,0.0
-12260,100,9204,-165,218,-197,2025-02-17 10:56:40,0.0
-12188,228,9072,-169,238,-186,2025-02-17 10:56:40,0.0
-12200,268,8972,-193,239,-126,2025-02-17 10:56:40,0.0
-12092,204,9088,-157,184,-125,2025-02-17 10:56:40,0.0
-12016,288,9120,-155,237,-124,2025-02-17 10:56:40,0.0
-12172,216,9232,-187,321,-149,2025-02-17 10:56:40,0.0
-12204,288,9128,-162,293,-165,2025-02-17 10:56:40,0.0
-12236,280,9076,-137,212,-118,2025-02-17 10:56:40,0.0
-12284,340,9016,-135,142,-105,2025-02-17 10:56:40,0.0
-12168,256,9012,-135,95,-97,2025-02-17 10:56:40,0.0
-12160,260,9040,-150,139,-105,2025-02-17 10:56:40,0.0
-12104,196,8952,-115,177,-145,2025-02-17 10:56:40,0.0
-12184,180,8860,-87,129,-189,2025-02-17 10:56:40,0.0
-12268,228,9084,-103,134,-174,2025-02-17 10:56:40,0.0
-12124,184,9116,-154,189,-132,2025-02-17 10:56:40,0.0
-12216,228,9116,-138,330,-228,2025-02-17 10:56:41,0.0
-12304,340,8968,-62,164,-79,2025-02-17 10:56:41,0.0
-12304,232,9068,-124,133,-117,2025-02-17 10:56:41,0.0
-12112,476,8968,-178,248,-125,2025-02-17 10:56:41,0.0
-12140,180,9192,-102,219,-152,2025-02-17 10:56:41,0.0
-12236,248,8932,-102,321,-34,2025-02-17 10:56:41,0.0
-12296,148,8976,-105,151,-86,2025-02-17 10:56:41,0.0
-12120,304,8880,-158,101,-151,2025-02-17 10:56:41,0.0
-12124,168,8916,-167,-13,-214,2025-02-17 10:56:41,0.0
-12196,108,9560,55,-104,-143,2025-02-17 10:56:41,0.0
-12400,324,9320,62,52,115,2025-02-17 10:56:41,0.0
-12508,112,9084,98,-232,167,2025-02-17 10:56:41,0.0
-12272,164,8748,50,-346,124,2025-02-17 10:56:41,0.0
-13016,80,8512,243,-526,272,2025-02-17 10:56:41,0.0
-11636,-76,8868,311,-1337,241,2025-02-17 10:56:41,0.0
-11536,528,8960,405,-1222,-145,2025-02-17 10:56:41,0.0
-11704,612,9368,466,-732,-475,2025-02-17 10:56:41,0.0
-12092,648,9376,398,-512,-304,2025-02-17 10:56:41,0.0
-12352,620,9368,479,-391,48,2025-02-17 10:56:41,0.0
-11868,444,8996,397,-445,170,2025-02-17 10:56:41,0.0
-11964,168,9256,213,137,225,2025-02-17 10:56:41,0.0
-12384,180,9524,265,491,200,2025-02-17 10:56:41,0.0
-12308,200,9068,512,463,52,2025-02-17 10:56:41,0.0
-12352,388,9184,601,139,204,2025-02-17 10:56:41,0.0
-12064,852,9208,509,94,236,2025-02-17 10:56:41,0.0
-11772,1080,9216,179,309,92,2025-02-17 10:56:41,0.0
-11960,808,8816,-33,300,-205,2025-02-17 10:56:41,0.0
-12204,236,8512,-236,-273,-379,2025-02-17 10:56:41,0.0
-11768,-260,9912,19,-982,-477,2025-02-17 10:56:41,0.0
-11108,124,9300,671,-813,-754,2025-02-17 10:56:41,0.0
-13068,-236,9676,750,-150,-141,2025-02-17 10:56:41,0.0
-12904,372,8620,542,-393,413,2025-02-17 10:56:41,
-12240,792,9684,380,-935,599,2025-02-17 10:56:41,0.0
-10904,412,8556,121,-1198,410,2025-02-17 10:56:41,0.0
-12456,816,9844,728,-799,530,2025-02-17 10:56:41,0.0
-11324,908,9032,846,-436,339,2025-02-17 10:56:41,0.0
-11944,648,8240,646,-703,388,2025-02-17 10:56:41,0.0
-12132,664,8532,159,-1233,67,2025-02-17 10:56:41,0.0
-12636,612,8724,-102,-1566,-16,2025-02-17 10:56:41,0.0
-12628,476,9376,-18,-1644,97,2025-02-17 10:56:41,0.0
-11444,684,8928,-120,-1460,125,2025-02-17 10:56:41,0.0
-11800,272,9128,-303,-1150,115,2025-02-17 10:56:41,0.0
-11720,348,9516,-695,-987,101,2025-02-17 10:56:41,0.0
-12656,0,10004,-655,-674,569,2025-02-17 10:56:41,0.0
-11120,1072,10440,-588,-954,296,2025-02-17 10:56:41,0.0
-10476,1952,9924,-825,-973,-427,2025-02-17 10:56:41,0.0
-10872,1688,10964,-614,-628,-635,2025-02-17 10:56:41,0.0
-10816,1256,11256,-106,112,-545,2025-02-17 10:56:41,0.0
-10856,1004,10784,-77,699,-509,2025-02-17 10:56:41,0.0
-11344,884,11456,30,1077,-306,2025-02-17 10:56:41,0.0
-11196,604,11192,10,1056,-232,2025-02-17 10:56:41,0.0
-10824,396,11180,-164,1220,-368,2025-02-17 10:56:41,0.0
-10720,708,10980,-400,1366,-548,2025-02-17 10:56:41,0.0
-10376,656,11532,-542,1810,-588,2025-02-17 10:56:41,0.0
-10308,592,10208,-735,3084,-931,2025-02-17 10:56:41,0.0
-10112,-156,10076,-1283,3900,-1703,2025-02-17 10:56:41,0.0
-12016,-344,9512,-2001,4339,-1851,2025-02-17 10:56:41,0.0
-9220,612,10476,-1450,2612,-3093,2025-02-17 10:56:41,0.0
-11512,1340,7684,-1727,2045,-3137,2025-02-17 10:56:42,0.0
-13884,1324,9060,-1350,1637,-2491,2025-02-17 10:56:42,0.0
-14696,1552,8872,-861,1150,-1272,2025-02-17 10:56:42,0.0
-13836,1480,8060,-671,301,-369,2025-02-17 10:56:42,0.0
-13440,1280,8696,-751,-309,276,2025-02-17 10:56:42,0.0
-12512,200,9476,-948,-338,545,2025-02-17 10:56:42,0.0
-13012,-452,10176,-1392,-118,288,2025-02-17 10:56:42,0.0
-10472,-1744,12012,-1271,1306,813,2025-02-17 10:56:42,0.0
-10616,-1408,12244,-1080,3130,1132,2025-02-17 10:56:42,0.0
-11976,-1508,13316,-662,4947,1405,2025-02-17 10:56:42,0.0
-7988,-1332,17184,-390,6391,1454,2025-02-17 10:56:42,0.0
-15344,380,12656,-2013,8198,2144,2025-02-17 10:56:42,0.0
-14472,504,13404,-3376,8853,432,2025-02-17 10:56:42,0.0
-13020,-772,12324,-3911,11611,-1559,2025-02-17 10:56:42,0.0
-16832,124,9328,-4240,14512,-3797,2025-02-17 10:56:42,0.0
-15440,2952,9832,-4674,14061,-4772,2025-02-17 10:56:42,0.0
-19212,2768,8180,-4628,11752,-2487,2025-02-17 10:56:42,0.0
-19112,-556,11228,-4802,8719,1631,2025-02-17 10:56:42,0.0
-17316,-2160,12716,-3783,8172,2875,2025-02-17 10:56:42,0.0
-17236,-4144,12472,-2023,6909,3051,2025-02-17 10:56:42,0.0
-15176,-3788,10916,-594,5557,2872,2025-02-17 10:56:42,0.0
-13312,-1808,9644,601,5282,2507,2025-02-17 10:56:42,0.0
-13092,112,7352,1667,6204,1726,2025-02-17 10:56:42,0.0
-12424,1172,5080,1703,7599,1049,2025-02-17 10:56:42,0.0
-13756,1572,3732,1510,9108,532,2025-02-17 10:56:42,0.0
-15420,568,1852,1316,9415,366,2025-02-17 10:56:42,0.0
-17072,-40,2572,1090,8052,336,2025-02-17 10:56:42,0.0
-16644,-320,2556,741,6267,279,2025-02-17 10:56:42,0.0
-15916,-304,2864,363,5705,-71,2025-02-17 10:56:42,0.0
-15480,-212,3452,841,6809,-26,2025-02-17 10:56:42,0.0
-14712,652,3948,474,7574,-355,2025-02-17 10:56:42,0.0
-14072,416,3688,891,8096,142,2025-02-17 10:56:42,0.0
-13340,844,1336,1371,8967,294,2025-02-17 10:56:42,0.0
-13512,1628,-604,114,8962,365,2025-02-17 10:56:42,0.0
-14320,1496,428,-464,8478,-656,2025-02-17 10:56:42,0.0
-14308,996,1344,-825,8297,-1293,2025-02-17 10:56:42,0.0
-13596,-4,2128,115,7483,-1434,2025-02-17 10:56:42,0.0
-12716,-776,2092,1356,6373,-1381,2025-02-17 10:56:42,0.0
-12932,-612,1700,3036,5824,-1400,2025-02-17 10:56:42,0.0
-12372,40,-228,2689,5351,-2333,2025-02-17 10:56:42,0.0
-12972,540,-176,1536,4347,-3018,2025-02-17 10:56:42,0.0
-13592,-172,548,929,3525,-2570,2025-02-17 10:56:42,0.0
-12992,-320,1476,1264,2963,-1026,2025-02-17 10:56:42,0.0
-11568,-376,796,1725,2632,-1541,2025-02-17 10:56:42,0.0
-11608,152,424,2634,1770,-2497,2025-02-17 10:56:42,0.0
-11756,444,-516,2658,263,-3766,2025-02-17 10:56:42,0.0
-11188,140,-1728,1304,-330,-5137,2025-02-17 10:56:42,0.0
-11936,-356,-1148,229,-460,-5507,2025-02-17 10:56:42,0.0
-12372,-680,-300,726,350,-4644,2025-02-17 10:56:42,0.0
-12064,-1080,-576,910,1178,-3835,2025-02-17 10:56:42,0.0
-11996,-1024,-644,524,2162,-3316,2025-02-17 10:56:42,0.0
-11400,-1428,-940,-85,3416,-3630,2025-02-17 10:56:42,0.0
-12120,-2160,-1072,-1031,4311,-4324,2025-02-17 10:56:42,0.0
-15448,-2656,472,-1500,4095,-4439,2025-02-17 10:56:42,0.0
-14696,-1844,-2092,-673,1648,-427,2025-02-17 10:56:42,0.0
-12496,-776,-1956,-1049,-482,317,2025-02-17 10:56:42,0.0
-12660,-200,-800,-90,-1471,335,2025-02-17 10:56:42,0.0
-12240,-792,-692,1030,-1618,529,2025-02-17 10:56:42,0.0
-12916,-1192,-736,1922,-1066,481,2025-02-17 10:56:42,0.0
-10804,-4600,1404,5998,7,733,2025-02-17 10:56:42,0.0
-12160,-1704,-3248,6584,-958,2305,2025-02-17 10:56:42,0.0
-10924,232,-1992,3166,-908,2161,2025-02-17 10:56:43,0.0
-8564,64,-932,1458,1713,-1095,2025-02-17 10:56:43,0.0
-8456,68,840,1624,4638,-5756,2025-02-17 10:56:43,0.0
-11092,-244,-476,1771,8361,-8687,2025-02-17 10:56:43,0.0
-14632,-508,-4000,-1346,11831,-6488,2025-02-17 10:56:43,0.0
-12520,-1428,-2536,-1866,14785,-4623,2025-02-17 10:56:43,0.0
-11828,-1064,-4452,-1418,17310,-5454,2025-02-17 10:56:43,0.0
-12672,1904,-6364,-3494,16502,-5768,2025-02-17 10:56:43,0.0
-10572,876,-4876,-5087,13486,-6358,2025-02-17 10:56:43,0.0
-9940,-2124,-464,-2935,7869,-8425,2025-02-17 10:56:43,0.0
-12692,-3528,640,152,4460,-6787,2025-02-17 10:56:43,0.0
-15880,-3072,1148,1507,2116,-2833,2025-02-17 10:56:43,0.0
-13872,-3696,-2036,1861,839,-1818,2025-02-17 10:56:43,
-13132,-2716,-6016,1140,41,-3023,2025-02-17 10:56:43,0.0
-13024,-928,-6764,757,-2167,-3925,2025-02-17 10:56:43,0.0
-12524,-140,-4788,1975,-7286,-4083,2025-02-17 10:56:43,0.0
-12384,-908,-3776,3481,-9503,-4670,2025-02-17 10:56:43,0.0
-12352,-1404,-2992,3923,-9397,-5993,2025-02-17 10:56:43,0.0
-12580,-1620,-2748,4007,-7819,-7250,2025-02-17 10:56:43,0.0
-11656,-1380,-2404,3845,-5774,-8242,2025-02-17 10:56:43,0.0
-11924,-1352,-2332,3682,-3537,-8939,2025-02-17 10:56:43,0.0
-10220,-1280,-1964,4366,-384,-10531,2025-02-17 10:56:43,0.0
-11688,-1456,-2848,5227,2832,-12611,2025-02-17 10:56:43,0.0
-11416,-1896,-2516,6603,5881,-14077,2025-02-17 10:56:43,0.0
-9596,-2332,-2404,8712,7883,-16337,2025-02-17 10:56:43,0.0
-8844,-3616,-3728,9470,8256,-18622,2025-02-17 10:56:43,0.0
-6332,-4148,-4612,8704,7456,-20288,2025-02-17 10:56:43,0.0
-4804,-3512,-2692,7856,5142,-21078,2025-02-17 10:56:43,0.0
-284,-3700,-440,7188,978,-20596,2025-02-17 10:56:43,0.0
2640,-4244,1064,6275,-3947,-20906,2025-02-17 10:56:43,0.0
2688,-2100,1460,4492,-8311,-20823,2025-02-17 10:56:43,0.0
2452,-1664,1444,2907,-10708,-21258,2025-02-17 10:56:43,0.0
1776,-1168,1680,2123,-11414,-21136,2025-02-17 10:56:43,0.0
2344,-1272,1884,1983,-11067,-20695,2025-02-17 10:56:43,0.0
2488,-1224,2028,1807,-10602,-20660,2025-02-17 10:56:43,0.0
2504,-1240,1756,1589,-9987,-20781,2025-02-17 10:56:43,0.0
2460,-1248,1812,1383,-9451,-20979,2025-02-17 10:56:43,0.0
2752,-1324,1664,1079,-9132,-21315,2025-02-17 10:56:43,0.0
2740,-1336,1672,696,-9050,-21588,2025-02-17 10:56:43,0.0
2748,-1272,1904,299,-9159,-21918,2025-02-17 10:56:43,0.0
2688,-1352,1968,-164,-9511,-22192,2025-02-17 10:56:43,0.0
2584,-1368,1824,-548,-9802,-22157,2025-02-17 10:56:43,0.0
2512,-1508,1916,-1021,-10013,-22029,2025-02-17 10:56:43,0.0
2528,-1572,1720,-1608,-10296,-21946,2025-02-17 10:56:43,0.0
2060,-1440,2296,-2072,-10327,-21744,2025-02-17 10:56:43,0.0
2624,-1156,1980,-2466,-10264,-21575,2025-02-17 10:56:43,0.0
3728,-640,2064,-2902,-10356,-22003,2025-02-17 10:56:43,0.0
4304,-660,1632,-3072,-10477,-23239,2025-02-17 10:56:43,0.0
3368,-1684,1552,-3481,-10540,-23596,2025-02-17 10:56:43,0.0
2540,-292,3676,-2898,-10636,-24081,2025-02-17 10:56:43,0.0
2380,-1820,1632,-3091,-10373,-23100,2025-02-17 10:56:43,0.0
-6440,-4116,6492,-2422,-8874,-20411,2025-02-17 10:56:43,0.0
32767,-32768,-7616,-12918,-32768,-30956,2025-02-17 10:56:43,0.0
32767,-32768,-32768,-32768,32767,-32768,2025-02-17 10:56:43,0.0
31416,-32768,30260,-32768,-3972,-32768,2025-02-17 10:56:43,0.0
12672,10356,8352,-32768,-32768,-32768,2025-02-17 10:56:43,0.0
356,12720,6728,-26552,-32768,-23712,2025-02-17 10:56:43,0.0
-4816,7788,4100,-18847,-32768,-8654,2025-02-17 10:56:43,0.0
-6540,4004,1520,-14733,-32768,782,2025-02-17 10:56:43,0.0
-8224,1800,-608,-10918,-32768,10437,2025-02-17 10:56:43,0.0
-8232,-120,-2084,-7473,-32768,17676,2025-02-17 10:56:43,0.0
-4476,-3244,-7828,-5524,-15460,21138,2025-02-17 10:56:44,0.0
-2236,-5596,-14548,-6370,1317,20716,2025-02-17 10:56:44,0.0
1260,-7636,-17804,-6922,13528,17410,2025-02-17 10:56:44,0.0
2156,-8784,-19180,-5628,20972,13130,2025-02-17 10:56:44,0.0
5988,-8232,-13268,-625,16041,8954,2025-02-17 10:56:44,0.0
7292,-9536,-13828,4637,6906,6853,2025-02-17 10:56:44,0.0
10176,-10996,-16424,3944,5605,4849,2025-02-17 10:56:44,0.0
11844,-11088,-13280,654,1488,2199,2025-02-17 10:56:44,0.0
8824,-10660,-11868,-1194,-2404,963,2025-02-17 10:56:44,0.0
5272,-10400,-13916,-2563,-3426,568,2025-02-17 10:56:44,0.0
4140,-6708,-13148,-2344,-1596,-113,2025-02-17 10:56:44,0.0
4080,-5388,-11968,-139,327,-433,2025-02-17 10:56:44,0.0
4860,-7024,-13572,407,957,25,2025-02-17 10:56:44,0.0
5868,-7584,-13192,358,627,-443,2025-02-17 10:56:44,0.0
5572,-7560,-13604,-365,208,-125,2025-02-17 10:56:44,0.0
5048,-7048,-13332,-285,-137,-181,2025-02-17 10:56:44,0.0
4956,-7180,-13272,-241,-34,42,2025-02-17 10:56:44,0.0
4568,-7228,-13856,-681,-565,1053,2025-02-17 10:56:44,0.0
4440,-6944,-13724,-1455,-1686,2466,2025-02-17 10:56:44,0.0
5024,-6696,-13576,-2175,-2519,4349,2025-02-17 10:56:44,0.0
6576,-6384,-12636,-1248,-2244,2469,2025-02-17 10:56:44,0.0
3424,-8304,-13964,639,1246,-644,2025-02-17 10:56:44,0.0
5028,-7280,-14016,-116,1633,-670,2025-02-17 10:56:44,0.0
5820,-6832,-12648,-276,653,-605,2025-02-17 10:56:44,0.0
5088,-7292,-13992,-180,-307,-48,2025-02-17 10:56:44,0.0
4524,-7140,-12940,-133,33,-23,2025-02-17 10:56:44,0.0
4524,-7028,-13388,-200,209,-264,2025-02-17 10:56:44,0.0
5128,-7084,-13356,-251,179,-177,2025-02-17 10:56:44,0.0
4936,-6884,-13372,-76,118,-117,2025-02-17 10:56:44,0.0
4952,-7232,-13452,-164,114,-133,2025-02-17 10:56:44,0.0
4588,-7060,-13704,-251,177,-187,2025-02-17 10:56:44,0.0
4948,-6864,-13232,-49,272,-180,2025-02-17 10:56:44,0.0
4944,-7232,-13644,-200,142,-191,2025-02-17 10:56:44,0.0
4720,-6968,-13352,-198,161,-162,2025-02-17 10:56:44,0.0
4852,-7016,-13504,-136,140,-161,2025-02-17 10:56:44,0.0
4784,-7096,-13392,-170,194,-174,2025-02-17 10:56:44,0.0
4768,-7160,-13552,-178,180,-172,2025-02-17 10:56:44,0.0
4864,-6956,-13552,-170,180,-190,2025-02-17 10:56:44,0.0
4804,-7084,-13324,-159,189,-177,2025-02-17 10:56:44,0.0
4792,-7048,-13364,-170,187,-204,2025-02-17 10:56:44,0.0
4956,-7108,-13576,-163,195,-166,2025-02-17 10:56:44,0.0
4836,-7092,-13472,-157,146,-170,2025-02-17 10:56:44,0.0
4852,-7104,-13400,-149,183,-169,2025-02-17 10:56:44,0.0
4876,-7072,-13348,-160,172,-186,2025-02-17 10:56:44,0.0
4760,-7072,-13564,-166,161,-168,2025-02-17 10:56:44,0.0
4872,-7048,-13440,-190,179,-184,2025-02-17 10:56:44,0.0
4848,-7060,-13496,-180,178,-180,2025-02-17 10:56:44,0.0
4860,-7096,-13556,-189,187,-201,2025-02-17 10:56:44,0.0
4808,-6964,-13452,-178,181,-174,2025-02-17 10:56:44,0.0
4800,-7052,-13328,-173,161,-182,2025-02-17 10:56:44,0.0
4764,-7076,-13628,-182,182,-168,2025-02-17 10:56:44,0.0
4884,-7028,-13504,-184,187,-182,2025-02-17 10:56:44,
4816,-7072,-13460,-176,163,-176,2025-02-17 10:56:44,0.0
4876,-7036,-13552,-145,191,-157,2025-02-17 10:56:44,0.0
4952,-7068,-13400,-163,175,-171,2025-02-17 10:56:44,0.0
4832,-7020,-13608,-164,187,-201,2025-02-17 10:56:44,0.0
4848,-7028,-13484,-132,172,-172,2025-02-17 10:56:44,0.0
4924,-7040,-13372,-151,181,-161,2025-02-17 10:56:44,0.0
4772,-7068,-13420,-159,175,-166,2025-02-17 10:56:44,0.0
4916,-7176,-13424,-158,169,-197,2025-02-17 10:56:44,0.0
4896,-6980,-13532,-177,185,-183,2025-02-17 10:56:45,0.0
4924,-7124,-13424,-147,196,-159,2025-02-17 10:56:45,0.0
4868,-7092,-13488,-161,197,-199,2025-02-17 10:56:45,0.0
4912,-7076,-13584,-160,185,-181,2025-02-17 10:56:45,0.0
4828,-7020,-13464,-184,188,-165,2025-02-17 10:56:45,0.0
4832,-7112,-13508,-147,160,-172,2025-02-17 10:56:45,0.0
4852,-7104,-13540,-140,170,-166,2025-02-17 10:56:45,0.0
4872,-7060,-13440,-166,216,-160,2025-02-17 10:56:45,0.0
4856,-6980,-13588,-176,166,-173,2025-02-17 10:56:45,0.0
4896,-7060,-13472,-168,183,-154,2025-02-17 10:56:45,0.0
4844,-7100,-13452,-117,163,-165,2025-02-17 10:56:45,0.0
4796,-7076,-13512,-187,173,-186,2025-02-17 10:56:45,0.0
4956,-7088,-13452,-177,179,-164,2025-02-17 10:56:45,0.0
4904,-7020,-13496,-175,190,-181,2025-02-17 10:56:45,0.0
4808,-7088,-13368,-158,191,-187,2025-02-17 10:56:45,0.0
4864,-7072,-13536,-202,162,-166,2025-02-17 10:56:45,0.0
4848,-7024,-13428,-170,190,-169,2025-02-17 10:56:45,0.0
4848,-7012,-13408,-183,210,-187,2025-02-17 10:56:45,0.0
4908,-7024,-13528,-178,175,-173,2025-02-17 10:56:45,0.0
4856,-7116,-13560,-182,201,-191,2025-02-17 10:56:45,0.0
4860,-7008,-13456,-162,173,-167,2025-02-17 10:56:45,0.0
4784,-7076,-13440,-155,185,-165,2025-02-17 10:56:45,0.0
4916,-7048,-13472,-179,191,-181,2025-02-17 10:56:45,0.0
4832,-7040,-13368,-172,194,-173,2025-02-17 10:56:45,0.0
4760,-7100,-13616,-160,165,-170,2025-02-17 10:56:45,0.0
4944,-7124,-13436,-148,150,-164,2025-02-17 10:56:45,0.0
4916,-7032,-13612,-173,204,-169,2025-02-17 10:56:45,0.0
4872,-7020,-13524,-155,164,-174,2025-02-17 10:56:45,0.0
4968,-7072,-13544,-146,151,-163,2025-02-17 10:56:45,0.0
4864,-7120,-13604,-135,181,-195,2025-02-17 10:56:45,0.0
4784,-7044,-13480,-160,164,-197,2025-02-17 10:56:45,0.0
4856,-7044,-13316,-166,192,-166,2025-02-17 10:56:45,0.0
4916,-7176,-13488,-160,173,-181,2025-02-17 10:56:45,0.0
4860,-6996,-13584,-155,163,-182,2025-02-17 10:56:45,0.0
4904,-7092,-13412,-157,187,-166,2025-02-17 10:56:45,0.0
4772,-7004,-13480,-177,184,-190,2025-02-17 10:56:45,0.0
4928,-6964,-13476,-167,192,-155,2025-02-17 10:56:45,0.0
4852,-7064,-13496,-163,219,-191,2025-02-17 10:56:45,0.0
4904,-7068,-13584,-154,179,-175,2025-02-17 10:56:45,0.0
4856,-7004,-13616,-197,171,-154,2025-02-17 10:56:45,0.0
4844,-7020,-13528,-125,179,-197,2025-02-17 10:56:45,0.0
4784,-7004,-13700,-155,158,-177,2025-02-17 10:56:45,0.0
4912,-7072,-13444,-160,216,-171,2025-02-17 10:56:45,0.0
4844,-7132,-13472,-178,202,-161,2025-02-17 10:56:45,0.0
4856,-7084,-13492,-162,167,-172,2025-02-17 10:56:45,0.0
4900,-7056,-13532,-197,184,-180,2025-02-17 10:56:45,0.0
4900,-7080,-13396,-158,217,-177,2025-02-17 10:56:45,0.0
4984,-7080,-13312,-162,179,-179,2025-02-17 10:56:45,0.0
4860,-7052,-13464,-152,194,-197,2025-02-17 10:56:45,0.0
4856,-7092,-13456,-159,192,-194,2025-02-17 10:56:45,0.0
4856,-7112,-13540,-171,174,-187,2025-02-17 10:56:45,0.0
4788,-7016,-13408,-173,178,-151,2025-02-17 10:56:45,0.0
4852,-6992,-13364,-172,169,-173,2025-02-17 10:56:45,0.0
4800,-7060,-13608,-138,192,-170,2025-02-17 10:56:45,0.0
4764,-7132,-13444,-162,208,-192,2025-02-17 10:56:45,0.0
4796,-6976,-13532,-164,167,-167,2025-02-17 10:56:45,0.0
4796,-7128,-13408,-142,177,-172,2025-02-17 10:56:45,0.0
4844,-7048,-13560,-159,195,-180,2025-02-17 10:56:45,0.0
4776,-7120,-13364,-177,175,-164,2025-02-17 10:56:45,0.0
4924,-7064,-13448,-159,180,-183,2025-02-17 10:56:45,0.0
4848,-7044,-13476,-157,149,-167,2025-02-17 10:56:46,0.0
4900,-7044,-13396,-208,171,-181,2025-02-17 10:56:46,0.0
4916,-7052,-13604,-147,182,-171,2025-02-17 10:56:46,0.0
4804,-6996,-13492,-192,171,-167,2025-02-17 10:56:46,0.0
4912,-7016,-13432,-153,179,-185,2025-02-17 10:56:46,0.0
4820,-7080,-13512,-141,176,-189,2025-02-17 10:56:46,0.0
4928,-7164,-13492,-173,183,-180,2025-02-17 10:56:46,0.0
4852,-7028,-13388,-173,160,-182,2025-02-17 10:56:46,0.0
4820,-7080,-13424,-225,179,-187,2025-02-17 10:56:46,0.0
4848,-7048,-13552,-165,199,-157,2025-02-17 10:56:46,0.0
4860,-7044,-13476,-179,171,-172,2025-02-17 10:56:46,0.0
4928,-6856,-13652,-197,202,-166,2025-02-17 10:56:46,0.0
4664,-6988,-13588,-319,187,-119,2025-02-17 10:56:46,0.0
4168,-6452,-13604,-609,0,229,2025-02-17 10:56:46,0.0
5260,-6736,-13596,-1018,-746,666,2025-02-17 10:56:46,0.0
4872,-7504,-13300,-677,-57,-143,2025-02-17 10:56:46,0.0
4608,-6728,-14012,-50,663,-361,2025-02-17 10:56:46,0.0
4956,-6912,-12944,68,450,-322,2025-02-17 10:56:46,0.0
5328,-7220,-13692,-61,40,-58,2025-02-17 10:56:46,0.0
4712,-6552,-13588,-55,-26,-70,2025-02-17 10:56:46,0.0
4672,-7204,-13512,-53,181,-19,2025-02-17 10:56:46,0.0
4924,-6916,-13140,116,69,-201,2025-02-17 10:56:46,0.0
4828,-7464,-13820,-229,-46,-113,2025-02-17 10:56:46,0.0
4828,-7168,-13268,-368,-82,-313,2025-02-17 10:56:46,0.0
4488,-6608,-13424,334,282,-238,2025-02-17 10:56:46,0.0
4792,-6336,-13040,1408,311,331,2025-02-17 10:56:46,0.0
4656,-6876,-13780,1658,173,904,2025-02-17 10:56:46,0.0
5356,-7468,-13504,1134,-454,729,2025-02-17 10:56:46,0.0
4184,-7920,-13700,584,50,90,2025-02-17 10:56:46,0.0
4524,-7496,-12944,385,927,-615,2025-02-17 10:56:46,0.0
4524,-7004,-13352,1377,1706,-1189,2025-02-17 10:56:46,0.0
3764,-6392,-13064,2497,1952,-654,2025-02-17 10:56:46,
6960,-6812,-13264,4598,994,-44,2025-02-17 10:56:46,0.0
5300,-7136,-13664,4722,-249,-824,2025-02-17 10:56:46,0.0
4244,-7576,-12864,5115,-511,-2274,2025-02-17 10:56:46,0.0
4852,-7524,-12904,5784,461,-3866,2025-02-17 10:56:46,0.0
5004,-8384,-13680,6629,451,-6439,2025-02-17 10:56:46,0.0
4256,-9776,-13328,5878,-643,-6791,2025-02-17 10:56:46,0.0
4664,-9956,-12660,5970,-144,-5392,2025-02-17 10:56:46,0.0
5764,-9936,-10840,5721,-194,-3729,2025-02-17 10:56:46,0.0
6868,-9448,-11132,7962,-870,-1919,2025-02-17 10:56:46,0.0
4172,-9232,-11408,10872,-2805,-405,2025-02-17 10:56:46,0.0
3984,-8076,-13428,11926,-2736,2109,2025-02-17 10:56:46,0.0
5580,-7364,-12820,12251,39,3636,2025-02-17 10:56:46,0.0
5296,-7432,-11080,14941,1850,3339,2025-02-17 10:56:46,0.0
5308,-8424,-12112,17417,1982,2560,2025-02-17 10:56:46,0.0
4688,-10360,-11924,19083,514,2616,2025-02-17 10:56:46,0.0
5088,-12396,-10512,20866,-1178,3548,2025-02-17 10:56:46,0.0
5804,-14116,-9364,23192,-3137,3046,2025-02-17 10:56:46,0.0
5320,-15416,-9368,24753,-5535,1496,2025-02-17 10:56:46,0.0
4136,-16248,-7116,26971,-8482,-982,2025-02-17 10:56:46,0.0
2864,-16392,-6664,29350,-9794,-1236,2025-02-17 10:56:46,0.0
3496,-16564,-5536,30936,-10261,-1644,2025-02-17 10:56:46,0.0
4824,-17608,-5388,31253,-10936,-4017,2025-02-17 10:56:46,0.0
2380,-20120,-5632,29587,-11709,-5420,2025-02-17 10:56:46,0.0
348,-21156,-3956,27265,-12369,-3201,2025-02-17 10:56:46,0.0
-508,-21728,-1444,26155,-13408,1154,2025-02-17 10:56:46,0.0
44,-22336,900,27037,-13590,5597,2025-02-17 10:56:46,0.0
844,-23172,-256,27241,-11992,7802,2025-02-17 10:56:46,0.0
1864,-23636,-1612,24310,-8752,7769,2025-02-17 10:56:46,0.0
2528,-24188,-676,21708,-5130,6178,2025-02-17 10:56:47,0.0
2064,-24640,4,19944,-931,4419,2025-02-17 10:56:47,0.0
1888,-24776,-784,18246,3383,3464,2025-02-17 10:56:47,0.0
1660,-24556,-988,15934,7707,3263,2025-02-17 10:56:47,0.0
2340,-24472,-1364,12516,11474,2969,2025-02-17 10:56:47,0.0
2424,-24376,-1548,8618,14422,2056,2025-02-17 10:56:47,0.0
2116,-24084,-1940,4894,17352,1207,2025-02-17 10:56:47,0.0
2268,-23688,-1672,1543,19307,393,2025-02-17 10:56:47,0.0
1168,-23484,-1316,-1420,21020,7,2025-02-17 10:56:47,0.0
1760,-24104,-164,-2928,21177,-80,2025-02-17 10:56:47,0.0
3564,-24656,400,-4050,18568,-1807,2025-02-17 10:56:47,0.0
7136,-24200,-564,-6232,16556,-3453,2025-02-17 10:56:47,0.0
5052,-24008,-684,-7427,13369,-5765,2025-02-17 10:56:47,0.0
1272,-22240,1424,-9017,8006,-5286,2025-02-17 10:56:47,0.0
6148,-22636,-3352,-11849,6101,-2307,2025-02-17 10:56:47,0.0
8852,-19112,644,-11381,-4279,-4828,2025-02-17 10:56:47,0.0
9452,-19960,140,-11008,-14160,-7849,2025-02-17 10:56:47,0.0
7156,-20932,1604,-10522,-22267,-8905,2025-02-17 10:56:47,0.0
5164,-21028,940,-10363,-27774,-7943,2025-02-17 10:56:47,0.0
3832,-18056,2348,-9060,-32052,-5993,2025-02-17 10:56:47,0.0
6132,-16728,2616,-7225,-32768,-6926,2025-02-17 10:56:47,0.0
2840,-16704,3088,-4928,-32768,-7109,2025-02-17 10:56:47,0.0
1280,-17116,2240,-3897,-32768,-5191,2025-02-17 10:56:47,0.0
1972,-15836,2128,-3264,-32768,-4860,2025-02-17 10:56:47,0.0
1996,-14180,2312,-2475,-32768,-5855,2025-02-17 10:56:47,0.0
564,-14392,2620,-438,-29535,-4815,2025-02-17 10:56:47,0.0
332,-13176,2616,1890,-25335,-2807,2025-02-17 10:56:47,0.0
928,-11876,1956,3650,-20525,-2016,2025-02-17 10:56:47,0.0
588,-11668,1560,4772,-14384,-1385,2025-02-17 10:56:47,0.0
20,-11972,1108,5581,-7806,-191,2025-02-17 10:56:47,0.0
-72,-12456,708,5868,228,1856,2025-02-17 10:56:47,0.0
660,-12060,424,5812,9986,3306,2025-02-17 10:56:47,0.0
712,-10904,1032,5866,18619,3706,2025-02-17 10:56:47,0.0
-168,-10108,976,5830,26438,4997,2025-02-17 10:56:47,0.0
-536,-10480,1124,5437,32767,7795,2025-02-17 10:56:47,0.0
-28,-11024,1244,5110,32767,10877,2025-02-17 10:56:47,0.0
1380,-11676,1248,4225,32767,12896,2025-02-17 10:56:47,0.0
8060,-13792,-2364,1907,32767,10814,2025-02-17 10:56:47,0.0
15312,-14360,892,593,32767,4342,2025-02-17 10:56:47,0.0
7244,-12944,3404,2000,32767,-1853,2025-02-17 10:56:47,0.0
304,-10872,3360,2290,32767,3100,2025-02-17 10:56:47,0.0
5032,-10464,10656,4158,32767,4925,2025-02-17 10:56:47,0.0
1964,-10488,10420,10326,20942,3636,2025-02-17 10:56:47,0.0
-5356,-12416,-3436,4273,10744,10182,2025-02-17 10:56:47,0.0
-2112,-13540,-488,2863,206,14186,2025-02-17 10:56:47,0.0
-2224,-15476,-5940,1638,-7745,14739,2025-02-17 10:56:47,0.0
-4240,-15108,-3588,-1134,-6642,15738,2025-02-17 10:56:47,0.0
-4540,-12676,1140,2612,1232,19360,2025-02-17 10:56:47,0.0
-1420,-11316,-828,3208,5449,20258,2025-02-17 10:56:47,0.0
-2432,-11164,1788,3757,3961,23015,2025-02-17 10:56:47,0.0
-2828,-11916,2164,4933,1313,25583,2025-02-17 10:56:47,0.0
-3052,-12360,2620,5432,-356,27492,2025-02-17 10:56:47,0.0
-3700,-12056,1308,5671,1704,27852,2025-02-17 10:56:47,0.0
-4180,-11484,3108,6936,5792,27407,2025-02-17 10:56:47,0.0
-4852,-10580,3304,8401,8543,26530,2025-02-17 10:56:47,0.0
-5788,-9828,2404,8385,10166,26347,2025-02-17 10:56:47,0.0
-6444,-9384,2248,8193,9798,26849,2025-02-17 10:56:47,0.0
-6608,-8988,2160,8370,6812,27404,2025-02-17 10:56:47,0.0
-7660,-8848,1672,8833,2558,27657,2025-02-17 10:56:47,0.0
-7716,-8620,1800,9301,-2656,27141,2025-02-17 10:56:47,0.0
-7692,-8096,2288,9451,-7019,25933,2025-02-17 10:56:48,0.0
-8024,-7256,3896,10454,-10038,24481,2025-02-17 10:56:48,0.0
-7480,-6628,4372,11848,-11487,22909,2025-02-17 10:56:48,0.0
-8640,-5924,3920,12463,-11161,21812,2025-02-17 10:56:48,0.0
-9300,-6172,4492,12963,-9061,20863,2025-02-17 10:56:48,0.0
-9968,-5592,3808,13546,-4653,18880,2025-02-17 10:56:48,0.0
-10248,-4196,3688,13041,-1853,16892,2025-02-17 10:56:48,0.0
-11040,-3108,4528,12197,-704,15738,2025-02-17 10:56:48,0.0
-11128,-2524,5808,11677,-455,14612,2025-02-17 10:56:48,0.0
-11072,-2072,6772,10800,-874,13200,2025-02-17 10:56:48,0.0
-11884,-1432,6992,9782,-674,12155,2025-02-17 10:56:48,0.0
-11980,-1068,7152,9008,-7,10120,2025-02-17 10:56:48,
-12928,-1084,6092,7016,2669,7801,2025-02-17 10:56:48,0.0
-13836,-1220,7000,5143,6186,5934,2025-02-17 10:56:48,0.0
-15196,-168,7432,4529,9403,5102,2025-02-17 10:56:48,0.0
-13804,640,7676,3941,8917,4410,2025-02-17 10:56:48,0.0
-14128,988,7704,3664,5145,3715,2025-02-17 10:56:48,0.0
-16368,1520,8576,4975,4776,3679,2025-02-17 10:56:48,0.0
-14652,2396,9556,5201,14717,2151,2025-02-17 10:56:48,0.0
-13744,1800,7396,4336,18934,946,2025-02-17 10:56:48,0.0
-15624,540,3616,3810,16551,1079,2025-02-17 10:56:48,0.0
-16996,516,2168,5184,12542,1250,2025-02-17 10:56:48,0.0
-15516,120,1844,5437,8412,1446,2025-02-17 10:56:48,0.0
-14612,68,2864,4251,4623,1480,2025-02-17 10:56:48,0.0
-12792,-652,3848,3427,4000,1399,2025-02-17 10:56:48,0.0
-13024,-596,3356,4253,6042,1318,2025-02-17 10:56:48,0.0
-12660,80,2188,5775,9025,2060,2025-02-17 10:56:48,0.0
-12448,464,268,4372,7698,1644,2025-02-17 10:56:48,0.0
-12660,1332,192,3157,4965,375,2025-02-17 10:56:48,0.0
-13084,1580,-1740,1390,834,-1476,2025-02-17 10:56:48,0.0
-14912,1452,-1152,-2118,300,-1555,2025-02-17 10:56:48,0.0
-13088,-228,1972,-1593,2249,-2382,2025-02-17 10:56:48,0.0
-13260,-488,1176,-224,1995,-3349,2025-02-17 10:56:48,0.0
-13724,-360,536,973,157,-3530,2025-02-17 10:56:48,0.0
-14268,-192,108,1290,-1230,-2583,2025-02-17 10:56:48,0.0
-13868,-284,-184,857,-278,-2048,2025-02-17 10:56:48,0.0
-12416,-412,1236,1197,991,-3015,2025-02-17 10:56:48,0.0
-11368,-800,-4,1354,-127,-4387,2025-02-17 10:56:48,0.0
-13852,-896,28,1372,176,-3542,2025-02-17 10:56:48,0.0
-13648,-576,-980,2042,5263,-1958,2025-02-17 10:56:48,0.0
-14452,300,-5328,-1139,7325,-1181,2025-02-17 10:56:48,0.0
-15084,432,-4556,-5874,8223,287,2025-02-17 10:56:48,0.0
-12260,308,-1276,-5225,12958,-3252,2025-02-17 10:56:48,0.0
-13428,-272,-4336,-5791,14972,-4877,2025-02-17 10:56:48,0.0
-13936,-2136,-3052,-6485,13074,-2841,2025-02-17 10:56:48,0.0
-13676,-2596,-996,-5292,9003,-56,2025-02-17 10:56:48,0.0
-12472,-2020,-616,-3921,5533,2098,2025-02-17 10:56:48,0.0
-11752,-332,-2308,-2789,3920,2807,2025-02-17 10:56:48,0.0
-10184,232,-3092,-3633,4455,2592,2025-02-17 10:56:48,0.0
-10776,148,-2588,-2398,7381,757,2025-02-17 10:56:48,0.0
-11628,-280,-2304,-712,8812,-652,2025-02-17 10:56:48,0.0
-13800,-644,-2648,729,6613,-284,2025-02-17 10:56:48,0.0
-13628,-936,-3032,1018,1989,1278,2025-02-17 10:56:48,0.0
-11612,-312,-4420,-192,-2606,1184,2025-02-17 10:56:48,0.0
-10424,24,-3716,-3462,-5343,275,2025-02-17 10:56:48,0.0
-9368,-344,-3120,-7130,-5557,387,2025-02-17 10:56:48,0.0
-10328,-1368,-500,-5633,-5925,1696,2025-02-17 10:56:48,0.0
-9316,-1860,84,-2066,-5506,2921,2025-02-17 10:56:48,0.0
-9892,-1792,1608,2103,-4139,2646,2025-02-17 10:56:48,0.0
-9540,-892,1100,4881,-1685,1092,2025-02-17 10:56:48,0.0
-9812,-276,-1564,3536,1977,-944,2025-02-17 10:56:48,0.0
-9832,76,-2004,1246,3470,-2136,2025-02-17 10:56:48,0.0
-12692,216,164,1412,4033,-1463,2025-02-17 10:56:48,0.0
-13664,404,-572,2844,3753,-262,2025-02-17 10:56:48,0.0
-12752,144,-644,3678,3245,278,2025-02-17 10:56:48,0.0
-13952,-484,-2528,3240,2710,234,2025-02-17 10:56:49,0.0
-13788,-824,-2820,1990,1750,802,2025-02-17 10:56:49,0.0
-12732,-240,-2244,828,-1140,257,2025-02-17 10:56:49,0.0
-13124,648,-1760,466,-4347,565,2025-02-17 10:56:49,0.0
-12108,1412,-1140,233,-6215,787,2025-02-17 10:56:49,0.0
-12704,1752,-2348,22,-5355,1476,2025-02-17 10:56:49,0.0
-12868,1488,-1616,-564,-2989,1828,2025-02-17 10:56:49,0.0
-14220,456,-360,-516,-1435,2851,2025-02-17 10:56:49,0.0
-12972,-92,-432,-482,-3484,2710,2025-02-17 10:56:49,0.0
-13888,40,-988,-944,-5786,2350,2025-02-17 10:56:49,0.0
-12760,840,-964,-1623,-7334,1698,2025-02-17 10:56:49,0.0
-23696,940,4596,-2071,-7915,1068,2025-02-17 10:56:49,0.0
-14748,1556,316,-1890,-7058,792,2025-02-17 10:56:49,0.0
-15508,1548,480,-821,-7100,1160,2025-02-17 10:56:49,0.0
-14616,768,112,-205,-6522,1869,2025-02-17 10:56:49,0.0
-14096,756,332,-12,-6424,2075,2025-02-17 10:56:49,0.0
-13580,880,-148,-387,-6231,1781,2025-02-17 10:56:49,0.0
-12604,1084,-496,-815,-5965,1095,2025-02-17 10:56:49,0.0
-12452,512,376,-575,-4989,198,2025-02-17 10:56:49,0.0
-14544,-156,648,190,-4474,-232,2025-02-17 10:56:49,0.0
-15796,-848,-156,772,-3935,797,2025-02-17 10:56:49,0.0
-13060,-408,-1040,972,-3474,1461,2025-02-17 10:56:49,0.0
-17408,1200,2184,247,-2306,1300,2025-02-17 10:56:49,0.0
-14520,568,616,-177,-3457,392,2025-02-17 10:56:49,0.0
-15268,1500,1500,-284,-4646,-264,2025-02-17 10:56:49,0.0
-12872,1304,4604,39,-6179,-1537,2025-02-17 10:56:49,0.0
-16780,1140,1064,-1098,-6356,-579,2025-02-17 10:56:49,0.0
-16360,836,2928,-1531,-7462,48,2025-02-17 10:56:49,0.0
-15140,948,2712,-1876,-9474,290,2025-02-17 10:56:49,0.0
-16524,772,4320,-1795,-10516,854,2025-02-17 10:56:49,0.0
-15344,1172,4080,-1857,-10884,1537,2025-02-17 10:56:49,0.0
-16016,448,6236,-2039,-10151,2279,2025-02-17 10:56:49,0.0
-15496,984,8048,-1463,-8327,2638,2025-02-17 10:56:49,0.0
-18736,3412,8684,-1554,-7313,1784,2025-02-17 10:56:49,0.0
-22004,3908,14628,-1292,-8967,159,2025-02-17 10:56:49,0.0
-19556,5728,14628,-1557,-9867,-1683,2025-02-17 10:56:49,0.0
-20192,3492,13272,-1339,-4676,-1887,2025-02-17 10:56:49,0.0
-15492,4260,9656,-961,1607,-1964,2025-02-17 10:56:49,0.0
-13872,1488,4784,-46,5657,-1298,2025-02-17 10:56:49,0.0
-14656,-168,2944,155,4546,-536,2025-02-17 10:56:49,0.0
-13440,-1184,2836,-384,-2227,203,2025-02-17 10:56:49,0.0
-12620,-988,5648,-792,-3339,508,2025-02-17 10:56:49,0.0
-12848,-1068,6168,-938,-1649,257,2025-02-17 10:56:49,0.0
-13852,-824,5888,-990,-1310,110,2025-02-17 10:56:49,0.0
-14284,-660,4868,-965,-3023,308,2025-02-17 10:56:49,0.0
-14472,-608,4728,-860,-5117,916,2025-02-17 10:56:49,0.0
-12272,440,5476,-426,-6930,1150,2025-02-17 10:56:49,
-11524,1056,5372,-802,-6637,673,2025-02-17 10:56:49,0.0
-11884,1332,6828,-779,-6191,389,2025-02-17 10:56:49,0.0
-13288,1128,8376,-340,-6274,707,2025-02-17 10:56:49,0.0
-12732,1708,8752,139,-7074,617,2025-02-17 10:56:49,0.0
-11192,2064,8400,262,-8055,33,2025-02-17 10:56:49,0.0
-10308,2364,9188,-169,-7138,-830,2025-02-17 10:56:49,0.0
-10700,1180,8836,-387,-4732,-1496,2025-02-17 10:56:49,0.0
-13444,752,10228,-634,-2931,-1801,2025-02-17 10:56:49,0.0
-14420,-56,9984,-88,-2289,-886,2025-02-17 10:56:49,0.0
-13668,-116,9160,-65,-1715,-265,2025-02-17 10:56:49,0.0
-12868,604,8260,408,-2064,-223,2025-02-17 10:56:49,0.0
-11764,564,7984,469,-2277,-454,2025-02-17 10:56:49,0.0
-12428,1152,8376,516,-2213,-627,2025-02-17 10:56:49,0.0
-12076,1332,8336,482,-1804,-748,2025-02-17 10:56:50,0.0
-12000,1188,7972,333,-2283,-901,2025-02-17 10:56:50,0.0
-11976,1368,7388,465,-2529,-797,2025-02-17 10:56:50,0.0
-12752,1384,8820,661,-3068,-788,2025-02-17 10:56:50,0.0
-11528,1376,8552,571,-3022,-1011,2025-02-17 10:56:50,0.0
-11936,1436,9496,487,-2560,-948,2025-02-17 10:56:50,0.0
-12460,1492,9536,369,-1837,-483,2025-02-17 10:56:50,0.0
-12216,1288,9288,163,-1635,-343,2025-02-17 10:56:50,0.0
-11968,1244,9476,-494,-2191,-664,2025-02-17 10:56:50,0.0
-12068,1180,10648,-898,-3064,-1151,2025-02-17 10:56:50,0.0
-11308,1116,10408,-877,-3376,-990,2025-02-17 10:56:50,0.0
-10732,300,10376,-1044,-2738,-766,2025-02-17 10:56:50,0.0
-10552,396,10796,-339,-770,-190,2025-02-17 10:56:50,0.0
-10380,560,10160,-272,1320,-332,2025-02-17 10:56:50,0.0
-11936,-412,9032,-382,1783,-500,2025-02-17 10:56:50,0.0
-12540,140,9992,-453,689,-576,2025-02-17 10:56:50,0.0
-11748,372,9552,-509,-1148,-908,2025-02-17 10:56:50,0.0
-10992,620,10240,-174,-1478,-1414,2025-02-17 10:56:50,0.0
-11008,720,10420,687,-1492,-1488,2025-02-17 10:56:50,0.0
-11736,868,9680,1029,-1299,-1247,2025-02-17 10:56:50,0.0
-13104,1452,9344,999,-765,-486,2025-02-17 10:56:50,0.0
-12648,1764,9516,773,-1224,-199,2025-02-17 10:56:50,0.0
-11892,1544,9172,488,-2212,-755,2025-02-17 10:56:50,0.0
-12068,1364,9640,290,-2096,-1096,2025-02-17 10:56:50,0.0
-10896,1056,9220,-136,-1083,-1169,2025-02-17 10:56:50,0.0
-11640,836,9360,-363,-172,-1231,2025-02-17 10:56:50,0.0
-12072,640,9384,-238,349,-816,2025-02-17 10:56:50,0.0
-12528,564,9052,-186,451,-314,2025-02-17 10:56:50,0.0
-11936,492,8656,-327,424,26,2025-02-17 10:56:50,0.0
-12192,272,9344,-365,308,-97,2025-02-17 10:56:50,0.0
-12056,420,9208,-110,123,-33,2025-02-17 10:56:50,0.0
-11964,676,9084,-406,446,-173,2025-02-17 10:56:50,0.0
-12712,568,9524,-583,254,170,2025-02-17 10:56:50,0.0
-12756,504,10488,-43,-74,1024,2025-02-17 10:56:50,0.0
-10952,496,9504,50,-518,809,2025-02-17 10:56:50,0.0
-10664,620,9236,-192,-676,0,2025-02-17 10:56:50,0.0
-10424,412,9564,-679,-80,-402,2025-02-17 10:56:50,0.0
-11184,252,10308,-587,280,-745,2025-02-17 10:56:50,0.0
-12124,248,10520,-473,660,-459,2025-02-17 10:56:50,0.0
-12308,252,9804,-479,614,16,2025-02-17 10:56:50,0.0
-12124,600,9596,-1013,-244,29,2025-02-17 10:56:50,0.0
-11616,552,10032,-744,-95,134,2025-02-17 10:56:50,0.0
-11128,292,10776,-646,-188,-182,2025-02-17 10:56:50,0.0
-10916,244,10868,-374,203,-486,2025-02-17 10:56:50,0.0
-11328,280,10472,-129,779,-823,2025-02-17 10:56:50,0.0
-12128,412,10644,315,1100,-535,2025-02-17 10:56:50,0.0
-12660,372,9376,365,1348,-476,2025-02-17 10:56:50,0.0
-12712,144,9048,210,879,72,2025-02-17 10:56:50,0.0
-12016,508,9296,144,-16,35,2025-02-17 10:56:50,0.0
-11968,568,9520,141,-81,47,2025-02-17 10:56:50,0.0
-11432,636,9824,174,251,92,2025-02-17 10:56:50,0.0
-11392,964,9552,20,392,-111,2025-02-17 10:56:50,0.0
-11660,808,9448,-125,330,-313,2025-02-17 10:56:50,0.0
-12112,576,9468,-55,218,-182,2025-02-17 10:56:50,0.0
-12092,632,10228,24,194,-8,2025-02-17 10:56:50,0.0
-11232,800,9508,-119,192,-287,2025-02-17 10:56:50,0.0
-11516,712,10172,-244,127,-547,2025-02-17 10:56:50,0.0
-12160,588,10012,-235,530,-435,2025-02-17 10:56:50,0.0
-11888,788,9620,-291,323,-337,2025-02-17 10:56:50,0.0
-12412,536,8936,-720,-92,-93,2025-02-17 10:56:50,0.0
-11988,624,9284,-755,-454,-136,2025-02-17 10:56:50,0.0
-11168,924,9380,-1030,-299,-431,2025-02-17 10:56:50,0.0
-11668,640,10132,-1079,-203,-486,2025-02-17 10:56:51,0.0
-12088,352,10456,-709,219,-284,2025-02-17 10:56:51,0.0
-11712,180,9932,-454,317,-219,2025-02-17 10:56:51,0.0
-11764,400,9672,-596,131,-207,2025-02-17 10:56:51,0.0
-11340,324,9960,-719,121,-434,2025-02-17 10:56:51,0.0
-11812,328,10160,-558,387,-424,2025-02-17 10:56:51,0.0
-11788,392,9832,-479,355,-307,2025-02-17 10:56:51,0.0
-11872,368,9836,-520,312,-294,2025-02-17 10:56:51,0.0
-11932,292,9840,-425,252,-310,2025-02-17 10:56:51,0.0
-11912,396,9856,-305,99,-102,2025-02-17 10:56:51,0.0
-11724,284,10040,-334,178,-122,2025-02-17 10:56:51,0.0
-11736,304,9840,-299,282,-270,2025-02-17 10:56:51,0.0
-11924,316,9920,-208,368,-205,2025-02-17 10:56:51,0.0
-12036,440,10012,-139,309,-200,2025-02-17 10:56:51,0.0
-11916,548,9832,-158,331,-162,2025-02-17 10:56:51,0.0
-11824,500,9788,-194,253,-207,2025-02-17 10:56:51,0.0
-11800,476,9584,-211,115,-195,2025-02-17 10:56:51,0.0
-11816,372,9916,-221,78,-207,2025-02-17 10:56:51,0.0
-11800,232,9900,-233,114,-173,2025-02-17 10:56:51,0.0
-11724,272,9712,-183,117,-153,2025-02-17 10:56:51,0.0
-11472,468,9596,-208,106,-208,2025-02-17 10:56:51,0.0
-11772,552,9720,-247,176,-369,2025-02-17 10:56:51,0.0
-11844,544,9808,-243,204,-349,2025-02-17 10:56:51,0.0
-12024,380,9784,-184,139,-302,2025-02-17 10:56:51,0.0
-11660,408,9596,-206,16,-372,2025-02-17 10:56:51,
-11600,588,9924,-170,16,-398,2025-02-17 10:56:51,0.0
-11608,-116,10288,166,469,263,2025-02-17 10:56:51,0.0
-11408,372,9748,188,81,-70,2025-02-17 10:56:51,0.0
-11820,292,9816,260,173,-34,2025-02-17 10:56:51,0.0
-11676,140,9664,164,187,-5,2025-02-17 10:56:51,0.0
-11608,252,9412,-50,-276,-44,2025-02-17 10:56:51,0.0
-11712,272,9772,-323,-263,-114,2025-02-17 10:56:51,0.0
-11828,128,9804,-630,-2,-193,2025-02-17 10:56:51,0.0
-11872,-52,9612,-800,110,-436,2025-02-17 10:56:51,0.0
-12316,-280,9548,-780,20,-451,2025-02-17 10:56:51,0.0
-12292,-152,9444,-635,-116,-157,2025-02-17 10:56:51,0.0
-11756,228,9264,-663,-460,103,2025-02-17 10:56:51,0.0
-11532,328,9864,-635,-470,243,2025-02-17 10:56:51,0.0
-10840,220,8752,-622,241,288,2025-02-17 10:56:51,0.0
-11548,488,9228,-442,445,456,2025-02-17 10:56:51,0.0
-11496,612,8988,-293,382,626,2025-02-17 10:56:51,0.0
-11880,948,9504,-16,562,741,2025-02-17 10:56:51,0.0
-11976,892,9020,481,395,1099,2025-02-17 10:56:51,0.0
-11628,632,8952,424,-117,1001,2025-02-17 10:56:51,0.0
-11460,60,9420,314,-110,947,2025-02-17 10:56:51,0.0
-11624,228,10020,47,735,868,2025-02-17 10:56:51,0.0
-11648,528,10956,119,1652,951,2025-02-17 10:56:51,0.0
-11640,788,11376,324,1967,874,2025-02-17 10:56:51,0.0
-11556,716,11376,530,2187,630,2025-02-17 10:56:51,0.0
-10692,268,11268,504,2564,420,2025-02-17 10:56:51,0.0
-10452,944,11592,254,3039,281,2025-02-17 10:56:51,0.0
-9736,844,10580,93,3697,146,2025-02-17 10:56:51,0.0
-11720,716,11704,264,4894,296,2025-02-17 10:56:51,0.0
-11248,1248,10964,339,5687,317,2025-02-17 10:56:51,0.0
-11608,1304,9760,137,5233,-40,2025-02-17 10:56:51,0.0
-11660,1304,9040,-200,4193,-350,2025-02-17 10:56:51,0.0
-11120,1444,9128,-626,3712,-795,2025-02-17 10:56:51,0.0
-10876,1616,8980,-749,3414,-1286,2025-02-17 10:56:51,0.0
-11012,1460,9032,-695,3702,-1629,2025-02-17 10:56:51,0.0
-12064,1848,8972,-15,4085,-1543,2025-02-17 10:56:51,0.0
-13368,2116,7260,81,3931,-1553,2025-02-17 10:56:51,0.0
-14220,1832,7232,-452,2446,-1502,2025-02-17 10:56:52,0.0
-14564,1008,7336,-950,550,-953,2025-02-17 10:56:52,0.0
-13272,268,7556,-1429,157,-516,2025-02-17 10:56:52,0.0
-12480,-556,7596,-1741,1372,-70,2025-02-17 10:56:52,0.0
-12168,-972,7888,-1815,2583,359,2025-02-17 10:56:52,0.0
-13180,-1320,8336,-1832,3364,807,2025-02-17 10:56:52,0.0
-13848,-1064,11100,-1576,3554,1131,2025-02-17 10:56:52,0.0
-13312,-1216,9964,-1542,4646,1968,2025-02-17 10:56:52,0.0
-14144,244,13440,-1072,5658,1879,2025-02-17 10:56:52,0.0
-11500,224,10364,-2608,8799,1857,2025-02-17 10:56:52,0.0
-16208,2964,10260,-3844,11962,440,2025-02-17 10:56:52,0.0
-19668,3492,12092,-4805,15535,697,2025-02-17 10:56:52,0.0
-22772,2028,8444,-6017,14527,3318,2025-02-17 10:56:52,0.0
-17512,184,9228,-6544,10769,4084,2025-02-17 10:56:52,0.0
-17312,-2808,8908,-6099,11563,6319,2025-02-17 10:56:52,0.0
-13208,-1048,7936,-4532,13229,5047,2025-02-17 10:56:52,0.0
-15012,1652,7608,-3942,12441,3734,2025-02-17 10:56:52,0.0
-14516,1720,7044,-3532,10950,3207,2025-02-17 10:56:52,0.0
-15812,1452,6164,-2761,9658,2413,2025-02-17 10:56:52,0.0
-15452,820,5208,-2150,6774,1177,2025-02-17 10:56:52,0.0
-13868,1356,4120,-1297,4867,-97,2025-02-17 10:56:52,0.0
-14160,1700,4100,-619,4761,-679,2025-02-17 10:56:52,0.0
-14516,1316,3592,146,5455,-489,2025-02-17 10:56:52,0.0
-15320,1308,2668,807,6842,-355,2025-02-17 10:56:52,0.0
-15220,1300,1616,1086,6927,-608,2025-02-17 10:56:52,0.0
-14480,1740,312,1333,6691,-772,2025-02-17 10:56:52,0.0
-14832,1928,724,1799,6540,-742,2025-02-17 10:56:52,0.0
-15192,2144,144,2154,6892,-530,2025-02-17 10:56:52,0.0
-15116,2712,-436,1490,7123,-536,2025-02-17 10:56:52,0.0
-15632,2688,136,963,6938,-457,2025-02-17 10:56:52,0.0
-15308,2556,48,807,6379,-697,2025-02-17 10:56:52,0.0
-15804,2076,208,1037,4807,-774,2025-02-17 10:56:52,0.0
-14888,1688,-280,875,3554,-1117,2025-02-17 10:56:52,0.0
-14592,1696,-240,836,2852,-1574,2025-02-17 10:56:52,0.0
-14856,828,860,1474,2689,-2037,2025-02-17 10:56:52,0.0
-14360,520,-296,1696,3598,-2646,2025-02-17 10:56:52,0.0
-13888,1156,236,1487,5955,-3690,2025-02-17 10:56:52,0.0
-13360,1880,-688,1396,5219,-4378,2025-02-17 10:56:52,0.0
-14512,1816,-1788,846,4642,-4227,2025-02-17 10:56:52,0.0
-13480,1284,-1544,242,3826,-4737,2025-02-17 10:56:52,0.0
-12760,680,-1028,858,2317,-4672,2025-02-17 10:56:52,0.0
-13052,536,-392,2020,1551,-5022,2025-02-17 10:56:52,0.0
-12596,-56,-988,1971,419,-5485,2025-02-17 10:56:52,0.0
-13408,-312,-1224,807,-639,-5728,2025-02-17 10:56:52,0.0
-13556,-556,-688,141,-1035,-5364,2025-02-17 10:56:52,0.0
-13948,-1292,-540,86,-1888,-3616,2025-02-17 10:56:52,0.0
-13068,-1780,64,510,-2369,-1839,2025-02-17 10:56:52,0.0
-12116,-1532,592,1558,-2118,-74,2025-02-17 10:56:52,0.0
-9876,-1316,-560,1540,-1622,850,2025-02-17 10:56:52,0.0
-8700,-820,96,967,-506,-318,2025-02-17 10:56:52,0.0
-8972,-688,-980,741,1050,-2097,2025-02-17 10:56:52,0.0
-9328,-436,-560,1192,3010,-3822,2025-02-17 10:56:52,0.0
-11960,-2044,-3568,1766,4237,-1459,2025-02-17 10:56:52,0.0
-14760,380,-1212,2189,9904,-626,2025-02-17 10:56:52,0.0
-12564,-292,-1436,2849,7936,-24,2025-02-17 10:56:52,0.0
-12368,172,-3000,2343,3073,-346,2025-02-17 10:56:52,0.0
-13288,-28,-1024,2380,-1482,225,2025-02-17 10:56:52,0.0
-11984,-340,-2096,2349,-4554,288,2025-02-17 10:56:52,0.0
-9904,-412,-3052,1506,-8374,-955,2025-02-17 10:56:52,0.0
-8420,-1224,-960,1646,-9816,-1210,2025-02-17 10:56:52,0.0
-7288,-1408,-208,2186,-9411,-2114,2025-02-17 10:56:53,0.0
-7200,-1352,-2268,1982,-6770,-2778,2025-02-17 10:56:53,0.0
-9044,-1100,-636,1450,-2459,-3104,2025-02-17 10:56:53,0.0
-9352,-1048,-604,737,2281,-3305,2025-02-17 10:56:53,
-11464,-1152,588,377,4918,-4080,2025-02-17 10:56:53,0.0
-11632,664,-984,577,6040,-4156,2025-02-17 10:56:53,0.0
-12732,-2872,-3168,-1162,4035,-3240,2025-02-17 10:56:53,0.0
-14096,-2440,236,-120,3128,-2611,2025-02-17 10:56:53,0.0
-13960,-2604,-836,320,1921,-1664,2025-02-17 10:56:53,0.0
-13524,-2920,-1552,725,1591,-674,2025-02-17 10:56:53,0.0
-11840,-2680,-1620,390,1926,-821,2025-02-17 10:56:53,0.0
-12216,-2328,-1316,222,3554,-2022,2025-02-17 10:56:53,0.0
-13712,-1468,-588,467,4807,-2780,2025-02-17 10:56:53,0.0
-14224,-1540,2416,2266,3137,-1722,2025-02-17 10:56:53,0.0
-14020,-1068,-852,3112,786,-423,2025-02-17 10:56:53,0.0
-13416,-2408,-2044,3488,-445,-76,2025-02-17 10:56:53,0.0
-11840,-2096,-2320,3224,-89,-543,2025-02-17 10:56:53,0.0
-13012,-1272,-1920,2793,2818,-1419,2025-02-17 10:56:53,0.0
-14540,-1052,-1076,2517,5414,-1340,2025-02-17 10:56:53,0.0
-14740,-1076,-552,2900,7098,-1047,2025-02-17 10:56:53,0.0
-14504,-1032,-304,4068,7060,-843,2025-02-17 10:56:53,0.0
-14256,-324,-888,4813,5872,-961,2025-02-17 10:56:53,0.0
-12200,-4296,1036,4715,2782,-1645,2025-02-17 10:56:53,0.0
-13748,-140,-704,4617,2617,-2072,2025-02-17 10:56:53,0.0
-13568,-120,-1480,4416,2230,-2252,2025-02-17 10:56:53,0.0
-14824,-728,-580,3794,2276,-2077,2025-02-17 10:56:53,0.0
-15380,-580,108,4084,2449,-1300,2025-02-17 10:56:53,0.0
-15792,428,696,5160,2215,7,2025-02-17 10:56:53,0.0
-12436,296,-1940,5488,806,84,2025-02-17 10:56:53,0.0
-10396,-408,-2536,4343,-828,-2310,2025-02-17 10:56:53,0.0
-11616,584,-2496,3419,-2294,-5279,2025-02-17 10:56:53,0.0
-15772,652,-1824,3112,-1633,-6091,2025-02-17 10:56:53,0.0
-15164,104,-2156,3204,912,-5850,2025-02-17 10:56:53,0.0
-13840,-348,-1844,3295,2673,-7113,2025-02-17 10:56:53,0.0
-13016,-748,-2428,3378,2726,-8966,2025-02-17 10:56:53,0.0
-12004,-1228,-2384,3151,1420,-10605,2025-02-17 10:56:53,0.0
-11248,-1624,-3196,2976,-589,-11901,2025-02-17 10:56:53,0.0
-12540,-2140,-2884,2383,-1761,-12374,2025-02-17 10:56:53,0.0
-13760,-2200,-2576,2177,-1553,-12057,2025-02-17 10:56:53,0.0
-15236,-2216,-2584,1737,-950,-10960,2025-02-17 10:56:53,0.0
-13584,-1084,-2384,1715,1042,-9380,2025-02-17 10:56:53,0.0
-11020,-1752,-2552,1650,1668,-9478,2025-02-17 10:56:53,0.0
-8024,-3440,-3064,1651,1199,-11988,2025-02-17 10:56:53,0.0
-3472,-5532,-3804,747,-2355,-19532,2025-02-17 10:56:53,0.0
-740,-6000,-3040,-1185,-5871,-23994,2025-02-17 10:56:53,0.0
3332,-5632,2624,-519,-8961,-28932,2025-02-17 10:56:53,0.0
3040,-5172,2580,-93,-11461,-31255,2025-02-17 10:56:53,0.0
912,-2836,1936,-812,-12839,-29958,2025-02-17 10:56:53,0.0
1392,-1696,2268,-1064,-12520,-28077,2025-02-17 10:56:53,0.0
1584,-1708,2092,-1391,-11748,-27190,2025-02-17 10:56:53,0.0
1784,-1816,1844,-1804,-10599,-26392,2025-02-17 10:56:53,0.0
1796,-1732,1748,-2204,-9395,-25874,2025-02-17 10:56:53,0.0
2148,-1656,1372,-2683,-8212,-25537,2025-02-17 10:56:53,0.0
2052,-1672,1272,-3109,-6919,-25095,2025-02-17 10:56:53,0.0
2068,-1576,1616,-3456,-5944,-24712,2025-02-17 10:56:53,0.0
1948,-1552,1676,-3665,-4989,-24144,2025-02-17 10:56:53,0.0
1764,-1408,1624,-3745,-4165,-23421,2025-02-17 10:56:53,0.0
1548,-1384,1832,-3775,-3422,-22650,2025-02-17 10:56:53,0.0
1752,-1356,1592,-3772,-2858,-22062,2025-02-17 10:56:53,0.0
1964,-1376,1700,-3829,-2016,-21472,2025-02-17 10:56:53,0.0
1940,-1184,1624,-3933,-1276,-20993,2025-02-17 10:56:53,0.0
2372,-1280,1188,-4043,-561,-20534,2025-02-17 10:56:54,0.0
2016,-1244,1380,-4166,71,-20093,2025-02-17 10:56:54,0.0
1764,-1024,1632,-4270,576,-19601,2025-02-17 10:56:54,0.0
1732,-1172,1544,-4461,1072,-19102,2025-02-17 10:56:54,0.0
1560,-1004,468,-5086,1311,-18520,2025-02-17 10:56:54,0.0
3180,-800,1092,-6117,1052,-17942,2025-02-17 10:56:54,0.0
3384,-660,1660,-5823,-645,-18699,2025-02-17 10:56:54,0.0
17776,-4320,1456,-7735,-10127,-23572,2025-02-17 10:56:54,0.0
32767,-25316,-24920,-26219,-32768,-32768,2025-02-17 10:56:54,0.0
32767,-32768,-32768,-32768,-32768,-32768,2025-02-17 10:56:54,0.0
32767,-32768,-7748,-32768,-32768,-32768,2025-02-17 10:56:54,0.0
-2364,17568,14568,-32768,-32768,-10921,2025-02-17 10:56:54,0.0
-10688,18432,18844,-20067,-32768,9210,2025-02-17 10:56:54,0.0
-10652,6628,4560,-5047,-32768,14503,2025-02-17 10:56:54,0.0
-4468,2832,-1488,-302,-32768,13795,2025-02-17 10:56:54,0.0
1404,-408,-132,3447,-32768,6665,2025-02-17 10:56:54,0.0
-124,-944,-784,4904,-32768,-697,2025-02-17 10:56:54,0.0
-5544,-2796,-2840,5920,-18795,-5014,2025-02-17 10:56:54,0.0
-8908,-5248,-5356,6160,631,-6689,2025-02-17 10:56:54,0.0
-18352,-10668,-7068,2646,22676,-5090,2025-02-17 10:56:54,0.0
-15456,-11624,-9188,-3617,32767,-2357,2025-02-17 10:56:54,0.0
-11524,-8228,-5344,-2703,32767,-2352,2025-02-17 10:56:54,0.0
-4448,-4260,-6868,-202,32767,-2485,2025-02-17 10:56:54,0.0
6372,-1404,-13028,7599,32767,-4710,2025-02-17 10:56:54,0.0
9224,-3672,-31272,10281,20147,-4272,2025-02-17 10:56:54,0.0
8836,-9332,-23104,2914,2997,1872,2025-02-17 10:56:54,0.0
5332,-7532,-11320,1169,-6385,2316,2025-02-17 10:56:54,0.0
-1372,-7380,-12948,-734,-7055,2827,2025-02-17 10:56:54,0.0
-3084,-7236,-13720,-2774,-3631,2007,2025-02-17 10:56:54,0.0
-1976,-5084,-12900,-1639,445,-641,2025-02-17 10:56:54,0.0
-532,-3840,-12736,413,2634,-639,2025-02-17 10:56:54,0.0
1148,-6348,-14968,761,849,-349,2025-02-17 10:56:54,0.0
-320,-6956,-14192,-287,-283,-26,2025-02-17 10:56:54,0.0
224,-5564,-13620,-436,-226,-88,2025-02-17 10:56:54,0.0
-976,-5964,-13940,-320,129,-161,2025-02-17 10:56:54,0.0
-44,-5296,-13764,-57,241,-153,2025-02-17 10:56:54,0.0
144,-6044,-14120,61,94,-169,2025-02-17 10:56:54,0.0
-344,-5920,-13696,-431,451,-253,2025-02-17 10:56:54,0.0
8,-5596,-13756,-353,-14,-110,2025-02-17 10:56:54,0.0
-72,-5652,-14068,13,164,-191,2025-02-17 10:56:54,0.0
-224,-5948,-13728,-165,38,-117,2025-02-17 10:56:54,0.0
68,-5792,-13856,-145,364,-200,2025-02-17 10:56:54,0.0
-120,-5860,-13796,-188,14,-95,2025-02-17 10:56:54,
-280,-5688,-13676,-149,214,-148,2025-02-17 10:56:54,0.0
-20,-5800,-13848,-158,275,-177,2025-02-17 10:56:54,0.0
-56,-5852,-14228,-202,62,-167,2025-02-17 10:56:54,0.0
-164,-5816,-13832,-211,181,-189,2025-02-17 10:56:54,0.0
-92,-5724,-13800,-121,143,-210,2025-02-17 10:56:54,0.0
80,-5892,-14124,-240,265,-244,2025-02-17 10:56:54,0.0
100,-5936,-14172,-166,122,-128,2025-02-17 10:56:54,0.0
-168,-5740,-14000,-153,144,-199,2025-02-17 10:56:54,0.0
-288,-5892,-13784,-129,284,-177,2025-02-17 10:56:54,0.0
120,-5704,-14100,-183,215,-182,2025-02-17 10:56:54,0.0
-404,-5856,-13696,-151,89,-77,2025-02-17 10:56:54,0.0
-36,-5696,-14092,-162,274,-203,2025-02-17 10:56:54,0.0
-244,-5816,-13580,-194,141,-141,2025-02-17 10:56:54,0.0
-20,-5748,-14160,-210,211,-191,2025-02-17 10:56:55,0.0
-296,-5856,-13888,-105,204,-155,2025-02-17 10:56:55,0.0
-128,-5784,-13840,-168,114,-186,2025-02-17 10:56:55,0.0
-380,-5844,-13868,-163,164,-173,2025-02-17 10:56:55,0.0
-20,-5952,-14052,-142,267,-211,2025-02-17 10:56:55,0.0
-144,-5804,-13860,-216,93,-158,2025-02-17 10:56:55,0.0
-236,-5748,-14044,-117,158,-166,2025-02-17 10:56:55,0.0
-248,-5924,-14056,-186,225,-216,2025-02-17 10:56:55,0.0
4,-5940,-14520,-350,13,-156,2025-02-17 10:56:55,0.0
-64,-5516,-12132,-951,-751,51,2025-02-17 10:56:55,0.0
-792,-5360,-14740,110,296,-387,2025-02-17 10:56:55,0.0
36,-6132,-13688,-15,603,-163,2025-02-17 10:56:55,0.0
180,-5760,-14248,-285,55,-166,2025-02-17 10:56:55,0.0
-448,-5600,-13732,-71,114,-200,2025-02-17 10:56:55,0.0
-284,-5964,-14084,-138,319,-167,2025-02-17 10:56:55,0.0
-148,-5744,-13964,-168,130,-164,2025-02-17 10:56:55,0.0
-188,-5824,-13944,-147,112,-189,2025-02-17 10:56:55,0.0
-264,-5760,-13912,-182,272,-169,2025-02-17 10:56:55,0.0
-224,-5824,-13972,-160,172,-161,2025-02-17 10:56:55,0.0
-192,-5712,-13864,-157,176,-188,2025-02-17 10:56:55,0.0
-252,-5716,-13932,-155,145,-162,2025-02-17 10:56:55,0.0
-108,-5768,-13972,-164,193,-189,2025-02-17 10:56:55,0.0
-112,-5804,-13972,-159,177,-168,2025-02-17 10:56:55,0.0
-236,-5736,-13940,-185,176,-173,2025-02-17 10:56:55,0.0
-204,-5800,-14020,-150,177,-166,2025-02-17 10:56:55,0.0
-264,-5756,-13884,-154,172,-170,2025-02-17 10:56:55,0.0
-196,-5800,-13856,-195,146,-177,2025-02-17 10:56:55,0.0
-112,-5748,-13900,-167,191,-178,2025-02-17 10:56:55,0.0
-196,-5772,-13984,-192,156,-152,2025-02-17 10:56:55,0.0
-276,-5852,-13864,-165,160,-180,2025-02-17 10:56:55,0.0
-88,-5756,-13852,-149,187,-172,2025-02-17 10:56:55,0.0
-164,-5836,-13892,-173,166,-168,2025-02-17 10:56:55,0.0
-228,-5800,-13976,-161,182,-175,2025-02-17 10:56:55,0.0
-244,-5776,-13920,-182,189,-157,2025-02-17 10:56:55,0.0
-200,-5844,-13960,-157,169,-179,2025-02-17 10:56:55,0.0
-256,-5684,-13984,-181,191,-178,2025-02-17 10:56:55,0.0
-76,-5716,-14024,-146,177,-195,2025-02-17 10:56:55,0.0
-100,-5800,-13936,-165,151,-177,2025-02-17 10:56:55,0.0
-180,-5796,-13764,-169,173,-186,2025-02-17 10:56:55,0.0
-196,-5788,-13896,-164,214,-162,2025-02-17 10:56:55,0.0
-228,-5724,-13976,-150,196,-178,2025-02-17 10:56:55,0.0
-232,-5776,-13928,-149,183,-158,2025-02-17 10:56:55,0.0
-264,-5708,-13892,-142,194,-175,2025-02-17 10:56:55,0.0
-212,-5808,-13896,-157,206,-169,2025-02-17 10:56:55,0.0
-216,-5824,-14052,-126,172,-165,2025-02-17 10:56:55,0.0
-144,-5804,-13988,-178,188,-191,2025-02-17 10:56:56,0.0
-144,-5784,-13868,-169,182,-165,2025-02-17 10:56:56,0.0
-296,-5764,-13916,-150,190,-185,2025-02-17 10:56:56,0.0
-148,-5792,-13972,-204,174,-174,2025-02-17 10:56:56,0.0
-252,-5780,-13876,-176,171,-183,2025-02-17 10:56:56,0.0
-120,-5776,-14112,-177,175,-163,2025-02-17 10:56:56,0.0
-204,-5748,-13964,-178,147,-191,2025-02-17 10:56:56,0.0
-80,-5752,-14036,-176,163,-149,2025-02-17 10:56:56,0.0
-156,-5740,-14016,-175,168,-181,2025-02-17 10:56:56,0.0
-260,-5716,-13988,-177,172,-168,2025-02-17 10:56:56,0.0
-128,-5764,-13920,-158,192,-170,2025-02-17 10:56:56,0.0
-336,-5772,-14048,-163,194,-173,2025-02-17 10:56:56,0.0
-124,-5748,-13988,-163,180,-156,2025-02-17 10:56:56,0.0
-112,-5756,-14032,-150,178,-175,2025-02-17 10:56:56,0.0
-216,-5840,-13856,-150,175,-175,2025-02-17 10:56:56,0.0
-212,-5792,-13992,-174,170,-180,2025-02-17 10:56:56,0.0
-256,-5752,-13964,-163,146,-153,2025-02-17 10:56:56,0.0
-208,-5716,-13892,-141,157,-173,2025-02-17 10:56:56,0.0
-240,-5636,-13900,-150,190,-157,2025-02-17 10:56:56,0.0
-272,-5864,-13996,-171,203,-179,2025-02-17 10:56:56,0.0
-124,-5748,-13920,-156,178,-159,2025-02-17 10:56:56,0.0
-208,-5656,-13764,-167,204,-174,2025-02-17 10:56:56,0.0
-160,-5752,-13900,-152,199,-190,2025-02-17 10:56:56,0.0
-172,-5740,-13964,-167,159,-173,2025-02-17 10:56:56,0.0
-280,-5780,-13792,-152,184,-147,2025-02-17 10:56:56,0.0
-272,-5748,-13736,-173,175,-173,2025-02-17 10:56:56,0.0
-296,-5616,-13708,-182,174,-155,2025-02-17 10:56:56,0.0
-204,-5844,-13980,-153,213,-165,2025-02-17 10:56:56,0.0
-172,-5764,-13804,-156,164,-166,2025-02-17 10:56:56,0.0
-168,-5708,-14028,-172,181,-166,2025-02-17 10:56:56,0.0
-148,-5728,-14092,-176,175,-164,2025-02-17 10:56:56,0.0
-136,-5668,-13828,-178,173,-179,2025-02-17 10:56:56,0.0
-216,-5812,-13928,-150,160,-189,2025-02-17 10:56:56,0.0
-168,-5684,-13964,-175,197,-187,2025-02-17 10:56:56,0.0
-100,-5732,-14020,-165,213,-167,2025-02-17 10:56:56,0.0
-240,-5728,-13784,-153,172,-189,2025-02-17 10:56:56,0.0
-232,-5672,-14072,-146,193,-167,2025-02-17 10:56:56,0.0
-184,-5748,-13916,-164,170,-171,2025-02-17 10:56:56,0.0
-228,-5724,-13944,-143,169,-148,2025-02-17 10:56:56,0.0
-256,-5788,-13920,-156,198,-198,2025-02-17 10:56:56,0.0
-172,-5776,-13980,-184,153,-171,2025-02-17 10:56:56,0.0
-252,-5804,-13984,-172,184,-161,2025-02-17 10:56:56,
-184,-5700,-14012,-170,190,-182,2025-02-17 10:56:56,0.0
-248,-5800,-14040,-174,162,-180,2025-02-17 10:56:56,0.0
-200,-5708,-13996,-186,165,-163,2025-02-17 10:56:56,0.0
-276,-5840,-13920,-174,185,-174,2025-02-17 10:56:56,0.0
-448,-5888,-13752,-587,-2,-173,2025-02-17 10:56:56,0.0
-100,-5456,-14372,-113,26,-140,2025-02-17 10:56:56,0.0
-304,-5936,-13784,-208,-9,-137,2025-02-17 10:56:56,0.0
-96,-6048,-14040,-1016,-144,-263,2025-02-17 10:56:56,0.0
-444,-5392,-13976,-697,397,-433,2025-02-17 10:56:57,0.0
-240,-5560,-14040,-210,613,-384,2025-02-17 10:56:57,0.0
144,-5592,-13884,-211,164,-208,2025-02-17 10:56:57,0.0
-360,-5792,-13936,-380,-81,-136,2025-02-17 10:56:57,0.0
40,-5844,-14136,-453,-769,146,2025-02-17 10:56:57,0.0
-8,-5420,-14324,-132,-1255,217,2025-02-17 10:56:57,0.0
-992,-5288,-13964,214,-892,657,2025-02-17 10:56:57,0.0
-716,-5852,-13636,449,-198,417,2025-02-17 10:56:57,0.0
28,-6120,-14592,34,-235,245,2025-02-17 10:56:57,0.0
-752,-5892,-13660,102,-475,31,2025-02-17 10:56:57,0.0
-368,-5580,-13996,125,-38,-16,2025-02-17 10:56:57,0.0
-644,-5672,-13704,93,272,-103,2025-02-17 10:56:57,0.0
-304,-5752,-13920,140,278,-68,2025-02-17 10:56:57,0.0
-552,-5964,-13728,264,560,-268,2025-02-17 10:56:57,0.0
-612,-5304,-13872,1314,1154,-185,2025-02-17 10:56:57,0.0
-456,-5408,-13868,1678,1254,-155,2025-02-17 10:56:57,0.0
-48,-5260,-13388,2300,1545,272,2025-02-17 10:56:57,0.0
-44,-5964,-13408,3852,1986,-529,2025-02-17 10:56:57,0.0
196,-5464,-13516,6810,1862,-772,2025-02-17 10:56:57,0.0
236,-5312,-14512,10677,3002,-2525,2025-02-17 10:56:57,0.0
-612,-6380,-15356,10994,1815,-3895,2025-02-17 10:56:57,0.0
-12,-7628,-13500,9189,75,-4983,2025-02-17 10:56:57,0.0
340,-7716,-11780,8720,-301,-6194,2025-02-17 10:56:57,0.0
188,-7792,-12236,9888,301,-6861,2025-02-17 10:56:57,0.0
352,-8364,-13708,11345,7,-7117,2025-02-17 10:56:57,0.0
572,-8608,-13024,12881,-1490,-7305,2025-02-17 10:56:57,0.0
372,-8160,-12436,14690,-2747,-6980,2025-02-17 10:56:57,0.0
788,-7892,-11840,16536,-2013,-7052,2025-02-17 10:56:57,0.0
56,-8200,-12016,18166,-1024,-6720,2025-02-17 10:56:57,0.0
516,-9760,-12636,19844,-141,-5974,2025-02-17 10:56:57,0.0
680,-12980,-12428,20015,-1413,-5516,2025-02-17 10:56:57,0.0
1048,-14356,-10804,18616,-2828,-4991,2025-02-17 10:56:57,0.0
1060,-14604,-8460,17947,-2960,-4409,2025-02-17 10:56:57,0.0
1820,-14540,-6916,18934,-4397,-4112,2025-02-17 10:56:57,0.0
1960,-14468,-6436,20295,-7151,-4012,2025-02-17 10:56:57,0.0
1676,-15156,-6724,21647,-9587,-4428,2025-02-17 10:56:57,0.0
1072,-15672,-6732,23337,-10422,-5732,2025-02-17 10:56:57,0.0
704,-16120,-5884,24586,-10084,-6651,2025-02-17 10:56:57,0.0
852,-16928,-5028,25458,-9442,-7179,2025-02-17 10:56:57,0.0
772,-18280,-4308,26610,-7459,-7359,2025-02-17 10:56:57,0.0
-256,-18316,-4748,26107,-5624,-6070,2025-02-17 10:56:57,0.0
-416,-19488,-3792,24105,-3730,-2624,2025-02-17 10:56:57,0.0
1704,-21740,-3860,21586,-495,-1068,2025-02-17 10:56:57,0.0
2432,-23432,-1876,19544,4019,-2230,2025-02-17 10:56:57,0.0
816,-26008,-1120,18995,9543,-3237,2025-02-17 10:56:57,0.0
-304,-27284,-2292,15630,15632,-1517,2025-02-17 10:56:57,0.0
1980,-27296,-2240,12462,23364,-2285,2025-02-17 10:56:57,0.0
2920,-25596,912,11526,30621,-4916,2025-02-17 10:56:57,0.0
2552,-24820,2168,13867,32767,-6388,2025-02-17 10:56:57,0.0
868,-24184,1924,16647,32767,-5352,2025-02-17 10:56:57,0.0
-624,-23376,628,17059,32767,-975,2025-02-17 10:56:57,0.0
-472,-22888,-556,14703,32767,4119,2025-02-17 10:56:57,0.0
1880,-22820,-1716,10638,32767,6684,2025-02-17 10:56:57,0.0
3928,-22804,-984,6584,32767,5057,2025-02-17 10:56:57,0.0
5248,-22316,776,4290,32767,297,2025-02-17 10:56:57,0.0
4080,-22320,44,3613,32767,-3488,2025-02-17 10:56:57,0.0
2732,-23112,-1728,641,29111,-3418,2025-02-17 10:56:57,0.0
2064,-23180,-1188,-2855,20841,-1300,2025-02-17 10:56:57,0.0
3124,-22496,-44,-4586,9127,1618,2025-02-17 10:56:57,0.0
7056,-20960,-1144,-5803,-5928,2563,2025-02-17 10:56:57,0.0
13624,-19108,-4632,-8940,-23773,-3111,2025-02-17 10:56:57,0.0
7332,-17520,-2212,-13837,-32768,-4940,2025-02-17 10:56:57,0.0
5932,-18160,240,-15905,-32768,-2391,2025-02-17 10:56:57,0.0
6588,-18448,1608,-15302,-32768,-1662,2025-02-17 10:56:58,0.0
7164,-17820,-64,-17425,-32768,-5056,2025-02-17 10:56:58,0.0
4576,-17092,1700,-20331,-32768,-5540,2025-02-17 10:56:58,0.0
3236,-17432,5456,-17596,-32768,-3340,2025-02-17 10:56:58,0.0
2868,-17460,6120,-11197,-32768,-2521,2025-02-17 10:56:58,0.0
2412,-16568,3264,-7727,-32768,-3727,2025-02-17 10:56:58,0.0
1936,-15812,1136,-8431,-32768,-5582,2025-02-17 10:56:58,0.0
788,-15596,2464,-8056,-32768,-7015,2025-02-17 10:56:58,0.0
-716,-14552,2988,-4792,-21711,-6313,2025-02-17 10:56:58,0.0
-600,-10464,3872,-340,-3712,-5281,2025-02-17 10:56:58,0.0
2036,-9712,1804,3080,14052,-6586,2025-02-17 10:56:58,0.0
640,-12392,2072,6169,30590,-7372,2025-02-17 10:56:58,0.0
-520,-12784,2212,9436,32767,-4475,2025-02-17 10:56:58,0.0
424,-12148,1996,10645,32767,-2655,2025-02-17 10:56:58,0.0
616,-12308,1648,10997,32767,-884,2025-02-17 10:56:58,0.0
1068,-12232,2504,11496,32767,1125,2025-02-17 10:56:58,0.0
1292,-12456,2104,11041,32767,3310,2025-02-17 10:56:58,0.0
1780,-11840,2332,9691,32767,5698,2025-02-17 10:56:58,0.0
2512,-11832,2440,8243,32767,7201,2025-02-17 10:56:58,0.0
2976,-12884,1392,5692,32767,7777,2025-02-17 10:56:58,0.0
5144,-13844,1496,2076,32767,7371,2025-02-17 10:56:58,0.0
10536,-13936,1628,1587,32767,794,2025-02-17 10:56:58,0.0
11640,-13904,5208,1366,32767,-1281,2025-02-17 10:56:58,0.0
10148,-14028,9188,2703,32767,-3592,2025-02-17 10:56:58,0.0
10028,-10280,14812,6406,17770,-7621,2025-02-17 10:56:58,0.0
2604,-11888,-248,6271,-1128,-7391,2025-02-17 10:56:58,0.0
3260,-16256,-12804,-1638,-19790,-6133,2025-02-17 10:56:58,0.0
-7412,-12960,1204,-5164,-29587,-1923,2025-02-17 10:56:58,0.0
-6072,-13144,460,-5208,-25229,984,2025-02-17 10:56:58,
-5008,-13036,664,-4399,-15627,898,2025-02-17 10:56:58,0.0
-11392,-13928,-624,-3666,-3088,5990,2025-02-17 10:56:58,0.0
-8856,-13508,-1820,-4376,8839,12505,2025-02-17 10:56:58,0.0
-4020,-13664,-3192,-5797,18723,14154,2025-02-17 10:56:58,0.0
-2356,-14188,720,-6991,25650,15165,2025-02-17 10:56:58,0.0
3576,-13572,6752,-6117,29502,14015,2025-02-17 10:56:58,0.0
4164,-13264,4664,-5491,19843,11472,2025-02-17 10:56:58,0.0
-1292,-15256,-5252,-9295,12870,13499,2025-02-17 10:56:58,0.0
96,-12840,1660,-11507,9119,14057,2025-02-17 10:56:58,0.0
224,-12232,3432,-7678,7636,12034,2025-02-17 10:56:58,0.0
-1064,-13556,-208,-6509,6687,11071,2025-02-17 10:56:58,0.0
-1292,-14220,-1928,-7574,5266,11707,2025-02-17 10:56:58,0.0
-236,-14028,12,-7899,5700,10825,2025-02-17 10:56:58,0.0
-940,-14600,600,-8311,8888,9480,2025-02-17 10:56:58,0.0
-6260,-11224,1680,-4202,15653,10210,2025-02-17 10:56:58,0.0
-8360,-10668,1148,-2800,15666,13381,2025-02-17 10:56:58,0.0
-8096,-11580,1156,-2393,15985,15650,2025-02-17 10:56:58,0.0
-7444,-12824,1368,-2162,16525,17231,2025-02-17 10:56:58,0.0
-7376,-13784,2052,-1800,15843,17875,2025-02-17 10:56:58,0.0
-9700,-13420,-3812,-5028,11317,19586,2025-02-17 10:56:58,0.0
-12956,-12596,-1668,-7446,4719,23742,2025-02-17 10:56:58,0.0
-12140,-12712,-636,-8504,-647,26754,2025-02-17 10:56:58,0.0
-9396,-13048,-116,-7018,-5534,28002,2025-02-17 10:56:58,0.0
-9352,-13428,-2048,-5403,-9705,27631,2025-02-17 10:56:58,0.0
-10212,-13392,-4832,-5201,-14850,27889,2025-02-17 10:56:58,0.0
-9396,-9636,-3844,-1343,-25285,29830,2025-02-17 10:56:58,0.0
-9908,-8604,-2424,259,-25235,28342,2025-02-17 10:56:58,0.0
-11068,-8280,-2824,1826,-23199,26429,2025-02-17 10:56:58,0.0
-12912,-8240,-4392,1939,-20137,24945,2025-02-17 10:56:58,0.0
-13028,-7936,-4180,1728,-14565,22096,2025-02-17 10:56:59,0.0
-13396,-7988,-4812,1338,-10079,20435,2025-02-17 10:56:59,0.0
-13840,-6540,-3336,1059,-5768,20044,2025-02-17 10:56:59,0.0
-14208,-3956,-4032,625,260,19634,2025-02-17 10:56:59,0.0
-12476,-1944,-4232,-678,6944,18000,2025-02-17 10:56:59,0.0
-11328,-108,-4428,-1548,12323,14924,2025-02-17 10:56:59,0.0
-13164,416,-5432,-2996,17905,11024,2025-02-17 10:56:59,0.0
-15828,-464,-5256,-5337,23282,10258,2025-02-17 10:56:59,0.0
-14356,-1212,-3468,-5761,25127,10415,2025-02-17 10:56:59,0.0
-10696,-1084,-2704,-4866,24119,9240,2025-02-17 10:56:59,0.0
-8664,92,-2328,-4497,20908,6980,2025-02-17 10:56:59,0.0
-7984,1476,-36,-3585,17166,3702,2025-02-17 10:56:59,0.0
-11964,2416,8044,7459,-10179,1920,2025-02-17 10:56:59,0.0
-18860,2248,-6644,381,-16704,4187,2025-02-17 10:56:59,0.0
-16568,1512,-5588,-2421,-20799,6819,2025-02-17 10:56:59,0.0
-13380,1452,-1148,1183,-26522,6067,2025-02-17 10:56:59,0.0
-14348,1436,-840,5599,-32768,6250,2025-02-17 10:56:59,0.0
-13592,1500,380,5981,-32768,5002,2025-02-17 10:56:59,0.0
-16496,2120,4636,5612,-28731,2976,2025-02-17 10:56:59,0.0
-12932,536,1596,5242,-14236,490,2025-02-17 10:56:59,0.0
-9104,720,-284,3361,48,-2756,2025-02-17 10:56:59,0.0
-8564,880,324,2724,4537,-5473,2025-02-17 10:56:59,0.0
-13060,-248,2160,3656,8425,-6873,2025-02-17 10:56:59,0.0
-16020,-680,2204,3416,4931,-3969,2025-02-17 10:56:59,0.0
-15232,296,1960,3248,793,-2784,2025-02-17 10:56:59,0.0
-14156,104,1260,3752,-2213,-3563,2025-02-17 10:56:59,0.0
-14088,432,620,3107,-3182,-2882,2025-02-17 10:56:59,0.0
-11740,700,572,1685,-169,-3006,2025-02-17 10:56:59,0.0
-11268,456,144,1103,3196,-4228,2025-02-17 10:56:59,0.0
-13308,416,-152,147,4353,-4784,2025-02-17 10:56:59,0.0
-14628,16,20,-618,4425,-4204,2025-02-17 10:56:59,0.0
-15316,204,8,-419,3271,-3192,2025-02-17 10:56:59,0.0
-15036,168,-752,-1165,2904,-2381,2025-02-17 10:56:59,0.0
-14308,-408,12,-1379,2873,-1790,2025-02-17 10:56:59,0.0
-12672,-392,-372,-638,3977,-1994,2025-02-17 10:56:59,0.0
-12108,-52,-1512,-826,5236,-2711,2025-02-17 10:56:59,0.0
-13068,-160,-1324,-1641,6614,-3016,2025-02-17 10:56:59,0.0
-13476,-616,-1332,-1729,7061,-2932,2025-02-17 10:56:59,0.0
-14524,-664,-1792,-2050,6170,-2942,2025-02-17 10:56:59,0.0
-17148,-924,-1156,-2874,4577,-1600,2025-02-17 10:56:59,0.0
-15992,-1428,-2116,-741,1515,-1122,2025-02-17 10:56:59,0.0
-15028,-1144,-1732,-1005,-1006,136,2025-02-17 10:56:59,0.0
-13976,-968,-1768,-505,-2644,322,2025-02-17 10:56:59,0.0
-12996,-860,-2176,-41,-3268,1098,2025-02-17 10:56:59,0.0
-11792,-152,-2628,-89,-2452,908,2025-02-17 10:56:59,0.0
-11960,-56,-2688,-353,-1575,339,2025-02-17 10:56:59,0.0
-12424,-552,-2436,-119,-1135,562,2025-02-17 10:56:59,0.0
-11944,-720,-2828,-64,-1276,931,2025-02-17 10:56:59,0.0
-11600,-852,-2664,-188,-1511,1257,2025-02-17 10:56:59,0.0
-10016,-640,-2272,-105,-1678,906,2025-02-17 10:56:59,0.0
-9816,-196,-1972,-352,-1664,325,2025-02-17 10:56:59,0.0
-9760,-388,-1392,-317,-1332,-2,2025-02-17 10:56:59,0.0
-9424,-792,-964,-32,-796,-428,2025-02-17 10:56:59,0.0
-9204,-1304,-1244,-74,491,-967,2025-02-17 10:56:59,0.0
-9556,-1656,-912,336,2497,-1114,2025-02-17 10:56:59,0.0
-9408,-1344,-1020,766,4370,-892,2025-02-17 10:56:59,0.0
-10032,-764,-288,366,5987,-1139,2025-02-17 10:56:59,0.0
-11368,-428,996,943,5929,-792,2025-02-17 10:57:00,0.0
-12768,-688,1232,2253,4340,530,2025-02-17 10:57:00,0.0
-10552,704,-1440,549,3049,-1375,2025-02-17 10:57:00,0.0
-12436,396,856,-606,905,-1736,2025-02-17 10:57:00,0.0
-12704,-444,1440,-121,-991,-1358,2025-02-17 10:57:00,0.0
-11640,-444,-16,-152,-1436,-683,2025-02-17 10:57:00,0.0
-11396,-512,528,61,-1527,-563,2025-02-17 10:57:00,0.0
-11520,-508,344,-105,-1810,-234,2025-02-17 10:57:00,0.0
-11616,-960,364,-806,-3057,-201,2025-02-17 10:57:00,0.0
-12592,-1180,552,-806,-4367,175,2025-02-17 10:57:00,0.0
-12100,-460,696,-892,-4957,537,2025-02-17 10:57:00,0.0
-11724,184,700,-1048,-4333,1134,2025-02-17 10:57:00,0.0
-12364,-8,1044,-1269,-3045,1596,2025-02-17 10:57:00,0.0
-14736,-276,1560,-776,-2104,2497,2025-02-17 10:57:00,
-14368,-732,676,-379,-3061,3022,2025-02-17 10:57:00,0.0
-14708,-216,1204,-120,-4865,2338,2025-02-17 10:57:00,0.0
-13064,-352,1312,-72,-6610,1780,2025-02-17 10:57:00,0.0
-14732,-184,-12,-504,-8011,2934,2025-02-17 10:57:00,0.0
-2468,932,-3996,-1068,-6203,1838,2025-02-17 10:57:00,0.0
-11848,-476,808,-964,-8498,1393,2025-02-17 10:57:00,0.0
-13340,224,-380,-1462,-6366,252,2025-02-17 10:57:00,0.0
-15520,-1052,1864,-1519,-6045,863,2025-02-17 10:57:00,0.0
-14180,-788,644,-1041,-7403,838,2025-02-17 10:57:00,0.0
-13068,412,712,-802,-8636,184,2025-02-17 10:57:00,0.0
-13284,748,2384,-934,-9134,444,2025-02-17 10:57:00,0.0
-9944,660,2716,-782,-8407,-363,2025-02-17 10:57:00,0.0
-16320,700,3740,-961,-8203,184,2025-02-17 10:57:00,0.0
-15660,80,4784,-409,-9335,298,2025-02-17 10:57:00,0.0
-16060,-80,5812,336,-10293,112,2025-02-17 10:57:00,0.0
-15576,76,5508,320,-10804,64,2025-02-17 10:57:00,0.0
-16628,244,6284,346,-10069,36,2025-02-17 10:57:00,0.0
-18076,544,6828,243,-9337,372,2025-02-17 10:57:00,0.0
-16292,348,8912,821,-9710,487,2025-02-17 10:57:00,0.0
-19052,356,5896,780,-9411,783,2025-02-17 10:57:00,0.0
-16376,-80,6236,816,-9051,592,2025-02-17 10:57:00,0.0
-15016,360,6816,790,-8935,575,2025-02-17 10:57:00,0.0
-16680,924,7948,215,-7918,260,2025-02-17 10:57:00,0.0
-19264,1124,11164,-263,-8904,-624,2025-02-17 10:57:00,0.0
-19880,1004,15252,315,-13090,-766,2025-02-17 10:57:00,0.0
-17404,1416,14628,596,-14483,25,2025-02-17 10:57:00,0.0
-16200,64,13800,920,-11362,406,2025-02-17 10:57:00,0.0
-12444,740,12312,70,-5585,1046,2025-02-17 10:57:00,0.0
-10084,776,11108,-204,-2122,480,2025-02-17 10:57:00,0.0
-11280,1048,9352,-539,-1775,-621,2025-02-17 10:57:00,0.0
-11876,1180,9104,-576,-3579,-684,2025-02-17 10:57:00,0.0
-12508,1668,9792,-844,-4466,-607,2025-02-17 10:57:00,0.0
-12484,1388,11428,-1428,-4132,-670,2025-02-17 10:57:00,0.0
-11920,568,11984,-1408,-3687,-81,2025-02-17 10:57:00,0.0
-10828,652,11908,-1506,-3632,70,2025-02-17 10:57:00,0.0
-10024,852,12636,-1366,-3117,-262,2025-02-17 10:57:00,0.0
-9988,848,12356,-1110,-2481,-720,2025-02-17 10:57:00,0.0
-10060,100,12392,-948,-2257,-1327,2025-02-17 10:57:00,0.0
-10212,-48,11552,-728,-1815,-1992,2025-02-17 10:57:00,0.0
-10976,-36,10880,-522,-1248,-2260,2025-02-17 10:57:00,0.0
-11536,-608,11756,-258,-825,-1927,2025-02-17 10:57:00,0.0
-12292,-508,10260,-211,-475,-1086,2025-02-17 10:57:00,0.0
-12816,-428,10544,-253,-365,-605,2025-02-17 10:57:00,0.0
-12276,-224,10900,-72,-248,-149,2025-02-17 10:57:00,0.0
-11556,-428,10136,408,500,261,2025-02-17 10:57:00,0.0
-11432,-1108,8240,162,1596,614,2025-02-17 10:57:00,0.0
-13904,-1420,8416,145,2152,1288,2025-02-17 10:57:00,0.0
-15280,-1892,8224,206,380,2132,2025-02-17 10:57:00,0.0
-14376,-1764,10016,452,-2921,2266,2025-02-17 10:57:00,0.0
-12228,-1016,9304,103,-4745,1788,2025-02-17 10:57:00,0.0
-9980,-468,10608,-260,-4448,646,2025-02-17 10:57:00,0.0
-9620,292,11752,43,-3390,-336,2025-02-17 10:57:01,0.0
-10080,544,11120,97,-2923,-792,2025-02-17 10:57:01,0.0
-10700,496,10464,22,-3015,-1016,2025-02-17 10:57:01,0.0
-11520,768,10884,-66,-2930,-522,2025-02-17 10:57:01,0.0
-11188,1052,11452,114,-3061,82,2025-02-17 10:57:01,0.0
-10688,680,12104,207,-3013,367,2025-02-17 10:57:01,0.0
-9828,680,12308,381,-2665,338,2025-02-17 10:57:01,0.0
-9780,568,12616,481,-2058,290,2025-02-17 10:57:01,0.0
-9560,400,11452,288,-1360,101,2025-02-17 10:57:01,0.0
-9848,412,11976,43,-418,-125,2025-02-17 10:57:01,0.0
-10312,464,11592,-33,-427,12,2025-02-17 10:57:01,0.0
-10096,560,11824,-734,-462,251,2025-02-17 10:57:01,0.0
-10800,740,12572,-876,-310,529,2025-02-17 10:57:01,0.0
-10596,568,12832,-420,145,709,2025-02-17 10:57:01,0.0
-10732,864,11864,-436,-463,852,2025-02-17 10:57:01,0.0
-10636,196,12464,-197,-179,947,2025-02-17 10:57:01,0.0
-10192,480,12596,-357,-73,1133,2025-02-17 10:57:01,0.0
-10356,168,13484,-228,194,1045,2025-02-17 10:57:01,0.0
-10024,816,12312,40,843,683,2025-02-17 10:57:01,0.0
-10428,620,11212,-288,413,675,2025-02-17 10:57:01,0.0
-11084,724,11908,-201,-52,848,2025-02-17 10:57:01,0.0
-9840,356,12216,429,-560,201,2025-02-17 10:57:01,0.0
-10048,728,10788,246,-287,-49,2025-02-17 10:57:01,0.0
-10840,656,11024,-675,-84,-538,2025-02-17 10:57:01,0.0
-11044,192,11528,-651,-43,-599,2025-02-17 10:57:01,0.0
-10824,536,11248,-683,19,-586,2025-02-17 10:57:01,0.0
-11172,824,10700,-829,1,-485,2025-02-17 10:57:01,0.0
-11460,860,11448,-828,-152,-253,2025-02-17 10:57:01,0.0
-11328,544,11536,-794,-210,-6,2025-02-17 10:57:01,0.0
-9704,756,12352,-1635,-1054,521,2025-02-17 10:57:01,0.0
-9888,516,10484,-1059,4,178,2025-02-17 10:57:01,0.0
-10476,284,11872,-821,386,-162,2025-02-17 10:57:01,0.0
-10416,760,10960,-708,844,-177,2025-02-17 10:57:01,0.0
-10628,712,10984,-1000,502,-416,2025-02-17 10:57:01,0.0
-11116,592,11516,-902,80,-478,2025-02-17 10:57:01,0.0
-11312,404,11548,-866,-39,-433,2025-02-17 10:57:01,0.0
-11088,284,10952,-1024,-115,-361,2025-02-17 10:57:01,0.0
-10868,-60,11656,-1035,-576,-359,2025-02-17 10:57:01,0.0
-10580,-256,12504,-715,-535,-263,2025-02-17 10:57:01,0.0
-10548,-160,11896,-367,-53,-240,2025-02-17 10:57:01,0.0
-11012,4,11508,-512,191,-1,2025-02-17 10:57:01,0.0
-10612,-196,11512,-583,172,-32,2025-02-17 10:57:01,0.0
-10728,-160,11324,-478,-52,-139,2025-02-17 10:57:01,0.0
-10676,460,11620,-233,305,-195,2025-02-17 10:57:01,0.0
-10616,356,11708,-202,264,-139,2025-02-17 10:57:01,0.0
-10388,372,11656,-209,314,-159,2025-02-17 10:57:01,0.0
-10472,328,11584,-246,500,-236,2025-02-17 10:57:01,0.0
-10836,252,11592,-268,376,-263,2025-02-17 10:57:01,0.0
-10784,116,11616,-354,130,-363,2025-02-17 10:57:01,
-10856,40,11680,-301,242,-266,2025-02-17 10:57:01,0.0
-10800,128,11940,-161,122,-118,2025-02-17 10:57:02,0.0
-10612,104,11764,-167,61,-53,2025-02-17 10:57:02,0.0
-10580,152,11764,-249,194,-99,2025-02-17 10:57:02,0.0
-10552,144,11644,-246,159,-170,2025-02-17 10:57:02,0.0
-10504,136,11556,-198,65,-187,2025-02-17 10:57:02,0.0
-10500,80,11592,-253,-5,-268,2025-02-17 10:57:02,0.0
-11220,592,10916,-206,54,-461,2025-02-17 10:57:02,0.0
-10600,44,11468,-225,-216,-401,2025-02-17 10:57:02,0.0
-10652,156,11964,-232,-260,-236,2025-02-17 10:57:02,0.0
-10180,180,12180,-236,-101,-255,2025-02-17 10:57:02,0.0
-10324,160,11916,-162,101,-326,2025-02-17 10:57:02,0.0
-10416,172,11780,-106,181,-297,2025-02-17 10:57:02,0.0
-10740,56,11772,-55,186,-329,2025-02-17 10:57:02,0.0
-10676,244,11780,-113,157,-362,2025-02-17 10:57:02,0.0
-10712,260,11872,-152,67,-330,2025-02-17 10:57:02,0.0
-10512,256,11812,-145,18,-362,2025-02-17 10:57:02,0.0
-10244,264,11920,14,141,-473,2025-02-17 10:57:02,0.0
-9916,112,12108,485,308,-623,2025-02-17 10:57:02,0.0
-10056,-8,12236,870,435,-851,2025-02-17 10:57:02,0.0
-10644,4,11624,1090,869,-811,2025-02-17 10:57:02,0.0
-10860,340,11300,1280,416,-685,2025-02-17 10:57:02,0.0
-10792,292,10996,1243,78,-739,2025-02-17 10:57:02,0.0
-11060,48,10584,368,534,-194,2025-02-17 10:57:02,0.0
-11104,-28,11028,-273,371,59,2025-02-17 10:57:02,0.0
-11156,-188,11744,-719,447,177,2025-02-17 10:57:02,0.0
-10720,-184,11552,-799,299,5,2025-02-17 10:57:02,0.0
-10448,8,11616,-784,170,-33,2025-02-17 10:57:02,0.0
-9888,128,11280,-806,357,-234,2025-02-17 10:57:02,0.0
-10112,376,11484,-866,701,-205,2025-02-17 10:57:02,0.0
-10860,100,11392,-488,650,-46,2025-02-17 10:57:02,0.0
-11264,456,10944,-514,624,162,2025-02-17 10:57:02,0.0
-11276,316,11252,-400,270,28,2025-02-17 10:57:02,0.0
-10768,184,11292,-250,-164,-277,2025-02-17 10:57:02,0.0
-10928,304,11336,-194,-418,-507,2025-02-17 10:57:02,0.0
-10948,192,11716,160,-462,-438,2025-02-17 10:57:02,0.0
-11788,380,11784,529,-254,103,2025-02-17 10:57:02,0.0
-11224,484,11860,599,-388,466,2025-02-17 10:57:02,0.0
-10620,208,11792,432,-727,443,2025-02-17 10:57:02,0.0
-9904,224,12124,91,-648,327,2025-02-17 10:57:02,0.0
-9088,-52,12136,-361,-271,13,2025-02-17 10:57:02,0.0
-8852,208,12512,-604,220,-231,2025-02-17 10:57:02,0.0
-9240,384,12752,-595,1137,-323,2025-02-17 10:57:02,0.0
-10072,500,13460,-308,1684,-221,2025-02-17 10:57:02,0.0
-10064,432,13048,-167,1678,-22,2025-02-17 10:57:02,0.0
-10240,196,12464,-421,1800,45,2025-02-17 10:57:02,0.0
-10256,228,12612,-545,1639,22,2025-02-17 10:57:02,0.0
-10252,200,11968,-614,1224,-46,2025-02-17 10:57:02,0.0
-10024,376,11684,-718,860,-168,2025-02-17 10:57:02,0.0
-9852,376,11260,-951,834,-239,2025-02-17 10:57:02,0.0
-10344,252,11916,-1162,1231,-487,2025-02-17 10:57:02,0.0
-10720,196,12176,-1090,1644,-557,2025-02-17 10:57:02,0.0
-10724,-84,12932,-989,1702,-534,2025-02-17 10:57:02,0.0
-10804,-212,12812,-822,1551,-264,2025-02-17 10:57:02,0.0
-10112,-236,12308,-618,1443,27,2025-02-17 10:57:02,0.0
-10452,-196,12352,-246,1882,415,2025-02-17 10:57:02,0.0
-10320,-312,11740,-414,2210,254,2025-02-17 10:57:02,0.0
-9832,120,11536,-627,2777,-281,2025-02-17 10:57:02,0.0
-9752,44,11568,-826,3471,-1099,2025-02-17 10:57:02,0.0
-10924,-72,11044,-719,4051,-1415,2025-02-17 10:57:02,0.0
-11652,-68,10924,-636,3780,-1241,2025-02-17 10:57:02,0.0
-11776,-72,10464,-263,2954,-917,2025-02-17 10:57:02,0.0
-11552,112,10032,-507,2271,-738,2025-02-17 10:57:03,0.0
-9936,156,10144,-885,2600,-988,2025-02-17 10:57:03,0.0
-9352,-140,9976,-1467,3841,-1482,2025-02-17 10:57:03,0.0
-10588,-248,10576,-1750,5004,-1653,2025-02-17 10:57:03,0.0
-11740,-68,11452,-1528,5019,-1382,2025-02-17 10:57:03,0.0
-12432,-148,11784,-993,4283,-761,2025-02-17 10:57:03,0.0
-13256,12,10940,-1049,3893,134,2025-02-17 10:57:03,0.0
-7508,-1168,14132,-938,2439,54,2025-02-17 10:57:03,0.0
-13584,76,11664,-1613,2872,1438,2025-02-17 10:57:03,0.0
-7644,-904,15212,-587,4116,1384,2025-02-17 10:57:03,0.0
-14400,-1728,14788,-615,9662,3071,2025-02-17 10:57:03,0.0
-19284,-100,15784,437,13074,2959,2025-02-17 10:57:03,0.0
-15244,640,16188,1592,15232,3477,2025-02-17 10:57:03,0.0
-14596,2408,11316,2473,12895,809,2025-02-17 10:57:03,0.0
-14120,-180,9792,2772,12537,2213,2025-02-17 10:57:03,0.0
-13360,-440,9484,2056,11402,873,2025-02-17 10:57:03,0.0
-14376,-756,8468,1081,9979,138,2025-02-17 10:57:03,0.0
-13660,-1260,9224,221,8247,-214,2025-02-17 10:57:03,0.0
-16196,-944,9656,-162,7809,-344,2025-02-17 10:57:03,0.0
-17080,64,10264,-6,6942,-63,2025-02-17 10:57:03,0.0
-15404,832,9384,700,5930,267,2025-02-17 10:57:03,0.0
-14316,1592,8816,1131,5520,303,2025-02-17 10:57:03,0.0
-13308,1756,7068,1016,6082,321,2025-02-17 10:57:03,0.0
-13004,1804,5500,191,8037,-139,2025-02-17 10:57:03,0.0
-15200,1428,4288,-735,9056,-646,2025-02-17 10:57:03,0.0
-16352,672,3592,-1110,8294,-707,2025-02-17 10:57:03,0.0
-16216,-456,4212,-794,7889,-585,2025-02-17 10:57:03,0.0
-15292,-444,4200,-561,8189,-554,2025-02-17 10:57:03,0.0
-15040,-492,3412,-516,7696,-694,2025-02-17 10:57:03,0.0
-14856,48,3016,-505,7019,-831,2025-02-17 10:57:03,0.0
-14892,280,2424,270,7565,-820,2025-02-17 10:57:03,0.0
-14428,600,480,-429,6854,-1625,2025-02-17 10:57:03,0.0
-14232,1524,1240,-1409,6619,-1886,2025-02-17 10:57:03,0.0
-14032,944,2136,-2016,5829,-2864,2025-02-17 10:57:03,0.0
-14772,308,3492,-3136,7474,-3152,2025-02-17 10:57:03,0.0
-14800,-528,4720,-1710,8989,-3116,2025-02-17 10:57:03,0.0
-14496,-728,2692,477,10824,-2615,2025-02-17 10:57:03,0.0
-15572,-212,1252,902,12464,-2255,2025-02-17 10:57:03,
-14992,592,44,175,12239,-2413,2025-02-17 10:57:03,0.0
-14540,428,-536,-253,10254,-2314,2025-02-17 10:57:03,0.0
-14324,228,-344,-76,7735,-2068,2025-02-17 10:57:03,0.0
-13948,272,-376,685,4840,-1995,2025-02-17 10:57:03,0.0
-12940,-224,-2220,825,814,-2963,2025-02-17 10:57:03,0.0
-10328,-1020,-1912,842,-601,-2618,2025-02-17 10:57:03,0.0
-13284,-1136,-1420,716,-1368,-1061,2025-02-17 10:57:03,0.0
-12492,-1300,-72,959,-1599,71,2025-02-17 10:57:03,0.0
-11556,-1832,488,2325,-1227,620,2025-02-17 10:57:03,0.0
-11140,-1500,160,3237,-513,633,2025-02-17 10:57:03,0.0
-11052,-916,-132,4104,466,-764,2025-02-17 10:57:03,0.0
-12572,-564,-308,4625,309,-1682,2025-02-17 10:57:03,0.0
-13340,-832,-1320,4508,-1022,-2179,2025-02-17 10:57:03,0.0
-13060,-508,-1880,4305,-4304,-2626,2025-02-17 10:57:03,0.0
-12072,-328,-1708,3995,-8948,-3324,2025-02-17 10:57:03,0.0
-10604,-772,104,4441,-13562,-3937,2025-02-17 10:57:03,0.0
-8684,-1112,636,5632,-17267,-3746,2025-02-17 10:57:03,0.0
-7188,-1256,592,6000,-18896,-3691,2025-02-17 10:57:03,0.0
-5296,-992,-328,6116,-15170,-3610,2025-02-17 10:57:03,0.0
-5560,-1536,-644,2078,-7063,-5487,2025-02-17 10:57:03,0.0
-5748,-1444,-56,-140,-578,-5701,2025-02-17 10:57:03,0.0
-8876,-2108,-964,-1002,3715,-5098,2025-02-17 10:57:04,0.0
-11332,-2492,-676,-1487,7796,-3507,2025-02-17 10:57:04,0.0
-12628,-2112,116,-1681,8993,-2190,2025-02-17 10:57:04,0.0
-12612,-2092,1084,-1314,8366,-2103,2025-02-17 10:57:04,0.0
-13208,-2168,984,-1027,6066,-2685,2025-02-17 10:57:04,0.0
-13624,-2916,732,-1246,3800,-2770,2025-02-17 10:57:04,0.0
-13108,-3648,260,-1194,3025,-2956,2025-02-17 10:57:04,0.0
-13680,-4052,48,-1178,2654,-2640,2025-02-17 10:57:04,0.0
-13472,-4456,1348,-63,3699,-1855,2025-02-17 10:57:04,0.0
-14560,-4772,940,827,3875,-931,2025-02-17 10:57:04,0.0
-14612,-3936,1320,1051,3243,-399,2025-02-17 10:57:04,0.0
-14876,-2916,768,834,1858,-207,2025-02-17 10:57:04,0.0
-13440,-2628,572,314,1525,-491,2025-02-17 10:57:04,0.0
-13208,-2268,536,-565,1728,-1452,2025-02-17 10:57:04,0.0
-12612,-2400,1908,-682,2554,-2544,2025-02-17 10:57:04,0.0
-12124,-2812,1140,111,3053,-3717,2025-02-17 10:57:04,0.0
-11836,-2976,-508,476,3314,-4221,2025-02-17 10:57:04,0.0
-12504,-2576,-916,170,5129,-4609,2025-02-17 10:57:04,0.0
-13176,-2544,-1588,-860,6559,-4929,2025-02-17 10:57:04,0.0
-14412,-2576,-848,-2564,7251,-5008,2025-02-17 10:57:04,0.0
-14788,-3328,1220,-3427,7753,-5123,2025-02-17 10:57:04,0.0
-14748,-3648,1216,-3274,9385,-4778,2025-02-17 10:57:04,0.0
-14060,-2680,992,-2517,12156,-4104,2025-02-17 10:57:04,0.0
-13120,-1076,464,-1113,14511,-3723,2025-02-17 10:57:04,0.0
-12736,-336,-52,235,15891,-3379,2025-02-17 10:57:04,0.0
-13140,-632,-368,1206,17048,-3104,2025-02-17 10:57:04,0.0
-13100,-1584,-632,2415,19154,-2887,2025-02-17 10:57:04,0.0
-13452,-2736,-1588,3553,22581,-2545,2025-02-17 10:57:04,0.0
-12644,-3284,-2572,4425,25346,-3180,2025-02-17 10:57:04,0.0
-11420,-3408,-4124,4663,24341,-4256,2025-02-17 10:57:04,0.0
-9684,-3140,-4920,5097,19488,-5678,2025-02-17 10:57:04,0.0
-10264,-2768,-6680,4658,10674,-6401,2025-02-17 10:57:04,0.0
-10224,-2908,-5980,3184,1484,-5584,2025-02-17 10:57:04,0.0
-10964,-3392,-3656,4036,-3883,-5924,2025-02-17 10:57:04,0.0
-11544,-3944,-3808,5887,-4625,-7302,2025-02-17 10:57:04,0.0
-12016,-4828,-5448,6671,-4185,-8874,2025-02-17 10:57:04,0.0
-12600,-5708,-6212,6333,-5025,-9518,2025-02-17 10:57:04,0.0
-11244,-5840,-6204,5623,-7065,-9316,2025-02-17 10:57:04,0.0
-11616,-5416,-5980,4639,-8222,-9204,2025-02-17 10:57:04,0.0
-13052,-5424,-4928,3736,-5873,-8159,2025-02-17 10:57:04,0.0
-13136,-6488,-4028,4525,-758,-8009,2025-02-17 10:57:04,0.0
-11584,-7292,-3932,6364,3553,-8550,2025-02-17 10:57:04,0.0
-9396,-7560,-4820,7675,4201,-9244,2025-02-17 10:57:04,0.0
-6528,-7524,-4588,8231,960,-10502,2025-02-17 10:57:04,0.0
-5140,-7176,-4104,8404,-4148,-12708,2025-02-17 10:57:04,0.0
-4932,-6864,-3052,8614,-8412,-14426,2025-02-17 10:57:04,0.0
-4232,-7328,-3392,8682,-11377,-16306,2025-02-17 10:57:04,0.0
-628,-7480,-2640,8491,-14386,-18929,2025-02-17 10:57:04,0.0
2424,-7660,-404,8535,-17754,-23383,2025-02-17 10:57:04,0.0
2868,-6320,1168,7515,-20351,-27873,2025-02-17 10:57:04,0.0
1344,-4480,2924,6664,-21301,-29903,2025-02-17 10:57:04,0.0
2888,-3496,1324,5147,-23530,-29261,2025-02-17 10:57:04,0.0
1140,-1980,3840,2428,-25154,-29562,2025-02-17 10:57:04,0.0
2204,-1928,1996,-591,-22986,-26874,2025-02-17 10:57:04,0.0
2008,-1852,2112,-1581,-21984,-26508,2025-02-17 10:57:04,0.0
1996,-1920,2060,-2601,-21122,-26089,2025-02-17 10:57:04,0.0
1964,-1932,2000,-3566,-20341,-25613,2025-02-17 10:57:04,0.0
2028,-1808,1952,-4621,-19552,-25076,2025-02-17 10:57:04,0.0
1956,-1844,1680,-5639,-18777,-24482,2025-02-17 10:57:04,0.0
1992,-1872,1720,-6717,-18115,-23857,2025-02-17 10:57:05,0.0
2048,-1684,1736,-7787,-17777,-23211,2025-02-17 10:57:05,0.0
2300,-1784,1752,-8724,-17731,-22691,2025-02-17 10:57:05,0.0
2568,-1680,1448,-10128,-18200,-22055,2025-02-17 10:57:05,0.0
2612,-1688,1736,-11281,-18930,-21591,2025-02-17 10:57:05,0.0
3020,-1800,2188,-12427,-19878,-21303,2025-02-17 10:57:05,0.0
2704,-1648,2548,-13238,-19950,-20629,2025-02-17 10:57:05,0.0
2980,-1724,1888,-14275,-19681,-19797,2025-02-17 10:57:05,0.0
8224,-1680,3736,-15258,-21099,-20739,2025-02-17 10:57:05,0.0
25632,-14676,-11352,-26258,-32768,-27197,2025-02-17 10:57:05,0.0
32767,-32768,-32768,-32768,-32768,-32768,2025-02-17 10:57:05,0.0
32767,-32768,-32768,-32768,-32768,-32768,2025-02-17 10:57:05,0.0
9720,-32768,-32768,-32768,-32768,32767,2025-02-17 10:57:05,0.0
-7028,5048,-32768,-4828,-32768,21272,2025-02-17 10:57:05,0.0
-8932,13664,-32768,10727,-27585,-344,2025-02-17 10:57:05,0.0
-524,-2728,-1892,16725,-28328,-2600,2025-02-17 10:57:05,0.0
-1152,-5664,2572,19727,-20194,-2270,2025-02-17 10:57:05,0.0
-6000,-5844,-2128,18794,-14515,1419,2025-02-17 10:57:05,0.0
-7592,-5984,-5724,12680,-8014,6366,2025-02-17 10:57:05,0.0
-6644,-8576,-9716,4239,-364,10793,2025-02-17 10:57:05,
-6292,-10560,-8976,-5205,3042,12260,2025-02-17 10:57:05,0.0
-12248,-10444,-5068,-9628,8187,9558,2025-02-17 10:57:05,0.0
-14812,-5464,-9260,-7410,14727,4308,2025-02-17 10:57:05,0.0
-9140,-1732,-9480,-2749,19767,-696,2025-02-17 10:57:05,0.0
-4592,-3876,-7136,696,19013,-2615,2025-02-17 10:57:05,0.0
-2408,-7632,-14144,2133,9388,-1749,2025-02-17 10:57:05,0.0
-3172,-8468,-15244,102,-1674,-61,2025-02-17 10:57:05,0.0
-7252,-6836,-10340,-367,-3811,416,2025-02-17 10:57:05,0.0
-7628,-6240,-9404,-35,-1583,187,2025-02-17 10:57:05,0.0
-7116,-6528,-9864,-82,546,-228,2025-02-17 10:57:05,0.0
-6480,-6688,-10704,-287,827,-248,2025-02-17 10:57:05,0.0
-6168,-6704,-11228,-141,359,-206,2025-02-17 10:57:05,0.0
-6176,-6836,-11188,-150,-203,-115,2025-02-17 10:57:05,0.0
-6828,-6624,-9208,-190,-4,-116,2025-02-17 10:57:05,0.0
-6396,-7056,-11548,-227,558,-227,2025-02-17 10:57:05,0.0
-5384,-6740,-11688,-273,155,-124,2025-02-17 10:57:05,0.0
-7300,-6812,-10392,-216,34,-162,2025-02-17 10:57:05,0.0
-8368,-7480,-9856,-1346,868,136,2025-02-17 10:57:05,0.0
-6180,-5056,-12528,631,819,-453,2025-02-17 10:57:05,0.0
-6012,-7456,-11212,790,-909,-259,2025-02-17 10:57:05,0.0
-7348,-7292,-9860,-433,-148,-12,2025-02-17 10:57:05,0.0
-4540,-6332,-8644,-598,451,-510,2025-02-17 10:57:05,0.0
-5592,-6608,-11512,377,516,-361,2025-02-17 10:57:05,0.0
-6604,-7232,-10444,-193,-358,-57,2025-02-17 10:57:05,0.0
-6948,-6588,-10296,-214,435,-193,2025-02-17 10:57:05,0.0
-6112,-6636,-11052,-138,203,-187,2025-02-17 10:57:05,0.0
-6504,-6736,-10508,-118,51,-150,2025-02-17 10:57:05,0.0
-6780,-6632,-10828,-111,458,-204,2025-02-17 10:57:05,0.0
-6308,-6848,-11056,-166,61,-125,2025-02-17 10:57:05,0.0
-6720,-6616,-10604,-197,67,-143,2025-02-17 10:57:05,0.0
-6508,-6776,-10732,-132,281,-194,2025-02-17 10:57:05,0.0
-6400,-6768,-10828,-183,100,-165,2025-02-17 10:57:05,0.0
-6588,-6796,-10716,-191,123,-161,2025-02-17 10:57:05,0.0
-6436,-6632,-10680,-179,246,-189,2025-02-17 10:57:05,0.0
-6504,-6764,-10816,-166,148,-167,2025-02-17 10:57:05,0.0
-6484,-6744,-10660,-143,196,-159,2025-02-17 10:57:05,0.0
-6556,-6696,-10580,-169,225,-195,2025-02-17 10:57:05,0.0
-6532,-6700,-10676,-150,165,-189,2025-02-17 10:57:05,0.0
-6444,-6652,-10732,-123,87,-171,2025-02-17 10:57:05,0.0
-6304,-6772,-10940,-197,40,-134,2025-02-17 10:57:05,0.0
-6592,-6672,-11100,-354,-32,-95,2025-02-17 10:57:06,0.0
-6680,-6420,-11044,-52,126,-181,2025-02-17 10:57:06,0.0
-6568,-6888,-10548,-55,165,-158,2025-02-17 10:57:06,0.0
-6452,-6720,-10752,-142,238,-189,2025-02-17 10:57:06,0.0
-6440,-6644,-10660,-180,16,-151,2025-02-17 10:57:06,0.0
-6680,-6640,-10592,-168,209,-197,2025-02-17 10:57:06,0.0
-6596,-6708,-10576,-254,285,-182,2025-02-17 10:57:06,0.0
-6216,-6696,-11016,-75,298,-188,2025-02-17 10:57:06,0.0
-6100,-6776,-11028,-164,27,-145,2025-02-17 10:57:06,0.0
-6636,-6728,-10684,-196,142,-145,2025-02-17 10:57:06,0.0
-6496,-6672,-10520,-171,119,-187,2025-02-17 10:57:06,0.0
-6736,-6772,-10800,-137,264,-212,2025-02-17 10:57:06,0.0
-6380,-6712,-10684,-142,212,-167,2025-02-17 10:57:06,0.0
-6568,-6640,-10668,-157,208,-177,2025-02-17 10:57:06,0.0
-6420,-6836,-10832,-132,152,-196,2025-02-17 10:57:06,0.0
-6592,-6740,-10624,-142,195,-168,2025-02-17 10:57:06,0.0
-6568,-6744,-10620,-128,172,-145,2025-02-17 10:57:06,0.0
-6580,-6804,-10720,-154,136,-165,2025-02-17 10:57:06,0.0
-6532,-6796,-10764,-169,196,-175,2025-02-17 10:57:06,0.0
-6468,-6784,-10656,-168,162,-167,2025-02-17 10:57:06,0.0
-6512,-6636,-10636,-165,170,-177,2025-02-17 10:57:06,0.0
-6520,-6660,-10748,-153,186,-170,2025-02-17 10:57:06,0.0
-6584,-6732,-10788,-159,191,-171,2025-02-17 10:57:06,0.0
-6548,-6732,-10804,-152,185,-162,2025-02-17 10:57:06,0.0
-6624,-6760,-10612,-161,154,-189,2025-02-17 10:57:06,0.0
-6532,-6708,-10728,-152,194,-157,2025-02-17 10:57:06,0.0
-6548,-6668,-10740,-169,174,-165,2025-02-17 10:57:06,0.0
-6480,-6696,-10844,-158,190,-161,2025-02-17 10:57:06,0.0
-6460,-6752,-10784,-175,175,-174,2025-02-17 10:57:06,0.0
-6468,-6784,-10828,-154,180,-164,2025-02-17 10:57:06,0.0
-6500,-6688,-10676,-157,192,-164,2025-02-17 10:57:06,0.0
-6544,-6708,-10736,-180,188,-176,2025-02-17 10:57:06,0.0
-6532,-6652,-10636,-140,174,-177,2025-02-17 10:57:06,0.0
-6460,-6700,-10792,-177,193,-163,2025-02-17 10:57:06,0.0
-6548,-6792,-10808,-180,190,-172,2025-02-17 10:57:06,0.0
-6568,-6756,-10784,-180,182,-175,2025-02-17 10:57:06,0.0
-6480,-6752,-10804,-162,174,-168,2025-02-17 10:57:06,0.0
-6532,-6640,-10716,-169,199,-169,2025-02-17 10:57:06,0.0
-6564,-6768,-10816,-160,173,-162,2025-02-17 10:57:06,0.0
-6556,-6656,-10664,-158,160,-148,2025-02-17 10:57:06,0.0
-6480,-6652,-10752,-176,196,-190,2025-02-17 10:57:06,0.0
-6412,-6716,-10692,-185,158,-168,2025-02-17 10:57:06,0.0
-6544,-6736,-10844,-132,170,-183,2025-02-17 10:57:06,0.0
-6520,-6728,-10640,-163,163,-180,2025-02-17 10:57:06,0.0
-6556,-6628,-10764,-175,173,-172,2025-02-17 10:57:06,0.0
-6480,-6748,-10796,-173,179,-172,2025-02-17 10:57:07,0.0
-6592,-6672,-10800,-175,171,-188,2025-02-17 10:57:07,0.0
-6584,-6656,-10740,-172,170,-154,2025-02-17 10:57:07,0.0
-6524,-6820,-10760,-147,170,-152,2025-02-17 10:57:07,0.0
-6548,-6780,-10668,-157,177,-160,2025-02-17 10:57:07,0.0
-6440,-6692,-10812,-154,160,-174,2025-02-17 10:57:07,0.0
-6504,-6764,-10728,-160,185,-192,2025-02-17 10:57:07,0.0
-6484,-6696,-10772,-137,192,-150,2025-02-17 10:57:07,0.0
-6484,-6640,-10848,-156,177,-170,2025-02-17 10:57:07,0.0
-6504,-6672,-10844,-170,193,-193,2025-02-17 10:57:07,0.0
-6504,-6680,-10792,-153,160,-186,2025-02-17 10:57:07,0.0
-6480,-6708,-10832,-171,182,-180,2025-02-17 10:57:07,0.0
-6444,-6740,-10724,-160,160,-187,2025-02-17 10:57:07,0.0
-6480,-6740,-10736,-170,166,-184,2025-02-17 10:57:07,0.0
-6424,-6732,-10660,-167,164,-188,2025-02-17 10:57:07,
-6464,-6684,-10852,-178,182,-185,2025-02-17 10:57:07,0.0
-6524,-6644,-10724,-165,189,-180,2025-02-17 10:57:07,0.0
-6560,-6772,-10672,-170,187,-184,2025-02-17 10:57:07,0.0
-6620,-6660,-10632,-141,152,-146,2025-02-17 10:57:07,0.0
-6476,-6668,-10764,-180,168,-164,2025-02-17 10:57:07,0.0
-6508,-6676,-10752,-187,173,-171,2025-02-17 10:57:07,0.0
-6556,-6640,-10680,-177,193,-180,2025-02-17 10:57:07,0.0
-6536,-6752,-10696,-173,160,-138,2025-02-17 10:57:07,0.0
-6508,-6756,-10672,-137,189,-180,2025-02-17 10:57:07,0.0
-6520,-6708,-10904,-152,169,-175,2025-02-17 10:57:07,0.0
-6552,-6676,-10652,-131,188,-192,2025-02-17 10:57:07,0.0
-6488,-6768,-10616,-160,162,-161,2025-02-17 10:57:07,0.0
-6576,-6784,-10832,-150,177,-169,2025-02-17 10:57:07,0.0
-6500,-6748,-10708,-155,175,-167,2025-02-17 10:57:07,0.0
-6492,-6596,-10872,-154,178,-185,2025-02-17 10:57:07,0.0
-6460,-6740,-10644,-181,176,-154,2025-02-17 10:57:07,0.0
-6504,-6804,-10820,-177,168,-169,2025-02-17 10:57:07,0.0
-6552,-6692,-10740,-156,181,-184,2025-02-17 10:57:07,0.0
-6456,-6664,-10716,-174,167,-185,2025-02-17 10:57:07,0.0
-6480,-6732,-10808,-157,196,-163,2025-02-17 10:57:07,0.0
-6488,-6676,-10612,-167,169,-181,2025-02-17 10:57:07,0.0
-6492,-6704,-10632,-153,200,-180,2025-02-17 10:57:07,0.0
-6548,-6708,-10896,-162,172,-180,2025-02-17 10:57:07,0.0
-6592,-6732,-10748,-143,202,-182,2025-02-17 10:57:07,0.0
-6636,-6736,-10688,-139,186,-169,2025-02-17 10:57:07,0.0
-6584,-6688,-10696,-183,209,-171,2025-02-17 10:57:07,0.0
-6524,-6772,-10788,-139,186,-166,2025-02-17 10:57:07,0.0
-6624,-6740,-10692,-152,208,-173,2025-02-17 10:57:07,0.0
-6500,-6728,-10772,-175,164,-177,2025-02-17 10:57:07,0.0
-6420,-6628,-10760,-151,159,-161,2025-02-17 10:57:07,0.0
-6508,-6732,-10836,-186,162,-176,2025-02-17 10:57:07,0.0
-6620,-6688,-10668,-178,181,-149,2025-02-17 10:57:07,0.0
-6644,-6792,-10752,-170,198,-183,2025-02-17 10:57:07,0.0
-6520,-6768,-10760,-200,179,-195,2025-02-17 10:57:07,0.0
-6552,-6836,-10760,-205,299,-199,2025-02-17 10:57:07,0.0
-6700,-6592,-10896,-273,304,-134,2025-02-17 10:57:07,0.0
-6580,-6536,-10868,-306,225,-154,2025-02-17 10:57:07,0.0
-6520,-6720,-10704,-363,278,-93,2025-02-17 10:57:07,0.0
-6584,-6720,-10680,-336,225,-98,2025-02-17 10:57:07,0.0
-6564,-6796,-10704,-47,207,-219,2025-02-17 10:57:07,0.0
-6016,-6840,-10824,-75,5,-85,2025-02-17 10:57:07,0.0
-6776,-6684,-10796,-188,-228,45,2025-02-17 10:57:07,0.0
-6944,-6512,-10744,-133,154,-163,2025-02-17 10:57:07,0.0
-6468,-6852,-10440,-75,302,-221,2025-02-17 10:57:07,0.0
-6244,-6800,-11228,-117,113,-172,2025-02-17 10:57:07,0.0
-6332,-6812,-10704,-5,-60,-175,2025-02-17 10:57:07,0.0
-6680,-6652,-10712,-38,-234,51,2025-02-17 10:57:07,0.0
-6788,-6764,-10676,-207,-168,-117,2025-02-17 10:57:08,0.0
-6600,-6712,-10664,-45,298,-207,2025-02-17 10:57:08,0.0
-6448,-6668,-10536,31,381,-298,2025-02-17 10:57:08,0.0
-6752,-6572,-10544,234,534,-322,2025-02-17 10:57:08,0.0
-6548,-6840,-10596,345,311,-330,2025-02-17 10:57:08,0.0
-6584,-6696,-10256,559,306,-352,2025-02-17 10:57:08,0.0
-6516,-6544,-10848,1067,412,-459,2025-02-17 10:57:08,0.0
-6436,-6504,-10348,1485,568,-593,2025-02-17 10:57:08,0.0
-6588,-6872,-10956,2141,1707,-968,2025-02-17 10:57:08,0.0
-6412,-6712,-10368,3357,3180,-1704,2025-02-17 10:57:08,0.0
-6216,-7028,-10504,3885,4461,-2054,2025-02-17 10:57:08,0.0
-5792,-7076,-10292,5749,5677,-3006,2025-02-17 10:57:08,0.0
-5036,-7540,-11052,8591,7952,-4945,2025-02-17 10:57:08,0.0
-6384,-7300,-11672,10562,11064,-7688,2025-02-17 10:57:08,0.0
-6120,-8672,-11912,9629,9956,-7225,2025-02-17 10:57:08,0.0
-4152,-9536,-11556,8539,6031,-5731,2025-02-17 10:57:08,0.0
-3056,-8916,-9212,8091,3040,-4222,2025-02-17 10:57:08,0.0
-3400,-8756,-8708,8645,2357,-4565,2025-02-17 10:57:08,0.0
-4176,-9552,-9404,9827,3383,-5545,2025-02-17 10:57:08,0.0
-3684,-11104,-10760,12093,5244,-8233,2025-02-17 10:57:08,0.0
-4712,-12736,-10844,13905,5459,-9613,2025-02-17 10:57:08,0.0
-1492,-12224,-7812,17732,5197,-11162,2025-02-17 10:57:08,0.0
-3152,-11708,-9860,20584,3398,-11220,2025-02-17 10:57:08,0.0
-3828,-11560,-10904,17038,2990,-9013,2025-02-17 10:57:08,0.0
-1808,-12104,-7964,15458,2482,-9269,2025-02-17 10:57:08,0.0
-2096,-13276,-6408,16721,2035,-11075,2025-02-17 10:57:08,0.0
-2392,-14444,-8244,17666,1471,-11585,2025-02-17 10:57:08,0.0
-1008,-15616,-6856,18328,755,-11406,2025-02-17 10:57:08,0.0
232,-16068,-5388,19453,630,-11695,2025-02-17 10:57:08,0.0
424,-16556,-4232,21063,605,-12109,2025-02-17 10:57:08,0.0
-508,-17304,-2176,22095,754,-11854,2025-02-17 10:57:08,0.0
416,-18804,-2440,22677,1114,-11647,2025-02-17 10:57:08,0.0
376,-21600,-2696,23868,3370,-11088,2025-02-17 10:57:08,0.0
472,-23404,-3528,22727,6171,-10472,2025-02-17 10:57:08,0.0
0,-24644,-1748,21091,9850,-9623,2025-02-17 10:57:08,0.0
1656,-25564,-144,21121,13209,-9441,2025-02-17 10:57:08,0.0
-172,-23924,836,21344,14251,-9873,2025-02-17 10:57:08,0.0
676,-24524,376,21818,18630,-7127,2025-02-17 10:57:08,0.0
824,-23532,-92,20895,21122,-5069,2025-02-17 10:57:08,0.0
1400,-22972,-768,18866,23309,-3267,2025-02-17 10:57:08,0.0
1352,-22704,-912,16207,25110,-2089,2025-02-17 10:57:08,0.0
1840,-22676,-856,13545,26467,-1817,2025-02-17 10:57:08,0.0
968,-22884,-720,10743,27876,-948,2025-02-17 10:57:08,0.0
1080,-22656,-88,7139,27788,692,2025-02-17 10:57:08,0.0
2116,-22404,-1260,3705,26416,1223,2025-02-17 10:57:08,0.0
2228,-21652,-1584,670,24591,1051,2025-02-17 10:57:08,0.0
1304,-21812,-564,-1354,23077,1931,2025-02-17 10:57:08,0.0
2624,-21784,-1296,-4330,21033,2200,2025-02-17 10:57:08,0.0
2468,-21764,-1140,-7473,18353,2161,2025-02-17 10:57:08,0.0
1928,-22556,504,-8990,15812,2639,2025-02-17 10:57:08,0.0
3240,-23260,484,-10091,14536,1220,2025-02-17 10:57:08,0.0
3156,-24508,632,-11046,14228,-1779,2025-02-17 10:57:08,0.0
1476,-23904,1960,-10677,13984,-3189,2025-02-17 10:57:08,
876,-21996,2712,-9243,13277,-2850,2025-02-17 10:57:08,0.0
1956,-19396,2540,-7665,13241,-2494,2025-02-17 10:57:08,0.0
2184,-18336,2008,-6964,13813,-2799,2025-02-17 10:57:08,0.0
924,-18008,1388,-6767,13861,-1972,2025-02-17 10:57:08,0.0
260,-16780,3380,-5260,13668,-1201,2025-02-17 10:57:08,0.0
1620,-15208,3528,-1542,13324,-1398,2025-02-17 10:57:08,0.0
-2108,-14120,4600,1374,12705,210,2025-02-17 10:57:08,0.0
1256,-15452,2068,3023,11379,1871,2025-02-17 10:57:08,0.0
3144,-13652,3528,4955,8482,1809,2025-02-17 10:57:08,0.0
1096,-17004,972,4308,4892,1830,2025-02-17 10:57:08,0.0
4600,-14820,1520,5540,798,2380,2025-02-17 10:57:09,0.0
2880,-14104,628,3733,-3192,2782,2025-02-17 10:57:09,0.0
2496,-14128,820,2501,-5215,3597,2025-02-17 10:57:09,0.0
2216,-14224,1300,2600,-6127,3636,2025-02-17 10:57:09,0.0
1748,-14200,388,1586,-6824,3656,2025-02-17 10:57:09,0.0
1612,-14064,-24,-259,-7606,3790,2025-02-17 10:57:09,0.0
1672,-13856,892,-1406,-8184,4188,2025-02-17 10:57:09,0.0
1464,-14028,824,-2409,-8366,5017,2025-02-17 10:57:09,0.0
1148,-13092,1428,-2865,-8258,6446,2025-02-17 10:57:09,0.0
1760,-12228,1584,-2589,-7889,7450,2025-02-17 10:57:09,0.0
2292,-12200,2004,-1819,-7167,7380,2025-02-17 10:57:09,0.0
2416,-12452,2016,-842,-6223,6507,2025-02-17 10:57:09,0.0
2388,-12180,2168,30,-5133,5540,2025-02-17 10:57:09,0.0
2112,-12244,2156,993,-3956,4801,2025-02-17 10:57:09,0.0
1920,-12012,1288,1455,-2574,4249,2025-02-17 10:57:09,0.0
1740,-11308,1196,1364,-1567,3914,2025-02-17 10:57:09,0.0
2192,-11268,840,1183,-1110,3646,2025-02-17 10:57:09,0.0
2196,-11728,916,829,-1002,2988,2025-02-17 10:57:09,0.0
2148,-11352,1112,798,-984,2444,2025-02-17 10:57:09,0.0
1580,-10768,464,357,-909,2265,2025-02-17 10:57:09,0.0
1564,-10784,512,-336,-973,2443,2025-02-17 10:57:09,0.0
1524,-10712,576,-866,-991,2711,2025-02-17 10:57:09,0.0
852,-10528,740,-1290,-959,3761,2025-02-17 10:57:09,0.0
-2720,-12968,-48,-2148,-858,6473,2025-02-17 10:57:09,0.0
-4384,-14624,-1032,-3769,-63,9532,2025-02-17 10:57:09,0.0
-4376,-14260,744,-4400,425,11963,2025-02-17 10:57:09,0.0
-2432,-12260,4052,-3172,842,11527,2025-02-17 10:57:09,0.0
-5580,-11056,5388,-1761,1586,12539,2025-02-17 10:57:09,0.0
-7044,-10764,7492,629,4457,17372,2025-02-17 10:57:09,0.0
-1068,-11128,6380,2403,5511,18735,2025-02-17 10:57:09,0.0
-2392,-11740,5812,3771,4682,19306,2025-02-17 10:57:09,0.0
-3348,-11708,5044,5560,3374,20727,2025-02-17 10:57:09,0.0
-3184,-11076,4252,7119,2253,21244,2025-02-17 10:57:09,0.0
-4856,-11452,3580,8057,1273,21924,2025-02-17 10:57:09,0.0
-6316,-11540,2276,7984,429,23249,2025-02-17 10:57:09,0.0
-7756,-11540,3676,8787,35,24889,2025-02-17 10:57:09,0.0
-8072,-11368,6180,11243,-432,26513,2025-02-17 10:57:09,0.0
-7604,-10864,7796,14770,-719,26786,2025-02-17 10:57:09,0.0
-7716,-10592,7416,17078,-34,25755,2025-02-17 10:57:09,0.0
-8860,-10424,6704,19358,2386,23965,2025-02-17 10:57:09,0.0
-9408,-10040,5428,21739,6688,21101,2025-02-17 10:57:09,0.0
-10468,-8764,1672,20371,12034,18817,2025-02-17 10:57:09,0.0
-10508,-6724,2016,17524,18989,18107,2025-02-17 10:57:09,0.0
-9328,-5008,2776,17644,25038,17008,2025-02-17 10:57:09,0.0
-9176,-3384,2136,18013,31028,15867,2025-02-17 10:57:09,0.0
-11764,-2736,1608,17329,32767,17687,2025-02-17 10:57:09,0.0
-13524,-2864,-1568,15497,32767,18638,2025-02-17 10:57:09,0.0
-12200,-3752,-3304,12193,32767,17751,2025-02-17 10:57:09,0.0
-11608,-3224,-3480,10608,32767,16215,2025-02-17 10:57:09,0.0
-11200,-2560,-6504,8844,32767,14930,2025-02-17 10:57:09,0.0
-10388,-2044,-7780,6334,32767,12934,2025-02-17 10:57:09,0.0
-11760,-1228,-7792,4722,30958,12258,2025-02-17 10:57:09,0.0
-11432,-1308,-9148,3371,22855,11423,2025-02-17 10:57:09,0.0
-12052,-1812,-9016,2487,14430,9625,2025-02-17 10:57:09,0.0
-13540,-1744,-9648,1743,7479,8388,2025-02-17 10:57:09,0.0
-14548,-1424,-9916,1227,1832,7318,2025-02-17 10:57:09,0.0
-15500,-1424,-9488,183,-3391,6440,2025-02-17 10:57:09,0.0
-15360,-1556,-8824,-581,-8516,6376,2025-02-17 10:57:09,0.0
-12216,-1584,-7580,-1569,-14430,5254,2025-02-17 10:57:09,0.0
-12288,-1772,-5700,-3753,-20510,2596,2025-02-17 10:57:09,0.0
-14808,284,-2628,-5642,-23462,486,2025-02-17 10:57:09,0.0
-13456,632,-3080,-4705,-23807,-125,2025-02-17 10:57:09,0.0
-14384,-832,-4972,-3552,-25671,135,2025-02-17 10:57:10,0.0
-11024,-1356,-2176,-3984,-31202,276,2025-02-17 10:57:10,0.0
-11264,292,-424,-2668,-32768,1210,2025-02-17 10:57:10,0.0
-11808,172,3272,-545,-32768,826,2025-02-17 10:57:10,0.0
-18240,-1524,3032,2468,-32768,1785,2025-02-17 10:57:10,0.0
-5596,-1396,-628,-2150,-2649,1566,2025-02-17 10:57:10,0.0
-8104,-1052,1356,-505,5555,588,2025-02-17 10:57:10,0.0
-11164,-1156,-120,943,11466,1409,2025-02-17 10:57:10,0.0
-12640,-372,116,1187,11798,952,2025-02-17 10:57:10,0.0
-14296,560,-468,-113,8070,-1046,2025-02-17 10:57:10,0.0
-16556,464,28,-793,4331,-1233,2025-02-17 10:57:10,0.0
-15912,-436,780,498,-829,-1029,2025-02-17 10:57:10,0.0
-14060,-240,-636,1468,-4128,-886,2025-02-17 10:57:10,0.0
-12784,-52,-1316,1717,-4266,-1300,2025-02-17 10:57:10,0.0
-12476,-264,-1348,1504,-1984,-1915,2025-02-17 10:57:10,0.0
-12892,-412,-1244,1124,-86,-2039,2025-02-17 10:57:10,0.0
-14980,-880,-1012,1400,144,-1381,2025-02-17 10:57:10,0.0
-14312,-716,-2176,363,-721,-653,2025-02-17 10:57:10,0.0
-12584,-780,-1912,-348,-1675,-1169,2025-02-17 10:57:10,0.0
-12852,-796,-2076,-515,-1717,-1385,2025-02-17 10:57:10,0.0
-11544,-1016,-1856,-519,-801,-1549,2025-02-17 10:57:10,0.0
-12444,-988,-1884,-444,117,-1484,2025-02-17 10:57:10,0.0
-11492,-852,-3132,-1275,756,-198,2025-02-17 10:57:10,0.0
-11684,-656,-3012,-2411,1557,615,2025-02-17 10:57:10,0.0
-9656,-792,-2076,-2733,2470,-242,2025-02-17 10:57:10,0.0
-10872,-764,-2808,-2774,2598,-637,2025-02-17 10:57:10,0.0
-10900,-1404,-1008,-2300,2875,431,2025-02-17 10:57:10,0.0
-9120,-888,216,-620,3013,1521,2025-02-17 10:57:10,
-9176,-208,-784,-156,3620,1601,2025-02-17 10:57:10,0.0
-8628,72,1256,878,3990,1062,2025-02-17 10:57:10,0.0
-10320,200,404,1845,4347,742,2025-02-17 10:57:10,0.0
-10720,340,-1236,1564,4185,783,2025-02-17 10:57:10,0.0
-11228,560,-1300,737,3096,417,2025-02-17 10:57:10,0.0
-9524,-8,-924,37,1415,17,2025-02-17 10:57:10,0.0
-10820,-188,752,325,1298,-255,2025-02-17 10:57:10,0.0
-10912,-200,400,252,1940,-300,2025-02-17 10:57:10,0.0
-10916,-220,-448,-367,3196,-51,2025-02-17 10:57:10,0.0
-11376,-332,-192,-817,3960,-265,2025-02-17 10:57:10,0.0
-12644,124,176,-1147,3546,45,2025-02-17 10:57:10,0.0
-13156,348,1192,-844,2443,737,2025-02-17 10:57:10,0.0
-13488,192,804,-896,139,988,2025-02-17 10:57:10,0.0
-14540,-736,568,-927,-1932,1517,2025-02-17 10:57:10,0.0
-12632,-1388,904,-409,-3639,2134,2025-02-17 10:57:10,0.0
-13192,-868,768,-438,-3986,2160,2025-02-17 10:57:10,0.0
-13764,0,1328,-742,-3791,2586,2025-02-17 10:57:10,0.0
-15420,1204,1140,-936,-4998,2976,2025-02-17 10:57:10,0.0
-14020,1788,240,-1039,-6550,2845,2025-02-17 10:57:10,0.0
-13540,1780,444,-1414,-6807,2866,2025-02-17 10:57:10,0.0
-13976,1436,452,-1995,-6222,2840,2025-02-17 10:57:10,0.0
-13064,884,608,-2818,-6182,2041,2025-02-17 10:57:10,0.0
-14332,808,1464,-3081,-6582,1386,2025-02-17 10:57:10,0.0
-14800,836,2480,-2561,-7627,1641,2025-02-17 10:57:10,0.0
-13416,404,2128,-2134,-8339,2339,2025-02-17 10:57:10,0.0
-13520,16,2352,-1436,-9262,2563,2025-02-17 10:57:10,0.0
-14176,616,3184,-1134,-9053,2067,2025-02-17 10:57:10,0.0
-13296,384,3452,-642,-9504,811,2025-02-17 10:57:10,0.0
-15732,420,3644,-385,-9875,97,2025-02-17 10:57:10,0.0
-17516,184,3732,150,-10309,960,2025-02-17 10:57:10,0.0
-15116,1068,4976,1418,-11785,1322,2025-02-17 10:57:10,0.0
-12896,1920,4892,2011,-12989,964,2025-02-17 10:57:10,0.0
-13396,1168,3524,1257,-11870,172,2025-02-17 10:57:11,0.0
-14052,1432,3040,885,-10797,-197,2025-02-17 10:57:11,0.0
-16344,1864,2968,706,-9989,51,2025-02-17 10:57:11,0.0
-16212,1892,3212,641,-10148,750,2025-02-17 10:57:11,0.0
-14080,1608,4124,757,-10205,943,2025-02-17 10:57:11,0.0
-12760,2112,4532,574,-10090,1046,2025-02-17 10:57:11,0.0
-13052,2576,5124,-94,-10239,982,2025-02-17 10:57:11,0.0
-14220,2484,7972,-1234,-10886,519,2025-02-17 10:57:11,0.0
-20208,1460,14180,-2496,-9712,-457,2025-02-17 10:57:11,0.0
-11752,64,11144,-1876,-1112,-1638,2025-02-17 10:57:11,0.0
-11616,-468,9652,-1935,-1962,-1811,2025-02-17 10:57:11,0.0
-12128,-500,9836,-1848,-1774,-1732,2025-02-17 10:57:11,0.0
-12224,-708,10540,-1678,-1957,-1501,2025-02-17 10:57:11,0.0
-11232,128,10692,-1234,-2711,-1587,2025-02-17 10:57:11,0.0
-11164,448,10644,-1189,-3368,-2160,2025-02-17 10:57:11,0.0
-11388,696,11756,-1103,-4227,-2436,2025-02-17 10:57:11,0.0
-10820,408,11072,-1066,-4388,-2204,2025-02-17 10:57:11,0.0
-10796,588,10460,-1217,-4206,-1974,2025-02-17 10:57:11,0.0
-10808,-252,10824,-1261,-3846,-1775,2025-02-17 10:57:11,0.0
-11668,-868,11268,-887,-3621,-1314,2025-02-17 10:57:11,0.0
-11568,-872,12200,-127,-3399,-894,2025-02-17 10:57:11,0.0
-11332,-580,11296,282,-3176,-1000,2025-02-17 10:57:11,0.0
-12216,208,11020,571,-3255,-570,2025-02-17 10:57:11,0.0
-11008,516,8692,517,-3046,-176,2025-02-17 10:57:11,0.0
-11868,844,10128,278,-2850,495,2025-02-17 10:57:11,0.0
-11172,588,10272,-19,-3391,402,2025-02-17 10:57:11,0.0
-10988,292,10876,-113,-3475,461,2025-02-17 10:57:11,0.0
-10396,28,11072,-54,-3154,374,2025-02-17 10:57:11,0.0
-10176,-16,11028,83,-2400,180,2025-02-17 10:57:11,0.0
-10368,-200,11260,-192,-1681,-61,2025-02-17 10:57:11,0.0
-10544,128,12160,-156,-1810,-169,2025-02-17 10:57:11,0.0
-10104,260,12708,-13,-1538,-262,2025-02-17 10:57:11,0.0
-9652,284,13336,488,-1226,-188,2025-02-17 10:57:11,0.0
-8884,552,11596,282,-444,-484,2025-02-17 10:57:11,0.0
-9900,432,12128,81,266,-725,2025-02-17 10:57:11,0.0
-7964,-112,10616,162,340,-1073,2025-02-17 10:57:11,0.0
-10260,432,11828,-21,567,-1331,2025-02-17 10:57:11,0.0
-10880,376,10940,-328,1207,-1147,2025-02-17 10:57:11,0.0
-13480,304,13516,-228,1560,-481,2025-02-17 10:57:11,0.0
-13104,-172,12340,-108,412,443,2025-02-17 10:57:11,0.0
-12028,124,11896,343,-351,909,2025-02-17 10:57:11,0.0
-10632,496,10572,-121,-619,844,2025-02-17 10:57:11,0.0
-9656,804,10488,-1293,-95,-86,2025-02-17 10:57:11,0.0
-9812,896,10808,-1863,387,-669,2025-02-17 10:57:11,0.0
-9956,524,10968,-1773,434,-715,2025-02-17 10:57:11,0.0
-10580,624,11196,-1541,1064,-774,2025-02-17 10:57:11,0.0
-10884,496,11272,-1522,1432,-916,2025-02-17 10:57:11,0.0
-11468,392,12972,-991,1546,-1022,2025-02-17 10:57:11,0.0
-11444,212,10964,-716,806,-976,2025-02-17 10:57:11,0.0
-11708,-144,10860,-635,82,-699,2025-02-17 10:57:11,0.0
-11540,-276,10760,-702,135,-610,2025-02-17 10:57:11,0.0
-11096,172,10268,-1042,-70,-163,2025-02-17 10:57:11,0.0
-11328,-244,10684,-911,41,-260,2025-02-17 10:57:11,0.0
-12496,-568,11084,-658,-98,394,2025-02-17 10:57:12,0.0
-10804,-164,11644,-519,-593,299,2025-02-17 10:57:12,0.0
-10848,64,11244,-228,-749,130,2025-02-17 10:57:12,0.0
-10228,188,11172,-414,-332,-148,2025-02-17 10:57:12,0.0
-10084,-60,11352,-494,102,-314,2025-02-17 10:57:12,0.0
-10684,-500,11236,-617,602,-433,2025-02-17 10:57:12,0.0
-11372,-724,11432,-356,435,-187,2025-02-17 10:57:12,0.0
-11484,-736,11712,-191,133,-108,2025-02-17 10:57:12,0.0
-11136,-712,11480,-193,-5,-167,2025-02-17 10:57:12,0.0
-10700,-524,11608,-177,71,-245,2025-02-17 10:57:12,0.0
-10720,-300,11416,-121,268,-296,2025-02-17 10:57:12,0.0
-10952,-284,11436,5,416,-220,2025-02-17 10:57:12,0.0
-10880,-320,11356,62,448,-167,2025-02-17 10:57:12,0.0
-11216,-304,11436,136,383,-32,2025-02-17 10:57:12,0.0
-11132,-240,11596,162,266,-120,2025-02-17 10:57:12,
-10972,-212,11604,213,135,-240,2025-02-17 10:57:12,0.0
-10976,-128,11508,119,308,-368,2025-02-17 10:57:12,0.0
-10768,16,11448,-21,382,-523,2025-02-17 10:57:12,0.0
-11000,8,11508,-29,706,-358,2025-02-17 10:57:12,0.0
-11136,92,11432,-1,739,-314,2025-02-17 10:57:12,0.0
-11228,252,10976,64,647,-132,2025-02-17 10:57:12,0.0
-10912,224,10492,128,186,-107,2025-02-17 10:57:12,0.0
-10860,28,10368,182,-144,-233,2025-02-17 10:57:12,0.0
-10720,-20,10700,-47,-450,-329,2025-02-17 10:57:12,0.0
-10348,-128,11044,-170,-281,-502,2025-02-17 10:57:12,0.0
-10984,244,11232,-67,-128,-347,2025-02-17 10:57:12,0.0
-10812,180,11148,-29,185,-100,2025-02-17 10:57:12,0.0
-11036,-40,11472,39,324,33,2025-02-17 10:57:12,0.0
-11192,0,10976,-54,361,-35,2025-02-17 10:57:12,0.0
-11344,-100,10864,-160,14,28,2025-02-17 10:57:12,0.0
-11020,40,10960,-214,-284,-115,2025-02-17 10:57:12,0.0
-10840,368,10780,-336,-305,-195,2025-02-17 10:57:12,0.0
-11128,508,11368,-389,-149,-55,2025-02-17 10:57:12,0.0
-10608,24,11476,-353,-172,-233,2025-02-17 10:57:12,0.0
-10888,-204,11748,-424,106,-200,2025-02-17 10:57:12,0.0
-10952,-76,11688,-389,267,-149,2025-02-17 10:57:12,0.0
-11060,-216,11692,-373,332,-60,2025-02-17 10:57:12,0.0
-10988,-172,11368,-309,328,-98,2025-02-17 10:57:12,0.0
-11480,-288,12756,-362,347,-96,2025-02-17 10:57:12,0.0
-11024,-216,11432,-381,233,-97,2025-02-17 10:57:12,0.0
-10792,-288,11296,-280,323,-37,2025-02-17 10:57:12,0.0
-10836,-192,11320,-257,335,30,2025-02-17 10:57:12,0.0
-10900,-272,11336,-290,312,-49,2025-02-17 10:57:12,0.0
-10836,-300,11292,-261,349,-52,2025-02-17 10:57:12,0.0
-10888,-216,11312,-265,435,-25,2025-02-17 10:57:12,0.0
-11224,-176,11376,-312,620,-49,2025-02-17 10:57:12,0.0
-10620,-164,11168,-424,537,-111,2025-02-17 10:57:12,0.0
-10720,-32,10980,-464,476,-67,2025-02-17 10:57:12,0.0
-10844,-116,11336,-489,472,-21,2025-02-17 10:57:12,0.0
-10656,-176,11424,-334,535,-87,2025-02-17 10:57:12,0.0
-10800,148,11324,-137,651,-254,2025-02-17 10:57:12,0.0
-10760,-52,8900,217,622,-486,2025-02-17 10:57:12,0.0
-11092,380,10620,-19,88,-768,2025-02-17 10:57:12,0.0
-11096,856,10916,101,-584,-578,2025-02-17 10:57:12,0.0
-10708,788,10316,-67,-1132,-532,2025-02-17 10:57:12,0.0
-11380,112,10776,-524,-1195,-678,2025-02-17 10:57:12,0.0
-10896,-532,10996,-856,-951,-826,2025-02-17 10:57:12,0.0
-11340,-1008,10824,-934,-621,-631,2025-02-17 10:57:12,0.0
-11360,-1156,10780,-681,-422,-319,2025-02-17 10:57:12,0.0
-11396,-804,11776,-162,-986,212,2025-02-17 10:57:12,0.0
-10344,-528,11352,31,-1088,429,2025-02-17 10:57:12,0.0
-9920,-640,11240,151,-481,421,2025-02-17 10:57:13,0.0
-10404,-956,12132,285,274,398,2025-02-17 10:57:13,0.0
-11416,-800,11972,653,653,712,2025-02-17 10:57:13,0.0
-11060,-388,11320,720,472,738,2025-02-17 10:57:13,0.0
-10984,0,11224,910,-66,664,2025-02-17 10:57:13,0.0
-11276,52,11464,1140,-5,797,2025-02-17 10:57:13,0.0
-10588,100,11340,1192,150,807,2025-02-17 10:57:13,0.0
-10516,48,11928,1251,350,428,2025-02-17 10:57:13,0.0
-10700,-44,11256,1148,518,565,2025-02-17 10:57:13,0.0
-10188,-20,11384,1321,781,536,2025-02-17 10:57:13,0.0
-10528,112,11776,1567,1187,727,2025-02-17 10:57:13,0.0
-9648,656,11220,1458,1116,310,2025-02-17 10:57:13,0.0
-10448,1292,11488,126,1101,-452,2025-02-17 10:57:13,0.0
-9780,1208,11948,-444,1504,-291,2025-02-17 10:57:13,0.0
-10976,1244,11704,-595,2121,229,2025-02-17 10:57:13,0.0
-7752,568,12848,-526,2336,27,2025-02-17 10:57:13,0.0
-9728,440,13052,-117,2535,-94,2025-02-17 10:57:13,0.0
-9832,448,12268,-102,2684,-352,2025-02-17 10:57:13,0.0
-11128,708,10804,-160,2777,-765,2025-02-17 10:57:13,0.0
-10676,272,11592,224,2550,-534,2025-02-17 10:57:13,0.0
-10596,320,10624,123,1757,-771,2025-02-17 10:57:13,0.0
-10984,536,11268,-424,1289,-1043,2025-02-17 10:57:13,0.0
-9612,320,11784,-937,1482,-1401,2025-02-17 10:57:13,0.0
-8836,160,11304,-1404,2987,-2039,2025-02-17 10:57:13,0.0
-9804,208,11236,-1546,4829,-2288,2025-02-17 10:57:13,0.0
-11392,28,11760,-1325,5775,-2125,2025-02-17 10:57:13,0.0
-12164,200,10688,-1408,5837,-2237,2025-02-17 10:57:13,0.0
-12560,272,9700,-1848,5591,-2113,2025-02-17 10:57:13,0.0
-12196,-4,8968,-2348,5411,-1827,2025-02-17 10:57:13,0.0
-12844,-616,9564,-2672,5447,-1345,2025-02-17 10:57:13,0.0
-13252,-1180,10952,-2508,5902,-792,2025-02-17 10:57:13,0.0
-12392,-1668,10228,-2361,6792,-223,2025-02-17 10:57:13,0.0
-12180,-1684,10192,-2140,7863,508,2025-02-17 10:57:13,0.0
-8776,-2252,10996,-2359,9702,1014,2025-02-17 10:57:13,0.0
-13008,-1584,9364,-2178,9779,1665,2025-02-17 10:57:13,0.0
-15172,-2384,13392,-2435,12825,2674,2025-02-17 10:57:13,0.0
-17272,-2056,16084,-1962,15628,4016,2025-02-17 10:57:13,0.0
-17988,-3068,16584,506,17522,4455,2025-02-17 10:57:13,0.0
-14612,344,14940,1989,17782,925,2025-02-17 10:57:13,0.0
-16396,3236,9408,1898,16585,-744,2025-02-17 10:57:13,0.0
-17668,2056,6592,41,13221,320,2025-02-17 10:57:13,0.0
-17768,2520,1704,-1029,9958,645,2025-02-17 10:57:13,0.0
-14732,492,6428,-2012,9159,1389,2025-02-17 10:57:13,0.0
-16828,192,6976,-1454,8723,1420,2025-02-17 10:57:13,0.0
-17040,-308,5916,-735,7501,1814,2025-02-17 10:57:13,0.0
-14324,-324,4180,187,5836,968,2025-02-17 10:57:13,0.0
-14096,-68,3164,617,4783,351,2025-02-17 10:57:13,0.0
-15028,-84,2548,554,4840,402,2025-02-17 10:57:13,0.0
-15344,384,2656,462,6719,902,2025-02-17 10:57:13,0.0
-14204,160,1840,380,7462,406,2025-02-17 10:57:13,0.0
-14000,632,1808,213,7921,-564,2025-02-17 10:57:13,0.0
-14716,588,1568,-136,8272,-1000,2025-02-17 10:57:13,0.0
-14900,892,1312,-327,8075,-1212,2025-02-17 10:57:13,0.0
-14596,1400,1884,-822,7839,-1423,2025-02-17 10:57:13,
-14168,1104,912,-1052,7815,-1341,2025-02-17 10:57:13,0.0
-14356,312,1452,-1035,7899,-1445,2025-02-17 10:57:13,0.0
-14052,-240,1592,-901,8124,-1598,2025-02-17 10:57:13,0.0
-14320,-1048,1160,1514,7362,-678,2025-02-17 10:57:13,0.0
-13900,-436,268,2517,7215,-1081,2025-02-17 10:57:13,0.0
-13980,1100,84,2701,6801,-1906,2025-02-17 10:57:13,0.0
-13504,1232,260,2031,6422,-3073,2025-02-17 10:57:14,0.0
-13596,652,84,1841,6668,-3961,2025-02-17 10:57:14,0.0
-15052,488,-340,1145,5223,-3239,2025-02-17 10:57:14,0.0
-14284,-232,-132,1019,4147,-2582,2025-02-17 10:57:14,0.0
-13852,-732,-1004,2691,3434,-2517,2025-02-17 10:57:14,0.0
-13800,-464,-24,3352,2609,-2248,2025-02-17 10:57:14,0.0
-13164,-716,-996,3384,846,-1883,2025-02-17 10:57:14,0.0
-12508,-904,-1508,2597,-480,-2211,2025-02-17 10:57:14,0.0
-12480,-1212,-1272,2219,-1424,-3051,2025-02-17 10:57:14,0.0
-12568,-1412,-1448,2417,-669,-4405,2025-02-17 10:57:14,0.0
-15064,-1244,-628,2962,-1718,-4004,2025-02-17 10:57:14,0.0
-16000,-1056,-876,3852,-1578,-1459,2025-02-17 10:57:14,0.0
-14448,-1720,-1532,3928,-3103,1134,2025-02-17 10:57:14,0.0
-11896,-1408,-1560,3704,-4175,1654,2025-02-17 10:57:14,0.0
-9988,-588,-1896,2694,-4473,-67,2025-02-17 10:57:14,0.0
-9168,-244,-1612,892,-3777,-2867,2025-02-17 10:57:14,0.0
-10488,-700,-1336,-1253,-3587,-5296,2025-02-17 10:57:14,0.0
-14540,-2692,1768,-623,-3415,-3664,2025-02-17 10:57:14,0.0
-15660,-3872,1300,1580,-2978,1231,2025-02-17 10:57:14,0.0
-12484,-3632,-692,3205,-2027,4708,2025-02-17 10:57:14,0.0
-10024,-2608,-1812,2852,-1276,4598,2025-02-17 10:57:14,0.0
-9316,-1056,-2176,1656,-1472,2695,2025-02-17 10:57:14,0.0
-9028,780,-1512,1157,-3163,405,2025-02-17 10:57:14,0.0
-10268,560,-1064,1701,-6041,-1009,2025-02-17 10:57:14,0.0
-10992,-892,-144,1550,-7426,-722,2025-02-17 10:57:14,0.0
-9916,-1280,-552,840,-7098,-674,2025-02-17 10:57:14,0.0
-8420,-1264,-884,102,-6571,-1369,2025-02-17 10:57:14,0.0
-8916,-1516,-724,-611,-5245,-2542,2025-02-17 10:57:14,0.0
-9552,-1712,-204,-1293,-2847,-3614,2025-02-17 10:57:14,0.0
-10788,-1764,496,-1247,-731,-3745,2025-02-17 10:57:14,0.0
-11464,-2040,440,-948,-107,-2345,2025-02-17 10:57:14,0.0
-11000,-2784,264,-980,100,-1825,2025-02-17 10:57:14,0.0
-10888,-2792,444,-820,1772,-2203,2025-02-17 10:57:14,0.0
-12100,-3004,-520,-1252,4661,-2609,2025-02-17 10:57:14,0.0
-13244,-4060,1064,1865,9558,-599,2025-02-17 10:57:14,0.0
-12180,-2752,-1376,1119,11783,99,2025-02-17 10:57:14,0.0
-11956,-1704,-628,-156,13418,-1564,2025-02-17 10:57:14,0.0
-13252,-1248,236,638,13535,-2681,2025-02-17 10:57:14,0.0
-14396,-2412,-1404,1174,10607,-2741,2025-02-17 10:57:14,0.0
-15524,-2544,-1352,1042,8103,-2442,2025-02-17 10:57:14,0.0
-15648,-2380,-2240,1023,6189,-2315,2025-02-17 10:57:14,0.0
-15796,-2588,-2252,282,4337,-1795,2025-02-17 10:57:14,0.0
-15940,-2536,-1360,-222,3421,-995,2025-02-17 10:57:14,0.0
-15500,-2184,-1008,-117,3489,-362,2025-02-17 10:57:14,0.0
-14812,-1980,-1228,-42,4636,-251,2025-02-17 10:57:14,0.0
-13988,-1852,-1404,-336,6987,-751,2025-02-17 10:57:14,0.0
-13468,-1836,-1952,-751,9690,-1662,2025-02-17 10:57:14,0.0
-13504,-612,-1228,162,10210,-2044,2025-02-17 10:57:14,0.0
-13512,336,-2184,1101,11784,-1505,2025-02-17 10:57:14,0.0
-12628,-220,-2080,1433,14117,-2243,2025-02-17 10:57:14,0.0
-12788,-484,-1000,2575,15330,-3296,2025-02-17 10:57:14,0.0
-13064,-308,-1336,4103,16748,-4006,2025-02-17 10:57:14,0.0
-12540,-1284,-1684,4880,16105,-4248,2025-02-17 10:57:14,0.0
-13076,-1540,-1688,5672,14288,-3286,2025-02-17 10:57:14,0.0
-12268,-1428,-3724,6416,9026,-3301,2025-02-17 10:57:14,0.0
-12468,-1444,-4360,6207,4210,-2963,2025-02-17 10:57:14,0.0
-12996,-1468,-5372,6177,14,-3033,2025-02-17 10:57:14,0.0
-12512,-1720,-5784,5846,-2329,-3150,2025-02-17 10:57:14,0.0
-11660,-1652,-5308,5744,-3727,-3850,2025-02-17 10:57:14,0.0
-11048,-1228,-4772,6388,-3824,-5251,2025-02-17 10:57:14,0.0
-9740,-652,-4988,7156,-2812,-6575,2025-02-17 10:57:14,0.0
-8980,-844,-5576,6931,-3071,-8672,2025-02-17 10:57:15,0.0
-10300,-1684,-5844,6838,-3996,-9241,2025-02-17 10:57:15,0.0
-10680,-2600,-6056,7303,-4495,-9102,2025-02-17 10:57:15,0.0
-10156,-3240,-6732,7687,-4142,-10335,2025-02-17 10:57:15,0.0
-9980,-3104,-7072,6892,-2454,-11969,2025-02-17 10:57:15,0.0
-9448,-3036,-6148,6186,263,-13012,2025-02-17 10:57:15,0.0
-7940,-3296,-4600,5943,2649,-13383,2025-02-17 10:57:15,0.0
-6008,-3592,-4260,5849,3700,-13752,2025-02-17 10:57:15,0.0
-4224,-3980,-3296,5850,3591,-14336,2025-02-17 10:57:15,0.0
-200,-4100,64,7324,2539,-15970,2025-02-17 10:57:15,0.0
5608,-3424,4484,11838,-1204,-21164,2025-02-17 10:57:15,0.0
3116,-3160,3360,12841,-3895,-26450,2025-02-17 10:57:15,0.0
3572,-3036,20,11359,-5278,-29334,2025-02-17 10:57:15,0.0
2208,-2064,1364,11008,-5522,-28879,2025-02-17 10:57:15,0.0
1944,-2124,1724,10707,-5201,-28360,2025-02-17 10:57:15,0.0
2204,-2020,1584,10175,-4787,-27904,2025-02-17 10:57:15,0.0
2212,-2060,1560,9526,-4489,-27740,2025-02-17 10:57:15,0.0
2436,-2060,1296,8888,-4278,-27670,2025-02-17 10:57:15,0.0
2092,-1904,1360,8363,-4063,-27523,2025-02-17 10:57:15,0.0
1976,-2008,1540,7911,-3879,-27167,2025-02-17 10:57:15,0.0
1992,-1848,1504,7465,-3858,-26309,2025-02-17 10:57:15,0.0
1528,-1752,2532,7100,-4120,-25699,2025-02-17 10:57:15,0.0
1876,-1860,1948,6650,-4498,-25111,2025-02-17 10:57:15,0.0
2652,-1732,1532,6081,-4760,-24807,2025-02-17 10:57:15,0.0
2448,-1712,1608,5383,-4961,-24403,2025-02-17 10:57:15,0.0
2320,-1652,1432,4676,-5089,-23646,2025-02-17 10:57:15,0.0
1944,-1424,1736,4038,-5107,-22386,2025-02-17 10:57:15,0.0
1944,-1256,1848,3560,-4986,-20952,2025-02-17 10:57:15,0.0
1940,-1300,1836,3150,-4861,-19370,2025-02-17 10:57:15,0.0
2252,-1080,1696,2666,-4906,-17936,2025-02-17 10:57:15,0.0
3168,-800,1036,2177,-5371,-17093,2025-02-17 10:57:15,0.0
10508,-2564,4912,3182,-7946,-18692,2025-02-17 10:57:15,0.0
32767,-15124,13624,7685,-20647,-32768,2025-02-17 10:57:15,
-32768,-32768,-32768,-32768,-32768,-32768,2025-02-17 10:57:15,0.0
-32768,-32768,32767,-32768,32767,-32768,2025-02-17 10:57:15,0.0
32767,-24040,32767,8481,-32768,-32768,2025-02-17 10:57:15,0.0
11396,11960,-32768,-3689,-32768,-23848,2025-02-17 10:57:15,0.0
328,9060,-13240,-17353,-32768,10554,2025-02-17 10:57:15,0.0
-3068,900,888,-13212,-32768,16372,2025-02-17 10:57:15,0.0
568,-1120,-5096,-10511,-32768,18035,2025-02-17 10:57:15,0.0
9088,-5544,-12260,-11841,-14600,12652,2025-02-17 10:57:15,0.0
8376,-8952,-14264,-11201,-4459,7071,2025-02-17 10:57:15,0.0
10228,-10380,-10332,-4000,-3311,2733,2025-02-17 10:57:15,0.0
13116,-11564,-10928,3266,7046,-209,2025-02-17 10:57:15,0.0
11560,-8752,-12376,1654,5158,-1754,2025-02-17 10:57:15,0.0
10780,-6748,-8876,-338,1084,-643,2025-02-17 10:57:15,0.0
11540,-7388,-10276,-339,-1248,115,2025-02-17 10:57:15,0.0
10604,-8292,-11532,-545,-1029,153,2025-02-17 10:57:15,0.0
9656,-7312,-11292,-167,332,-290,2025-02-17 10:57:15,0.0
10816,-7568,-10560,-34,603,-302,2025-02-17 10:57:15,0.0
10880,-7728,-10740,-200,86,-133,2025-02-17 10:57:15,0.0
10556,-7644,-10848,-162,91,-108,2025-02-17 10:57:15,0.0
