acceleration_x,acceleration_y,acceleration_z,gyroscope_x,gyroscope_y,gyroscope_z,timestamp,label
-11444,-196,10204,-134,85,-159,2025-02-17 10:48:41,0.0
-11552,-176,10396,-133,140,-251,2025-02-17 10:48:41,0.0
-11632,-164,10320,-137,193,-212,2025-02-17 10:48:41,0.0
-11636,-84,10332,-149,161,-157,2025-02-17 10:48:41,0.0
-11564,124,10392,-111,74,-142,2025-02-17 10:48:41,0.0
-11608,-84,10136,-105,211,-154,2025-02-17 10:48:41,0.0
-11600,44,10232,-115,210,-190,2025-02-17 10:48:41,0.0
-11732,-8,10080,-178,140,-174,2025-02-17 10:48:41,0.0
-11560,-16,10172,-169,37,-185,2025-02-17 10:48:41,0.0
-11464,88,10280,-103,84,-174,2025-02-17 10:48:41,0.0
-11588,-60,10372,-114,74,-173,2025-02-17 10:48:41,0.0
-11504,-76,10280,-150,71,-207,2025-02-17 10:48:41,0.0
-11544,-76,10240,-188,151,-185,2025-02-17 10:48:41,0.0
-11608,-116,10108,-206,120,-193,2025-02-17 10:48:41,0.0
-11556,-84,10204,-152,107,-154,2025-02-17 10:48:41,0.0
-11512,-72,10240,-167,58,-143,2025-02-17 10:48:41,0.0
-11596,-144,10268,-181,91,-177,2025-02-17 10:48:42,0.0
-11544,-44,10340,-161,62,-178,2025-02-17 10:48:42,0.0
-11420,-64,10164,-187,77,-138,2025-02-17 10:48:42,0.0
-11544,-144,10472,-111,128,-133,2025-02-17 10:48:42,0.0
-11684,-180,10232,-81,101,-154,2025-02-17 10:48:42,0.0
-11628,-60,10128,-167,-9,-201,2025-02-17 10:48:42,0.0
-11516,-84,10396,-142,-10,-186,2025-02-17 10:48:42,0.0
-11596,16,10056,-123,-1,-159,2025-02-17 10:48:42,0.0
-11492,-100,10248,-127,57,-193,2025-02-17 10:48:42,0.0
-11532,-184,10252,-66,48,-166,2025-02-17 10:48:42,0.0
-11528,-68,10216,-162,-11,-175,2025-02-17 10:48:42,0.0
-11604,-124,10300,-137,-2,-166,2025-02-17 10:48:42,0.0
-11500,56,10268,-145,12,-190,2025-02-17 10:48:42,0.0
-11556,48,10192,-154,68,-162,2025-02-17 10:48:42,0.0
-11504,-20,10344,-146,11,-170,2025-02-17 10:48:42,0.0
-11744,-100,10248,-115,-32,-184,2025-02-17 10:48:42,0.0
-11672,-4,10196,-141,-55,-172,2025-02-17 10:48:42,0.0
-11460,-172,10424,-116,-25,-164,2025-02-17 10:48:42,0.0
-11576,-112,10412,-112,-94,-163,2025-02-17 10:48:42,0.0
-11532,-44,10364,-135,6,-164,2025-02-17 10:48:42,0.0
-11500,-132,10560,-123,10,-163,2025-02-17 10:48:42,0.0
-11520,-72,10348,-115,19,-194,2025-02-17 10:48:42,0.0
-11452,20,10284,-115,-20,-155,2025-02-17 10:48:42,0.0
-11348,0,10336,-119,-7,-180,2025-02-17 10:48:42,0.0
-11544,-172,10380,-73,42,-181,2025-02-17 10:48:42,0.0
-11660,-32,10340,-101,52,-164,2025-02-17 10:48:42,0.0
-11700,-168,10196,-134,-113,-156,2025-02-17 10:48:42,0.0
-11500,-60,10284,-154,-184,-179,2025-02-17 10:48:42,0.0
-11440,-176,10464,-156,-158,-200,2025-02-17 10:48:42,0.0
-11492,-72,10280,-103,-112,-210,2025-02-17 10:48:42,0.0
-11492,-4,10400,-107,-47,-189,2025-02-17 10:48:42,0.0
-11528,-208,10456,-163,-95,-158,2025-02-17 10:48:42,0.0
-11372,-140,10540,-89,-125,-179,2025-02-17 10:48:42,0.0
-11472,-76,10264,-108,-37,-153,2025-02-17 10:48:42,0.0
-11428,-148,10556,-168,28,-174,2025-02-17 10:48:42,0.0
-11388,-36,10600,-116,-73,-174,2025-02-17 10:48:42,0.0
-11476,-76,10388,-111,28,-181,2025-02-17 10:48:42,0.0
-11448,-132,10476,-98,97,-167,2025-02-17 10:48:42,0.0
-11364,-64,10616,-143,102,-177,2025-02-17 10:48:42,0.0
-11564,12,10360,-186,132,-181,2025-02-17 10:48:42,0.0
-11476,-8,10456,-172,147,-149,2025-02-17 10:48:42,0.0
-11424,-24,10496,-111,60,-157,2025-02-17 10:48:42,0.0
-11476,-4,10280,-144,173,-161,2025-02-17 10:48:42,0.0
-11500,-120,10520,-190,124,-189,2025-02-17 10:48:42,0.0
-11484,-72,10672,-159,144,-190,2025-02-17 10:48:42,0.0
-11504,72,10524,-111,186,-190,2025-02-17 10:48:42,0.0
-11416,-24,10572,-162,307,-165,2025-02-17 10:48:42,0.0
-11476,-40,10468,-135,386,-163,2025-02-17 10:48:42,0.0
-11464,24,10536,-137,483,-173,2025-02-17 10:48:42,0.0
-11588,-96,10520,-113,612,-104,2025-02-17 10:48:42,0.0
-11644,20,10484,-154,753,-163,2025-02-17 10:48:42,0.0
-11612,-108,10376,-133,706,-191,2025-02-17 10:48:42,0.0
-11644,-180,10372,-140,568,-278,2025-02-17 10:48:42,0.0
-11964,-144,10672,-51,375,-240,2025-02-17 10:48:42,0.0
-12076,-96,9944,24,180,-203,2025-02-17 10:48:42,0.0
-12448,20,10300,89,-128,-84,2025-02-17 10:48:42,0.0
-11904,160,8324,107,-303,-11,2025-02-17 10:48:42,0.0
-11512,-244,8272,-228,-276,-10,2025-02-17 10:48:42,0.0
-11736,-624,10164,216,-89,356,2025-02-17 10:48:42,0.0
-11140,-312,9296,136,-188,354,2025-02-17 10:48:42,0.0
-10956,-48,8928,-251,-544,304,2025-02-17 10:48:42,0.0
-10752,104,9388,-597,-457,243,2025-02-17 10:48:43,0.0
-11152,184,10448,-799,-229,141,2025-02-17 10:48:43,0.0
-11320,-12,11596,-527,-221,182,2025-02-17 10:48:43,0.0
-10720,156,11812,-291,-606,-9,2025-02-17 10:48:43,0.0
-10388,392,11808,-201,-469,-161,2025-02-17 10:48:43,0.0
-10032,568,11076,-152,281,-317,2025-02-17 10:48:43,0.0
-10060,396,11232,-220,881,-738,2025-02-17 10:48:43,0.0
-10848,208,11264,-228,1416,-865,2025-02-17 10:48:43,0.0
-11156,220,11388,-243,1287,-830,2025-02-17 10:48:43,0.0
-11504,672,11548,-100,1124,-654,2025-02-17 10:48:43,0.0
-11344,836,11504,-65,1547,-330,2025-02-17 10:48:43,0.0
-11364,776,11164,-189,2002,-99,2025-02-17 10:48:43,0.0
-11040,556,10600,-384,2032,109,2025-02-17 10:48:43,0.0
-11204,-148,11680,-262,2320,185,2025-02-17 10:48:43,0.0
-11304,-788,11468,-367,2708,692,2025-02-17 10:48:43,0.0
-12004,-1728,12328,-337,3189,888,2025-02-17 10:48:43,0.0
-11464,-2072,11484,-232,3824,778,2025-02-17 10:48:43,0.0
-11920,-1860,11308,176,3731,604,2025-02-17 10:48:43,0.0
-11752,-1352,9204,281,2213,134,2025-02-17 10:48:43,0.0
-11716,-776,9316,-108,1243,-258,2025-02-17 10:48:43,0.0
-11636,12,9768,-501,1448,-543,2025-02-17 10:48:43,0.0
-11220,980,9976,-679,2024,-899,2025-02-17 10:48:43,0.0
-11280,1164,10224,-599,2764,-1144,2025-02-17 10:48:43,
-11804,1220,10368,-359,2881,-1153,2025-02-17 10:48:43,0.0
-12012,1080,10408,-204,2769,-888,2025-02-17 10:48:43,0.0
-10116,608,9340,-127,3434,-553,2025-02-17 10:48:43,0.0
-10304,312,9608,-32,4441,-726,2025-02-17 10:48:43,0.0
-10104,624,9184,-24,5397,-1598,2025-02-17 10:48:43,0.0
-12752,984,9724,261,4762,-2082,2025-02-17 10:48:43,0.0
-13144,-376,10164,353,4744,-939,2025-02-17 10:48:43,0.0
-12944,-396,10060,294,6890,1004,2025-02-17 10:48:43,0.0
-13496,-548,10128,471,9443,2313,2025-02-17 10:48:43,0.0
-10904,-684,12676,433,11944,2539,2025-02-17 10:48:43,0.0
-11772,-16,11916,336,13823,2400,2025-02-17 10:48:43,0.0
-14288,120,11632,-148,15566,2026,2025-02-17 10:48:43,0.0
-15596,-648,11772,-916,15720,1517,2025-02-17 10:48:43,0.0
-17088,-964,11720,-1553,14672,768,2025-02-17 10:48:43,0.0
-19592,928,9312,-835,14102,1578,2025-02-17 10:48:43,0.0
-18840,284,5932,-331,13169,2214,2025-02-17 10:48:43,0.0
-17908,1064,3848,-249,12222,-210,2025-02-17 10:48:43,0.0
-18492,1416,4016,-101,10480,-2199,2025-02-17 10:48:43,0.0
-18760,216,4120,-313,8898,-1316,2025-02-17 10:48:43,0.0
-18316,112,3164,-73,7891,-531,2025-02-17 10:48:43,0.0
-18052,1256,1756,-99,7507,-687,2025-02-17 10:48:43,0.0
-17784,2016,1892,-71,7628,-806,2025-02-17 10:48:43,0.0
-17516,1912,2516,102,7957,-1012,2025-02-17 10:48:43,0.0
-17040,1292,2216,148,8949,-1251,2025-02-17 10:48:43,0.0
-17776,192,2120,384,9834,-1247,2025-02-17 10:48:43,0.0
-18044,-60,1128,738,9914,-1096,2025-02-17 10:48:43,0.0
-17328,-416,-156,983,9173,-949,2025-02-17 10:48:43,0.0
-15736,-140,-1156,1255,7953,-1153,2025-02-17 10:48:43,0.0
-15884,-280,-392,1311,6674,-1467,2025-02-17 10:48:43,0.0
-15596,-256,168,1003,6265,-1549,2025-02-17 10:48:43,0.0
-11528,880,-488,571,5975,-1496,2025-02-17 10:48:43,0.0
-16604,604,608,506,6044,-1671,2025-02-17 10:48:43,0.0
-14776,984,36,203,5816,-1919,2025-02-17 10:48:43,0.0
-14604,712,204,279,5576,-2091,2025-02-17 10:48:43,0.0
-14784,448,1288,668,5195,-2310,2025-02-17 10:48:43,0.0
-14340,-284,556,1077,4935,-2683,2025-02-17 10:48:44,0.0
-13764,-608,768,1067,3826,-1955,2025-02-17 10:48:44,0.0
-13504,-564,1552,931,2029,-1397,2025-02-17 10:48:44,0.0
-12396,-468,1672,923,158,-1454,2025-02-17 10:48:44,0.0
-12360,-420,284,873,-1409,-1317,2025-02-17 10:48:44,0.0
-12668,-712,1228,1412,-2378,-1085,2025-02-17 10:48:44,0.0
-11904,-692,1368,2581,-4073,-960,2025-02-17 10:48:44,0.0
-11028,-728,1448,3666,-6656,-1452,2025-02-17 10:48:44,0.0
-10868,-880,1244,3961,-9392,-1853,2025-02-17 10:48:44,0.0
-9704,-716,900,4026,-11637,-2234,2025-02-17 10:48:44,0.0
-8668,-752,180,3951,-12932,-2730,2025-02-17 10:48:44,0.0
-8272,-516,36,3869,-13838,-2987,2025-02-17 10:48:44,0.0
-7240,-264,344,4391,-13475,-2912,2025-02-17 10:48:44,0.0
-6012,544,-1200,4538,-12058,-3709,2025-02-17 10:48:44,0.0
-5468,152,-2096,3269,-10167,-4908,2025-02-17 10:48:44,0.0
-6304,-372,96,2732,-7411,-5844,2025-02-17 10:48:44,0.0
-8504,-1260,-24,3056,-4508,-5436,2025-02-17 10:48:44,0.0
-9876,-2372,-804,3157,-1648,-4099,2025-02-17 10:48:44,0.0
-10244,-2564,-1800,2480,-235,-3974,2025-02-17 10:48:44,0.0
-14016,-2648,-1076,709,885,-2725,2025-02-17 10:48:44,0.0
-14400,-2512,2148,1119,-318,-901,2025-02-17 10:48:44,0.0
-14668,-2448,3136,2153,-2287,-402,2025-02-17 10:48:44,0.0
-15184,-2504,2356,2932,-4221,-19,2025-02-17 10:48:44,0.0
-14252,-1736,1124,2949,-6298,1149,2025-02-17 10:48:44,0.0
-13408,-1444,908,2492,-6947,2215,2025-02-17 10:48:44,0.0
-11532,-1716,2468,2233,-5560,1731,2025-02-17 10:48:44,0.0
-10356,-2044,2384,2192,-3581,696,2025-02-17 10:48:44,0.0
-10432,-1900,1736,999,-1577,-484,2025-02-17 10:48:44,0.0
-10972,-1952,2132,-735,477,-775,2025-02-17 10:48:44,0.0
-10412,-2908,4308,-1183,1925,-1336,2025-02-17 10:48:44,0.0
-12540,-3124,4652,-958,3040,-1168,2025-02-17 10:48:44,0.0
-13404,-2792,5072,-810,3465,-886,2025-02-17 10:48:44,0.0
-14748,-2836,4420,-1365,3205,-320,2025-02-17 10:48:44,0.0
-14464,-2516,4288,-1937,1729,-525,2025-02-17 10:48:44,0.0
-14556,-2504,3776,-2165,74,-1084,2025-02-17 10:48:44,0.0
-13616,-3016,3136,-2819,-1235,-1369,2025-02-17 10:48:44,0.0
-12592,-3304,3932,-3268,-1436,-1448,2025-02-17 10:48:44,0.0
-11972,-3172,4660,-3264,-575,-1107,2025-02-17 10:48:44,0.0
-12284,-3416,4140,-3049,716,-494,2025-02-17 10:48:44,0.0
-11616,-3644,3848,-3124,2290,-315,2025-02-17 10:48:44,0.0
-11924,-3452,3148,-3543,3243,-807,2025-02-17 10:48:44,0.0
-13472,-2756,3632,-3537,2733,-586,2025-02-17 10:48:44,0.0
-12744,-2360,5308,-2222,1020,10,2025-02-17 10:48:44,0.0
-12172,-3032,5308,-700,103,314,2025-02-17 10:48:44,0.0
-12336,-4248,4636,214,612,1042,2025-02-17 10:48:44,0.0
-12860,-4452,3140,-175,2846,1974,2025-02-17 10:48:44,0.0
-12836,-3340,2728,-1114,4500,1748,2025-02-17 10:48:44,0.0
-12572,-1480,4156,-1417,4030,472,2025-02-17 10:48:44,0.0
-14152,-1080,5052,-1522,2678,-147,2025-02-17 10:48:44,0.0
-14236,-1880,5532,-1176,1886,-65,2025-02-17 10:48:44,0.0
-14352,-2500,4796,-947,1868,129,2025-02-17 10:48:44,0.0
-14104,-2696,4948,-988,1657,217,2025-02-17 10:48:44,0.0
-13848,-2652,5040,-1288,1301,93,2025-02-17 10:48:44,0.0
-13788,-3156,4992,-1614,1127,30,2025-02-17 10:48:44,0.0
-14204,-3052,4284,-2154,1356,1147,2025-02-17 10:48:44,0.0
-12648,-2308,4196,-3401,1604,867,2025-02-17 10:48:44,0.0
-12524,-2112,4356,-4550,2003,298,2025-02-17 10:48:44,0.0
-12444,-2460,5528,-4953,2171,-366,2025-02-17 10:48:44,0.0
-12948,-2388,3864,-6930,2708,-314,2025-02-17 10:48:44,0.0
-13120,-4748,5268,-6242,2638,-1030,2025-02-17 10:48:44,0.0
-15048,-4608,3444,-5624,1264,-1056,2025-02-17 10:48:44,0.0
-15440,-4120,2256,-5600,249,-1710,2025-02-17 10:48:44,0.0
-16380,-3900,3112,-4919,-566,-2583,2025-02-17 10:48:44,0.0
-18020,-4240,1928,-4001,-949,-1872,2025-02-17 10:48:44,0.0
-16628,-5784,1032,-3253,-752,-760,2025-02-17 10:48:44,
-16208,-5980,544,-3300,209,-53,2025-02-17 10:48:44,0.0
-15252,-5248,576,-3540,735,342,2025-02-17 10:48:45,0.0
-14716,-3924,408,-3250,614,449,2025-02-17 10:48:45,0.0
-14084,-2600,296,-2525,-438,580,2025-02-17 10:48:45,0.0
-13976,-1384,100,-1678,-1456,793,2025-02-17 10:48:45,0.0
-13312,-360,288,-1158,-1880,864,2025-02-17 10:48:45,0.0
-13528,472,256,-879,-2015,1063,2025-02-17 10:48:45,0.0
-13212,804,944,-777,-1735,1340,2025-02-17 10:48:45,0.0
-12708,-236,2320,102,-1284,1370,2025-02-17 10:48:45,0.0
-13224,-1424,1740,1428,-476,1459,2025-02-17 10:48:45,0.0
-13952,-1780,1236,1260,1219,2030,2025-02-17 10:48:45,0.0
-14032,-1628,1324,314,2525,2530,2025-02-17 10:48:45,0.0
-14448,-1468,1432,-441,2723,2643,2025-02-17 10:48:45,0.0
-14140,-1084,1556,-377,1753,2217,2025-02-17 10:48:45,0.0
-14364,-296,1732,-311,62,1428,2025-02-17 10:48:45,0.0
-12724,-220,2684,-29,-712,1259,2025-02-17 10:48:45,0.0
-11844,-716,2340,-73,-853,95,2025-02-17 10:48:45,0.0
-11056,-500,1984,-694,-451,-1301,2025-02-17 10:48:45,0.0
-11540,-776,2212,-1086,607,-2742,2025-02-17 10:48:45,0.0
-12444,-964,2416,-1163,1812,-2828,2025-02-17 10:48:45,0.0
-13236,-748,2372,-332,2977,-2029,2025-02-17 10:48:45,0.0
-14080,-856,2780,408,3383,-884,2025-02-17 10:48:45,0.0
-14232,-1248,3164,1143,3196,-260,2025-02-17 10:48:45,0.0
-14508,-1404,3120,1296,2547,728,2025-02-17 10:48:45,0.0
-13844,-2188,3424,1084,2061,1384,2025-02-17 10:48:45,0.0
-13868,-2720,3720,1204,2428,1912,2025-02-17 10:48:45,0.0
-13800,-2636,3748,1369,3317,3077,2025-02-17 10:48:45,0.0
-13280,-2944,3636,2527,4465,5013,2025-02-17 10:48:45,0.0
-11756,-2500,2312,3415,5814,5544,2025-02-17 10:48:45,0.0
-11660,-1216,-140,2883,9578,5544,2025-02-17 10:48:45,0.0
-12756,956,-2732,-59,15302,4013,2025-02-17 10:48:45,0.0
-12300,1632,-2168,-2909,21489,2025,2025-02-17 10:48:45,0.0
-12136,908,-2548,-4982,26796,64,2025-02-17 10:48:45,0.0
-12284,-276,-4596,-6082,32596,-1544,2025-02-17 10:48:45,0.0
-13336,-412,-2000,-5133,32767,-1591,2025-02-17 10:48:45,0.0
-13648,-1108,-3016,-2001,32767,-257,2025-02-17 10:48:45,0.0
-12012,-1740,-8128,-2449,32767,1354,2025-02-17 10:48:45,0.0
-10372,-232,-8340,-6423,32767,936,2025-02-17 10:48:45,0.0
-9504,968,-6128,-8966,32767,449,2025-02-17 10:48:45,0.0
-10456,816,-3216,-8157,32767,707,2025-02-17 10:48:45,0.0
-10460,636,-2544,-4660,32767,3736,2025-02-17 10:48:45,0.0
-9508,384,-2948,-2301,27378,7733,2025-02-17 10:48:45,0.0
-7292,-64,-3508,-1299,21295,11374,2025-02-17 10:48:45,0.0
-5060,-316,-4332,-1409,15732,13922,2025-02-17 10:48:45,0.0
-3432,260,-4272,-2561,10912,16277,2025-02-17 10:48:45,0.0
-1724,636,-3168,-3585,7092,17905,2025-02-17 10:48:45,0.0
1540,408,-2204,-4888,3353,18966,2025-02-17 10:48:45,0.0
3388,52,-240,-6662,2245,16897,2025-02-17 10:48:45,0.0
3340,-916,1556,-7277,2229,15845,2025-02-17 10:48:45,0.0
2952,-800,1740,-7638,2205,14958,2025-02-17 10:48:45,0.0
3168,-836,1552,-7688,1721,14433,2025-02-17 10:48:45,0.0
3148,-796,1664,-7716,864,13913,2025-02-17 10:48:45,0.0
2968,-788,1724,-7571,13,13289,2025-02-17 10:48:45,0.0
2968,-636,1588,-7409,-18,12609,2025-02-17 10:48:45,0.0
3328,-624,1668,-7170,250,11894,2025-02-17 10:48:45,0.0
3124,-684,1620,-6745,435,11383,2025-02-17 10:48:45,0.0
2872,-512,1812,-6100,626,10719,2025-02-17 10:48:45,0.0
2636,-468,1844,-5493,912,10287,2025-02-17 10:48:45,0.0
2676,-488,1584,-5016,1447,9799,2025-02-17 10:48:45,0.0
2464,-464,1584,-4658,1970,9492,2025-02-17 10:48:45,0.0
2464,-496,1672,-4272,2419,9354,2025-02-17 10:48:45,0.0
2080,-404,1456,-3802,2747,9452,2025-02-17 10:48:45,0.0
2020,-368,1692,-3254,3036,9661,2025-02-17 10:48:46,0.0
2612,-372,1796,-2514,3272,9875,2025-02-17 10:48:46,0.0
1944,-424,1552,-1383,3549,9804,2025-02-17 10:48:46,0.0
2272,-1552,1568,-464,4040,10550,2025-02-17 10:48:46,0.0
172,4332,11624,18178,-7659,16200,2025-02-17 10:48:46,0.0
32767,32767,20340,32767,14361,-32768,2025-02-17 10:48:46,0.0
-32768,-32768,-32768,32767,3178,-17792,2025-02-17 10:48:46,0.0
-27760,-32768,-32768,6242,15281,13363,2025-02-17 10:48:46,0.0
19496,-31056,-15040,-13387,4176,4668,2025-02-17 10:48:46,0.0
2540,-15400,-8704,-18134,1047,2256,2025-02-17 10:48:46,0.0
5564,-6092,-12988,-25058,-7311,2218,2025-02-17 10:48:46,0.0
-5608,4412,-7608,1013,1337,-749,2025-02-17 10:48:46,0.0
-4560,1344,-12248,2392,5077,-1872,2025-02-17 10:48:46,0.0
-4376,-40,-14484,2012,5482,-1307,2025-02-17 10:48:46,0.0
-2876,-704,-17752,1143,2591,-621,2025-02-17 10:48:46,0.0
-2344,588,-17340,-548,49,88,2025-02-17 10:48:46,0.0
-3112,1392,-13784,-981,-2316,195,2025-02-17 10:48:46,0.0
-5064,1904,-11816,-435,-1581,181,2025-02-17 10:48:46,0.0
-5156,1920,-11984,-331,595,-82,2025-02-17 10:48:46,0.0
-4728,2248,-13400,-67,997,-238,2025-02-17 10:48:46,0.0
-3320,1536,-13804,160,670,-345,2025-02-17 10:48:46,0.0
-3980,1020,-14316,-93,278,-197,2025-02-17 10:48:46,0.0
-4088,1332,-13780,-265,169,-153,2025-02-17 10:48:46,0.0
-3968,1520,-13544,-261,3,-168,2025-02-17 10:48:46,0.0
-4448,1948,-13036,78,385,-401,2025-02-17 10:48:46,0.0
-4664,1036,-13444,42,959,-372,2025-02-17 10:48:46,0.0
-3040,1224,-13564,-329,128,-81,2025-02-17 10:48:46,0.0
-5488,1424,-13444,-389,-335,278,2025-02-17 10:48:46,0.0
-5344,2228,-12764,60,1140,-653,2025-02-17 10:48:46,0.0
-2888,644,-13724,-80,958,-354,2025-02-17 10:48:46,0.0
-4140,2012,-12908,-323,-149,-56,2025-02-17 10:48:46,0.0
-4596,912,-14660,-124,108,-363,2025-02-17 10:48:46,0.0
-3304,1632,-13320,-167,435,-53,2025-02-17 10:48:46,0.0
-4236,1364,-13484,-26,-97,-118,2025-02-17 10:48:46,0.0
-4220,1248,-13500,-321,96,-153,2025-02-17 10:48:46,0.0
-3936,1304,-13516,-173,119,-180,2025-02-17 10:48:46,0.0
-4180,1444,-13460,-225,192,-155,2025-02-17 10:48:46,0.0
-3924,1564,-13356,-65,399,-216,2025-02-17 10:48:46,
-3912,1236,-13884,-116,172,-166,2025-02-17 10:48:46,0.0
-4064,1412,-13780,-167,126,-197,2025-02-17 10:48:46,0.0
-3832,1348,-13580,-132,228,-166,2025-02-17 10:48:46,0.0
-4040,1436,-13564,-211,59,-155,2025-02-17 10:48:46,0.0
-4168,1376,-13444,-127,259,-167,2025-02-17 10:48:46,0.0
-3976,1376,-13584,-157,224,-163,2025-02-17 10:48:46,0.0
-4108,1372,-13636,-161,180,-185,2025-02-17 10:48:46,0.0
-4044,1372,-13532,-149,209,-171,2025-02-17 10:48:46,0.0
-4072,1396,-13668,-173,129,-155,2025-02-17 10:48:46,0.0
-4060,1552,-13596,-171,175,-177,2025-02-17 10:48:46,0.0
-4040,1452,-13556,-144,180,-174,2025-02-17 10:48:46,0.0
-4056,1384,-13556,-142,195,-182,2025-02-17 10:48:46,0.0
-4092,1380,-13648,-127,175,-174,2025-02-17 10:48:46,0.0
-4092,1396,-13528,-165,189,-178,2025-02-17 10:48:46,0.0
-4080,1408,-13584,-168,181,-188,2025-02-17 10:48:46,0.0
-4064,1468,-13688,-160,173,-184,2025-02-17 10:48:46,0.0
-4060,1344,-13536,-131,204,-164,2025-02-17 10:48:46,0.0
-4116,1432,-13556,-170,213,-169,2025-02-17 10:48:46,0.0
-4096,1320,-13712,-169,179,-163,2025-02-17 10:48:47,0.0
-4072,1392,-13540,-134,170,-184,2025-02-17 10:48:47,0.0
-4028,1396,-13404,-145,177,-149,2025-02-17 10:48:47,0.0
-4044,1368,-13664,-156,167,-167,2025-02-17 10:48:47,0.0
-4056,1320,-13596,-124,178,-165,2025-02-17 10:48:47,0.0
-4112,1368,-13568,-165,211,-165,2025-02-17 10:48:47,0.0
-4156,1432,-13492,-173,171,-189,2025-02-17 10:48:47,0.0
-4080,1356,-13640,-159,195,-158,2025-02-17 10:48:47,0.0
-4092,1328,-13600,-167,161,-169,2025-02-17 10:48:47,0.0
-3992,1380,-13564,-171,169,-176,2025-02-17 10:48:47,0.0
-4016,1468,-13712,-160,180,-174,2025-02-17 10:48:47,0.0
-4104,1412,-13656,-168,158,-182,2025-02-17 10:48:47,0.0
-4104,1424,-13592,-159,185,-182,2025-02-17 10:48:47,0.0
-4100,1396,-13540,-200,203,-179,2025-02-17 10:48:47,0.0
-4076,1384,-13604,-157,201,-185,2025-02-17 10:48:47,0.0
-3992,1388,-13568,-174,200,-185,2025-02-17 10:48:47,0.0
-3988,1408,-13636,-182,182,-173,2025-02-17 10:48:47,0.0
-4168,1440,-13648,-176,215,-173,2025-02-17 10:48:47,0.0
-3940,1428,-13576,-163,171,-182,2025-02-17 10:48:47,0.0
-4056,1444,-13620,-163,184,-169,2025-02-17 10:48:47,0.0
-3956,1380,-13716,-159,172,-171,2025-02-17 10:48:47,0.0
-4084,1428,-13692,-175,179,-181,2025-02-17 10:48:47,0.0
-4040,1432,-13620,-170,177,-178,2025-02-17 10:48:47,0.0
-4088,1372,-13536,-171,201,-178,2025-02-17 10:48:47,0.0
-4116,1368,-13680,-151,173,-163,2025-02-17 10:48:47,0.0
-4104,1332,-13488,-152,195,-183,2025-02-17 10:48:47,0.0
-3984,1324,-13436,-157,208,-186,2025-02-17 10:48:47,0.0
-4112,1348,-13712,-153,178,-170,2025-02-17 10:48:47,0.0
-3968,1356,-13536,-135,151,-154,2025-02-17 10:48:47,0.0
-4188,1332,-13660,-150,199,-200,2025-02-17 10:48:47,0.0
-4032,1420,-13656,-168,191,-180,2025-02-17 10:48:47,0.0
-4012,1428,-13588,-143,185,-188,2025-02-17 10:48:47,0.0
-4092,1440,-13552,-153,184,-177,2025-02-17 10:48:47,0.0
-4048,1436,-13604,-175,181,-172,2025-02-17 10:48:47,0.0
-4040,1356,-13684,-153,208,-180,2025-02-17 10:48:47,0.0
-3968,1432,-13548,-161,204,-181,2025-02-17 10:48:47,0.0
-4120,1316,-13660,-116,193,-163,2025-02-17 10:48:47,0.0
-4148,1336,-13628,-157,193,-171,2025-02-17 10:48:47,0.0
-4068,1432,-13684,-149,190,-196,2025-02-17 10:48:47,0.0
-4064,1392,-13580,-165,173,-186,2025-02-17 10:48:47,0.0
-3964,1348,-13660,-165,155,-176,2025-02-17 10:48:47,0.0
-4112,1404,-13508,-161,174,-184,2025-02-17 10:48:47,0.0
-4060,1452,-13480,-174,185,-179,2025-02-17 10:48:47,0.0
-4088,1352,-13724,-159,186,-186,2025-02-17 10:48:47,0.0
-4068,1492,-13484,-153,171,-179,2025-02-17 10:48:47,0.0
-3932,1404,-13644,-169,178,-196,2025-02-17 10:48:47,0.0
-4044,1392,-13532,-200,167,-150,2025-02-17 10:48:47,0.0
-4032,1428,-13576,-144,221,-201,2025-02-17 10:48:47,0.0
-4116,1380,-13584,-169,155,-149,2025-02-17 10:48:47,0.0
-3976,1528,-13504,-130,175,-173,2025-02-17 10:48:47,0.0
-4008,1300,-13676,-145,216,-180,2025-02-17 10:48:47,0.0
-3988,1484,-13448,-177,180,-178,2025-02-17 10:48:47,0.0
-3964,1324,-13552,-130,173,-171,2025-02-17 10:48:47,0.0
-4036,1396,-13532,-160,176,-189,2025-02-17 10:48:47,0.0
-3988,1344,-13524,-142,184,-179,2025-02-17 10:48:47,0.0
-4108,1412,-13572,-206,186,-169,2025-02-17 10:48:47,0.0
-4072,1428,-13600,-150,178,-172,2025-02-17 10:48:48,0.0
-3932,1460,-13640,-160,182,-175,2025-02-17 10:48:48,0.0
-4092,1452,-13576,-155,168,-170,2025-02-17 10:48:48,0.0
-4056,1376,-13680,-143,217,-182,2025-02-17 10:48:48,0.0
-4008,1376,-13648,-143,171,-172,2025-02-17 10:48:48,0.0
-4040,1368,-13588,-151,193,-151,2025-02-17 10:48:48,0.0
-3988,1396,-13528,-162,163,-184,2025-02-17 10:48:48,0.0
-4012,1376,-13520,-160,156,-189,2025-02-17 10:48:48,0.0
-3964,1400,-13544,-184,204,-178,2025-02-17 10:48:48,0.0
-3992,1320,-13644,-154,186,-196,2025-02-17 10:48:48,0.0
-4048,1360,-13464,-188,179,-177,2025-02-17 10:48:48,0.0
-4064,1416,-13468,-147,171,-179,2025-02-17 10:48:48,0.0
-4040,1452,-13564,-189,175,-171,2025-02-17 10:48:48,0.0
-4084,1428,-13520,-162,150,-172,2025-02-17 10:48:48,0.0
-3992,1348,-13720,-159,177,-201,2025-02-17 10:48:48,0.0
-4088,1432,-13628,-170,149,-158,2025-02-17 10:48:48,0.0
-4028,1380,-13584,-130,170,-168,2025-02-17 10:48:48,0.0
-4020,1356,-13660,-158,176,-172,2025-02-17 10:48:48,0.0
-3956,1424,-13552,-140,164,-176,2025-02-17 10:48:48,0.0
-3952,1380,-13588,-148,186,-164,2025-02-17 10:48:48,0.0
-4008,1396,-13604,-133,194,-179,2025-02-17 10:48:48,0.0
-4028,1372,-13704,-165,188,-203,2025-02-17 10:48:48,0.0
-4020,1420,-13616,-180,190,-177,2025-02-17 10:48:48,0.0
-4092,1344,-13620,-134,197,-175,2025-02-17 10:48:48,0.0
-4040,1356,-13500,-151,168,-176,2025-02-17 10:48:48,0.0
-4036,1328,-13540,-167,168,-192,2025-02-17 10:48:48,
-3924,1372,-13528,-141,179,-183,2025-02-17 10:48:48,0.0
-4032,1384,-13632,-180,174,-150,2025-02-17 10:48:48,0.0
-4032,1360,-13668,-145,179,-173,2025-02-17 10:48:48,0.0
-3996,1344,-13584,-167,190,-181,2025-02-17 10:48:48,0.0
-4056,1364,-13692,-159,177,-206,2025-02-17 10:48:48,0.0
-4104,1372,-13564,-160,166,-173,2025-02-17 10:48:48,0.0
-4032,1468,-13352,-176,200,-210,2025-02-17 10:48:48,0.0
-4032,1448,-13628,-136,205,-181,2025-02-17 10:48:48,0.0
-4020,1404,-13608,-164,185,-171,2025-02-17 10:48:48,0.0
-3992,1352,-13492,-170,195,-179,2025-02-17 10:48:48,0.0
-4064,1428,-13568,-154,171,-173,2025-02-17 10:48:48,0.0
-4008,1468,-13692,-125,177,-160,2025-02-17 10:48:48,0.0
-4008,1404,-13548,-159,181,-161,2025-02-17 10:48:48,0.0
-4080,1348,-13508,-165,160,-181,2025-02-17 10:48:48,0.0
-4064,1372,-13504,-169,200,-165,2025-02-17 10:48:48,0.0
-4120,1380,-13596,-145,190,-175,2025-02-17 10:48:48,0.0
-4104,1384,-13692,-177,199,-197,2025-02-17 10:48:48,0.0
-4016,1396,-13608,-180,181,-171,2025-02-17 10:48:48,0.0
-4056,1392,-13624,-164,186,-198,2025-02-17 10:48:48,0.0
-3952,1428,-13656,-158,168,-161,2025-02-17 10:48:48,0.0
-4048,1412,-13660,-171,189,-167,2025-02-17 10:48:48,0.0
-3972,1336,-13672,-148,179,-182,2025-02-17 10:48:48,0.0
-4076,1444,-13456,-159,202,-185,2025-02-17 10:48:48,0.0
-4004,1380,-13676,-126,190,-170,2025-02-17 10:48:48,0.0
-3996,1400,-13612,-159,181,-159,2025-02-17 10:48:48,0.0
-4124,1396,-13628,-157,190,-202,2025-02-17 10:48:48,0.0
-4036,1376,-13488,-156,175,-163,2025-02-17 10:48:48,0.0
-3956,1388,-13532,-153,193,-164,2025-02-17 10:48:48,0.0
-4128,1392,-13540,-160,165,-175,2025-02-17 10:48:48,0.0
-4044,1376,-13648,-175,187,-189,2025-02-17 10:48:48,0.0
-4064,1360,-13636,-142,197,-180,2025-02-17 10:48:48,0.0
-4072,1456,-13476,-182,175,-164,2025-02-17 10:48:48,0.0
-3956,1392,-13636,-175,194,-179,2025-02-17 10:48:48,0.0
-4044,1420,-13652,-174,171,-185,2025-02-17 10:48:48,0.0
-4112,1372,-13632,-167,180,-159,2025-02-17 10:48:48,0.0
-4016,1420,-13524,-133,174,-182,2025-02-17 10:48:48,0.0
-3992,1432,-13600,-146,194,-170,2025-02-17 10:48:48,0.0
-3944,1440,-13524,-173,183,-165,2025-02-17 10:48:48,0.0
-3992,1368,-13568,-152,180,-155,2025-02-17 10:48:48,0.0
-4032,1488,-13664,-158,196,-194,2025-02-17 10:48:48,0.0
-4084,1380,-13724,-149,170,-196,2025-02-17 10:48:49,0.0
-4016,1412,-13660,-156,160,-169,2025-02-17 10:48:49,0.0
-4008,1436,-13604,-160,165,-177,2025-02-17 10:48:49,0.0
-4068,1392,-13556,-151,182,-182,2025-02-17 10:48:49,0.0
-3956,1496,-13668,-149,191,-190,2025-02-17 10:48:49,0.0
-4008,1400,-13608,-186,172,-155,2025-02-17 10:48:49,0.0
-4004,1460,-13780,-161,160,-171,2025-02-17 10:48:49,0.0
-3996,1428,-13648,-161,178,-190,2025-02-17 10:48:49,0.0
-3884,1376,-13556,-148,173,-172,2025-02-17 10:48:49,0.0
-4032,1432,-13684,-194,190,-182,2025-02-17 10:48:49,0.0
-4056,1420,-13560,-166,190,-168,2025-02-17 10:48:49,0.0
-3988,1440,-13580,-159,171,-190,2025-02-17 10:48:49,0.0
-3928,1340,-13564,-162,189,-182,2025-02-17 10:48:49,0.0
-4060,1432,-13564,-162,159,-176,2025-02-17 10:48:49,0.0
-4016,1388,-13612,-200,190,-193,2025-02-17 10:48:49,0.0
-4024,1428,-13584,-161,184,-157,2025-02-17 10:48:49,0.0
-4080,1332,-13600,-190,177,-183,2025-02-17 10:48:49,0.0
-4140,1420,-13664,-162,162,-179,2025-02-17 10:48:49,0.0
-4124,1392,-13484,-134,174,-171,2025-02-17 10:48:49,0.0
-4140,1408,-13612,-156,180,-172,2025-02-17 10:48:49,0.0
-4048,1416,-13648,-166,197,-190,2025-02-17 10:48:49,0.0
-4044,1432,-13568,-188,161,-176,2025-02-17 10:48:49,0.0
-4124,1436,-13696,-134,189,-192,2025-02-17 10:48:49,0.0
-4016,1348,-13524,-169,172,-194,2025-02-17 10:48:49,0.0
-4060,1388,-13556,-165,203,-169,2025-02-17 10:48:49,0.0
-4008,1336,-13576,-148,164,-176,2025-02-17 10:48:49,0.0
-4108,1408,-13568,-157,189,-154,2025-02-17 10:48:49,0.0
-4004,1340,-13552,-165,175,-168,2025-02-17 10:48:49,0.0
-3928,1364,-13644,-153,182,-192,2025-02-17 10:48:49,0.0
-4052,1392,-13564,-159,193,-175,2025-02-17 10:48:49,0.0
-4092,1376,-13624,-176,174,-173,2025-02-17 10:48:49,0.0
-4028,1408,-13568,-168,183,-211,2025-02-17 10:48:49,0.0
-3896,1312,-13560,-137,168,-176,2025-02-17 10:48:49,0.0
-3968,1372,-13720,-146,190,-176,2025-02-17 10:48:49,0.0
-4000,1464,-13760,-152,159,-167,2025-02-17 10:48:49,0.0
-4104,1452,-13592,-153,180,-189,2025-02-17 10:48:49,0.0
-4064,1420,-13768,-161,193,-150,2025-02-17 10:48:49,0.0
-4024,1392,-13568,-168,174,-152,2025-02-17 10:48:49,0.0
-4028,1408,-13520,-140,185,-150,2025-02-17 10:48:49,0.0
-4072,1456,-13712,-164,196,-177,2025-02-17 10:48:49,0.0
-4116,1496,-13624,-157,164,-178,2025-02-17 10:48:49,0.0
-4032,1384,-13616,-160,168,-178,2025-02-17 10:48:49,0.0
-4096,1476,-13568,-157,169,-162,2025-02-17 10:48:49,0.0
-3964,1448,-13480,-145,183,-197,2025-02-17 10:48:49,0.0
-4084,1320,-13728,-145,186,-162,2025-02-17 10:48:49,0.0
-4020,1448,-13628,-142,189,-175,2025-02-17 10:48:49,0.0
-3996,1368,-13520,-150,146,-185,2025-02-17 10:48:49,0.0
-4140,1416,-13520,-183,161,-169,2025-02-17 10:48:49,0.0
-4060,1428,-13684,-158,193,-172,2025-02-17 10:48:49,0.0
-4076,1356,-13648,-148,183,-162,2025-02-17 10:48:49,0.0
-4124,1392,-13536,-162,199,-158,2025-02-17 10:48:49,0.0
-3988,1384,-13540,-148,178,-187,2025-02-17 10:48:49,0.0
-4104,1392,-13640,-137,170,-175,2025-02-17 10:48:49,0.0
-4104,1392,-13596,-143,187,-168,2025-02-17 10:48:49,0.0
-3980,1444,-13588,-179,168,-167,2025-02-17 10:48:49,0.0
-4076,1400,-13456,-181,166,-168,2025-02-17 10:48:49,0.0
-4092,1364,-13504,-167,178,-181,2025-02-17 10:48:49,0.0
-4024,1376,-13732,-118,198,-177,2025-02-17 10:48:49,0.0
-3868,1360,-13632,-155,175,-166,2025-02-17 10:48:49,0.0
-3964,1416,-13504,-187,168,-157,2025-02-17 10:48:49,
-4084,1356,-13604,-170,192,-157,2025-02-17 10:48:49,0.0
-3996,1416,-13404,-174,188,-167,2025-02-17 10:48:50,0.0
-4012,1432,-13596,-163,185,-185,2025-02-17 10:48:50,0.0
-4052,1532,-13688,-140,179,-176,2025-02-17 10:48:50,0.0
-4008,1400,-13584,-177,184,-180,2025-02-17 10:48:50,0.0
-3932,1428,-13604,-157,169,-186,2025-02-17 10:48:50,0.0
-3972,1448,-13680,-165,181,-189,2025-02-17 10:48:50,0.0
-3988,1336,-13484,-171,182,-169,2025-02-17 10:48:50,0.0
-4084,1396,-13616,-160,191,-188,2025-02-17 10:48:50,0.0
-4048,1372,-13552,-168,165,-175,2025-02-17 10:48:50,0.0
-3956,1376,-13532,-164,186,-154,2025-02-17 10:48:50,0.0
-3964,1356,-13660,-166,186,-174,2025-02-17 10:48:50,0.0
-3964,1404,-13604,-155,167,-168,2025-02-17 10:48:50,0.0
-4024,1468,-13520,-153,179,-182,2025-02-17 10:48:50,0.0
-4068,1440,-13440,-158,162,-160,2025-02-17 10:48:50,0.0
-3992,1360,-13712,-112,180,-182,2025-02-17 10:48:50,0.0
-4056,1368,-13720,-139,205,-190,2025-02-17 10:48:50,0.0
-4052,1352,-13592,-152,182,-169,2025-02-17 10:48:50,0.0
-3976,1396,-13668,-183,156,-182,2025-02-17 10:48:50,0.0
-4032,1400,-13588,-163,181,-188,2025-02-17 10:48:50,0.0
-4048,1376,-13568,-164,176,-170,2025-02-17 10:48:50,0.0
-3988,1456,-13552,-174,186,-171,2025-02-17 10:48:50,0.0
-3976,1320,-13692,-161,176,-206,2025-02-17 10:48:50,0.0
-4032,1432,-13632,-180,179,-175,2025-02-17 10:48:50,0.0
-4164,1408,-13684,-175,184,-163,2025-02-17 10:48:50,0.0
-4056,1372,-13520,-166,162,-159,2025-02-17 10:48:50,0.0
-4000,1476,-13572,-158,177,-157,2025-02-17 10:48:50,0.0
-4008,1396,-13472,-166,164,-157,2025-02-17 10:48:50,0.0
-4100,1340,-13800,-164,197,-195,2025-02-17 10:48:50,0.0
-4092,1340,-13544,-162,199,-166,2025-02-17 10:48:50,0.0
-4052,1332,-13676,-166,182,-176,2025-02-17 10:48:50,0.0
-3928,1412,-13676,-159,164,-182,2025-02-17 10:48:50,0.0
-4028,1412,-13716,-162,174,-160,2025-02-17 10:48:50,0.0
-4068,1476,-13692,-145,196,-180,2025-02-17 10:48:50,0.0
-4048,1356,-13684,-163,166,-194,2025-02-17 10:48:50,0.0
-3976,1432,-13520,-164,186,-161,2025-02-17 10:48:50,0.0
-4016,1380,-13708,-152,189,-194,2025-02-17 10:48:50,0.0
-3960,1340,-13588,-179,192,-171,2025-02-17 10:48:50,0.0
-4060,1468,-13600,-165,178,-178,2025-02-17 10:48:50,0.0
-4052,1436,-13660,-164,170,-150,2025-02-17 10:48:50,0.0
-3984,1336,-13684,-172,183,-193,2025-02-17 10:48:50,0.0
-3980,1376,-13772,-150,190,-184,2025-02-17 10:48:50,0.0
-4012,1380,-13612,-175,181,-161,2025-02-17 10:48:50,0.0
-4052,1332,-13576,-142,164,-169,2025-02-17 10:48:50,0.0
-3968,1360,-13552,-150,188,-175,2025-02-17 10:48:50,0.0
-4132,1328,-13684,-152,194,-150,2025-02-17 10:48:50,0.0
-3952,1460,-13620,-171,161,-186,2025-02-17 10:48:50,0.0
-4024,1396,-13556,-138,183,-182,2025-02-17 10:48:50,0.0
-4004,1412,-13548,-159,175,-166,2025-02-17 10:48:50,0.0
-4084,1420,-13576,-175,175,-178,2025-02-17 10:48:50,0.0
-4112,1324,-13660,-170,171,-162,2025-02-17 10:48:50,0.0
-3956,1332,-13636,-141,171,-171,2025-02-17 10:48:50,0.0
-4024,1344,-13652,-170,176,-188,2025-02-17 10:48:50,0.0
-4012,1368,-13480,-132,180,-189,2025-02-17 10:48:50,0.0
-3952,1340,-13452,-163,186,-182,2025-02-17 10:48:50,0.0
-4028,1332,-13476,-174,162,-170,2025-02-17 10:48:50,0.0
-4072,1440,-13568,-180,185,-178,2025-02-17 10:48:50,0.0
-4008,1392,-13588,-166,168,-169,2025-02-17 10:48:51,0.0
-4056,1372,-13532,-179,184,-175,2025-02-17 10:48:51,0.0
-4096,1412,-13544,-172,160,-189,2025-02-17 10:48:51,0.0
-3940,1364,-13616,-162,168,-166,2025-02-17 10:48:51,0.0
-4060,1324,-13508,-184,182,-180,2025-02-17 10:48:51,0.0
-4008,1388,-13652,-181,169,-171,2025-02-17 10:48:51,0.0
-3932,1396,-13692,-163,181,-165,2025-02-17 10:48:51,0.0
-4032,1360,-13484,-164,160,-169,2025-02-17 10:48:51,0.0
-3924,1444,-13644,-155,194,-166,2025-02-17 10:48:51,0.0
-4040,1412,-13676,-147,194,-149,2025-02-17 10:48:51,0.0
-3968,1336,-13528,-169,182,-168,2025-02-17 10:48:51,0.0
-4004,1436,-13492,-167,188,-176,2025-02-17 10:48:51,0.0
-4044,1304,-13572,-149,184,-210,2025-02-17 10:48:51,0.0
-3992,1436,-13616,-158,184,-158,2025-02-17 10:48:51,0.0
-4028,1364,-13660,-172,185,-162,2025-02-17 10:48:51,0.0
-4000,1384,-13560,-172,187,-178,2025-02-17 10:48:51,0.0
-4052,1416,-13620,-153,188,-186,2025-02-17 10:48:51,0.0
-3988,1436,-13400,-187,175,-189,2025-02-17 10:48:51,0.0
-3996,1340,-13528,-192,206,-159,2025-02-17 10:48:51,0.0
-3932,1340,-13636,-161,172,-190,2025-02-17 10:48:51,0.0
-3964,1384,-13660,-176,176,-180,2025-02-17 10:48:51,0.0
-4100,1420,-13612,-148,173,-177,2025-02-17 10:48:51,0.0
-4112,1364,-13544,-170,153,-166,2025-02-17 10:48:51,0.0
-4008,1288,-13652,-147,170,-173,2025-02-17 10:48:51,0.0
-3988,1460,-13640,-164,189,-173,2025-02-17 10:48:51,0.0
-3972,1300,-13568,-133,159,-156,2025-02-17 10:48:51,0.0
-4028,1308,-13560,-181,182,-165,2025-02-17 10:48:51,0.0
-3924,1388,-13584,-145,170,-154,2025-02-17 10:48:51,0.0
-4000,1508,-13624,-144,166,-173,2025-02-17 10:48:51,0.0
-4056,1416,-13632,-151,185,-173,2025-02-17 10:48:51,0.0
-3960,1384,-13684,-141,192,-164,2025-02-17 10:48:51,0.0
-4068,1472,-13624,-163,169,-189,2025-02-17 10:48:51,0.0
-4008,1348,-13620,-206,180,-175,2025-02-17 10:48:51,0.0
-3992,1384,-13484,-171,189,-162,2025-02-17 10:48:51,0.0
-4040,1364,-13564,-140,171,-181,2025-02-17 10:48:51,0.0
-4064,1424,-13772,-148,174,-187,2025-02-17 10:48:51,0.0
-3988,1388,-13776,-175,169,-155,2025-02-17 10:48:51,0.0
-3972,1452,-13656,-156,186,-190,2025-02-17 10:48:51,0.0
-4144,1400,-13588,-173,182,-164,2025-02-17 10:48:51,0.0
-4056,1556,-13664,-152,179,-173,2025-02-17 10:48:51,0.0
-3964,1320,-13632,-156,173,-199,2025-02-17 10:48:51,0.0
-4016,1500,-13584,-165,205,-188,2025-02-17 10:48:51,0.0
-4024,1316,-13600,-154,198,-168,2025-02-17 10:48:51,
-4008,1404,-13684,-189,181,-180,2025-02-17 10:48:51,0.0
-3972,1328,-13576,-194,172,-189,2025-02-17 10:48:51,0.0
-4016,1476,-13564,-162,194,-194,2025-02-17 10:48:51,0.0
-4004,1372,-13612,-163,167,-168,2025-02-17 10:48:51,0.0
-3984,1352,-13640,-158,170,-174,2025-02-17 10:48:51,0.0
-4024,1356,-13524,-166,203,-200,2025-02-17 10:48:51,0.0
-3908,1396,-13628,-151,210,-176,2025-02-17 10:48:51,0.0
-3956,1384,-13696,-151,186,-170,2025-02-17 10:48:51,0.0
-4052,1388,-13608,-148,183,-189,2025-02-17 10:48:51,0.0
-4000,1352,-13768,-153,173,-171,2025-02-17 10:48:51,0.0
-3996,1356,-13648,-151,181,-175,2025-02-17 10:48:51,0.0
-3964,1376,-13368,-142,164,-193,2025-02-17 10:48:51,0.0
-3964,1352,-13452,-178,181,-175,2025-02-17 10:48:51,0.0
-3912,1448,-13644,-136,166,-189,2025-02-17 10:48:51,0.0
-3996,1336,-13668,-162,186,-189,2025-02-17 10:48:51,0.0
-4044,1340,-13556,-172,170,-178,2025-02-17 10:48:51,0.0
-4040,1336,-13528,-160,182,-167,2025-02-17 10:48:51,0.0
-3952,1420,-13588,-171,200,-199,2025-02-17 10:48:51,0.0
-4092,1456,-13536,-152,204,-169,2025-02-17 10:48:51,0.0
-3988,1376,-13676,-192,189,-168,2025-02-17 10:48:51,0.0
-3916,1348,-13572,-166,184,-186,2025-02-17 10:48:51,0.0
-4024,1368,-13584,-172,167,-185,2025-02-17 10:48:51,0.0
-4024,1396,-13472,-168,161,-184,2025-02-17 10:48:52,0.0
-3992,1412,-13504,-174,187,-175,2025-02-17 10:48:52,0.0
-4000,1416,-13580,-162,194,-186,2025-02-17 10:48:52,0.0
-3988,1352,-13512,-162,178,-169,2025-02-17 10:48:52,0.0
-4016,1408,-13664,-189,173,-176,2025-02-17 10:48:52,0.0
-4092,1404,-13596,-175,166,-178,2025-02-17 10:48:52,0.0
-4060,1328,-13652,-158,167,-176,2025-02-17 10:48:52,0.0
-4016,1448,-13584,-170,178,-192,2025-02-17 10:48:52,0.0
-4092,1412,-13712,-147,180,-168,2025-02-17 10:48:52,0.0
-4036,1368,-13668,-164,170,-192,2025-02-17 10:48:52,0.0
-3944,1316,-13624,-186,189,-164,2025-02-17 10:48:52,0.0
-3964,1420,-13564,-150,205,-185,2025-02-17 10:48:52,0.0
-4032,1316,-13640,-156,175,-166,2025-02-17 10:48:52,0.0
-4040,1304,-13692,-187,169,-162,2025-02-17 10:48:52,0.0
-3984,1348,-13588,-162,169,-182,2025-02-17 10:48:52,0.0
-4112,1388,-13584,-177,179,-192,2025-02-17 10:48:52,0.0
-3980,1332,-13508,-163,172,-166,2025-02-17 10:48:52,0.0
-3948,1352,-13464,-166,164,-172,2025-02-17 10:48:52,0.0
-4076,1272,-13604,-143,203,-172,2025-02-17 10:48:52,0.0
-4036,1340,-13700,-197,171,-170,2025-02-17 10:48:52,0.0
-3964,1308,-13572,-170,178,-165,2025-02-17 10:48:52,0.0
-3972,1384,-13744,-140,183,-206,2025-02-17 10:48:52,0.0
-3980,1400,-13752,-175,200,-162,2025-02-17 10:48:52,0.0
-3964,1388,-13572,-147,161,-168,2025-02-17 10:48:52,0.0
-4036,1444,-13748,-154,181,-177,2025-02-17 10:48:52,0.0
-4104,1452,-13688,-172,154,-180,2025-02-17 10:48:52,0.0
-3976,1456,-13668,-165,183,-166,2025-02-17 10:48:52,0.0
-4040,1396,-13592,-179,188,-176,2025-02-17 10:48:52,0.0
-4020,1400,-13444,-164,199,-176,2025-02-17 10:48:52,0.0
-4068,1436,-13488,-155,194,-185,2025-02-17 10:48:52,0.0
-3928,1368,-13560,-151,171,-166,2025-02-17 10:48:52,0.0
-4020,1408,-13588,-156,192,-180,2025-02-17 10:48:52,0.0
-4048,1328,-13552,-160,182,-181,2025-02-17 10:48:52,0.0
-3924,1356,-13652,-165,179,-191,2025-02-17 10:48:52,0.0
-4048,1428,-13716,-154,191,-161,2025-02-17 10:48:52,0.0
-4092,1376,-13792,-182,185,-197,2025-02-17 10:48:52,0.0
-4112,1348,-13584,-149,186,-151,2025-02-17 10:48:52,0.0
-4008,1376,-13624,-163,188,-162,2025-02-17 10:48:52,0.0
-4032,1300,-13580,-158,173,-201,2025-02-17 10:48:52,0.0
-4016,1424,-13604,-171,162,-169,2025-02-17 10:48:52,0.0
-4024,1344,-13700,-157,190,-183,2025-02-17 10:48:52,0.0
-4068,1488,-13656,-177,180,-162,2025-02-17 10:48:52,0.0
-4076,1336,-13544,-166,168,-177,2025-02-17 10:48:52,0.0
-3924,1328,-13500,-179,176,-178,2025-02-17 10:48:52,0.0
-4016,1412,-13628,-156,180,-190,2025-02-17 10:48:52,0.0
-3988,1344,-13676,-172,193,-171,2025-02-17 10:48:52,0.0
-3988,1396,-13556,-149,165,-194,2025-02-17 10:48:52,0.0
-4048,1428,-13564,-155,175,-168,2025-02-17 10:48:52,0.0
-4104,1312,-13600,-135,186,-173,2025-02-17 10:48:52,0.0
-3992,1368,-13612,-180,173,-173,2025-02-17 10:48:52,0.0
-4008,1352,-13608,-162,166,-160,2025-02-17 10:48:52,0.0
-4100,1368,-13536,-161,180,-175,2025-02-17 10:48:52,0.0
-4016,1448,-13664,-114,193,-168,2025-02-17 10:48:52,0.0
-4032,1432,-13640,-147,179,-158,2025-02-17 10:48:52,0.0
-3980,1400,-13544,-161,172,-178,2025-02-17 10:48:52,0.0
-4016,1456,-13508,-158,150,-151,2025-02-17 10:48:52,0.0
-3936,1360,-13616,-171,201,-181,2025-02-17 10:48:52,0.0
-3992,1296,-13604,-163,161,-182,2025-02-17 10:48:52,0.0
-4064,1364,-13672,-160,178,-163,2025-02-17 10:48:52,0.0
-4040,1388,-13704,-148,180,-179,2025-02-17 10:48:52,0.0
-3944,1320,-13496,-163,153,-169,2025-02-17 10:48:53,0.0
-4044,1440,-13740,-181,173,-188,2025-02-17 10:48:53,0.0
-4124,1400,-13600,-162,162,-179,2025-02-17 10:48:53,0.0
-4056,1276,-13708,-180,181,-188,2025-02-17 10:48:53,0.0
-4068,1432,-13680,-145,176,-178,2025-02-17 10:48:53,0.0
-3980,1372,-13520,-155,191,-203,2025-02-17 10:48:53,0.0
-3916,1428,-13572,-151,177,-181,2025-02-17 10:48:53,0.0
-4008,1432,-13572,-151,170,-173,2025-02-17 10:48:53,0.0
-3944,1356,-13552,-157,183,-163,2025-02-17 10:48:53,0.0
-4048,1332,-13552,-163,210,-176,2025-02-17 10:48:53,0.0
-4016,1324,-13680,-173,179,-197,2025-02-17 10:48:53,0.0
-3976,1380,-13576,-198,166,-161,2025-02-17 10:48:53,0.0
-4024,1464,-13528,-144,195,-192,2025-02-17 10:48:53,0.0
-4084,1404,-13632,-144,215,-152,2025-02-17 10:48:53,0.0
-3960,1548,-13580,-178,165,-173,2025-02-17 10:48:53,0.0
-4008,1456,-13608,-144,187,-158,2025-02-17 10:48:53,0.0
-3940,1356,-13568,-184,180,-145,2025-02-17 10:48:53,0.0
-3936,1388,-13660,-142,169,-170,2025-02-17 10:48:53,
-4068,1360,-13556,-148,198,-179,2025-02-17 10:48:53,0.0
-4060,1468,-13592,-162,167,-169,2025-02-17 10:48:53,0.0
-4008,1392,-13492,-143,180,-171,2025-02-17 10:48:53,0.0
-4116,1380,-13548,-156,169,-210,2025-02-17 10:48:53,0.0
-4024,1340,-13556,-142,189,-177,2025-02-17 10:48:53,0.0
-4008,1308,-13556,-179,173,-170,2025-02-17 10:48:53,0.0
-4048,1468,-13620,-151,200,-169,2025-02-17 10:48:53,0.0
-3996,1360,-13640,-143,186,-154,2025-02-17 10:48:53,0.0
-4024,1360,-13640,-169,173,-164,2025-02-17 10:48:53,0.0
-3996,1408,-13528,-132,174,-186,2025-02-17 10:48:53,0.0
-4024,1416,-13616,-156,162,-185,2025-02-17 10:48:53,0.0
-4108,1408,-13560,-159,172,-193,2025-02-17 10:48:53,0.0
-4112,1360,-13524,-140,161,-151,2025-02-17 10:48:53,0.0
-3992,1448,-13476,-166,176,-183,2025-02-17 10:48:53,0.0
-3988,1408,-13560,-165,161,-178,2025-02-17 10:48:53,0.0
-3976,1396,-13580,-162,168,-167,2025-02-17 10:48:53,0.0
-4052,1396,-13592,-142,193,-167,2025-02-17 10:48:53,0.0
-3984,1332,-13748,-167,178,-171,2025-02-17 10:48:53,0.0
-3988,1380,-13580,-159,179,-173,2025-02-17 10:48:53,0.0
-3984,1348,-13664,-149,167,-184,2025-02-17 10:48:53,0.0
-4000,1324,-13704,-143,198,-176,2025-02-17 10:48:53,0.0
-3944,1436,-13680,-167,148,-172,2025-02-17 10:48:53,0.0
-4016,1392,-13464,-166,164,-174,2025-02-17 10:48:53,0.0
-3976,1360,-13676,-162,192,-166,2025-02-17 10:48:53,0.0
-3952,1452,-13592,-167,180,-164,2025-02-17 10:48:53,0.0
-3928,1452,-13620,-171,169,-188,2025-02-17 10:48:53,0.0
-4128,1372,-13584,-173,207,-159,2025-02-17 10:48:53,0.0
-3988,1556,-13448,-177,184,-202,2025-02-17 10:48:53,0.0
-3956,1260,-13840,-144,196,-156,2025-02-17 10:48:53,0.0
-4032,1472,-13628,-180,143,-179,2025-02-17 10:48:53,0.0
-4068,1416,-13464,-126,182,-201,2025-02-17 10:48:53,0.0
-3976,1412,-13692,-146,247,-205,2025-02-17 10:48:53,0.0
-3956,1264,-13756,-175,162,-173,2025-02-17 10:48:53,0.0
-3968,1328,-13628,-153,189,-172,2025-02-17 10:48:53,0.0
-4016,1264,-13636,-206,173,-154,2025-02-17 10:48:53,0.0
-3996,1436,-13464,-143,159,-203,2025-02-17 10:48:53,0.0
-4072,1348,-13652,-124,204,-176,2025-02-17 10:48:53,0.0
-3912,1328,-13476,-177,152,-142,2025-02-17 10:48:53,0.0
-4016,1364,-13600,-131,152,-177,2025-02-17 10:48:53,0.0
-3964,1348,-13644,-163,194,-209,2025-02-17 10:48:53,0.0
-4044,1492,-13580,-182,177,-173,2025-02-17 10:48:53,0.0
-3984,1452,-13628,-156,215,-181,2025-02-17 10:48:53,0.0
-3932,1452,-13716,-168,156,-179,2025-02-17 10:48:53,0.0
-3988,1284,-13644,-169,170,-181,2025-02-17 10:48:53,0.0
-4040,1440,-13500,-153,146,-152,2025-02-17 10:48:54,0.0
-4056,1324,-13608,-142,194,-165,2025-02-17 10:48:54,0.0
-4060,1356,-13588,-164,169,-176,2025-02-17 10:48:54,0.0
-4080,1412,-13464,-169,176,-172,2025-02-17 10:48:54,0.0
-4020,1332,-13476,-182,162,-176,2025-02-17 10:48:54,0.0
-3992,1380,-13704,-184,187,-157,2025-02-17 10:48:54,0.0
-4068,1356,-13452,-173,182,-178,2025-02-17 10:48:54,0.0
-3880,1348,-13528,-157,169,-164,2025-02-17 10:48:54,0.0
-4004,1416,-13584,-183,190,-187,2025-02-17 10:48:54,0.0
-4000,1396,-13536,-187,168,-171,2025-02-17 10:48:54,0.0
-3996,1324,-13648,-165,187,-173,2025-02-17 10:48:54,0.0
-4048,1332,-13588,-155,180,-183,2025-02-17 10:48:54,0.0
-4100,1348,-13504,-159,181,-176,2025-02-17 10:48:54,0.0
-3996,1364,-13672,-165,182,-169,2025-02-17 10:48:54,0.0
-4032,1392,-13548,-146,170,-176,2025-02-17 10:48:54,0.0
-3940,1308,-13684,-169,177,-181,2025-02-17 10:48:54,0.0
-4056,1384,-13540,-165,171,-179,2025-02-17 10:48:54,0.0
-4028,1380,-13572,-150,168,-190,2025-02-17 10:48:54,0.0
-4040,1372,-13628,-180,183,-161,2025-02-17 10:48:54,0.0
-4024,1388,-13716,-159,181,-176,2025-02-17 10:48:54,0.0
-3988,1352,-13688,-188,168,-196,2025-02-17 10:48:54,0.0
-4024,1264,-13716,-164,198,-173,2025-02-17 10:48:54,0.0
-4032,1344,-13656,-140,151,-163,2025-02-17 10:48:54,0.0
-4032,1444,-13684,-166,170,-172,2025-02-17 10:48:54,0.0
-3916,1356,-13632,-135,162,-175,2025-02-17 10:48:54,0.0
-4000,1456,-13596,-176,168,-188,2025-02-17 10:48:54,0.0
-3920,1276,-13532,-149,171,-173,2025-02-17 10:48:54,0.0
-3972,1432,-13672,-172,185,-180,2025-02-17 10:48:54,0.0
-4076,1416,-13564,-188,178,-195,2025-02-17 10:48:54,0.0
-4140,1368,-13492,-132,173,-163,2025-02-17 10:48:54,0.0
-3944,1352,-13752,-148,191,-189,2025-02-17 10:48:54,0.0
-4104,1356,-13568,-178,171,-171,2025-02-17 10:48:54,0.0
-3972,1332,-13556,-154,177,-176,2025-02-17 10:48:54,0.0
-4000,1492,-13628,-157,179,-172,2025-02-17 10:48:54,0.0
-3920,1428,-13572,-153,148,-174,2025-02-17 10:48:54,0.0
-4100,1432,-13476,-158,170,-178,2025-02-17 10:48:54,0.0
-4004,1328,-13592,-157,174,-194,2025-02-17 10:48:54,0.0
-3972,1364,-13476,-164,179,-162,2025-02-17 10:48:54,0.0
-3992,1372,-13572,-191,192,-161,2025-02-17 10:48:54,0.0
-3952,1252,-13656,-159,77,-182,2025-02-17 10:48:54,0.0
-3744,1344,-13424,-303,23,-90,2025-02-17 10:48:54,0.0
-3924,1264,-13968,-431,748,29,2025-02-17 10:48:54,0.0
-2264,1000,-10676,268,1322,-414,2025-02-17 10:48:54,0.0
-5348,2528,-15248,315,322,-247,2025-02-17 10:48:54,0.0
-5292,748,-16556,571,87,-549,2025-02-17 10:48:54,0.0
-1996,208,-15428,-1398,-1922,-317,2025-02-17 10:48:54,0.0
-4300,1752,-14028,-1025,-2122,568,2025-02-17 10:48:54,0.0
-3604,1896,-11768,-596,-2446,-547,2025-02-17 10:48:54,0.0
-4244,1496,-12868,-100,-1550,-736,2025-02-17 10:48:54,0.0
-2832,2592,-9928,711,-914,-4171,2025-02-17 10:48:54,0.0
-7152,1572,-12236,3230,834,-2809,2025-02-17 10:48:54,0.0
-7140,572,-16896,1528,3815,-1835,2025-02-17 10:48:54,0.0
-3804,-196,-14884,874,3612,-2427,2025-02-17 10:48:54,0.0
-3552,-380,-14680,957,2389,-3573,2025-02-17 10:48:54,0.0
-2532,-376,-15000,-576,284,-3469,2025-02-17 10:48:54,0.0
-3376,412,-13520,-431,29,-3691,2025-02-17 10:48:54,
-4184,1040,-12908,1472,1756,-4470,2025-02-17 10:48:54,0.0
-5776,1324,-15080,1190,3709,-5028,2025-02-17 10:48:54,0.0
-5396,1112,-14196,1403,6046,-6348,2025-02-17 10:48:54,0.0
-7164,1000,-14800,232,7595,-6464,2025-02-17 10:48:54,0.0
-5368,1008,-16732,-1513,9203,-4966,2025-02-17 10:48:54,0.0
-3328,1528,-17360,-454,13358,-5364,2025-02-17 10:48:55,0.0
-3692,1604,-18784,1117,18326,-6406,2025-02-17 10:48:55,0.0
-3560,1084,-21944,1026,21259,-7012,2025-02-17 10:48:55,0.0
-1972,280,-23344,-950,18910,-7773,2025-02-17 10:48:55,0.0
-5972,-320,-20720,-1029,14700,-6294,2025-02-17 10:48:55,0.0
840,-988,-24240,-2105,5864,-7267,2025-02-17 10:48:55,0.0
836,-1592,-22860,-3620,-5024,-7817,2025-02-17 10:48:55,0.0
-3316,-936,-19420,-1918,-12534,-7860,2025-02-17 10:48:55,0.0
-5656,-1400,-18948,-356,-17106,-4254,2025-02-17 10:48:55,0.0
-4336,-1512,-19592,-995,-19186,-1529,2025-02-17 10:48:55,0.0
-2504,-960,-19824,-2216,-20422,-2090,2025-02-17 10:48:55,0.0
-4056,-912,-19656,-4163,-20273,-3384,2025-02-17 10:48:55,0.0
-6252,-552,-18952,-5570,-19311,-2865,2025-02-17 10:48:55,0.0
-7668,-132,-18004,-5921,-18429,-825,2025-02-17 10:48:55,0.0
-8276,-252,-18388,-6104,-18224,3078,2025-02-17 10:48:55,0.0
-6968,-196,-19012,-6617,-18544,5843,2025-02-17 10:48:55,0.0
-6144,168,-18656,-7457,-19128,8162,2025-02-17 10:48:55,0.0
-3284,1120,-16964,-6335,-19664,8344,2025-02-17 10:48:55,0.0
-1196,2212,-16472,-4909,-20893,6219,2025-02-17 10:48:55,0.0
-2256,3280,-16100,-3477,-23473,4551,2025-02-17 10:48:55,0.0
-2368,3836,-15488,-4625,-25512,3649,2025-02-17 10:48:55,0.0
-5680,4500,-13472,-2607,-20194,-4118,2025-02-17 10:48:55,0.0
-13844,3552,-14096,-1582,-6774,-9448,2025-02-17 10:48:55,0.0
-17116,2628,-13236,-2485,5762,-7307,2025-02-17 10:48:55,0.0
-14056,1932,-10248,-2185,15353,-2481,2025-02-17 10:48:55,0.0
-7376,1876,-9828,-227,19312,-212,2025-02-17 10:48:55,0.0
-3048,2616,-11112,2117,18272,-2187,2025-02-17 10:48:55,0.0
-5028,3700,-16876,3972,16010,-5052,2025-02-17 10:48:55,0.0
-4324,4492,-14784,4040,12535,-6017,2025-02-17 10:48:55,0.0
-5104,3768,-15908,5987,7939,-6739,2025-02-17 10:48:55,0.0
-4016,1000,-14424,6747,4382,-7101,2025-02-17 10:48:55,0.0
-5564,-2260,-11700,7154,3113,-8198,2025-02-17 10:48:55,0.0
-7360,-3640,-12328,5860,4468,-6877,2025-02-17 10:48:55,0.0
-6564,-4352,-13312,2219,6431,-5639,2025-02-17 10:48:55,0.0
-5464,-2636,-12632,-1726,8004,-7451,2025-02-17 10:48:55,0.0
-5108,1024,-9484,-1742,5529,-8404,2025-02-17 10:48:55,0.0
-3720,7360,-7876,1381,3150,-9386,2025-02-17 10:48:55,0.0
-5268,6064,-11704,4075,-53,-7773,2025-02-17 10:48:55,0.0
-6228,1700,-8912,6971,-12918,565,2025-02-17 10:48:55,0.0
-4796,-1264,-14804,5810,-19690,1620,2025-02-17 10:48:55,0.0
-9084,-2264,-15048,-2791,-16490,1811,2025-02-17 10:48:55,0.0
-6972,1220,-1868,-4510,-13641,4083,2025-02-17 10:48:55,0.0
-252,668,-296,2183,-16134,2602,2025-02-17 10:48:55,0.0
-424,-952,-2812,1577,-16673,-384,2025-02-17 10:48:55,0.0
-5288,-876,-3780,-962,-15080,-66,2025-02-17 10:48:55,0.0
-9964,-472,-4292,-2906,-13383,4940,2025-02-17 10:48:55,0.0
-6048,-2608,-2500,-3738,-13032,8808,2025-02-17 10:48:55,0.0
-4828,-1628,-3792,-660,-12142,6294,2025-02-17 10:48:55,0.0
-6196,24,-6864,-596,-9217,2453,2025-02-17 10:48:55,0.0
-8108,1012,-6248,-336,-6581,128,2025-02-17 10:48:55,0.0
-8344,856,-5972,1067,-6670,29,2025-02-17 10:48:55,0.0
-8072,248,-6256,1392,-7730,1081,2025-02-17 10:48:55,0.0
-7888,268,-6420,787,-5649,376,2025-02-17 10:48:55,0.0
-8600,344,-6384,-531,-118,-2937,2025-02-17 10:48:55,0.0
-10412,-1852,-6264,-2022,4361,-4099,2025-02-17 10:48:55,0.0
-9164,-3168,-6160,-3408,7875,-5924,2025-02-17 10:48:55,0.0
-10984,-2960,-5296,-3316,10001,-6916,2025-02-17 10:48:55,0.0
-11120,-2000,-6072,-2976,10017,-5630,2025-02-17 10:48:55,0.0
-9064,-560,-6952,-3733,7394,-4010,2025-02-17 10:48:55,0.0
-5864,360,-6716,-4864,2420,-5284,2025-02-17 10:48:55,0.0
-6716,328,-5492,-4595,-1795,-8345,2025-02-17 10:48:55,0.0
-9908,356,-4720,-3016,-6089,-9204,2025-02-17 10:48:55,0.0
-11156,-32,-5312,-2178,-10041,-7338,2025-02-17 10:48:55,0.0
-9884,-676,-5984,-2680,-14123,-5341,2025-02-17 10:48:55,0.0
-10464,-796,-5532,-3547,-17806,-3852,2025-02-17 10:48:56,0.0
-10888,-12,-4584,-3458,-20799,-1997,2025-02-17 10:48:56,0.0
-11524,488,-4108,-2747,-22384,-384,2025-02-17 10:48:56,0.0
-12056,616,-3824,-2140,-22530,1110,2025-02-17 10:48:56,0.0
-11588,672,-3100,-1642,-21037,1708,2025-02-17 10:48:56,0.0
-10376,236,-2120,-833,-18270,523,2025-02-17 10:48:56,0.0
-9980,-496,-1884,-141,-15295,-891,2025-02-17 10:48:56,0.0
-9600,-816,-1700,255,-13027,-2868,2025-02-17 10:48:56,0.0
-11556,-388,-332,1131,-12353,-3680,2025-02-17 10:48:56,0.0
-14428,-1928,3996,1228,-15676,-3459,2025-02-17 10:48:56,0.0
-17524,-2624,4536,812,-24195,-1320,2025-02-17 10:48:56,0.0
-17792,-1788,3312,982,-32514,1666,2025-02-17 10:48:56,0.0
-14952,-1116,-752,1625,-32768,1535,2025-02-17 10:48:56,0.0
-17036,-1704,6832,933,-30516,116,2025-02-17 10:48:56,0.0
-14120,-3472,4248,2400,-8309,1450,2025-02-17 10:48:56,0.0
-9824,-2196,592,-466,-1062,2278,2025-02-17 10:48:56,0.0
-10244,-1724,296,-1648,-294,2034,2025-02-17 10:48:56,0.0
-12816,-3308,1324,465,2391,1533,2025-02-17 10:48:56,0.0
-13704,-2648,1816,1939,2640,1555,2025-02-17 10:48:56,0.0
-15144,-2280,1712,2461,1817,2205,2025-02-17 10:48:56,0.0
-13572,-2556,1032,1989,-245,1670,2025-02-17 10:48:56,0.0
-12824,-2136,1580,1736,-3246,-484,2025-02-17 10:48:56,0.0
-13236,-2220,2148,2788,-4364,-1729,2025-02-17 10:48:56,0.0
-12160,-1740,1548,4351,-2910,-1960,2025-02-17 10:48:56,0.0
-11356,-460,792,3941,188,-2243,2025-02-17 10:48:56,0.0
-11032,-940,1056,3320,3051,-3296,2025-02-17 10:48:56,0.0
-13508,-1740,796,2802,5212,-2732,2025-02-17 10:48:56,0.0
-13404,-2300,968,2235,5477,-2645,2025-02-17 10:48:56,0.0
-13840,-2268,1976,2373,4535,-2709,2025-02-17 10:48:56,0.0
-14040,-1928,1956,2793,3216,-2714,2025-02-17 10:48:56,0.0
-14708,-1344,2912,2764,1659,-2260,2025-02-17 10:48:56,
-14600,-1396,3248,3336,273,-719,2025-02-17 10:48:56,0.0
-12800,-996,2204,2821,-87,-669,2025-02-17 10:48:56,0.0
-12764,-244,944,317,1124,-830,2025-02-17 10:48:56,0.0
-12072,-412,756,-1706,3213,-665,2025-02-17 10:48:56,0.0
-12460,-592,92,-3951,5577,-401,2025-02-17 10:48:56,0.0
-10720,-3048,4076,-4267,8419,-449,2025-02-17 10:48:56,0.0
-13764,-3872,1948,-90,7738,-565,2025-02-17 10:48:56,0.0
-13636,-3308,-484,46,5876,-318,2025-02-17 10:48:56,0.0
-13868,-2744,76,-1985,3557,-1163,2025-02-17 10:48:56,0.0
-13956,-2432,1120,-3537,1851,-1107,2025-02-17 10:48:56,0.0
-12912,-2588,1412,-3662,585,-965,2025-02-17 10:48:56,0.0
-11412,-2556,528,-3701,335,-1559,2025-02-17 10:48:56,0.0
-10196,-2012,-764,-4178,951,-2430,2025-02-17 10:48:56,0.0
-11928,-1852,-1436,-6001,3530,-1782,2025-02-17 10:48:56,0.0
-11504,-2556,-1200,-6940,5462,-1067,2025-02-17 10:48:56,0.0
-13044,-2684,-220,-7152,5736,-574,2025-02-17 10:48:56,0.0
-13548,-2052,296,-7129,5109,189,2025-02-17 10:48:56,0.0
-13828,-1616,980,-6280,4614,670,2025-02-17 10:48:56,0.0
-14172,-1120,-284,-5912,4048,1286,2025-02-17 10:48:56,0.0
-14124,-1936,-2732,-6093,3420,1973,2025-02-17 10:48:56,0.0
-12312,-3988,-2156,-5821,4005,1501,2025-02-17 10:48:56,0.0
-13968,-4884,-3604,-4245,4472,990,2025-02-17 10:48:56,0.0
-14744,-3764,-1512,-3078,4299,1793,2025-02-17 10:48:56,0.0
-13808,-2332,-276,-2127,4097,1420,2025-02-17 10:48:56,0.0
-13724,-944,-996,-2742,3698,742,2025-02-17 10:48:56,0.0
-13344,-1060,-1612,-3057,2534,-1,2025-02-17 10:48:56,0.0
-12860,-436,-756,-3116,1547,39,2025-02-17 10:48:56,0.0
-12228,-400,356,-2919,1184,615,2025-02-17 10:48:56,0.0
-11224,-276,-228,-2475,1221,638,2025-02-17 10:48:56,0.0
-13936,-536,-4140,-1148,3237,-5,2025-02-17 10:48:56,0.0
-17236,2124,288,-1923,5729,-1970,2025-02-17 10:48:56,0.0
-20960,636,4340,-2458,3509,-3701,2025-02-17 10:48:57,0.0
-21916,1652,1984,-1813,166,-1827,2025-02-17 10:48:57,0.0
-17360,1336,128,-1383,-1772,-707,2025-02-17 10:48:57,0.0
-14400,980,-1412,-1083,-1597,-577,2025-02-17 10:48:57,0.0
-12780,-188,-2868,-1156,-35,-174,2025-02-17 10:48:57,0.0
-12956,-508,-2064,-1283,1628,-227,2025-02-17 10:48:57,0.0
-14044,-724,-1520,-1176,3423,1,2025-02-17 10:48:57,0.0
-12824,-1044,64,-854,4442,-106,2025-02-17 10:48:57,0.0
-14192,-260,-380,-915,5351,-101,2025-02-17 10:48:57,0.0
-14668,-8,-76,-96,4759,93,2025-02-17 10:48:57,0.0
-14244,-500,-688,815,3714,306,2025-02-17 10:48:57,0.0
-13748,-1012,-880,1107,2667,650,2025-02-17 10:48:57,0.0
-13364,-1184,-1352,1125,2491,914,2025-02-17 10:48:57,0.0
-11728,-1364,-992,1147,2809,443,2025-02-17 10:48:57,0.0
-12364,-1552,-188,1752,3456,214,2025-02-17 10:48:57,0.0
-14100,-2128,-272,2766,4303,615,2025-02-17 10:48:57,0.0
-14760,-1056,-3208,2673,3746,1282,2025-02-17 10:48:57,0.0
-14684,-360,-2184,2374,1210,1519,2025-02-17 10:48:57,0.0
-13548,-20,-1588,2422,-1135,2121,2025-02-17 10:48:57,0.0
-11724,-584,-2620,2055,-1132,1866,2025-02-17 10:48:57,0.0
-11416,-356,-2856,1610,593,1317,2025-02-17 10:48:57,0.0
-11780,-256,-3108,1356,2163,547,2025-02-17 10:48:57,0.0
-12092,-196,-1596,1766,2325,120,2025-02-17 10:48:57,0.0
-11884,-904,-964,2365,1496,178,2025-02-17 10:48:57,0.0
-11372,-1480,-1188,2936,1135,498,2025-02-17 10:48:57,0.0
-10544,-1628,-2416,2725,970,817,2025-02-17 10:48:57,0.0
-10628,-1636,-1924,2170,1307,901,2025-02-17 10:48:57,0.0
-9388,-2068,720,2598,624,475,2025-02-17 10:48:57,0.0
-9388,-2608,868,3629,-2417,60,2025-02-17 10:48:57,0.0
-10928,-2076,-164,4572,-2850,380,2025-02-17 10:48:57,0.0
-11380,-752,-1616,4973,-3069,680,2025-02-17 10:48:57,0.0
-11240,332,-2052,4953,-3874,662,2025-02-17 10:48:57,0.0
-12692,1076,-2176,4351,-5185,815,2025-02-17 10:48:57,0.0
-13276,2012,-2724,3439,-6343,1568,2025-02-17 10:48:57,0.0
-11652,1344,-1968,2387,-6946,2582,2025-02-17 10:48:57,0.0
-8304,988,-1368,1010,-6609,1842,2025-02-17 10:48:57,0.0
-10516,116,-176,198,-5789,2445,2025-02-17 10:48:58,0.0
-8792,-1300,-456,-360,-5458,2035,2025-02-17 10:48:59,0.0
-9796,-2932,-296,-274,-5203,1500,2025-02-17 10:48:59,0.0
-10676,-3748,-932,-57,-4313,545,2025-02-17 10:48:59,0.0
-11112,-3216,-1540,-121,-3034,-363,2025-02-17 10:48:59,0.0
-14560,-2200,-1032,-556,-3195,-268,2025-02-17 10:48:59,0.0
-15412,-2128,36,-3735,-8495,-1689,2025-02-17 10:48:59,0.0
-14976,-1216,-940,-3684,-8577,-1029,2025-02-17 10:48:59,0.0
-13772,-2072,964,-3382,-8441,-940,2025-02-17 10:48:59,0.0
-21636,4524,17548,-770,-12205,-657,2025-02-17 10:48:59,0.0
-11532,456,10044,-151,192,-130,2025-02-17 10:48:59,0.0
-11536,540,10196,-158,208,-133,2025-02-17 10:48:59,0.0
-11644,432,10216,-60,172,-77,2025-02-17 10:48:59,0.0
-11612,492,10252,-74,214,-98,2025-02-17 10:48:59,0.0
-11440,588,10232,-88,324,-129,2025-02-17 10:48:59,0.0
-11620,556,10228,-79,402,-194,2025-02-17 10:48:59,0.0
-11764,512,10112,-137,312,-200,2025-02-17 10:48:59,0.0
-11760,620,9872,-171,158,-198,2025-02-17 10:48:59,0.0
-11700,528,9888,-85,22,-150,2025-02-17 10:48:59,0.0
-11536,576,10052,-109,39,-135,2025-02-17 10:48:59,0.0
-11548,496,10084,-168,156,-192,2025-02-17 10:48:59,0.0
-11628,528,10116,-190,108,-186,2025-02-17 10:48:59,0.0
-11684,432,10384,-174,168,-158,2025-02-17 10:48:59,0.0
-11472,592,10132,-159,230,-165,2025-02-17 10:48:59,0.0
-11640,636,10168,-205,300,-192,2025-02-17 10:48:59,0.0
-11652,460,10132,-151,343,-230,2025-02-17 10:48:59,0.0
-11692,632,9900,-166,288,-182,2025-02-17 10:48:59,0.0
-11700,372,9920,-210,248,-152,2025-02-17 10:48:59,0.0
-11568,524,10212,-211,157,-157,2025-02-17 10:48:59,0.0
-11608,528,9892,-238,255,-179,2025-02-17 10:48:59,0.0
-11636,380,10200,-211,223,-161,2025-02-17 10:48:59,0.0
-11736,444,10148,-184,277,-147,2025-02-17 10:49:00,0.0
-11720,452,10252,-111,229,-143,2025-02-17 10:49:00,
-11580,408,10096,-114,225,-148,2025-02-17 10:49:00,0.0
-11556,488,9992,-176,237,-159,2025-02-17 10:49:00,0.0
-11600,548,10108,-172,263,-187,2025-02-17 10:49:00,0.0
-11636,468,10224,-102,323,-126,2025-02-17 10:49:00,0.0
-11708,456,10296,-119,256,-130,2025-02-17 10:49:00,0.0
-11504,492,10092,-118,268,-151,2025-02-17 10:49:00,0.0
-11648,548,9764,-110,252,-178,2025-02-17 10:49:00,0.0
-11612,484,9948,-132,157,-176,2025-02-17 10:49:00,0.0
-11672,552,10040,-124,255,-163,2025-02-17 10:49:00,0.0
-11728,592,9852,-151,160,-185,2025-02-17 10:49:00,0.0
-11716,584,10084,-167,124,-161,2025-02-17 10:49:00,0.0
-11676,592,10032,-173,166,-143,2025-02-17 10:49:00,0.0
-11632,588,10324,-158,200,-145,2025-02-17 10:49:00,0.0
-11604,500,10144,-159,212,-159,2025-02-17 10:49:00,0.0
-11660,512,10056,-149,207,-165,2025-02-17 10:49:00,0.0
-11640,540,10148,-240,315,-171,2025-02-17 10:49:00,0.0
-11820,568,10100,-174,324,-145,2025-02-17 10:49:00,0.0
-11808,396,9944,-136,251,-146,2025-02-17 10:49:00,0.0
-11668,568,9924,-183,188,-155,2025-02-17 10:49:00,0.0
-11628,460,10136,-176,240,-163,2025-02-17 10:49:00,0.0
-11604,488,9956,-150,291,-155,2025-02-17 10:49:00,0.0
-11660,460,9984,-121,239,-148,2025-02-17 10:49:00,0.0
-11716,508,10192,-150,299,-185,2025-02-17 10:49:00,0.0
-11600,412,9988,-108,269,-199,2025-02-17 10:49:00,0.0
-11608,436,10084,-92,206,-159,2025-02-17 10:49:00,0.0
-11612,420,10132,-79,228,-169,2025-02-17 10:49:00,0.0
-11676,408,9864,-104,215,-189,2025-02-17 10:49:00,0.0
-11728,452,10028,-117,168,-178,2025-02-17 10:49:00,0.0
-11756,532,9868,-73,-15,-169,2025-02-17 10:49:00,0.0
-11664,436,9876,-112,1,-159,2025-02-17 10:49:00,0.0
-11632,548,9976,-147,109,-140,2025-02-17 10:49:00,0.0
-11696,620,10144,-56,207,-140,2025-02-17 10:49:00,0.0
-11708,544,10004,-92,295,-133,2025-02-17 10:49:00,0.0
-11824,592,10076,-171,462,-257,2025-02-17 10:49:00,0.0
-11932,680,9940,-266,509,-467,2025-02-17 10:49:00,0.0
-11872,400,10072,-188,392,-501,2025-02-17 10:49:00,0.0
-11340,660,9072,-363,136,-744,2025-02-17 10:49:00,0.0
-11008,884,9296,-441,213,-905,2025-02-17 10:49:00,0.0
-10680,720,9736,-388,763,-866,2025-02-17 10:49:00,0.0
-11044,720,9544,-450,1264,-922,2025-02-17 10:49:00,0.0
-11620,740,9972,-526,1658,-1019,2025-02-17 10:49:00,0.0
-12004,296,9272,-710,1456,-974,2025-02-17 10:49:00,0.0
-12084,248,9200,-682,874,-1133,2025-02-17 10:49:00,0.0
-11988,704,9064,-949,285,-1382,2025-02-17 10:49:00,0.0
-11860,1192,9796,-1123,216,-1384,2025-02-17 10:49:00,0.0
-11440,708,10072,-1104,408,-1118,2025-02-17 10:49:00,0.0
-11340,392,10644,-1101,996,-800,2025-02-17 10:49:00,0.0
-11456,100,10324,-999,1597,-582,2025-02-17 10:49:00,0.0
-11932,-124,10604,-903,1617,-444,2025-02-17 10:49:00,0.0
-11804,-464,10580,-851,1493,-378,2025-02-17 10:49:00,0.0
-11544,-264,10520,-927,1414,-433,2025-02-17 10:49:00,0.0
-11448,-156,10376,-942,1705,-350,2025-02-17 10:49:00,0.0
-11236,-116,10148,-1056,2094,-356,2025-02-17 10:49:00,0.0
-11700,-96,10296,-1043,2281,-335,2025-02-17 10:49:00,0.0
-11552,-72,9948,-1061,2366,-356,2025-02-17 10:49:00,0.0
-11504,-332,9956,-939,2357,-430,2025-02-17 10:49:00,0.0
-11556,-344,9908,-862,2550,-438,2025-02-17 10:49:00,0.0
-11612,-248,9948,-776,2797,-480,2025-02-17 10:49:00,0.0
-11308,-132,10192,-604,3081,-401,2025-02-17 10:49:00,0.0
-11224,-220,9804,-582,3977,-238,2025-02-17 10:49:01,0.0
-11196,-256,9284,-662,4871,-107,2025-02-17 10:49:01,0.0
-11852,-132,8792,-708,5330,81,2025-02-17 10:49:01,0.0
-12024,-152,8804,-763,5554,271,2025-02-17 10:49:01,0.0
-14924,316,9580,-678,5235,367,2025-02-17 10:49:01,0.0
-11520,-152,8288,-586,5678,175,2025-02-17 10:49:01,0.0
-12156,-684,8908,-589,5330,-125,2025-02-17 10:49:01,0.0
-13632,-524,8120,-488,4327,-93,2025-02-17 10:49:01,0.0
-13876,-888,7344,-327,2748,-60,2025-02-17 10:49:01,0.0
-12776,-1004,7120,-405,1448,-147,2025-02-17 10:49:01,0.0
-13296,-840,7504,-349,771,-197,2025-02-17 10:49:01,0.0
-12536,-908,7312,-357,10,-403,2025-02-17 10:49:01,0.0
-12352,-260,6036,-965,264,-91,2025-02-17 10:49:01,0.0
-13288,2056,6576,-1556,2072,59,2025-02-17 10:49:01,0.0
-12504,2220,9920,-1524,2511,-604,2025-02-17 10:49:01,0.0
-10640,988,13040,-1063,4196,-1459,2025-02-17 10:49:01,0.0
-13184,96,13960,-274,9822,-2061,2025-02-17 10:49:01,0.0
-17576,-436,12632,404,16562,-1836,2025-02-17 10:49:01,0.0
-20564,-548,11592,765,19579,-796,2025-02-17 10:49:01,0.0
-21816,-1836,10732,668,17791,1209,2025-02-17 10:49:01,0.0
-20320,-1396,10392,329,13199,2251,2025-02-17 10:49:01,0.0
-15864,-192,8684,-720,8121,1681,2025-02-17 10:49:01,0.0
-15172,152,7988,-1409,6605,1131,2025-02-17 10:49:01,0.0
-15664,-112,5804,-1836,7857,791,2025-02-17 10:49:01,0.0
-18224,-1092,5932,-1470,8858,1203,2025-02-17 10:49:01,0.0
-18276,-728,4324,-1062,6577,1948,2025-02-17 10:49:01,0.0
-16388,140,2548,-1074,3223,2082,2025-02-17 10:49:01,0.0
-15080,1240,3044,-1074,2998,1614,2025-02-17 10:49:01,0.0
-14296,1596,2320,-1806,5028,685,2025-02-17 10:49:01,0.0
-15336,844,2472,-2404,6677,91,2025-02-17 10:49:01,0.0
-15452,404,2240,-2490,7321,373,2025-02-17 10:49:01,0.0
-15544,316,2224,-2475,8304,262,2025-02-17 10:49:01,0.0
-16208,504,1992,-2184,8680,-99,2025-02-17 10:49:01,0.0
-16104,228,1572,-2299,9109,-633,2025-02-17 10:49:01,0.0
-22200,672,3828,-2163,8543,-924,2025-02-17 10:49:01,0.0
-16360,428,2056,-1975,8874,-1345,2025-02-17 10:49:01,0.0
-16140,484,1472,-1701,8166,-1422,2025-02-17 10:49:01,0.0
-15428,948,636,-1429,8083,-1453,2025-02-17 10:49:01,0.0
-15008,1184,424,-1302,8656,-1511,2025-02-17 10:49:01,0.0
-14356,1312,248,-1291,9219,-1684,2025-02-17 10:49:01,0.0
-14052,980,404,-994,9175,-1829,2025-02-17 10:49:01,
-14052,104,-356,-609,9460,-1828,2025-02-17 10:49:01,0.0
-21768,-96,1604,628,5544,-1672,2025-02-17 10:49:01,0.0
-12996,-300,-1956,1361,8383,-2675,2025-02-17 10:49:01,0.0
-14204,-368,-680,1497,6857,-2575,2025-02-17 10:49:01,0.0
-14096,-540,-52,1488,4540,-2221,2025-02-17 10:49:01,0.0
-12260,-836,-644,1351,2144,-1564,2025-02-17 10:49:01,0.0
-12348,-1324,-528,1388,945,-1460,2025-02-17 10:49:01,0.0
-11480,-840,-632,1517,-388,-2142,2025-02-17 10:49:01,0.0
-11268,288,-184,1088,-2008,-2681,2025-02-17 10:49:01,0.0
-11136,380,-876,294,-4772,-2658,2025-02-17 10:49:01,0.0
-10708,12,-1384,-21,-6508,-2698,2025-02-17 10:49:01,0.0
-9832,436,-1156,175,-7409,-3051,2025-02-17 10:49:01,0.0
-9616,564,-1096,497,-7986,-3274,2025-02-17 10:49:01,0.0
-9120,428,-1460,410,-8548,-3042,2025-02-17 10:49:01,0.0
-8176,228,-1028,12,-8965,-3079,2025-02-17 10:49:01,0.0
-7688,-24,-1244,-606,-8625,-3437,2025-02-17 10:49:02,0.0
-7900,-348,-852,-1024,-7306,-3547,2025-02-17 10:49:02,0.0
-8856,-392,48,-887,-5141,-3306,2025-02-17 10:49:02,0.0
-9644,-1008,-632,-1088,-3673,-2837,2025-02-17 10:49:02,0.0
-10004,-1852,-988,-1108,-2619,-2802,2025-02-17 10:49:02,0.0
-11044,-2496,-1544,-825,-1218,-3029,2025-02-17 10:49:02,0.0
-11572,-2788,-1704,-409,229,-3062,2025-02-17 10:49:02,0.0
-12400,-3180,-1476,254,1108,-2933,2025-02-17 10:49:02,0.0
-12248,-3244,-1612,444,470,-2582,2025-02-17 10:49:02,0.0
-12496,-2336,220,233,-1262,-1916,2025-02-17 10:49:02,0.0
-11412,-2560,200,718,-621,-1647,2025-02-17 10:49:02,0.0
-10620,-2892,-360,1102,239,-1948,2025-02-17 10:49:02,0.0
-10724,-3360,-68,783,251,-2672,2025-02-17 10:49:02,0.0
-11828,-3436,2008,700,443,-3029,2025-02-17 10:49:02,0.0
-13080,-3512,3380,1154,1200,-2695,2025-02-17 10:49:02,0.0
-13888,-3972,2596,1697,1240,-2208,2025-02-17 10:49:02,0.0
-14280,-4160,2232,2652,723,-2316,2025-02-17 10:49:02,0.0
-13376,-4052,452,2476,-403,-2598,2025-02-17 10:49:02,0.0
-14816,-3516,-568,1269,-744,-2261,2025-02-17 10:49:02,0.0
-15248,-2916,600,156,-266,-505,2025-02-17 10:49:02,0.0
-13096,-2932,2344,186,-895,684,2025-02-17 10:49:02,0.0
-12240,-3208,2404,-72,-1002,866,2025-02-17 10:49:02,0.0
-11396,-3476,1900,-635,-22,666,2025-02-17 10:49:02,0.0
-11024,-4152,976,-1116,868,239,2025-02-17 10:49:02,0.0
-11304,-4532,832,-1406,1850,-99,2025-02-17 10:49:02,0.0
-12048,-4228,1932,-1049,2356,181,2025-02-17 10:49:02,0.0
-11928,-3612,1848,-1334,2868,454,2025-02-17 10:49:02,0.0
-11728,-3688,2476,-2175,3669,198,2025-02-17 10:49:02,0.0
-12520,-4240,2852,-2508,4611,24,2025-02-17 10:49:02,0.0
-13980,-4532,2732,-2158,5331,471,2025-02-17 10:49:02,0.0
-13976,-4352,2688,-1252,4753,1375,2025-02-17 10:49:02,0.0
-14412,-3748,740,-1982,3790,539,2025-02-17 10:49:02,0.0
-14928,-4040,1956,-3536,3164,713,2025-02-17 10:49:02,0.0
-14060,-5096,3300,-1804,1969,106,2025-02-17 10:49:02,0.0
-14320,-5124,2388,404,370,330,2025-02-17 10:49:02,0.0
-13764,-4796,1240,1208,-94,23,2025-02-17 10:49:02,0.0
-14412,-4544,436,546,1165,-850,2025-02-17 10:49:02,0.0
-15832,-3884,684,-103,1578,-1761,2025-02-17 10:49:02,0.0
-16164,-4108,-480,12,404,-1909,2025-02-17 10:49:02,0.0
-16424,-3704,-1056,-533,-132,-990,2025-02-17 10:49:02,0.0
-16412,-4532,-244,-1276,596,-34,2025-02-17 10:49:02,0.0
-15780,-4608,-156,-1428,1645,901,2025-02-17 10:49:02,0.0
-15116,-5128,-440,-870,1382,1587,2025-02-17 10:49:02,0.0
-15820,-3660,-1820,-668,-247,1846,2025-02-17 10:49:02,0.0
-15708,-2284,-2012,-1073,-2092,2287,2025-02-17 10:49:02,0.0
-14708,-1100,-1932,-885,-3451,2710,2025-02-17 10:49:02,0.0
-13916,-124,-2108,-572,-4091,3097,2025-02-17 10:49:02,0.0
-12580,616,-2240,-696,-3716,3232,2025-02-17 10:49:02,0.0
-11800,480,-1880,-800,-2359,3036,2025-02-17 10:49:02,0.0
-11568,740,-1316,-949,-1757,2467,2025-02-17 10:49:02,0.0
-11100,564,-1484,-1210,-713,1995,2025-02-17 10:49:02,0.0
-11456,-32,-1340,-1207,100,1272,2025-02-17 10:49:02,0.0
-12784,-520,-788,-1006,1203,1097,2025-02-17 10:49:02,0.0
-13964,-400,-760,-903,1976,1672,2025-02-17 10:49:02,0.0
-14008,-688,-1648,-1644,2348,1974,2025-02-17 10:49:02,0.0
-14284,-900,-852,-1931,1787,1580,2025-02-17 10:49:02,0.0
-14988,-1024,-1388,-2174,1428,1797,2025-02-17 10:49:02,0.0
-13764,-952,76,-2233,633,2270,2025-02-17 10:49:02,0.0
-12952,-772,292,-1458,-65,1894,2025-02-17 10:49:02,0.0
-12880,-340,-460,-1134,110,1939,2025-02-17 10:49:02,0.0
-12348,-60,-132,-1399,517,2005,2025-02-17 10:49:02,0.0
-12032,316,208,-1529,1307,1470,2025-02-17 10:49:03,0.0
-12028,760,376,-1075,1676,958,2025-02-17 10:49:03,0.0
-12328,324,92,-528,2243,484,2025-02-17 10:49:03,0.0
-12920,452,492,-139,2413,202,2025-02-17 10:49:03,0.0
-13492,440,596,162,2123,338,2025-02-17 10:49:03,0.0
-13348,108,448,108,1900,419,2025-02-17 10:49:03,0.0
-12928,-364,492,-374,1939,584,2025-02-17 10:49:03,0.0
-12708,-652,164,-1030,2647,708,2025-02-17 10:49:03,0.0
-12500,-284,792,-1086,4108,628,2025-02-17 10:49:03,0.0
-14028,60,-1716,-1597,7425,567,2025-02-17 10:49:03,0.0
-15340,596,-1952,-2777,10643,1615,2025-02-17 10:49:03,0.0
-13356,-652,-1036,-2773,11840,1171,2025-02-17 10:49:03,0.0
-12360,-1804,-28,-1408,13151,-103,2025-02-17 10:49:03,0.0
-13876,-1744,-12,157,17029,-394,2025-02-17 10:49:03,0.0
-15084,-1336,-1760,1030,24381,1246,2025-02-17 10:49:03,0.0
-13816,-1456,-3640,581,32767,3306,2025-02-17 10:49:03,0.0
-11760,-1284,-4304,-320,32767,3273,2025-02-17 10:49:03,0.0
-11076,-480,-5088,-540,32767,2544,2025-02-17 10:49:03,0.0
-11568,188,-6356,-597,32767,3392,2025-02-17 10:49:03,0.0
-10312,516,-7648,-763,32767,4865,2025-02-17 10:49:03,0.0
-8200,260,-8752,-1174,32767,7308,2025-02-17 10:49:03,0.0
-4084,-384,-8748,-2702,27201,9667,2025-02-17 10:49:03,0.0
156,-1008,-7460,-4375,13001,9095,2025-02-17 10:49:03,0.0
2200,-1216,-6372,-6254,539,7649,2025-02-17 10:49:03,
3784,-820,-5316,-9529,-9114,6239,2025-02-17 10:49:03,0.0
3888,-404,-2172,-11689,-14918,4299,2025-02-17 10:49:03,0.0
4332,-484,448,-12948,-18283,3001,2025-02-17 10:49:03,0.0
2888,-652,1664,-13165,-20059,2518,2025-02-17 10:49:03,0.0
3080,-552,1156,-13097,-20329,3100,2025-02-17 10:49:03,0.0
2688,-544,1344,-13189,-19980,3439,2025-02-17 10:49:03,0.0
2544,-576,1824,-13016,-19843,3863,2025-02-17 10:49:03,0.0
2684,-368,1796,-12843,-19759,4211,2025-02-17 10:49:03,0.0
2788,-368,1792,-12524,-19592,4496,2025-02-17 10:49:03,0.0
2768,-436,1748,-12110,-19582,4740,2025-02-17 10:49:03,0.0
2528,-384,2024,-11520,-19785,5037,2025-02-17 10:49:03,0.0
2308,-348,1732,-9457,-19350,5531,2025-02-17 10:49:03,0.0
2428,-348,1624,-8851,-18609,5606,2025-02-17 10:49:03,0.0
2436,-356,1680,-8377,-17566,5536,2025-02-17 10:49:03,0.0
2588,-388,1444,-7929,-16178,5377,2025-02-17 10:49:03,0.0
2344,-364,1704,-7546,-14676,5086,2025-02-17 10:49:03,0.0
2652,-324,1656,-7149,-13014,4658,2025-02-17 10:49:03,0.0
2196,-352,1560,-6769,-11287,4323,2025-02-17 10:49:03,0.0
2200,-160,1888,-6256,-9097,4013,2025-02-17 10:49:03,0.0
1792,-56,2068,-5711,-6664,3665,2025-02-17 10:49:03,0.0
2028,-36,1328,-5825,-4720,3432,2025-02-17 10:49:03,0.0
-17004,3912,4276,-1218,637,427,2025-02-17 10:49:03,0.0
-32768,24396,32767,32767,16767,-32768,2025-02-17 10:49:03,0.0
-32768,-26780,-32768,12115,32767,-28563,2025-02-17 10:49:03,0.0
-10696,-26372,-32768,-24277,32767,4217,2025-02-17 10:49:03,0.0
1668,-5340,-2820,-31292,32767,4267,2025-02-17 10:49:03,0.0
8660,112,8340,-22843,32767,6388,2025-02-17 10:49:03,0.0
13868,2000,11724,-12352,32767,6136,2025-02-17 10:49:03,0.0
25776,4188,10880,-385,32767,5597,2025-02-17 10:49:03,0.0
24684,5668,2236,4115,278,-2818,2025-02-17 10:49:03,0.0
7804,5172,-1192,3359,-20405,-3515,2025-02-17 10:49:03,0.0
4260,3480,-5304,7279,-32768,-2433,2025-02-17 10:49:03,0.0
704,688,-14300,8535,-32768,-1283,2025-02-17 10:49:03,0.0
-4552,332,-22416,3804,-32768,1108,2025-02-17 10:49:03,0.0
-9368,-284,-27296,-1707,-32768,4185,2025-02-17 10:49:03,0.0
-11640,436,-23092,-2597,-20097,4036,2025-02-17 10:49:03,0.0
-9728,2868,-12120,72,-9308,2846,2025-02-17 10:49:03,0.0
-5076,2968,-11080,-125,-4814,947,2025-02-17 10:49:03,0.0
-4928,2912,-8216,-911,-191,-178,2025-02-17 10:49:03,0.0
-5404,2108,-11228,733,4966,-406,2025-02-17 10:49:03,0.0
-5572,968,-14296,378,6961,-204,2025-02-17 10:49:04,0.0
-3600,1736,-15124,138,6642,-103,2025-02-17 10:49:04,0.0
-1924,2128,-14292,-73,4196,-165,2025-02-17 10:49:04,0.0
-1904,1868,-14136,-133,694,-150,2025-02-17 10:49:04,0.0
-3384,1688,-13996,-246,-1753,-179,2025-02-17 10:49:04,0.0
-4736,1760,-13244,-233,-1147,-142,2025-02-17 10:49:04,0.0
-4388,1636,-13112,-159,795,-203,2025-02-17 10:49:04,0.0
-3724,1776,-13816,-185,704,-191,2025-02-17 10:49:04,0.0
-3620,2016,-13620,-154,74,-131,2025-02-17 10:49:04,0.0
-3864,1828,-13692,-125,165,-192,2025-02-17 10:49:04,0.0
-3920,1736,-13812,-237,151,-180,2025-02-17 10:49:04,0.0
-3908,1876,-13356,-143,120,-179,2025-02-17 10:49:04,0.0
-3932,1812,-13588,-127,222,-172,2025-02-17 10:49:04,0.0
-3888,1716,-13812,-170,263,-148,2025-02-17 10:49:04,0.0
-3676,1844,-13652,-224,206,-147,2025-02-17 10:49:04,0.0
-3936,1916,-13544,-147,145,-175,2025-02-17 10:49:04,0.0
-3944,1716,-13768,-148,140,-194,2025-02-17 10:49:04,0.0
-3948,1780,-13584,-181,188,-199,2025-02-17 10:49:04,0.0
-3876,1892,-13480,-168,216,-168,2025-02-17 10:49:04,0.0
-3772,1824,-13744,-167,209,-162,2025-02-17 10:49:04,0.0
-3920,1764,-13596,-198,161,-202,2025-02-17 10:49:04,0.0
-3944,1876,-13752,-184,162,-196,2025-02-17 10:49:04,0.0
-3992,1796,-13432,-145,214,-176,2025-02-17 10:49:04,0.0
-3836,1840,-13648,-175,231,-172,2025-02-17 10:49:04,0.0
-3920,1844,-13652,-172,177,-181,2025-02-17 10:49:04,0.0
-3932,1712,-13740,-145,143,-187,2025-02-17 10:49:04,0.0
-3904,1832,-13612,-154,179,-188,2025-02-17 10:49:04,0.0
-3920,1832,-13480,-171,167,-167,2025-02-17 10:49:04,0.0
-3948,1780,-13752,-167,180,-177,2025-02-17 10:49:04,0.0
-3784,1904,-13608,-184,190,-169,2025-02-17 10:49:04,0.0
-3812,1808,-13740,-147,187,-192,2025-02-17 10:49:04,0.0
-3916,1812,-13464,-160,195,-190,2025-02-17 10:49:04,0.0
-3908,1784,-13552,-140,169,-184,2025-02-17 10:49:04,0.0
-3936,1848,-13672,-156,180,-170,2025-02-17 10:49:04,0.0
-3892,1780,-13592,-166,167,-188,2025-02-17 10:49:04,0.0
-3944,1848,-13560,-162,162,-167,2025-02-17 10:49:04,0.0
-3952,1832,-13656,-168,189,-183,2025-02-17 10:49:04,0.0
-3844,1824,-13520,-172,194,-172,2025-02-17 10:49:04,0.0
-3840,1844,-13500,-153,204,-196,2025-02-17 10:49:04,0.0
-3880,1840,-13636,-134,189,-175,2025-02-17 10:49:04,0.0
-3976,1884,-13524,-159,154,-183,2025-02-17 10:49:04,0.0
-3892,1828,-13580,-159,191,-165,2025-02-17 10:49:04,0.0
-3848,1688,-13588,-178,182,-196,2025-02-17 10:49:04,0.0
-3952,1840,-13660,-154,187,-165,2025-02-17 10:49:04,0.0
-3900,1772,-13540,-179,199,-186,2025-02-17 10:49:04,0.0
-3920,1880,-13700,-146,182,-180,2025-02-17 10:49:04,0.0
-3848,1916,-13532,-168,179,-170,2025-02-17 10:49:04,0.0
-3900,1868,-13604,-171,188,-189,2025-02-17 10:49:04,0.0
-3864,1820,-13692,-181,175,-179,2025-02-17 10:49:04,0.0
-3952,1848,-13664,-166,168,-168,2025-02-17 10:49:04,0.0
-3856,1780,-13652,-151,200,-158,2025-02-17 10:49:04,0.0
-3888,1760,-13508,-179,166,-198,2025-02-17 10:49:04,0.0
-3792,1752,-13712,-162,183,-180,2025-02-17 10:49:04,0.0
-3848,1816,-13468,-165,189,-181,2025-02-17 10:49:04,0.0
-3912,1788,-13540,-151,176,-165,2025-02-17 10:49:04,0.0
-3916,1708,-13696,-160,199,-157,2025-02-17 10:49:04,0.0
-3820,1772,-13572,-164,159,-184,2025-02-17 10:49:04,0.0
-3936,1764,-13596,-170,174,-177,2025-02-17 10:49:04,0.0
-3968,1744,-13612,-158,186,-189,2025-02-17 10:49:04,0.0
-3928,1860,-13528,-180,177,-173,2025-02-17 10:49:04,
-3912,1828,-13624,-175,177,-178,2025-02-17 10:49:05,0.0
-3852,1836,-13760,-154,184,-153,2025-02-17 10:49:05,0.0
-3852,1796,-13528,-159,181,-172,2025-02-17 10:49:05,0.0
-3920,1936,-13528,-168,193,-169,2025-02-17 10:49:05,0.0
-3824,1828,-13544,-177,188,-180,2025-02-17 10:49:05,0.0
-3812,1812,-13648,-172,183,-200,2025-02-17 10:49:05,0.0
-3912,1712,-13488,-150,160,-156,2025-02-17 10:49:05,0.0
-3812,1756,-13612,-162,164,-194,2025-02-17 10:49:05,0.0
-3900,1732,-13548,-197,185,-183,2025-02-17 10:49:05,0.0
-3868,1700,-13632,-185,187,-165,2025-02-17 10:49:05,0.0
-3912,1856,-13596,-167,175,-165,2025-02-17 10:49:05,0.0
-3900,1832,-13584,-149,182,-190,2025-02-17 10:49:05,0.0
-3936,1840,-13488,-165,174,-174,2025-02-17 10:49:05,0.0
-3828,1796,-13592,-182,188,-179,2025-02-17 10:49:05,0.0
-3932,1884,-13508,-169,167,-173,2025-02-17 10:49:05,0.0
-3792,1844,-13528,-159,192,-178,2025-02-17 10:49:05,0.0
-3788,1796,-13520,-135,185,-174,2025-02-17 10:49:05,0.0
-3860,1772,-13548,-152,179,-163,2025-02-17 10:49:05,0.0
-3928,1820,-13516,-179,170,-167,2025-02-17 10:49:05,0.0
-3864,1752,-13604,-147,170,-164,2025-02-17 10:49:05,0.0
-3876,1896,-13572,-178,181,-163,2025-02-17 10:49:05,0.0
-3912,1872,-13588,-166,175,-192,2025-02-17 10:49:05,0.0
-3848,1864,-13512,-181,175,-172,2025-02-17 10:49:05,0.0
-3860,1848,-13720,-163,172,-164,2025-02-17 10:49:05,0.0
-3868,1824,-13568,-148,183,-199,2025-02-17 10:49:05,0.0
-3856,1816,-13588,-177,182,-191,2025-02-17 10:49:05,0.0
-3960,1760,-13536,-155,184,-186,2025-02-17 10:49:05,0.0
-3816,1832,-13664,-170,167,-155,2025-02-17 10:49:05,0.0
-3836,1856,-13780,-128,176,-179,2025-02-17 10:49:05,0.0
-3828,1852,-13556,-149,183,-201,2025-02-17 10:49:05,0.0
-3900,1776,-13552,-175,166,-168,2025-02-17 10:49:05,0.0
-3872,1912,-13688,-181,170,-182,2025-02-17 10:49:05,0.0
-3880,1856,-13540,-155,174,-168,2025-02-17 10:49:05,0.0
-3916,1764,-13604,-125,184,-174,2025-02-17 10:49:05,0.0
-3808,1916,-13464,-155,177,-176,2025-02-17 10:49:05,0.0
-3928,1748,-13704,-146,176,-180,2025-02-17 10:49:05,0.0
-3880,1800,-13676,-171,175,-201,2025-02-17 10:49:05,0.0
-3864,1816,-13536,-158,178,-177,2025-02-17 10:49:05,0.0
-3868,1872,-13604,-150,202,-181,2025-02-17 10:49:05,0.0
-3872,1808,-13552,-181,185,-188,2025-02-17 10:49:05,0.0
-3808,1884,-13596,-161,174,-155,2025-02-17 10:49:05,0.0
-3896,1816,-13528,-165,208,-143,2025-02-17 10:49:05,0.0
-3892,1808,-13732,-165,164,-182,2025-02-17 10:49:05,0.0
-3884,1844,-13660,-138,195,-159,2025-02-17 10:49:05,0.0
-3860,1764,-13596,-166,173,-190,2025-02-17 10:49:05,0.0
-3748,1860,-13544,-181,180,-166,2025-02-17 10:49:05,0.0
-3840,1772,-13560,-165,193,-174,2025-02-17 10:49:05,0.0
-3924,1828,-13648,-170,194,-174,2025-02-17 10:49:05,0.0
-3816,1768,-13580,-161,185,-159,2025-02-17 10:49:05,0.0
-3888,1820,-13628,-153,179,-169,2025-02-17 10:49:05,0.0
-3892,1844,-13596,-159,198,-175,2025-02-17 10:49:05,0.0
-3812,1780,-13648,-159,183,-175,2025-02-17 10:49:05,0.0
-3904,1788,-13660,-179,176,-179,2025-02-17 10:49:05,0.0
-3760,1908,-13452,-79,254,-176,2025-02-17 10:49:05,0.0
-3980,1756,-13888,-225,321,-192,2025-02-17 10:49:05,0.0
-3816,1972,-13720,-155,114,-174,2025-02-17 10:49:05,0.0
-3880,1640,-13572,-138,181,-214,2025-02-17 10:49:05,0.0
-4132,1880,-13712,-165,240,-183,2025-02-17 10:49:05,0.0
-3844,1768,-13704,-177,202,-152,2025-02-17 10:49:05,0.0
-3760,1816,-13780,-193,187,-173,2025-02-17 10:49:05,0.0
-3796,2080,-13508,-140,79,-203,2025-02-17 10:49:05,0.0
-3844,1540,-13856,-289,-102,-170,2025-02-17 10:49:06,0.0
-3416,1804,-13744,-333,-542,-199,2025-02-17 10:49:06,0.0
-4672,1916,-13480,19,203,-99,2025-02-17 10:49:06,0.0
-3920,1952,-13224,-206,3,-393,2025-02-17 10:49:06,0.0
-3564,1932,-13780,-82,483,-262,2025-02-17 10:49:06,0.0
-4064,1864,-13692,-123,711,-238,2025-02-17 10:49:06,0.0
-3716,1324,-13684,-315,192,-150,2025-02-17 10:49:06,0.0
-4492,1984,-13784,-359,153,-345,2025-02-17 10:49:06,0.0
-3508,2112,-13552,-154,1091,-294,2025-02-17 10:49:06,0.0
-3320,1456,-13916,-326,673,-295,2025-02-17 10:49:06,0.0
-3456,1256,-13660,-1054,284,-340,2025-02-17 10:49:06,0.0
-4188,1956,-13092,-658,913,-453,2025-02-17 10:49:06,0.0
-5556,2608,-13444,85,1762,-216,2025-02-17 10:49:06,0.0
-2548,2144,-13928,15,2072,-284,2025-02-17 10:49:06,0.0
-2480,1956,-14204,279,-756,-43,2025-02-17 10:49:06,0.0
-2988,1416,-14256,-195,-2474,28,2025-02-17 10:49:06,0.0
-3244,1748,-13448,-66,-3173,-23,2025-02-17 10:49:06,0.0
-3896,2488,-12960,538,-3503,-87,2025-02-17 10:49:06,0.0
-4604,2116,-14104,612,-4208,677,2025-02-17 10:49:06,0.0
-4764,1164,-13244,858,-4069,822,2025-02-17 10:49:06,0.0
-5116,988,-13488,816,-2342,1095,2025-02-17 10:49:06,0.0
-3772,1632,-13532,79,-1855,-220,2025-02-17 10:49:06,0.0
-6120,2492,-12204,986,172,-243,2025-02-17 10:49:06,0.0
-3808,1484,-14096,1492,-41,-38,2025-02-17 10:49:06,0.0
-3812,852,-14040,1897,-2550,1142,2025-02-17 10:49:06,0.0
-4636,660,-12932,3559,-4505,2938,2025-02-17 10:49:06,0.0
-3960,1340,-13068,7397,-3282,4174,2025-02-17 10:49:06,0.0
-4036,596,-15008,9507,-229,4472,2025-02-17 10:49:06,0.0
-2940,308,-16468,8636,983,3926,2025-02-17 10:49:06,0.0
-1124,456,-17492,6943,710,1829,2025-02-17 10:49:06,0.0
2400,80,-18860,5116,584,-2224,2025-02-17 10:49:06,0.0
824,-1744,-25368,-65,-756,-7385,2025-02-17 10:49:06,0.0
-2140,-764,-22604,-5567,1433,-10866,2025-02-17 10:49:06,0.0
-5356,1100,-19624,-6605,10219,-13633,2025-02-17 10:49:06,0.0
-8332,2548,-20364,-6796,22691,-12079,2025-02-17 10:49:06,0.0
-9384,3692,-18668,-8406,30628,-7417,2025-02-17 10:49:06,0.0
-7604,3944,-13620,-7585,32767,-2800,2025-02-17 10:49:06,0.0
-6132,3188,-12264,-4902,32767,1306,2025-02-17 10:49:06,0.0
-3276,1964,-13928,-3733,32767,3207,2025-02-17 10:49:06,
-916,1292,-15000,-3862,32767,3498,2025-02-17 10:49:06,0.0
1184,1416,-15228,-3197,27902,2857,2025-02-17 10:49:06,0.0
4244,2020,-14884,-1131,16542,-126,2025-02-17 10:49:06,0.0
3460,2184,-19976,-2304,3735,-1188,2025-02-17 10:49:06,0.0
1352,2404,-18632,-3819,-13951,1738,2025-02-17 10:49:06,0.0
-40,1516,-16424,-1700,-23591,4984,2025-02-17 10:49:06,0.0
52,192,-16168,2820,-28269,6071,2025-02-17 10:49:06,0.0
-712,-628,-17096,6861,-27485,4496,2025-02-17 10:49:06,0.0
-2796,-612,-19576,6541,-19831,1906,2025-02-17 10:49:06,0.0
-3308,588,-17440,4677,-12223,1219,2025-02-17 10:49:06,0.0
-2952,1644,-14364,4766,-6808,1401,2025-02-17 10:49:06,0.0
-1724,2288,-12044,7132,-4744,2453,2025-02-17 10:49:06,0.0
-352,2464,-11208,10136,-5902,3852,2025-02-17 10:49:06,0.0
1196,1796,-11832,12860,-9265,4680,2025-02-17 10:49:06,0.0
296,972,-14324,14599,-11084,4865,2025-02-17 10:49:06,0.0
-1692,-1936,-26160,8098,1520,3085,2025-02-17 10:49:06,0.0
156,-2224,-25900,4846,4983,94,2025-02-17 10:49:06,0.0
1372,-2056,-24656,4684,5504,-2983,2025-02-17 10:49:06,0.0
1460,-1632,-23628,5480,2027,-4281,2025-02-17 10:49:06,0.0
2616,-1428,-23160,5504,-5927,-3555,2025-02-17 10:49:06,0.0
3584,-1864,-21652,4471,-12853,-4150,2025-02-17 10:49:06,0.0
1508,-2768,-20532,3019,-16498,-5740,2025-02-17 10:49:06,0.0
-2444,-3432,-19956,1116,-14528,-6168,2025-02-17 10:49:06,0.0
-7576,-3776,-18444,-849,-7278,-4398,2025-02-17 10:49:07,0.0
-10468,-3648,-17068,-1797,3908,-537,2025-02-17 10:49:07,0.0
-7288,-3196,-15796,-2529,15781,2410,2025-02-17 10:49:07,0.0
-2584,-2960,-14488,-3261,21425,1301,2025-02-17 10:49:07,0.0
-692,-2540,-13988,-3769,21964,-506,2025-02-17 10:49:07,0.0
-584,-2384,-14624,-4663,18795,-1295,2025-02-17 10:49:07,0.0
-1040,-2312,-15884,-7212,11718,479,2025-02-17 10:49:07,0.0
508,-2904,-15364,-9129,4672,2266,2025-02-17 10:49:07,0.0
1928,-3104,-15112,-9982,-1302,796,2025-02-17 10:49:07,0.0
700,-2120,-13352,-8618,-4655,-1566,2025-02-17 10:49:07,0.0
-1776,-404,-11820,-5661,-5999,-1847,2025-02-17 10:49:07,0.0
-3344,876,-9740,-2274,-6246,144,2025-02-17 10:49:07,0.0
-3324,1132,-7684,1558,-5601,2496,2025-02-17 10:49:07,0.0
-2316,312,-6988,5748,-3183,3310,2025-02-17 10:49:07,0.0
-1140,-752,-7872,7851,436,2028,2025-02-17 10:49:07,0.0
-1572,-1392,-9220,6903,4373,419,2025-02-17 10:49:07,0.0
-2448,-1796,-11188,2041,6722,869,2025-02-17 10:49:07,0.0
-1096,-2432,-9900,-4444,8386,415,2025-02-17 10:49:07,0.0
-1132,-2956,-5928,-7128,8829,-322,2025-02-17 10:49:07,0.0
-2448,-2400,-2988,-4096,7171,439,2025-02-17 10:49:07,0.0
-3140,-1508,-3484,1096,3052,3303,2025-02-17 10:49:07,0.0
-1336,-848,-6868,3624,-2922,5820,2025-02-17 10:49:07,0.0
1132,-376,-9964,2093,-9832,5010,2025-02-17 10:49:07,0.0
792,-28,-10504,-796,-17426,3056,2025-02-17 10:49:07,0.0
-1368,-16,-9632,-2188,-24224,2696,2025-02-17 10:49:07,0.0
-2776,-164,-9592,-2220,-29693,3749,2025-02-17 10:49:07,0.0
-2844,-1028,-9416,-1424,-32768,4361,2025-02-17 10:49:07,0.0
-3500,-1736,-10352,-925,-32768,4493,2025-02-17 10:49:07,0.0
-3840,-2164,-10468,-651,-32768,4901,2025-02-17 10:49:07,0.0
-4876,-2584,-11072,-175,-32768,5210,2025-02-17 10:49:07,0.0
-6996,-2828,-12116,174,-32768,5260,2025-02-17 10:49:07,0.0
-8220,-2604,-13024,-251,-31028,4938,2025-02-17 10:49:07,0.0
-9224,-2244,-13344,-1151,-24764,4503,2025-02-17 10:49:07,0.0
-9572,-1284,-13108,-1933,-17916,4207,2025-02-17 10:49:07,0.0
-9736,-40,-11808,-2107,-10915,4214,2025-02-17 10:49:07,0.0
-7540,1760,-10260,-1536,-5184,3909,2025-02-17 10:49:07,0.0
-5916,2916,-8992,-596,-1058,3211,2025-02-17 10:49:07,0.0
-5532,2720,-7380,-65,2427,2536,2025-02-17 10:49:07,0.0
-5436,2060,-6264,594,5375,1723,2025-02-17 10:49:07,0.0
-6128,1084,-5484,1663,8110,1442,2025-02-17 10:49:07,0.0
-5996,-456,-5472,2994,10533,1345,2025-02-17 10:49:07,0.0
17888,-3860,-12296,12716,-29933,2143,2025-02-17 10:49:07,0.0
-11608,-3824,-3388,8913,-32768,-184,2025-02-17 10:49:07,0.0
-13700,-3684,-15376,1033,-32768,-417,2025-02-17 10:49:07,0.0
-17372,-2756,816,536,-32768,-546,2025-02-17 10:49:07,0.0
-17976,-2084,1904,7410,-24184,-1652,2025-02-17 10:49:07,0.0
-17380,-932,-4372,9656,-15759,-2284,2025-02-17 10:49:07,0.0
-14372,-828,-7488,5519,-20511,-173,2025-02-17 10:49:07,0.0
-13844,-1012,-4204,3067,-24675,932,2025-02-17 10:49:07,0.0
-14332,-1248,-1172,4183,-26644,1620,2025-02-17 10:49:07,0.0
-13900,-1356,1476,7624,-24888,1384,2025-02-17 10:49:07,0.0
-14528,-656,-844,7223,-20739,1891,2025-02-17 10:49:07,0.0
-13148,-608,-2188,4597,-11034,1554,2025-02-17 10:49:07,0.0
-10056,-356,1296,4101,-1031,236,2025-02-17 10:49:07,0.0
-9672,-148,592,5144,4327,-748,2025-02-17 10:49:07,0.0
-9516,-1008,1536,5257,5086,-2153,2025-02-17 10:49:07,0.0
-12992,-1728,112,2841,4043,-4614,2025-02-17 10:49:07,0.0
-15044,-1416,2056,3114,3259,-4294,2025-02-17 10:49:07,0.0
-14368,-924,140,3680,1300,-3751,2025-02-17 10:49:08,0.0
-14092,-460,-3256,183,-1220,-3921,2025-02-17 10:49:08,0.0
-15900,1256,-156,-1379,-826,-3052,2025-02-17 10:49:08,0.0
-14392,1908,160,-1133,1374,-1653,2025-02-17 10:49:08,0.0
-14900,136,-1884,-2212,2581,-455,2025-02-17 10:49:08,0.0
-15044,-1552,32,-2934,2764,535,2025-02-17 10:49:08,0.0
-14772,-2064,1208,-2155,1781,670,2025-02-17 10:49:08,0.0
-14696,-1708,96,-1314,560,-161,2025-02-17 10:49:08,0.0
-15796,-1052,-700,-1243,-181,-452,2025-02-17 10:49:08,0.0
-15116,-1956,-340,-1445,-1247,468,2025-02-17 10:49:08,0.0
-14784,-2264,-40,-997,-1503,1655,2025-02-17 10:49:08,0.0
-14864,-1812,-1196,-1479,-772,3368,2025-02-17 10:49:08,0.0
-13440,-1160,-1796,-4126,880,4897,2025-02-17 10:49:08,0.0
-11624,-1728,-1000,-4421,1564,3848,2025-02-17 10:49:08,0.0
-11576,-1588,-344,-4289,1994,1249,2025-02-17 10:49:08,0.0
-14172,-1404,-68,-3362,1647,275,2025-02-17 10:49:08,0.0
-15384,-1468,20,-976,-321,2418,2025-02-17 10:49:08,0.0
-14828,-292,-1944,-703,-1487,4078,2025-02-17 10:49:08,0.0
-13600,572,-1764,-2404,-1393,4016,2025-02-17 10:49:08,
-12840,192,-1476,-3351,-726,3201,2025-02-17 10:49:08,0.0
-12100,456,-1396,-3508,-266,2160,2025-02-17 10:49:08,0.0
-12392,380,-1396,-3427,-47,1358,2025-02-17 10:49:08,0.0
-12944,104,-1120,-3165,656,1121,2025-02-17 10:49:08,0.0
-12940,-288,-1568,-2735,1832,1178,2025-02-17 10:49:08,0.0
-15012,804,-796,-2193,3361,-322,2025-02-17 10:49:08,0.0
-15688,-36,-1072,-2055,3226,229,2025-02-17 10:49:08,0.0
-15120,-696,-776,-1953,2449,610,2025-02-17 10:49:08,0.0
-14596,-564,8,-1295,717,704,2025-02-17 10:49:08,0.0
-13716,280,236,-490,-1319,1023,2025-02-17 10:49:08,0.0
-12448,1372,-232,-42,-2770,843,2025-02-17 10:49:08,0.0
-11668,2032,-412,-150,-2848,101,2025-02-17 10:49:08,0.0
-11972,2440,-416,-514,-1817,-417,2025-02-17 10:49:08,0.0
-12072,2356,-800,-865,-300,-816,2025-02-17 10:49:08,0.0
-12844,2200,-608,-1122,711,-1177,2025-02-17 10:49:08,0.0
-13776,2064,-1420,-1238,708,-1146,2025-02-17 10:49:08,0.0
-14468,2000,-1120,-1454,-99,-976,2025-02-17 10:49:08,0.0
-13868,1648,-916,-1401,-1493,-1165,2025-02-17 10:49:08,0.0
-12624,1360,-72,-826,-3338,-2642,2025-02-17 10:49:08,0.0
-12652,1468,-976,-1203,-2948,-4338,2025-02-17 10:49:08,0.0
-12244,884,-700,-1439,-929,-3370,2025-02-17 10:49:08,0.0
-12108,436,-640,-1548,362,-3343,2025-02-17 10:49:08,0.0
-12468,220,-624,-1190,505,-3983,2025-02-17 10:49:08,0.0
-14000,-308,-116,-896,73,-3938,2025-02-17 10:49:08,0.0
-14408,-736,-12,-176,-768,-2721,2025-02-17 10:49:08,0.0
-13860,-212,828,975,-2056,-2120,2025-02-17 10:49:08,0.0
-14196,380,-500,1542,-3390,-1721,2025-02-17 10:49:08,0.0
-14020,764,48,1146,-4186,-827,2025-02-17 10:49:08,0.0
-11836,676,-724,1154,-4627,-212,2025-02-17 10:49:08,0.0
-11532,732,-1164,1252,-4008,183,2025-02-17 10:49:08,0.0
-10220,1000,-796,1167,-2666,-557,2025-02-17 10:49:08,0.0
-10076,1016,-568,2036,-586,-1904,2025-02-17 10:49:09,0.0
-11192,740,-1072,3305,1301,-2779,2025-02-17 10:49:09,0.0
-13076,172,-2328,3850,3507,-3006,2025-02-17 10:49:09,0.0
-15716,-144,-3152,3514,6534,-2851,2025-02-17 10:49:09,0.0
-17488,-872,-2532,2418,8341,-1676,2025-02-17 10:49:09,0.0
-17772,-1904,-1516,1911,7324,-790,2025-02-17 10:49:09,0.0
-17020,-2400,528,2333,4573,170,2025-02-17 10:49:09,0.0
-15988,-2468,1684,3668,1820,978,2025-02-17 10:49:09,0.0
-16332,-4824,-124,3681,3171,1985,2025-02-17 10:49:09,0.0
-13820,-1544,1088,2427,9612,2416,2025-02-17 10:49:09,0.0
-14452,1416,1648,4415,6645,1385,2025-02-17 10:49:09,0.0
-14388,3552,1836,5046,3134,686,2025-02-17 10:49:09,0.0
-14408,2804,1428,3970,7,-697,2025-02-17 10:49:09,0.0
-15212,104,1684,2786,-1859,-1509,2025-02-17 10:49:09,0.0
-15752,-2528,1196,1987,-2551,-1185,2025-02-17 10:49:09,0.0
-15316,-3784,584,1733,-2662,-399,2025-02-17 10:49:09,0.0
-14612,-4732,600,1748,-2479,-17,2025-02-17 10:49:09,0.0
-13384,-4536,716,1459,-2125,71,2025-02-17 10:49:09,0.0
-12480,-3592,176,958,-997,-525,2025-02-17 10:49:09,0.0
-12808,-2400,324,403,1649,-1008,2025-02-17 10:49:09,0.0
-12964,-1868,580,-51,3120,-806,2025-02-17 10:49:09,0.0
-13292,-1312,516,-391,3548,-614,2025-02-17 10:49:09,0.0
-13884,-1032,188,-608,2962,-384,2025-02-17 10:49:09,0.0
-13948,-1060,60,-824,1302,-374,2025-02-17 10:49:09,0.0
-13756,-1784,-324,-955,-439,-598,2025-02-17 10:49:09,0.0
-13332,-2480,-600,-815,-1187,-778,2025-02-17 10:49:09,0.0
-12372,-2728,-1444,-614,-1062,-813,2025-02-17 10:49:09,0.0
-11940,-2612,-1716,-656,158,-882,2025-02-17 10:49:09,0.0
-11832,-2024,-1048,-885,1352,-956,2025-02-17 10:49:09,0.0
-12116,-1524,-556,-1200,1761,-1260,2025-02-17 10:49:09,0.0
-12096,-1392,-312,-1263,1555,-1358,2025-02-17 10:49:09,0.0
-12276,-2164,-648,-1003,1793,-1291,2025-02-17 10:49:09,0.0
-12528,-3140,-1360,-625,2573,-1038,2025-02-17 10:49:09,0.0
-12504,-2908,-1816,-500,3112,-701,2025-02-17 10:49:09,0.0
-12716,-2300,-2064,-349,3323,-624,2025-02-17 10:49:09,0.0
-12888,-1952,-1992,-364,3634,-569,2025-02-17 10:49:09,0.0
-13148,-1692,-2176,-630,4069,-610,2025-02-17 10:49:09,0.0
-12640,-1952,-2664,-989,4039,-601,2025-02-17 10:49:09,0.0
-12088,-2240,-2732,-1051,3663,-850,2025-02-17 10:49:09,0.0
-11584,-2356,-2740,-1014,3532,-1188,2025-02-17 10:49:09,0.0
-11220,-2568,-2716,-1009,3912,-1758,2025-02-17 10:49:09,0.0
-11424,-2152,-2892,-1228,4078,-2118,2025-02-17 10:49:09,0.0
-11552,-1436,-2872,-1244,3778,-2217,2025-02-17 10:49:09,0.0
-12000,-1696,-2484,-1696,3215,-1842,2025-02-17 10:49:09,0.0
-11300,-1492,-2588,-2095,2392,-1098,2025-02-17 10:49:09,0.0
-10588,-1984,-1484,-2117,1274,-945,2025-02-17 10:49:09,0.0
-10680,-2104,-2264,-2299,-370,-1096,2025-02-17 10:49:09,0.0
-10744,-2328,-2316,-2388,-1002,-1076,2025-02-17 10:49:09,0.0
-9752,-2996,-2628,-2426,-168,-1216,2025-02-17 10:49:09,0.0
-9780,-2720,-2716,-2535,1101,-1528,2025-02-17 10:49:09,0.0
-9972,-2308,-3032,-2588,2197,-1690,2025-02-17 10:49:09,0.0
-10308,-2096,-2648,-2591,2976,-1642,2025-02-17 10:49:09,0.0
-11104,-2728,-2308,-2120,3512,-1447,2025-02-17 10:49:09,0.0
-11476,-3216,-3372,-1753,3586,-1121,2025-02-17 10:49:09,0.0
-11544,-3448,-3624,-1736,2761,-1170,2025-02-17 10:49:09,0.0
-11912,-2572,-3408,-1864,1476,-877,2025-02-17 10:49:09,0.0
-12432,-1572,-3092,-2124,388,-379,2025-02-17 10:49:09,0.0
-12060,-1096,-2500,-2260,-542,338,2025-02-17 10:49:09,0.0
-12052,-1008,-2020,-2068,-1983,655,2025-02-17 10:49:09,0.0
-11516,-1356,-2864,-1726,-4034,622,2025-02-17 10:49:09,0.0
-11836,-504,-3160,-1150,-5450,634,2025-02-17 10:49:09,0.0
-12040,364,-3020,-654,-5164,758,2025-02-17 10:49:09,0.0
-11836,524,-3236,-871,-5450,333,2025-02-17 10:49:09,0.0
-12556,732,-1656,-1425,-7327,-268,2025-02-17 10:49:09,0.0
-12740,596,-1072,-1260,-8595,16,2025-02-17 10:49:09,0.0
-12488,-1120,-1404,-1099,-9070,1242,2025-02-17 10:49:10,0.0
-11460,-2680,-1300,-1280,-8147,2798,2025-02-17 10:49:10,0.0
-11336,-2988,-1440,-794,-6276,3565,2025-02-17 10:49:10,0.0
-12360,-2716,-624,-33,-3819,3665,2025-02-17 10:49:10,
-14004,-2056,-636,863,-2389,2848,2025-02-17 10:49:10,0.0
-14392,-1008,-708,1108,-1471,2193,2025-02-17 10:49:10,0.0
-15924,316,-1416,1131,-1787,1458,2025-02-17 10:49:10,0.0
-16372,196,-1524,874,-1293,1448,2025-02-17 10:49:10,0.0
-18160,-764,-1332,1282,-2829,1091,2025-02-17 10:49:10,0.0
-14988,-644,-644,1834,-4323,1595,2025-02-17 10:49:10,0.0
-13264,-1088,-1632,2450,-4855,1643,2025-02-17 10:49:10,0.0
-13240,-1704,916,2457,-5674,520,2025-02-17 10:49:10,0.0
-16220,-476,-1256,2292,-6065,-221,2025-02-17 10:49:10,0.0
-16460,-1132,-268,3120,-6386,-680,2025-02-17 10:49:10,0.0
-17580,-1168,-728,3093,-7969,-124,2025-02-17 10:49:10,0.0
-15664,-944,696,2620,-9346,198,2025-02-17 10:49:10,0.0
-14296,-360,1036,2251,-9688,-409,2025-02-17 10:49:10,0.0
-15064,168,2060,1771,-9614,-1023,2025-02-17 10:49:10,0.0
-17188,-520,1576,1002,-8349,-1564,2025-02-17 10:49:10,0.0
-17960,-1800,1844,505,-8391,-1469,2025-02-17 10:49:10,0.0
-16036,-2060,2272,185,-8962,-1546,2025-02-17 10:49:10,0.0
-17780,-1236,2656,117,-8138,-1385,2025-02-17 10:49:10,0.0
-20360,160,5132,-398,-7062,-1190,2025-02-17 10:49:10,0.0
-22012,-368,6908,-299,-7549,-1343,2025-02-17 10:49:10,0.0
-20728,520,9892,46,-9027,-115,2025-02-17 10:49:10,0.0
-18184,-128,8700,468,-6586,-220,2025-02-17 10:49:10,0.0
-17232,-1176,6224,705,-2917,-899,2025-02-17 10:49:10,0.0
-17488,-1980,4016,1183,-4121,-269,2025-02-17 10:49:10,0.0
-14668,-1504,1984,1892,-8191,646,2025-02-17 10:49:10,0.0
-13324,-1456,2728,1866,-10579,890,2025-02-17 10:49:10,0.0
-12356,-2104,4676,1481,-10320,792,2025-02-17 10:49:10,0.0
-12420,-2768,5828,1198,-9171,698,2025-02-17 10:49:10,0.0
-12752,-4080,7496,1810,-7945,1152,2025-02-17 10:49:10,0.0
-12476,-3416,8724,2138,-7389,1484,2025-02-17 10:49:10,0.0
-11660,-2436,8240,2070,-6717,960,2025-02-17 10:49:10,0.0
-11624,-1912,7676,1677,-5919,250,2025-02-17 10:49:10,0.0
-12668,-1748,7828,1221,-5128,-185,2025-02-17 10:49:10,0.0
-12872,-1668,8860,1013,-4545,-282,2025-02-17 10:49:10,0.0
-13184,-704,7448,788,-4038,92,2025-02-17 10:49:10,0.0
-12860,400,8692,543,-4315,190,2025-02-17 10:49:10,0.0
-12152,192,8628,372,-4293,19,2025-02-17 10:49:10,0.0
-11480,-68,8616,435,-3475,-326,2025-02-17 10:49:10,0.0
-11612,392,8584,468,-2054,-519,2025-02-17 10:49:10,0.0
-11892,-136,8500,568,-763,-677,2025-02-17 10:49:10,0.0
-12440,-112,7396,58,279,-780,2025-02-17 10:49:10,0.0
-12888,-160,7924,-366,743,-829,2025-02-17 10:49:10,0.0
-13208,40,8592,-325,499,-890,2025-02-17 10:49:10,0.0
-13400,-132,9072,-101,-103,-1079,2025-02-17 10:49:10,0.0
-13984,-160,8932,235,-702,-1055,2025-02-17 10:49:10,0.0
-13932,-496,8744,518,-1488,-432,2025-02-17 10:49:10,0.0
-13036,-252,8108,539,-2500,468,2025-02-17 10:49:10,0.0
-12400,-120,8224,399,-2586,980,2025-02-17 10:49:10,0.0
-10704,-564,7512,359,-1951,963,2025-02-17 10:49:10,0.0
-11692,-1016,8972,220,-1601,452,2025-02-17 10:49:10,0.0
-11856,-1468,8884,559,-1431,49,2025-02-17 10:49:10,0.0
-12796,-1684,8996,590,-1451,96,2025-02-17 10:49:10,0.0
-12992,-1424,9284,531,-1916,519,2025-02-17 10:49:10,0.0
-12128,-804,9540,263,-2114,1064,2025-02-17 10:49:10,0.0
-11740,-236,9356,204,-1435,1306,2025-02-17 10:49:10,0.0
-11176,-420,8908,-220,-553,1336,2025-02-17 10:49:10,0.0
-11604,-496,8596,-608,-29,947,2025-02-17 10:49:10,0.0
-12232,-864,9836,-181,-423,523,2025-02-17 10:49:11,0.0
-12336,-672,8680,212,-1695,500,2025-02-17 10:49:11,0.0
-12132,-596,8828,102,-2268,398,2025-02-17 10:49:11,0.0
-11984,-684,9260,216,-1630,481,2025-02-17 10:49:11,0.0
-11572,-668,9628,259,-770,611,2025-02-17 10:49:11,0.0
-20748,-844,10076,801,-3164,1546,2025-02-17 10:49:11,0.0
-12212,-592,8988,670,-110,436,2025-02-17 10:49:11,0.0
-12008,-224,8408,761,-122,246,2025-02-17 10:49:11,0.0
-13016,132,7820,490,-184,-147,2025-02-17 10:49:11,0.0
-13104,44,8096,148,103,273,2025-02-17 10:49:11,0.0
-12624,48,8656,-169,525,554,2025-02-17 10:49:11,0.0
-12764,96,9284,-34,396,486,2025-02-17 10:49:11,0.0
-12344,-488,9860,902,141,701,2025-02-17 10:49:11,0.0
-11464,-24,8676,1214,-22,589,2025-02-17 10:49:11,0.0
-12144,276,8196,1018,-85,181,2025-02-17 10:49:11,0.0
-11692,808,8264,270,-89,-190,2025-02-17 10:49:11,0.0
-12036,968,8428,-239,427,-480,2025-02-17 10:49:11,0.0
-13056,564,8296,-628,887,-407,2025-02-17 10:49:11,0.0
-12676,224,8124,-632,817,-116,2025-02-17 10:49:11,0.0
-12616,-180,8832,-321,211,141,2025-02-17 10:49:11,0.0
-12428,-296,8424,-315,159,322,2025-02-17 10:49:11,0.0
-12212,-120,8596,-492,147,413,2025-02-17 10:49:11,0.0
-12096,112,8700,-471,34,278,2025-02-17 10:49:11,0.0
-12008,184,9068,-407,7,193,2025-02-17 10:49:11,0.0
-11816,212,8900,-499,220,64,2025-02-17 10:49:11,0.0
-12088,-32,8664,-566,304,-153,2025-02-17 10:49:11,0.0
-11940,-76,9008,-447,203,-306,2025-02-17 10:49:11,0.0
-11868,-132,8936,-417,84,-465,2025-02-17 10:49:11,0.0
-11832,-120,9168,-364,118,-570,2025-02-17 10:49:11,0.0
-12116,-188,9452,-344,168,-617,2025-02-17 10:49:11,0.0
-12704,-460,9400,-311,371,-409,2025-02-17 10:49:11,0.0
-12700,-556,9416,-302,539,-131,2025-02-17 10:49:11,0.0
-12476,-664,9460,-239,491,71,2025-02-17 10:49:11,0.0
-12300,-744,9200,-208,344,77,2025-02-17 10:49:11,0.0
-12140,-488,9292,-68,416,22,2025-02-17 10:49:11,0.0
-12156,-200,9108,-63,506,8,2025-02-17 10:49:11,0.0
-12124,-116,8948,-33,323,-24,2025-02-17 10:49:11,0.0
-12244,116,8460,8,227,-26,2025-02-17 10:49:11,0.0
-12448,56,8260,-47,59,50,2025-02-17 10:49:11,0.0
-12540,204,8580,-44,-208,68,2025-02-17 10:49:11,0.0
-12616,-68,8664,-35,-338,37,2025-02-17 10:49:11,0.0
-12256,-60,8684,-61,-466,21,2025-02-17 10:49:11,0.0
-11932,-24,8816,3,-341,-53,2025-02-17 10:49:11,
-11776,48,8616,-43,-157,-152,2025-02-17 10:49:11,0.0
-11880,180,8772,-135,-94,-204,2025-02-17 10:49:11,0.0
-12180,304,9376,-156,-39,-276,2025-02-17 10:49:11,0.0
-12224,252,9036,-256,-112,-267,2025-02-17 10:49:11,0.0
-12296,272,9664,-246,-320,-266,2025-02-17 10:49:11,0.0
-12516,76,10264,-317,228,-184,2025-02-17 10:49:11,0.0
-13000,-236,9708,-245,812,-91,2025-02-17 10:49:11,0.0
-13172,-208,8988,-163,566,68,2025-02-17 10:49:11,0.0
-12636,-228,8428,6,-296,148,2025-02-17 10:49:11,0.0
-11712,320,8184,-143,-618,25,2025-02-17 10:49:11,0.0
-11388,-84,8496,-271,-775,-205,2025-02-17 10:49:11,0.0
-11588,60,8564,-387,-485,-294,2025-02-17 10:49:11,0.0
-11740,60,8884,-301,-245,-271,2025-02-17 10:49:11,0.0
-11820,36,8520,-272,76,-347,2025-02-17 10:49:11,0.0
-12120,-140,8960,-348,46,-362,2025-02-17 10:49:11,0.0
-12276,-168,9348,-283,123,-323,2025-02-17 10:49:11,0.0
-12020,-88,9336,-353,-62,-352,2025-02-17 10:49:11,0.0
-12240,-328,10376,-132,71,-217,2025-02-17 10:49:11,0.0
-12296,-244,9752,-77,631,-154,2025-02-17 10:49:12,0.0
-12492,-356,9152,-182,623,-114,2025-02-17 10:49:12,0.0
-11988,-172,8804,-148,333,-150,2025-02-17 10:49:12,0.0
-11928,-4,8828,-228,112,-275,2025-02-17 10:49:12,0.0
-11888,-32,8984,-223,51,-347,2025-02-17 10:49:12,0.0
-12020,-4,8632,-199,152,-370,2025-02-17 10:49:12,0.0
-12116,48,8612,-240,295,-313,2025-02-17 10:49:12,0.0
-12496,-92,8724,-175,216,-207,2025-02-17 10:49:12,0.0
-12420,-208,8728,-158,-161,-137,2025-02-17 10:49:12,0.0
-12228,-176,9224,-235,-280,-170,2025-02-17 10:49:12,0.0
-12192,-208,9336,-205,-217,-152,2025-02-17 10:49:12,0.0
-12016,-164,9564,-145,-33,-216,2025-02-17 10:49:12,0.0
-12300,-136,9436,-195,256,-256,2025-02-17 10:49:12,0.0
-12364,-96,9424,-171,256,-178,2025-02-17 10:49:12,0.0
-12276,-128,9584,-209,299,-131,2025-02-17 10:49:12,0.0
-12212,44,8824,-210,400,-129,2025-02-17 10:49:12,0.0
-12364,-112,8968,-225,236,-67,2025-02-17 10:49:12,0.0
-12080,-68,9100,-219,59,11,2025-02-17 10:49:12,0.0
-12052,-24,9040,-227,-20,17,2025-02-17 10:49:12,0.0
-11948,56,9200,-292,-8,-77,2025-02-17 10:49:12,0.0
-11888,40,9168,-288,64,-141,2025-02-17 10:49:12,0.0
-12084,116,9204,-273,89,-184,2025-02-17 10:49:12,0.0
-12148,176,9272,-335,146,-187,2025-02-17 10:49:12,0.0
-12228,-4,9512,-331,120,-139,2025-02-17 10:49:12,0.0
-12280,-256,9324,-192,-9,-61,2025-02-17 10:49:12,0.0
-12156,-372,9280,-163,171,-25,2025-02-17 10:49:12,0.0
-12132,-216,9352,-150,298,-80,2025-02-17 10:49:12,0.0
-12120,-364,9080,-154,300,-111,2025-02-17 10:49:12,0.0
-11880,-128,9140,-98,299,-175,2025-02-17 10:49:12,0.0
-12120,-48,9096,-160,297,-203,2025-02-17 10:49:12,0.0
-12228,32,9020,-259,189,-179,2025-02-17 10:49:12,0.0
-12216,-28,9040,-235,198,-135,2025-02-17 10:49:12,0.0
-12196,8,8900,-250,204,-133,2025-02-17 10:49:12,0.0
-12304,-48,9060,-253,230,-142,2025-02-17 10:49:12,0.0
-12300,-164,9048,-182,187,-23,2025-02-17 10:49:12,0.0
-12208,-184,8876,-164,198,-15,2025-02-17 10:49:12,0.0
-12288,-220,8732,-180,35,30,2025-02-17 10:49:12,0.0
-12248,-312,8944,-94,-201,122,2025-02-17 10:49:12,0.0
-12416,-484,8824,32,-288,378,2025-02-17 10:49:12,0.0
-12592,-720,9076,150,-216,798,2025-02-17 10:49:12,0.0
-12408,-808,9188,329,3,1148,2025-02-17 10:49:12,0.0
-12568,-708,9844,609,349,1615,2025-02-17 10:49:12,0.0
-12296,-428,8960,736,95,1899,2025-02-17 10:49:12,0.0
-12224,216,9260,725,-72,2120,2025-02-17 10:49:12,0.0
-11836,680,9276,598,-280,1879,2025-02-17 10:49:12,0.0
-11412,1244,9388,451,-261,1234,2025-02-17 10:49:12,0.0
-11444,1564,9020,-44,-377,-645,2025-02-17 10:49:12,0.0
-11304,2056,9260,-133,-122,-778,2025-02-17 10:49:12,0.0
-11528,1844,9412,-231,540,-869,2025-02-17 10:49:12,0.0
-11864,1348,8948,-247,732,-1026,2025-02-17 10:49:12,0.0
-12188,900,8696,-333,558,-1284,2025-02-17 10:49:12,0.0
-11992,384,8820,-375,315,-1417,2025-02-17 10:49:12,0.0
-11852,-16,9040,-503,537,-1600,2025-02-17 10:49:12,0.0
-11976,-184,9044,-610,806,-1748,2025-02-17 10:49:12,0.0
-12072,-344,8700,-754,968,-1850,2025-02-17 10:49:12,0.0
-12448,-344,8988,-844,1061,-1724,2025-02-17 10:49:12,0.0
-12592,-348,9080,-893,1258,-1354,2025-02-17 10:49:12,0.0
-12340,-324,8620,-978,1348,-1039,2025-02-17 10:49:13,0.0
-12336,76,8628,-1098,1299,-912,2025-02-17 10:49:13,0.0
-11896,40,8836,-1401,1151,-1006,2025-02-17 10:49:13,0.0
-11928,-732,9620,-1538,1297,-1039,2025-02-17 10:49:13,0.0
-11864,-1368,10028,-1274,1698,-1091,2025-02-17 10:49:13,0.0
-11916,-1484,9644,-766,1740,-1183,2025-02-17 10:49:13,0.0
-12056,-1328,9520,-604,1696,-1382,2025-02-17 10:49:13,0.0
-12172,-820,9280,-716,1833,-1451,2025-02-17 10:49:13,0.0
-11760,-580,9684,-651,1966,-1285,2025-02-17 10:49:13,0.0
-11700,-264,9908,-516,2337,-1147,2025-02-17 10:49:13,0.0
-11596,-316,9760,-399,2810,-1095,2025-02-17 10:49:13,0.0
-12668,-212,9952,-280,2867,-918,2025-02-17 10:49:13,0.0
-11900,-64,9000,-331,2967,-749,2025-02-17 10:49:13,0.0
-11632,-256,9044,-527,3216,-1001,2025-02-17 10:49:13,0.0
-11752,-436,9044,-640,3545,-1203,2025-02-17 10:49:13,0.0
-11828,-656,8856,-676,3785,-1276,2025-02-17 10:49:13,0.0
-12044,-604,9432,-542,4097,-1367,2025-02-17 10:49:13,0.0
-11412,-548,9400,-485,4457,-1657,2025-02-17 10:49:13,0.0
-11176,-568,10172,-364,5187,-1845,2025-02-17 10:49:13,0.0
-10764,-700,9268,-442,6939,-1783,2025-02-17 10:49:13,0.0
-11580,-900,7872,-603,8638,-1993,2025-02-17 10:49:13,0.0
-16104,16,9380,-2204,9383,1399,2025-02-17 10:49:13,0.0
-16328,-84,9740,-2548,15421,433,2025-02-17 10:49:13,0.0
-18344,0,8888,-2119,21040,-326,2025-02-17 10:49:13,0.0
-21808,-932,7296,-1948,19975,-388,2025-02-17 10:49:13,
-20348,-4756,7432,-1367,14350,216,2025-02-17 10:49:13,0.0
-16892,-4480,6772,-1485,9597,73,2025-02-17 10:49:13,0.0
-16960,-2656,7488,-1235,7569,-339,2025-02-17 10:49:13,0.0
-17468,-2088,5472,-1037,6878,-226,2025-02-17 10:49:13,0.0
-18136,-1468,2936,-1357,6937,104,2025-02-17 10:49:13,0.0
-17792,-988,1656,-1304,6277,358,2025-02-17 10:49:13,0.0
-17032,-500,780,-1210,4329,327,2025-02-17 10:49:13,0.0
-15736,-716,816,-943,2878,137,2025-02-17 10:49:13,0.0
-14004,-484,-732,-806,3208,-130,2025-02-17 10:49:13,0.0
-14908,224,-120,-820,4484,-632,2025-02-17 10:49:13,0.0
-14236,200,-448,-660,5755,-924,2025-02-17 10:49:13,0.0
-15076,-124,-848,-607,6774,-1238,2025-02-17 10:49:13,0.0
-14788,-240,-1804,-816,8396,-1746,2025-02-17 10:49:13,0.0
-19416,648,-2812,-1810,10028,-1760,2025-02-17 10:49:13,0.0
-15552,-304,-2712,-1764,11918,-2296,2025-02-17 10:49:13,0.0
-16460,-788,-2140,-1149,12089,-1978,2025-02-17 10:49:13,0.0
-16740,-792,-2712,-301,10989,-1539,2025-02-17 10:49:13,0.0
-16540,-512,-3016,478,9869,-711,2025-02-17 10:49:13,0.0
-15428,-944,-3632,1405,8138,-417,2025-02-17 10:49:13,0.0
-14252,-700,-4780,1529,6295,-589,2025-02-17 10:49:13,0.0
-8812,28,-5332,913,4951,-650,2025-02-17 10:49:13,0.0
-13872,-300,-3852,-16,6007,-779,2025-02-17 10:49:13,0.0
-12648,16,-3328,-564,6162,-796,2025-02-17 10:49:13,0.0
-12000,-848,-2404,-785,5557,-713,2025-02-17 10:49:13,0.0
-12440,-1704,-1280,-346,4296,-532,2025-02-17 10:49:13,0.0
-11856,-1984,-1948,262,2499,299,2025-02-17 10:49:14,0.0
-10652,-2156,-2100,426,1313,866,2025-02-17 10:49:14,0.0
-9348,-2172,-1672,-32,996,705,2025-02-17 10:49:14,0.0
-7892,-2088,-1732,-406,495,194,2025-02-17 10:49:14,0.0
-7620,-1748,-1912,-401,598,-489,2025-02-17 10:49:14,0.0
-7232,-1408,-2728,-1352,1169,-1094,2025-02-17 10:49:14,0.0
-6768,-1776,-3076,-921,1682,-1546,2025-02-17 10:49:14,0.0
-7408,-2028,-3948,626,1262,-1062,2025-02-17 10:49:14,0.0
-7492,-452,-5812,618,-393,-1232,2025-02-17 10:49:14,0.0
-8628,1948,-5792,-1476,-1443,-2618,2025-02-17 10:49:14,0.0
-10372,2648,-4148,-3403,-522,-3709,2025-02-17 10:49:14,0.0
-11092,804,-2244,-3198,-475,-3551,2025-02-17 10:49:14,0.0
-9272,-1416,-2692,-2085,-2368,-3718,2025-02-17 10:49:14,0.0
-9252,-3204,-2072,-364,-4244,-4113,2025-02-17 10:49:14,0.0
-9952,-3468,-4464,994,-8589,-3162,2025-02-17 10:49:14,0.0
-8456,-4020,-4196,1319,-3963,-2544,2025-02-17 10:49:14,0.0
-9140,-3652,-3724,1082,-928,-1272,2025-02-17 10:49:14,0.0
-8856,-3928,-1608,-429,2914,-151,2025-02-17 10:49:14,0.0
-10756,-3640,-1832,-756,6293,457,2025-02-17 10:49:14,0.0
-10124,-3828,-2076,-442,8402,64,2025-02-17 10:49:14,0.0
-10824,-4188,-3476,1414,8986,-1389,2025-02-17 10:49:14,0.0
-13920,-3308,-4584,1163,8499,-913,2025-02-17 10:49:14,0.0
-14672,-2736,-4496,657,6787,529,2025-02-17 10:49:14,0.0
-14252,-2300,-4540,367,4055,1596,2025-02-17 10:49:14,0.0
-12676,-2044,-4780,651,1464,1781,2025-02-17 10:49:14,0.0
-12024,-1684,-4224,1385,-358,1102,2025-02-17 10:49:14,0.0
-11632,-1600,-4052,1681,-1134,215,2025-02-17 10:49:14,0.0
-11904,-1936,-3456,1333,-1101,49,2025-02-17 10:49:14,0.0
-11392,-2456,-3280,838,-863,162,2025-02-17 10:49:14,0.0
-11052,-2620,-3580,105,-359,144,2025-02-17 10:49:14,0.0
-11064,-2928,-3496,-336,504,-295,2025-02-17 10:49:14,0.0
-12324,-3300,-3384,-480,824,-418,2025-02-17 10:49:14,0.0
-13000,-3504,-3204,-555,72,150,2025-02-17 10:49:14,0.0
-12656,-3512,-2772,-588,-967,583,2025-02-17 10:49:14,0.0
-12208,-3692,-3188,-782,-1566,506,2025-02-17 10:49:14,0.0
-12012,-3496,-2952,-1033,-1796,182,2025-02-17 10:49:14,0.0
-11704,-3660,-2704,-1008,-1178,-416,2025-02-17 10:49:14,0.0
-12424,-4044,-2916,-534,199,-771,2025-02-17 10:49:14,0.0
-12896,-4356,-2892,-170,1336,-781,2025-02-17 10:49:14,0.0
-13704,-4652,-3144,-364,2454,-1320,2025-02-17 10:49:14,0.0
-14564,-4536,-3748,-605,2324,-2191,2025-02-17 10:49:14,0.0
-15452,-3600,-4756,-532,1304,-2732,2025-02-17 10:49:14,0.0
-15960,-2832,-2964,340,-1632,-2722,2025-02-17 10:49:14,0.0
-15280,-2224,-2392,1754,-5633,-2660,2025-02-17 10:49:14,0.0
-14944,-2448,-3396,1412,-9384,-3132,2025-02-17 10:49:14,0.0
-15832,-3188,-5128,22,-10491,-2918,2025-02-17 10:49:14,0.0
-15384,-3840,-6952,-1079,-8801,-2184,2025-02-17 10:49:14,0.0
-14644,-4520,-7364,-3065,-4802,-561,2025-02-17 10:49:14,0.0
-11488,-4676,-6180,-3543,-563,-437,2025-02-17 10:49:14,0.0
-11684,-3212,-5420,-3649,675,-420,2025-02-17 10:49:14,0.0
-11896,-1644,-4520,-3491,743,-33,2025-02-17 10:49:14,0.0
-11672,-620,-4144,-3188,432,31,2025-02-17 10:49:14,0.0
-11892,84,-3404,-2744,-186,-345,2025-02-17 10:49:14,0.0
-11972,632,-3508,-2453,-799,-1060,2025-02-17 10:49:14,0.0
-12128,412,-3320,-2416,-661,-1698,2025-02-17 10:49:14,0.0
-12840,-456,-2604,-1248,-800,-1745,2025-02-17 10:49:14,0.0
-12792,-1500,-3272,-903,-97,-814,2025-02-17 10:49:14,0.0
-12208,-1728,-4388,-1406,2090,-1081,2025-02-17 10:49:14,0.0
-12712,-2168,-4476,-2736,4572,-1956,2025-02-17 10:49:14,0.0
-13900,-2336,-3260,-2571,5103,-2419,2025-02-17 10:49:14,0.0
-15164,-2816,-3616,-1848,2942,-545,2025-02-17 10:49:14,0.0
-14872,-2352,-3204,-796,557,1568,2025-02-17 10:49:15,0.0
-13064,-1412,-2868,537,-1202,2343,2025-02-17 10:49:15,0.0
-12188,-644,-3156,1226,-1995,1721,2025-02-17 10:49:15,0.0
-12428,-688,-2960,1087,-2224,1214,2025-02-17 10:49:15,0.0
-12124,-956,-3080,1063,-844,1425,2025-02-17 10:49:15,0.0
-11836,-1352,-3556,1002,1281,1806,2025-02-17 10:49:15,0.0
-12804,-2000,-3292,1042,5406,2632,2025-02-17 10:49:15,0.0
-12784,-2484,-4348,447,9541,3403,2025-02-17 10:49:15,0.0
-11852,-2644,-4580,-599,12266,3767,2025-02-17 10:49:15,0.0
-11504,-1940,-4160,-1638,13508,3441,2025-02-17 10:49:15,0.0
-13084,-1732,-5204,-2732,17117,3953,2025-02-17 10:49:15,0.0
-12872,-944,-8372,-4525,24924,4377,2025-02-17 10:49:15,0.0
-12140,-456,-8124,-6295,32767,4043,2025-02-17 10:49:15,0.0
-10876,236,-6304,-7179,32767,3173,2025-02-17 10:49:15,
-9444,612,-5152,-6428,32767,3311,2025-02-17 10:49:15,0.0
-8336,884,-4068,-4797,32767,4171,2025-02-17 10:49:15,0.0
-7360,808,-4492,-2619,32767,5315,2025-02-17 10:49:15,0.0
-5068,-52,-6076,-1366,32767,7850,2025-02-17 10:49:15,0.0
-3020,-956,-5872,-1814,32767,8981,2025-02-17 10:49:15,0.0
108,-888,-4756,-2223,32767,8770,2025-02-17 10:49:15,0.0
1584,-880,-3656,-3309,26437,7631,2025-02-17 10:49:15,0.0
2976,-1100,-1532,-4322,17858,6248,2025-02-17 10:49:15,0.0
2708,-904,304,-4243,10796,5664,2025-02-17 10:49:15,0.0
3068,-772,324,-5500,6795,6638,2025-02-17 10:49:15,0.0
3716,-660,1540,-5839,5382,6376,2025-02-17 10:49:15,0.0
3604,-600,1320,-5918,5182,5208,2025-02-17 10:49:15,0.0
3236,-552,1808,-6009,5020,4172,2025-02-17 10:49:15,0.0
2888,-468,1620,-6033,4625,3584,2025-02-17 10:49:15,0.0
2696,-408,1644,-6023,3958,3452,2025-02-17 10:49:15,0.0
2600,-500,1428,-6008,3278,3561,2025-02-17 10:49:15,0.0
2728,-388,1420,-5945,2772,3506,2025-02-17 10:49:15,0.0
2888,-292,1520,-5811,2727,3198,2025-02-17 10:49:15,0.0
2356,-356,1672,-5565,2588,3131,2025-02-17 10:49:15,0.0
2292,-268,1704,-5305,2271,3305,2025-02-17 10:49:15,0.0
2608,-228,1592,-5068,1914,3377,2025-02-17 10:49:15,0.0
2720,-216,1568,-4815,1817,3220,2025-02-17 10:49:15,0.0
2820,-260,1584,-4576,1667,2857,2025-02-17 10:49:15,0.0
3200,-252,1444,-4359,1482,2373,2025-02-17 10:49:15,0.0
3208,-220,1288,-4174,1207,1816,2025-02-17 10:49:15,0.0
3428,-148,1272,-3909,948,1133,2025-02-17 10:49:15,0.0
3348,-124,1332,-3604,827,490,2025-02-17 10:49:15,0.0
1924,11324,-11336,8739,-781,414,2025-02-17 10:49:15,0.0
32767,32767,-32768,32767,32767,-12351,2025-02-17 10:49:15,0.0
-16372,-32768,-32768,9442,23978,802,2025-02-17 10:49:15,0.0
4924,-16420,-27604,-28471,25257,2080,2025-02-17 10:49:15,0.0
5280,-4584,-88,-32768,24073,-1491,2025-02-17 10:49:15,0.0
2176,-1636,5184,-29995,23211,-1400,2025-02-17 10:49:15,0.0
-84,20,5676,-24610,22220,2321,2025-02-17 10:49:15,0.0
3572,3056,6456,-15131,15799,6490,2025-02-17 10:49:15,0.0
6484,5572,5960,-5479,4601,8080,2025-02-17 10:49:15,0.0
7760,6716,992,4378,-11781,8468,2025-02-17 10:49:15,0.0
9332,7404,-3560,10168,-28250,7169,2025-02-17 10:49:15,0.0
9336,4004,-8684,12651,-32768,6113,2025-02-17 10:49:15,0.0
5928,656,-21252,11752,-32768,4802,2025-02-17 10:49:15,0.0
-1064,-3280,-32768,4921,-16733,2703,2025-02-17 10:49:15,0.0
-8924,-4512,-32136,-4097,-3930,3283,2025-02-17 10:49:15,0.0
-6608,-1328,-20208,-5358,-5515,3215,2025-02-17 10:49:15,0.0
-3616,2800,-14280,-3534,-493,803,2025-02-17 10:49:15,0.0
736,3956,-7604,-832,5609,-646,2025-02-17 10:49:15,0.0
1924,3712,-10112,1523,5891,-1095,2025-02-17 10:49:15,0.0
2780,2328,-15548,1903,2963,-277,2025-02-17 10:49:15,0.0
1748,400,-18524,382,-812,-36,2025-02-17 10:49:16,0.0
-308,1624,-14256,-1004,-77,117,2025-02-17 10:49:16,0.0
1128,2276,-13140,67,735,-548,2025-02-17 10:49:16,0.0
1252,1748,-15636,-280,-157,-130,2025-02-17 10:49:16,0.0
200,1800,-14244,-200,-585,-208,2025-02-17 10:49:16,0.0
24,1604,-14740,-50,425,-235,2025-02-17 10:49:16,0.0
776,1644,-15220,-150,452,-194,2025-02-17 10:49:16,0.0
796,1784,-14608,-195,39,-167,2025-02-17 10:49:16,0.0
572,1648,-15244,-133,176,-178,2025-02-17 10:49:16,0.0
568,1748,-14740,-228,165,-162,2025-02-17 10:49:16,0.0
608,1860,-14660,-104,224,-175,2025-02-17 10:49:16,0.0
540,1676,-15036,-168,205,-168,2025-02-17 10:49:16,0.0
732,1792,-15008,-178,234,-161,2025-02-17 10:49:16,0.0
732,1764,-14896,-169,151,-206,2025-02-17 10:49:16,0.0
460,1720,-14792,-159,121,-189,2025-02-17 10:49:16,0.0
552,1780,-14848,-166,220,-188,2025-02-17 10:49:16,0.0
696,1668,-14700,-151,235,-193,2025-02-17 10:49:16,0.0
620,1772,-14848,-179,153,-171,2025-02-17 10:49:16,0.0
664,1764,-14796,-192,180,-164,2025-02-17 10:49:16,0.0
568,1788,-14840,-155,194,-186,2025-02-17 10:49:16,0.0
660,1784,-14888,-162,204,-174,2025-02-17 10:49:16,0.0
712,1792,-14824,-152,201,-204,2025-02-17 10:49:16,0.0
624,1684,-14736,-175,183,-161,2025-02-17 10:49:16,0.0
608,1772,-14916,-177,147,-177,2025-02-17 10:49:16,0.0
656,1668,-14712,-165,174,-204,2025-02-17 10:49:16,0.0
692,1724,-14972,-167,198,-166,2025-02-17 10:49:16,0.0
624,1724,-14932,-164,186,-182,2025-02-17 10:49:16,0.0
680,1760,-14988,-166,170,-182,2025-02-17 10:49:16,0.0
624,1700,-14724,-177,168,-195,2025-02-17 10:49:16,0.0
556,1760,-14676,-153,175,-178,2025-02-17 10:49:16,0.0
684,1716,-14940,-149,163,-165,2025-02-17 10:49:16,0.0
620,1752,-14892,-150,184,-156,2025-02-17 10:49:16,0.0
552,1772,-14900,-164,179,-167,2025-02-17 10:49:16,0.0
544,1672,-14916,-147,191,-189,2025-02-17 10:49:16,0.0
660,1720,-14616,-149,191,-157,2025-02-17 10:49:16,0.0
560,1728,-14840,-121,182,-179,2025-02-17 10:49:16,0.0
540,1748,-14916,-183,192,-183,2025-02-17 10:49:16,0.0
640,1692,-14908,-172,197,-173,2025-02-17 10:49:16,0.0
540,1796,-14888,-173,183,-159,2025-02-17 10:49:16,0.0
600,1576,-14880,-163,173,-165,2025-02-17 10:49:16,0.0
652,1800,-14844,-193,152,-160,2025-02-17 10:49:16,0.0
508,1688,-14856,-181,183,-184,2025-02-17 10:49:16,0.0
660,1720,-14888,-172,182,-196,2025-02-17 10:49:16,0.0
604,1704,-14852,-174,191,-178,2025-02-17 10:49:16,0.0
544,1680,-14792,-184,198,-166,2025-02-17 10:49:16,0.0
684,1808,-14884,-174,200,-169,2025-02-17 10:49:16,0.0
632,1716,-14792,-172,178,-169,2025-02-17 10:49:16,0.0
700,1792,-14900,-164,163,-163,2025-02-17 10:49:16,0.0
592,1820,-14856,-172,188,-153,2025-02-17 10:49:16,0.0
640,1864,-14924,-159,188,-179,2025-02-17 10:49:16,0.0
584,1764,-14904,-145,211,-196,2025-02-17 10:49:16,0.0
712,1760,-14912,-156,199,-174,2025-02-17 10:49:16,0.0
636,1772,-14912,-164,167,-193,2025-02-17 10:49:16,
648,1676,-14732,-142,183,-162,2025-02-17 10:49:16,0.0
716,1724,-14960,-145,188,-188,2025-02-17 10:49:16,0.0
576,1724,-14740,-181,184,-180,2025-02-17 10:49:16,0.0
612,1636,-14832,-159,185,-176,2025-02-17 10:49:16,0.0
720,1796,-14832,-157,180,-178,2025-02-17 10:49:16,0.0
592,1724,-14928,-153,188,-167,2025-02-17 10:49:16,0.0
516,1764,-14952,-163,193,-157,2025-02-17 10:49:17,0.0
588,1784,-14920,-159,163,-181,2025-02-17 10:49:17,0.0
680,1820,-14992,-173,186,-170,2025-02-17 10:49:17,0.0
680,1656,-14896,-159,162,-177,2025-02-17 10:49:17,0.0
628,1720,-14896,-167,188,-185,2025-02-17 10:49:17,0.0
564,1728,-14892,-154,162,-174,2025-02-17 10:49:17,0.0
628,1668,-14952,-180,176,-165,2025-02-17 10:49:17,0.0
656,1736,-14788,-175,181,-179,2025-02-17 10:49:17,0.0
600,1804,-14948,-185,196,-167,2025-02-17 10:49:17,0.0
552,1768,-14844,-190,182,-157,2025-02-17 10:49:17,0.0
732,1864,-14740,-168,197,-190,2025-02-17 10:49:17,0.0
584,1632,-14808,-185,181,-182,2025-02-17 10:49:17,0.0
624,1768,-15024,-134,168,-171,2025-02-17 10:49:17,0.0
640,1772,-14816,-166,165,-181,2025-02-17 10:49:17,0.0
692,1800,-14824,-151,181,-190,2025-02-17 10:49:17,0.0
624,1748,-14772,-186,172,-177,2025-02-17 10:49:17,0.0
580,1732,-14776,-126,176,-190,2025-02-17 10:49:17,0.0
592,1704,-14836,-179,188,-178,2025-02-17 10:49:17,0.0
524,1748,-14848,-170,165,-173,2025-02-17 10:49:17,0.0
592,1768,-14836,-170,184,-191,2025-02-17 10:49:17,0.0
600,1704,-14840,-153,179,-180,2025-02-17 10:49:17,0.0
592,1676,-14872,-170,180,-170,2025-02-17 10:49:17,0.0
544,1752,-14856,-155,192,-171,2025-02-17 10:49:17,0.0
656,1716,-14840,-152,166,-168,2025-02-17 10:49:17,0.0
668,1704,-14824,-194,204,-193,2025-02-17 10:49:17,0.0
624,1780,-14680,-174,174,-173,2025-02-17 10:49:17,0.0
508,1760,-14776,-164,195,-167,2025-02-17 10:49:17,0.0
684,1676,-14744,-152,175,-190,2025-02-17 10:49:17,0.0
552,1808,-14836,-165,186,-183,2025-02-17 10:49:17,0.0
592,1760,-14820,-152,173,-170,2025-02-17 10:49:17,0.0
840,1808,-14744,-152,157,-186,2025-02-17 10:49:17,0.0
580,1716,-14916,-149,178,-158,2025-02-17 10:49:17,0.0
728,1788,-14768,-171,166,-177,2025-02-17 10:49:17,0.0
572,1724,-15040,-179,176,-196,2025-02-17 10:49:17,0.0
544,1700,-14780,-178,189,-191,2025-02-17 10:49:17,0.0
640,1632,-14868,-171,176,-167,2025-02-17 10:49:17,0.0
656,1684,-14820,-201,194,-189,2025-02-17 10:49:17,0.0
524,1708,-14860,-123,174,-191,2025-02-17 10:49:17,0.0
636,1656,-14812,-153,182,-182,2025-02-17 10:49:17,0.0
688,1724,-14892,-156,194,-181,2025-02-17 10:49:17,0.0
532,1784,-14852,-187,201,-176,2025-02-17 10:49:17,0.0
572,1848,-14876,-172,156,-178,2025-02-17 10:49:17,0.0
640,1632,-14788,-177,158,-168,2025-02-17 10:49:17,0.0
632,1692,-14840,-165,172,-177,2025-02-17 10:49:17,0.0
600,1756,-14856,-146,169,-159,2025-02-17 10:49:17,0.0
680,1752,-14824,-175,162,-167,2025-02-17 10:49:17,0.0
520,1784,-14768,-171,141,-190,2025-02-17 10:49:17,0.0
608,1764,-14868,-174,180,-182,2025-02-17 10:49:17,0.0
632,1760,-14804,-163,168,-177,2025-02-17 10:49:17,0.0
652,1640,-14984,-162,179,-178,2025-02-17 10:49:17,0.0
600,1760,-14764,-153,176,-157,2025-02-17 10:49:17,0.0
712,1696,-14716,-181,178,-171,2025-02-17 10:49:17,0.0
624,1836,-14940,-167,189,-172,2025-02-17 10:49:17,0.0
552,1676,-14724,-167,187,-163,2025-02-17 10:49:17,0.0
588,1664,-14768,-157,185,-182,2025-02-17 10:49:17,0.0
644,1736,-14868,-163,178,-156,2025-02-17 10:49:17,0.0
712,1748,-14788,-170,165,-192,2025-02-17 10:49:18,0.0
628,1632,-14696,-199,185,-171,2025-02-17 10:49:18,0.0
688,1704,-14788,-182,196,-192,2025-02-17 10:49:18,0.0
548,1764,-14880,-161,184,-185,2025-02-17 10:49:18,0.0
572,1688,-14820,-180,179,-152,2025-02-17 10:49:18,0.0
668,1732,-14840,-160,189,-171,2025-02-17 10:49:18,0.0
868,1640,-14904,-173,98,-255,2025-02-17 10:49:18,0.0
1576,1668,-14628,-140,-25,-407,2025-02-17 10:49:18,0.0
3588,2968,-11268,1336,-483,-1190,2025-02-17 10:49:18,0.0
-3036,584,-17768,30,-555,624,2025-02-17 10:49:18,0.0
-724,820,-14404,166,348,-407,2025-02-17 10:49:18,0.0
720,2564,-14136,104,1593,234,2025-02-17 10:49:18,0.0
1616,1632,-15240,572,856,-188,2025-02-17 10:49:18,0.0
1836,528,-17144,-542,-138,2,2025-02-17 10:49:18,0.0
1080,1692,-15148,-873,-617,-119,2025-02-17 10:49:18,0.0
1180,1908,-14692,-910,-826,-308,2025-02-17 10:49:18,0.0
328,1520,-14876,-981,-1388,-427,2025-02-17 10:49:18,0.0
-1316,2260,-14360,-1331,-1254,-249,2025-02-17 10:49:18,0.0
-1176,1944,-13488,-351,397,63,2025-02-17 10:49:18,0.0
1216,1264,-15976,-541,1357,-261,2025-02-17 10:49:18,0.0
2064,1364,-15772,-1400,-131,-267,2025-02-17 10:49:18,0.0
2764,1824,-15284,-1923,-2793,-707,2025-02-17 10:49:18,0.0
-1352,1644,-16212,-1685,-4148,240,2025-02-17 10:49:18,0.0
-2764,1956,-17016,-1160,-3805,1878,2025-02-17 10:49:18,0.0
-3604,1560,-17160,-508,-3453,4097,2025-02-17 10:49:18,0.0
-2420,1656,-18116,965,-4311,5554,2025-02-17 10:49:18,0.0
1716,2484,-17524,2736,-7382,3853,2025-02-17 10:49:18,0.0
2252,3532,-19020,5409,-11232,-1380,2025-02-17 10:49:18,0.0
-2320,4164,-23244,3613,-9943,-3423,2025-02-17 10:49:18,0.0
-6704,4604,-24668,-403,-5589,-1441,2025-02-17 10:49:18,0.0
-5516,4652,-25200,-4610,-2651,880,2025-02-17 10:49:18,0.0
-3928,4828,-22760,-6702,-1063,2300,2025-02-17 10:49:18,0.0
-1684,4540,-19500,-5975,-931,2216,2025-02-17 10:49:18,0.0
-1108,4136,-16148,-3525,-1029,596,2025-02-17 10:49:18,0.0
-336,3028,-12004,2281,-564,-662,2025-02-17 10:49:18,0.0
-612,1796,-15348,4539,-291,-1671,2025-02-17 10:49:18,0.0
-1492,1364,-17920,2432,744,-1896,2025-02-17 10:49:18,0.0
-1288,1628,-17384,1336,879,-2290,2025-02-17 10:49:18,
700,1320,-18120,1458,-2819,-3101,2025-02-17 10:49:18,0.0
2808,684,-19264,1119,-10775,-4434,2025-02-17 10:49:18,0.0
1444,760,-20688,-661,-21223,-5589,2025-02-17 10:49:18,0.0
-2448,1056,-20604,-2955,-24764,-4974,2025-02-17 10:49:18,0.0
-3788,1348,-21180,-4039,-22185,-4651,2025-02-17 10:49:18,0.0
-5040,1972,-22608,-5606,-14685,-5141,2025-02-17 10:49:18,0.0
-6784,2940,-21332,-6291,-3236,-5527,2025-02-17 10:49:18,0.0
-7988,3488,-18796,-4543,6914,-4898,2025-02-17 10:49:18,0.0
-7528,3420,-18416,-3158,13955,-2927,2025-02-17 10:49:18,0.0
-4816,2864,-18208,-3004,15862,-1598,2025-02-17 10:49:18,0.0
-1688,2284,-17012,-2537,13776,-2283,2025-02-17 10:49:18,0.0
-3960,2256,-16188,-1203,10531,-2855,2025-02-17 10:49:18,0.0
-5160,2124,-14724,1154,9531,-2010,2025-02-17 10:49:18,0.0
-3504,1692,-14132,3820,9010,-2085,2025-02-17 10:49:18,0.0
-1316,1396,-14052,4680,7252,-4066,2025-02-17 10:49:18,0.0
-1680,1424,-14044,5423,3994,-6865,2025-02-17 10:49:18,0.0
-3640,1600,-14592,5702,102,-7620,2025-02-17 10:49:18,0.0
-4324,1288,-14388,6652,-5769,-7394,2025-02-17 10:49:18,0.0
-4968,588,-14492,7060,-11976,-5817,2025-02-17 10:49:18,0.0
-4520,-280,-13972,6879,-18061,-4493,2025-02-17 10:49:18,0.0
-3784,-708,-12488,6650,-22264,-4537,2025-02-17 10:49:18,0.0
-4860,-960,-12348,6015,-24145,-4926,2025-02-17 10:49:18,0.0
-5060,-1228,-11900,4511,-24719,-4919,2025-02-17 10:49:18,0.0
-4396,-1660,-10072,3338,-24960,-5148,2025-02-17 10:49:19,0.0
-5552,-2120,-9088,2286,-24244,-4835,2025-02-17 10:49:19,0.0
-5012,-2352,-7528,1816,-22219,-4822,2025-02-17 10:49:19,0.0
-5664,-2112,-7468,1311,-19581,-4758,2025-02-17 10:49:19,0.0
-6704,-1736,-7044,-4,-16678,-3551,2025-02-17 10:49:19,0.0
-5824,-1528,-6140,-1369,-13956,-1816,2025-02-17 10:49:19,0.0
-3976,-1408,-4680,-2475,-12385,-506,2025-02-17 10:49:19,0.0
-1968,-780,-3784,-3340,-11978,-452,2025-02-17 10:49:19,0.0
-524,-292,-3260,-4039,-12126,-1455,2025-02-17 10:49:19,0.0
