acceleration_x,acceleration_y,acceleration_z,gyroscope_x,gyroscope_y,gyroscope_z,timestamp,label
-12884,-420,-4300,474,-980,-491,2025-02-17 11:28:22,0.0
-12720,-508,-3992,891,-1360,-735,2025-02-17 11:28:22,0.0
-12736,-420,-4004,1175,-1420,-873,2025-02-17 11:28:22,0.0
-12932,-392,-4156,1036,-1308,-768,2025-02-17 11:28:22,0.0
-13044,-452,-4044,823,-952,-473,2025-02-17 11:28:22,0.0
-12824,-592,-3984,914,-505,-104,2025-02-17 11:28:22,0.0
-12664,-492,-4560,845,-298,-8,2025-02-17 11:28:22,0.0
-12692,-508,-4556,367,-45,19,2025-02-17 11:28:22,0.0
-12788,-516,-3964,30,346,-121,2025-02-17 11:28:22,0.0
-12980,-504,-3860,-6,514,-148,2025-02-17 11:28:22,0.0
-13008,-448,-3684,114,352,-94,2025-02-17 11:28:22,0.0
-13036,-360,-3800,291,50,-49,2025-02-17 11:28:22,0.0
-12940,-368,-4340,427,-186,-73,2025-02-17 11:28:22,0.0
-12756,-540,-4168,260,-94,32,2025-02-17 11:28:22,0.0
-12780,-360,-4268,289,116,49,2025-02-17 11:28:22,0.0
-12772,-308,-4076,360,257,128,2025-02-17 11:28:22,0.0
-12924,-104,-4336,-46,375,122,2025-02-17 11:28:22,0.0
-12760,-76,-4320,-616,680,-77,2025-02-17 11:28:22,0.0
-12784,-80,-4116,-1324,962,-200,2025-02-17 11:28:22,0.0
-12676,-232,-4176,-1538,1184,-140,2025-02-17 11:28:22,0.0
-12744,-456,-4012,-1193,1166,-62,2025-02-17 11:28:22,0.0
-12732,-424,-3916,-450,731,-63,2025-02-17 11:28:22,0.0
-12960,-280,-4088,-203,77,-138,2025-02-17 11:28:22,0.0
-12968,-236,-4028,-81,-387,-240,2025-02-17 11:28:22,0.0
-12676,-220,-4076,-115,-561,-356,2025-02-17 11:28:22,0.0
-12700,-296,-4004,21,-566,-416,2025-02-17 11:28:22,0.0
-12720,-188,-4224,-102,-306,-288,2025-02-17 11:28:22,0.0
-12680,-216,-4096,-151,-70,-329,2025-02-17 11:28:22,0.0
-12716,-220,-4084,-300,92,-317,2025-02-17 11:28:22,0.0
-12880,-304,-4116,-459,302,-310,2025-02-17 11:28:22,0.0
-13008,-292,-4012,-386,385,-237,2025-02-17 11:28:22,0.0
-12988,-352,-4048,-344,308,-233,2025-02-17 11:28:22,0.0
-12992,-396,-4064,-343,260,-248,2025-02-17 11:28:22,0.0
-12836,-376,-3912,-310,203,-268,2025-02-17 11:28:22,0.0
-12768,-372,-3888,-114,175,-248,2025-02-17 11:28:22,0.0
-12812,-288,-4364,-100,204,-258,2025-02-17 11:28:22,0.0
-12848,-308,-4116,-80,317,-241,2025-02-17 11:28:22,0.0
-12832,-324,-4072,-75,459,-180,2025-02-17 11:28:22,0.0
-12820,-468,-3868,77,458,-256,2025-02-17 11:28:22,0.0
-13068,-484,-4288,256,354,-48,2025-02-17 11:28:22,0.0
-12896,-416,-3960,413,314,152,2025-02-17 11:28:22,0.0
-13000,-204,-3652,589,325,281,2025-02-17 11:28:22,0.0
-13152,-72,-4016,899,275,459,2025-02-17 11:28:22,0.0
-13308,-136,-4392,747,524,589,2025-02-17 11:28:23,0.0
-13216,204,-4600,490,736,924,2025-02-17 11:28:23,0.0
-12928,108,-4632,359,872,1068,2025-02-17 11:28:23,0.0
-12416,28,-4248,604,723,1166,2025-02-17 11:28:23,0.0
-12252,-20,-3188,899,-434,896,2025-02-17 11:28:23,0.0
-11796,456,-3280,496,-1748,-23,2025-02-17 11:28:23,0.0
-11904,-8,-1816,393,-1357,-942,2025-02-17 11:28:23,0.0
-13120,-664,-1496,830,302,-860,2025-02-17 11:28:23,0.0
-13720,-544,-1936,1205,1945,-309,2025-02-17 11:28:23,0.0
-13904,260,-2504,1172,2373,147,2025-02-17 11:28:23,0.0
-13796,1336,-3672,622,2044,138,2025-02-17 11:28:23,0.0
-13392,1360,-3956,90,1361,-358,2025-02-17 11:28:23,0.0
-13324,1020,-4500,-148,716,-822,2025-02-17 11:28:23,0.0
-13132,1180,-4472,-294,430,-995,2025-02-17 11:28:23,0.0
-12796,1520,-4244,-214,309,-1239,2025-02-17 11:28:23,0.0
-12752,1592,-4064,-175,-189,-1659,2025-02-17 11:28:23,0.0
-12676,1488,-3864,-177,-1234,-2219,2025-02-17 11:28:23,0.0
-12724,748,-3668,-421,-2429,-2715,2025-02-17 11:28:23,0.0
-12564,-512,-3096,-627,-3376,-3008,2025-02-17 11:28:23,0.0
-12316,-1500,-3308,-688,-3357,-2836,2025-02-17 11:28:23,0.0
-11832,-2212,-3420,-403,-1840,-2353,2025-02-17 11:28:23,0.0
-11760,-3100,-3344,-143,484,-1791,2025-02-17 11:28:23,0.0
-12452,-3348,-3740,-33,2475,-1113,2025-02-17 11:28:23,0.0
-13484,-2748,-4164,-443,3216,-736,2025-02-17 11:28:23,0.0
-14852,-2188,-4860,-809,3556,-332,2025-02-17 11:28:23,0.0
-14724,-1628,-3760,-364,2617,-686,2025-02-17 11:28:23,0.0
-13880,-332,-2056,399,52,-2139,2025-02-17 11:28:23,0.0
-13328,-92,-2796,-45,-1007,-3159,2025-02-17 11:28:23,0.0
-12308,-440,-2596,-787,-404,-3819,2025-02-17 11:28:23,0.0
-12260,-1088,-2432,-738,1072,-3902,2025-02-17 11:28:23,0.0
-12076,-2208,-2172,-308,1709,-3363,2025-02-17 11:28:23,0.0
-12320,-2920,-1984,-107,1278,-2602,2025-02-17 11:28:23,0.0
-12556,-3692,-1708,22,631,-2114,2025-02-17 11:28:23,0.0
-13012,-3188,-2124,-106,825,-1627,2025-02-17 11:28:23,0.0
-12772,-2264,-2064,-513,-151,-940,2025-02-17 11:28:23,0.0
-12292,-1364,-2332,-847,-51,-723,2025-02-17 11:28:23,0.0
-11896,-704,-1964,-1130,435,-721,2025-02-17 11:28:23,0.0
-12328,-728,-1604,-1235,1817,-902,2025-02-17 11:28:23,0.0
-12424,-804,-1084,-1210,2291,-991,2025-02-17 11:28:23,0.0
-12468,-1072,-1088,-1125,2537,-1097,2025-02-17 11:28:23,0.0
-12764,-1420,-1728,-917,2394,-1268,2025-02-17 11:28:23,0.0
-12556,-1820,-1336,-777,2089,-1370,2025-02-17 11:28:23,0.0
-12804,-2060,-1796,-819,2340,-1361,2025-02-17 11:28:23,0.0
-13032,-2320,-1996,-1053,2889,-1144,2025-02-17 11:28:23,0.0
-13392,-1948,-2984,-1626,3307,-770,2025-02-17 11:28:23,0.0
-13624,-1472,-2408,-2108,3219,-628,2025-02-17 11:28:23,0.0
-14084,-1628,-2804,-2567,3055,-852,2025-02-17 11:28:23,0.0
-14532,-2032,-3332,-3247,2743,-1359,2025-02-17 11:28:23,0.0
-14892,-3104,-3072,-3637,1443,-1838,2025-02-17 11:28:23,0.0
-14936,-3888,-2276,-3559,-570,-1875,2025-02-17 11:28:23,0.0
-14596,-3792,-1996,-3627,-1143,-1732,2025-02-17 11:28:23,0.0
-14328,-3564,-1736,-3743,-987,-1731,2025-02-17 11:28:23,0.0
-14204,-4140,-2240,-3781,-1153,-1507,2025-02-17 11:28:23,0.0
-14184,-4844,-4832,-4067,288,-1919,2025-02-17 11:28:23,0.0
-14960,-5104,-4408,-3342,2820,-2473,2025-02-17 11:28:23,0.0
-17112,-5368,-4652,-2174,5757,-2899,2025-02-17 11:28:23,0.0
-18140,-5796,-6004,-739,3692,-2320,2025-02-17 11:28:23,
-18972,-5752,-8136,1081,-423,-300,2025-02-17 11:28:23,0.0
-18504,-5040,-8432,3118,-3394,1624,2025-02-17 11:28:23,0.0
-16732,-4144,-8004,4731,-5536,2129,2025-02-17 11:28:23,0.0
-13312,-3408,-9708,5717,-9964,3071,2025-02-17 11:28:23,0.0
-12384,-3032,-9632,5039,-10742,4426,2025-02-17 11:28:23,0.0
-11804,-952,-7056,4284,-11822,5135,2025-02-17 11:28:23,0.0
-11168,1804,-6148,3015,-9296,5432,2025-02-17 11:28:24,0.0
-9196,3164,-3424,2093,-5719,5043,2025-02-17 11:28:24,0.0
-8632,2264,-3176,1826,-3367,3709,2025-02-17 11:28:24,0.0
-9140,344,-4864,1554,-660,3738,2025-02-17 11:28:24,0.0
-9076,-940,-4828,1669,835,4556,2025-02-17 11:28:24,0.0
-9280,-1480,-5224,1698,3832,4945,2025-02-17 11:28:24,0.0
-9876,-1860,-5552,777,7764,4563,2025-02-17 11:28:24,0.0
-11584,-1676,-4960,-152,10344,4262,2025-02-17 11:28:24,0.0
-13388,-800,-3336,255,8411,3493,2025-02-17 11:28:24,0.0
-14304,796,-3356,971,4336,3359,2025-02-17 11:28:24,0.0
-14676,1588,-3784,1491,-38,3345,2025-02-17 11:28:24,0.0
-13644,1872,-3680,1749,-3688,2939,2025-02-17 11:28:24,0.0
-11484,1676,-3252,2276,-6096,2241,2025-02-17 11:28:24,0.0
-9996,1168,-3180,2557,-6295,2137,2025-02-17 11:28:24,0.0
-8240,760,-2844,2344,-5058,1653,2025-02-17 11:28:24,0.0
-7944,472,-2520,1568,-2261,861,2025-02-17 11:28:24,0.0
-8708,728,-2260,1003,1381,-100,2025-02-17 11:28:24,0.0
-10504,960,-2952,645,3335,-788,2025-02-17 11:28:24,0.0
-12052,840,-3052,306,3075,-1319,2025-02-17 11:28:24,0.0
-13144,640,-3488,-83,2068,-1643,2025-02-17 11:28:24,0.0
-13668,484,-3576,-303,579,-2032,2025-02-17 11:28:24,0.0
-14240,472,-3268,-406,-323,-2036,2025-02-17 11:28:24,0.0
-14196,476,-2768,-570,-1045,-1699,2025-02-17 11:28:24,0.0
-14316,428,-1872,-481,-2396,-1339,2025-02-17 11:28:24,0.0
-14392,524,-1328,-250,-4124,-828,2025-02-17 11:28:24,0.0
-13872,-60,-2092,-89,-5332,-576,2025-02-17 11:28:24,0.0
-13016,-880,-2956,245,-5739,-292,2025-02-17 11:28:24,0.0
-11784,-920,-3100,707,-5906,-184,2025-02-17 11:28:24,0.0
-11852,-120,-2204,893,-4277,-41,2025-02-17 11:28:24,0.0
-12676,-356,-1472,1434,-558,811,2025-02-17 11:28:24,0.0
-13640,-1440,128,2045,1751,1454,2025-02-17 11:28:24,0.0
-15016,-2432,1400,2997,3025,1803,2025-02-17 11:28:24,0.0
-15912,-2156,2092,4526,3472,1997,2025-02-17 11:28:24,0.0
-15880,156,-112,5992,2694,1569,2025-02-17 11:28:24,0.0
-16468,1500,-5916,6120,2364,872,2025-02-17 11:28:24,0.0
-17656,2692,-7372,5116,2961,336,2025-02-17 11:28:24,0.0
-17864,3212,-8304,4055,3521,158,2025-02-17 11:28:24,0.0
-18512,3204,-10784,3929,4269,343,2025-02-17 11:28:24,0.0
-18100,3392,-11324,3726,2567,745,2025-02-17 11:28:24,0.0
-15456,2188,-11216,3357,-807,538,2025-02-17 11:28:24,0.0
-12068,-380,-8568,2330,-5976,-843,2025-02-17 11:28:24,0.0
-9828,-3000,-2752,2265,-10583,-1689,2025-02-17 11:28:24,0.0
-7720,-5360,-628,4497,-12656,-1756,2025-02-17 11:28:24,0.0
-7788,-5000,-2744,5105,-11093,-844,2025-02-17 11:28:24,0.0
-7452,-4016,-3048,5047,-6026,430,2025-02-17 11:28:24,0.0
-8476,-2408,-6484,3220,2369,-170,2025-02-17 11:28:24,0.0
-11900,-984,-6392,1182,11044,-635,2025-02-17 11:28:24,0.0
-14156,-676,-3796,725,13039,-52,2025-02-17 11:28:24,0.0
-14548,-1492,-2836,2048,7209,-619,2025-02-17 11:28:24,0.0
-15068,-1972,-3612,3127,399,-1465,2025-02-17 11:28:24,0.0
-14668,-2164,-4992,3360,-3929,-1446,2025-02-17 11:28:24,0.0
-12092,-1808,-4332,3381,-5589,-1420,2025-02-17 11:28:24,0.0
-10208,-1884,-5080,3170,-4519,-1566,2025-02-17 11:28:24,0.0
-9464,-2488,-4316,2792,-1930,-1390,2025-02-17 11:28:24,0.0
-9908,-2696,-3484,3023,1268,-980,2025-02-17 11:28:24,0.0
-11116,-2360,-3176,3335,3774,-227,2025-02-17 11:28:24,0.0
-12128,-1604,-3600,2950,4008,-25,2025-02-17 11:28:24,0.0
-13104,-1312,-3808,2160,3062,-270,2025-02-17 11:28:24,0.0
-13592,-1424,-4072,1297,1858,-519,2025-02-17 11:28:25,0.0
-13436,-1492,-4244,571,837,-519,2025-02-17 11:28:25,0.0
-12760,-848,-3944,-17,-724,-310,2025-02-17 11:28:25,0.0
-11912,-420,-3960,-769,-1085,-137,2025-02-17 11:28:25,0.0
-11516,-212,-3952,-1936,70,55,2025-02-17 11:28:25,0.0
-11996,-152,-3512,-2829,985,441,2025-02-17 11:28:25,0.0
-12160,632,-5712,-4159,1600,600,2025-02-17 11:28:25,0.0
-13332,1880,-6612,-6029,2164,781,2025-02-17 11:28:25,0.0
-13764,3096,-7180,-7933,2470,1147,2025-02-17 11:28:25,0.0
-14520,3596,-9084,-10942,1726,1259,2025-02-17 11:28:25,0.0
-15172,2892,-7832,-14503,-715,1160,2025-02-17 11:28:25,0.0
-13264,1864,-3780,-15724,-3326,-376,2025-02-17 11:28:25,0.0
-12532,1764,-3844,-16175,-3723,-2718,2025-02-17 11:28:25,0.0
-11780,1412,-5656,-16898,-1606,-5207,2025-02-17 11:28:25,0.0
-12096,-640,-7512,-17681,2047,-8078,2025-02-17 11:28:25,0.0
-13172,-1260,-8040,-17539,2891,-9434,2025-02-17 11:28:25,0.0
-13588,-916,-8908,-18309,2468,-9445,2025-02-17 11:28:25,0.0
-12864,-1440,-7764,-19697,1716,-9149,2025-02-17 11:28:25,0.0
-13120,-1856,-5948,-19852,299,-8199,2025-02-17 11:28:25,0.0
-13068,-1608,-4272,-19601,-1298,-6392,2025-02-17 11:28:25,0.0
-11624,-1384,-4008,-19141,-2237,-4764,2025-02-17 11:28:25,0.0
-10272,-1088,-4344,-18625,-2010,-4391,2025-02-17 11:28:25,0.0
-10328,-924,-5448,-18078,-220,-4448,2025-02-17 11:28:25,0.0
-10632,-572,-6652,-18417,2379,-4610,2025-02-17 11:28:25,0.0
-11500,208,-6196,-18619,4428,-5614,2025-02-17 11:28:25,0.0
-13240,348,-6336,-18695,4813,-6067,2025-02-17 11:28:25,0.0
-13740,696,-6048,-18486,2927,-6477,2025-02-17 11:28:25,0.0
-12912,640,-5840,-17987,-1148,-7314,2025-02-17 11:28:25,0.0
-12044,-72,-5396,-17922,-3777,-7570,2025-02-17 11:28:25,0.0
-10368,120,-5236,-17895,-4203,-7827,2025-02-17 11:28:25,0.0
-10260,64,-5704,-18375,-3627,-7852,2025-02-17 11:28:25,0.0
-10792,-80,-6312,-19016,-2179,-7633,2025-02-17 11:28:25,0.0
-11988,12,-6428,-19722,-769,-7328,2025-02-17 11:28:25,0.0
-12732,72,-6024,-20360,-390,-6999,2025-02-17 11:28:25,0.0
-13064,-1320,-4752,-20086,-1795,-6894,2025-02-17 11:28:25,0.0
-12604,-1972,-4052,-19799,-3412,-6813,2025-02-17 11:28:25,
-11992,-2108,-3940,-19326,-4868,-6850,2025-02-17 11:28:25,0.0
-11460,-1948,-4532,-19408,-4984,-7080,2025-02-17 11:28:25,0.0
-11356,-2204,-4232,-18995,-3745,-7695,2025-02-17 11:28:25,0.0
-11624,-1580,-3384,-17989,-3414,-7952,2025-02-17 11:28:25,0.0
-13900,-948,-2512,-16250,-2916,-7047,2025-02-17 11:28:25,0.0
-16476,-2020,-4280,-16175,-493,-4164,2025-02-17 11:28:25,0.0
-15748,-2504,-1556,-16088,2364,-362,2025-02-17 11:28:25,0.0
-13180,-2904,-1704,-14700,5592,-208,2025-02-17 11:28:25,0.0
-10848,-3356,-2416,-11957,12290,-2474,2025-02-17 11:28:25,0.0
-10524,-3688,-12,-8050,18829,-5146,2025-02-17 11:28:25,0.0
-12276,-3812,780,-4190,27502,-5761,2025-02-17 11:28:25,0.0
-15116,-3608,-468,-1428,32767,-2493,2025-02-17 11:28:25,0.0
-15128,-2916,-2448,-1257,32767,3006,2025-02-17 11:28:25,0.0
-8856,-2604,-1476,-3834,32767,9572,2025-02-17 11:28:25,0.0
-604,-1596,112,-9743,32767,13184,2025-02-17 11:28:25,0.0
2644,-1460,3940,-12139,32767,12453,2025-02-17 11:28:25,0.0
3104,-1172,4196,-12693,32767,10013,2025-02-17 11:28:25,0.0
2756,-948,3868,-13013,32767,7553,2025-02-17 11:28:25,0.0
2752,-1024,3192,-12835,32767,5587,2025-02-17 11:28:25,0.0
3420,-1268,2224,-13521,32767,2554,2025-02-17 11:28:25,0.0
1268,-424,4884,-12635,32767,1100,2025-02-17 11:28:25,0.0
2780,-980,2916,-11985,32767,79,2025-02-17 11:28:25,0.0
2780,-664,2936,-11702,32767,-1803,2025-02-17 11:28:25,0.0
2968,-672,2832,-10779,32767,-3978,2025-02-17 11:28:25,0.0
2524,-492,3016,-9740,32767,-5681,2025-02-17 11:28:25,0.0
2200,-248,3084,-8229,32767,-6501,2025-02-17 11:28:25,0.0
2460,-232,2880,-6726,32767,-7091,2025-02-17 11:28:25,0.0
2580,-184,2768,-5540,32767,-7617,2025-02-17 11:28:25,0.0
2572,-52,2760,-4224,32767,-8008,2025-02-17 11:28:26,0.0
2436,-12,2980,-2555,32767,-8220,2025-02-17 11:28:26,0.0
2556,76,2920,-1040,32767,-8206,2025-02-17 11:28:26,0.0
2476,36,2904,297,32767,-8002,2025-02-17 11:28:26,0.0
2268,196,3252,1723,32767,-7532,2025-02-17 11:28:26,0.0
2148,220,3732,3312,32767,-6801,2025-02-17 11:28:26,0.0
2248,316,4376,5277,32767,-5810,2025-02-17 11:28:26,0.0
2500,252,4512,7526,32767,-4693,2025-02-17 11:28:26,0.0
-15260,32767,9660,1305,-32768,32767,2025-02-17 11:28:26,0.0
32767,-21172,1452,-13385,-32768,32767,2025-02-17 11:28:26,0.0
32767,-32768,11524,19927,-32768,32767,2025-02-17 11:28:26,0.0
32767,-32768,-32768,-9425,-32768,27900,2025-02-17 11:28:26,0.0
18028,-20492,-16756,-26096,-32768,13852,2025-02-17 11:28:26,0.0
2016,-9576,-3076,-27255,-32768,14185,2025-02-17 11:28:26,0.0
-7996,-7340,2600,-27555,-32768,23256,2025-02-17 11:28:26,0.0
-15440,-5308,9524,-21629,-32768,32767,2025-02-17 11:28:26,0.0
-13868,-5444,9268,-6902,-32768,32767,2025-02-17 11:28:26,0.0
-11404,-6960,8988,6642,-32768,32767,2025-02-17 11:28:26,0.0
-6356,-7756,3072,17723,-32768,32767,2025-02-17 11:28:26,0.0
-2988,-6696,-5376,4363,-32768,-1326,2025-02-17 11:28:26,0.0
-10636,-436,1404,-9883,-11967,-14940,2025-02-17 11:28:26,0.0
-14492,452,6404,-10936,1220,-10038,2025-02-17 11:28:26,0.0
-12296,-1240,3424,-7370,14566,-3199,2025-02-17 11:28:26,0.0
-11248,-4124,-2388,-8916,25370,439,2025-02-17 11:28:26,0.0
-11100,-5820,-924,-9405,32767,238,2025-02-17 11:28:26,0.0
-13320,-6588,-1172,-8173,32767,-2449,2025-02-17 11:28:26,0.0
-17756,-7308,-5644,-6898,32767,-4920,2025-02-17 11:28:26,0.0
-15524,-6396,-8496,-5060,32767,-6286,2025-02-17 11:28:26,0.0
-8964,-5776,-16648,-7121,32767,-5474,2025-02-17 11:28:26,0.0
-5272,-4840,-19300,-12339,32767,-4123,2025-02-17 11:28:26,0.0
-1220,-4836,-18628,-18760,32767,-3722,2025-02-17 11:28:26,0.0
3836,-4680,-15056,-20007,32767,-5197,2025-02-17 11:28:26,0.0
5744,-3888,-11448,-16332,32496,-5563,2025-02-17 11:28:26,0.0
8152,-2600,-12892,-5062,12569,-2232,2025-02-17 11:28:26,0.0
10796,364,-17824,489,1365,2793,2025-02-17 11:28:26,0.0
11988,-260,-15044,371,-5747,880,2025-02-17 11:28:26,0.0
6248,-2224,-10488,1651,-11024,-2152,2025-02-17 11:28:26,0.0
2536,-2428,-12520,2619,-13663,-3600,2025-02-17 11:28:26,0.0
-1104,-2676,-15832,1893,-10684,-3988,2025-02-17 11:28:26,0.0
-3808,-3484,-16280,755,-5067,-3259,2025-02-17 11:28:26,0.0
-4364,-3968,-15416,529,-1059,-2114,2025-02-17 11:28:26,0.0
-3476,-4340,-15488,127,1629,-509,2025-02-17 11:28:26,0.0
-184,-3960,-15084,-801,2911,419,2025-02-17 11:28:26,0.0
1580,-2576,-14704,-1077,2797,370,2025-02-17 11:28:26,0.0
2436,-2088,-14532,-399,1174,49,2025-02-17 11:28:26,0.0
1796,-2632,-14788,113,-695,-308,2025-02-17 11:28:26,0.0
292,-3000,-14712,87,-849,-351,2025-02-17 11:28:26,0.0
-312,-3060,-14788,-118,-50,-173,2025-02-17 11:28:26,0.0
424,-3056,-14768,-275,721,-115,2025-02-17 11:28:26,0.0
996,-2720,-14648,-274,669,-103,2025-02-17 11:28:26,0.0
1164,-2808,-14816,-149,194,-184,2025-02-17 11:28:26,0.0
880,-2872,-14776,-80,-171,-195,2025-02-17 11:28:26,0.0
396,-2912,-14800,-201,94,-189,2025-02-17 11:28:26,0.0
664,-2836,-14784,-187,340,-159,2025-02-17 11:28:26,0.0
916,-2856,-14820,-181,228,-168,2025-02-17 11:28:26,0.0
756,-2832,-14860,-124,27,-191,2025-02-17 11:28:26,0.0
556,-2820,-14788,-118,108,-176,2025-02-17 11:28:26,0.0
740,-2932,-14844,-170,232,-174,2025-02-17 11:28:26,0.0
804,-2964,-14836,-168,212,-165,2025-02-17 11:28:26,0.0
736,-2876,-14696,-166,173,-189,2025-02-17 11:28:26,0.0
632,-2948,-14812,-159,173,-189,2025-02-17 11:28:26,0.0
764,-2848,-14788,-177,181,-188,2025-02-17 11:28:26,0.0
772,-2768,-14848,-145,183,-176,2025-02-17 11:28:27,0.0
736,-2808,-14676,-145,136,-167,2025-02-17 11:28:27,0.0
584,-2836,-14880,-167,126,-171,2025-02-17 11:28:27,0.0
796,-2840,-14900,-140,187,-180,2025-02-17 11:28:27,0.0
724,-2888,-14856,-145,141,-168,2025-02-17 11:28:27,0.0
776,-2816,-14736,-144,157,-163,2025-02-17 11:28:27,0.0
780,-2900,-14776,-197,154,-178,2025-02-17 11:28:27,0.0
772,-2936,-14788,-133,156,-175,2025-02-17 11:28:27,0.0
732,-2916,-14776,-155,151,-176,2025-02-17 11:28:27,0.0
824,-2852,-14704,-176,154,-183,2025-02-17 11:28:27,
832,-2836,-14780,-154,141,-184,2025-02-17 11:28:27,0.0
696,-2912,-14864,-131,150,-172,2025-02-17 11:28:27,0.0
796,-2840,-14840,-172,169,-193,2025-02-17 11:28:27,0.0
712,-2892,-14892,-170,185,-179,2025-02-17 11:28:27,0.0
800,-2892,-14744,-181,183,-219,2025-02-17 11:28:27,0.0
784,-2920,-14852,-153,168,-178,2025-02-17 11:28:27,0.0
728,-2928,-14776,-183,166,-164,2025-02-17 11:28:27,0.0
748,-2804,-14916,-147,173,-171,2025-02-17 11:28:27,0.0
724,-2844,-14796,-150,165,-179,2025-02-17 11:28:27,0.0
716,-2900,-14760,-166,156,-177,2025-02-17 11:28:27,0.0
664,-2928,-14820,-176,184,-169,2025-02-17 11:28:27,0.0
796,-3020,-14716,-164,181,-182,2025-02-17 11:28:27,0.0
708,-2900,-14820,-144,167,-179,2025-02-17 11:28:27,0.0
764,-2820,-14788,-133,176,-163,2025-02-17 11:28:27,0.0
780,-2784,-14664,-167,186,-187,2025-02-17 11:28:27,0.0
720,-2808,-14816,-160,159,-167,2025-02-17 11:28:27,0.0
744,-2928,-14828,-153,161,-187,2025-02-17 11:28:27,0.0
756,-2800,-14808,-180,174,-170,2025-02-17 11:28:27,0.0
808,-2836,-14796,-159,170,-184,2025-02-17 11:28:27,0.0
744,-2908,-14804,-180,169,-196,2025-02-17 11:28:27,0.0
744,-2832,-14900,-170,185,-181,2025-02-17 11:28:27,0.0
664,-2816,-14772,-152,158,-181,2025-02-17 11:28:27,0.0
744,-2836,-14868,-156,174,-169,2025-02-17 11:28:27,0.0
676,-2784,-14804,-159,173,-171,2025-02-17 11:28:27,0.0
684,-2836,-14844,-162,194,-168,2025-02-17 11:28:27,0.0
784,-2764,-14700,-172,162,-186,2025-02-17 11:28:27,0.0
732,-2880,-14780,-186,157,-180,2025-02-17 11:28:27,0.0
728,-2924,-14704,-147,158,-157,2025-02-17 11:28:27,0.0
748,-2764,-14736,-163,177,-175,2025-02-17 11:28:27,0.0
748,-2792,-14804,-181,180,-182,2025-02-17 11:28:27,0.0
772,-2920,-14848,-156,152,-180,2025-02-17 11:28:27,0.0
672,-2888,-14772,-186,165,-178,2025-02-17 11:28:27,0.0
764,-2856,-14928,-149,185,-167,2025-02-17 11:28:27,0.0
872,-2836,-14896,-138,161,-198,2025-02-17 11:28:27,0.0
704,-2784,-14924,-141,167,-180,2025-02-17 11:28:27,0.0
724,-2880,-14844,-171,170,-168,2025-02-17 11:28:27,0.0
760,-2888,-14828,-169,159,-171,2025-02-17 11:28:27,0.0
836,-2836,-14820,-160,162,-164,2025-02-17 11:28:27,0.0
664,-2876,-14880,-159,152,-168,2025-02-17 11:28:27,0.0
692,-2868,-14712,-162,145,-194,2025-02-17 11:28:27,0.0
696,-2836,-14872,-176,152,-153,2025-02-17 11:28:27,0.0
856,-2816,-14872,-169,170,-173,2025-02-17 11:28:27,0.0
780,-2780,-14712,-158,166,-182,2025-02-17 11:28:27,0.0
684,-2920,-14864,-152,154,-174,2025-02-17 11:28:27,0.0
728,-2916,-14836,-163,172,-169,2025-02-17 11:28:27,0.0
768,-2916,-14800,-143,154,-153,2025-02-17 11:28:27,0.0
692,-2788,-14828,-159,167,-164,2025-02-17 11:28:27,0.0
664,-2836,-14736,-152,191,-203,2025-02-17 11:28:27,0.0
684,-2832,-14748,-173,187,-176,2025-02-17 11:28:27,0.0
668,-2904,-14832,-175,201,-202,2025-02-17 11:28:27,0.0
424,-2804,-14780,-284,704,-174,2025-02-17 11:28:27,0.0
676,-2788,-14848,185,1035,-350,2025-02-17 11:28:28,0.0
1172,-3216,-15480,-158,353,-232,2025-02-17 11:28:28,0.0
760,-2836,-14684,-311,215,-155,2025-02-17 11:28:28,0.0
916,-2668,-14936,-20,-72,-182,2025-02-17 11:28:28,0.0
1156,-3208,-14960,-243,-326,-53,2025-02-17 11:28:28,0.0
324,-2708,-14392,-280,435,-359,2025-02-17 11:28:28,0.0
720,-2620,-14432,120,293,-44,2025-02-17 11:28:28,0.0
1208,-3292,-15300,-408,-124,-74,2025-02-17 11:28:28,0.0
1164,-3052,-14540,-1196,586,83,2025-02-17 11:28:28,0.0
-756,-2184,-14844,-153,-204,-305,2025-02-17 11:28:28,0.0
1112,-2836,-14684,-182,907,-48,2025-02-17 11:28:28,0.0
1072,-2984,-14640,-336,355,-148,2025-02-17 11:28:28,0.0
-80,-2376,-15024,149,1047,-297,2025-02-17 11:28:28,0.0
1512,-3156,-15096,190,52,-39,2025-02-17 11:28:28,0.0
2228,-2940,-14956,66,-776,-287,2025-02-17 11:28:28,0.0
2872,-1284,-12088,1534,-689,-2177,2025-02-17 11:28:28,0.0
1756,-2688,-15664,1528,-773,-3088,2025-02-17 11:28:28,0.0
-208,-3784,-16748,133,687,-3698,2025-02-17 11:28:28,0.0
-916,-3884,-14212,-61,1842,-2722,2025-02-17 11:28:28,0.0
-772,-3444,-14996,61,1771,-1547,2025-02-17 11:28:28,0.0
1472,-3156,-15232,-266,2020,-1273,2025-02-17 11:28:28,0.0
2356,-1684,-8712,1634,-892,-1633,2025-02-17 11:28:28,0.0
4196,-2092,-13608,2287,-4262,-618,2025-02-17 11:28:28,0.0
1116,-2200,-15548,3134,-2711,-4001,2025-02-17 11:28:28,0.0
-340,-3108,-14940,2208,-2910,-4308,2025-02-17 11:28:28,0.0
-660,-5060,-14784,2140,-2664,-3737,2025-02-17 11:28:28,0.0
-492,-6092,-15648,373,-946,-1997,2025-02-17 11:28:28,0.0
-1000,-4712,-16816,60,524,-1066,2025-02-17 11:28:28,0.0
-3104,-3616,-18392,-1013,3634,421,2025-02-17 11:28:28,0.0
1236,-3996,-14264,-2077,3992,7,2025-02-17 11:28:28,0.0
4484,-3912,-13820,-1537,3298,-1162,2025-02-17 11:28:28,0.0
-1132,-2268,-14140,-443,-3334,-1390,2025-02-17 11:28:28,0.0
5112,-4896,-19064,-3281,-1346,-4524,2025-02-17 11:28:28,0.0
1020,-3116,-15376,-3604,-1275,-5684,2025-02-17 11:28:28,0.0
1264,-3292,-15316,-2727,-3095,-6205,2025-02-17 11:28:28,0.0
-512,-4140,-15408,-2752,-2304,-4615,2025-02-17 11:28:28,0.0
772,-3728,-16028,-2588,-4384,-4534,2025-02-17 11:28:28,0.0
-2916,-4168,-17396,-4171,-2664,-3669,2025-02-17 11:28:28,0.0
-2120,-4772,-18132,-7382,56,-2537,2025-02-17 11:28:28,0.0
-184,-3768,-15700,-8754,2022,-2022,2025-02-17 11:28:28,0.0
1712,-2208,-13092,-5365,3686,-3481,2025-02-17 11:28:28,0.0
1172,-2496,-16068,-2752,6694,-5028,2025-02-17 11:28:28,0.0
-164,-3132,-18740,-3004,10095,-5733,2025-02-17 11:28:28,0.0
-1872,-3724,-19604,-1899,9878,-4881,2025-02-17 11:28:28,0.0
760,-6408,-27868,-3034,2579,-4544,2025-02-17 11:28:28,0.0
1280,-7532,-21292,-2929,-6899,-7219,2025-02-17 11:28:28,0.0
-1988,-8900,-13672,2468,-2798,-7969,2025-02-17 11:28:28,0.0
-1968,-7948,-15344,3580,1015,-4241,2025-02-17 11:28:28,0.0
-2336,-4732,-15508,3818,-5121,-1325,2025-02-17 11:28:28,
-1856,-2932,-16700,2743,-12137,-423,2025-02-17 11:28:28,0.0
1556,-2572,-22724,1056,-15885,-3845,2025-02-17 11:28:28,0.0
2808,-1492,-16620,840,-19065,-9094,2025-02-17 11:28:28,0.0
2196,60,-22388,-432,-16746,-10270,2025-02-17 11:28:28,0.0
3192,512,-17076,1227,-15909,-11419,2025-02-17 11:28:28,0.0
1680,-1280,-18092,2077,-12697,-12653,2025-02-17 11:28:28,0.0
336,-2288,-19704,813,-8788,-13850,2025-02-17 11:28:28,0.0
-1332,-3152,-19980,-167,-4204,-13334,2025-02-17 11:28:28,0.0
-2720,-2944,-21944,-1535,167,-12400,2025-02-17 11:28:28,0.0
-1684,-2052,-20020,-2746,-1035,-10494,2025-02-17 11:28:28,0.0
220,-1876,-16960,-2616,-5384,-10393,2025-02-17 11:28:29,0.0
456,-2476,-16580,-2668,-8508,-11551,2025-02-17 11:28:29,0.0
192,-3120,-18688,-3848,-8428,-12048,2025-02-17 11:28:29,0.0
-1656,-3296,-20600,-4648,-4948,-11398,2025-02-17 11:28:29,0.0
-4888,-3064,-20400,-3730,58,-9898,2025-02-17 11:28:29,0.0
-5892,-2108,-19892,-2920,-59,-4930,2025-02-17 11:28:29,0.0
-3176,-784,-15744,-1697,-6477,-2039,2025-02-17 11:28:29,0.0
-2556,-3524,-22140,-3013,-10308,-2087,2025-02-17 11:28:29,0.0
-4956,-3920,-21988,-6779,-8410,-1085,2025-02-17 11:28:29,0.0
-4628,-5016,-20528,-9190,-3352,663,2025-02-17 11:28:29,0.0
-3676,-5276,-20292,-11142,1838,1676,2025-02-17 11:28:29,0.0
-3076,-2680,-17664,-11122,5151,1561,2025-02-17 11:28:29,0.0
-4124,812,-11536,-7082,5794,2477,2025-02-17 11:28:29,0.0
-3436,2428,-13228,-3694,2748,3188,2025-02-17 11:28:29,0.0
-212,1632,-15452,-4606,-359,1527,2025-02-17 11:28:29,0.0
-44,-604,-13068,-5618,-3989,-2954,2025-02-17 11:28:29,0.0
-2688,-2136,-12216,-5118,-6059,-4343,2025-02-17 11:28:29,0.0
-3888,-2132,-12356,-5100,-6222,-4475,2025-02-17 11:28:29,0.0
-4712,-152,-11900,-3623,-4134,-4872,2025-02-17 11:28:29,0.0
-5016,1344,-11864,-2787,-1475,-5100,2025-02-17 11:28:29,0.0
-3476,1560,-11876,-2551,1032,-6874,2025-02-17 11:28:29,0.0
-2920,980,-12528,-2897,2766,-8855,2025-02-17 11:28:29,0.0
-2284,-20,-7760,-1499,1913,-9428,2025-02-17 11:28:29,0.0
-1596,-1920,-6316,1111,-2736,-8831,2025-02-17 11:28:29,0.0
-5076,-3688,-8564,364,-6085,-6455,2025-02-17 11:28:29,0.0
-4712,-3704,-8024,1039,-7532,-4719,2025-02-17 11:28:29,0.0
-3376,-2148,-8212,937,-7493,-4638,2025-02-17 11:28:29,0.0
-4252,-1084,-7616,1413,-6297,-4307,2025-02-17 11:28:29,0.0
-4832,-236,-8648,1403,-4249,-3626,2025-02-17 11:28:29,0.0
-7512,1208,-10516,578,-1593,-1277,2025-02-17 11:28:29,0.0
-6312,1680,-9280,444,3019,1725,2025-02-17 11:28:29,0.0
-1804,380,-7456,1802,2673,1390,2025-02-17 11:28:29,0.0
-3168,-1252,-7736,3090,-3161,263,2025-02-17 11:28:29,0.0
-3584,-2852,-9244,2025,-8819,213,2025-02-17 11:28:29,0.0
-4584,-4020,-10460,609,-13562,862,2025-02-17 11:28:29,0.0
-4572,-4252,-10672,-570,-16058,1533,2025-02-17 11:28:29,0.0
-2748,-3952,-8948,-1459,-18979,125,2025-02-17 11:28:29,0.0
-1836,-2468,-6052,-831,-24262,-2990,2025-02-17 11:28:29,0.0
-1664,-1960,-4776,451,-30399,-5652,2025-02-17 11:28:29,0.0
-2988,-2256,-5252,-139,-32768,-9045,2025-02-17 11:28:29,0.0
-8872,-2096,-5636,152,-32768,-6988,2025-02-17 11:28:29,0.0
-12420,-2780,-8288,-2172,-32768,-4075,2025-02-17 11:28:29,0.0
-14300,-3524,-6552,-3254,-32768,-1742,2025-02-17 11:28:29,0.0
-15020,-3284,-4340,-2404,-20379,926,2025-02-17 11:28:29,0.0
-13312,-2776,-1648,-1636,-9855,2642,2025-02-17 11:28:29,0.0
-7528,-2228,3268,2216,-4182,2462,2025-02-17 11:28:29,0.0
-6228,-2008,3000,5039,-4477,2008,2025-02-17 11:28:29,0.0
-8316,-2356,152,6889,-6467,3437,2025-02-17 11:28:29,0.0
-10200,-4284,-6628,6899,-6969,4967,2025-02-17 11:28:29,0.0
-10092,-5424,-11300,4175,-5769,5482,2025-02-17 11:28:29,0.0
-11352,-2440,-10860,2036,-4795,4378,2025-02-17 11:28:29,0.0
-9832,-1564,-10224,611,-5554,4950,2025-02-17 11:28:29,0.0
-8956,-944,-6352,79,-9527,4077,2025-02-17 11:28:29,0.0
-7268,-1068,-4204,-182,-15690,3596,2025-02-17 11:28:29,0.0
-9160,-1368,7348,-1328,-32285,2107,2025-02-17 11:28:29,0.0
-18580,-3308,576,-3033,-32768,-34,2025-02-17 11:28:29,0.0
-9168,-4192,424,-4775,-32768,-1549,2025-02-17 11:28:29,0.0
-16604,-368,11856,-2537,-28361,-717,2025-02-17 11:28:29,0.0
-12264,2164,4856,263,-5985,827,2025-02-17 11:28:29,0.0
-8876,2864,-168,-1245,8353,1930,2025-02-17 11:28:29,0.0
-11596,-1440,1420,-553,14266,894,2025-02-17 11:28:29,0.0
-16176,-1192,844,-1037,10971,766,2025-02-17 11:28:30,0.0
-16908,-620,476,-1442,6015,517,2025-02-17 11:28:30,0.0
-17948,-124,920,-1575,1128,492,2025-02-17 11:28:30,0.0
-16532,40,904,-1537,-2031,1088,2025-02-17 11:28:30,0.0
-14300,28,480,-1940,-3285,2040,2025-02-17 11:28:30,0.0
-13024,-528,-1008,-2985,-1820,3174,2025-02-17 11:28:30,0.0
-12208,-416,-732,-4157,1754,4711,2025-02-17 11:28:30,0.0
-11424,-300,-1404,-5673,6159,5846,2025-02-17 11:28:30,0.0
-10528,-128,-2128,-7454,6692,5125,2025-02-17 11:28:30,0.0
-13168,556,-1656,-8772,6305,5050,2025-02-17 11:28:30,0.0
-13420,988,-2372,-10110,6281,5604,2025-02-17 11:28:30,0.0
-13252,2108,-1856,-11112,7149,5637,2025-02-17 11:28:30,0.0
-12276,2352,1452,-11051,8729,4385,2025-02-17 11:28:30,0.0
-12272,2348,-1728,-11838,10126,1560,2025-02-17 11:28:30,0.0
-13444,3396,-2916,-15471,14347,-476,2025-02-17 11:28:30,0.0
-13520,2848,-1796,-17783,16974,-3011,2025-02-17 11:28:30,0.0
-15232,1560,-2100,-17360,16098,-3245,2025-02-17 11:28:30,0.0
-14220,332,-2936,-15703,15227,-2917,2025-02-17 11:28:30,0.0
-12616,624,-4364,-14176,11808,-4029,2025-02-17 11:28:30,0.0
-13504,956,-5804,-14254,7699,-4920,2025-02-17 11:28:30,0.0
-14724,920,-5592,-16077,4757,-5092,2025-02-17 11:28:30,0.0
-13844,544,-5192,-16799,2629,-5372,2025-02-17 11:28:30,0.0
-14716,76,-5108,-17596,1411,-4850,2025-02-17 11:28:30,0.0
-12936,-128,-4420,-17136,82,-5061,2025-02-17 11:28:30,0.0
-12608,40,-4212,-16767,-909,-5635,2025-02-17 11:28:30,0.0
-11216,728,-2932,-18499,372,-7003,2025-02-17 11:28:30,0.0
-12112,540,-4028,-18787,1702,-7071,2025-02-17 11:28:30,0.0
-11948,384,-3936,-19581,2992,-7104,2025-02-17 11:28:30,0.0
-13108,-368,-3116,-18798,3588,-7329,2025-02-17 11:28:30,
-14248,-192,-4128,-17546,2994,-6636,2025-02-17 11:28:30,0.0
-14620,308,-4012,-17150,2676,-5664,2025-02-17 11:28:30,0.0
-14004,-160,-4116,-16408,2553,-5251,2025-02-17 11:28:30,0.0
-13708,-460,-3736,-15480,1776,-5575,2025-02-17 11:28:30,0.0
-13616,-892,-4160,-15054,-187,-5284,2025-02-17 11:28:30,0.0
-13360,-864,-3896,-15080,-1520,-5026,2025-02-17 11:28:30,0.0
-13832,-604,-3956,-14955,-1976,-4797,2025-02-17 11:28:30,0.0
-13012,-684,-3280,-15049,-1550,-4597,2025-02-17 11:28:30,0.0
-13296,-844,-3832,-15001,-1619,-4874,2025-02-17 11:28:30,0.0
-13696,-992,-2768,-15137,-2944,-4240,2025-02-17 11:28:30,0.0
-12972,-1000,-2080,-14315,-4352,-3361,2025-02-17 11:28:30,0.0
-12592,-384,-2532,-12983,-4327,-3099,2025-02-17 11:28:30,0.0
-12228,-168,-2412,-11711,-3299,-2488,2025-02-17 11:28:30,0.0
-11904,-80,-2504,-10511,-1696,-2027,2025-02-17 11:28:30,0.0
-11364,184,-2740,-9660,875,-2364,2025-02-17 11:28:30,0.0
-11500,760,-2432,-9065,2863,-3485,2025-02-17 11:28:30,0.0
-12180,664,-2808,-8701,3405,-4436,2025-02-17 11:28:30,0.0
-12920,384,-2480,-8147,2569,-4972,2025-02-17 11:28:30,0.0
-13236,-132,-2076,-6461,912,-5228,2025-02-17 11:28:30,0.0
-13776,-712,-1532,-4194,-1033,-5056,2025-02-17 11:28:30,0.0
-14016,-1024,-1296,-2775,-2359,-4313,2025-02-17 11:28:30,0.0
-13864,-1208,-1312,-1738,-2509,-3608,2025-02-17 11:28:30,0.0
-14088,-896,-2216,-1605,-1526,-2982,2025-02-17 11:28:30,0.0
-13012,128,-3644,-3667,-1144,-3480,2025-02-17 11:28:30,0.0
-12636,256,-2692,-5419,-1242,-5036,2025-02-17 11:28:30,0.0
-13668,-792,-1528,-5498,-1497,-5461,2025-02-17 11:28:30,0.0
-14248,-1904,-640,-4342,-2497,-4648,2025-02-17 11:28:30,0.0
-15204,-1608,-872,-3601,-3420,-2822,2025-02-17 11:28:30,0.0
-15072,-1160,-984,-3728,-2465,-1065,2025-02-17 11:28:30,0.0
-13520,-352,-1768,-4863,587,-802,2025-02-17 11:28:30,0.0
-13028,-116,-1564,-5142,2193,-1186,2025-02-17 11:28:30,0.0
-12888,-320,-976,-5155,2005,-1922,2025-02-17 11:28:31,0.0
-12616,-700,-592,-4853,2151,-2513,2025-02-17 11:28:31,0.0
-13096,-520,-172,-4390,2447,-2813,2025-02-17 11:28:31,0.0
-13360,-644,-816,-4725,3800,-2524,2025-02-17 11:28:31,0.0
-14652,-1076,476,-3780,5057,-1614,2025-02-17 11:28:31,0.0
-14944,-1244,-244,-2708,4635,-174,2025-02-17 11:28:31,0.0
-14896,-1640,-716,-1912,3294,986,2025-02-17 11:28:31,0.0
-13148,-420,-1040,-2268,3447,1474,2025-02-17 11:28:31,0.0
-13496,-368,-24,-2047,4443,228,2025-02-17 11:28:31,0.0
-13708,472,-820,-2614,4366,118,2025-02-17 11:28:31,0.0
-14104,548,-624,-2010,2991,-184,2025-02-17 11:28:31,0.0
-14808,1004,-828,-1693,1219,410,2025-02-17 11:28:31,0.0
-14000,1156,-728,-1084,69,433,2025-02-17 11:28:31,0.0
-13828,1240,-1780,757,-783,-168,2025-02-17 11:28:31,0.0
-13504,1848,-2900,472,-1213,-731,2025-02-17 11:28:31,0.0
-13192,1068,-1948,308,-1569,-1586,2025-02-17 11:28:31,0.0
-13296,356,-2240,660,-2377,-1975,2025-02-17 11:28:31,0.0
-13640,-64,-2864,1289,-2917,-2449,2025-02-17 11:28:31,0.0
-13892,-20,-3788,1178,-3233,-2665,2025-02-17 11:28:31,0.0
-13532,-836,-4588,806,-4207,-2864,2025-02-17 11:28:31,0.0
-12884,-1688,-4780,39,-4753,-2834,2025-02-17 11:28:31,0.0
-12408,-2944,-3336,124,-5737,-2599,2025-02-17 11:28:31,0.0
-12544,-4064,-2228,771,-6822,-1835,2025-02-17 11:28:31,0.0
-12340,-3592,-1216,744,-6313,-1276,2025-02-17 11:28:31,0.0
-12592,-2836,-1776,167,-3892,-1778,2025-02-17 11:28:31,0.0
-13776,-2260,-1180,-641,-416,-2661,2025-02-17 11:28:31,0.0
-13876,-1992,-176,-1352,1319,-3401,2025-02-17 11:28:31,0.0
-14352,-1948,-16,-1549,866,-3681,2025-02-17 11:28:31,0.0
-14364,-2176,-268,-1465,34,-3253,2025-02-17 11:28:31,0.0
-13856,-2044,-692,-1669,-396,-2599,2025-02-17 11:28:31,0.0
-13608,-1984,-620,-1813,5,-2056,2025-02-17 11:28:31,0.0
-13576,-1716,-676,-1843,988,-1320,2025-02-17 11:28:31,0.0
-12752,-1820,-592,-1907,897,-891,2025-02-17 11:28:31,0.0
-11928,-1528,-756,-2322,-23,-1174,2025-02-17 11:28:31,0.0
-11756,-1532,-500,-2752,-646,-1545,2025-02-17 11:28:31,0.0
-10664,-2008,360,-3079,322,-1809,2025-02-17 11:28:31,0.0
-10908,-2704,240,-3182,1802,-2010,2025-02-17 11:28:31,0.0
-11604,-3320,-196,-3061,3612,-1655,2025-02-17 11:28:31,0.0
-12128,-3572,-68,-2941,4851,-968,2025-02-17 11:28:31,0.0
-12728,-3244,-52,-2944,5415,-401,2025-02-17 11:28:31,0.0
-13056,-2632,168,-3646,5574,-42,2025-02-17 11:28:31,0.0
-13212,-2272,-380,-4908,4966,388,2025-02-17 11:28:31,0.0
-12864,-2336,140,-5898,4649,780,2025-02-17 11:28:31,0.0
-12704,-2868,228,-4855,4085,979,2025-02-17 11:28:31,0.0
-12964,-2444,-628,-3943,3561,1661,2025-02-17 11:28:31,0.0
-13124,-2408,-1316,-3082,3389,2183,2025-02-17 11:28:31,0.0
-13208,-1928,-2168,-2960,3776,2285,2025-02-17 11:28:31,0.0
-12488,-1792,-1756,-2410,3873,1509,2025-02-17 11:28:31,0.0
-14148,-536,-1992,-1732,2993,236,2025-02-17 11:28:31,0.0
-15176,64,-2872,-1745,1911,-98,2025-02-17 11:28:31,0.0
-15312,-1380,-3124,-2659,2346,-978,2025-02-17 11:28:31,0.0
-15900,-2968,-572,-3278,2165,-2321,2025-02-17 11:28:31,0.0
-17068,-3100,260,-2966,544,-2609,2025-02-17 11:28:31,0.0
-17280,-2280,-1076,-2594,-1119,-2922,2025-02-17 11:28:31,0.0
-17900,-2744,-3356,-1673,-1162,-3429,2025-02-17 11:28:31,0.0
-18624,-5684,-5424,-1802,366,-3178,2025-02-17 11:28:31,0.0
-18816,-6164,-6052,-1906,1797,-3178,2025-02-17 11:28:31,0.0
-18320,-5812,-7064,-1802,1642,-2918,2025-02-17 11:28:31,0.0
-18468,-5308,-6812,-1847,-92,-2167,2025-02-17 11:28:31,0.0
-17308,-3980,-7808,-1997,-3199,-776,2025-02-17 11:28:31,0.0
-14128,-2124,-7400,-2936,-6701,83,2025-02-17 11:28:31,0.0
-12016,-668,-5596,-2792,-9090,714,2025-02-17 11:28:31,0.0
-9728,364,-5764,-1272,-9804,2044,2025-02-17 11:28:32,0.0
-8984,416,-4768,-238,-8214,2595,2025-02-17 11:28:32,0.0
-9388,152,-3760,828,-4176,2721,2025-02-17 11:28:32,0.0
-10228,300,-2780,2196,624,2649,2025-02-17 11:28:32,0.0
-11808,-252,-3180,3273,3486,2231,2025-02-17 11:28:32,0.0
-13260,-84,-3072,3502,3141,2275,2025-02-17 11:28:32,0.0
-14336,-1084,-4432,3170,1218,3200,2025-02-17 11:28:32,
-13464,-1904,-4784,2989,1193,3627,2025-02-17 11:28:32,0.0
-13260,-1816,-4396,3541,1460,3838,2025-02-17 11:28:32,0.0
-12432,-1244,-4476,3841,1053,3771,2025-02-17 11:28:32,0.0
-11860,-988,-4060,2221,-1451,2907,2025-02-17 11:28:32,0.0
-11780,-644,-3096,1315,-3039,2737,2025-02-17 11:28:32,0.0
-11388,-424,-2084,1257,-3345,3219,2025-02-17 11:28:32,0.0
-10744,224,-2128,1298,-2210,3499,2025-02-17 11:28:32,0.0
-10388,1316,-1592,837,238,2853,2025-02-17 11:28:32,0.0
-10988,1496,-1268,965,719,2148,2025-02-17 11:28:32,0.0
-11192,1224,-1356,1328,-675,2198,2025-02-17 11:28:32,0.0
-9948,2268,-1640,935,-242,2006,2025-02-17 11:28:32,0.0
-9108,732,-1236,807,1605,1222,2025-02-17 11:28:32,0.0
-9512,124,-1640,679,3939,709,2025-02-17 11:28:32,0.0
-9448,76,-3480,1326,5953,-516,2025-02-17 11:28:32,0.0
-11976,568,-2812,411,6836,-772,2025-02-17 11:28:32,0.0
-12340,92,-2204,119,6846,109,2025-02-17 11:28:32,0.0
-12716,40,-2544,759,6007,120,2025-02-17 11:28:32,0.0
-13276,984,-2884,550,4300,416,2025-02-17 11:28:32,0.0
-13056,1820,-3148,-354,2589,611,2025-02-17 11:28:32,0.0
-12600,1776,-2708,-1144,1544,693,2025-02-17 11:28:32,0.0
-12592,672,-1876,-812,992,921,2025-02-17 11:28:32,0.0
-12628,-112,-1852,270,1626,1257,2025-02-17 11:28:32,0.0
-12820,-164,-3008,1864,2551,1118,2025-02-17 11:28:32,0.0
-13268,936,-3876,1845,2876,1108,2025-02-17 11:28:32,0.0
-13700,1300,-4692,1618,2696,1504,2025-02-17 11:28:32,0.0
-15212,660,-2280,2836,1440,2748,2025-02-17 11:28:32,0.0
-15512,184,-2916,4820,450,4609,2025-02-17 11:28:32,0.0
-15948,1256,-2012,3925,1375,5059,2025-02-17 11:28:32,0.0
-17332,2228,-3096,3312,2866,5276,2025-02-17 11:28:32,0.0
-17016,3612,-6232,3805,599,5403,2025-02-17 11:28:32,0.0
-16128,5656,-9328,3239,-776,4943,2025-02-17 11:28:32,0.0
-16648,5100,-9708,2932,-652,5226,2025-02-17 11:28:32,0.0
-18208,3920,-10152,2800,794,6287,2025-02-17 11:28:32,0.0
-16620,3712,-8420,3241,1411,7585,2025-02-17 11:28:32,0.0
-12360,4072,-7260,4020,-1158,5941,2025-02-17 11:28:32,0.0
-10444,3200,-8648,2707,-5803,3323,2025-02-17 11:28:32,0.0
-7832,1292,-8376,1004,-11336,915,2025-02-17 11:28:32,0.0
-6792,-1092,-1972,2374,-14997,-1728,2025-02-17 11:28:32,0.0
-8448,-2996,-6200,2900,-11946,-2334,2025-02-17 11:28:32,0.0
-8400,-1688,-6944,1914,-7028,-2553,2025-02-17 11:28:32,0.0
-9440,2016,-7288,-2825,7598,-6842,2025-02-17 11:28:32,0.0
-13100,2312,-6300,-3709,7022,-9076,2025-02-17 11:28:32,0.0
-15632,708,-5188,-3576,5195,-9493,2025-02-17 11:28:32,0.0
-16552,-344,-5052,-3179,2389,-7835,2025-02-17 11:28:32,0.0
-15216,-692,-5528,-2727,-348,-5335,2025-02-17 11:28:32,0.0
-12604,-904,-5240,-2553,-2626,-3996,2025-02-17 11:28:32,0.0
-11300,-976,-5516,-2714,-3883,-3071,2025-02-17 11:28:32,0.0
-10524,-1572,-5924,-3059,-3564,-2844,2025-02-17 11:28:32,0.0
-10616,-1860,-6124,-3390,-2477,-2641,2025-02-17 11:28:32,0.0
-10120,-1832,-5892,-4075,-1097,-2504,2025-02-17 11:28:32,0.0
-9876,-2016,-5092,-4591,115,-2820,2025-02-17 11:28:32,0.0
-10492,-1548,-4732,-4856,1833,-2722,2025-02-17 11:28:32,0.0
-10856,-1220,-3952,-5542,4638,-2890,2025-02-17 11:28:33,0.0
-12132,-920,-3452,-5735,6622,-2843,2025-02-17 11:28:33,0.0
-12696,-652,-3284,-5446,6239,-2504,2025-02-17 11:28:33,0.0
-12748,-588,-3444,-5304,4876,-2554,2025-02-17 11:28:33,0.0
-12268,-1148,-3676,-4841,3035,-2444,2025-02-17 11:28:33,0.0
-11752,-1808,-4888,-4419,1250,-2005,2025-02-17 11:28:33,0.0
-11092,-1868,-5256,-4030,427,-1550,2025-02-17 11:28:33,0.0
-11256,-1284,-5504,-3210,598,-527,2025-02-17 11:28:33,0.0
-12008,-412,-5080,-2705,1857,769,2025-02-17 11:28:33,0.0
-12768,-296,-4152,-2441,3255,1654,2025-02-17 11:28:33,0.0
-14044,-1384,-3728,-1811,3227,2168,2025-02-17 11:28:33,0.0
-15108,-1796,-3432,-1943,2121,2601,2025-02-17 11:28:33,0.0
-15056,-2492,-2944,-1789,1116,2764,2025-02-17 11:28:33,0.0
-15056,-2736,-3292,-346,-39,3037,2025-02-17 11:28:33,0.0
-13228,-1508,-5640,1361,-538,2809,2025-02-17 11:28:33,0.0
-12772,-616,-7212,1863,772,1036,2025-02-17 11:28:33,0.0
-13000,-972,-6500,2490,3054,-252,2025-02-17 11:28:33,0.0
-13144,-1776,-5240,2870,3276,-425,2025-02-17 11:28:33,0.0
-13248,-2020,-4824,3131,1624,30,2025-02-17 11:28:33,0.0
-12604,-1340,-4100,3430,-864,952,2025-02-17 11:28:33,0.0
-11648,-1008,-4168,4387,-3340,1990,2025-02-17 11:28:33,0.0
-11024,-928,-4128,4970,-3463,2753,2025-02-17 11:28:33,0.0
-10872,-1220,-4460,5617,-1275,2908,2025-02-17 11:28:33,0.0
-11680,-1580,-4432,6375,2303,3398,2025-02-17 11:28:33,0.0
-12440,-1244,-4224,7081,5146,3927,2025-02-17 11:28:33,0.0
-14400,-964,-4228,8127,5684,4483,2025-02-17 11:28:33,0.0
-14720,-824,-4964,8425,4149,4679,2025-02-17 11:28:33,0.0
-14280,-1276,-5344,8461,1124,3938,2025-02-17 11:28:33,0.0
-13788,-1740,-6396,8631,-1253,3711,2025-02-17 11:28:33,0.0
-12988,-1976,-5908,8956,-2250,3622,2025-02-17 11:28:33,0.0
-12068,-1508,-6752,9180,-2560,3815,2025-02-17 11:28:33,0.0
-11680,-880,-8268,8548,-3148,3977,2025-02-17 11:28:33,0.0
-11768,16,-9348,7713,-4435,4288,2025-02-17 11:28:33,0.0
-11104,980,-7688,8145,-6157,4124,2025-02-17 11:28:33,0.0
-10240,1364,-7500,10492,-6564,3290,2025-02-17 11:28:33,0.0
-9816,1304,-6796,12114,-6304,2767,2025-02-17 11:28:33,0.0
-9220,448,-6148,12925,-5657,2419,2025-02-17 11:28:33,0.0
-10040,-1304,-3856,12934,-3880,2699,2025-02-17 11:28:33,0.0
-12032,-2212,-1444,14098,-1590,3853,2025-02-17 11:28:33,0.0
-13068,-1848,-1072,15574,-2207,5310,2025-02-17 11:28:33,0.0
-13740,-1600,-2620,17147,-1847,5847,2025-02-17 11:28:33,0.0
-14064,-708,-4420,17728,-647,6310,2025-02-17 11:28:33,0.0
-17152,-928,-4812,18149,-229,6993,2025-02-17 11:28:33,0.0
-13560,620,-5228,18743,-2777,7785,2025-02-17 11:28:33,0.0
-13732,256,-5388,19390,-4696,6746,2025-02-17 11:28:33,0.0
-12800,-144,-4068,20303,-5050,6887,2025-02-17 11:28:33,0.0
-11328,288,-3780,20862,-5037,6535,2025-02-17 11:28:33,0.0
-11248,528,-3672,20865,-3936,5426,2025-02-17 11:28:33,
-11544,676,-3820,20964,-2866,4304,2025-02-17 11:28:33,0.0
-12228,768,-4468,21373,-1982,3896,2025-02-17 11:28:33,0.0
-13384,712,-4620,21323,-1483,3984,2025-02-17 11:28:33,0.0
-13864,668,-3972,22008,-1672,4531,2025-02-17 11:28:33,0.0
-13864,468,-4952,22485,-2354,4830,2025-02-17 11:28:33,0.0
-13140,644,-5272,22081,-1960,4760,2025-02-17 11:28:33,0.0
-12948,720,-4424,21163,274,4989,2025-02-17 11:28:33,0.0
-13060,1840,-5072,20012,2628,5433,2025-02-17 11:28:33,0.0
-13556,1588,-3856,19129,3217,5651,2025-02-17 11:28:33,0.0
-15636,1808,-3192,18855,2650,6361,2025-02-17 11:28:33,0.0
-12832,676,-2320,19640,748,6452,2025-02-17 11:28:33,0.0
-11628,-592,-1300,21306,574,6369,2025-02-17 11:28:33,0.0
-10468,192,-3420,22352,565,5874,2025-02-17 11:28:33,0.0
-10664,8,-5376,22669,368,4818,2025-02-17 11:28:34,0.0
-11156,-960,-6612,22878,-175,4317,2025-02-17 11:28:34,0.0
-12508,-1312,-8208,22294,649,4490,2025-02-17 11:28:34,0.0
-12884,-684,-8592,21484,1870,5251,2025-02-17 11:28:34,0.0
-11836,168,-8680,19922,2619,5891,2025-02-17 11:28:34,0.0
-10940,-1396,-4688,19690,3740,6242,2025-02-17 11:28:34,0.0
-11348,-2960,-2392,20523,3746,6345,2025-02-17 11:28:34,0.0
-12172,-3868,-3812,20835,4357,6593,2025-02-17 11:28:34,0.0
-13272,-4096,-4040,21234,5254,7079,2025-02-17 11:28:34,0.0
-14996,-2908,-5396,21330,5246,7458,2025-02-17 11:28:34,0.0
-15348,-2020,-6444,20792,2645,7744,2025-02-17 11:28:34,0.0
-15300,-576,-5772,19969,-1958,7536,2025-02-17 11:28:34,0.0
-14236,716,-4848,19442,-4326,7039,2025-02-17 11:28:34,0.0
-12392,892,-3900,18584,-3518,6369,2025-02-17 11:28:34,0.0
-11720,-372,-2404,17994,-2089,5739,2025-02-17 11:28:34,0.0
-11660,-1988,-3080,17720,-1260,5539,2025-02-17 11:28:34,0.0
-12132,-3444,-3348,17651,-428,5855,2025-02-17 11:28:34,0.0
-13440,-3860,-3836,17544,-112,6788,2025-02-17 11:28:34,0.0
-13280,-3928,-4248,17307,-539,7714,2025-02-17 11:28:34,0.0
-13104,-3760,-4712,17209,-1647,8436,2025-02-17 11:28:34,0.0
-11544,-2068,-5128,16704,-2520,8879,2025-02-17 11:28:34,0.0
-11084,-1512,-4816,15760,-2305,8633,2025-02-17 11:28:34,0.0
-12052,-704,-4584,14653,-836,8483,2025-02-17 11:28:34,0.0
-11244,520,-5408,13700,241,7852,2025-02-17 11:28:34,0.0
-11936,776,-4800,12608,789,6970,2025-02-17 11:28:34,0.0
-12840,308,-4500,11931,1131,6408,2025-02-17 11:28:34,0.0
-12584,-388,-5308,11555,1026,6108,2025-02-17 11:28:34,0.0
-12548,-1992,-6580,11246,628,5926,2025-02-17 11:28:34,0.0
-12100,-2780,-7528,11491,390,5735,2025-02-17 11:28:34,0.0
-12276,-1468,-7084,11340,2485,5038,2025-02-17 11:28:34,0.0
-10640,1276,-7128,11010,3779,4282,2025-02-17 11:28:34,0.0
-11252,3688,-6548,9994,4752,3198,2025-02-17 11:28:34,0.0
-10576,3892,-7664,8375,3327,1717,2025-02-17 11:28:34,0.0
-11564,2460,-5768,8423,2510,808,2025-02-17 11:28:34,0.0
-12808,632,-5172,10112,2616,888,2025-02-17 11:28:34,0.0
-13668,-420,-5468,11174,3199,1951,2025-02-17 11:28:34,0.0
-13784,-628,-5100,12303,1226,3344,2025-02-17 11:28:34,0.0
-14284,768,-5256,12787,-1654,5147,2025-02-17 11:28:34,0.0
-12868,2628,-4944,12151,-2405,5535,2025-02-17 11:28:34,0.0
-11816,3112,-4732,11440,-2675,4691,2025-02-17 11:28:34,0.0
-11600,2388,-4236,11543,-2669,3795,2025-02-17 11:28:34,0.0
-12224,1396,-4868,11480,-2203,3585,2025-02-17 11:28:34,0.0
-13036,964,-4672,11133,-694,4162,2025-02-17 11:28:34,0.0
-12300,1516,-3268,10939,425,4541,2025-02-17 11:28:34,0.0
-12644,2004,-4204,9951,451,4229,2025-02-17 11:28:34,0.0
-12816,1508,-3760,9345,481,3996,2025-02-17 11:28:34,0.0
-13104,1200,-3724,9135,284,3853,2025-02-17 11:28:34,0.0
-13152,1264,-3776,9151,7,3670,2025-02-17 11:28:34,0.0
-13072,1736,-3316,9105,-153,3405,2025-02-17 11:28:34,0.0
-13076,1812,-3520,9165,-461,3231,2025-02-17 11:28:34,0.0
-12708,2036,-3936,8954,-824,3063,2025-02-17 11:28:34,0.0
-12304,1660,-3736,8765,-1037,2913,2025-02-17 11:28:34,0.0
-11976,1372,-3524,8395,-597,2703,2025-02-17 11:28:34,0.0
-11592,1160,-3836,8085,2,2352,2025-02-17 11:28:34,0.0
-11660,1552,-4408,7836,57,2231,2025-02-17 11:28:34,0.0
-11476,2020,-4216,7763,-196,1894,2025-02-17 11:28:34,0.0
-11460,2276,-5720,6999,-187,1551,2025-02-17 11:28:34,0.0
-11496,2212,-5700,5893,554,1229,2025-02-17 11:28:34,0.0
-11572,1992,-4772,5826,975,824,2025-02-17 11:28:34,0.0
-12472,2464,-5160,5708,1363,796,2025-02-17 11:28:34,0.0
-12740,2856,-5784,4827,1490,663,2025-02-17 11:28:34,0.0
-13084,2508,-5624,4310,1212,555,2025-02-17 11:28:34,0.0
-13264,2480,-5652,3900,819,484,2025-02-17 11:28:35,0.0
-13060,2812,-5504,3249,376,335,2025-02-17 11:28:35,0.0
-12928,3084,-5600,2351,220,163,2025-02-17 11:28:35,0.0
-12552,2972,-4580,1863,-115,-266,2025-02-17 11:28:35,0.0
-12540,2620,-4348,1427,-758,-558,2025-02-17 11:28:35,0.0
-12352,2260,-4024,1057,-1375,-771,2025-02-17 11:28:35,0.0
-11952,2156,-4356,563,-1561,-945,2025-02-17 11:28:35,0.0
-11760,2016,-4180,-12,-795,-1140,2025-02-17 11:28:35,0.0
-11900,2100,-4636,-685,208,-1558,2025-02-17 11:28:35,0.0
-12864,1992,-4808,-1227,675,-1858,2025-02-17 11:28:35,0.0
-13224,2044,-4728,-1899,499,-1989,2025-02-17 11:28:35,0.0
-13456,1848,-4480,-2288,132,-2085,2025-02-17 11:28:35,0.0
-13328,1836,-4268,-2695,-287,-2009,2025-02-17 11:28:35,0.0
-12992,1856,-4924,-3211,-914,-2109,2025-02-17 11:28:35,0.0
-12500,2180,-4748,-3710,-1507,-2386,2025-02-17 11:28:35,0.0
-12312,1556,-4080,-3986,-1750,-2727,2025-02-17 11:28:35,0.0
-11944,908,-4404,-4173,-1424,-3112,2025-02-17 11:28:35,0.0
-11704,284,-4920,-4449,-974,-3430,2025-02-17 11:28:35,0.0
-11872,-64,-5292,-4573,-526,-3571,2025-02-17 11:28:35,0.0
-12064,-796,-5320,-4539,-55,-3359,2025-02-17 11:28:35,0.0
-12128,-1328,-4560,-4313,37,-2772,2025-02-17 11:28:35,0.0
-11676,-1868,-4756,-4526,-208,-2095,2025-02-17 11:28:35,0.0
-11612,-1956,-4700,-5053,451,-1822,2025-02-17 11:28:35,0.0
-11804,-2172,-4648,-5255,1436,-2000,2025-02-17 11:28:35,0.0
-12668,-2548,-4576,-5024,2538,-2642,2025-02-17 11:28:35,
-14036,-2696,-4032,-4310,2927,-3199,2025-02-17 11:28:35,0.0
-14468,-2364,-2992,-3682,2880,-3683,2025-02-17 11:28:35,0.0
-13884,-1508,-3092,-3878,1781,-4505,2025-02-17 11:28:35,0.0
-13156,-1244,-3300,-4465,1429,-5895,2025-02-17 11:28:35,0.0
-13144,-2084,-3008,-4745,1762,-6704,2025-02-17 11:28:35,0.0
-13912,-2360,-3304,-4478,2252,-6056,2025-02-17 11:28:35,0.0
-13880,-3508,-2708,-3530,440,-4573,2025-02-17 11:28:35,0.0
-13460,-3632,-2404,-2776,-1791,-3249,2025-02-17 11:28:35,0.0
-12396,-3256,-2200,-2604,-3008,-2762,2025-02-17 11:28:35,0.0
-12248,-2760,-2140,-2484,-3187,-2334,2025-02-17 11:28:35,0.0
-11668,-2612,-2172,-2176,-1969,-1705,2025-02-17 11:28:35,0.0
-11704,-2664,-1496,-1697,-268,-1397,2025-02-17 11:28:35,0.0
-12372,-2568,-1004,-990,775,-1378,2025-02-17 11:28:35,0.0
-12992,-2956,-552,-169,1182,-1344,2025-02-17 11:28:35,0.0
-13604,-3252,-2300,363,1292,-1134,2025-02-17 11:28:35,0.0
-13644,-3492,-2248,822,1010,-867,2025-02-17 11:28:35,0.0
-14148,-2784,-1744,1086,316,-306,2025-02-17 11:28:35,0.0
-13252,-2008,-956,1577,-512,-95,2025-02-17 11:28:35,0.0
-13032,-1604,-1412,1549,-344,-492,2025-02-17 11:28:35,0.0
-13328,-1436,-1872,1660,-513,-775,2025-02-17 11:28:35,0.0
-13172,-904,-1600,1426,-1240,-939,2025-02-17 11:28:35,0.0
-12432,-1220,-2148,997,-2133,-1099,2025-02-17 11:28:35,0.0
-11212,-1608,-2568,633,-2137,-789,2025-02-17 11:28:35,0.0
-10460,-1752,-3608,-294,316,-73,2025-02-17 11:28:35,0.0
-10912,-1796,-3828,-1630,4655,811,2025-02-17 11:28:35,0.0
-11776,-2388,-2584,-2486,6619,255,2025-02-17 11:28:35,0.0
-14776,-2668,-988,-2942,7376,-763,2025-02-17 11:28:35,0.0
-16424,-3308,-756,-3309,6584,-1479,2025-02-17 11:28:35,0.0
-16672,-3924,-1684,-3795,5710,-2065,2025-02-17 11:28:35,0.0
-17272,-4420,-2316,-3755,4424,-2211,2025-02-17 11:28:35,0.0
-17208,-5360,-2280,-2853,3119,-2211,2025-02-17 11:28:35,0.0
-16992,-5636,-2960,-1080,2833,-1581,2025-02-17 11:28:35,0.0
-18920,-5320,-3044,2827,2895,-238,2025-02-17 11:28:35,0.0
-18292,-6056,-6024,4325,2868,284,2025-02-17 11:28:36,0.0
-17732,-5008,-8308,5454,2263,314,2025-02-17 11:28:36,0.0
-17332,-4596,-11004,4504,227,108,2025-02-17 11:28:36,0.0
-15896,-3880,-10392,4068,-2353,-466,2025-02-17 11:28:36,0.0
-13820,-2336,-9948,4031,-5972,-226,2025-02-17 11:28:36,0.0
-10524,-1760,-9324,3854,-7934,467,2025-02-17 11:28:36,0.0
-8292,-1076,-8232,3145,-8689,1200,2025-02-17 11:28:36,0.0
-6992,-760,-7684,3057,-7472,2375,2025-02-17 11:28:36,0.0
-6252,-448,-7688,3348,-4520,3638,2025-02-17 11:28:36,0.0
-9236,100,-7860,2841,3334,4502,2025-02-17 11:28:36,0.0
-10484,-284,-6964,1798,5146,3628,2025-02-17 11:28:36,0.0
-12432,-924,-6936,1102,3594,2835,2025-02-17 11:28:36,0.0
-12952,-1712,-7036,850,1760,2798,2025-02-17 11:28:36,0.0
-12988,-1416,-6324,796,278,2919,2025-02-17 11:28:36,0.0
-13772,-1412,-5464,559,-656,3696,2025-02-17 11:28:36,0.0
-17576,-3760,-7620,-330,-1254,5562,2025-02-17 11:28:36,0.0
-7228,1140,-936,1923,-4457,7766,2025-02-17 11:28:36,0.0
-10444,-324,-3672,1612,-5557,6479,2025-02-17 11:28:36,0.0
-11108,104,-2844,1844,-1916,7242,2025-02-17 11:28:36,0.0
-8892,820,-4168,1841,1563,7987,2025-02-17 11:28:36,0.0
-8016,1056,-2848,1695,3983,7681,2025-02-17 11:28:36,0.0
-8320,1576,-2920,1898,4195,6128,2025-02-17 11:28:36,0.0
-8572,1772,-1992,2413,3456,4196,2025-02-17 11:28:36,0.0
-9004,2336,-2500,2585,2408,2110,2025-02-17 11:28:36,0.0
-9604,2640,-2596,2328,2196,307,2025-02-17 11:28:36,0.0
-9824,2664,-3472,1814,2175,-1253,2025-02-17 11:28:36,0.0
-10424,2444,-3192,1662,2261,-2008,2025-02-17 11:28:36,0.0
-11116,1588,-3364,1371,2699,-2379,2025-02-17 11:28:36,0.0
-10680,620,-1696,2391,1747,-2696,2025-02-17 11:28:36,0.0
-13432,848,-5208,1500,2110,-1799,2025-02-17 11:28:36,0.0
-13040,452,-3800,1472,2459,-1618,2025-02-17 11:28:36,0.0
-13940,-124,-3892,1563,1137,-879,2025-02-17 11:28:36,0.0
-13576,-900,-4180,2054,328,312,2025-02-17 11:28:36,0.0
-12644,-1492,-4000,2585,273,958,2025-02-17 11:28:36,0.0
-12296,-1520,-4432,3146,999,1661,2025-02-17 11:28:36,0.0
-12960,-1056,-5040,3487,1637,2485,2025-02-17 11:28:36,0.0
-13320,-236,-6144,3373,1647,2839,2025-02-17 11:28:36,0.0
-14468,740,-5400,2632,1911,2999,2025-02-17 11:28:36,0.0
-14804,1404,-4664,2502,2725,2972,2025-02-17 11:28:36,0.0
-12260,-6104,-4140,3987,537,2568,2025-02-17 11:28:36,0.0
-15288,572,-6204,4472,2093,3842,2025-02-17 11:28:36,0.0
-17252,2844,-9232,4087,744,3834,2025-02-17 11:28:36,0.0
-16628,4408,-11344,2304,1669,4054,2025-02-17 11:28:36,0.0
-16876,4936,-11368,1319,2066,4695,2025-02-17 11:28:36,0.0
-13988,3632,-11868,1098,540,4586,2025-02-17 11:28:36,0.0
-12964,3588,-9568,2354,-4430,3556,2025-02-17 11:28:36,0.0
-10352,2496,-8600,1677,-9103,897,2025-02-17 11:28:36,0.0
-8824,164,-6404,826,-9968,-1910,2025-02-17 11:28:36,0.0
-6828,-1992,-7864,-345,-9300,-2972,2025-02-17 11:28:36,0.0
-6276,-4064,-8536,-673,-4950,-4682,2025-02-17 11:28:36,0.0
-9952,-2448,-9004,659,-498,-3581,2025-02-17 11:28:36,0.0
-11680,-5128,-8592,514,1294,-1361,2025-02-17 11:28:36,0.0
-10840,-2500,-7852,295,1530,-158,2025-02-17 11:28:36,0.0
-11368,-184,-6824,295,866,-677,2025-02-17 11:28:36,0.0
-11904,1116,-6668,244,466,-2286,2025-02-17 11:28:36,0.0
-12372,1236,-6156,252,-647,-3624,2025-02-17 11:28:36,0.0
-12344,508,-5860,551,-1965,-4021,2025-02-17 11:28:36,0.0
-11640,-164,-5596,775,-3292,-3985,2025-02-17 11:28:36,0.0
-11544,-1248,-4964,1200,-3700,-3417,2025-02-17 11:28:36,0.0
-11016,-2240,-4600,1278,-3394,-2664,2025-02-17 11:28:36,0.0
-10348,-2468,-5328,1299,-2493,-2326,2025-02-17 11:28:36,0.0
-10752,-2496,-5676,877,-1975,-2126,2025-02-17 11:28:37,0.0
-10692,-1940,-5760,-5,-1566,-1789,2025-02-17 11:28:37,0.0
-10104,-1356,-5852,-815,-902,-1870,2025-02-17 11:28:37,0.0
-10316,-1176,-5184,-1000,-28,-2026,2025-02-17 11:28:37,0.0
-10792,-964,-4264,-1285,659,-2158,2025-02-17 11:28:37,0.0
-11440,-1464,-4256,-1679,1568,-2280,2025-02-17 11:28:37,
-11936,-2108,-4220,-1752,1843,-1800,2025-02-17 11:28:37,0.0
-12400,-2408,-4108,-1228,1464,-1275,2025-02-17 11:28:37,0.0
-12836,-2140,-4876,-1177,305,-244,2025-02-17 11:28:37,0.0
-12696,-1764,-4616,-1139,-416,411,2025-02-17 11:28:37,0.0
-12196,-1744,-4152,-1027,-603,718,2025-02-17 11:28:37,0.0
-12036,-1816,-4404,-753,-315,732,2025-02-17 11:28:37,0.0
-11984,-2004,-4992,-422,186,489,2025-02-17 11:28:37,0.0
-12112,-1920,-4904,-485,923,-10,2025-02-17 11:28:37,0.0
-12892,-1028,-4824,-872,929,-436,2025-02-17 11:28:37,0.0
-13064,-344,-4628,-1438,320,-1117,2025-02-17 11:28:37,0.0
-13216,-912,-4128,-1311,-494,-1886,2025-02-17 11:28:37,0.0
-13788,-2252,-3992,-516,-1679,-1809,2025-02-17 11:28:37,0.0
-14144,-3176,-3636,690,-1515,-663,2025-02-17 11:28:37,0.0
-13616,-3004,-4720,1754,783,968,2025-02-17 11:28:37,0.0
-12056,-1496,-6164,915,4310,1868,2025-02-17 11:28:37,0.0
-10516,332,-6500,-1259,6032,1471,2025-02-17 11:28:37,0.0
-8924,984,-7912,-4340,4226,-652,2025-02-17 11:28:37,0.0
-8984,644,-8464,-6811,-703,-2673,2025-02-17 11:28:37,0.0
-9612,308,-8472,-9009,-6319,-3884,2025-02-17 11:28:37,0.0
-9720,548,-6136,-10842,-14015,-4480,2025-02-17 11:28:37,0.0
-9300,832,3520,-12435,-20395,-5667,2025-02-17 11:28:37,0.0
-9384,2328,-6504,-9873,-2797,-5843,2025-02-17 11:28:37,0.0
-8260,4284,-10020,-11848,4041,-6092,2025-02-17 11:28:37,0.0
-11736,3644,-9600,-13068,8635,-7308,2025-02-17 11:28:37,0.0
-14320,1864,-10036,-14526,11448,-8554,2025-02-17 11:28:37,0.0
-16848,-2404,-7088,-14128,10312,-10787,2025-02-17 11:28:37,0.0
-18904,-4160,-8492,-11978,7521,-10225,2025-02-17 11:28:37,0.0
-18176,-3100,-11308,-10958,4619,-8158,2025-02-17 11:28:37,0.0
-15776,-816,-11128,-11595,690,-7099,2025-02-17 11:28:37,0.0
-14560,176,-8748,-12071,-3146,-7163,2025-02-17 11:28:37,0.0
-13008,1364,-7452,-12344,-7956,-7357,2025-02-17 11:28:37,0.0
-12640,2216,-7124,-12764,-13222,-7053,2025-02-17 11:28:37,0.0
-11972,2872,-5336,-14693,-16828,-5640,2025-02-17 11:28:37,0.0
-8444,1824,-7156,-15727,-13975,-4532,2025-02-17 11:28:37,0.0
-7120,128,-7096,-16638,-9026,-5285,2025-02-17 11:28:37,0.0
-8516,-1748,-5484,-16192,-3703,-5850,2025-02-17 11:28:37,0.0
-10092,-2420,-3228,-14570,1293,-6064,2025-02-17 11:28:37,0.0
-12080,-2256,-5020,-13932,4125,-6048,2025-02-17 11:28:37,0.0
-13348,-1536,-8292,-16145,2920,-5634,2025-02-17 11:28:37,0.0
-13524,-2000,-8324,-18655,872,-5497,2025-02-17 11:28:37,0.0
-13276,-2836,-6300,-19703,-423,-5914,2025-02-17 11:28:37,0.0
-13576,-4016,-3136,-18748,-969,-5942,2025-02-17 11:28:37,0.0
-14564,-4668,-2724,-17011,-1295,-5044,2025-02-17 11:28:37,0.0
-14116,-3340,-2604,-15877,-3010,-3764,2025-02-17 11:28:37,0.0
-13388,-2132,-4376,-15338,-5342,-3154,2025-02-17 11:28:37,0.0
-12268,-732,-5552,-15748,-5977,-3403,2025-02-17 11:28:37,0.0
-12516,-452,-5008,-16266,-4850,-3492,2025-02-17 11:28:37,0.0
-12356,-1484,-3776,-15721,-2019,-3570,2025-02-17 11:28:37,0.0
-12908,-2108,-3324,-14750,-1068,-3698,2025-02-17 11:28:37,0.0
-13660,-2444,-3424,-13932,-1819,-3055,2025-02-17 11:28:37,0.0
-13264,-2424,-2824,-13031,-3058,-2735,2025-02-17 11:28:37,0.0
-12776,-2352,-2736,-12254,-4332,-2715,2025-02-17 11:28:37,0.0
-12848,-1852,-3988,-12711,-5816,-2657,2025-02-17 11:28:37,0.0
-11556,-1388,-2808,-14157,-7120,-3615,2025-02-17 11:28:37,0.0
-11672,-2076,-1776,-14525,-5981,-5035,2025-02-17 11:28:37,0.0
-12036,-2492,-376,-13642,-2871,-6382,2025-02-17 11:28:37,0.0
-13812,-2600,-748,-12844,-1309,-5793,2025-02-17 11:28:37,0.0
-14788,-2396,-480,-11873,-1132,-3969,2025-02-17 11:28:37,0.0
-14932,-2264,-912,-11006,-87,-2085,2025-02-17 11:28:37,0.0
-13748,-1984,-3028,-11429,3663,-1453,2025-02-17 11:28:38,0.0
-14016,-2276,-3308,-12862,8794,-2418,2025-02-17 11:28:38,0.0
-16380,-2460,-2092,-13968,13859,-1901,2025-02-17 11:28:38,0.0
-19620,-1888,-1048,-13629,24229,385,2025-02-17 11:28:38,0.0
-19748,100,3576,-10390,32767,5015,2025-02-17 11:28:38,0.0
-16428,2448,5468,-7379,32767,10104,2025-02-17 11:28:38,0.0
-10288,2424,840,-6093,32767,12976,2025-02-17 11:28:38,0.0
-4400,2220,-6700,-7682,27243,13435,2025-02-17 11:28:38,0.0
4628,1476,-5800,-12464,15126,12471,2025-02-17 11:28:38,0.0
7836,736,-628,-15361,3930,7723,2025-02-17 11:28:38,0.0
4120,-844,2032,-15691,-1138,5784,2025-02-17 11:28:38,0.0
3304,-860,1360,-15680,-1804,5263,2025-02-17 11:28:38,0.0
2456,-592,2304,-14798,-2320,5483,2025-02-17 11:28:38,0.0
2540,-572,1980,-14318,-1934,5302,2025-02-17 11:28:38,0.0
2620,-436,2076,-13843,-1556,5119,2025-02-17 11:28:38,0.0
2660,-568,1932,-13383,-976,4768,2025-02-17 11:28:38,0.0
2532,-516,2220,-12871,-578,4525,2025-02-17 11:28:38,0.0
2632,-412,2096,-12468,-102,4230,2025-02-17 11:28:38,0.0
2552,-416,1912,-12134,323,3916,2025-02-17 11:28:38,0.0
2524,-560,1920,-11822,577,3754,2025-02-17 11:28:38,0.0
2408,-516,1584,-11206,871,3593,2025-02-17 11:28:38,0.0
2528,-536,1552,-11081,945,3546,2025-02-17 11:28:38,0.0
2568,-464,1580,-10980,925,3483,2025-02-17 11:28:38,0.0
2548,-400,1464,-10823,1006,3332,2025-02-17 11:28:38,0.0
2516,-440,1388,-10676,1267,3093,2025-02-17 11:28:38,0.0
2504,-452,1464,-10467,1730,2738,2025-02-17 11:28:38,0.0
2716,-436,1444,-10219,2360,2210,2025-02-17 11:28:38,0.0
2724,-332,1296,-9981,3093,1568,2025-02-17 11:28:38,0.0
2704,-404,1552,-9526,3643,961,2025-02-17 11:28:38,0.0
2832,-100,1700,-9171,4307,379,2025-02-17 11:28:38,0.0
7476,2304,2584,-5802,10213,-6350,2025-02-17 11:28:38,0.0
32124,32767,32767,32767,32767,-32768,2025-02-17 11:28:38,0.0
-32768,-32768,-32768,32767,18739,-32768,2025-02-17 11:28:38,0.0
-32768,-32768,-32768,32767,32632,-32768,2025-02-17 11:28:38,0.0
-32768,-32768,-32768,-22556,18366,4160,2025-02-17 11:28:38,0.0
-1204,-15756,-8444,-26448,5848,10951,2025-02-17 11:28:38,0.0
7476,-4224,6012,-20054,2501,6035,2025-02-17 11:28:38,0.0
7984,-1108,6796,-11317,1356,-420,2025-02-17 11:28:38,0.0
4612,-108,5556,-5322,2134,-4140,2025-02-17 11:28:38,0.0
3508,-236,2404,-2762,2339,-5227,2025-02-17 11:28:38,0.0
-272,560,3852,-1052,1883,-6458,2025-02-17 11:28:38,
1448,-412,2116,1630,967,-9131,2025-02-17 11:28:38,0.0
-1544,-2352,236,6486,3702,-13632,2025-02-17 11:28:38,0.0
-6960,-5664,-5592,12162,11367,-17163,2025-02-17 11:28:38,0.0
-9804,-10116,-17164,11884,16289,-16222,2025-02-17 11:28:38,0.0
-19196,-12696,-27644,4950,15532,-9785,2025-02-17 11:28:38,0.0
-13596,-15396,-26960,-3303,9218,-1558,2025-02-17 11:28:38,0.0
-3880,-12544,-14672,-3124,3051,755,2025-02-17 11:28:38,0.0
576,-6152,-11088,-419,1574,23,2025-02-17 11:28:38,0.0
-2236,-5364,-8676,640,-2493,-225,2025-02-17 11:28:38,0.0
-3772,-8044,-10684,740,-1406,-264,2025-02-17 11:28:38,0.0
-4888,-9084,-13328,-713,992,-85,2025-02-17 11:28:38,0.0
-3024,-7268,-12084,-902,1156,-59,2025-02-17 11:28:38,0.0
-2928,-6624,-11444,116,-117,-200,2025-02-17 11:28:38,0.0
-3752,-8040,-12172,224,-452,-257,2025-02-17 11:28:38,0.0
-3744,-8060,-12112,-290,215,-170,2025-02-17 11:28:38,0.0
-3248,-7504,-11656,-307,200,-131,2025-02-17 11:28:38,0.0
-3328,-7704,-12080,-161,8,-212,2025-02-17 11:28:38,0.0
-3812,-7700,-12544,-191,166,-181,2025-02-17 11:28:38,0.0
-3372,-7632,-11924,-100,186,-196,2025-02-17 11:28:38,0.0
-3564,-7732,-12124,-125,53,-161,2025-02-17 11:28:39,0.0
-3492,-7832,-12024,-179,252,-184,2025-02-17 11:28:39,0.0
-3400,-7640,-12340,-228,242,-163,2025-02-17 11:28:39,0.0
-3360,-7644,-11904,-86,79,-162,2025-02-17 11:28:39,0.0
-3528,-7692,-12112,-186,168,-193,2025-02-17 11:28:39,0.0
-3352,-7632,-12072,-167,165,-166,2025-02-17 11:28:39,0.0
-3348,-7616,-11944,-149,175,-176,2025-02-17 11:28:39,0.0
-3388,-7608,-12048,-126,188,-179,2025-02-17 11:28:39,0.0
-3460,-7680,-11984,-132,219,-126,2025-02-17 11:28:39,0.0
-3544,-7632,-12180,-174,349,-199,2025-02-17 11:28:39,0.0
-3440,-7712,-12036,-146,246,-156,2025-02-17 11:28:39,0.0
-3408,-7728,-12056,-181,168,-181,2025-02-17 11:28:39,0.0
-3460,-7576,-11936,-97,274,-193,2025-02-17 11:28:39,0.0
-3272,-7748,-12100,-160,210,-194,2025-02-17 11:28:39,0.0
-3268,-7852,-12188,-249,18,-179,2025-02-17 11:28:39,0.0
-3200,-7660,-12160,-181,-87,-197,2025-02-17 11:28:39,0.0
-3456,-7756,-11956,-133,27,-174,2025-02-17 11:28:39,0.0
-3576,-7660,-11868,-164,233,-139,2025-02-17 11:28:39,0.0
-3128,-7624,-12152,-196,279,-230,2025-02-17 11:28:39,0.0
-3372,-7664,-12316,-146,4,-131,2025-02-17 11:28:39,0.0
-3572,-7532,-11852,-131,177,-159,2025-02-17 11:28:39,0.0
-3364,-7732,-12108,-186,221,-202,2025-02-17 11:28:39,0.0
-3400,-7712,-11976,-135,126,-150,2025-02-17 11:28:39,0.0
-3392,-7588,-12220,-157,184,-194,2025-02-17 11:28:39,0.0
-3376,-7656,-12164,-154,119,-159,2025-02-17 11:28:39,0.0
-3416,-7652,-11976,-133,133,-176,2025-02-17 11:28:39,0.0
-3404,-7584,-12160,-150,199,-180,2025-02-17 11:28:39,0.0
-3432,-7756,-12000,-171,158,-172,2025-02-17 11:28:39,0.0
-3440,-7716,-11888,-162,177,-162,2025-02-17 11:28:39,0.0
-3408,-7792,-11908,-127,157,-184,2025-02-17 11:28:39,0.0
-3328,-7676,-12032,-135,172,-190,2025-02-17 11:28:39,0.0
-3484,-7632,-12172,-184,188,-172,2025-02-17 11:28:39,0.0
-3380,-7608,-12096,-155,130,-184,2025-02-17 11:28:39,0.0
-3528,-7708,-12108,-158,168,-185,2025-02-17 11:28:39,0.0
-3384,-7644,-12088,-125,197,-175,2025-02-17 11:28:39,0.0
-3340,-7740,-12092,-135,154,-157,2025-02-17 11:28:39,0.0
-3512,-7560,-12024,-178,142,-165,2025-02-17 11:28:39,0.0
-3388,-7584,-12016,-150,166,-181,2025-02-17 11:28:39,0.0
-3364,-7760,-12116,-151,182,-170,2025-02-17 11:28:39,0.0
-3404,-7724,-12060,-179,175,-159,2025-02-17 11:28:39,0.0
-3548,-7656,-12044,-168,178,-176,2025-02-17 11:28:39,0.0
-3380,-7680,-12080,-150,151,-204,2025-02-17 11:28:39,0.0
-3392,-7700,-11936,-157,186,-171,2025-02-17 11:28:39,0.0
-3396,-7704,-12028,-162,172,-176,2025-02-17 11:28:39,0.0
-3504,-7712,-11916,-156,169,-178,2025-02-17 11:28:39,0.0
-3388,-7716,-12076,-160,164,-170,2025-02-17 11:28:39,0.0
-3332,-7624,-12012,-166,167,-181,2025-02-17 11:28:39,0.0
-3436,-7720,-12012,-167,164,-169,2025-02-17 11:28:39,0.0
-3452,-7688,-12052,-171,123,-163,2025-02-17 11:28:39,0.0
-3456,-7712,-12052,-149,176,-163,2025-02-17 11:28:39,0.0
-3440,-7740,-12148,-163,187,-175,2025-02-17 11:28:39,0.0
-3448,-7644,-12132,-145,151,-177,2025-02-17 11:28:39,0.0
-3464,-7692,-11956,-157,142,-197,2025-02-17 11:28:39,0.0
-3404,-7696,-12104,-146,175,-163,2025-02-17 11:28:39,0.0
-3556,-7696,-12036,-161,198,-169,2025-02-17 11:28:39,0.0
-3404,-7668,-11964,-164,192,-172,2025-02-17 11:28:39,0.0
-3500,-7640,-12016,-144,143,-173,2025-02-17 11:28:39,0.0
-3504,-7700,-12084,-158,180,-171,2025-02-17 11:28:39,0.0
-3416,-7740,-11992,-130,183,-172,2025-02-17 11:28:39,0.0
-3416,-7608,-11920,-154,158,-182,2025-02-17 11:28:40,0.0
-3496,-7704,-12052,-175,134,-169,2025-02-17 11:28:40,0.0
-3344,-7616,-12052,-169,159,-180,2025-02-17 11:28:40,0.0
-3460,-7648,-11996,-157,180,-179,2025-02-17 11:28:40,0.0
-3356,-7560,-12108,-168,187,-195,2025-02-17 11:28:40,0.0
-3452,-7772,-12056,-141,160,-208,2025-02-17 11:28:40,0.0
-3424,-7744,-12096,-155,168,-156,2025-02-17 11:28:40,0.0
-3416,-7608,-12180,-170,177,-172,2025-02-17 11:28:40,0.0
-3492,-7664,-12040,-150,163,-164,2025-02-17 11:28:40,0.0
-3424,-7736,-12076,-158,178,-176,2025-02-17 11:28:40,0.0
-3476,-7640,-12020,-176,145,-161,2025-02-17 11:28:40,0.0
-3508,-7620,-11940,-175,174,-188,2025-02-17 11:28:40,0.0
-3388,-7572,-11960,-150,151,-185,2025-02-17 11:28:40,0.0
-3336,-7628,-11988,-163,172,-149,2025-02-17 11:28:40,0.0
-3440,-7664,-12140,-165,166,-197,2025-02-17 11:28:40,0.0
-3420,-7620,-12028,-175,167,-187,2025-02-17 11:28:40,0.0
-3512,-7664,-12164,-161,167,-175,2025-02-17 11:28:40,0.0
-3372,-7636,-12020,-194,156,-156,2025-02-17 11:28:40,0.0
-3472,-7688,-12084,-156,173,-189,2025-02-17 11:28:40,0.0
-3360,-7672,-12076,-159,175,-184,2025-02-17 11:28:40,0.0
-3624,-7700,-12124,-143,144,-191,2025-02-17 11:28:40,0.0
-3376,-7668,-12076,-159,169,-181,2025-02-17 11:28:40,
-3416,-7616,-12168,-189,158,-172,2025-02-17 11:28:40,0.0
-3620,-7616,-11876,-140,229,-140,2025-02-17 11:28:40,0.0
-3436,-7964,-12092,-240,-13,-230,2025-02-17 11:28:40,0.0
-3216,-7268,-12232,-82,28,-281,2025-02-17 11:28:40,0.0
-2688,-7920,-12120,-49,-119,-370,2025-02-17 11:28:40,0.0
-3480,-7352,-12284,-315,-331,-220,2025-02-17 11:28:40,0.0
-2676,-6440,-10664,451,-79,-819,2025-02-17 11:28:40,0.0
-3628,-6376,-10808,670,623,-911,2025-02-17 11:28:40,0.0
-4788,-7768,-11636,616,2243,-713,2025-02-17 11:28:40,0.0
-3472,-9292,-13576,-457,2393,-761,2025-02-17 11:28:40,0.0
-2856,-9632,-14700,-1726,1116,-609,2025-02-17 11:28:40,0.0
-468,-7748,-12528,-1700,-1368,-967,2025-02-17 11:28:40,0.0
288,-6728,-14112,-1619,-5558,-1579,2025-02-17 11:28:40,0.0
1132,-5952,-14704,-3031,-10067,-4555,2025-02-17 11:28:40,0.0
-2164,-6156,-15608,-4426,-10198,-6315,2025-02-17 11:28:40,0.0
-6804,-7732,-8848,-4780,-10038,-2084,2025-02-17 11:28:40,0.0
-7668,-8804,-9948,-1798,-10585,1041,2025-02-17 11:28:40,0.0
-7048,-8032,-9692,-293,-9871,1918,2025-02-17 11:28:40,0.0
-7532,-8480,-10928,-272,-5418,1665,2025-02-17 11:28:40,0.0
-6356,-5904,-9100,-1824,2487,-210,2025-02-17 11:28:40,0.0
-7192,-5072,-6904,613,12932,-3721,2025-02-17 11:28:40,0.0
-2188,-8420,-11776,717,12156,-3171,2025-02-17 11:28:40,0.0
-2840,-8604,-12832,-1042,8704,-3284,2025-02-17 11:28:40,0.0
-1668,-9952,-14968,-2039,2136,-1272,2025-02-17 11:28:40,0.0
-4260,-8148,-14824,-525,-339,299,2025-02-17 11:28:40,0.0
-2548,-5916,-12640,-292,-2379,-389,2025-02-17 11:28:40,0.0
-3256,-7536,-12468,-422,-3212,-941,2025-02-17 11:28:40,0.0
-2360,-7692,-12020,-886,-3499,-1642,2025-02-17 11:28:40,0.0
-4696,-7220,-12464,-1255,-3299,-1760,2025-02-17 11:28:40,0.0
-5832,-8088,-11444,-1176,-2452,-1065,2025-02-17 11:28:40,0.0
-10504,-8356,-9188,-243,949,1375,2025-02-17 11:28:40,0.0
-3072,-7324,-11800,-962,4462,119,2025-02-17 11:28:40,0.0
-1592,-6636,-12340,-1606,5141,-971,2025-02-17 11:28:40,0.0
-2480,-7096,-12108,-1117,1429,-755,2025-02-17 11:28:40,0.0
-3772,-7860,-13400,-327,-2077,-36,2025-02-17 11:28:40,0.0
-2244,-6736,-11412,-451,-2477,-668,2025-02-17 11:28:40,0.0
-3428,-7284,-12132,-409,-2869,-1185,2025-02-17 11:28:40,0.0
-4300,-7984,-12064,-421,-2265,-1124,2025-02-17 11:28:40,0.0
-6220,-7244,-11752,-570,-399,-887,2025-02-17 11:28:40,0.0
-5256,-7288,-10388,-346,798,-220,2025-02-17 11:28:40,0.0
-3816,-7204,-11604,-331,1503,-362,2025-02-17 11:28:40,0.0
-4136,-7252,-12128,-151,1470,-331,2025-02-17 11:28:41,0.0
-3964,-7228,-11956,-145,1568,-485,2025-02-17 11:28:41,0.0
-4228,-7752,-11864,-365,2335,-618,2025-02-17 11:28:41,0.0
-3324,-8028,-12044,-1152,2377,374,2025-02-17 11:28:41,0.0
-3220,-7724,-11164,-2709,3807,164,2025-02-17 11:28:41,0.0
-3240,-7872,-13016,-2462,754,1124,2025-02-17 11:28:41,0.0
-3396,-6272,-14292,-1955,-1398,698,2025-02-17 11:28:41,0.0
-4448,-6564,-12872,-1389,-2167,230,2025-02-17 11:28:41,0.0
-8196,-7152,-12468,413,1004,-863,2025-02-17 11:28:41,0.0
-1708,-8248,-13392,120,-585,345,2025-02-17 11:28:41,0.0
-2172,-7580,-11644,-873,-2069,536,2025-02-17 11:28:41,0.0
-4364,-7196,-11276,-1307,-2422,1117,2025-02-17 11:28:41,0.0
-4152,-8012,-13004,-1974,-355,735,2025-02-17 11:28:41,0.0
-4896,-8080,-12044,-2163,656,1225,2025-02-17 11:28:41,0.0
-5820,-8320,-13108,-3426,802,2139,2025-02-17 11:28:41,0.0
-5592,-7132,-13232,-4594,4082,2841,2025-02-17 11:28:41,0.0
-5896,-5832,-13488,-4845,6319,3259,2025-02-17 11:28:41,0.0
-4256,-4724,-14464,-4630,7712,3018,2025-02-17 11:28:41,0.0
-4300,-6060,-15172,-4674,8972,2141,2025-02-17 11:28:41,0.0
-2724,-8084,-16004,-6767,8375,2436,2025-02-17 11:28:41,0.0
-2740,-8948,-13684,-5051,8914,1572,2025-02-17 11:28:41,0.0
-2648,-11364,-13748,476,12379,-184,2025-02-17 11:28:41,0.0
-1532,-13956,-18000,2707,14323,-2278,2025-02-17 11:28:41,0.0
-1104,-11592,-19548,1323,14238,-4377,2025-02-17 11:28:41,0.0
-3604,-6960,-19488,-211,10690,-3836,2025-02-17 11:28:41,0.0
-2648,-3424,-19496,-2807,5851,-1720,2025-02-17 11:28:41,0.0
-3224,-1728,-19268,-6162,3332,-265,2025-02-17 11:28:41,0.0
-3028,-4048,-15648,-7177,284,2718,2025-02-17 11:28:41,0.0
1552,-4100,-16292,-6808,-5710,1921,2025-02-17 11:28:41,0.0
1344,-4712,-17116,-6732,-12082,-905,2025-02-17 11:28:41,0.0
1012,-5892,-18644,-8075,-17975,-614,2025-02-17 11:28:41,0.0
-1548,-7716,-20832,-11521,-20568,809,2025-02-17 11:28:41,0.0
-2808,-7012,-16760,-12797,-18807,579,2025-02-17 11:28:41,0.0
-6556,-5552,-15960,-10962,-14418,1521,2025-02-17 11:28:41,0.0
-7924,-4584,-17588,-9077,-8349,3837,2025-02-17 11:28:41,0.0
-7492,-3588,-20256,-8600,-1601,5227,2025-02-17 11:28:41,0.0
-7092,-1596,-21520,-8480,5616,5857,2025-02-17 11:28:41,0.0
-4576,-804,-22040,-7452,10601,6781,2025-02-17 11:28:41,0.0
-1472,-1072,-21836,-5589,10152,6250,2025-02-17 11:28:41,0.0
-1180,-100,-23644,-3394,6949,5483,2025-02-17 11:28:41,0.0
-2740,2872,-23744,-4040,7350,5677,2025-02-17 11:28:41,0.0
-3152,3880,-20596,-3395,10337,5495,2025-02-17 11:28:41,0.0
-3408,3648,-18036,-617,13123,5335,2025-02-17 11:28:41,0.0
-2968,2504,-15940,2380,12455,7068,2025-02-17 11:28:41,0.0
-872,536,-15772,4106,10780,7240,2025-02-17 11:28:41,0.0
488,-1632,-16000,3439,7496,5485,2025-02-17 11:28:41,0.0
-1052,-3140,-17176,834,2932,5216,2025-02-17 11:28:41,0.0
-1648,-4060,-17484,-2624,-1708,6816,2025-02-17 11:28:41,0.0
-1960,-3284,-15956,-5481,-9100,10911,2025-02-17 11:28:41,0.0
1636,-3012,-14800,-5814,-16831,10836,2025-02-17 11:28:41,0.0
1080,-2052,-14908,-4533,-21209,7580,2025-02-17 11:28:41,0.0
-476,-1508,-15136,-3378,-22239,4159,2025-02-17 11:28:41,0.0
-2908,-900,-15780,-2611,-21067,1698,2025-02-17 11:28:41,0.0
-5696,40,-15384,-2879,-18112,1323,2025-02-17 11:28:41,0.0
-5560,1240,-13216,-2926,-14178,1972,2025-02-17 11:28:41,0.0
-4308,1656,-9900,-786,-9475,566,2025-02-17 11:28:41,0.0
-3900,2644,-9620,898,-5742,-818,2025-02-17 11:28:41,0.0
-4112,1928,-9316,1340,-2787,-1622,2025-02-17 11:28:41,0.0
-4912,924,-8824,948,-69,-1631,2025-02-17 11:28:41,
-4660,-260,-7592,277,2478,-1257,2025-02-17 11:28:41,0.0
-4612,-648,-7104,-198,4225,-975,2025-02-17 11:28:41,0.0
-4396,196,-6700,-226,5415,-907,2025-02-17 11:28:42,0.0
-4896,1484,-6452,492,6082,0,2025-02-17 11:28:42,0.0
-4764,2020,-6908,1099,5804,1491,2025-02-17 11:28:42,0.0
-3416,1872,-7484,569,5349,2051,2025-02-17 11:28:42,0.0
-2976,856,-6972,441,4624,1212,2025-02-17 11:28:42,0.0
-3608,184,-6496,630,3562,1190,2025-02-17 11:28:42,0.0
-3532,-1208,-6336,1097,2059,1812,2025-02-17 11:28:42,0.0
-3216,-1952,-6412,1659,-175,2594,2025-02-17 11:28:42,0.0
-1512,-3304,-6984,2795,-4219,2499,2025-02-17 11:28:42,0.0
-1616,-2564,-9040,2987,-9072,1357,2025-02-17 11:28:42,0.0
-3052,-1228,-9860,1445,-11909,1049,2025-02-17 11:28:42,0.0
-3220,-744,-9452,-30,-12719,206,2025-02-17 11:28:42,0.0
-3776,-976,-8452,-476,-11817,-1582,2025-02-17 11:28:42,0.0
-4904,-1224,-7864,-505,-9803,-3335,2025-02-17 11:28:42,0.0
-7120,-1452,-8376,-1047,-6484,-3716,2025-02-17 11:28:42,0.0
-8556,-1396,-8904,-2068,-2386,-2801,2025-02-17 11:28:42,0.0
-8448,-1296,-9508,-3496,1733,-1498,2025-02-17 11:28:42,0.0
-7176,-680,-9956,-4622,3879,-729,2025-02-17 11:28:42,0.0
-5848,52,-9604,-5012,4008,-553,2025-02-17 11:28:42,0.0
-4776,1140,-8664,-3310,1743,-459,2025-02-17 11:28:42,0.0
-3492,1492,-8944,-935,-2537,-181,2025-02-17 11:28:42,0.0
-2956,1016,-10032,246,-8089,-127,2025-02-17 11:28:42,0.0
-3676,568,-10740,-37,-13011,121,2025-02-17 11:28:42,0.0
-5008,-88,-10180,-742,-15948,761,2025-02-17 11:28:42,0.0
-5632,-380,-9264,-1237,-17039,1357,2025-02-17 11:28:42,0.0
-6192,16,-8508,-1115,-17391,1596,2025-02-17 11:28:42,0.0
-7692,1256,-7732,-77,-16388,1696,2025-02-17 11:28:42,0.0
-8196,1064,-7484,1627,-14553,2018,2025-02-17 11:28:42,0.0
-8988,84,-9764,1673,-11205,1591,2025-02-17 11:28:42,0.0
-9048,-1200,-10964,-40,-7531,778,2025-02-17 11:28:42,0.0
-9976,-1920,-10968,-2446,-3932,-174,2025-02-17 11:28:42,0.0
-31204,156,5636,-5890,-3246,-593,2025-02-17 11:28:42,0.0
-17848,2580,1092,-4130,-4733,-47,2025-02-17 11:28:42,0.0
-9080,560,-10428,-2421,-2694,-924,2025-02-17 11:28:42,0.0
-7736,1060,-13504,-3575,-7204,-1475,2025-02-17 11:28:42,0.0
-8644,2264,-12660,-5879,-13937,-2070,2025-02-17 11:28:42,0.0
-9380,2988,-9720,-7812,-23188,-2907,2025-02-17 11:28:42,0.0
-9584,2504,-7612,-7761,-30355,-3961,2025-02-17 11:28:42,0.0
-10676,2956,-4920,-7297,-32768,-4837,2025-02-17 11:28:42,0.0
-11752,2472,-3728,-5170,-32768,-4996,2025-02-17 11:28:42,0.0
-13792,2356,-3796,-4423,-32768,-4796,2025-02-17 11:28:42,0.0
-15044,2620,-2876,-5991,-32768,-2580,2025-02-17 11:28:42,0.0
-13804,2504,-1448,-7059,-30812,-8,2025-02-17 11:28:42,0.0
-13036,1460,-536,-8374,-16498,339,2025-02-17 11:28:42,0.0
-9384,2720,-1816,-10729,-1828,-616,2025-02-17 11:28:42,0.0
-9808,1952,-1780,-12577,5494,-2,2025-02-17 11:28:42,0.0
-13472,1536,-1036,-14632,10510,2266,2025-02-17 11:28:42,0.0
-13596,120,420,-13986,14134,5062,2025-02-17 11:28:42,0.0
-13240,412,-1908,-14718,13746,7693,2025-02-17 11:28:42,0.0
-10456,2032,-1368,-16699,19308,2995,2025-02-17 11:28:42,0.0
-10044,2248,-2712,-16402,24202,-5215,2025-02-17 11:28:42,0.0
-14280,2348,-4804,-16789,20955,-7036,2025-02-17 11:28:42,0.0
-15800,1040,-4332,-17109,16861,-5894,2025-02-17 11:28:42,0.0
-13712,936,-3712,-15691,11653,-6192,2025-02-17 11:28:42,0.0
-12152,2260,-4604,-15302,7639,-7689,2025-02-17 11:28:42,0.0
-11736,3276,-4940,-15975,4729,-9319,2025-02-17 11:28:42,0.0
-11204,3208,-5416,-17122,3464,-10656,2025-02-17 11:28:42,0.0
-12592,2092,-5484,-17348,4903,-11819,2025-02-17 11:28:42,0.0
-14496,308,-6992,-18076,6854,-11482,2025-02-17 11:28:42,0.0
-16408,-1112,-5236,-18040,6359,-7643,2025-02-17 11:28:43,0.0
-13912,-904,-4912,-16453,3487,-6395,2025-02-17 11:28:43,0.0
-13072,-444,-6172,-15178,-136,-6863,2025-02-17 11:28:43,0.0
-13332,-200,-6020,-15126,-4217,-7795,2025-02-17 11:28:43,0.0
-14500,-328,-4364,-14880,-5928,-6966,2025-02-17 11:28:43,0.0
-12524,-352,-3976,-14318,-5109,-6203,2025-02-17 11:28:43,0.0
-12192,224,-5324,-14187,-3761,-5738,2025-02-17 11:28:43,0.0
-11900,-288,-4888,-14088,-2469,-4801,2025-02-17 11:28:43,0.0
-11992,-324,-4176,-13376,-1619,-4431,2025-02-17 11:28:43,0.0
-12572,36,-3340,-12474,-1687,-3953,2025-02-17 11:28:43,0.0
-13188,-144,-2900,-11930,-2034,-3430,2025-02-17 11:28:43,0.0
-13136,-232,-2304,-10886,-2475,-3269,2025-02-17 11:28:43,0.0
-12576,-312,-1696,-8971,-3553,-3751,2025-02-17 11:28:43,0.0
-13372,72,-3148,-7790,-4957,-3973,2025-02-17 11:28:43,0.0
-13804,672,-4512,-8861,-6155,-3725,2025-02-17 11:28:43,0.0
-13584,1008,-3760,-10435,-5783,-3286,2025-02-17 11:28:43,0.0
-12976,408,-2224,-10762,-4262,-3377,2025-02-17 11:28:43,0.0
-12748,132,-2172,-10062,-3793,-3235,2025-02-17 11:28:43,0.0
-12644,-4,-2192,-9800,-4094,-3353,2025-02-17 11:28:43,0.0
-12468,-180,-1784,-9891,-4185,-3531,2025-02-17 11:28:43,0.0
-12584,-432,-1472,-9334,-4223,-3651,2025-02-17 11:28:43,0.0
-12560,-452,-652,-8236,-3731,-3735,2025-02-17 11:28:43,0.0
-13192,-372,-488,-6902,-2758,-3833,2025-02-17 11:28:43,0.0
-14488,-44,-1024,-6190,-2103,-3345,2025-02-17 11:28:43,0.0
-14828,40,-968,-6407,-2250,-2716,2025-02-17 11:28:43,0.0
-14008,-576,-1140,-6655,-3185,-2271,2025-02-17 11:28:43,0.0
-14136,-800,-1132,-6481,-3880,-1938,2025-02-17 11:28:43,0.0
-14952,-1092,-860,-7364,-2172,-610,2025-02-17 11:28:43,0.0
-13364,-1976,428,-5812,-911,-626,2025-02-17 11:28:43,0.0
-14544,-1352,-1272,-6395,-708,459,2025-02-17 11:28:43,0.0
-13528,-924,632,-6813,-658,1426,2025-02-17 11:28:43,0.0
-13388,-1104,2168,-5904,313,1610,2025-02-17 11:28:43,0.0
-12352,-1216,1652,-4266,2271,1175,2025-02-17 11:28:43,0.0
-12396,-908,1140,-2989,3804,382,2025-02-17 11:28:43,0.0
-13356,-540,1760,-969,4383,125,2025-02-17 11:28:43,0.0
-14020,368,696,-39,3836,581,2025-02-17 11:28:43,0.0
-12984,328,576,599,3239,-106,2025-02-17 11:28:43,0.0
-13672,196,-300,354,2952,-1226,2025-02-17 11:28:43,0.0
-15056,552,464,-375,3296,-950,2025-02-17 11:28:43,
-14548,1272,-28,-2971,5304,-800,2025-02-17 11:28:43,0.0
-13520,1184,1196,-2113,5710,-908,2025-02-17 11:28:43,0.0
-14664,232,436,-350,4227,-759,2025-02-17 11:28:43,0.0
-14096,1696,356,1441,1744,-341,2025-02-17 11:28:43,0.0
-13872,1864,-536,76,1411,-587,2025-02-17 11:28:43,0.0
-14628,1680,244,-653,2014,-134,2025-02-17 11:28:43,0.0
-13692,1620,148,-363,1712,144,2025-02-17 11:28:43,0.0
-12776,2040,-88,385,1202,-1419,2025-02-17 11:28:43,0.0
-15336,2356,-352,688,119,-1796,2025-02-17 11:28:43,0.0
-15584,2712,-728,419,-536,-1785,2025-02-17 11:28:43,0.0
-16192,2284,-740,143,-1060,-1912,2025-02-17 11:28:43,0.0
-16000,1748,-656,-40,-1646,-1861,2025-02-17 11:28:43,0.0
-15548,1320,-1936,30,-1518,-1870,2025-02-17 11:28:43,0.0
-14548,472,-3108,-84,-1634,-2065,2025-02-17 11:28:43,0.0
-13404,-408,-2796,657,-2841,-2212,2025-02-17 11:28:43,0.0
-13164,-1192,-3540,895,-2930,-2614,2025-02-17 11:28:43,0.0
-11496,-2388,-1488,1575,-2980,-2660,2025-02-17 11:28:43,0.0
-10624,-3316,-540,2684,-2548,-3497,2025-02-17 11:28:43,0.0
-9908,-2924,640,3985,-1621,-4761,2025-02-17 11:28:43,0.0
-10132,-2140,-272,5066,-687,-6114,2025-02-17 11:28:43,0.0
-11872,-1044,-2052,4286,1240,-6234,2025-02-17 11:28:43,0.0
-13308,-536,-3028,1388,5492,-5258,2025-02-17 11:28:43,0.0
-12784,-1480,-2264,-605,7493,-5787,2025-02-17 11:28:43,0.0
-14072,-2240,-2152,-1454,6286,-6841,2025-02-17 11:28:44,0.0
-15996,-2724,-2704,-1621,3937,-6213,2025-02-17 11:28:44,0.0
-16188,-2620,-1028,-1097,550,-4471,2025-02-17 11:28:44,0.0
-15116,-2832,-980,-616,-2410,-2680,2025-02-17 11:28:44,0.0
-13312,-3020,148,-283,-4281,-2022,2025-02-17 11:28:44,0.0
-12208,-4080,-964,12,-5684,-2063,2025-02-17 11:28:44,0.0
-11568,-4108,-752,-303,-5124,-2161,2025-02-17 11:28:44,0.0
-11188,-4244,-344,20,-3653,-2215,2025-02-17 11:28:44,0.0
-10972,-3908,-96,251,-1362,-1868,2025-02-17 11:28:44,0.0
-10884,-3508,56,1061,712,-1871,2025-02-17 11:28:44,0.0
-11780,-2136,-1320,-140,2301,-1639,2025-02-17 11:28:44,0.0
-11976,-2224,1436,-1608,3798,-2989,2025-02-17 11:28:44,0.0
-13432,-2288,-2064,-3302,4511,-2994,2025-02-17 11:28:44,0.0
-13688,-3148,-952,-4144,4828,-2603,2025-02-17 11:28:44,0.0
-13808,-3132,396,-3609,3717,-1260,2025-02-17 11:28:44,0.0
-14208,-2532,744,-3269,2616,411,2025-02-17 11:28:44,0.0
-14024,-2892,532,-2734,923,2101,2025-02-17 11:28:44,0.0
-12240,-3904,660,-1185,-551,2056,2025-02-17 11:28:44,0.0
-12276,-3888,0,-481,-858,1395,2025-02-17 11:28:44,0.0
-12928,-3432,-4,-227,-648,1422,2025-02-17 11:28:44,0.0
-13308,-2808,-708,-431,-5,1252,2025-02-17 11:28:44,0.0
-13600,-1260,-1532,-1270,834,760,2025-02-17 11:28:44,0.0
-14352,-1776,-1008,-2199,1936,400,2025-02-17 11:28:44,0.0
-14760,-3556,-824,-2354,2913,17,2025-02-17 11:28:44,0.0
-15220,-4396,-844,-2593,2805,-758,2025-02-17 11:28:44,0.0
-17248,-2756,32,-3315,1867,-1047,2025-02-17 11:28:44,0.0
-17308,-2048,820,-3889,545,-1590,2025-02-17 11:28:44,0.0
-17352,-3240,172,-4511,-1091,-2203,2025-02-17 11:28:44,0.0
-16480,-5300,-2156,-4765,-1410,-3013,2025-02-17 11:28:44,0.0
-17076,-6384,-2672,-4217,-1036,-3089,2025-02-17 11:28:44,0.0
-17772,-6452,-3296,-4074,39,-2687,2025-02-17 11:28:44,0.0
-17748,-6428,-3620,-4152,764,-2707,2025-02-17 11:28:44,0.0
-17096,-5824,-4664,-3678,582,-3118,2025-02-17 11:28:44,0.0
-17164,-4424,-4848,-2558,-1992,-2023,2025-02-17 11:28:44,0.0
-15180,-4684,-2348,-445,-6126,-99,2025-02-17 11:28:44,0.0
-11580,-4400,-3088,2167,-10355,1212,2025-02-17 11:28:44,0.0
-10124,-3772,-5772,3205,-10807,1873,2025-02-17 11:28:44,0.0
-9928,-2252,-5884,2753,-6620,2620,2025-02-17 11:28:44,0.0
-10788,160,-3968,2841,-147,3268,2025-02-17 11:28:44,0.0
-11260,1164,-5124,1739,3847,3036,2025-02-17 11:28:44,0.0
-12376,728,-4360,1153,4283,1885,2025-02-17 11:28:44,0.0
-13840,-500,-4636,1001,3188,1109,2025-02-17 11:28:44,0.0
-14604,-2140,-3724,1541,1450,972,2025-02-17 11:28:44,0.0
-14556,-2816,-3684,2114,755,1875,2025-02-17 11:28:44,0.0
-12916,-2716,-3284,2091,550,2356,2025-02-17 11:28:44,0.0
-12824,-2752,-2560,1396,-236,2471,2025-02-17 11:28:44,0.0
-12580,-2196,-1400,1256,-1081,2460,2025-02-17 11:28:44,0.0
-12296,-1904,-1384,1056,-1709,2346,2025-02-17 11:28:44,0.0
-12852,-1428,-640,1301,-2468,2541,2025-02-17 11:28:44,0.0
-13508,-1356,-536,2284,-2818,3397,2025-02-17 11:28:44,0.0
-12424,-1472,340,3488,-3930,3833,2025-02-17 11:28:44,0.0
-9980,836,448,4072,-4084,3034,2025-02-17 11:28:44,0.0
-12584,876,-272,3575,-2612,1746,2025-02-17 11:28:44,0.0
-9096,-56,-1480,3321,276,1119,2025-02-17 11:28:44,0.0
-9528,-204,-1360,3106,3415,997,2025-02-17 11:28:44,0.0
-10508,-700,-2340,2822,5283,577,2025-02-17 11:28:44,0.0
-11996,-828,-1360,2187,5586,378,2025-02-17 11:28:44,0.0
-13072,-712,-1240,1564,4747,-51,2025-02-17 11:28:44,0.0
-13600,-1244,-480,1191,3334,-305,2025-02-17 11:28:44,0.0
-14740,-840,476,1285,1290,-230,2025-02-17 11:28:44,0.0
-14840,-560,224,1360,-69,73,2025-02-17 11:28:44,0.0
-14636,-236,568,1257,-1172,459,2025-02-17 11:28:44,0.0
-14244,-588,912,1853,-2549,762,2025-02-17 11:28:44,0.0
-14028,-420,384,2163,-3798,1157,2025-02-17 11:28:44,0.0
-13164,-420,-196,1878,-4533,1192,2025-02-17 11:28:45,0.0
-13596,-240,-696,1316,-4061,1816,2025-02-17 11:28:45,0.0
-13020,-1088,236,2135,-3695,2457,2025-02-17 11:28:45,0.0
-13140,-1376,44,2584,-2798,3073,2025-02-17 11:28:45,0.0
-12728,-608,-652,2687,-1505,3532,2025-02-17 11:28:45,0.0
-12248,304,-800,2317,323,3273,2025-02-17 11:28:45,0.0
-12612,948,-188,2164,2459,2166,2025-02-17 11:28:45,0.0
-13712,1020,248,2278,3853,1127,2025-02-17 11:28:45,0.0
-16096,1392,320,2558,3955,734,2025-02-17 11:28:45,0.0
-18164,1816,-876,2719,3418,1427,2025-02-17 11:28:45,0.0
-17740,1968,-3172,2558,1706,1776,2025-02-17 11:28:45,0.0
-17900,2460,-3848,2312,-32,1431,2025-02-17 11:28:45,0.0
-18320,2332,-3928,1904,-444,1288,2025-02-17 11:28:45,
-18252,2224,-4580,1183,398,1484,2025-02-17 11:28:45,0.0
-16980,2140,-4532,755,953,1604,2025-02-17 11:28:45,0.0
-15228,916,-4960,50,-827,1131,2025-02-17 11:28:45,0.0
-13692,432,-3268,-1004,-3210,360,2025-02-17 11:28:45,0.0
-11636,-1244,-3596,-1336,-5925,-349,2025-02-17 11:28:45,0.0
-10588,-2808,-4064,-1651,-7053,-792,2025-02-17 11:28:45,0.0
-10264,-3296,-5656,-2436,-5950,-1205,2025-02-17 11:28:45,0.0
-11160,-3120,-4716,-3280,-1939,-1584,2025-02-17 11:28:45,0.0
-12136,-2612,-3508,-2913,2681,-2262,2025-02-17 11:28:45,0.0
-13648,-1604,-4320,-3419,4746,-2666,2025-02-17 11:28:45,0.0
-14304,-1308,-3436,-3664,3320,-3392,2025-02-17 11:28:45,0.0
-15132,-1524,-3520,-3441,643,-3365,2025-02-17 11:28:45,0.0
-14608,-1768,-3192,-3203,-859,-2633,2025-02-17 11:28:45,0.0
-12540,-1260,-2804,-2901,-1664,-2445,2025-02-17 11:28:45,0.0
-11644,-1060,-2972,-2319,-2404,-2640,2025-02-17 11:28:45,0.0
-11300,-792,-3204,-2404,-2318,-2473,2025-02-17 11:28:45,0.0
-11572,-1360,-3144,-2960,-1368,-2056,2025-02-17 11:28:45,0.0
-12116,-2888,-2888,-3436,-719,-1412,2025-02-17 11:28:45,0.0
-12696,-3980,-2512,-3481,-409,-416,2025-02-17 11:28:45,0.0
-12496,-4108,-1220,-3160,-269,563,2025-02-17 11:28:45,0.0
-11364,-3892,-1144,-2470,-160,226,2025-02-17 11:28:45,0.0
-12564,-2944,-2416,-2595,1204,148,2025-02-17 11:28:45,0.0
-13396,-1820,-2936,-3206,3305,818,2025-02-17 11:28:45,0.0
-13828,-1240,-2696,-4099,5119,1832,2025-02-17 11:28:45,0.0
-12944,-820,-940,-4129,5192,1854,2025-02-17 11:28:45,0.0
-13044,-752,-412,-3534,3962,1004,2025-02-17 11:28:45,0.0
-13244,-592,-480,-2912,1990,299,2025-02-17 11:28:45,0.0
-13728,-1788,-592,-2145,-560,-229,2025-02-17 11:28:45,0.0
-13456,-3072,-544,-1357,-2458,295,2025-02-17 11:28:45,0.0
-12268,-2812,-848,-532,-4034,750,2025-02-17 11:28:45,0.0
-11760,-1692,-508,-203,-4018,827,2025-02-17 11:28:45,0.0
-11552,-1168,-104,264,-3063,823,2025-02-17 11:28:45,0.0
-12000,-1456,-152,1103,-838,1125,2025-02-17 11:28:45,0.0
-11364,-2016,-620,1990,1003,1658,2025-02-17 11:28:45,0.0
-12252,-2192,-1220,2629,3048,1325,2025-02-17 11:28:45,0.0
-13808,-1500,-2764,3349,5145,281,2025-02-17 11:28:45,0.0
-15396,-996,-3540,4384,7096,-812,2025-02-17 11:28:45,0.0
-15848,-1616,-3564,4958,7772,-1964,2025-02-17 11:28:45,0.0
-16040,-2800,-2644,5469,6182,-2399,2025-02-17 11:28:45,0.0
-16116,-3804,-1916,6210,1959,-1280,2025-02-17 11:28:45,0.0
-15360,-4028,-2000,6813,-2832,607,2025-02-17 11:28:45,0.0
-14228,-3072,-1208,7510,-4520,2248,2025-02-17 11:28:45,0.0
-12756,-2956,-1336,8571,-3806,2892,2025-02-17 11:28:45,0.0
-12636,-2708,-1256,9286,-179,3362,2025-02-17 11:28:45,0.0
-13076,-2048,-28,9883,1240,3507,2025-02-17 11:28:45,0.0
-14072,-1992,648,11142,1846,4262,2025-02-17 11:28:45,0.0
-15632,-2620,64,12685,3342,5682,2025-02-17 11:28:45,0.0
-16404,-3120,-1940,13786,5764,7669,2025-02-17 11:28:45,0.0
-14952,-2956,-3852,13737,7701,9074,2025-02-17 11:28:46,0.0
-12740,-2456,-4924,12703,7217,8470,2025-02-17 11:28:46,0.0
-10396,-1720,-4568,11592,3491,6144,2025-02-17 11:28:46,0.0
-9644,-2036,-4432,10891,-2099,3292,2025-02-17 11:28:46,0.0
-11904,-2012,-4008,10235,-3911,1526,2025-02-17 11:28:46,0.0
-12544,-1236,-3776,9152,-2622,1421,2025-02-17 11:28:46,0.0
-12096,-500,-3076,8447,-910,1238,2025-02-17 11:28:46,0.0
-12908,96,-3080,8454,-13,1503,2025-02-17 11:28:46,0.0
-13316,380,-3520,8977,1081,2188,2025-02-17 11:28:46,0.0
-13436,524,-4008,9499,2297,2887,2025-02-17 11:28:46,0.0
-13000,220,-4264,9890,2999,3208,2025-02-17 11:28:46,0.0
-12920,328,-2964,10572,3459,3364,2025-02-17 11:28:46,0.0
-12784,260,-1652,11863,3324,3451,2025-02-17 11:28:46,0.0
-12768,32,-1040,13590,2497,3336,2025-02-17 11:28:46,0.0
-13196,-144,-1752,14993,2347,3334,2025-02-17 11:28:46,0.0
-13748,-432,-2364,16357,2873,3561,2025-02-17 11:28:46,0.0
-14520,-804,-3452,17096,3918,4121,2025-02-17 11:28:46,0.0
-14772,-1120,-4112,17372,4567,5051,2025-02-17 11:28:46,0.0
-14508,-1656,-4616,17725,4289,5619,2025-02-17 11:28:46,0.0
-14512,-1544,-5260,18068,3109,6246,2025-02-17 11:28:46,0.0
-14356,-948,-5248,18261,875,7040,2025-02-17 11:28:46,0.0
-13968,-1028,-4704,19047,-1364,7768,2025-02-17 11:28:46,0.0
-13596,-892,-4356,20598,-3702,8363,2025-02-17 11:28:46,0.0
-12920,-396,-5400,22098,-6262,9313,2025-02-17 11:28:46,0.0
-11596,112,-5564,22757,-8200,9221,2025-02-17 11:28:46,0.0
-10660,552,-6160,23329,-9374,7961,2025-02-17 11:28:46,0.0
-10776,1176,-5704,23907,-9447,6510,2025-02-17 11:28:46,0.0
-10608,1460,-5340,24498,-7635,5137,2025-02-17 11:28:46,0.0
-11220,1240,-5064,24140,-3337,3381,2025-02-17 11:28:46,0.0
-11864,784,-4732,23449,-281,2977,2025-02-17 11:28:46,0.0
-12392,-20,-4376,22601,988,2839,2025-02-17 11:28:46,0.0
-13300,640,-2768,22684,597,3243,2025-02-17 11:28:46,0.0
-13804,1472,-4052,23097,-656,4058,2025-02-17 11:28:46,0.0
-14040,1272,-4260,23538,-1726,5087,2025-02-17 11:28:46,0.0
-12660,60,-6048,23911,-3202,5532,2025-02-17 11:28:46,0.0
-12112,72,-6208,23858,-3437,5860,2025-02-17 11:28:46,0.0
-10812,1332,-5420,23755,-1784,5538,2025-02-17 11:28:46,0.0
-9700,2416,-4308,23127,-447,4399,2025-02-17 11:28:46,0.0
-10868,2364,-2964,23176,381,3598,2025-02-17 11:28:46,0.0
-12500,1484,-4124,24047,836,3516,2025-02-17 11:28:46,0.0
-12632,1220,-6284,24074,1515,3753,2025-02-17 11:28:46,0.0
-13132,1628,-6376,22992,3889,3897,2025-02-17 11:28:46,0.0
-13252,848,-5312,21443,6496,4278,2025-02-17 11:28:46,0.0
-12864,-1092,-3748,20118,8387,3291,2025-02-17 11:28:46,0.0
-13936,-2620,-2496,19104,7324,2375,2025-02-17 11:28:46,0.0
-15016,-3344,-2272,18782,2916,2122,2025-02-17 11:28:46,0.0
-15796,-3096,-3604,18525,-1250,2682,2025-02-17 11:28:46,0.0
-16300,-2436,-5560,17635,-3483,3786,2025-02-17 11:28:46,0.0
-15168,-1136,-3716,16510,-3984,4363,2025-02-17 11:28:46,0.0
-14560,-640,-1380,16523,-2906,4111,2025-02-17 11:28:46,0.0
-14316,-696,-1532,16650,-1795,4194,2025-02-17 11:28:46,0.0
-13912,-560,-1808,16070,-2948,4541,2025-02-17 11:28:46,
-13056,-492,-1780,15478,-4083,4764,2025-02-17 11:28:46,0.0
-12184,-588,-2160,14764,-4081,4408,2025-02-17 11:28:46,0.0
-11968,-1284,-2596,14156,-3450,4106,2025-02-17 11:28:46,0.0
-11572,-2012,-1780,14462,-2847,3791,2025-02-17 11:28:46,0.0
-11984,-1940,-1932,14439,-2114,3824,2025-02-17 11:28:46,0.0
-12044,-1472,-1644,14354,-1181,4013,2025-02-17 11:28:46,0.0
-12476,-448,-1940,13411,-327,4268,2025-02-17 11:28:46,0.0
-12384,-268,-2468,12211,215,4261,2025-02-17 11:28:46,0.0
-12392,-500,-2532,11904,725,3866,2025-02-17 11:28:46,0.0
-12948,-968,-2752,12073,2030,3785,2025-02-17 11:28:47,0.0
-12964,-1332,-3928,12111,3268,4055,2025-02-17 11:28:47,0.0
-13204,-2076,-4400,11385,4401,4249,2025-02-17 11:28:47,0.0
-13276,-2684,-3960,10506,4708,4541,2025-02-17 11:28:47,0.0
-12868,-3196,-4120,10846,3785,4289,2025-02-17 11:28:47,0.0
-13616,-3224,-5148,11543,2850,4095,2025-02-17 11:28:47,0.0
-14388,-1216,-4076,12089,2599,4501,2025-02-17 11:28:47,0.0
-14068,812,-4844,12136,3113,4511,2025-02-17 11:28:47,0.0
-13480,1592,-5920,11575,4292,3796,2025-02-17 11:28:47,0.0
-13036,2180,-6616,11067,3954,3373,2025-02-17 11:28:47,0.0
-12304,2444,-5212,10695,1968,3241,2025-02-17 11:28:47,0.0
-12200,2692,-3612,10699,77,3165,2025-02-17 11:28:47,0.0
-12628,2320,-3340,10869,-1512,3496,2025-02-17 11:28:47,0.0
-12432,1376,-3460,10819,-2430,3817,2025-02-17 11:28:47,0.0
-11824,404,-3008,10950,-3240,3358,2025-02-17 11:28:47,0.0
-12164,208,-3388,11096,-3291,2526,2025-02-17 11:28:47,0.0
-12808,436,-4436,10654,-2784,2067,2025-02-17 11:28:47,0.0
-13204,1244,-4856,9439,-1724,1861,2025-02-17 11:28:47,0.0
-13652,2064,-4036,8047,-532,1694,2025-02-17 11:28:47,0.0
-13864,2684,-2500,7554,-167,1491,2025-02-17 11:28:47,0.0
-13672,2952,-5256,6806,-633,1365,2025-02-17 11:28:47,0.0
-11776,3448,-5976,4150,-2566,230,2025-02-17 11:28:47,0.0
-11676,3060,-5168,2078,-3656,-1369,2025-02-17 11:28:47,0.0
-12556,2112,-2224,1291,-2365,-2175,2025-02-17 11:28:47,0.0
-14280,1128,1088,2532,135,-1207,2025-02-17 11:28:47,0.0
-14008,916,656,5089,847,521,2025-02-17 11:28:47,0.0
-13492,1320,-1404,6068,-568,577,2025-02-17 11:28:47,0.0
-13940,2444,-3780,5140,-2238,615,2025-02-17 11:28:47,0.0
-12232,2112,-2072,4759,-2889,346,2025-02-17 11:28:47,0.0
-12224,1976,-3608,4361,-2171,276,2025-02-17 11:28:47,0.0
-11992,1664,-2652,3662,-168,214,2025-02-17 11:28:47,0.0
-12444,980,-2136,3604,1901,216,2025-02-17 11:28:47,0.0
-13156,1360,-2072,3608,2821,-37,2025-02-17 11:28:47,0.0
-13564,1908,-3032,2940,2488,-385,2025-02-17 11:28:47,0.0
-13744,1844,-3124,1978,1055,-1199,2025-02-17 11:28:47,0.0
-14012,1832,-2864,1208,137,-1367,2025-02-17 11:28:47,0.0
-13732,1660,-2864,481,-132,-1600,2025-02-17 11:28:47,0.0
-13428,972,-3008,-118,-412,-2127,2025-02-17 11:28:47,0.0
-13440,324,-2120,-273,-399,-2498,2025-02-17 11:28:47,0.0
-12988,-216,-1664,88,-297,-2863,2025-02-17 11:28:47,0.0
-13312,-140,-2976,-116,-207,-2775,2025-02-17 11:28:47,0.0
-13384,-380,-2776,-364,-186,-2247,2025-02-17 11:28:47,0.0
-13608,-504,-3272,-394,249,-1226,2025-02-17 11:28:47,0.0
-13284,8,-3920,-544,-31,-189,2025-02-17 11:28:47,0.0
-12872,-820,-4024,-983,-1226,574,2025-02-17 11:28:47,0.0
-14620,-1672,-1720,-2033,-898,939,2025-02-17 11:28:47,0.0
-14944,-228,-1596,-2434,262,-302,2025-02-17 11:28:47,0.0
-14776,1540,-860,-3380,-313,-2015,2025-02-17 11:28:47,0.0
-14780,1800,332,-4074,-1598,-3208,2025-02-17 11:28:47,0.0
-12800,4,920,-4054,-2783,-4260,2025-02-17 11:28:47,0.0
-11624,-2864,1304,-3376,-3085,-5535,2025-02-17 11:28:47,0.0
-11564,-3868,620,-2912,-2846,-5601,2025-02-17 11:28:47,0.0
-12636,-4052,-28,-2432,-1324,-4649,2025-02-17 11:28:47,0.0
-13768,-3420,288,-2279,281,-2850,2025-02-17 11:28:47,0.0
-13152,-1932,448,-2145,733,-1552,2025-02-17 11:28:47,0.0
-13260,-388,164,-2198,-398,-1256,2025-02-17 11:28:47,0.0
-13244,1068,356,-2369,-2315,-613,2025-02-17 11:28:47,0.0
-11692,732,392,-2773,-2882,-835,2025-02-17 11:28:48,0.0
-11444,-280,20,-3455,-1450,-1461,2025-02-17 11:28:48,0.0
-11916,-1384,516,-3755,1163,-1571,2025-02-17 11:28:48,0.0
-12220,-2144,380,-3710,3259,-1444,2025-02-17 11:28:48,0.0
-12740,-1648,868,-3705,3669,-1495,2025-02-17 11:28:48,0.0
-13508,-1196,992,-3824,3344,-1862,2025-02-17 11:28:48,0.0
-14300,-884,1172,-4032,2807,-1917,2025-02-17 11:28:48,0.0
-14624,-972,1972,-3751,1484,-1392,2025-02-17 11:28:48,0.0
-15184,-1392,2072,-3229,423,-496,2025-02-17 11:28:48,0.0
-13784,-1228,1708,-2182,-1247,-148,2025-02-17 11:28:48,0.0
-12988,-400,-156,-2988,-2304,-556,2025-02-17 11:28:48,0.0
-12788,-1104,-336,-4491,-1383,-1156,2025-02-17 11:28:48,0.0
-12996,-1880,488,-5820,572,-1949,2025-02-17 11:28:48,0.0
-13672,-2796,2052,-6374,2711,-2161,2025-02-17 11:28:48,0.0
-14676,-3736,3056,-6060,3011,-2265,2025-02-17 11:28:48,0.0
-14908,-5564,1808,-5175,2787,-2626,2025-02-17 11:28:48,0.0
-16848,-5448,-456,-4294,3013,-3101,2025-02-17 11:28:48,0.0
-18916,-5976,-1452,-2691,5752,-3793,2025-02-17 11:28:48,0.0
-19960,-6540,-2136,-892,7111,-4227,2025-02-17 11:28:48,0.0
-20600,-6972,-6172,535,5910,-4365,2025-02-17 11:28:48,0.0
-20808,-6268,-5856,878,2103,-3094,2025-02-17 11:28:48,0.0
-20276,-4908,-5840,1437,-1274,-1333,2025-02-17 11:28:48,0.0
-18720,-4200,-5768,1253,-5743,1114,2025-02-17 11:28:48,0.0
-16072,-3940,-5232,1367,-9525,3086,2025-02-17 11:28:48,0.0
-13460,-3452,-5432,1820,-11602,4503,2025-02-17 11:28:48,0.0
-10236,-2160,-5776,2497,-11728,5666,2025-02-17 11:28:48,0.0
-8628,-1116,-3380,3509,-9266,6247,2025-02-17 11:28:48,0.0
-7384,-200,-2196,4799,-6144,5790,2025-02-17 11:28:48,0.0
-7724,1020,-2344,5281,-3301,4739,2025-02-17 11:28:48,0.0
-8608,960,-2780,4877,-764,3721,2025-02-17 11:28:48,0.0
-10660,-512,-3316,4634,1957,3032,2025-02-17 11:28:48,0.0
-12596,-2116,-3012,5017,5290,3866,2025-02-17 11:28:48,0.0
-12948,-2568,-3648,4802,7620,4035,2025-02-17 11:28:48,0.0
-13376,-2012,-3308,4433,8256,3734,2025-02-17 11:28:48,
-13732,-1080,-3672,4141,8056,3329,2025-02-17 11:28:48,0.0
-13480,-336,-4428,3447,6476,2961,2025-02-17 11:28:48,0.0
-13784,436,-3396,3291,3503,2672,2025-02-17 11:28:48,0.0
-14316,752,-3088,3475,318,3148,2025-02-17 11:28:48,0.0
-13080,1012,-2348,4060,-1311,3676,2025-02-17 11:28:48,0.0
-11972,1132,-2000,4722,-2251,3643,2025-02-17 11:28:48,0.0
-10656,944,-1284,5535,-2920,3022,2025-02-17 11:28:48,0.0
-10292,820,-980,6272,-2369,2273,2025-02-17 11:28:48,0.0
-10576,700,-1728,6618,-586,2073,2025-02-17 11:28:48,0.0
-10504,860,-1724,6350,1027,1590,2025-02-17 11:28:48,0.0
-10568,1112,-1120,6128,1424,1087,2025-02-17 11:28:48,0.0
-10620,1300,-936,6202,1221,477,2025-02-17 11:28:48,0.0
-10744,1368,-1056,6248,1172,-153,2025-02-17 11:28:48,0.0
-11516,1352,-1152,5864,913,-668,2025-02-17 11:28:48,0.0
-12336,1072,-1480,5451,1304,-915,2025-02-17 11:28:48,0.0
-12284,1556,-2296,3795,1811,-1123,2025-02-17 11:28:48,0.0
-12684,2288,-1524,2440,2086,-1623,2025-02-17 11:28:48,0.0
-12684,1960,-2752,1668,1922,-1468,2025-02-17 11:28:48,0.0
-13284,1392,-1156,1096,1585,-1276,2025-02-17 11:28:48,0.0
-13312,216,-216,854,1311,-1136,2025-02-17 11:28:48,0.0
-14464,-984,884,1627,2285,-108,2025-02-17 11:28:48,0.0
-14700,-736,-1556,2553,3344,1075,2025-02-17 11:28:48,0.0
-14484,324,-3920,2301,2966,1362,2025-02-17 11:28:48,0.0
-14748,904,-4128,2028,1804,1154,2025-02-17 11:28:48,0.0
-15708,432,-1584,2308,329,947,2025-02-17 11:28:48,0.0
-16932,408,484,2690,-404,1724,2025-02-17 11:28:48,0.0
-16816,384,1096,3051,352,3006,2025-02-17 11:28:48,0.0
-15064,-1844,-1544,3972,2130,3399,2025-02-17 11:28:48,0.0
-14984,968,-4448,2713,2315,3180,2025-02-17 11:28:48,0.0
-15320,3608,-5976,1706,3418,2799,2025-02-17 11:28:48,0.0
-16240,4456,-7044,-1045,5750,1513,2025-02-17 11:28:48,0.0
-16304,3016,-5392,-1640,5685,-292,2025-02-17 11:28:49,0.0
-17448,2592,-6428,-919,3319,-1429,2025-02-17 11:28:49,0.0
-17120,2696,-9036,-517,-680,-1484,2025-02-17 11:28:49,0.0
-15396,1632,-9340,-958,-4165,-1211,2025-02-17 11:28:49,0.0
-12292,-888,-7524,-1351,-8447,-930,2025-02-17 11:28:49,0.0
-9868,-2876,-5764,-1064,-11235,-838,2025-02-17 11:28:49,0.0
-7764,-4088,-4104,-454,-11204,-1179,2025-02-17 11:28:49,0.0
-7776,-3872,-3936,1619,-9252,-2023,2025-02-17 11:28:49,0.0
-8880,-2304,-4208,2215,-7315,-1876,2025-02-17 11:28:49,0.0
-9688,-552,-5364,1710,-3990,-1604,2025-02-17 11:28:49,0.0
-10484,-136,-5756,-355,2909,-1271,2025-02-17 11:28:49,0.0
-11284,-512,-4420,-1614,6725,-1096,2025-02-17 11:28:49,0.0
-12564,-1288,-3792,-1996,7053,-1715,2025-02-17 11:28:49,0.0
-14000,-1528,-3556,-1963,6426,-1758,2025-02-17 11:28:49,0.0
-14700,-1576,-2504,-1487,4357,-1311,2025-02-17 11:28:49,0.0
-14624,-1144,-2492,-1081,1559,-762,2025-02-17 11:28:49,0.0
-14080,-844,-2708,-952,-847,-788,2025-02-17 11:28:49,0.0
-13104,-640,-3160,-979,-1951,-1493,2025-02-17 11:28:49,0.0
-12364,-896,-2988,-1350,-2822,-2362,2025-02-17 11:28:49,0.0
-11952,-1252,-2788,-1403,-3519,-2598,2025-02-17 11:28:49,0.0
-11268,-1416,-2952,-1596,-4072,-2594,2025-02-17 11:28:49,0.0
-10760,-1940,-2240,-1549,-3766,-2850,2025-02-17 11:28:49,0.0
-10932,-1984,-2136,-1328,-2510,-2973,2025-02-17 11:28:49,0.0
-11820,-1908,-2112,-1799,-116,-2611,2025-02-17 11:28:49,0.0
-12512,-1560,-1320,-2216,1841,-1821,2025-02-17 11:28:49,0.0
-13060,-1424,-532,-2350,2609,-933,2025-02-17 11:28:49,0.0
-13572,-1392,696,-2061,1962,-31,2025-02-17 11:28:49,0.0
-13452,-1468,804,-1382,1209,588,2025-02-17 11:28:49,0.0
-13444,-1756,48,-1272,706,1049,2025-02-17 11:28:49,0.0
-13500,-2184,-464,-1166,618,1250,2025-02-17 11:28:49,0.0
-13800,-2196,-1160,-1017,252,1472,2025-02-17 11:28:49,0.0
-13892,-1380,-848,-1237,-47,1503,2025-02-17 11:28:49,0.0
-14004,-300,504,-1190,-433,1205,2025-02-17 11:28:49,0.0
-14212,236,8,-1388,-848,643,2025-02-17 11:28:49,0.0
-14028,-856,-968,-1627,-2309,-129,2025-02-17 11:28:49,0.0
-14028,-1344,-536,-1682,-3639,-429,2025-02-17 11:28:49,0.0
-13952,-1448,296,-1903,-4733,-352,2025-02-17 11:28:49,0.0
-13900,436,300,-2330,-4785,9,2025-02-17 11:28:49,0.0
-12948,2080,-1728,-3899,-4683,-736,2025-02-17 11:28:49,0.0
-11684,1264,-5132,-6099,-4015,-3311,2025-02-17 11:28:49,0.0
-10412,1140,-7540,-8553,-3732,-6613,2025-02-17 11:28:49,0.0
-9744,340,-4820,-8862,-3260,-9692,2025-02-17 11:28:49,0.0
-9576,-3676,-3380,-6292,-3930,-10973,2025-02-17 11:28:49,0.0
-11468,-6644,-1436,-2908,-1363,-11700,2025-02-17 11:28:49,0.0
-14728,-9328,-2800,-115,3209,-11141,2025-02-17 11:28:49,0.0
-19884,-7496,-8760,119,6917,-8566,2025-02-17 11:28:49,0.0
-21660,-3624,-7560,-1344,7590,-4573,2025-02-17 11:28:49,0.0
-21224,-728,-7004,-2145,2018,-1227,2025-02-17 11:28:49,0.0
-18260,808,-6280,-2829,-5282,1006,2025-02-17 11:28:49,0.0
-13836,1632,-6796,-3387,-7568,536,2025-02-17 11:28:49,0.0
-9740,1948,-6984,-4324,-6397,-721,2025-02-17 11:28:49,0.0
-8248,1632,-5468,-5248,-2781,-2184,2025-02-17 11:28:49,0.0
-10032,-1184,-4784,-6256,1000,-2852,2025-02-17 11:28:49,0.0
-11972,-2784,-3936,-7036,2456,-2585,2025-02-17 11:28:49,0.0
-14048,-3276,-4252,-7995,1530,-2549,2025-02-17 11:28:49,0.0
-14332,-3052,-4040,-8764,-292,-2133,2025-02-17 11:28:49,0.0
-13248,-2292,-3664,-9042,-1544,-1476,2025-02-17 11:28:49,0.0
-12788,-1392,-3532,-9275,-1291,-1074,2025-02-17 11:28:49,0.0
-12448,-80,-3292,-9939,-250,-916,2025-02-17 11:28:49,0.0
-12136,756,-2696,-10705,114,-1175,2025-02-17 11:28:49,0.0
-12008,860,-2764,-11521,-207,-1537,2025-02-17 11:28:49,0.0
-11892,928,-3136,-12547,-471,-1969,2025-02-17 11:28:50,0.0
-11356,96,-3852,-13601,278,-2987,2025-02-17 11:28:50,0.0
-11136,-888,-2860,-12729,3,-4760,2025-02-17 11:28:50,0.0
-11960,-1076,-3232,-11145,-1018,-6661,2025-02-17 11:28:50,0.0
-14644,-1292,-4192,-11009,-979,-6741,2025-02-17 11:28:50,0.0
-15412,-1420,-7972,-13378,67,-5227,2025-02-17 11:28:50,0.0
-14460,-860,-6276,-16899,-652,-4541,2025-02-17 11:28:50,0.0
-14340,-1108,-4116,-17884,-1563,-4549,2025-02-17 11:28:50,
-14080,-2076,-2868,-16914,-2465,-4517,2025-02-17 11:28:50,0.0
-14936,-3108,-3764,-15532,-3307,-3822,2025-02-17 11:28:50,0.0
-14384,-3160,-5256,-15909,-3891,-2540,2025-02-17 11:28:50,0.0
-12948,-3044,-4800,-16872,-4215,-2364,2025-02-17 11:28:50,0.0
-13200,-3468,-4464,-17440,-4023,-2340,2025-02-17 11:28:50,0.0
-13172,-3564,-3888,-17722,-3565,-1805,2025-02-17 11:28:50,0.0
-12876,-4136,-1920,-16871,-3454,-1240,2025-02-17 11:28:50,0.0
-12612,-4300,360,-14295,-2883,-1035,2025-02-17 11:28:50,0.0
-13272,-3528,-544,-11866,-1819,-277,2025-02-17 11:28:50,0.0
-13400,-1956,-1792,-11330,-1397,938,2025-02-17 11:28:50,0.0
-11776,-1192,-2412,-11209,-1013,1016,2025-02-17 11:28:50,0.0
-10688,-624,-3836,-11722,-61,-560,2025-02-17 11:28:50,0.0
-12596,-1264,-3720,-16171,6505,-3061,2025-02-17 11:28:50,0.0
-12844,-2992,-1124,-16994,12639,-2791,2025-02-17 11:28:50,0.0
-11580,-4680,228,-15608,17492,-3238,2025-02-17 11:28:50,0.0
-12860,-5496,-104,-12793,22395,-3620,2025-02-17 11:28:50,0.0
-12544,-4900,-3544,-11538,27656,-3516,2025-02-17 11:28:50,0.0
-12172,-3152,-6960,-11868,30741,-3821,2025-02-17 11:28:50,0.0
-11724,952,-6472,-12800,29284,-2903,2025-02-17 11:28:50,0.0
-9968,1652,-5380,-13463,28376,-3571,2025-02-17 11:28:50,0.0
-9728,1316,-3616,-12678,28125,-5563,2025-02-17 11:28:50,0.0
-10140,904,-2988,-10297,26739,-7154,2025-02-17 11:28:50,0.0
-10736,-384,-4420,-8344,23908,-7756,2025-02-17 11:28:50,0.0
-10440,-2680,-4876,-7194,18043,-6586,2025-02-17 11:28:50,0.0
-6716,-4252,-4052,-5924,8176,-5709,2025-02-17 11:28:50,0.0
-2764,-3728,-2440,-4752,-3603,-5104,2025-02-17 11:28:50,0.0
-840,-2572,-1556,-4853,-13159,-4744,2025-02-17 11:28:50,0.0
-556,-1784,-544,-6759,-15768,-4100,2025-02-17 11:28:50,0.0
3408,-468,2660,-7830,-17034,-4023,2025-02-17 11:28:50,0.0
2328,-528,2024,-7683,-16947,-3894,2025-02-17 11:28:50,0.0
2436,-488,1856,-7513,-16441,-3704,2025-02-17 11:28:50,0.0
2560,-484,1724,-7325,-15496,-3558,2025-02-17 11:28:50,0.0
2424,-460,1564,-7231,-14473,-3523,2025-02-17 11:28:50,0.0
2584,-496,1596,-7153,-13418,-3674,2025-02-17 11:28:50,0.0
2612,-440,1616,-7120,-12416,-3994,2025-02-17 11:28:50,0.0
2596,-372,1708,-7094,-11673,-4374,2025-02-17 11:28:50,0.0
2532,-284,1712,-6985,-11152,-4536,2025-02-17 11:28:50,0.0
2432,-224,1652,-6849,-10917,-4558,2025-02-17 11:28:50,0.0
2552,-364,1700,-6751,-11034,-4488,2025-02-17 11:28:50,0.0
2448,-336,1440,-6682,-11448,-4387,2025-02-17 11:28:50,0.0
2740,-224,1368,-6707,-12145,-4335,2025-02-17 11:28:50,0.0
3276,-144,1284,-6881,-13320,-4580,2025-02-17 11:28:50,0.0
3888,180,848,-7381,-14913,-5416,2025-02-17 11:28:50,0.0
4488,428,472,-8323,-17142,-6978,2025-02-17 11:28:50,0.0
3824,-60,752,-9365,-18743,-8233,2025-02-17 11:28:50,0.0
2408,-468,1068,-10053,-19298,-8477,2025-02-17 11:28:50,0.0
1860,-532,1216,-10530,-18815,-8244,2025-02-17 11:28:50,0.0
1256,-556,992,-11375,-17909,-7847,2025-02-17 11:28:50,0.0
-32768,-3188,-12252,-21334,3293,16376,2025-02-17 11:28:50,0.0
11188,-9432,228,7829,32767,-32768,2025-02-17 11:28:50,0.0
-32768,-32768,-32768,32767,32767,-32768,2025-02-17 11:28:50,0.0
-32768,-32768,-32768,2350,32767,-12498,2025-02-17 11:28:50,0.0
8276,-10960,-22936,-5254,28811,-12559,2025-02-17 11:28:51,0.0
6540,-2876,-3184,-5986,21966,-10242,2025-02-17 11:28:51,0.0
9004,-672,3892,-3505,23056,-10009,2025-02-17 11:28:51,0.0
6384,-2736,3284,-1130,25217,-13569,2025-02-17 11:28:51,0.0
3164,-1896,2052,634,26480,-13590,2025-02-17 11:28:51,0.0
2136,-1836,1400,1703,24567,-11237,2025-02-17 11:28:51,0.0
2756,-2164,292,968,22060,-9926,2025-02-17 11:28:51,0.0
2088,-4536,-1392,-1496,18292,-8297,2025-02-17 11:28:51,0.0
-1652,-5548,-4504,-5780,12616,-2861,2025-02-17 11:28:51,0.0
-2108,-7788,-11612,-12111,4476,2955,2025-02-17 11:28:51,0.0
-1024,-10888,-16364,-16046,-7468,6866,2025-02-17 11:28:51,0.0
-3700,-12660,-27600,-5087,-5452,4701,2025-02-17 11:28:51,0.0
-5836,-8876,-32768,1731,3138,-1453,2025-02-17 11:28:51,0.0
984,-6148,-15936,2699,3106,-1063,2025-02-17 11:28:51,0.0
2996,-5652,-7416,5139,504,-1008,2025-02-17 11:28:51,0.0
2128,-6512,-10720,3976,-1491,-400,2025-02-17 11:28:51,0.0
336,-9552,-12928,-858,-778,74,2025-02-17 11:28:51,0.0
-532,-7756,-13828,-2257,1264,33,2025-02-17 11:28:51,0.0
684,-5576,-13912,-1167,1674,-196,2025-02-17 11:28:51,0.0
1568,-6268,-14344,354,-9,-260,2025-02-17 11:28:51,0.0
512,-7528,-13480,350,-487,-140,2025-02-17 11:28:51,0.0
504,-7132,-13164,-388,46,-171,2025-02-17 11:28:51,0.0
620,-6816,-13368,-237,418,-168,2025-02-17 11:28:51,0.0
948,-6920,-13944,-71,221,-189,2025-02-17 11:28:51,0.0
736,-7056,-13556,1,114,-212,2025-02-17 11:28:51,0.0
476,-7312,-13364,-153,135,-107,2025-02-17 11:28:51,0.0
772,-7032,-13464,-180,312,-194,2025-02-17 11:28:51,0.0
748,-6976,-13824,-125,164,-147,2025-02-17 11:28:51,0.0
816,-6984,-13372,-106,191,-191,2025-02-17 11:28:51,0.0
768,-7216,-13628,-177,167,-201,2025-02-17 11:28:51,0.0
636,-6932,-13576,-143,125,-174,2025-02-17 11:28:51,0.0
584,-6964,-13568,-119,236,-194,2025-02-17 11:28:51,0.0
732,-7044,-13460,-165,149,-169,2025-02-17 11:28:51,0.0
652,-6900,-13620,-143,176,-178,2025-02-17 11:28:51,0.0
608,-7008,-13416,-132,218,-203,2025-02-17 11:28:51,0.0
656,-6936,-13544,-162,175,-173,2025-02-17 11:28:51,0.0
584,-6964,-13540,-165,183,-176,2025-02-17 11:28:51,0.0
680,-6996,-13616,-140,162,-176,2025-02-17 11:28:51,0.0
652,-6980,-13636,-117,145,-163,2025-02-17 11:28:51,0.0
624,-6976,-13492,-141,181,-196,2025-02-17 11:28:51,0.0
748,-7004,-13568,-158,180,-171,2025-02-17 11:28:51,0.0
632,-7068,-13480,-155,201,-183,2025-02-17 11:28:51,0.0
644,-7008,-13564,-148,184,-200,2025-02-17 11:28:51,0.0
540,-6920,-13608,-158,173,-193,2025-02-17 11:28:51,0.0
728,-6956,-13604,-151,175,-166,2025-02-17 11:28:51,0.0
684,-7032,-13736,-146,175,-185,2025-02-17 11:28:51,0.0
656,-7048,-13760,-144,184,-181,2025-02-17 11:28:51,0.0
748,-6964,-13504,-163,169,-172,2025-02-17 11:28:51,
736,-6996,-13544,-177,174,-193,2025-02-17 11:28:51,0.0
636,-7008,-13612,-157,151,-173,2025-02-17 11:28:51,0.0
648,-7052,-13452,-152,183,-184,2025-02-17 11:28:51,0.0
620,-7004,-13612,-172,191,-175,2025-02-17 11:28:51,0.0
684,-6944,-13528,-149,176,-185,2025-02-17 11:28:51,0.0
616,-7008,-13548,-153,134,-173,2025-02-17 11:28:51,0.0
608,-6968,-13448,-138,184,-200,2025-02-17 11:28:51,0.0
684,-7012,-13732,-156,181,-179,2025-02-17 11:28:51,0.0
628,-6972,-13644,-161,183,-178,2025-02-17 11:28:51,0.0
660,-6896,-13620,-156,165,-193,2025-02-17 11:28:51,0.0
700,-7048,-13548,-163,183,-201,2025-02-17 11:28:51,0.0
692,-7064,-13604,-173,173,-188,2025-02-17 11:28:51,0.0
664,-6968,-13524,-136,174,-209,2025-02-17 11:28:51,0.0
644,-7068,-13472,-158,169,-201,2025-02-17 11:28:52,0.0
676,-6976,-13480,-149,158,-202,2025-02-17 11:28:52,0.0
704,-7020,-13500,-161,194,-151,2025-02-17 11:28:52,0.0
672,-7004,-13676,-161,185,-187,2025-02-17 11:28:52,0.0
700,-7004,-13572,-182,160,-179,2025-02-17 11:28:52,0.0
744,-7012,-13488,-144,154,-186,2025-02-17 11:28:52,0.0
612,-7044,-13540,-155,159,-194,2025-02-17 11:28:52,0.0
700,-7044,-13688,-156,173,-185,2025-02-17 11:28:52,0.0
732,-7036,-13664,-169,142,-188,2025-02-17 11:28:52,0.0
660,-6992,-13616,-149,185,-173,2025-02-17 11:28:52,0.0
616,-6920,-13476,-140,168,-171,2025-02-17 11:28:52,0.0
612,-7048,-13544,-147,167,-188,2025-02-17 11:28:52,0.0
676,-7020,-13704,-186,172,-176,2025-02-17 11:28:52,0.0
668,-7032,-13612,-165,161,-162,2025-02-17 11:28:52,0.0
684,-7048,-13640,-149,159,-175,2025-02-17 11:28:52,0.0
680,-7008,-13664,-146,159,-174,2025-02-17 11:28:52,0.0
728,-6944,-13512,-150,173,-178,2025-02-17 11:28:52,0.0
688,-7024,-13700,-158,167,-172,2025-02-17 11:28:52,0.0
692,-7080,-13572,-126,180,-183,2025-02-17 11:28:52,0.0
628,-7004,-13496,-142,167,-187,2025-02-17 11:28:52,0.0
732,-7068,-13612,-167,172,-196,2025-02-17 11:28:52,0.0
732,-7052,-13500,-166,185,-182,2025-02-17 11:28:52,0.0
668,-7000,-13476,-132,181,-187,2025-02-17 11:28:52,0.0
648,-7060,-13508,-153,161,-170,2025-02-17 11:28:52,0.0
604,-7104,-13628,-154,184,-168,2025-02-17 11:28:52,0.0
712,-6964,-13572,-137,165,-175,2025-02-17 11:28:52,0.0
604,-6980,-13468,-159,176,-166,2025-02-17 11:28:52,0.0
688,-7004,-13536,-152,154,-194,2025-02-17 11:28:52,0.0
680,-6984,-13444,-153,177,-185,2025-02-17 11:28:52,0.0
696,-7064,-13468,-168,174,-166,2025-02-17 11:28:52,0.0
720,-6956,-13668,-144,171,-175,2025-02-17 11:28:52,0.0
704,-7056,-13596,-145,186,-167,2025-02-17 11:28:52,0.0
668,-7012,-13364,-177,177,-159,2025-02-17 11:28:52,0.0
672,-7020,-13592,-160,176,-159,2025-02-17 11:28:52,0.0
540,-7060,-13488,-150,161,-168,2025-02-17 11:28:52,0.0
676,-7048,-13644,-159,167,-171,2025-02-17 11:28:52,0.0
772,-7108,-13604,-149,160,-166,2025-02-17 11:28:52,0.0
604,-7040,-13488,-180,158,-175,2025-02-17 11:28:52,0.0
632,-7020,-13632,-141,167,-192,2025-02-17 11:28:52,0.0
648,-6956,-13664,-163,154,-200,2025-02-17 11:28:52,0.0
652,-6976,-13536,-163,151,-196,2025-02-17 11:28:52,0.0
592,-7040,-13512,-138,154,-179,2025-02-17 11:28:52,0.0
736,-7080,-13460,-137,158,-172,2025-02-17 11:28:52,0.0
648,-6984,-13500,-167,161,-168,2025-02-17 11:28:52,0.0
680,-7012,-13596,-160,184,-166,2025-02-17 11:28:52,0.0
712,-6960,-13500,-125,172,-165,2025-02-17 11:28:52,0.0
692,-7016,-13540,-170,190,-177,2025-02-17 11:28:52,0.0
720,-6980,-13520,-143,172,-189,2025-02-17 11:28:52,0.0
672,-7064,-13472,-168,186,-167,2025-02-17 11:28:52,0.0
640,-7020,-13736,-149,205,-162,2025-02-17 11:28:52,0.0
704,-7056,-13580,-172,180,-175,2025-02-17 11:28:52,0.0
624,-6960,-13648,-163,157,-191,2025-02-17 11:28:52,0.0
688,-7000,-13688,-149,179,-175,2025-02-17 11:28:52,0.0
700,-7024,-13628,-143,169,-177,2025-02-17 11:28:52,0.0
672,-6996,-13616,-155,176,-177,2025-02-17 11:28:52,0.0
628,-7008,-13564,-172,175,-172,2025-02-17 11:28:52,0.0
640,-6988,-13520,-158,188,-170,2025-02-17 11:28:52,0.0
744,-7084,-13720,-135,184,-178,2025-02-17 11:28:52,0.0
648,-6944,-13560,-158,165,-150,2025-02-17 11:28:52,0.0
684,-6940,-13496,-158,168,-187,2025-02-17 11:28:53,0.0
688,-6900,-13560,-177,172,-170,2025-02-17 11:28:53,0.0
664,-7004,-13452,-173,161,-172,2025-02-17 11:28:53,0.0
652,-7036,-13524,-131,183,-184,2025-02-17 11:28:53,0.0
704,-7052,-13628,-161,200,-185,2025-02-17 11:28:53,0.0
664,-7064,-13596,-159,164,-189,2025-02-17 11:28:53,0.0
684,-6944,-13584,-112,184,-173,2025-02-17 11:28:53,0.0
616,-6972,-13600,-147,178,-173,2025-02-17 11:28:53,0.0
724,-7068,-13572,-137,173,-186,2025-02-17 11:28:53,0.0
680,-7004,-13532,-170,163,-153,2025-02-17 11:28:53,0.0
684,-7024,-13596,-163,187,-189,2025-02-17 11:28:53,0.0
688,-6988,-13488,-157,168,-191,2025-02-17 11:28:53,0.0
728,-7096,-13640,-132,190,-163,2025-02-17 11:28:53,0.0
644,-6932,-13600,-153,176,-181,2025-02-17 11:28:53,0.0
756,-6964,-13412,-172,173,-175,2025-02-17 11:28:53,0.0
832,-7128,-13500,-146,193,-188,2025-02-17 11:28:53,0.0
700,-6944,-13656,-175,179,-154,2025-02-17 11:28:53,0.0
644,-6988,-13560,-150,163,-169,2025-02-17 11:28:53,0.0
712,-7016,-13504,-157,173,-182,2025-02-17 11:28:53,0.0
640,-7056,-13712,-161,182,-191,2025-02-17 11:28:53,0.0
696,-6992,-13692,-159,169,-180,2025-02-17 11:28:53,0.0
756,-6976,-13452,-159,178,-176,2025-02-17 11:28:53,0.0
812,-6944,-13596,-170,165,-168,2025-02-17 11:28:53,0.0
708,-6864,-13592,-159,195,-179,2025-02-17 11:28:53,0.0
680,-7060,-13508,-140,173,-183,2025-02-17 11:28:53,0.0
600,-7076,-13464,-150,163,-190,2025-02-17 11:28:53,0.0
664,-7088,-13596,-156,169,-165,2025-02-17 11:28:53,0.0
684,-6976,-13492,-151,180,-174,2025-02-17 11:28:53,
740,-7048,-13536,-127,148,-191,2025-02-17 11:28:53,0.0
700,-7068,-13512,-178,168,-185,2025-02-17 11:28:53,0.0
644,-6960,-13436,-151,191,-180,2025-02-17 11:28:53,0.0
536,-6996,-13516,-172,167,-172,2025-02-17 11:28:53,0.0
588,-6956,-13596,-144,181,-168,2025-02-17 11:28:53,0.0
688,-7064,-13596,-143,160,-178,2025-02-17 11:28:53,0.0
716,-6972,-13652,-160,167,-181,2025-02-17 11:28:53,0.0
636,-7088,-13512,-170,162,-180,2025-02-17 11:28:53,0.0
740,-7104,-13584,-145,190,-164,2025-02-17 11:28:53,0.0
684,-7080,-13620,-148,183,-209,2025-02-17 11:28:53,0.0
652,-7048,-13540,-163,153,-191,2025-02-17 11:28:53,0.0
644,-7060,-13600,-167,154,-172,2025-02-17 11:28:53,0.0
696,-7004,-13672,-165,173,-168,2025-02-17 11:28:53,0.0
656,-6996,-13536,-142,175,-172,2025-02-17 11:28:53,0.0
592,-7060,-13496,-151,153,-177,2025-02-17 11:28:53,0.0
648,-6936,-13464,-153,194,-188,2025-02-17 11:28:53,0.0
684,-7072,-13488,-166,182,-182,2025-02-17 11:28:53,0.0
748,-7084,-13588,-165,176,-202,2025-02-17 11:28:53,0.0
724,-7040,-13608,-134,178,-165,2025-02-17 11:28:53,0.0
672,-7024,-13548,-130,150,-183,2025-02-17 11:28:53,0.0
688,-7052,-13492,-170,160,-168,2025-02-17 11:28:53,0.0
616,-6964,-13460,-159,184,-171,2025-02-17 11:28:53,0.0
580,-7120,-13588,-191,181,-191,2025-02-17 11:28:53,0.0
584,-7004,-13460,-155,169,-190,2025-02-17 11:28:53,0.0
684,-7116,-13612,-168,176,-178,2025-02-17 11:28:53,0.0
632,-7012,-13524,-160,194,-164,2025-02-17 11:28:53,0.0
864,-7064,-13396,-94,-203,-149,2025-02-17 11:28:53,0.0
532,-6920,-14076,-203,464,-217,2025-02-17 11:28:53,0.0
756,-6960,-13324,-58,-4,-176,2025-02-17 11:28:53,0.0
136,-6648,-12512,214,957,-242,2025-02-17 11:28:53,0.0
-116,-6892,-13832,192,1261,-120,2025-02-17 11:28:53,0.0
812,-7384,-13544,-181,1269,-295,2025-02-17 11:28:53,0.0
1228,-7060,-13720,70,1544,-276,2025-02-17 11:28:54,0.0
1108,-6652,-13072,184,1366,-464,2025-02-17 11:28:54,0.0
832,-6932,-13532,235,1380,-520,2025-02-17 11:28:54,0.0
512,-7020,-13752,118,1515,-462,2025-02-17 11:28:54,0.0
1016,-7356,-13948,-234,785,-359,2025-02-17 11:28:54,0.0
1856,-7076,-13236,54,-818,238,2025-02-17 11:28:54,0.0
-124,-8096,-14972,-867,-2666,322,2025-02-17 11:28:54,0.0
972,-7956,-12948,-1169,-1559,625,2025-02-17 11:28:54,0.0
768,-5352,-12712,-955,50,-159,2025-02-17 11:28:54,0.0
6180,-5180,-11700,-125,-3242,-1641,2025-02-17 11:28:54,0.0
-1472,-7196,-15000,173,-3727,-279,2025-02-17 11:28:54,0.0
-1576,-7724,-13600,130,-2813,-92,2025-02-17 11:28:54,0.0
-1104,-6608,-11436,871,-989,-271,2025-02-17 11:28:54,0.0
-1004,-6840,-12076,1017,1610,-23,2025-02-17 11:28:54,0.0
-484,-8088,-14040,84,2714,144,2025-02-17 11:28:54,0.0
880,-8548,-15340,-462,793,365,2025-02-17 11:28:54,0.0
2052,-6536,-13584,261,-2194,758,2025-02-17 11:28:54,0.0
172,-6684,-13112,1113,-4166,1600,2025-02-17 11:28:54,0.0
1572,-6740,-13604,1172,-5434,2203,2025-02-17 11:28:54,0.0
1320,-7180,-14284,1690,-6310,2211,2025-02-17 11:28:54,0.0
212,-8160,-14180,664,-1364,3639,2025-02-17 11:28:54,0.0
-2432,-7068,-11876,417,-376,653,2025-02-17 11:28:54,0.0
-2824,-5852,-12792,1013,2517,-944,2025-02-17 11:28:54,0.0
2320,-7724,-13524,2552,900,-150,2025-02-17 11:28:54,0.0
-1192,-8268,-14120,2749,-1221,-596,2025-02-17 11:28:54,0.0
-116,-9132,-14044,4633,-2947,-480,2025-02-17 11:28:54,0.0
1216,-10676,-14832,6244,-5572,-1574,2025-02-17 11:28:54,0.0
-2204,-10340,-13888,8010,-5799,-1499,2025-02-17 11:28:54,0.0
1392,-11476,-12428,9844,-5403,-1806,2025-02-17 11:28:54,0.0
1288,-12944,-12688,10738,-8338,-2849,2025-02-17 11:28:54,0.0
-2988,-14704,-14804,8969,-8576,-842,2025-02-17 11:28:54,0.0
-5452,-16428,-15636,5906,-6687,4355,2025-02-17 11:28:54,0.0
-2432,-19024,-14344,5045,-3659,7272,2025-02-17 11:28:54,0.0
-2016,-20072,-13856,6688,-170,9176,2025-02-17 11:28:54,0.0
-1888,-18188,-16324,6215,4910,10347,2025-02-17 11:28:54,0.0
-1800,-14288,-18216,4397,11137,9510,2025-02-17 11:28:54,0.0
3344,-9152,-19472,803,16401,5870,2025-02-17 11:28:54,0.0
3540,-7584,-20944,-2281,12128,1698,2025-02-17 11:28:54,0.0
252,-6588,-22444,-5381,9164,347,2025-02-17 11:28:54,0.0
-1232,-5920,-20516,-7842,6559,2568,2025-02-17 11:28:54,0.0
-1340,-6164,-17544,-7333,4172,5414,2025-02-17 11:28:54,0.0
-684,-6640,-17384,-7202,2991,7351,2025-02-17 11:28:54,0.0
1240,-7780,-16560,-9107,1829,7329,2025-02-17 11:28:54,0.0
2520,-7696,-14888,-9862,-1565,5588,2025-02-17 11:28:54,0.0
720,-7532,-15916,-9047,-6292,2997,2025-02-17 11:28:54,0.0
-2272,-7192,-17688,-8845,-8328,2605,2025-02-17 11:28:54,0.0
-4880,-6312,-19048,-7783,-7222,2976,2025-02-17 11:28:54,0.0
-6692,-5648,-19632,-5221,-3687,3581,2025-02-17 11:28:54,0.0
-6472,-4912,-21008,-2736,-595,4092,2025-02-17 11:28:54,0.0
-5112,-3604,-23872,-2534,-176,4750,2025-02-17 11:28:54,0.0
-4472,-2676,-24420,-4019,-1365,5688,2025-02-17 11:28:54,0.0
-2312,-1884,-21156,-4102,-4991,5538,2025-02-17 11:28:54,0.0
-1188,-2096,-18752,-3144,-9449,5169,2025-02-17 11:28:54,0.0
-836,-3656,-17220,-2205,-12861,3054,2025-02-17 11:28:54,0.0
-1316,-5548,-16268,-2415,-13330,32,2025-02-17 11:28:54,0.0
-3588,-7120,-16692,-3669,-11580,-2025,2025-02-17 11:28:54,0.0
-6836,-7728,-16308,-5672,-7339,-1505,2025-02-17 11:28:54,0.0
-6884,-7740,-14572,-6813,-1964,333,2025-02-17 11:28:54,0.0
-5448,-7176,-11432,-5243,1504,1028,2025-02-17 11:28:54,0.0
-3164,-5812,-10156,-3771,2515,1247,2025-02-17 11:28:55,0.0
-1640,-4184,-10568,-2897,314,925,2025-02-17 11:28:55,0.0
-1592,-3372,-10012,-2417,-2967,997,2025-02-17 11:28:55,0.0
-2816,-3380,-9496,-1565,-6767,2064,2025-02-17 11:28:55,0.0
-3664,-4368,-9544,-891,-10176,3546,2025-02-17 11:28:55,0.0
-4264,-5308,-11124,-1505,-12539,5054,2025-02-17 11:28:55,0.0
-4624,-6172,-11412,-3035,-14470,6103,2025-02-17 11:28:55,0.0
-5316,-6696,-10532,-3935,-15746,7008,2025-02-17 11:28:55,0.0
-5700,-6740,-9084,-3571,-16516,7929,2025-02-17 11:28:55,
-9004,-1572,-4820,-4299,19502,2278,2025-02-17 11:28:55,0.0
-7496,-3024,-5192,-3413,23052,989,2025-02-17 11:28:55,0.0
-6188,-4296,-6256,-2892,23993,-886,2025-02-17 11:28:55,0.0
-5940,-4652,-6768,-2561,23135,-2640,2025-02-17 11:28:55,0.0
-5760,-3528,-6428,-1895,19614,-3065,2025-02-17 11:28:55,0.0
-4752,-2032,-6392,-1280,13595,-2381,2025-02-17 11:28:55,0.0
-2588,-284,-6268,-292,5266,-2484,2025-02-17 11:28:55,0.0
-2488,736,-6932,618,-3466,-3321,2025-02-17 11:28:55,0.0
-2780,1200,-7400,831,-12608,-3197,2025-02-17 11:28:55,0.0
-2788,600,-7056,1040,-21228,-2693,2025-02-17 11:28:55,0.0
-4024,88,-6912,944,-28406,-1643,2025-02-17 11:28:55,0.0
-5116,416,-6716,273,-32768,882,2025-02-17 11:28:55,0.0
-4572,620,-6248,-40,-32768,3019,2025-02-17 11:28:55,0.0
-4436,268,-6000,933,-32768,1864,2025-02-17 11:28:55,0.0
-7544,12,-7224,2194,-32768,-328,2025-02-17 11:28:55,0.0
-9416,-840,-8284,2663,-30124,-2297,2025-02-17 11:28:55,0.0
-12216,-1332,-9320,1344,-22061,-2011,2025-02-17 11:28:55,0.0
-13896,-2424,-9008,-806,-12840,233,2025-02-17 11:28:55,0.0
-12408,-3400,-6844,-2729,-5473,1033,2025-02-17 11:28:55,0.0
-8756,-3852,-3008,-4784,-10600,-1244,2025-02-17 11:28:55,0.0
-10576,-2460,1408,-5958,-25975,-3028,2025-02-17 11:28:55,0.0
-9092,2772,-5528,-9315,10569,-1306,2025-02-17 11:28:55,0.0
-14392,1816,-3824,-11482,12345,-1071,2025-02-17 11:28:55,0.0
-15096,80,-1032,-12102,9808,266,2025-02-17 11:28:55,0.0
-15964,-692,524,-10068,6863,752,2025-02-17 11:28:55,0.0
-16412,-540,-3216,-9834,2696,1263,2025-02-17 11:28:55,0.0
-14104,236,-3236,-12366,-267,1574,2025-02-17 11:28:55,0.0
-11744,-152,-1744,-12926,-1413,-452,2025-02-17 11:28:55,0.0
-12484,-892,-1868,-13305,-952,-1640,2025-02-17 11:28:55,0.0
-12592,-1284,-2684,-14058,472,-1872,2025-02-17 11:28:55,0.0
-12624,-1332,-2820,-14897,1560,-2518,2025-02-17 11:28:55,0.0
-13676,-1132,-2272,-15774,2189,-2670,2025-02-17 11:28:55,0.0
-14384,-896,-2304,-15791,1698,-2944,2025-02-17 11:28:55,0.0
-14744,-356,-3388,-16637,640,-2687,2025-02-17 11:28:55,0.0
-14488,-788,-3464,-17625,-434,-2539,2025-02-17 11:28:55,0.0
-13556,-1104,-3200,-18908,-1114,-2610,2025-02-17 11:28:55,0.0
-12592,-1424,-1804,-19143,-1185,-2839,2025-02-17 11:28:55,0.0
-12712,-848,-828,-18058,-721,-2663,2025-02-17 11:28:55,0.0
-12464,52,-1288,-17475,-54,-1888,2025-02-17 11:28:55,0.0
-12676,-4,-1728,-17460,981,-1060,2025-02-17 11:28:55,0.0
-12564,164,-824,-16644,2237,-225,2025-02-17 11:28:55,0.0
-11592,148,-1212,-14951,2686,-1376,2025-02-17 11:28:55,0.0
-13348,1396,-4028,-15124,2324,-2402,2025-02-17 11:28:56,0.0
-12916,872,-3800,-16632,1700,-3364,2025-02-17 11:28:56,0.0
-13596,88,-2520,-16169,1374,-4150,2025-02-17 11:28:56,0.0
-13060,-464,-3348,-15694,1081,-3927,2025-02-17 11:28:56,0.0
-13848,-776,-1984,-14958,1006,-3220,2025-02-17 11:28:56,0.0
-13692,-948,-2232,-14033,1249,-2879,2025-02-17 11:28:56,0.0
-13420,-464,-2468,-13945,1931,-3793,2025-02-17 11:28:56,0.0
-13784,-692,-2732,-13557,1839,-3878,2025-02-17 11:28:56,0.0
-13956,-972,-2136,-13019,1962,-3553,2025-02-17 11:28:56,0.0
-13732,-636,-2472,-12948,2120,-3254,2025-02-17 11:28:56,0.0
-13672,-720,-2472,-13154,1970,-3013,2025-02-17 11:28:56,0.0
-13964,-508,-1288,-12740,1113,-2504,2025-02-17 11:28:56,0.0
-13732,-100,-2036,-12382,1770,-1775,2025-02-17 11:28:56,0.0
-12724,-168,-576,-11417,1910,-2054,2025-02-17 11:28:56,0.0
-13032,792,-3172,-10777,2107,-2827,2025-02-17 11:28:56,0.0
-13104,776,-1636,-10780,3078,-3107,2025-02-17 11:28:56,0.0
-13612,788,-1748,-10381,3471,-2951,2025-02-17 11:28:56,0.0
-14236,1268,-1908,-10375,3175,-2992,2025-02-17 11:28:56,0.0
-13808,1192,-1804,-10129,2136,-3316,2025-02-17 11:28:56,0.0
-13528,812,-1704,-9953,1554,-3567,2025-02-17 11:28:56,0.0
-13068,580,-1836,-9526,1836,-3671,2025-02-17 11:28:56,0.0
-13084,520,-1328,-8849,2398,-3673,2025-02-17 11:28:56,0.0
-13392,768,-828,-8009,2878,-3319,2025-02-17 11:28:56,0.0
-13680,700,-456,-7185,3041,-2976,2025-02-17 11:28:56,0.0
-13744,-60,-900,-6595,2759,-2663,2025-02-17 11:28:56,0.0
-13600,-272,-456,-5905,2318,-2586,2025-02-17 11:28:56,0.0
-13416,-44,-552,-5544,1945,-2275,2025-02-17 11:28:56,0.0
-13408,548,-788,-5108,2019,-2078,2025-02-17 11:28:56,0.0
-13444,624,-628,-4828,2465,-1923,2025-02-17 11:28:56,0.0
-13428,652,-1124,-4423,3046,-1808,2025-02-17 11:28:56,0.0
-14416,508,-676,-4307,3134,-1728,2025-02-17 11:28:56,0.0
-14880,228,-204,-3889,2534,-1470,2025-02-17 11:28:56,0.0
-15412,124,-64,-3227,1432,-1174,2025-02-17 11:28:56,0.0
-15512,-280,-64,-2617,730,-961,2025-02-17 11:28:56,0.0
-15340,16,-460,-1930,133,-708,2025-02-17 11:28:56,0.0
-15196,356,-972,-1552,-420,-593,2025-02-17 11:28:56,0.0
