acceleration_x,acceleration_y,acceleration_z,gyroscope_x,gyroscope_y,gyroscope_z,timestamp,label
-13048,-464,-3724,-1606,2254,-305,2025-02-17 11:34:44,0.0
-13060,-572,-3556,-1236,2074,-210,2025-02-17 11:34:44,0.0
-13148,-568,-3692,-769,1563,-55,2025-02-17 11:34:44,0.0
-13072,-368,-3972,-573,841,-30,2025-02-17 11:34:44,0.0
-13184,-424,-4096,-652,410,-74,2025-02-17 11:34:44,0.0
-12924,-520,-3924,-700,138,-146,2025-02-17 11:34:44,0.0
-12852,-436,-3820,-536,-102,-219,2025-02-17 11:34:44,0.0
-12868,-524,-3724,-316,-306,-255,2025-02-17 11:34:44,0.0
-12828,-560,-3768,-77,-494,-251,2025-02-17 11:34:44,0.0
-12820,-616,-3612,206,-535,-258,2025-02-17 11:34:44,0.0
-12920,-520,-4020,342,-446,-264,2025-02-17 11:34:44,0.0
-12876,-560,-4300,196,-385,-184,2025-02-17 11:34:44,0.0
-12808,-584,-4380,-118,-391,-280,2025-02-17 11:34:44,0.0
-12928,-396,-4312,-491,-206,-340,2025-02-17 11:34:44,0.0
-12816,-532,-3720,-676,116,-418,2025-02-17 11:34:44,0.0
-12996,-640,-3600,-338,293,-215,2025-02-17 11:34:44,0.0
-12984,-556,-4088,-228,376,-159,2025-02-17 11:34:44,0.0
-12956,-524,-4104,-407,526,-154,2025-02-17 11:34:44,0.0
-12592,-428,-4452,-866,487,-386,2025-02-17 11:34:44,0.0
-12888,-512,-3884,-915,513,-475,2025-02-17 11:34:44,0.0
-13080,-648,-3548,-752,515,-366,2025-02-17 11:34:44,0.0
-13072,-640,-3668,-429,369,-223,2025-02-17 11:34:44,0.0
-12856,-704,-3620,-91,322,-155,2025-02-17 11:34:44,0.0
-12872,-568,-4120,-114,275,-215,2025-02-17 11:34:44,0.0
-12768,-660,-4216,-221,195,-304,2025-02-17 11:34:44,0.0
-12808,-536,-4112,-306,240,-384,2025-02-17 11:34:44,0.0
-12972,-612,-3928,-328,355,-370,2025-02-17 11:34:44,0.0
-12548,-564,-3732,-238,297,-442,2025-02-17 11:34:44,0.0
-13000,-568,-4248,-418,459,-452,2025-02-17 11:34:44,0.0
-12972,-728,-3688,-180,229,-361,2025-02-17 11:34:44,0.0
-13068,-604,-3940,9,145,-218,2025-02-17 11:34:44,0.0
-12956,-524,-3972,-90,51,-175,2025-02-17 11:34:44,0.0
-12752,-596,-3820,-72,120,-217,2025-02-17 11:34:45,0.0
-12788,-600,-4696,-187,371,-118,2025-02-17 11:34:45,0.0
-12616,-468,-4800,-922,618,-266,2025-02-17 11:34:45,0.0
-12792,-808,-3720,-764,715,-365,2025-02-17 11:34:45,0.0
-12840,-692,-3484,-346,808,-280,2025-02-17 11:34:45,0.0
-12804,-560,-3660,-178,827,-384,2025-02-17 11:34:45,0.0
-12792,-568,-4284,-229,861,-428,2025-02-17 11:34:45,0.0
-12948,-540,-4124,-320,865,-466,2025-02-17 11:34:45,0.0
-12880,-672,-3828,-10,659,-576,2025-02-17 11:34:45,0.0
-13012,-596,-4416,-280,601,-514,2025-02-17 11:34:45,0.0
-12920,-660,-3932,-162,297,-560,2025-02-17 11:34:45,0.0
-12924,-776,-4024,66,178,-480,2025-02-17 11:34:45,0.0
-12844,-644,-4148,197,10,-400,2025-02-17 11:34:45,0.0
-12940,-632,-3948,400,-58,-289,2025-02-17 11:34:45,0.0
-12932,-544,-3996,428,-38,-152,2025-02-17 11:34:45,0.0
-13000,-444,-4212,322,7,-46,2025-02-17 11:34:45,0.0
-13024,-636,-4000,267,239,29,2025-02-17 11:34:45,0.0
-12708,-524,-4224,205,590,88,2025-02-17 11:34:45,0.0
-12640,-580,-4040,142,822,15,2025-02-17 11:34:45,0.0
-12660,-520,-3980,192,787,-169,2025-02-17 11:34:45,0.0
-13156,-608,-3916,689,156,81,2025-02-17 11:34:45,0.0
-12852,-600,-4236,950,-460,106,2025-02-17 11:34:45,0.0
-12732,-496,-4300,808,-900,-94,2025-02-17 11:34:45,0.0
-12544,-532,-4176,688,-1216,-420,2025-02-17 11:34:45,0.0
-12708,-548,-4164,480,-1276,-594,2025-02-17 11:34:45,0.0
-12688,-472,-4112,438,-1030,-520,2025-02-17 11:34:45,0.0
-12780,-416,-4360,231,-587,-499,2025-02-17 11:34:45,0.0
-12712,-668,-4068,-36,50,-434,2025-02-17 11:34:45,0.0
-12876,-644,-4116,-87,690,-384,2025-02-17 11:34:45,0.0
-13076,-568,-4532,-328,1110,-218,2025-02-17 11:34:45,0.0
-13068,-484,-4628,-569,1312,-42,2025-02-17 11:34:45,0.0
-12960,-208,-4376,-779,1411,130,2025-02-17 11:34:45,0.0
-12920,-240,-3952,-669,1618,330,2025-02-17 11:34:45,0.0
-12808,-72,-4128,-301,1817,616,2025-02-17 11:34:45,0.0
-12740,284,-4720,-430,1641,773,2025-02-17 11:34:45,0.0
-12888,544,-4468,-699,992,829,2025-02-17 11:34:45,0.0
-13028,300,-3816,-702,83,625,2025-02-17 11:34:45,0.0
-13104,16,-3200,-535,-212,424,2025-02-17 11:34:45,0.0
-13164,128,-3664,-571,-320,225,2025-02-17 11:34:45,0.0
-13356,136,-3648,-436,-561,242,2025-02-17 11:34:45,0.0
-13200,128,-3512,-252,-1290,209,2025-02-17 11:34:45,0.0
-13140,204,-2636,157,-2236,78,2025-02-17 11:34:45,0.0
-13304,-264,-1876,961,-3241,25,2025-02-17 11:34:45,0.0
-13492,-216,-1440,1571,-3633,-93,2025-02-17 11:34:45,0.0
-13760,-60,-2444,1504,-4081,28,2025-02-17 11:34:45,0.0
-13020,216,-2944,923,-3904,-212,2025-02-17 11:34:45,0.0
-12740,224,-3704,13,-3374,-1100,2025-02-17 11:34:45,0.0
-12712,12,-4072,-967,-2076,-1978,2025-02-17 11:34:45,0.0
-12840,-280,-3548,-1351,-939,-2465,2025-02-17 11:34:45,0.0
-13192,-636,-3544,-1538,11,-2298,2025-02-17 11:34:45,0.0
-13052,-732,-3336,-1490,203,-1767,2025-02-17 11:34:45,0.0
-12684,-888,-3000,-1540,-89,-1355,2025-02-17 11:34:45,0.0
-12536,-1448,-3168,-1484,-42,-1061,2025-02-17 11:34:45,0.0
-12640,-2140,-2400,-1888,876,-964,2025-02-17 11:34:45,0.0
-12472,-2696,-2404,-2665,3095,-1173,2025-02-17 11:34:45,0.0
-12824,-2216,-2240,-2700,4815,-1529,2025-02-17 11:34:45,0.0
-13012,-1148,-2664,-2660,5748,-1820,2025-02-17 11:34:45,0.0
-13408,24,-1512,-2531,5532,-2178,2025-02-17 11:34:45,0.0
-13328,604,-972,-2039,3922,-2876,2025-02-17 11:34:45,0.0
-13572,144,-2444,-1655,2179,-3673,2025-02-17 11:34:46,0.0
-13360,-816,-3892,-2182,1009,-4340,2025-02-17 11:34:46,0.0
-13520,-1588,-3852,-2823,615,-4604,2025-02-17 11:34:46,0.0
-13588,-2308,-3760,-3520,1004,-4352,2025-02-17 11:34:46,0.0
-13824,-2280,-3588,-4356,1510,-3624,2025-02-17 11:34:46,0.0
-13344,-2200,-2636,-4890,1493,-2890,2025-02-17 11:34:46,0.0
-13028,-2412,-2620,-5290,442,-2542,2025-02-17 11:34:46,0.0
-12520,-2488,-2184,-5487,-768,-2087,2025-02-17 11:34:46,0.0
-12184,-2724,-2620,-5527,-1182,-1904,2025-02-17 11:34:46,
-12120,-1992,-2696,-5288,75,-1770,2025-02-17 11:34:46,0.0
-11600,-1812,-3140,-5397,1359,-2033,2025-02-17 11:34:46,0.0
-12052,-1872,-3040,-5419,2831,-2417,2025-02-17 11:34:46,0.0
-12992,-2140,-3220,-5181,3928,-2607,2025-02-17 11:34:46,0.0
-13404,-2068,-3204,-5047,4277,-2563,2025-02-17 11:34:46,0.0
-13892,-1864,-3028,-4943,3399,-2608,2025-02-17 11:34:46,0.0
-13936,-1900,-2764,-4965,1571,-2746,2025-02-17 11:34:46,0.0
-13756,-2280,-2936,-5208,-710,-3172,2025-02-17 11:34:46,0.0
-13656,-2980,-2780,-5202,-2659,-3263,2025-02-17 11:34:46,0.0
-13744,-2908,-2520,-5158,-3175,-2491,2025-02-17 11:34:46,0.0
-12824,-2112,-2444,-5021,-3584,-1593,2025-02-17 11:34:46,0.0
-12288,-1280,-2988,-5430,-4268,-1419,2025-02-17 11:34:46,0.0
-12308,-1320,-3232,-6298,-4948,-1435,2025-02-17 11:34:46,0.0
-12084,-1680,-2692,-7490,-4857,-1383,2025-02-17 11:34:46,0.0
-12068,-2540,-1612,-8021,-3937,-1671,2025-02-17 11:34:46,0.0
-13008,-3124,616,-7554,-2833,-1644,2025-02-17 11:34:46,0.0
-14044,-3588,2136,-6008,-2466,-1418,2025-02-17 11:34:46,0.0
-14740,-4888,2096,-3873,-4116,-793,2025-02-17 11:34:46,0.0
-16216,-7180,1116,-2622,-6432,394,2025-02-17 11:34:46,0.0
-17944,-9472,-2288,-2998,-8981,4434,2025-02-17 11:34:46,0.0
-17168,-10072,-4848,-2497,-9829,7783,2025-02-17 11:34:46,0.0
-17212,-8812,-4132,-499,-5563,9300,2025-02-17 11:34:46,0.0
-16116,-6432,-6708,4099,1664,10290,2025-02-17 11:34:46,0.0
-15324,-6624,-6256,8332,11001,9754,2025-02-17 11:34:46,0.0
-15696,-7532,352,10658,23559,7795,2025-02-17 11:34:46,0.0
-15984,-9404,-4096,12374,21658,6106,2025-02-17 11:34:46,0.0
-19648,-6520,-3420,15004,6445,8404,2025-02-17 11:34:46,0.0
-21452,-5696,-4048,19952,-10897,12823,2025-02-17 11:34:46,0.0
-17256,-7796,-5208,24346,-16032,14797,2025-02-17 11:34:46,0.0
-13384,-11908,-6444,28963,-13961,14163,2025-02-17 11:34:46,0.0
-12800,-13216,-9248,32265,-6299,13093,2025-02-17 11:34:46,0.0
-12260,-11416,-14164,30250,4544,11389,2025-02-17 11:34:46,0.0
-10508,-8860,-16284,24956,14363,10682,2025-02-17 11:34:46,0.0
-8028,-6824,-12748,23087,17005,9795,2025-02-17 11:34:46,0.0
-7564,-5256,-11032,22947,14421,9548,2025-02-17 11:34:46,0.0
-5552,-4032,-9916,22877,9147,9880,2025-02-17 11:34:46,0.0
-2680,-3628,-9280,22057,2365,10009,2025-02-17 11:34:46,0.0
-960,-2720,-8244,21624,-3450,10451,2025-02-17 11:34:46,0.0
300,-1708,-6940,21672,-8040,11918,2025-02-17 11:34:46,0.0
4296,524,-5708,21509,-11443,12799,2025-02-17 11:34:46,0.0
6468,860,-2772,20255,-14765,10499,2025-02-17 11:34:46,0.0
8052,-308,-2860,17773,-17906,6771,2025-02-17 11:34:46,0.0
4796,-832,368,15853,-20257,4017,2025-02-17 11:34:46,0.0
3256,-344,2148,15756,-23684,3231,2025-02-17 11:34:46,0.0
4672,-448,172,14924,-26392,1466,2025-02-17 11:34:46,0.0
1560,1112,-2412,7489,-30659,-3301,2025-02-17 11:34:46,0.0
3596,-452,-528,5287,-31727,-4343,2025-02-17 11:34:46,0.0
2400,32,628,3702,-32768,-4921,2025-02-17 11:34:46,0.0
-128,1024,-1708,2038,-32669,-3871,2025-02-17 11:34:46,0.0
-1248,1636,-2672,-909,-31376,-1916,2025-02-17 11:34:46,0.0
-2380,1792,-316,-3463,-28538,1408,2025-02-17 11:34:46,0.0
-2844,2380,-608,-5124,-24578,5424,2025-02-17 11:34:46,0.0
-2240,2084,1620,-5276,-20414,9879,2025-02-17 11:34:47,0.0
-3216,2900,1528,-4871,-16760,13835,2025-02-17 11:34:47,0.0
1544,-376,2732,-3401,-14141,16022,2025-02-17 11:34:47,0.0
2576,-736,1620,-2770,-12883,15344,2025-02-17 11:34:47,0.0
2084,-588,2048,-2232,-11308,15155,2025-02-17 11:34:47,0.0
1892,-280,2432,-1345,-9547,15031,2025-02-17 11:34:47,0.0
1552,-340,2736,-367,-7756,15237,2025-02-17 11:34:47,0.0
2204,-396,2204,503,-6153,15201,2025-02-17 11:34:47,0.0
2400,-440,2132,904,-4717,14780,2025-02-17 11:34:47,0.0
2068,-368,2696,1416,-3152,14361,2025-02-17 11:34:47,0.0
3172,-408,2456,1486,-2154,12537,2025-02-17 11:34:47,0.0
-2956,32767,6568,-32768,-32768,-32768,2025-02-17 11:34:47,0.0
-32768,21912,32767,-32768,-32768,-32768,2025-02-17 11:34:47,0.0
-32768,-5284,32767,-28261,-32768,-32768,2025-02-17 11:34:47,0.0
-17260,-17500,32767,-8842,-32768,-20508,2025-02-17 11:34:47,0.0
12928,-11828,22332,-6519,-32768,-31818,2025-02-17 11:34:47,0.0
10748,-12360,8236,-10285,-32768,-32768,2025-02-17 11:34:47,0.0
11868,-10884,5800,-15134,-32768,-32768,2025-02-17 11:34:47,0.0
8952,-9940,5048,-21883,-32768,-32768,2025-02-17 11:34:47,0.0
5888,-5196,5512,-26474,-32768,-32768,2025-02-17 11:34:47,0.0
8760,-2496,7380,-30346,-32768,-20212,2025-02-17 11:34:47,0.0
11996,-1328,8524,-30470,-32768,-11584,2025-02-17 11:34:47,0.0
14480,-644,9644,-28021,-32768,-9004,2025-02-17 11:34:47,0.0
14956,128,9796,-23234,-32768,-7764,2025-02-17 11:34:47,0.0
15036,324,8960,-17245,-30796,-5542,2025-02-17 11:34:47,0.0
16372,-664,6712,-13446,-24542,-2095,2025-02-17 11:34:47,0.0
20732,-1640,5840,-10196,-19820,-460,2025-02-17 11:34:47,0.0
23400,-3196,4664,-7537,-16476,-608,2025-02-17 11:34:47,0.0
21600,-5044,2880,-5538,-12551,-1158,2025-02-17 11:34:47,0.0
19092,-6832,1404,-4615,-9775,-732,2025-02-17 11:34:47,0.0
18428,-7648,484,-3834,-7507,-406,2025-02-17 11:34:47,0.0
18216,-6240,800,-1616,397,-1777,2025-02-17 11:34:47,0.0
17756,-5128,1420,-979,1540,-1515,2025-02-17 11:34:47,0.0
17940,-4748,1936,-316,2726,-688,2025-02-17 11:34:47,0.0
18576,-4588,2632,130,2249,210,2025-02-17 11:34:47,0.0
18120,-5012,2788,457,1843,698,2025-02-17 11:34:47,0.0
18096,-5784,2584,369,1887,456,2025-02-17 11:34:47,0.0
18000,-5892,2900,74,1448,213,2025-02-17 11:34:47,0.0
18244,-5612,3052,-197,1148,-80,2025-02-17 11:34:47,0.0
18380,-5468,2996,-314,307,-155,2025-02-17 11:34:47,0.0
18012,-5772,3020,-253,-359,-191,2025-02-17 11:34:47,0.0
18296,-5464,2588,-271,16,-329,2025-02-17 11:34:47,0.0
17964,-5324,2644,-327,-118,-216,2025-02-17 11:34:47,0.0
18164,-5324,2636,-156,162,-100,2025-02-17 11:34:47,0.0
18068,-5672,2692,-182,133,-97,2025-02-17 11:34:47,0.0
18256,-5700,2368,-141,351,-143,2025-02-17 11:34:47,0.0
18192,-5660,2504,-130,323,-152,2025-02-17 11:34:47,0.0
18144,-5420,2876,-55,495,-140,2025-02-17 11:34:47,
18028,-5260,2764,-215,157,-152,2025-02-17 11:34:47,0.0
18216,-5460,2800,-104,155,-104,2025-02-17 11:34:47,0.0
18036,-5444,2744,-219,162,-97,2025-02-17 11:34:47,0.0
17956,-5308,2624,-196,20,-111,2025-02-17 11:34:47,0.0
17980,-5556,2596,-167,54,-58,2025-02-17 11:34:47,0.0
18116,-5780,2648,-192,-13,-127,2025-02-17 11:34:47,0.0
18256,-5808,2696,-175,29,-191,2025-02-17 11:34:47,0.0
18116,-5512,2488,-168,260,-218,2025-02-17 11:34:47,0.0
18092,-5256,2660,-96,274,-183,2025-02-17 11:34:47,0.0
17984,-5384,2572,-165,105,-79,2025-02-17 11:34:47,0.0
18064,-5764,2644,-157,128,-155,2025-02-17 11:34:47,0.0
18240,-5716,2564,-197,214,-235,2025-02-17 11:34:47,0.0
17996,-5424,2768,-148,173,-185,2025-02-17 11:34:48,0.0
17996,-5440,2628,-172,191,-124,2025-02-17 11:34:48,0.0
18268,-5552,2608,-147,223,-109,2025-02-17 11:34:48,0.0
17868,-5644,2588,-207,229,-101,2025-02-17 11:34:48,0.0
17992,-5420,2780,-225,160,-104,2025-02-17 11:34:48,0.0
18052,-5596,2472,-224,208,-41,2025-02-17 11:34:48,0.0
18148,-5608,2544,-181,222,-110,2025-02-17 11:34:48,0.0
18200,-5532,2676,-147,152,-119,2025-02-17 11:34:48,0.0
18124,-5584,2636,-208,157,-184,2025-02-17 11:34:48,0.0
17920,-5528,2584,-184,138,-147,2025-02-17 11:34:48,0.0
18036,-5516,2680,-191,173,-189,2025-02-17 11:34:48,0.0
18132,-5564,2560,-171,164,-158,2025-02-17 11:34:48,0.0
18016,-5632,2472,-159,199,-169,2025-02-17 11:34:48,0.0
18132,-5640,2632,-154,205,-163,2025-02-17 11:34:48,0.0
18112,-5552,2712,-173,163,-175,2025-02-17 11:34:48,0.0
18080,-5600,2512,-156,167,-160,2025-02-17 11:34:48,0.0
18092,-5520,2524,-187,167,-144,2025-02-17 11:34:48,0.0
17984,-5556,2612,-137,178,-146,2025-02-17 11:34:48,0.0
17936,-5612,2560,-161,153,-143,2025-02-17 11:34:48,0.0
17976,-5600,2736,-173,162,-142,2025-02-17 11:34:48,0.0
18240,-5624,2592,-166,171,-131,2025-02-17 11:34:48,0.0
18084,-5660,2604,-144,165,-166,2025-02-17 11:34:48,0.0
18068,-5616,2692,-208,161,-152,2025-02-17 11:34:48,0.0
18048,-5572,2576,-153,157,-179,2025-02-17 11:34:48,0.0
18108,-5588,2720,-160,171,-185,2025-02-17 11:34:48,0.0
17992,-5568,2544,-137,187,-174,2025-02-17 11:34:48,0.0
18108,-5552,2512,-156,178,-172,2025-02-17 11:34:48,0.0
18072,-5560,2624,-161,184,-190,2025-02-17 11:34:48,0.0
18052,-5520,2636,-174,157,-169,2025-02-17 11:34:48,0.0
18168,-5580,2692,-184,182,-211,2025-02-17 11:34:48,0.0
18036,-5524,2508,-155,190,-166,2025-02-17 11:34:48,0.0
18028,-5600,2636,-163,172,-181,2025-02-17 11:34:48,0.0
18128,-5580,2580,-167,180,-161,2025-02-17 11:34:48,0.0
18056,-5544,2660,-160,151,-171,2025-02-17 11:34:48,0.0
18104,-5640,2612,-153,167,-179,2025-02-17 11:34:48,0.0
18068,-5548,2592,-188,163,-157,2025-02-17 11:34:48,0.0
18080,-5520,2596,-159,151,-181,2025-02-17 11:34:48,0.0
18136,-5528,2544,-159,166,-156,2025-02-17 11:34:48,0.0
17916,-5532,2556,-159,176,-169,2025-02-17 11:34:48,0.0
18096,-5608,2544,-183,169,-182,2025-02-17 11:34:48,0.0
18064,-5632,2572,-136,161,-151,2025-02-17 11:34:48,0.0
18044,-5528,2644,-187,75,-170,2025-02-17 11:34:48,0.0
18096,-5496,2640,-199,201,-149,2025-02-17 11:34:48,0.0
18108,-5616,2580,-165,142,-169,2025-02-17 11:34:48,0.0
18104,-5612,2660,-142,184,-162,2025-02-17 11:34:48,0.0
18044,-5540,2672,-145,173,-152,2025-02-17 11:34:48,0.0
18064,-5524,2552,-174,164,-171,2025-02-17 11:34:48,0.0
18148,-5560,2652,-159,162,-148,2025-02-17 11:34:48,0.0
18024,-5648,2716,-156,180,-163,2025-02-17 11:34:48,0.0
18068,-5620,2492,-174,171,-166,2025-02-17 11:34:48,0.0
18064,-5672,2688,-140,174,-187,2025-02-17 11:34:48,0.0
18072,-5724,2356,-153,203,-160,2025-02-17 11:34:48,0.0
18036,-5580,2680,-150,185,-180,2025-02-17 11:34:48,0.0
18084,-5568,2524,-155,177,-171,2025-02-17 11:34:48,0.0
18088,-5492,2692,-126,163,-160,2025-02-17 11:34:48,0.0
18072,-5564,2472,-157,182,-185,2025-02-17 11:34:48,0.0
18060,-5552,2624,-157,167,-156,2025-02-17 11:34:48,0.0
18072,-5584,2752,-158,156,-153,2025-02-17 11:34:48,0.0
18116,-5520,2672,-159,158,-170,2025-02-17 11:34:48,0.0
18132,-5584,2576,-165,155,-193,2025-02-17 11:34:48,0.0
18124,-5528,2676,-160,181,-188,2025-02-17 11:34:49,0.0
18088,-5656,2588,-162,190,-160,2025-02-17 11:34:49,0.0
18016,-5556,2720,-167,202,-178,2025-02-17 11:34:49,0.0
18032,-5608,2496,-179,168,-165,2025-02-17 11:34:49,0.0
18012,-5584,2516,-158,180,-158,2025-02-17 11:34:49,0.0
18064,-5556,2520,-152,164,-168,2025-02-17 11:34:49,0.0
18072,-5580,2588,-146,173,-180,2025-02-17 11:34:49,0.0
18092,-5572,2584,-150,157,-189,2025-02-17 11:34:49,0.0
18124,-5572,2620,-146,176,-151,2025-02-17 11:34:49,0.0
18072,-5576,2556,-166,148,-164,2025-02-17 11:34:49,0.0
18140,-5632,2508,-161,170,-189,2025-02-17 11:34:49,0.0
18028,-5508,2656,-167,178,-150,2025-02-17 11:34:49,0.0
18116,-5668,2584,-163,174,-174,2025-02-17 11:34:49,0.0
17948,-5548,2660,-158,163,-183,2025-02-17 11:34:49,0.0
18116,-5632,2604,-177,167,-194,2025-02-17 11:34:49,0.0
18112,-5456,2660,-160,175,-168,2025-02-17 11:34:49,0.0
18116,-5528,2548,-152,172,-180,2025-02-17 11:34:49,0.0
18024,-5664,2528,-165,164,-171,2025-02-17 11:34:49,0.0
18060,-5600,2592,-175,148,-193,2025-02-17 11:34:49,0.0
18072,-5592,2568,-151,181,-181,2025-02-17 11:34:49,0.0
17928,-5632,2616,-181,149,-187,2025-02-17 11:34:49,0.0
18100,-5576,2588,-177,224,-177,2025-02-17 11:34:49,0.0
18096,-5704,2572,-160,108,-189,2025-02-17 11:34:49,0.0
18052,-5544,2632,-175,156,-161,2025-02-17 11:34:49,0.0
17980,-5552,2592,-158,181,-153,2025-02-17 11:34:49,0.0
17980,-5604,2636,-161,207,-177,2025-02-17 11:34:49,0.0
18124,-5572,2616,-198,157,-182,2025-02-17 11:34:49,0.0
18052,-5584,2592,-154,140,-180,2025-02-17 11:34:49,
18052,-5576,2564,-154,173,-159,2025-02-17 11:34:49,0.0
18116,-5624,2540,-173,182,-188,2025-02-17 11:34:49,0.0
18104,-5568,2748,-154,166,-177,2025-02-17 11:34:49,0.0
18132,-5532,2428,-153,161,-156,2025-02-17 11:34:49,0.0
18072,-5552,2560,-189,167,-165,2025-02-17 11:34:49,0.0
18076,-5592,2584,-154,162,-177,2025-02-17 11:34:49,0.0
18184,-5700,2536,-162,170,-176,2025-02-17 11:34:49,0.0
18100,-5524,2560,-134,147,-187,2025-02-17 11:34:49,0.0
18092,-5576,2700,-165,181,-180,2025-02-17 11:34:49,0.0
18016,-5616,2468,-217,217,-140,2025-02-17 11:34:49,0.0
18004,-5664,2616,-198,173,-181,2025-02-17 11:34:49,0.0
18096,-5560,2464,-207,160,-175,2025-02-17 11:34:49,0.0
18008,-5464,2636,-175,171,-164,2025-02-17 11:34:49,0.0
18124,-5680,2576,-171,149,-174,2025-02-17 11:34:49,0.0
18180,-5552,2480,-169,178,-194,2025-02-17 11:34:49,0.0
18040,-5588,2540,-161,197,-199,2025-02-17 11:34:49,0.0
18200,-5560,2492,-150,197,-191,2025-02-17 11:34:49,0.0
17836,-5560,2532,-148,308,-199,2025-02-17 11:34:49,0.0
18052,-5552,2600,-170,359,-147,2025-02-17 11:34:49,0.0
18108,-5616,2492,-145,275,-390,2025-02-17 11:34:49,0.0
17556,-5356,2552,-114,650,-441,2025-02-17 11:34:49,0.0
18124,-5448,2540,-201,439,-297,2025-02-17 11:34:49,0.0
18064,-5536,2776,-151,406,-158,2025-02-17 11:34:49,0.0
17760,-5392,2148,-221,1041,-203,2025-02-17 11:34:49,0.0
17592,-5332,2524,-328,1140,6,2025-02-17 11:34:49,0.0
17504,-5472,2380,-180,2028,-128,2025-02-17 11:34:49,0.0
17220,-5124,2376,-425,3735,96,2025-02-17 11:34:49,0.0
17668,-5236,1824,-4031,8380,-749,2025-02-17 11:34:49,0.0
16644,-4968,4244,-4047,7009,-1231,2025-02-17 11:34:49,0.0
17236,-5256,4244,-2763,5649,-3580,2025-02-17 11:34:49,0.0
15860,-5152,3832,-1261,4785,-3002,2025-02-17 11:34:49,0.0
17496,-5504,2988,-532,7184,-1438,2025-02-17 11:34:49,0.0
20552,-7900,2776,-1337,7250,-2302,2025-02-17 11:34:49,0.0
23300,-6984,7044,641,3744,-5654,2025-02-17 11:34:50,0.0
22552,-6740,4868,185,1983,-6052,2025-02-17 11:34:50,0.0
22152,-5336,6700,-126,1477,-5592,2025-02-17 11:34:50,0.0
23872,-4840,5788,744,4259,-6466,2025-02-17 11:34:50,0.0
26448,-4976,7664,874,8216,-7915,2025-02-17 11:34:50,0.0
25760,-6336,7520,204,12588,-7053,2025-02-17 11:34:50,0.0
25720,-7072,7188,-1971,18043,-3358,2025-02-17 11:34:50,0.0
22792,-5460,9872,-4206,17267,672,2025-02-17 11:34:50,0.0
26316,-3704,9752,-1412,17850,1692,2025-02-17 11:34:50,0.0
22424,-3460,6664,-1333,14157,-1310,2025-02-17 11:34:50,0.0
21260,-2244,8148,4841,15226,-5980,2025-02-17 11:34:50,0.0
29988,-1032,13456,10854,21397,7443,2025-02-17 11:34:50,0.0
20656,-5212,12760,13893,26751,12232,2025-02-17 11:34:50,0.0
24676,-7648,9948,13830,25685,8514,2025-02-17 11:34:50,0.0
26556,-5904,7208,4006,22411,262,2025-02-17 11:34:50,0.0
22644,-4780,10664,-992,16574,-3038,2025-02-17 11:34:50,0.0
20068,-6648,14792,-2672,17183,-1438,2025-02-17 11:34:50,0.0
19256,-8204,20052,-3029,16639,973,2025-02-17 11:34:50,0.0
16344,-7900,25784,-556,21156,2806,2025-02-17 11:34:50,0.0
12664,-8532,27736,3477,30394,5249,2025-02-17 11:34:50,0.0
9672,-8696,26500,5508,32767,10030,2025-02-17 11:34:50,0.0
10820,-7860,27344,7972,32767,13241,2025-02-17 11:34:50,0.0
8724,-5984,21116,9204,32767,13156,2025-02-17 11:34:50,0.0
7908,-4156,20100,8667,32767,12784,2025-02-17 11:34:50,0.0
9652,-4040,21648,7164,32767,10340,2025-02-17 11:34:50,0.0
5012,-5664,20672,6774,32767,8218,2025-02-17 11:34:50,0.0
5316,-5156,20248,6305,32767,6432,2025-02-17 11:34:50,0.0
4888,-4592,15460,4776,32767,4673,2025-02-17 11:34:50,0.0
260,-4280,11508,654,32767,2954,2025-02-17 11:34:50,0.0
556,-3116,9492,-3474,32767,1456,2025-02-17 11:34:50,0.0
-4696,-368,13720,-5460,32767,1491,2025-02-17 11:34:50,0.0
56,-2344,16536,-4249,32767,155,2025-02-17 11:34:50,0.0
-5392,-2548,15944,-2045,31611,-58,2025-02-17 11:34:50,0.0
-2920,-668,19544,9636,21871,-2216,2025-02-17 11:34:50,0.0
-6932,-3512,6828,11233,11080,-2091,2025-02-17 11:34:50,0.0
-7888,-2260,8204,7740,-325,1222,2025-02-17 11:34:50,0.0
-8508,-2076,9376,5263,-2732,2943,2025-02-17 11:34:50,0.0
-8120,-2772,10904,3950,819,3738,2025-02-17 11:34:50,0.0
-7568,-1796,11504,2834,6979,4528,2025-02-17 11:34:50,0.0
-8448,-228,11628,3167,16019,5809,2025-02-17 11:34:50,0.0
-6340,-220,9260,2500,28190,5714,2025-02-17 11:34:50,0.0
-4632,-344,9128,2096,32767,4414,2025-02-17 11:34:50,0.0
-3016,-872,9940,-26,32767,2849,2025-02-17 11:34:50,0.0
-5472,-2136,11084,-623,32767,2414,2025-02-17 11:34:50,0.0
-6760,-3956,5392,-3064,28264,2781,2025-02-17 11:34:50,0.0
-4852,-4260,5048,-7845,19793,1852,2025-02-17 11:34:50,0.0
-2972,-1644,15156,-5329,6571,654,2025-02-17 11:34:50,0.0
-5212,-744,9616,-2961,-8878,568,2025-02-17 11:34:50,0.0
-5972,-1432,8920,-3842,-17127,726,2025-02-17 11:34:50,0.0
-4736,-1588,10104,-3953,-22822,456,2025-02-17 11:34:50,0.0
-6124,-1076,9508,-3954,-25278,-7,2025-02-17 11:34:50,0.0
-6848,-884,8232,-4867,-21349,-100,2025-02-17 11:34:50,0.0
-8124,-480,10872,-4061,-14315,53,2025-02-17 11:34:50,0.0
-10948,64,11388,-1373,-3564,2210,2025-02-17 11:34:50,0.0
-10156,-1308,7816,8,11444,4564,2025-02-17 11:34:50,0.0
-6164,-2620,8048,313,27816,3404,2025-02-17 11:34:50,0.0
-5364,-3412,7016,519,32767,1065,2025-02-17 11:34:50,0.0
-7400,-2876,6852,884,32767,340,2025-02-17 11:34:50,0.0
-6444,-2888,3804,-249,32767,731,2025-02-17 11:34:50,0.0
-8864,-2296,1384,-2891,32767,2046,2025-02-17 11:34:50,0.0
2120,544,22064,-11084,32767,3879,2025-02-17 11:34:50,0.0
-5440,-2576,11996,-12770,32767,4662,2025-02-17 11:34:50,0.0
-2840,-3172,19108,-3554,32767,848,2025-02-17 11:34:50,0.0
-7532,-3736,9524,1713,10871,-1217,2025-02-17 11:34:50,0.0
-17760,-964,-3596,1983,1118,-1058,2025-02-17 11:34:51,0.0
-17328,-804,-3280,1666,-657,-521,2025-02-17 11:34:51,0.0
-17188,-1072,-4416,-606,-1540,120,2025-02-17 11:34:51,
-15504,-976,-3508,-3534,-2214,1528,2025-02-17 11:34:51,0.0
-13148,-1576,-940,-4274,-1681,1483,2025-02-17 11:34:51,0.0
-11284,-2252,1888,-2428,-1190,595,2025-02-17 11:34:51,0.0
-12356,-2932,1268,235,-563,116,2025-02-17 11:34:51,0.0
-11564,-2888,880,3647,1436,-37,2025-02-17 11:34:51,0.0
-12620,-3076,-3760,4466,5823,-982,2025-02-17 11:34:51,0.0
-13496,-1708,-4048,2634,7177,-1781,2025-02-17 11:34:51,0.0
-16292,-208,-3324,536,8036,-473,2025-02-17 11:34:51,0.0
-12900,312,-3952,-1165,8317,892,2025-02-17 11:34:51,0.0
-10328,-104,-2488,-1261,2792,-3531,2025-02-17 11:34:51,0.0
-14320,1016,-2920,-665,-1297,-4632,2025-02-17 11:34:51,0.0
-14084,3284,-4776,-965,-2644,-3868,2025-02-17 11:34:51,0.0
-19276,2820,-5668,-3026,1231,741,2025-02-17 11:34:51,0.0
-9484,2888,-3872,-5791,128,1671,2025-02-17 11:34:51,0.0
-10180,3320,-2752,-7182,-2972,-1851,2025-02-17 11:34:51,0.0
-11492,1820,-2752,-7836,-1166,-2221,2025-02-17 11:34:51,0.0
-9464,600,-1924,-7072,2864,-3114,2025-02-17 11:34:51,0.0
-11040,-364,-4476,-7839,5679,-4350,2025-02-17 11:34:51,0.0
-13420,-772,-4216,-9300,9081,-4446,2025-02-17 11:34:51,0.0
-17652,-1868,-4444,-9931,12165,-2382,2025-02-17 11:34:51,0.0
-21172,-1612,-3116,-10213,12767,2243,2025-02-17 11:34:51,0.0
-17664,-320,-3324,-10316,9156,4766,2025-02-17 11:34:51,0.0
-14104,2012,-4252,-12050,1838,2788,2025-02-17 11:34:51,0.0
-13164,2004,-4564,-14061,-5717,431,2025-02-17 11:34:51,0.0
-12948,168,3148,-13109,-7537,-444,2025-02-17 11:34:51,0.0
-12772,-1328,2976,-8764,-4392,1003,2025-02-17 11:34:51,0.0
-10368,-384,-280,-7125,-2009,1273,2025-02-17 11:34:51,0.0
-10508,216,816,-6317,435,873,2025-02-17 11:34:51,0.0
-12744,-28,-1388,-6052,2494,1200,2025-02-17 11:34:51,0.0
-12060,116,-1512,-7905,3488,320,2025-02-17 11:34:51,0.0
-14072,1088,-752,-9592,2372,-1026,2025-02-17 11:34:51,0.0
-14200,1172,-468,-10009,1499,-929,2025-02-17 11:34:51,0.0
-12192,956,-644,-9646,805,-843,2025-02-17 11:34:51,0.0
-10752,1412,-2024,-9086,2201,-1140,2025-02-17 11:34:51,0.0
-9276,1892,-1184,-7338,3506,-3388,2025-02-17 11:34:51,0.0
-12440,1560,-2160,-6983,4911,-3658,2025-02-17 11:34:51,0.0
-13632,1288,-1584,-7014,5555,-3688,2025-02-17 11:34:51,0.0
-14236,1232,-984,-6804,3563,-4262,2025-02-17 11:34:51,0.0
-15100,1240,-572,-6583,-330,-4113,2025-02-17 11:34:51,0.0
-14232,1340,-352,-6132,-2017,-3501,2025-02-17 11:34:51,0.0
-13108,1036,-1716,-5030,-2537,-2938,2025-02-17 11:34:51,0.0
-17824,3328,-8852,-3783,8025,-3973,2025-02-17 11:34:51,0.0
-16172,4252,-9824,-4082,5963,-4781,2025-02-17 11:34:51,0.0
-13080,1352,-13392,-6504,2429,-5439,2025-02-17 11:34:51,0.0
-10256,-1084,-12256,-8249,-2227,-6709,2025-02-17 11:34:51,0.0
-10284,-940,-11432,-10408,-5251,-8595,2025-02-17 11:34:51,0.0
-9084,-1132,-9804,-12135,-4927,-11515,2025-02-17 11:34:51,0.0
-10468,-2696,-7904,-12290,-3750,-14069,2025-02-17 11:34:52,0.0
-10340,-4376,-8208,-12765,-4388,-14926,2025-02-17 11:34:52,0.0
-11464,-5440,-5424,-12117,-6184,-13864,2025-02-17 11:34:52,0.0
-11116,-4132,-5624,-11951,-5280,-11783,2025-02-17 11:34:52,0.0
-10544,-6164,-1228,-9722,-2098,-9496,2025-02-17 11:34:52,0.0
-7704,-3228,-3016,-8366,84,-9349,2025-02-17 11:34:52,0.0
-7616,-732,-3804,-7627,-542,-10326,2025-02-17 11:34:52,0.0
-9384,-476,-4216,-6889,-1973,-10080,2025-02-17 11:34:52,0.0
-11092,-1484,-3780,-6081,-4189,-8869,2025-02-17 11:34:52,0.0
-11012,-3708,-3772,-5390,-6509,-7224,2025-02-17 11:34:52,0.0
-11076,-4256,-4928,-4663,-8852,-6342,2025-02-17 11:34:52,0.0
-9052,-3736,-5596,-4985,-10740,-5289,2025-02-17 11:34:52,0.0
-9324,-3004,-5984,-6120,-8798,-5921,2025-02-17 11:34:52,0.0
-10616,-2280,-4408,-7525,-2796,-5929,2025-02-17 11:34:52,0.0
-10492,-2868,-2664,-7638,1505,-6615,2025-02-17 11:34:52,0.0
-10460,-4052,-2052,-7829,2942,-8303,2025-02-17 11:34:52,0.0
-12200,-4516,-2188,-7611,2180,-9816,2025-02-17 11:34:52,0.0
-12580,-4880,-3184,-7367,1023,-10528,2025-02-17 11:34:52,0.0
-13472,-5796,-2216,-7228,-276,-9947,2025-02-17 11:34:52,0.0
-13796,-5600,-1012,-7284,-982,-7871,2025-02-17 11:34:52,0.0
-12748,-5140,-1132,-7234,-1335,-4767,2025-02-17 11:34:52,0.0
-11604,-5344,-848,-7182,-1535,-2788,2025-02-17 11:34:52,0.0
-12584,-5784,204,-4720,-2200,340,2025-02-17 11:34:52,0.0
-12532,-4980,360,-1865,-2200,5146,2025-02-17 11:34:52,0.0
-10468,-4320,584,24,-2015,7592,2025-02-17 11:34:52,0.0
-10316,-3968,-284,284,-2570,6395,2025-02-17 11:34:52,0.0
-11352,-5252,-3552,-6,-3198,5817,2025-02-17 11:34:52,0.0
-12040,-5352,-5712,433,-4472,5733,2025-02-17 11:34:52,0.0
-12096,-3892,-6868,-1635,-3246,4806,2025-02-17 11:34:52,0.0
-11688,-3628,-4608,-2257,1802,2432,2025-02-17 11:34:52,0.0
-14116,-4184,-3492,-4269,7839,-2000,2025-02-17 11:34:52,0.0
-17328,-3656,-824,-4593,8615,-3267,2025-02-17 11:34:52,0.0
-17988,-2780,-548,-4359,6908,-4820,2025-02-17 11:34:52,0.0
-16380,-4384,-1364,-3888,2370,-7908,2025-02-17 11:34:52,0.0
-19076,-6124,-6024,-3452,58,-9947,2025-02-17 11:34:52,0.0
-21848,-6444,-7532,-3393,141,-8374,2025-02-17 11:34:52,0.0
-19244,-9052,-9788,-3370,-826,-6589,2025-02-17 11:34:52,0.0
-20260,-10272,-11944,-4054,-2111,-4132,2025-02-17 11:34:52,0.0
-19348,-7968,-10692,-4595,-3886,1175,2025-02-17 11:34:52,0.0
-14552,-3188,-8984,-3604,-7698,4050,2025-02-17 11:34:52,0.0
-10672,-2128,-8600,-4239,-10461,4914,2025-02-17 11:34:52,0.0
-8140,-1012,-6060,-3356,-9983,4998,2025-02-17 11:34:52,0.0
-7892,-596,-4544,-968,-5866,5034,2025-02-17 11:34:52,0.0
-10148,-1176,-3564,1029,2442,5012,2025-02-17 11:34:52,0.0
-12368,-2492,-4368,1167,6893,5383,2025-02-17 11:34:52,0.0
-14884,-3844,-5180,1499,6998,6099,2025-02-17 11:34:52,0.0
-14928,-3776,-5976,1699,3787,6325,2025-02-17 11:34:52,0.0
-14740,-2748,-6632,1780,160,7146,2025-02-17 11:34:52,0.0
-12388,-1608,-6228,1738,-1036,8150,2025-02-17 11:34:52,0.0
-9376,-796,-5148,2126,-1776,7514,2025-02-17 11:34:52,0.0
-8064,-364,-4736,1864,-3056,5908,2025-02-17 11:34:52,0.0
-7748,-336,-3964,1923,-4503,3997,2025-02-17 11:34:52,0.0
-7560,-96,-4040,2634,-5138,2166,2025-02-17 11:34:52,
-7796,-404,-4108,2599,-4459,1092,2025-02-17 11:34:52,0.0
-7568,-752,-2824,2937,-2984,811,2025-02-17 11:34:52,0.0
-6060,-1060,-3212,3700,-1400,520,2025-02-17 11:34:52,0.0
-6588,-824,-1720,3916,-1317,364,2025-02-17 11:34:52,0.0
-6500,232,-2472,3757,-138,8,2025-02-17 11:34:52,0.0
-7244,592,-1916,3337,1514,-843,2025-02-17 11:34:52,0.0
-7580,724,-1464,3282,827,-1831,2025-02-17 11:34:52,0.0
-8560,828,-1164,3674,-443,-2793,2025-02-17 11:34:52,0.0
-9188,252,-972,4161,-1342,-3450,2025-02-17 11:34:52,0.0
-10312,-156,-1780,4478,-856,-4015,2025-02-17 11:34:53,0.0
-11352,400,-3880,3744,1162,-3934,2025-02-17 11:34:53,0.0
-14784,-828,-4308,3425,5719,-3237,2025-02-17 11:34:53,0.0
-17336,-2976,-4412,3075,9256,-1339,2025-02-17 11:34:53,0.0
-19496,-6492,-2832,2505,9904,655,2025-02-17 11:34:53,0.0
-21724,-6856,-2044,2185,7758,3321,2025-02-17 11:34:53,0.0
-20468,-3760,-996,2942,1854,5668,2025-02-17 11:34:53,0.0
-18484,-1580,-720,4402,-2428,7088,2025-02-17 11:34:53,0.0
-16972,-1800,-880,5525,-1849,7316,2025-02-17 11:34:53,0.0
-16424,-3008,-6272,5563,2995,7458,2025-02-17 11:34:53,0.0
-19072,-3584,-8696,4374,8541,7760,2025-02-17 11:34:53,0.0
-19184,-716,-12220,3627,8814,8683,2025-02-17 11:34:53,0.0
-17112,4676,-14532,3756,7735,8964,2025-02-17 11:34:53,0.0
-14104,6000,-15076,5607,6984,8147,2025-02-17 11:34:53,0.0
-8640,4924,-13812,6979,2340,5341,2025-02-17 11:34:53,0.0
-6340,-308,-11352,6423,-4054,1102,2025-02-17 11:34:53,0.0
-9764,-2700,-4332,6128,-5050,-937,2025-02-17 11:34:53,0.0
-11012,-3956,-3092,6405,-4609,-1841,2025-02-17 11:34:53,0.0
-12144,-3384,-5704,5696,-5217,-1669,2025-02-17 11:34:53,0.0
-11024,-2004,-9380,3279,-5550,-829,2025-02-17 11:34:53,0.0
-8448,16,-10308,-507,-3627,-743,2025-02-17 11:34:53,0.0
-8076,784,-8916,-3282,872,-2327,2025-02-17 11:34:53,0.0
-10468,308,-6500,-3554,5817,-4181,2025-02-17 11:34:53,0.0
-12384,-8,-5716,-2972,6254,-5130,2025-02-17 11:34:53,0.0
-12668,-132,-6264,-2745,2358,-5214,2025-02-17 11:34:53,0.0
-11292,-268,-7612,-3494,-2576,-5069,2025-02-17 11:34:53,0.0
-10360,-648,-6456,-4194,-5241,-4843,2025-02-17 11:34:53,0.0
-10044,-1476,-5420,-4264,-5823,-4622,2025-02-17 11:34:53,0.0
-9848,-1836,-5896,-4708,-5822,-3853,2025-02-17 11:34:53,0.0
-9612,-2556,-6096,-4891,-5753,-2641,2025-02-17 11:34:53,0.0
-7840,-2336,-6724,-6207,-4848,-2321,2025-02-17 11:34:53,0.0
-8012,-1828,-8040,-7832,-3273,-2548,2025-02-17 11:34:53,0.0
-8448,-1344,-6744,-9499,-152,-2935,2025-02-17 11:34:53,0.0
-10016,-544,-5064,-10400,2747,-4107,2025-02-17 11:34:53,0.0
-12188,-320,-4248,-11195,3631,-5074,2025-02-17 11:34:53,0.0
-14032,-724,-3736,-11738,3495,-5984,2025-02-17 11:34:53,0.0
-13496,-2136,-5544,-12699,1334,-7092,2025-02-17 11:34:53,0.0
-13332,-3344,-6492,-13326,-2612,-7528,2025-02-17 11:34:53,0.0
-12132,-3268,-7472,-13969,-4621,-6332,2025-02-17 11:34:53,0.0
-12332,-1808,-5268,-13914,-3921,-5293,2025-02-17 11:34:53,0.0
-11684,-1140,-5108,-13404,-2352,-4179,2025-02-17 11:34:53,0.0
-11984,-724,-5396,-12674,-1382,-3331,2025-02-17 11:34:53,0.0
-12180,-340,-6408,-12611,-1246,-2785,2025-02-17 11:34:53,0.0
-11720,124,-6160,-13445,-2209,-2671,2025-02-17 11:34:53,0.0
-11012,344,-5848,-14761,-2764,-3242,2025-02-17 11:34:53,0.0
-8820,336,-4408,-16807,-3514,-4664,2025-02-17 11:34:53,0.0
-8240,-20,-4824,-18432,-4707,-5997,2025-02-17 11:34:53,0.0
-8536,340,-7056,-19733,-4050,-6972,2025-02-17 11:34:53,0.0
-9344,668,-8412,-20067,1215,-9074,2025-02-17 11:34:53,0.0
-13296,-2112,-12348,-20571,6731,-10933,2025-02-17 11:34:53,0.0
-17628,-5308,-13756,-20897,7088,-10929,2025-02-17 11:34:53,0.0
-17420,-6992,-13176,-21006,3944,-10379,2025-02-17 11:34:53,0.0
-15688,-5636,-13436,-20989,726,-9588,2025-02-17 11:34:53,0.0
-12824,-2440,-9372,-21787,-1576,-8774,2025-02-17 11:34:53,0.0
-11272,-1972,-5524,-21430,-698,-8080,2025-02-17 11:34:53,0.0
-11352,-2068,-4856,-20492,-652,-7569,2025-02-17 11:34:53,0.0
-11628,-176,-4612,-19129,-1284,-6820,2025-02-17 11:34:53,0.0
-11096,1956,-5724,-18203,-2216,-6412,2025-02-17 11:34:53,0.0
-11068,2312,-6236,-17059,-3221,-6220,2025-02-17 11:34:53,0.0
-9236,2328,-9132,-18100,-3483,-6370,2025-02-17 11:34:53,0.0
-7776,1756,-9200,-19135,-3048,-7521,2025-02-17 11:34:53,0.0
-8060,920,-8108,-18518,-1280,-7893,2025-02-17 11:34:54,0.0
-8356,-200,-8608,-17550,1561,-8287,2025-02-17 11:34:54,0.0
-9244,-552,-9456,-17491,3346,-8638,2025-02-17 11:34:54,0.0
-10320,-1140,-9872,-18874,3499,-9586,2025-02-17 11:34:54,0.0
-12024,-1888,-9272,-19829,2490,-9819,2025-02-17 11:34:54,0.0
-12332,-2284,-9484,-20671,811,-9890,2025-02-17 11:34:54,0.0
-11800,-2156,-9648,-21988,-1108,-10145,2025-02-17 11:34:54,0.0
-11816,-2048,-9644,-23400,-1544,-10300,2025-02-17 11:34:54,0.0
-11300,-2188,-8228,-24290,-1093,-10304,2025-02-17 11:34:54,0.0
-11688,-2060,-8376,-24713,-271,-10025,2025-02-17 11:34:54,0.0
-11924,-1828,-8124,-25172,67,-9792,2025-02-17 11:34:54,0.0
-11904,-2052,-7288,-25353,-452,-9632,2025-02-17 11:34:54,0.0
-11992,-2468,-7036,-25585,-1417,-9474,2025-02-17 11:34:54,0.0
-12128,-2644,-6872,-25674,-1679,-9339,2025-02-17 11:34:54,0.0
-11684,-2508,-6572,-25776,-2058,-9098,2025-02-17 11:34:54,0.0
-11828,-2344,-6564,-25684,-2508,-9025,2025-02-17 11:34:54,0.0
-11480,-1440,-7428,-25612,-2692,-8888,2025-02-17 11:34:54,0.0
-10440,-252,-7400,-25359,-2530,-9238,2025-02-17 11:34:54,0.0
-9040,660,-6564,-24461,-1661,-10292,2025-02-17 11:34:54,0.0
-9196,660,-6052,-23021,-1188,-11629,2025-02-17 11:34:54,0.0
-9968,0,-5888,-21799,-521,-12018,2025-02-17 11:34:54,0.0
-10476,-324,-5756,-20214,130,-12536,2025-02-17 11:34:54,0.0
-10756,-1240,-5716,-18683,-63,-12710,2025-02-17 11:34:54,0.0
-11296,-2592,-6288,-17946,-570,-12591,2025-02-17 11:34:54,0.0
-11696,-3372,-5968,-17519,-896,-11880,2025-02-17 11:34:54,0.0
-11120,-1260,-6744,-17218,-215,-10691,2025-02-17 11:34:54,0.0
-11000,-412,-8120,-17071,1520,-9837,2025-02-17 11:34:54,0.0
-11984,-364,-7564,-16483,3716,-9028,2025-02-17 11:34:54,0.0
-13544,-1164,-7468,-15694,5042,-8015,2025-02-17 11:34:54,0.0
-14296,-1364,-7136,-14903,5214,-7119,2025-02-17 11:34:54,
-14288,-1392,-6900,-14309,3667,-6614,2025-02-17 11:34:54,0.0
-13444,-1668,-6904,-14067,515,-6543,2025-02-17 11:34:54,0.0
-11928,-1748,-6264,-13669,-2888,-6938,2025-02-17 11:34:54,0.0
-10404,-1696,-5716,-13002,-3676,-7353,2025-02-17 11:34:54,0.0
-9296,-1136,-4920,-12416,-3709,-7858,2025-02-17 11:34:54,0.0
-8852,-684,-3964,-11783,-3729,-8455,2025-02-17 11:34:54,0.0
-9192,-820,-3564,-11433,-3462,-8983,2025-02-17 11:34:54,0.0
-9956,-480,-2636,-10545,-2482,-9199,2025-02-17 11:34:54,0.0
-10996,-1424,-1212,-8562,-1230,-8753,2025-02-17 11:34:54,0.0
-13056,-1328,-5468,-8164,1457,-7738,2025-02-17 11:34:54,0.0
-15764,-1188,-8944,-9973,4984,-6865,2025-02-17 11:34:54,0.0
-18820,-1316,-9520,-11137,7405,-5772,2025-02-17 11:34:54,0.0
-17560,-592,-6308,-10859,6539,-4152,2025-02-17 11:34:54,0.0
-15120,-1792,-4540,-10088,-508,-4225,2025-02-17 11:34:54,0.0
-12124,-2056,-4192,-9385,-5287,-3678,2025-02-17 11:34:54,0.0
-9024,-2268,-4764,-7925,-6695,-5838,2025-02-17 11:34:54,0.0
-10220,-3344,-6056,-7691,-4765,-6412,2025-02-17 11:34:54,0.0
-9544,-5052,-6260,-7798,-2416,-6371,2025-02-17 11:34:54,0.0
-9760,-5104,-5584,-8254,-982,-5735,2025-02-17 11:34:54,0.0
-9536,-5064,-5528,-8247,-314,-5658,2025-02-17 11:34:54,0.0
-10124,-3988,-5504,-7857,1632,-5715,2025-02-17 11:34:54,0.0
-11244,-2532,-5756,-7524,3905,-6094,2025-02-17 11:34:54,0.0
-12692,-1884,-6432,-7398,5274,-6837,2025-02-17 11:34:54,0.0
-14296,-2744,-6500,-7420,5008,-7664,2025-02-17 11:34:54,0.0
-14420,-3696,-6008,-7414,3197,-7974,2025-02-17 11:34:54,0.0
-14388,-4600,-5156,-6502,524,-8129,2025-02-17 11:34:54,0.0
-13216,-4764,-4424,-5354,-3129,-7667,2025-02-17 11:34:54,0.0
-11432,-4548,-4200,-4175,-4959,-7081,2025-02-17 11:34:54,0.0
-10760,-4008,-4048,-3432,-5005,-6405,2025-02-17 11:34:54,0.0
-10248,-3696,-3088,-2499,-3597,-6061,2025-02-17 11:34:54,0.0
-10536,-3928,-2668,-1769,-3079,-5451,2025-02-17 11:34:54,0.0
-11284,-4284,-2584,-1504,-2365,-4463,2025-02-17 11:34:55,0.0
-11564,-4372,-1944,-1166,-1362,-3063,2025-02-17 11:34:55,0.0
-11452,-4472,-2036,-745,-659,-1736,2025-02-17 11:34:55,0.0
-11472,-4016,-2172,-495,-237,-678,2025-02-17 11:34:55,0.0
-11104,-3500,-2552,-900,104,-52,2025-02-17 11:34:55,0.0
-11068,-3532,-2844,-1278,568,238,2025-02-17 11:34:55,0.0
-11164,-3428,-3488,-1533,945,141,2025-02-17 11:34:55,0.0
-11896,-2616,-3248,-1865,914,-143,2025-02-17 11:34:55,0.0
-12500,-1908,-3444,-2038,577,-707,2025-02-17 11:34:55,0.0
-13132,-1592,-4380,-2698,-183,-2107,2025-02-17 11:34:55,0.0
-13940,-1912,-4780,-2993,-1209,-3026,2025-02-17 11:34:55,0.0
-15088,-1956,-5744,-3419,-2164,-3624,2025-02-17 11:34:55,0.0
-15708,-2296,-5744,-4242,-2946,-4440,2025-02-17 11:34:55,0.0
-16768,-2832,-4000,-4958,-3348,-5341,2025-02-17 11:34:55,0.0
-17168,-3828,-2096,-5153,-3297,-5978,2025-02-17 11:34:55,0.0
-17024,-4576,-1308,-4876,-3459,-5727,2025-02-17 11:34:55,0.0
-16136,-5152,-1320,-4969,-3668,-4329,2025-02-17 11:34:55,0.0
-15260,-10672,-7340,-5111,-2676,-3545,2025-02-17 11:34:55,0.0
-20712,-8768,-9768,-5748,291,-2286,2025-02-17 11:34:55,0.0
-18536,-8412,-7752,-6454,2568,-2188,2025-02-17 11:34:55,0.0
-18412,-10840,-9692,-6353,394,-2399,2025-02-17 11:34:55,0.0
-16996,-10732,-8904,-5747,-4566,1397,2025-02-17 11:34:55,0.0
-12416,-7624,-8428,-4793,-5145,3655,2025-02-17 11:34:55,0.0
-8760,-3932,-8060,-5367,-4105,4108,2025-02-17 11:34:55,0.0
-5460,-1492,-7372,-5485,-3896,3364,2025-02-17 11:34:55,0.0
-6620,-352,-4768,-3879,-4124,2601,2025-02-17 11:34:55,0.0
-10036,472,-6872,-1564,-3030,2668,2025-02-17 11:34:55,0.0
-11316,-256,-7924,-905,-419,2744,2025-02-17 11:34:55,0.0
-12688,-2128,-6612,409,219,2298,2025-02-17 11:34:55,0.0
-12792,-3544,-6268,1200,51,2623,2025-02-17 11:34:55,0.0
-12420,-4552,-5336,1639,-90,3426,2025-02-17 11:34:55,0.0
-10900,-4260,-5084,2477,7,4476,2025-02-17 11:34:55,0.0
-10212,-3568,-5476,3143,533,5318,2025-02-17 11:34:55,0.0
-9868,-2900,-5364,3240,281,5915,2025-02-17 11:34:55,0.0
-9800,-2260,-4988,2887,-738,6077,2025-02-17 11:34:55,0.0
-9560,-948,-3748,2584,-2060,5774,2025-02-17 11:34:55,0.0
-9196,0,-3756,2289,-3041,5380,2025-02-17 11:34:55,0.0
-8388,128,-3828,1803,-2949,4581,2025-02-17 11:34:55,0.0
-8060,404,-3420,1310,-1595,3628,2025-02-17 11:34:55,0.0
-7908,652,-2812,1028,-1,2557,2025-02-17 11:34:55,0.0
-8540,776,-1968,1212,920,1644,2025-02-17 11:34:55,0.0
-19980,-1048,-1004,2883,-473,3658,2025-02-17 11:34:55,0.0
-19720,-1020,-2132,4045,-1914,3658,2025-02-17 11:34:55,0.0
-18512,528,-3616,4487,-889,4113,2025-02-17 11:34:55,0.0
-18536,-60,-7056,5412,-914,4324,2025-02-17 11:34:55,0.0
-19708,1968,-10008,5456,-757,5165,2025-02-17 11:34:55,0.0
-17440,4024,-12416,5401,-1222,5164,2025-02-17 11:34:55,0.0
-12160,4004,-15020,4389,-2739,2977,2025-02-17 11:34:56,0.0
-7468,812,-13208,1395,-6339,-1206,2025-02-17 11:34:56,0.0
-5316,-1652,-6640,-325,-7410,-5195,2025-02-17 11:34:56,0.0
-6236,-2888,-3604,-274,-5548,-8019,2025-02-17 11:34:56,0.0
-7832,-3560,-6204,-524,-2159,-9370,2025-02-17 11:34:56,0.0
-10212,-3760,-6960,-826,1462,-9059,2025-02-17 11:34:56,0.0
-12432,-3284,-5864,-1151,3379,-7133,2025-02-17 11:34:56,0.0
-12408,-2556,-5804,-1638,3536,-5762,2025-02-17 11:34:56,0.0
-13992,-3188,-7992,-2625,5364,-5341,2025-02-17 11:34:56,0.0
-14844,-3920,-4752,-2514,6009,-4841,2025-02-17 11:34:56,0.0
-15768,-3088,-5444,-2503,2888,-3340,2025-02-17 11:34:56,0.0
-11856,-1860,-4972,-3184,-2582,-2819,2025-02-17 11:34:56,0.0
-9760,-1592,-3080,-2809,-6281,-3600,2025-02-17 11:34:56,0.0
-7812,-2028,-2348,-2203,-8209,-3287,2025-02-17 11:34:56,0.0
-5804,-2456,-2788,-1803,-8921,-2690,2025-02-17 11:34:56,0.0
-5828,-3284,-1652,-439,-6797,-2196,2025-02-17 11:34:56,0.0
-7912,-3176,-3068,-487,-2721,-787,2025-02-17 11:34:56,0.0
-9280,-2828,-3860,-1914,1907,545,2025-02-17 11:34:56,0.0
-9728,-2800,-2492,-2793,3880,759,2025-02-17 11:34:56,0.0
-11716,-2916,-3008,-2924,3450,850,2025-02-17 11:34:56,0.0
-12820,-3408,-2540,-2523,2103,1171,2025-02-17 11:34:56,0.0
-13948,-3744,-3432,-1815,956,936,2025-02-17 11:34:56,
-15280,-3788,-3712,-2153,292,373,2025-02-17 11:34:56,0.0
-15308,-4276,-2972,-2060,-1176,18,2025-02-17 11:34:56,0.0
-14800,-4768,-3736,-2069,-3582,-154,2025-02-17 11:34:56,0.0
-13932,-4744,-4484,-3134,-5154,-360,2025-02-17 11:34:56,0.0
-13828,-3944,-2888,-4285,-5878,-555,2025-02-17 11:34:56,0.0
-13580,-2940,-664,-4533,-6767,-375,2025-02-17 11:34:56,0.0
-12740,-3240,-1276,-4562,-8174,-578,2025-02-17 11:34:56,0.0
-13212,-2756,-7012,-5889,-7924,-610,2025-02-17 11:34:56,0.0
-13300,1376,-10764,-7916,-3929,-429,2025-02-17 11:34:56,0.0
-11976,2260,-8816,-9129,2982,189,2025-02-17 11:34:56,0.0
-12440,-36,-4496,-8140,21487,-1026,2025-02-17 11:34:56,0.0
-6496,-1236,2684,-4303,32767,-272,2025-02-17 11:34:56,0.0
-7792,-2208,2552,2074,32767,4158,2025-02-17 11:34:56,0.0
-6604,-1700,-2152,3922,32767,9550,2025-02-17 11:34:56,0.0
-476,-1720,-276,3114,32767,11600,2025-02-17 11:34:56,0.0
-708,-1320,1380,3353,32767,10132,2025-02-17 11:34:56,0.0
-960,-1436,568,2060,32767,9205,2025-02-17 11:34:56,0.0
1656,-604,2924,858,32767,8830,2025-02-17 11:34:56,0.0
2656,-900,2808,-412,32767,8535,2025-02-17 11:34:56,0.0
2800,-776,2416,-1743,32767,7961,2025-02-17 11:34:56,0.0
2944,-632,2764,-2604,32767,7365,2025-02-17 11:34:56,0.0
2956,-652,2896,-3304,32767,6569,2025-02-17 11:34:56,0.0
3236,-648,2540,-3851,32767,5725,2025-02-17 11:34:56,0.0
2968,-532,2768,-4257,32767,4625,2025-02-17 11:34:56,0.0
3168,-480,2268,-4527,32767,3746,2025-02-17 11:34:56,0.0
3188,-496,2220,-4726,32767,2975,2025-02-17 11:34:56,0.0
3048,-444,2204,-4873,32767,2336,2025-02-17 11:34:56,0.0
2896,-436,1932,-5008,32767,1777,2025-02-17 11:34:56,0.0
2892,-412,1836,-5115,32767,1348,2025-02-17 11:34:56,0.0
2912,-468,1784,-5177,32767,946,2025-02-17 11:34:56,0.0
2696,-352,1992,-5176,31611,713,2025-02-17 11:34:56,0.0
2884,-376,2060,-5097,30693,459,2025-02-17 11:34:56,0.0
2920,-288,1892,-4935,30229,204,2025-02-17 11:34:56,0.0
2832,-296,1952,-4841,29955,-58,2025-02-17 11:34:56,0.0
2600,-308,1744,-4939,29969,-114,2025-02-17 11:34:56,0.0
1024,-204,1056,-5893,30747,1216,2025-02-17 11:34:56,0.0
-8460,5816,3636,-6682,32767,10810,2025-02-17 11:34:56,0.0
32767,932,-17156,-3824,24616,32767,2025-02-17 11:34:56,0.0
32767,-11744,-32768,-26126,32767,-24541,2025-02-17 11:34:56,0.0
32767,-3480,-32768,-17664,18511,-8751,2025-02-17 11:34:56,0.0
32767,5412,-4476,-3208,28327,1370,2025-02-17 11:34:57,0.0
11316,3212,736,-2062,23726,2529,2025-02-17 11:34:57,0.0
-572,2840,3164,-2789,22991,4802,2025-02-17 11:34:57,0.0
3132,1988,2320,-3721,22484,4706,2025-02-17 11:34:57,0.0
3740,1848,2008,-4476,24317,2536,2025-02-17 11:34:57,0.0
4288,1760,1992,-5756,25873,-523,2025-02-17 11:34:57,0.0
3868,1328,3716,-5113,26161,-2390,2025-02-17 11:34:57,0.0
4212,1476,4172,-4233,22865,-1317,2025-02-17 11:34:57,0.0
6576,2420,5144,-2578,14414,930,2025-02-17 11:34:57,0.0
8828,3140,6104,-1534,2704,8154,2025-02-17 11:34:57,0.0
29504,2404,9604,222,8115,8423,2025-02-17 11:34:57,0.0
32767,-2484,4964,797,10191,448,2025-02-17 11:34:57,0.0
32767,-5596,3704,-860,-2106,-2291,2025-02-17 11:34:57,0.0
22336,-2132,3272,-715,-5941,-985,2025-02-17 11:34:57,0.0
15988,1652,2904,111,-4111,-1478,2025-02-17 11:34:57,0.0
13632,2844,1712,-10,-951,-1171,2025-02-17 11:34:57,0.0
16176,2596,2648,-64,-445,-53,2025-02-17 11:34:57,0.0
19928,932,1824,16,599,588,2025-02-17 11:34:57,0.0
21164,-260,2140,-69,589,184,2025-02-17 11:34:57,0.0
19248,88,2456,-227,831,-374,2025-02-17 11:34:57,0.0
17936,1508,3308,-212,431,-314,2025-02-17 11:34:57,0.0
18568,1124,3184,-192,-159,-108,2025-02-17 11:34:57,0.0
19520,792,2644,-126,-343,-82,2025-02-17 11:34:57,0.0
18820,616,2552,-208,42,-185,2025-02-17 11:34:57,0.0
18844,824,2464,-153,288,-308,2025-02-17 11:34:57,0.0
18780,1084,2824,-162,347,-174,2025-02-17 11:34:57,0.0
19128,520,2808,-156,155,-100,2025-02-17 11:34:57,0.0
18836,720,2768,-96,-146,-360,2025-02-17 11:34:57,0.0
18776,1156,2604,-171,-137,-313,2025-02-17 11:34:57,0.0
18712,956,2444,-140,11,-23,2025-02-17 11:34:57,0.0
19208,784,2532,-122,261,-227,2025-02-17 11:34:57,0.0
18916,872,2656,-161,191,-192,2025-02-17 11:34:57,0.0
18880,984,2668,-165,149,-200,2025-02-17 11:34:57,0.0
18864,864,2672,-153,171,-157,2025-02-17 11:34:57,0.0
18952,880,2592,-183,179,-174,2025-02-17 11:34:57,0.0
18960,832,2800,-184,173,-198,2025-02-17 11:34:57,0.0
18888,848,2780,-161,138,-172,2025-02-17 11:34:57,0.0
18868,888,2656,-143,181,-179,2025-02-17 11:34:57,0.0
18888,860,2700,-139,204,-168,2025-02-17 11:34:57,0.0
18864,904,2648,-165,170,-188,2025-02-17 11:34:57,0.0
18864,832,2688,-131,114,-174,2025-02-17 11:34:57,0.0
18824,852,2516,-157,195,-144,2025-02-17 11:34:57,0.0
19028,904,2768,-154,167,-181,2025-02-17 11:34:57,0.0
18912,808,2784,-162,143,-165,2025-02-17 11:34:57,0.0
18920,908,2692,-168,123,-162,2025-02-17 11:34:58,0.0
18932,928,2572,-158,191,-185,2025-02-17 11:34:58,0.0
18904,784,2676,-148,210,-198,2025-02-17 11:34:58,0.0
18908,904,2632,-168,164,-169,2025-02-17 11:34:58,0.0
18928,912,2748,-148,182,-195,2025-02-17 11:34:58,0.0
18932,768,2708,-137,181,-162,2025-02-17 11:34:58,0.0
18912,804,2560,-162,151,-190,2025-02-17 11:34:58,0.0
18868,952,2604,-132,163,-183,2025-02-17 11:34:58,0.0
18956,900,2628,-167,159,-205,2025-02-17 11:34:58,0.0
18820,872,2792,-153,166,-162,2025-02-17 11:34:58,0.0
18824,860,2584,-163,155,-181,2025-02-17 11:34:58,0.0
18780,856,2680,-155,134,-171,2025-02-17 11:34:58,0.0
18840,872,2564,-194,178,-177,2025-02-17 11:34:58,0.0
18988,920,2816,-180,167,-183,2025-02-17 11:34:58,0.0
18972,916,2548,-157,176,-191,2025-02-17 11:34:58,0.0
19044,836,2724,-150,178,-189,2025-02-17 11:34:58,
18916,924,2608,-152,164,-166,2025-02-17 11:34:58,0.0
18952,876,2636,-161,157,-190,2025-02-17 11:34:58,0.0
18896,908,2732,-150,182,-183,2025-02-17 11:34:58,0.0
18892,844,2616,-146,158,-180,2025-02-17 11:34:58,0.0
18836,832,2688,-135,151,-178,2025-02-17 11:34:58,0.0
18796,876,2820,-134,164,-181,2025-02-17 11:34:58,0.0
18848,920,2596,-173,157,-170,2025-02-17 11:34:58,0.0
18856,880,2692,-141,173,-192,2025-02-17 11:34:58,0.0
18868,860,2644,-140,173,-178,2025-02-17 11:34:58,0.0
18864,944,2700,-162,181,-165,2025-02-17 11:34:58,0.0
18780,856,2596,-146,174,-171,2025-02-17 11:34:58,0.0
18968,844,2580,-170,142,-187,2025-02-17 11:34:58,0.0
18960,976,2700,-157,166,-177,2025-02-17 11:34:58,0.0
18800,812,2700,-161,174,-169,2025-02-17 11:34:58,0.0
18872,820,2728,-141,188,-193,2025-02-17 11:34:58,0.0
18908,884,2668,-175,175,-181,2025-02-17 11:34:58,0.0
18912,908,2660,-162,153,-178,2025-02-17 11:34:58,0.0
18912,948,2592,-170,162,-212,2025-02-17 11:34:58,0.0
18876,828,2744,-150,172,-192,2025-02-17 11:34:58,0.0
19004,888,2676,-159,176,-161,2025-02-17 11:34:58,0.0
18984,872,2572,-165,155,-183,2025-02-17 11:34:58,0.0
18948,856,2560,-159,136,-175,2025-02-17 11:34:58,0.0
18968,956,2692,-153,168,-180,2025-02-17 11:34:58,0.0
18912,848,2832,-169,159,-205,2025-02-17 11:34:58,0.0
18828,808,2696,-149,179,-175,2025-02-17 11:34:58,0.0
18928,848,2636,-153,159,-173,2025-02-17 11:34:58,0.0
18936,904,2740,-161,170,-196,2025-02-17 11:34:58,0.0
18916,836,2624,-175,164,-180,2025-02-17 11:34:58,0.0
18932,920,2636,-178,186,-184,2025-02-17 11:34:58,0.0
18940,820,2652,-149,163,-168,2025-02-17 11:34:58,0.0
18896,872,2564,-166,178,-186,2025-02-17 11:34:58,0.0
18920,816,2668,-163,185,-198,2025-02-17 11:34:58,0.0
18880,888,2592,-164,158,-187,2025-02-17 11:34:58,0.0
18868,864,2572,-132,177,-180,2025-02-17 11:34:58,0.0
18884,908,2688,-168,181,-162,2025-02-17 11:34:58,0.0
18824,872,2616,-173,129,-175,2025-02-17 11:34:58,0.0
18924,928,2576,-159,175,-182,2025-02-17 11:34:58,0.0
18960,884,2640,-143,142,-189,2025-02-17 11:34:58,0.0
18940,920,2732,-160,204,-175,2025-02-17 11:34:58,0.0
18944,880,2736,-176,167,-189,2025-02-17 11:34:58,0.0
18928,844,2740,-166,161,-194,2025-02-17 11:34:58,0.0
18940,872,2608,-142,174,-152,2025-02-17 11:34:58,0.0
18892,860,2752,-134,155,-155,2025-02-17 11:34:58,0.0
18920,912,2520,-179,192,-175,2025-02-17 11:34:58,0.0
18912,860,2528,-149,133,-163,2025-02-17 11:34:58,0.0
19000,812,2600,-182,167,-177,2025-02-17 11:34:58,0.0
18988,1000,2724,-170,189,-175,2025-02-17 11:34:58,0.0
18948,888,2740,-146,168,-193,2025-02-17 11:34:58,0.0
18936,844,2572,-166,168,-165,2025-02-17 11:34:59,0.0
18952,808,2892,-144,158,-164,2025-02-17 11:34:59,0.0
18844,864,2572,-155,182,-169,2025-02-17 11:34:59,0.0
18956,904,2572,-153,163,-168,2025-02-17 11:34:59,0.0
18872,908,2716,-158,158,-149,2025-02-17 11:34:59,0.0
18940,816,2576,-149,153,-185,2025-02-17 11:34:59,0.0
18876,976,2784,-165,173,-182,2025-02-17 11:34:59,0.0
18880,928,2632,-192,152,-170,2025-02-17 11:34:59,0.0
18872,848,2596,-175,162,-175,2025-02-17 11:34:59,0.0
18932,852,2604,-176,184,-160,2025-02-17 11:34:59,0.0
18876,996,2668,-149,164,-171,2025-02-17 11:34:59,0.0
18816,788,2684,-160,165,-169,2025-02-17 11:34:59,0.0
18856,896,2604,-157,172,-186,2025-02-17 11:34:59,0.0
18872,908,2644,-155,166,-172,2025-02-17 11:34:59,0.0
18820,764,2724,-179,173,-150,2025-02-17 11:34:59,0.0
18848,872,2708,-139,184,-171,2025-02-17 11:34:59,0.0
18820,848,2704,-148,180,-164,2025-02-17 11:34:59,0.0
18868,864,2664,-176,177,-150,2025-02-17 11:34:59,0.0
18892,916,2652,-131,151,-202,2025-02-17 11:34:59,0.0
18908,864,2624,-166,137,-157,2025-02-17 11:34:59,0.0
18888,956,2524,-164,204,-171,2025-02-17 11:34:59,0.0
19016,884,2600,-150,187,-183,2025-02-17 11:34:59,0.0
18876,932,2760,-142,186,-198,2025-02-17 11:34:59,0.0
18884,812,2588,-154,179,-156,2025-02-17 11:34:59,0.0
18944,920,2756,-162,168,-176,2025-02-17 11:34:59,0.0
18952,948,2768,-173,161,-171,2025-02-17 11:34:59,0.0
18944,764,2576,-139,164,-168,2025-02-17 11:34:59,0.0
18936,924,2640,-151,178,-193,2025-02-17 11:34:59,0.0
18848,768,2740,-173,159,-168,2025-02-17 11:34:59,0.0
18792,880,2752,-155,180,-189,2025-02-17 11:34:59,0.0
18928,984,2672,-124,164,-187,2025-02-17 11:34:59,0.0
18856,908,2696,-160,162,-183,2025-02-17 11:34:59,0.0
18888,896,2680,-150,174,-174,2025-02-17 11:34:59,0.0
18876,960,2648,-171,212,-161,2025-02-17 11:34:59,0.0
18872,880,2680,-149,167,-173,2025-02-17 11:34:59,0.0
18812,872,2688,-171,165,-194,2025-02-17 11:34:59,0.0
19016,880,2572,-127,180,-175,2025-02-17 11:34:59,0.0
18880,876,2600,-128,173,-164,2025-02-17 11:34:59,0.0
18956,900,2704,-156,167,-185,2025-02-17 11:34:59,0.0
18932,896,2660,-141,174,-154,2025-02-17 11:34:59,0.0
18960,896,2604,-151,168,-171,2025-02-17 11:34:59,0.0
18972,784,2700,-199,147,-180,2025-02-17 11:34:59,0.0
18844,896,2772,-173,139,-165,2025-02-17 11:34:59,0.0
18888,904,2628,-157,168,-170,2025-02-17 11:34:59,0.0
18868,928,2760,-144,167,-211,2025-02-17 11:34:59,0.0
18964,840,2684,-160,177,-197,2025-02-17 11:34:59,0.0
18996,808,2624,-174,160,-185,2025-02-17 11:34:59,0.0
18952,896,2640,-128,175,-173,2025-02-17 11:34:59,0.0
18840,900,2788,-158,196,-197,2025-02-17 11:34:59,0.0
18876,828,2620,-160,163,-175,2025-02-17 11:34:59,0.0
18916,972,2756,-145,173,-194,2025-02-17 11:34:59,0.0
18792,972,2816,-145,178,-157,2025-02-17 11:34:59,
18888,808,2604,-154,150,-174,2025-02-17 11:34:59,0.0
18916,904,2680,-133,168,-170,2025-02-17 11:34:59,0.0
18860,772,2712,-169,145,-174,2025-02-17 11:34:59,0.0
18928,928,2688,-122,183,-170,2025-02-17 11:34:59,0.0
19020,936,2628,-140,166,-157,2025-02-17 11:34:59,0.0
18908,804,2788,-168,177,-167,2025-02-17 11:34:59,0.0
18836,904,2924,-173,191,-166,2025-02-17 11:34:59,0.0
18888,908,2616,-152,178,-162,2025-02-17 11:34:59,0.0
18884,864,2684,-161,179,-186,2025-02-17 11:35:00,0.0
18928,888,2764,-159,162,-185,2025-02-17 11:35:00,0.0
18888,856,2664,-138,151,-182,2025-02-17 11:35:00,0.0
18936,888,2572,-173,150,-196,2025-02-17 11:35:00,0.0
18924,900,2736,-152,151,-170,2025-02-17 11:35:00,0.0
18788,888,2716,-177,131,-161,2025-02-17 11:35:00,0.0
18912,848,2764,-170,167,-192,2025-02-17 11:35:00,0.0
18904,856,2628,-134,160,-163,2025-02-17 11:35:00,0.0
18944,840,2660,-153,175,-159,2025-02-17 11:35:00,0.0
18960,860,2824,-151,166,-171,2025-02-17 11:35:00,0.0
18988,940,2640,-176,168,-166,2025-02-17 11:35:00,0.0
18880,892,2788,-144,178,-188,2025-02-17 11:35:00,0.0
18988,920,2676,-161,162,-194,2025-02-17 11:35:00,0.0
18772,960,2684,-163,174,-152,2025-02-17 11:35:00,0.0
18984,872,2696,-166,158,-169,2025-02-17 11:35:00,0.0
18920,904,2764,-147,153,-158,2025-02-17 11:35:00,0.0
18860,932,2576,-184,164,-176,2025-02-17 11:35:00,0.0
18960,844,2780,-177,169,-171,2025-02-17 11:35:00,0.0
18956,900,2644,-143,155,-179,2025-02-17 11:35:00,0.0
18832,864,2724,-165,166,-171,2025-02-17 11:35:00,0.0
18824,960,2672,-145,151,-177,2025-02-17 11:35:00,0.0
18836,940,2616,-156,174,-164,2025-02-17 11:35:00,0.0
18972,832,2620,-144,182,-171,2025-02-17 11:35:00,0.0
18948,832,2728,-147,156,-170,2025-02-17 11:35:00,0.0
18936,924,2584,-152,143,-175,2025-02-17 11:35:00,0.0
18816,904,2828,-177,172,-174,2025-02-17 11:35:00,0.0
18944,860,2732,-174,164,-186,2025-02-17 11:35:00,0.0
18868,892,2760,-161,176,-189,2025-02-17 11:35:00,0.0
18928,812,2648,-145,158,-188,2025-02-17 11:35:00,0.0
18828,852,2680,-145,170,-184,2025-02-17 11:35:00,0.0
18968,964,2872,-163,178,-190,2025-02-17 11:35:00,0.0
19036,880,2596,-177,189,-169,2025-02-17 11:35:00,0.0
18876,816,2676,-136,143,-176,2025-02-17 11:35:00,0.0
18912,888,2536,-172,157,-156,2025-02-17 11:35:00,0.0
18824,880,2616,-131,147,-163,2025-02-17 11:35:00,0.0
18928,928,2676,-139,157,-185,2025-02-17 11:35:00,0.0
18892,944,2532,-150,183,-175,2025-02-17 11:35:00,0.0
18944,880,2584,-160,187,-185,2025-02-17 11:35:00,0.0
18916,844,2648,-163,161,-163,2025-02-17 11:35:00,0.0
18920,852,2700,-151,173,-180,2025-02-17 11:35:00,0.0
18916,836,2656,-180,167,-183,2025-02-17 11:35:00,0.0
18864,960,2652,-144,169,-173,2025-02-17 11:35:00,0.0
18856,844,2764,-155,195,-166,2025-02-17 11:35:00,0.0
18952,824,2532,-122,167,-171,2025-02-17 11:35:00,0.0
18916,816,2616,-137,164,-154,2025-02-17 11:35:00,0.0
18884,948,2708,-162,184,-196,2025-02-17 11:35:00,0.0
18940,820,2556,-171,158,-167,2025-02-17 11:35:00,0.0
18960,868,2524,-152,153,-182,2025-02-17 11:35:00,0.0
18860,924,2548,-160,175,-166,2025-02-17 11:35:00,0.0
18884,816,2648,-171,189,-181,2025-02-17 11:35:00,0.0
18780,892,2700,-118,134,-196,2025-02-17 11:35:00,0.0
18924,1064,2568,-165,159,-183,2025-02-17 11:35:00,0.0
18844,952,2524,-173,178,-176,2025-02-17 11:35:00,0.0
18944,844,2700,-172,176,-200,2025-02-17 11:35:00,0.0
18912,956,2584,-169,165,-170,2025-02-17 11:35:00,0.0
18976,868,2548,-136,171,-166,2025-02-17 11:35:00,0.0
18816,984,2728,-154,180,-205,2025-02-17 11:35:00,0.0
18924,832,2596,-166,181,-173,2025-02-17 11:35:01,0.0
18856,956,2668,-190,137,-174,2025-02-17 11:35:01,0.0
18872,844,2560,-117,157,-169,2025-02-17 11:35:01,0.0
18844,908,2720,-161,175,-170,2025-02-17 11:35:01,0.0
18956,876,2680,-158,167,-171,2025-02-17 11:35:01,0.0
18860,908,2632,-158,144,-186,2025-02-17 11:35:01,0.0
18924,900,2664,-143,174,-180,2025-02-17 11:35:01,0.0
18924,896,2652,-161,169,-175,2025-02-17 11:35:01,0.0
18892,856,2756,-157,170,-184,2025-02-17 11:35:01,0.0
18880,908,2612,-152,166,-187,2025-02-17 11:35:01,0.0
18808,824,2644,-168,156,-177,2025-02-17 11:35:01,0.0
18820,824,2692,-164,161,-156,2025-02-17 11:35:01,0.0
18932,876,2692,-151,219,-173,2025-02-17 11:35:01,0.0
18848,896,2636,-173,169,-176,2025-02-17 11:35:01,0.0
18848,868,2724,-165,177,-194,2025-02-17 11:35:01,0.0
18984,888,2668,-197,158,-176,2025-02-17 11:35:01,0.0
18924,948,2592,-180,161,-188,2025-02-17 11:35:01,0.0
18920,888,2664,-135,182,-160,2025-02-17 11:35:01,0.0
18900,928,2684,-159,176,-193,2025-02-17 11:35:01,0.0
18888,880,2700,-159,158,-189,2025-02-17 11:35:01,0.0
18836,864,2744,-128,194,-206,2025-02-17 11:35:01,0.0
18796,964,2744,-175,198,-177,2025-02-17 11:35:01,0.0
18924,828,2600,-206,75,-109,2025-02-17 11:35:01,0.0
18884,1040,2496,-172,168,-301,2025-02-17 11:35:01,0.0
18636,1068,3244,-19,27,-27,2025-02-17 11:35:01,0.0
18516,764,3280,119,-456,-194,2025-02-17 11:35:01,0.0
18360,284,3880,423,-803,-818,2025-02-17 11:35:01,0.0
17852,1456,3004,234,-1219,9,2025-02-17 11:35:01,0.0
19640,1012,2692,283,-1642,-339,2025-02-17 11:35:01,0.0
18436,932,1304,386,-2089,-76,2025-02-17 11:35:01,0.0
18924,1564,1580,-236,-1231,-118,2025-02-17 11:35:01,0.0
19244,864,2408,-137,-151,443,2025-02-17 11:35:01,0.0
18264,-216,2396,-83,751,30,2025-02-17 11:35:01,0.0
18812,1640,3180,654,-771,1454,2025-02-17 11:35:01,0.0
19444,1412,3680,279,-1861,946,2025-02-17 11:35:01,
19368,472,1976,379,-3015,603,2025-02-17 11:35:01,0.0
20056,164,1132,56,-2066,-182,2025-02-17 11:35:01,0.0
19536,304,724,-26,-340,-533,2025-02-17 11:35:01,0.0
18668,784,248,-282,1952,-773,2025-02-17 11:35:01,0.0
18560,1244,1292,-496,3740,-591,2025-02-17 11:35:01,0.0
19400,616,1808,-536,3640,-936,2025-02-17 11:35:01,0.0
20396,632,1880,-1452,3312,-2002,2025-02-17 11:35:01,0.0
20272,328,3696,-1555,2559,-2881,2025-02-17 11:35:01,0.0
21624,-120,4184,-217,1339,-4111,2025-02-17 11:35:01,0.0
24428,-876,4776,154,140,-7299,2025-02-17 11:35:01,0.0
26080,-412,5452,1359,-2348,-12056,2025-02-17 11:35:01,0.0
22864,1860,5300,2158,-5443,-13472,2025-02-17 11:35:01,0.0
20180,4876,2852,2525,-8804,-13367,2025-02-17 11:35:01,0.0
17508,7024,964,1246,-14933,-12116,2025-02-17 11:35:01,0.0
17948,8112,2080,1911,-19325,-13669,2025-02-17 11:35:01,0.0
23032,8520,568,2579,-22319,-19436,2025-02-17 11:35:01,0.0
23052,6232,1156,1495,-25477,-25739,2025-02-17 11:35:01,0.0
21696,3164,3020,2201,-24760,-28936,2025-02-17 11:35:01,0.0
22088,692,-1336,2283,-21290,-31831,2025-02-17 11:35:01,0.0
17188,4932,-5268,-2306,-19308,-28602,2025-02-17 11:35:01,0.0
16016,8276,-7492,-5789,-17816,-20924,2025-02-17 11:35:01,0.0
16452,13220,-8368,-5450,-14978,-16784,2025-02-17 11:35:01,0.0
14688,18124,-5584,-5429,-9683,-13606,2025-02-17 11:35:01,0.0
17900,18512,-6508,-4011,-5850,-12133,2025-02-17 11:35:01,0.0
20220,17464,-5792,-487,-4052,-10628,2025-02-17 11:35:01,0.0
22780,16708,-6408,3101,-2740,-10517,2025-02-17 11:35:01,0.0
20964,16560,-7100,7736,-1641,-8617,2025-02-17 11:35:01,0.0
20196,16104,-8132,11281,1905,-6556,2025-02-17 11:35:01,0.0
19040,13876,-8580,14894,7735,-4418,2025-02-17 11:35:02,0.0
16520,13088,-8540,16641,15624,-3031,2025-02-17 11:35:02,0.0
13604,12716,-7384,16922,22374,361,2025-02-17 11:35:02,0.0
14716,11852,-6816,16824,29379,2653,2025-02-17 11:35:02,0.0
17316,11972,-8644,14222,32767,3481,2025-02-17 11:35:02,0.0
19264,13260,-8016,10341,31704,3551,2025-02-17 11:35:02,0.0
19520,15300,-4748,8058,26563,3197,2025-02-17 11:35:02,0.0
20912,15416,-3292,7338,18625,4330,2025-02-17 11:35:02,0.0
22600,15104,-3124,6687,10874,4615,2025-02-17 11:35:02,0.0
20636,13988,-4508,5231,3870,4795,2025-02-17 11:35:02,0.0
17764,12732,-5024,2328,-770,5978,2025-02-17 11:35:02,0.0
14848,10952,-2896,-781,-1735,7983,2025-02-17 11:35:02,0.0
14028,9880,-1196,-1577,1792,8892,2025-02-17 11:35:02,0.0
13268,8116,-1048,-2032,8154,8197,2025-02-17 11:35:02,0.0
13068,6560,8,-2123,15157,6390,2025-02-17 11:35:02,0.0
11976,4876,-2868,-4080,21748,4321,2025-02-17 11:35:02,0.0
11204,3512,-3020,-7505,25709,3466,2025-02-17 11:35:02,0.0
9320,3496,-512,-9780,28543,4758,2025-02-17 11:35:02,0.0
13872,4280,4140,-9344,31958,4190,2025-02-17 11:35:02,0.0
14224,4764,5220,-7522,32767,1325,2025-02-17 11:35:02,0.0
15284,4360,5564,-5277,32767,-2880,2025-02-17 11:35:02,0.0
13588,4220,6740,-3594,32767,-5187,2025-02-17 11:35:02,0.0
13344,4064,7088,-2730,32767,-6165,2025-02-17 11:35:02,0.0
12440,4388,8680,-2639,32767,-5837,2025-02-17 11:35:02,0.0
11732,4808,12072,-2041,32767,-5210,2025-02-17 11:35:02,0.0
14532,5324,14896,-575,32767,-5365,2025-02-17 11:35:02,0.0
22652,2984,15524,-1206,32767,-13042,2025-02-17 11:35:02,0.0
6164,4756,24692,3051,32767,-18073,2025-02-17 11:35:02,0.0
2880,6432,23724,19337,25467,-14223,2025-02-17 11:35:02,0.0
5984,6176,12956,26333,5792,-8613,2025-02-17 11:35:02,0.0
11460,4008,12044,25401,-14612,-9001,2025-02-17 11:35:02,0.0
8420,1868,17976,27352,-28188,-10091,2025-02-17 11:35:02,0.0
3784,3436,14708,30699,-32768,-7977,2025-02-17 11:35:02,0.0
3996,5080,9224,30801,-32768,-5990,2025-02-17 11:35:02,0.0
5668,5584,4600,28591,-32768,-5535,2025-02-17 11:35:02,0.0
6384,6052,24,21688,-32768,-5452,2025-02-17 11:35:02,0.0
4888,10500,720,14226,-30115,-4373,2025-02-17 11:35:02,0.0
8760,9416,-272,8005,-17882,-4479,2025-02-17 11:35:02,0.0
7164,8276,-1616,-1501,-10220,-3309,2025-02-17 11:35:02,0.0
7656,8268,-720,-12113,-7562,-1287,2025-02-17 11:35:02,0.0
7212,9844,2720,-17048,-8248,-90,2025-02-17 11:35:02,0.0
6528,9344,3528,-19421,-11296,936,2025-02-17 11:35:02,0.0
5788,8460,5560,-20126,-13819,1930,2025-02-17 11:35:02,0.0
6400,8392,6592,-18310,-16474,2755,2025-02-17 11:35:02,0.0
7864,8368,6028,-16173,-24077,1993,2025-02-17 11:35:02,0.0
7244,8972,7872,-13856,-32443,2094,2025-02-17 11:35:02,0.0
8452,9884,8440,-9950,-32768,1586,2025-02-17 11:35:02,0.0
8152,9776,3900,-8545,-32768,-619,2025-02-17 11:35:02,0.0
8012,10460,4304,-8635,-32768,-2891,2025-02-17 11:35:02,0.0
7408,8920,1892,-9636,-32768,-6342,2025-02-17 11:35:02,0.0
4504,4172,-1036,-13390,-32768,-10682,2025-02-17 11:35:02,0.0
6112,8336,1992,-14229,-32768,-16551,2025-02-17 11:35:02,0.0
1800,14348,2224,-15275,-28977,-16591,2025-02-17 11:35:02,0.0
-6460,27380,11480,-8689,-25667,642,2025-02-17 11:35:02,0.0
28780,14520,-736,-3771,-32768,-1345,2025-02-17 11:35:02,0.0
10640,14608,-3368,-4721,-32768,-8045,2025-02-17 11:35:02,0.0
2968,14520,-624,-1822,-32768,4794,2025-02-17 11:35:02,0.0
11996,11544,-3364,5545,-32768,8222,2025-02-17 11:35:02,0.0
5656,9564,-1856,15463,-28329,9429,2025-02-17 11:35:02,0.0
10060,8152,-15656,14617,-19881,5977,2025-02-17 11:35:02,0.0
6664,9480,-9432,7799,-9478,3638,2025-02-17 11:35:02,0.0
10840,10896,-1520,5549,-872,742,2025-02-17 11:35:02,0.0
11808,12404,4304,5375,2514,-664,2025-02-17 11:35:03,0.0
14056,18804,3120,9757,-1836,4979,2025-02-17 11:35:03,0.0
16896,12672,-5604,7910,-13574,6580,2025-02-17 11:35:03,0.0
11444,12048,-3800,12029,-21514,3675,2025-02-17 11:35:03,0.0
8288,7640,-6144,18027,-29629,-1034,2025-02-17 11:35:03,0.0
3244,8292,-6064,17617,-28350,-4262,2025-02-17 11:35:03,0.0
6756,8404,-3160,17334,-31310,-3323,2025-02-17 11:35:03,0.0
11488,5832,-4748,19403,-32768,-3820,2025-02-17 11:35:03,0.0
10716,4496,-9516,18340,-32768,-6005,2025-02-17 11:35:03,0.0
8396,4928,-9060,17434,-32768,-8844,2025-02-17 11:35:03,
4064,7200,-7356,18822,-32768,-10868,2025-02-17 11:35:03,0.0
2612,7092,-7312,19729,-32768,-12064,2025-02-17 11:35:03,0.0
2936,5480,-9768,18202,-32768,-14550,2025-02-17 11:35:03,0.0
1112,4520,-9544,15915,-32768,-15653,2025-02-17 11:35:03,0.0
-7256,4468,-6724,15474,-32768,-12904,2025-02-17 11:35:03,0.0
-6752,3276,-9648,15603,-32768,-10702,2025-02-17 11:35:03,0.0
-6096,3368,-9676,15617,-32768,-9752,2025-02-17 11:35:03,0.0
-8348,3776,-11604,13370,-32768,-9685,2025-02-17 11:35:03,0.0
-9896,2928,-13344,9632,-32768,-9302,2025-02-17 11:35:03,0.0
-13380,2540,-13096,6492,-32768,-7803,2025-02-17 11:35:03,0.0
-13988,4168,-11772,6310,-28124,-5804,2025-02-17 11:35:03,0.0
-13456,3724,-11432,6807,-22338,-5919,2025-02-17 11:35:03,0.0
-13792,-576,-11452,5414,-13593,-7396,2025-02-17 11:35:03,0.0
-14744,-2448,-10404,2389,-7467,-8132,2025-02-17 11:35:03,0.0
-14212,1720,-5916,1923,-6676,-7926,2025-02-17 11:35:03,0.0
-15836,2428,-6052,2999,-9780,-9073,2025-02-17 11:35:03,0.0
-20272,1276,-7424,982,-12145,-7631,2025-02-17 11:35:03,0.0
-19700,1388,-5624,-583,-13457,-4745,2025-02-17 11:35:03,0.0
-16764,1128,-3300,-2255,-14606,-2787,2025-02-17 11:35:03,0.0
-13364,592,-2128,-2959,-17847,-2010,2025-02-17 11:35:03,0.0
-11748,632,-1316,-3719,-19339,-2401,2025-02-17 11:35:03,0.0
-10892,560,288,-3533,-16797,-5097,2025-02-17 11:35:03,0.0
-13400,924,460,-2787,-10242,-7799,2025-02-17 11:35:03,0.0
-16188,216,-532,-2614,-3869,-6716,2025-02-17 11:35:03,0.0
-15388,196,492,-2359,-1604,-4792,2025-02-17 11:35:03,0.0
-13608,364,868,-2058,-2196,-3336,2025-02-17 11:35:03,0.0
-12004,944,1716,-1683,-1944,-2666,2025-02-17 11:35:03,0.0
-12184,1680,4824,-804,-4013,-3091,2025-02-17 11:35:03,0.0
-15060,3708,9572,1533,-2080,-4784,2025-02-17 11:35:03,0.0
-18040,1972,11628,7899,7056,-6879,2025-02-17 11:35:03,0.0
-6872,-1960,8296,10234,2625,-11028,2025-02-17 11:35:03,0.0
-19412,-676,-2688,10870,6180,-8985,2025-02-17 11:35:03,0.0
-18032,-420,-5376,8548,7648,-3406,2025-02-17 11:35:03,0.0
-16232,316,-5780,6429,3509,-241,2025-02-17 11:35:03,0.0
-15152,-456,-4800,3817,-1832,797,2025-02-17 11:35:03,0.0
-15112,-516,-2340,1836,-6850,589,2025-02-17 11:35:03,0.0
-15316,-1232,184,1391,-10236,636,2025-02-17 11:35:03,0.0
-14860,-1680,1604,1681,-10358,1595,2025-02-17 11:35:03,0.0
-11884,-1144,6160,3486,-3995,1985,2025-02-17 11:35:03,0.0
-9340,-1696,3092,6067,1051,428,2025-02-17 11:35:03,0.0
-10204,-1280,680,6958,4235,-1322,2025-02-17 11:35:03,0.0
-12768,-1300,-1284,6117,8542,-1429,2025-02-17 11:35:03,0.0
-14760,-1860,-1520,4661,12759,555,2025-02-17 11:35:03,0.0
-14872,-2164,-1760,3182,16160,2963,2025-02-17 11:35:03,0.0
-15820,-1308,-4972,-544,17967,4737,2025-02-17 11:35:03,0.0
-15292,-1764,-7244,-7425,20021,6083,2025-02-17 11:35:03,0.0
-11848,-3400,-4356,-11164,20302,4518,2025-02-17 11:35:03,0.0
-10632,-2916,52,-6333,13197,-72,2025-02-17 11:35:03,0.0
-14332,-1400,476,1963,3465,-1792,2025-02-17 11:35:04,0.0
-18192,-328,-4956,5139,-8061,-561,2025-02-17 11:35:04,0.0
-18664,652,-9424,1030,-18931,1533,2025-02-17 11:35:04,0.0
-17328,928,-6500,-3666,-29322,1965,2025-02-17 11:35:04,0.0
-13300,3308,16488,5738,-23269,-1710,2025-02-17 11:35:04,0.0
-11252,-2116,-2352,6311,-16868,-3284,2025-02-17 11:35:04,0.0
-13140,-152,-4960,1395,-5952,737,2025-02-17 11:35:04,0.0
-9612,12,-2228,291,3484,2728,2025-02-17 11:35:04,0.0
-8664,-176,-1016,111,8706,85,2025-02-17 11:35:04,0.0
-13208,-392,-1364,-1930,10381,-1866,2025-02-17 11:35:04,0.0
-14720,-1068,468,-2079,8054,-2747,2025-02-17 11:35:04,0.0
-15420,-1764,996,-212,3277,-4042,2025-02-17 11:35:04,0.0
-15972,-1456,-388,1331,-1576,-4830,2025-02-17 11:35:04,0.0
-14500,-1156,-904,596,-3968,-5457,2025-02-17 11:35:04,0.0
-12888,-936,36,380,-1887,-7029,2025-02-17 11:35:04,0.0
-14276,140,-1076,-873,926,-5788,2025-02-17 11:35:04,0.0
-10852,196,-840,-2498,4034,-4284,2025-02-17 11:35:04,0.0
-13468,-1940,576,-939,4379,-5206,2025-02-17 11:35:04,0.0
-13848,-2712,408,1183,2547,-3307,2025-02-17 11:35:04,0.0
-13420,-3312,316,1039,212,-2931,2025-02-17 11:35:04,0.0
-13256,-3100,812,581,-1079,-3177,2025-02-17 11:35:04,0.0
-13432,-2668,708,215,-1227,-3665,2025-02-17 11:35:04,0.0
-13928,-2196,-276,-698,-1563,-3099,2025-02-17 11:35:04,0.0
-14164,-2488,-1184,-2675,-1670,-2534,2025-02-17 11:35:04,0.0
-13928,-3068,-44,-4677,-480,-1081,2025-02-17 11:35:04,0.0
-14016,-4116,-884,-5247,2145,-294,2025-02-17 11:35:04,0.0
-11276,-4868,592,-5085,3603,-1017,2025-02-17 11:35:04,0.0
-13260,-4424,-656,-6176,5225,-762,2025-02-17 11:35:04,0.0
-13568,-4488,-292,-6792,4670,-654,2025-02-17 11:35:04,0.0
-13268,-4712,-36,-7028,2782,-411,2025-02-17 11:35:04,0.0
-12336,-5204,-264,-7136,1613,-382,2025-02-17 11:35:04,0.0
-11248,-5056,-108,-6862,1421,-257,2025-02-17 11:35:04,0.0
-11156,-5380,-1040,-7114,2161,-50,2025-02-17 11:35:04,0.0
-10696,-5528,-1472,-7959,3796,-142,2025-02-17 11:35:04,0.0
-11500,-5356,-1472,-8338,5625,-344,2025-02-17 11:35:04,0.0
-11640,-4988,-1496,-7586,6260,519,2025-02-17 11:35:04,0.0
-12188,-3512,-2296,-7175,5749,954,2025-02-17 11:35:04,0.0
-11824,-3584,-3296,-7281,4376,1132,2025-02-17 11:35:04,0.0
-11600,-3808,-2672,-7176,2899,751,2025-02-17 11:35:04,0.0
-10004,-3760,-6956,-7763,1580,167,2025-02-17 11:35:04,0.0
-11588,-4008,-4160,-9446,923,-438,2025-02-17 11:35:04,0.0
-12356,-4608,-2900,-10028,1083,-943,2025-02-17 11:35:04,0.0
-14192,-4296,-772,-10780,1666,-1429,2025-02-17 11:35:04,0.0
-16044,-2964,-3012,-13720,1364,-1149,2025-02-17 11:35:04,0.0
-15012,-2524,-3636,-15884,-1205,-1458,2025-02-17 11:35:04,0.0
-14536,-2688,-5736,-16697,-5208,-2056,2025-02-17 11:35:04,0.0
-13364,-3964,-8176,-17437,-5448,-2967,2025-02-17 11:35:04,0.0
-13320,-3684,-11812,-18496,-830,-4065,2025-02-17 11:35:04,0.0
-12492,-2224,-13476,-21088,7408,-6545,2025-02-17 11:35:04,0.0
-10948,-2260,-8900,-23617,13426,-10531,2025-02-17 11:35:04,0.0
-12328,-1848,-1672,-22972,13640,-12961,2025-02-17 11:35:04,0.0
-15596,680,2272,-16620,9528,-11767,2025-02-17 11:35:04,
-18340,3392,-2036,-12524,6989,-8707,2025-02-17 11:35:04,0.0
-20040,2656,-5176,-9844,5877,-5911,2025-02-17 11:35:04,0.0
-21504,-3092,-7460,-11150,4215,-2834,2025-02-17 11:35:04,0.0
-19512,-4008,-7116,-13103,836,-685,2025-02-17 11:35:04,0.0
-17084,576,-3420,-13292,-3318,1431,2025-02-17 11:35:04,0.0
-15020,3144,-1656,-12106,-4757,2687,2025-02-17 11:35:04,0.0
-10968,4100,-2792,-10307,-4065,1981,2025-02-17 11:35:04,0.0
-7552,4328,-3724,-9147,-3379,-1302,2025-02-17 11:35:04,0.0
-8248,3196,-5028,-9629,-2707,-5133,2025-02-17 11:35:04,0.0
-9184,2176,-4972,-10325,-1012,-7613,2025-02-17 11:35:05,0.0
-10560,828,-4588,-11765,562,-7771,2025-02-17 11:35:05,0.0
-10864,44,-2812,-11816,-480,-7709,2025-02-17 11:35:05,0.0
-12796,896,-1940,-10789,-2803,-6774,2025-02-17 11:35:05,0.0
-13516,896,-4064,-10554,-4706,-4432,2025-02-17 11:35:05,0.0
-11828,1456,-5924,-11307,-5068,-2969,2025-02-17 11:35:05,0.0
-11268,1444,-5420,-11775,-3143,-2638,2025-02-17 11:35:05,0.0
-10940,1060,-3248,-11440,-1185,-2583,2025-02-17 11:35:05,0.0
-11016,904,-3452,-11101,-259,-2423,2025-02-17 11:35:05,0.0
-11112,304,-2752,-10425,549,-2563,2025-02-17 11:35:05,0.0
-11512,-816,-4788,-10217,1854,-2812,2025-02-17 11:35:05,0.0
-12564,-1032,-6840,-11322,3804,-2220,2025-02-17 11:35:05,0.0
-11356,-596,-7788,-12983,6130,-1788,2025-02-17 11:35:05,0.0
-12844,284,-2580,-10512,7072,-1302,2025-02-17 11:35:05,0.0
-12248,368,-2924,-7507,4693,-1479,2025-02-17 11:35:05,0.0
-12452,1644,-4648,-6005,2212,-2173,2025-02-17 11:35:05,0.0
-12408,1284,-5612,-5935,170,-2959,2025-02-17 11:35:05,0.0
-12504,1452,-6264,-5904,-1838,-3252,2025-02-17 11:35:05,0.0
-12340,748,-6568,-5660,-3223,-3224,2025-02-17 11:35:05,0.0
-12032,312,-5268,-5470,-1851,-2591,2025-02-17 11:35:05,0.0
-10600,-300,-6208,-5528,-77,-2178,2025-02-17 11:35:05,0.0
-10528,116,-4672,-4542,36,-2473,2025-02-17 11:35:05,0.0
-10580,208,-6104,-4298,208,-3056,2025-02-17 11:35:05,0.0
-10824,16,-6728,-4431,-978,-2984,2025-02-17 11:35:05,0.0
-10520,-56,-6164,-4180,-2536,-2286,2025-02-17 11:35:05,0.0
-10380,1272,-4740,-3099,-3188,-981,2025-02-17 11:35:05,0.0
-8420,1876,-4304,-950,-2707,-57,2025-02-17 11:35:05,0.0
-5536,20,-5048,884,-2097,209,2025-02-17 11:35:05,0.0
-4052,-1300,-4932,2494,-1958,-1283,2025-02-17 11:35:05,0.0
-4080,-2704,-6696,2044,-1643,-2275,2025-02-17 11:35:05,0.0
-4448,-1496,-5956,-455,1300,-2233,2025-02-17 11:35:05,0.0
-5300,-1056,-3532,-2108,6791,-2989,2025-02-17 11:35:05,0.0
-8212,-184,-2232,524,7583,-3167,2025-02-17 11:35:05,0.0
-11332,956,-5276,2285,3800,-2336,2025-02-17 11:35:05,0.0
-13936,1092,-2520,3319,283,179,2025-02-17 11:35:05,0.0
-13192,-540,-1732,3161,-1967,1172,2025-02-17 11:35:05,0.0
-14560,-432,1004,2728,-2871,1830,2025-02-17 11:35:05,0.0
-13976,-488,2520,3039,-4470,1643,2025-02-17 11:35:05,0.0
-10180,588,-2804,2199,-8039,261,2025-02-17 11:35:05,0.0
-10936,100,-5048,277,-7028,-226,2025-02-17 11:35:05,0.0
-11968,-676,-4736,-1062,-4577,-295,2025-02-17 11:35:05,0.0
-14548,-548,-3268,-2077,-5088,14,2025-02-17 11:35:05,0.0
-15204,-1908,-608,-2503,-6533,1310,2025-02-17 11:35:05,0.0
-11060,-4892,1064,-2071,-5573,1649,2025-02-17 11:35:05,0.0
-11736,-2696,-2588,-2178,-4821,1657,2025-02-17 11:35:05,0.0
-12664,-2992,-2244,-2045,-2557,1212,2025-02-17 11:35:05,0.0
-14300,-2204,-1112,-1957,-443,627,2025-02-17 11:35:05,0.0
-13732,-2588,-1028,-1864,-1279,-1076,2025-02-17 11:35:05,0.0
-15404,-1268,-1768,-1064,-2956,-1560,2025-02-17 11:35:05,0.0
-12584,-728,-2392,-609,-5648,-2612,2025-02-17 11:35:05,0.0
-16060,536,-3988,-1958,-7786,-2565,2025-02-17 11:35:05,0.0
-14452,-256,-4236,-3535,-8415,-2618,2025-02-17 11:35:05,0.0
-14484,-1136,-2924,-4912,-7420,-2668,2025-02-17 11:35:05,0.0
-16072,-2644,-2016,-5366,-6232,-2183,2025-02-17 11:35:05,0.0
-19720,-2220,-1980,-4525,-7084,-1478,2025-02-17 11:35:05,0.0
-16848,-2912,156,-2654,-9182,-1609,2025-02-17 11:35:05,0.0
-14408,-2632,-976,-1923,-9794,-1469,2025-02-17 11:35:05,0.0
-13244,-1920,128,-1715,-9449,-1076,2025-02-17 11:35:05,0.0
-11868,-1824,2004,-1977,-9516,-1505,2025-02-17 11:35:05,0.0
-13344,-1292,2844,-2047,-10541,-2075,2025-02-17 11:35:05,0.0
-13964,-1628,4100,-1748,-12108,-1029,2025-02-17 11:35:05,0.0
-13576,-2952,4672,-1257,-14788,-269,2025-02-17 11:35:06,0.0
-13384,-2676,5896,-729,-17152,-35,2025-02-17 11:35:06,0.0
-18488,-2892,8884,-229,-18158,725,2025-02-17 11:35:06,0.0
-25304,-3452,12824,224,-14438,1803,2025-02-17 11:35:06,0.0
-29132,-104,16644,314,-14876,1386,2025-02-17 11:35:06,0.0
-25744,-320,18956,1313,-15730,60,2025-02-17 11:35:06,0.0
-24348,-2584,8452,1952,-3089,-434,2025-02-17 11:35:06,0.0
-18764,-168,616,1638,12199,890,2025-02-17 11:35:06,0.0
-16636,-884,-3016,1658,10624,2317,2025-02-17 11:35:06,0.0
-11292,-228,2764,652,-3442,1281,2025-02-17 11:35:06,0.0
-11460,-140,5556,337,-3278,296,2025-02-17 11:35:06,0.0
-11584,944,7288,-400,-3088,-1689,2025-02-17 11:35:06,0.0
-12676,-300,7516,-320,-2075,-2435,2025-02-17 11:35:06,0.0
-14656,-1076,6792,181,-1702,-2469,2025-02-17 11:35:06,0.0
-14448,-836,4924,623,-3741,-1678,2025-02-17 11:35:06,0.0
-13880,28,4876,511,-5252,-1154,2025-02-17 11:35:06,0.0
-13160,404,5668,626,-5605,-815,2025-02-17 11:35:06,0.0
-13292,740,6412,277,-5565,-544,2025-02-17 11:35:06,0.0
-12116,-392,8820,759,-5135,-422,2025-02-17 11:35:06,0.0
-11612,-2156,4768,1141,-3116,86,2025-02-17 11:35:06,0.0
-10992,-2180,5876,-145,-4251,-623,2025-02-17 11:35:06,0.0
-11404,-1196,5660,588,-4054,-1161,2025-02-17 11:35:06,0.0
-12296,1156,5916,-966,-2274,-1910,2025-02-17 11:35:06,0.0
-13236,248,6188,-1583,-1456,-2612,2025-02-17 11:35:06,0.0
-14576,-104,6608,-1346,-2364,-2129,2025-02-17 11:35:06,0.0
-14428,-1096,6676,-908,-3734,-1821,2025-02-17 11:35:06,0.0
-13324,-1896,6132,-1171,-3777,-1296,2025-02-17 11:35:06,0.0
-13504,-1772,6680,-996,-4366,-1148,2025-02-17 11:35:06,0.0
-13100,-1684,7380,-1120,-4450,-1005,2025-02-17 11:35:06,0.0
-12016,-1644,7328,-834,-3340,-783,2025-02-17 11:35:06,
-11764,-2056,8232,275,-2185,-767,2025-02-17 11:35:06,0.0
-12540,-1760,7436,1159,-2154,-337,2025-02-17 11:35:06,0.0
-12708,-1140,7512,904,-2077,-323,2025-02-17 11:35:06,0.0
-13008,-1012,7956,402,-2040,-200,2025-02-17 11:35:06,0.0
-12684,-1492,8804,755,-1807,-121,2025-02-17 11:35:06,0.0
-11956,-1540,8048,1579,-1067,-301,2025-02-17 11:35:06,0.0
-12068,-1552,9120,2660,856,-401,2025-02-17 11:35:06,0.0
-12496,-1372,8004,3002,2452,-67,2025-02-17 11:35:06,0.0
-12200,-1380,8572,2616,1268,239,2025-02-17 11:35:06,0.0
-12956,-1488,7668,2155,177,719,2025-02-17 11:35:06,0.0
-13024,-1352,7540,1109,39,1496,2025-02-17 11:35:06,0.0
-13168,-1244,7472,447,602,1968,2025-02-17 11:35:06,0.0
-13344,-1484,7552,283,1398,2479,2025-02-17 11:35:06,0.0
-13584,-1628,8720,530,1511,3449,2025-02-17 11:35:06,0.0
-9684,-2068,5840,204,644,4422,2025-02-17 11:35:06,0.0
-12640,-40,7740,569,-90,4185,2025-02-17 11:35:06,0.0
-10988,960,6880,132,-378,2400,2025-02-17 11:35:06,0.0
-10392,1156,5896,-771,313,173,2025-02-17 11:35:06,0.0
-11888,148,6544,-982,1117,-720,2025-02-17 11:35:06,0.0
-13724,-428,7392,-928,1681,-374,2025-02-17 11:35:06,0.0
-14184,-924,9152,138,1734,-459,2025-02-17 11:35:06,0.0
-12128,-328,6444,164,1005,-1359,2025-02-17 11:35:06,0.0
-13004,-656,6196,217,-977,-2100,2025-02-17 11:35:06,0.0
-12972,-1104,6408,8,-1465,-1794,2025-02-17 11:35:06,0.0
-12772,-1176,6676,40,-541,-1123,2025-02-17 11:35:06,0.0
-12816,-1204,7152,-15,236,-640,2025-02-17 11:35:06,0.0
-12768,-1112,6572,-18,64,-245,2025-02-17 11:35:06,0.0
-12572,-184,6892,-42,631,-735,2025-02-17 11:35:06,0.0
-13280,-576,7088,-143,622,-1009,2025-02-17 11:35:06,0.0
-14028,-1160,6596,-661,988,-1023,2025-02-17 11:35:06,0.0
-14748,-1348,7224,-608,913,-494,2025-02-17 11:35:07,0.0
-13640,-992,7008,-643,-256,-9,2025-02-17 11:35:07,0.0
-12900,-592,7024,-598,-798,217,2025-02-17 11:35:07,0.0
-12136,184,7056,-324,-234,448,2025-02-17 11:35:07,0.0
-12220,188,6980,-336,153,-75,2025-02-17 11:35:07,0.0
-12400,-252,7132,-305,301,-514,2025-02-17 11:35:07,0.0
-13048,-768,7000,-284,390,-686,2025-02-17 11:35:07,0.0
-13308,-928,7008,-300,341,-746,2025-02-17 11:35:07,0.0
-13400,-1024,7004,-381,348,-561,2025-02-17 11:35:07,0.0
-13584,-920,7284,-351,171,-386,2025-02-17 11:35:07,0.0
-13216,-912,7176,-205,-262,-54,2025-02-17 11:35:07,0.0
-12788,-692,7340,-152,-360,52,2025-02-17 11:35:07,0.0
-12652,-752,7028,-123,-186,25,2025-02-17 11:35:07,0.0
-12524,-680,7388,-152,-21,-140,2025-02-17 11:35:07,0.0
-12736,-900,7316,-115,-40,-301,2025-02-17 11:35:07,0.0
-12944,-820,7468,-64,-23,-391,2025-02-17 11:35:07,0.0
-13024,-844,7408,-49,126,-409,2025-02-17 11:35:07,0.0
-13064,-900,7248,28,195,-293,2025-02-17 11:35:07,0.0
-13036,-888,7004,62,120,-115,2025-02-17 11:35:07,0.0
-12868,-848,7044,44,44,-77,2025-02-17 11:35:07,0.0
-12972,-724,6944,-3,8,-48,2025-02-17 11:35:07,0.0
-13844,-720,7612,25,26,61,2025-02-17 11:35:07,0.0
-12360,-600,6800,-62,35,-133,2025-02-17 11:35:07,0.0
-12936,-392,7428,-56,44,-324,2025-02-17 11:35:07,0.0
-12772,-468,6928,-92,161,-274,2025-02-17 11:35:07,0.0
-12936,-736,7332,-178,40,-161,2025-02-17 11:35:07,0.0
-12964,-720,7380,-178,67,-91,2025-02-17 11:35:07,0.0
-12868,-572,7332,-240,83,-134,2025-02-17 11:35:07,0.0
-12788,-560,7228,-255,120,-228,2025-02-17 11:35:07,0.0
-12976,-648,7268,-280,207,-258,2025-02-17 11:35:07,0.0
-13152,-800,7188,-232,170,-64,2025-02-17 11:35:07,0.0
-12720,-544,7008,-249,105,-203,2025-02-17 11:35:07,0.0
-12996,-708,7144,-212,-91,-198,2025-02-17 11:35:07,0.0
-12836,-740,7208,-225,-84,-247,2025-02-17 11:35:07,0.0
-12900,-732,7360,-230,81,-216,2025-02-17 11:35:07,0.0
-13096,-836,7160,-258,49,-171,2025-02-17 11:35:07,0.0
-12888,-944,7088,-87,9,-137,2025-02-17 11:35:07,0.0
-12904,-1192,6928,5,223,21,2025-02-17 11:35:07,0.0
-13352,-1304,6936,174,419,279,2025-02-17 11:35:07,0.0
-13200,-1128,7208,537,-76,749,2025-02-17 11:35:07,0.0
-13128,-760,7580,848,-643,917,2025-02-17 11:35:07,0.0
-12740,-96,7684,1007,-543,680,2025-02-17 11:35:07,0.0
-11972,-400,7312,575,-322,288,2025-02-17 11:35:07,0.0
-12284,-32,7180,563,167,-272,2025-02-17 11:35:07,0.0
-13316,-652,6816,554,-82,-442,2025-02-17 11:35:07,0.0
-12972,-1028,6340,-491,-939,-924,2025-02-17 11:35:07,0.0
-13096,-916,6488,-794,-1324,-701,2025-02-17 11:35:07,0.0
-12392,-1016,7556,-1004,-1283,-126,2025-02-17 11:35:07,0.0
-11304,120,8168,-930,-253,-338,2025-02-17 11:35:07,0.0
-10660,660,4992,-1296,1213,-1132,2025-02-17 11:35:07,0.0
-13424,-1108,7836,-1415,389,-1569,2025-02-17 11:35:07,0.0
-13576,-852,7728,-1309,397,-274,2025-02-17 11:35:07,0.0
-12716,-280,6156,-952,396,-398,2025-02-17 11:35:07,0.0
-11908,-948,5376,-1276,365,-1223,2025-02-17 11:35:07,0.0
-12644,4,5740,-1109,223,-1132,2025-02-17 11:35:07,0.0
-13872,828,6588,63,-644,-140,2025-02-17 11:35:07,0.0
-13200,1476,6532,-1730,-930,811,2025-02-17 11:35:07,0.0
-12248,-652,8664,-240,-1437,31,2025-02-17 11:35:07,0.0
-14740,-1204,8480,1066,-3787,-166,2025-02-17 11:35:07,0.0
-13668,-1840,8212,858,-5622,-346,2025-02-17 11:35:07,0.0
-12324,-2364,8412,1554,-6868,-613,2025-02-17 11:35:07,0.0
-11684,-3256,8916,797,-6516,-1100,2025-02-17 11:35:08,0.0
-11616,-3176,10872,875,-4949,-784,2025-02-17 11:35:08,0.0
-11292,-2700,9492,657,-2018,-197,2025-02-17 11:35:08,0.0
-10680,-1960,9880,-143,-42,249,2025-02-17 11:35:08,0.0
-10576,-1472,9404,-1475,1381,190,2025-02-17 11:35:08,0.0
-11492,-964,9500,-1478,2389,-154,2025-02-17 11:35:08,0.0
-12088,-804,9984,-1640,2130,-189,2025-02-17 11:35:08,0.0
-11628,-652,10128,-1715,1999,-159,2025-02-17 11:35:08,0.0
-11016,-344,11708,-1652,2484,19,2025-02-17 11:35:08,
-7696,-868,11804,-1389,5583,-435,2025-02-17 11:35:08,0.0
-11720,-320,9972,-1574,7015,79,2025-02-17 11:35:08,0.0
-12704,-640,10936,-837,9033,616,2025-02-17 11:35:08,0.0
-11324,-112,7888,-109,10356,499,2025-02-17 11:35:08,0.0
-12572,508,6664,-583,11782,504,2025-02-17 11:35:08,0.0
-13432,76,7636,-927,11660,1006,2025-02-17 11:35:08,0.0
-13756,676,7264,-322,9712,1124,2025-02-17 11:35:08,0.0
-13776,428,5796,191,7214,1294,2025-02-17 11:35:08,0.0
-14464,-204,6552,784,6549,1979,2025-02-17 11:35:08,0.0
-13376,-140,6252,1119,6963,1979,2025-02-17 11:35:08,0.0
-12920,-672,7712,969,8193,1934,2025-02-17 11:35:08,0.0
-9860,-604,7260,364,11525,1570,2025-02-17 11:35:08,0.0
-11896,-2156,8612,502,12798,614,2025-02-17 11:35:08,0.0
-15440,-344,7564,-1496,18740,-1159,2025-02-17 11:35:08,0.0
-19668,-632,4720,-2753,22129,-1138,2025-02-17 11:35:08,0.0
-18904,-1036,4748,-2772,20763,-1241,2025-02-17 11:35:08,0.0
-23128,-1232,4580,-2335,17667,-1287,2025-02-17 11:35:08,0.0
-22124,-240,4140,-1833,13944,-44,2025-02-17 11:35:08,0.0
-18432,-996,4232,-924,11847,19,2025-02-17 11:35:08,0.0
-19284,-968,2608,-299,11471,334,2025-02-17 11:35:08,0.0
-20200,-1044,628,-11,9999,-121,2025-02-17 11:35:08,0.0
-20320,-1524,1744,181,8121,-353,2025-02-17 11:35:08,0.0
-13552,-284,-2424,1791,6828,-1584,2025-02-17 11:35:08,0.0
-14536,-200,-3596,1732,7451,-2115,2025-02-17 11:35:08,0.0
-14172,-240,-3368,2242,8542,-3183,2025-02-17 11:35:08,0.0
-15352,-260,-3804,3151,8190,-3796,2025-02-17 11:35:08,0.0
-15856,8,-5196,2757,4176,-2488,2025-02-17 11:35:08,0.0
-14676,180,-5916,1488,-53,-664,2025-02-17 11:35:08,0.0
-12488,-28,-3356,1185,-3129,210,2025-02-17 11:35:08,0.0
-11824,-888,-2696,2006,-2992,10,2025-02-17 11:35:08,0.0
-11600,-1160,-2804,1994,-1042,-471,2025-02-17 11:35:08,0.0
-11344,-692,-4700,597,-1174,-1344,2025-02-17 11:35:08,0.0
-12856,136,-4324,-817,-560,-1445,2025-02-17 11:35:08,0.0
-13584,-364,-3816,-1373,203,-884,2025-02-17 11:35:08,0.0
-13068,-512,-2484,-1455,800,-208,2025-02-17 11:35:08,0.0
-9412,-384,-4116,-2278,-30,1138,2025-02-17 11:35:08,0.0
-9076,76,-4892,-4550,-538,546,2025-02-17 11:35:08,0.0
-8700,416,-4520,-6083,-1167,1211,2025-02-17 11:35:08,0.0
-6340,376,-3624,-6746,-4467,3042,2025-02-17 11:35:08,0.0
-7132,-432,-3036,-6349,-1839,3317,2025-02-17 11:35:08,0.0
-5800,-544,-1616,-6421,4193,2738,2025-02-17 11:35:09,0.0
-4720,-36,-288,-6452,10404,2524,2025-02-17 11:35:09,0.0
-648,144,3620,-5417,11558,2401,2025-02-17 11:35:09,0.0
752,136,5288,-2664,7362,2946,2025-02-17 11:35:09,0.0
2248,148,4592,862,2031,3560,2025-02-17 11:35:09,0.0
4292,260,1712,1976,-2585,2788,2025-02-17 11:35:09,0.0
5028,36,-44,1111,-5892,1112,2025-02-17 11:35:09,0.0
3752,-460,880,-499,-7627,-168,2025-02-17 11:35:09,0.0
3492,-424,920,-1221,-8369,-1074,2025-02-17 11:35:09,0.0
2848,-476,1180,-1642,-8678,-1510,2025-02-17 11:35:09,0.0
2696,-340,1336,-1864,-8612,-1624,2025-02-17 11:35:09,0.0
2268,-436,1528,-1970,-8159,-1650,2025-02-17 11:35:09,0.0
2332,-388,1628,-2061,-7563,-1665,2025-02-17 11:35:09,0.0
2396,-320,1468,-2077,-6874,-1693,2025-02-17 11:35:09,0.0
2332,-400,1540,-2053,-6075,-1738,2025-02-17 11:35:09,0.0
2444,-420,1348,-2023,-5244,-1844,2025-02-17 11:35:09,0.0
2396,-404,1368,-2006,-4548,-1864,2025-02-17 11:35:09,0.0
2496,-480,1292,-2034,-3875,-1875,2025-02-17 11:35:09,0.0
2620,-412,1260,-2050,-3313,-2001,2025-02-17 11:35:09,0.0
2680,-376,1372,-1973,-2691,-2254,2025-02-17 11:35:09,0.0
2804,-428,1540,-1882,-1956,-2682,2025-02-17 11:35:09,0.0
2616,-372,1328,-1793,-1048,-3065,2025-02-17 11:35:09,0.0
2488,-364,1412,-1815,-48,-3403,2025-02-17 11:35:09,0.0
2300,-452,1260,-1785,926,-3647,2025-02-17 11:35:09,0.0
2500,-420,944,-1879,1837,-3935,2025-02-17 11:35:09,0.0
2348,-376,968,-2093,2714,-4390,2025-02-17 11:35:09,0.0
2668,-564,980,-2287,3033,-4937,2025-02-17 11:35:09,0.0
-2352,-132,-4448,-3925,3025,-3202,2025-02-17 11:35:09,0.0
-32768,-1824,-32768,-32768,32767,32767,2025-02-17 11:35:09,0.0
-32768,32767,-32768,-16658,32767,11455,2025-02-17 11:35:09,0.0
-32768,19544,-32768,-8104,32767,-12619,2025-02-17 11:35:09,0.0
-23164,1020,-14236,-16293,32767,10471,2025-02-17 11:35:09,0.0
-1576,-848,-412,-17858,32767,12996,2025-02-17 11:35:09,0.0
5872,-1724,2212,-18446,32767,10954,2025-02-17 11:35:09,0.0
3672,-1200,3112,-18286,32767,8259,2025-02-17 11:35:09,0.0
3960,-388,4408,-17351,32767,5696,2025-02-17 11:35:09,0.0
3464,-672,3272,-15746,32767,3626,2025-02-17 11:35:09,0.0
3004,-376,2992,-14627,32767,2357,2025-02-17 11:35:09,0.0
3088,80,3712,-13043,32304,997,2025-02-17 11:35:09,0.0
4820,1436,5472,-9050,27132,-694,2025-02-17 11:35:09,0.0
5784,3308,7688,-396,15998,-2362,2025-02-17 11:35:09,0.0
6648,7532,9600,13041,-1398,-4455,2025-02-17 11:35:09,0.0
8204,10236,8840,32767,-23199,-7699,2025-02-17 11:35:09,0.0
5500,6988,-956,32767,-32768,-12672,2025-02-17 11:35:09,0.0
-9556,3564,-32768,32767,-32768,-17791,2025-02-17 11:35:09,0.0
-24548,5540,-32768,10840,-27503,-13863,2025-02-17 11:35:09,0.0
-23820,7000,-32744,-11944,-6527,-8362,2025-02-17 11:35:09,0.0
-17860,6296,-9180,-7704,962,-6891,2025-02-17 11:35:09,0.0
-14192,3392,-5260,-4829,66,-3388,2025-02-17 11:35:09,0.0
-10744,2260,-2676,-2768,-840,-160,2025-02-17 11:35:09,0.0
-5372,2192,-4932,290,3646,980,2025-02-17 11:35:09,0.0
-5016,5024,-11204,697,7557,-30,2025-02-17 11:35:09,0.0
-5556,4108,-14616,1063,5276,-272,2025-02-17 11:35:09,0.0
-4224,2564,-16064,155,1321,-143,2025-02-17 11:35:09,0.0
-4552,2824,-13400,-723,-1042,-143,2025-02-17 11:35:09,0.0
-6012,3768,-11076,-582,-1516,-199,2025-02-17 11:35:09,0.0
-6608,3956,-10848,-130,113,-173,2025-02-17 11:35:09,0.0
-5892,3432,-12120,63,1071,-153,2025-02-17 11:35:09,0.0
-5220,3120,-12796,-99,490,-187,2025-02-17 11:35:09,0.0
-5808,3504,-12648,-252,-262,-147,2025-02-17 11:35:09,
-6212,3576,-12092,-220,45,-176,2025-02-17 11:35:09,0.0
-5612,3508,-11776,-96,381,-172,2025-02-17 11:35:09,0.0
-5668,3460,-12468,-122,107,-218,2025-02-17 11:35:10,0.0
-5864,3456,-12308,-201,82,-167,2025-02-17 11:35:10,0.0
-5760,3560,-12200,-175,225,-140,2025-02-17 11:35:10,0.0
-5700,3536,-12124,-145,196,-195,2025-02-17 11:35:10,0.0
-5872,3504,-12344,-157,149,-188,2025-02-17 11:35:10,0.0
-5860,3480,-12252,-177,176,-192,2025-02-17 11:35:10,0.0
-5756,3568,-12112,-157,177,-172,2025-02-17 11:35:10,0.0
-5740,3576,-12216,-154,141,-187,2025-02-17 11:35:10,0.0
-5728,3556,-12164,-159,164,-177,2025-02-17 11:35:10,0.0
-5832,3468,-12264,-158,150,-175,2025-02-17 11:35:10,0.0
-5684,3536,-12232,-168,176,-192,2025-02-17 11:35:10,0.0
-5808,3480,-12260,-163,171,-176,2025-02-17 11:35:10,0.0
-5776,3512,-12132,-146,174,-191,2025-02-17 11:35:10,0.0
-5684,3464,-12144,-166,178,-174,2025-02-17 11:35:10,0.0
-5844,3420,-12332,-147,156,-187,2025-02-17 11:35:10,0.0
-5716,3552,-12144,-193,178,-182,2025-02-17 11:35:10,0.0
-5768,3388,-12300,-168,156,-166,2025-02-17 11:35:10,0.0
-5744,3484,-12172,-148,157,-176,2025-02-17 11:35:10,0.0
-5800,3500,-12156,-167,150,-187,2025-02-17 11:35:10,0.0
-5840,3464,-12160,-173,154,-169,2025-02-17 11:35:10,0.0
-5748,3500,-12168,-131,181,-188,2025-02-17 11:35:10,0.0
-5800,3532,-12292,-170,157,-199,2025-02-17 11:35:10,0.0
-5892,3476,-11980,-192,179,-185,2025-02-17 11:35:10,0.0
-5700,3480,-12128,-167,175,-176,2025-02-17 11:35:10,0.0
-5808,3528,-12164,-152,150,-182,2025-02-17 11:35:10,0.0
-5776,3544,-12248,-152,152,-192,2025-02-17 11:35:10,0.0
-5828,3476,-12180,-176,159,-188,2025-02-17 11:35:10,0.0
-5740,3516,-12164,-195,155,-166,2025-02-17 11:35:10,0.0
-5896,3488,-12396,-147,153,-169,2025-02-17 11:35:10,0.0
-5848,3480,-12196,-136,167,-176,2025-02-17 11:35:10,0.0
-5816,3536,-12244,-141,142,-158,2025-02-17 11:35:10,0.0
-5796,3484,-12196,-136,137,-176,2025-02-17 11:35:10,0.0
-5876,3492,-12244,-163,192,-161,2025-02-17 11:35:10,0.0
-5780,3504,-12352,-193,168,-177,2025-02-17 11:35:10,0.0
-5868,3508,-12264,-155,168,-177,2025-02-17 11:35:10,0.0
-5740,3508,-12292,-190,156,-167,2025-02-17 11:35:10,0.0
-5776,3556,-12040,-138,160,-164,2025-02-17 11:35:10,0.0
-5776,3380,-12360,-138,155,-179,2025-02-17 11:35:10,0.0
-5772,3512,-12148,-139,158,-157,2025-02-17 11:35:10,0.0
-5808,3516,-12180,-168,173,-164,2025-02-17 11:35:10,0.0
-5744,3436,-12316,-145,188,-167,2025-02-17 11:35:10,0.0
-5856,3468,-12156,-175,179,-175,2025-02-17 11:35:10,0.0
-5840,3420,-12192,-142,151,-190,2025-02-17 11:35:10,0.0
-5924,3448,-12176,-147,167,-175,2025-02-17 11:35:10,0.0
-5792,3508,-12256,-158,173,-177,2025-02-17 11:35:10,0.0
-5868,3480,-12208,-179,184,-192,2025-02-17 11:35:10,0.0
-5824,3392,-12272,-202,165,-197,2025-02-17 11:35:10,0.0
-5624,3536,-12264,-165,174,-189,2025-02-17 11:35:10,0.0
-5760,3548,-12368,-140,156,-173,2025-02-17 11:35:10,0.0
-5776,3488,-12308,-137,164,-176,2025-02-17 11:35:10,0.0
-5804,3552,-12120,-159,139,-179,2025-02-17 11:35:10,0.0
-5732,3628,-12084,-161,182,-158,2025-02-17 11:35:10,0.0
-5764,3472,-12184,-164,171,-168,2025-02-17 11:35:10,0.0
-5876,3508,-12280,-185,179,-171,2025-02-17 11:35:10,0.0
-5808,3480,-12196,-153,182,-163,2025-02-17 11:35:10,0.0
-5796,3448,-12152,-159,175,-180,2025-02-17 11:35:10,0.0
-5796,3456,-12228,-140,178,-184,2025-02-17 11:35:11,0.0
-5776,3508,-12200,-172,171,-158,2025-02-17 11:35:11,0.0
-5732,3452,-12228,-142,173,-173,2025-02-17 11:35:11,0.0
-5836,3464,-12036,-126,163,-184,2025-02-17 11:35:11,0.0
-5860,3516,-12096,-135,172,-181,2025-02-17 11:35:11,0.0
-5844,3524,-12208,-156,156,-182,2025-02-17 11:35:11,0.0
-5744,3496,-12172,-173,186,-165,2025-02-17 11:35:11,0.0
-5836,3500,-12284,-160,166,-176,2025-02-17 11:35:11,0.0
-5860,3492,-12304,-168,183,-160,2025-02-17 11:35:11,0.0
-5892,3556,-12132,-178,171,-166,2025-02-17 11:35:11,0.0
-5864,3576,-12248,-160,168,-192,2025-02-17 11:35:11,0.0
-5792,3472,-12140,-173,141,-181,2025-02-17 11:35:11,0.0
-5808,3428,-12204,-167,168,-157,2025-02-17 11:35:11,0.0
-5716,3592,-12220,-179,149,-192,2025-02-17 11:35:11,0.0
-5800,3388,-12236,-168,153,-176,2025-02-17 11:35:11,0.0
-5652,4244,-11360,426,-441,-188,2025-02-17 11:35:11,0.0
5944,2284,-10460,1100,-3345,-3143,2025-02-17 11:35:11,0.0
-1132,1560,-12956,1469,-3095,-4945,2025-02-17 11:35:11,0.0
-5980,2124,-13700,-338,-2272,-5838,2025-02-17 11:35:11,0.0
-7516,3408,-12584,-433,455,-5272,2025-02-17 11:35:11,0.0
-11992,4508,-12372,1230,3717,-4660,2025-02-17 11:35:11,0.0
-12704,3404,-12012,60,1015,-185,2025-02-17 11:35:11,0.0
-7568,2620,-12384,352,2455,458,2025-02-17 11:35:11,0.0
-5412,3396,-12968,408,2808,634,2025-02-17 11:35:11,0.0
-6028,2960,-12796,-2561,3883,-570,2025-02-17 11:35:11,0.0
-3568,3608,-8612,479,3142,-217,2025-02-17 11:35:11,0.0
-4368,4020,-12592,1343,-85,-771,2025-02-17 11:35:11,0.0
-6264,2656,-13072,895,-1398,-633,2025-02-17 11:35:11,0.0
-6552,2460,-13056,938,-591,-293,2025-02-17 11:35:11,0.0
-6052,1708,-12508,-46,-778,-90,2025-02-17 11:35:11,0.0
-4440,4148,-12076,-147,-824,-382,2025-02-17 11:35:11,0.0
-5892,1912,-12396,-95,-1304,-170,2025-02-17 11:35:11,0.0
-5796,2264,-12668,-614,-1404,-366,2025-02-17 11:35:11,0.0
-6348,2156,-11704,-717,-45,-553,2025-02-17 11:35:11,0.0
-7180,3044,-10496,-216,1993,-746,2025-02-17 11:35:11,0.0
-6776,3252,-10108,696,3719,-731,2025-02-17 11:35:11,0.0
-6124,2872,-11192,2307,4727,-892,2025-02-17 11:35:11,0.0
-6964,2576,-16152,905,5417,-585,2025-02-17 11:35:11,0.0
-5424,2888,-12952,962,4048,261,2025-02-17 11:35:11,0.0
-4120,2412,-13432,1639,1824,753,2025-02-17 11:35:11,0.0
-1812,2228,-14440,780,-2028,500,2025-02-17 11:35:11,0.0
-7160,1296,-11648,-633,-3091,431,2025-02-17 11:35:11,
-6864,1668,-12500,736,1476,275,2025-02-17 11:35:11,0.0
-5232,3848,-12928,612,2975,-737,2025-02-17 11:35:11,0.0
-5976,4792,-13612,548,2392,-987,2025-02-17 11:35:11,0.0
-5876,4096,-13896,461,2603,-1064,2025-02-17 11:35:11,0.0
-6480,2948,-13976,1032,3707,-1024,2025-02-17 11:35:11,0.0
-6584,2888,-14660,1599,5672,-931,2025-02-17 11:35:11,0.0
-5640,3160,-15780,1657,6892,-925,2025-02-17 11:35:11,0.0
-5412,3632,-16812,1457,6323,36,2025-02-17 11:35:11,0.0
-3692,3852,-18420,-96,5855,1212,2025-02-17 11:35:11,0.0
-4244,5420,-15908,-1561,5714,2280,2025-02-17 11:35:11,0.0
-6644,9328,-10988,1549,4432,5384,2025-02-17 11:35:11,0.0
-8204,9584,-14092,7845,5123,10332,2025-02-17 11:35:11,0.0
-5016,7120,-18124,9535,11482,13211,2025-02-17 11:35:11,0.0
-328,4312,-19088,11142,16744,11067,2025-02-17 11:35:11,0.0
2088,2940,-22496,11264,18346,7231,2025-02-17 11:35:11,0.0
364,2440,-22888,10382,18519,3795,2025-02-17 11:35:11,0.0
-284,1904,-21644,9602,16788,2112,2025-02-17 11:35:11,0.0
-1544,1064,-21264,9437,15420,500,2025-02-17 11:35:11,0.0
-3564,860,-18764,9376,14815,860,2025-02-17 11:35:11,0.0
-2604,124,-18712,10753,13720,1051,2025-02-17 11:35:11,0.0
-644,-680,-20948,9147,10356,380,2025-02-17 11:35:11,0.0
-668,-1820,-19520,7593,2983,-101,2025-02-17 11:35:11,0.0
656,-3484,-21148,6782,-7362,467,2025-02-17 11:35:11,0.0
1792,-5088,-21740,5353,-17611,1452,2025-02-17 11:35:12,0.0
2684,-5132,-22348,3425,-24855,1295,2025-02-17 11:35:12,0.0
756,-4272,-22544,1476,-27877,1440,2025-02-17 11:35:12,0.0
-3236,-3192,-22808,-970,-26235,3334,2025-02-17 11:35:12,0.0
-5228,-1672,-19180,-214,-22846,6404,2025-02-17 11:35:12,0.0
-5712,48,-20076,2334,-17316,7450,2025-02-17 11:35:12,0.0
-9728,1080,-23324,1121,-5443,7952,2025-02-17 11:35:12,0.0
-8724,1356,-20300,-2175,7866,8625,2025-02-17 11:35:12,0.0
-5092,500,-16336,325,13981,7409,2025-02-17 11:35:12,0.0
-3420,-1100,-19840,1749,10934,6208,2025-02-17 11:35:12,0.0
-584,-2380,-19908,514,2850,4210,2025-02-17 11:35:12,0.0
-316,-2804,-17344,3,-7375,1011,2025-02-17 11:35:12,0.0
-1352,-3336,-14720,1133,-14390,-1036,2025-02-17 11:35:12,0.0
-2924,-3648,-15532,2037,-20798,-1816,2025-02-17 11:35:12,0.0
-5596,-3052,-16184,-1307,-27209,-820,2025-02-17 11:35:12,0.0
-7240,-2128,-12876,-3170,-29042,1238,2025-02-17 11:35:12,0.0
-6824,-824,-9660,-1945,-28330,2872,2025-02-17 11:35:12,0.0
-5976,88,-8500,292,-26340,3698,2025-02-17 11:35:12,0.0
-6156,-56,-9224,991,-23830,4365,2025-02-17 11:35:12,0.0
-6020,-24,-8448,1189,-20445,5036,2025-02-17 11:35:12,0.0
-5644,-184,-7512,1865,-14824,4724,2025-02-17 11:35:12,0.0
-6264,-548,-7352,1566,-8257,3983,2025-02-17 11:35:12,0.0
-5456,-840,-7092,217,-1784,3027,2025-02-17 11:35:12,0.0
-5128,-500,-5436,-614,3668,2140,2025-02-17 11:35:12,0.0
-4520,32,-2312,830,8158,2117,2025-02-17 11:35:12,0.0
-3624,-208,-2784,4568,11466,3005,2025-02-17 11:35:12,0.0
-1492,-464,-3552,6108,11400,3688,2025-02-17 11:35:12,0.0
-2688,-760,-5076,6460,8635,4378,2025-02-17 11:35:12,0.0
-3520,-860,-4952,5744,5279,5583,2025-02-17 11:35:12,0.0
-3584,-376,-4068,5702,1303,6530,2025-02-17 11:35:12,0.0
-5112,816,-3936,6063,-2774,8003,2025-02-17 11:35:12,0.0
-4316,1632,-4368,6172,-7951,9520,2025-02-17 11:35:12,0.0
-2884,1364,-4812,6510,-13123,8865,2025-02-17 11:35:12,0.0
-2496,584,-4120,7302,-19004,6634,2025-02-17 11:35:12,0.0
-3192,40,-3596,7870,-23017,4692,2025-02-17 11:35:12,0.0
-4372,-472,-3712,7352,-25876,3614,2025-02-17 11:35:12,0.0
-4544,-452,-1984,6324,-27396,2790,2025-02-17 11:35:12,0.0
-4640,-88,-1296,5680,-27462,1703,2025-02-17 11:35:12,0.0
-5360,-36,-3044,3767,-26516,1315,2025-02-17 11:35:12,0.0
-5896,-428,-1244,2507,-24350,44,2025-02-17 11:35:12,0.0
-8256,-868,-1920,1775,-20982,-652,2025-02-17 11:35:12,0.0
-10780,-748,-2492,886,-16646,-541,2025-02-17 11:35:12,0.0
-12660,-460,-2268,1227,-10835,294,2025-02-17 11:35:12,0.0
-13132,16,-2788,2528,-4420,-39,2025-02-17 11:35:12,0.0
-3456,-480,6308,12385,-16315,-532,2025-02-17 11:35:12,0.0
-17172,-312,-5644,7690,-21551,-615,2025-02-17 11:35:12,0.0
-19112,76,-2960,644,-20702,808,2025-02-17 11:35:12,0.0
-16368,-1988,996,3551,-14579,-115,2025-02-17 11:35:12,0.0
-12264,-2644,-1156,5785,-7801,-1030,2025-02-17 11:35:12,0.0
-10952,-1408,-688,6211,-5314,-462,2025-02-17 11:35:12,0.0
-10200,-1764,-388,5596,-48,-223,2025-02-17 11:35:12,0.0
-11492,-1660,-252,5834,6181,601,2025-02-17 11:35:12,0.0
-12672,-1832,-564,6700,9725,2694,2025-02-17 11:35:12,0.0
-13152,-1376,-848,6640,8344,3493,2025-02-17 11:35:12,0.0
-12708,-1456,-1088,6621,6155,1277,2025-02-17 11:35:12,0.0
-12604,-1672,-1276,6225,3534,-677,2025-02-17 11:35:12,0.0
-13288,-2196,-2020,5560,2580,-2170,2025-02-17 11:35:12,0.0
-15248,-2132,-1708,5158,4133,-2149,2025-02-17 11:35:12,0.0
-14436,-2616,-1220,6212,3196,-1173,2025-02-17 11:35:12,0.0
-13748,-2604,-1604,6783,1937,-656,2025-02-17 11:35:12,0.0
-13344,-2288,-1840,7232,2559,-965,2025-02-17 11:35:13,0.0
-13340,-2492,-1508,7581,3385,-1177,2025-02-17 11:35:13,0.0
-13860,-2628,-1352,8461,3097,-1332,2025-02-17 11:35:13,0.0
-14208,-2796,-1840,9193,3045,-553,2025-02-17 11:35:13,0.0
-13828,-3356,-2368,9959,3055,422,2025-02-17 11:35:13,0.0
-13392,-3412,-2340,10469,3114,1253,2025-02-17 11:35:13,0.0
-12952,-3440,-3008,10425,3655,1976,2025-02-17 11:35:13,0.0
-12468,-2956,-2808,10428,4959,2103,2025-02-17 11:35:13,0.0
-11884,-2412,-2640,10810,6406,1535,2025-02-17 11:35:13,0.0
-12600,-1844,-3420,11250,7699,925,2025-02-17 11:35:13,0.0
-13876,-1584,-2120,12639,7682,1073,2025-02-17 11:35:13,0.0
-15280,-1336,-1480,13700,5998,1763,2025-02-17 11:35:13,0.0
-21316,-1180,-96,13911,1390,1872,2025-02-17 11:35:13,0.0
-14584,-256,-2884,12259,810,730,2025-02-17 11:35:13,0.0
-14224,372,-1884,10480,-1788,-479,2025-02-17 11:35:13,0.0
-13044,384,-1220,9601,-3319,-1304,2025-02-17 11:35:13,0.0
-12244,412,-676,8822,-3014,-1820,2025-02-17 11:35:13,
-11380,192,-780,7835,-1129,-2384,2025-02-17 11:35:13,0.0
-10920,-440,-1368,6532,1750,-2844,2025-02-17 11:35:13,0.0
-10884,-1172,-1264,5242,3897,-3338,2025-02-17 11:35:13,0.0
-11692,-1508,-868,3872,4877,-3578,2025-02-17 11:35:13,0.0
-13580,-1636,-988,2767,5721,-3039,2025-02-17 11:35:13,0.0
-15080,-1740,-776,1958,6769,-1403,2025-02-17 11:35:13,0.0
-15012,-2248,-920,1138,6589,462,2025-02-17 11:35:13,0.0
-14228,-2624,-720,837,4842,953,2025-02-17 11:35:13,0.0
-13688,-2536,-1228,537,2389,901,2025-02-17 11:35:13,0.0
-13028,-2244,-1012,310,706,820,2025-02-17 11:35:13,0.0
-12300,-2248,-1340,29,870,742,2025-02-17 11:35:13,0.0
-12360,-2096,-1192,-407,1375,424,2025-02-17 11:35:13,0.0
-12868,-2500,-1036,-1075,1507,-126,2025-02-17 11:35:13,0.0
-13552,-3180,-800,-1708,771,-483,2025-02-17 11:35:13,0.0
-13828,-4276,496,-2061,-421,-451,2025-02-17 11:35:13,0.0
-13572,-5192,1152,-2128,-2124,-336,2025-02-17 11:35:13,0.0
-12668,-6012,-1860,-2534,-2484,-703,2025-02-17 11:35:13,0.0
-12392,-5464,-4016,-3273,-585,-1515,2025-02-17 11:35:13,0.0
-13328,-5376,-4552,-4094,2681,-2358,2025-02-17 11:35:13,0.0
-14532,-4660,-4168,-4574,5418,-3828,2025-02-17 11:35:13,0.0
-16548,-3376,-4296,-4167,4824,-4387,2025-02-17 11:35:13,0.0
-17516,-3060,-5008,-4085,3850,-3113,2025-02-17 11:35:13,0.0
-17548,-2172,-5276,-3417,1437,-1564,2025-02-17 11:35:13,0.0
-16352,-2672,-8488,-2889,-1060,106,2025-02-17 11:35:13,0.0
-14992,-3248,-10020,-2784,-1346,1127,2025-02-17 11:35:13,0.0
-14644,-3164,-9524,-3182,2114,1651,2025-02-17 11:35:13,0.0
-14260,-1984,-8992,-3374,3843,2453,2025-02-17 11:35:13,0.0
-14132,124,-7044,-3263,3645,2682,2025-02-17 11:35:13,0.0
-14628,1916,-5176,-3037,1857,2972,2025-02-17 11:35:13,0.0
-15264,2416,-4292,-2253,-1434,3633,2025-02-17 11:35:13,0.0
-14976,2360,-3888,-969,-6018,4833,2025-02-17 11:35:13,0.0
-13600,1492,-4320,-161,-8950,5641,2025-02-17 11:35:13,0.0
-11596,464,-4656,245,-9618,5563,2025-02-17 11:35:13,0.0
-10640,356,-4208,10,-7955,5188,2025-02-17 11:35:13,0.0
-10672,1652,-4292,-600,-4245,4973,2025-02-17 11:35:13,0.0
-10996,1776,-2932,-1429,-809,4628,2025-02-17 11:35:13,0.0
-12688,904,-1820,-2288,1365,4205,2025-02-17 11:35:13,0.0
-14976,432,-2112,-3074,1167,5139,2025-02-17 11:35:13,0.0
-15820,856,-3608,-4390,-1089,6531,2025-02-17 11:35:13,0.0
-14108,1936,-4172,-5729,-5180,7404,2025-02-17 11:35:13,0.0
-13060,2920,-3684,-6456,-8824,7430,2025-02-17 11:35:13,0.0
-10120,2880,-2360,-6838,-10522,6735,2025-02-17 11:35:13,0.0
-7956,2268,-1676,-7074,-9010,4573,2025-02-17 11:35:13,0.0
-6868,1620,-1388,-7224,-4878,2155,2025-02-17 11:35:14,0.0
-6744,1104,-1532,-7270,-1015,248,2025-02-17 11:35:14,0.0
-8204,1360,-1384,-7202,2002,-974,2025-02-17 11:35:14,0.0
-10000,1660,-756,-6982,3921,-1594,2025-02-17 11:35:14,0.0
-12016,1716,-704,-6532,4793,-1300,2025-02-17 11:35:14,0.0
-12396,2920,-332,-6003,4374,-1112,2025-02-17 11:35:14,0.0
-11800,3552,-960,-5575,2789,-1646,2025-02-17 11:35:14,0.0
-11616,4052,-468,-4823,1235,-2800,2025-02-17 11:35:14,0.0
-12160,4244,-720,-4303,112,-3562,2025-02-17 11:35:14,0.0
-11528,4764,-1004,-4288,-1648,-4486,2025-02-17 11:35:14,0.0
-11972,4304,-1508,-4720,-2662,-5555,2025-02-17 11:35:14,0.0
-12980,3192,-736,-5183,-1968,-6392,2025-02-17 11:35:14,0.0
-13620,2760,-1328,-5976,-911,-6602,2025-02-17 11:35:14,0.0
-14220,3064,-2164,-6535,552,-6567,2025-02-17 11:35:14,0.0
-14980,3628,-3116,-7198,1686,-6321,2025-02-17 11:35:14,0.0
-15636,4236,-3196,-7674,2798,-5908,2025-02-17 11:35:14,0.0
-17108,4636,-5128,-8336,4434,-5650,2025-02-17 11:35:14,0.0
-19824,2312,-7812,-8473,10206,-4862,2025-02-17 11:35:14,0.0
-21896,400,-8032,-9083,13801,-4248,2025-02-17 11:35:14,0.0
-29080,980,-4672,-8805,8426,-2850,2025-02-17 11:35:14,0.0
-16972,2368,-7760,-8055,1215,-2506,2025-02-17 11:35:14,0.0
-11248,4476,-8872,-8220,-12846,-3455,2025-02-17 11:35:14,0.0
-8740,1704,-6724,-7708,-17818,-4899,2025-02-17 11:35:14,0.0
-8856,-368,-5540,-7751,-11738,-3856,2025-02-17 11:35:14,0.0
-7188,-1660,-5052,-8842,-880,-3775,2025-02-17 11:35:14,0.0
-7104,-992,-4976,-10185,5901,-5129,2025-02-17 11:35:14,0.0
-10108,1992,-6080,-10925,8399,-5938,2025-02-17 11:35:14,0.0
-12136,1736,-5480,-11235,9789,-7014,2025-02-17 11:35:14,0.0
-13980,536,-4604,-10741,7993,-7823,2025-02-17 11:35:14,0.0
-14932,-584,-6208,-11229,3507,-7718,2025-02-17 11:35:14,0.0
-14328,-796,-6564,-11979,-1058,-7302,2025-02-17 11:35:14,0.0
-12852,248,-6916,-12541,-4143,-6798,2025-02-17 11:35:14,0.0
-11856,1208,-5160,-12372,-4929,-6135,2025-02-17 11:35:14,0.0
-11212,1280,-4204,-12720,-4261,-5551,2025-02-17 11:35:14,0.0
-11656,1656,-4488,-13040,-3721,-4954,2025-02-17 11:35:14,0.0
-12660,1400,-4876,-13811,-4818,-4222,2025-02-17 11:35:14,0.0
-12232,676,-4712,-14364,-7620,-3770,2025-02-17 11:35:14,0.0
-11316,-476,-4444,-14625,-11052,-3344,2025-02-17 11:35:14,0.0
-12536,-1408,-3568,-14914,-11800,-1822,2025-02-17 11:35:14,0.0
-12300,-1880,-1400,-15390,-9306,39,2025-02-17 11:35:14,0.0
-12104,-2344,-1452,-15455,-6242,1401,2025-02-17 11:35:14,0.0
-12268,-2736,-2800,-16369,-3130,2599,2025-02-17 11:35:14,0.0
-11156,-2028,-788,-15911,-1709,3684,2025-02-17 11:35:14,0.0
-10940,-440,-1808,-15204,1082,3219,2025-02-17 11:35:14,0.0
-9888,900,-828,-14834,3823,1411,2025-02-17 11:35:14,0.0
-11216,1008,-2144,-14370,6284,-1677,2025-02-17 11:35:14,0.0
-13776,-928,-2076,-14402,8542,-3207,2025-02-17 11:35:14,0.0
-14728,-2448,-3288,-14907,8615,-4424,2025-02-17 11:35:14,0.0
-15032,-648,-2320,-14804,5834,-5128,2025-02-17 11:35:14,0.0
-15568,1364,-2208,-14037,1879,-4982,2025-02-17 11:35:14,0.0
-14772,2120,-1172,-14370,-2038,-4923,2025-02-17 11:35:14,0.0
-14124,2308,-716,-14414,-6247,-5416,2025-02-17 11:35:14,0.0
-14448,1904,-444,-14642,-9795,-5241,2025-02-17 11:35:14,0.0
-15152,2672,-624,-14122,-11226,-4507,2025-02-17 11:35:14,0.0
-14180,2404,-4920,-14120,-6577,-4978,2025-02-17 11:35:14,0.0
-13216,664,-7472,-15584,541,-7024,2025-02-17 11:35:14,0.0
-15500,-2264,-7608,-15691,5157,-8555,2025-02-17 11:35:14,
-17260,-3484,-8060,-15936,7520,-6960,2025-02-17 11:35:14,0.0
-16004,-4020,-8268,-16724,7782,-3616,2025-02-17 11:35:14,0.0
-12832,-4164,-9168,-17882,7959,-1923,2025-02-17 11:35:14,0.0
-11292,-2944,-8652,-19507,10084,-1700,2025-02-17 11:35:15,0.0
-10772,132,-5508,-19811,12131,-2771,2025-02-17 11:35:15,0.0
-11652,3108,-3808,-18792,11682,-4292,2025-02-17 11:35:15,0.0
-14452,3736,-2788,-17144,10352,-4554,2025-02-17 11:35:15,0.0
-16828,1996,-3540,-15233,7408,-2952,2025-02-17 11:35:15,0.0
-17564,300,-3568,-13572,4166,-541,2025-02-17 11:35:15,0.0
-16748,-32,-2832,-11805,289,1376,2025-02-17 11:35:15,0.0
-15112,-1108,-4164,-10623,-2281,2482,2025-02-17 11:35:15,0.0
-13380,-1000,-4636,-10119,-2430,2668,2025-02-17 11:35:15,0.0
-10160,1612,-2868,-10221,-6260,1068,2025-02-17 11:35:15,0.0
-9424,2396,-2864,-9887,-7195,273,2025-02-17 11:35:15,0.0
-8916,2536,-2388,-9979,-6641,-538,2025-02-17 11:35:15,0.0
-8740,2200,-2240,-10291,-4160,-1416,2025-02-17 11:35:15,0.0
-9400,1352,-1640,-10755,-115,-2011,2025-02-17 11:35:15,0.0
-9948,660,-564,-10821,3263,-2353,2025-02-17 11:35:15,0.0
-11408,1256,348,-10650,3824,-2545,2025-02-17 11:35:15,0.0
-12160,2200,28,-10799,3933,-2316,2025-02-17 11:35:15,0.0
-11932,3076,-292,-11294,4462,-2725,2025-02-17 11:35:15,0.0
-12244,4080,-216,-11774,4933,-3428,2025-02-17 11:35:15,0.0
-12584,4696,-480,-11452,4480,-4469,2025-02-17 11:35:15,0.0
-13048,3696,-1352,-10799,3519,-5218,2025-02-17 11:35:15,0.0
-12740,2060,-1912,-10598,2103,-6004,2025-02-17 11:35:15,0.0
-12280,228,-1424,-10350,942,-7058,2025-02-17 11:35:15,0.0
-12044,416,-1124,-10371,715,-7835,2025-02-17 11:35:15,0.0
-11972,2380,-1844,-10877,968,-7888,2025-02-17 11:35:15,0.0
-11172,2664,-3316,-11448,2441,-7978,2025-02-17 11:35:15,0.0
-11312,1588,-6080,-12538,5695,-8189,2025-02-17 11:35:15,0.0
-13272,-144,-4328,-12635,10487,-8008,2025-02-17 11:35:15,0.0
-15604,-1216,-3604,-10990,12021,-7000,2025-02-17 11:35:15,0.0
-18120,-1256,-1292,-8821,10114,-5440,2025-02-17 11:35:15,0.0
-20904,608,-588,-6109,6999,-3530,2025-02-17 11:35:15,0.0
-21296,4816,-2660,-3800,2315,-847,2025-02-17 11:35:15,0.0
-19244,5628,-5776,-2903,-2031,567,2025-02-17 11:35:15,0.0
-17296,5244,-7532,-2028,-2568,473,2025-02-17 11:35:15,0.0
-14752,7016,-8032,-1208,-3002,-306,2025-02-17 11:35:15,0.0
-13672,6516,-7068,-523,-2611,-1809,2025-02-17 11:35:15,0.0
-12024,5600,-6936,-145,-2926,-4389,2025-02-17 11:35:15,0.0
-12332,4544,-7856,-592,-4732,-6597,2025-02-17 11:35:15,0.0
-11916,2560,-8288,-1840,-6935,-7949,2025-02-17 11:35:15,0.0
-10472,148,-7000,-3169,-9585,-8383,2025-02-17 11:35:15,0.0
-9036,-1948,-4684,-3853,-11149,-8349,2025-02-17 11:35:15,0.0
-8908,-2668,-4260,-4773,-10210,-7727,2025-02-17 11:35:15,0.0
-9416,-2396,-4232,-6357,-6356,-5945,2025-02-17 11:35:15,0.0
-9604,-1408,-5572,-7613,-2689,-3791,2025-02-17 11:35:15,0.0
-9588,224,-6464,-8633,-563,-3035,2025-02-17 11:35:15,0.0
-11624,1496,-7648,-10013,3791,-2222,2025-02-17 11:35:15,0.0
-12148,2192,-7300,-10794,7682,-2190,2025-02-17 11:35:15,0.0
-12472,1548,-6624,-10876,6718,-4134,2025-02-17 11:35:15,0.0
-13688,1036,-7104,-10775,3310,-5091,2025-02-17 11:35:15,0.0
-14536,304,-6476,-10696,-1317,-4931,2025-02-17 11:35:15,0.0
-12396,-496,-6480,-10355,-5418,-5465,2025-02-17 11:35:15,0.0
-11836,-332,-6164,-10544,-6576,-5445,2025-02-17 11:35:15,0.0
-11476,-976,-6340,-10997,-6726,-5515,2025-02-17 11:35:15,0.0
-11144,-1360,-6596,-12049,-5673,-5682,2025-02-17 11:35:15,0.0
-11452,-1128,-5064,-12795,-4527,-5318,2025-02-17 11:35:15,0.0
-11276,-668,-5172,-13923,-2993,-4621,2025-02-17 11:35:15,0.0
-10632,-288,-5040,-15046,-1314,-4694,2025-02-17 11:35:15,0.0
-10288,-532,-4888,-15906,-88,-5395,2025-02-17 11:35:15,0.0
-11156,-1752,-4844,-16534,1634,-5887,2025-02-17 11:35:15,0.0
-12132,-2404,-3796,-16031,2289,-5183,2025-02-17 11:35:15,0.0
-13000,-2932,-2892,-15095,1864,-4561,2025-02-17 11:35:15,0.0
-14148,-2964,-2340,-14564,623,-3397,2025-02-17 11:35:16,0.0
-14384,-3456,-1204,-13035,-1977,-2386,2025-02-17 11:35:16,0.0
-15652,-3684,-284,-10666,-4360,-952,2025-02-17 11:35:16,0.0
-15344,-3120,-2512,-10637,-4687,-373,2025-02-17 11:35:16,0.0
-15516,-1252,-1520,-12234,-4298,-571,2025-02-17 11:35:16,0.0
-14528,-952,-2896,-12264,-4878,-441,2025-02-17 11:35:16,0.0
-13172,-880,-2428,-12619,-4757,-1090,2025-02-17 11:35:16,0.0
-12624,-660,-744,-12856,-5014,-2265,2025-02-17 11:35:16,0.0
-13216,-708,-68,-12721,-5732,-2843,2025-02-17 11:35:16,0.0
-13304,-1312,64,-12630,-7601,-2902,2025-02-17 11:35:16,0.0
-12800,-536,-808,-12184,-10679,-2384,2025-02-17 11:35:16,0.0
-12524,604,-2896,-11751,-12769,-1942,2025-02-17 11:35:16,0.0
-12956,-80,-5708,-12237,-9098,-1987,2025-02-17 11:35:16,0.0
-12824,-1968,-6676,-12835,-1881,-2538,2025-02-17 11:35:16,0.0
-14736,-2732,-7200,-13324,5713,-3073,2025-02-17 11:35:16,0.0
-15144,-3796,-7804,-13729,11416,-2483,2025-02-17 11:35:16,0.0
-13852,-3476,-6800,-14157,15271,-3186,2025-02-17 11:35:16,0.0
-13048,-2752,-4104,-14501,13869,-3804,2025-02-17 11:35:16,0.0
-13992,-1536,-4916,-14656,11454,-4230,2025-02-17 11:35:16,0.0
-13324,380,-5384,-14215,7886,-3721,2025-02-17 11:35:16,0.0
-13000,1624,-4940,-12694,4195,-4006,2025-02-17 11:35:16,0.0
-14280,1660,-4256,-11481,1545,-3619,2025-02-17 11:35:16,0.0
-14032,752,-3348,-9669,1847,-2294,2025-02-17 11:35:16,0.0
-13324,-144,-3496,-8268,2913,-1622,2025-02-17 11:35:16,0.0
-12308,-692,-3384,-7100,3666,-1285,2025-02-17 11:35:16,0.0
-12476,-840,-3560,-5594,5419,-744,2025-02-17 11:35:16,0.0
-11968,-1288,-2496,-4711,5647,-1378,2025-02-17 11:35:16,0.0
-13340,-1312,-2184,-3678,3564,-1719,2025-02-17 11:35:16,0.0
-14960,-884,-1268,-3052,-95,-1197,2025-02-17 11:35:16,0.0
-14976,672,-180,-2656,-4026,-642,2025-02-17 11:35:16,0.0
-13892,2576,-1100,-2960,-7155,-920,2025-02-17 11:35:16,0.0
-12784,3508,-1844,-4223,-8461,-1439,2025-02-17 11:35:16,0.0
-11392,3212,-1780,-4871,-8344,-2159,2025-02-17 11:35:16,0.0
-11020,2128,-1360,-4277,-7694,-2914,2025-02-17 11:35:16,0.0
-11340,3008,-1428,-3998,-7809,-3736,2025-02-17 11:35:16,0.0
-9956,4316,-2628,-3255,-8565,-4450,2025-02-17 11:35:16,
-10544,6908,-4804,-4374,-8937,-5873,2025-02-17 11:35:16,0.0
-12360,8348,-9764,-6500,-5029,-7448,2025-02-17 11:35:16,0.0
-14388,6872,-12732,-9594,2022,-8089,2025-02-17 11:35:16,0.0
-12236,5368,-12512,-11973,7042,-9605,2025-02-17 11:35:16,0.0
-10628,5356,-6944,-11783,5271,-11136,2025-02-17 11:35:16,0.0
-10728,4500,-3556,-10587,4039,-12149,2025-02-17 11:35:16,0.0
-9488,3532,-2140,-4777,11674,-15661,2025-02-17 11:35:16,0.0
-9224,2144,-3536,-1383,16933,-18061,2025-02-17 11:35:16,0.0
-7684,384,-6196,1154,18214,-20454,2025-02-17 11:35:16,0.0
-6576,-1236,-9360,2743,14051,-22551,2025-02-17 11:35:16,0.0
-3988,-3140,-11712,2069,5439,-23918,2025-02-17 11:35:16,0.0
-2312,-4360,-10044,196,-5907,-24841,2025-02-17 11:35:16,0.0
-716,-4496,-7816,-1471,-16329,-25215,2025-02-17 11:35:16,0.0
-200,-3964,-4612,-3027,-21220,-26270,2025-02-17 11:35:16,0.0
-364,-3084,1220,-2179,-21391,-27132,2025-02-17 11:35:16,0.0
1888,-2224,4516,1137,-20589,-27828,2025-02-17 11:35:16,0.0
528,-2976,1704,1143,-20930,-25625,2025-02-17 11:35:16,0.0
1076,-1808,1940,286,-21359,-23280,2025-02-17 11:35:16,0.0
1740,-1776,1960,-595,-21256,-22136,2025-02-17 11:35:16,0.0
2436,-1272,1316,-1589,-20968,-21379,2025-02-17 11:35:16,0.0
2212,-1360,1896,-2351,-20586,-21220,2025-02-17 11:35:16,0.0
2768,-1368,1484,-3151,-20268,-21268,2025-02-17 11:35:16,0.0
2520,-1320,1812,-4143,-19819,-21231,2025-02-17 11:35:16,0.0
2096,-1452,2052,-5158,-19421,-21264,2025-02-17 11:35:16,0.0
2516,-1392,1800,-6209,-19113,-21254,2025-02-17 11:35:16,0.0
2596,-1484,1968,-7004,-19010,-21162,2025-02-17 11:35:16,0.0
2584,-1352,2000,-7813,-19005,-20918,2025-02-17 11:35:16,0.0
2500,-1460,1840,-8628,-19114,-20508,2025-02-17 11:35:17,0.0
2460,-1452,1820,-9585,-19151,-19942,2025-02-17 11:35:17,0.0
2448,-1536,1688,-10529,-19149,-19290,2025-02-17 11:35:17,0.0
2480,-1588,1640,-11552,-18952,-18620,2025-02-17 11:35:17,0.0
2740,-1352,1116,-12429,-18805,-18133,2025-02-17 11:35:17,0.0
3616,-960,2256,-13162,-18158,-18232,2025-02-17 11:35:17,0.0
6092,-1156,1320,-13558,-17850,-21403,2025-02-17 11:35:17,0.0
2832,-2292,344,-15691,-17204,-21787,2025-02-17 11:35:17,0.0
-1192,-11976,-772,-18442,-15758,-20470,2025-02-17 11:35:17,0.0
14684,-32768,-32768,-32768,-32768,-27774,2025-02-17 11:35:17,0.0
10232,-32768,-32768,-32768,-15836,-30830,2025-02-17 11:35:17,0.0
25128,-32768,-32768,-32768,-20358,-25186,2025-02-17 11:35:17,0.0
4316,-32768,8108,-32768,-31329,-11078,2025-02-17 11:35:17,0.0
12828,32767,32767,-32768,-32768,7130,2025-02-17 11:35:17,0.0
-1188,32767,19464,27521,-32768,-10336,2025-02-17 11:35:17,0.0
-6776,32767,-17552,-7769,6234,-666,2025-02-17 11:35:17,0.0
2768,30532,4,-21912,20057,-1127,2025-02-17 11:35:17,0.0
3052,9688,7100,-12808,5259,-8808,2025-02-17 11:35:17,0.0
1024,5108,8504,-1595,3441,-9133,2025-02-17 11:35:17,0.0
1940,2816,6672,10261,1998,-9592,2025-02-17 11:35:17,0.0
2288,1072,6332,20359,59,-12399,2025-02-17 11:35:17,0.0
320,-2252,-252,26593,-920,-13489,2025-02-17 11:35:17,0.0
-528,-1324,-2940,32767,-2059,-16358,2025-02-17 11:35:17,0.0
-5996,-1812,-16892,32767,-948,-16865,2025-02-17 11:35:17,0.0
-11524,-5324,-32768,26636,3141,-13181,2025-02-17 11:35:17,0.0
-15864,-8888,-32768,6114,7246,-5342,2025-02-17 11:35:17,0.0
-5000,-8096,-28560,-1783,718,944,2025-02-17 11:35:17,0.0
-1088,-1992,-15596,-4693,-1292,1223,2025-02-17 11:35:17,0.0
-216,1420,-8444,-4544,-2062,1004,2025-02-17 11:35:17,0.0
-292,2932,-6944,-1497,-1115,179,2025-02-17 11:35:17,0.0
-1696,1484,-12292,871,1246,-229,2025-02-17 11:35:17,0.0
-928,-712,-16228,803,814,-426,2025-02-17 11:35:17,0.0
-1716,-1132,-16212,-30,-717,-413,2025-02-17 11:35:17,0.0
-2896,-576,-14488,-305,-687,-290,2025-02-17 11:35:17,0.0
-2544,-8,-14180,-227,485,-80,2025-02-17 11:35:17,0.0
-1164,-132,-14528,-123,570,-89,2025-02-17 11:35:17,0.0
-1396,-104,-14616,-192,-195,-194,2025-02-17 11:35:17,0.0
-2084,-128,-14232,-116,60,-202,2025-02-17 11:35:17,0.0
-2032,-176,-14312,-34,196,-210,2025-02-17 11:35:17,0.0
-2064,-400,-14824,-162,179,-165,2025-02-17 11:35:17,0.0
-1848,-172,-14564,-237,180,-134,2025-02-17 11:35:17,0.0
-1704,-172,-14396,-168,120,-194,2025-02-17 11:35:17,0.0
-2004,-172,-14584,-99,123,-176,2025-02-17 11:35:17,0.0
-1956,-260,-14784,-166,120,-204,2025-02-17 11:35:17,0.0
-1928,-304,-14328,-183,152,-162,2025-02-17 11:35:17,0.0
-1960,-72,-14404,-114,146,-174,2025-02-17 11:35:17,0.0
-1724,-276,-14608,-92,64,-203,2025-02-17 11:35:17,0.0
-1936,-324,-14432,-121,54,-175,2025-02-17 11:35:17,0.0
-2012,-192,-14468,-143,109,-168,2025-02-17 11:35:17,0.0
-1984,-340,-14312,-187,151,-180,2025-02-17 11:35:17,0.0
-1840,-176,-14508,-196,171,-173,2025-02-17 11:35:17,0.0
-1844,-208,-14556,-120,122,-163,2025-02-17 11:35:17,0.0
-1904,-208,-14496,-169,156,-189,2025-02-17 11:35:17,0.0
-1924,-276,-14528,-157,171,-174,2025-02-17 11:35:17,0.0
-1964,-264,-14540,-157,174,-145,2025-02-17 11:35:17,0.0
-1816,-172,-14536,-170,168,-189,2025-02-17 11:35:17,0.0
-2004,-156,-14488,-157,161,-163,2025-02-17 11:35:17,0.0
-1936,-192,-14592,-137,169,-172,2025-02-17 11:35:17,0.0
-1916,-136,-14572,-141,181,-175,2025-02-17 11:35:17,0.0
-1864,-268,-14420,-150,154,-178,2025-02-17 11:35:18,0.0
-1880,-220,-14420,-153,146,-185,2025-02-17 11:35:18,0.0
-1892,-236,-14512,-188,159,-180,2025-02-17 11:35:18,0.0
-1860,-224,-14516,-163,168,-172,2025-02-17 11:35:18,0.0
-1912,-252,-14464,-154,146,-202,2025-02-17 11:35:18,0.0
-1964,-280,-14476,-147,152,-164,2025-02-17 11:35:18,0.0
-2032,-180,-14372,-156,144,-189,2025-02-17 11:35:18,0.0
-1944,-204,-14436,-171,156,-207,2025-02-17 11:35:18,0.0
-1936,-308,-14548,-170,183,-164,2025-02-17 11:35:18,0.0
-1960,-156,-14292,-156,193,-179,2025-02-17 11:35:18,0.0
-1948,-228,-14376,-149,172,-187,2025-02-17 11:35:18,0.0
-1924,-160,-14432,-161,175,-174,2025-02-17 11:35:18,0.0
-1976,-176,-14452,-133,167,-186,2025-02-17 11:35:18,0.0
-2012,-220,-14444,-171,177,-178,2025-02-17 11:35:18,
-1884,-216,-14508,-167,170,-171,2025-02-17 11:35:18,0.0
-1940,-328,-14500,-171,174,-180,2025-02-17 11:35:18,0.0
-1888,-244,-14524,-146,162,-183,2025-02-17 11:35:18,0.0
-2060,-216,-14392,-160,171,-175,2025-02-17 11:35:18,0.0
-1948,-180,-14468,-160,152,-165,2025-02-17 11:35:18,0.0
-1996,-220,-14412,-150,158,-180,2025-02-17 11:35:18,0.0
-1920,-212,-14504,-155,159,-181,2025-02-17 11:35:18,0.0
-1912,-116,-14356,-133,155,-176,2025-02-17 11:35:18,0.0
-1896,-236,-14516,-150,162,-194,2025-02-17 11:35:18,0.0
-1944,-248,-14440,-152,148,-164,2025-02-17 11:35:18,0.0
-2076,-164,-14624,-142,167,-181,2025-02-17 11:35:18,0.0
-1948,-236,-14420,-160,161,-194,2025-02-17 11:35:18,0.0
-1904,-288,-14492,-167,151,-169,2025-02-17 11:35:18,0.0
-1896,-260,-14468,-150,181,-174,2025-02-17 11:35:18,0.0
-1844,-216,-14508,-147,169,-164,2025-02-17 11:35:18,0.0
-1992,-240,-14532,-169,168,-174,2025-02-17 11:35:18,0.0
-1948,-256,-14512,-159,154,-179,2025-02-17 11:35:18,0.0
-1848,-152,-14372,-140,149,-195,2025-02-17 11:35:18,0.0
-1972,-196,-14520,-155,179,-192,2025-02-17 11:35:18,0.0
-2024,-240,-14580,-147,179,-178,2025-02-17 11:35:18,0.0
-1980,-232,-14340,-156,170,-169,2025-02-17 11:35:18,0.0
-1916,-208,-14428,-172,171,-157,2025-02-17 11:35:18,0.0
-1968,-160,-14480,-145,157,-165,2025-02-17 11:35:18,0.0
-1912,-240,-14420,-137,145,-180,2025-02-17 11:35:18,0.0
-1928,-220,-14540,-156,168,-197,2025-02-17 11:35:18,0.0
-1900,-196,-14520,-162,158,-185,2025-02-17 11:35:18,0.0
-1888,-252,-14536,-161,153,-170,2025-02-17 11:35:18,0.0
-1936,-240,-14520,-171,181,-157,2025-02-17 11:35:18,0.0
-1924,-184,-14516,-149,165,-155,2025-02-17 11:35:18,0.0
-1912,-240,-14420,-164,154,-178,2025-02-17 11:35:18,0.0
-1940,-212,-14428,-150,163,-171,2025-02-17 11:35:18,0.0
-1996,-272,-14512,-152,176,-183,2025-02-17 11:35:18,0.0
-1956,-236,-14512,-156,189,-170,2025-02-17 11:35:18,0.0
-1928,-232,-14456,-150,178,-175,2025-02-17 11:35:18,0.0
-1968,-200,-14464,-143,133,-181,2025-02-17 11:35:18,0.0
-1844,-204,-14568,-161,183,-190,2025-02-17 11:35:18,0.0
-1880,-172,-14344,-132,170,-156,2025-02-17 11:35:18,0.0
-1872,-232,-14540,-174,143,-171,2025-02-17 11:35:18,0.0
-1916,-180,-14456,-137,146,-198,2025-02-17 11:35:18,0.0
-1920,-316,-14400,-138,171,-184,2025-02-17 11:35:18,0.0
-1948,-272,-14476,-160,150,-170,2025-02-17 11:35:18,0.0
-2016,-280,-14352,-137,154,-175,2025-02-17 11:35:18,0.0
-1928,-240,-14392,-156,170,-182,2025-02-17 11:35:18,0.0
-1976,-268,-14452,-177,161,-201,2025-02-17 11:35:18,0.0
-2004,-256,-14496,-171,164,-175,2025-02-17 11:35:18,0.0
-1920,-220,-14400,-185,179,-194,2025-02-17 11:35:18,0.0
-1884,-228,-14452,-146,181,-175,2025-02-17 11:35:18,0.0
-1928,-276,-14544,-155,156,-202,2025-02-17 11:35:18,0.0
-1884,-236,-14472,-151,176,-192,2025-02-17 11:35:19,0.0
-1868,-256,-14540,-160,179,-162,2025-02-17 11:35:19,0.0
-1804,-196,-14452,-127,178,-191,2025-02-17 11:35:19,0.0
-1936,-160,-14484,-152,172,-167,2025-02-17 11:35:19,0.0
-1908,-260,-14564,-188,191,-202,2025-02-17 11:35:19,0.0
-1900,-212,-14324,-154,170,-193,2025-02-17 11:35:19,0.0
-1956,-184,-14484,-158,158,-193,2025-02-17 11:35:19,0.0
-1880,-212,-14504,-159,167,-158,2025-02-17 11:35:19,0.0
-1900,-180,-14400,-167,161,-180,2025-02-17 11:35:19,0.0
-1988,-312,-14500,-153,159,-193,2025-02-17 11:35:19,0.0
-1152,-188,-12944,375,654,-488,2025-02-17 11:35:19,0.0
-1524,296,-13668,712,574,-578,2025-02-17 11:35:19,0.0
-1368,-524,-15440,540,-144,-793,2025-02-17 11:35:19,0.0
-1640,-612,-13696,692,271,-1190,2025-02-17 11:35:19,0.0
-952,-184,-14504,859,-90,-1225,2025-02-17 11:35:19,0.0
-1020,-312,-16248,447,-568,-1262,2025-02-17 11:35:19,0.0
-2368,-552,-14368,338,-630,-1260,2025-02-17 11:35:19,0.0
-2436,-96,-13796,691,-355,-1076,2025-02-17 11:35:19,0.0
-3468,-360,-14344,732,656,-709,2025-02-17 11:35:19,0.0
-2716,-1040,-15456,439,964,-295,2025-02-17 11:35:19,0.0
-1492,-1200,-15220,-51,227,-126,2025-02-17 11:35:19,0.0
-3132,-1228,-14292,-362,-81,232,2025-02-17 11:35:19,0.0
148,-5696,-10720,-8511,1954,6793,2025-02-17 11:35:19,0.0
-2112,1208,-13568,-636,-3331,1875,2025-02-17 11:35:19,0.0
-2496,5128,-16492,674,-3244,2846,2025-02-17 11:35:19,0.0
248,3296,-13132,567,-3117,2018,2025-02-17 11:35:19,0.0
1368,944,-11388,2901,-4034,-16,2025-02-17 11:35:19,0.0
-3168,1452,-10364,5667,1772,-4379,2025-02-17 11:35:19,0.0
-5564,-848,-16068,6714,2589,-1626,2025-02-17 11:35:19,0.0
-2876,-3504,-16208,3949,3130,-1645,2025-02-17 11:35:19,0.0
-4036,-3680,-15812,1857,4393,-318,2025-02-17 11:35:19,0.0
-3304,-2648,-14988,188,-9503,8993,2025-02-17 11:35:19,0.0
2064,152,-12916,4551,-21235,12511,2025-02-17 11:35:19,0.0
548,-404,-19956,4650,-20491,10353,2025-02-17 11:35:19,0.0
1356,-604,-18124,2859,-14570,9127,2025-02-17 11:35:19,0.0
-1168,-1504,-13988,-282,-12230,5332,2025-02-17 11:35:19,0.0
-4540,-988,-10420,-3357,-10350,869,2025-02-17 11:35:19,0.0
-7460,-104,-7364,-2030,-7599,-2688,2025-02-17 11:35:19,0.0
-11144,228,-10484,-967,-1246,-3975,2025-02-17 11:35:19,0.0
-10640,788,-11336,414,6774,-3534,2025-02-17 11:35:19,0.0
-8500,-1496,-14456,153,8306,-1954,2025-02-17 11:35:19,0.0
-4220,-2988,-14920,-434,6766,-275,2025-02-17 11:35:19,0.0
-2664,-2008,-16588,-1086,3487,1661,2025-02-17 11:35:19,0.0
-3700,-840,-13984,-1269,566,2425,2025-02-17 11:35:19,0.0
-2552,-208,-12904,612,-167,2846,2025-02-17 11:35:19,0.0
-1616,756,-10128,250,-981,2466,2025-02-17 11:35:19,0.0
-4448,2440,-9284,1688,-2713,162,2025-02-17 11:35:19,0.0
-7812,1260,-12212,2707,1044,-2458,2025-02-17 11:35:19,0.0
-7788,-3192,-16528,862,5643,-2834,2025-02-17 11:35:19,0.0
-8744,-4016,-12748,-3328,4340,114,2025-02-17 11:35:19,0.0
-2400,16,-13404,2623,-5471,-1571,2025-02-17 11:35:19,0.0
-3864,32,-13028,2915,-4827,-3327,2025-02-17 11:35:19,
