acceleration_x,acceleration_y,acceleration_z,gyroscope_x,gyroscope_y,gyroscope_z,timestamp,label
-13704,-480,-48,-242,210,-194,2025-02-17 10:06:02,0.0
-13748,-396,-112,-202,292,-179,2025-02-17 10:06:02,0.0
-13832,-356,12,-210,287,-184,2025-02-17 10:06:02,0.0
-13764,-324,-104,-199,307,-150,2025-02-17 10:06:02,0.0
-13732,-312,-68,-210,280,-184,2025-02-17 10:06:02,0.0
-13768,-324,16,-211,244,-187,2025-02-17 10:06:02,0.0
-13856,-320,116,-204,152,-185,2025-02-17 10:06:02,0.0
-13892,-296,84,-176,111,-193,2025-02-17 10:06:02,0.0
-13736,-356,40,-144,134,-174,2025-02-17 10:06:02,0.0
-13800,-368,-172,-151,195,-217,2025-02-17 10:06:02,0.0
-13724,-308,-16,-154,237,-184,2025-02-17 10:06:02,0.0
-13784,-264,-88,-174,206,-200,2025-02-17 10:06:02,0.0
-13752,-348,64,-151,146,-210,2025-02-17 10:06:02,0.0
-13736,-400,-108,-137,97,-193,2025-02-17 10:06:02,0.0
-13732,-340,44,-145,109,-204,2025-02-17 10:06:02,0.0
-13680,-232,-252,-132,157,-187,2025-02-17 10:06:02,0.0
-13740,-220,-88,-146,238,-193,2025-02-17 10:06:02,0.0
-13772,-164,-180,-143,286,-172,2025-02-17 10:06:02,0.0
-13744,-288,-36,-151,321,-197,2025-02-17 10:06:02,0.0
-13708,-200,-192,-161,234,-205,2025-02-17 10:06:03,0.0
-13720,-400,-140,-117,245,-193,2025-02-17 10:06:03,0.0
-13668,-408,24,-55,314,-201,2025-02-17 10:06:03,0.0
-13772,-228,-84,-38,334,-202,2025-02-17 10:06:03,0.0
-13788,-172,-60,-43,284,-240,2025-02-17 10:06:03,0.0
-13780,-276,-136,-66,262,-222,2025-02-17 10:06:03,0.0
-13716,-256,-52,-55,293,-239,2025-02-17 10:06:03,0.0
-13628,-292,-124,-28,392,-233,2025-02-17 10:06:03,0.0
-13712,-156,-204,-72,378,-236,2025-02-17 10:06:03,0.0
-13948,-244,-284,-103,318,-207,2025-02-17 10:06:03,0.0
-13860,-256,-212,-120,265,-205,2025-02-17 10:06:03,0.0
-13776,-264,-200,-105,144,-210,2025-02-17 10:06:03,0.0
-13828,-276,-176,-173,90,-208,2025-02-17 10:06:03,0.0
-13748,-256,36,-200,80,-204,2025-02-17 10:06:03,0.0
-13732,-308,-128,-264,106,-188,2025-02-17 10:06:03,0.0
-13784,-284,-148,-256,109,-142,2025-02-17 10:06:03,0.0
-13672,-292,-56,-240,205,-134,2025-02-17 10:06:03,0.0
-13596,-296,8,-265,372,-128,2025-02-17 10:06:03,0.0
-13652,-296,200,-197,508,-124,2025-02-17 10:06:03,0.0
-13636,-388,108,-191,490,-138,2025-02-17 10:06:03,0.0
-13736,-328,-24,-146,379,-133,2025-02-17 10:06:03,0.0
-13592,-304,-260,-213,373,-180,2025-02-17 10:06:03,0.0
-13644,-280,-232,-219,496,-156,2025-02-17 10:06:03,0.0
-13676,-272,-188,-256,620,-154,2025-02-17 10:06:03,0.0
-13696,-280,-100,-276,716,-135,2025-02-17 10:06:03,0.0
-13844,-280,48,-267,670,-142,2025-02-17 10:06:03,0.0
-13856,-424,48,-257,567,-145,2025-02-17 10:06:03,0.0
-13840,-480,96,-232,330,-186,2025-02-17 10:06:03,0.0
-13940,-400,8,-204,121,-211,2025-02-17 10:06:03,0.0
-13844,-400,-108,-98,66,-208,2025-02-17 10:06:03,0.0
-13736,-496,52,-41,158,-187,2025-02-17 10:06:03,0.0
-13748,-408,-108,72,294,-197,2025-02-17 10:06:03,0.0
-13780,-348,-148,172,273,-168,2025-02-17 10:06:03,0.0
-13792,-404,-40,217,214,-175,2025-02-17 10:06:03,0.0
-13896,-224,-24,313,57,-136,2025-02-17 10:06:03,0.0
-13768,-160,-76,377,-27,-109,2025-02-17 10:06:03,0.0
-13680,-112,96,511,157,-30,2025-02-17 10:06:03,0.0
-13672,-128,-16,657,336,14,2025-02-17 10:06:03,0.0
-13720,-104,-296,812,571,96,2025-02-17 10:06:03,0.0
-13852,-208,-160,1012,656,140,2025-02-17 10:06:03,0.0
-13900,-108,-88,1098,1005,213,2025-02-17 10:06:03,0.0
-13868,40,16,1069,1779,273,2025-02-17 10:06:03,0.0
-13880,-56,16,1060,2284,174,2025-02-17 10:06:03,0.0
-13840,-600,12,1241,1434,123,2025-02-17 10:06:03,0.0
-13780,-588,-264,1565,480,-132,2025-02-17 10:06:03,0.0
-13628,48,528,1622,-55,-456,2025-02-17 10:06:03,0.0
-13400,644,-228,1335,-66,-758,2025-02-17 10:06:03,0.0
-13648,768,-164,1172,-290,-854,2025-02-17 10:06:03,0.0
-13636,620,-380,955,-843,-954,2025-02-17 10:06:03,0.0
-13684,472,-600,580,-1133,-1062,2025-02-17 10:06:03,0.0
-13444,344,-572,213,-972,-1235,2025-02-17 10:06:03,0.0
-13512,440,-476,-170,-506,-1423,2025-02-17 10:06:03,0.0
-13704,420,-552,-419,-390,-1486,2025-02-17 10:06:03,0.0
-13824,356,-192,-699,-542,-1506,2025-02-17 10:06:03,0.0
-13716,32,376,-968,-289,-1621,2025-02-17 10:06:03,0.0
-13892,-580,88,-1089,-95,-1790,2025-02-17 10:06:03,0.0
-13844,-992,256,-1216,-373,-2054,2025-02-17 10:06:03,0.0
-14144,-852,-136,-1161,-594,-2010,2025-02-17 10:06:03,0.0
-14192,-772,-472,-1096,-588,-1894,2025-02-17 10:06:03,0.0
-14208,-376,-840,-1223,-547,-1760,2025-02-17 10:06:03,0.0
-14052,-200,-720,-1431,-519,-1610,2025-02-17 10:06:03,0.0
-13956,-664,-296,-1507,-465,-1525,2025-02-17 10:06:04,0.0
-14100,-864,-152,-1427,-795,-1519,2025-02-17 10:06:04,0.0
-14020,-1100,-120,-1374,-1256,-1635,2025-02-17 10:06:04,0.0
-13964,-1448,44,-1264,-1491,-1697,2025-02-17 10:06:04,0.0
-13672,-1560,304,-966,-1680,-1843,2025-02-17 10:06:04,0.0
-13184,-1376,-100,-884,-1954,-2138,2025-02-17 10:06:04,0.0
-13328,-1380,216,-1171,-1133,-2413,2025-02-17 10:06:04,0.0
-13644,-1644,996,-1084,-498,-2265,2025-02-17 10:06:04,0.0
-13720,-1980,924,-871,-593,-2074,2025-02-17 10:06:04,0.0
-13656,-1944,724,-798,-1170,-1995,2025-02-17 10:06:04,0.0
-13468,-1856,360,-1050,-1878,-1949,2025-02-17 10:06:04,0.0
-13284,-1716,412,-1304,-1663,-1809,2025-02-17 10:06:04,0.0
-12992,-1712,380,-1449,-570,-1409,2025-02-17 10:06:04,0.0
-13476,-1952,464,-1766,480,-1003,2025-02-17 10:06:04,0.0
-13828,-2080,352,-2192,1413,-597,2025-02-17 10:06:04,0.0
-14164,-2348,540,-2534,2184,-604,2025-02-17 10:06:04,0.0
-14368,-2520,700,-2720,1605,-882,2025-02-17 10:06:04,0.0
-14184,-2788,868,-2820,270,-1321,2025-02-17 10:06:04,0.0
-14024,-2684,1084,-2969,-1074,-1524,2025-02-17 10:06:04,0.0
-13532,-2332,816,-2871,-1285,-1222,2025-02-17 10:06:04,
-13132,-2448,188,-2719,-713,-847,2025-02-17 10:06:04,0.0
-12728,-2720,-524,-2650,302,-517,2025-02-17 10:06:04,0.0
-12480,-3132,-28,-2721,956,-376,2025-02-17 10:06:04,0.0
-12680,-3116,804,-2582,1088,-222,2025-02-17 10:06:04,0.0
-12580,-2804,1124,-2139,1019,8,2025-02-17 10:06:04,0.0
-12536,-2584,736,-1890,1070,220,2025-02-17 10:06:04,0.0
-12732,-2804,312,-1824,1733,518,2025-02-17 10:06:04,0.0
-13336,-2708,408,-1746,2662,850,2025-02-17 10:06:04,0.0
-14188,-2380,516,-1738,2829,1014,2025-02-17 10:06:04,0.0
-14576,-2172,1172,-2061,1908,816,2025-02-17 10:06:04,0.0
-14864,-1896,1420,-2391,654,555,2025-02-17 10:06:04,0.0
-15212,-1476,1016,-2538,-307,519,2025-02-17 10:06:04,0.0
-14844,-1204,1116,-2516,-1232,869,2025-02-17 10:06:04,0.0
-14736,-1300,8,-2708,-1790,1587,2025-02-17 10:06:04,0.0
-14208,-1568,-908,-2945,-769,2145,2025-02-17 10:06:04,0.0
-13948,-2336,-984,-2994,547,2332,2025-02-17 10:06:04,0.0
-14032,-3036,-728,-2771,1331,2295,2025-02-17 10:06:04,0.0
-14360,-2960,-752,-1858,1200,2078,2025-02-17 10:06:04,0.0
-13988,-1840,-1356,-1469,936,1009,2025-02-17 10:06:04,0.0
-14268,-1080,-384,-1940,1108,-362,2025-02-17 10:06:04,0.0
-14176,-1172,660,-1997,123,-664,2025-02-17 10:06:04,0.0
-13436,-1460,1016,-1702,-1069,-191,2025-02-17 10:06:04,0.0
-12424,-1612,152,-1565,-1164,271,2025-02-17 10:06:04,0.0
-12156,-1584,-836,-1640,7,518,2025-02-17 10:06:04,0.0
-12552,-1132,-1484,-1898,1664,373,2025-02-17 10:06:04,0.0
-12940,-380,-1512,-2174,2468,43,2025-02-17 10:06:04,0.0
-13664,-36,-872,-2410,2420,-407,2025-02-17 10:06:04,0.0
-14136,-204,-376,-2411,1614,-556,2025-02-17 10:06:04,0.0
-14160,-760,-416,-2297,783,-528,2025-02-17 10:06:04,0.0
-14152,-1008,-1032,-1997,507,-422,2025-02-17 10:06:04,0.0
-13804,-1320,-1476,-1776,663,-337,2025-02-17 10:06:04,0.0
-13660,-1304,-1264,-1618,766,-277,2025-02-17 10:06:04,0.0
-13740,-1216,-860,-1470,791,-163,2025-02-17 10:06:04,0.0
-13468,-1188,-644,-1165,566,-104,2025-02-17 10:06:04,0.0
-13676,-1140,-720,-868,162,-172,2025-02-17 10:06:04,0.0
-14060,-952,-404,-771,340,-93,2025-02-17 10:06:04,0.0
-14104,-900,-48,-529,523,66,2025-02-17 10:06:04,0.0
-14176,-904,144,-309,256,185,2025-02-17 10:06:04,0.0
-14104,-1140,-80,-165,-32,226,2025-02-17 10:06:04,0.0
-13984,-1364,-444,25,-39,334,2025-02-17 10:06:04,0.0
-13876,-1320,-372,231,20,453,2025-02-17 10:06:04,0.0
-13892,-1200,-448,414,154,554,2025-02-17 10:06:05,0.0
-14036,-1240,-700,541,55,669,2025-02-17 10:06:05,0.0
-13952,-976,-1004,574,-42,798,2025-02-17 10:06:05,0.0
-13704,-636,-940,500,49,772,2025-02-17 10:06:05,0.0
-13616,-416,-828,384,77,662,2025-02-17 10:06:05,0.0
-13476,-384,-504,425,2,559,2025-02-17 10:06:05,0.0
-13320,-376,-452,469,-166,469,2025-02-17 10:06:05,0.0
-13060,-264,-500,437,-311,311,2025-02-17 10:06:05,0.0
-12952,-428,-784,356,-315,188,2025-02-17 10:06:05,0.0
-13460,-416,-760,229,-7,132,2025-02-17 10:06:05,0.0
-13816,-460,-804,214,238,149,2025-02-17 10:06:05,0.0
-13852,-500,-788,238,107,99,2025-02-17 10:06:05,0.0
-13856,-384,-1044,242,-345,-2,2025-02-17 10:06:05,0.0
-13600,-536,-972,309,-621,-46,2025-02-17 10:06:05,0.0
-13140,-460,-1044,391,-502,-68,2025-02-17 10:06:05,0.0
-13280,-372,-968,369,-47,-52,2025-02-17 10:06:05,0.0
-13444,-408,-968,347,547,69,2025-02-17 10:06:05,0.0
-13896,-356,-864,438,762,166,2025-02-17 10:06:05,0.0
-14276,-368,-672,463,430,152,2025-02-17 10:06:05,0.0
-14376,-308,-736,501,-169,161,2025-02-17 10:06:05,0.0
-13672,-300,-656,554,-593,204,2025-02-17 10:06:05,0.0
-13212,-252,-912,649,-330,194,2025-02-17 10:06:05,0.0
-12808,-308,-1348,468,230,65,2025-02-17 10:06:05,0.0
-12784,-276,-1352,313,651,-32,2025-02-17 10:06:05,0.0
-13568,-340,-732,357,758,-38,2025-02-17 10:06:05,0.0
-13896,-236,-728,320,516,22,2025-02-17 10:06:05,0.0
-13972,0,-596,261,82,91,2025-02-17 10:06:05,0.0
-13816,-40,-532,152,-154,48,2025-02-17 10:06:05,0.0
-13416,-216,-272,19,-142,-27,2025-02-17 10:06:05,0.0
-13332,-388,-236,-25,33,-15,2025-02-17 10:06:05,0.0
-13404,-500,-316,-124,178,-11,2025-02-17 10:06:05,0.0
-13516,-560,-304,-258,383,-20,2025-02-17 10:06:05,0.0
-13964,-376,-532,-325,487,-119,2025-02-17 10:06:05,0.0
-14348,-208,-784,-361,410,-185,2025-02-17 10:06:05,0.0
-14256,-420,-588,-430,52,-178,2025-02-17 10:06:05,0.0
-13880,-580,-632,-422,-226,-92,2025-02-17 10:06:05,0.0
-13112,-780,-532,-436,-143,-63,2025-02-17 10:06:05,0.0
-12824,-884,-408,-349,329,-106,2025-02-17 10:06:05,0.0
-12960,-700,-448,-222,970,-192,2025-02-17 10:06:05,0.0
-13284,-400,-248,-126,1288,-253,2025-02-17 10:06:05,0.0
-13672,-212,-228,-111,1385,-308,2025-02-17 10:06:05,0.0
-14112,-236,-224,-96,1282,-342,2025-02-17 10:06:05,0.0
-14240,-456,-348,-48,894,-416,2025-02-17 10:06:05,0.0
-14088,-572,-264,-122,682,-489,2025-02-17 10:06:05,0.0
-13992,-528,-152,-175,588,-514,2025-02-17 10:06:05,0.0
-14080,-384,-460,-273,780,-302,2025-02-17 10:06:05,0.0
-14400,-396,-136,-364,1009,31,2025-02-17 10:06:05,0.0
-14632,-296,24,-514,897,359,2025-02-17 10:06:05,0.0
-14788,-404,196,-616,448,678,2025-02-17 10:06:05,0.0
-14728,-340,516,-617,-313,910,2025-02-17 10:06:05,0.0
-14520,-664,528,-568,-730,971,2025-02-17 10:06:05,0.0
-14204,-784,356,-440,-646,1000,2025-02-17 10:06:05,0.0
-14060,-892,100,-378,-396,1078,2025-02-17 10:06:05,0.0
-14004,-992,648,-84,-151,1234,2025-02-17 10:06:05,0.0
-13964,-948,596,257,-214,1378,2025-02-17 10:06:05,0.0
-14144,-916,656,480,-174,1441,2025-02-17 10:06:05,0.0
-14148,-1000,368,777,-170,1541,2025-02-17 10:06:05,0.0
-13960,-1280,396,1103,-481,1633,2025-02-17 10:06:05,0.0
-13884,-1376,740,1332,-785,1627,2025-02-17 10:06:05,
-13476,-1248,900,1598,-829,1625,2025-02-17 10:06:05,0.0
-13396,-992,912,1812,-507,1511,2025-02-17 10:06:06,0.0
-13560,-968,912,1969,-462,1502,2025-02-17 10:06:06,0.0
-14024,-1068,104,2174,-337,1632,2025-02-17 10:06:06,0.0
-14164,-876,208,2446,-252,1675,2025-02-17 10:06:06,0.0
-14088,-368,-216,2610,-891,1795,2025-02-17 10:06:06,0.0
-13448,116,-580,2584,-1474,1713,2025-02-17 10:06:06,0.0
-13212,372,-912,2440,-1812,1619,2025-02-17 10:06:06,0.0
-12856,884,-992,2350,-1298,1540,2025-02-17 10:06:06,0.0
-12708,1000,-1608,1959,-639,1496,2025-02-17 10:06:06,0.0
-13136,1456,-1312,1580,157,1563,2025-02-17 10:06:06,0.0
-12948,1972,-996,1280,155,1605,2025-02-17 10:06:06,0.0
-13292,2132,24,984,-3,1564,2025-02-17 10:06:06,0.0
-12956,1444,160,403,-342,1193,2025-02-17 10:06:06,0.0
-14828,776,1272,480,8,891,2025-02-17 10:06:06,0.0
-14996,-340,1628,901,-1025,901,2025-02-17 10:06:06,0.0
-15272,-328,2108,1355,-2368,776,2025-02-17 10:06:06,0.0
-15444,-132,1772,1809,-3320,1217,2025-02-17 10:06:06,0.0
-14872,88,1540,2288,-4118,1688,2025-02-17 10:06:06,0.0
-14188,740,1620,2696,-4970,1982,2025-02-17 10:06:06,0.0
-13484,1024,1496,3008,-5846,2427,2025-02-17 10:06:06,0.0
-12604,1292,1628,3224,-5621,2363,2025-02-17 10:06:06,0.0
-11816,1420,1524,3068,-4895,2119,2025-02-17 10:06:06,0.0
-11564,988,1900,3068,-3509,1734,2025-02-17 10:06:06,0.0
-11648,908,1748,3147,-2176,1341,2025-02-17 10:06:06,0.0
-12156,1192,1876,3259,-630,1203,2025-02-17 10:06:06,0.0
-12808,1836,2184,3195,381,1062,2025-02-17 10:06:06,0.0
-12524,2340,2384,2790,378,705,2025-02-17 10:06:06,0.0
-12408,2608,2520,2233,250,122,2025-02-17 10:06:06,0.0
-12580,2416,2528,1650,253,-253,2025-02-17 10:06:06,0.0
-12400,2032,2492,1211,20,-524,2025-02-17 10:06:06,0.0
-12408,1436,2908,1049,-121,-749,2025-02-17 10:06:06,0.0
-12056,1428,2724,960,-165,-828,2025-02-17 10:06:06,0.0
-13148,1568,3700,971,340,-1002,2025-02-17 10:06:06,0.0
-13172,1704,3200,1036,142,-1098,2025-02-17 10:06:06,0.0
-13244,1540,3200,1006,-603,-1120,2025-02-17 10:06:06,0.0
-13216,1252,3652,1295,-1125,-1128,2025-02-17 10:06:06,0.0
-13084,1276,3256,2066,-601,-1014,2025-02-17 10:06:06,0.0
-13436,704,2808,2474,1254,-839,2025-02-17 10:06:06,0.0
-14280,-356,3936,3038,2608,-680,2025-02-17 10:06:06,0.0
-15432,-1016,5432,3864,1546,-366,2025-02-17 10:06:06,0.0
-15664,-1244,5524,4847,-364,-355,2025-02-17 10:06:06,0.0
-15368,-280,5396,5838,-2723,-639,2025-02-17 10:06:06,0.0
-15160,1400,4848,6754,-3975,-757,2025-02-17 10:06:06,0.0
-13440,3268,2488,6926,-4981,-363,2025-02-17 10:06:06,0.0
-12732,3972,1948,6742,-4225,85,2025-02-17 10:06:06,0.0
-11312,3008,1148,6353,-1195,179,2025-02-17 10:06:06,0.0
-11752,2684,2928,6691,3871,-137,2025-02-17 10:06:06,0.0
-14516,2872,1984,6764,6230,-66,2025-02-17 10:06:06,0.0
-17972,3648,2540,6067,7351,204,2025-02-17 10:06:06,0.0
-19472,4284,2344,5286,6031,632,2025-02-17 10:06:06,0.0
-20052,4316,1060,4403,3116,943,2025-02-17 10:06:06,0.0
-19208,4872,-1324,2235,-523,1317,2025-02-17 10:06:06,0.0
-17436,5220,-1628,-98,-3189,1145,2025-02-17 10:06:06,0.0
-15584,4340,-112,-1327,-3484,268,2025-02-17 10:06:06,0.0
-14796,3060,952,-2044,-2245,-402,2025-02-17 10:06:06,0.0
-13376,1820,1632,-1841,-1284,-1286,2025-02-17 10:06:06,0.0
-12320,1000,1104,-1411,-1510,-2446,2025-02-17 10:06:06,0.0
-11572,724,392,-1287,-1861,-3575,2025-02-17 10:06:06,0.0
-11140,816,-956,-1632,-1434,-4583,2025-02-17 10:06:06,0.0
-11416,852,-2372,-2475,-776,-5017,2025-02-17 10:06:07,0.0
-11736,692,-3116,-2987,-331,-4568,2025-02-17 10:06:07,0.0
-11672,-476,-3496,-3277,891,-3711,2025-02-17 10:06:07,0.0
-11800,-1496,-2320,-3159,3525,-2726,2025-02-17 10:06:07,0.0
-12420,-2444,-936,-2316,6133,-2000,2025-02-17 10:06:07,0.0
-13024,-1936,204,-890,8260,-1901,2025-02-17 10:06:07,0.0
-13164,-1816,964,-46,7497,-2527,2025-02-17 10:06:07,0.0
-14052,-1084,-144,-272,4568,-3071,2025-02-17 10:06:07,0.0
-14292,-524,-220,-924,2196,-3481,2025-02-17 10:06:07,0.0
-14804,160,-456,-1554,-652,-3683,2025-02-17 10:06:07,0.0
-15108,-84,664,-1939,-2195,-3624,2025-02-17 10:06:07,0.0
-14052,-80,-24,-1587,-2073,-3487,2025-02-17 10:06:07,0.0
-12664,-116,-1032,-1866,-1807,-3530,2025-02-17 10:06:07,0.0
-11856,40,-1272,-2575,-2044,-3724,2025-02-17 10:06:07,0.0
-11412,-496,-912,-3184,-1081,-3608,2025-02-17 10:06:07,0.0
-11764,-1144,40,-3407,516,-3183,2025-02-17 10:06:07,0.0
-12236,-1884,668,-3281,2337,-2742,2025-02-17 10:06:07,0.0
-12880,-2088,1220,-2951,3330,-2680,2025-02-17 10:06:07,0.0
-13236,-2412,2104,-2537,3282,-2642,2025-02-17 10:06:07,0.0
-14356,-2484,2024,-2410,979,-2423,2025-02-17 10:06:07,0.0
-13480,-2596,848,-2269,-468,-2060,2025-02-17 10:06:07,0.0
-12932,-2316,760,-2294,-573,-1729,2025-02-17 10:06:07,0.0
-13260,-1616,1632,-2323,-424,-1225,2025-02-17 10:06:07,0.0
-12848,-1152,1816,-2328,93,-655,2025-02-17 10:06:07,0.0
-12796,-1032,1536,-2470,807,-50,2025-02-17 10:06:07,0.0
-13036,-1332,1968,-2579,1159,370,2025-02-17 10:06:07,0.0
-13660,-1752,2056,-2767,1085,697,2025-02-17 10:06:07,0.0
-14352,-2008,2112,-3033,406,924,2025-02-17 10:06:07,0.0
-14584,-2060,2352,-3297,-791,958,2025-02-17 10:06:07,0.0
-14368,-2076,1640,-3493,-1898,805,2025-02-17 10:06:07,0.0
-14600,-1448,1844,-3747,-2862,433,2025-02-17 10:06:07,0.0
-14112,-1668,2212,-4180,-2673,-143,2025-02-17 10:06:07,0.0
-13580,-1156,2232,-4823,-2631,-859,2025-02-17 10:06:07,0.0
-14096,-920,3252,-5488,-2843,-1595,2025-02-17 10:06:07,0.0
-13968,-920,3396,-6340,-3660,-2242,2025-02-17 10:06:07,0.0
-13692,-2116,2224,-7505,-3720,-2531,2025-02-17 10:06:07,0.0
-13048,-3728,960,-7859,-2045,-3394,2025-02-17 10:06:07,0.0
-13616,-4256,-4,-7196,482,-4453,2025-02-17 10:06:07,0.0
-15800,-5076,1328,-5984,3679,-5442,2025-02-17 10:06:07,0.0
-17440,-6764,1672,-4617,5183,-6236,2025-02-17 10:06:07,
-19964,-7196,2000,-2580,5336,-6101,2025-02-17 10:06:07,0.0
-22500,-7044,892,-418,2539,-4097,2025-02-17 10:06:07,0.0
-23272,-5840,-564,465,-2239,-110,2025-02-17 10:06:07,0.0
-17492,-3568,1252,1617,-6978,2165,2025-02-17 10:06:07,0.0
-14844,-1884,-420,2484,-8470,2675,2025-02-17 10:06:07,0.0
-13228,-1008,-2664,2546,-7452,3540,2025-02-17 10:06:07,0.0
-11592,-416,-4444,2202,-5032,4127,2025-02-17 10:06:07,0.0
-10612,788,-4608,1851,-1972,4330,2025-02-17 10:06:07,0.0
-9484,1880,-3152,1483,1533,4078,2025-02-17 10:06:07,0.0
-8760,2820,-1472,711,4969,2805,2025-02-17 10:06:07,0.0
-11132,1816,-728,-204,6287,1982,2025-02-17 10:06:07,0.0
-13796,8,-44,-790,6372,2229,2025-02-17 10:06:07,0.0
-16236,-1088,1272,-245,4899,2578,2025-02-17 10:06:07,0.0
-16248,-2132,476,428,4587,3339,2025-02-17 10:06:07,0.0
-15776,-1856,948,1285,2776,3833,2025-02-17 10:06:08,0.0
-15040,-1316,1420,1914,-201,4184,2025-02-17 10:06:08,0.0
-13420,-788,1428,2259,-3069,4087,2025-02-17 10:06:08,0.0
-12408,-396,1236,2386,-4579,3724,2025-02-17 10:06:08,0.0
-12260,232,2420,2478,-4356,3316,2025-02-17 10:06:08,0.0
-11388,556,1348,2603,-3200,3115,2025-02-17 10:06:08,0.0
-11344,1176,1460,2912,-1470,3361,2025-02-17 10:06:08,0.0
-11276,1308,1472,3146,135,3540,2025-02-17 10:06:08,0.0
-11424,1480,704,3077,867,3701,2025-02-17 10:06:08,0.0
-12632,1420,1688,2400,1147,2524,2025-02-17 10:06:08,0.0
-12372,1640,1680,1984,511,1576,2025-02-17 10:06:08,0.0
-12128,1340,1688,1492,-460,482,2025-02-17 10:06:08,0.0
-12276,1340,1844,955,-1386,-165,2025-02-17 10:06:08,0.0
-12444,848,2064,789,-1397,-409,2025-02-17 10:06:08,0.0
-12720,812,2236,997,-488,-350,2025-02-17 10:06:08,0.0
-13024,1004,2356,1159,350,-177,2025-02-17 10:06:08,0.0
-13092,1060,2520,1275,259,-113,2025-02-17 10:06:08,0.0
-13364,1112,3024,1503,-194,-192,2025-02-17 10:06:08,0.0
-13392,1104,3472,1703,-835,-411,2025-02-17 10:06:08,0.0
-14348,1424,3840,1795,-2057,-723,2025-02-17 10:06:08,0.0
-14052,1436,3124,2086,-2682,-832,2025-02-17 10:06:08,0.0
-13808,1176,2984,2446,-2975,-736,2025-02-17 10:06:08,0.0
-13748,-304,2840,2913,-2404,-435,2025-02-17 10:06:08,0.0
-14136,-1560,3040,3791,-1253,-129,2025-02-17 10:06:08,0.0
-14512,-1220,4000,5006,450,148,2025-02-17 10:06:08,0.0
-14864,56,4052,5967,1577,503,2025-02-17 10:06:08,0.0
-15100,1500,4220,6009,1062,792,2025-02-17 10:06:08,0.0
-13264,2352,4260,6045,522,-140,2025-02-17 10:06:08,0.0
-13672,3032,3048,6038,1800,-972,2025-02-17 10:06:08,0.0
-16280,2876,2068,6134,3613,-557,2025-02-17 10:06:08,0.0
-18316,3280,980,5862,5524,215,2025-02-17 10:06:08,0.0
-20844,3804,-188,4857,6829,1253,2025-02-17 10:06:08,0.0
-20648,4432,-1756,2109,6092,2168,2025-02-17 10:06:08,0.0
-19284,5252,-3040,-545,3295,1869,2025-02-17 10:06:08,0.0
-17288,4956,-4104,-2894,-930,788,2025-02-17 10:06:08,0.0
-14752,3988,-4720,-4173,-5640,-714,2025-02-17 10:06:08,0.0
-12516,1576,-4028,-5211,-11133,-2342,2025-02-17 10:06:08,0.0
-10440,-1024,-1024,-5905,-13282,-2610,2025-02-17 10:06:08,0.0
-7564,-2932,1328,-4743,-8189,-2494,2025-02-17 10:06:08,0.0
-7396,-4404,-44,-2023,29,-2712,2025-02-17 10:06:08,0.0
-9664,-3484,-2780,-41,7177,-2359,2025-02-17 10:06:08,0.0
-11736,-2004,-3508,367,11299,-2165,2025-02-17 10:06:08,0.0
-14180,-316,-1796,-53,12470,-2450,2025-02-17 10:06:08,0.0
-15184,140,720,-387,10036,-3162,2025-02-17 10:06:08,0.0
-15948,260,1812,-992,5181,-4035,2025-02-17 10:06:08,0.0
-15560,-128,248,-1713,-1343,-4684,2025-02-17 10:06:08,0.0
-14840,-992,-1696,-2242,-5217,-4658,2025-02-17 10:06:08,0.0
-13328,-1184,-2296,-2650,-8387,-4840,2025-02-17 10:06:08,0.0
-12696,-1564,-1040,-2758,-9061,-4092,2025-02-17 10:06:08,0.0
-10996,-1824,-904,-2135,-6243,-3479,2025-02-17 10:06:08,0.0
-10984,-1460,-1488,-1792,-1472,-2831,2025-02-17 10:06:08,0.0
-10996,-1468,-1240,-1889,1594,-2327,2025-02-17 10:06:08,0.0
-11324,-1564,-892,-2009,2565,-2335,2025-02-17 10:06:08,0.0
-12736,-1940,-8,-2127,1926,-2501,2025-02-17 10:06:08,0.0
-13764,-2480,828,-2252,777,-2252,2025-02-17 10:06:08,0.0
-14488,-2584,1300,-2061,468,-1464,2025-02-17 10:06:08,0.0
-13868,-2460,1140,-1699,-2,-806,2025-02-17 10:06:08,0.0
-13564,-2220,1228,-1480,-381,-716,2025-02-17 10:06:08,0.0
-12800,-1600,1064,-1199,-193,-407,2025-02-17 10:06:08,0.0
-11968,-1360,1012,-1139,-1292,0,2025-02-17 10:06:08,0.0
-12680,-1552,1760,-1151,-402,127,2025-02-17 10:06:08,0.0
-12536,-1832,1236,-1320,991,245,2025-02-17 10:06:08,0.0
-12980,-1676,1880,-1453,1879,326,2025-02-17 10:06:08,0.0
-13324,-1784,1368,-1840,1791,396,2025-02-17 10:06:08,0.0
-13864,-1940,1320,-2250,1073,339,2025-02-17 10:06:08,0.0
-14252,-1496,1012,-2572,172,323,2025-02-17 10:06:08,0.0
-14340,-656,588,-3110,-354,214,2025-02-17 10:06:08,0.0
-14236,-184,480,-3964,-495,42,2025-02-17 10:06:09,0.0
-13956,120,464,-4829,-402,-54,2025-02-17 10:06:09,0.0
-13864,-312,1532,-5608,-1146,7,2025-02-17 10:06:09,0.0
-14292,-944,2244,-6182,-2140,15,2025-02-17 10:06:09,0.0
-13508,-1868,1564,-6871,-3099,-127,2025-02-17 10:06:09,0.0
-13288,-2456,2464,-7246,-3218,-132,2025-02-17 10:06:09,0.0
-12924,-3276,3148,-7265,-2710,169,2025-02-17 10:06:09,0.0
-12972,-4048,3064,-6933,-1001,667,2025-02-17 10:06:09,0.0
-14380,-3840,1984,-5602,2091,524,2025-02-17 10:06:09,0.0
-16324,-4168,2348,-4650,4237,-494,2025-02-17 10:06:09,0.0
-17948,-4756,2560,-3449,2783,-1534,2025-02-17 10:06:09,0.0
-19004,-5048,1520,-1797,-336,-1738,2025-02-17 10:06:09,0.0
-19448,-4136,-476,-571,-1957,-1145,2025-02-17 10:06:09,0.0
-17280,-2252,-636,-209,-2346,-578,2025-02-17 10:06:09,0.0
-15160,-884,-448,-428,-2645,-441,2025-02-17 10:06:09,0.0
-13640,-132,-348,-739,-2958,1050,2025-02-17 10:06:09,0.0
-12588,436,-720,-728,-2306,2506,2025-02-17 10:06:09,0.0
-12196,904,-2336,-1108,-959,3322,2025-02-17 10:06:09,0.0
-11812,1584,-3272,-1881,822,3400,2025-02-17 10:06:09,
-11248,2004,-2716,-2720,2305,2450,2025-02-17 10:06:09,0.0
-11052,1756,-800,-3220,2904,885,2025-02-17 10:06:09,0.0
-12196,1340,-552,-3532,2943,671,2025-02-17 10:06:09,0.0
-13536,864,368,-3528,3041,1066,2025-02-17 10:06:09,0.0
-14052,160,792,-3261,2599,1200,2025-02-17 10:06:09,0.0
-15500,-576,252,-2735,3011,1713,2025-02-17 10:06:09,0.0
-15984,-1040,776,-2244,2557,2353,2025-02-17 10:06:09,0.0
-15084,-1116,644,-1620,234,2384,2025-02-17 10:06:09,0.0
-14684,16,852,-1056,-3379,2472,2025-02-17 10:06:09,0.0
-13364,940,-16,-1337,-5379,2420,2025-02-17 10:06:09,0.0
-11680,960,-336,-1753,-4341,1870,2025-02-17 10:06:09,0.0
-11528,800,-36,-1544,-2565,1542,2025-02-17 10:06:09,0.0
-11332,624,1020,-853,-697,1648,2025-02-17 10:06:09,0.0
-11184,348,1100,-126,673,1656,2025-02-17 10:06:09,0.0
-12212,552,1332,161,1128,1536,2025-02-17 10:06:09,0.0
-12520,836,1504,567,1109,1381,2025-02-17 10:06:09,0.0
-13384,1124,1676,946,1580,974,2025-02-17 10:06:09,0.0
-14120,752,1864,1034,1053,780,2025-02-17 10:06:09,0.0
-13916,796,2212,1210,-803,616,2025-02-17 10:06:09,0.0
-13172,476,2232,1148,-2052,314,2025-02-17 10:06:09,0.0
-12916,136,3004,1262,-2263,-189,2025-02-17 10:06:09,0.0
-12708,-12,3204,1847,-1823,-398,2025-02-17 10:06:09,0.0
-12876,20,2852,2413,-1275,-529,2025-02-17 10:06:09,0.0
-13324,236,2652,2794,-600,-560,2025-02-17 10:06:09,0.0
-13808,988,3004,3097,-185,-321,2025-02-17 10:06:09,0.0
-13644,872,2392,2913,-395,-157,2025-02-17 10:06:09,0.0
-13808,820,2460,2681,-344,-338,2025-02-17 10:06:09,0.0
-14440,60,2356,2430,-430,-586,2025-02-17 10:06:09,0.0
-14736,592,3268,2976,-1506,-389,2025-02-17 10:06:09,0.0
-13984,832,3052,3548,-2128,-71,2025-02-17 10:06:09,0.0
-13364,884,2452,3477,-1687,10,2025-02-17 10:06:09,0.0
-13268,636,2232,3255,-1036,15,2025-02-17 10:06:09,0.0
-13204,380,2520,3348,-553,-12,2025-02-17 10:06:09,0.0
-13904,-260,2640,3946,228,-241,2025-02-17 10:06:09,0.0
-14588,-24,3132,4723,-43,-183,2025-02-17 10:06:09,0.0
-14976,984,2976,5413,-966,34,2025-02-17 10:06:09,0.0
-14464,1704,1524,5358,-1808,182,2025-02-17 10:06:09,0.0
-14060,2440,960,4626,-2179,99,2025-02-17 10:06:09,0.0
-14044,2684,140,3750,-1541,71,2025-02-17 10:06:09,0.0
-15012,3224,140,3388,32,435,2025-02-17 10:06:09,0.0
-15892,3052,-744,2779,1415,793,2025-02-17 10:06:09,0.0
-15524,2108,-704,1310,804,165,2025-02-17 10:06:09,0.0
-15088,1848,-328,155,-280,-1294,2025-02-17 10:06:09,0.0
-14692,1428,-312,-762,-1239,-2330,2025-02-17 10:06:09,0.0
-13728,1104,-164,-1139,-2138,-2930,2025-02-17 10:06:10,0.0
-12884,588,-328,-1518,-1371,-3225,2025-02-17 10:06:10,0.0
-12032,188,-672,-1990,41,-3237,2025-02-17 10:06:10,0.0
-12172,-664,-660,-2314,1251,-3106,2025-02-17 10:06:10,0.0
-12488,-1540,-36,-2072,1879,-2622,2025-02-17 10:06:10,0.0
-12824,-2040,468,-1489,2662,-2162,2025-02-17 10:06:10,0.0
-13552,-1812,944,-766,3155,-1927,2025-02-17 10:06:10,0.0
-13856,-1664,944,-515,3004,-1780,2025-02-17 10:06:10,0.0
-14304,-1796,1820,-619,2409,-1853,2025-02-17 10:06:10,0.0
-14516,-948,2080,-465,1816,-1691,2025-02-17 10:06:10,0.0
-14828,-1432,1872,-972,2120,-1970,2025-02-17 10:06:10,0.0
-15164,-1344,1932,-826,1767,-2490,2025-02-17 10:06:10,0.0
-15216,-976,1048,-812,353,-2314,2025-02-17 10:06:10,0.0
-14692,-848,1020,-1248,-1239,-2204,2025-02-17 10:06:10,0.0
-12868,-964,-52,-2362,-1890,-2398,2025-02-17 10:06:10,0.0
-13172,-1704,-376,-2312,-1110,-2303,2025-02-17 10:06:10,0.0
-12812,-1460,1864,-1943,163,-2109,2025-02-17 10:06:10,0.0
-13340,-1496,1600,-1394,654,-1599,2025-02-17 10:06:10,0.0
-13612,-2000,736,-1573,340,-1565,2025-02-17 10:06:10,0.0
-13636,-1476,452,-2069,-154,-1324,2025-02-17 10:06:10,0.0
-13276,-1468,1152,-2553,244,-951,2025-02-17 10:06:10,0.0
-12912,-1956,732,-2921,1030,-737,2025-02-17 10:06:10,0.0
-13644,-2020,1548,-2975,1585,-514,2025-02-17 10:06:10,0.0
-14640,-1664,2184,-2673,1058,-126,2025-02-17 10:06:10,0.0
-14336,-1252,1996,-3017,96,142,2025-02-17 10:06:10,0.0
-14012,-1416,1540,-3432,-86,-202,2025-02-17 10:06:10,0.0
-13828,-564,1148,-4436,1029,-270,2025-02-17 10:06:10,0.0
-13520,-700,2520,-5099,914,-269,2025-02-17 10:06:10,0.0
-14248,-1168,2324,-5102,-667,-84,2025-02-17 10:06:10,0.0
-14648,-1704,2224,-5256,-2013,80,2025-02-17 10:06:10,0.0
-14192,-2128,1556,-5729,-2217,-30,2025-02-17 10:06:10,0.0
-14008,-2372,1936,-6066,-1838,18,2025-02-17 10:06:10,0.0
-13676,-2552,1948,-6081,-1443,140,2025-02-17 10:06:10,0.0
-13748,-2440,2160,-6010,-1543,439,2025-02-17 10:06:10,0.0
-13332,-2212,2440,-5848,-2327,506,2025-02-17 10:06:10,0.0
-13660,-2368,2180,-5985,-2854,520,2025-02-17 10:06:10,0.0
-13440,-2872,2484,-5891,-3055,522,2025-02-17 10:06:10,0.0
-13524,-3092,2476,-5430,-2741,655,2025-02-17 10:06:10,0.0
-13696,-3344,2384,-5042,-2117,948,2025-02-17 10:06:10,0.0
-13112,-3308,1692,-4698,-2131,1028,2025-02-17 10:06:10,0.0
-12888,-2824,2424,-4113,-2232,1025,2025-02-17 10:06:10,0.0
-13116,-2548,1996,-3785,-946,1153,2025-02-17 10:06:10,0.0
-13256,-2444,1012,-3594,856,728,2025-02-17 10:06:10,0.0
-14608,-2240,1608,-3089,1222,264,2025-02-17 10:06:10,0.0
-14808,-2196,1780,-2344,1139,102,2025-02-17 10:06:10,0.0
-14660,-1736,1596,-1837,292,251,2025-02-17 10:06:10,0.0
-14216,-772,1464,-1761,-398,308,2025-02-17 10:06:10,0.0
-13896,-904,1536,-1601,-843,516,2025-02-17 10:06:10,0.0
-13628,-840,1168,-1083,-688,805,2025-02-17 10:06:10,0.0
-13428,-632,896,-840,317,1131,2025-02-17 10:06:10,0.0
-13640,-132,820,-813,1590,1391,2025-02-17 10:06:10,0.0
-14252,172,1252,-853,2287,1447,2025-02-17 10:06:10,0.0
-14692,220,2104,-620,2124,1613,2025-02-17 10:06:10,0.0
-15192,740,2184,-217,1710,1816,2025-02-17 10:06:10,0.0
-14952,560,1396,-199,1549,1925,2025-02-17 10:06:10,0.0
-14392,812,532,-229,1806,1987,2025-02-17 10:06:10,
-13740,1116,1028,-395,1735,1832,2025-02-17 10:06:10,0.0
-13748,1448,1320,-528,933,1589,2025-02-17 10:06:10,0.0
-13236,1196,1672,-396,717,1376,2025-02-17 10:06:10,0.0
-13580,1212,1916,80,1039,1269,2025-02-17 10:06:10,0.0
-13748,1240,2304,323,1292,1295,2025-02-17 10:06:10,0.0
-13808,1120,2392,517,625,1212,2025-02-17 10:06:10,0.0
-13468,992,2320,719,-187,1066,2025-02-17 10:06:11,0.0
-13344,920,1924,899,3,886,2025-02-17 10:06:11,0.0
-13200,1284,864,839,445,867,2025-02-17 10:06:11,0.0
-12688,1396,1340,737,1078,373,2025-02-17 10:06:11,0.0
-13868,1584,1520,742,1422,177,2025-02-17 10:06:11,0.0
-14224,1764,1620,1086,1262,287,2025-02-17 10:06:11,0.0
-14348,1836,1624,1214,697,645,2025-02-17 10:06:11,0.0
-14072,1620,1484,1263,181,613,2025-02-17 10:06:11,0.0
-13676,1636,1408,1310,-249,595,2025-02-17 10:06:11,0.0
-13144,1552,1148,1183,-218,601,2025-02-17 10:06:11,0.0
-12992,960,1148,979,370,456,2025-02-17 10:06:11,0.0
-13852,732,1376,1157,1106,369,2025-02-17 10:06:11,0.0
-14120,592,1624,1292,1548,428,2025-02-17 10:06:11,0.0
-13596,576,1608,1053,1617,501,2025-02-17 10:06:11,0.0
-12992,660,1788,839,1344,243,2025-02-17 10:06:11,0.0
-13008,976,1996,627,989,0,2025-02-17 10:06:11,0.0
-12620,1056,1588,459,950,-279,2025-02-17 10:06:11,0.0
-13164,1080,1628,454,1017,-551,2025-02-17 10:06:11,0.0
-13660,848,1560,575,832,-541,2025-02-17 10:06:11,0.0
-13824,560,1120,666,617,-523,2025-02-17 10:06:11,0.0
-13812,120,716,685,657,-667,2025-02-17 10:06:11,0.0
-14400,-208,-284,775,1170,-715,2025-02-17 10:06:11,0.0
-14244,-116,-48,855,1194,-640,2025-02-17 10:06:11,0.0
-13788,380,312,1084,1423,-562,2025-02-17 10:06:11,0.0
-13608,880,76,1144,1637,-411,2025-02-17 10:06:11,0.0
-13428,652,600,1059,1711,-544,2025-02-17 10:06:11,0.0
-13768,500,868,1283,1838,-728,2025-02-17 10:06:11,0.0
-14084,660,960,1359,2000,-777,2025-02-17 10:06:11,0.0
-14244,1224,508,1057,1932,-659,2025-02-17 10:06:11,0.0
-14168,688,936,563,1921,-522,2025-02-17 10:06:11,0.0
-14124,-88,1320,441,2144,-187,2025-02-17 10:06:11,0.0
-14304,-1228,1156,225,2006,-159,2025-02-17 10:06:11,0.0
-14116,-340,2120,822,1287,-391,2025-02-17 10:06:11,0.0
-13436,152,-20,457,718,-408,2025-02-17 10:06:11,0.0
-13992,268,40,-81,317,-512,2025-02-17 10:06:11,0.0
-14252,344,444,52,103,-368,2025-02-17 10:06:11,0.0
-13800,292,256,-77,-50,-292,2025-02-17 10:06:11,0.0
-13584,-164,748,-183,-178,-332,2025-02-17 10:06:11,0.0
-13984,-536,1196,10,30,-367,2025-02-17 10:06:11,0.0
-14140,-168,1408,463,-31,-233,2025-02-17 10:06:11,0.0
-13468,-492,856,457,95,-172,2025-02-17 10:06:11,0.0
-13540,-716,1156,474,595,-250,2025-02-17 10:06:11,0.0
-13784,-628,1020,814,1160,-154,2025-02-17 10:06:11,0.0
-14196,-432,572,987,1033,-109,2025-02-17 10:06:11,0.0
-14132,-832,448,1131,711,-72,2025-02-17 10:06:11,0.0
-13964,-940,668,1417,386,-36,2025-02-17 10:06:11,0.0
-13760,-980,644,1723,355,33,2025-02-17 10:06:11,0.0
-13700,-508,-28,1956,330,-6,2025-02-17 10:06:11,0.0
-13776,-172,-248,1787,390,-36,2025-02-17 10:06:11,0.0
-13932,96,-20,1677,557,72,2025-02-17 10:06:11,0.0
-13888,212,272,1735,645,197,2025-02-17 10:06:11,0.0
-13936,44,44,1570,533,228,2025-02-17 10:06:11,0.0
-13908,-156,292,1386,413,179,2025-02-17 10:06:11,0.0
-13720,-280,460,1345,247,77,2025-02-17 10:06:11,0.0
-13616,-4,288,1303,45,-33,2025-02-17 10:06:11,0.0
-13764,408,296,1136,31,-179,2025-02-17 10:06:11,0.0
-13800,1180,96,934,104,-181,2025-02-17 10:06:11,0.0
-13912,1284,-52,612,25,-143,2025-02-17 10:06:11,0.0
-13804,880,248,113,-36,-33,2025-02-17 10:06:11,0.0
-13568,588,96,-72,297,-67,2025-02-17 10:06:12,0.0
-13704,548,100,-364,483,-198,2025-02-17 10:06:12,0.0
-13868,596,160,-656,676,-341,2025-02-17 10:06:12,0.0
-13848,608,160,-907,490,-322,2025-02-17 10:06:12,0.0
-13920,448,588,-994,-43,-265,2025-02-17 10:06:12,0.0
-13860,360,552,-954,-362,-240,2025-02-17 10:06:12,0.0
-13860,84,-56,-1088,-274,-328,2025-02-17 10:06:12,0.0
-13908,-20,228,-832,-118,-294,2025-02-17 10:06:12,0.0
-13696,-24,204,-676,165,-254,2025-02-17 10:06:12,0.0
-13652,164,152,-693,291,-276,2025-02-17 10:06:12,0.0
-13796,292,-272,-980,238,-324,2025-02-17 10:06:12,0.0
-13640,288,192,-1166,242,-274,2025-02-17 10:06:12,0.0
-13440,116,548,-1016,623,-282,2025-02-17 10:06:12,0.0
-13596,56,356,-775,1115,-228,2025-02-17 10:06:12,0.0
-13932,-28,556,-597,1315,-167,2025-02-17 10:06:12,0.0
-14012,-104,820,-510,1097,-119,2025-02-17 10:06:12,0.0
-13696,8,620,-374,1236,-196,2025-02-17 10:06:12,0.0
-13652,192,504,-260,1267,-292,2025-02-17 10:06:12,0.0
-13880,448,412,-229,1051,-283,2025-02-17 10:06:12,0.0
-13880,260,-20,-373,739,-211,2025-02-17 10:06:12,0.0
-13512,128,-164,-539,1090,-221,2025-02-17 10:06:12,0.0
-13800,68,384,-406,945,-166,2025-02-17 10:06:12,0.0
-13740,164,68,-328,884,-199,2025-02-17 10:06:12,0.0
-13836,448,164,-442,1038,-271,2025-02-17 10:06:12,0.0
-13980,520,224,-669,851,-349,2025-02-17 10:06:12,0.0
-14020,596,160,-809,415,-344,2025-02-17 10:06:12,0.0
-13976,564,444,-881,-119,-331,2025-02-17 10:06:12,0.0
-13836,440,120,-949,-346,-349,2025-02-17 10:06:12,0.0
-13796,280,52,-946,-338,-322,2025-02-17 10:06:12,0.0
-13492,244,-504,-1086,4,-346,2025-02-17 10:06:12,0.0
-13528,196,-620,-1372,362,-378,2025-02-17 10:06:12,0.0
-13636,280,-100,-1452,142,-247,2025-02-17 10:06:12,0.0
-13864,236,200,-1555,-53,-336,2025-02-17 10:06:12,0.0
-13908,52,-12,-1691,-384,-386,2025-02-17 10:06:12,0.0
-13992,8,-48,-1853,-578,-455,2025-02-17 10:06:12,
-13948,124,56,-2016,-496,-466,2025-02-17 10:06:12,0.0
-13780,-52,200,-1978,-728,-532,2025-02-17 10:06:12,0.0
-13796,-84,420,-1728,-734,-493,2025-02-17 10:06:12,0.0
-13896,-412,488,-1066,-733,-419,2025-02-17 10:06:12,0.0
-13540,-248,252,-740,-605,-366,2025-02-17 10:06:12,0.0
-13632,-280,188,-724,-474,-372,2025-02-17 10:06:12,0.0
-13492,-176,608,-570,-277,-326,2025-02-17 10:06:12,0.0
-13468,-76,624,-445,102,-265,2025-02-17 10:06:12,0.0
-13316,-300,724,-340,200,-226,2025-02-17 10:06:12,0.0
-13612,-224,580,-182,149,-285,2025-02-17 10:06:12,0.0
-13984,-188,428,-6,283,-311,2025-02-17 10:06:12,0.0
-13848,-44,348,117,497,-310,2025-02-17 10:06:12,0.0
-13924,56,252,141,701,-271,2025-02-17 10:06:12,0.0
-13808,44,8,-8,809,-268,2025-02-17 10:06:12,0.0
-13732,4,256,-235,874,-260,2025-02-17 10:06:12,0.0
-13836,-64,364,-171,726,-231,2025-02-17 10:06:12,0.0
-13916,-420,172,-303,554,-271,2025-02-17 10:06:12,0.0
-13600,112,1920,216,658,-533,2025-02-17 10:06:12,0.0
-14128,-908,4660,4152,1612,-15,2025-02-17 10:06:12,0.0
-13836,144,-728,5787,1816,53,2025-02-17 10:06:12,0.0
-13196,812,-3972,1054,576,388,2025-02-17 10:06:12,0.0
-13796,232,-1068,-1342,-693,-902,2025-02-17 10:06:12,0.0
-14004,-148,1028,-517,-368,-515,2025-02-17 10:06:12,0.0
-13836,-276,732,490,438,-234,2025-02-17 10:06:12,0.0
-13912,-300,168,690,305,-383,2025-02-17 10:06:12,0.0
-13600,-124,464,752,24,-462,2025-02-17 10:06:13,0.0
-13348,-80,44,455,408,-227,2025-02-17 10:06:13,0.0
-13356,-860,-984,-666,646,-242,2025-02-17 10:06:13,0.0
-13372,-512,-3020,-3803,1090,-198,2025-02-17 10:06:13,0.0
-12652,-1116,1684,-4507,1568,-1340,2025-02-17 10:06:13,0.0
-14616,-656,1820,-1652,1454,-1335,2025-02-17 10:06:13,0.0
-14160,-24,328,9,1556,-712,2025-02-17 10:06:13,0.0
-14488,-428,208,446,1130,-707,2025-02-17 10:06:13,0.0
-14572,-436,640,1177,807,-118,2025-02-17 10:06:13,0.0
-14528,-268,80,2009,263,91,2025-02-17 10:06:13,0.0
-14304,32,-892,1423,-910,-138,2025-02-17 10:06:13,0.0
-13960,40,-48,1218,-1521,-162,2025-02-17 10:06:13,0.0
-13724,-176,364,1376,-1682,-13,2025-02-17 10:06:13,0.0
-13484,-288,440,1859,-1021,301,2025-02-17 10:06:13,0.0
-13164,-112,-524,1408,-813,207,2025-02-17 10:06:13,0.0
-13588,-428,24,805,-792,-78,2025-02-17 10:06:13,0.0
-13776,-448,380,987,-681,-295,2025-02-17 10:06:13,0.0
-14584,-1040,1736,2330,-285,760,2025-02-17 10:06:13,0.0
-13832,296,-688,1844,474,429,2025-02-17 10:06:13,0.0
-13084,608,260,1609,-394,202,2025-02-17 10:06:13,0.0
-13428,560,-1052,70,-435,-105,2025-02-17 10:06:13,0.0
-12804,-136,1832,-1089,-629,-39,2025-02-17 10:06:13,0.0
-13856,2324,-1252,-1983,286,-354,2025-02-17 10:06:13,0.0
-12320,48,304,-1991,155,-504,2025-02-17 10:06:13,0.0
-15848,232,256,-2236,1213,44,2025-02-17 10:06:13,0.0
-13920,48,-556,-2149,698,-522,2025-02-17 10:06:13,0.0
-12724,788,1712,-2206,32,-1273,2025-02-17 10:06:13,0.0
-14580,540,-2944,-3102,682,-85,2025-02-17 10:06:13,0.0
-11164,-488,-148,-5255,1364,-1564,2025-02-17 10:06:13,0.0
-15456,-1288,216,-5760,693,-1286,2025-02-17 10:06:13,0.0
-11868,-2956,2200,-4247,1423,-847,2025-02-17 10:06:13,0.0
-11368,-2060,1696,-499,5585,-329,2025-02-17 10:06:13,0.0
-10620,-756,2160,1548,9044,-1521,2025-02-17 10:06:13,0.0
-14952,-556,-2820,801,6712,-2400,2025-02-17 10:06:13,0.0
-14736,-68,-4104,-1862,1957,-2565,2025-02-17 10:06:13,0.0
-14948,-872,-2044,-3695,-1397,-1846,2025-02-17 10:06:13,0.0
-13384,-720,184,-3748,-984,-1257,2025-02-17 10:06:13,0.0
-13016,24,-1628,-3541,1354,-663,2025-02-17 10:06:13,0.0
-14184,612,156,-3787,241,-754,2025-02-17 10:06:13,0.0
-14752,-124,236,-1171,-1428,-605,2025-02-17 10:06:13,0.0
-13908,-564,248,20,-1703,-36,2025-02-17 10:06:13,0.0
-13872,-580,1132,733,-1010,585,2025-02-17 10:06:13,0.0
-14220,-332,-392,252,-886,436,2025-02-17 10:06:13,0.0
-13404,28,-1108,-594,-1153,65,2025-02-17 10:06:13,0.0
-13048,-244,-800,-462,-392,101,2025-02-17 10:06:13,0.0
-13340,-456,84,389,704,-100,2025-02-17 10:06:13,0.0
-12944,-824,232,1213,695,-552,2025-02-17 10:06:13,0.0
-13592,-800,-420,1111,177,-851,2025-02-17 10:06:13,0.0
-14440,-832,-1396,-300,-229,-670,2025-02-17 10:06:13,0.0
-14332,-804,-1288,-1642,-833,-143,2025-02-17 10:06:13,0.0
-13800,-868,-396,-1991,-1943,-343,2025-02-17 10:06:13,0.0
-13092,-788,-80,-2175,-1668,-594,2025-02-17 10:06:13,0.0
-14396,-1112,444,-1890,-1233,-399,2025-02-17 10:06:13,0.0
-12964,-1088,1040,-1264,-664,-587,2025-02-17 10:06:13,0.0
-13752,-932,944,-947,201,-390,2025-02-17 10:06:13,0.0
-13624,-1296,492,-881,875,-210,2025-02-17 10:06:13,0.0
-14188,-1048,1016,-750,644,-199,2025-02-17 10:06:13,0.0
-14024,-1004,1252,-551,931,-62,2025-02-17 10:06:13,0.0
-13496,-1000,1080,-427,1594,44,2025-02-17 10:06:13,0.0
-13944,-1268,1776,-482,701,-132,2025-02-17 10:06:13,0.0
-14044,-1968,2632,-412,599,-175,2025-02-17 10:06:13,0.0
-14548,-2360,4108,341,1147,83,2025-02-17 10:06:14,0.0
-15932,-1704,6912,801,2056,404,2025-02-17 10:06:14,0.0
-13404,-2780,6420,1565,7061,843,2025-02-17 10:06:14,0.0
-7028,-1636,7084,2788,15446,-19,2025-02-17 10:06:14,0.0
-6852,-1592,1280,2611,32237,-309,2025-02-17 10:06:14,0.0
-7432,-1552,1216,489,32767,1777,2025-02-17 10:06:14,0.0
-5956,-1244,320,-2447,32767,4249,2025-02-17 10:06:14,0.0
-3720,-1180,596,-5178,32767,6065,2025-02-17 10:06:14,0.0
-2700,-1124,2368,-7234,32767,7172,2025-02-17 10:06:14,0.0
-688,-1052,3300,-8710,32767,7527,2025-02-17 10:06:14,0.0
80,-1148,4892,-9893,32767,7637,2025-02-17 10:06:14,0.0
460,-1244,4716,-10887,32767,7346,2025-02-17 10:06:14,0.0
688,-1236,4684,-11571,32767,6676,2025-02-17 10:06:14,0.0
988,-1156,5036,-11783,32767,5878,2025-02-17 10:06:14,
1140,-972,4808,-11812,32767,4631,2025-02-17 10:06:14,0.0
868,-912,4976,-11444,32767,3479,2025-02-17 10:06:14,0.0
1228,-1072,4388,-11093,32767,2432,2025-02-17 10:06:14,0.0
1576,-852,4308,-10475,32767,1256,2025-02-17 10:06:14,0.0
1272,-632,4744,-9492,32767,162,2025-02-17 10:06:14,0.0
1232,-524,5032,-8463,32767,-706,2025-02-17 10:06:14,0.0
2176,-280,4592,-7053,32767,-1798,2025-02-17 10:06:14,0.0
1816,-56,4308,-5369,32767,-3301,2025-02-17 10:06:14,0.0
1364,-228,4852,-4152,32767,-4459,2025-02-17 10:06:14,0.0
1076,-360,4416,-3183,32767,-4498,2025-02-17 10:06:14,0.0
864,-424,4760,-2449,32767,-4328,2025-02-17 10:06:14,0.0
1656,-676,2596,-2520,32767,-4304,2025-02-17 10:06:14,0.0
156,-1328,1752,-4849,32767,-3317,2025-02-17 10:06:14,0.0
-3056,-1200,-2168,-12314,32767,-2286,2025-02-17 10:06:14,0.0
-7096,22876,32767,-32768,32767,544,2025-02-17 10:06:14,0.0
-32768,20220,32767,11224,32767,1077,2025-02-17 10:06:14,0.0
-32768,23912,32767,9633,20106,-6362,2025-02-17 10:06:14,0.0
-25044,9680,32268,4557,-24553,-378,2025-02-17 10:06:14,0.0
2376,1176,5044,-430,-26635,-7191,2025-02-17 10:06:14,0.0
804,-60,2040,-4855,-24630,-9475,2025-02-17 10:06:14,0.0
2848,-796,1016,-6943,-22150,-9879,2025-02-17 10:06:14,0.0
1512,-696,1536,-7941,-20730,-10207,2025-02-17 10:06:14,0.0
2820,-796,1304,-8828,-20544,-10270,2025-02-17 10:06:14,0.0
2176,-712,1656,-9650,-20427,-9708,2025-02-17 10:06:14,0.0
2088,-844,1536,-10445,-20246,-9035,2025-02-17 10:06:14,0.0
1452,-1288,1308,-12011,-18744,-7667,2025-02-17 10:06:14,0.0
-2204,-684,8436,-12107,-15837,-6119,2025-02-17 10:06:14,0.0
-7744,-408,21364,-6240,-658,-3150,2025-02-17 10:06:14,0.0
-5684,-2028,32767,6378,26949,-2060,2025-02-17 10:06:14,0.0
1488,-5256,32767,11541,31260,-4041,2025-02-17 10:06:14,0.0
-2792,-3396,32767,11342,19547,-2686,2025-02-17 10:06:14,0.0
-5952,132,19824,5947,9945,1053,2025-02-17 10:06:14,0.0
-4444,2024,13816,949,7982,2574,2025-02-17 10:06:14,0.0
-2544,1520,11784,-1404,6897,1506,2025-02-17 10:06:14,0.0
-1352,588,13104,-1687,2116,-283,2025-02-17 10:06:14,0.0
-3332,-388,16512,-465,-3999,-1113,2025-02-17 10:06:14,0.0
-3812,-564,19340,231,-5903,-661,2025-02-17 10:06:14,0.0
-2192,-148,19088,-106,-5646,-422,2025-02-17 10:06:14,0.0
-1444,-188,18236,-1039,-2901,-173,2025-02-17 10:06:14,0.0
-968,-784,18164,-849,-3,26,2025-02-17 10:06:14,0.0
-1232,-816,18052,211,1592,-45,2025-02-17 10:06:14,0.0
-1776,24,17528,643,1493,-283,2025-02-17 10:06:14,0.0
-2232,348,17328,-4,760,-210,2025-02-17 10:06:14,0.0
-2548,128,17732,-617,122,-152,2025-02-17 10:06:14,0.0
-2180,-612,17868,-533,-108,-214,2025-02-17 10:06:14,0.0
-2132,-700,18036,-43,-35,-191,2025-02-17 10:06:14,0.0
-1940,-292,18008,188,111,-191,2025-02-17 10:06:14,0.0
-1904,80,17696,-4,155,-168,2025-02-17 10:06:15,0.0
-1932,84,17680,-278,100,-195,2025-02-17 10:06:15,0.0
-1968,-216,17844,-315,133,-190,2025-02-17 10:06:15,0.0
-2032,-352,17904,-148,284,-188,2025-02-17 10:06:15,0.0
-2100,-264,17796,-135,317,-162,2025-02-17 10:06:15,0.0
-2172,-296,17908,-152,233,-161,2025-02-17 10:06:15,0.0
-2112,-168,17952,-151,46,-187,2025-02-17 10:06:15,0.0
-1972,-248,17916,-120,-26,-203,2025-02-17 10:06:15,0.0
-1872,-184,17876,-168,120,-180,2025-02-17 10:06:15,0.0
-1980,-188,17912,-168,260,-177,2025-02-17 10:06:15,0.0
-2040,-280,17936,-168,298,-187,2025-02-17 10:06:15,0.0
-2048,-236,17656,-161,189,-158,2025-02-17 10:06:15,0.0
-2060,-232,17912,-152,101,-202,2025-02-17 10:06:15,0.0
-1988,-308,17808,-149,86,-193,2025-02-17 10:06:15,0.0
-2008,-300,17960,-165,169,-176,2025-02-17 10:06:15,0.0
-2012,-216,17864,-121,200,-204,2025-02-17 10:06:15,0.0
-1996,-188,17768,-196,163,-176,2025-02-17 10:06:15,0.0
-1928,-244,17932,-175,176,-194,2025-02-17 10:06:15,0.0
-2044,-200,17964,-168,135,-190,2025-02-17 10:06:15,0.0
-2060,-272,17892,-147,146,-186,2025-02-17 10:06:15,0.0
-2012,-208,17840,-150,160,-192,2025-02-17 10:06:15,0.0
-2032,-256,17824,-161,187,-161,2025-02-17 10:06:15,0.0
-1968,-232,17892,-165,168,-148,2025-02-17 10:06:15,0.0
-2048,-268,17952,-159,154,-183,2025-02-17 10:06:15,0.0
-2016,-192,17924,-184,163,-173,2025-02-17 10:06:15,0.0
-2040,-180,17760,-169,168,-169,2025-02-17 10:06:15,0.0
-2088,-260,17912,-168,169,-181,2025-02-17 10:06:15,0.0
-1984,-228,17792,-140,167,-169,2025-02-17 10:06:15,0.0
-2048,-232,17832,-139,152,-177,2025-02-17 10:06:15,0.0
-1928,-244,17836,-158,165,-165,2025-02-17 10:06:15,0.0
-2020,-236,17896,-157,165,-161,2025-02-17 10:06:15,0.0
-1988,-244,17880,-166,170,-179,2025-02-17 10:06:15,0.0
-2100,-168,17924,-138,186,-184,2025-02-17 10:06:15,0.0
-2004,-304,17860,-177,147,-198,2025-02-17 10:06:15,0.0
-2032,-292,17860,-154,150,-173,2025-02-17 10:06:15,0.0
-2100,-168,17756,-165,163,-184,2025-02-17 10:06:15,0.0
-1996,-232,17928,-158,162,-182,2025-02-17 10:06:15,0.0
-2152,-280,17872,-174,148,-185,2025-02-17 10:06:15,0.0
-2020,-200,17764,-170,166,-190,2025-02-17 10:06:15,0.0
-2020,-116,17928,-161,146,-171,2025-02-17 10:06:15,0.0
-1960,-236,17684,-153,184,-183,2025-02-17 10:06:15,0.0
-2004,-136,17956,-176,162,-168,2025-02-17 10:06:15,0.0
-1972,-288,17804,-162,177,-165,2025-02-17 10:06:15,0.0
-1988,-212,17880,-159,163,-173,2025-02-17 10:06:15,0.0
-2000,-180,17788,-153,158,-166,2025-02-17 10:06:15,0.0
-2012,-236,17820,-156,155,-190,2025-02-17 10:06:15,0.0
-1992,-308,17976,-146,163,-183,2025-02-17 10:06:15,0.0
-1980,-160,17904,-156,163,-160,2025-02-17 10:06:15,0.0
-1968,-156,17900,-160,149,-182,2025-02-17 10:06:15,0.0
-2020,-284,17896,-153,145,-180,2025-02-17 10:06:15,0.0
-2024,-216,18036,-157,180,-191,2025-02-17 10:06:15,0.0
-1928,-260,17732,-157,163,-181,2025-02-17 10:06:15,0.0
-2000,-256,17820,-175,183,-179,2025-02-17 10:06:15,
-1980,-160,17716,-156,149,-191,2025-02-17 10:06:15,0.0
-2044,-280,17912,-150,150,-193,2025-02-17 10:06:15,0.0
-1956,-308,17912,-160,154,-195,2025-02-17 10:06:15,0.0
-1980,-256,17916,-149,164,-186,2025-02-17 10:06:15,0.0
-2168,-316,17968,-161,188,-177,2025-02-17 10:06:15,0.0
-1992,-228,17912,-144,171,-186,2025-02-17 10:06:15,0.0
-1900,-208,17920,-148,145,-170,2025-02-17 10:06:15,0.0
-1984,-164,17884,-142,170,-205,2025-02-17 10:06:15,0.0
-2012,-216,17976,-135,177,-167,2025-02-17 10:06:16,0.0
-1968,-180,17804,-153,161,-162,2025-02-17 10:06:16,0.0
-1944,-248,17836,-137,176,-168,2025-02-17 10:06:16,0.0
-1996,-256,17936,-147,165,-163,2025-02-17 10:06:16,0.0
-2004,-200,17776,-144,163,-190,2025-02-17 10:06:16,0.0
-1964,-252,17872,-147,167,-186,2025-02-17 10:06:16,0.0
-1944,-228,17964,-170,165,-185,2025-02-17 10:06:16,0.0
-2056,-188,17880,-178,169,-171,2025-02-17 10:06:16,0.0
-2048,-228,17924,-147,160,-175,2025-02-17 10:06:16,0.0
-2100,-200,17900,-146,127,-182,2025-02-17 10:06:16,0.0
-2000,-156,17956,-171,154,-165,2025-02-17 10:06:16,0.0
-2020,-336,17900,-133,155,-189,2025-02-17 10:06:16,0.0
-2020,-228,17760,-173,184,-184,2025-02-17 10:06:16,0.0
-2116,-236,17752,-147,158,-166,2025-02-17 10:06:16,0.0
-2100,-240,17792,-169,160,-168,2025-02-17 10:06:16,0.0
-2056,-352,17944,-149,142,-191,2025-02-17 10:06:16,0.0
-2040,-224,17948,-170,163,-202,2025-02-17 10:06:16,0.0
-2032,-244,17988,-165,163,-196,2025-02-17 10:06:16,0.0
-1932,-252,17800,-189,173,-172,2025-02-17 10:06:17,0.0
-2032,-236,17892,-150,149,-184,2025-02-17 10:06:17,0.0
-1932,-236,17888,-164,157,-191,2025-02-17 10:06:17,0.0
-1972,-276,17852,-144,144,-196,2025-02-17 10:06:17,0.0
-1932,-228,17892,-149,159,-188,2025-02-17 10:06:17,0.0
-1992,-204,17748,-183,151,-195,2025-02-17 10:06:17,0.0
-2016,-228,17856,-160,160,-175,2025-02-17 10:06:17,0.0
-2052,-292,17764,-166,149,-183,2025-02-17 10:06:17,0.0
-1996,-284,17824,-148,165,-168,2025-02-17 10:06:17,0.0
-1964,-236,17864,-168,170,-194,2025-02-17 10:06:17,0.0
-2044,-196,17908,-149,170,-170,2025-02-17 10:06:17,0.0
-1960,-220,17868,-166,157,-175,2025-02-17 10:06:17,0.0
-2040,-176,17984,-155,170,-181,2025-02-17 10:06:17,0.0
-2004,-236,17740,-168,151,-168,2025-02-17 10:06:17,0.0
-2056,-168,17956,-167,170,-167,2025-02-17 10:06:17,0.0
-1916,-232,17876,-154,173,-169,2025-02-17 10:06:17,0.0
-1952,-280,17856,-171,183,-179,2025-02-17 10:06:17,0.0
-1384,-224,17556,-147,570,-263,2025-02-17 10:06:17,0.0
-2508,-484,18248,-4,216,-107,2025-02-17 10:06:17,0.0
-1844,-24,17684,-93,135,-225,2025-02-17 10:06:17,0.0
-2292,-496,17804,-42,161,-421,2025-02-17 10:06:17,0.0
-1852,-384,17800,-96,-459,-71,2025-02-17 10:06:17,0.0
-1552,-60,17968,-125,226,-119,2025-02-17 10:06:17,0.0
-2016,-280,18012,-162,552,-124,2025-02-17 10:06:17,0.0
-1960,-172,17800,-40,349,-152,2025-02-17 10:06:18,0.0
-1812,416,17368,-694,32,1383,2025-02-17 10:06:18,0.0
-2452,-48,18088,-1237,-138,-255,2025-02-17 10:06:18,0.0
-2960,-96,17948,-1521,255,-694,2025-02-17 10:06:18,0.0
-2608,284,17144,-3443,-791,-1068,2025-02-17 10:06:18,0.0
-2884,792,17644,-7109,-2141,-970,2025-02-17 10:06:18,0.0
-3592,320,19032,-9872,-3880,-1288,2025-02-17 10:06:18,0.0
-3336,576,18360,-10141,-6016,-489,2025-02-17 10:06:18,0.0
-752,-636,17492,-12815,-3986,401,2025-02-17 10:06:18,0.0
-14200,-3288,20040,-4701,26006,11304,2025-02-17 10:06:18,0.0
-13296,-4164,19004,-3021,32356,12704,2025-02-17 10:06:18,0.0
-11688,-5480,19268,-1049,32767,12507,2025-02-17 10:06:18,0.0
-12420,-4344,20344,1609,32767,14395,2025-02-17 10:06:18,0.0
-7452,-6680,20988,6485,23946,11544,2025-02-17 10:06:18,0.0
-9036,-8728,20200,11337,12714,8515,2025-02-17 10:06:18,0.0
-10460,-6480,17632,11409,6539,6015,2025-02-17 10:06:18,0.0
-12440,-3172,12636,10835,14033,3413,2025-02-17 10:06:18,0.0
-13080,-1276,-1024,-7300,17108,-5963,2025-02-17 10:06:18,0.0
-16032,-2088,608,-6338,21465,-7204,2025-02-17 10:06:18,0.0
-17944,-20,1960,-5352,21585,-6419,2025-02-17 10:06:18,0.0
-17916,652,2388,-4712,14156,-3790,2025-02-17 10:06:18,0.0
-17088,968,1940,-4627,3125,-654,2025-02-17 10:06:18,0.0
-16480,400,2896,-4115,-4733,2442,2025-02-17 10:06:18,0.0
-15176,-576,2608,-2528,-7201,4148,2025-02-17 10:06:18,0.0
-12112,552,2220,-1080,-5316,4840,2025-02-17 10:06:18,0.0
-9360,-752,4100,-6333,-6264,4683,2025-02-17 10:06:18,0.0
-8200,-612,3956,-4919,-5471,5133,2025-02-17 10:06:18,0.0
-7192,-148,3672,-3899,-3455,3916,2025-02-17 10:06:18,0.0
-7148,708,5092,-2442,-2951,3358,2025-02-17 10:06:18,0.0
-6924,32,2688,-2207,-3800,1236,2025-02-17 10:06:18,0.0
-6800,972,3188,-2304,-5158,-458,2025-02-17 10:06:18,0.0
-8244,1152,3172,-2150,-7271,-2914,2025-02-17 10:06:19,0.0
-9876,928,2272,-3228,-10441,-3959,2025-02-17 10:06:19,0.0
-11232,-1020,2236,-2773,-13618,-3106,2025-02-17 10:06:19,0.0
-12944,-1524,1972,-3538,-14171,-580,2025-02-17 10:06:19,0.0
-12532,-2572,3112,-2698,-12993,1543,2025-02-17 10:06:19,0.0
-11808,-3288,3636,-648,-11831,3386,2025-02-17 10:06:19,0.0
-9892,-3172,1956,1086,-10774,3220,2025-02-17 10:06:19,0.0
-8404,-3052,5176,1014,-8174,2456,2025-02-17 10:06:19,0.0
-1024,-3572,21124,8943,5713,-10,2025-02-17 10:06:19,0.0
-5864,-1568,8600,9567,8601,-2417,2025-02-17 10:06:19,0.0
-6708,88,-2032,6685,8037,-574,2025-02-17 10:06:19,0.0
-12484,2832,228,4395,7655,615,2025-02-17 10:06:19,0.0
-13548,3272,1416,1523,13788,3315,2025-02-17 10:06:19,0.0
-12792,3700,2996,-2444,16672,4744,2025-02-17 10:06:19,0.0
-10928,4044,1468,-5555,10047,7696,2025-02-17 10:06:19,0.0
-7216,3180,232,-9014,8447,5729,2025-02-17 10:06:19,0.0
-10588,524,464,-11765,8741,3282,2025-02-17 10:06:19,0.0
-9580,188,8,-9518,13617,-972,2025-02-17 10:06:19,0.0
-11072,752,820,-4868,19701,-2708,2025-02-17 10:06:19,
-12896,612,-164,-1156,22328,-2255,2025-02-17 10:06:19,0.0
-14224,-2116,-1160,1256,26086,-1131,2025-02-17 10:06:19,0.0
-14772,-5796,8,4980,28734,-3120,2025-02-17 10:06:19,0.0
-20948,-3844,220,11710,22926,-4802,2025-02-17 10:06:19,0.0
-24344,-3072,-1308,16468,5631,-1954,2025-02-17 10:06:19,0.0
-27836,-1056,-3420,17170,-16284,1486,2025-02-17 10:06:19,0.0
-22260,424,-7368,12363,-32768,1503,2025-02-17 10:06:19,0.0
-16708,2812,-8672,1994,-32768,995,2025-02-17 10:06:19,0.0
-15540,4944,-2148,-3439,-29986,1649,2025-02-17 10:06:19,0.0
-9936,1656,-1836,-5394,-12429,2991,2025-02-17 10:06:19,0.0
-4760,-1520,168,-2400,-1424,2651,2025-02-17 10:06:19,0.0
-2504,-3840,3512,3530,2607,197,2025-02-17 10:06:19,0.0
-11604,552,-620,5284,10784,-742,2025-02-17 10:06:19,0.0
-13836,2428,-2484,263,13161,-600,2025-02-17 10:06:19,0.0
-16212,1396,-36,-2289,10700,-1407,2025-02-17 10:06:19,0.0
-17424,-964,3164,837,3578,-1742,2025-02-17 10:06:19,0.0
-18308,-1464,2376,5313,-3996,-1443,2025-02-17 10:06:19,0.0
-15676,200,-1000,6170,-8440,-482,2025-02-17 10:06:19,0.0
-12168,2252,-3928,433,-6713,-630,2025-02-17 10:06:19,0.0
-10728,548,-1380,-1327,-2186,-984,2025-02-17 10:06:19,0.0
-11196,28,-828,-1232,2211,-577,2025-02-17 10:06:19,0.0
-11736,640,-360,-1313,4768,-806,2025-02-17 10:06:19,0.0
-13728,548,16,-1242,4924,-946,2025-02-17 10:06:19,0.0
-14680,540,-340,-2023,3783,-771,2025-02-17 10:06:19,0.0
-14296,-56,788,-2039,2267,-1017,2025-02-17 10:06:19,0.0
-15332,-236,-468,-385,314,-409,2025-02-17 10:06:19,0.0
-13096,268,-500,-647,9,-157,2025-02-17 10:06:19,0.0
-12420,320,-528,-653,906,-462,2025-02-17 10:06:19,0.0
-12968,340,-288,-619,2216,-451,2025-02-17 10:06:19,0.0
-13656,536,-964,-936,2989,-484,2025-02-17 10:06:19,0.0
-13872,220,-728,-1552,3312,-596,2025-02-17 10:06:19,0.0
-14592,164,-232,-1414,2630,-856,2025-02-17 10:06:19,0.0
-14648,252,-588,-1061,1384,-602,2025-02-17 10:06:19,0.0
-14160,316,-232,-899,756,-539,2025-02-17 10:06:19,0.0
-13780,392,-388,-1024,644,-550,2025-02-17 10:06:19,0.0
-13296,308,-844,-1239,786,-736,2025-02-17 10:06:19,0.0
-13492,296,-776,-1540,866,-822,2025-02-17 10:06:19,0.0
-13356,292,-844,-1567,809,-956,2025-02-17 10:06:19,0.0
-13844,324,-212,-1372,316,-1078,2025-02-17 10:06:19,0.0
-13556,508,-1032,-1338,164,-1105,2025-02-17 10:06:19,0.0
-12796,796,-2308,-1834,714,-1107,2025-02-17 10:06:19,0.0
-13316,232,-960,-1949,1749,-1436,2025-02-17 10:06:19,0.0
-13168,-4,-2116,-2329,2577,-1635,2025-02-17 10:06:19,0.0
-13504,-1568,-1472,-2070,3217,-1656,2025-02-17 10:06:19,0.0
-13748,-1496,-1744,-1480,3175,-1615,2025-02-17 10:06:19,0.0
-14024,-932,-2528,-1379,2808,-1402,2025-02-17 10:06:20,0.0
-14052,-260,-1572,-1912,2269,-917,2025-02-17 10:06:20,0.0
-13360,-44,-1816,-2695,2046,-946,2025-02-17 10:06:20,0.0
-13032,72,-1624,-3518,1927,-1379,2025-02-17 10:06:20,0.0
-13572,-52,-1904,-4394,2219,-1832,2025-02-17 10:06:20,0.0
-14248,-504,-1680,-5168,2730,-2205,2025-02-17 10:06:20,0.0
-15096,-1072,-1984,-5890,2620,-2333,2025-02-17 10:06:20,0.0
-15672,-1896,-1556,-6426,1270,-2025,2025-02-17 10:06:20,0.0
-15448,-2508,-1296,-6635,-1001,-1508,2025-02-17 10:06:20,0.0
-14476,-2636,-1300,-6834,-2821,-1218,2025-02-17 10:06:20,0.0
-13340,-2428,-1640,-7256,-3297,-1090,2025-02-17 10:06:20,0.0
-12208,-2652,-1184,-7859,-2122,-1025,2025-02-17 10:06:20,0.0
-11968,-2396,-1456,-8158,-1140,-1149,2025-02-17 10:06:20,0.0
-12484,-1728,-2060,-8663,-400,-1257,2025-02-17 10:06:20,0.0
-13008,-1252,-2072,-9341,-100,-1210,2025-02-17 10:06:20,0.0
-13568,-1528,-1884,-9652,-328,-957,2025-02-17 10:06:20,0.0
-13640,-1788,-2084,-9669,-887,-507,2025-02-17 10:06:20,0.0
-12836,-1848,-2340,-9793,-1351,122,2025-02-17 10:06:20,0.0
-12228,-2108,-3012,-10125,-1039,192,2025-02-17 10:06:20,0.0
-12528,-1984,-3496,-10022,-301,-103,2025-02-17 10:06:20,0.0
-12456,-1732,-3572,-10320,289,-159,2025-02-17 10:06:20,0.0
-12576,-892,-3000,-10296,215,-123,2025-02-17 10:06:20,0.0
-12180,-1092,-3356,-10601,-156,-161,2025-02-17 10:06:20,0.0
-12084,-2660,-3040,-10646,0,-503,2025-02-17 10:06:20,0.0
-12472,-2864,-3380,-10032,736,-757,2025-02-17 10:06:20,0.0
-12896,-2360,-3628,-10069,1174,-996,2025-02-17 10:06:20,0.0
-13524,-1560,-3204,-10155,1362,-1590,2025-02-17 10:06:20,0.0
-14432,-544,-3240,-9891,1836,-2622,2025-02-17 10:06:20,0.0
-15212,728,-3960,-9737,1678,-4142,2025-02-17 10:06:20,0.0
-16508,2204,-3568,-10188,-889,-5443,2025-02-17 10:06:20,0.0
-17532,3496,-1696,-10906,-3756,-5328,2025-02-17 10:06:20,0.0
-17084,4248,-184,-10717,-5712,-4253,2025-02-17 10:06:20,0.0
-13800,580,-248,-11395,-6293,-2373,2025-02-17 10:06:20,0.0
-10692,-1872,1320,-11284,-2480,-2474,2025-02-17 10:06:20,0.0
-11624,-1584,1232,-10858,1667,-2626,2025-02-17 10:06:20,0.0
-13988,140,1260,-10596,2896,-2086,2025-02-17 10:06:20,0.0
-14768,1256,912,-10474,2295,-1820,2025-02-17 10:06:20,0.0
-16064,1468,864,-10241,688,-1596,2025-02-17 10:06:20,0.0
-16336,1272,852,-9581,-1078,-350,2025-02-17 10:06:20,0.0
-13936,1192,192,-8795,-1311,444,2025-02-17 10:06:20,0.0
-12364,1416,-152,-8764,-1214,152,2025-02-17 10:06:20,0.0
-11828,1768,-4,-9546,-309,-72,2025-02-17 10:06:20,0.0
-11316,1628,112,-10090,950,-465,2025-02-17 10:06:20,0.0
-11864,1788,-404,-10500,2354,-1171,2025-02-17 10:06:20,0.0
-13316,1660,-148,-10827,2964,-1625,2025-02-17 10:06:20,0.0
-14548,1512,-116,-10906,2346,-1712,2025-02-17 10:06:20,0.0
-14400,1404,-256,-10991,880,-1730,2025-02-17 10:06:20,0.0
-13964,1332,-236,-11108,-118,-1770,2025-02-17 10:06:20,0.0
-12988,1340,-624,-11649,-710,-1937,2025-02-17 10:06:20,0.0
-12704,1344,-776,-12261,-314,-2339,2025-02-17 10:06:20,0.0
-12292,1288,-2080,-12941,191,-2738,2025-02-17 10:06:20,0.0
-12836,1776,-1932,-13817,808,-3025,2025-02-17 10:06:20,0.0
-13324,2024,-1240,-14463,1257,-3046,2025-02-17 10:06:20,0.0
-13692,1780,-940,-14771,1524,-3021,2025-02-17 10:06:20,0.0
-14192,-16,-68,-14777,1192,-2897,2025-02-17 10:06:20,
-13880,-320,376,-14185,1036,-2727,2025-02-17 10:06:20,0.0
-13756,-36,-368,-13838,1389,-2682,2025-02-17 10:06:20,0.0
-13196,60,-1164,-14124,1767,-2821,2025-02-17 10:06:20,0.0
-13680,876,-840,-14205,2160,-2710,2025-02-17 10:06:20,0.0
-13072,636,-2412,-14680,2252,-2499,2025-02-17 10:06:20,0.0
-13544,1176,-1700,-15234,2676,-2593,2025-02-17 10:06:20,0.0
-13576,1572,-1912,-15525,2453,-2743,2025-02-17 10:06:21,0.0
-13964,1668,-1332,-15741,1743,-2872,2025-02-17 10:06:21,0.0
-13716,1432,-1068,-15433,907,-2997,2025-02-17 10:06:21,0.0
-12948,608,-1540,-15447,208,-3213,2025-02-17 10:06:21,0.0
-12416,-452,-612,-15444,178,-3646,2025-02-17 10:06:21,0.0
-12024,-116,-80,-14775,453,-3899,2025-02-17 10:06:21,0.0
-12324,-268,-1584,-14834,413,-4320,2025-02-17 10:06:21,0.0
-12884,-760,-1512,-14571,985,-4481,2025-02-17 10:06:21,0.0
-14000,-1600,-2112,-13863,2017,-4062,2025-02-17 10:06:21,0.0
-14752,-1908,-2352,-13211,3050,-3720,2025-02-17 10:06:21,0.0
-15116,-2420,-1528,-12616,2504,-3519,2025-02-17 10:06:21,0.0
-14736,-3080,-1572,-11769,-81,-3040,2025-02-17 10:06:21,0.0
-14356,-3296,-2180,-11314,-2533,-2496,2025-02-17 10:06:21,0.0
-11996,-2116,-2320,-11698,-2562,-2270,2025-02-17 10:06:21,0.0
-11208,-548,-2576,-11788,-415,-2450,2025-02-17 10:06:21,0.0
-11884,320,-3968,-12508,2518,-3697,2025-02-17 10:06:21,0.0
-14644,568,-5036,-14191,4709,-4683,2025-02-17 10:06:21,0.0
-15148,-132,-5256,-15066,4851,-5699,2025-02-17 10:06:21,0.0
-16668,-1064,-5012,-15570,2466,-6946,2025-02-17 10:06:21,0.0
-17840,-1572,-3008,-16051,-1570,-6360,2025-02-17 10:06:21,0.0
-13212,-3424,-1976,-15530,-8122,-5081,2025-02-17 10:06:21,0.0
-11520,-3564,-3972,-15862,-5777,-4868,2025-02-17 10:06:21,0.0
-10656,-3516,-4096,-16271,-1705,-5035,2025-02-17 10:06:21,0.0
-10592,-3348,-3568,-16309,1975,-5706,2025-02-17 10:06:21,0.0
-12456,-3196,-3012,-15992,3274,-5678,2025-02-17 10:06:21,0.0
-13508,-3304,-2556,-15539,2893,-5282,2025-02-17 10:06:21,0.0
-13544,-3196,-2260,-14947,1824,-5077,2025-02-17 10:06:21,0.0
-13188,-3092,-3588,-14642,881,-4959,2025-02-17 10:06:21,0.0
-12968,-2960,-4004,-14733,405,-5004,2025-02-17 10:06:21,0.0
-12872,-2716,-3636,-14601,406,-4952,2025-02-17 10:06:21,0.0
-12516,-2528,-3324,-14526,825,-4805,2025-02-17 10:06:21,0.0
-12548,-2968,-3660,-14452,1256,-4690,2025-02-17 10:06:21,0.0
-12500,-3284,-3116,-14239,1623,-4548,2025-02-17 10:06:21,0.0
-12580,-3304,-3052,-14124,2019,-4480,2025-02-17 10:06:21,0.0
-12960,-3536,-2832,-13862,2006,-4570,2025-02-17 10:06:21,0.0
-13284,-3256,-3524,-13727,1704,-4639,2025-02-17 10:06:21,0.0
-13544,-3700,-3704,-13676,818,-4650,2025-02-17 10:06:21,0.0
-13508,-3468,-4108,-13164,896,-4303,2025-02-17 10:06:21,0.0
-13308,-3800,-4168,-13189,346,-4070,2025-02-17 10:06:21,0.0
-13128,-3884,-3176,-13042,59,-3633,2025-02-17 10:06:21,0.0
-12884,-3640,-2020,-12473,230,-3314,2025-02-17 10:06:21,0.0
-12948,-2700,-2000,-11920,357,-3138,2025-02-17 10:06:21,0.0
-13360,-1896,-2672,-11843,-305,-2742,2025-02-17 10:06:21,0.0
-13404,-2108,-2744,-11656,-662,-2148,2025-02-17 10:06:21,0.0
-13384,-2200,-2836,-11503,-1563,-1569,2025-02-17 10:06:21,0.0
-13264,-1972,-3436,-11435,-2748,-931,2025-02-17 10:06:21,0.0
-13008,-2088,-2944,-11446,-3127,-545,2025-02-17 10:06:21,0.0
-12992,-2944,-2712,-11238,-3113,-56,2025-02-17 10:06:21,0.0
-12448,-3360,-2156,-10190,-2378,1048,2025-02-17 10:06:21,0.0
-12180,-4432,-2712,-9643,-1329,1786,2025-02-17 10:06:21,0.0
-11728,-5148,-2724,-8961,433,1955,2025-02-17 10:06:21,0.0
-11780,-4980,-3168,-7509,3088,899,2025-02-17 10:06:21,0.0
-13404,-4840,-3856,-6222,4931,-443,2025-02-17 10:06:21,0.0
-15560,-4052,-3600,-4972,3621,-954,2025-02-17 10:06:21,0.0
-16684,-2072,-1916,-3533,-91,-144,2025-02-17 10:06:21,0.0
-14568,-1012,-1180,-2322,-3830,464,2025-02-17 10:06:21,0.0
-12496,-1248,-2848,-1487,-5076,271,2025-02-17 10:06:21,0.0
-10868,-1076,-4200,-1428,-4813,307,2025-02-17 10:06:21,0.0
-10324,-1092,-4432,-1688,-1611,185,2025-02-17 10:06:21,0.0
-11772,-1580,-4796,-2589,3805,410,2025-02-17 10:06:22,0.0
-13808,-1444,-2584,-2152,5941,552,2025-02-17 10:06:22,0.0
-16056,-232,-1740,-916,3933,1089,2025-02-17 10:06:22,0.0
-16540,264,-1880,196,606,2051,2025-02-17 10:06:22,0.0
-14884,104,-2136,1064,-2157,2336,2025-02-17 10:06:22,0.0
-13112,44,-2388,1850,-2934,1990,2025-02-17 10:06:22,0.0
-11500,336,-2440,2781,-1951,1746,2025-02-17 10:06:22,0.0
-11200,1252,-3324,3271,-305,1649,2025-02-17 10:06:22,0.0
-10960,1564,-3832,3047,1186,1322,2025-02-17 10:06:22,0.0
-11452,2024,-3440,2771,1838,778,2025-02-17 10:06:22,0.0
-12536,2684,-3400,2490,1801,314,2025-02-17 10:06:22,0.0
-13132,2752,-3980,1783,1209,-187,2025-02-17 10:06:22,0.0
-13092,2200,-4200,1228,-194,-1191,2025-02-17 10:06:22,0.0
-13296,1872,-3668,607,-1356,-1237,2025-02-17 10:06:22,0.0
-12072,928,-3428,113,-1569,-1127,2025-02-17 10:06:22,0.0
-10988,36,-3264,-458,-114,-1531,2025-02-17 10:06:22,0.0
-11348,-208,-3616,-909,2131,-1950,2025-02-17 10:06:22,0.0
-13756,276,-3704,-1581,4161,-1563,2025-02-17 10:06:22,0.0
-15456,-124,-3040,-2106,4141,-895,2025-02-17 10:06:22,0.0
-15824,-916,-1624,-1913,2096,-751,2025-02-17 10:06:22,0.0
-15900,-1740,-1052,-379,-1166,-829,2025-02-17 10:06:22,0.0
-15108,-1444,-2216,800,-3340,-656,2025-02-17 10:06:22,0.0
-13188,-1164,-3552,846,-3835,-586,2025-02-17 10:06:22,0.0
-12164,-756,-3328,888,-2293,-609,2025-02-17 10:06:22,0.0
-11700,-600,-3800,804,-274,-519,2025-02-17 10:06:22,0.0
-11904,-620,-4024,544,1419,-528,2025-02-17 10:06:22,0.0
-12772,-660,-3108,326,2382,-609,2025-02-17 10:06:22,0.0
-13788,-324,-2228,361,2060,-632,2025-02-17 10:06:22,0.0
-14468,-292,-2452,338,812,-533,2025-02-17 10:06:22,0.0
-14680,-640,-2700,279,-189,-117,2025-02-17 10:06:22,0.0
-14188,-632,-3080,390,-502,329,2025-02-17 10:06:22,0.0
-12868,-572,-3072,226,-502,155,2025-02-17 10:06:22,0.0
-12912,-612,-2476,221,-436,76,2025-02-17 10:06:22,0.0
-12692,-412,-2324,272,-114,164,2025-02-17 10:06:22,0.0
-12740,-168,-2528,9,917,292,2025-02-17 10:06:22,
-13008,-320,-3044,-195,1946,438,2025-02-17 10:06:22,0.0
-13224,-496,-2644,-282,2210,462,2025-02-17 10:06:22,0.0
-13696,-600,-2052,-33,1756,504,2025-02-17 10:06:22,0.0
-13688,-516,-2424,254,982,748,2025-02-17 10:06:22,0.0
-13368,-212,-2508,315,1001,735,2025-02-17 10:06:22,0.0
-12944,-428,-2428,238,1273,223,2025-02-17 10:06:22,0.0
-12780,-656,-1896,434,1020,-358,2025-02-17 10:06:22,0.0
-12928,-1036,-1876,877,770,-675,2025-02-17 10:06:22,0.0
-13380,-936,-1100,1191,996,-809,2025-02-17 10:06:22,0.0
-12808,420,-964,1163,824,-967,2025-02-17 10:06:22,0.0
-12512,1456,-1848,417,246,-1528,2025-02-17 10:06:22,0.0
-12532,1520,-2688,-476,507,-1910,2025-02-17 10:06:22,0.0
-12648,1176,-4212,-966,1564,-2167,2025-02-17 10:06:22,0.0
-13356,984,-5964,-1741,3045,-2540,2025-02-17 10:06:22,0.0
-13680,76,-5812,-2570,2916,-3036,2025-02-17 10:06:22,0.0
-14196,-408,-4640,-2592,1407,-3407,2025-02-17 10:06:22,0.0
-14268,-1140,-4144,-2513,-323,-3362,2025-02-17 10:06:22,0.0
-13756,-1772,-3088,-2042,-1431,-3100,2025-02-17 10:06:22,0.0
-13052,-2544,-2552,-1254,-1478,-2689,2025-02-17 10:06:22,0.0
-12300,-3008,-2444,-260,-1264,-2459,2025-02-17 10:06:22,0.0
-12292,-3424,-1424,1102,-471,-2045,2025-02-17 10:06:22,0.0
-12304,-3104,-964,2302,653,-1328,2025-02-17 10:06:22,0.0
-12392,-3556,-344,2704,1053,-591,2025-02-17 10:06:22,0.0
-12608,-4592,812,3404,1201,-240,2025-02-17 10:06:22,0.0
-12780,-4684,116,4310,1916,-145,2025-02-17 10:06:22,0.0
-12776,-4060,192,4481,1961,-723,2025-02-17 10:06:22,0.0
-12696,-3416,-928,4490,2285,-1496,2025-02-17 10:06:23,0.0
-13948,-1832,-2888,4489,2492,-2086,2025-02-17 10:06:23,0.0
-15236,576,-3204,3700,1042,-2693,2025-02-17 10:06:23,0.0
-15988,1640,-3904,2477,-491,-2821,2025-02-17 10:06:23,0.0
-15692,1604,-3684,1289,-1763,-2351,2025-02-17 10:06:23,0.0
-13564,-196,-3244,202,-2793,-2102,2025-02-17 10:06:23,0.0
-11984,-1912,-1984,-866,-2396,-2320,2025-02-17 10:06:23,0.0
-11316,-2924,-332,-1583,-1337,-2415,2025-02-17 10:06:23,0.0
-11724,-3200,128,-1698,-655,-2537,2025-02-17 10:06:23,0.0
-12476,-3052,-16,-1861,-250,-2563,2025-02-17 10:06:23,0.0
-13588,-2768,272,-1949,-285,-2144,2025-02-17 10:06:23,0.0
-13680,-2560,236,-1945,-628,-1393,2025-02-17 10:06:23,0.0
-12628,-3124,-364,-1956,-812,-855,2025-02-17 10:06:23,0.0
-11780,-3304,-832,-2010,-249,-606,2025-02-17 10:06:23,0.0
-11132,-3460,-1028,-2038,1472,-661,2025-02-17 10:06:23,0.0
-12236,-3268,-1612,-2260,3182,-933,2025-02-17 10:06:23,0.0
-14016,-3232,-1604,-2708,4123,-1132,2025-02-17 10:06:23,0.0
-15584,-3340,-1504,-3041,3894,-1566,2025-02-17 10:06:23,0.0
-16736,-3248,-1004,-3117,2081,-1947,2025-02-17 10:06:23,0.0
-17164,-2476,-856,-3181,-734,-1953,2025-02-17 10:06:23,0.0
-16792,-2276,-804,-3516,-2524,-1737,2025-02-17 10:06:23,0.0
-15212,-3148,-108,-3824,-3047,-1328,2025-02-17 10:06:23,0.0
-14260,-3776,-296,-3871,-2394,-1038,2025-02-17 10:06:23,0.0
-14188,-4632,240,-4362,-351,-590,2025-02-17 10:06:23,0.0
-14108,-6644,508,-4494,808,-169,2025-02-17 10:06:23,0.0
-14012,-7704,-1748,-4385,1348,-1073,2025-02-17 10:06:23,0.0
-16152,-6708,-1196,-2778,3130,-1720,2025-02-17 10:06:23,0.0
-17520,-7960,-1668,-868,2627,-2036,2025-02-17 10:06:23,0.0
-19736,-8304,-2112,425,95,-586,2025-02-17 10:06:23,0.0
-19796,-7680,-3204,1961,-2406,2210,2025-02-17 10:06:23,0.0
-16684,-5936,-4300,3090,-5036,3150,2025-02-17 10:06:23,0.0
-15172,-3516,-6548,2938,-7137,3226,2025-02-17 10:06:23,0.0
-12648,-1620,-6776,2210,-8158,4482,2025-02-17 10:06:23,0.0
-9716,-1048,-6572,1390,-6780,5450,2025-02-17 10:06:23,0.0
-7316,76,-6204,506,-3777,4742,2025-02-17 10:06:23,0.0
-7608,968,-6276,-77,293,3098,2025-02-17 10:06:23,0.0
-10984,1344,-6324,-1035,3791,2014,2025-02-17 10:06:23,0.0
-13464,788,-4840,-1810,4599,2311,2025-02-17 10:06:23,0.0
-14828,-152,-3372,-1641,3271,2909,2025-02-17 10:06:23,0.0
-15356,-1508,-3092,-1030,1379,3346,2025-02-17 10:06:23,0.0
-15020,-2336,-3120,-311,-334,3649,2025-02-17 10:06:23,0.0
-14612,-3092,-3020,345,-1523,3895,2025-02-17 10:06:23,0.0
-13304,-2600,-2536,1407,-2917,4560,2025-02-17 10:06:23,0.0
-11576,-2132,-2668,2203,-3941,5012,2025-02-17 10:06:23,0.0
-10176,-1596,-1976,2729,-3818,4973,2025-02-17 10:06:23,0.0
-9160,-888,-1672,3184,-3130,4566,2025-02-17 10:06:23,0.0
-8676,296,-1460,3479,-1805,4114,2025-02-17 10:06:23,0.0
-9340,1112,-2128,3227,-358,3783,2025-02-17 10:06:23,0.0
-10284,1580,-2772,2643,1078,3851,2025-02-17 10:06:23,0.0
-10616,1920,-2460,2072,1814,3704,2025-02-17 10:06:23,0.0
-11520,2092,-1516,1830,1411,3326,2025-02-17 10:06:23,0.0
-11508,1892,-1692,1430,13,2431,2025-02-17 10:06:23,0.0
-11616,1536,-1760,822,-1145,1097,2025-02-17 10:06:23,0.0
-11996,1600,-1336,441,-1616,341,2025-02-17 10:06:23,0.0
-11672,1392,-1056,12,-1824,-19,2025-02-17 10:06:23,0.0
-11188,1072,-1188,-504,-1783,-564,2025-02-17 10:06:23,0.0
-10692,364,84,-731,-1686,-1077,2025-02-17 10:06:23,0.0
-10748,820,76,-401,-1007,-1214,2025-02-17 10:06:23,0.0
-11728,720,-496,767,2514,-1508,2025-02-17 10:06:23,0.0
-12952,-436,-764,1403,4160,-1545,2025-02-17 10:06:24,0.0
-14628,-1496,-208,2341,5150,-1007,2025-02-17 10:06:24,0.0
-16168,-2136,292,3383,5382,-190,2025-02-17 10:06:24,0.0
-16988,-2152,-444,4375,4656,641,2025-02-17 10:06:24,0.0
-17460,-1928,-580,5223,3104,1165,2025-02-17 10:06:24,0.0
-17284,320,-1184,6136,1809,1426,2025-02-17 10:06:24,0.0
-17188,2212,-1904,5875,1070,1712,2025-02-17 10:06:24,0.0
-17260,2688,-600,5016,519,1865,2025-02-17 10:06:24,0.0
-16936,1980,-36,4409,901,1885,2025-02-17 10:06:24,0.0
-16720,664,-2764,3849,2926,1665,2025-02-17 10:06:24,0.0
-16832,1232,-5848,3482,4965,1582,2025-02-17 10:06:24,0.0
-18428,2432,-8048,2620,7491,1867,2025-02-17 10:06:24,0.0
-18748,4844,-8924,840,8375,2322,2025-02-17 10:06:24,0.0
-17828,6104,-10164,-1145,6266,2327,2025-02-17 10:06:24,0.0
-15072,6776,-11004,-3323,157,1322,2025-02-17 10:06:24,
-11440,3860,-10280,-5214,-6226,-777,2025-02-17 10:06:24,0.0
-9732,-788,-7268,-6204,-10551,-2274,2025-02-17 10:06:24,0.0
-9316,-3852,-1820,-3982,-10116,-2404,2025-02-17 10:06:24,0.0
-8668,-5936,-4508,-794,-3217,-2252,2025-02-17 10:06:24,0.0
-9168,-3668,-5956,-829,667,-1977,2025-02-17 10:06:24,0.0
-9700,-1932,-4824,-839,3435,-2539,2025-02-17 10:06:24,0.0
-11292,-1056,-4288,-783,4391,-3409,2025-02-17 10:06:24,0.0
-12396,-528,-4388,-1071,4135,-3885,2025-02-17 10:06:24,0.0
-12652,-200,-4484,-1602,1730,-4326,2025-02-17 10:06:24,0.0
-12652,-100,-4200,-1980,-1594,-5009,2025-02-17 10:06:24,0.0
-12100,-264,-3468,-2116,-5238,-5500,2025-02-17 10:06:24,0.0
-11100,-16,-2736,-2052,-7817,-5379,2025-02-17 10:06:24,0.0
-9980,-312,-3208,-2351,-8684,-5108,2025-02-17 10:06:24,0.0
-9744,-884,-4008,-3004,-6261,-4731,2025-02-17 10:06:24,0.0
-10156,-1800,-4076,-3975,-1107,-3725,2025-02-17 10:06:24,0.0
-9676,-2980,-2432,-4328,2278,-3173,2025-02-17 10:06:24,0.0
-10480,-3164,-2388,-3817,3723,-3259,2025-02-17 10:06:24,0.0
-11852,-3056,-1872,-3365,3512,-2897,2025-02-17 10:06:24,0.0
-12708,-3008,-2204,-3096,3006,-2443,2025-02-17 10:06:24,0.0
-13572,-3120,-2328,-2814,2276,-2024,2025-02-17 10:06:24,0.0
-13460,-2716,-2532,-2621,1415,-1356,2025-02-17 10:06:24,0.0
-13540,-2564,-1824,-2094,136,-618,2025-02-17 10:06:24,0.0
-12852,-2140,-1636,-1667,-379,41,2025-02-17 10:06:24,0.0
-11976,-2084,-2060,-1845,-236,497,2025-02-17 10:06:24,0.0
-11452,-2564,-1512,-1702,535,602,2025-02-17 10:06:24,0.0
-11248,-2424,-2420,-1695,1088,613,2025-02-17 10:06:24,0.0
-11924,-2160,-2660,-2185,2104,403,2025-02-17 10:06:24,0.0
-12992,-1240,-2796,-2923,2684,-204,2025-02-17 10:06:24,0.0
-13756,-1008,-1820,-3223,2208,-783,2025-02-17 10:06:24,0.0
-14208,-1240,-1588,-3228,1087,-1347,2025-02-17 10:06:24,0.0
-14740,-1820,-1860,-3384,-183,-1594,2025-02-17 10:06:24,0.0
-14908,-2228,-1500,-3752,-1397,-1736,2025-02-17 10:06:24,0.0
-14820,-2296,-668,-3932,-2064,-1769,2025-02-17 10:06:24,0.0
-14956,-2496,-176,-4050,-1469,-1151,2025-02-17 10:06:24,0.0
-14348,-3700,-1536,-4491,-668,-782,2025-02-17 10:06:24,0.0
-14496,-4760,-3320,-4962,893,-1479,2025-02-17 10:06:24,0.0
-15568,-4648,-2696,-4098,2726,-2101,2025-02-17 10:06:24,0.0
-16480,-5248,-3172,-2912,3243,-3496,2025-02-17 10:06:24,0.0
-18948,-5600,-3820,-1555,2079,-4110,2025-02-17 10:06:24,0.0
-20524,-5456,-6380,-116,-488,-2668,2025-02-17 10:06:24,0.0
-19404,-5172,-6388,846,-3947,-600,2025-02-17 10:06:24,0.0
-17280,-3596,-5604,1697,-7577,1364,2025-02-17 10:06:24,0.0
-14204,-2136,-7032,1712,-10620,3538,2025-02-17 10:06:24,0.0
-10768,-652,-7896,938,-10595,4609,2025-02-17 10:06:24,0.0
-8028,1660,-8176,-248,-6668,3958,2025-02-17 10:06:24,0.0
-6792,4240,-7052,-2168,165,1665,2025-02-17 10:06:24,0.0
-8592,4380,-5388,-3342,4600,-854,2025-02-17 10:06:25,0.0
-12780,1404,-4256,-3571,6705,-1269,2025-02-17 10:06:25,0.0
-15120,-884,-3316,-2762,7438,216,2025-02-17 10:06:25,0.0
-14908,-2632,-2764,-1698,6517,1319,2025-02-17 10:06:25,0.0
-14744,-3704,-2816,-403,3957,2240,2025-02-17 10:06:25,0.0
-14392,-4376,-3136,774,559,3411,2025-02-17 10:06:25,0.0
-12948,-3860,-3144,1954,-1551,4272,2025-02-17 10:06:25,0.0
-11992,-2788,-3280,2540,-1927,4349,2025-02-17 10:06:25,0.0
-10804,-1156,-3868,3016,-1178,4230,2025-02-17 10:06:25,0.0
-10808,412,-3572,3127,-554,3974,2025-02-17 10:06:25,0.0
-11052,2028,-3700,3377,26,3794,2025-02-17 10:06:25,0.0
-11264,3032,-3856,3199,336,3494,2025-02-17 10:06:25,0.0
-11116,3120,-3788,2528,316,2721,2025-02-17 10:06:25,0.0
-11572,2280,-3632,1866,-182,1649,2025-02-17 10:06:25,0.0
-12488,1916,-2996,1552,-709,1287,2025-02-17 10:06:25,0.0
-12108,1456,-2932,1296,-1414,859,2025-02-17 10:06:25,0.0
-11184,912,-3412,923,-1847,158,2025-02-17 10:06:25,0.0
-11592,896,-2992,692,-1605,-552,2025-02-17 10:06:25,0.0
-11604,400,-3136,546,-875,-965,2025-02-17 10:06:25,0.0
-11880,-72,-2748,649,109,-1117,2025-02-17 10:06:25,0.0
-12376,-436,-2416,751,1291,-1052,2025-02-17 10:06:25,0.0
-13224,-708,-1812,700,1684,-1019,2025-02-17 10:06:25,0.0
-14040,-632,-2072,718,1042,-770,2025-02-17 10:06:25,0.0
-14572,-436,-2000,1041,71,-359,2025-02-17 10:06:25,0.0
-13992,-448,-2128,1677,-915,-305,2025-02-17 10:06:25,0.0
-14280,-340,-1924,2410,-1434,-805,2025-02-17 10:06:25,0.0
-13452,-88,-3256,2585,-1617,-1144,2025-02-17 10:06:25,0.0
-13344,-72,-2136,2644,-1711,-1113,2025-02-17 10:06:25,0.0
-12504,-684,-372,2784,-2054,-1101,2025-02-17 10:06:25,0.0
-11712,-1344,780,3268,-1387,-1115,2025-02-17 10:06:25,0.0
-11692,-740,1720,4386,-124,-1032,2025-02-17 10:06:25,0.0
-11956,396,-1956,4902,1473,-1321,2025-02-17 10:06:25,0.0
-13904,880,-6540,4502,3403,-1799,2025-02-17 10:06:25,0.0
-17180,356,-10820,3471,7988,-1509,2025-02-17 10:06:25,0.0
-19760,-220,-11960,2039,13159,-732,2025-02-17 10:06:25,0.0
-20988,-184,-7816,1761,13880,884,2025-02-17 10:06:25,0.0
-17280,692,-5188,2347,6160,2313,2025-02-17 10:06:25,0.0
-10692,1572,-4364,1911,-7501,528,2025-02-17 10:06:25,0.0
-8256,416,-4084,773,-11991,-1518,2025-02-17 10:06:25,0.0
-7520,-736,-3632,529,-11175,-2313,2025-02-17 10:06:25,0.0
-8648,-2088,-4956,632,-5742,-2502,2025-02-17 10:06:25,0.0
-9312,-2936,-5596,748,3626,-2219,2025-02-17 10:06:25,0.0
-9500,-3344,-6452,256,9685,-2609,2025-02-17 10:06:25,0.0
-11900,-3452,-5840,-145,12633,-4107,2025-02-17 10:06:25,0.0
-15576,-3264,-4800,301,12308,-4179,2025-02-17 10:06:25,0.0
-17060,-1732,-4552,1051,7591,-2610,2025-02-17 10:06:25,0.0
-15540,-292,-5564,1013,602,-2045,2025-02-17 10:06:25,0.0
-13440,-12,-6148,-244,-5381,-2949,2025-02-17 10:06:25,0.0
-12076,-632,-5508,-964,-6082,-2936,2025-02-17 10:06:25,0.0
-10448,-1220,-6008,-1551,-4707,-2897,2025-02-17 10:06:25,0.0
-9840,-1532,-6688,-2485,-2051,-3247,2025-02-17 10:06:25,0.0
-10168,-1684,-6136,-3508,973,-3602,2025-02-17 10:06:25,0.0
-10892,-2024,-5356,-4270,2750,-3852,2025-02-17 10:06:25,0.0
-11960,-1956,-5008,-4684,2839,-4005,2025-02-17 10:06:25,
-12860,-1668,-5340,-5231,1998,-3822,2025-02-17 10:06:25,0.0
-12844,-1524,-5328,-5925,1023,-3661,2025-02-17 10:06:25,0.0
-12496,-1872,-5440,-6670,344,-3666,2025-02-17 10:06:25,0.0
-11748,-2060,-5912,-7274,27,-3850,2025-02-17 10:06:25,0.0
-11728,-2064,-6584,-8078,-64,-4020,2025-02-17 10:06:26,0.0
-11600,-1848,-7316,-8801,57,-4186,2025-02-17 10:06:26,0.0
-11928,-1556,-7076,-9578,85,-4259,2025-02-17 10:06:26,0.0
-12160,-1420,-6588,-10337,-134,-4233,2025-02-17 10:06:26,0.0
-12020,-1236,-5996,-11080,-669,-4299,2025-02-17 10:06:26,0.0
-11968,-1100,-5840,-12105,-1029,-4392,2025-02-17 10:06:26,0.0
-11932,-1192,-5876,-13142,-1048,-4607,2025-02-17 10:06:26,0.0
-11748,-1360,-6472,-14185,-1007,-5056,2025-02-17 10:06:26,0.0
-11868,-1840,-6352,-14967,-944,-5372,2025-02-17 10:06:26,0.0
-11996,-2428,-6184,-15630,-818,-5644,2025-02-17 10:06:26,0.0
-12192,-2972,-5664,-16020,-805,-5807,2025-02-17 10:06:26,0.0
-12416,-3068,-5540,-16284,-879,-5572,2025-02-17 10:06:26,0.0
-12352,-3184,-5868,-16515,-1224,-5493,2025-02-17 10:06:26,0.0
-12276,-3328,-5876,-16779,-1706,-5620,2025-02-17 10:06:26,0.0
-13052,-3272,-5608,-16706,-1631,-5468,2025-02-17 10:06:26,0.0
-12496,-3204,-5960,-16782,-1733,-5311,2025-02-17 10:06:26,0.0
-12472,-3488,-5848,-16970,-2115,-5155,2025-02-17 10:06:26,0.0
-12580,-3572,-5808,-16975,-2329,-4963,2025-02-17 10:06:26,0.0
-12564,-3592,-5880,-17008,-2343,-4776,2025-02-17 10:06:26,0.0
-12200,-3908,-5888,-17239,-2358,-5106,2025-02-17 10:06:26,0.0
-12316,-4008,-5608,-17574,-2450,-5373,2025-02-17 10:06:26,0.0
-12368,-3784,-5120,-17527,-2871,-5474,2025-02-17 10:06:26,0.0
-12136,-3516,-5412,-17519,-3355,-5338,2025-02-17 10:06:26,0.0
-12196,-2836,-5736,-17725,-3567,-5005,2025-02-17 10:06:26,0.0
-11452,-2960,-5072,-18128,-3795,-5133,2025-02-17 10:06:26,0.0
-11380,-3428,-5048,-18646,-3876,-5520,2025-02-17 10:06:26,0.0
-11524,-4208,-4648,-18863,-3970,-5894,2025-02-17 10:06:26,0.0
-11852,-4880,-4324,-18870,-4172,-5654,2025-02-17 10:06:26,0.0
-12372,-4736,-4252,-18817,-4481,-4422,2025-02-17 10:06:26,0.0
-11560,-4344,-4320,-18753,-4270,-3622,2025-02-17 10:06:26,0.0
-10980,-4092,-5208,-18809,-3003,-3828,2025-02-17 10:06:26,0.0
-11936,-4952,-4996,-19572,-1292,-4089,2025-02-17 10:06:26,0.0
-11956,-6332,-5168,-19406,691,-4056,2025-02-17 10:06:26,0.0
-12524,-4640,-7288,-18800,2025,-4315,2025-02-17 10:06:26,0.0
-13180,-1668,-8324,-18331,2650,-3592,2025-02-17 10:06:26,0.0
-11412,1340,-6732,-18286,2959,-3991,2025-02-17 10:06:26,0.0
-10704,2468,-5900,-19039,2983,-4806,2025-02-17 10:06:26,0.0
-10088,1456,-6072,-19366,2916,-5556,2025-02-17 10:06:26,0.0
-9700,-440,-6976,-19687,2794,-6461,2025-02-17 10:06:26,0.0
-10984,-384,-6176,-20136,3033,-7179,2025-02-17 10:06:26,0.0
-12236,-176,-5604,-20598,4442,-7525,2025-02-17 10:06:26,0.0
-14548,72,-6308,-20480,6752,-6990,2025-02-17 10:06:26,0.0
-16348,-340,-6372,-20658,7912,-6267,2025-02-17 10:06:26,0.0
-17352,-436,-5880,-20471,6674,-5909,2025-02-17 10:06:26,0.0
-16160,-924,-5244,-19887,-170,-5235,2025-02-17 10:06:26,0.0
-14624,-1008,-4268,-18994,-5000,-5357,2025-02-17 10:06:26,0.0
-12304,-1016,-3616,-18371,-5262,-5242,2025-02-17 10:06:26,0.0
-10760,-236,-2144,-17689,-4537,-5477,2025-02-17 10:06:26,0.0
-10000,268,-4172,-17314,-2635,-6102,2025-02-17 10:06:26,0.0
-10044,444,-4244,-17496,-1356,-6679,2025-02-17 10:06:26,0.0
-10980,672,-4128,-17280,-816,-7047,2025-02-17 10:06:26,0.0
-11964,748,-4464,-17092,-1063,-7214,2025-02-17 10:06:26,0.0
-12516,1620,-4796,-16985,-1160,-7130,2025-02-17 10:06:26,0.0
-12232,2024,-5428,-17102,-1711,-7324,2025-02-17 10:06:26,0.0
-11740,1836,-6140,-17371,-2199,-7699,2025-02-17 10:06:26,0.0
-11176,1296,-6792,-17714,-2249,-8155,2025-02-17 10:06:26,0.0
-11184,416,-6284,-17874,-1895,-8388,2025-02-17 10:06:26,0.0
-11432,-632,-5836,-17537,-1111,-8242,2025-02-17 10:06:26,0.0
-11504,-1232,-5004,-16941,-147,-7962,2025-02-17 10:06:26,0.0
-12300,-1356,-4680,-16184,1304,-7613,2025-02-17 10:06:26,0.0
-12908,-1252,-4752,-15166,1736,-7165,2025-02-17 10:06:26,0.0
-13136,-1044,-5364,-14291,1108,-6812,2025-02-17 10:06:26,0.0
-13164,-1080,-5636,-13792,-237,-6477,2025-02-17 10:06:26,0.0
-13144,-1016,-4492,-13287,-1262,-6084,2025-02-17 10:06:26,0.0
-12232,-564,-4724,-12580,-1848,-5873,2025-02-17 10:06:26,0.0
-11676,164,-5464,-12375,-2103,-6063,2025-02-17 10:06:27,0.0
-11468,308,-5708,-12978,-1797,-6492,2025-02-17 10:06:27,0.0
-12280,-132,-4328,-13161,-809,-6516,2025-02-17 10:06:27,0.0
-12500,-936,-3868,-12722,78,-6333,2025-02-17 10:06:27,0.0
-12896,-1532,-4268,-12314,272,-6198,2025-02-17 10:06:27,0.0
-13356,-1600,-4128,-11868,306,-5948,2025-02-17 10:06:27,0.0
-14056,-1932,-4956,-11507,735,-5809,2025-02-17 10:06:27,0.0
-15288,-2340,-5504,-11457,1238,-4918,2025-02-17 10:06:27,0.0
-15756,-2148,-4604,-11154,461,-3856,2025-02-17 10:06:27,0.0
-14384,-1236,-3508,-10393,-2192,-3320,2025-02-17 10:06:27,0.0
-12704,-932,-2580,-9932,-4534,-3667,2025-02-17 10:06:27,0.0
-11296,-816,-1716,-9433,-6273,-4263,2025-02-17 10:06:27,0.0
-10488,-856,-2200,-8822,-6568,-4812,2025-02-17 10:06:27,0.0
-11036,-1544,-3804,-8659,-4043,-5039,2025-02-17 10:06:27,0.0
-12128,-2200,-5168,-8881,627,-4804,2025-02-17 10:06:27,0.0
-12708,-2748,-4832,-8827,2836,-4407,2025-02-17 10:06:27,0.0
-13320,-2596,-3592,-8208,3201,-3880,2025-02-17 10:06:27,0.0
-13092,-2472,-3316,-7423,1803,-3300,2025-02-17 10:06:27,0.0
-12984,-2700,-3736,-6957,738,-3189,2025-02-17 10:06:27,0.0
-12924,-2952,-3260,-6473,777,-3380,2025-02-17 10:06:27,0.0
-13232,-3176,-2604,-5610,1246,-3646,2025-02-17 10:06:27,0.0
-13948,-2916,-2464,-4517,1158,-3443,2025-02-17 10:06:27,0.0
-13904,-2468,-2336,-3569,479,-3022,2025-02-17 10:06:27,0.0
-13164,-2256,-2800,-2873,-264,-2747,2025-02-17 10:06:27,0.0
-12732,-2300,-3512,-2506,-307,-2544,2025-02-17 10:06:27,0.0
-12644,-2656,-3856,-2579,-178,-2404,2025-02-17 10:06:27,0.0
-12940,-2712,-3376,-2581,-114,-2258,2025-02-17 10:06:27,0.0
-13020,-2552,-3328,-2094,220,-2006,2025-02-17 10:06:27,0.0
-13064,-2316,-3764,-1717,380,-1893,2025-02-17 10:06:27,0.0
-12768,-2060,-4060,-1602,-91,-1921,2025-02-17 10:06:27,0.0
-12212,-1904,-3888,-1193,-281,-2088,2025-02-17 10:06:27,
-12236,-1880,-3916,-1183,324,-2150,2025-02-17 10:06:27,0.0
-12348,-1856,-3736,-1194,965,-1787,2025-02-17 10:06:27,0.0
-12304,-2188,-3476,-1232,1196,-1469,2025-02-17 10:06:27,0.0
-12608,-2676,-3624,-1275,1107,-1332,2025-02-17 10:06:27,0.0
-12804,-2652,-3164,-1130,1062,-1258,2025-02-17 10:06:27,0.0
-13172,-2540,-3116,-1065,1254,-1321,2025-02-17 10:06:27,0.0
-13444,-2588,-2700,-1198,1538,-1474,2025-02-17 10:06:27,0.0
-13552,-2544,-1884,-1019,1205,-1783,2025-02-17 10:06:27,0.0
-13996,-2584,-2304,-809,237,-2067,2025-02-17 10:06:27,0.0
-14088,-2584,-2696,-596,-719,-1977,2025-02-17 10:06:27,0.0
-13732,-2408,-3112,-473,-1007,-1810,2025-02-17 10:06:27,0.0
-13112,-2404,-3272,-567,-948,-1961,2025-02-17 10:06:27,0.0
-12776,-2496,-2904,-794,-1014,-2229,2025-02-17 10:06:27,0.0
-12756,-2940,-2088,-685,-1046,-2406,2025-02-17 10:06:27,0.0
-12680,-3160,-2156,-412,-1118,-2378,2025-02-17 10:06:27,0.0
-12684,-3160,-2408,-101,-1114,-2145,2025-02-17 10:06:27,0.0
-12560,-2944,-2520,-43,-530,-1923,2025-02-17 10:06:27,0.0
-12492,-2892,-2468,-99,223,-1823,2025-02-17 10:06:27,0.0
-12744,-2880,-2336,-148,502,-1706,2025-02-17 10:06:27,0.0
-12680,-3080,-2304,-58,348,-1688,2025-02-17 10:06:27,0.0
-13304,-2892,-2268,-18,40,-1457,2025-02-17 10:06:27,0.0
-13356,-2196,-2480,-5,-380,-1038,2025-02-17 10:06:27,0.0
-13316,-1536,-2524,-92,-900,-833,2025-02-17 10:06:27,0.0
-12972,-1440,-2616,-252,-1248,-810,2025-02-17 10:06:27,0.0
-12984,-1780,-2408,-899,-512,-764,2025-02-17 10:06:27,0.0
-13320,-1948,-1624,-1260,-514,-761,2025-02-17 10:06:27,0.0
-13696,-2480,-924,-1347,-1256,-728,2025-02-17 10:06:27,0.0
-13640,-2724,-1004,-1334,-2610,-798,2025-02-17 10:06:27,0.0
-13604,-2880,-816,-1217,-3477,-873,2025-02-17 10:06:27,0.0
-13324,-3260,-508,-1125,-3920,-642,2025-02-17 10:06:27,0.0
-12620,-3636,-56,-1059,-3953,-396,2025-02-17 10:06:28,0.0
-12116,-3908,-300,-854,-3140,-314,2025-02-17 10:06:28,0.0
-11988,-4092,-524,-797,-2037,-242,2025-02-17 10:06:28,0.0
-11912,-4212,-924,-812,-793,-263,2025-02-17 10:06:28,0.0
-12088,-3808,-1432,-892,89,-304,2025-02-17 10:06:28,0.0
-12452,-3236,-2436,-1183,841,-503,2025-02-17 10:06:28,0.0
-12856,-2568,-2248,-1645,1629,-709,2025-02-17 10:06:28,0.0
-13384,-2244,-2048,-2188,2117,-1106,2025-02-17 10:06:28,0.0
-13652,-2640,-1952,-2599,2118,-1318,2025-02-17 10:06:28,0.0
-13852,-3668,-1608,-2772,2011,-1700,2025-02-17 10:06:28,0.0
-14252,-4604,-1324,-2944,2447,-1831,2025-02-17 10:06:28,0.0
-15056,-5192,-1220,-2827,2600,-1651,2025-02-17 10:06:28,0.0
-15848,-5576,-1036,-2794,2522,-760,2025-02-17 10:06:28,0.0
-15332,-5892,-1036,-2701,2229,-16,2025-02-17 10:06:28,0.0
-14692,-5976,-3216,-2412,2762,-589,2025-02-17 10:06:28,0.0
-15860,-5388,-3856,-2218,4538,-1599,2025-02-17 10:06:28,0.0
-16908,-6480,-2032,-1279,4675,-2352,2025-02-17 10:06:28,0.0
-18136,-7836,-1524,317,2003,-1089,2025-02-17 10:06:28,0.0
-17916,-6972,-760,1367,-788,1516,2025-02-17 10:06:28,0.0
-14716,-4020,-1804,1641,-2049,1930,2025-02-17 10:06:28,0.0
-14520,-2560,-3144,699,-1780,1782,2025-02-17 10:06:28,0.0
-14256,-1664,-3988,-211,-1789,2683,2025-02-17 10:06:28,0.0
-13224,-2108,-5324,-504,-2593,3816,2025-02-17 10:06:28,0.0
-11220,-3528,-6420,-119,-3145,4075,2025-02-17 10:06:28,0.0
-9696,-3928,-7260,399,-2121,3008,2025-02-17 10:06:28,0.0
-10092,-2864,-6632,697,-291,1655,2025-02-17 10:06:28,0.0
-11440,-724,-5960,670,1177,1258,2025-02-17 10:06:28,0.0
-13384,888,-4488,154,1866,2017,2025-02-17 10:06:28,0.0
-14076,888,-4324,373,734,3514,2025-02-17 10:06:28,0.0
-12964,-196,-5812,720,-762,4020,2025-02-17 10:06:28,0.0
-12112,-1192,-5620,549,-1374,3631,2025-02-17 10:06:28,0.0
-11740,-2012,-4592,395,-939,3150,2025-02-17 10:06:28,0.0
-12132,-2472,-4124,702,-140,3093,2025-02-17 10:06:28,0.0
-11952,-2692,-4064,1155,89,3252,2025-02-17 10:06:28,0.0
-12780,-2208,-4104,1576,-60,3550,2025-02-17 10:06:28,0.0
-13052,-1104,-3264,1974,-383,4704,2025-02-17 10:06:28,0.0
-12304,192,-3576,2206,-1087,5494,2025-02-17 10:06:28,0.0
-11444,1100,-3848,2152,-1734,5575,2025-02-17 10:06:28,0.0
-10528,1520,-4052,1758,-1914,5034,2025-02-17 10:06:28,0.0
-10448,1304,-3568,1296,-1158,4475,2025-02-17 10:06:28,0.0
-10548,1096,-2804,914,-47,4006,2025-02-17 10:06:28,0.0
-10504,832,-2760,710,703,3438,2025-02-17 10:06:28,0.0
-10432,888,-3176,548,829,2588,2025-02-17 10:06:28,0.0
-11096,1172,-2696,366,882,1762,2025-02-17 10:06:28,0.0
-11044,816,-2280,219,326,712,2025-02-17 10:06:28,0.0
-11832,580,-1832,261,618,228,2025-02-17 10:06:28,0.0
-11480,-64,-880,382,-76,-326,2025-02-17 10:06:28,0.0
-11944,-108,-772,749,-167,-899,2025-02-17 10:06:28,0.0
-12596,172,-1072,1260,379,-985,2025-02-17 10:06:28,0.0
-12660,420,-1516,1429,288,-1171,2025-02-17 10:06:28,0.0
-12796,576,-2508,1465,-437,-1338,2025-02-17 10:06:28,0.0
-13332,268,-2872,1795,-241,-1261,2025-02-17 10:06:28,0.0
-13828,-116,-2728,2289,650,-1002,2025-02-17 10:06:28,0.0
-15068,-940,-2732,2613,1864,-635,2025-02-17 10:06:28,0.0
-16340,-1360,-2472,2968,3047,-19,2025-02-17 10:06:28,0.0
-17344,128,-2764,3190,2850,1087,2025-02-17 10:06:28,0.0
-17004,1152,-2532,2932,930,1873,2025-02-17 10:06:28,0.0
-15688,548,-1144,2552,-1509,1529,2025-02-17 10:06:28,0.0
-15472,688,428,3032,-3106,1267,2025-02-17 10:06:28,0.0
-16180,1780,-1588,3285,-2027,2101,2025-02-17 10:06:28,0.0
-15048,2360,-4020,3030,393,2443,2025-02-17 10:06:28,0.0
-14732,3192,-5672,1951,2521,1670,2025-02-17 10:06:29,0.0
-15164,2688,-4584,225,1977,535,2025-02-17 10:06:29,0.0
-14612,2560,-5832,-645,652,-479,2025-02-17 10:06:29,0.0
-15444,1236,-7124,-1898,250,-1374,2025-02-17 10:06:29,0.0
-13460,76,-8264,-3202,739,-1682,2025-02-17 10:06:29,0.0
-11720,-1816,-5664,-2906,356,-1986,2025-02-17 10:06:29,0.0
-10936,-1824,-4720,-1661,385,-2481,2025-02-17 10:06:29,0.0
-10556,-1236,-6224,-1281,1365,-2957,2025-02-17 10:06:29,0.0
-10728,-1372,-7020,-1883,1776,-4069,2025-02-17 10:06:29,
-11828,-1984,-6264,-2196,1620,-4631,2025-02-17 10:06:29,0.0
-12472,-2828,-5020,-1833,1417,-4991,2025-02-17 10:06:29,0.0
-12964,-3000,-4204,-889,439,-4581,2025-02-17 10:06:29,0.0
-12972,-2872,-4184,-555,-1319,-3521,2025-02-17 10:06:29,0.0
-11844,-2324,-4376,-685,-2356,-2834,2025-02-17 10:06:29,0.0
-10784,-1776,-4824,-637,-2141,-3104,2025-02-17 10:06:29,0.0
-10428,-1348,-5852,-751,-1914,-3701,2025-02-17 10:06:29,0.0
-10912,-1132,-5000,-1245,-351,-3809,2025-02-17 10:06:29,0.0
-11096,-1616,-3652,-1553,1193,-3747,2025-02-17 10:06:29,0.0
-11196,-2100,-3236,-1417,2029,-3749,2025-02-17 10:06:29,0.0
-11864,-2468,-3516,-1280,1656,-3724,2025-02-17 10:06:29,0.0
-12180,-3008,-3848,-1191,918,-3356,2025-02-17 10:06:29,0.0
-12048,-3256,-3652,-1047,84,-2835,2025-02-17 10:06:29,0.0
-11856,-3512,-4092,-972,-424,-2158,2025-02-17 10:06:29,0.0
-11632,-3408,-3716,-866,-1052,-1500,2025-02-17 10:06:29,0.0
-10988,-3144,-3456,-675,-1116,-1095,2025-02-17 10:06:29,0.0
-10916,-3108,-3312,-861,-481,-909,2025-02-17 10:06:29,0.0
-10944,-3128,-2644,-1111,529,-601,2025-02-17 10:06:29,0.0
-10936,-2768,-2532,-1253,1849,-345,2025-02-17 10:06:29,0.0
-11400,-2420,-2728,-1617,2646,-323,2025-02-17 10:06:29,0.0
-12240,-2232,-2432,-1899,3030,-114,2025-02-17 10:06:29,0.0
-13228,-2144,-2108,-2257,3212,293,2025-02-17 10:06:29,0.0
-13216,-1816,-2360,-2721,3172,243,2025-02-17 10:06:29,0.0
-13660,-2220,-2632,-3186,2719,-2,2025-02-17 10:06:29,0.0
-14252,-2712,-2836,-3516,1586,-258,2025-02-17 10:06:29,0.0
-14580,-2536,-2624,-3290,-9,-115,2025-02-17 10:06:29,0.0
-14060,-2464,-2760,-2995,-1232,63,2025-02-17 10:06:29,0.0
-13548,-3040,-2428,-2875,-1651,-283,2025-02-17 10:06:29,0.0
-13224,-3588,-3112,-3025,-1595,-765,2025-02-17 10:06:29,0.0
-13532,-3336,-2936,-3128,-1265,-1176,2025-02-17 10:06:29,0.0
-13892,-2960,-2448,-3490,-928,-1565,2025-02-17 10:06:29,0.0
-14428,-3432,-1984,-3868,-860,-1917,2025-02-17 10:06:29,0.0
-14472,-4556,-3172,-3806,-438,-2774,2025-02-17 10:06:29,0.0
-15348,-5452,-3864,-3117,273,-3327,2025-02-17 10:06:29,0.0
-16072,-7048,-3884,-1580,908,-3771,2025-02-17 10:06:29,0.0
-17412,-8008,-4128,-177,150,-3276,2025-02-17 10:06:29,0.0
-18256,-7532,-4172,878,-1724,-1202,2025-02-17 10:06:29,0.0
-16640,-5076,-4880,1996,-3833,613,2025-02-17 10:06:29,0.0
-16012,-2208,-7200,1700,-5529,1515,2025-02-17 10:06:29,0.0
-14456,-720,-7804,873,-6196,3131,2025-02-17 10:06:29,0.0
-11512,-348,-7876,112,-5590,4186,2025-02-17 10:06:29,0.0
-9288,284,-7728,-679,-3632,3866,2025-02-17 10:06:29,0.0
-8888,1140,-7036,-1356,-362,2594,2025-02-17 10:06:29,0.0
-10220,1352,-6800,-2238,2764,1468,2025-02-17 10:06:29,0.0
-12232,1460,-5284,-2883,4500,1123,2025-02-17 10:06:29,0.0
-13328,760,-4836,-3026,4694,1450,2025-02-17 10:06:29,0.0
-13028,-1328,-5048,-3481,2168,2630,2025-02-17 10:06:29,0.0
-12264,-2364,-4616,-2370,609,3278,2025-02-17 10:06:29,0.0
-11916,-2404,-3864,-1088,-352,3747,2025-02-17 10:06:29,0.0
-10956,-2292,-3904,-468,-329,3740,2025-02-17 10:06:29,0.0
-11036,-1324,-4072,-423,336,4146,2025-02-17 10:06:29,0.0
-11068,-616,-3384,-745,1884,4276,2025-02-17 10:06:29,0.0
-11520,828,-2800,-410,2664,4372,2025-02-17 10:06:30,0.0
-11712,1332,-2828,840,1698,4346,2025-02-17 10:06:30,0.0
-11720,1780,-4064,1115,-94,4046,2025-02-17 10:06:30,0.0
-11536,2512,-3976,768,-1467,3628,2025-02-17 10:06:30,0.0
-10492,2300,-4000,337,-1687,3038,2025-02-17 10:06:30,0.0
-10080,1756,-3992,-128,-1048,1837,2025-02-17 10:06:30,0.0
-10620,1120,-3032,-419,-281,582,2025-02-17 10:06:30,0.0
-10820,380,-3208,-128,81,-96,2025-02-17 10:06:30,0.0
-10804,476,-3012,397,2,-523,2025-02-17 10:06:30,0.0
-11024,792,-3108,625,-183,-954,2025-02-17 10:06:30,0.0
-11544,1264,-2852,406,-96,-1452,2025-02-17 10:06:30,0.0
-11960,1108,-2924,77,295,-1703,2025-02-17 10:06:30,0.0
-12744,564,-3164,94,612,-1680,2025-02-17 10:06:30,0.0
-13244,332,-2752,423,601,-1360,2025-02-17 10:06:30,0.0
-13680,-112,-2608,793,648,-882,2025-02-17 10:06:30,0.0
-13536,-912,-2336,1482,852,-423,2025-02-17 10:06:30,0.0
-13936,-1268,-2364,2481,1037,-168,2025-02-17 10:06:30,0.0
-14348,-664,-3344,2997,1609,150,2025-02-17 10:06:30,0.0
-14928,-332,-3828,2812,2384,545,2025-02-17 10:06:30,0.0
-15092,-484,-2956,2770,1865,604,2025-02-17 10:06:30,0.0
-15532,-224,-2296,3442,-132,982,2025-02-17 10:06:30,0.0
-15048,724,-2168,4107,-1442,1618,2025-02-17 10:06:30,0.0
-14164,1416,-3108,4123,-1167,2214,2025-02-17 10:06:30,0.0
-14112,1408,-4516,3503,890,2219,2025-02-17 10:06:30,0.0
-15656,1196,-5384,2718,2531,2194,2025-02-17 10:06:30,0.0
-17116,1612,-6528,1840,3348,2423,2025-02-17 10:06:30,0.0
-17056,3000,-8556,740,3019,2896,2025-02-17 10:06:30,0.0
-14752,4156,-9912,-1601,1470,2167,2025-02-17 10:06:30,0.0
-12156,4088,-9268,-3545,-1297,87,2025-02-17 10:06:30,0.0
-10796,2544,-5072,-3282,-4887,-2540,2025-02-17 10:06:30,0.0
-10940,112,-3892,-456,-4030,-3878,2025-02-17 10:06:30,0.0
-10248,-1540,-5704,-129,-2577,-3450,2025-02-17 10:06:30,0.0
-9720,-3244,-6752,-597,-49,-2972,2025-02-17 10:06:30,0.0
-10312,-3784,-7180,-628,2517,-2705,2025-02-17 10:06:30,0.0
-11560,-2464,-7000,-780,4138,-1939,2025-02-17 10:06:30,0.0
-11972,-1300,-6024,-516,4674,-1347,2025-02-17 10:06:30,0.0
-12296,-972,-5268,325,4097,-1307,2025-02-17 10:06:30,0.0
-12256,-688,-5556,707,1919,-1305,2025-02-17 10:06:30,0.0
-12080,-72,-5812,488,86,-1760,2025-02-17 10:06:30,0.0
-11656,180,-6408,352,-388,-2571,2025-02-17 10:06:30,0.0
-11972,188,-5848,232,-835,-2946,2025-02-17 10:06:30,0.0
-11344,-472,-5284,149,-1327,-3134,2025-02-17 10:06:30,0.0
-11112,-1480,-4940,141,-1608,-3409,2025-02-17 10:06:30,0.0
-11700,-1940,-4388,256,-1514,-3197,2025-02-17 10:06:30,0.0
-11380,-1928,-4812,-62,-943,-2457,2025-02-17 10:06:30,0.0
-11136,-1932,-4620,-469,16,-1861,2025-02-17 10:06:30,0.0
-11028,-2064,-4244,-731,1020,-1573,2025-02-17 10:06:30,0.0
-11092,-2000,-4428,-741,1283,-1467,2025-02-17 10:06:30,
-11328,-2404,-4308,-528,1342,-1457,2025-02-17 10:06:30,0.0
-12024,-2688,-4580,-292,1336,-1135,2025-02-17 10:06:31,0.0
-12588,-2612,-4404,-304,1616,-489,2025-02-17 10:06:31,0.0
-12552,-2204,-3936,-161,1325,-43,2025-02-17 10:06:31,0.0
-12356,-1416,-4152,-224,1024,204,2025-02-17 10:06:31,0.0
-12444,-1056,-3964,-403,1128,247,2025-02-17 10:06:31,0.0
-12556,-952,-4312,-454,1289,271,2025-02-17 10:06:31,0.0
-12576,-1108,-4300,-822,1515,245,2025-02-17 10:06:31,0.0
-12968,-1048,-4132,-1132,1461,153,2025-02-17 10:06:31,0.0
-12644,-1344,-3764,-1491,838,-7,2025-02-17 10:06:31,0.0
-14168,-4004,-6572,-3049,3568,312,2025-02-17 10:06:31,0.0
-15568,-3920,-7860,-2376,4474,-311,2025-02-17 10:06:31,0.0
-16152,-3424,-8168,-1221,3807,-437,2025-02-17 10:06:31,0.0
-16068,-2680,-8348,90,2015,-39,2025-02-17 10:06:31,0.0
-14532,-892,-9000,675,-2803,728,2025-02-17 10:06:31,0.0
-12608,896,-8872,-183,-10505,1097,2025-02-17 10:06:31,0.0
-11516,1212,-1756,1083,-10532,1308,2025-02-17 10:06:31,0.0
-9544,2536,-5084,38,-6555,2273,2025-02-17 10:06:31,0.0
-7788,3076,-5844,-1625,-2111,2572,2025-02-17 10:06:31,0.0
-7332,2488,-5912,-2301,1771,1544,2025-02-17 10:06:31,0.0
-9112,1500,-6064,-2675,4994,195,2025-02-17 10:06:31,0.0
-11952,984,-5744,-2890,7307,-273,2025-02-17 10:06:31,0.0
-13540,360,-5592,-2963,7253,-441,2025-02-17 10:06:31,0.0
-15128,180,-5528,-2646,4473,-35,2025-02-17 10:06:31,0.0
-15220,188,-5024,-1881,750,865,2025-02-17 10:06:31,0.0
-14252,844,-6232,-1439,-1931,1434,2025-02-17 10:06:31,0.0
-11836,1384,-5756,-1361,-3168,1027,2025-02-17 10:06:31,0.0
-10420,1308,-5372,-1301,-2544,404,2025-02-17 10:06:31,0.0
-9760,992,-5032,-1164,-922,123,2025-02-17 10:06:31,0.0
-9788,704,-4604,-984,704,-44,2025-02-17 10:06:31,0.0
-10216,548,-4116,-742,1850,-157,2025-02-17 10:06:31,0.0
-11148,652,-4000,-401,2536,-279,2025-02-17 10:06:31,0.0
-12008,772,-3844,-127,2748,-217,2025-02-17 10:06:31,0.0
-12896,1020,-4700,156,2665,-31,2025-02-17 10:06:31,0.0
-13280,1000,-5228,133,2231,-115,2025-02-17 10:06:31,0.0
-14064,1396,-5360,65,1578,-157,2025-02-17 10:06:31,0.0
-14252,992,-6196,-210,1291,49,2025-02-17 10:06:31,0.0
-14384,-264,-6012,-467,1022,402,2025-02-17 10:06:31,0.0
-14232,-1048,-4032,-16,-344,736,2025-02-17 10:06:31,0.0
-13472,-1112,-1084,1147,-1723,749,2025-02-17 10:06:31,0.0
-12168,-1324,112,2107,-2434,220,2025-02-17 10:06:31,0.0
-11456,-1312,-100,3126,-2867,-278,2025-02-17 10:06:31,0.0
-10804,-520,-1508,4045,-2465,-38,2025-02-17 10:06:31,0.0
-10832,100,-3212,4054,746,501,2025-02-17 10:06:31,0.0
-8920,-536,3688,8289,7254,852,2025-02-17 10:06:31,0.0
-9620,672,1412,8837,26936,-34,2025-02-17 10:06:31,0.0
-8216,164,56,8636,32767,551,2025-02-17 10:06:31,0.0
-4448,-504,1148,8965,32767,1143,2025-02-17 10:06:31,0.0
1548,-920,2068,9006,32767,1458,2025-02-17 10:06:31,0.0
-760,-1308,632,7401,32767,564,2025-02-17 10:06:31,0.0
-1236,-916,1748,7262,32767,425,2025-02-17 10:06:31,0.0
2696,-580,2684,6749,32767,1081,2025-02-17 10:06:31,0.0
2600,-664,2760,5630,32767,1896,2025-02-17 10:06:31,0.0
2808,-544,2356,-486,32767,4639,2025-02-17 10:06:31,0.0
2820,-576,2356,-2009,32767,4574,2025-02-17 10:06:31,0.0
2908,-488,2536,-3163,32767,4306,2025-02-17 10:06:31,0.0
2792,-456,2904,-3792,32767,3980,2025-02-17 10:06:31,0.0
2732,-352,2896,-3969,32767,3717,2025-02-17 10:06:31,0.0
2740,-400,2952,-3788,32767,3548,2025-02-17 10:06:32,0.0
2644,-420,2984,-3517,32767,3411,2025-02-17 10:06:32,0.0
2732,-396,2868,-3147,32767,3391,2025-02-17 10:06:32,0.0
2772,-396,3124,-2700,32767,3171,2025-02-17 10:06:32,0.0
3884,52,3864,-1242,32767,2132,2025-02-17 10:06:32,0.0
3240,256,3984,726,32767,1055,2025-02-17 10:06:32,0.0
3588,236,4408,2596,32767,499,2025-02-17 10:06:32,0.0
3392,192,3896,4021,32767,258,2025-02-17 10:06:32,0.0
-880,1372,8708,7443,32767,2544,2025-02-17 10:06:32,0.0
32767,-32768,32767,10490,-32768,-1221,2025-02-17 10:06:32,0.0
32767,-32768,32767,32767,32767,-32768,2025-02-17 10:06:32,0.0
32767,-4704,24128,21286,-32768,-32768,2025-02-17 10:06:32,0.0
7016,14124,-2048,10151,-32768,-27798,2025-02-17 10:06:32,0.0
-672,7580,1276,11472,-32768,-24214,2025-02-17 10:06:32,0.0
-1480,4824,504,10825,-21001,-17745,2025-02-17 10:06:32,0.0
-500,3212,2564,12915,-9378,-13081,2025-02-17 10:06:32,0.0
-768,1860,2008,15615,-358,-10088,2025-02-17 10:06:32,0.0
520,1512,1928,16837,5938,-8047,2025-02-17 10:06:32,0.0
604,892,1876,17154,9518,-6462,2025-02-17 10:06:32,0.0
-188,1152,1388,17022,12498,-4193,2025-02-17 10:06:32,0.0
-360,944,2448,16515,14316,-1007,2025-02-17 10:06:32,0.0
384,1900,1604,16472,16441,2521,2025-02-17 10:06:32,0.0
-300,4340,1184,15031,14964,15540,2025-02-17 10:06:32,0.0
8056,6584,-1584,11257,10420,30179,2025-02-17 10:06:32,0.0
29648,9868,-1816,6342,8111,30786,2025-02-17 10:06:32,0.0
32767,8960,-28,1780,6189,18527,2025-02-17 10:06:32,0.0
32767,3252,6124,-1234,5530,5688,2025-02-17 10:06:32,0.0
32767,-3424,5144,-140,3508,472,2025-02-17 10:06:32,0.0
23448,-2268,1960,-636,-1582,-2620,2025-02-17 10:06:32,0.0
17308,332,1348,-735,204,-6000,2025-02-17 10:06:32,0.0
12736,2056,1872,-944,2118,-6198,2025-02-17 10:06:32,0.0
12272,5120,3020,-831,3023,-2630,2025-02-17 10:06:32,0.0
15084,6440,4860,-824,4348,400,2025-02-17 10:06:32,0.0
18220,5008,6396,-496,3252,1965,2025-02-17 10:06:32,0.0
20480,2264,5492,-173,1127,1493,2025-02-17 10:06:32,0.0
20092,1240,5180,-65,-963,79,2025-02-17 10:06:32,0.0
19100,2316,3744,27,-1707,-1028,2025-02-17 10:06:32,0.0
17884,3780,3484,-65,-1048,-949,2025-02-17 10:06:32,0.0
17440,3936,3028,-139,159,-157,2025-02-17 10:06:32,0.0
18172,3196,3744,-266,899,236,2025-02-17 10:06:32,0.0
18940,2656,4060,-197,796,67,2025-02-17 10:06:32,0.0
18900,2772,4320,-183,295,-352,2025-02-17 10:06:32,
18168,3300,4312,-156,65,-361,2025-02-17 10:06:32,0.0
18108,3388,3972,-157,101,-91,2025-02-17 10:06:32,0.0
18640,3108,4008,-140,16,-58,2025-02-17 10:06:32,0.0
18696,2912,3756,-105,-61,-225,2025-02-17 10:06:32,0.0
18484,3032,3764,-156,201,-286,2025-02-17 10:06:32,0.0
18352,3232,4060,-223,453,-172,2025-02-17 10:06:32,0.0
18404,3100,4172,-156,333,-133,2025-02-17 10:06:32,0.0
18568,3088,4300,-127,52,-204,2025-02-17 10:06:32,0.0
18404,3128,3952,-138,-16,-204,2025-02-17 10:06:32,0.0
18340,3160,3900,-127,111,-144,2025-02-17 10:06:32,0.0
18504,3084,3864,-159,228,-164,2025-02-17 10:06:32,0.0
18528,3116,4064,-179,230,-192,2025-02-17 10:06:32,0.0
18420,3204,4016,-170,230,-198,2025-02-17 10:06:32,0.0
18484,3184,4004,-167,196,-164,2025-02-17 10:06:32,0.0
18436,3092,4020,-132,140,-165,2025-02-17 10:06:32,0.0
18384,3076,4084,-153,117,-184,2025-02-17 10:06:32,0.0
18412,3116,3832,-148,135,-175,2025-02-17 10:06:32,0.0
18484,3208,4000,-174,184,-172,2025-02-17 10:06:32,0.0
18544,3096,4060,-175,209,-187,2025-02-17 10:06:33,0.0
18468,3104,4056,-146,195,-194,2025-02-17 10:06:33,0.0
18368,3144,4100,-155,157,-174,2025-02-17 10:06:33,0.0
18456,3124,3972,-156,148,-187,2025-02-17 10:06:33,0.0
18380,3120,4076,-162,156,-182,2025-02-17 10:06:33,0.0
18368,3092,3968,-169,166,-181,2025-02-17 10:06:33,0.0
18496,3084,4036,-157,179,-186,2025-02-17 10:06:33,0.0
18440,3056,4044,-160,187,-183,2025-02-17 10:06:33,0.0
18472,3164,3988,-153,179,-173,2025-02-17 10:06:33,0.0
18464,3156,4168,-165,162,-178,2025-02-17 10:06:33,0.0
18492,3156,3960,-154,152,-188,2025-02-17 10:06:33,0.0
18404,3112,3984,-141,174,-193,2025-02-17 10:06:33,0.0
18436,2988,3880,-159,196,-169,2025-02-17 10:06:33,0.0
18412,3112,4080,-157,188,-190,2025-02-17 10:06:33,0.0
18392,3072,3936,-147,190,-200,2025-02-17 10:06:33,0.0
18416,3052,4060,-146,177,-178,2025-02-17 10:06:33,0.0
18428,3128,3948,-170,169,-183,2025-02-17 10:06:33,0.0
18504,3140,3912,-136,171,-210,2025-02-17 10:06:33,0.0
18416,3144,4008,-136,184,-167,2025-02-17 10:06:33,0.0
18388,3160,3996,-158,167,-168,2025-02-17 10:06:33,0.0
18504,3096,3888,-156,177,-189,2025-02-17 10:06:33,0.0
18452,3144,3988,-151,192,-182,2025-02-17 10:06:33,0.0
18440,3140,4024,-141,196,-174,2025-02-17 10:06:33,0.0
18456,3168,4144,-129,184,-195,2025-02-17 10:06:33,0.0
18516,3076,4016,-156,168,-174,2025-02-17 10:06:33,0.0
18436,3072,4020,-169,162,-201,2025-02-17 10:06:33,0.0
18408,3236,4084,-169,190,-170,2025-02-17 10:06:33,0.0
18396,3092,4104,-135,178,-175,2025-02-17 10:06:33,0.0
18480,3216,3920,-155,191,-176,2025-02-17 10:06:33,0.0
18508,3088,4072,-152,207,-177,2025-02-17 10:06:33,0.0
18464,3172,3996,-151,177,-197,2025-02-17 10:06:33,0.0
18384,3168,3972,-137,151,-170,2025-02-17 10:06:33,0.0
18432,3188,3904,-146,158,-160,2025-02-17 10:06:33,0.0
18412,3212,3992,-151,182,-174,2025-02-17 10:06:33,0.0
18412,3156,4036,-149,169,-172,2025-02-17 10:06:33,0.0
18440,3024,3908,-153,167,-178,2025-02-17 10:06:33,0.0
18496,3204,3916,-150,169,-181,2025-02-17 10:06:33,0.0
18452,3120,3960,-158,155,-194,2025-02-17 10:06:33,0.0
18464,3176,4072,-176,175,-176,2025-02-17 10:06:33,0.0
18456,3172,3976,-165,157,-195,2025-02-17 10:06:33,0.0
18484,3128,3948,-142,138,-185,2025-02-17 10:06:33,0.0
18376,3140,4088,-138,189,-184,2025-02-17 10:06:33,0.0
18488,3052,4040,-154,179,-173,2025-02-17 10:06:33,0.0
18492,3284,3944,-170,152,-184,2025-02-17 10:06:33,0.0
18464,3156,4052,-148,175,-175,2025-02-17 10:06:33,0.0
18472,3168,3980,-163,156,-170,2025-02-17 10:06:33,0.0
18412,3156,4084,-156,183,-165,2025-02-17 10:06:33,0.0
18360,3100,4100,-137,182,-200,2025-02-17 10:06:33,0.0
18480,3052,4020,-141,178,-166,2025-02-17 10:06:33,0.0
18468,3048,3852,-166,148,-175,2025-02-17 10:06:33,0.0
18392,3084,3984,-158,170,-199,2025-02-17 10:06:33,0.0
18472,3136,3988,-156,174,-175,2025-02-17 10:06:33,0.0
18364,3184,3956,-150,171,-148,2025-02-17 10:06:33,0.0
18412,3100,4148,-164,153,-179,2025-02-17 10:06:33,0.0
18540,3124,4088,-159,175,-202,2025-02-17 10:06:33,0.0
18408,3104,4036,-137,179,-175,2025-02-17 10:06:33,0.0
18500,3060,3924,-149,165,-183,2025-02-17 10:06:33,0.0
18480,3140,3980,-145,170,-169,2025-02-17 10:06:33,0.0
18532,3172,3936,-134,170,-179,2025-02-17 10:06:33,0.0
18440,3084,3976,-159,175,-180,2025-02-17 10:06:33,0.0
18496,3140,4128,-156,169,-182,2025-02-17 10:06:33,0.0
18488,3084,3896,-144,165,-172,2025-02-17 10:06:34,0.0
18420,3140,3896,-167,193,-169,2025-02-17 10:06:34,0.0
18480,3172,4128,-157,163,-188,2025-02-17 10:06:34,0.0
18348,3028,4032,-129,182,-183,2025-02-17 10:06:34,0.0
18492,3148,3932,-158,161,-168,2025-02-17 10:06:34,0.0
18468,3144,3916,-170,185,-170,2025-02-17 10:06:34,0.0
18356,3164,4104,-165,154,-171,2025-02-17 10:06:34,0.0
18372,3088,4032,-158,167,-187,2025-02-17 10:06:34,0.0
18476,3104,3964,-162,181,-180,2025-02-17 10:06:34,0.0
18456,3132,4024,-153,171,-183,2025-02-17 10:06:34,0.0
18432,3268,3948,-174,184,-186,2025-02-17 10:06:34,0.0
18372,3088,4064,-149,187,-161,2025-02-17 10:06:34,0.0
18412,3180,4128,-155,176,-163,2025-02-17 10:06:34,0.0
18432,3172,4052,-173,189,-184,2025-02-17 10:06:34,0.0
18348,3136,3984,-161,168,-166,2025-02-17 10:06:34,0.0
18476,3088,3992,-150,155,-187,2025-02-17 10:06:34,0.0
18444,3176,4072,-142,158,-179,2025-02-17 10:06:34,0.0
18432,3116,3864,-156,179,-164,2025-02-17 10:06:34,0.0
18364,3152,4152,-160,168,-187,2025-02-17 10:06:34,0.0
18388,3128,4032,-155,180,-176,2025-02-17 10:06:34,0.0
18432,3164,4124,-135,171,-184,2025-02-17 10:06:34,
18380,3144,4108,-144,167,-187,2025-02-17 10:06:34,0.0
18316,3156,4008,-154,165,-172,2025-02-17 10:06:34,0.0
18432,3100,4084,-171,172,-193,2025-02-17 10:06:34,0.0
18460,3148,3984,-151,182,-165,2025-02-17 10:06:34,0.0
18432,3160,3996,-136,170,-179,2025-02-17 10:06:34,0.0
18392,3104,4000,-160,172,-180,2025-02-17 10:06:34,0.0
18452,3160,3964,-163,175,-165,2025-02-17 10:06:34,0.0
18432,3132,4080,-169,179,-183,2025-02-17 10:06:34,0.0
18332,3088,4044,-168,179,-180,2025-02-17 10:06:34,0.0
18528,3132,4024,-155,179,-191,2025-02-17 10:06:34,0.0
18472,3176,4156,-138,176,-186,2025-02-17 10:06:34,0.0
18432,3148,4124,-154,173,-181,2025-02-17 10:06:34,0.0
18524,3088,4092,-159,175,-196,2025-02-17 10:06:34,0.0
18356,3136,3932,-157,175,-172,2025-02-17 10:06:34,0.0
18444,3140,3864,-152,182,-187,2025-02-17 10:06:34,0.0
18412,3140,4000,-166,204,-186,2025-02-17 10:06:34,0.0
18456,3176,4060,-172,155,-187,2025-02-17 10:06:34,0.0
18492,3136,4064,-172,160,-175,2025-02-17 10:06:34,0.0
18524,3088,4048,-164,164,-173,2025-02-17 10:06:34,0.0
18456,3104,4140,-148,176,-166,2025-02-17 10:06:34,0.0
18372,3192,4076,-142,162,-165,2025-02-17 10:06:34,0.0
18440,3128,4168,-161,172,-170,2025-02-17 10:06:34,0.0
18444,3088,4104,-175,179,-188,2025-02-17 10:06:34,0.0
18376,3104,4100,-156,170,-188,2025-02-17 10:06:34,0.0
18356,3140,3960,-141,155,-170,2025-02-17 10:06:34,0.0
18576,3148,3968,-156,171,-173,2025-02-17 10:06:34,0.0
18432,3168,4076,-152,167,-173,2025-02-17 10:06:34,0.0
18476,3168,4068,-141,172,-203,2025-02-17 10:06:34,0.0
18360,3092,3960,-153,176,-165,2025-02-17 10:06:34,0.0
18472,3116,4028,-169,174,-191,2025-02-17 10:06:34,0.0
18388,3112,3944,-143,149,-178,2025-02-17 10:06:34,0.0
18428,3256,3928,-146,166,-195,2025-02-17 10:06:34,0.0
18368,3256,4092,-115,169,-186,2025-02-17 10:06:34,0.0
18436,3152,3988,-151,162,-185,2025-02-17 10:06:34,0.0
18460,3124,4028,-156,181,-153,2025-02-17 10:06:34,0.0
18444,3100,3976,-147,153,-170,2025-02-17 10:06:34,0.0
18500,3196,4008,-152,190,-190,2025-02-17 10:06:34,0.0
18412,3124,4076,-153,163,-179,2025-02-17 10:06:34,0.0
18416,3116,4144,-154,171,-154,2025-02-17 10:06:34,0.0
18416,3120,4000,-147,172,-181,2025-02-17 10:06:35,0.0
18400,3040,4016,-176,168,-195,2025-02-17 10:06:35,0.0
18768,3080,3460,-133,149,-209,2025-02-17 10:06:35,0.0
18680,3244,3860,-164,199,-166,2025-02-17 10:06:35,0.0
18292,3120,4060,-156,160,-186,2025-02-17 10:06:35,0.0
18796,3112,3692,-131,142,-190,2025-02-17 10:06:35,0.0
18472,3136,4144,-163,211,-183,2025-02-17 10:06:35,0.0
18456,3088,4108,-165,183,-175,2025-02-17 10:06:35,0.0
18460,3084,3988,-147,144,-184,2025-02-17 10:06:35,0.0
18436,3132,4028,-150,163,-182,2025-02-17 10:06:35,0.0
18496,3100,4052,-158,185,-184,2025-02-17 10:06:35,0.0
18428,3164,4012,-149,171,-183,2025-02-17 10:06:35,0.0
18412,3084,4076,-173,169,-167,2025-02-17 10:06:35,0.0
18544,3168,3924,-139,178,-180,2025-02-17 10:06:35,0.0
18412,3224,4120,-148,158,-184,2025-02-17 10:06:35,0.0
18408,3152,3936,-155,167,-174,2025-02-17 10:06:35,0.0
18440,3088,3964,-133,164,-169,2025-02-17 10:06:35,0.0
18328,3164,4060,-148,159,-167,2025-02-17 10:06:35,0.0
17460,3048,5076,-155,238,-167,2025-02-17 10:06:35,0.0
18224,3192,4348,-161,212,-176,2025-02-17 10:06:35,0.0
18528,3168,3836,-152,180,-161,2025-02-17 10:06:35,0.0
18336,3164,4016,-166,162,-185,2025-02-17 10:06:35,0.0
18504,3100,3964,-144,157,-151,2025-02-17 10:06:35,0.0
18484,3192,4028,-153,168,-184,2025-02-17 10:06:35,0.0
18420,3156,3960,-153,186,-202,2025-02-17 10:06:35,0.0
18432,3128,3968,-164,181,-191,2025-02-17 10:06:35,0.0
18416,3136,3992,-163,164,-185,2025-02-17 10:06:35,0.0
18428,3184,3972,-154,162,-188,2025-02-17 10:06:35,0.0
18436,3144,4088,-169,156,-188,2025-02-17 10:06:35,0.0
18500,3164,4080,-158,165,-187,2025-02-17 10:06:35,0.0
18448,3128,4124,-137,176,-180,2025-02-17 10:06:35,0.0
18380,3068,4080,-148,177,-175,2025-02-17 10:06:35,0.0
18500,3188,3952,-167,180,-184,2025-02-17 10:06:35,0.0
18412,3160,4020,-142,185,-168,2025-02-17 10:06:35,0.0
18516,3192,3944,-140,171,-174,2025-02-17 10:06:35,0.0
18460,3188,4120,-169,150,-173,2025-02-17 10:06:35,0.0
18432,3140,4052,-148,176,-197,2025-02-17 10:06:35,0.0
18432,3192,4076,-167,162,-171,2025-02-17 10:06:35,0.0
18488,3252,4072,-165,168,-168,2025-02-17 10:06:35,0.0
18368,3224,3952,-157,147,-195,2025-02-17 10:06:35,0.0
18392,3148,3760,-148,170,-179,2025-02-17 10:06:35,0.0
18344,3156,4028,-155,181,-201,2025-02-17 10:06:35,0.0
18452,3204,4000,-146,185,-179,2025-02-17 10:06:35,0.0
18360,3164,4028,-158,186,-197,2025-02-17 10:06:35,0.0
18444,3140,3908,-153,159,-170,2025-02-17 10:06:35,0.0
18476,3172,4020,-142,166,-169,2025-02-17 10:06:35,0.0
18424,3040,4092,-164,155,-175,2025-02-17 10:06:35,0.0
18448,3108,4032,-177,170,-180,2025-02-17 10:06:35,0.0
18416,3188,4024,-141,154,-183,2025-02-17 10:06:35,0.0
18496,3192,4140,-153,178,-205,2025-02-17 10:06:35,0.0
18488,3172,3972,-172,191,-169,2025-02-17 10:06:35,0.0
18428,3080,4132,-122,147,-194,2025-02-17 10:06:35,0.0
18412,3120,3908,-162,189,-189,2025-02-17 10:06:35,0.0
18392,3156,3824,-146,179,-178,2025-02-17 10:06:35,0.0
18456,3092,3988,-150,153,-178,2025-02-17 10:06:35,0.0
18540,3200,4108,-155,172,-171,2025-02-17 10:06:35,0.0
18432,3092,4160,-140,176,-162,2025-02-17 10:06:35,0.0
18468,3092,3932,-148,168,-183,2025-02-17 10:06:35,0.0
18476,3080,3884,-121,155,-153,2025-02-17 10:06:35,0.0
17788,3492,4208,-215,341,-42,2025-02-17 10:06:35,0.0
18772,2880,4136,-103,467,59,2025-02-17 10:06:35,
18988,3128,4296,-133,-403,-332,2025-02-17 10:06:36,0.0
18184,3292,3684,-72,-604,-255,2025-02-17 10:06:36,0.0
17976,3012,3400,-149,390,-42,2025-02-17 10:06:36,0.0
18808,3036,4092,-273,1045,-100,2025-02-17 10:06:36,0.0
18540,3300,4692,-161,471,-268,2025-02-17 10:06:36,0.0
18080,3276,4588,-71,-221,-199,2025-02-17 10:06:36,0.0
18324,3000,3900,-73,-363,-136,2025-02-17 10:06:36,0.0
18700,3060,3620,-71,-194,-199,2025-02-17 10:06:36,0.0
18696,2876,3396,-124,108,-316,2025-02-17 10:06:36,0.0
18420,3296,4192,-207,372,-324,2025-02-17 10:06:36,0.0
18420,3304,4272,-167,208,-229,2025-02-17 10:06:36,0.0
18276,3064,4396,-41,-313,-197,2025-02-17 10:06:36,0.0
18540,2996,3468,139,-636,-291,2025-02-17 10:06:36,0.0
18592,3076,3308,-157,-42,-347,2025-02-17 10:06:36,0.0
18312,3352,3908,-236,832,-140,2025-02-17 10:06:36,0.0
18532,3248,4036,-279,967,-78,2025-02-17 10:06:36,0.0
18456,3108,4736,-200,558,-175,2025-02-17 10:06:36,0.0
18260,3428,4508,-255,92,-159,2025-02-17 10:06:36,0.0
18416,3180,4312,-77,-269,-1,2025-02-17 10:06:36,0.0
18656,2776,3688,-101,-375,-169,2025-02-17 10:06:36,0.0
18628,3092,3588,-119,-21,-268,2025-02-17 10:06:36,0.0
18072,3092,3692,-188,431,-153,2025-02-17 10:06:36,0.0
18524,3196,4012,-218,547,-167,2025-02-17 10:06:36,0.0
18600,3248,4332,-164,283,-194,2025-02-17 10:06:36,0.0
18188,3112,4072,-146,65,-183,2025-02-17 10:06:36,0.0
18464,3096,4096,-118,34,-149,2025-02-17 10:06:36,0.0
18572,3052,3828,-180,81,-199,2025-02-17 10:06:36,0.0
18456,3208,3852,-160,227,-171,2025-02-17 10:06:36,0.0
18192,3124,4028,-178,274,-150,2025-02-17 10:06:36,0.0
18532,3096,4048,-157,197,-158,2025-02-17 10:06:36,0.0
18452,3068,4044,-133,66,-195,2025-02-17 10:06:36,0.0
18400,3084,3844,-132,124,-184,2025-02-17 10:06:36,0.0
18480,3172,3980,-183,272,-144,2025-02-17 10:06:36,0.0
18424,3072,4072,-231,289,-156,2025-02-17 10:06:36,0.0
18532,3064,4092,-39,60,-222,2025-02-17 10:06:36,0.0
18472,3336,4080,-184,253,-277,2025-02-17 10:06:36,0.0
18376,3196,4096,-134,220,-181,2025-02-17 10:06:36,0.0
18392,3040,4144,-151,214,-160,2025-02-17 10:06:36,0.0
18532,3172,4260,-148,103,-183,2025-02-17 10:06:36,0.0
18444,3084,4136,-129,22,-213,2025-02-17 10:06:36,0.0
18360,3156,3892,-129,126,-182,2025-02-17 10:06:36,0.0
18216,3040,3900,-149,199,-150,2025-02-17 10:06:36,0.0
18648,3036,3968,-164,193,-193,2025-02-17 10:06:36,0.0
18324,3112,4048,-177,246,-235,2025-02-17 10:06:36,0.0
18296,3148,4180,-162,288,-205,2025-02-17 10:06:36,0.0
18456,3196,4092,-189,267,-159,2025-02-17 10:06:36,0.0
18372,3240,4116,-160,92,-199,2025-02-17 10:06:36,0.0
18292,3156,4040,-206,174,-82,2025-02-17 10:06:36,0.0
18252,2968,4072,-191,88,-62,2025-02-17 10:06:36,0.0
18648,2976,4052,-54,-320,-364,2025-02-17 10:06:36,0.0
18436,3292,3844,-189,-170,-248,2025-02-17 10:06:36,0.0
18288,3168,3748,-85,5,-228,2025-02-17 10:06:36,0.0
18668,3100,3508,-101,363,-197,2025-02-17 10:06:36,0.0
18432,3268,4000,-255,677,-256,2025-02-17 10:06:36,0.0
18144,3148,4576,-173,533,-33,2025-02-17 10:06:36,0.0
18708,2976,4512,-156,59,-155,2025-02-17 10:06:36,0.0
18784,3220,4008,-100,-272,-312,2025-02-17 10:06:36,0.0
18200,3244,3756,-161,54,-136,2025-02-17 10:06:36,0.0
18468,3204,3536,-222,393,-62,2025-02-17 10:06:36,0.0
18508,2828,3900,-163,583,2,2025-02-17 10:06:36,0.0
18764,2924,4188,-227,305,-315,2025-02-17 10:06:36,0.0
18240,3200,4108,-121,319,-242,2025-02-17 10:06:37,0.0
18244,3264,4236,-176,280,-123,2025-02-17 10:06:37,0.0
18544,3112,4164,-130,11,-88,2025-02-17 10:06:37,0.0
18524,3060,4144,-119,-136,-195,2025-02-17 10:06:37,0.0
18456,3208,3820,-122,-42,-266,2025-02-17 10:06:37,0.0
18384,3204,3760,-190,386,-163,2025-02-17 10:06:37,0.0
18396,2944,4064,-201,407,-209,2025-02-17 10:06:37,0.0
18424,3168,4548,-84,97,-179,2025-02-17 10:06:37,0.0
18188,3136,4260,-59,-274,-270,2025-02-17 10:06:37,0.0
18708,3268,3960,-100,-482,-307,2025-02-17 10:06:37,0.0
18596,3196,3268,-68,-88,-200,2025-02-17 10:06:37,0.0
18400,3040,3720,-199,506,-214,2025-02-17 10:06:37,0.0
18460,3288,4192,-234,587,-180,2025-02-17 10:06:37,0.0
18316,3316,4288,-168,277,-118,2025-02-17 10:06:37,0.0
18216,3228,4056,-69,-73,-112,2025-02-17 10:06:37,0.0
18564,2964,4252,-64,-249,-59,2025-02-17 10:06:37,0.0
18692,2996,3832,-156,-259,-189,2025-02-17 10:06:37,0.0
18456,2940,3864,-47,-251,-273,2025-02-17 10:06:37,0.0
18404,3196,3960,-62,59,-344,2025-02-17 10:06:37,0.0
18124,3036,4404,48,110,-181,2025-02-17 10:06:37,0.0
18816,3016,3732,-228,-10,-371,2025-02-17 10:06:37,0.0
18424,3472,4324,-109,-47,-332,2025-02-17 10:06:37,0.0
18148,3396,3900,-312,-37,-81,2025-02-17 10:06:37,0.0
18448,2972,4248,-123,-120,12,2025-02-17 10:06:37,0.0
18800,2836,3788,-185,-298,-352,2025-02-17 10:06:37,0.0
18804,3400,3980,-227,-239,-388,2025-02-17 10:06:37,0.0
18292,3200,3620,-288,-91,-298,2025-02-17 10:06:37,0.0
18340,3372,3820,-221,-33,-206,2025-02-17 10:06:37,0.0
18508,3140,3476,-187,180,-104,2025-02-17 10:06:37,0.0
18356,3132,3460,-216,495,-75,2025-02-17 10:06:37,0.0
18492,3268,3604,-381,769,-137,2025-02-17 10:06:37,0.0
18532,3336,4176,-398,682,-91,2025-02-17 10:06:37,0.0
18300,3060,4064,-162,675,-39,2025-02-17 10:06:37,0.0
18416,2940,4104,-136,377,-177,2025-02-17 10:06:37,0.0
18388,2968,3904,-111,-27,-307,2025-02-17 10:06:37,0.0
18676,3412,3596,-6,-63,-313,2025-02-17 10:06:37,0.0
18216,2748,3168,-209,579,-252,2025-02-17 10:06:37,0.0
18432,3296,3592,-268,1083,-251,2025-02-17 10:06:37,0.0
18544,3300,4064,-294,1188,-243,2025-02-17 10:06:37,
18672,3344,4380,-600,1137,-350,2025-02-17 10:06:37,0.0
18364,2848,4292,-422,565,-385,2025-02-17 10:06:37,0.0
18660,3140,3984,-514,249,-541,2025-02-17 10:06:37,0.0
18996,3356,3476,-837,104,-782,2025-02-17 10:06:37,0.0
19028,3276,2764,-1470,254,-1129,2025-02-17 10:06:37,0.0
19024,3380,2388,-2598,172,-1591,2025-02-17 10:06:37,0.0
19048,3612,1708,-4192,-372,-1813,2025-02-17 10:06:37,0.0
18940,3740,1444,-6109,-308,-2333,2025-02-17 10:06:37,0.0
18988,4024,896,-8130,-515,-2672,2025-02-17 10:06:37,0.0
19100,3616,1100,-9677,-538,-2879,2025-02-17 10:06:37,0.0
19316,3800,1284,-11592,-864,-3336,2025-02-17 10:06:37,0.0
19204,4012,2652,-12939,-1941,-3651,2025-02-17 10:06:37,0.0
18924,3940,4436,-12736,-1922,-3560,2025-02-17 10:06:37,0.0
18532,3916,4612,-12302,-773,-3434,2025-02-17 10:06:37,0.0
17596,4744,6164,-10576,810,-2678,2025-02-17 10:06:37,0.0
19004,2516,5912,-9474,-628,-2244,2025-02-17 10:06:37,0.0
19944,4128,7504,-8159,-3723,-4911,2025-02-17 10:06:37,0.0
17096,5808,10748,-4456,-6584,-5766,2025-02-17 10:06:37,0.0
18264,5436,9272,-3181,-10381,-5444,2025-02-17 10:06:37,0.0
18288,7516,9928,-695,-18246,-3026,2025-02-17 10:06:37,0.0
19772,8176,8796,1528,-26109,-2092,2025-02-17 10:06:37,0.0
19860,8112,8100,3231,-32768,-1828,2025-02-17 10:06:37,0.0
21096,7692,4600,3658,-32768,-2130,2025-02-17 10:06:37,0.0
20164,7064,2608,2953,-32768,-2314,2025-02-17 10:06:38,0.0
19124,6776,1552,2538,-32768,-2465,2025-02-17 10:06:38,0.0
17408,5752,-2048,859,-32768,-3625,2025-02-17 10:06:38,0.0
12460,5824,-2688,-639,-32768,-3147,2025-02-17 10:06:38,0.0
8912,5192,-5932,-1726,-32768,-2061,2025-02-17 10:06:38,0.0
-1836,8268,-4128,-1546,-32768,1125,2025-02-17 10:06:38,0.0
-12104,7460,-468,5483,-32768,5883,2025-02-17 10:06:38,0.0
-16824,5972,-4788,16767,-32768,8492,2025-02-17 10:06:38,0.0
-19000,5396,-13084,22665,-32768,3668,2025-02-17 10:06:38,0.0
-23764,4132,-16648,21068,-32768,445,2025-02-17 10:06:38,0.0
-23472,4144,-17012,16653,-32768,874,2025-02-17 10:06:38,0.0
-19004,2504,-17896,9756,356,-1965,2025-02-17 10:06:38,0.0
-16128,1544,-17912,3346,32767,-6383,2025-02-17 10:06:38,0.0
-11816,280,-17264,-2157,32767,-11434,2025-02-17 10:06:38,0.0
-8176,-416,-16024,-5175,32767,-17201,2025-02-17 10:06:38,0.0
-4312,-748,-14252,-4787,32767,-21664,2025-02-17 10:06:38,0.0
-280,-964,-12692,-1421,32767,-24758,2025-02-17 10:06:38,0.0
1960,-1136,-12320,4086,32767,-24817,2025-02-17 10:06:38,0.0
2896,-1656,-14384,8649,32767,-20057,2025-02-17 10:06:38,0.0
3352,-2132,-20560,8554,10653,-9398,2025-02-17 10:06:38,0.0
240,-2144,-22768,3362,-21901,1416,2025-02-17 10:06:38,0.0
-2560,-1964,-21836,-1869,-32768,11609,2025-02-17 10:06:38,0.0
-4860,-1708,-19100,-3551,-32768,21523,2025-02-17 10:06:38,0.0
-6176,-1772,-16136,934,-32768,28739,2025-02-17 10:06:38,0.0
-6360,-1920,-16628,7684,-32768,29396,2025-02-17 10:06:38,0.0
-6324,-1756,-19524,12311,-32768,24200,2025-02-17 10:06:38,0.0
-6476,-1632,-23148,12066,-31960,15762,2025-02-17 10:06:38,0.0
-6124,-572,-28136,5754,-10056,5355,2025-02-17 10:06:38,0.0
-7528,604,-28660,-5240,12224,-3485,2025-02-17 10:06:38,0.0
-6592,912,-24576,-14505,27468,-10318,2025-02-17 10:06:38,0.0
-7064,1440,-18228,-17966,32767,-15365,2025-02-17 10:06:38,0.0
-7132,2372,-12576,-15035,32767,-17846,2025-02-17 10:06:38,0.0
-8464,3800,-10396,-8507,32767,-16023,2025-02-17 10:06:38,0.0
-9204,4904,-11164,-1795,32767,-9310,2025-02-17 10:06:38,0.0
-9396,5088,-11752,2604,26306,787,2025-02-17 10:06:38,0.0
-7532,4416,-12296,4249,12680,11655,2025-02-17 10:06:38,0.0
-3632,3688,-11796,4484,-390,18815,2025-02-17 10:06:38,0.0
112,2540,-10828,5512,-12866,22146,2025-02-17 10:06:38,0.0
4508,1840,-11300,7437,-23343,20589,2025-02-17 10:06:38,0.0
6552,1176,-12224,8989,-30882,12924,2025-02-17 10:06:38,0.0
4828,540,-13244,8166,-32768,3960,2025-02-17 10:06:38,0.0
880,88,-13036,5080,-30786,-3573,2025-02-17 10:06:38,0.0
-3448,-20,-12980,1287,-25531,-7235,2025-02-17 10:06:38,0.0
-8488,212,-11228,-2780,-17154,-6323,2025-02-17 10:06:38,0.0
-10988,520,-9280,-4602,-9366,-2531,2025-02-17 10:06:38,0.0
-12388,1000,-6436,-5246,-915,3656,2025-02-17 10:06:38,0.0
-10452,832,-4732,-4500,7101,8919,2025-02-17 10:06:38,0.0
-7772,500,-2508,-1804,15823,12517,2025-02-17 10:06:38,0.0
-4980,24,-1636,1790,21844,13134,2025-02-17 10:06:38,0.0
-2480,188,-2472,5397,27368,11686,2025-02-17 10:06:38,0.0
-480,816,-3576,8459,32226,7328,2025-02-17 10:06:38,0.0
768,1532,-7788,9487,32767,2360,2025-02-17 10:06:38,0.0
-376,2124,-10596,6908,32767,-476,2025-02-17 10:06:38,0.0
-168,2720,-12812,1826,30773,-1413,2025-02-17 10:06:38,0.0
2104,2192,-13400,-3561,24970,-2117,2025-02-17 10:06:38,0.0
576,956,-8536,-6855,17489,-2652,2025-02-17 10:06:38,0.0
1944,320,-6776,-7179,8331,-2721,2025-02-17 10:06:38,0.0
1036,60,-3984,-3629,-1221,-2813,2025-02-17 10:06:38,0.0
232,320,-5568,933,-9455,-1503,2025-02-17 10:06:38,0.0
-2248,532,-6972,4445,-16059,-161,2025-02-17 10:06:38,0.0
-1324,-624,-9824,8286,-21955,581,2025-02-17 10:06:38,0.0
-3272,1516,-15132,7034,-26457,864,2025-02-17 10:06:39,0.0
-3996,2464,-17364,-322,-30287,3204,2025-02-17 10:06:39,0.0
-3096,2664,-14740,-6859,-31920,4063,2025-02-17 10:06:39,0.0
-3100,3124,-9904,-9281,-32768,4032,2025-02-17 10:06:39,0.0
-4372,4676,-5768,-7796,-32768,1722,2025-02-17 10:06:39,0.0
-7904,6524,-4324,-2900,-25993,-3057,2025-02-17 10:06:39,0.0
-8800,6132,-7084,-679,-16495,-7230,2025-02-17 10:06:39,0.0
-10104,3900,-8556,-835,-10668,-9253,2025-02-17 10:06:39,0.0
-9624,1972,-10656,-1002,-7173,-9680,2025-02-17 10:06:39,0.0
-8744,1152,-12868,-1273,-6500,-9496,2025-02-17 10:06:39,0.0
-9764,736,-15388,-2128,-7490,-7923,2025-02-17 10:06:39,0.0
-10496,1288,-15348,-2161,-9403,-4603,2025-02-17 10:06:39,0.0
-9388,1112,-17048,-1006,-13372,-514,2025-02-17 10:06:39,0.0
-9016,1148,-15316,-10,-17860,2272,2025-02-17 10:06:39,0.0
-8640,1504,-13452,-896,-23365,2807,2025-02-17 10:06:39,0.0
-3768,1392,-13176,-2752,-32768,551,2025-02-17 10:06:39,
-7804,1560,-4448,-5504,-32768,-4545,2025-02-17 10:06:39,0.0
-13932,1988,-800,-3480,-32768,-7415,2025-02-17 10:06:39,0.0
-14428,1468,-772,-2209,-32768,-8286,2025-02-17 10:06:39,0.0
-15888,1912,-1048,-275,-32768,-8095,2025-02-17 10:06:39,0.0
-16132,1640,-3220,-10,-32768,-6104,2025-02-17 10:06:39,0.0
-17452,936,14296,507,-32768,-4408,2025-02-17 10:06:39,0.0
-11648,396,9204,4717,275,-2436,2025-02-17 10:06:39,0.0
-12432,1288,-6620,1540,27521,-1023,2025-02-17 10:06:39,0.0
-10576,1804,-12920,-5157,32767,-928,2025-02-17 10:06:39,0.0
-1544,828,-4760,-11647,28722,-3620,2025-02-17 10:06:39,0.0
-5276,-2288,9184,-5608,-5003,-9018,2025-02-17 10:06:39,0.0
-16512,-1104,-1664,-1059,4698,-4497,2025-02-17 10:06:39,0.0
-13008,-472,-5300,-2750,6855,-993,2025-02-17 10:06:39,0.0
-15320,792,296,-3585,6323,995,2025-02-17 10:06:39,0.0
-14264,1468,684,-2039,5092,3447,2025-02-17 10:06:39,0.0
-11896,1160,-136,-735,4620,3882,2025-02-17 10:06:39,0.0
-12024,-104,-1556,-1366,3693,2551,2025-02-17 10:06:39,0.0
-10284,760,-1252,-2309,7120,-1821,2025-02-17 10:06:39,0.0
-12304,-876,-3380,-1530,8403,-6478,2025-02-17 10:06:39,0.0
-14884,-496,-2268,-1453,8471,-8281,2025-02-17 10:06:39,0.0
-17708,-796,-2584,-2104,6257,-6977,2025-02-17 10:06:39,0.0
-18448,-1304,-2108,-2460,3743,-3573,2025-02-17 10:06:39,0.0
-17220,-1596,-836,-2684,502,471,2025-02-17 10:06:39,0.0
-13460,-1520,-104,138,-1826,1184,2025-02-17 10:06:39,0.0
-12544,-3788,5024,6944,-2946,30,2025-02-17 10:06:39,0.0
