acceleration_x,acceleration_y,acceleration_z,gyroscope_x,gyroscope_y,gyroscope_z,timestamp,label
-13344,-1044,-2856,19,503,-133,2025-02-17 11:18:52,0.0
-13416,-1064,-2992,26,342,-96,2025-02-17 11:18:52,0.0
-13336,-1156,-2932,-14,225,-72,2025-02-17 11:18:52,0.0
-13216,-1060,-2744,-35,236,-75,2025-02-17 11:18:52,0.0
-13164,-1052,-2728,-30,284,-98,2025-02-17 11:18:52,0.0
-13248,-1044,-2564,-29,364,-111,2025-02-17 11:18:52,0.0
-13260,-1012,-2620,-35,314,-135,2025-02-17 11:18:52,0.0
-13344,-1056,-2660,-79,168,-162,2025-02-17 11:18:52,0.0
-13332,-1000,-2764,-79,62,-162,2025-02-17 11:18:52,0.0
-13260,-972,-2612,-85,73,-173,2025-02-17 11:18:52,0.0
-13124,-1056,-2668,-64,263,-148,2025-02-17 11:18:52,0.0
-13160,-1004,-2736,-3,459,-187,2025-02-17 11:18:52,0.0
-13240,-1020,-2656,39,516,-208,2025-02-17 11:18:52,0.0
-13292,-888,-2676,67,433,-258,2025-02-17 11:18:52,0.0
-13188,-924,-2860,-20,198,-343,2025-02-17 11:18:52,0.0
-13436,-1000,-2652,17,114,-304,2025-02-17 11:18:52,0.0
-13264,-1056,-2660,65,231,-248,2025-02-17 11:18:52,0.0
-13124,-1148,-2692,163,277,-288,2025-02-17 11:18:52,0.0
-13264,-1192,-2692,155,257,-297,2025-02-17 11:18:52,0.0
-13412,-1136,-2812,-2,204,-285,2025-02-17 11:18:52,0.0
-13336,-1100,-2780,23,-40,-304,2025-02-17 11:18:52,0.0
-13408,-1124,-2784,-59,-14,-220,2025-02-17 11:18:52,0.0
-13248,-1008,-2912,-176,65,-154,2025-02-17 11:18:52,0.0
-13112,-1128,-2872,-263,107,-205,2025-02-17 11:18:52,0.0
-13308,-988,-2720,-210,120,-142,2025-02-17 11:18:52,0.0
-13060,-892,-2696,-292,145,-132,2025-02-17 11:18:52,0.0
-13188,-1140,-2828,-427,166,-153,2025-02-17 11:18:52,0.0
-13284,-1136,-2728,-319,153,-197,2025-02-17 11:18:52,0.0
-13180,-952,-2856,-416,180,-173,2025-02-17 11:18:52,0.0
-13172,-1080,-2564,-332,213,-257,2025-02-17 11:18:52,0.0
-13216,-1020,-2868,-392,308,-204,2025-02-17 11:18:52,0.0
-13272,-1020,-2828,-448,342,-253,2025-02-17 11:18:52,0.0
-13376,-1152,-2480,-291,244,-274,2025-02-17 11:18:52,0.0
-13304,-1160,-2868,-278,219,-216,2025-02-17 11:18:52,0.0
-13244,-1088,-2836,-448,124,-247,2025-02-17 11:18:52,0.0
-13308,-1212,-2596,-290,58,-271,2025-02-17 11:18:52,0.0
-13412,-1228,-2728,-235,109,-164,2025-02-17 11:18:52,0.0
-13244,-1164,-2940,-409,130,-232,2025-02-17 11:18:52,0.0
-13356,-1264,-2632,-334,103,-198,2025-02-17 11:18:52,0.0
-13228,-1192,-2708,-154,-26,-164,2025-02-17 11:18:52,0.0
-13240,-1024,-2956,-414,-46,-160,2025-02-17 11:18:52,0.0
-13272,-1132,-2732,-428,-119,-249,2025-02-17 11:18:52,0.0
-13372,-1160,-2784,-343,-6,-153,2025-02-17 11:18:52,0.0
-13184,-1028,-2820,-364,158,-178,2025-02-17 11:18:53,0.0
-13240,-1060,-2812,-332,175,-214,2025-02-17 11:18:53,0.0
-13204,-1200,-2872,-313,185,-152,2025-02-17 11:18:53,0.0
-13200,-1156,-2740,-332,275,-173,2025-02-17 11:18:53,0.0
-13140,-1132,-2708,-319,287,-198,2025-02-17 11:18:53,0.0
-13124,-1084,-2604,-284,268,-212,2025-02-17 11:18:53,0.0
-13216,-1012,-2828,-180,271,-223,2025-02-17 11:18:53,0.0
-13268,-1056,-2792,-278,334,-172,2025-02-17 11:18:53,0.0
-13208,-1084,-2628,-288,424,-219,2025-02-17 11:18:53,0.0
-13144,-1316,-2664,-145,521,-246,2025-02-17 11:18:53,0.0
-13428,-1160,-2888,-48,557,-168,2025-02-17 11:18:53,0.0
-13244,-1100,-2848,-128,482,-158,2025-02-17 11:18:53,0.0
-13240,-1184,-2592,-104,371,-212,2025-02-17 11:18:53,0.0
-13260,-1180,-2444,128,290,-217,2025-02-17 11:18:53,0.0
-13276,-1124,-2920,91,337,-139,2025-02-17 11:18:53,0.0
-13172,-1048,-2960,-23,377,-145,2025-02-17 11:18:53,0.0
-13232,-1180,-2728,32,388,-126,2025-02-17 11:18:53,0.0
-13236,-1152,-2596,114,399,-115,2025-02-17 11:18:53,0.0
-13236,-1036,-2724,312,400,-133,2025-02-17 11:18:53,0.0
-13324,-952,-2976,250,408,-107,2025-02-17 11:18:53,0.0
-13216,-1036,-2888,326,229,-122,2025-02-17 11:18:53,0.0
-13284,-1000,-2724,554,27,-51,2025-02-17 11:18:53,0.0
-13172,-904,-2584,496,54,66,2025-02-17 11:18:53,0.0
-13144,-920,-2880,476,305,75,2025-02-17 11:18:53,0.0
-13088,-724,-2904,479,552,77,2025-02-17 11:18:53,0.0
-13192,-764,-3004,355,564,22,2025-02-17 11:18:53,0.0
-13320,-792,-2704,398,555,-18,2025-02-17 11:18:53,0.0
-13408,-856,-2832,550,475,88,2025-02-17 11:18:53,0.0
-13392,-824,-2772,574,304,176,2025-02-17 11:18:53,0.0
-13168,-924,-2748,593,196,179,2025-02-17 11:18:53,0.0
-12912,-944,-2620,683,321,136,2025-02-17 11:18:53,0.0
-13092,-952,-2992,705,618,136,2025-02-17 11:18:53,0.0
-13288,-824,-3160,659,1015,144,2025-02-17 11:18:53,0.0
-13168,-724,-3136,518,1067,269,2025-02-17 11:18:53,0.0
-13040,-428,-2504,521,1078,154,2025-02-17 11:18:53,0.0
-13056,-392,-2928,439,596,-88,2025-02-17 11:18:53,0.0
-13164,-348,-2776,307,123,-135,2025-02-17 11:18:53,0.0
-13124,-332,-2720,270,-104,-284,2025-02-17 11:18:53,0.0
-13236,-260,-2668,197,51,-420,2025-02-17 11:18:53,0.0
-13244,-324,-2796,50,329,-472,2025-02-17 11:18:53,0.0
-13208,-332,-2900,-110,376,-637,2025-02-17 11:18:53,0.0
-13288,-488,-2792,-251,235,-831,2025-02-17 11:18:53,0.0
-13284,-732,-2552,-342,83,-972,2025-02-17 11:18:53,0.0
-13176,-880,-2584,-488,-84,-1145,2025-02-17 11:18:53,0.0
-13244,-816,-2784,-654,-228,-1326,2025-02-17 11:18:53,0.0
-13096,-948,-2744,-804,-162,-1444,2025-02-17 11:18:53,0.0
-13248,-1260,-2936,-913,39,-1526,2025-02-17 11:18:53,0.0
-13080,-1304,-3072,-915,70,-1706,2025-02-17 11:18:53,0.0
-13204,-1636,-2928,-944,65,-1787,2025-02-17 11:18:53,0.0
-12948,-1752,-2972,-882,128,-1842,2025-02-17 11:18:53,0.0
-12492,-2180,-3072,-811,-16,-2069,2025-02-17 11:18:53,0.0
-11780,-2456,-3132,-627,-28,-2067,2025-02-17 11:18:53,0.0
-11312,-2548,-3152,-261,881,-2257,2025-02-17 11:18:53,0.0
-11484,-2588,-3524,134,2873,-2367,2025-02-17 11:18:53,0.0
-12040,-2852,-3884,375,5371,-2267,2025-02-17 11:18:53,0.0
-12444,-2756,-3344,518,6753,-1947,2025-02-17 11:18:53,0.0
-13428,-2536,-2684,691,7231,-1980,2025-02-17 11:18:53,
-14772,-1868,-2432,1056,6107,-1838,2025-02-17 11:18:54,0.0
-14860,-1316,-2516,1553,3955,-1280,2025-02-17 11:18:54,0.0
-14772,-1056,-2888,1797,1559,-913,2025-02-17 11:18:54,0.0
-14028,-912,-2988,1416,-462,-1053,2025-02-17 11:18:54,0.0
-13780,-1420,-2756,622,-1039,-1366,2025-02-17 11:18:54,0.0
-13308,-2048,-2428,-23,-727,-1396,2025-02-17 11:18:54,0.0
-12976,-2436,-2376,-313,-60,-1210,2025-02-17 11:18:54,0.0
-13004,-2632,-2540,-561,602,-1087,2025-02-17 11:18:54,0.0
-13076,-2860,-2196,-756,854,-1056,2025-02-17 11:18:54,0.0
-13268,-2808,-1836,-733,445,-945,2025-02-17 11:18:54,0.0
-13416,-2700,-1816,-780,-339,-632,2025-02-17 11:18:54,0.0
-13080,-2432,-1864,-750,-986,-481,2025-02-17 11:18:54,0.0
-12752,-2172,-2044,-765,-1004,-491,2025-02-17 11:18:54,0.0
-12512,-2132,-2132,-719,-523,-582,2025-02-17 11:18:54,0.0
-12200,-2252,-1848,-646,96,-762,2025-02-17 11:18:54,0.0
-12440,-2448,-1464,-562,683,-873,2025-02-17 11:18:54,0.0
-12572,-2464,-856,-532,1020,-725,2025-02-17 11:18:54,0.0
-12848,-1944,-1428,-619,1602,-591,2025-02-17 11:18:54,0.0
-13444,-1540,-1228,-1132,1446,-379,2025-02-17 11:18:54,0.0
-13428,-1464,-848,-1276,760,-178,2025-02-17 11:18:54,0.0
-12944,-1292,-1180,-1119,-94,-55,2025-02-17 11:18:54,0.0
-12732,-1384,-1852,-1339,-15,-117,2025-02-17 11:18:54,0.0
-12700,-1892,-2432,-2098,1135,-74,2025-02-17 11:18:54,0.0
-12772,-2628,-1816,-2904,2637,-164,2025-02-17 11:18:54,0.0
-13584,-3360,-1404,-2837,3131,-505,2025-02-17 11:18:54,0.0
-14092,-3168,-1008,-2723,2606,-947,2025-02-17 11:18:54,0.0
-14808,-3060,-1012,-2923,1377,-1288,2025-02-17 11:18:54,0.0
-15208,-3068,-936,-2920,-16,-1284,2025-02-17 11:18:54,0.0
-14948,-2484,-1304,-2858,-1232,-1107,2025-02-17 11:18:54,0.0
-14320,-2216,-1532,-3054,-1370,-1274,2025-02-17 11:18:54,0.0
-14212,-2648,-1656,-3788,-1456,-1571,2025-02-17 11:18:54,0.0
-14188,-3348,-1040,-4191,-1890,-1525,2025-02-17 11:18:54,0.0
-14084,-4532,-2508,-4179,-1905,-1383,2025-02-17 11:18:54,0.0
-14812,-5392,-3640,-3961,-97,-1827,2025-02-17 11:18:54,0.0
-16388,-5352,-3544,-3012,2952,-2453,2025-02-17 11:18:54,0.0
-17388,-6060,-4736,-2579,4177,-2856,2025-02-17 11:18:54,0.0
-18292,-6680,-4808,-1858,2724,-2777,2025-02-17 11:18:54,0.0
-18936,-7188,-5172,-1369,-1042,-1508,2025-02-17 11:18:54,0.0
-17308,-6552,-5820,-533,-4510,657,2025-02-17 11:18:54,0.0
-15408,-4336,-5140,569,-7269,2071,2025-02-17 11:18:54,0.0
-13528,-3624,-6492,374,-8066,3163,2025-02-17 11:18:54,0.0
-12032,-2616,-6692,74,-8091,4134,2025-02-17 11:18:54,0.0
-10656,-1032,-5736,385,-7711,4802,2025-02-17 11:18:54,0.0
-9652,1152,-4484,997,-6701,4819,2025-02-17 11:18:54,0.0
-8708,2384,-3552,1010,-4795,3875,2025-02-17 11:18:54,0.0
-8708,2312,-3836,732,-2215,2337,2025-02-17 11:18:54,0.0
-10300,396,-4916,124,1059,1402,2025-02-17 11:18:54,0.0
-12036,-820,-3952,140,3477,1526,2025-02-17 11:18:54,0.0
-13096,-2056,-4196,457,5505,1798,2025-02-17 11:18:54,0.0
-13720,-3068,-4988,379,7566,2159,2025-02-17 11:18:54,0.0
-13968,-3644,-4944,290,8043,2377,2025-02-17 11:18:54,0.0
-14744,-2872,-3600,578,5240,2736,2025-02-17 11:18:54,0.0
-15360,-2252,-2736,1533,851,3735,2025-02-17 11:18:54,0.0
-14496,-1212,-2660,2765,-3181,4927,2025-02-17 11:18:54,0.0
-12524,40,-2696,3037,-4142,5809,2025-02-17 11:18:54,0.0
-10272,808,-2512,3340,-4921,5796,2025-02-17 11:18:54,0.0
-8612,1280,-3384,3681,-4851,4865,2025-02-17 11:18:54,0.0
-8332,1160,-3336,3502,-3556,3785,2025-02-17 11:18:54,0.0
-8216,1168,-3660,2994,-1389,2622,2025-02-17 11:18:54,0.0
-8572,1092,-3312,2466,313,1219,2025-02-17 11:18:54,0.0
-9728,1684,-2844,2084,1389,278,2025-02-17 11:18:54,0.0
-10212,1928,-2704,1931,1577,-531,2025-02-17 11:18:54,0.0
-10904,1528,-3004,1523,1193,-1579,2025-02-17 11:18:54,0.0
-12128,1180,-3004,1044,749,-2051,2025-02-17 11:18:54,0.0
-12944,388,-2816,541,277,-2161,2025-02-17 11:18:54,0.0
-13500,-68,-2776,60,301,-2117,2025-02-17 11:18:54,0.0
-13756,52,-2540,-416,271,-2031,2025-02-17 11:18:55,0.0
-14036,-112,-2216,-701,-183,-1866,2025-02-17 11:18:55,0.0
-14304,-536,-1216,-499,-992,-1439,2025-02-17 11:18:55,0.0
-13756,-1168,-664,306,-1941,-927,2025-02-17 11:18:55,0.0
-13520,-1724,-1100,1175,-2574,-540,2025-02-17 11:18:55,0.0
-12680,-1472,-1960,1463,-2647,-413,2025-02-17 11:18:55,0.0
-11836,-1328,-2592,1347,-2193,-807,2025-02-17 11:18:55,0.0
-12680,-512,-2432,1796,-283,-1117,2025-02-17 11:18:55,0.0
-14568,-88,-1840,2086,2203,-894,2025-02-17 11:18:55,0.0
-15788,-824,-328,2128,3361,-356,2025-02-17 11:18:55,0.0
-17304,-1412,1932,3154,2837,565,2025-02-17 11:18:55,0.0
-16512,-136,1256,5060,331,1634,2025-02-17 11:18:55,0.0
-15052,-1288,-3012,5632,-690,1145,2025-02-17 11:18:55,0.0
-15180,-980,-6456,4751,1090,-45,2025-02-17 11:18:55,0.0
-16256,548,-8184,3859,4165,-764,2025-02-17 11:18:55,0.0
-17552,1724,-9188,3630,6691,-1048,2025-02-17 11:18:55,0.0
-18756,2152,-8100,4404,7728,-1120,2025-02-17 11:18:55,0.0
-15120,1100,-9516,4989,5552,-1873,2025-02-17 11:18:55,0.0
-12948,-12,-9712,4335,-51,-3288,2025-02-17 11:18:55,0.0
-11260,-1956,-9764,2520,-7432,-3908,2025-02-17 11:18:55,0.0
-9688,-4180,-6188,560,-13607,-3541,2025-02-17 11:18:55,0.0
-7732,-3380,-1904,1534,-17001,-3023,2025-02-17 11:18:55,0.0
-7204,-3368,-272,1724,-13659,-2970,2025-02-17 11:18:55,0.0
-7728,-2276,-2936,1678,-5257,-3052,2025-02-17 11:18:55,0.0
-10164,-1152,-5752,-543,5590,-2745,2025-02-17 11:18:55,0.0
-11060,-1752,-6248,-3583,14612,-2661,2025-02-17 11:18:55,0.0
-12004,-2476,-2444,-4318,16268,-4481,2025-02-17 11:18:55,0.0
-15156,-3508,-1564,-2313,11260,-5091,2025-02-17 11:18:55,0.0
-17276,-4000,-4132,-662,5754,-3899,2025-02-17 11:18:55,0.0
-16908,-3404,-5848,-848,587,-2503,2025-02-17 11:18:55,0.0
-14844,-2240,-5496,-1815,-3948,-2401,2025-02-17 11:18:55,0.0
-13488,-2064,-4824,-2760,-6360,-2186,2025-02-17 11:18:55,0.0
-12036,-2824,-4004,-2976,-6142,-1526,2025-02-17 11:18:55,0.0
-10244,-2956,-4300,-3285,-3828,-1631,2025-02-17 11:18:55,
-9640,-3056,-4644,-4118,-833,-2398,2025-02-17 11:18:55,0.0
-10420,-2980,-4036,-4614,1580,-2962,2025-02-17 11:18:55,0.0
-11452,-3168,-3892,-4920,2618,-3391,2025-02-17 11:18:55,0.0
-12996,-3208,-3648,-5416,2498,-3748,2025-02-17 11:18:55,0.0
-13796,-3008,-3292,-5899,548,-3609,2025-02-17 11:18:55,0.0
-13928,-3152,-3260,-5937,-1423,-3027,2025-02-17 11:18:55,0.0
-12532,-2820,-3676,-5981,-2663,-2617,2025-02-17 11:18:55,0.0
-11616,-2476,-3720,-6257,-2957,-2518,2025-02-17 11:18:55,0.0
-11292,-2708,-3392,-6801,-1897,-2266,2025-02-17 11:18:55,0.0
-11640,-2712,-2804,-7280,228,-1733,2025-02-17 11:18:55,0.0
-11700,-2812,-2700,-7624,1388,-1669,2025-02-17 11:18:55,0.0
-12376,-3008,-2852,-8021,1779,-1788,2025-02-17 11:18:55,0.0
-13252,-2932,-2912,-8397,1503,-1812,2025-02-17 11:18:55,0.0
-13928,-3000,-2432,-8626,1079,-1756,2025-02-17 11:18:55,0.0
-14056,-2860,-2864,-8894,197,-1683,2025-02-17 11:18:55,0.0
-14112,-2432,-2552,-9327,-1042,-1629,2025-02-17 11:18:55,0.0
-13912,-2156,-2696,-9677,-2340,-1664,2025-02-17 11:18:55,0.0
-14028,-2112,-2096,-10250,-3196,-1684,2025-02-17 11:18:55,0.0
-13312,-2112,-2016,-10775,-3765,-1834,2025-02-17 11:18:55,0.0
-12756,-2696,-2484,-11450,-3536,-1896,2025-02-17 11:18:55,0.0
-12292,-2872,-2400,-12007,-3008,-2012,2025-02-17 11:18:55,0.0
-12328,-2972,-2328,-12384,-2644,-2098,2025-02-17 11:18:55,0.0
-12504,-2900,-2420,-12994,-1974,-2154,2025-02-17 11:18:55,0.0
-12848,-3096,-2004,-12550,-1820,-2245,2025-02-17 11:18:55,0.0
-13980,-3324,-3048,-12740,-2052,-2025,2025-02-17 11:18:55,0.0
-13884,-3136,-2852,-13182,-2873,-1478,2025-02-17 11:18:55,0.0
-13716,-3900,-3392,-12923,-2966,-600,2025-02-17 11:18:55,0.0
-13408,-5700,-4976,-12326,-1363,289,2025-02-17 11:18:56,0.0
-14916,-6220,-6228,-11878,5956,1809,2025-02-17 11:18:56,0.0
-17240,-4332,-6560,-10364,21708,5462,2025-02-17 11:18:56,0.0
-15268,-5052,-7544,-10982,32767,8295,2025-02-17 11:18:56,0.0
-12200,-5404,-8296,-14875,32767,9535,2025-02-17 11:18:56,0.0
-10312,-5396,-8028,-18935,32767,8491,2025-02-17 11:18:56,0.0
-7420,-5560,-9280,-22285,32767,4708,2025-02-17 11:18:56,0.0
-6204,-6260,-10916,-24364,32767,920,2025-02-17 11:18:56,0.0
-4556,-5804,-12340,-25187,32767,-1610,2025-02-17 11:18:56,0.0
-1724,-4680,-14000,-24666,32767,-3203,2025-02-17 11:18:56,0.0
1556,-3060,-14764,-23569,32767,-4088,2025-02-17 11:18:56,0.0
4144,-1628,-15012,-22954,25743,-4922,2025-02-17 11:18:56,0.0
4540,-348,-12840,-22698,6183,-5912,2025-02-17 11:18:56,0.0
4144,184,-10424,-22562,-10216,-6793,2025-02-17 11:18:56,0.0
4132,296,-7644,-23019,-23072,-7483,2025-02-17 11:18:56,0.0
5180,-496,-816,-21794,-32768,-9263,2025-02-17 11:18:56,0.0
2724,-692,2312,-25758,-32768,-7700,2025-02-17 11:18:56,0.0
3716,-1484,2636,-26122,-32768,-6307,2025-02-17 11:18:56,0.0
2892,-1188,2780,-25883,-32768,-4855,2025-02-17 11:18:56,0.0
2216,-1056,2780,-25666,-32768,-2804,2025-02-17 11:18:56,0.0
2760,-1104,2444,-25305,-32768,-1247,2025-02-17 11:18:56,0.0
2944,-860,2532,-24736,-32768,245,2025-02-17 11:18:56,0.0
2948,-876,2536,-24176,-32768,1334,2025-02-17 11:18:56,0.0
2660,-748,2460,-23345,-32768,2605,2025-02-17 11:18:56,0.0
2700,-784,2644,-22604,-32768,3703,2025-02-17 11:18:56,0.0
2612,-672,2548,-21696,-32768,4813,2025-02-17 11:18:56,0.0
2648,-656,2640,-20620,-32768,5921,2025-02-17 11:18:56,0.0
2940,-664,2520,-19553,-32768,6819,2025-02-17 11:18:56,0.0
2848,-572,2804,-18520,-32768,7637,2025-02-17 11:18:56,0.0
2904,-596,2688,-17285,-32768,8506,2025-02-17 11:18:56,0.0
2932,-412,2768,-15988,-32768,9317,2025-02-17 11:18:56,0.0
3132,-304,2692,-14590,-32768,10123,2025-02-17 11:18:56,0.0
3140,-296,2848,-13020,-32768,10754,2025-02-17 11:18:56,0.0
3204,-324,2964,-11677,-32768,11201,2025-02-17 11:18:56,0.0
2844,-136,2772,-10007,-32768,12026,2025-02-17 11:18:56,0.0
3164,168,1840,-9131,-32768,12330,2025-02-17 11:18:56,0.0
1760,-332,4084,-8131,-32768,11416,2025-02-17 11:18:56,0.0
32767,32767,-14116,-32768,17052,-1384,2025-02-17 11:18:56,0.0
17948,32767,13580,-32768,32767,-15191,2025-02-17 11:18:56,0.0
-308,-31640,32767,-32768,32767,-32768,2025-02-17 11:18:56,0.0
-32768,12964,32767,-32768,32767,-11320,2025-02-17 11:18:56,0.0
-32768,-13880,32767,-24772,32767,4341,2025-02-17 11:18:56,0.0
-13252,-9316,11724,-5542,32767,10020,2025-02-17 11:18:56,0.0
-1536,-6084,2972,-5363,32767,7271,2025-02-17 11:18:56,0.0
-424,-3304,1096,5557,32767,-2170,2025-02-17 11:18:56,0.0
5848,-3244,-2956,15553,32767,-8407,2025-02-17 11:18:56,0.0
17380,-9236,-18464,18344,32767,-15795,2025-02-17 11:18:56,0.0
10308,-11584,-23444,11933,32767,-18740,2025-02-17 11:18:56,0.0
-4124,-5196,-23224,-386,-5949,-17000,2025-02-17 11:18:56,0.0
-10176,-492,-16148,-1186,-13863,-7200,2025-02-17 11:18:56,0.0
-11656,220,-12504,-604,-8154,3878,2025-02-17 11:18:56,0.0
-7720,-1864,-7460,847,-8738,10015,2025-02-17 11:18:56,0.0
-6804,-3108,-7104,2778,-10543,12994,2025-02-17 11:18:56,0.0
-8628,-3784,-10556,2694,-11790,15460,2025-02-17 11:18:56,0.0
-10648,-4424,-10896,1209,-13562,17411,2025-02-17 11:18:56,0.0
-11888,-3880,-10628,25,-16555,18730,2025-02-17 11:18:56,0.0
-11184,-2432,-10796,-673,-19569,17735,2025-02-17 11:18:56,0.0
-11388,-1048,-10304,-1519,-19960,14575,2025-02-17 11:18:56,0.0
-11380,1380,-7956,-1819,-18453,9334,2025-02-17 11:18:56,0.0
-11636,3692,-5620,-2387,-15039,2456,2025-02-17 11:18:56,0.0
-11404,3532,-2344,-1416,-8481,-1281,2025-02-17 11:18:56,0.0
-11196,640,-1868,101,-1831,-3045,2025-02-17 11:18:57,0.0
-13832,-1136,-3716,118,4386,-2528,2025-02-17 11:18:57,0.0
-14252,-1708,-5300,-142,8047,-1241,2025-02-17 11:18:57,0.0
-13228,-952,-6572,137,9796,-298,2025-02-17 11:18:57,0.0
-10928,-184,-7932,271,8916,-287,2025-02-17 11:18:57,0.0
-9856,-56,-7916,302,6492,-712,2025-02-17 11:18:57,0.0
-9892,-196,-8908,476,3575,-827,2025-02-17 11:18:57,0.0
-10120,-1016,-9796,90,534,-713,2025-02-17 11:18:57,0.0
-11072,-1128,-8572,-226,-1466,-83,2025-02-17 11:18:57,0.0
-11312,-892,-7752,-354,-2117,483,2025-02-17 11:18:57,0.0
-11124,-148,-6908,-400,-1736,392,2025-02-17 11:18:57,0.0
-11404,48,-6684,-178,-707,-46,2025-02-17 11:18:57,
-11680,-240,-6748,-91,593,-459,2025-02-17 11:18:57,0.0
-11608,-576,-7104,-102,1357,-446,2025-02-17 11:18:57,0.0
-11404,-572,-7472,-111,1203,-312,2025-02-17 11:18:57,0.0
-10996,-524,-7812,-188,208,-172,2025-02-17 11:18:57,0.0
-10996,-476,-7656,-191,-450,-49,2025-02-17 11:18:57,0.0
-11296,-440,-7288,-191,-377,-26,2025-02-17 11:18:57,0.0
-11456,-348,-7076,-197,72,-140,2025-02-17 11:18:57,0.0
-11292,-288,-7264,-158,483,-235,2025-02-17 11:18:57,0.0
-11220,-412,-7568,-123,536,-282,2025-02-17 11:18:57,0.0
-11204,-568,-7592,-152,255,-199,2025-02-17 11:18:57,0.0
-11208,-568,-7616,-188,12,-121,2025-02-17 11:18:57,0.0
-11304,-524,-7436,-171,-4,-108,2025-02-17 11:18:57,0.0
-11232,-340,-7288,-166,133,-165,2025-02-17 11:18:57,0.0
-11332,-396,-7216,-152,273,-243,2025-02-17 11:18:57,0.0
-11232,-460,-7392,-142,254,-209,2025-02-17 11:18:57,0.0
-11288,-456,-7524,-167,156,-179,2025-02-17 11:18:57,0.0
-11172,-400,-7548,-157,99,-134,2025-02-17 11:18:57,0.0
-11296,-436,-7460,-175,116,-164,2025-02-17 11:18:57,0.0
-11180,-448,-7384,-154,211,-183,2025-02-17 11:18:57,0.0
-11292,-516,-7388,-127,223,-218,2025-02-17 11:18:57,0.0
-11228,-492,-7660,-159,170,-159,2025-02-17 11:18:57,0.0
-11248,-436,-7508,-179,127,-155,2025-02-17 11:18:57,0.0
-11160,-468,-7296,-162,139,-134,2025-02-17 11:18:57,0.0
-11260,-452,-7412,-177,181,-190,2025-02-17 11:18:57,0.0
-11248,-468,-7480,-159,213,-178,2025-02-17 11:18:57,0.0
-11132,-476,-7460,-164,171,-185,2025-02-17 11:18:57,0.0
-11320,-420,-7392,-188,138,-160,2025-02-17 11:18:57,0.0
-11308,-444,-7424,-172,156,-166,2025-02-17 11:18:57,0.0
-11264,-468,-7396,-169,180,-164,2025-02-17 11:18:57,0.0
-11376,-440,-7316,-165,201,-190,2025-02-17 11:18:57,0.0
-11188,-464,-7416,-147,183,-173,2025-02-17 11:18:57,0.0
-11184,-484,-7332,-121,167,-181,2025-02-17 11:18:57,0.0
-11268,-492,-7388,-173,162,-142,2025-02-17 11:18:57,0.0
-11276,-384,-7380,-160,175,-163,2025-02-17 11:18:57,0.0
-11280,-388,-7388,-152,165,-180,2025-02-17 11:18:57,0.0
-11224,-456,-7472,-169,187,-183,2025-02-17 11:18:57,0.0
-11204,-484,-7436,-139,167,-166,2025-02-17 11:18:57,0.0
-11340,-488,-7496,-166,169,-175,2025-02-17 11:18:57,0.0
-11152,-460,-7424,-153,181,-159,2025-02-17 11:18:57,0.0
-11172,-440,-7364,-155,184,-167,2025-02-17 11:18:57,0.0
-11164,-400,-7396,-160,161,-190,2025-02-17 11:18:57,0.0
-11216,-512,-7444,-154,145,-162,2025-02-17 11:18:57,0.0
-11204,-496,-7352,-166,167,-175,2025-02-17 11:18:57,0.0
-11208,-352,-7432,-179,179,-189,2025-02-17 11:18:58,0.0
-11320,-476,-7324,-138,177,-165,2025-02-17 11:18:58,0.0
-11252,-452,-7480,-152,170,-161,2025-02-17 11:18:58,0.0
-11244,-520,-7472,-182,149,-175,2025-02-17 11:18:58,0.0
-11232,-428,-7452,-175,153,-195,2025-02-17 11:18:58,0.0
-11172,-488,-7368,-150,183,-175,2025-02-17 11:18:58,0.0
-11224,-424,-7348,-180,174,-183,2025-02-17 11:18:58,0.0
-11268,-500,-7412,-137,156,-168,2025-02-17 11:18:58,0.0
-11192,-428,-7512,-145,180,-171,2025-02-17 11:18:58,0.0
-11236,-464,-7324,-157,181,-174,2025-02-17 11:18:58,0.0
-11164,-496,-7452,-156,170,-177,2025-02-17 11:18:58,0.0
-11304,-456,-7528,-150,219,-189,2025-02-17 11:18:58,0.0
-11300,-464,-7416,-133,189,-169,2025-02-17 11:18:58,0.0
-11228,-452,-7396,-179,162,-185,2025-02-17 11:18:58,0.0
-11296,-532,-7272,-170,175,-178,2025-02-17 11:18:58,0.0
-11308,-444,-7580,-151,154,-193,2025-02-17 11:18:58,0.0
-11276,-444,-7500,-167,172,-161,2025-02-17 11:18:58,0.0
-11292,-476,-7344,-156,193,-192,2025-02-17 11:18:58,0.0
-11320,-480,-7368,-187,146,-165,2025-02-17 11:18:58,0.0
-11160,-540,-7484,-148,153,-156,2025-02-17 11:18:58,0.0
-11224,-372,-7456,-180,203,-160,2025-02-17 11:18:58,0.0
-11248,-396,-7484,-176,174,-146,2025-02-17 11:18:58,0.0
-11220,-480,-7372,-164,172,-162,2025-02-17 11:18:58,0.0
-11260,-488,-7316,-178,159,-182,2025-02-17 11:18:58,0.0
-11212,-468,-7464,-165,156,-185,2025-02-17 11:18:58,0.0
-11208,-424,-7460,-142,177,-162,2025-02-17 11:18:58,0.0
-11180,-452,-7412,-179,182,-181,2025-02-17 11:18:58,0.0
-11248,-452,-7388,-163,154,-172,2025-02-17 11:18:58,0.0
-11204,-448,-7440,-172,189,-172,2025-02-17 11:18:58,0.0
-11248,-468,-7384,-167,175,-162,2025-02-17 11:18:58,0.0
-11240,-424,-7380,-147,166,-192,2025-02-17 11:18:58,0.0
-11208,-420,-7448,-148,160,-189,2025-02-17 11:18:58,0.0
-11372,-384,-7332,-185,155,-181,2025-02-17 11:18:58,0.0
-11200,-364,-7408,-175,152,-193,2025-02-17 11:18:58,0.0
-11264,-460,-7556,-168,172,-177,2025-02-17 11:18:58,0.0
-11220,-420,-7368,-161,169,-169,2025-02-17 11:18:58,0.0
-11372,-484,-7444,-186,171,-188,2025-02-17 11:18:58,0.0
-11200,-500,-7340,-167,170,-186,2025-02-17 11:18:58,0.0
-11228,-552,-7296,-160,182,-161,2025-02-17 11:18:58,0.0
-11292,-376,-7352,-148,168,-156,2025-02-17 11:18:58,0.0
-11328,-436,-7512,-148,191,-189,2025-02-17 11:18:58,0.0
-11232,-360,-7488,-178,167,-197,2025-02-17 11:18:58,0.0
-11228,-420,-7392,-173,168,-194,2025-02-17 11:18:58,0.0
-11216,-344,-7472,-162,168,-176,2025-02-17 11:18:58,0.0
-11220,-400,-7504,-159,168,-184,2025-02-17 11:18:58,0.0
-11296,-512,-7372,-161,178,-163,2025-02-17 11:18:58,0.0
-11152,-468,-7536,-157,174,-175,2025-02-17 11:18:58,0.0
-11260,-428,-7484,-147,171,-169,2025-02-17 11:18:58,0.0
-11304,-496,-7360,-152,153,-161,2025-02-17 11:18:58,0.0
-11128,-440,-7436,-181,185,-169,2025-02-17 11:18:58,0.0
-11156,-448,-7452,-161,183,-174,2025-02-17 11:18:58,0.0
-11260,-456,-7612,-159,180,-165,2025-02-17 11:18:58,0.0
-11196,-476,-7612,-136,154,-160,2025-02-17 11:18:58,0.0
-11208,-420,-7380,-182,171,-177,2025-02-17 11:18:58,0.0
-11288,-416,-7284,-167,171,-174,2025-02-17 11:18:58,0.0
-11240,-428,-7444,-159,158,-149,2025-02-17 11:18:58,0.0
-11164,-564,-6892,-81,527,-185,2025-02-17 11:18:58,
-10912,-680,-8412,-307,66,-143,2025-02-17 11:18:58,0.0
-12052,-596,-7224,-55,90,78,2025-02-17 11:18:58,0.0
-10852,-300,-7676,-332,-152,-74,2025-02-17 11:18:58,0.0
-11296,-320,-7296,-121,70,-167,2025-02-17 11:18:58,0.0
-11344,-588,-7488,-253,288,-215,2025-02-17 11:18:58,0.0
-11356,-284,-7300,-58,401,-155,2025-02-17 11:18:58,0.0
-10968,-504,-7732,-56,-438,-23,2025-02-17 11:18:58,0.0
-11188,-64,-6864,696,-1609,364,2025-02-17 11:18:58,0.0
-11068,-120,-7352,1806,-2834,449,2025-02-17 11:18:59,0.0
-11228,-52,-7296,2441,-3336,93,2025-02-17 11:18:59,0.0
-11644,36,-6512,3009,-2763,-560,2025-02-17 11:18:59,0.0
-11912,592,-4476,4555,-31,-2199,2025-02-17 11:18:59,0.0
-12160,2036,-4036,8125,8118,-5325,2025-02-17 11:18:59,0.0
-11868,2500,-2768,16621,22490,-12740,2025-02-17 11:18:59,0.0
-12320,-468,-7128,23902,32767,-17497,2025-02-17 11:18:59,0.0
-11796,-4060,-12052,25397,32767,-19881,2025-02-17 11:18:59,0.0
-5800,-8152,-14104,24241,21665,-23910,2025-02-17 11:18:59,0.0
-4432,-9492,-11848,24844,12963,-28472,2025-02-17 11:18:59,0.0
-3704,-11596,-10380,22797,4722,-28602,2025-02-17 11:18:59,0.0
-5220,-10456,-8716,22084,787,-26086,2025-02-17 11:18:59,0.0
-5120,-9468,-6688,23388,4116,-25157,2025-02-17 11:18:59,0.0
-12884,-8436,-8916,25181,19725,-21696,2025-02-17 11:18:59,0.0
-7096,-12032,-10700,23889,31652,-18304,2025-02-17 11:18:59,0.0
-2400,-14588,-9316,24230,32767,-17286,2025-02-17 11:18:59,0.0
472,-16492,-7396,27159,32767,-16249,2025-02-17 11:18:59,0.0
2576,-18368,-4736,31365,32767,-15589,2025-02-17 11:18:59,0.0
2588,-20216,-3752,32767,32767,-13967,2025-02-17 11:18:59,0.0
3416,-23520,-1764,32767,32767,-11339,2025-02-17 11:18:59,0.0
3256,-26208,-632,32767,32767,-9231,2025-02-17 11:18:59,0.0
2268,-28868,-1016,32767,32767,-7174,2025-02-17 11:18:59,0.0
180,-30484,-2828,32767,32767,-2133,2025-02-17 11:18:59,0.0
1600,-31624,-3160,32396,32767,3614,2025-02-17 11:18:59,0.0
2644,-32024,-2292,27169,32767,8539,2025-02-17 11:18:59,0.0
-9680,-30620,12096,22199,32767,13281,2025-02-17 11:18:59,0.0
4588,-29336,-3432,17413,32767,15698,2025-02-17 11:18:59,0.0
3244,-25584,-1940,10489,24404,16186,2025-02-17 11:18:59,0.0
4884,-22204,-1552,6914,17583,15439,2025-02-17 11:18:59,0.0
4192,-20304,-1544,3416,12560,14056,2025-02-17 11:18:59,0.0
3460,-17656,-612,-355,9556,12319,2025-02-17 11:18:59,0.0
4460,-17364,520,-1507,6053,9355,2025-02-17 11:18:59,0.0
3740,-17956,-16,-2077,2433,7230,2025-02-17 11:18:59,0.0
3628,-19280,-260,-3248,-1412,6065,2025-02-17 11:18:59,0.0
3956,-19988,-344,-3990,-5246,4982,2025-02-17 11:18:59,0.0
3496,-19276,-652,-4310,-8795,2525,2025-02-17 11:18:59,0.0
4792,-17464,-2308,-5704,-13876,-1606,2025-02-17 11:18:59,0.0
6068,-14780,-2256,-7990,-20044,-6607,2025-02-17 11:18:59,0.0
4032,-14192,-1976,-10974,-26171,-9287,2025-02-17 11:18:59,0.0
1984,-16752,788,-12401,-30353,-8408,2025-02-17 11:18:59,0.0
1964,-16952,1488,-9973,-30255,-5635,2025-02-17 11:18:59,0.0
1468,-16520,276,-10158,-29510,-5065,2025-02-17 11:18:59,0.0
2024,-13952,-704,-10389,-29445,-6029,2025-02-17 11:18:59,0.0
-1700,-15676,1004,-10052,-28883,-3792,2025-02-17 11:18:59,0.0
-828,-21584,512,-7834,-26488,-554,2025-02-17 11:18:59,0.0
-444,-21936,-900,-9384,-23551,2574,2025-02-17 11:18:59,0.0
612,-19532,-268,-10269,-20531,4362,2025-02-17 11:18:59,0.0
2496,-17208,464,-9888,-16164,3273,2025-02-17 11:18:59,0.0
3080,-15340,664,-9810,-11909,262,2025-02-17 11:18:59,0.0
2304,-14224,1060,-9144,-7722,-1749,2025-02-17 11:18:59,0.0
1992,-14668,1688,-7570,-4296,-2363,2025-02-17 11:18:59,0.0
848,-16120,1992,-5291,-1667,-1297,2025-02-17 11:18:59,0.0
1152,-14156,3900,-454,321,173,2025-02-17 11:18:59,0.0
1304,-11944,2692,5493,2038,922,2025-02-17 11:18:59,0.0
2344,-12380,-264,5380,6695,1909,2025-02-17 11:18:59,0.0
2416,-13116,-1060,2640,8486,1341,2025-02-17 11:18:59,0.0
1864,-13084,-8,856,9677,1732,2025-02-17 11:18:59,0.0
248,-12400,732,-156,10253,2877,2025-02-17 11:18:59,0.0
1012,-11268,1464,-82,10000,4305,2025-02-17 11:18:59,0.0
1316,-10380,1608,383,9473,4880,2025-02-17 11:18:59,0.0
1432,-10664,1564,429,8891,5343,2025-02-17 11:18:59,0.0
1896,-11236,372,-595,8359,5018,2025-02-17 11:19:00,0.0
1920,-10272,-140,-2871,7889,4806,2025-02-17 11:19:00,0.0
1876,-10624,-356,-5357,7249,4588,2025-02-17 11:19:00,0.0
1704,-10680,384,-7543,6292,4908,2025-02-17 11:19:00,0.0
2180,-10708,1832,-8287,3762,5601,2025-02-17 11:19:00,0.0
8780,-10244,20144,3954,60,869,2025-02-17 11:19:00,0.0
5424,-12584,7588,10754,-3646,-1418,2025-02-17 11:19:00,0.0
-352,-13972,-7904,1036,-8108,1695,2025-02-17 11:19:00,0.0
-236,-11140,-2720,-4570,-7307,4937,2025-02-17 11:19:00,0.0
-4508,-11732,-6368,-9738,-12145,7734,2025-02-17 11:19:00,0.0
-5512,-11024,-4672,-12609,-14419,11783,2025-02-17 11:19:00,0.0
-2020,-11772,-6816,-15085,-15822,12165,2025-02-17 11:19:00,0.0
-6244,-10788,-1920,-14353,-20781,12722,2025-02-17 11:19:00,0.0
-6192,-11644,220,-10829,-21869,15251,2025-02-17 11:19:00,0.0
-7200,-12456,2304,-7346,-20118,18094,2025-02-17 11:19:00,0.0
-7252,-12412,1740,-5151,-18081,21170,2025-02-17 11:19:00,0.0
-6488,-13148,820,-4162,-18303,23966,2025-02-17 11:19:00,0.0
-6528,-13400,-24,-3712,-20680,25939,2025-02-17 11:19:00,0.0
-6768,-12980,-372,-3126,-23352,26866,2025-02-17 11:19:00,0.0
-7184,-11724,300,-1303,-24897,26658,2025-02-17 11:19:00,0.0
-6512,-11980,-1596,322,-23207,24950,2025-02-17 11:19:00,0.0
-8708,-11356,-1560,1769,-16730,22890,2025-02-17 11:19:00,0.0
-10356,-9960,-1864,2396,-5692,21681,2025-02-17 11:19:00,0.0
-10500,-8992,-2768,2016,6431,21481,2025-02-17 11:19:00,0.0
-9504,-8156,-4352,-385,17857,21090,2025-02-17 11:19:00,0.0
-8836,-7964,-4300,-3242,28746,19857,2025-02-17 11:19:00,0.0
-9072,-9504,-3628,-5302,32767,18448,2025-02-17 11:19:00,0.0
-10032,-11040,-3352,-6232,32767,17463,2025-02-17 11:19:00,0.0
-12168,-11388,-6912,-8187,32767,18109,2025-02-17 11:19:00,0.0
-10608,-11628,-8380,-11937,32767,18762,2025-02-17 11:19:00,0.0
-9260,-11812,-9740,-15550,32767,15937,2025-02-17 11:19:00,
-9324,-10400,-9932,-17659,32767,12094,2025-02-17 11:19:00,0.0
-9260,-8036,-10064,-18156,29235,8585,2025-02-17 11:19:00,0.0
-8064,-6320,-9724,-17391,18708,5433,2025-02-17 11:19:00,0.0
-7352,-5088,-8780,-16016,7053,3023,2025-02-17 11:19:00,0.0
-6224,-4636,-8724,-15041,-4124,948,2025-02-17 11:19:00,0.0
-13096,-6308,-3380,-14551,-16225,-410,2025-02-17 11:19:00,0.0
-10608,-3728,-9716,-14394,-18939,67,2025-02-17 11:19:00,0.0
-7032,-2604,-10168,-12319,-21757,26,2025-02-17 11:19:00,0.0
-5528,-2448,-9792,-10206,-28753,-391,2025-02-17 11:19:00,0.0
-3908,-2532,-10692,-9241,-32768,-781,2025-02-17 11:19:00,0.0
-6944,-1984,-11548,-8451,-32768,248,2025-02-17 11:19:00,0.0
-9944,-1876,-8116,-7479,-32768,1838,2025-02-17 11:19:00,0.0
-10928,-3424,-3556,-6418,-32768,801,2025-02-17 11:19:00,0.0
-18904,-5436,8088,-7327,-32768,-1545,2025-02-17 11:19:00,0.0
-16896,-2564,3960,-6747,-15320,1697,2025-02-17 11:19:00,0.0
-10360,-976,-2916,-6201,-3520,2813,2025-02-17 11:19:00,0.0
-8136,-2016,-4540,-5615,3703,-246,2025-02-17 11:19:00,0.0
-11672,-2152,-5664,-6722,7051,-2190,2025-02-17 11:19:00,0.0
-14560,-2632,3240,-7373,3022,-1782,2025-02-17 11:19:00,0.0
-16660,-2652,972,-4957,176,-13,2025-02-17 11:19:00,0.0
-14956,-2164,-908,-5391,-1875,922,2025-02-17 11:19:00,0.0
-12576,-1844,-756,-5338,-3348,340,2025-02-17 11:19:00,0.0
-12844,-1356,-1600,-4388,-4321,354,2025-02-17 11:19:00,0.0
-13088,-984,-1824,-5483,-2081,204,2025-02-17 11:19:00,0.0
-12612,-4,-1524,-6795,2095,88,2025-02-17 11:19:00,0.0
-11420,2072,-3292,-9314,5203,-719,2025-02-17 11:19:00,0.0
-11044,1932,-3216,-8233,6004,-1914,2025-02-17 11:19:00,0.0
-11960,1432,-4908,-8758,7292,-3000,2025-02-17 11:19:00,0.0
-13076,1000,-3300,-8969,8531,-3588,2025-02-17 11:19:00,0.0
-13524,1120,-2768,-9163,6819,-2927,2025-02-17 11:19:01,0.0
-13620,1124,-2744,-10045,4110,-2532,2025-02-17 11:19:01,0.0
-13828,1188,-3000,-11147,2441,-2954,2025-02-17 11:19:01,0.0
-14556,1024,-3912,-12193,1352,-3095,2025-02-17 11:19:01,0.0
-14636,1028,-3892,-12878,576,-2720,2025-02-17 11:19:01,0.0
-14168,640,-3728,-12980,-358,-2634,2025-02-17 11:19:01,0.0
-14112,244,-4036,-13658,-800,-2458,2025-02-17 11:19:01,0.0
-12896,92,-3840,-15001,309,-2764,2025-02-17 11:19:01,0.0
-11640,-384,-3744,-16182,2150,-3483,2025-02-17 11:19:01,0.0
-12608,-784,-3168,-16690,4369,-3894,2025-02-17 11:19:01,0.0
-12960,-480,-3092,-16739,6587,-3743,2025-02-17 11:19:01,0.0
-12932,-376,-3948,-16869,8053,-3875,2025-02-17 11:19:01,0.0
-13356,-144,-4788,-18049,8125,-4348,2025-02-17 11:19:01,0.0
-13432,220,-4704,-19131,7287,-4724,2025-02-17 11:19:01,0.0
-12988,360,-3560,-19918,6424,-5264,2025-02-17 11:19:01,0.0
-13460,4,-3524,-18388,5030,-5139,2025-02-17 11:19:01,0.0
-13500,-316,-2812,-16018,2503,-4405,2025-02-17 11:19:01,0.0
-13148,-344,-3392,-14388,995,-3776,2025-02-17 11:19:01,0.0
-12092,56,-2852,-14084,681,-4214,2025-02-17 11:19:01,0.0
-12236,-84,-3924,-14891,1286,-4853,2025-02-17 11:19:01,0.0
-12900,-832,-3320,-15697,2645,-5024,2025-02-17 11:19:01,0.0
-12120,-1552,-4568,-16698,3986,-5159,2025-02-17 11:19:01,0.0
-12676,-2068,-4316,-16825,4872,-5198,2025-02-17 11:19:01,0.0
-13040,-2500,-3540,-16215,5040,-4522,2025-02-17 11:19:01,0.0
-13436,-2744,-3260,-15300,4860,-3786,2025-02-17 11:19:01,0.0
-13784,-3120,-2932,-14201,4021,-3353,2025-02-17 11:19:01,0.0
-13684,-3000,-3008,-13641,3207,-3704,2025-02-17 11:19:01,0.0
-13716,-1756,-1872,-12650,2219,-4225,2025-02-17 11:19:01,0.0
-14288,156,-1928,-11532,446,-3735,2025-02-17 11:19:01,0.0
-13052,1292,-2116,-11375,-539,-3558,2025-02-17 11:19:01,0.0
-11932,448,-2628,-10863,-258,-4309,2025-02-17 11:19:01,0.0
-11968,-1680,-2520,-10078,577,-4911,2025-02-17 11:19:01,0.0
-12744,-2708,-2204,-8733,991,-4991,2025-02-17 11:19:01,0.0
-12740,-1500,-1564,-7897,638,-4903,2025-02-17 11:19:01,0.0
-12920,524,-1596,-7297,636,-4860,2025-02-17 11:19:01,0.0
-13444,1224,-1856,-6681,1526,-4230,2025-02-17 11:19:01,0.0
-13812,520,-2008,-5989,2211,-3499,2025-02-17 11:19:01,0.0
-14536,-768,-2332,-5340,1996,-2424,2025-02-17 11:19:01,0.0
-14504,-788,-2152,-4911,676,-1555,2025-02-17 11:19:01,0.0
-14068,164,-2088,-4391,-278,-1157,2025-02-17 11:19:01,0.0
-13672,428,-1764,-4049,-166,-1009,2025-02-17 11:19:01,0.0
-13748,532,-1348,-3712,-252,-736,2025-02-17 11:19:01,0.0
-14272,944,-628,-3241,-721,-250,2025-02-17 11:19:01,0.0
-14688,1544,-2092,-2819,-619,262,2025-02-17 11:19:01,0.0
-15288,1784,-4060,-3029,443,391,2025-02-17 11:19:01,0.0
-16576,2568,-5316,-3252,2461,176,2025-02-17 11:19:01,0.0
-17736,4068,-5656,-3290,3615,524,2025-02-17 11:19:01,0.0
-17484,4468,-6144,-3704,4682,564,2025-02-17 11:19:01,0.0
-17140,3668,-6332,-4170,4957,82,2025-02-17 11:19:01,0.0
-15164,3584,-6708,-4987,4455,-799,2025-02-17 11:19:01,0.0
-12756,3652,-7000,-5178,2576,-1328,2025-02-17 11:19:01,0.0
-10824,3496,-7360,-4583,396,-2265,2025-02-17 11:19:01,0.0
-8392,2520,-9324,-4835,-3518,-3813,2025-02-17 11:19:01,0.0
-6616,304,-8072,-4673,-5010,-5857,2025-02-17 11:19:01,0.0
-7328,184,-7360,-5785,-1953,-7895,2025-02-17 11:19:01,0.0
-8048,188,-7688,-7138,1176,-8580,2025-02-17 11:19:01,0.0
-8504,-136,-6088,-6289,1221,-8496,2025-02-17 11:19:01,0.0
-9012,908,-8844,-6589,548,-8617,2025-02-17 11:19:01,0.0
-9092,1108,-6892,-6910,1105,-9209,2025-02-17 11:19:01,0.0
-9568,564,-7400,-6913,2181,-9556,2025-02-17 11:19:01,0.0
-10404,-744,-7536,-7455,2260,-9116,2025-02-17 11:19:01,0.0
-11456,-1752,-7232,-7438,1653,-8084,2025-02-17 11:19:01,0.0
-12156,-2012,-7152,-7565,899,-6886,2025-02-17 11:19:01,0.0
-11820,-1652,-7736,-7755,527,-6393,2025-02-17 11:19:01,0.0
-11604,-1396,-7512,-7647,471,-6490,2025-02-17 11:19:01,0.0
-11940,-1336,-6732,-7229,1206,-6854,2025-02-17 11:19:01,0.0
-12344,-1512,-5340,-7040,-22,-7123,2025-02-17 11:19:02,0.0
-11896,-1628,-5056,-6851,-1646,-7245,2025-02-17 11:19:02,0.0
-11728,-2264,-4980,-6514,-2242,-7453,2025-02-17 11:19:02,0.0
-12056,-2432,-5264,-6564,-2088,-6915,2025-02-17 11:19:02,0.0
-11996,-2704,-5592,-6952,-1148,-5986,2025-02-17 11:19:02,
-11644,-2628,-4332,-7036,-59,-4987,2025-02-17 11:19:02,0.0
-11628,-2596,-4084,-6252,148,-4193,2025-02-17 11:19:02,0.0
-11356,-2516,-3828,-5961,-74,-3598,2025-02-17 11:19:02,0.0
-11240,-2856,-3000,-5388,-212,-3064,2025-02-17 11:19:02,0.0
-11348,-3284,-2888,-4814,-3,-2440,2025-02-17 11:19:02,0.0
-11872,-3204,-3204,-4437,1194,-1285,2025-02-17 11:19:02,0.0
-11668,-3316,-3616,-4177,2445,-646,2025-02-17 11:19:02,0.0
-12280,-2888,-4380,-4162,2859,-569,2025-02-17 11:19:02,0.0
-13140,-2060,-4288,-4164,2485,-613,2025-02-17 11:19:02,0.0
-13812,-1044,-4376,-4277,1610,-656,2025-02-17 11:19:02,0.0
-13724,-876,-5072,-4103,682,-1165,2025-02-17 11:19:02,0.0
-13748,-1484,-5500,-4221,-774,-1712,2025-02-17 11:19:02,0.0
-13912,-1620,-4844,-4122,-2344,-2045,2025-02-17 11:19:02,0.0
-13176,-816,-3788,-3449,-4255,-2606,2025-02-17 11:19:02,0.0
-12740,-132,-3256,-2869,-5589,-3704,2025-02-17 11:19:02,0.0
-13132,-188,-2792,-3096,-6243,-4622,2025-02-17 11:19:02,0.0
-13184,-1300,-3468,-4162,-6768,-4939,2025-02-17 11:19:02,0.0
-12756,-3156,-6772,-6196,-5472,-5078,2025-02-17 11:19:02,0.0
-14020,-4960,-6388,-6942,-1694,-4734,2025-02-17 11:19:02,0.0
-15240,-7228,-7624,-6336,2612,-4616,2025-02-17 11:19:02,0.0
-18188,-8364,-9856,-5172,4212,-4210,2025-02-17 11:19:02,0.0
-19008,-7860,-10112,-4872,2748,-2608,2025-02-17 11:19:02,0.0
-16328,-6832,-8732,-4385,-720,-2012,2025-02-17 11:19:02,0.0
-14252,-4304,-8792,-3542,-4369,-898,2025-02-17 11:19:02,0.0
-11772,-2032,-9760,-3376,-5299,423,2025-02-17 11:19:02,0.0
-8848,-252,-9512,-3539,-4509,1103,2025-02-17 11:19:02,0.0
-7820,1136,-7652,-3115,-2420,1078,2025-02-17 11:19:02,0.0
-8852,1324,-6068,-1529,-42,1121,2025-02-17 11:19:02,0.0
-10428,1060,-6504,107,1034,1911,2025-02-17 11:19:02,0.0
-11744,416,-6596,1094,1664,2709,2025-02-17 11:19:02,0.0
-12560,-1044,-7020,1140,2266,3625,2025-02-17 11:19:02,0.0
-12512,-2572,-7240,977,2196,4510,2025-02-17 11:19:02,0.0
-11788,-3276,-6896,1061,1281,5052,2025-02-17 11:19:02,0.0
-10392,-2924,-7000,1369,1051,4993,2025-02-17 11:19:02,0.0
-10136,-1992,-5972,1957,936,4437,2025-02-17 11:19:02,0.0
-9960,-2228,-5164,2652,959,4160,2025-02-17 11:19:02,0.0
-9164,-2328,-5632,3312,1487,4138,2025-02-17 11:19:02,0.0
-9516,-2928,-5332,3928,2415,4335,2025-02-17 11:19:02,0.0
-10480,-3824,-4332,5156,3788,5032,2025-02-17 11:19:02,0.0
-11036,-3600,-5284,6661,4944,6324,2025-02-17 11:19:02,0.0
-10912,-2468,-6780,7132,4505,6784,2025-02-17 11:19:02,0.0
-10652,-1052,-6672,7511,3331,6427,2025-02-17 11:19:02,0.0
-11880,-24,-5352,8274,2222,5909,2025-02-17 11:19:02,0.0
-10412,824,-6784,9238,1683,5153,2025-02-17 11:19:02,0.0
-10572,448,-7068,10385,1172,4557,2025-02-17 11:19:02,0.0
-10956,364,-7212,11359,711,4387,2025-02-17 11:19:02,0.0
-11380,180,-7048,12333,694,4466,2025-02-17 11:19:02,0.0
-12140,-52,-7192,13319,732,4876,2025-02-17 11:19:02,0.0
-13148,-412,-7256,14329,556,5735,2025-02-17 11:19:02,0.0
-13004,-1600,-7432,15072,-80,6774,2025-02-17 11:19:02,0.0
-12756,-1600,-7372,15545,-533,7442,2025-02-17 11:19:02,0.0
-11980,-1152,-7860,15570,-475,7769,2025-02-17 11:19:02,0.0
-11968,-380,-6780,15776,-789,7927,2025-02-17 11:19:02,0.0
-11724,100,-6376,16291,-1074,7736,2025-02-17 11:19:02,0.0
-12528,100,-6244,16902,-1078,7876,2025-02-17 11:19:02,0.0
-11796,-88,-6548,17725,-1479,8088,2025-02-17 11:19:02,0.0
-11308,-488,-5980,18395,-2053,7987,2025-02-17 11:19:03,0.0
-10700,-1092,-6272,18819,-1488,8487,2025-02-17 11:19:03,0.0
-9924,-1820,-5932,19160,-809,8341,2025-02-17 11:19:03,0.0
-9336,-2156,-5860,19394,-672,7828,2025-02-17 11:19:03,0.0
-9632,-2200,-6336,20027,-853,7285,2025-02-17 11:19:03,0.0
-11044,1232,-8616,19439,-350,7516,2025-02-17 11:19:03,0.0
-10836,2832,-9100,20284,453,7912,2025-02-17 11:19:03,0.0
-9812,3832,-10504,18493,1229,7194,2025-02-17 11:19:03,0.0
-11792,-288,-9320,18610,2236,6575,2025-02-17 11:19:03,0.0
-12760,-2568,-8704,19048,3734,7305,2025-02-17 11:19:03,0.0
-13888,-3104,-8292,18789,4590,8223,2025-02-17 11:19:03,0.0
-12492,-1948,-7484,17989,4466,8504,2025-02-17 11:19:03,0.0
-11084,-76,-8308,17092,2761,8348,2025-02-17 11:19:03,0.0
-9660,-432,-7332,17094,908,7592,2025-02-17 11:19:03,0.0
-9548,-1156,-7044,18349,844,7150,2025-02-17 11:19:03,0.0
-10920,-1960,-7492,17716,3436,6420,2025-02-17 11:19:03,0.0
-12624,-3456,-6924,15876,5811,6597,2025-02-17 11:19:03,0.0
-13308,-5556,-6180,15213,5265,7249,2025-02-17 11:19:03,0.0
-13652,-6096,-5920,15660,2796,7670,2025-02-17 11:19:03,0.0
-13708,-5256,-5764,16075,508,7954,2025-02-17 11:19:03,0.0
-13288,-4408,-5824,16484,-844,8114,2025-02-17 11:19:03,0.0
-12336,-4196,-6444,16759,-723,8742,2025-02-17 11:19:03,0.0
-11480,-4084,-6232,16819,36,9059,2025-02-17 11:19:03,0.0
-11644,-3748,-5868,16529,764,9429,2025-02-17 11:19:03,0.0
-12232,-3432,-4984,16430,315,9854,2025-02-17 11:19:03,0.0
-11980,-3224,-5232,16553,-1041,10122,2025-02-17 11:19:03,0.0
-11472,-3224,-5496,16572,-2290,10020,2025-02-17 11:19:03,0.0
-10804,-3612,-6064,16280,-2601,9734,2025-02-17 11:19:03,0.0
-10788,-3908,-5744,16521,-2219,9589,2025-02-17 11:19:03,0.0
-10596,-3776,-6168,15943,-1260,9238,2025-02-17 11:19:03,0.0
-11188,-3652,-5984,15325,-401,8911,2025-02-17 11:19:03,0.0
-11684,-3472,-6536,14713,69,8705,2025-02-17 11:19:03,0.0
-11564,-3232,-6620,14709,146,8689,2025-02-17 11:19:03,0.0
-12016,-2768,-6192,14711,238,8528,2025-02-17 11:19:03,0.0
-12408,-1772,-5880,14171,684,8233,2025-02-17 11:19:03,0.0
-12668,-1208,-5660,13416,559,8054,2025-02-17 11:19:03,0.0
-12244,-1420,-5656,12931,141,7787,2025-02-17 11:19:03,0.0
-12044,-2240,-6376,13209,-229,7602,2025-02-17 11:19:03,0.0
-11496,-3192,-7552,13898,459,7577,2025-02-17 11:19:03,0.0
-11168,-3996,-8652,14602,1597,7899,2025-02-17 11:19:03,0.0
-10868,-4924,-8860,14771,2881,7964,2025-02-17 11:19:03,0.0
-11344,-3316,-8120,15277,4842,8313,2025-02-17 11:19:03,0.0
-12228,728,-7188,15375,6129,9311,2025-02-17 11:19:03,0.0
-10648,2048,-7736,14661,3985,9497,2025-02-17 11:19:03,
-9928,2524,-7832,14361,-375,8697,2025-02-17 11:19:03,0.0
-11288,2420,-7280,13356,-822,8027,2025-02-17 11:19:03,0.0
-11412,1008,-6308,12121,264,7364,2025-02-17 11:19:03,0.0
-12384,-228,-6224,11963,248,7118,2025-02-17 11:19:03,0.0
-12460,-936,-6472,12483,-131,6898,2025-02-17 11:19:03,0.0
-12500,-1348,-6480,13485,-217,6736,2025-02-17 11:19:03,0.0
-12408,-1288,-6744,14921,-751,6748,2025-02-17 11:19:03,0.0
-12232,-668,-7732,15268,-1377,7363,2025-02-17 11:19:03,0.0
-12088,-24,-7660,14667,-1413,8415,2025-02-17 11:19:03,0.0
-11820,0,-6900,14439,-1143,9368,2025-02-17 11:19:03,0.0
-11808,76,-6728,14725,-1096,10222,2025-02-17 11:19:03,0.0
-12172,304,-6840,14728,-1446,11130,2025-02-17 11:19:03,0.0
-11712,620,-6832,15232,-2345,11488,2025-02-17 11:19:03,0.0
-11320,1264,-7264,15847,-3457,10999,2025-02-17 11:19:03,0.0
-10456,2120,-7152,15819,-4504,9626,2025-02-17 11:19:03,0.0
-9656,1624,-6500,14659,-3170,3239,2025-02-17 11:19:03,0.0
-9760,1156,-6540,14104,-1444,2919,2025-02-17 11:19:03,0.0
-9948,1308,-6440,13796,-211,2712,2025-02-17 11:19:04,0.0
-10072,2200,-6784,13414,655,2528,2025-02-17 11:19:04,0.0
-9892,3084,-6992,12687,1166,1767,2025-02-17 11:19:04,0.0
-10136,3432,-6768,11902,1244,652,2025-02-17 11:19:04,0.0
-10744,3036,-6212,11426,1525,-91,2025-02-17 11:19:04,0.0
-11512,1696,-6508,10778,2876,-745,2025-02-17 11:19:04,0.0
-12860,-200,-8448,9616,5130,-1159,2025-02-17 11:19:04,0.0
-14000,-708,-8328,8304,6359,-956,2025-02-17 11:19:04,0.0
-14548,56,-7868,7621,5246,16,2025-02-17 11:19:04,0.0
-13320,1208,-6296,7142,3332,956,2025-02-17 11:19:04,0.0
-10676,1576,-6392,7074,2266,501,2025-02-17 11:19:04,0.0
-9792,1296,-7312,6484,2220,-763,2025-02-17 11:19:04,0.0
-10836,388,-6480,5335,3119,-1390,2025-02-17 11:19:04,0.0
-12348,-440,-5452,4469,4166,-1083,2025-02-17 11:19:04,0.0
-14640,-1276,-4804,3397,3823,1268,2025-02-17 11:19:04,0.0
-14708,-1628,-4720,3428,1903,2004,2025-02-17 11:19:04,0.0
-14508,-2312,-4868,3600,675,2454,2025-02-17 11:19:04,0.0
-13752,-2656,-5216,3761,-374,2632,2025-02-17 11:19:04,0.0
-12980,-2764,-6000,3444,-905,2690,2025-02-17 11:19:04,0.0
-12188,-2500,-5968,2836,-709,2847,2025-02-17 11:19:04,0.0
-12236,-2000,-4504,2698,-407,3036,2025-02-17 11:19:04,0.0
-11732,-1704,-4332,2574,-1023,3347,2025-02-17 11:19:04,0.0
-11080,-1964,-5016,2151,-1536,3067,2025-02-17 11:19:04,0.0
-10996,-1828,-5012,1799,-1313,2651,2025-02-17 11:19:04,0.0
-11732,-1840,-4892,1721,-1344,2887,2025-02-17 11:19:04,0.0
-11668,-1148,-5572,1133,-762,3848,2025-02-17 11:19:04,0.0
-11312,-1256,-5204,884,-984,3759,2025-02-17 11:19:04,0.0
-11912,-1376,-4960,1133,-1515,3933,2025-02-17 11:19:04,0.0
-11100,-1984,-6344,1089,-1433,3563,2025-02-17 11:19:04,0.0
-11056,-1660,-6544,1829,-48,2477,2025-02-17 11:19:04,0.0
-11608,-1160,-7992,2937,4227,620,2025-02-17 11:19:04,0.0
-12732,-868,-8052,3227,4696,-967,2025-02-17 11:19:04,0.0
-13844,884,-8016,3097,706,-14,2025-02-17 11:19:04,0.0
-12620,2364,-7564,1423,-1341,-148,2025-02-17 11:19:04,0.0
-12684,2476,-6704,268,-1995,160,2025-02-17 11:19:04,0.0
-12056,392,-6988,-138,-2336,717,2025-02-17 11:19:04,0.0
-11736,-1248,-6916,-181,-994,808,2025-02-17 11:19:04,0.0
-11984,-1912,-5584,-61,401,530,2025-02-17 11:19:04,0.0
-12448,-1300,-4268,198,-22,519,2025-02-17 11:19:04,0.0
-12172,-916,-4684,239,-1113,575,2025-02-17 11:19:04,0.0
-11636,-336,-5112,-97,-1127,589,2025-02-17 11:19:04,0.0
-10960,-372,-5388,-218,303,614,2025-02-17 11:19:04,0.0
-11136,-204,-5776,-55,2115,453,2025-02-17 11:19:04,0.0
-11824,-204,-6692,353,2971,501,2025-02-17 11:19:04,0.0
-12464,732,-6676,-473,3018,476,2025-02-17 11:19:04,0.0
-12420,1044,-6696,-973,1713,45,2025-02-17 11:19:04,0.0
-11852,1236,-7028,-1727,-416,-560,2025-02-17 11:19:04,0.0
-11492,748,-6036,-1644,-1070,-1215,2025-02-17 11:19:04,0.0
-11664,460,-5216,-1502,-405,-1472,2025-02-17 11:19:04,0.0
-11868,168,-5120,-1372,443,-1589,2025-02-17 11:19:04,0.0
-12512,124,-5028,-1066,778,-1532,2025-02-17 11:19:04,0.0
-12412,416,-6076,-959,150,-1434,2025-02-17 11:19:04,0.0
-11736,708,-6672,-1113,-48,-1843,2025-02-17 11:19:04,0.0
-12116,168,-5836,-1082,436,-2178,2025-02-17 11:19:04,0.0
-11772,-404,-6572,-1042,-171,-2276,2025-02-17 11:19:04,0.0
-11700,-1392,-6984,-811,-1777,-2412,2025-02-17 11:19:04,0.0
-11420,-1936,-6528,-560,-2590,-2095,2025-02-17 11:19:04,0.0
-11188,-2660,-6352,-626,-1767,-1800,2025-02-17 11:19:05,0.0
-10824,-2640,-6144,-1224,1015,-2106,2025-02-17 11:19:05,0.0
-11760,-2148,-5604,-1427,2785,-2739,2025-02-17 11:19:05,0.0
-12604,-1432,-5156,-1735,3007,-2955,2025-02-17 11:19:05,0.0
-12640,-1064,-4800,-2001,2438,-3481,2025-02-17 11:19:05,0.0
-12540,-1388,-4988,-2089,1998,-4124,2025-02-17 11:19:05,0.0
-12240,-1780,-4972,-2159,1667,-4496,2025-02-17 11:19:05,0.0
-12332,-2012,-4432,-2013,983,-4245,2025-02-17 11:19:05,0.0
-12276,-2328,-4604,-1594,-245,-3461,2025-02-17 11:19:05,0.0
-12180,-2536,-4344,-1318,-726,-2817,2025-02-17 11:19:05,0.0
-12212,-3008,-3900,-1231,-1439,-2156,2025-02-17 11:19:05,0.0
-11624,-3332,-4332,-1242,-1743,-1550,2025-02-17 11:19:05,0.0
-11004,-2948,-3436,-1115,-1322,-1218,2025-02-17 11:19:05,0.0
-10940,-2456,-3852,-1154,573,-1223,2025-02-17 11:19:05,0.0
-11716,-2516,-3676,-1275,3206,-1249,2025-02-17 11:19:05,0.0
-12484,-2440,-3520,-1105,4216,-1506,2025-02-17 11:19:05,0.0
-13576,-2552,-3476,-700,3696,-1650,2025-02-17 11:19:05,0.0
-14416,-2032,-2760,-542,2037,-1410,2025-02-17 11:19:05,0.0
-14592,-1100,-2236,-703,475,-1118,2025-02-17 11:19:05,0.0
-14644,-596,-2596,-826,-820,-519,2025-02-17 11:19:05,0.0
-14376,-596,-2920,-1053,-1456,109,2025-02-17 11:19:05,0.0
-13760,-396,-2580,-1205,-2062,460,2025-02-17 11:19:05,0.0
-12868,-580,-1388,-1240,-3372,-62,2025-02-17 11:19:05,0.0
-12636,-1180,-1556,-1551,-4105,-1072,2025-02-17 11:19:05,0.0
-13212,-1896,-1912,-1629,-3861,-1650,2025-02-17 11:19:05,0.0
-13548,-2428,-2036,-1826,-3299,-1458,2025-02-17 11:19:05,
-13316,-3092,-2224,-2022,-2749,-1165,2025-02-17 11:19:05,0.0
-12956,-3636,-2616,-2435,-2669,-1205,2025-02-17 11:19:05,0.0
-11596,-4888,-6212,-3211,-1670,-1929,2025-02-17 11:19:05,0.0
-11512,-3952,-7408,-3225,1594,-3217,2025-02-17 11:19:05,0.0
-12216,-4140,-6488,-2365,6228,-4233,2025-02-17 11:19:05,0.0
-14340,-4332,-7096,-2114,8164,-4740,2025-02-17 11:19:05,0.0
-16256,-4492,-9892,-1537,8298,-4339,2025-02-17 11:19:05,0.0
-18868,-6132,-13544,-2237,8387,-3569,2025-02-17 11:19:05,0.0
-19252,-5516,-14468,-4234,6786,-1482,2025-02-17 11:19:05,0.0
-17284,-4008,-11420,-4019,-546,1510,2025-02-17 11:19:05,0.0
-13948,-2304,-9428,-2890,-8096,3672,2025-02-17 11:19:05,0.0
-10772,-332,-8712,-2482,-10221,4889,2025-02-17 11:19:05,0.0
-8172,1064,-6500,-2144,-9149,5103,2025-02-17 11:19:05,0.0
-7348,1376,-4388,-1264,-5421,4320,2025-02-17 11:19:05,0.0
-8120,1764,-5200,-443,4,3883,2025-02-17 11:19:05,0.0
-8792,616,-6148,1,1909,3721,2025-02-17 11:19:05,0.0
-9992,-744,-6832,704,1425,3898,2025-02-17 11:19:05,0.0
-11288,-1340,-7772,1084,1566,4590,2025-02-17 11:19:05,0.0
-11476,-1320,-6560,1268,2553,5453,2025-02-17 11:19:05,0.0
-11052,-1296,-5876,1569,2943,5152,2025-02-17 11:19:05,0.0
-11228,-448,-6496,1322,2236,4530,2025-02-17 11:19:05,0.0
-11128,-200,-6392,977,989,4130,2025-02-17 11:19:05,0.0
-10600,356,-6212,793,-785,4088,2025-02-17 11:19:05,0.0
-9152,836,-5320,1086,-2117,3928,2025-02-17 11:19:05,0.0
-7772,1592,-5160,1762,-2669,3194,2025-02-17 11:19:05,0.0
-7380,1700,-5396,2105,-1726,2614,2025-02-17 11:19:05,0.0
-7924,1344,-4844,2215,-153,2121,2025-02-17 11:19:05,0.0
-9140,996,-4464,2265,975,1553,2025-02-17 11:19:05,0.0
-9740,656,-4868,2061,2009,972,2025-02-17 11:19:05,0.0
-10752,304,-4928,1816,2673,126,2025-02-17 11:19:05,0.0
-11808,480,-5492,1501,2457,-451,2025-02-17 11:19:05,0.0
-13084,812,-5320,1101,1372,-832,2025-02-17 11:19:05,0.0
-13380,1756,-5432,795,373,-1055,2025-02-17 11:19:05,0.0
-13432,1668,-5048,795,-410,-1405,2025-02-17 11:19:05,0.0
-13744,696,-4208,1042,-1297,-1527,2025-02-17 11:19:05,0.0
-13852,-408,-3896,1277,-2368,-1356,2025-02-17 11:19:05,0.0
-14132,-676,-3388,1658,-2947,-690,2025-02-17 11:19:05,0.0
-13648,-624,-3832,1847,-3916,79,2025-02-17 11:19:06,0.0
-13112,-656,-4492,2161,-4583,806,2025-02-17 11:19:06,0.0
-12704,-748,-4872,2457,-3952,1217,2025-02-17 11:19:06,0.0
-14116,-1688,-3540,3098,-768,1842,2025-02-17 11:19:06,0.0
-15304,-2404,-2112,4116,713,3145,2025-02-17 11:19:06,0.0
-15732,-2328,-1064,5247,60,4454,2025-02-17 11:19:06,0.0
-14204,-1144,-2968,6320,-1616,4940,2025-02-17 11:19:06,0.0
-13320,-280,-7276,6236,-1610,5190,2025-02-17 11:19:06,0.0
-13512,2624,-9144,5943,1015,5270,2025-02-17 11:19:06,0.0
-14828,5204,-10632,5394,4455,4921,2025-02-17 11:19:06,0.0
-16820,5740,-11020,4580,7472,3828,2025-02-17 11:19:06,0.0
-17816,6476,-12384,3629,5403,2421,2025-02-17 11:19:06,0.0
-15788,4720,-11764,2848,-1371,891,2025-02-17 11:19:06,0.0
-13132,2368,-9148,3162,-9246,-769,2025-02-17 11:19:06,0.0
-10316,276,-7588,3856,-12399,-1568,2025-02-17 11:19:06,0.0
-7392,-1476,-6808,3974,-12918,-1604,2025-02-17 11:19:06,0.0
-5764,-3252,-5108,3634,-12035,-1084,2025-02-17 11:19:06,0.0
-4304,-3728,-4632,2572,-9124,-856,2025-02-17 11:19:06,0.0
-4856,-2840,-4728,1176,-3633,-1012,2025-02-17 11:19:06,0.0
-6984,-1828,-5132,-11,4947,-1115,2025-02-17 11:19:06,0.0
-10000,-412,-5500,-1320,10741,-1920,2025-02-17 11:19:06,0.0
-12932,352,-4724,-1320,10511,-2980,2025-02-17 11:19:06,0.0
-15264,492,-5552,-830,6272,-3993,2025-02-17 11:19:06,0.0
-15948,492,-7336,-928,1410,-4665,2025-02-17 11:19:06,0.0
-15632,80,-8156,-1283,-3225,-4363,2025-02-17 11:19:06,0.0
-11704,88,-8852,-2012,-5444,-3781,2025-02-17 11:19:06,0.0
-10188,-24,-7900,-3357,-4222,-4483,2025-02-17 11:19:06,0.0
-10104,-684,-6896,-4279,-1322,-4015,2025-02-17 11:19:06,0.0
-10080,-1368,-6080,-4852,573,-4153,2025-02-17 11:19:06,0.0
-10104,-1236,-6552,-5710,1659,-5037,2025-02-17 11:19:06,0.0
-11504,-1300,-6428,-6784,964,-5702,2025-02-17 11:19:06,0.0
-12300,-1380,-7332,-8247,-169,-5841,2025-02-17 11:19:06,0.0
-12704,-712,-7736,-9663,-559,-5850,2025-02-17 11:19:06,0.0
-12408,92,-7612,-11095,-657,-6125,2025-02-17 11:19:06,0.0
-11784,-440,-7444,-11923,-1249,-6864,2025-02-17 11:19:06,0.0
-11752,-780,-6528,-12443,-2615,-7346,2025-02-17 11:19:06,0.0
-11000,-1480,-6560,-12878,-3444,-7306,2025-02-17 11:19:06,0.0
-11092,-2300,-6536,-13710,-3047,-7348,2025-02-17 11:19:06,0.0
-12124,-1672,-5936,-14537,-2581,-7055,2025-02-17 11:19:06,0.0
-12416,-1088,-5864,-15371,-2034,-7057,2025-02-17 11:19:06,0.0
-12584,-876,-5612,-15923,-1969,-7387,2025-02-17 11:19:06,0.0
-13036,-908,-4900,-16819,-2805,-7719,2025-02-17 11:19:06,0.0
-11796,-1112,-4976,-18423,-3598,-7612,2025-02-17 11:19:06,0.0
-10628,-156,-4532,-19487,-3874,-7296,2025-02-17 11:19:06,0.0
-9560,236,-4124,-20021,-3154,-6984,2025-02-17 11:19:06,0.0
-9392,-420,-4384,-20801,-1808,-6781,2025-02-17 11:19:06,0.0
-9536,-628,-4800,-21470,-494,-6749,2025-02-17 11:19:06,0.0
-9808,-1180,-5080,-22024,-956,-6829,2025-02-17 11:19:06,0.0
-9860,-1904,-4432,-22630,-3391,-7201,2025-02-17 11:19:06,0.0
-9708,-2336,-5984,-23006,-5752,-8034,2025-02-17 11:19:06,0.0
-11832,-2980,-8164,-23418,-5359,-7988,2025-02-17 11:19:06,0.0
-19908,-4340,-13352,-24831,-55,-6348,2025-02-17 11:19:06,0.0
-21556,-4440,-21576,-28105,18374,-2370,2025-02-17 11:19:06,0.0
-17080,-4552,-13236,-28848,32767,623,2025-02-17 11:19:06,0.0
-10596,-4800,-2392,-22799,32767,-388,2025-02-17 11:19:06,0.0
-12460,-5120,-4160,-18093,32767,-558,2025-02-17 11:19:06,0.0
-15856,-6868,-10020,-18857,32767,2127,2025-02-17 11:19:06,0.0
-14152,-8128,-14716,-22669,32767,4567,2025-02-17 11:19:06,0.0
-9004,-7436,-15436,-25295,32767,5017,2025-02-17 11:19:06,0.0
-3820,-5300,-15640,-25118,32767,4981,2025-02-17 11:19:06,0.0
2492,-2896,-15080,-24066,32767,4016,2025-02-17 11:19:07,0.0
8772,-1308,-14660,-23068,24103,29,2025-02-17 11:19:07,0.0
11896,-516,-13564,-22702,-41,-6495,2025-02-17 11:19:07,
9424,-652,-11772,-23934,-28278,-13754,2025-02-17 11:19:07,0.0
5324,-904,-8988,-25283,-32768,-15116,2025-02-17 11:19:07,0.0
1100,-1144,-6928,-24718,-32768,-12688,2025-02-17 11:19:07,0.0
-2452,-856,-5884,-22074,-32768,-8003,2025-02-17 11:19:07,0.0
-4720,40,-6068,-20652,-32768,-2869,2025-02-17 11:19:07,0.0
-3884,48,-4068,-23322,-32768,3969,2025-02-17 11:19:07,0.0
-312,-268,-112,-26138,-32768,10324,2025-02-17 11:19:07,0.0
2756,-856,2832,-25046,-32768,13573,2025-02-17 11:19:07,0.0
3532,-868,2616,-23205,-32768,15335,2025-02-17 11:19:07,0.0
2736,-820,3056,-21236,-32768,16777,2025-02-17 11:19:07,0.0
2904,-688,2736,-19146,-32768,18063,2025-02-17 11:19:07,0.0
3020,-560,2704,-14650,-32768,19977,2025-02-17 11:19:07,0.0
2944,-432,2508,-10908,-32768,20842,2025-02-17 11:19:07,0.0
3272,-544,2040,-8260,-32768,20870,2025-02-17 11:19:07,0.0
3156,-536,2120,-5983,-32768,20474,2025-02-17 11:19:07,0.0
3236,-580,1976,-3966,-32768,19712,2025-02-17 11:19:07,0.0
3484,-436,1720,-2053,-32768,18533,2025-02-17 11:19:07,0.0
3592,-488,1472,-709,-32768,17044,2025-02-17 11:19:07,0.0
3592,-448,1280,152,-32768,15345,2025-02-17 11:19:07,0.0
3532,-252,1112,736,-32768,13683,2025-02-17 11:19:07,0.0
4064,-180,856,1291,-32768,12184,2025-02-17 11:19:07,0.0
3220,-88,1244,1615,-32768,10981,2025-02-17 11:19:07,0.0
3008,-88,1380,2091,-32768,9883,2025-02-17 11:19:07,0.0
3072,-64,2548,3638,-32768,8594,2025-02-17 11:19:07,0.0
2524,28,2060,5504,-32768,7150,2025-02-17 11:19:07,0.0
3152,-1032,3636,7958,-32768,4958,2025-02-17 11:19:07,0.0
-260,5504,3996,9707,-32768,9023,2025-02-17 11:19:07,0.0
-32768,32767,23888,31690,-32768,32767,2025-02-17 11:19:07,0.0
32767,32767,-16988,32767,-32768,32767,2025-02-17 11:19:07,0.0
32767,32767,-32768,32767,-32768,32767,2025-02-17 11:19:07,0.0
32767,1644,-32768,-5971,-4661,-11185,2025-02-17 11:19:07,0.0
23704,1188,-20724,-14231,-275,-21308,2025-02-17 11:19:07,0.0
3508,3720,-2480,-12336,1682,-24216,2025-02-17 11:19:07,0.0
-24,4292,820,-9095,5699,-24650,2025-02-17 11:19:07,0.0
-460,2676,-4,-9270,3939,-21926,2025-02-17 11:19:07,0.0
-1752,1888,-644,-12542,3226,-14742,2025-02-17 11:19:07,0.0
-1440,2156,1568,-13696,174,-7555,2025-02-17 11:19:07,0.0
-728,2512,3168,-13243,-2152,-448,2025-02-17 11:19:07,0.0
536,7996,1476,-8047,1856,12924,2025-02-17 11:19:07,0.0
2632,10704,-1704,-8015,2049,20350,2025-02-17 11:19:07,0.0
7328,11988,4036,-5848,2997,25956,2025-02-17 11:19:07,0.0
15664,11660,2892,-2325,12551,27280,2025-02-17 11:19:07,0.0
24140,7132,-1600,-1416,28902,25660,2025-02-17 11:19:07,0.0
32767,5116,2852,-574,32767,19959,2025-02-17 11:19:07,0.0
32767,1748,208,-1251,30009,9815,2025-02-17 11:19:07,0.0
29524,1328,1876,-5178,20317,1602,2025-02-17 11:19:07,0.0
19600,3700,4784,-8537,5924,-2961,2025-02-17 11:19:07,0.0
13264,6100,9748,-7308,274,-2969,2025-02-17 11:19:07,0.0
11220,7804,8520,-4970,-730,-1171,2025-02-17 11:19:07,0.0
14164,8692,7668,-2305,1322,1518,2025-02-17 11:19:07,0.0
17936,7264,7352,-246,2363,2240,2025-02-17 11:19:08,0.0
20336,5396,4740,465,-200,1148,2025-02-17 11:19:08,0.0
19640,5272,3688,216,-1621,-285,2025-02-17 11:19:08,0.0
18160,6064,2476,-69,-1510,-949,2025-02-17 11:19:08,0.0
16380,7096,2692,-241,-299,-677,2025-02-17 11:19:08,0.0
16300,7244,3176,-232,686,-8,2025-02-17 11:19:08,0.0
17176,6584,3816,-175,794,241,2025-02-17 11:19:08,0.0
17944,6128,3916,-169,426,35,2025-02-17 11:19:08,0.0
17776,6164,3760,-148,41,-251,2025-02-17 11:19:08,0.0
17584,6420,3720,-168,300,-123,2025-02-17 11:19:08,0.0
17304,6440,3636,-175,135,-205,2025-02-17 11:19:08,0.0
17304,6524,3728,-133,72,-197,2025-02-17 11:19:08,0.0
17364,6624,3496,-121,149,-137,2025-02-17 11:19:08,0.0
17372,6408,3648,-177,274,-123,2025-02-17 11:19:08,0.0
17376,6556,3572,-177,231,-156,2025-02-17 11:19:08,0.0
17368,6468,3716,-169,176,-172,2025-02-17 11:19:08,0.0
17360,6568,3580,-147,135,-171,2025-02-17 11:19:08,0.0
17444,6468,3532,-164,169,-147,2025-02-17 11:19:08,0.0
17364,6464,3612,-147,199,-161,2025-02-17 11:19:08,0.0
17268,6444,3660,-147,200,-170,2025-02-17 11:19:08,0.0
17384,6540,3576,-159,152,-163,2025-02-17 11:19:08,0.0
17412,6524,3504,-204,175,-154,2025-02-17 11:19:08,0.0
17364,6508,3612,-158,208,-173,2025-02-17 11:19:08,0.0
17396,6524,3680,-176,200,-149,2025-02-17 11:19:08,0.0
17264,6568,3452,-155,164,-170,2025-02-17 11:19:08,0.0
17248,6600,3608,-175,201,-182,2025-02-17 11:19:08,0.0
17436,6536,3488,-155,183,-137,2025-02-17 11:19:08,0.0
17328,6504,3628,-165,181,-161,2025-02-17 11:19:08,0.0
17276,6472,3636,-144,199,-178,2025-02-17 11:19:08,0.0
17404,6528,3516,-145,162,-169,2025-02-17 11:19:08,0.0
17300,6560,3540,-158,189,-164,2025-02-17 11:19:08,0.0
17380,6492,3704,-173,207,-166,2025-02-17 11:19:08,0.0
17388,6492,3580,-167,189,-173,2025-02-17 11:19:08,0.0
17308,6504,3576,-150,201,-175,2025-02-17 11:19:08,0.0
17372,6556,3528,-168,198,-180,2025-02-17 11:19:08,0.0
17420,6484,3612,-147,179,-155,2025-02-17 11:19:08,0.0
17388,6500,3544,-149,183,-154,2025-02-17 11:19:08,0.0
17352,6524,3616,-168,180,-147,2025-02-17 11:19:08,0.0
17320,6540,3728,-135,181,-152,2025-02-17 11:19:08,0.0
17316,6516,3700,-152,175,-167,2025-02-17 11:19:08,0.0
17400,6500,3540,-153,184,-178,2025-02-17 11:19:08,0.0
17356,6500,3600,-158,183,-172,2025-02-17 11:19:08,0.0
17320,6540,3620,-166,164,-160,2025-02-17 11:19:08,0.0
17388,6456,3752,-169,182,-157,2025-02-17 11:19:08,0.0
17360,6440,3664,-159,205,-174,2025-02-17 11:19:08,0.0
17400,6440,3540,-138,206,-151,2025-02-17 11:19:08,0.0
17428,6464,3532,-167,187,-187,2025-02-17 11:19:08,0.0
17328,6500,3548,-147,193,-191,2025-02-17 11:19:08,0.0
17384,6432,3632,-164,172,-186,2025-02-17 11:19:08,0.0
17336,6456,3548,-166,184,-157,2025-02-17 11:19:08,
17388,6484,3572,-156,168,-172,2025-02-17 11:19:08,0.0
17400,6404,3540,-124,196,-164,2025-02-17 11:19:09,0.0
17376,6412,3540,-147,187,-154,2025-02-17 11:19:09,0.0
17428,6468,3552,-139,183,-180,2025-02-17 11:19:09,0.0
17368,6476,3524,-171,173,-182,2025-02-17 11:19:09,0.0
17416,6472,3624,-184,201,-159,2025-02-17 11:19:09,0.0
17388,6552,3536,-173,175,-170,2025-02-17 11:19:09,0.0
17440,6524,3576,-163,191,-167,2025-02-17 11:19:09,0.0
17428,6536,3648,-149,185,-156,2025-02-17 11:19:09,0.0
17444,6440,3632,-147,173,-184,2025-02-17 11:19:10,0.0
17468,6432,3444,-180,165,-161,2025-02-17 11:19:10,0.0
17436,6388,3616,-178,197,-156,2025-02-17 11:19:10,0.0
17420,6524,3560,-148,199,-189,2025-02-17 11:19:10,0.0
17360,6444,3688,-135,174,-177,2025-02-17 11:19:10,0.0
17388,6472,3744,-173,184,-145,2025-02-17 11:19:10,0.0
17300,6480,3692,-146,186,-162,2025-02-17 11:19:10,0.0
17492,6520,3756,-158,191,-155,2025-02-17 11:19:10,0.0
17340,6464,3700,-174,183,-168,2025-02-17 11:19:10,0.0
7676,16536,-2432,5423,1252,14452,2025-02-17 11:19:10,0.0
8800,17548,-4924,1604,-21262,15846,2025-02-17 11:19:10,0.0
7740,18332,-2312,-784,-32768,14919,2025-02-17 11:19:10,0.0
6604,16468,-1296,-1371,-32768,13919,2025-02-17 11:19:10,0.0
6856,14988,-2636,-2352,-32768,13239,2025-02-17 11:19:10,0.0
9044,14828,592,-2410,-32768,9958,2025-02-17 11:19:10,0.0
7348,15308,1560,83,-32768,5358,2025-02-17 11:19:10,0.0
3584,14232,-252,720,-32768,3314,2025-02-17 11:19:10,0.0
1016,20736,-168,-2010,-32768,2935,2025-02-17 11:19:10,0.0
808,18848,2604,-1904,-32768,3996,2025-02-17 11:19:10,0.0
4024,16004,1964,-1701,-26897,4365,2025-02-17 11:19:10,0.0
3292,14208,-896,-2428,-12783,2741,2025-02-17 11:19:10,0.0
2060,14084,-1332,-4669,346,2107,2025-02-17 11:19:10,0.0
4096,13452,-768,-6162,11951,838,2025-02-17 11:19:10,0.0
5452,13552,-532,-7555,20867,-1978,2025-02-17 11:19:10,0.0
3376,12772,232,-8819,27742,-3943,2025-02-17 11:19:10,0.0
2296,12340,2236,-8946,32767,-4875,2025-02-17 11:19:10,0.0
1836,13088,3132,-7797,32767,-4750,2025-02-17 11:19:10,0.0
2228,13532,4136,-6026,32767,-4621,2025-02-17 11:19:10,0.0
3008,13472,4300,-3378,32767,-4372,2025-02-17 11:19:10,0.0
4048,12932,3720,-1012,32767,-4342,2025-02-17 11:19:10,0.0
4072,12128,2572,174,27824,-3755,2025-02-17 11:19:10,0.0
2252,12080,3156,684,21159,-2351,2025-02-17 11:19:10,0.0
2476,11960,2696,1182,15611,-781,2025-02-17 11:19:10,0.0
4172,11496,1468,940,10179,-250,2025-02-17 11:19:10,0.0
3168,11404,3256,752,5073,-307,2025-02-17 11:19:10,0.0
656,11988,3356,1561,4848,1143,2025-02-17 11:19:10,0.0
1800,12084,2668,1733,7623,2987,2025-02-17 11:19:10,0.0
3288,11716,2352,1583,8146,3321,2025-02-17 11:19:10,0.0
5332,11560,612,416,6457,2421,2025-02-17 11:19:10,0.0
4008,10908,1404,-1067,5074,986,2025-02-17 11:19:10,0.0
4720,11168,704,-2788,5478,47,2025-02-17 11:19:10,0.0
4492,10816,1580,-4324,6401,-1595,2025-02-17 11:19:10,0.0
4492,10832,1804,-5395,7157,-2659,2025-02-17 11:19:10,0.0
4712,10184,1544,-6530,7690,-3475,2025-02-17 11:19:10,0.0
4796,9780,1448,-7782,7963,-4683,2025-02-17 11:19:10,0.0
4060,10196,1940,-8825,8326,-5554,2025-02-17 11:19:10,0.0
2840,10432,2712,-9417,8602,-5458,2025-02-17 11:19:10,0.0
3380,10504,2980,-9613,7450,-4827,2025-02-17 11:19:10,0.0
3052,9948,2384,-10144,5048,-4382,2025-02-17 11:19:11,0.0
2240,10808,2764,-10455,1953,-3521,2025-02-17 11:19:11,0.0
3140,11428,3032,-10380,-1784,-2953,2025-02-17 11:19:11,0.0
3524,12196,2948,-10271,-4459,-3084,2025-02-17 11:19:11,0.0
2948,13388,3996,-9251,-5011,-2928,2025-02-17 11:19:11,0.0
2216,13436,4500,-7465,-4049,-2215,2025-02-17 11:19:11,0.0
2696,13584,4244,-5723,-4030,-1357,2025-02-17 11:19:11,0.0
2040,15200,4160,-4533,-4283,227,2025-02-17 11:19:11,0.0
5352,15844,4780,-5513,-2868,2128,2025-02-17 11:19:11,0.0
4408,15932,4384,-4622,-2482,-1335,2025-02-17 11:19:11,0.0
1680,14960,2520,-5900,-2556,-467,2025-02-17 11:19:11,0.0
3872,15088,3704,-7579,-2993,512,2025-02-17 11:19:11,0.0
3428,14004,3516,-9504,-4279,519,2025-02-17 11:19:11,0.0
3400,13552,4776,-13727,-5990,1323,2025-02-17 11:19:11,0.0
3812,12872,6180,-17098,-5425,1010,2025-02-17 11:19:11,0.0
3024,12768,6032,-19265,-2769,1278,2025-02-17 11:19:11,0.0
2868,12532,4828,-21376,797,1651,2025-02-17 11:19:11,0.0
1944,11524,5104,-23664,5101,1551,2025-02-17 11:19:11,0.0
1124,10516,6528,-25533,9738,2229,2025-02-17 11:19:11,0.0
500,9908,8376,-26607,13239,3681,2025-02-17 11:19:11,0.0
716,8544,9636,-27153,16257,4711,2025-02-17 11:19:11,0.0
1340,7424,10640,-27786,18443,4655,2025-02-17 11:19:11,0.0
1444,7224,10952,-28562,19939,3506,2025-02-17 11:19:11,0.0
-968,8072,12132,-29667,20726,3685,2025-02-17 11:19:11,0.0
-1816,8088,14132,-30719,22007,4855,2025-02-17 11:19:11,0.0
-1688,7812,18112,-27889,24496,3883,2025-02-17 11:19:11,0.0
-2804,6796,17692,-24108,26083,1443,2025-02-17 11:19:11,0.0
-5304,5964,16160,-21786,27355,159,2025-02-17 11:19:11,0.0
-6612,5040,15588,-21063,28377,-136,2025-02-17 11:19:11,0.0
-6880,4996,15704,-20922,29100,-421,2025-02-17 11:19:11,0.0
-8052,4400,17628,-19871,30284,-355,2025-02-17 11:19:11,0.0
-8576,3600,19124,-17933,31642,516,2025-02-17 11:19:11,0.0
-8660,2344,18392,-16363,32767,2080,2025-02-17 11:19:11,0.0
-6368,2192,18684,-15314,32474,2053,2025-02-17 11:19:11,0.0
-6472,2860,18216,-14393,31178,12,2025-02-17 11:19:11,0.0
-7644,4128,17440,-13427,28735,-1671,2025-02-17 11:19:11,0.0
-8864,3860,15272,-13268,25920,-2099,2025-02-17 11:19:11,0.0
-9620,2572,13820,-13691,24716,-1642,2025-02-17 11:19:11,0.0
-10324,1524,12884,-13533,25741,-1321,2025-02-17 11:19:11,0.0
-10944,616,11712,-13223,28179,-1067,2025-02-17 11:19:11,0.0
-11480,700,10768,-12815,31213,-1340,2025-02-17 11:19:11,0.0
-12932,1296,10100,-11967,32767,-1829,2025-02-17 11:19:11,0.0
-14544,1988,8632,-10635,32767,-1886,2025-02-17 11:19:11,
-15484,2124,6892,-9967,32767,-1030,2025-02-17 11:19:11,0.0
-15736,1864,6128,-9395,32767,112,2025-02-17 11:19:11,0.0
-14512,1324,4668,-8576,32767,331,2025-02-17 11:19:11,0.0
-13336,1140,2268,-8335,32767,-576,2025-02-17 11:19:11,0.0
-5164,-1664,10224,-16640,13150,-3692,2025-02-17 11:19:11,0.0
-16640,2396,12268,-10008,-3221,-4071,2025-02-17 11:19:11,0.0
-16816,1256,2596,-6638,-7209,-3250,2025-02-17 11:19:11,0.0
-18260,1152,240,-8159,-4982,-1897,2025-02-17 11:19:11,0.0
-19084,1460,2020,-8649,1163,972,2025-02-17 11:19:11,0.0
-17004,952,2312,-8097,8833,3431,2025-02-17 11:19:11,0.0
-15020,676,2016,-7892,11726,4002,2025-02-17 11:19:11,0.0
-13400,612,780,-7832,11536,2533,2025-02-17 11:19:11,0.0
-13980,964,152,-7624,9667,1312,2025-02-17 11:19:11,0.0
-13900,480,-360,-8008,7602,1012,2025-02-17 11:19:11,0.0
-13648,644,-56,-8957,6302,786,2025-02-17 11:19:11,0.0
-13744,872,480,-9920,6232,981,2025-02-17 11:19:11,0.0
-12908,1084,872,-10444,6688,1206,2025-02-17 11:19:11,0.0
-13232,1832,320,-10766,6901,935,2025-02-17 11:19:11,0.0
-13500,1680,420,-11591,6395,788,2025-02-17 11:19:12,0.0
-12756,1384,1028,-11441,5593,-190,2025-02-17 11:19:12,0.0
-13444,1084,160,-11386,5480,-893,2025-02-17 11:19:12,0.0
-12920,1052,652,-11056,5513,-1017,2025-02-17 11:19:12,0.0
-13016,1200,1308,-9632,5714,-1664,2025-02-17 11:19:12,0.0
-12836,1616,672,-7908,5950,-2395,2025-02-17 11:19:12,0.0
-12660,2604,-380,-7004,6612,-3796,2025-02-17 11:19:12,0.0
-13344,2412,136,-6026,7113,-4289,2025-02-17 11:19:12,0.0
-14576,2876,-1228,-4220,7059,-3032,2025-02-17 11:19:12,0.0
-13204,3356,-696,-4232,6519,-2101,2025-02-17 11:19:12,0.0
-12840,2840,-1968,-4732,6756,-2113,2025-02-17 11:19:12,0.0
-13572,2380,-2548,-5236,6846,-2684,2025-02-17 11:19:12,0.0
-14260,1780,-2164,-6827,7416,-1856,2025-02-17 11:19:12,0.0
-14088,2400,-2976,-8030,6238,-2439,2025-02-17 11:19:12,0.0
-13468,1756,-896,-8129,4522,-2595,2025-02-17 11:19:12,0.0
-13472,1236,-1312,-6744,1524,-3126,2025-02-17 11:19:12,0.0
-13676,2276,-1380,-6505,-857,-3067,2025-02-17 11:19:12,0.0
-11584,2420,-296,-6093,-1329,-3713,2025-02-17 11:19:12,0.0
-11856,2492,216,-5838,358,-3109,2025-02-17 11:19:12,0.0
-9824,1096,1380,-4544,2844,-4314,2025-02-17 11:19:12,0.0
-10676,780,-1828,-4378,4838,-5502,2025-02-17 11:19:12,0.0
-13156,1612,-1136,-4334,6974,-5629,2025-02-17 11:19:12,0.0
-14376,1916,-2628,-3791,7505,-5615,2025-02-17 11:19:12,0.0
-14984,1724,-2824,-3685,5581,-5516,2025-02-17 11:19:12,0.0
-16372,1148,-3208,-4728,2550,-4804,2025-02-17 11:19:12,0.0
-15276,-60,-2088,-4275,1233,-4397,2025-02-17 11:19:12,0.0
-16232,-132,-6032,-3821,1806,-4479,2025-02-17 11:19:12,0.0
-18508,1256,-8336,-6069,4671,-2013,2025-02-17 11:19:12,0.0
-15316,4000,-7780,-6940,3643,-1436,2025-02-17 11:19:12,0.0
-12956,4996,-5152,-6231,835,-1370,2025-02-17 11:19:12,0.0
-11600,4968,-5044,-4245,-3556,-3942,2025-02-17 11:19:12,0.0
-12396,3524,-5392,-4381,-7594,-4816,2025-02-17 11:19:12,0.0
-11156,2084,-4452,-4644,-10060,-4939,2025-02-17 11:19:12,0.0
-9416,344,-6676,-5196,-10296,-5515,2025-02-17 11:19:12,0.0
-6896,-3352,-12048,-8726,-8809,-6728,2025-02-17 11:19:12,0.0
-12124,-1812,-6504,-10364,-5800,-7111,2025-02-17 11:19:12,0.0
-13464,596,-3012,-11891,17,-4563,2025-02-17 11:19:12,0.0
-12568,-1540,-2240,-10936,2343,-3495,2025-02-17 11:19:12,0.0
-11876,-3904,-3820,-11475,790,-5278,2025-02-17 11:19:12,0.0
-13540,-3428,-4656,-11740,-626,-6422,2025-02-17 11:19:12,0.0
-13844,-2456,-4964,-12524,-128,-6362,2025-02-17 11:19:12,0.0
-13120,-2340,-4208,-12816,39,-6501,2025-02-17 11:19:12,0.0
-12724,-2676,-4368,-12837,-810,-6679,2025-02-17 11:19:12,0.0
-12284,-2192,-4656,-13080,-461,-6517,2025-02-17 11:19:12,0.0
-12484,-2604,-2988,-12709,255,-5894,2025-02-17 11:19:12,0.0
-12344,-2640,-2588,-11824,758,-5267,2025-02-17 11:19:12,0.0
-12552,-2656,-2884,-10661,-829,-5135,2025-02-17 11:19:12,0.0
-13008,-2004,-3476,-10362,-1467,-4631,2025-02-17 11:19:12,0.0
-12412,-2528,-2456,-9238,-2073,-4589,2025-02-17 11:19:12,0.0
-12068,-2556,-2728,-8089,-1236,-4732,2025-02-17 11:19:12,0.0
-10520,-2644,-2580,-8063,-266,-5889,2025-02-17 11:19:12,0.0
-10632,-2864,-1484,-7685,445,-7595,2025-02-17 11:19:12,0.0
-12336,-2832,-1180,-7421,2463,-7630,2025-02-17 11:19:12,0.0
-13612,-2268,1044,-6586,4153,-7473,2025-02-17 11:19:12,0.0
-15540,-3212,-204,-5344,2872,-5510,2025-02-17 11:19:12,0.0
-13284,-2812,-3104,-5913,-100,-3805,2025-02-17 11:19:12,0.0
-12072,-2180,-3820,-7996,-2716,-5129,2025-02-17 11:19:12,0.0
-15256,-3140,448,-8088,-3819,-4104,2025-02-17 11:19:12,0.0
-14800,-3168,1116,-6582,-2799,-808,2025-02-17 11:19:12,0.0
-12916,-3260,100,-6308,-2389,3,2025-02-17 11:19:12,0.0
-12284,-3496,-112,-6373,-1738,-26,2025-02-17 11:19:12,0.0
-12380,-3584,540,-6161,-862,-340,2025-02-17 11:19:12,0.0
-13316,-2808,-144,-6023,-111,-187,2025-02-17 11:19:12,0.0
-14448,-1900,-820,-5986,309,-17,2025-02-17 11:19:12,0.0
-14680,-2252,-540,-5881,29,-207,2025-02-17 11:19:13,0.0
-14080,-2672,-352,-5868,-1233,-732,2025-02-17 11:19:13,0.0
-13920,-2560,-272,-5586,-3537,-1449,2025-02-17 11:19:13,0.0
-14376,-2412,-124,-5247,-4721,-1039,2025-02-17 11:19:13,0.0
-13784,-2028,1096,-4372,-5461,-862,2025-02-17 11:19:13,0.0
-13216,-2092,1112,-4205,-6476,-1236,2025-02-17 11:19:13,0.0
-12432,-2760,1300,-4775,-8023,-2694,2025-02-17 11:19:13,0.0
-11756,-4360,-1012,-5126,-9162,-4794,2025-02-17 11:19:13,0.0
-11544,-5124,-1352,-5204,-8181,-7467,2025-02-17 11:19:13,0.0
-15868,-4580,-464,-4716,-2574,-7728,2025-02-17 11:19:13,0.0
-18392,-5420,-4452,-6834,7046,-4881,2025-02-17 11:19:13,0.0
-19176,-7072,-4800,-7870,12372,-3363,2025-02-17 11:19:13,0.0
-18980,-5476,-4332,-7928,12945,-2213,2025-02-17 11:19:13,0.0
-19204,-3956,-4048,-7641,10732,-1517,2025-02-17 11:19:13,0.0
-18532,-3844,-5276,-7624,5787,-621,2025-02-17 11:19:13,0.0
-16632,-3720,-5120,-6585,-969,595,2025-02-17 11:19:13,0.0
-13048,-2672,-5512,-4054,-6996,2102,2025-02-17 11:19:13,0.0
-10372,-1212,-5776,-2837,-7044,2221,2025-02-17 11:19:13,
-8492,432,-4328,-2525,-5459,2140,2025-02-17 11:19:13,0.0
-8140,1172,-2832,-1217,-3136,1719,2025-02-17 11:19:13,0.0
-9312,1192,-3228,-438,-1481,1756,2025-02-17 11:19:13,0.0
-10588,356,-3916,-499,-42,2052,2025-02-17 11:19:13,0.0
-12164,-720,-5248,-819,2932,2197,2025-02-17 11:19:13,0.0
-12840,-1840,-5128,-1534,4319,2591,2025-02-17 11:19:13,0.0
-12740,-1724,-5964,-2659,4520,2660,2025-02-17 11:19:13,0.0
-11472,-952,-5988,-3722,4165,1981,2025-02-17 11:19:13,0.0
-11592,-700,-3684,-3714,3204,969,2025-02-17 11:19:13,0.0
-12908,-432,-4028,-3713,2997,1489,2025-02-17 11:19:13,0.0
-12936,-168,-3560,-3672,2458,1261,2025-02-17 11:19:13,0.0
-11964,-1052,-3424,-3498,1936,907,2025-02-17 11:19:13,0.0
-11852,-1232,-3316,-3441,1554,140,2025-02-17 11:19:13,0.0
-12140,-1404,-2632,-3182,1662,-9,2025-02-17 11:19:13,0.0
-12248,-1460,-2660,-2273,2019,548,2025-02-17 11:19:13,0.0
-11600,-1264,-2276,-1178,1903,1425,2025-02-17 11:19:13,0.0
-10708,-996,-1908,-390,2125,1493,2025-02-17 11:19:13,0.0
-10924,-620,-2468,513,2689,1170,2025-02-17 11:19:13,0.0
-12396,-504,-2240,2011,3557,1765,2025-02-17 11:19:13,0.0
-13108,-684,-3084,3338,3848,2436,2025-02-17 11:19:13,0.0
-14304,-712,-2616,4459,3540,2907,2025-02-17 11:19:13,0.0
-14508,-2232,-3328,5287,2859,3461,2025-02-17 11:19:13,0.0
-15972,-3292,-2628,6054,1908,4212,2025-02-17 11:19:13,0.0
-16544,-2212,-3356,7170,1327,5393,2025-02-17 11:19:13,0.0
-16092,-600,-3512,7564,760,6294,2025-02-17 11:19:13,0.0
-15184,472,-2524,8241,-1392,6170,2025-02-17 11:19:13,0.0
-13956,-640,-792,9319,-5082,5351,2025-02-17 11:19:13,0.0
-14164,-2648,688,10811,-8055,5270,2025-02-17 11:19:13,0.0
-12428,-1772,-1280,11196,-8329,5205,2025-02-17 11:19:13,0.0
-10348,-736,-1244,13519,-6430,4147,2025-02-17 11:19:13,0.0
-10868,-1416,-9600,15795,-3192,2628,2025-02-17 11:19:14,0.0
-10852,-3552,-4832,15332,5384,2858,2025-02-17 11:19:14,0.0
-11624,-3396,-3892,15647,7241,3686,2025-02-17 11:19:14,0.0
-13052,-4448,2916,19174,8289,4082,2025-02-17 11:19:14,0.0
-12000,-5304,-2216,25394,7192,4053,2025-02-17 11:19:14,0.0
-13896,-2112,-14848,20175,7414,4470,2025-02-17 11:19:14,0.0
-12680,-148,-13788,13533,5400,4573,2025-02-17 11:19:14,0.0
-13140,-3000,-5736,11669,-853,2981,2025-02-17 11:19:14,0.0
-15408,-5676,1280,14340,-4865,3679,2025-02-17 11:19:14,0.0
-14912,-6544,-408,17627,-5670,5306,2025-02-17 11:19:14,0.0
-13856,-6784,-3340,18653,-5082,6329,2025-02-17 11:19:14,0.0
-12976,-6008,-4916,18983,-3129,7330,2025-02-17 11:19:14,0.0
-11324,-4776,-5192,19332,-1333,7613,2025-02-17 11:19:14,0.0
-10864,-3612,-5932,19263,231,6795,2025-02-17 11:19:14,0.0
-11476,-2880,-7260,18062,925,6276,2025-02-17 11:19:14,0.0
-12192,-2824,-5524,17636,1092,5984,2025-02-17 11:19:14,0.0
-13008,-3560,-2308,18425,587,5887,2025-02-17 11:19:14,0.0
-13052,-3756,-1936,20308,-831,5992,2025-02-17 11:19:14,0.0
-13400,-3744,-2196,21517,-838,6035,2025-02-17 11:19:14,0.0
-12640,-4020,-3692,22798,-579,5791,2025-02-17 11:19:14,0.0
-11952,-3100,-4936,22645,-962,5407,2025-02-17 11:19:14,0.0
-11320,-3404,-4072,22429,-1014,4671,2025-02-17 11:19:14,0.0
-10460,-3520,-4272,22435,-1474,3759,2025-02-17 11:19:14,0.0
-11556,-3640,-6288,21019,-1346,3058,2025-02-17 11:19:14,0.0
-12792,-4680,-4736,19386,1447,3212,2025-02-17 11:19:14,0.0
-12488,-4024,-4236,18486,4092,3074,2025-02-17 11:19:14,0.0
-11976,-3480,-4240,17990,5073,2927,2025-02-17 11:19:14,0.0
-13108,-3284,-5772,17974,5572,2939,2025-02-17 11:19:14,0.0
-14576,-2232,-7316,16474,7610,4545,2025-02-17 11:19:14,0.0
-13184,-392,-6940,14937,8552,5366,2025-02-17 11:19:14,0.0
-12260,1196,-6072,13967,7094,3732,2025-02-17 11:19:14,0.0
-13636,-772,-6488,13537,5397,2490,2025-02-17 11:19:14,0.0
-14920,-3144,-7412,12563,4216,3472,2025-02-17 11:19:14,0.0
-13848,-2952,-5732,11174,1582,4720,2025-02-17 11:19:14,0.0
-13508,-792,-1976,10230,97,5539,2025-02-17 11:19:14,0.0
-12992,-844,-356,11035,164,5637,2025-02-17 11:19:14,0.0
-13252,-584,-1868,12318,1031,5713,2025-02-17 11:19:14,0.0
-12844,-320,-4396,12530,1784,5588,2025-02-17 11:19:14,0.0
-13240,28,-4964,11813,2162,5080,2025-02-17 11:19:14,0.0
-12632,-392,-3568,11640,1119,4448,2025-02-17 11:19:14,0.0
-12520,-836,-2612,12300,-194,4399,2025-02-17 11:19:14,0.0
-12200,-1216,-2664,13586,-622,5243,2025-02-17 11:19:14,0.0
-12356,-804,-3172,14549,252,5530,2025-02-17 11:19:14,0.0
-12624,256,-4000,14703,1552,5648,2025-02-17 11:19:14,0.0
-12860,976,-3676,14799,2150,5324,2025-02-17 11:19:14,0.0
-12968,1256,-4028,15713,1413,4934,2025-02-17 11:19:14,0.0
-13288,1236,-4020,15982,675,4737,2025-02-17 11:19:14,0.0
-13136,-312,-4048,16134,-203,4456,2025-02-17 11:19:14,0.0
-13408,-788,-3840,16141,-973,4288,2025-02-17 11:19:14,0.0
-12436,-1304,-4800,15760,-2121,4255,2025-02-17 11:19:14,0.0
-11260,-1368,-5096,15508,-3866,3896,2025-02-17 11:19:14,0.0
-10852,-508,-4116,15572,-4488,3083,2025-02-17 11:19:14,0.0
-10924,1360,-5060,15535,-2924,2430,2025-02-17 11:19:14,0.0
-10580,3328,-5600,15099,-16,2135,2025-02-17 11:19:14,0.0
-10232,3608,-4548,14730,2063,1176,2025-02-17 11:19:14,0.0
-12824,1632,-4032,15064,3291,501,2025-02-17 11:19:14,0.0
-15064,-892,-3952,15246,4242,1289,2025-02-17 11:19:14,0.0
-14900,-1056,-4252,14646,3373,2012,2025-02-17 11:19:14,0.0
-14192,-1332,-5484,14011,1416,2330,2025-02-17 11:19:14,0.0
-12452,-1352,-5632,13211,131,2384,2025-02-17 11:19:14,0.0
-10984,-1376,-5436,12503,963,2440,2025-02-17 11:19:14,0.0
-11208,-1280,-5256,11584,4032,2114,2025-02-17 11:19:15,0.0
-12628,-912,-4188,10591,7525,1739,2025-02-17 11:19:15,0.0
-13940,-1048,-3116,9707,7362,1739,2025-02-17 11:19:15,0.0
-14828,-1480,-2988,9444,4602,1958,2025-02-17 11:19:15,0.0
-14228,-1640,-2552,9500,994,2260,2025-02-17 11:19:15,0.0
-13680,-2056,-2252,9819,-863,2045,2025-02-17 11:19:15,0.0
-13524,-2060,-2312,10207,453,2390,2025-02-17 11:19:15,0.0
-12724,-1560,-2616,10153,2493,1989,2025-02-17 11:19:15,0.0
-12876,-1544,-2084,9858,4188,1149,2025-02-17 11:19:15,
-14072,-1952,-948,10393,4946,510,2025-02-17 11:19:15,0.0
-14184,-2580,-1584,12181,4546,303,2025-02-17 11:19:15,0.0
-15160,-1988,-8504,9700,1201,920,2025-02-17 11:19:15,0.0
-13812,-2024,-5508,7006,-2136,1580,2025-02-17 11:19:15,0.0
-13208,-1976,-2452,6711,-2791,1549,2025-02-17 11:19:15,0.0
-12512,-1756,-2448,6669,-1852,1593,2025-02-17 11:19:15,0.0
-12172,-1544,-2988,6277,-621,1553,2025-02-17 11:19:15,0.0
-12312,-1500,-3324,5600,-16,1569,2025-02-17 11:19:15,0.0
-12540,-1608,-2860,5018,-211,1514,2025-02-17 11:19:15,0.0
-12676,-2160,-3544,4421,-516,1602,2025-02-17 11:19:15,0.0
-12288,-2132,-3488,3656,-1049,1519,2025-02-17 11:19:15,0.0
-12328,-2204,-3424,2726,-528,1452,2025-02-17 11:19:15,0.0
-12260,-2068,-3824,1495,-160,1192,2025-02-17 11:19:15,0.0
-12512,-1804,-3772,-109,295,956,2025-02-17 11:19:15,0.0
-12624,-1536,-3740,-2090,159,956,2025-02-17 11:19:15,0.0
-13420,-1328,-536,-1775,-954,1391,2025-02-17 11:19:15,0.0
-13908,-2440,252,1400,-1713,1827,2025-02-17 11:19:15,0.0
-13776,-2404,-3184,3704,153,2642,2025-02-17 11:19:15,0.0
-11464,-984,-6780,3281,3804,-115,2025-02-17 11:19:15,0.0
-13708,-1604,-5820,2269,4757,-2563,2025-02-17 11:19:15,0.0
-15320,-1596,-4120,2985,2085,-1844,2025-02-17 11:19:15,0.0
-14820,-896,-3588,3005,-936,-612,2025-02-17 11:19:15,0.0
-13244,-224,-3244,2286,-2333,1,2025-02-17 11:19:15,0.0
-12404,-244,-2792,1473,-2017,35,2025-02-17 11:19:15,0.0
-12252,-1316,-2844,659,-546,-325,2025-02-17 11:19:15,0.0
-12648,-1704,-2784,533,621,-388,2025-02-17 11:19:15,0.0
-12916,-1044,-3456,-79,955,-656,2025-02-17 11:19:15,0.0
-13004,-564,-2640,-725,616,-932,2025-02-17 11:19:15,0.0
-13220,-892,-1872,-1001,656,-1186,2025-02-17 11:19:15,0.0
-13272,-1708,-2216,-982,808,-1176,2025-02-17 11:19:15,0.0
-13748,-2412,-2888,-978,926,-1004,2025-02-17 11:19:15,0.0
-13564,-2760,-2764,-954,496,-771,2025-02-17 11:19:15,0.0
-13856,-3032,-2592,-761,16,-504,2025-02-17 11:19:15,0.0
-14080,-3040,-2388,-768,-540,-446,2025-02-17 11:19:15,0.0
-14052,-2676,-2040,-864,-967,-74,2025-02-17 11:19:15,0.0
-13612,-2312,-1476,-1217,-1121,-370,2025-02-17 11:19:15,0.0
-13160,-2116,-1956,-1622,-1047,-529,2025-02-17 11:19:15,0.0
-12404,-2400,-2492,-1908,-644,-698,2025-02-17 11:19:15,0.0
-12176,-2612,-2596,-2279,393,-988,2025-02-17 11:19:15,0.0
-12224,-2668,-3236,-2625,1728,-1525,2025-02-17 11:19:15,0.0
-12716,-2384,-3600,-2908,2477,-2313,2025-02-17 11:19:15,0.0
-13404,-2120,-4244,-3123,1874,-2925,2025-02-17 11:19:15,0.0
-13796,-2252,-3888,-3174,145,-3174,2025-02-17 11:19:15,0.0
-13132,-2392,-3492,-3186,-931,-3227,2025-02-17 11:19:15,0.0
-12076,-2664,-3160,-3193,-1254,-3257,2025-02-17 11:19:15,0.0
-11384,-2916,-2620,-2958,-1041,-3563,2025-02-17 11:19:15,0.0
-11556,-3288,-2372,-2670,-112,-3812,2025-02-17 11:19:15,0.0
-12104,-3372,-2248,-2587,1218,-3545,2025-02-17 11:19:15,0.0
-12768,-3080,-1900,-2350,2101,-3136,2025-02-17 11:19:15,0.0
-13140,-2632,-1676,-2279,2139,-2865,2025-02-17 11:19:15,0.0
-13588,-2544,-1480,-2109,955,-2542,2025-02-17 11:19:15,0.0
-13908,-2976,-1260,-2121,-56,-1627,2025-02-17 11:19:15,0.0
-12764,-2972,-824,-1777,-128,-940,2025-02-17 11:19:16,0.0
-12244,-2936,-1212,-1533,628,-638,2025-02-17 11:19:16,0.0
-12220,-2824,-1192,-1654,1505,-478,2025-02-17 11:19:16,0.0
-12604,-2736,-1040,-1828,1957,-451,2025-02-17 11:19:16,0.0
-13436,-2440,-876,-1957,1669,-366,2025-02-17 11:19:16,0.0
-13660,-2484,-772,-2055,864,-412,2025-02-17 11:19:16,0.0
-13896,-2656,-1012,-2017,179,-178,2025-02-17 11:19:16,0.0
-13584,-2720,-1476,-2197,-38,-16,2025-02-17 11:19:16,0.0
-13244,-2848,-1808,-2689,-108,-100,2025-02-17 11:19:16,0.0
-13164,-3176,-1392,-3086,170,-317,2025-02-17 11:19:16,0.0
-13672,-3080,-1400,-3320,329,-768,2025-02-17 11:19:16,0.0
-14180,-3096,-1200,-3525,-60,-1094,2025-02-17 11:19:16,0.0
-14612,-3048,-1084,-3715,-791,-1148,2025-02-17 11:19:16,0.0
-14636,-3228,-608,-3865,-1910,-1086,2025-02-17 11:19:16,0.0
-14200,-3640,-516,-3859,-3189,-728,2025-02-17 11:19:16,0.0
-13084,-4696,-2400,-4080,-3134,-690,2025-02-17 11:19:16,0.0
-13416,-5268,-3020,-4070,-594,-1417,2025-02-17 11:19:16,0.0
-14584,-6400,-3320,-3759,2342,-2087,2025-02-17 11:19:16,0.0
-15884,-6884,-4396,-3592,3861,-2768,2025-02-17 11:19:16,0.0
-17728,-7176,-5732,-3699,4982,-2935,2025-02-17 11:19:16,0.0
-19348,-6596,-6064,-3676,5455,-2217,2025-02-17 11:19:16,0.0
-18968,-5588,-7156,-2754,2086,-259,2025-02-17 11:19:16,0.0
-16896,-3804,-4964,-1367,-3498,1509,2025-02-17 11:19:16,0.0
-14072,-3608,-4884,1028,-9151,2704,2025-02-17 11:19:16,0.0
-11852,-3260,-7072,1832,-11509,3645,2025-02-17 11:19:16,0.0
-9732,-3020,-7824,1486,-10032,3936,2025-02-17 11:19:16,0.0
-8600,-1308,-6312,1121,-6756,3872,2025-02-17 11:19:16,0.0
-8560,684,-4132,1080,-3262,3946,2025-02-17 11:19:16,0.0
-9188,1144,-2384,1646,-488,4072,2025-02-17 11:19:16,0.0
-10092,396,-3464,1930,1641,4283,2025-02-17 11:19:16,0.0
-10276,-492,-4108,1464,3143,3938,2025-02-17 11:19:16,0.0
-12084,-1100,-3812,958,4047,3326,2025-02-17 11:19:16,0.0
-13756,-2740,-4148,246,5446,3396,2025-02-17 11:19:16,0.0
-15784,-2252,-4452,299,5593,4393,2025-02-17 11:19:16,0.0
-16096,-1804,-5028,-97,2775,4907,2025-02-17 11:19:16,0.0
-15320,-1752,-4732,58,-1194,4987,2025-02-17 11:19:16,0.0
-14532,-1480,-3436,443,-3884,5199,2025-02-17 11:19:16,0.0
-12284,-1020,-1648,1137,-4231,4991,2025-02-17 11:19:16,0.0
-10400,-452,-1344,1893,-3691,4389,2025-02-17 11:19:16,0.0
-9624,4,-1532,2674,-2765,4033,2025-02-17 11:19:16,0.0
-9304,256,-1184,3366,-1083,3449,2025-02-17 11:19:16,0.0
-9456,428,-1584,3501,289,3043,2025-02-17 11:19:16,0.0
-9832,608,-1804,3435,1767,2164,2025-02-17 11:19:16,0.0
-10628,568,-1560,3221,2547,1439,2025-02-17 11:19:16,0.0
-11232,592,-1472,3198,2244,830,2025-02-17 11:19:16,0.0
-11920,496,-1432,3089,1279,345,2025-02-17 11:19:16,0.0
-12504,448,-1272,2856,73,-180,2025-02-17 11:19:16,0.0
-12836,572,-1308,2372,-1102,-798,2025-02-17 11:19:16,
-13692,544,-676,2568,-2584,-1150,2025-02-17 11:19:16,0.0
-14472,376,-1784,2487,-3258,-623,2025-02-17 11:19:16,0.0
-13688,172,-2368,2036,-2941,67,2025-02-17 11:19:16,0.0
-13196,-76,-1776,2184,-2532,244,2025-02-17 11:19:16,0.0
-12608,-588,-1444,2105,-1587,71,2025-02-17 11:19:16,0.0
-12656,-1240,-1316,1704,48,-360,2025-02-17 11:19:16,0.0
-13592,-252,-2368,1710,1399,-151,2025-02-17 11:19:16,0.0
-14600,680,-1736,2125,1969,527,2025-02-17 11:19:16,0.0
-15444,576,-1172,2829,1872,953,2025-02-17 11:19:16,0.0
-15632,-276,-924,3580,1454,1612,2025-02-17 11:19:16,0.0
-16556,-1844,-912,4287,1976,2638,2025-02-17 11:19:16,0.0
-16272,-2336,-2984,4790,3313,3803,2025-02-17 11:19:16,0.0
-16292,-460,-3728,5001,2984,4536,2025-02-17 11:19:16,0.0
-16548,2088,-5124,5369,1701,4964,2025-02-17 11:19:17,0.0
-16440,4372,-7660,5127,2359,4755,2025-02-17 11:19:17,0.0
-15108,4308,-8448,4695,3687,3473,2025-02-17 11:19:17,0.0
-15160,3052,-6876,4290,4354,1892,2025-02-17 11:19:17,0.0
-14412,2092,-5364,4321,2942,692,2025-02-17 11:19:17,0.0
-14360,556,-4556,5804,-124,-35,2025-02-17 11:19:17,0.0
-13196,-1028,-7808,6104,-3046,974,2025-02-17 11:19:17,0.0
-11588,-1712,-8228,4474,-4694,2296,2025-02-17 11:19:17,0.0
-8656,-2068,-7016,2552,-5884,2164,2025-02-17 11:19:17,0.0
-7256,-1972,-5140,638,-5831,795,2025-02-17 11:19:17,0.0
-8060,-1836,-3880,-142,-3501,-749,2025-02-17 11:19:17,0.0
-10164,-1524,-3700,-209,1543,-1407,2025-02-17 11:19:17,0.0
-11340,-888,-3384,-35,4951,-1732,2025-02-17 11:19:17,0.0
-12728,-420,-3196,377,4941,-2456,2025-02-17 11:19:17,0.0
-14092,-320,-3584,564,2704,-2657,2025-02-17 11:19:17,0.0
-14380,-480,-3436,942,-773,-2676,2025-02-17 11:19:17,0.0
-13608,-760,-4496,996,-2772,-2823,2025-02-17 11:19:17,0.0
-12516,-1372,-4452,625,-3460,-3275,2025-02-17 11:19:17,0.0
-11844,-1420,-4016,419,-3866,-3412,2025-02-17 11:19:17,0.0
-11600,-1936,-3640,177,-3667,-3069,2025-02-17 11:19:17,0.0
-11568,-2216,-3172,-17,-2359,-2492,2025-02-17 11:19:17,0.0
-11324,-2016,-3188,-105,-477,-2353,2025-02-17 11:19:17,0.0
-11636,-1740,-3464,-560,811,-2754,2025-02-17 11:19:17,0.0
-12972,-1436,-2552,-737,946,-2839,2025-02-17 11:19:17,0.0
-13284,-1648,-2384,-820,458,-2400,2025-02-17 11:19:17,0.0
-12972,-2388,-2712,-981,-474,-2593,2025-02-17 11:19:17,0.0
-13672,-2400,-2576,-1202,-1020,-2770,2025-02-17 11:19:17,0.0
-13696,-2320,-2488,-1314,-1216,-2692,2025-02-17 11:19:17,0.0
-13164,-2092,-2228,-1319,-1447,-3229,2025-02-17 11:19:17,0.0
-12908,-2016,-1896,-1189,-2012,-3870,2025-02-17 11:19:17,0.0
-12668,-2256,-1592,-865,-2896,-4353,2025-02-17 11:19:17,0.0
-12884,-2284,-2388,-750,-3646,-4460,2025-02-17 11:19:17,0.0
-13124,-2360,-2200,-825,-4332,-4397,2025-02-17 11:19:17,0.0
-13384,-2364,-1684,-621,-4555,-3978,2025-02-17 11:19:17,0.0
-13660,-1872,-1136,-425,-4281,-3294,2025-02-17 11:19:17,0.0
-14100,-2056,-1496,-716,-3489,-2387,2025-02-17 11:19:17,0.0
-14036,-1976,-1124,-1155,-3440,-1483,2025-02-17 11:19:17,0.0
-13092,-2740,-536,-1587,-4845,-1560,2025-02-17 11:19:17,0.0
-13284,-3008,-628,-1822,-6903,-1974,2025-02-17 11:19:17,0.0
-13592,-2516,-1672,-2947,-6956,-1497,2025-02-17 11:19:17,0.0
-13648,-1248,-788,-3970,-5694,-381,2025-02-17 11:19:17,0.0
-11644,-540,-1052,-5172,-5362,-540,2025-02-17 11:19:17,0.0
-12532,-316,-1320,-6360,-6248,-952,2025-02-17 11:19:17,0.0
-12252,-764,-3676,-8164,-4828,-96,2025-02-17 11:19:17,0.0
-9940,-4776,-5080,-9660,-2523,-828,2025-02-17 11:19:17,0.0
-12932,-4144,-7732,-11420,-195,664,2025-02-17 11:19:17,0.0
-11904,-1708,-9704,-15199,7490,-426,2025-02-17 11:19:17,0.0
-16656,1124,-7420,-18281,17648,-3797,2025-02-17 11:19:17,0.0
-19936,3428,-3044,-18068,21415,-2663,2025-02-17 11:19:17,0.0
-17068,3704,-3868,-16536,15007,-2166,2025-02-17 11:19:17,0.0
-14864,640,-8688,-17607,-132,-4134,2025-02-17 11:19:17,0.0
-15524,-1984,-7300,-20191,-11855,-4556,2025-02-17 11:19:17,0.0
-12648,-3108,-5212,-20733,-17168,-3993,2025-02-17 11:19:17,0.0
-10956,-3292,-6156,-22246,-19723,-3683,2025-02-17 11:19:17,0.0
-11392,-1488,-3652,-23731,-18125,-2676,2025-02-17 11:19:17,0.0
-11308,-144,-4116,-23002,-9465,-1406,2025-02-17 11:19:17,0.0
-8124,-756,-2732,-22890,-2689,-700,2025-02-17 11:19:17,0.0
-9244,-1384,-4392,-23113,1459,-2340,2025-02-17 11:19:17,0.0
-12128,-1520,-7720,-25195,5319,-2592,2025-02-17 11:19:17,0.0
-11812,-1948,-5940,-26018,7644,-3166,2025-02-17 11:19:17,0.0
-12400,-2732,-5520,-26315,9123,-4425,2025-02-17 11:19:18,0.0
-14276,-3280,-3960,-26227,9701,-5028,2025-02-17 11:19:18,0.0
-15176,-2596,-4544,-25206,9075,-4971,2025-02-17 11:19:18,0.0
-17004,-3564,-5540,-25062,8187,-4424,2025-02-17 11:19:18,0.0
-19152,-4548,-6336,-24343,9009,-1118,2025-02-17 11:19:18,0.0
-18372,-4880,-4896,-22567,12277,3419,2025-02-17 11:19:18,0.0
-17140,-7500,-4556,-22304,21832,6489,2025-02-17 11:19:18,0.0
-14888,-9256,-5700,-23654,32767,7161,2025-02-17 11:19:18,0.0
-13980,-9864,-4540,-24474,32767,6340,2025-02-17 11:19:18,0.0
-14296,-9528,-2048,-23914,32767,5000,2025-02-17 11:19:18,0.0
-15284,-12560,5072,-17568,32767,4804,2025-02-17 11:19:18,0.0
-14688,-6000,-4680,-17582,32767,6859,2025-02-17 11:19:18,0.0
-10156,-3448,-8404,-22627,32767,8626,2025-02-17 11:19:18,0.0
-3816,-4084,-9268,-24653,32767,9891,2025-02-17 11:19:18,0.0
3220,-3328,-12608,-25456,32767,10339,2025-02-17 11:19:18,0.0
10052,-1796,-16504,-27823,5129,8008,2025-02-17 11:19:18,0.0
11208,-1428,-15988,-29838,-19127,4564,2025-02-17 11:19:18,0.0
6084,-1044,-9352,-29004,-32768,5326,2025-02-17 11:19:18,0.0
7120,1376,-2268,-29047,-32768,8057,2025-02-17 11:19:18,0.0
5980,616,-1564,-30510,-32768,9419,2025-02-17 11:19:18,0.0
5368,-1400,1748,-31419,-32768,10875,2025-02-17 11:19:18,0.0
3880,-1528,3116,-29755,-32768,12786,2025-02-17 11:19:18,0.0
3700,-1368,2816,-27489,-32768,14913,2025-02-17 11:19:18,0.0
3520,-1136,3156,-24952,-32768,16961,2025-02-17 11:19:18,0.0
3396,-968,3044,-22128,-32768,18739,2025-02-17 11:19:18,0.0
3564,-764,2872,-19266,-32768,19974,2025-02-17 11:19:18,0.0
3536,-592,2804,-15354,-32768,20962,2025-02-17 11:19:18,
3944,-564,2652,-12119,-32768,20998,2025-02-17 11:19:18,0.0
3644,-424,2928,-9232,-32768,20600,2025-02-17 11:19:18,0.0
4232,-252,2192,-6527,-32768,19738,2025-02-17 11:19:18,0.0
3376,-312,2924,-4295,-32768,18614,2025-02-17 11:19:18,0.0
3468,-72,2356,-2071,-32768,17374,2025-02-17 11:19:18,0.0
3124,-240,2308,216,-32768,16198,2025-02-17 11:19:18,0.0
2604,-212,2244,1986,-32768,15195,2025-02-17 11:19:18,0.0
2824,-300,2236,3560,-32768,14243,2025-02-17 11:19:18,0.0
2864,-252,2084,4963,-32768,13210,2025-02-17 11:19:18,0.0
2836,-304,2184,6190,-32768,12192,2025-02-17 11:19:18,0.0
2636,-280,2204,7424,-32768,11277,2025-02-17 11:19:18,0.0
2276,-1032,1016,7920,-32768,10572,2025-02-17 11:19:18,0.0
2640,-620,3656,8893,-32768,8000,2025-02-17 11:19:18,0.0
-7928,31660,19808,26964,-32768,18431,2025-02-17 11:19:18,0.0
-19008,32767,2432,32767,-32768,32767,2025-02-17 11:19:18,0.0
32767,32767,11864,32767,-19986,32767,2025-02-17 11:19:18,0.0
32767,-22132,-32768,32767,-24314,32767,2025-02-17 11:19:18,0.0
32767,-32768,-32768,9025,-28129,16761,2025-02-17 11:19:18,0.0
16556,-15896,-13020,-3249,-17547,-266,2025-02-17 11:19:18,0.0
9052,-6940,-4364,-8473,-11121,-7533,2025-02-17 11:19:18,0.0
5860,-1112,-936,-11765,-3778,-13557,2025-02-17 11:19:18,0.0
-1132,3516,-2748,-14131,5968,-10732,2025-02-17 11:19:18,0.0
140,10928,2276,-14321,10187,-6397,2025-02-17 11:19:18,0.0
712,15144,5908,-6576,14171,2547,2025-02-17 11:19:18,0.0
10484,17628,2824,-2107,13143,11103,2025-02-17 11:19:18,0.0
22056,15076,992,-3,10162,10335,2025-02-17 11:19:18,0.0
26716,4612,-2672,2117,7838,4409,2025-02-17 11:19:18,0.0
25124,2236,-5816,-12,627,268,2025-02-17 11:19:18,0.0
17536,6972,-2732,-1048,-2345,-2550,2025-02-17 11:19:18,0.0
12692,9748,-2460,-213,-2181,-1520,2025-02-17 11:19:18,0.0
12440,8780,-3884,309,-943,11,2025-02-17 11:19:18,0.0
16212,7220,-5720,-87,602,367,2025-02-17 11:19:18,0.0
17092,7504,-3888,-465,724,-346,2025-02-17 11:19:19,0.0
15420,7876,-2216,-262,182,-367,2025-02-17 11:19:19,0.0
15088,7980,-3028,44,-166,-104,2025-02-17 11:19:19,0.0
15836,7828,-4140,5,-55,-79,2025-02-17 11:19:19,0.0
16068,7776,-4468,-229,327,-141,2025-02-17 11:19:19,0.0
15584,7844,-3536,-268,477,-154,2025-02-17 11:19:19,0.0
15952,7744,-3144,-143,167,-201,2025-02-17 11:19:19,0.0
15740,7860,-3472,-81,-92,-191,2025-02-17 11:19:19,0.0
15632,7968,-4044,-169,157,-169,2025-02-17 11:19:19,0.0
15680,7964,-3600,-171,317,-146,2025-02-17 11:19:19,0.0
15876,7776,-3420,-170,213,-171,2025-02-17 11:19:19,0.0
15768,7848,-3548,-165,141,-182,2025-02-17 11:19:19,0.0
15708,7760,-3752,-155,145,-193,2025-02-17 11:19:19,0.0
15768,7804,-3756,-161,138,-183,2025-02-17 11:19:19,0.0
15632,7808,-3628,-150,209,-161,2025-02-17 11:19:19,0.0
15760,7800,-3560,-151,226,-172,2025-02-17 11:19:19,0.0
15704,7808,-3600,-143,140,-167,2025-02-17 11:19:19,0.0
15752,7888,-3692,-149,178,-195,2025-02-17 11:19:19,0.0
15728,7796,-3592,-146,190,-166,2025-02-17 11:19:19,0.0
15660,7772,-3496,-163,169,-161,2025-02-17 11:19:19,0.0
15736,7804,-3608,-154,158,-176,2025-02-17 11:19:19,0.0
15784,7820,-3660,-140,205,-163,2025-02-17 11:19:19,0.0
15724,7856,-3772,-174,189,-146,2025-02-17 11:19:19,0.0
15800,7792,-3548,-141,168,-160,2025-02-17 11:19:19,0.0
15808,7920,-3644,-131,188,-169,2025-02-17 11:19:19,0.0
15656,7840,-3636,-146,180,-190,2025-02-17 11:19:19,0.0
15752,7752,-3716,-159,184,-191,2025-02-17 11:19:19,0.0
15756,7864,-3584,-157,223,-160,2025-02-17 11:19:19,0.0
15740,7768,-3572,-163,194,-160,2025-02-17 11:19:19,0.0
15644,7828,-3676,-170,188,-188,2025-02-17 11:19:19,0.0
15868,7932,-3664,-175,164,-180,2025-02-17 11:19:19,0.0
15680,7868,-3652,-164,180,-181,2025-02-17 11:19:19,0.0
15856,7880,-3624,-162,160,-161,2025-02-17 11:19:19,0.0
15720,7896,-3644,-160,196,-163,2025-02-17 11:19:19,0.0
15668,7808,-3780,-159,199,-194,2025-02-17 11:19:19,0.0
15808,7788,-3560,-140,165,-163,2025-02-17 11:19:19,0.0
15780,7852,-3656,-159,157,-145,2025-02-17 11:19:19,0.0
15716,7932,-3596,-153,171,-164,2025-02-17 11:19:19,0.0
15768,7868,-3732,-164,213,-187,2025-02-17 11:19:19,0.0
15724,7740,-3712,-161,187,-208,2025-02-17 11:19:19,0.0
15808,7852,-3552,-186,176,-164,2025-02-17 11:19:19,0.0
15752,7900,-3560,-182,151,-175,2025-02-17 11:19:19,0.0
15688,7864,-3568,-158,186,-163,2025-02-17 11:19:19,0.0
15788,7920,-3604,-134,174,-177,2025-02-17 11:19:19,0.0
15680,7768,-3532,-157,160,-159,2025-02-17 11:19:19,0.0
15808,7872,-3612,-175,162,-185,2025-02-17 11:19:19,0.0
15852,7856,-3724,-162,190,-171,2025-02-17 11:19:19,0.0
15692,7964,-3732,-179,179,-161,2025-02-17 11:19:19,0.0
15752,7868,-3620,-131,147,-160,2025-02-17 11:19:19,0.0
15624,7856,-3628,-139,159,-188,2025-02-17 11:19:19,0.0
15840,7940,-3624,-143,189,-160,2025-02-17 11:19:19,0.0
15732,7720,-3692,-163,177,-175,2025-02-17 11:19:19,0.0
15736,7892,-3552,-170,178,-159,2025-02-17 11:19:19,0.0
15820,7868,-3692,-161,181,-165,2025-02-17 11:19:19,0.0
15740,7848,-3684,-151,162,-158,2025-02-17 11:19:19,0.0
15824,7792,-3716,-173,170,-181,2025-02-17 11:19:19,0.0
15792,7844,-3652,-183,176,-171,2025-02-17 11:19:19,0.0
15788,7808,-3528,-141,204,-186,2025-02-17 11:19:19,0.0
15696,7840,-3520,-167,188,-184,2025-02-17 11:19:19,0.0
15828,7840,-3732,-180,178,-176,2025-02-17 11:19:19,0.0
15712,7928,-3632,-150,189,-167,2025-02-17 11:19:19,0.0
15668,7816,-3584,-166,188,-168,2025-02-17 11:19:19,0.0
15688,7840,-3572,-181,178,-175,2025-02-17 11:19:19,0.0
15776,7840,-3612,-173,170,-167,2025-02-17 11:19:19,0.0
15696,7892,-3532,-156,162,-173,2025-02-17 11:19:19,0.0
15824,7816,-3588,-150,160,-180,2025-02-17 11:19:20,0.0
15740,7824,-3728,-166,192,-176,2025-02-17 11:19:20,0.0
15732,7820,-3808,-159,172,-173,2025-02-17 11:19:20,
15764,7916,-3712,-165,190,-155,2025-02-17 11:19:20,0.0
15804,7892,-3648,-147,170,-162,2025-02-17 11:19:20,0.0
15768,7812,-3488,-115,193,-173,2025-02-17 11:19:20,0.0
15844,7844,-3708,-153,178,-174,2025-02-17 11:19:20,0.0
15768,7852,-3652,-177,170,-185,2025-02-17 11:19:20,0.0
15776,7848,-3632,-165,174,-176,2025-02-17 11:19:20,0.0
15796,7804,-3620,-153,190,-167,2025-02-17 11:19:20,0.0
15756,7844,-3684,-150,160,-180,2025-02-17 11:19:20,0.0
15644,7872,-3852,-166,168,-187,2025-02-17 11:19:20,0.0
15696,7824,-3592,-153,173,-175,2025-02-17 11:19:20,0.0
15724,7804,-3596,-166,159,-179,2025-02-17 11:19:20,0.0
15868,7820,-3680,-161,175,-195,2025-02-17 11:19:20,0.0
15800,7856,-3692,-156,166,-184,2025-02-17 11:19:20,0.0
15708,7948,-3560,-166,176,-186,2025-02-17 11:19:20,0.0
15692,7824,-3596,-140,171,-172,2025-02-17 11:19:20,0.0
15704,7872,-3724,-159,181,-174,2025-02-17 11:19:20,0.0
15860,7788,-3712,-150,155,-196,2025-02-17 11:19:20,0.0
15824,7808,-3552,-174,168,-201,2025-02-17 11:19:20,0.0
15768,7796,-3764,-138,172,-146,2025-02-17 11:19:20,0.0
15776,7804,-3616,-166,197,-186,2025-02-17 11:19:20,0.0
15724,7760,-3672,-165,183,-181,2025-02-17 11:19:20,0.0
15780,7876,-3656,-166,178,-188,2025-02-17 11:19:20,0.0
15748,7844,-3616,-168,179,-204,2025-02-17 11:19:20,0.0
15780,7864,-3604,-166,195,-182,2025-02-17 11:19:20,0.0
15852,7784,-3624,-150,176,-185,2025-02-17 11:19:20,0.0
15784,7836,-3600,-168,188,-179,2025-02-17 11:19:20,0.0
15704,7836,-3664,-172,176,-192,2025-02-17 11:19:20,0.0
15700,7844,-3700,-154,201,-179,2025-02-17 11:19:20,0.0
15824,7820,-3884,-158,159,-172,2025-02-17 11:19:20,0.0
15832,7820,-3584,-142,179,-183,2025-02-17 11:19:20,0.0
15852,7836,-3540,-145,176,-145,2025-02-17 11:19:20,0.0
15672,7972,-3584,-167,183,-162,2025-02-17 11:19:20,0.0
15852,7876,-3660,-152,152,-161,2025-02-17 11:19:20,0.0
15828,7804,-3804,-148,186,-163,2025-02-17 11:19:20,0.0
15720,7792,-3496,-145,182,-196,2025-02-17 11:19:20,0.0
15776,7920,-3744,-184,191,-159,2025-02-17 11:19:20,0.0
15872,7896,-3712,-152,155,-186,2025-02-17 11:19:20,0.0
15772,7848,-3624,-167,198,-158,2025-02-17 11:19:20,0.0
15784,7728,-3724,-149,181,-196,2025-02-17 11:19:20,0.0
15760,7884,-3692,-177,190,-167,2025-02-17 11:19:20,0.0
15808,7880,-3704,-150,162,-162,2025-02-17 11:19:20,0.0
15664,7852,-3804,-144,171,-161,2025-02-17 11:19:20,0.0
15840,7848,-3784,-171,193,-166,2025-02-17 11:19:20,0.0
15712,7868,-3668,-144,152,-186,2025-02-17 11:19:20,0.0
15788,7848,-3628,-165,175,-184,2025-02-17 11:19:20,0.0
15792,7940,-3648,-124,160,-188,2025-02-17 11:19:20,0.0
15768,7844,-3584,-137,181,-172,2025-02-17 11:19:20,0.0
15780,7880,-3704,-157,162,-188,2025-02-17 11:19:20,0.0
15832,7868,-3688,-158,185,-159,2025-02-17 11:19:20,0.0
15864,7924,-3684,-171,182,-177,2025-02-17 11:19:20,0.0
15772,7852,-3736,-123,148,-181,2025-02-17 11:19:20,0.0
15808,7828,-3648,-157,178,-173,2025-02-17 11:19:20,0.0
15568,8068,-3052,-80,274,-125,2025-02-17 11:19:20,0.0
16172,7532,-3932,-193,189,-136,2025-02-17 11:19:20,0.0
15860,7908,-3732,-237,129,-288,2025-02-17 11:19:20,0.0
15636,7972,-3312,-138,160,-168,2025-02-17 11:19:20,0.0
16020,7844,-3692,-120,127,-168,2025-02-17 11:19:20,0.0
16080,7924,-3700,-172,122,-263,2025-02-17 11:19:21,0.0
15616,7960,-3524,-193,43,-179,2025-02-17 11:19:21,0.0
15852,7720,-3752,-145,103,-183,2025-02-17 11:19:21,0.0
15644,7804,-3780,-166,83,-193,2025-02-17 11:19:21,0.0
15668,7792,-3736,-189,275,-157,2025-02-17 11:19:21,0.0
15940,7876,-3372,-127,253,-175,2025-02-17 11:19:21,0.0
15708,7808,-3316,-4,74,-140,2025-02-17 11:19:21,0.0
16040,7736,-3168,213,-909,-225,2025-02-17 11:19:21,0.0
15816,7800,-3900,279,-1002,-367,2025-02-17 11:19:21,0.0
15692,7796,-3612,344,-718,-375,2025-02-17 11:19:21,0.0
15692,7940,-3572,287,-920,-391,2025-02-17 11:19:21,0.0
15632,7780,-3772,288,-1052,-392,2025-02-17 11:19:21,0.0
15404,7760,-4188,153,-1134,-404,2025-02-17 11:19:21,0.0
15816,7960,-4304,16,-953,-412,2025-02-17 11:19:21,0.0
14444,7960,-4812,-214,100,-6,2025-02-17 11:19:21,0.0
16560,7632,-4760,-580,632,-229,2025-02-17 11:19:21,0.0
15976,7608,-3872,-735,435,-574,2025-02-17 11:19:21,0.0
15648,7888,-3520,-563,188,-572,2025-02-17 11:19:21,0.0
17216,7736,-4464,-909,-486,-1094,2025-02-17 11:19:21,0.0
17468,8100,-4628,-1162,-1373,-2080,2025-02-17 11:19:21,0.0
17008,8056,-5088,-1718,-2029,-2963,2025-02-17 11:19:21,0.0
18532,8600,-6212,-2665,-3064,-4588,2025-02-17 11:19:21,0.0
20848,8988,-7828,-4724,-5603,-7777,2025-02-17 11:19:21,0.0
20880,9332,-7600,-7565,-9018,-12298,2025-02-17 11:19:21,0.0
15652,9532,-5520,-8799,-8416,-13477,2025-02-17 11:19:21,0.0
12204,10032,-3280,-8402,-5734,-11986,2025-02-17 11:19:21,0.0
12508,10132,-2368,-7618,-4182,-10699,2025-02-17 11:19:21,0.0
15296,10368,-3128,-7344,-5451,-10906,2025-02-17 11:19:21,0.0
18788,10708,-6000,-9642,-10232,-13340,2025-02-17 11:19:21,0.0
18804,11220,-7480,-13437,-17452,-16566,2025-02-17 11:19:21,0.0
16844,11944,-8268,-17027,-21487,-18760,2025-02-17 11:19:21,0.0
12920,13544,-3456,-17489,-21942,-19815,2025-02-17 11:19:21,0.0
12368,13996,-4228,-17680,-18246,-20977,2025-02-17 11:19:21,0.0
12880,13740,-5024,-21297,-10165,-26080,2025-02-17 11:19:21,0.0
7840,13976,-3872,-23261,-6268,-26940,2025-02-17 11:19:21,0.0
5724,16024,-2308,-23571,-8342,-22960,2025-02-17 11:19:21,0.0
6004,19032,-1516,-23094,-9205,-19918,2025-02-17 11:19:21,0.0
4448,20872,384,-22382,-8834,-18286,2025-02-17 11:19:21,0.0
-320,21824,4092,-19872,-8160,-15024,2025-02-17 11:19:21,0.0
472,23184,4444,-15280,-13746,-5952,2025-02-17 11:19:21,0.0
6700,24496,1356,-12097,-18090,-3263,2025-02-17 11:19:21,0.0
6008,23376,-172,-12772,-20096,-4482,2025-02-17 11:19:21,0.0
3828,21416,1900,-13010,-18193,-4710,2025-02-17 11:19:21,
3216,19380,2804,-12299,-11489,-5929,2025-02-17 11:19:21,0.0
1976,18620,4312,-10055,-2643,-6218,2025-02-17 11:19:21,0.0
1612,18540,3056,-8179,6714,-6222,2025-02-17 11:19:21,0.0
916,19904,3648,-5673,16657,-6285,2025-02-17 11:19:21,0.0
304,21704,2644,-3210,26461,-5348,2025-02-17 11:19:21,0.0
2300,23072,1876,-2105,32403,-5149,2025-02-17 11:19:21,0.0
2840,23284,2560,-1020,32767,-5765,2025-02-17 11:19:21,0.0
1764,22564,2528,222,32767,-5803,2025-02-17 11:19:21,0.0
572,21332,1824,1077,32767,-4452,2025-02-17 11:19:21,0.0
112,20396,1900,2186,32767,-2090,2025-02-17 11:19:21,0.0
-620,19968,4448,7282,28069,2135,2025-02-17 11:19:21,0.0
192,19540,-948,12531,14578,9337,2025-02-17 11:19:21,0.0
7492,19376,-5096,13862,2615,10439,2025-02-17 11:19:21,0.0
8024,21716,-5256,11395,-11491,7781,2025-02-17 11:19:21,0.0
6328,18268,624,12871,-19164,6275,2025-02-17 11:19:21,0.0
7936,17728,-3748,16190,-23369,2340,2025-02-17 11:19:21,0.0
1832,21820,-1264,11158,-22793,340,2025-02-17 11:19:21,0.0
-384,18452,6272,11607,-21124,4704,2025-02-17 11:19:21,0.0
4172,16384,1436,12773,-16442,4083,2025-02-17 11:19:21,0.0
4068,14884,-1016,11979,-10817,3075,2025-02-17 11:19:21,0.0
4204,13456,-1980,9810,-5448,2014,2025-02-17 11:19:22,0.0
5592,11716,-3196,6641,-216,-677,2025-02-17 11:19:22,0.0
5452,11596,-1760,3146,5259,-3778,2025-02-17 11:19:22,0.0
4468,11044,-1056,1035,10980,-5973,2025-02-17 11:19:22,0.0
3612,10928,-1584,-2296,16041,-7830,2025-02-17 11:19:22,0.0
1236,11628,484,-3946,21235,-7690,2025-02-17 11:19:22,0.0
3060,11060,-240,-5163,24961,-7925,2025-02-17 11:19:22,0.0
3424,11084,-804,-7015,27097,-9252,2025-02-17 11:19:22,0.0
2008,10812,-508,-8768,28702,-9975,2025-02-17 11:19:22,0.0
1244,10708,-704,-10663,29911,-9678,2025-02-17 11:19:22,0.0
888,10904,-152,-12567,30358,-9213,2025-02-17 11:19:22,0.0
1208,11020,164,-13962,29428,-8923,2025-02-17 11:19:22,0.0
2308,10516,-188,-15172,27280,-9077,2025-02-17 11:19:22,0.0
3388,10400,1040,-16129,23780,-10051,2025-02-17 11:19:22,0.0
4340,11096,2568,-15763,19310,-11296,2025-02-17 11:19:22,0.0
5176,11968,4652,-13774,13478,-13308,2025-02-17 11:19:22,0.0
3688,12976,4384,-11090,7554,-14431,2025-02-17 11:19:22,0.0
1036,13448,672,-10929,2029,-12772,2025-02-17 11:19:22,0.0
1932,13720,-1152,-13524,-3044,-10818,2025-02-17 11:19:22,0.0
540,17784,6992,-9268,-9370,-4776,2025-02-17 11:19:22,0.0
7356,15872,-1388,2872,-17411,4864,2025-02-17 11:19:22,0.0
6500,11312,-4708,-2904,-24514,1242,2025-02-17 11:19:22,0.0
-1568,10156,1940,-4590,-23855,3541,2025-02-17 11:19:22,0.0
2400,10280,2812,-4974,-19271,7611,2025-02-17 11:19:22,0.0
8052,11564,1032,-5499,-15987,4034,2025-02-17 11:19:22,0.0
6052,11876,316,-7416,-9169,-3536,2025-02-17 11:19:22,0.0
876,11304,-228,-10772,1876,-8714,2025-02-17 11:19:22,0.0
116,11236,-1108,-14721,14010,-11453,2025-02-17 11:19:22,0.0
-1876,10056,-1888,-19105,24627,-13734,2025-02-17 11:19:22,0.0
-4516,8124,-712,-23078,32767,-12593,2025-02-17 11:19:22,0.0
-2544,7296,472,-25710,32767,-10226,2025-02-17 11:19:22,0.0
-460,6556,3580,-28554,32767,-7823,2025-02-17 11:19:22,0.0
2872,5404,6904,-27257,32767,-9556,2025-02-17 11:19:22,0.0
1744,5372,8060,-23650,30463,-13540,2025-02-17 11:19:22,0.0
-296,6416,5060,-21646,25742,-17068,2025-02-17 11:19:22,0.0
-2972,6220,2332,-23633,20666,-21030,2025-02-17 11:19:22,0.0
-6908,5428,2228,-25754,15880,-23480,2025-02-17 11:19:22,0.0
-8688,4820,1036,-26918,11822,-22437,2025-02-17 11:19:22,0.0
-8700,4120,-164,-29068,8402,-20841,2025-02-17 11:19:22,0.0
-6988,3100,996,-31499,4440,-20039,2025-02-17 11:19:22,0.0
-7728,2916,5116,-30907,-241,-18334,2025-02-17 11:19:22,0.0
-9000,4060,10220,-26837,-5423,-15375,2025-02-17 11:19:22,0.0
-11396,4520,13420,-20111,-10719,-11373,2025-02-17 11:19:22,0.0
-13196,2004,10452,-20100,-13599,-7594,2025-02-17 11:19:22,0.0
-14112,256,14240,-21159,-12251,-4827,2025-02-17 11:19:22,0.0
-12696,-2192,15160,-19185,-9251,-3429,2025-02-17 11:19:22,0.0
-11020,-4740,12312,-18543,-5581,-2866,2025-02-17 11:19:22,0.0
-11984,-4740,12460,-20053,-1042,-3719,2025-02-17 11:19:22,0.0
-15180,-2576,16216,-21080,5104,-2721,2025-02-17 11:19:22,0.0
-16960,-1344,19488,-18496,11593,26,2025-02-17 11:19:22,0.0
-16080,-2040,19748,-15291,15753,2201,2025-02-17 11:19:22,0.0
-14420,-3496,17668,-13424,19873,3010,2025-02-17 11:19:22,0.0
-13536,-2940,16540,-12192,23169,3772,2025-02-17 11:19:22,0.0
-12520,-2596,16332,-11250,25373,4425,2025-02-17 11:19:22,0.0
-12412,-2988,15680,-10368,26639,4641,2025-02-17 11:19:22,0.0
-12724,-2140,14092,-8259,27805,4940,2025-02-17 11:19:22,0.0
-12244,-1476,12492,-8180,27247,4234,2025-02-17 11:19:23,0.0
-12908,-944,10520,-8350,25683,3756,2025-02-17 11:19:23,0.0
-12076,-312,9052,-8663,23414,2903,2025-02-17 11:19:23,0.0
-12348,640,7364,-9319,19700,1605,2025-02-17 11:19:23,0.0
-14684,1540,8636,-9033,10915,2153,2025-02-17 11:19:23,0.0
-14040,1440,7144,-8796,-1491,3665,2025-02-17 11:19:23,0.0
-12496,676,4592,-10806,-12782,1819,2025-02-17 11:19:23,0.0
-15012,1232,17964,-7914,6051,-396,2025-02-17 11:19:23,0.0
-13116,360,6392,-7437,9372,2235,2025-02-17 11:19:23,0.0
-14720,696,3884,-7307,11598,1440,2025-02-17 11:19:23,0.0
-13508,892,2868,-8053,13793,1453,2025-02-17 11:19:23,0.0
-14096,488,3680,-8397,15919,399,2025-02-17 11:19:23,0.0
-13680,-4,6040,-7012,15141,-116,2025-02-17 11:19:23,0.0
-13172,104,5792,-5360,9776,-1162,2025-02-17 11:19:23,0.0
-15748,272,5036,-5079,5624,-1168,2025-02-17 11:19:23,0.0
-15424,1360,3080,-5931,4521,-144,2025-02-17 11:19:23,0.0
-14600,1112,1388,-6316,6900,91,2025-02-17 11:19:23,0.0
-14260,1268,776,-6486,9200,190,2025-02-17 11:19:23,0.0
-13812,1360,2624,-6197,8956,802,2025-02-17 11:19:23,0.0
-11908,1300,4212,-5462,7428,485,2025-02-17 11:19:23,0.0
-12068,1648,4768,-4429,4987,-427,2025-02-17 11:19:23,0.0
-13276,1912,2616,-4136,3771,-758,2025-02-17 11:19:23,0.0
-14332,2320,1628,-3814,3551,-612,2025-02-17 11:19:23,0.0
-14164,2596,624,-3859,3320,-463,2025-02-17 11:19:23,
-12664,964,40,-12651,1675,-3992,2025-02-17 11:19:23,0.0
-13628,468,-804,-13258,2010,-4476,2025-02-17 11:19:23,0.0
-15176,64,-372,-13728,3605,-3473,2025-02-17 11:19:23,0.0
-14924,-340,452,-13853,3842,-2242,2025-02-17 11:19:23,0.0
-14000,-1308,228,-13048,2260,-2657,2025-02-17 11:19:23,0.0
-14244,-912,420,-14080,2448,-1261,2025-02-17 11:19:23,0.0
-13384,-456,1624,-13449,2215,-1981,2025-02-17 11:19:23,0.0
-13792,-124,2436,-11873,2751,-1809,2025-02-17 11:19:23,0.0
-14096,616,1968,-10793,2499,-2025,2025-02-17 11:19:23,0.0
-14268,980,1756,-9871,2003,-2169,2025-02-17 11:19:23,0.0
-12500,520,5188,-6303,912,-2896,2025-02-17 11:19:23,0.0
-14080,2280,-2796,-5635,-8,-2824,2025-02-17 11:19:23,0.0
-12972,2380,-2184,-6635,163,-2842,2025-02-17 11:19:23,0.0
-13912,2028,-2784,-7025,786,-2821,2025-02-17 11:19:23,0.0
-13216,1164,-72,-7005,1127,-2794,2025-02-17 11:19:23,0.0
-12752,400,2532,-5289,-655,-3858,2025-02-17 11:19:23,0.0
-15624,804,912,-5728,-1887,-3513,2025-02-17 11:19:23,0.0
-15056,1048,-712,-6433,-3213,-2783,2025-02-17 11:19:23,0.0
-13084,1772,-2584,-6874,-4313,-3563,2025-02-17 11:19:23,0.0
-12316,2656,-3108,-7981,-2468,-4946,2025-02-17 11:19:23,0.0
-14456,2168,-5632,-9337,-269,-4621,2025-02-17 11:19:23,0.0
-14316,1108,-4296,-11031,-500,-4751,2025-02-17 11:19:23,0.0
-14744,12,-2168,-11227,-1268,-4312,2025-02-17 11:19:23,0.0
-13996,-836,-1320,-11218,-2060,-3955,2025-02-17 11:19:24,0.0
-13480,-1068,-2180,-12057,-3525,-4084,2025-02-17 11:19:24,0.0
-12948,-2008,-2148,-13232,-4407,-4231,2025-02-17 11:19:24,0.0
-12112,-3228,-2456,-14315,-4472,-4556,2025-02-17 11:19:24,0.0
-11172,-4088,-2476,-15512,-3044,-5463,2025-02-17 11:19:24,0.0
-12212,-4768,-2624,-16991,-52,-5886,2025-02-17 11:19:24,0.0
-13280,-5408,-780,-17698,2322,-5210,2025-02-17 11:19:24,0.0
-14244,-5040,-444,-17295,2565,-4437,2025-02-17 11:19:24,0.0
-14080,-4076,-668,-17628,1653,-4285,2025-02-17 11:19:24,0.0
-13024,-4112,-468,-17579,1208,-4998,2025-02-17 11:19:24,0.0
-11640,-3892,-1284,-17798,2223,-5704,2025-02-17 11:19:24,0.0
-10572,-4068,-1152,-17624,4229,-6932,2025-02-17 11:19:24,0.0
-11120,-4192,-1440,-17230,5649,-8016,2025-02-17 11:19:24,0.0
-13200,-4296,-760,-16465,5897,-7940,2025-02-17 11:19:24,0.0
-15196,-4520,1488,-14303,4095,-6476,2025-02-17 11:19:24,0.0
-15000,-5528,536,-12929,1124,-5239,2025-02-17 11:19:24,0.0
-14900,-5672,-464,-11970,-869,-4252,2025-02-17 11:19:24,0.0
-13844,-5244,724,-10932,-1338,-3092,2025-02-17 11:19:24,0.0
-13252,-4368,1088,-9751,-1683,-2414,2025-02-17 11:19:24,0.0
-12416,-3756,724,-8480,-1389,-1786,2025-02-17 11:19:24,0.0
-12476,-3092,488,-7859,-1321,-1134,2025-02-17 11:19:24,0.0
-10992,-3396,1636,-6601,-1286,-970,2025-02-17 11:19:24,0.0
-10276,-3448,2436,-5657,-928,-2161,2025-02-17 11:19:24,0.0
-13076,-4160,868,-5705,1192,-2217,2025-02-17 11:19:24,0.0
-14540,-4612,364,-6010,2033,-1612,2025-02-17 11:19:24,0.0
-15288,-3944,676,-5621,1301,-709,2025-02-17 11:19:24,0.0
-14056,-3504,1508,-4978,-287,-361,2025-02-17 11:19:24,0.0
-12476,-3800,2372,-4055,-602,-533,2025-02-17 11:19:24,0.0
-12156,-4072,1216,-3680,-581,-904,2025-02-17 11:19:24,0.0
-13032,-4008,1556,-3939,-824,-1315,2025-02-17 11:19:24,0.0
-13684,-3860,1484,-4026,-1145,-1447,2025-02-17 11:19:24,0.0
-14428,-3876,812,-4000,-1866,-1317,2025-02-17 11:19:24,0.0
-14848,-3296,1528,-3714,-2981,-911,2025-02-17 11:19:24,0.0
-13764,-2096,724,-3557,-3486,-339,2025-02-17 11:19:24,0.0
-12748,-2156,-320,-3960,-3361,-53,2025-02-17 11:19:24,0.0
-11976,-2876,108,-4309,-1833,-65,2025-02-17 11:19:24,0.0
-11248,-2692,2160,-3620,-433,-1060,2025-02-17 11:19:24,0.0
-12348,-3480,1484,-3770,684,-1871,2025-02-17 11:19:24,0.0
-15244,-4528,1392,-4862,1485,-1922,2025-02-17 11:19:24,0.0
-16644,-5804,1392,-5863,294,-1672,2025-02-17 11:19:24,0.0
-15516,-5396,2420,-6816,-1099,-1014,2025-02-17 11:19:24,0.0
-15068,-6404,220,-6652,-1417,-1086,2025-02-17 11:19:24,0.0
-16384,-4820,-3016,-6567,183,-767,2025-02-17 11:19:24,0.0
-16632,-5872,-3156,-7000,4285,-291,2025-02-17 11:19:24,0.0
-19596,-7648,-2348,-6993,2987,-993,2025-02-17 11:19:24,0.0
-18716,-6760,-5060,-5561,771,-1497,2025-02-17 11:19:24,0.0
-17896,-4340,-4440,-4140,-383,-1003,2025-02-17 11:19:24,0.0
-15188,-3012,-4552,-3942,-314,-595,2025-02-17 11:19:24,0.0
-14800,-1948,-3080,-3613,-2345,70,2025-02-17 11:19:24,0.0
-13528,-704,-3856,-2172,-5902,908,2025-02-17 11:19:24,0.0
-12092,480,-4276,-1208,-6639,1525,2025-02-17 11:19:24,0.0
-10608,1168,-3988,-632,-3906,1620,2025-02-17 11:19:24,0.0
-10528,388,-4848,-572,-1399,1450,2025-02-17 11:19:24,0.0
-11192,-584,-3848,-351,289,1363,2025-02-17 11:19:24,0.0
-12736,-1336,-3112,95,1677,1625,2025-02-17 11:19:24,0.0
-14156,-2396,-3376,66,2710,2538,2025-02-17 11:19:24,0.0
-14800,-3484,-3720,-345,3579,3432,2025-02-17 11:19:24,0.0
-14776,-3292,-3660,-947,3564,4257,2025-02-17 11:19:24,0.0
-14008,-1800,-2732,-1577,1677,4153,2025-02-17 11:19:24,0.0
-14044,-1180,-2504,-1260,-590,4132,2025-02-17 11:19:24,0.0
-12620,-1620,-3212,-1977,-2131,3679,2025-02-17 11:19:24,0.0
-11860,-1056,-2016,-1961,-2200,2988,2025-02-17 11:19:24,0.0
-11276,-448,-1680,-1522,-1644,2693,2025-02-17 11:19:24,0.0
-10784,96,-796,-1086,-876,2574,2025-02-17 11:19:24,0.0
-10664,360,-328,-470,-347,2517,2025-02-17 11:19:24,0.0
-10844,-4,-948,81,-3,2254,2025-02-17 11:19:24,0.0
-10788,-204,-544,469,173,1729,2025-02-17 11:19:24,0.0
-11992,-92,-460,1106,456,1631,2025-02-17 11:19:25,0.0
-11712,-472,-640,1663,680,1075,2025-02-17 11:19:25,0.0
-12536,-620,192,2390,598,1036,2025-02-17 11:19:25,0.0
-13060,-476,576,3305,-79,931,2025-02-17 11:19:25,0.0
-12840,-968,-268,3952,-1296,168,2025-02-17 11:19:25,0.0
-12628,-1932,-272,4166,-1866,-913,2025-02-17 11:19:25,0.0
-12016,-1584,-456,3922,-1588,-2046,2025-02-17 11:19:25,0.0
-12244,-1092,-1292,3284,-862,-2541,2025-02-17 11:19:25,0.0
-13800,-1204,-1536,2336,411,-2265,2025-02-17 11:19:25,0.0
-13900,-1908,480,2722,1066,-1824,2025-02-17 11:19:25,
-14216,-1128,768,3246,550,-1646,2025-02-17 11:19:25,0.0
-14040,-1104,752,4021,-167,-1556,2025-02-17 11:19:25,0.0
-14328,-1012,1648,5497,-792,-1423,2025-02-17 11:19:25,0.0
-15016,-1356,-88,6921,-1131,-630,2025-02-17 11:19:25,0.0
-15348,-1396,-2656,6109,-403,404,2025-02-17 11:19:25,0.0
-14516,-980,-1520,4965,483,997,2025-02-17 11:19:25,0.0
-14800,-712,204,4767,737,1216,2025-02-17 11:19:25,0.0
-14688,-968,848,5061,451,1712,2025-02-17 11:19:25,0.0
-14384,-1040,408,5147,198,2007,2025-02-17 11:19:25,0.0
-13240,-780,552,5355,337,2017,2025-02-17 11:19:25,0.0
-12476,-176,960,5642,703,1761,2025-02-17 11:19:25,0.0
-12340,668,416,5613,776,1124,2025-02-17 11:19:25,0.0
-13208,760,-1764,5274,1427,868,2025-02-17 11:19:25,0.0
-14296,880,-3552,4571,1952,792,2025-02-17 11:19:25,0.0
-15324,1468,-3920,3657,1739,524,2025-02-17 11:19:25,0.0
-15580,380,-4140,2932,1611,-35,2025-02-17 11:19:25,0.0
-18228,-1468,-4412,2213,1517,102,2025-02-17 11:19:25,0.0
-18392,-920,-5396,1504,532,790,2025-02-17 11:19:25,0.0
-15436,-760,-3680,1196,-718,373,2025-02-17 11:19:25,0.0
-13216,-1628,-1332,2033,-1036,283,2025-02-17 11:19:25,0.0
-10836,-2408,-892,3683,-878,486,2025-02-17 11:19:25,0.0
-9868,-2884,-3048,4007,108,343,2025-02-17 11:19:25,0.0
-10060,-3340,-2004,4091,1248,30,2025-02-17 11:19:25,0.0
-11980,-3272,-3264,3498,1021,-198,2025-02-17 11:19:25,0.0
-12944,-3572,-3556,2157,1026,-951,2025-02-17 11:19:25,0.0
-14340,-4084,-3368,1759,713,-1617,2025-02-17 11:19:25,0.0
-15756,-4068,-3956,1381,203,-1633,2025-02-17 11:19:25,0.0
-15724,-3468,-2500,1819,-740,-630,2025-02-17 11:19:25,0.0
-13368,-2900,-2184,2699,-1268,151,2025-02-17 11:19:25,0.0
-12360,-3252,-2052,3551,-807,593,2025-02-17 11:19:25,0.0
-12016,-3484,-2780,4107,-168,928,2025-02-17 11:19:25,0.0
-12144,-4040,-2832,4326,-144,677,2025-02-17 11:19:25,0.0
-13548,-4200,-1816,4553,-840,684,2025-02-17 11:19:25,0.0
-14396,-2740,-252,5080,-1019,990,2025-02-17 11:19:25,0.0
-14688,-2784,176,5833,-1670,1303,2025-02-17 11:19:25,0.0
-14696,-3624,660,7113,-2740,2439,2025-02-17 11:19:25,0.0
-12788,-4432,404,8300,-3221,3449,2025-02-17 11:19:25,0.0
-11320,-5032,476,9192,-1997,3913,2025-02-17 11:19:25,0.0
-10376,-5288,-436,10077,376,3912,2025-02-17 11:19:25,0.0
-10944,-5772,-236,10874,2299,4123,2025-02-17 11:19:25,0.0
-13004,-5612,-220,12136,3167,4647,2025-02-17 11:19:25,0.0
-14584,-4572,-2728,12665,3209,5312,2025-02-17 11:19:25,0.0
-14828,-2968,-3656,12602,2272,5460,2025-02-17 11:19:25,0.0
-14516,-1512,-4088,12680,457,4991,2025-02-17 11:19:25,0.0
-13212,-632,-4056,13204,-878,4297,2025-02-17 11:19:25,0.0
-12024,-736,-3608,13587,-1106,3669,2025-02-17 11:19:25,0.0
-11288,-1296,-3440,13969,21,2730,2025-02-17 11:19:25,0.0
-12368,-1632,-3292,13850,1793,1808,2025-02-17 11:19:25,0.0
-14200,-2796,-3476,13639,2832,1276,2025-02-17 11:19:25,0.0
-14732,-4660,-3104,13655,1294,714,2025-02-17 11:19:25,0.0
-14704,-4572,-3040,13749,-1055,901,2025-02-17 11:19:25,0.0
-12276,-3400,-2348,13657,-2787,821,2025-02-17 11:19:26,0.0
-10192,-1668,-3220,13321,-2406,223,2025-02-17 11:19:26,0.0
-9592,-76,-3588,12860,56,-87,2025-02-17 11:19:26,0.0
-10080,704,-3792,12523,3042,-355,2025-02-17 11:19:26,0.0
-12632,1264,-2648,12618,6065,-479,2025-02-17 11:19:26,0.0
-15240,344,-1204,13293,7612,163,2025-02-17 11:19:26,0.0
-17408,-1552,-244,14592,7282,1265,2025-02-17 11:19:26,0.0
-18228,-3036,544,15931,5163,2471,2025-02-17 11:19:26,0.0
-17556,-3960,584,17381,1662,3880,2025-02-17 11:19:26,0.0
-15280,-3832,132,18688,-391,4404,2025-02-17 11:19:26,0.0
-13100,-2724,-1912,19305,-1194,4326,2025-02-17 11:19:26,0.0
-11476,-1720,-2772,19340,-651,3913,2025-02-17 11:19:26,0.0
-12084,-456,-3220,19219,1321,2910,2025-02-17 11:19:26,0.0
-13036,400,-3024,19216,2229,2588,2025-02-17 11:19:26,0.0
-13880,1220,-2320,19262,1325,2282,2025-02-17 11:19:26,0.0
-14164,856,-1772,19693,433,2084,2025-02-17 11:19:26,0.0
-13688,620,-1216,20210,-85,1919,2025-02-17 11:19:26,0.0
-13212,144,-1836,20066,-145,1729,2025-02-17 11:19:26,0.0
-12764,-280,-2212,19686,-82,1691,2025-02-17 11:19:26,0.0
-12592,-784,-1336,19496,426,1487,2025-02-17 11:19:26,0.0
-13296,-904,-1200,19819,1009,1403,2025-02-17 11:19:26,0.0
-13888,-1028,-1236,20206,1116,1343,2025-02-17 11:19:26,0.0
-14852,-884,-1684,20397,215,1403,2025-02-17 11:19:26,0.0
-14880,-1632,-1240,20982,-1403,1519,2025-02-17 11:19:26,0.0
-14248,-2748,-1912,21659,-3026,1661,2025-02-17 11:19:26,0.0
-12300,-3004,-2372,21876,-3465,1569,2025-02-17 11:19:26,0.0
-11652,-2624,-2432,21407,-2339,1121,2025-02-17 11:19:26,0.0
-11580,-1912,-1420,21129,230,491,2025-02-17 11:19:26,0.0
-11692,-2308,-1004,22514,1265,273,2025-02-17 11:19:26,0.0
-11976,-712,-4696,22775,1400,771,2025-02-17 11:19:26,0.0
-10612,884,-6420,22027,3972,1305,2025-02-17 11:19:26,0.0
-8700,2504,-5984,20903,6687,390,2025-02-17 11:19:26,0.0
-12392,2412,-5396,19817,9333,-384,2025-02-17 11:19:26,0.0
-16928,-1040,-6592,18815,11475,399,2025-02-17 11:19:26,0.0
-21180,-2792,-4840,17141,11677,2814,2025-02-17 11:19:26,0.0
-18380,-4196,1132,17720,5470,3948,2025-02-17 11:19:26,0.0
-14788,-4132,484,18644,-794,3607,2025-02-17 11:19:26,0.0
-10312,-3180,-1644,18493,-1423,2610,2025-02-17 11:19:26,0.0
-8844,-3024,-4136,17423,3819,1801,2025-02-17 11:19:26,0.0
-11284,-2240,-3652,16439,8792,1777,2025-02-17 11:19:26,0.0
-14072,-2640,-1260,15678,10075,1822,2025-02-17 11:19:26,0.0
-16892,-3064,608,15440,7541,1759,2025-02-17 11:19:26,0.0
-18712,-3768,324,15822,853,2616,2025-02-17 11:19:26,0.0
-16180,-3372,-1640,15348,-1720,3527,2025-02-17 11:19:26,0.0
-13344,-2488,-2116,14693,-1837,3969,2025-02-17 11:19:26,0.0
-11644,-2220,-2136,14515,-955,4015,2025-02-17 11:19:26,0.0
-11284,-2236,-2140,14404,165,3815,2025-02-17 11:19:26,0.0
-11452,-2672,-2000,14000,890,3395,2025-02-17 11:19:26,0.0
-12148,-2752,-756,14041,1168,2996,2025-02-17 11:19:26,
-12700,-2936,-820,14049,605,2742,2025-02-17 11:19:26,0.0
-13072,-3320,-1544,13834,335,2717,2025-02-17 11:19:26,0.0
-13088,-3372,-1676,13853,229,2870,2025-02-17 11:19:26,0.0
-12732,-2716,-2180,13220,450,3079,2025-02-17 11:19:26,0.0
-12336,-2256,-1516,12723,1174,3339,2025-02-17 11:19:26,0.0
-12704,-1720,-2440,11920,2056,3331,2025-02-17 11:19:26,0.0
-12316,-1492,-2784,11096,2725,3140,2025-02-17 11:19:26,0.0
-12224,-1196,-2636,10543,3373,2841,2025-02-17 11:19:26,0.0
-12460,-1464,-2188,10116,4079,2605,2025-02-17 11:19:26,0.0
-12940,-1548,-2944,9583,4558,2459,2025-02-17 11:19:26,0.0
-13780,-1088,-2616,9017,4577,2498,2025-02-17 11:19:26,0.0
-14256,-1176,-1964,8956,4387,2717,2025-02-17 11:19:26,0.0
-14368,-1948,-2648,9784,3382,3010,2025-02-17 11:19:27,0.0
-14076,-3052,-4128,9919,2335,3109,2025-02-17 11:19:27,0.0
-14156,-3164,-2696,10476,2276,3118,2025-02-17 11:19:27,0.0
-13848,-1792,-2680,10622,2300,3228,2025-02-17 11:19:27,0.0
-13556,-96,-3448,9678,1903,2806,2025-02-17 11:19:27,0.0
-13644,748,-3544,8692,1406,2020,2025-02-17 11:19:27,0.0
-13844,780,-3504,7881,815,1390,2025-02-17 11:19:27,0.0
-13500,636,-2024,7568,-19,1220,2025-02-17 11:19:27,0.0
-12548,332,-1536,7909,-197,1383,2025-02-17 11:19:27,0.0
-11664,-1020,-2236,8473,579,1771,2025-02-17 11:19:27,0.0
-11672,-1340,-3452,7784,1901,1381,2025-02-17 11:19:27,0.0
-12552,-248,-4020,6562,2485,1004,2025-02-17 11:19:27,0.0
-13372,496,-3332,5323,2473,557,2025-02-17 11:19:27,0.0
-13824,1376,-2400,4489,1801,305,2025-02-17 11:19:27,0.0
-13992,1468,-2264,3702,1081,10,2025-02-17 11:19:27,0.0
-13756,924,-2992,2864,309,-325,2025-02-17 11:19:27,0.0
-13456,-212,-2964,2378,-289,-588,2025-02-17 11:19:27,0.0
-12540,-640,-2772,1878,-230,-759,2025-02-17 11:19:27,0.0
-12204,-424,-2572,979,565,-991,2025-02-17 11:19:27,0.0
-12656,-312,-2772,25,1410,-1191,2025-02-17 11:19:27,0.0
-13768,-192,-2176,-421,1677,-1143,2025-02-17 11:19:27,0.0
-14156,352,-2700,-963,1228,-1151,2025-02-17 11:19:27,0.0
-13748,328,-2668,-1791,542,-1336,2025-02-17 11:19:27,0.0
-13572,-408,-2176,-2075,90,-1451,2025-02-17 11:19:27,0.0
-13280,-1168,-1816,-1870,-77,-1564,2025-02-17 11:19:27,0.0
-12720,-1928,-1940,-1694,-356,-1456,2025-02-17 11:19:27,0.0
-13236,-2296,-2776,-1559,-275,-1610,2025-02-17 11:19:27,0.0
-12624,-2636,-2140,-1402,-485,-1616,2025-02-17 11:19:27,0.0
-13040,-3164,-3228,-1846,-457,-1469,2025-02-17 11:19:27,0.0
-12344,-3448,-2208,-2643,-712,-1618,2025-02-17 11:19:27,0.0
-13272,-4184,-1012,-2517,-121,-1832,2025-02-17 11:19:27,0.0
-13304,-4140,-2560,-1855,426,-2457,2025-02-17 11:19:27,0.0
-14132,-2572,-2864,-2188,698,-2862,2025-02-17 11:19:27,0.0
-14384,-1652,-2388,-2792,667,-3097,2025-02-17 11:19:27,0.0
-14756,-1908,-2128,-2802,1085,-3242,2025-02-17 11:19:27,0.0
-15260,-1928,-1900,-2619,825,-3384,2025-02-17 11:19:27,0.0
-15164,-2248,-1400,-2277,-335,-3201,2025-02-17 11:19:27,0.0
-14564,-3268,-1496,-2092,-1333,-2898,2025-02-17 11:19:27,0.0
-13412,-3764,-1176,-1902,-2128,-2428,2025-02-17 11:19:27,0.0
-12052,-3504,-824,-1858,-2513,-2422,2025-02-17 11:19:27,0.0
-11652,-3340,-1092,-1737,-2326,-2497,2025-02-17 11:19:27,0.0
-11696,-3108,-1316,-1889,-1437,-2542,2025-02-17 11:19:27,0.0
-12704,-2152,-1248,-2055,-361,-2355,2025-02-17 11:19:27,0.0
-11528,-2364,-1064,-2309,740,-1961,2025-02-17 11:19:27,0.0
-11372,-3024,-696,-2256,1205,-2345,2025-02-17 11:19:27,0.0
-12512,-3096,-592,-2050,1711,-1924,2025-02-17 11:19:27,0.0
-12244,-3548,-736,-2101,2308,-1332,2025-02-17 11:19:27,0.0
-12872,-3720,-872,-1823,2568,-1042,2025-02-17 11:19:27,0.0
-13648,-3152,-960,-1664,2900,-67,2025-02-17 11:19:27,0.0
-13888,-3088,-476,-1588,2646,323,2025-02-17 11:19:27,0.0
-13880,-2872,-440,-1521,1999,435,2025-02-17 11:19:27,0.0
-13808,-3520,184,-1193,1366,856,2025-02-17 11:19:27,0.0
-13872,-3624,128,-904,828,1121,2025-02-17 11:19:27,0.0
-13732,-3420,52,-1107,437,1029,2025-02-17 11:19:27,0.0
-13940,-3172,-304,-1184,205,768,2025-02-17 11:19:27,0.0
-14148,-2896,-112,-1258,-446,465,2025-02-17 11:19:28,0.0
-13924,-2736,-616,-1322,-937,280,2025-02-17 11:19:28,0.0
-13772,-2788,-660,-1541,-989,287,2025-02-17 11:19:28,0.0
-13604,-3088,-448,-1577,-688,401,2025-02-17 11:19:28,0.0
-13732,-3580,-260,-1736,-466,351,2025-02-17 11:19:28,0.0
-13956,-3796,104,-1945,-216,158,2025-02-17 11:19:28,0.0
-14104,-3572,160,-2281,-8,-10,2025-02-17 11:19:28,0.0
-14064,-5064,-1596,-2718,519,5,2025-02-17 11:19:28,0.0
