acceleration_x,acceleration_y,acceleration_z,gyroscope_x,gyroscope_y,gyroscope_z,timestamp,label
17380,-56,-5548,-1697,1016,-424,2025-02-17 11:25:00,0.0
17240,-32,-5348,-1522,704,-488,2025-02-17 11:25:00,0.0
16980,312,-5700,-1586,466,-257,2025-02-17 11:25:00,0.0
17220,372,-5300,-1638,189,-65,2025-02-17 11:25:00,0.0
17340,100,-4836,-1298,37,51,2025-02-17 11:25:00,0.0
17480,-36,-5276,-1237,-189,-70,2025-02-17 11:25:00,0.0
17096,-76,-5328,-1221,-490,-178,2025-02-17 11:25:00,0.0
16864,12,-5992,-1482,-982,-159,2025-02-17 11:25:00,0.0
17104,-152,-4748,-1120,-1264,-80,2025-02-17 11:25:00,0.0
17276,-492,-5504,-102,-1279,99,2025-02-17 11:25:00,0.0
17308,-236,-6736,-384,-832,227,2025-02-17 11:25:00,0.0
17612,-264,-6756,-1023,-6,430,2025-02-17 11:25:00,0.0
17728,-164,-6832,-1616,1064,568,2025-02-17 11:25:00,0.0
17876,-228,-6440,-2057,1995,498,2025-02-17 11:25:00,0.0
17764,-292,-5660,-2222,2594,170,2025-02-17 11:25:00,0.0
17788,-276,-4900,-1941,2582,-319,2025-02-17 11:25:00,0.0
17472,-184,-4992,-1462,1866,-995,2025-02-17 11:25:00,0.0
17112,-12,-4864,-1184,1115,-1258,2025-02-17 11:25:00,0.0
17108,160,-4756,-782,399,-1274,2025-02-17 11:25:00,0.0
17024,368,-4940,-278,-207,-1059,2025-02-17 11:25:00,0.0
16872,548,-5000,-5,-286,-436,2025-02-17 11:25:00,0.0
17608,324,-5220,363,-113,-88,2025-02-17 11:25:00,0.0
17668,260,-5176,554,65,-345,2025-02-17 11:25:00,0.0
17168,240,-5192,781,66,-383,2025-02-17 11:25:00,0.0
16960,380,-5964,611,-110,-323,2025-02-17 11:25:00,0.0
16924,328,-5480,475,-350,-218,2025-02-17 11:25:00,0.0
17388,260,-5196,636,-839,-178,2025-02-17 11:25:00,0.0
17820,108,-5160,836,-1062,-395,2025-02-17 11:25:00,0.0
17736,56,-5548,876,-725,-704,2025-02-17 11:25:00,0.0
17324,96,-6376,663,-282,-745,2025-02-17 11:25:00,0.0
16988,412,-6472,164,66,-492,2025-02-17 11:25:00,0.0
16948,216,-6028,-285,210,-261,2025-02-17 11:25:00,0.0
17292,16,-5348,-463,98,-207,2025-02-17 11:25:00,0.0
17312,92,-5680,-529,39,-182,2025-02-17 11:25:00,0.0
17284,180,-5768,-656,114,-79,2025-02-17 11:25:00,0.0
17400,124,-5608,-538,192,-50,2025-02-17 11:25:00,0.0
17332,60,-5584,-469,54,-151,2025-02-17 11:25:00,0.0
17016,180,-5696,-460,17,-41,2025-02-17 11:25:00,0.0
17176,268,-5728,-498,-172,15,2025-02-17 11:25:00,0.0
16968,356,-5996,-638,-187,148,2025-02-17 11:25:00,0.0
17300,108,-5600,-558,-195,184,2025-02-17 11:25:00,0.0
17540,-40,-5416,-146,-206,-81,2025-02-17 11:25:00,0.0
17288,112,-5624,-176,-422,-208,2025-02-17 11:25:00,0.0
17044,132,-5656,-241,-486,-8,2025-02-17 11:25:00,0.0
17092,20,-5536,-86,-596,119,2025-02-17 11:25:01,0.0
17316,72,-5284,76,-885,213,2025-02-17 11:25:01,0.0
17228,-64,-5536,223,-1217,254,2025-02-17 11:25:01,0.0
17056,-244,-5764,296,-1438,355,2025-02-17 11:25:01,0.0
16836,-20,-6344,153,-1335,524,2025-02-17 11:25:01,0.0
17156,-444,-5600,263,-1020,718,2025-02-17 11:25:01,0.0
17680,-716,-5316,762,-1248,482,2025-02-17 11:25:01,0.0
17420,-572,-6148,888,-1946,310,2025-02-17 11:25:01,0.0
17028,-436,-7368,460,-2340,490,2025-02-17 11:25:01,0.0
17204,-660,-6732,-7,-2334,623,2025-02-17 11:25:01,0.0
17732,-820,-5760,-255,-1689,494,2025-02-17 11:25:01,0.0
18304,-1088,-5856,-492,14,-14,2025-02-17 11:25:01,0.0
18744,-1056,-6112,-969,1698,-743,2025-02-17 11:25:01,0.0
18856,-576,-4976,-1243,2237,-1423,2025-02-17 11:25:01,0.0
17972,-324,-4596,-1164,2279,-1449,2025-02-17 11:25:01,0.0
17584,-876,-5332,-998,2280,-1204,2025-02-17 11:25:01,0.0
17068,-792,-6552,-781,2480,-1143,2025-02-17 11:25:01,0.0
16220,272,-6948,-1025,1824,-1253,2025-02-17 11:25:01,0.0
14848,140,-6656,-1187,304,-729,2025-02-17 11:25:01,0.0
14588,-236,-6496,-1219,-1080,153,2025-02-17 11:25:01,0.0
16608,-884,-4744,-824,-2250,185,2025-02-17 11:25:01,0.0
16896,56,-3940,-99,-1029,-379,2025-02-17 11:25:01,0.0
17856,1012,-4328,1135,-24,-1298,2025-02-17 11:25:01,0.0
18760,1048,-5320,1432,-1874,-2510,2025-02-17 11:25:01,0.0
19252,1016,-5680,782,-5905,-3745,2025-02-17 11:25:01,0.0
17964,468,-4784,432,-8554,-4014,2025-02-17 11:25:01,0.0
18656,104,-4964,300,-7564,-3541,2025-02-17 11:25:01,0.0
19004,1020,-7008,153,-3384,-3547,2025-02-17 11:25:01,0.0
19100,1864,-8604,-262,2592,-3196,2025-02-17 11:25:01,0.0
19344,1636,-8648,-177,9195,-3288,2025-02-17 11:25:01,0.0
19652,2016,-4900,-1918,11526,-3324,2025-02-17 11:25:01,0.0
15500,1588,-2804,-1368,7472,-2720,2025-02-17 11:25:01,0.0
14412,1688,-4212,-1212,4305,-1987,2025-02-17 11:25:01,0.0
14924,1712,-3692,-1424,3537,-1330,2025-02-17 11:25:01,0.0
15852,1212,-3244,-1285,3408,-1142,2025-02-17 11:25:01,0.0
16396,1064,-2288,-829,2609,-1094,2025-02-17 11:25:01,0.0
16612,1220,-2996,-499,801,-854,2025-02-17 11:25:01,0.0
16784,1516,-3424,-1140,-583,-840,2025-02-17 11:25:01,0.0
17748,1900,-2760,-1389,-566,-855,2025-02-17 11:25:01,0.0
17588,2044,-2088,-923,-689,-731,2025-02-17 11:25:01,0.0
17604,2296,-2428,-277,-801,-759,2025-02-17 11:25:01,0.0
17144,2016,-2964,-144,-255,-687,2025-02-17 11:25:01,0.0
16940,916,-2748,-54,-133,-360,2025-02-17 11:25:01,0.0
18228,-240,-3240,-146,-483,-512,2025-02-17 11:25:01,0.0
19232,-812,-2516,-250,-216,-794,2025-02-17 11:25:01,0.0
19760,60,-2412,-279,1009,-1408,2025-02-17 11:25:01,0.0
19436,920,-2572,-698,3037,-2097,2025-02-17 11:25:01,0.0
18940,1548,-2024,-432,5124,-3162,2025-02-17 11:25:01,0.0
17760,2732,-1932,-386,5287,-3427,2025-02-17 11:25:01,0.0
16248,3740,-1900,-504,4313,-2805,2025-02-17 11:25:01,0.0
16112,3620,-1044,354,2477,-1685,2025-02-17 11:25:01,0.0
16960,3392,-796,1525,-83,-1024,2025-02-17 11:25:01,0.0
18828,2844,-1092,3563,-2276,-1011,2025-02-17 11:25:01,0.0
19512,3056,-2444,4334,-2140,-1434,2025-02-17 11:25:01,0.0
19700,3572,-3464,4404,-560,-1025,2025-02-17 11:25:01,0.0
19980,4104,-3056,3734,1942,-467,2025-02-17 11:25:01,
20364,4812,-1500,3619,3414,172,2025-02-17 11:25:01,0.0
20820,5436,-3800,3023,1565,-127,2025-02-17 11:25:01,0.0
21536,4200,-6304,2610,-2339,-492,2025-02-17 11:25:01,0.0
22704,4784,-7156,1816,-6116,-1601,2025-02-17 11:25:01,0.0
21180,5720,-8856,1322,-4904,-1372,2025-02-17 11:25:02,0.0
21212,5496,-9504,-25,-2569,-1010,2025-02-17 11:25:02,0.0
20284,4540,-8356,-1118,-1018,-852,2025-02-17 11:25:02,0.0
17864,3368,-7760,-1725,1519,597,2025-02-17 11:25:02,0.0
15960,2648,-7448,-1722,5818,2401,2025-02-17 11:25:02,0.0
15260,1208,-7680,-1720,8573,2910,2025-02-17 11:25:02,0.0
14572,-296,-7112,-1424,8546,3099,2025-02-17 11:25:02,0.0
15156,-1284,-6496,-1234,6245,2971,2025-02-17 11:25:02,0.0
15032,-1764,-6504,-1292,3243,2783,2025-02-17 11:25:02,0.0
14936,-1712,-7144,-2033,1609,3238,2025-02-17 11:25:02,0.0
15376,-668,-6816,-2805,107,3878,2025-02-17 11:25:02,0.0
15616,308,-5920,-3241,-582,4546,2025-02-17 11:25:02,0.0
16432,1100,-5724,-3001,-2078,4366,2025-02-17 11:25:02,0.0
16740,1720,-5252,-2584,-3818,3552,2025-02-17 11:25:02,0.0
16264,1580,-5104,-1894,-5478,3167,2025-02-17 11:25:02,0.0
17084,964,-5980,-1152,-5185,3178,2025-02-17 11:25:02,0.0
17152,504,-6136,-667,-2548,3576,2025-02-17 11:25:02,0.0
17440,-100,-6128,-437,996,3697,2025-02-17 11:25:02,0.0
17944,-684,-5744,-639,3578,3221,2025-02-17 11:25:02,0.0
17064,-1140,-4468,-855,5063,2633,2025-02-17 11:25:02,0.0
16240,-1516,-4192,-1166,5710,2258,2025-02-17 11:25:02,0.0
15568,-1872,-4092,-1709,5366,2148,2025-02-17 11:25:02,0.0
15372,-1856,-3688,-2244,4376,1846,2025-02-17 11:25:02,0.0
15252,-1728,-3228,-2337,2902,1592,2025-02-17 11:25:02,0.0
15176,-1568,-3396,-2323,1120,1395,2025-02-17 11:25:02,0.0
16036,-848,-3308,-2269,-470,953,2025-02-17 11:25:02,0.0
17088,-200,-2108,-1884,-1559,66,2025-02-17 11:25:02,0.0
17140,-432,-2788,-1206,-2160,-517,2025-02-17 11:25:02,0.0
17404,148,-3492,-1450,-1839,-611,2025-02-17 11:25:02,0.0
17860,392,-2820,-1760,-986,-247,2025-02-17 11:25:02,0.0
18988,-416,-2408,-1646,-228,-280,2025-02-17 11:25:02,0.0
19424,-356,-2460,-1418,801,-614,2025-02-17 11:25:02,0.0
18872,-288,-2764,-1103,2252,-670,2025-02-17 11:25:02,0.0
18372,-64,-3436,-1343,3948,-355,2025-02-17 11:25:02,0.0
17620,224,-3444,-1607,4984,-107,2025-02-17 11:25:02,0.0
17348,296,-3428,-1957,4052,120,2025-02-17 11:25:02,0.0
17452,312,-3368,-1944,1711,365,2025-02-17 11:25:02,0.0
18444,-260,-4080,-2160,-1698,921,2025-02-17 11:25:02,0.0
19544,-48,-3752,-2607,-2657,2001,2025-02-17 11:25:02,0.0
20632,864,-3192,-3560,-764,2855,2025-02-17 11:25:02,0.0
21884,104,-2728,-5003,1454,2558,2025-02-17 11:25:02,0.0
21132,-520,-3028,-5650,2692,1224,2025-02-17 11:25:02,0.0
19540,-1808,-4648,-5465,-523,959,2025-02-17 11:25:02,0.0
20812,-3960,-7580,-4725,-4198,1325,2025-02-17 11:25:02,0.0
21844,-3748,-9812,-4528,-5572,1086,2025-02-17 11:25:02,0.0
21092,-3420,-10012,-3951,-6359,1315,2025-02-17 11:25:02,0.0
20316,-2416,-10524,-3487,-6794,1957,2025-02-17 11:25:02,0.0
19592,-580,-13868,-4176,-5600,2212,2025-02-17 11:25:02,0.0
15436,1884,-9296,-5860,179,1918,2025-02-17 11:25:02,0.0
14652,3584,-5752,-6366,5675,1415,2025-02-17 11:25:02,0.0
15352,3284,-4364,-6371,7182,321,2025-02-17 11:25:02,0.0
15168,2472,-3976,-5834,7017,-1187,2025-02-17 11:25:02,0.0
14864,1912,-3308,-4490,5609,-1957,2025-02-17 11:25:02,0.0
15808,600,-4092,-3045,2062,-2789,2025-02-17 11:25:02,0.0
16476,-296,-4388,-857,-3019,-4071,2025-02-17 11:25:02,0.0
16416,-404,-5312,-451,-4296,-3922,2025-02-17 11:25:02,0.0
17112,-120,-6316,-276,-3800,-3500,2025-02-17 11:25:02,0.0
16620,196,-6480,-477,-2306,-3075,2025-02-17 11:25:02,0.0
17048,1004,-5448,80,-1898,-2789,2025-02-17 11:25:02,0.0
17460,1616,-5492,1154,-438,-2902,2025-02-17 11:25:02,0.0
17308,2136,-5752,1860,1448,-3293,2025-02-17 11:25:02,0.0
16628,2524,-5020,2465,2690,-3528,2025-02-17 11:25:03,0.0
15876,2136,-4200,2969,2624,-3321,2025-02-17 11:25:03,0.0
16236,1400,-3580,3638,1697,-3086,2025-02-17 11:25:03,0.0
16724,788,-3372,4382,480,-3207,2025-02-17 11:25:03,0.0
17040,360,-3280,5195,-125,-3574,2025-02-17 11:25:03,0.0
17140,192,-3804,6198,80,-3834,2025-02-17 11:25:03,0.0
17300,324,-4984,7354,795,-4087,2025-02-17 11:25:03,0.0
16584,500,-4964,7774,1457,-4020,2025-02-17 11:25:03,0.0
16452,776,-4940,7977,1183,-3901,2025-02-17 11:25:03,0.0
16860,436,-4664,8481,265,-3934,2025-02-17 11:25:03,0.0
17092,172,-4124,9536,-846,-3823,2025-02-17 11:25:03,0.0
17912,88,-4868,10540,-1006,-4042,2025-02-17 11:25:03,0.0
18536,-600,-5636,11089,-1027,-4250,2025-02-17 11:25:03,0.0
19332,-1100,-4788,12095,-209,-4671,2025-02-17 11:25:03,0.0
20692,-2032,-3988,13532,1635,-5355,2025-02-17 11:25:03,0.0
20884,-2908,-3636,15233,4217,-6929,2025-02-17 11:25:03,0.0
19344,-3628,-3744,16931,7516,-8144,2025-02-17 11:25:03,0.0
17972,-3064,-2312,18770,9626,-8790,2025-02-17 11:25:03,0.0
17476,-2784,-4112,20407,10428,-9157,2025-02-17 11:25:03,0.0
16836,-2204,-6100,21816,8688,-9837,2025-02-17 11:25:03,0.0
15880,-1980,-8764,22290,4086,-9058,2025-02-17 11:25:03,0.0
16460,-744,-9360,22365,870,-6831,2025-02-17 11:25:03,0.0
17812,488,-7332,23512,1072,-6694,2025-02-17 11:25:03,0.0
17816,324,-7176,25506,521,-6735,2025-02-17 11:25:03,0.0
17056,-1276,-7644,26017,529,-6727,2025-02-17 11:25:03,0.0
17516,-2332,-5944,26256,792,-7294,2025-02-17 11:25:03,0.0
17480,-2604,-6836,26182,1645,-8361,2025-02-17 11:25:03,0.0
17272,-2304,-8808,23819,488,-9515,2025-02-17 11:25:03,0.0
16408,-2312,-8156,20825,-3986,-10952,2025-02-17 11:25:03,0.0
15348,-2276,-7408,18652,-10484,-11990,2025-02-17 11:25:03,0.0
14256,-2048,-6968,17107,-17147,-12210,2025-02-17 11:25:03,0.0
13768,-1424,-6668,15361,-24081,-12275,2025-02-17 11:25:03,0.0
13156,-116,-5688,13702,-31593,-13307,2025-02-17 11:25:03,0.0
10548,392,-4028,13592,-32768,-13856,2025-02-17 11:25:03,0.0
8688,640,-3956,13545,-32768,-12408,2025-02-17 11:25:03,
7408,564,-4604,12535,-31513,-10071,2025-02-17 11:25:03,0.0
7536,-236,-4248,11590,-26520,-8324,2025-02-17 11:25:03,0.0
8584,-1116,-3304,11356,-21083,-8213,2025-02-17 11:25:03,0.0
7552,-2764,-1840,11633,-16705,-9355,2025-02-17 11:25:03,0.0
4080,-3628,-720,11375,-13428,-9681,2025-02-17 11:25:03,0.0
1008,-808,1588,10046,-12118,-8611,2025-02-17 11:25:03,0.0
2068,-520,1596,9501,-11600,-8338,2025-02-17 11:25:03,0.0
1944,-516,1712,9489,-11047,-8050,2025-02-17 11:25:03,0.0
2444,-484,1212,6211,-10485,-8562,2025-02-17 11:25:03,0.0
2576,-492,1056,5544,-10585,-8642,2025-02-17 11:25:03,0.0
2452,-492,960,5016,-10632,-8688,2025-02-17 11:25:03,0.0
2516,-372,1128,4545,-10692,-8788,2025-02-17 11:25:03,0.0
2524,-476,960,4022,-10767,-8962,2025-02-17 11:25:03,0.0
2364,-540,972,3550,-10919,-9109,2025-02-17 11:25:03,0.0
2752,-480,900,2937,-11043,-9321,2025-02-17 11:25:03,0.0
2468,-552,800,2432,-11223,-9721,2025-02-17 11:25:03,0.0
2436,-528,532,2025,-11520,-9932,2025-02-17 11:25:03,0.0
-32768,-13264,-32768,-32768,2036,-639,2025-02-17 11:25:04,0.0
-24952,-24684,-32768,-32768,29256,12322,2025-02-17 11:25:04,0.0
26804,32767,-32768,-32768,32767,-6873,2025-02-17 11:25:04,0.0
25168,32767,-32768,-1986,2578,-3755,2025-02-17 11:25:04,0.0
12288,11324,-23528,-503,-3891,-992,2025-02-17 11:25:04,0.0
1532,3600,-9264,-7437,-10225,-1655,2025-02-17 11:25:04,0.0
3116,2780,-2856,-12418,-10642,-5934,2025-02-17 11:25:04,0.0
1184,2904,2068,-11659,-9427,-8720,2025-02-17 11:25:04,0.0
-124,2900,3268,-8145,-6848,-6967,2025-02-17 11:25:04,0.0
-124,2640,2924,-3990,-3969,-3952,2025-02-17 11:25:04,0.0
504,4156,2744,631,-1193,-43,2025-02-17 11:25:04,0.0
2712,7652,-4668,7807,4876,3988,2025-02-17 11:25:04,0.0
5632,10728,-15832,7707,8742,3398,2025-02-17 11:25:04,0.0
8452,11560,-23564,3803,6475,1538,2025-02-17 11:25:04,0.0
10172,9848,-25420,102,3727,-127,2025-02-17 11:25:04,0.0
7044,7952,-18132,-1718,-1114,-260,2025-02-17 11:25:04,0.0
4428,8600,-11368,-2415,-2098,-607,2025-02-17 11:25:04,0.0
3372,7632,-8036,-1307,-110,-113,2025-02-17 11:25:04,0.0
4740,8820,-9068,333,927,-29,2025-02-17 11:25:04,0.0
5280,8308,-12876,651,428,-125,2025-02-17 11:25:04,0.0
4932,7980,-14644,24,-21,-237,2025-02-17 11:25:04,0.0
4556,8392,-13128,-552,85,-156,2025-02-17 11:25:04,0.0
4488,8612,-11100,-219,239,-145,2025-02-17 11:25:04,0.0
4836,8120,-11968,16,250,-172,2025-02-17 11:25:04,0.0
4924,8380,-12732,-137,194,-175,2025-02-17 11:25:04,0.0
4672,8256,-12620,-242,105,-183,2025-02-17 11:25:04,0.0
4612,8576,-11968,-214,173,-188,2025-02-17 11:25:04,0.0
4760,8280,-12308,-99,233,-163,2025-02-17 11:25:04,0.0
4820,8464,-12324,-211,157,-188,2025-02-17 11:25:04,0.0
4676,8412,-12296,-202,119,-191,2025-02-17 11:25:04,0.0
4724,8428,-12132,-148,193,-165,2025-02-17 11:25:04,0.0
4844,8232,-12416,-179,225,-169,2025-02-17 11:25:04,0.0
4760,8284,-12376,-192,179,-156,2025-02-17 11:25:04,0.0
4648,8484,-12284,-141,153,-160,2025-02-17 11:25:04,0.0
4752,8352,-12396,-141,198,-162,2025-02-17 11:25:04,0.0
4772,8340,-12364,-183,157,-175,2025-02-17 11:25:04,0.0
4656,8280,-12272,-157,157,-190,2025-02-17 11:25:04,0.0
4680,8360,-12376,-145,167,-181,2025-02-17 11:25:04,0.0
4784,8284,-12432,-178,189,-189,2025-02-17 11:25:04,0.0
4784,8292,-12256,-145,125,-175,2025-02-17 11:25:04,0.0
4692,8392,-12392,-147,151,-183,2025-02-17 11:25:04,0.0
4832,8320,-12364,-164,216,-185,2025-02-17 11:25:04,0.0
4748,8328,-12300,-179,172,-166,2025-02-17 11:25:04,0.0
4736,8376,-12252,-172,154,-193,2025-02-17 11:25:04,0.0
4744,8292,-12532,-175,192,-169,2025-02-17 11:25:04,0.0
4776,8356,-12512,-155,189,-168,2025-02-17 11:25:04,0.0
4692,8380,-12324,-162,175,-182,2025-02-17 11:25:04,0.0
4696,8300,-12364,-141,171,-187,2025-02-17 11:25:04,0.0
4700,8380,-12288,-172,176,-165,2025-02-17 11:25:04,0.0
4728,8244,-12392,-153,149,-168,2025-02-17 11:25:04,0.0
4760,8360,-12352,-182,176,-182,2025-02-17 11:25:04,0.0
4748,8300,-12340,-169,175,-181,2025-02-17 11:25:04,0.0
4812,8348,-12424,-171,158,-164,2025-02-17 11:25:04,0.0
4716,8388,-12240,-166,160,-170,2025-02-17 11:25:04,0.0
4820,8316,-12396,-190,191,-199,2025-02-17 11:25:04,0.0
4816,8328,-12356,-150,163,-177,2025-02-17 11:25:04,0.0
4704,8348,-12308,-190,175,-203,2025-02-17 11:25:04,0.0
4812,8376,-12336,-151,178,-176,2025-02-17 11:25:04,0.0
4760,8344,-12228,-152,177,-182,2025-02-17 11:25:04,0.0
4800,8408,-12388,-164,165,-176,2025-02-17 11:25:04,0.0
4716,8264,-12336,-147,169,-186,2025-02-17 11:25:04,0.0
4824,8356,-12256,-165,199,-167,2025-02-17 11:25:04,0.0
4776,8292,-12340,-178,181,-152,2025-02-17 11:25:05,0.0
4688,8364,-12364,-162,172,-188,2025-02-17 11:25:05,0.0
4656,8340,-12216,-163,173,-169,2025-02-17 11:25:05,0.0
4744,8372,-12432,-179,191,-160,2025-02-17 11:25:05,0.0
4800,8288,-12316,-175,166,-192,2025-02-17 11:25:05,0.0
4768,8384,-12372,-128,188,-177,2025-02-17 11:25:05,0.0
4768,8392,-12408,-187,179,-187,2025-02-17 11:25:05,0.0
4776,8320,-12100,-149,187,-160,2025-02-17 11:25:05,0.0
4820,8300,-12248,-163,201,-195,2025-02-17 11:25:05,0.0
4804,8340,-12324,-156,161,-172,2025-02-17 11:25:05,0.0
4712,8368,-12312,-160,184,-151,2025-02-17 11:25:05,0.0
4836,8224,-12356,-138,196,-184,2025-02-17 11:25:05,0.0
4804,8328,-12260,-178,160,-183,2025-02-17 11:25:05,0.0
4752,8380,-12208,-164,178,-177,2025-02-17 11:25:05,0.0
4736,8340,-12356,-156,188,-196,2025-02-17 11:25:05,0.0
4680,8296,-12180,-177,169,-163,2025-02-17 11:25:05,0.0
4748,8384,-12228,-159,179,-174,2025-02-17 11:25:05,0.0
4700,8348,-12300,-163,190,-190,2025-02-17 11:25:05,0.0
4784,8328,-12400,-148,154,-189,2025-02-17 11:25:05,0.0
4744,8380,-12344,-178,172,-194,2025-02-17 11:25:05,0.0
4752,8332,-12400,-144,188,-180,2025-02-17 11:25:05,
4820,8376,-12304,-164,183,-170,2025-02-17 11:25:05,0.0
4820,8308,-12280,-163,188,-182,2025-02-17 11:25:05,0.0
4700,8392,-12300,-167,201,-187,2025-02-17 11:25:05,0.0
4800,8284,-12216,-172,171,-169,2025-02-17 11:25:05,0.0
4696,8316,-12392,-184,157,-170,2025-02-17 11:25:05,0.0
4728,8348,-12380,-148,163,-172,2025-02-17 11:25:05,0.0
4724,8368,-12440,-156,180,-173,2025-02-17 11:25:05,0.0
4720,8356,-12352,-146,186,-185,2025-02-17 11:25:05,0.0
4764,8372,-12400,-157,155,-190,2025-02-17 11:25:06,0.0
8940,15756,5108,-15298,2140,-2970,2025-02-17 11:25:06,0.0
4372,16688,4464,-11597,1482,-5669,2025-02-17 11:25:06,0.0
1836,19372,5700,-7546,1383,-5141,2025-02-17 11:25:06,0.0
2824,21560,6488,-2340,822,-3960,2025-02-17 11:25:06,0.0
2776,21020,5012,2335,1309,-4159,2025-02-17 11:25:06,0.0
2932,20280,4588,6222,2667,-4434,2025-02-17 11:25:06,0.0
2804,20560,3988,9919,5331,-4731,2025-02-17 11:25:06,0.0
2852,21796,2948,12277,8173,-4725,2025-02-17 11:25:06,0.0
2548,22168,2264,13946,10827,-4512,2025-02-17 11:25:06,0.0
1604,22236,844,14124,13660,-3729,2025-02-17 11:25:06,0.0
1416,21772,1144,13944,16218,-2711,2025-02-17 11:25:06,0.0
60,20416,1428,14116,19075,-185,2025-02-17 11:25:06,0.0
1464,19208,-396,14024,21224,1633,2025-02-17 11:25:06,0.0
1320,20848,-1824,12172,22837,2748,2025-02-17 11:25:06,0.0
3428,20760,-3180,8803,22588,3948,2025-02-17 11:25:06,0.0
4408,20064,-3308,4770,20604,4582,2025-02-17 11:25:06,0.0
5788,19312,-2424,-906,18611,3444,2025-02-17 11:25:06,0.0
3132,22584,3324,-1003,13977,2509,2025-02-17 11:25:06,0.0
3700,17420,172,-1573,9295,1722,2025-02-17 11:25:06,0.0
5528,14736,3072,-1853,5733,2016,2025-02-17 11:25:06,0.0
6808,14320,2048,146,1892,-247,2025-02-17 11:25:06,0.0
7276,12052,-740,228,-222,-5278,2025-02-17 11:25:06,0.0
4468,13804,1788,242,-770,-7649,2025-02-17 11:25:06,0.0
2948,13696,400,269,768,-8038,2025-02-17 11:25:06,0.0
2764,16640,2832,-781,4398,-6920,2025-02-17 11:25:06,0.0
1580,14744,-264,1305,8167,-7588,2025-02-17 11:25:06,0.0
2648,12756,-1924,584,12662,-7394,2025-02-17 11:25:06,0.0
3456,12292,-516,-365,18452,-8290,2025-02-17 11:25:06,0.0
2176,12640,228,-204,23027,-8604,2025-02-17 11:25:06,0.0
1668,12524,512,654,26848,-7612,2025-02-17 11:25:06,0.0
2320,11036,976,1755,29481,-6821,2025-02-17 11:25:06,0.0
2544,9668,1672,3205,30469,-6329,2025-02-17 11:25:06,0.0
1084,8252,1660,4547,31327,-5301,2025-02-17 11:25:06,0.0
2100,10036,3260,6430,31588,-3227,2025-02-17 11:25:06,0.0
3256,9356,2296,8493,31202,-2686,2025-02-17 11:25:06,0.0
3612,9792,2288,9541,30461,-2692,2025-02-17 11:25:06,0.0
2960,9660,2092,10553,29222,-2202,2025-02-17 11:25:06,0.0
2216,8568,2072,10826,27712,-833,2025-02-17 11:25:06,0.0
1992,7712,2344,10546,26132,1113,2025-02-17 11:25:06,0.0
1932,8324,3316,8709,22416,3978,2025-02-17 11:25:06,0.0
5216,8444,-372,7071,11209,6161,2025-02-17 11:25:06,0.0
4896,10300,4272,3236,-3534,2829,2025-02-17 11:25:06,0.0
2104,11984,4896,4825,-13104,4345,2025-02-17 11:25:06,0.0
2884,13616,992,7996,-13475,5263,2025-02-17 11:25:06,0.0
2656,10824,-1524,9660,-6617,5980,2025-02-17 11:25:06,0.0
3928,8432,-4540,9016,-1217,7574,2025-02-17 11:25:06,0.0
4820,9028,-5000,5216,-792,9399,2025-02-17 11:25:06,0.0
3660,10080,-2336,1965,-2001,11112,2025-02-17 11:25:06,0.0
2584,11332,-1196,1075,-1276,12508,2025-02-17 11:25:06,0.0
3160,10520,-392,2250,1820,13813,2025-02-17 11:25:06,0.0
4460,9052,-792,4095,7346,13362,2025-02-17 11:25:06,0.0
4424,9956,-3436,2595,12673,13120,2025-02-17 11:25:07,0.0
5764,11252,-3616,-455,15879,12235,2025-02-17 11:25:07,0.0
8120,12020,-1780,-1330,13510,11396,2025-02-17 11:25:07,0.0
9368,12164,-180,-794,8135,11860,2025-02-17 11:25:07,0.0
10144,12456,-304,383,3485,11697,2025-02-17 11:25:07,0.0
10344,13944,-1460,995,1308,12293,2025-02-17 11:25:07,0.0
11104,13672,-3692,1043,-836,12265,2025-02-17 11:25:07,0.0
13356,13104,-7212,440,-3123,10510,2025-02-17 11:25:07,0.0
14440,13276,-8700,-129,-5039,7125,2025-02-17 11:25:07,0.0
13932,13008,-9204,-829,-6739,3506,2025-02-17 11:25:07,0.0
12268,12916,-8328,-3051,-6707,-1233,2025-02-17 11:25:07,0.0
11360,11820,-6516,-3948,-7043,-3259,2025-02-17 11:25:07,0.0
13452,11764,-6980,-5098,-8125,-4817,2025-02-17 11:25:07,0.0
12632,12628,-7136,-6228,-8828,-6868,2025-02-17 11:25:07,0.0
11284,13996,-6820,-7619,-8275,-7468,2025-02-17 11:25:07,0.0
10724,14820,-5960,-8879,-5922,-7031,2025-02-17 11:25:07,0.0
11476,15384,-4488,-9799,-3192,-6182,2025-02-17 11:25:07,0.0
10096,15752,-3280,-9625,-289,-5181,2025-02-17 11:25:07,0.0
8288,15704,-2652,-8639,4052,-3716,2025-02-17 11:25:07,0.0
7816,15116,-1696,-6950,9322,-2972,2025-02-17 11:25:07,0.0
7292,14952,-1488,-4823,10715,-2875,2025-02-17 11:25:07,0.0
7188,15172,16,-2920,9904,-2731,2025-02-17 11:25:07,0.0
6988,14908,-1380,-1910,9575,-3193,2025-02-17 11:25:07,0.0
6896,13868,168,-769,8667,-2742,2025-02-17 11:25:07,0.0
8264,13772,-1144,-1698,8654,-1797,2025-02-17 11:25:07,0.0
7572,14528,-416,-1820,7629,-3068,2025-02-17 11:25:07,0.0
5492,14644,-1100,-2710,5095,-3735,2025-02-17 11:25:07,0.0
7020,14272,52,-4240,1833,-2850,2025-02-17 11:25:07,0.0
7892,13664,536,-2457,1269,-2104,2025-02-17 11:25:07,0.0
4732,12532,-300,-2382,4866,735,2025-02-17 11:25:07,0.0
5036,11836,-116,-2137,10468,2674,2025-02-17 11:25:07,0.0
6412,13568,-32,-2813,13974,5108,2025-02-17 11:25:07,0.0
6268,15036,976,-179,18227,6762,2025-02-17 11:25:07,0.0
9436,16004,772,4349,22541,9662,2025-02-17 11:25:07,0.0
9620,17536,-956,7129,23446,8873,2025-02-17 11:25:07,0.0
10468,17004,1356,6875,19493,8238,2025-02-17 11:25:07,0.0
11348,14188,-220,7952,12762,7153,2025-02-17 11:25:07,0.0
11040,11596,44,7276,2476,7479,2025-02-17 11:25:07,0.0
13372,11216,-500,7907,-8354,6835,2025-02-17 11:25:07,0.0
12264,11180,-2964,8357,-16298,5208,2025-02-17 11:25:07,
12120,11332,-3192,8781,-18886,2376,2025-02-17 11:25:07,0.0
11484,12588,-3648,7920,-14427,584,2025-02-17 11:25:07,0.0
13932,14204,-3300,6774,-8338,427,2025-02-17 11:25:07,0.0
16480,16116,-3544,4330,-6341,-1562,2025-02-17 11:25:07,0.0
14964,15716,-4380,2849,-6766,-4707,2025-02-17 11:25:07,0.0
13936,13492,-5048,2615,-9730,-5089,2025-02-17 11:25:07,0.0
12916,13016,-2792,2152,-13303,-4389,2025-02-17 11:25:07,0.0
10888,13396,-2892,2422,-13939,-4317,2025-02-17 11:25:07,0.0
8716,14264,-776,2437,-9223,-4634,2025-02-17 11:25:07,0.0
9312,14572,-2520,3411,-4734,-4208,2025-02-17 11:25:07,0.0
9860,14724,-2584,4792,-5750,-2847,2025-02-17 11:25:07,0.0
10164,14108,-3588,5456,-11286,-402,2025-02-17 11:25:07,0.0
9316,13892,-4452,5921,-17113,758,2025-02-17 11:25:07,0.0
6152,13796,-5500,7193,-19911,2573,2025-02-17 11:25:07,0.0
8536,12964,-5668,9588,-18183,4591,2025-02-17 11:25:07,0.0
5652,12168,-6512,12306,-12430,5305,2025-02-17 11:25:07,0.0
4960,10544,-7556,13583,-7218,8087,2025-02-17 11:25:07,0.0
6532,8924,-8056,14796,-6313,8162,2025-02-17 11:25:07,0.0
5544,8788,-8300,15551,-8586,9328,2025-02-17 11:25:07,0.0
5368,7072,-8504,14951,-9823,9287,2025-02-17 11:25:07,0.0
5500,7004,-7520,14320,-10398,9238,2025-02-17 11:25:08,0.0
4848,7032,-9268,14675,-8151,8253,2025-02-17 11:25:08,0.0
5304,7608,-8764,13616,-4189,8357,2025-02-17 11:25:08,0.0
6568,7600,-7100,14964,1460,8688,2025-02-17 11:25:08,0.0
8524,7144,-8400,15374,6667,8691,2025-02-17 11:25:08,0.0
8628,7028,-8092,14387,11317,7119,2025-02-17 11:25:08,0.0
7708,6312,-8800,13837,13967,6839,2025-02-17 11:25:08,0.0
9580,5668,-9664,12912,13541,6800,2025-02-17 11:25:08,0.0
11052,5520,-9840,11993,10950,5596,2025-02-17 11:25:08,0.0
11476,4828,-8988,12260,7236,4411,2025-02-17 11:25:08,0.0
11840,3516,-8948,12407,-92,2895,2025-02-17 11:25:08,0.0
9828,3448,-8460,12197,-9657,952,2025-02-17 11:25:08,0.0
7508,4424,-9380,14119,-17082,2301,2025-02-17 11:25:08,0.0
9780,3000,-12376,14126,-19710,2326,2025-02-17 11:25:08,0.0
9392,2308,-13856,13970,-17669,681,2025-02-17 11:25:08,0.0
9736,2004,-17348,14069,-12309,-465,2025-02-17 11:25:08,0.0
9976,1356,-19576,11671,-6008,-2050,2025-02-17 11:25:08,0.0
10140,1372,-16860,8270,589,-3666,2025-02-17 11:25:08,0.0
8964,1720,-14488,7269,5484,-4822,2025-02-17 11:25:08,0.0
8652,1064,-13824,6411,8290,-5032,2025-02-17 11:25:08,0.0
10248,1088,-14032,4708,5891,-5395,2025-02-17 11:25:08,0.0
10976,1280,-14684,2707,-1338,-6133,2025-02-17 11:25:08,0.0
10568,1176,-13768,3522,-8807,-6732,2025-02-17 11:25:08,0.0
9936,1760,-15336,3454,-15293,-6268,2025-02-17 11:25:08,0.0
9492,1600,-14600,2932,-19061,-5535,2025-02-17 11:25:08,0.0
9044,2988,-17244,-626,-18562,-4682,2025-02-17 11:25:08,0.0
10324,2772,-10884,-4049,-13718,-6343,2025-02-17 11:25:08,0.0
6196,1860,-12520,1380,-4065,-9863,2025-02-17 11:25:08,0.0
2828,1812,-16180,3578,3945,-8778,2025-02-17 11:25:08,0.0
14896,540,-19632,5501,-6161,788,2025-02-17 11:25:08,0.0
12380,1848,-17916,4350,-2153,-2564,2025-02-17 11:25:08,0.0
2964,1500,-20636,3421,7925,-6234,2025-02-17 11:25:08,0.0
12992,3668,-13884,536,-147,-2669,2025-02-17 11:25:08,0.0
11008,984,-13220,1089,-4477,-3832,2025-02-17 11:25:08,0.0
6816,1704,-14204,18,-5988,-3776,2025-02-17 11:25:08,0.0
4636,1764,-13644,1090,-3832,-1450,2025-02-17 11:25:08,0.0
6596,732,-14284,2207,27,-452,2025-02-17 11:25:08,0.0
6912,-320,-15224,1642,3385,-966,2025-02-17 11:25:08,0.0
7172,76,-14276,912,4106,-629,2025-02-17 11:25:08,0.0
7860,8,-13520,-164,2312,534,2025-02-17 11:25:08,0.0
8232,1552,-11740,747,-1183,-258,2025-02-17 11:25:08,0.0
5288,2320,-12472,3010,-1544,437,2025-02-17 11:25:08,0.0
6316,964,-13860,3782,-1103,2257,2025-02-17 11:25:08,0.0
7808,-1508,-15180,5379,1402,1580,2025-02-17 11:25:08,0.0
8228,-1112,-15956,5711,2424,824,2025-02-17 11:25:08,0.0
6940,-772,-17612,6551,2578,206,2025-02-17 11:25:08,0.0
10100,-924,-19920,6006,1887,-526,2025-02-17 11:25:08,0.0
8420,-1108,-19372,3151,246,-1841,2025-02-17 11:25:08,0.0
8416,-2248,-15800,2778,-147,-2660,2025-02-17 11:25:08,0.0
6436,-1296,-14772,3907,2606,-3175,2025-02-17 11:25:08,0.0
5044,532,-15496,4810,7157,-3228,2025-02-17 11:25:08,0.0
5120,292,-14292,4907,14265,-2353,2025-02-17 11:25:08,0.0
9344,-128,-11864,4119,26312,-3363,2025-02-17 11:25:08,0.0
10020,-632,-11040,4745,32767,-5226,2025-02-17 11:25:08,0.0
10896,-584,-13192,4957,32767,-5551,2025-02-17 11:25:08,0.0
13040,-720,-15072,5056,32767,-5852,2025-02-17 11:25:08,0.0
13760,-292,-16396,5402,32767,-6313,2025-02-17 11:25:08,0.0
11980,704,-17048,5714,31532,-5905,2025-02-17 11:25:08,0.0
11392,1112,-15628,6650,19793,-4825,2025-02-17 11:25:08,0.0
11132,1088,-14152,7115,9841,-4921,2025-02-17 11:25:08,0.0
10628,752,-12492,6767,1842,-5699,2025-02-17 11:25:08,0.0
10516,384,-12076,6035,-4210,-7008,2025-02-17 11:25:08,0.0
10172,500,-12504,5950,-8870,-7502,2025-02-17 11:25:08,0.0
8672,520,-12520,5489,-10421,-7142,2025-02-17 11:25:09,0.0
9048,520,-12068,5352,-9696,-7180,2025-02-17 11:25:09,0.0
8200,396,-12224,4721,-7169,-6094,2025-02-17 11:25:09,0.0
9660,260,-10920,3645,-2404,-5668,2025-02-17 11:25:09,0.0
10652,1232,-10172,3071,2784,-6169,2025-02-17 11:25:09,0.0
13272,2540,-9036,3110,5978,-7064,2025-02-17 11:25:09,0.0
14656,2268,-8788,3983,7122,-8092,2025-02-17 11:25:09,0.0
17836,1188,-9624,3974,5982,-8178,2025-02-17 11:25:09,0.0
19272,-64,-8716,3763,3092,-8086,2025-02-17 11:25:09,0.0
18532,-608,-9352,3399,6334,-7360,2025-02-17 11:25:09,0.0
17204,536,-11148,3503,11293,-6681,2025-02-17 11:25:09,0.0
16312,1956,-13084,3353,17394,-5943,2025-02-17 11:25:09,0.0
13996,2796,-11984,3244,24184,-4698,2025-02-17 11:25:09,0.0
14444,2020,-9904,3978,30716,-3480,2025-02-17 11:25:09,0.0
15728,988,-7680,5069,32767,-3067,2025-02-17 11:25:09,0.0
15880,1376,-5768,5176,32767,-3540,2025-02-17 11:25:09,0.0
14904,1204,-3760,5380,32767,-3561,2025-02-17 11:25:09,
14520,1692,-16,5167,32767,-3018,2025-02-17 11:25:09,0.0
16400,1400,4912,4511,32767,-3141,2025-02-17 11:25:09,0.0
11420,1388,10996,5080,4120,-1062,2025-02-17 11:25:09,0.0
13008,1592,2472,7287,-8394,-2104,2025-02-17 11:25:09,0.0
16484,1568,-2772,7509,-12308,-2974,2025-02-17 11:25:09,0.0
19372,1000,-4392,5976,-9222,-2936,2025-02-17 11:25:09,0.0
20080,1396,-3888,3855,-5124,-1719,2025-02-17 11:25:09,0.0
21632,544,-2656,3845,-2492,-913,2025-02-17 11:25:09,0.0
20480,576,-2124,3827,-941,-1585,2025-02-17 11:25:09,0.0
19652,880,-2328,4123,-620,-1913,2025-02-17 11:25:09,0.0
19348,700,-2532,3614,-481,-2292,2025-02-17 11:25:09,0.0
18872,868,-1724,3231,-686,-2214,2025-02-17 11:25:09,0.0
19056,1372,-784,2846,-975,-1775,2025-02-17 11:25:09,0.0
19552,2416,-504,2914,-1451,-1495,2025-02-17 11:25:09,0.0
20872,3572,-1576,3435,-2526,-1573,2025-02-17 11:25:09,0.0
21876,3452,-4028,3455,-4577,-2211,2025-02-17 11:25:09,0.0
22452,2616,-3960,3113,-5256,-2550,2025-02-17 11:25:09,0.0
22176,2524,-4928,3073,-6022,-3200,2025-02-17 11:25:09,0.0
20284,2236,-6376,2787,-6333,-3363,2025-02-17 11:25:09,0.0
19596,2832,-7612,2389,-6455,-3489,2025-02-17 11:25:09,0.0
17204,2816,-8280,1948,-6349,-2882,2025-02-17 11:25:09,0.0
14976,2892,-8388,1391,-4733,-505,2025-02-17 11:25:09,0.0
15616,1952,-9632,954,-1430,1423,2025-02-17 11:25:09,0.0
15776,1872,-9400,629,1819,1590,2025-02-17 11:25:09,0.0
15028,-164,-9080,1339,4558,874,2025-02-17 11:25:09,0.0
14904,-1612,-8024,488,3552,208,2025-02-17 11:25:09,0.0
14884,-1888,-6612,-489,-94,582,2025-02-17 11:25:09,0.0
14900,-1000,-7636,-1802,-4162,1541,2025-02-17 11:25:09,0.0
16112,576,-6940,-2735,-7310,3270,2025-02-17 11:25:09,0.0
16564,856,-6272,-2485,-9170,4304,2025-02-17 11:25:09,0.0
17756,148,-6284,-1275,-8972,4130,2025-02-17 11:25:09,0.0
17948,-380,-7076,356,-7765,3251,2025-02-17 11:25:09,0.0
17848,-204,-7788,1470,-4162,2585,2025-02-17 11:25:09,0.0
17120,-196,-8248,1364,90,2600,2025-02-17 11:25:09,0.0
17428,-544,-7044,1474,3820,2589,2025-02-17 11:25:09,0.0
16768,-1036,-5808,1579,5447,2139,2025-02-17 11:25:09,0.0
16744,-1512,-6028,1717,5167,1413,2025-02-17 11:25:09,0.0
15832,-1816,-5584,1779,4177,501,2025-02-17 11:25:09,0.0
15044,-1904,-5264,1507,3214,-246,2025-02-17 11:25:09,0.0
14212,-1596,-5312,904,2048,-623,2025-02-17 11:25:09,0.0
13800,-1156,-5092,448,314,-395,2025-02-17 11:25:09,0.0
14172,-1004,-5652,-368,-2150,380,2025-02-17 11:25:09,0.0
15824,-1372,-5200,-198,-3679,384,2025-02-17 11:25:09,0.0
16712,-1156,-4736,249,-4055,-517,2025-02-17 11:25:09,0.0
17024,-1128,-5184,577,-4527,-1225,2025-02-17 11:25:10,0.0
16956,-1068,-6012,454,-4628,-1721,2025-02-17 11:25:10,0.0
16664,-1104,-6460,-123,-3912,-1951,2025-02-17 11:25:10,0.0
16672,-1072,-6456,-817,-2609,-1884,2025-02-17 11:25:10,0.0
16884,-972,-6216,-1608,-1075,-2027,2025-02-17 11:25:10,0.0
16860,-1172,-5752,-2122,-415,-2141,2025-02-17 11:25:10,0.0
17340,-756,-5928,-2692,60,-2276,2025-02-17 11:25:10,0.0
17200,-304,-5872,-3270,345,-2391,2025-02-17 11:25:10,0.0
16600,336,-5708,-3320,-277,-1996,2025-02-17 11:25:10,0.0
16396,-64,-6264,-3133,-2185,-1327,2025-02-17 11:25:10,0.0
16816,-416,-6648,-2649,-4834,-739,2025-02-17 11:25:10,0.0
17672,160,-6408,-2307,-7460,-33,2025-02-17 11:25:10,0.0
17560,544,-5920,-1734,-8709,668,2025-02-17 11:25:10,0.0
18144,936,-7560,-1486,-9302,1234,2025-02-17 11:25:10,0.0
17236,404,-8844,-1840,-9512,1945,2025-02-17 11:25:10,0.0
17016,352,-9388,-2501,-8881,2718,2025-02-17 11:25:10,0.0
17452,1296,-10652,-2956,-8091,3243,2025-02-17 11:25:10,0.0
18480,2092,-11120,-3057,-7452,2809,2025-02-17 11:25:10,0.0
17676,1180,-11412,-2527,-8189,2107,2025-02-17 11:25:10,0.0
15456,-896,-12700,-1453,-7802,1212,2025-02-17 11:25:10,0.0
13444,-1920,-13908,-1393,-5616,-227,2025-02-17 11:25:10,0.0
11440,-632,-13112,-2352,-2686,-621,2025-02-17 11:25:10,0.0
10560,1116,-12292,-3148,578,356,2025-02-17 11:25:10,0.0
11428,2684,-10692,-3130,3558,1185,2025-02-17 11:25:10,0.0
12956,3136,-9488,-2554,5210,725,2025-02-17 11:25:10,0.0
14000,3284,-9056,-2237,4920,-161,2025-02-17 11:25:10,0.0
15468,2916,-8760,-1383,2759,-1217,2025-02-17 11:25:10,0.0
15548,2232,-9080,-1047,-362,-2098,2025-02-17 11:25:10,0.0
15104,1592,-9128,-1008,-3632,-2749,2025-02-17 11:25:10,0.0
13772,1384,-8880,-977,-5477,-3401,2025-02-17 11:25:10,0.0
12040,2076,-9888,-362,-6057,-3346,2025-02-17 11:25:10,0.0
11400,2644,-10980,291,-4701,-2608,2025-02-17 11:25:10,0.0
12632,2784,-10800,620,-2854,-1901,2025-02-17 11:25:10,0.0
14120,2620,-10368,767,-1304,-2085,2025-02-17 11:25:10,0.0
14056,2908,-9780,1089,63,-2620,2025-02-17 11:25:10,0.0
13160,3100,-10028,1583,2568,-2525,2025-02-17 11:25:10,0.0
12656,2556,-9992,2194,6177,-1822,2025-02-17 11:25:10,0.0
13268,1924,-10056,2910,10181,-584,2025-02-17 11:25:10,0.0
14220,2100,-10240,3340,14423,990,2025-02-17 11:25:10,0.0
15804,2224,-9968,2818,20113,2799,2025-02-17 11:25:10,0.0
15688,2900,-9328,1395,23975,3921,2025-02-17 11:25:10,0.0
15876,2468,-3640,-246,14601,4710,2025-02-17 11:25:10,0.0
13124,2536,-5144,-1995,3949,5162,2025-02-17 11:25:10,0.0
13780,2008,-6476,-2756,-972,5802,2025-02-17 11:25:10,0.0
16084,1848,-8304,-2830,-1660,5522,2025-02-17 11:25:10,0.0
17960,1260,-9676,-3295,-769,4647,2025-02-17 11:25:10,0.0
18144,764,-9204,-3844,851,3152,2025-02-17 11:25:10,0.0
16812,2036,-9444,-4133,2104,2136,2025-02-17 11:25:10,0.0
14588,3056,-9448,-4536,2313,1762,2025-02-17 11:25:10,0.0
14344,3164,-8668,-4844,1977,1932,2025-02-17 11:25:10,0.0
14512,2504,-7652,-4830,434,2693,2025-02-17 11:25:10,0.0
14860,2156,-7884,-4783,-995,3235,2025-02-17 11:25:10,0.0
15316,2116,-8844,-4963,-1354,3719,2025-02-17 11:25:10,0.0
15792,1920,-9176,-5712,-708,4222,2025-02-17 11:25:10,0.0
15672,1904,-8760,-6241,-704,4502,2025-02-17 11:25:10,0.0
15880,1504,-8928,-6514,-968,4608,2025-02-17 11:25:10,
15892,1268,-9012,-6762,-781,4674,2025-02-17 11:25:10,0.0
15888,1060,-9004,-7107,-117,4780,2025-02-17 11:25:10,0.0
15976,764,-8596,-7488,635,4828,2025-02-17 11:25:10,0.0
15876,820,-7852,-7880,1170,4651,2025-02-17 11:25:10,0.0
15876,524,-8084,-8468,1448,4464,2025-02-17 11:25:10,0.0
15784,180,-7632,-9020,1669,3999,2025-02-17 11:25:11,0.0
15500,-144,-7992,-9751,841,4080,2025-02-17 11:25:11,0.0
14796,-32,-8128,-10655,-211,4753,2025-02-17 11:25:11,0.0
14460,764,-8756,-11907,-1794,5994,2025-02-17 11:25:11,0.0
14768,792,-8848,-12943,-3840,7330,2025-02-17 11:25:11,0.0
15816,308,-8536,-13719,-5627,8056,2025-02-17 11:25:11,0.0
16320,460,-8880,-14414,-6230,9060,2025-02-17 11:25:11,0.0
16728,352,-9384,-15081,-5179,10171,2025-02-17 11:25:11,0.0
17004,244,-9492,-15585,-2271,11221,2025-02-17 11:25:11,0.0
16480,-60,-9300,-16324,912,11962,2025-02-17 11:25:11,0.0
15568,-820,-9380,-16613,2004,12269,2025-02-17 11:25:11,0.0
14744,-1508,-9720,-17022,1561,12132,2025-02-17 11:25:11,0.0
14184,-2112,-9824,-17344,719,11913,2025-02-17 11:25:11,0.0
13828,-2236,-10840,-18013,669,11946,2025-02-17 11:25:11,0.0
13272,-1776,-10220,-18964,1000,12377,2025-02-17 11:25:11,0.0
13100,-1608,-9280,-20096,394,13653,2025-02-17 11:25:11,0.0
14320,-1832,-8336,-21022,-771,14877,2025-02-17 11:25:11,0.0
15920,-2372,-8404,-21263,-1207,15117,2025-02-17 11:25:11,0.0
15856,-2164,-8844,-20875,-704,15385,2025-02-17 11:25:11,0.0
16788,-2676,-9328,-19977,-588,14640,2025-02-17 11:25:11,0.0
15804,-3400,-9964,-19548,-788,13694,2025-02-17 11:25:11,0.0
14924,-5256,-9792,-18878,-615,12543,2025-02-17 11:25:11,0.0
17324,-6464,-9916,-18629,50,10185,2025-02-17 11:25:11,0.0
14980,-5540,-8972,-18532,1305,9321,2025-02-17 11:25:11,0.0
16992,-4984,-7900,-18466,1419,8867,2025-02-17 11:25:11,0.0
15328,-4420,-8376,-18561,1470,8823,2025-02-17 11:25:11,0.0
16052,-4072,-7492,-18136,1985,8249,2025-02-17 11:25:11,0.0
16240,-3804,-6984,-17743,2111,7318,2025-02-17 11:25:11,0.0
16680,-2780,-7396,-16688,760,6135,2025-02-17 11:25:11,0.0
15428,-696,-8276,-15850,-1789,5749,2025-02-17 11:25:11,0.0
13584,488,-9952,-15518,-4375,7528,2025-02-17 11:25:11,0.0
13948,468,-9940,-16018,-4727,9321,2025-02-17 11:25:11,0.0
15268,-452,-7940,-15973,-3805,10149,2025-02-17 11:25:11,0.0
15612,-220,-7660,-16065,-4077,9960,2025-02-17 11:25:11,0.0
15836,336,-7476,-15907,-4747,9406,2025-02-17 11:25:11,0.0
15372,-60,-7956,-15942,-4492,9159,2025-02-17 11:25:11,0.0
16476,-80,-7704,-15699,-4175,9076,2025-02-17 11:25:11,0.0
16120,240,-7696,-15465,-4080,9406,2025-02-17 11:25:11,0.0
16288,252,-8016,-15671,-3758,10242,2025-02-17 11:25:11,0.0
16392,88,-8912,-16104,-3184,10681,2025-02-17 11:25:11,0.0
16392,-732,-8216,-15954,-2640,11226,2025-02-17 11:25:11,0.0
17500,-420,-7840,-15532,-2665,11331,2025-02-17 11:25:11,0.0
17252,-640,-7080,-14933,-1981,11802,2025-02-17 11:25:11,0.0
15832,-536,-6492,-14423,-341,11798,2025-02-17 11:25:11,0.0
17216,-308,-7316,-13864,1841,11378,2025-02-17 11:25:11,0.0
16872,-128,-6924,-13579,2795,10875,2025-02-17 11:25:11,0.0
16356,-12,-6196,-13243,2527,10553,2025-02-17 11:25:11,0.0
16060,80,-6336,-12693,1613,10007,2025-02-17 11:25:11,0.0
15600,528,-6640,-12078,970,9739,2025-02-17 11:25:11,0.0
15104,828,-7096,-11589,60,9600,2025-02-17 11:25:11,0.0
14908,548,-7580,-11612,-498,9868,2025-02-17 11:25:11,0.0
15368,-4,-7012,-11249,-844,9864,2025-02-17 11:25:11,0.0
16000,-132,-7132,-10736,-1280,9697,2025-02-17 11:25:11,0.0
16124,-332,-7736,-10279,-1564,9468,2025-02-17 11:25:11,0.0
17024,216,-8068,-9810,-1050,9054,2025-02-17 11:25:11,0.0
16888,452,-8680,-9583,352,8875,2025-02-17 11:25:11,0.0
16508,-160,-8456,-9480,1505,8956,2025-02-17 11:25:11,0.0
16812,-724,-7456,-9333,2129,9050,2025-02-17 11:25:11,0.0
16488,-1252,-7056,-9097,2370,8533,2025-02-17 11:25:11,0.0
15724,-1120,-7636,-9065,1917,7959,2025-02-17 11:25:11,0.0
15300,-1088,-9352,-9267,345,7391,2025-02-17 11:25:11,0.0
15844,-1280,-10716,-9813,-1874,6439,2025-02-17 11:25:11,0.0
16328,-1204,-11196,-10498,-4200,5821,2025-02-17 11:25:11,0.0
16688,-1300,-10056,-10683,-5519,5681,2025-02-17 11:25:12,0.0
32767,-5076,-11140,-10350,-836,4522,2025-02-17 11:25:12,0.0
16708,-1604,-8044,-8949,-2316,5921,2025-02-17 11:25:12,0.0
16616,-2452,-8076,-8345,2334,5995,2025-02-17 11:25:12,0.0
14740,-1988,-7136,-7822,4265,5895,2025-02-17 11:25:12,0.0
14488,-1548,-7388,-7714,3941,5780,2025-02-17 11:25:12,0.0
14608,-1040,-8424,-8157,1794,5644,2025-02-17 11:25:12,0.0
15184,-816,-8572,-8912,-799,5616,2025-02-17 11:25:12,0.0
15660,-1040,-8228,-8980,-1636,5351,2025-02-17 11:25:12,0.0
15628,-964,-8128,-8721,-1434,5519,2025-02-17 11:25:12,0.0
15824,-1072,-7440,-8171,-1008,5595,2025-02-17 11:25:12,0.0
15676,-1260,-7196,-7181,-459,5574,2025-02-17 11:25:12,0.0
15904,-2248,-6820,-5612,176,5178,2025-02-17 11:25:12,0.0
16476,-3232,-7248,-4585,120,4329,2025-02-17 11:25:12,0.0
16296,-2792,-8076,-4188,316,3904,2025-02-17 11:25:12,0.0
16112,-2424,-8428,-4377,578,3626,2025-02-17 11:25:12,0.0
16016,-2188,-9184,-4804,950,3625,2025-02-17 11:25:12,0.0
15872,-1996,-9264,-5668,953,3603,2025-02-17 11:25:12,0.0
16092,-1888,-9056,-6439,931,3442,2025-02-17 11:25:12,0.0
15400,-1516,-7948,-6822,1081,3698,2025-02-17 11:25:12,0.0
15564,-1552,-6268,-6635,1273,4240,2025-02-17 11:25:12,0.0
15732,-1856,-6972,-5922,1534,4462,2025-02-17 11:25:12,0.0
15904,-2308,-6844,-5089,1211,4277,2025-02-17 11:25:12,0.0
16104,-2208,-8640,-5989,520,3055,2025-02-17 11:25:12,0.0
16356,-2804,-7472,-5797,874,2922,2025-02-17 11:25:12,0.0
17044,-3768,-6708,-5118,898,2148,2025-02-17 11:25:12,0.0
17140,-3832,-7132,-4413,885,1337,2025-02-17 11:25:12,0.0
16356,-3036,-6920,-3939,714,547,2025-02-17 11:25:12,0.0
15968,-2856,-6756,-3160,656,199,2025-02-17 11:25:12,0.0
15156,-2416,-7560,-2430,288,242,2025-02-17 11:25:12,0.0
16036,-2416,-7808,-2452,-544,193,2025-02-17 11:25:12,0.0
16636,-2408,-7872,-2099,-526,-43,2025-02-17 11:25:12,
17468,-1944,-8068,-1405,434,-601,2025-02-17 11:25:12,0.0
16748,-1196,-7436,-1074,1802,-796,2025-02-17 11:25:12,0.0
16744,-1560,-6724,-268,3006,-1563,2025-02-17 11:25:12,0.0
16616,-1460,-7296,703,3818,-2733,2025-02-17 11:25:12,0.0
15404,-556,-4892,1978,3272,-2636,2025-02-17 11:25:12,0.0
15952,-168,-6700,2168,1255,-2941,2025-02-17 11:25:12,0.0
16532,1248,-10192,358,-449,-3009,2025-02-17 11:25:12,0.0
15804,2488,-10048,-1629,-154,-1787,2025-02-17 11:25:12,0.0
17684,1732,-7132,-2090,1178,-213,2025-02-17 11:25:12,0.0
20336,-968,-4928,-1859,836,-1451,2025-02-17 11:25:12,0.0
20632,-1884,-5060,-995,198,-3593,2025-02-17 11:25:12,0.0
19484,-1584,-5904,-463,594,-5266,2025-02-17 11:25:12,0.0
17596,-784,-7308,-723,2012,-6114,2025-02-17 11:25:12,0.0
15784,224,-7200,-1266,4406,-5805,2025-02-17 11:25:12,0.0
14728,752,-5724,-1487,6309,-4930,2025-02-17 11:25:12,0.0
14796,1056,-4800,-2616,6842,-4277,2025-02-17 11:25:12,0.0
15444,420,-2092,256,5489,-3403,2025-02-17 11:25:12,0.0
15188,1596,-5076,903,2936,-3527,2025-02-17 11:25:12,0.0
15344,1980,-4660,1190,23,-3483,2025-02-17 11:25:12,0.0
15840,2292,-3952,1603,-3197,-3238,2025-02-17 11:25:12,0.0
16684,1956,-4200,1680,-4447,-3112,2025-02-17 11:25:12,0.0
17960,1408,-4060,1993,-4139,-3177,2025-02-17 11:25:12,0.0
16888,1236,-5120,1101,2239,-1709,2025-02-17 11:25:12,0.0
17508,584,-4732,421,2965,-1150,2025-02-17 11:25:12,0.0
17484,688,-4340,49,3600,-562,2025-02-17 11:25:13,0.0
17792,1140,-4292,-468,4228,-97,2025-02-17 11:25:13,0.0
17856,1420,-3768,-615,4906,-241,2025-02-17 11:25:13,0.0
17752,1840,-3596,-730,5276,-757,2025-02-17 11:25:13,0.0
17216,2308,-3024,-551,5225,-937,2025-02-17 11:25:13,0.0
17924,2264,-2240,544,3573,-1218,2025-02-17 11:25:13,0.0
18648,2080,-2780,1168,851,-1303,2025-02-17 11:25:13,0.0
18856,1928,-3412,1417,-221,-1399,2025-02-17 11:25:13,0.0
18836,1304,-3972,1857,408,-1860,2025-02-17 11:25:13,0.0
18760,1100,-5468,2216,2025,-2014,2025-02-17 11:25:13,0.0
19908,2916,-6324,1783,2769,-2454,2025-02-17 11:25:13,0.0
19820,4832,-7952,-301,2076,-1911,2025-02-17 11:25:13,0.0
20748,4872,-7008,-1058,2597,-1301,2025-02-17 11:25:13,0.0
20956,5260,-6748,-1135,2606,-358,2025-02-17 11:25:13,0.0
20332,4932,-6384,-1147,1397,-82,2025-02-17 11:25:13,0.0
19108,4952,-5896,-1005,-308,255,2025-02-17 11:25:13,0.0
18064,4676,-6048,-692,-1632,887,2025-02-17 11:25:13,0.0
17484,3772,-6484,-211,-2357,1497,2025-02-17 11:25:13,0.0
16424,3812,-7372,98,-1947,2201,2025-02-17 11:25:13,0.0
15828,3572,-8196,-245,85,3194,2025-02-17 11:25:13,0.0
14908,2584,-8044,-978,2895,4317,2025-02-17 11:25:13,0.0
14188,1500,-8136,-1002,4252,4663,2025-02-17 11:25:13,0.0
13452,-68,-7852,-1065,4008,4540,2025-02-17 11:25:13,0.0
13544,-1728,-7256,-1412,1929,4167,2025-02-17 11:25:13,0.0
14196,-2480,-6712,-1795,-1363,3465,2025-02-17 11:25:13,0.0
15116,-1976,-6124,-1853,-4796,2938,2025-02-17 11:25:13,0.0
15612,-88,-6896,-1320,-7462,2763,2025-02-17 11:25:13,0.0
15976,760,-7032,-920,-9281,2907,2025-02-17 11:25:13,0.0
16912,520,-6496,-140,-9756,3513,2025-02-17 11:25:13,0.0
17480,504,-7240,440,-9059,3816,2025-02-17 11:25:13,0.0
17136,728,-7792,388,-7906,4536,2025-02-17 11:25:13,0.0
15820,788,-9056,181,-6090,5976,2025-02-17 11:25:13,0.0
15088,232,-9412,-652,-2394,7413,2025-02-17 11:25:13,0.0
15064,-960,-9840,-1876,2201,7847,2025-02-17 11:25:13,0.0
15772,-1672,-8544,-2751,5684,7244,2025-02-17 11:25:13,0.0
16028,-2092,-6400,-3553,6687,6816,2025-02-17 11:25:13,0.0
16476,-3036,-4408,-3163,6229,5820,2025-02-17 11:25:13,0.0
17168,-4060,-3908,-2342,4424,2961,2025-02-17 11:25:13,0.0
15296,-3568,-4104,-2101,1932,1230,2025-02-17 11:25:13,0.0
15152,-2844,-4860,-1959,275,644,2025-02-17 11:25:13,0.0
15752,-2160,-5492,-1966,-369,262,2025-02-17 11:25:13,0.0
16076,-1572,-5620,-2205,276,36,2025-02-17 11:25:13,0.0
16476,-1428,-5060,-2148,1219,-6,2025-02-17 11:25:13,0.0
17200,-1352,-4280,-1917,1588,-159,2025-02-17 11:25:13,0.0
17472,-1492,-4012,-1692,1357,-262,2025-02-17 11:25:13,0.0
17724,-1396,-4072,-1536,1309,-28,2025-02-17 11:25:13,0.0
18252,-1428,-4348,-1344,2135,213,2025-02-17 11:25:13,0.0
17660,-1836,-4492,-1340,3855,575,2025-02-17 11:25:13,0.0
17656,-2032,-5568,-1893,6304,884,2025-02-17 11:25:13,0.0
17136,-1576,-5968,-2542,8064,1009,2025-02-17 11:25:13,0.0
17288,-1140,-5800,-2987,8113,934,2025-02-17 11:25:13,0.0
15916,-1836,-3788,-3033,7055,895,2025-02-17 11:25:13,0.0
17624,-2116,-5340,-3298,5044,892,2025-02-17 11:25:13,0.0
17100,-852,-3892,-3564,2358,1212,2025-02-17 11:25:13,0.0
18128,280,-4648,-3954,-44,2481,2025-02-17 11:25:13,0.0
20280,-704,-5440,-4143,-1051,3086,2025-02-17 11:25:13,0.0
21772,-2288,-7240,-4196,-2450,2916,2025-02-17 11:25:13,0.0
21380,-3252,-9288,-3448,-3604,3205,2025-02-17 11:25:13,0.0
21780,-4156,-11044,-2834,-4823,3276,2025-02-17 11:25:13,0.0
21476,-4248,-12384,-2397,-6094,3284,2025-02-17 11:25:13,0.0
20080,-3564,-11988,-2106,-4377,2336,2025-02-17 11:25:13,0.0
17948,-2460,-11032,-2563,-250,706,2025-02-17 11:25:13,0.0
15172,-8,-8708,-2440,3822,-651,2025-02-17 11:25:13,0.0
13812,2040,-6752,-2484,6647,-1116,2025-02-17 11:25:13,0.0
12992,3340,-5268,-2758,7857,-1412,2025-02-17 11:25:13,0.0
13348,3228,-3832,-2846,7142,-1600,2025-02-17 11:25:14,0.0
14620,1200,-2524,-1626,2418,-2478,2025-02-17 11:25:14,0.0
15180,-512,-3068,34,-3240,-3139,2025-02-17 11:25:14,0.0
15268,-1060,-4980,1215,-8182,-3409,2025-02-17 11:25:14,0.0
16696,-1156,-6936,1205,-10360,-3995,2025-02-17 11:25:14,0.0
16928,52,-7340,242,-10216,-4160,2025-02-17 11:25:14,0.0
17864,940,-7340,54,-7744,-3132,2025-02-17 11:25:14,0.0
18676,1156,-9028,-91,-3163,-2812,2025-02-17 11:25:14,0.0
17836,632,-8716,146,896,-3099,2025-02-17 11:25:14,0.0
16976,464,-8732,515,4644,-3625,2025-02-17 11:25:14,0.0
16284,1100,-7440,-17,6656,-3446,2025-02-17 11:25:14,
15260,1276,-5996,-735,6085,-2492,2025-02-17 11:25:14,0.0
15176,956,-5088,-1112,5331,-2084,2025-02-17 11:25:14,0.0
15240,1104,-4548,-1347,4774,-2067,2025-02-17 11:25:14,0.0
15380,1220,-3676,-1313,3710,-1879,2025-02-17 11:25:14,0.0
15792,1252,-3076,-945,2052,-1432,2025-02-17 11:25:14,0.0
16144,932,-3236,-778,691,-1150,2025-02-17 11:25:14,0.0
16292,588,-3952,-845,900,-969,2025-02-17 11:25:14,0.0
16652,24,-3800,-205,1801,-952,2025-02-17 11:25:14,0.0
16688,-16,-3672,452,2301,-1088,2025-02-17 11:25:14,0.0
17180,348,-3664,501,1836,-1187,2025-02-17 11:25:14,0.0
18072,612,-3204,513,472,-1461,2025-02-17 11:25:14,0.0
16360,1860,-5868,-1408,1011,-539,2025-02-17 11:25:14,0.0
17640,1396,-4148,-1387,2895,751,2025-02-17 11:25:14,0.0
20576,68,-3368,-751,4862,228,2025-02-17 11:25:14,0.0
20004,-224,-4704,-180,6477,-945,2025-02-17 11:25:14,0.0
19380,536,-4448,-244,8472,-1976,2025-02-17 11:25:14,0.0
17872,960,-2812,507,9916,-2031,2025-02-17 11:25:14,0.0
18436,1172,-1160,1677,8824,-1658,2025-02-17 11:25:14,0.0
19200,708,-1372,2223,7398,-1630,2025-02-17 11:25:14,0.0
20500,592,-804,2848,7142,-2488,2025-02-17 11:25:14,0.0
21628,832,-1420,3743,7682,-3599,2025-02-17 11:25:14,0.0
22676,776,-1816,4816,8478,-5409,2025-02-17 11:25:14,0.0
21356,-1268,-2552,6281,8951,-6673,2025-02-17 11:25:14,0.0
19836,-1288,-4020,7523,11582,-6870,2025-02-17 11:25:14,0.0
18896,2012,-7812,8359,9858,-7013,2025-02-17 11:25:14,0.0
15372,3648,-9660,9219,1757,-6101,2025-02-17 11:25:14,0.0
14180,104,-7872,9668,-5963,-5181,2025-02-17 11:25:14,0.0
14884,-2352,-3604,10422,-8342,-4882,2025-02-17 11:25:14,0.0
18612,-4064,-3480,10771,-8197,-5871,2025-02-17 11:25:14,0.0
21868,-4748,-3408,11485,-4908,-7270,2025-02-17 11:25:14,0.0
22652,-5188,-6208,13619,-2080,-6805,2025-02-17 11:25:14,0.0
22484,-3488,-9756,12743,-448,-7085,2025-02-17 11:25:14,0.0
19908,-2520,-11192,12657,4112,-6303,2025-02-17 11:25:14,0.0
16736,-1232,-7248,13524,11960,-3569,2025-02-17 11:25:14,0.0
17156,-800,-4328,15589,16638,-1458,2025-02-17 11:25:14,0.0
16300,-1424,-1720,16589,10291,-789,2025-02-17 11:25:14,0.0
15364,-1952,-2864,18553,4177,-1909,2025-02-17 11:25:14,0.0
16556,-2292,-3848,19872,1979,-4607,2025-02-17 11:25:14,0.0
16956,-3088,-3276,21442,1136,-7620,2025-02-17 11:25:14,0.0
18236,-2640,-5360,21530,1070,-10344,2025-02-17 11:25:14,0.0
19496,-2156,-5920,21313,-337,-13891,2025-02-17 11:25:14,0.0
16048,-1896,-3972,22346,-3900,-14979,2025-02-17 11:25:14,0.0
15812,-1220,-5332,24284,-8007,-13657,2025-02-17 11:25:14,0.0
16160,-704,-7372,25534,-11707,-12314,2025-02-17 11:25:14,0.0
16028,-116,-7060,25576,-10840,-12823,2025-02-17 11:25:14,0.0
16964,-488,-7792,27024,-11055,-14835,2025-02-17 11:25:14,0.0
16300,-624,-9340,26945,-16616,-16528,2025-02-17 11:25:15,0.0
14812,-1308,-10604,24300,-22097,-17599,2025-02-17 11:25:15,0.0
14020,-1800,-9504,20657,-28294,-18200,2025-02-17 11:25:15,0.0
10664,-3036,-9004,16704,-32768,-18242,2025-02-17 11:25:15,0.0
10148,-2368,-8672,10840,-32768,-18291,2025-02-17 11:25:15,0.0
7140,-1116,-5692,6406,-32768,-16175,2025-02-17 11:25:15,0.0
6472,1744,-5336,4881,-32768,-11170,2025-02-17 11:25:15,0.0
6884,4232,-4780,6498,-32768,-8078,2025-02-17 11:25:15,0.0
6132,3900,-3564,10494,-32768,-7227,2025-02-17 11:25:15,0.0
5528,2328,-1360,15849,-32768,-7254,2025-02-17 11:25:15,0.0
2348,28,3108,22944,-32768,-7018,2025-02-17 11:25:15,0.0
2088,-1728,3320,29069,-32582,-6331,2025-02-17 11:25:15,0.0
2360,-2180,1520,29471,-30962,-8296,2025-02-17 11:25:15,0.0
1308,-1804,980,27824,-29821,-9615,2025-02-17 11:25:15,0.0
2524,-1952,1280,25941,-28634,-11329,2025-02-17 11:25:15,0.0
2284,-1924,972,24202,-27782,-12655,2025-02-17 11:25:15,0.0
2116,-2020,940,22072,-27223,-13309,2025-02-17 11:25:15,0.0
2320,-2036,556,19535,-27119,-13881,2025-02-17 11:25:15,0.0
2504,-1816,776,16640,-27100,-14496,2025-02-17 11:25:15,0.0
2224,-1600,316,13605,-27001,-15061,2025-02-17 11:25:15,0.0
2424,-1532,532,10614,-26728,-15498,2025-02-17 11:25:15,0.0
1996,-1376,1072,8046,-26238,-15867,2025-02-17 11:25:15,0.0
2260,-1100,1272,5899,-25620,-16097,2025-02-17 11:25:15,0.0
2080,-1040,1396,4469,-25119,-16136,2025-02-17 11:25:15,0.0
1880,-1120,1344,2898,-24428,-15880,2025-02-17 11:25:15,0.0
1636,-888,1840,1452,-23529,-15405,2025-02-17 11:25:15,0.0
1816,-896,1608,410,-22689,-15005,2025-02-17 11:25:15,0.0
1936,-928,1300,-532,-21853,-14627,2025-02-17 11:25:15,0.0
1764,-1020,1444,-1479,-21145,-14307,2025-02-17 11:25:15,0.0
1744,-1032,796,-2520,-20684,-13952,2025-02-17 11:25:15,0.0
1588,-1276,768,-3551,-20761,-13339,2025-02-17 11:25:15,0.0
1440,-1380,268,-5022,-20196,-12291,2025-02-17 11:25:15,0.0
-32768,-32768,-32768,-30960,32767,29439,2025-02-17 11:25:15,0.0
-32768,-32768,-32768,-32768,32767,32767,2025-02-17 11:25:15,0.0
-32768,-32768,-21812,-32768,32767,32767,2025-02-17 11:25:15,0.0
3416,32767,-31460,-17076,32767,20005,2025-02-17 11:25:15,0.0
8852,32767,-17416,5374,14841,5087,2025-02-17 11:25:15,0.0
3840,10188,-11588,-184,4355,5469,2025-02-17 11:25:15,0.0
2300,5568,-3132,-8836,-1180,6728,2025-02-17 11:25:15,0.0
3004,2236,1404,-12442,-1874,6548,2025-02-17 11:25:15,0.0
1756,1136,2164,-11471,1546,6702,2025-02-17 11:25:15,0.0
2652,-404,1044,-10380,4097,5802,2025-02-17 11:25:15,0.0
3856,-12,-260,-7400,6073,4490,2025-02-17 11:25:15,0.0
6156,2716,-7912,-1517,12011,921,2025-02-17 11:25:15,0.0
4016,7372,-18912,3571,19991,-1263,2025-02-17 11:25:15,0.0
3128,9240,-24836,2832,16391,272,2025-02-17 11:25:15,0.0
5676,8268,-23352,40,3172,303,2025-02-17 11:25:15,0.0
4708,6304,-16492,-1778,-3064,-92,2025-02-17 11:25:15,0.0
1728,6332,-8484,-1774,-2615,-411,2025-02-17 11:25:15,0.0
244,7240,-8704,-873,-961,-190,2025-02-17 11:25:15,0.0
1924,8028,-12020,355,835,-86,2025-02-17 11:25:15,0.0
1556,7100,-14300,512,990,-243,2025-02-17 11:25:15,0.0
2340,6328,-14852,42,311,-192,2025-02-17 11:25:15,0.0
2276,6776,-13020,-446,96,-172,2025-02-17 11:25:15,
1320,7084,-13152,-212,86,-72,2025-02-17 11:25:15,0.0
1672,7232,-13452,-35,470,-179,2025-02-17 11:25:15,0.0
2524,6888,-13292,-149,82,-201,2025-02-17 11:25:15,0.0
1384,6860,-13256,-592,-359,-67,2025-02-17 11:25:15,0.0
1644,7388,-14336,202,592,-183,2025-02-17 11:25:15,0.0
2176,7136,-13400,-338,233,-96,2025-02-17 11:25:15,0.0
1792,6644,-12752,-81,-329,-251,2025-02-17 11:25:15,0.0
1676,7152,-13568,-124,687,-103,2025-02-17 11:25:15,0.0
2560,7232,-13072,43,-182,-126,2025-02-17 11:25:15,0.0
2236,6976,-13060,327,-1178,-260,2025-02-17 11:25:15,0.0
1652,7252,-14196,394,-902,-253,2025-02-17 11:25:15,0.0
1400,6596,-13400,-398,694,-116,2025-02-17 11:25:15,0.0
2124,7132,-13280,-419,1066,-150,2025-02-17 11:25:16,0.0
2048,7272,-13476,-171,381,-164,2025-02-17 11:25:16,0.0
2124,6792,-13288,-110,69,-147,2025-02-17 11:25:16,0.0
1900,6952,-13320,-186,53,-214,2025-02-17 11:25:16,0.0
1736,7152,-13416,-167,231,-161,2025-02-17 11:25:16,0.0
2000,6984,-13284,-126,291,-136,2025-02-17 11:25:16,0.0
2304,6900,-13152,-176,189,-179,2025-02-17 11:25:16,0.0
1856,7136,-13212,-182,56,-196,2025-02-17 11:25:16,0.0
1760,6896,-13368,-114,237,-169,2025-02-17 11:25:16,0.0
1920,6968,-13196,-175,215,-192,2025-02-17 11:25:16,0.0
1976,6932,-13116,-147,118,-180,2025-02-17 11:25:16,0.0
1880,6996,-13264,-167,141,-194,2025-02-17 11:25:16,0.0
1916,6944,-13364,-168,187,-193,2025-02-17 11:25:16,0.0
1860,6940,-13276,-164,152,-163,2025-02-17 11:25:16,0.0
1916,7056,-13368,-165,121,-195,2025-02-17 11:25:16,0.0
1952,6896,-13116,-149,190,-150,2025-02-17 11:25:16,0.0
1812,6980,-13176,-157,199,-138,2025-02-17 11:25:16,0.0
1792,6860,-13300,-142,124,-193,2025-02-17 11:25:16,0.0
1832,7016,-13348,-165,216,-179,2025-02-17 11:25:16,0.0
1984,6996,-13360,-185,167,-160,2025-02-17 11:25:16,0.0
1984,6908,-13296,-171,154,-180,2025-02-17 11:25:16,0.0
1820,6996,-13432,-140,174,-180,2025-02-17 11:25:16,0.0
1884,6948,-13400,-161,184,-179,2025-02-17 11:25:16,0.0
1920,6936,-13296,-171,156,-191,2025-02-17 11:25:16,0.0
1872,6876,-13336,-162,156,-178,2025-02-17 11:25:16,0.0
1912,6960,-13276,-157,164,-195,2025-02-17 11:25:16,0.0
1908,6872,-13224,-162,176,-180,2025-02-17 11:25:16,0.0
1932,6872,-13248,-158,166,-171,2025-02-17 11:25:16,0.0
1928,7040,-13272,-122,167,-172,2025-02-17 11:25:16,0.0
1912,6964,-13196,-157,171,-159,2025-02-17 11:25:16,0.0
1944,6900,-13128,-154,183,-175,2025-02-17 11:25:16,0.0
1980,6956,-13204,-141,162,-176,2025-02-17 11:25:16,0.0
2048,6864,-13232,-175,190,-193,2025-02-17 11:25:16,0.0
1984,7068,-13428,-184,178,-172,2025-02-17 11:25:16,0.0
1956,6948,-13344,-168,171,-170,2025-02-17 11:25:16,0.0
1848,7084,-13220,-132,189,-165,2025-02-17 11:25:16,0.0
1868,6976,-13408,-136,189,-161,2025-02-17 11:25:16,0.0
1940,6896,-13344,-180,163,-165,2025-02-17 11:25:16,0.0
1892,7020,-13256,-163,175,-197,2025-02-17 11:25:16,0.0
1884,6964,-13324,-186,187,-158,2025-02-17 11:25:16,0.0
1904,6972,-13336,-141,161,-183,2025-02-17 11:25:16,0.0
1920,6984,-13228,-150,178,-184,2025-02-17 11:25:16,0.0
1888,6880,-13320,-137,182,-149,2025-02-17 11:25:16,0.0
1928,6992,-13200,-155,195,-186,2025-02-17 11:25:16,0.0
1972,7016,-13392,-164,172,-181,2025-02-17 11:25:16,0.0
1896,6924,-13288,-154,182,-207,2025-02-17 11:25:16,0.0
1900,7092,-13288,-181,159,-179,2025-02-17 11:25:16,0.0
2000,6996,-13400,-166,173,-173,2025-02-17 11:25:16,0.0
1896,6884,-13316,-153,163,-178,2025-02-17 11:25:16,0.0
1964,7052,-13428,-171,167,-174,2025-02-17 11:25:16,0.0
1896,6924,-13216,-152,180,-180,2025-02-17 11:25:16,0.0
1904,6932,-13404,-168,164,-167,2025-02-17 11:25:16,0.0
1848,7024,-13284,-167,155,-181,2025-02-17 11:25:16,0.0
1880,6964,-13324,-157,182,-178,2025-02-17 11:25:16,0.0
1876,6960,-13340,-170,179,-188,2025-02-17 11:25:16,0.0
1908,7000,-13388,-161,176,-153,2025-02-17 11:25:16,0.0
1984,7008,-13252,-146,161,-171,2025-02-17 11:25:16,0.0
1928,6928,-13444,-147,180,-179,2025-02-17 11:25:16,0.0
2004,6948,-13316,-157,154,-166,2025-02-17 11:25:16,0.0
1888,6976,-13264,-167,166,-171,2025-02-17 11:25:16,0.0
2048,6924,-13404,-172,180,-191,2025-02-17 11:25:16,0.0
1868,6932,-13520,-113,255,-139,2025-02-17 11:25:16,0.0
1936,6956,-12692,45,246,-199,2025-02-17 11:25:17,0.0
2020,7104,-12556,275,339,-384,2025-02-17 11:25:17,0.0
2092,6920,-13452,391,159,-362,2025-02-17 11:25:17,0.0
1632,6768,-14192,64,217,-221,2025-02-17 11:25:17,0.0
1704,6692,-13976,-303,316,-110,2025-02-17 11:25:17,0.0
1764,7144,-13064,-360,387,-30,2025-02-17 11:25:17,0.0
3324,6848,-10396,1581,-329,-210,2025-02-17 11:25:17,0.0
2408,7656,-15736,707,1936,46,2025-02-17 11:25:17,0.0
5656,4332,-17448,-482,-2597,-1198,2025-02-17 11:25:17,0.0
2696,7256,-12572,-1116,-3962,-1413,2025-02-17 11:25:17,0.0
-972,7708,-11340,-44,-1947,-838,2025-02-17 11:25:17,0.0
-2360,7988,-12152,600,1428,214,2025-02-17 11:25:17,0.0
336,6892,-12996,1593,5486,981,2025-02-17 11:25:17,0.0
1940,6404,-13592,1454,6339,1304,2025-02-17 11:25:17,0.0
2688,6240,-12964,1656,6430,1355,2025-02-17 11:25:17,0.0
6036,5912,-17088,279,4334,70,2025-02-17 11:25:17,0.0
3412,5024,-19108,-2733,-561,-160,2025-02-17 11:25:17,0.0
3128,6800,-14412,-2828,-1954,-62,2025-02-17 11:25:17,0.0
780,8056,-10912,-2401,-424,-3,2025-02-17 11:25:17,0.0
4208,6196,-13504,-255,-869,-548,2025-02-17 11:25:17,0.0
3108,6800,-13244,-437,-1808,-960,2025-02-17 11:25:17,0.0
3324,6968,-13092,-408,-2644,-1450,2025-02-17 11:25:17,0.0
3188,6864,-13876,-476,-3043,-1919,2025-02-17 11:25:17,0.0
3880,6440,-15060,-1297,-2090,-2730,2025-02-17 11:25:17,0.0
2976,7204,-13920,-1845,-1228,-3899,2025-02-17 11:25:17,0.0
828,7916,-10956,-801,-632,-3442,2025-02-17 11:25:17,
24,7280,-11572,82,-875,-2983,2025-02-17 11:25:17,0.0
-380,7344,-14552,-232,-692,-2144,2025-02-17 11:25:17,0.0
-1196,7228,-15288,-810,-326,-913,2025-02-17 11:25:17,0.0
-296,7040,-14356,-1393,376,-321,2025-02-17 11:25:17,0.0
3932,7500,-15596,-3409,846,-1438,2025-02-17 11:25:17,0.0
5268,8112,-18152,-6176,-893,-3493,2025-02-17 11:25:17,0.0
2724,7668,-17704,-8641,-1835,-4338,2025-02-17 11:25:17,0.0
1800,7792,-17676,-11059,-2396,-4338,2025-02-17 11:25:17,0.0
1876,8452,-19120,-14497,-2520,-4395,2025-02-17 11:25:17,0.0
716,8880,-17692,-18267,-3763,-3822,2025-02-17 11:25:17,0.0
-556,9100,-15220,-20005,-4657,-2519,2025-02-17 11:25:17,0.0
-1008,8872,-12600,-21470,-5519,-375,2025-02-17 11:25:17,0.0
968,8316,-11648,-22308,-5848,318,2025-02-17 11:25:17,0.0
1232,7284,-6980,-21679,-5982,-672,2025-02-17 11:25:17,0.0
1920,9652,-1252,-15078,-4184,-1351,2025-02-17 11:25:17,0.0
-596,11976,-4828,-11429,371,-2206,2025-02-17 11:25:17,0.0
-4652,13556,-8780,-12691,5647,595,2025-02-17 11:25:17,0.0
-272,13052,-11608,-16467,10134,2187,2025-02-17 11:25:17,0.0
2468,11664,-13484,-20991,10210,309,2025-02-17 11:25:17,0.0
3420,11308,-11824,-24608,10107,-2041,2025-02-17 11:25:17,0.0
1700,12020,-9544,-25586,10662,-3644,2025-02-17 11:25:17,0.0
-916,13444,-7308,-24947,11728,-3182,2025-02-17 11:25:17,0.0
-2304,14832,-8308,-25734,12708,-907,2025-02-17 11:25:17,0.0
-1912,16740,-5896,-27053,14217,1344,2025-02-17 11:25:17,0.0
-1908,18112,-4852,-28179,16303,2621,2025-02-17 11:25:17,0.0
-1920,19084,-2524,-28671,18299,4678,2025-02-17 11:25:17,0.0
-1536,20608,-1496,-29010,20077,8200,2025-02-17 11:25:17,0.0
212,22400,-2524,-30006,20290,9439,2025-02-17 11:25:18,0.0
3792,24536,-1784,-32204,20534,7058,2025-02-17 11:25:18,0.0
3860,26180,2192,-31967,22197,3593,2025-02-17 11:25:18,0.0
-960,27120,7256,-28123,25651,2844,2025-02-17 11:25:18,0.0
-3528,25168,8704,-22162,29317,5603,2025-02-17 11:25:18,0.0
-1624,21720,7076,-17379,31497,8096,2025-02-17 11:25:18,0.0
3084,18316,5496,-14156,31459,7934,2025-02-17 11:25:18,0.0
8172,16196,5344,-11627,29314,3984,2025-02-17 11:25:18,0.0
8224,17112,8428,-6596,25664,-1363,2025-02-17 11:25:18,0.0
960,21824,7776,10433,13382,-1186,2025-02-17 11:25:18,0.0
3044,21384,4468,14831,5735,1060,2025-02-17 11:25:18,0.0
5220,20732,3292,17650,-3695,1799,2025-02-17 11:25:18,0.0
5360,20416,3744,20663,-13425,1755,2025-02-17 11:25:18,0.0
3860,19984,3300,24013,-22558,2761,2025-02-17 11:25:18,0.0
3020,19696,692,26432,-30553,4088,2025-02-17 11:25:18,0.0
3036,19620,-1996,25987,-32768,4417,2025-02-17 11:25:18,0.0
2120,19856,-4796,22571,-32768,4320,2025-02-17 11:25:18,0.0
1148,19860,-5384,17715,-32768,4946,2025-02-17 11:25:18,0.0
2092,19820,-4668,13163,-32768,5247,2025-02-17 11:25:18,0.0
2472,19792,-3400,8924,-29723,4484,2025-02-17 11:25:18,0.0
-864,16644,-3668,5174,-23664,5589,2025-02-17 11:25:18,0.0
-2456,16704,-3000,1298,-15820,8735,2025-02-17 11:25:18,0.0
32,15368,-576,-664,-8062,11351,2025-02-17 11:25:18,0.0
4492,13308,1144,-968,-992,10108,2025-02-17 11:25:18,0.0
6196,11556,876,-945,5594,6329,2025-02-17 11:25:18,0.0
5616,10572,536,-1489,12993,1961,2025-02-17 11:25:18,0.0
4728,11032,728,-1687,20489,-1625,2025-02-17 11:25:18,0.0
4068,11752,448,-2282,26983,-3612,2025-02-17 11:25:18,0.0
3872,12208,1332,-2105,32767,-5447,2025-02-17 11:25:18,0.0
3956,12160,1864,-1439,32767,-6990,2025-02-17 11:25:18,0.0
4168,11584,2692,-122,32767,-8852,2025-02-17 11:25:18,0.0
4056,11232,3908,2342,32767,-10634,2025-02-17 11:25:18,0.0
3604,11280,3396,4922,32767,-11909,2025-02-17 11:25:18,0.0
2700,11336,1612,6632,32767,-12362,2025-02-17 11:25:18,0.0
1244,11592,604,6882,32767,-11472,2025-02-17 11:25:18,0.0
32,11980,624,6414,32767,-9690,2025-02-17 11:25:18,0.0
108,12316,2588,6661,32767,-7514,2025-02-17 11:25:18,0.0
348,11960,4912,8998,32767,-5508,2025-02-17 11:25:18,0.0
684,10976,3380,10235,32767,-2821,2025-02-17 11:25:18,0.0
3516,9848,-1432,2244,32767,-284,2025-02-17 11:25:18,0.0
2708,10308,9916,-8773,32148,-483,2025-02-17 11:25:18,0.0
3288,8792,10536,-3320,28652,-708,2025-02-17 11:25:18,0.0
3112,8236,3524,-2146,25040,-1141,2025-02-17 11:25:18,0.0
-2768,9608,4628,-2180,20174,2613,2025-02-17 11:25:18,0.0
-28,11932,1432,2459,10800,8484,2025-02-17 11:25:18,0.0
2528,13332,2496,562,3120,12711,2025-02-17 11:25:18,0.0
7260,15272,3852,2378,-9146,15075,2025-02-17 11:25:18,0.0
10304,13720,1736,2781,-21067,13881,2025-02-17 11:25:18,0.0
5784,14068,796,1637,-29006,15542,2025-02-17 11:25:18,0.0
4716,11004,1912,1258,-26927,17950,2025-02-17 11:25:18,0.0
1076,8624,2132,2458,-15754,20150,2025-02-17 11:25:18,0.0
280,6576,1436,2768,-1354,24262,2025-02-17 11:25:18,0.0
2208,6944,1344,2084,11696,27196,2025-02-17 11:25:18,0.0
6268,7576,496,-1233,24868,30371,2025-02-17 11:25:18,0.0
10368,8944,368,-3959,29239,31211,2025-02-17 11:25:18,0.0
12460,9348,724,-5707,26027,31251,2025-02-17 11:25:18,0.0
13392,8168,168,-6423,17037,30924,2025-02-17 11:25:18,0.0
12276,6460,-392,-8047,7053,29032,2025-02-17 11:25:18,0.0
10244,5424,68,-10232,-1047,27930,2025-02-17 11:25:18,0.0
9760,5184,1960,-9808,-7950,28388,2025-02-17 11:25:18,0.0
12412,4832,2816,-6450,-15328,28881,2025-02-17 11:25:18,0.0
16304,4564,1008,-1938,-23600,28265,2025-02-17 11:25:18,0.0
17688,3960,-2100,644,-30873,26659,2025-02-17 11:25:18,0.0
18516,2644,-5396,905,-32768,23179,2025-02-17 11:25:18,0.0
17236,2004,-5528,170,-32768,21236,2025-02-17 11:25:19,0.0
17468,2192,-3796,1708,-32768,20284,2025-02-17 11:25:19,0.0
17504,2408,-3356,3959,-28987,18687,2025-02-17 11:25:19,0.0
17192,1588,-3560,6027,-20849,16667,2025-02-17 11:25:19,0.0
17284,512,-5472,7473,-10754,14493,2025-02-17 11:25:19,0.0
16940,-32,-6780,7736,1077,12935,2025-02-17 11:25:19,0.0
18336,48,-7668,7117,11231,12149,2025-02-17 11:25:19,0.0
21172,12,-7852,4925,18845,11638,2025-02-17 11:25:19,0.0
22864,-72,-6448,3247,21957,10589,2025-02-17 11:25:19,
23896,1388,-3056,3340,22184,7203,2025-02-17 11:25:19,0.0
22532,416,-2508,1950,21691,6032,2025-02-17 11:25:19,0.0
21368,556,1852,4237,18674,4889,2025-02-17 11:25:19,0.0
27264,-1564,1736,3486,9152,4073,2025-02-17 11:25:19,0.0
26424,-3668,4568,2028,-1323,2356,2025-02-17 11:25:19,0.0
26188,-1976,6492,2720,3107,924,2025-02-17 11:25:19,0.0
24000,-412,4492,5257,6399,-319,2025-02-17 11:25:19,0.0
20512,-512,-2932,5967,10374,-285,2025-02-17 11:25:19,0.0
18912,-228,-6312,5188,13778,-568,2025-02-17 11:25:19,0.0
18080,-312,-6104,4584,17859,-1426,2025-02-17 11:25:19,0.0
17676,-384,-4056,3794,23568,-1215,2025-02-17 11:25:19,0.0
20048,1752,16168,-1505,-544,-2304,2025-02-17 11:25:19,0.0
15024,-2080,11120,5505,-14140,-1956,2025-02-17 11:25:19,0.0
15172,-1988,1928,8512,-16732,-1138,2025-02-17 11:25:19,0.0
16308,-880,-1548,7535,-10686,-1674,2025-02-17 11:25:19,0.0
18028,-1136,-3236,6117,-7582,-2312,2025-02-17 11:25:19,0.0
19084,-1944,-2724,4242,-8036,-2773,2025-02-17 11:25:19,0.0
18920,-2244,-2192,3136,-8131,-3028,2025-02-17 11:25:19,0.0
18532,-1772,-1272,2912,-6337,-2832,2025-02-17 11:25:19,0.0
17608,-1676,-164,3460,-3760,-2070,2025-02-17 11:25:19,0.0
18596,-1908,-752,4151,-2395,-1555,2025-02-17 11:25:19,0.0
18612,-2280,-1632,4313,-1916,-1333,2025-02-17 11:25:19,0.0
19116,-2820,-780,5208,-1996,-1624,2025-02-17 11:25:19,0.0
19576,-3688,44,7310,-2493,-2648,2025-02-17 11:25:19,0.0
18388,-3512,-332,10095,-4286,-4077,2025-02-17 11:25:19,0.0
15600,-2788,-1404,11509,-6380,-2990,2025-02-17 11:25:19,0.0
18456,-2180,-4400,11064,-6544,-1288,2025-02-17 11:25:19,0.0
18900,-1952,-4508,9973,-4517,-2241,2025-02-17 11:25:19,0.0
18592,-2056,-4036,10128,-2462,-2610,2025-02-17 11:25:19,0.0
19436,-1704,-2532,11167,-1840,-3379,2025-02-17 11:25:19,0.0
17916,-1788,-496,12108,-2867,-4214,2025-02-17 11:25:19,0.0
16776,-1672,584,13234,-4742,-3770,2025-02-17 11:25:19,0.0
16404,-1348,-932,13695,-7173,-2627,2025-02-17 11:25:19,0.0
17276,-1944,-2632,13286,-7516,-1977,2025-02-17 11:25:19,0.0
19032,-2176,-1948,13411,-7185,-2729,2025-02-17 11:25:19,0.0
18320,-1976,-2828,14153,-7246,-3918,2025-02-17 11:25:19,0.0
16888,-1968,-3932,14589,-6528,-3803,2025-02-17 11:25:19,0.0
17040,-1724,-5280,13795,-6080,-3281,2025-02-17 11:25:19,0.0
18052,-1472,-5088,12958,-6348,-2687,2025-02-17 11:25:19,0.0
19576,-1388,-4896,12366,-6596,-2753,2025-02-17 11:25:19,0.0
20576,-1580,-4204,12108,-5366,-3468,2025-02-17 11:25:19,0.0
20884,-1916,-4572,12043,-2492,-4454,2025-02-17 11:25:19,0.0
19964,-1684,-3976,11859,386,-5175,2025-02-17 11:25:19,0.0
18720,-1332,-3944,11587,1198,-5382,2025-02-17 11:25:19,0.0
17480,-1420,-3892,11193,890,-5234,2025-02-17 11:25:19,0.0
16756,-1008,-4496,10556,176,-5021,2025-02-17 11:25:19,0.0
16080,-444,-3952,9565,-450,-4410,2025-02-17 11:25:19,0.0
17108,-392,-3008,9040,-1271,-4269,2025-02-17 11:25:19,0.0
17304,-512,-2804,8678,-2350,-4646,2025-02-17 11:25:19,0.0
17040,-704,-3664,8360,-2439,-4324,2025-02-17 11:25:19,0.0
17192,-864,-4032,7628,-1858,-3911,2025-02-17 11:25:19,0.0
17796,-1320,-3672,6805,-1816,-3716,2025-02-17 11:25:19,0.0
17996,-1360,-3848,6047,-1782,-3580,2025-02-17 11:25:19,0.0
18268,-1388,-4272,4920,-1939,-3262,2025-02-17 11:25:19,0.0
18740,-2324,-4052,3895,-2637,-2919,2025-02-17 11:25:20,0.0
19168,-3112,-4952,3410,-2946,-2628,2025-02-17 11:25:20,0.0
19400,-2756,-5696,2902,-2625,-2188,2025-02-17 11:25:20,0.0
19972,-2216,-4848,2906,-1955,-1660,2025-02-17 11:25:20,0.0
19780,-2616,-3584,3680,-509,-1782,2025-02-17 11:25:20,0.0
19472,-4780,-6412,4285,963,-3240,2025-02-17 11:25:20,0.0
18232,-5216,-8492,3879,1378,-4393,2025-02-17 11:25:20,0.0
17844,-3332,-9068,3469,382,-4806,2025-02-17 11:25:20,0.0
17468,-712,-7456,3690,-1154,-4389,2025-02-17 11:25:20,0.0
18056,-832,-6868,4843,-2055,-4194,2025-02-17 11:25:20,0.0
18980,-2028,-7468,5960,-2326,-4746,2025-02-17 11:25:20,0.0
18788,-2632,-7696,6354,-1553,-5578,2025-02-17 11:25:20,0.0
18944,-2680,-7300,6656,437,-6564,2025-02-17 11:25:20,0.0
19064,-1928,-7288,6928,1918,-7814,2025-02-17 11:25:20,0.0
17932,-304,-7148,7228,3095,-8742,2025-02-17 11:25:20,0.0
16720,2132,-6320,7641,3547,-8670,2025-02-17 11:25:20,0.0
15524,3968,-5848,7809,3027,-8046,2025-02-17 11:25:20,0.0
14980,4212,-5236,8257,2476,-6855,2025-02-17 11:25:20,0.0
15696,3400,-4436,8826,1984,-6170,2025-02-17 11:25:20,0.0
16224,1476,-5348,9100,2063,-5303,2025-02-17 11:25:20,0.0
16996,-68,-6196,8731,2177,-5529,2025-02-17 11:25:20,0.0
16892,-968,-6304,8582,3263,-6166,2025-02-17 11:25:20,0.0
15996,-520,-6376,7943,4268,-6518,2025-02-17 11:25:20,0.0
15224,688,-5812,7120,3494,-6820,2025-02-17 11:25:20,0.0
14940,1268,-3244,7036,1268,-6534,2025-02-17 11:25:20,0.0
15148,1908,-4004,6901,-479,-6117,2025-02-17 11:25:20,0.0
14892,2116,-5124,5686,-365,-4993,2025-02-17 11:25:20,0.0
15072,1636,-5876,4380,315,-3868,2025-02-17 11:25:20,0.0
15244,1196,-4548,3405,801,-2890,2025-02-17 11:25:20,0.0
16252,1388,-3876,3000,1587,-2004,2025-02-17 11:25:20,0.0
15932,1924,-2968,3025,1860,-1473,2025-02-17 11:25:20,0.0
15952,2324,-3136,2856,1313,-1033,2025-02-17 11:25:20,0.0
16292,2120,-2852,2718,992,-797,2025-02-17 11:25:20,0.0
16732,1460,-2644,2709,623,-567,2025-02-17 11:25:20,0.0
17332,1104,-3420,2639,626,-329,2025-02-17 11:25:20,0.0
16696,1236,-2116,2534,991,-286,2025-02-17 11:25:20,0.0
17196,1648,-2968,2773,998,-14,2025-02-17 11:25:20,0.0
17204,2160,-4180,2865,922,293,2025-02-17 11:25:20,0.0
17480,1748,-4764,2490,1032,339,2025-02-17 11:25:20,0.0
18828,1408,-4468,2214,814,154,2025-02-17 11:25:20,0.0
20212,2220,-4600,2099,502,-117,2025-02-17 11:25:20,0.0
21416,2884,-3488,2188,929,-883,2025-02-17 11:25:20,0.0
22360,2344,-2676,2095,2658,-1689,2025-02-17 11:25:20,0.0
22420,1196,-2392,2002,4202,-2262,2025-02-17 11:25:20,0.0
21596,296,-2468,2263,4102,-2440,2025-02-17 11:25:20,0.0
22052,1048,-4888,2777,2508,-2518,2025-02-17 11:25:20,
21228,3584,-5160,3072,1359,-2450,2025-02-17 11:25:20,0.0
20764,5244,-5868,2417,1411,-2297,2025-02-17 11:25:20,0.0
20376,4396,-4836,1794,2475,-1271,2025-02-17 11:25:20,0.0
19888,2124,-5804,2195,3261,-657,2025-02-17 11:25:20,0.0
17968,248,-7748,2433,4126,-150,2025-02-17 11:25:20,0.0
16368,-356,-8584,2274,4859,364,2025-02-17 11:25:20,0.0
16024,-792,-9244,1809,4133,169,2025-02-17 11:25:20,0.0
15656,-1408,-7868,1322,2209,-428,2025-02-17 11:25:20,0.0
14996,-2068,-6724,1041,505,-696,2025-02-17 11:25:20,0.0
14460,-2740,-6788,860,-340,-33,2025-02-17 11:25:20,0.0
15300,-2784,-6892,635,-1502,819,2025-02-17 11:25:20,0.0
16460,-1784,-5464,423,-2236,1446,2025-02-17 11:25:20,0.0
17844,-852,-4472,970,-3294,2038,2025-02-17 11:25:20,0.0
18524,-264,-5048,1442,-4007,2190,2025-02-17 11:25:20,0.0
18212,248,-6360,1441,-3572,2597,2025-02-17 11:25:20,0.0
18068,364,-5692,1642,-1971,2939,2025-02-17 11:25:20,0.0
17664,112,-6268,2004,290,2767,2025-02-17 11:25:20,0.0
17168,-576,-6200,2030,1592,2381,2025-02-17 11:25:21,0.0
16932,-1784,-5052,1725,1104,1474,2025-02-17 11:25:21,0.0
16320,-2220,-4436,1083,85,447,2025-02-17 11:25:21,0.0
15300,-2016,-4192,777,121,489,2025-02-17 11:25:21,0.0
15708,-1744,-4516,563,463,651,2025-02-17 11:25:21,0.0
15460,-1572,-4176,528,719,502,2025-02-17 11:25:21,0.0
15072,-1824,-4116,479,252,126,2025-02-17 11:25:21,0.0
15032,-1916,-4164,-329,-879,-339,2025-02-17 11:25:21,0.0
15332,-2132,-3740,-290,-2515,-351,2025-02-17 11:25:21,0.0
16388,-1672,-3400,42,-3522,-678,2025-02-17 11:25:21,0.0
17244,-1208,-1292,500,-3167,-1286,2025-02-17 11:25:21,0.0
17224,-776,-3804,1030,-2660,-1718,2025-02-17 11:25:21,0.0
16932,28,-5840,148,-1886,-1160,2025-02-17 11:25:21,0.0
16956,964,-5364,-1305,-853,-250,2025-02-17 11:25:21,0.0
17764,500,-4536,-2057,-237,499,2025-02-17 11:25:21,0.0
18408,-312,-2912,-2054,262,845,2025-02-17 11:25:21,0.0
19004,-1356,-2896,-1746,818,766,2025-02-17 11:25:21,0.0
18048,-2332,-5548,-2344,3603,43,2025-02-17 11:25:21,0.0
17028,-2176,-5192,-2754,3520,68,2025-02-17 11:25:21,0.0
17004,-1928,-4768,-3074,1844,181,2025-02-17 11:25:21,0.0
17452,-1652,-4700,-3571,-496,914,2025-02-17 11:25:21,0.0
19576,-1132,-4284,-4568,-1643,1613,2025-02-17 11:25:21,0.0
21272,-48,-3400,-4851,-704,1734,2025-02-17 11:25:21,0.0
20776,312,-5332,-5014,449,1976,2025-02-17 11:25:21,0.0
19712,-1724,-8352,-5888,2200,2920,2025-02-17 11:25:21,0.0
18784,-2408,-8288,-6183,3170,3471,2025-02-17 11:25:21,0.0
19828,-2144,-7988,-6109,2558,3464,2025-02-17 11:25:21,0.0
21220,-1560,-5928,-5459,31,2280,2025-02-17 11:25:21,0.0
20984,-1728,-5528,-4425,-836,1161,2025-02-17 11:25:21,0.0
21928,-2264,-6136,-3741,1475,-724,2025-02-17 11:25:21,0.0
19408,-1372,-6112,-3223,4207,-2809,2025-02-17 11:25:21,0.0
16796,-552,-6396,-3402,4777,-4035,2025-02-17 11:25:21,0.0
15032,1532,-5992,-3551,2636,-5133,2025-02-17 11:25:21,0.0
13848,3240,-5664,-3056,-1183,-5325,2025-02-17 11:25:21,0.0
12804,4384,-5820,-2006,-3309,-4260,2025-02-17 11:25:21,0.0
13012,3804,-7504,-1543,-3754,-2460,2025-02-17 11:25:21,0.0
14056,3032,-7572,-2053,-3718,-410,2025-02-17 11:25:21,0.0
16568,1260,-7576,-3235,-3868,692,2025-02-17 11:25:21,0.0
18040,1356,-6712,-3914,-3693,192,2025-02-17 11:25:21,0.0
17588,1736,-6724,-4174,-2471,-97,2025-02-17 11:25:21,0.0
16884,2256,-7044,-4352,-1629,-106,2025-02-17 11:25:21,0.0
15724,2664,-8172,-4909,-1207,547,2025-02-17 11:25:21,0.0
15328,2444,-7692,-5371,-1247,1358,2025-02-17 11:25:21,0.0
16036,1832,-7020,-5564,-1319,1600,2025-02-17 11:25:21,0.0
16600,1184,-5920,-5548,-1365,1276,2025-02-17 11:25:21,0.0
17052,856,-4884,-4853,-648,1107,2025-02-17 11:25:21,0.0
17688,1088,-4432,-3810,526,520,2025-02-17 11:25:21,0.0
17528,1728,-4936,-2921,1131,289,2025-02-17 11:25:21,0.0
16988,2248,-6216,-3110,1495,476,2025-02-17 11:25:21,0.0
16664,2048,-6032,-3488,1640,890,2025-02-17 11:25:21,0.0
16680,1648,-3792,-2321,1367,1305,2025-02-17 11:25:21,0.0
16240,1752,-4880,-1655,735,1876,2025-02-17 11:25:21,0.0
14988,1932,-4360,-1876,215,2653,2025-02-17 11:25:21,0.0
14584,2268,-4140,-1962,52,3839,2025-02-17 11:25:21,0.0
14588,2028,-3628,-2076,-351,4939,2025-02-17 11:25:21,0.0
15008,2168,-4164,-1879,-648,5629,2025-02-17 11:25:21,0.0
15748,1996,-4580,-1877,-938,5827,2025-02-17 11:25:21,0.0
16704,1420,-4828,-2130,-1555,5593,2025-02-17 11:25:21,0.0
17744,948,-5492,-2079,-2208,4864,2025-02-17 11:25:22,0.0
18340,1180,-7064,-2234,-2535,4177,2025-02-17 11:25:22,0.0
18044,1404,-7960,-2911,-2141,3801,2025-02-17 11:25:22,0.0
18280,1608,-8832,-3549,-2050,3638,2025-02-17 11:25:22,0.0
19028,2436,-10000,-4814,-3342,2917,2025-02-17 11:25:22,0.0
18748,3368,-10276,-5717,-4612,2475,2025-02-17 11:25:22,0.0
17484,2660,-9128,-6499,-3350,2599,2025-02-17 11:25:22,0.0
15896,1736,-7112,-6694,-609,3450,2025-02-17 11:25:22,0.0
15432,1648,-5756,-6710,372,4664,2025-02-17 11:25:22,0.0
16416,1512,-6768,-7186,9,5567,2025-02-17 11:25:22,0.0
17476,1204,-6736,-7892,36,5474,2025-02-17 11:25:22,0.0
17740,920,-6428,-8240,167,5068,2025-02-17 11:25:22,0.0
17492,1036,-7244,-8694,-167,4607,2025-02-17 11:25:22,0.0
16428,1076,-7548,-9383,-937,4398,2025-02-17 11:25:22,0.0
16092,212,-7448,-10168,-1616,4201,2025-02-17 11:25:22,0.0
15972,-208,-7024,-10166,-2163,3844,2025-02-17 11:25:22,0.0
15116,-96,-7020,-10583,-2447,3240,2025-02-17 11:25:22,0.0
15868,-32,-7836,-11168,-2611,2557,2025-02-17 11:25:22,0.0
15792,-172,-7656,-12051,-2732,2283,2025-02-17 11:25:22,0.0
15780,-764,-7948,-13383,-3489,2905,2025-02-17 11:25:22,0.0
16956,-752,-8204,-13815,-3683,4000,2025-02-17 11:25:22,0.0
17072,-80,-9612,-14509,-2748,5483,2025-02-17 11:25:22,0.0
17508,136,-9328,-15143,-1595,6608,2025-02-17 11:25:22,0.0
18184,572,-9088,-16016,-472,7438,2025-02-17 11:25:22,0.0
17816,1164,-8248,-16846,452,7643,2025-02-17 11:25:22,
16056,1548,-8440,-17815,1147,8276,2025-02-17 11:25:22,0.0
14408,856,-8916,-19163,1309,9734,2025-02-17 11:25:22,0.0
14668,-444,-8744,-20267,1083,10638,2025-02-17 11:25:22,0.0
14244,-1620,-7696,-20729,1182,11156,2025-02-17 11:25:22,0.0
15104,-1992,-9024,-21169,1301,11260,2025-02-17 11:25:22,0.0
15980,-2276,-8280,-21948,1397,11394,2025-02-17 11:25:22,0.0
17128,-2776,-7072,-21671,1537,10943,2025-02-17 11:25:22,0.0
17308,-2424,-7272,-21668,1895,10363,2025-02-17 11:25:22,0.0
16804,-2032,-6636,-21768,2588,9988,2025-02-17 11:25:22,0.0
16724,-2164,-5640,-21656,2501,9664,2025-02-17 11:25:22,0.0
16588,-2732,-5460,-21164,1597,9250,2025-02-17 11:25:22,0.0
16720,-2896,-6472,-20544,606,8665,2025-02-17 11:25:22,0.0
16360,-2896,-7400,-20158,273,8366,2025-02-17 11:25:22,0.0
16520,-2692,-7184,-20258,-391,8087,2025-02-17 11:25:22,0.0
16504,-2288,-6692,-20321,-484,8225,2025-02-17 11:25:22,0.0
17428,-2240,-6740,-20576,383,8233,2025-02-17 11:25:22,0.0
16992,-1716,-5256,-20519,1978,7791,2025-02-17 11:25:22,0.0
17084,-1528,-5872,-20118,2836,7495,2025-02-17 11:25:22,0.0
16668,-2276,-6176,-20052,2878,7200,2025-02-17 11:25:22,0.0
16692,-2656,-7000,-19564,528,6637,2025-02-17 11:25:22,0.0
16564,-2624,-7680,-19031,-1739,5818,2025-02-17 11:25:22,0.0
16184,-980,-7104,-18497,-3499,5523,2025-02-17 11:25:22,0.0
16332,-640,-6412,-18126,-5108,5856,2025-02-17 11:25:22,0.0
15856,-328,-6992,-17886,-4824,6062,2025-02-17 11:25:22,0.0
16024,-432,-6520,-17340,-4484,6557,2025-02-17 11:25:22,0.0
16896,520,-5564,-16702,-5270,6591,2025-02-17 11:25:22,0.0
17764,1456,-6540,-16936,-6029,6535,2025-02-17 11:25:22,0.0
18540,2096,-6132,-17047,-5520,6564,2025-02-17 11:25:22,0.0
19112,2244,-5984,-16332,-3948,6597,2025-02-17 11:25:22,0.0
17876,2268,-6540,-17006,-1799,7239,2025-02-17 11:25:22,0.0
17340,1416,-5224,-17283,-695,8062,2025-02-17 11:25:22,0.0
17556,616,-4448,-16309,-1026,8208,2025-02-17 11:25:22,0.0
17732,568,-5432,-15646,-1634,7943,2025-02-17 11:25:22,0.0
17368,500,-5680,-15520,-1286,7662,2025-02-17 11:25:23,0.0
17156,408,-5216,-15267,-1365,7342,2025-02-17 11:25:23,0.0
17064,948,-4484,-14887,-1671,7051,2025-02-17 11:25:23,0.0
16964,1692,-4636,-14552,-1964,7068,2025-02-17 11:25:23,0.0
17620,2328,-5188,-14404,-2062,7307,2025-02-17 11:25:23,0.0
17248,2204,-5504,-14372,-1707,7585,2025-02-17 11:25:23,0.0
17296,1836,-5860,-14371,-990,7709,2025-02-17 11:25:23,0.0
16996,1348,-5696,-14256,-514,7654,2025-02-17 11:25:23,0.0
16156,792,-4824,-14132,-355,7785,2025-02-17 11:25:23,0.0
15772,796,-4684,-13922,-566,7926,2025-02-17 11:25:23,0.0
15888,768,-4660,-13577,-800,8016,2025-02-17 11:25:23,0.0
16316,1056,-5528,-13284,-1245,7859,2025-02-17 11:25:23,0.0
16740,1172,-5344,-12858,-1952,7572,2025-02-17 11:25:23,0.0
17124,784,-5936,-12115,-2431,7100,2025-02-17 11:25:23,0.0
16896,1108,-6468,-11879,-2268,7075,2025-02-17 11:25:23,0.0
16980,1100,-6384,-11924,-1963,7073,2025-02-17 11:25:23,0.0
17048,1084,-5912,-11486,-2108,6881,2025-02-17 11:25:23,0.0
17280,644,-6096,-11238,-2432,6780,2025-02-17 11:25:23,0.0
17156,484,-6216,-11280,-2396,6924,2025-02-17 11:25:23,0.0
17524,152,-7324,-11513,-2577,7491,2025-02-17 11:25:23,0.0
17332,88,-7208,-11687,-1712,8459,2025-02-17 11:25:23,0.0
16884,328,-7312,-11732,-584,9333,2025-02-17 11:25:23,0.0
16260,-1704,-5216,-7686,-1460,2989,2025-02-17 11:25:23,0.0
16836,-1440,-4892,-6868,-1957,3021,2025-02-17 11:25:23,0.0
17452,-1596,-5236,-6035,-2015,3027,2025-02-17 11:25:23,0.0
18036,-1972,-6004,-5753,-1124,3253,2025-02-17 11:25:23,0.0
18432,-2152,-6100,-5623,531,3330,2025-02-17 11:25:23,0.0
17452,-1432,-5468,-5307,2073,3505,2025-02-17 11:25:23,0.0
16372,-1068,-5084,-4826,2444,4110,2025-02-17 11:25:23,0.0
15856,-1008,-3992,-4000,1402,4515,2025-02-17 11:25:23,0.0
16232,-1396,-5036,-3311,-486,4321,2025-02-17 11:25:23,0.0
16348,-1952,-6776,-3541,-1142,3968,2025-02-17 11:25:23,0.0
18056,-2316,-6884,-4128,-477,3254,2025-02-17 11:25:23,0.0
18600,-2624,-5648,-4265,342,1994,2025-02-17 11:25:23,0.0
19004,-2392,-3408,-3269,797,869,2025-02-17 11:25:23,0.0
18256,-1688,-5816,-2884,1434,159,2025-02-17 11:25:23,0.0
18072,-1680,-5040,-2212,1229,-392,2025-02-17 11:25:23,0.0
17184,-1324,-5196,-2027,961,-568,2025-02-17 11:25:23,0.0
17432,-1112,-5228,-1844,734,-531,2025-02-17 11:25:23,0.0
17888,-1200,-4856,-1627,394,-395,2025-02-17 11:25:23,0.0
18900,-2244,-4396,-917,772,-713,2025-02-17 11:25:23,0.0
18708,-2672,-3920,75,1715,-1226,2025-02-17 11:25:23,0.0
18624,-2936,-2612,1459,1367,-1932,2025-02-17 11:25:23,0.0
16676,-2612,-476,4266,-325,-2267,2025-02-17 11:25:23,0.0
15972,-2108,-3524,6107,-2794,-2582,2025-02-17 11:25:23,0.0
14728,-860,-10168,4360,-3309,-2225,2025-02-17 11:25:23,0.0
15100,-44,-12552,502,-1822,-1432,2025-02-17 11:25:23,0.0
15696,80,-8156,-2374,718,-334,2025-02-17 11:25:23,0.0
16740,-856,-4952,-2288,1472,81,2025-02-17 11:25:23,0.0
17516,-1024,-4024,-869,1345,-408,2025-02-17 11:25:23,0.0
18152,-676,-4108,969,607,-1422,2025-02-17 11:25:23,0.0
18236,-528,-5788,965,-469,-2157,2025-02-17 11:25:23,0.0
18892,72,-5716,335,-1567,-2523,2025-02-17 11:25:23,0.0
19724,-88,-4428,126,-1746,-3135,2025-02-17 11:25:23,0.0
20360,-372,-3688,681,-755,-4031,2025-02-17 11:25:23,0.0
19404,-680,-3924,1415,514,-5138,2025-02-17 11:25:24,0.0
18116,-544,-4256,2104,1398,-5628,2025-02-17 11:25:24,0.0
16316,600,-5680,1912,2253,-4946,2025-02-17 11:25:24,0.0
15320,1608,-5232,1246,3107,-3667,2025-02-17 11:25:24,0.0
15284,1452,-4620,637,3761,-2633,2025-02-17 11:25:24,0.0
15724,500,-3208,437,3775,-2134,2025-02-17 11:25:24,0.0
15888,-324,-2652,828,3362,-1954,2025-02-17 11:25:24,0.0
16348,-292,-2568,753,2329,-2140,2025-02-17 11:25:24,0.0
16940,-152,-2396,646,1242,-2236,2025-02-17 11:25:24,0.0
17052,576,-3192,322,438,-1954,2025-02-17 11:25:24,0.0
17664,1536,-4176,-540,1586,-1743,2025-02-17 11:25:24,0.0
18400,2192,-3908,-762,3010,-2049,2025-02-17 11:25:24,
18532,1892,96,1758,2977,-2218,2025-02-17 11:25:24,0.0
18248,332,216,4558,42,-2136,2025-02-17 11:25:24,0.0
18780,92,-1712,4662,-2829,-2420,2025-02-17 11:25:24,0.0
18324,172,-4064,3923,-3566,-2957,2025-02-17 11:25:24,0.0
20028,924,-2332,2283,35,-2194,2025-02-17 11:25:24,0.0
20540,1036,-3320,2566,539,-2373,2025-02-17 11:25:24,0.0
20044,820,-4220,2711,1412,-2537,2025-02-17 11:25:24,0.0
19332,1172,-4028,2376,1721,-2502,2025-02-17 11:25:24,0.0
18836,1740,-3044,1887,1622,-1987,2025-02-17 11:25:24,0.0
19016,1988,-1344,2249,1155,-1221,2025-02-17 11:25:24,0.0
20004,3780,-2856,3546,-82,-811,2025-02-17 11:25:24,0.0
21000,3948,-6376,3843,-2550,-1488,2025-02-17 11:25:24,0.0
22128,3572,-5692,3447,-4251,-1528,2025-02-17 11:25:24,0.0
22460,3804,-6544,3470,-3733,-1551,2025-02-17 11:25:24,0.0
21272,3556,-8296,3795,-438,-900,2025-02-17 11:25:24,0.0
20460,3708,-10740,3362,1374,-488,2025-02-17 11:25:24,0.0
18648,3392,-11620,2294,2333,-192,2025-02-17 11:25:24,0.0
15024,2160,-10276,1364,4242,839,2025-02-17 11:25:24,0.0
12980,1940,-8768,493,5901,2149,2025-02-17 11:25:24,0.0
11908,1420,-6696,353,5347,3184,2025-02-17 11:25:24,0.0
11752,180,-6276,295,3189,4269,2025-02-17 11:25:24,0.0
12448,-1444,-6480,127,-1099,5551,2025-02-17 11:25:24,0.0
15912,-3052,-6092,-141,-6831,6077,2025-02-17 11:25:24,0.0
17684,-2712,-6256,-740,-11537,4524,2025-02-17 11:25:24,0.0
17164,-900,-6016,-1237,-12681,3623,2025-02-17 11:25:24,0.0
16884,592,-8952,-1418,-11169,3612,2025-02-17 11:25:24,0.0
17028,1624,-10716,-1758,-7273,4467,2025-02-17 11:25:24,0.0
16972,1240,-10760,-2290,-1503,4751,2025-02-17 11:25:24,0.0
16840,252,-9692,-2143,4992,4941,2025-02-17 11:25:24,0.0
15632,-712,-7984,-1776,10844,4490,2025-02-17 11:25:24,0.0
14836,-1088,-7012,-965,16946,4600,2025-02-17 11:25:24,0.0
14560,-524,332,-4357,7719,3937,2025-02-17 11:25:24,0.0
10556,-1480,-2496,-3542,-380,5208,2025-02-17 11:25:24,0.0
12568,-2040,-3464,-3320,-2069,5935,2025-02-17 11:25:24,0.0
15528,-3164,-3828,-2573,-2324,4495,2025-02-17 11:25:24,0.0
16648,-3228,-3604,-2436,-1392,2478,2025-02-17 11:25:24,0.0
15780,-3168,-3648,-2076,-947,1026,2025-02-17 11:25:24,0.0
14892,-3560,-4052,-2036,-976,233,2025-02-17 11:25:24,0.0
15148,-3420,-4324,-2253,-1425,-658,2025-02-17 11:25:24,0.0
15916,-3036,-4576,-2229,-1678,-1425,2025-02-17 11:25:24,0.0
17372,-2528,-4896,-2134,-1699,-2493,2025-02-17 11:25:24,0.0
18112,-1436,-3904,-1624,-1453,-3300,2025-02-17 11:25:24,0.0
18288,-1044,-4492,-1015,-484,-3481,2025-02-17 11:25:24,0.0
18396,-1556,-5224,-961,896,-3026,2025-02-17 11:25:24,0.0
18996,-2700,-4992,-752,1829,-2419,2025-02-17 11:25:24,0.0
19180,-3448,-4664,-350,2768,-1887,2025-02-17 11:25:24,0.0
18448,-2224,-4972,-231,3518,-1124,2025-02-17 11:25:24,0.0
16520,872,-6232,-1834,2607,2040,2025-02-17 11:25:24,0.0
17664,564,-5880,-2612,2184,2511,2025-02-17 11:25:25,0.0
18696,-80,-5440,-3383,1815,2490,2025-02-17 11:25:25,0.0
19392,-912,-5180,-4334,1402,2741,2025-02-17 11:25:25,0.0
20176,-1000,-5672,-4994,579,3195,2025-02-17 11:25:25,0.0
21288,-1356,-7232,-5008,-364,2739,2025-02-17 11:25:25,0.0
21240,-3556,-8912,-4135,-2059,2860,2025-02-17 11:25:25,0.0
22548,-6432,-9688,-3370,-3201,2673,2025-02-17 11:25:25,0.0
22928,-7268,-10704,-2577,-3681,1611,2025-02-17 11:25:25,0.0
21768,-6240,-12244,-2500,-2895,512,2025-02-17 11:25:25,0.0
18440,-4716,-12076,-3500,-1780,981,2025-02-17 11:25:25,0.0
15780,-2044,-13484,-6038,-970,1345,2025-02-17 11:25:25,0.0
12056,2088,-10912,-10348,1810,3655,2025-02-17 11:25:25,0.0
13312,3848,-4444,-8815,4989,5259,2025-02-17 11:25:25,0.0
15992,3340,-3764,-3741,9247,4080,2025-02-17 11:25:25,0.0
17284,568,-5372,-1117,14183,1562,2025-02-17 11:25:25,0.0
18456,-2212,-996,-558,14872,-1375,2025-02-17 11:25:25,0.0
14552,-3300,-2652,533,7628,-2891,2025-02-17 11:25:25,0.0
14836,-3000,-3112,2167,-2951,-3599,2025-02-17 11:25:25,0.0
15688,-1132,-4920,3168,-8330,-4882,2025-02-17 11:25:25,0.0
16644,-20,-6916,2756,-7574,-6146,2025-02-17 11:25:25,0.0
17168,1504,-7108,945,-3210,-6308,2025-02-17 11:25:25,0.0
17452,1696,-6016,656,1453,-4862,2025-02-17 11:25:25,0.0
17672,852,-5208,1215,4225,-4317,2025-02-17 11:25:25,0.0
16076,372,-6092,2150,4253,-3749,2025-02-17 11:25:25,0.0
14564,772,-4352,2086,3745,-2923,2025-02-17 11:25:25,0.0
15024,932,-5156,2017,2929,-2243,2025-02-17 11:25:25,0.0
14552,976,-5120,1472,2550,-1294,2025-02-17 11:25:25,0.0
14604,480,-4524,1026,1619,-490,2025-02-17 11:25:25,0.0
15904,444,-4308,709,722,23,2025-02-17 11:25:25,0.0
16056,364,-3868,587,-43,330,2025-02-17 11:25:25,0.0
16292,200,-3916,616,117,456,2025-02-17 11:25:25,0.0
16504,216,-3828,695,643,740,2025-02-17 11:25:25,0.0
16288,-288,-3084,967,930,1023,2025-02-17 11:25:25,0.0
16280,-512,-2580,1372,927,916,2025-02-17 11:25:25,0.0
16572,-264,-3392,1816,419,748,2025-02-17 11:25:25,0.0
17492,496,-5876,742,500,825,2025-02-17 11:25:25,0.0
18852,-84,-4848,-240,1018,1184,2025-02-17 11:25:25,0.0
20588,-1392,-3980,-467,2000,917,2025-02-17 11:25:25,0.0
21096,-2308,-3888,8,2861,530,2025-02-17 11:25:25,0.0
21432,-2596,-4552,734,3718,-392,2025-02-17 11:25:25,0.0
21472,-2168,-3564,2040,5217,-2019,2025-02-17 11:25:25,0.0
20936,-2008,-2024,4083,6966,-3617,2025-02-17 11:25:25,0.0
19812,-1772,-644,6057,7530,-4719,2025-02-17 11:25:25,0.0
18460,-2488,-224,7394,7357,-5235,2025-02-17 11:25:25,0.0
17624,-1224,752,9615,6214,-5698,2025-02-17 11:25:25,0.0
18704,-624,-2824,12195,4337,-6717,2025-02-17 11:25:25,0.0
19392,-2636,-1696,13964,421,-8142,2025-02-17 11:25:25,0.0
20164,-6488,-3152,16806,414,-9299,2025-02-17 11:25:25,0.0
20016,-6616,-10924,17624,4313,-9201,2025-02-17 11:25:25,0.0
20792,-1812,-14276,17784,4207,-10894,2025-02-17 11:25:25,0.0
16608,28,-12016,17841,-2908,-11179,2025-02-17 11:25:25,0.0
14572,-212,-3972,19138,-8843,-9774,2025-02-17 11:25:25,
14252,-1496,-1480,21190,-9328,-7677,2025-02-17 11:25:25,0.0
15184,-2372,-4944,22058,-7370,-3406,2025-02-17 11:25:25,0.0
19244,-4620,-10540,19547,-2170,-1826,2025-02-17 11:25:25,0.0
20840,-5576,-9324,17709,2598,-3299,2025-02-17 11:25:25,0.0
19864,-4064,-6296,18761,3431,-5672,2025-02-17 11:25:25,0.0
17732,-2300,-5460,21158,1842,-6687,2025-02-17 11:25:25,0.0
16148,-1724,-6104,22598,-60,-6451,2025-02-17 11:25:25,0.0
15180,-1404,-6872,23096,-593,-6193,2025-02-17 11:25:25,0.0
14336,-2044,-6980,23037,-110,-6021,2025-02-17 11:25:26,0.0
14016,-2684,-7200,23431,-977,-5764,2025-02-17 11:25:26,0.0
14788,-2928,-8848,23400,-3000,-5558,2025-02-17 11:25:26,0.0
15988,-2276,-9960,22673,-4161,-5796,2025-02-17 11:25:26,0.0
17108,-1296,-9532,21417,-4228,-6749,2025-02-17 11:25:26,0.0
16252,-240,-9148,19159,-2024,-7081,2025-02-17 11:25:26,0.0
16620,-1516,-6988,19656,771,-4976,2025-02-17 11:25:26,0.0
17636,-2168,-7496,20168,3726,-3968,2025-02-17 11:25:26,0.0
17896,-2456,-7340,19597,5484,-3857,2025-02-17 11:25:26,0.0
17572,-2776,-6668,18655,5405,-4070,2025-02-17 11:25:26,0.0
18276,-3108,-7184,17711,-314,-3602,2025-02-17 11:25:26,0.0
21076,-3180,-9308,15257,-25696,-3132,2025-02-17 11:25:26,0.0
14440,-992,-4352,7996,-32768,-4537,2025-02-17 11:25:26,0.0
12744,-1140,1252,4340,-32768,-4649,2025-02-17 11:25:26,0.0
14732,-1304,3088,5813,-32768,-6986,2025-02-17 11:25:26,0.0
15516,-1640,-796,6230,-32768,-13201,2025-02-17 11:25:26,0.0
8580,-1784,-6568,2758,-32768,-18251,2025-02-17 11:25:26,0.0
-996,-1468,-11744,-3313,-32768,-17316,2025-02-17 11:25:26,0.0
-4040,-56,-13064,-7245,-32768,-13913,2025-02-17 11:25:26,0.0
-3764,996,-12256,-8877,-32768,-11876,2025-02-17 11:25:26,0.0
-3016,1528,-8020,-9817,-19791,-10429,2025-02-17 11:25:26,0.0
1020,144,412,-6670,-5977,-10405,2025-02-17 11:25:26,0.0
2164,-224,1580,-5230,-1790,-10649,2025-02-17 11:25:26,0.0
2868,-1084,1576,-5420,-1461,-10783,2025-02-17 11:25:26,0.0
2012,-400,1844,-5022,-1116,-10537,2025-02-17 11:25:26,0.0
1952,-388,1988,-4706,-1077,-9875,2025-02-17 11:25:26,0.0
1916,-280,2096,-4279,-1054,-9219,2025-02-17 11:25:26,0.0
2112,-300,2048,-3883,-906,-8695,2025-02-17 11:25:26,0.0
2468,-212,2036,-3393,-735,-8535,2025-02-17 11:25:26,0.0
2408,-332,1828,-3000,-499,-8566,2025-02-17 11:25:26,0.0
2436,-380,1772,-2759,-265,-8594,2025-02-17 11:25:26,0.0
2464,-392,1936,-2571,-46,-8612,2025-02-17 11:25:26,0.0
2500,-312,1636,-2386,246,-8738,2025-02-17 11:25:26,0.0
2504,-464,1640,-2244,766,-9165,2025-02-17 11:25:26,0.0
2744,-456,1176,-2173,1194,-9500,2025-02-17 11:25:26,0.0
2540,-536,1168,-2125,1533,-9555,2025-02-17 11:25:26,0.0
2460,-632,1164,-2100,1743,-9486,2025-02-17 11:25:26,0.0
2656,-816,744,-2076,1997,-9432,2025-02-17 11:25:26,0.0
2800,-1052,772,-2185,2491,-9631,2025-02-17 11:25:26,0.0
2296,-1144,1020,-2799,3349,-9955,2025-02-17 11:25:26,0.0
2500,-568,1128,-2972,3854,-10105,2025-02-17 11:25:26,0.0
2672,-1016,984,-2818,4297,-10294,2025-02-17 11:25:26,0.0
1756,-888,-164,-2841,4759,-10506,2025-02-17 11:25:26,0.0
-32768,-15916,-32768,-32768,-28503,8955,2025-02-17 11:25:26,0.0
-32768,32767,-25292,32767,-32768,2821,2025-02-17 11:25:26,0.0
-32768,-16572,-32768,10246,24835,11121,2025-02-17 11:25:26,0.0
-632,-4848,-14568,-19942,27473,13412,2025-02-17 11:25:26,0.0
7144,-1132,1204,-19849,18743,4686,2025-02-17 11:25:26,0.0
5296,-832,1264,-20290,13168,635,2025-02-17 11:25:26,0.0
4104,-440,1884,-20002,10489,-1372,2025-02-17 11:25:26,0.0
3740,-564,1364,-20288,9243,-2837,2025-02-17 11:25:26,0.0
3480,-424,2496,-20093,8200,-3963,2025-02-17 11:25:26,0.0
2304,2004,5304,-15455,7922,-4034,2025-02-17 11:25:26,0.0
1660,5136,8284,-6145,8529,-2284,2025-02-17 11:25:26,0.0
2716,8728,9700,7021,7938,1743,2025-02-17 11:25:26,0.0
6392,11936,7756,21711,2389,3100,2025-02-17 11:25:26,0.0
8800,13232,912,31830,-4417,478,2025-02-17 11:25:26,0.0
8564,8516,-26012,30684,-16499,-1460,2025-02-17 11:25:26,0.0
1932,-1284,-32768,8638,-22532,-1211,2025-02-17 11:25:26,0.0
-6368,-6640,-32768,-6689,-13132,2981,2025-02-17 11:25:26,0.0
-2880,768,-18664,-6987,-4108,1396,2025-02-17 11:25:26,0.0
-2276,7684,-12520,-2978,3379,-880,2025-02-17 11:25:26,0.0
-20,7844,-7908,-1525,6841,137,2025-02-17 11:25:27,0.0
3768,6300,-7024,-18,3673,622,2025-02-17 11:25:27,0.0
5596,4392,-12128,1179,-835,-224,2025-02-17 11:25:27,0.0
1364,4100,-16488,344,-2763,-545,2025-02-17 11:25:27,0.0
-1040,4772,-16536,-446,-947,-250,2025-02-17 11:25:27,0.0
-104,4848,-14356,-203,1346,-107,2025-02-17 11:25:27,0.0
2248,4832,-13312,-137,984,-111,2025-02-17 11:25:27,0.0
2400,4900,-13584,-139,-353,-220,2025-02-17 11:25:27,0.0
812,4708,-14284,-64,-292,-240,2025-02-17 11:25:27,0.0
676,4812,-14596,-144,473,-146,2025-02-17 11:25:27,0.0
1564,4884,-13888,-176,313,-161,2025-02-17 11:25:27,0.0
1408,4808,-13980,-143,-15,-203,2025-02-17 11:25:27,0.0
932,4732,-14340,-165,133,-199,2025-02-17 11:25:27,0.0
1148,4852,-14156,-155,300,-167,2025-02-17 11:25:27,0.0
1444,4800,-14104,-168,201,-162,2025-02-17 11:25:27,0.0
1232,4816,-14044,-157,108,-164,2025-02-17 11:25:27,0.0
980,4784,-14200,-152,199,-178,2025-02-17 11:25:27,0.0
1248,4884,-14036,-151,184,-182,2025-02-17 11:25:27,0.0
1284,4792,-14140,-139,146,-190,2025-02-17 11:25:27,0.0
1284,4928,-14268,-139,202,-185,2025-02-17 11:25:27,0.0
1296,4808,-14260,-149,192,-205,2025-02-17 11:25:27,0.0
1180,4832,-14184,-183,167,-185,2025-02-17 11:25:27,0.0
1184,4780,-14108,-144,167,-171,2025-02-17 11:25:27,0.0
1260,4788,-14260,-153,186,-161,2025-02-17 11:25:27,0.0
1264,4768,-14160,-160,160,-170,2025-02-17 11:25:27,0.0
1080,4756,-14124,-143,182,-189,2025-02-17 11:25:27,0.0
1256,4756,-14236,-168,192,-169,2025-02-17 11:25:27,0.0
1280,4844,-14172,-143,198,-181,2025-02-17 11:25:27,0.0
1280,4868,-14164,-132,117,-157,2025-02-17 11:25:27,0.0
1148,4792,-14148,-169,186,-151,2025-02-17 11:25:27,
1312,4880,-14180,-167,169,-171,2025-02-17 11:25:27,0.0
1248,4744,-14156,-154,214,-175,2025-02-17 11:25:27,0.0
1260,4788,-14328,-147,169,-183,2025-02-17 11:25:27,0.0
1204,4780,-14188,-157,191,-189,2025-02-17 11:25:27,0.0
1236,4760,-14304,-171,205,-172,2025-02-17 11:25:27,0.0
1232,4808,-14132,-156,170,-181,2025-02-17 11:25:27,0.0
1180,4760,-14128,-157,149,-163,2025-02-17 11:25:27,0.0
1216,4772,-14200,-163,154,-148,2025-02-17 11:25:27,0.0
1144,4720,-14252,-165,190,-174,2025-02-17 11:25:27,0.0
1208,4836,-14104,-148,159,-180,2025-02-17 11:25:27,0.0
1116,4856,-14080,-158,161,-166,2025-02-17 11:25:27,0.0
1228,4848,-14156,-183,169,-175,2025-02-17 11:25:27,0.0
1272,4816,-14272,-172,194,-194,2025-02-17 11:25:27,0.0
1128,4784,-14232,-165,161,-159,2025-02-17 11:25:27,0.0
1216,4856,-14248,-145,191,-177,2025-02-17 11:25:27,0.0
1196,4808,-14244,-157,199,-184,2025-02-17 11:25:27,0.0
1240,4732,-14232,-147,181,-184,2025-02-17 11:25:27,0.0
1200,4768,-14236,-156,190,-183,2025-02-17 11:25:27,0.0
1216,4864,-14272,-178,145,-181,2025-02-17 11:25:27,0.0
1204,4788,-14076,-168,191,-154,2025-02-17 11:25:27,0.0
1204,4788,-14140,-126,158,-168,2025-02-17 11:25:27,0.0
1252,4864,-14204,-153,172,-194,2025-02-17 11:25:27,0.0
1184,4820,-14204,-163,180,-176,2025-02-17 11:25:27,0.0
1192,4840,-14104,-172,191,-162,2025-02-17 11:25:27,0.0
1204,4784,-14188,-122,216,-173,2025-02-17 11:25:27,0.0
1284,4756,-14096,-178,191,-166,2025-02-17 11:25:27,0.0
1112,4760,-14168,-122,153,-189,2025-02-17 11:25:27,0.0
1128,4816,-14220,-195,172,-177,2025-02-17 11:25:27,0.0
1236,4792,-14176,-141,192,-186,2025-02-17 11:25:27,0.0
1168,4824,-14120,-174,161,-180,2025-02-17 11:25:27,0.0
1232,4868,-14136,-173,197,-195,2025-02-17 11:25:28,0.0
1140,4772,-14284,-142,176,-205,2025-02-17 11:25:28,0.0
1220,4756,-14304,-139,154,-189,2025-02-17 11:25:28,0.0
1168,4876,-14160,-140,151,-169,2025-02-17 11:25:28,0.0
1224,4840,-14204,-173,178,-171,2025-02-17 11:25:28,0.0
1272,4748,-14160,-136,160,-152,2025-02-17 11:25:28,0.0
1268,4792,-14176,-152,165,-197,2025-02-17 11:25:28,0.0
1400,4800,-14272,-176,156,-182,2025-02-17 11:25:28,0.0
1276,4820,-14056,-140,193,-174,2025-02-17 11:25:28,0.0
1152,4752,-14276,-140,170,-158,2025-02-17 11:25:28,0.0
1204,4752,-14208,-151,177,-174,2025-02-17 11:25:28,0.0
1168,4772,-14292,-162,194,-168,2025-02-17 11:25:28,0.0
1200,4868,-14180,-157,165,-181,2025-02-17 11:25:28,0.0
1164,4832,-14236,-157,168,-149,2025-02-17 11:25:28,0.0
1180,4820,-14200,-165,193,-178,2025-02-17 11:25:28,0.0
1164,4860,-14260,-130,174,-163,2025-02-17 11:25:28,0.0
1168,4816,-14180,-160,159,-189,2025-02-17 11:25:28,0.0
1272,4740,-14216,-187,169,-164,2025-02-17 11:25:28,0.0
1228,4812,-14296,-128,166,-183,2025-02-17 11:25:28,0.0
1192,4832,-14268,-175,177,-159,2025-02-17 11:25:28,0.0
1184,4808,-14012,-164,164,-181,2025-02-17 11:25:28,0.0
1236,4812,-14072,-158,177,-174,2025-02-17 11:25:28,0.0
1204,4832,-14252,-141,182,-163,2025-02-17 11:25:28,0.0
1224,4788,-14244,-154,181,-154,2025-02-17 11:25:28,0.0
1276,4800,-14116,-140,168,-179,2025-02-17 11:25:28,0.0
1248,4756,-14000,-172,182,-172,2025-02-17 11:25:28,0.0
1196,4828,-14204,-169,199,-156,2025-02-17 11:25:28,0.0
1200,4876,-14156,-186,188,-180,2025-02-17 11:25:28,0.0
1212,4848,-14164,-181,176,-174,2025-02-17 11:25:28,0.0
1252,4784,-14120,-164,185,-171,2025-02-17 11:25:28,0.0
1212,4788,-14248,-153,177,-142,2025-02-17 11:25:28,0.0
1204,4864,-14180,-169,170,-170,2025-02-17 11:25:28,0.0
1200,4860,-14208,-143,165,-184,2025-02-17 11:25:28,0.0
1268,4868,-14204,-170,198,-168,2025-02-17 11:25:28,0.0
1232,4784,-14212,-173,172,-176,2025-02-17 11:25:28,0.0
1272,4824,-14180,-170,165,-170,2025-02-17 11:25:28,0.0
1252,4884,-14304,-184,173,-185,2025-02-17 11:25:28,0.0
1168,4772,-14204,-178,157,-180,2025-02-17 11:25:28,0.0
1252,4884,-14096,-147,170,-189,2025-02-17 11:25:28,0.0
1204,4756,-14148,-126,185,-191,2025-02-17 11:25:28,0.0
1320,4756,-14216,-181,152,-175,2025-02-17 11:25:28,0.0
1204,4800,-14312,-142,191,-189,2025-02-17 11:25:28,0.0
1260,4880,-14252,-152,165,-191,2025-02-17 11:25:28,0.0
1232,4864,-14180,-182,184,-179,2025-02-17 11:25:28,0.0
1260,4788,-14188,-129,166,-171,2025-02-17 11:25:28,0.0
1252,4748,-14188,-148,156,-177,2025-02-17 11:25:28,0.0
1200,4884,-14232,-186,156,-165,2025-02-17 11:25:28,0.0
1324,4916,-14056,-159,161,-188,2025-02-17 11:25:28,0.0
1144,4828,-14272,-146,186,-213,2025-02-17 11:25:28,0.0
1172,4764,-14008,-166,164,-145,2025-02-17 11:25:28,0.0
1188,4760,-14196,-135,161,-193,2025-02-17 11:25:28,0.0
1208,4808,-14264,-152,175,-179,2025-02-17 11:25:28,0.0
1184,4836,-14028,-147,162,-186,2025-02-17 11:25:28,0.0
1220,4728,-14216,-159,156,-164,2025-02-17 11:25:28,0.0
1220,4720,-14228,-143,174,-205,2025-02-17 11:25:28,0.0
1288,4840,-14232,-168,179,-179,2025-02-17 11:25:28,0.0
1260,4928,-14144,-180,171,-172,2025-02-17 11:25:28,0.0
1228,4856,-14192,-171,142,-195,2025-02-17 11:25:28,0.0
1164,4784,-14212,-153,192,-158,2025-02-17 11:25:28,0.0
1184,4764,-14116,-155,179,-198,2025-02-17 11:25:28,0.0
1332,4784,-14188,-169,172,-152,2025-02-17 11:25:28,0.0
1184,4748,-14100,-168,145,-161,2025-02-17 11:25:29,0.0
1240,4708,-14172,-160,172,-202,2025-02-17 11:25:29,0.0
1204,4820,-14020,-185,168,-172,2025-02-17 11:25:29,0.0
1148,4788,-14124,-155,170,-160,2025-02-17 11:25:29,0.0
1204,4792,-14224,-166,190,-174,2025-02-17 11:25:29,0.0
1168,4900,-14092,-157,186,-176,2025-02-17 11:25:29,0.0
1244,4824,-14020,-156,188,-189,2025-02-17 11:25:29,0.0
1228,4764,-14248,-177,186,-183,2025-02-17 11:25:29,0.0
1228,4768,-14304,-167,183,-178,2025-02-17 11:25:29,
1232,4872,-14368,-189,170,-163,2025-02-17 11:25:29,0.0
1184,4796,-14188,-161,178,-162,2025-02-17 11:25:29,0.0
1248,4700,-14120,-160,157,-183,2025-02-17 11:25:29,0.0
1148,4848,-14156,-123,192,-160,2025-02-17 11:25:29,0.0
1180,4832,-14180,-174,172,-191,2025-02-17 11:25:29,0.0
1180,4848,-14192,-172,171,-184,2025-02-17 11:25:29,0.0
1156,4916,-14188,-158,161,-159,2025-02-17 11:25:29,0.0
664,5032,-13924,-86,192,-70,2025-02-17 11:25:29,0.0
1100,4800,-14036,75,504,-74,2025-02-17 11:25:29,0.0
1512,4904,-14656,308,604,-199,2025-02-17 11:25:29,0.0
1548,4516,-14196,-182,395,-98,2025-02-17 11:25:29,0.0
1476,4796,-14352,-274,158,-240,2025-02-17 11:25:29,0.0
1544,4856,-13724,-127,-11,-239,2025-02-17 11:25:29,0.0
-32,5004,-14572,87,835,-275,2025-02-17 11:25:29,0.0
1576,4688,-14392,-69,981,-346,2025-02-17 11:25:29,0.0
1820,4812,-13976,-217,486,-242,2025-02-17 11:25:29,0.0
1140,4736,-13664,-162,144,-272,2025-02-17 11:25:29,0.0
1200,4944,-14352,-58,549,-194,2025-02-17 11:25:29,0.0
1808,4672,-14600,-195,60,-121,2025-02-17 11:25:29,0.0
1608,4832,-13864,-426,-521,-61,2025-02-17 11:25:29,0.0
1784,5036,-14564,-304,-1078,26,2025-02-17 11:25:29,0.0
332,4564,-14328,-253,-191,57,2025-02-17 11:25:29,0.0
1136,4540,-14468,-411,226,-66,2025-02-17 11:25:29,0.0
1496,4820,-13736,-414,-127,-126,2025-02-17 11:25:29,0.0
1020,4828,-14192,-359,-179,-168,2025-02-17 11:25:29,0.0
1052,4828,-14280,-191,177,-133,2025-02-17 11:25:29,0.0
1080,4964,-14300,-114,361,-238,2025-02-17 11:25:29,0.0
1100,4772,-14176,-74,234,-161,2025-02-17 11:25:29,0.0
904,4920,-13836,119,684,-27,2025-02-17 11:25:29,0.0
1004,4696,-14232,132,695,135,2025-02-17 11:25:29,0.0
1536,5060,-14732,-58,550,61,2025-02-17 11:25:29,0.0
1808,4816,-14584,-294,105,14,2025-02-17 11:25:29,0.0
1596,4640,-14348,-426,-455,-53,2025-02-17 11:25:29,0.0
1052,4616,-13536,-349,-246,-127,2025-02-17 11:25:29,0.0
972,4436,-14220,6,804,-123,2025-02-17 11:25:29,0.0
1572,4748,-14320,-117,1068,-224,2025-02-17 11:25:29,0.0
2020,5032,-14304,-151,339,-380,2025-02-17 11:25:29,0.0
1276,4820,-14680,-116,44,-416,2025-02-17 11:25:29,0.0
580,5204,-14476,-298,84,-134,2025-02-17 11:25:29,0.0
976,4948,-13820,-242,216,-102,2025-02-17 11:25:29,0.0
1596,4844,-14024,-151,-28,-355,2025-02-17 11:25:29,0.0
1224,4916,-14332,-30,24,-149,2025-02-17 11:25:29,0.0
1088,5116,-14000,457,233,-271,2025-02-17 11:25:29,0.0
1424,5048,-14984,801,877,-412,2025-02-17 11:25:29,0.0
868,4168,-15568,-237,1359,-397,2025-02-17 11:25:29,0.0
892,4516,-14672,-1055,1504,177,2025-02-17 11:25:29,0.0
3436,5284,-12104,416,325,-391,2025-02-17 11:25:29,0.0
3180,5852,-14620,1477,-1989,-1098,2025-02-17 11:25:29,0.0
1804,5348,-16124,1403,-2029,-2138,2025-02-17 11:25:29,0.0
152,4672,-16036,561,-2406,-1296,2025-02-17 11:25:29,0.0
1120,5400,-14560,303,-2318,-1277,2025-02-17 11:25:29,0.0
-108,6952,-14408,1907,894,-2464,2025-02-17 11:25:29,0.0
-1008,7772,-16312,3240,5220,-3147,2025-02-17 11:25:30,0.0
-116,7876,-19076,2224,6732,-2866,2025-02-17 11:25:30,0.0
1196,7744,-20424,581,5523,-2655,2025-02-17 11:25:30,0.0
1392,7584,-20572,139,2706,-2785,2025-02-17 11:25:30,0.0
-2228,7404,-19556,1962,1055,-1307,2025-02-17 11:25:30,0.0
-3048,4964,-22568,3417,1651,2107,2025-02-17 11:25:30,0.0
1104,2384,-21780,3711,1735,2646,2025-02-17 11:25:30,0.0
4020,116,-19040,6350,1012,-1133,2025-02-17 11:25:30,0.0
2724,-652,-21272,7768,1927,-6069,2025-02-17 11:25:30,0.0
-2388,-1644,-21128,7810,13234,-11262,2025-02-17 11:25:30,0.0
-4140,-304,-21000,4745,17021,-10350,2025-02-17 11:25:30,0.0
-4260,892,-18880,2172,16027,-6451,2025-02-17 11:25:30,0.0
-2764,2528,-18080,276,10999,-2038,2025-02-17 11:25:30,0.0
804,4236,-16212,-753,1875,1837,2025-02-17 11:25:30,0.0
3136,4976,-15552,-254,-8385,2279,2025-02-17 11:25:30,0.0
2332,5764,-15852,2140,-19502,4569,2025-02-17 11:25:30,0.0
3772,6056,-20864,3407,-26260,4716,2025-02-17 11:25:30,0.0
4112,6436,-24352,1779,-29031,1649,2025-02-17 11:25:30,0.0
584,6428,-23780,-8,-27364,-1402,2025-02-17 11:25:30,0.0
-1280,5884,-21904,509,-22365,-2507,2025-02-17 11:25:30,0.0
-2916,4344,-19356,1921,-16095,-2025,2025-02-17 11:25:30,0.0
-1304,3400,-17272,3785,-12813,-1214,2025-02-17 11:25:30,0.0
48,2060,-16060,6297,-9773,-2231,2025-02-17 11:25:30,0.0
252,416,-17124,7000,-5201,-4287,2025-02-17 11:25:30,0.0
-852,-776,-18000,4980,660,-6146,2025-02-17 11:25:30,0.0
184,-392,-21708,50,8149,-5574,2025-02-17 11:25:30,0.0
-1084,-636,-17500,-4016,16114,-3734,2025-02-17 11:25:30,0.0
-3520,-764,-12232,-3624,23544,-2737,2025-02-17 11:25:30,0.0
-1716,576,-14260,-1870,28290,-1105,2025-02-17 11:25:30,0.0
-224,2520,-15864,-3299,31226,-796,2025-02-17 11:25:30,0.0
1268,4096,-15064,-4419,31151,-1066,2025-02-17 11:25:30,0.0
2828,5196,-14856,-4209,26768,-956,2025-02-17 11:25:30,0.0
4176,4680,-13400,-4059,16781,258,2025-02-17 11:25:30,0.0
5324,2960,-12800,-2928,5300,-842,2025-02-17 11:25:30,0.0
4904,3112,-13140,-1628,-2150,-1038,2025-02-17 11:25:30,0.0
3300,3676,-12940,-1025,-7143,-572,2025-02-17 11:25:30,0.0
2104,3640,-11216,394,-8563,-243,2025-02-17 11:25:30,0.0
1924,2804,-9680,1452,-8227,1771,2025-02-17 11:25:30,0.0
3600,1796,-7472,2245,-7044,3462,2025-02-17 11:25:30,0.0
6476,1836,-4464,5859,-6651,3033,2025-02-17 11:25:30,0.0
6984,1680,-5696,10620,-6622,676,2025-02-17 11:25:30,0.0
2760,1196,-11700,12407,-4668,-7,2025-02-17 11:25:30,0.0
-1412,-192,-15400,10916,1359,2484,2025-02-17 11:25:30,0.0
-2792,-1520,-16200,8920,10011,6094,2025-02-17 11:25:30,0.0
1052,-2016,-13920,9041,19468,7992,2025-02-17 11:25:30,0.0
2912,-2440,-14620,8305,26069,6596,2025-02-17 11:25:30,0.0
3112,-3072,-13572,5893,30396,5735,2025-02-17 11:25:30,0.0
4440,-3476,-12072,2852,31868,5465,2025-02-17 11:25:30,
5568,-3364,-10980,399,29759,6471,2025-02-17 11:25:30,0.0
7192,-2624,-9460,-1137,25640,6856,2025-02-17 11:25:30,0.0
8900,-2528,-8900,-1821,21565,5396,2025-02-17 11:25:30,0.0
8756,-2064,-8600,-1452,18706,2799,2025-02-17 11:25:30,0.0
6516,-1092,-7588,-502,18309,2530,2025-02-17 11:25:30,0.0
8488,-1448,-8036,-199,19070,3466,2025-02-17 11:25:30,0.0
12052,-2880,-6496,-73,18344,1164,2025-02-17 11:25:30,0.0
12864,-3484,-6572,940,16301,-1979,2025-02-17 11:25:30,0.0
11692,-2900,-7492,1558,14003,-3582,2025-02-17 11:25:30,0.0
10352,-1844,-8972,981,11946,-2705,2025-02-17 11:25:30,0.0
9804,-700,-8820,734,11039,-2002,2025-02-17 11:25:30,0.0
9780,116,-9256,382,11827,-2250,2025-02-17 11:25:30,0.0
11232,1496,-9408,446,13702,-3773,2025-02-17 11:25:31,0.0
12400,3004,-8904,934,14907,-6361,2025-02-17 11:25:31,0.0
12200,3872,-8028,2221,14683,-7678,2025-02-17 11:25:31,0.0
11864,3476,-7740,3882,13322,-7210,2025-02-17 11:25:31,0.0
11348,1524,-8304,4149,11989,-6237,2025-02-17 11:25:31,0.0
9664,324,-8048,4298,12143,-5362,2025-02-17 11:25:31,0.0
9612,336,-7680,3813,12547,-3972,2025-02-17 11:25:31,0.0
10144,1196,-8016,3734,12275,-2663,2025-02-17 11:25:31,0.0
11332,1528,-8124,2859,10978,-1563,2025-02-17 11:25:31,0.0
12500,1212,-7008,2691,8297,-991,2025-02-17 11:25:31,0.0
13024,696,-8044,2098,4295,-141,2025-02-17 11:25:31,0.0
13288,192,-7036,1852,1474,324,2025-02-17 11:25:31,0.0
15556,548,-6672,1638,-607,-720,2025-02-17 11:25:31,0.0
16944,888,2328,4877,18676,-1880,2025-02-17 11:25:31,0.0
16512,-256,-5024,6784,19589,-1111,2025-02-17 11:25:31,0.0
23228,-452,-6488,5731,13469,782,2025-02-17 11:25:31,0.0
25980,-2496,-6224,3031,969,129,2025-02-17 11:25:31,0.0
22376,-2992,-5272,1641,-1211,-2685,2025-02-17 11:25:31,0.0
21440,-1776,-5792,3884,3984,-4377,2025-02-17 11:25:31,0.0
21160,-852,-7344,5246,10373,-5612,2025-02-17 11:25:31,0.0
19224,504,-7740,5500,19784,-6546,2025-02-17 11:25:31,0.0
17792,1308,-6300,6626,29446,-6851,2025-02-17 11:25:31,0.0
17340,428,-5476,8354,32767,-6768,2025-02-17 11:25:31,0.0
18828,-2208,-5896,3950,32767,-5702,2025-02-17 11:25:31,0.0
15072,-72,5372,3797,15711,-5113,2025-02-17 11:25:31,0.0
11176,588,1388,6818,1041,-4358,2025-02-17 11:25:31,0.0
12552,640,-864,6039,-8751,-4653,2025-02-17 11:25:31,0.0
14316,-140,564,7115,-15657,-5494,2025-02-17 11:25:31,0.0
13384,-468,1408,9825,-20619,-4568,2025-02-17 11:25:31,0.0
15276,1816,-4332,9440,-22001,-1590,2025-02-17 11:25:31,0.0
17604,2392,-7232,7984,-20481,-634,2025-02-17 11:25:31,0.0
18412,148,-6712,7429,-15728,-233,2025-02-17 11:25:31,0.0
20972,-1972,-5636,8118,-10183,-240,2025-02-17 11:25:31,0.0
21492,-2792,-6364,7624,-6870,-676,2025-02-17 11:25:31,0.0
21312,-2768,-6380,7217,-4001,-1215,2025-02-17 11:25:31,0.0
19984,-2764,-6152,6909,-304,-1673,2025-02-17 11:25:31,0.0
18268,-2556,-5236,7381,2593,-2021,2025-02-17 11:25:31,0.0
16956,-2720,-3768,8778,3025,-2195,2025-02-17 11:25:31,0.0
17408,-2480,-3216,10162,1365,-2863,2025-02-17 11:25:31,0.0
17276,-2408,-4880,10743,-748,-3865,2025-02-17 11:25:31,0.0
16804,-1384,-5768,10939,-1366,-4016,2025-02-17 11:25:31,0.0
15952,-972,-6756,10441,-675,-3191,2025-02-17 11:25:31,0.0
15940,-1612,-5460,10382,48,-2578,2025-02-17 11:25:31,0.0
15896,-1432,-5044,10486,-638,-2402,2025-02-17 11:25:31,0.0
16956,-1848,-4712,10366,-3343,-2794,2025-02-17 11:25:31,0.0
18048,-2300,-4252,10363,-6498,-3977,2025-02-17 11:25:31,0.0
17384,-3356,-3596,10458,-8289,-5492,2025-02-17 11:25:31,0.0
17936,-3280,-5544,10180,-9502,-6967,2025-02-17 11:25:31,0.0
16332,-2316,-6040,10296,-10165,-6598,2025-02-17 11:25:31,0.0
19040,-924,-8088,10521,-8661,-4857,2025-02-17 11:25:31,0.0
19796,-1056,-9220,10041,-5058,-5025,2025-02-17 11:25:31,0.0
20172,-1168,-8320,9795,-1148,-7002,2025-02-17 11:25:31,0.0
17816,-788,-6984,10308,2331,-8266,2025-02-17 11:25:31,0.0
16544,128,-6256,10720,3107,-8010,2025-02-17 11:25:31,0.0
14992,1240,-5648,10537,1735,-6690,2025-02-17 11:25:31,0.0
15748,1576,-6260,9904,739,-5310,2025-02-17 11:25:31,0.0
16352,1228,-5508,9423,204,-5095,2025-02-17 11:25:31,0.0
16724,1012,-5052,9335,-526,-5027,2025-02-17 11:25:31,0.0
16660,1048,-5248,8689,-1713,-4773,2025-02-17 11:25:31,0.0
16464,1008,-5468,7918,-2332,-4049,2025-02-17 11:25:31,0.0
16920,768,-5572,7091,-1748,-2981,2025-02-17 11:25:31,0.0
16656,108,-5588,6473,-776,-2138,2025-02-17 11:25:31,0.0
16888,-568,-5540,5582,-602,-1664,2025-02-17 11:25:31,0.0
16800,-720,-5148,4725,-1054,-1237,2025-02-17 11:25:32,0.0
17248,-440,-5008,3790,-1441,-764,2025-02-17 11:25:32,0.0
17784,-712,-5032,3350,-1214,-724,2025-02-17 11:25:32,0.0
17524,-928,-4432,2708,-323,-447,2025-02-17 11:25:32,0.0
16988,-1372,-2996,1983,-170,83,2025-02-17 11:25:32,0.0
16564,-1488,-3212,1531,-669,678,2025-02-17 11:25:32,0.0
16768,-1636,-3804,1198,-2014,900,2025-02-17 11:25:32,0.0
17076,-1740,-4924,708,-3323,717,2025-02-17 11:25:32,0.0
17704,-1492,-5508,-128,-4427,546,2025-02-17 11:25:32,0.0
17856,-1948,-6124,-759,-3829,884,2025-02-17 11:25:32,0.0
18280,-3432,-6488,-1231,-2740,1328,2025-02-17 11:25:32,0.0
19324,-5028,-7100,-984,-2617,1364,2025-02-17 11:25:32,0.0
20136,-5308,-10068,-966,-4818,422,2025-02-17 11:25:32,0.0
18560,-4756,-11856,-1156,-7952,408,2025-02-17 11:25:32,0.0
18260,-2740,-12788,-1145,-8402,1017,2025-02-17 11:25:32,0.0
17564,-2116,-9720,-790,-5360,1302,2025-02-17 11:25:32,0.0
17996,-4528,-9336,135,-2910,1146,2025-02-17 11:25:32,0.0
19724,-5800,-11472,424,-1439,-447,2025-02-17 11:25:32,0.0
19504,-5092,-10840,193,-99,-4466,2025-02-17 11:25:32,0.0
16364,-2576,-8872,930,1931,-6759,2025-02-17 11:25:32,0.0
14304,-340,-7660,1942,4991,-6514,2025-02-17 11:25:32,0.0
13944,1100,-7012,2469,7142,-5721,2025-02-17 11:25:32,0.0
14740,668,-6664,2541,6525,-5624,2025-02-17 11:25:32,0.0
14936,-240,-6888,3018,4666,-6394,2025-02-17 11:25:32,0.0
14136,-436,-7104,3366,2908,-7273,2025-02-17 11:25:32,
13684,-352,-8308,3327,1214,-7763,2025-02-17 11:25:32,0.0
13032,-4,-9384,2725,-218,-7487,2025-02-17 11:25:32,0.0
13072,768,-9320,1771,-1116,-6618,2025-02-17 11:25:32,0.0
14016,1296,-8384,1115,-1449,-5388,2025-02-17 11:25:32,0.0
14860,1552,-8624,602,-1301,-4377,2025-02-17 11:25:32,0.0
15396,1600,-9156,-73,-770,-3298,2025-02-17 11:25:32,0.0
16460,1272,-9236,-207,526,-2975,2025-02-17 11:25:32,0.0
16756,1248,-9148,-153,2688,-3229,2025-02-17 11:25:32,0.0
16024,1232,-8404,-26,4884,-3713,2025-02-17 11:25:32,0.0
14172,992,-7256,130,6571,-3715,2025-02-17 11:25:32,0.0
12664,712,-6036,316,6261,-3276,2025-02-17 11:25:32,0.0
11960,692,-5280,355,3996,-2378,2025-02-17 11:25:32,0.0
12344,384,-5452,273,1192,-1638,2025-02-17 11:25:32,0.0
13316,592,-5168,398,-627,-1545,2025-02-17 11:25:32,0.0
14472,660,-5700,367,-1529,-2047,2025-02-17 11:25:32,0.0
14808,1152,-5844,398,-1619,-2354,2025-02-17 11:25:32,0.0
15240,1184,-5388,472,-1115,-2064,2025-02-17 11:25:32,0.0
15852,1240,-4848,806,-475,-1636,2025-02-17 11:25:32,0.0
16192,1432,-5000,1151,140,-1349,2025-02-17 11:25:32,0.0
17184,1844,-5692,1474,30,-1520,2025-02-17 11:25:32,0.0
17476,2092,-6140,1719,-266,-2062,2025-02-17 11:25:32,0.0
17460,2156,-6804,1642,-206,-2215,2025-02-17 11:25:32,0.0
17728,1476,-7056,1785,50,-1861,2025-02-17 11:25:32,0.0
18812,996,-6844,1632,-472,-2457,2025-02-17 11:25:32,0.0
18992,1744,-7556,1439,-578,-3915,2025-02-17 11:25:32,0.0
19568,2080,-7440,1104,226,-4277,2025-02-17 11:25:32,0.0
19372,1744,-6296,988,1548,-3673,2025-02-17 11:25:32,0.0
20024,1728,-5828,1079,2805,-2216,2025-02-17 11:25:32,0.0
19640,2792,-9280,1203,3214,-1301,2025-02-17 11:25:32,0.0
20120,4092,-10500,1048,3850,-957,2025-02-17 11:25:32,0.0
19924,4580,-10476,1440,3874,-1064,2025-02-17 11:25:32,0.0
18528,5072,-10840,1806,3196,-752,2025-02-17 11:25:32,0.0
17156,4880,-11068,2419,1863,132,2025-02-17 11:25:32,0.0
14800,3464,-11684,3033,1552,1661,2025-02-17 11:25:33,0.0
12936,572,-12956,2968,2193,3069,2025-02-17 11:25:33,0.0
12948,-1456,-11756,2318,3358,3364,2025-02-17 11:25:33,0.0
13488,-3216,-10152,2127,3815,2137,2025-02-17 11:25:33,0.0
14592,-3720,-9152,1955,2012,283,2025-02-17 11:25:33,0.0
15300,-2808,-8720,2040,-1705,-1168,2025-02-17 11:25:33,0.0
14520,-616,-9884,1576,-3525,-399,2025-02-17 11:25:33,0.0
14460,768,-10748,452,-3377,2891,2025-02-17 11:25:33,0.0
15912,-224,-9852,388,-1667,4542,2025-02-17 11:25:33,0.0
16956,-588,-9728,677,461,3791,2025-02-17 11:25:33,0.0
15164,112,-8608,1334,871,3272,2025-02-17 11:25:33,0.0
14436,304,-8520,1253,270,3298,2025-02-17 11:25:33,0.0
14312,360,-7144,772,739,3446,2025-02-17 11:25:33,0.0
14972,-432,-6304,801,1229,3129,2025-02-17 11:25:33,0.0
15204,-1468,-6484,878,1439,2333,2025-02-17 11:25:33,0.0
14580,-2308,-6444,737,1766,1759,2025-02-17 11:25:33,0.0
14792,-2548,-6608,529,1006,1803,2025-02-17 11:25:33,0.0
14440,-2452,-6248,-37,485,1470,2025-02-17 11:25:33,0.0
14024,-2104,-6136,-445,390,1251,2025-02-17 11:25:33,0.0
14428,-2172,-6096,-494,262,713,2025-02-17 11:25:33,0.0
14032,-1664,-6300,-735,-427,319,2025-02-17 11:25:33,0.0
14376,-1308,-6272,-933,-1484,-82,2025-02-17 11:25:33,0.0
14708,-1092,-6156,-1045,-2365,-395,2025-02-17 11:25:33,0.0
16096,-1032,-7464,-1243,-2700,-502,2025-02-17 11:25:33,0.0
16216,-1212,-7064,-1153,-2390,-378,2025-02-17 11:25:33,0.0
17064,-1064,-7080,-951,-1367,-596,2025-02-17 11:25:33,0.0
17260,-1224,-6992,-892,79,-689,2025-02-17 11:25:33,0.0
16724,-1064,-6952,-1189,1424,-458,2025-02-17 11:25:33,0.0
16500,-1284,-6632,-1599,2479,148,2025-02-17 11:25:33,0.0
17072,-1504,-6648,-1998,3187,383,2025-02-17 11:25:33,0.0
16804,-1280,-6268,-2047,3167,261,2025-02-17 11:25:33,0.0
16544,-1212,-6964,-1881,2687,29,2025-02-17 11:25:33,0.0
16088,-1528,-7348,-1377,1697,-184,2025-02-17 11:25:33,0.0
16280,-1616,-7676,-1669,772,-20,2025-02-17 11:25:33,0.0
17072,-720,-7252,-2587,111,579,2025-02-17 11:25:33,0.0
17964,-536,-6768,-3146,103,1419,2025-02-17 11:25:33,0.0
18372,-540,-8004,-3661,158,2177,2025-02-17 11:25:33,0.0
17992,-1464,-9092,-4321,-394,3134,2025-02-17 11:25:33,0.0
17096,-2696,-9248,-4091,-1859,3978,2025-02-17 11:25:33,0.0
18488,-2704,-10124,-3647,-2912,3961,2025-02-17 11:25:33,0.0
18796,-1840,-10284,-3090,-3960,3353,2025-02-17 11:25:33,0.0
18220,-2180,-10704,-2643,-4803,3048,2025-02-17 11:25:33,0.0
17432,-2428,-12272,-2636,-4212,2996,2025-02-17 11:25:33,0.0
15400,-1680,-12600,-3341,-71,2201,2025-02-17 11:25:33,0.0
13544,160,-11568,-3525,6418,740,2025-02-17 11:25:33,0.0
12156,1412,-9732,-3341,10406,-492,2025-02-17 11:25:33,0.0
12828,1760,-4408,-2871,12393,-703,2025-02-17 11:25:33,0.0
13296,2360,-2988,-1647,2752,-713,2025-02-17 11:25:33,0.0
12988,2088,-6388,-1085,-5019,-1104,2025-02-17 11:25:33,0.0
14484,668,-9340,-982,-8977,-1935,2025-02-17 11:25:33,0.0
17032,8,-10880,-1794,-11149,-3210,2025-02-17 11:25:33,0.0
17796,36,-9740,-2336,-10132,-3158,2025-02-17 11:25:33,0.0
18524,472,-9336,-1453,-7211,-2686,2025-02-17 11:25:33,0.0
17088,916,-11316,-1036,-3568,-2656,2025-02-17 11:25:33,0.0
14676,1188,-11648,-642,767,-2575,2025-02-17 11:25:33,0.0
13096,1408,-11288,-647,5543,-2216,2025-02-17 11:25:33,0.0
13008,1876,-9944,-901,9065,-1793,2025-02-17 11:25:33,0.0
13040,1564,-7920,-989,11190,-741,2025-02-17 11:25:33,0.0
13100,1292,-3368,-960,3877,232,2025-02-17 11:25:33,0.0
12424,1320,-6856,-584,-600,1212,2025-02-17 11:25:33,0.0
13356,1284,-7680,-1046,-1445,1858,2025-02-17 11:25:33,0.0
14860,964,-7500,-1174,-1518,2232,2025-02-17 11:25:33,0.0
15600,356,-7020,-1041,-894,2530,2025-02-17 11:25:33,0.0
15856,740,-6516,-1063,602,2979,2025-02-17 11:25:33,0.0
14544,1100,-8488,-1585,2434,4022,2025-02-17 11:25:34,0.0
14308,872,-9212,-2135,3588,4773,2025-02-17 11:25:34,0.0
13528,-104,-9688,-3030,4622,5338,2025-02-17 11:25:34,
13852,-120,-9696,-4069,3822,5545,2025-02-17 11:25:34,0.0
14388,320,-10068,-4459,888,5208,2025-02-17 11:25:34,0.0
15668,1056,-10344,-4683,-3831,4636,2025-02-17 11:25:34,0.0
17808,1424,-10392,-5257,-8763,3987,2025-02-17 11:25:34,0.0
18072,1944,-9612,-5940,-11233,3523,2025-02-17 11:25:34,0.0
15692,2896,-8832,-6541,-11287,4061,2025-02-17 11:25:34,0.0
13624,2764,-9568,-5692,-9052,5365,2025-02-17 11:25:34,0.0
13712,2088,-11464,-5670,-5043,6238,2025-02-17 11:25:34,0.0
14192,1496,-11496,-5910,-195,6629,2025-02-17 11:25:34,0.0
14048,1160,-11628,-5384,5066,7517,2025-02-17 11:25:34,0.0
14716,768,-10920,-4558,9866,8382,2025-02-17 11:25:34,0.0
15784,-104,-10176,-4202,12791,8546,2025-02-17 11:25:34,0.0
17876,-1504,-6600,-5634,12235,7958,2025-02-17 11:25:34,0.0
13948,-1256,-7296,-7242,2174,6804,2025-02-17 11:25:34,0.0
12604,-400,-8988,-7902,-2546,5930,2025-02-17 11:25:34,0.0
13504,-140,-9628,-8695,-4632,5619,2025-02-17 11:25:34,0.0
14996,-980,-8732,-9044,-4919,5296,2025-02-17 11:25:34,0.0
16216,-1688,-8884,-9529,-3978,4712,2025-02-17 11:25:34,0.0
16696,-2076,-10096,-10224,-2130,4153,2025-02-17 11:25:34,0.0
16548,-2492,-11824,-11430,1217,3971,2025-02-17 11:25:34,0.0
17408,-2916,-11404,-12529,3621,3523,2025-02-17 11:25:34,0.0
18232,-3216,-11088,-13963,3822,2582,2025-02-17 11:25:34,0.0
16924,-2272,-8768,-14992,3558,1973,2025-02-17 11:25:34,0.0
14992,-664,-6852,-14462,2988,2946,2025-02-17 11:25:34,0.0
14308,236,-7052,-13704,1663,4665,2025-02-17 11:25:34,0.0
14456,932,-7792,-13332,-223,6301,2025-02-17 11:25:34,0.0
14184,1144,-8904,-13536,-926,8002,2025-02-17 11:25:34,0.0
14364,636,-9720,-14231,-222,9515,2025-02-17 11:25:34,0.0
14336,-756,-9260,-14564,923,10401,2025-02-17 11:25:34,0.0
14112,-1440,-8960,-14448,1486,10871,2025-02-17 11:25:34,0.0
14432,-1936,-9796,-15513,1253,11066,2025-02-17 11:25:34,0.0
14492,-2596,-9528,-16152,137,10819,2025-02-17 11:25:34,0.0
14384,-2956,-9168,-16522,-895,10732,2025-02-17 11:25:34,0.0
14704,-2936,-8508,-16484,-1740,10533,2025-02-17 11:25:34,0.0
14624,-2616,-8668,-16759,-2216,10656,2025-02-17 11:25:34,0.0
14776,-2708,-9040,-16846,-2061,10977,2025-02-17 11:25:34,0.0
15384,-2772,-9348,-17046,-1578,10934,2025-02-17 11:25:34,0.0
15592,-3196,-9492,-17596,-448,10713,2025-02-17 11:25:34,0.0
15484,-3104,-10472,-18544,893,10175,2025-02-17 11:25:34,0.0
15300,-2692,-10440,-19350,1574,9743,2025-02-17 11:25:34,0.0
14840,-2892,-9696,-19510,2778,9590,2025-02-17 11:25:34,0.0
15248,-3008,-7572,-18725,4051,9315,2025-02-17 11:25:34,0.0
16600,-2072,-7104,-17678,3502,8502,2025-02-17 11:25:34,0.0
16684,-904,-7044,-16506,992,7403,2025-02-17 11:25:34,0.0
15264,-220,-7748,-14770,-1779,7164,2025-02-17 11:25:34,0.0
14372,340,-9208,-13578,-3050,7384,2025-02-17 11:25:34,0.0
13804,32,-9320,-12858,-3519,7675,2025-02-17 11:25:34,0.0
14424,-320,-8312,-12622,-5109,7819,2025-02-17 11:25:34,0.0
15612,-52,-8220,-13150,-6607,7711,2025-02-17 11:25:34,0.0
15836,-372,-8188,-13369,-6907,7878,2025-02-17 11:25:34,0.0
17204,-416,-8572,-13426,-5941,8100,2025-02-17 11:25:34,0.0
17980,824,-8572,-13838,-5363,8012,2025-02-17 11:25:34,0.0
17412,792,-8644,-14038,-4167,8282,2025-02-17 11:25:34,0.0
17712,672,-8608,-13491,-1298,8442,2025-02-17 11:25:34,0.0
17052,772,-8280,-12973,288,8237,2025-02-17 11:25:34,0.0
16332,664,-7924,-12746,753,8185,2025-02-17 11:25:34,0.0
15808,664,-7504,-12867,504,8339,2025-02-17 11:25:34,0.0
15216,520,-7016,-12588,493,8577,2025-02-17 11:25:34,0.0
14620,672,-7192,-12469,754,9092,2025-02-17 11:25:35,0.0
14048,888,-6440,-12444,1202,10297,2025-02-17 11:25:35,0.0
14348,1084,-6216,-12045,952,10829,2025-02-17 11:25:35,0.0
14512,1128,-6048,-11269,538,10987,2025-02-17 11:25:35,0.0
14336,1312,-6576,-10478,213,11321,2025-02-17 11:25:35,0.0
14628,1488,-7776,-9725,301,11248,2025-02-17 11:25:35,0.0
14308,1704,-8532,-9768,-606,10982,2025-02-17 11:25:35,0.0
14284,1456,-9012,-9768,-2014,10896,2025-02-17 11:25:35,0.0
14856,732,-9764,-9807,-3343,10822,2025-02-17 11:25:35,0.0
15512,-252,-11216,-10894,-3716,10828,2025-02-17 11:25:35,0.0
16056,-1636,-11400,-12151,-2470,11134,2025-02-17 11:25:35,0.0
16696,-2320,-11020,-12915,216,11196,2025-02-17 11:25:35,0.0
16928,-1340,-10724,-13511,2973,10766,2025-02-17 11:25:35,0.0
16984,36,-9492,-13617,3987,9877,2025-02-17 11:25:35,0.0
16452,1236,-8072,-12921,3361,9014,2025-02-17 11:25:35,0.0
15560,1584,-8296,-12021,2297,8693,2025-02-17 11:25:35,0.0
15336,1620,-10176,-12259,1697,9036,2025-02-17 11:25:35,0.0
14872,924,-10112,-13114,1787,9905,2025-02-17 11:25:35,0.0
14484,220,-12108,-14283,2414,10411,2025-02-17 11:25:35,0.0
15040,-600,-9064,-14399,2361,10162,2025-02-17 11:25:35,0.0
15772,-1168,-8216,-12547,824,9077,2025-02-17 11:25:35,0.0
15804,-1400,-9100,-12763,-1513,8372,2025-02-17 11:25:35,0.0
16560,-1180,-8424,-12705,-2097,7897,2025-02-17 11:25:35,0.0
16352,-168,-8460,-12344,-1516,7422,2025-02-17 11:25:35,0.0
16568,-1080,-7560,-11519,563,7271,2025-02-17 11:25:35,0.0
16576,-2132,-6840,-10668,1749,6960,2025-02-17 11:25:35,0.0
15780,-3108,-6304,-9713,2422,6700,2025-02-17 11:25:35,0.0
14736,-2668,-8492,-8890,2335,6446,2025-02-17 11:25:35,0.0
14376,-2308,-8736,-8811,787,5982,2025-02-17 11:25:35,0.0
14308,-2288,-8256,-8877,-1132,5327,2025-02-17 11:25:35,0.0
14284,-2352,-7460,-8961,-2670,4780,2025-02-17 11:25:35,0.0
14568,-2256,-7844,-8929,-3938,4536,2025-02-17 11:25:35,0.0
15180,-2604,-8504,-9063,-4794,4634,2025-02-17 11:25:35,0.0
15924,-3000,-8712,-9182,-5272,4818,2025-02-17 11:25:35,0.0
16804,-3256,-8844,-8936,-5109,5161,2025-02-17 11:25:35,0.0
17080,-3108,-9460,-8529,-3464,4993,2025-02-17 11:25:35,0.0
16864,-2360,-9500,-8480,-1054,4281,2025-02-17 11:25:35,0.0
15904,-1664,-8740,-8426,391,3868,2025-02-17 11:25:35,0.0
15252,-1188,-8208,-8708,577,3633,2025-02-17 11:25:35,0.0
14964,-952,-7360,-9226,-297,2900,2025-02-17 11:25:35,0.0
15720,-1148,-6104,-9319,-1844,2349,2025-02-17 11:25:35,0.0
16624,-1560,-6044,-7952,-3178,1578,2025-02-17 11:25:35,
16976,-1424,-6800,-6248,-3260,1078,2025-02-17 11:25:35,0.0
16888,-988,-8468,-5462,-1838,1121,2025-02-17 11:25:35,0.0
16408,-1656,-9392,-5147,586,1067,2025-02-17 11:25:35,0.0
16540,-2284,-8784,-4166,2981,762,2025-02-17 11:25:35,0.0
16056,-2400,-8072,-3404,2279,934,2025-02-17 11:25:35,0.0
16364,-1964,-7524,-2970,421,2010,2025-02-17 11:25:35,0.0
