acceleration_x,acceleration_y,acceleration_z,gyroscope_x,gyroscope_y,gyroscope_z,timestamp,label
-12352,-228,8532,-163,126,-164,2025-02-17 10:46:44,0.0
-12308,-36,8596,-151,99,-140,2025-02-17 10:46:44,0.0
-12360,44,8616,-157,99,-114,2025-02-17 10:46:45,0.0
-12372,-96,8656,-164,92,-169,2025-02-17 10:46:45,0.0
-12496,-64,8844,-145,96,-183,2025-02-17 10:46:45,0.0
-12468,-60,8588,-131,116,-143,2025-02-17 10:46:45,0.0
-12492,-56,8696,-144,66,-111,2025-02-17 10:46:45,0.0
-12484,-16,8864,-147,49,-152,2025-02-17 10:46:45,0.0
-12320,-92,8564,-145,76,-176,2025-02-17 10:46:45,0.0
-12404,-56,8668,-159,90,-188,2025-02-17 10:46:45,0.0
-12416,-164,8644,-147,69,-203,2025-02-17 10:46:45,0.0
-12488,-208,8676,-157,59,-156,2025-02-17 10:46:45,0.0
-12408,-200,8684,-153,6,-166,2025-02-17 10:46:45,0.0
-12412,-156,8600,-165,25,-160,2025-02-17 10:46:45,0.0
-12460,-164,8796,-186,24,-154,2025-02-17 10:46:45,0.0
-12336,-184,8568,-129,35,-158,2025-02-17 10:46:45,0.0
-12340,-164,8644,-138,-2,-156,2025-02-17 10:46:45,0.0
-12440,-120,8696,-143,31,-172,2025-02-17 10:46:45,0.0
-12336,-72,8792,-159,13,-197,2025-02-17 10:46:45,0.0
-12300,-220,8680,-148,-11,-185,2025-02-17 10:46:45,0.0
-12268,-76,8792,-125,39,-141,2025-02-17 10:46:45,0.0
-12292,-76,8792,-137,51,-156,2025-02-17 10:46:45,0.0
-12348,4,8740,-165,93,-192,2025-02-17 10:46:45,0.0
-12264,-176,8784,-150,100,-175,2025-02-17 10:46:45,0.0
-12216,-100,8724,-104,33,-148,2025-02-17 10:46:45,0.0
-12432,-48,8920,-147,98,-192,2025-02-17 10:46:45,0.0
-12676,-40,8688,-146,118,-161,2025-02-17 10:46:45,0.0
-12488,-148,8520,-155,-67,-135,2025-02-17 10:46:45,0.0
-12328,-164,8544,-147,-118,-150,2025-02-17 10:46:45,0.0
-12260,-124,8708,-170,-141,-147,2025-02-17 10:46:45,0.0
-12164,-116,8692,-161,-237,-152,2025-02-17 10:46:45,0.0
-12256,-164,8840,-187,-203,-194,2025-02-17 10:46:45,0.0
-12272,-92,9040,-132,-160,-179,2025-02-17 10:46:45,0.0
-12248,-152,9004,-151,-69,-163,2025-02-17 10:46:45,0.0
-12268,-148,8920,-156,-25,-145,2025-02-17 10:46:45,0.0
-12260,-76,8896,-180,-9,-180,2025-02-17 10:46:45,0.0
-12444,-76,8872,-124,-1,-162,2025-02-17 10:46:45,0.0
-12288,-252,8716,-138,-15,-111,2025-02-17 10:46:45,0.0
-12288,-60,8808,-132,-25,-161,2025-02-17 10:46:45,0.0
-12272,-48,8916,-136,8,-148,2025-02-17 10:46:45,0.0
-12280,-100,8784,-178,-2,-167,2025-02-17 10:46:45,0.0
-12332,-124,8976,-163,1,-180,2025-02-17 10:46:45,0.0
-12328,-112,8772,-163,20,-148,2025-02-17 10:46:45,0.0
-12272,-40,8776,-165,4,-146,2025-02-17 10:46:45,0.0
-12244,-72,8924,-124,7,-124,2025-02-17 10:46:45,0.0
-12200,-128,9016,-133,-11,-158,2025-02-17 10:46:45,0.0
-12276,52,8936,-160,11,-148,2025-02-17 10:46:45,0.0
-12144,-52,8968,-147,18,-155,2025-02-17 10:46:45,0.0
-12268,-36,8788,-153,25,-142,2025-02-17 10:46:45,0.0
-12208,-40,8912,-122,39,-136,2025-02-17 10:46:45,0.0
-12300,-172,9004,-147,101,-153,2025-02-17 10:46:45,0.0
-12172,-144,8964,-152,95,-166,2025-02-17 10:46:45,0.0
-12176,0,9084,-151,114,-149,2025-02-17 10:46:45,0.0
-12236,-72,8928,-154,92,-145,2025-02-17 10:46:45,0.0
-12220,-132,8844,-124,103,-131,2025-02-17 10:46:45,0.0
-12304,-64,8836,-130,118,-137,2025-02-17 10:46:45,0.0
-12192,-12,8932,-138,118,-173,2025-02-17 10:46:45,0.0
-12152,-60,8792,-133,91,-156,2025-02-17 10:46:45,0.0
-12232,-72,8900,-146,81,-172,2025-02-17 10:46:45,0.0
-12212,-84,8928,-147,146,-166,2025-02-17 10:46:45,0.0
-12228,-116,8936,-145,135,-153,2025-02-17 10:46:46,0.0
-12276,-72,9044,-147,95,-135,2025-02-17 10:46:46,0.0
-12156,-104,9048,-150,95,-141,2025-02-17 10:46:46,0.0
-12084,-32,9156,-144,160,-171,2025-02-17 10:46:46,0.0
-12252,-96,9076,-169,197,-171,2025-02-17 10:46:46,0.0
-12304,-56,8856,-170,246,-157,2025-02-17 10:46:46,0.0
-12308,-96,9228,-176,233,-175,2025-02-17 10:46:46,0.0
-12268,-80,9028,-151,257,-197,2025-02-17 10:46:46,0.0
-12304,-112,9084,-124,341,-194,2025-02-17 10:46:46,0.0
-12464,4,8796,-129,314,-109,2025-02-17 10:46:46,0.0
-12304,-28,8676,-84,251,-109,2025-02-17 10:46:46,0.0
-12384,-32,9056,87,323,1,2025-02-17 10:46:46,0.0
-12392,232,9080,178,436,18,2025-02-17 10:46:46,0.0
-12340,592,9164,321,859,-155,2025-02-17 10:46:46,0.0
-12516,60,9456,454,1574,-370,2025-02-17 10:46:46,0.0
-13444,-820,8836,843,1233,-45,2025-02-17 10:46:46,0.0
-13084,-644,8084,792,-190,597,2025-02-17 10:46:46,0.0
-12804,-456,8328,571,-788,1120,2025-02-17 10:46:46,0.0
-12212,-128,8204,237,-442,1285,2025-02-17 10:46:46,0.0
-13008,-28,8764,221,664,1629,2025-02-17 10:46:46,0.0
-12396,32,7912,-66,548,1693,2025-02-17 10:46:46,0.0
-11796,420,7672,-437,-311,1388,2025-02-17 10:46:46,0.0
-11336,784,7848,-724,-736,954,2025-02-17 10:46:46,0.0
-11288,844,8620,-767,-478,493,2025-02-17 10:46:46,0.0
-11836,488,9364,-581,-175,278,2025-02-17 10:46:46,0.0
-11820,292,9584,-360,-200,-37,2025-02-17 10:46:46,0.0
-11468,592,9356,-381,-201,-453,2025-02-17 10:46:46,0.0
-11584,568,9548,-458,140,-812,2025-02-17 10:46:46,0.0
-11664,488,9516,-424,457,-993,2025-02-17 10:46:46,0.0
-11548,576,9256,-559,716,-1106,2025-02-17 10:46:46,0.0
-11600,380,9028,-741,891,-1293,2025-02-17 10:46:46,0.0
-12008,720,9044,-975,547,-1275,2025-02-17 10:46:46,0.0
-11812,948,9060,-1078,-67,-1151,2025-02-17 10:46:46,0.0
-11552,1012,10244,-1170,248,-1083,2025-02-17 10:46:46,0.0
-10804,772,10432,-1286,1291,-1254,2025-02-17 10:46:46,0.0
-10832,128,10416,-1406,2509,-1549,2025-02-17 10:46:46,0.0
-11348,-308,10540,-1225,3125,-1610,2025-02-17 10:46:46,0.0
-11232,-996,10340,-1001,3230,-1913,2025-02-17 10:46:46,0.0
-11328,-324,9364,-1055,3768,-2065,2025-02-17 10:46:46,0.0
-11492,-1080,9092,-1042,3432,-2642,2025-02-17 10:46:46,
-11768,-372,9220,-1192,3102,-2897,2025-02-17 10:46:46,0.0
-12608,-960,9028,-1288,3388,-3078,2025-02-17 10:46:46,0.0
-14468,-908,9632,-1341,4992,-2205,2025-02-17 10:46:46,0.0
-16172,-452,8800,-1737,5271,-906,2025-02-17 10:46:46,0.0
-14528,364,9812,-2476,6137,-502,2025-02-17 10:46:46,0.0
-12416,592,11044,-3036,9038,-788,2025-02-17 10:46:46,0.0
-12260,-456,11484,-3063,12310,-1513,2025-02-17 10:46:46,0.0
-13960,-1584,10124,-2358,13977,-2629,2025-02-17 10:46:46,0.0
-16336,-2032,9668,-1781,13623,-2817,2025-02-17 10:46:46,0.0
-17380,-2268,9628,-834,11271,-2918,2025-02-17 10:46:46,0.0
-18476,-1808,9572,-183,7226,-2197,2025-02-17 10:46:46,0.0
-17376,-756,7848,-39,4745,-1490,2025-02-17 10:46:46,0.0
-16420,-1096,6348,-79,5028,-1116,2025-02-17 10:46:46,0.0
-16180,-1444,6008,-41,6408,-881,2025-02-17 10:46:46,0.0
-16164,-1480,5952,241,6267,-642,2025-02-17 10:46:46,0.0
-15468,-1688,5208,601,5314,-693,2025-02-17 10:46:46,0.0
-15688,-804,4684,719,4791,-996,2025-02-17 10:46:46,0.0
-16028,-444,3976,815,5400,-1034,2025-02-17 10:46:46,0.0
-16676,-532,3816,697,6747,-857,2025-02-17 10:46:46,0.0
-16928,-1008,3580,546,7500,-702,2025-02-17 10:46:46,0.0
-15852,-924,3604,441,8052,-602,2025-02-17 10:46:46,0.0
-15436,-1012,3136,456,8876,-854,2025-02-17 10:46:46,0.0
-15976,-1032,2864,498,9444,-816,2025-02-17 10:46:46,0.0
-15908,-824,2396,471,9985,-618,2025-02-17 10:46:46,0.0
-15972,-1400,1832,559,9626,-491,2025-02-17 10:46:47,0.0
-15492,-1892,1620,555,8836,-803,2025-02-17 10:46:47,0.0
-15956,-2204,2228,789,8195,-1088,2025-02-17 10:46:47,0.0
-16048,-2012,2164,776,8013,-1195,2025-02-17 10:46:47,0.0
-16044,-2104,928,1065,7729,-1295,2025-02-17 10:46:47,0.0
-14976,-1336,-336,448,6277,-1491,2025-02-17 10:46:47,0.0
-15200,1072,612,-625,6159,-1222,2025-02-17 10:46:47,0.0
-14340,-184,888,8,5416,-366,2025-02-17 10:46:47,0.0
-13136,-596,-784,357,5337,110,2025-02-17 10:46:47,0.0
-14200,-1280,544,581,5728,737,2025-02-17 10:46:47,0.0
-13024,-1748,-496,529,5486,99,2025-02-17 10:46:47,0.0
-13076,-1532,452,1184,4342,-551,2025-02-17 10:46:47,0.0
-13304,-908,-348,1194,2772,-1089,2025-02-17 10:46:47,0.0
-4576,76,-1328,745,2616,-529,2025-02-17 10:46:47,0.0
-13012,-2016,1808,1457,1425,157,2025-02-17 10:46:47,0.0
-11900,-3320,1040,3662,290,1123,2025-02-17 10:46:47,0.0
-10708,-2264,-732,3705,665,1038,2025-02-17 10:46:47,0.0
-10436,-2080,-488,3540,952,-324,2025-02-17 10:46:47,0.0
-10932,-2380,-296,3342,1034,-913,2025-02-17 10:46:47,0.0
-10640,-2468,-168,3223,1523,-737,2025-02-17 10:46:47,0.0
-9604,-2496,300,3103,1134,-678,2025-02-17 10:46:47,0.0
-8700,-2852,-428,3352,-605,-1068,2025-02-17 10:46:47,0.0
-8808,-2504,-940,3403,-1109,-1137,2025-02-17 10:46:47,0.0
-8632,-2220,-360,3009,-109,-832,2025-02-17 10:46:47,0.0
-8652,-2560,136,2569,1350,-758,2025-02-17 10:46:47,0.0
-9432,-3200,1352,2841,2244,-810,2025-02-17 10:46:47,0.0
-10048,-3552,944,3103,1950,-315,2025-02-17 10:46:47,0.0
-10404,-3572,528,3531,1150,313,2025-02-17 10:46:47,0.0
-10688,-3072,396,3911,230,1076,2025-02-17 10:46:47,0.0
-10588,-2844,528,4317,-728,1542,2025-02-17 10:46:47,0.0
-10564,-2332,356,4468,-1489,1900,2025-02-17 10:46:47,0.0
-11252,-1928,140,4132,-2227,2047,2025-02-17 10:46:47,0.0
-11048,-1496,-72,3593,-3042,1859,2025-02-17 10:46:47,0.0
-11324,-1652,28,2949,-3242,1689,2025-02-17 10:46:47,0.0
-11216,-1716,-436,1694,-2533,1741,2025-02-17 10:46:47,0.0
-11568,-2036,-40,1020,-1908,1673,2025-02-17 10:46:47,0.0
-11996,-2360,260,536,-983,1725,2025-02-17 10:46:47,0.0
-12200,-2508,132,-128,145,1531,2025-02-17 10:46:47,0.0
-12764,-2192,-176,-1204,875,972,2025-02-17 10:46:47,0.0
-13880,-2032,584,-1787,899,544,2025-02-17 10:46:47,0.0
-14660,-1912,2060,-1679,230,221,2025-02-17 10:46:47,0.0
-14936,-1612,1988,-1761,-625,-169,2025-02-17 10:46:47,0.0
-15020,-1620,1744,-2213,-1744,-394,2025-02-17 10:46:47,0.0
-14764,-2120,1160,-2443,-2235,-441,2025-02-17 10:46:47,0.0
-14724,-2580,1468,-2935,-2632,-452,2025-02-17 10:46:47,0.0
-14416,-2896,2392,-3623,-3343,-296,2025-02-17 10:46:47,0.0
-14088,-3032,2408,-4090,-3048,-402,2025-02-17 10:46:47,0.0
-14696,-3044,-228,-4180,-1430,-992,2025-02-17 10:46:47,0.0
-16628,-2568,-1816,-4393,1568,-1097,2025-02-17 10:46:47,0.0
-17380,-3640,-1744,-5499,3659,-1164,2025-02-17 10:46:47,0.0
-16804,-3736,-236,-5415,1654,-955,2025-02-17 10:46:47,0.0
-17104,-2836,248,-4090,-1628,44,2025-02-17 10:46:47,0.0
-15672,-2588,-272,-2713,-5494,1468,2025-02-17 10:46:47,0.0
-13224,-1928,240,-1507,-7003,2279,2025-02-17 10:46:47,0.0
-10832,-1220,884,-679,-6341,1299,2025-02-17 10:46:47,0.0
-11484,-1248,-120,-1584,-3527,49,2025-02-17 10:46:47,0.0
-11872,-1356,516,-2173,791,-1030,2025-02-17 10:46:47,0.0
-12608,-1100,892,-1521,4763,-1479,2025-02-17 10:46:47,0.0
-14288,-52,220,-1081,7105,-471,2025-02-17 10:46:47,0.0
-15492,1300,1716,-534,9323,2084,2025-02-17 10:46:47,0.0
-14452,1416,1196,-363,10322,2870,2025-02-17 10:46:48,0.0
-13528,1384,-344,-997,9119,2324,2025-02-17 10:46:48,0.0
-13988,1108,-2064,-2371,7301,2284,2025-02-17 10:46:48,0.0
-14056,912,-2768,-3674,6859,3005,2025-02-17 10:46:48,0.0
-13476,836,-2508,-4763,7775,3940,2025-02-17 10:46:48,0.0
-12408,768,-2672,-5187,10140,4087,2025-02-17 10:46:48,0.0
-11196,936,-4492,-5617,14575,3787,2025-02-17 10:46:48,0.0
-8156,1312,-6100,-6150,18937,3054,2025-02-17 10:46:48,0.0
-7164,1900,-3140,-6174,20099,1731,2025-02-17 10:46:48,0.0
-8004,1492,-3400,-5154,21553,1335,2025-02-17 10:46:48,0.0
-8548,408,-2776,-4689,27876,1822,2025-02-17 10:46:48,0.0
-6968,508,-2060,-4186,32767,2328,2025-02-17 10:46:48,0.0
-3648,304,-1092,-3406,32767,1047,2025-02-17 10:46:48,0.0
-1080,204,-468,-2381,32767,-1786,2025-02-17 10:46:48,0.0
1140,-80,248,-1086,32767,-4526,2025-02-17 10:46:48,0.0
3708,-1620,2648,1103,32767,-7458,2025-02-17 10:46:48,
2344,-576,2496,3214,32767,-7213,2025-02-17 10:46:48,0.0
2472,-632,2188,3850,32767,-6790,2025-02-17 10:46:48,0.0
2028,-152,2708,4740,32767,-6556,2025-02-17 10:46:48,0.0
2496,-460,1428,4845,32767,-6360,2025-02-17 10:46:48,0.0
2224,-100,1724,4794,32767,-6000,2025-02-17 10:46:48,0.0
2576,-244,1504,4776,32767,-5550,2025-02-17 10:46:48,0.0
2204,-192,1988,5067,32767,-4865,2025-02-17 10:46:48,0.0
2196,-300,1672,5366,32767,-3952,2025-02-17 10:46:48,0.0
2308,-348,1500,5348,32767,-3074,2025-02-17 10:46:48,0.0
2460,-364,1736,5261,32767,-2427,2025-02-17 10:46:48,0.0
2588,-364,1720,5272,32302,-1943,2025-02-17 10:46:48,0.0
2620,-352,1496,5206,31802,-1415,2025-02-17 10:46:48,0.0
2652,-376,1344,5081,31231,-887,2025-02-17 10:46:48,0.0
2704,-412,1532,4948,30556,-526,2025-02-17 10:46:48,0.0
2996,-444,1492,4801,29667,-325,2025-02-17 10:46:48,0.0
2884,-380,1600,4645,28620,-230,2025-02-17 10:46:48,0.0
2940,-372,1248,4458,26524,-172,2025-02-17 10:46:48,0.0
3672,-712,1256,4294,25114,-380,2025-02-17 10:46:48,0.0
3008,-608,792,4372,23525,-422,2025-02-17 10:46:48,0.0
8656,-5668,-700,-2468,12291,-8438,2025-02-17 10:46:48,0.0
23680,-7596,-32768,-24406,-17668,-19225,2025-02-17 10:46:48,0.0
32767,-32768,-32768,-32768,-32768,-32768,2025-02-17 10:46:48,0.0
-32768,32767,32767,-19066,-32768,32767,2025-02-17 10:46:48,0.0
21460,-4276,-32768,-32768,-14713,23200,2025-02-17 10:46:48,0.0
14896,9088,-3784,-32768,-7953,-12204,2025-02-17 10:46:48,0.0
864,6344,3116,-26095,-2235,-22043,2025-02-17 10:46:48,0.0
-1988,2900,4688,-22226,-2661,-17980,2025-02-17 10:46:48,0.0
-3276,1608,2540,-15449,7478,-3596,2025-02-17 10:46:48,0.0
3780,8920,8976,-7743,9342,-1826,2025-02-17 10:46:48,0.0
1720,11240,6876,1115,7817,-1731,2025-02-17 10:46:48,0.0
784,13332,6016,9871,5878,1203,2025-02-17 10:46:48,0.0
3480,12628,6056,18294,1961,4356,2025-02-17 10:46:48,0.0
3464,9340,-844,25999,-918,5769,2025-02-17 10:46:48,0.0
6988,5308,-17920,25496,123,6109,2025-02-17 10:46:48,0.0
12924,-732,-32768,10631,6252,2541,2025-02-17 10:46:48,0.0
12060,-1964,-32768,-1338,6354,188,2025-02-17 10:46:48,0.0
9372,5132,-20656,-6153,91,-402,2025-02-17 10:46:48,0.0
7296,7976,-6916,-5843,-206,-844,2025-02-17 10:46:48,0.0
5372,8020,-4488,-2812,-232,-194,2025-02-17 10:46:48,0.0
6640,7124,-6060,835,1189,269,2025-02-17 10:46:48,0.0
8268,6204,-13204,1725,-266,399,2025-02-17 10:46:48,0.0
9036,5684,-16512,663,13,-225,2025-02-17 10:46:48,0.0
6828,6000,-15488,-733,-437,-231,2025-02-17 10:46:48,0.0
6416,6492,-11924,-667,799,-162,2025-02-17 10:46:48,0.0
7212,6608,-11636,-196,370,-44,2025-02-17 10:46:48,0.0
7616,6256,-12972,135,393,-136,2025-02-17 10:46:49,0.0
7660,6304,-13456,-154,55,-222,2025-02-17 10:46:49,0.0
6536,6436,-12932,-300,118,-179,2025-02-17 10:46:49,0.0
7332,6504,-12308,-145,396,-142,2025-02-17 10:46:49,0.0
7360,6216,-12776,-44,-96,-197,2025-02-17 10:46:49,0.0
7268,6216,-13164,-266,394,-159,2025-02-17 10:46:49,0.0
7576,6444,-12528,-235,150,-211,2025-02-17 10:46:49,0.0
7012,6448,-12680,-109,39,-203,2025-02-17 10:46:49,0.0
7188,6276,-13120,-124,289,-140,2025-02-17 10:46:49,0.0
7676,6436,-12672,-199,65,-191,2025-02-17 10:46:49,0.0
6960,6360,-12736,-166,181,-185,2025-02-17 10:46:49,0.0
7476,6256,-12768,-138,246,-155,2025-02-17 10:46:49,0.0
7348,6324,-12696,-144,136,-184,2025-02-17 10:46:49,0.0
7236,6312,-12944,-162,250,-173,2025-02-17 10:46:49,0.0
7380,6268,-12832,-203,186,-171,2025-02-17 10:46:49,0.0
7276,6240,-12732,-122,190,-158,2025-02-17 10:46:49,0.0
7292,6332,-12780,-168,188,-177,2025-02-17 10:46:49,0.0
7224,6356,-12764,-145,187,-181,2025-02-17 10:46:49,0.0
7264,6364,-12676,-174,168,-175,2025-02-17 10:46:49,0.0
7284,6356,-12848,-186,163,-173,2025-02-17 10:46:49,0.0
7316,6308,-12868,-158,159,-167,2025-02-17 10:46:49,0.0
7332,6348,-12808,-168,195,-178,2025-02-17 10:46:49,0.0
7316,6348,-12836,-142,153,-172,2025-02-17 10:46:49,0.0
7308,6380,-12896,-172,197,-161,2025-02-17 10:46:49,0.0
7320,6408,-12896,-160,196,-183,2025-02-17 10:46:49,0.0
7296,6300,-12800,-178,174,-160,2025-02-17 10:46:49,0.0
7172,6348,-12828,-186,178,-183,2025-02-17 10:46:49,0.0
7316,6388,-12996,-176,150,-181,2025-02-17 10:46:49,0.0
7276,6320,-12780,-182,198,-170,2025-02-17 10:46:49,0.0
7216,6468,-12844,-185,202,-176,2025-02-17 10:46:49,0.0
7316,6412,-12804,-154,176,-172,2025-02-17 10:46:49,0.0
7264,6344,-12848,-163,151,-163,2025-02-17 10:46:49,0.0
7260,6312,-12908,-152,185,-178,2025-02-17 10:46:49,0.0
7232,6304,-12700,-165,181,-153,2025-02-17 10:46:49,0.0
7304,6340,-12816,-168,176,-172,2025-02-17 10:46:49,0.0
7336,6348,-12676,-162,170,-168,2025-02-17 10:46:49,0.0
7396,6352,-12784,-143,155,-187,2025-02-17 10:46:49,0.0
7264,6292,-12644,-157,181,-172,2025-02-17 10:46:49,0.0
7216,6248,-12876,-165,190,-179,2025-02-17 10:46:49,0.0
7336,6328,-12888,-141,169,-181,2025-02-17 10:46:49,0.0
7408,6324,-12780,-178,183,-166,2025-02-17 10:46:49,0.0
7272,6356,-12780,-187,175,-189,2025-02-17 10:46:49,0.0
7228,6260,-12876,-141,193,-162,2025-02-17 10:46:49,0.0
7276,6324,-12868,-176,182,-178,2025-02-17 10:46:49,0.0
7300,6372,-12784,-145,167,-180,2025-02-17 10:46:49,0.0
7320,6400,-12840,-149,172,-171,2025-02-17 10:46:49,0.0
7296,6344,-12836,-151,171,-190,2025-02-17 10:46:49,0.0
7300,6364,-12760,-145,178,-179,2025-02-17 10:46:49,0.0
7272,6436,-12824,-164,180,-188,2025-02-17 10:46:49,0.0
7252,6404,-12776,-156,180,-160,2025-02-17 10:46:49,0.0
7268,6288,-12952,-163,166,-180,2025-02-17 10:46:49,0.0
7288,6316,-12792,-138,179,-181,2025-02-17 10:46:49,0.0
7340,6296,-12888,-167,208,-142,2025-02-17 10:46:49,0.0
7324,6288,-12952,-172,200,-182,2025-02-17 10:46:49,0.0
7240,6404,-12820,-169,194,-163,2025-02-17 10:46:49,
7184,6372,-12836,-155,180,-172,2025-02-17 10:46:49,0.0
7196,6336,-12860,-177,167,-191,2025-02-17 10:46:49,0.0
7312,6392,-12788,-150,166,-189,2025-02-17 10:46:49,0.0
7280,6412,-12816,-153,165,-161,2025-02-17 10:46:49,0.0
7316,6312,-12768,-160,164,-199,2025-02-17 10:46:49,0.0
7216,6320,-12644,-169,187,-189,2025-02-17 10:46:49,0.0
7332,6312,-12776,-164,190,-163,2025-02-17 10:46:50,0.0
7352,6328,-12660,-140,171,-169,2025-02-17 10:46:50,0.0
7300,6272,-12720,-165,169,-178,2025-02-17 10:46:50,0.0
7236,6268,-12900,-189,187,-174,2025-02-17 10:46:50,0.0
7272,6288,-12804,-166,177,-186,2025-02-17 10:46:50,0.0
7380,6292,-12744,-179,172,-178,2025-02-17 10:46:50,0.0
7248,6320,-12836,-176,174,-178,2025-02-17 10:46:50,0.0
7204,6336,-12976,-158,178,-176,2025-02-17 10:46:50,0.0
7308,6272,-12928,-163,172,-159,2025-02-17 10:46:50,0.0
7296,6248,-12980,-143,159,-176,2025-02-17 10:46:50,0.0
7320,6280,-12792,-157,163,-172,2025-02-17 10:46:50,0.0
7180,6348,-12908,-173,204,-162,2025-02-17 10:46:50,0.0
7344,6360,-12780,-155,199,-181,2025-02-17 10:46:50,0.0
7248,6356,-12908,-161,164,-182,2025-02-17 10:46:50,0.0
7312,6356,-12964,-169,158,-158,2025-02-17 10:46:50,0.0
7344,6256,-12804,-159,181,-178,2025-02-17 10:46:50,0.0
7332,6216,-12920,-159,186,-158,2025-02-17 10:46:50,0.0
7344,6388,-12868,-134,176,-165,2025-02-17 10:46:50,0.0
7260,6312,-12780,-131,189,-185,2025-02-17 10:46:50,0.0
7276,6300,-12944,-140,172,-180,2025-02-17 10:46:50,0.0
7212,6300,-12728,-172,171,-179,2025-02-17 10:46:50,0.0
7232,6312,-12840,-153,161,-167,2025-02-17 10:46:50,0.0
7316,6336,-12800,-159,204,-191,2025-02-17 10:46:50,0.0
7292,6260,-12912,-144,176,-163,2025-02-17 10:46:50,0.0
7360,6296,-12716,-161,194,-185,2025-02-17 10:46:50,0.0
7264,6424,-12844,-174,168,-180,2025-02-17 10:46:50,0.0
7236,6300,-12724,-153,180,-192,2025-02-17 10:46:50,0.0
7312,6352,-12672,-148,169,-166,2025-02-17 10:46:50,0.0
7276,6340,-12952,-151,170,-202,2025-02-17 10:46:50,0.0
7164,6336,-12984,-195,166,-164,2025-02-17 10:46:50,0.0
7236,6400,-12824,-156,181,-176,2025-02-17 10:46:50,0.0
7356,6372,-12996,-183,155,-177,2025-02-17 10:46:50,0.0
7236,6352,-12836,-176,157,-185,2025-02-17 10:46:50,0.0
7292,6264,-12884,-206,172,-166,2025-02-17 10:46:50,0.0
7292,6352,-12856,-174,178,-175,2025-02-17 10:46:50,0.0
7312,6240,-12688,-169,170,-162,2025-02-17 10:46:50,0.0
7236,6408,-12768,-166,181,-185,2025-02-17 10:46:50,0.0
7244,6240,-12868,-153,181,-170,2025-02-17 10:46:50,0.0
7352,6380,-12748,-163,170,-174,2025-02-17 10:46:50,0.0
7208,6360,-12836,-163,172,-159,2025-02-17 10:46:50,0.0
7264,6328,-12712,-173,190,-170,2025-02-17 10:46:50,0.0
7268,6308,-12840,-184,173,-192,2025-02-17 10:46:50,0.0
7272,6308,-12820,-157,175,-178,2025-02-17 10:46:50,0.0
7232,6300,-12896,-157,204,-174,2025-02-17 10:46:50,0.0
7264,6360,-12748,-164,183,-165,2025-02-17 10:46:50,0.0
7332,6392,-12900,-163,185,-164,2025-02-17 10:46:50,0.0
7348,6292,-12876,-157,168,-151,2025-02-17 10:46:50,0.0
7404,6396,-12920,-192,172,-166,2025-02-17 10:46:50,0.0
7296,6296,-12728,-156,178,-143,2025-02-17 10:46:50,0.0
7248,6224,-12944,-192,159,-189,2025-02-17 10:46:50,0.0
7384,6396,-12784,-150,159,-177,2025-02-17 10:46:50,0.0
7324,6372,-12752,-137,187,-179,2025-02-17 10:46:50,0.0
7312,6288,-12888,-146,190,-184,2025-02-17 10:46:50,0.0
7140,6376,-12752,-150,159,-184,2025-02-17 10:46:50,0.0
7260,6376,-12856,-159,182,-154,2025-02-17 10:46:50,0.0
7248,6400,-12904,-138,190,-174,2025-02-17 10:46:50,0.0
7372,6308,-12920,-146,157,-162,2025-02-17 10:46:50,0.0
7320,6292,-12812,-136,196,-169,2025-02-17 10:46:50,0.0
7204,6224,-12780,-183,195,-181,2025-02-17 10:46:50,0.0
7332,6300,-12748,-168,196,-184,2025-02-17 10:46:50,0.0
7336,6432,-12864,-138,170,-176,2025-02-17 10:46:51,0.0
7304,6456,-12672,-173,160,-159,2025-02-17 10:46:51,0.0
7304,6224,-12756,-170,170,-168,2025-02-17 10:46:51,0.0
7212,6376,-12920,-143,174,-184,2025-02-17 10:46:51,0.0
7288,6360,-12848,-172,201,-181,2025-02-17 10:46:51,0.0
7344,6288,-12912,-182,179,-185,2025-02-17 10:46:51,0.0
7276,6412,-12884,-167,163,-166,2025-02-17 10:46:51,0.0
7328,6296,-12928,-174,191,-173,2025-02-17 10:46:51,0.0
7292,6284,-12884,-164,170,-158,2025-02-17 10:46:51,0.0
7284,6324,-13004,-171,180,-174,2025-02-17 10:46:51,0.0
7312,6332,-12812,-141,186,-175,2025-02-17 10:46:51,0.0
7328,6400,-12852,-167,186,-199,2025-02-17 10:46:51,0.0
7216,6264,-12932,-148,181,-178,2025-02-17 10:46:51,0.0
7284,6284,-12764,-158,194,-170,2025-02-17 10:46:51,0.0
7264,6348,-12804,-156,142,-182,2025-02-17 10:46:51,0.0
7308,6336,-12976,-149,169,-177,2025-02-17 10:46:51,0.0
7244,6328,-12692,-180,194,-187,2025-02-17 10:46:51,0.0
7328,6212,-12796,-164,166,-139,2025-02-17 10:46:51,0.0
7252,6264,-12900,-168,173,-164,2025-02-17 10:46:51,0.0
7276,6296,-12748,-147,178,-154,2025-02-17 10:46:51,0.0
7224,6288,-12760,-144,178,-163,2025-02-17 10:46:51,0.0
7192,6284,-12800,-181,241,-180,2025-02-17 10:46:51,0.0
7204,6220,-12884,-251,521,-146,2025-02-17 10:46:51,0.0
7676,6508,-12868,-54,111,-123,2025-02-17 10:46:51,0.0
7232,6176,-13100,-150,158,-172,2025-02-17 10:46:51,0.0
7272,6224,-12680,-258,210,-182,2025-02-17 10:46:51,0.0
7072,6416,-12768,-133,227,-141,2025-02-17 10:46:51,0.0
7372,6300,-12288,9,142,-172,2025-02-17 10:46:51,0.0
8084,6352,-11576,359,-837,-355,2025-02-17 10:46:51,0.0
6848,6432,-13884,275,-1126,-393,2025-02-17 10:46:51,0.0
7356,5740,-12692,334,-369,-500,2025-02-17 10:46:51,0.0
6624,6072,-12776,-121,-397,-285,2025-02-17 10:46:51,0.0
7132,6292,-13712,-70,446,-192,2025-02-17 10:46:51,0.0
6796,6416,-14084,-524,847,-27,2025-02-17 10:46:51,
7528,6092,-13108,-547,893,-39,2025-02-17 10:46:51,0.0
7520,6284,-12160,-559,562,-122,2025-02-17 10:46:51,0.0
7564,6556,-12028,-237,217,-213,2025-02-17 10:46:51,0.0
6624,6328,-12784,-76,1009,-78,2025-02-17 10:46:51,0.0
7684,6308,-13220,-165,459,-90,2025-02-17 10:46:51,0.0
6584,6220,-12716,-248,480,-105,2025-02-17 10:46:51,0.0
6580,6316,-12360,-172,1030,270,2025-02-17 10:46:51,0.0
7792,6508,-11588,326,988,293,2025-02-17 10:46:51,0.0
8488,5724,-14644,-169,16,-273,2025-02-17 10:46:51,0.0
6824,6596,-12524,-323,26,-206,2025-02-17 10:46:51,0.0
7208,6308,-12516,-191,525,-147,2025-02-17 10:46:51,0.0
7396,6044,-13188,-383,270,-170,2025-02-17 10:46:51,0.0
7160,6384,-12524,-274,607,-139,2025-02-17 10:46:51,0.0
7288,6324,-12456,-133,570,-120,2025-02-17 10:46:51,0.0
7412,6360,-12944,-143,192,22,2025-02-17 10:46:51,0.0
7196,6180,-13632,-255,706,50,2025-02-17 10:46:51,0.0
5952,6336,-12448,-427,1057,568,2025-02-17 10:46:51,0.0
6548,6572,-11880,-19,1614,867,2025-02-17 10:46:51,0.0
8180,6400,-12332,158,1088,906,2025-02-17 10:46:52,0.0
8688,6320,-12292,57,1274,311,2025-02-17 10:46:52,0.0
7936,6232,-13508,-101,588,269,2025-02-17 10:46:52,0.0
5960,7100,-13516,-488,1006,778,2025-02-17 10:46:52,0.0
6580,8412,-12124,1107,1853,1422,2025-02-17 10:46:52,0.0
7440,6784,-15692,531,1084,1820,2025-02-17 10:46:52,0.0
9212,7432,-14040,-814,-2240,1550,2025-02-17 10:46:52,0.0
8484,9248,-13624,-933,-5638,1878,2025-02-17 10:46:52,0.0
9368,11276,-11764,100,-9168,2631,2025-02-17 10:46:52,0.0
10136,11012,-13392,2021,-12051,1393,2025-02-17 10:46:52,0.0
7540,8344,-16160,2100,-13480,231,2025-02-17 10:46:52,0.0
5920,6192,-16668,1494,-12981,435,2025-02-17 10:46:52,0.0
3800,5968,-15420,1885,-11848,1471,2025-02-17 10:46:52,0.0
4156,6728,-15176,2570,-11237,2128,2025-02-17 10:46:52,0.0
5588,7088,-16408,1865,-11265,839,2025-02-17 10:46:52,0.0
5452,7040,-16480,1263,-13171,-1227,2025-02-17 10:46:52,0.0
2352,8292,-16260,2379,-25866,-3708,2025-02-17 10:46:52,0.0
1772,7812,-16056,1788,-25012,-5640,2025-02-17 10:46:52,0.0
2044,6676,-16660,2061,-23744,-8182,2025-02-17 10:46:52,0.0
936,4928,-18204,2336,-23267,-10589,2025-02-17 10:46:52,0.0
-1872,3784,-21260,2401,-23483,-11648,2025-02-17 10:46:52,0.0
-5640,4936,-21172,1670,-24949,-9642,2025-02-17 10:46:52,0.0
-4944,6000,-19556,2695,-25483,-7550,2025-02-17 10:46:52,0.0
-3572,6612,-18692,3562,-25588,-6746,2025-02-17 10:46:52,0.0
-4600,7248,-17152,3876,-23716,-6279,2025-02-17 10:46:52,0.0
-7192,7440,-14784,4038,-19730,-4979,2025-02-17 10:46:52,0.0
-8204,6036,-16536,3737,-13821,-3515,2025-02-17 10:46:52,0.0
-5496,3440,-16788,3776,-7449,-3840,2025-02-17 10:46:52,0.0
-6308,1668,-17568,4430,-2889,-4045,2025-02-17 10:46:52,0.0
-8048,1512,-16304,4591,-2224,-1844,2025-02-17 10:46:52,0.0
-7836,2012,-14128,5773,-1682,474,2025-02-17 10:46:52,0.0
-7216,2904,-14192,6656,-220,1778,2025-02-17 10:46:52,0.0
-7000,3060,-15556,6668,1161,1198,2025-02-17 10:46:52,0.0
-7244,2240,-15692,5940,2131,-319,2025-02-17 10:46:52,0.0
-8600,2476,-13652,5961,2607,-1602,2025-02-17 10:46:52,0.0
-8004,3516,-14256,6405,2672,-3335,2025-02-17 10:46:52,0.0
-7180,3808,-14052,5732,848,-4545,2025-02-17 10:46:52,0.0
-7384,2780,-13516,5688,-4062,-5403,2025-02-17 10:46:52,0.0
-5128,1236,-14440,6713,-11577,-6641,2025-02-17 10:46:52,0.0
-7236,88,-15608,7615,-20037,-7539,2025-02-17 10:46:52,0.0
-7656,448,-14956,9430,-28102,-6828,2025-02-17 10:46:52,0.0
-7104,456,-13928,10581,-32768,-6544,2025-02-17 10:46:52,0.0
-5800,184,-16264,9255,-32768,-7521,2025-02-17 10:46:52,0.0
-7236,-472,-12224,6234,-32768,-7632,2025-02-17 10:46:52,0.0
-10552,-1156,-7048,7045,-32768,-5420,2025-02-17 10:46:52,0.0
-10816,-2416,-7932,8334,-32768,-2396,2025-02-17 10:46:52,0.0
-10132,-3220,-6984,6583,-32045,362,2025-02-17 10:46:52,0.0
-9248,-3432,-5268,4630,-25461,1810,2025-02-17 10:46:52,0.0
-8236,-3316,-4612,2895,-17298,3009,2025-02-17 10:46:52,0.0
-7200,-2388,-4564,1359,-9875,2921,2025-02-17 10:46:52,0.0
-7216,-1304,-3248,406,-2978,2217,2025-02-17 10:46:53,0.0
-8480,-596,-80,2013,4337,1938,2025-02-17 10:46:53,0.0
-10900,-948,888,4966,10649,3052,2025-02-17 10:46:53,0.0
-12108,-1652,-1304,6391,17447,4955,2025-02-17 10:46:53,0.0
-11792,-2444,-4444,4752,25312,6225,2025-02-17 10:46:53,0.0
-10424,-2384,-5028,951,32476,5181,2025-02-17 10:46:53,0.0
-10120,-896,-3228,-1342,32767,1689,2025-02-17 10:46:53,0.0
-10232,120,-928,117,32767,-1042,2025-02-17 10:46:53,0.0
-11816,816,-1096,3304,32767,-1596,2025-02-17 10:46:53,0.0
-11468,664,-4148,5204,32767,378,2025-02-17 10:46:53,0.0
-9080,-12,-6992,4285,32767,1012,2025-02-17 10:46:53,0.0
-8380,-292,-7144,2532,32767,510,2025-02-17 10:46:53,0.0
-8556,-36,-6176,1680,28668,275,2025-02-17 10:46:53,0.0
-7264,388,-5952,1621,20683,509,2025-02-17 10:46:53,0.0
-4816,72,-6440,1296,10728,403,2025-02-17 10:46:53,0.0
-4484,-72,-7196,-941,-16722,-946,2025-02-17 10:46:53,0.0
-6324,588,-5508,-1264,-27550,153,2025-02-17 10:46:53,0.0
-6332,1212,-4444,-235,-32768,806,2025-02-17 10:46:53,0.0
-5764,832,-4284,501,-32768,0,2025-02-17 10:46:53,0.0
-6320,200,-4652,365,-32768,-1037,2025-02-17 10:46:53,0.0
-6868,-352,-4536,-518,-32768,-1904,2025-02-17 10:46:53,0.0
-7860,-588,-3376,-1003,-32768,-2380,2025-02-17 10:46:53,0.0
-8732,-1200,-2476,-785,-32768,-2677,2025-02-17 10:46:53,0.0
-11244,-1008,-1804,34,-32768,-1621,2025-02-17 10:46:53,0.0
-12500,-856,-2140,914,-32768,194,2025-02-17 10:46:53,0.0
-13556,-1336,-3188,268,-32768,2114,2025-02-17 10:46:53,0.0
-13024,-2120,-4008,-1169,-25913,2947,2025-02-17 10:46:53,0.0
-13356,-3032,-2064,-2254,-15077,2781,2025-02-17 10:46:53,0.0
-13860,-3448,-988,-1933,-4116,2303,2025-02-17 10:46:53,0.0
-14556,-3236,308,-979,6508,2147,2025-02-17 10:46:53,0.0
-14916,-2284,1228,-21,17778,2417,2025-02-17 10:46:53,0.0
-13800,-628,7276,976,32746,2768,2025-02-17 10:46:53,
1908,-1600,31328,-583,25837,2115,2025-02-17 10:46:53,0.0
-17248,132,4536,-3448,6415,259,2025-02-17 10:46:53,0.0
-18748,-680,-5172,-1996,5904,1238,2025-02-17 10:46:53,0.0
-17088,-636,-8512,-2035,-1395,3101,2025-02-17 10:46:53,0.0
-17920,372,-456,-2877,-12249,5119,2025-02-17 10:46:53,0.0
-14824,508,4340,-1403,-14095,5113,2025-02-17 10:46:53,0.0
-10600,-768,1852,428,-8913,3333,2025-02-17 10:46:53,0.0
-9512,-1312,-1056,353,-5124,1405,2025-02-17 10:46:53,0.0
-11756,44,-3192,-1435,-1665,786,2025-02-17 10:46:53,0.0
-12260,256,-1384,-2940,282,293,2025-02-17 10:46:53,0.0
-13936,-188,1852,-2153,88,-41,2025-02-17 10:46:53,0.0
-13756,40,1812,-557,-1251,-161,2025-02-17 10:46:53,0.0
-12796,564,1468,552,-2078,-589,2025-02-17 10:46:53,0.0
-12816,360,1692,2126,-845,-508,2025-02-17 10:46:53,0.0
-13132,1048,-628,2453,1192,140,2025-02-17 10:46:53,0.0
-12924,1432,-2820,375,2806,668,2025-02-17 10:46:53,0.0
-12820,620,-1244,-643,4042,489,2025-02-17 10:46:53,0.0
-13216,148,480,-474,5139,317,2025-02-17 10:46:53,0.0
-13908,88,1668,515,6052,361,2025-02-17 10:46:54,0.0
-14220,772,1624,1298,5742,566,2025-02-17 10:46:54,0.0
-14552,1612,1124,1123,4590,571,2025-02-17 10:46:54,0.0
-15200,2452,192,377,2855,669,2025-02-17 10:46:54,0.0
-14132,2048,-492,-379,1301,608,2025-02-17 10:46:54,0.0
-12968,1616,-608,-1198,96,-3,2025-02-17 10:46:54,0.0
-8064,1352,-4,-2120,534,-1375,2025-02-17 10:46:54,0.0
-12568,724,-280,-3016,3471,-1239,2025-02-17 10:46:54,0.0
-14128,1148,-80,-3638,5018,-1045,2025-02-17 10:46:54,0.0
-11608,892,-884,1316,-1685,-2065,2025-02-17 10:46:54,0.0
-11520,444,-1340,1547,-344,-2433,2025-02-17 10:46:54,0.0
-11684,-52,-1676,1848,1061,-2607,2025-02-17 10:46:54,0.0
-11692,-76,-1860,1866,1867,-2728,2025-02-17 10:46:54,0.0
-11996,32,-1368,2092,2110,-2978,2025-02-17 10:46:54,0.0
-11932,116,-1356,2296,1747,-3292,2025-02-17 10:46:54,0.0
-12188,1008,-2044,1947,924,-3596,2025-02-17 10:46:54,0.0
-12260,1700,-2104,1239,852,-3762,2025-02-17 10:46:54,0.0
-12096,1044,-568,1640,1206,-4180,2025-02-17 10:46:54,0.0
-13256,788,-2492,1986,1628,-4034,2025-02-17 10:46:54,0.0
-13476,520,-2696,1745,1812,-3833,2025-02-17 10:46:54,0.0
-14412,500,-2620,1681,1619,-3350,2025-02-17 10:46:54,0.0
-14868,720,-2780,1545,1871,-2506,2025-02-17 10:46:54,0.0
-15280,-120,-2128,1880,2691,-1668,2025-02-17 10:46:54,0.0
-15248,-924,-2564,2123,3480,-663,2025-02-17 10:46:54,0.0
-14180,-1340,-2612,1634,3515,87,2025-02-17 10:46:54,0.0
-14832,-2216,-1080,1257,4072,748,2025-02-17 10:46:54,0.0
-11040,-2056,-548,1247,3966,514,2025-02-17 10:46:54,0.0
-14852,-3532,-2236,101,6631,-123,2025-02-17 10:46:54,0.0
-16196,-3728,-1424,-637,8844,56,2025-02-17 10:46:54,0.0
-16012,-3168,1736,-607,7546,-670,2025-02-17 10:46:54,0.0
-17752,-2076,4084,275,4241,-1167,2025-02-17 10:46:54,0.0
-18224,-1280,3636,1563,-559,-50,2025-02-17 10:46:54,0.0
-16120,-2116,136,1686,-2650,168,2025-02-17 10:46:54,0.0
-14568,-2936,-748,1448,-3207,-256,2025-02-17 10:46:54,0.0
-14028,-2940,-760,1047,-2453,-390,2025-02-17 10:46:54,0.0
-13568,-1928,-308,283,-1488,-714,2025-02-17 10:46:54,0.0
-13280,-1368,220,-102,-978,-1086,2025-02-17 10:46:54,0.0
-12968,-1664,272,-372,-1099,-1509,2025-02-17 10:46:54,0.0
-12464,-2136,16,-493,-1362,-1818,2025-02-17 10:46:54,0.0
-11904,-2316,200,-748,-1408,-1951,2025-02-17 10:46:54,0.0
-11640,-2512,48,-1268,-1019,-2146,2025-02-17 10:46:54,0.0
-11788,-2352,600,-1798,-707,-2419,2025-02-17 10:46:54,0.0
-12148,-2084,496,-1826,-500,-2426,2025-02-17 10:46:54,0.0
-12420,-1652,416,-2411,-650,-2015,2025-02-17 10:46:54,0.0
-12416,-1520,688,-2954,-521,-1456,2025-02-17 10:46:54,0.0
-11592,-2252,460,-3176,76,-882,2025-02-17 10:46:54,0.0
-10648,-2068,-228,-3262,686,-771,2025-02-17 10:46:54,0.0
-10932,-3132,-500,-2764,1213,-754,2025-02-17 10:46:54,0.0
-11108,-3964,-264,-2365,1697,-250,2025-02-17 10:46:54,0.0
-11348,-3812,-304,-2202,2330,-64,2025-02-17 10:46:54,0.0
-11768,-3016,88,-1999,2469,-16,2025-02-17 10:46:54,0.0
-11652,-2476,376,-1677,1774,-247,2025-02-17 10:46:54,0.0
-11552,-2184,-52,-1394,1120,-401,2025-02-17 10:46:54,0.0
-10408,-2820,-380,-1156,720,-827,2025-02-17 10:46:54,0.0
-11820,-2504,-380,-903,692,-737,2025-02-17 10:46:54,0.0
-9332,-2388,-1532,-993,533,-752,2025-02-17 10:46:54,0.0
-8784,-1500,-424,-870,645,-672,2025-02-17 10:46:54,0.0
-6700,-608,-632,-1532,2406,-446,2025-02-17 10:46:54,0.0
-8856,-540,-592,-1797,2669,526,2025-02-17 10:46:55,0.0
-9548,-584,216,-1448,2751,1107,2025-02-17 10:46:55,0.0
-10844,-856,384,-1133,1039,1310,2025-02-17 10:46:55,0.0
-11672,-1964,1180,-437,-1108,1626,2025-02-17 10:46:55,0.0
-11144,-2452,1404,446,-1482,1350,2025-02-17 10:46:55,0.0
-14996,-2708,1424,933,-5355,1842,2025-02-17 10:46:55,0.0
-14400,-2520,1596,958,-7328,1442,2025-02-17 10:46:55,0.0
-13236,-1376,1840,1752,-9025,754,2025-02-17 10:46:55,0.0
-15884,-1188,800,2318,-9174,627,2025-02-17 10:46:55,0.0
-14664,-1676,-388,2296,-7314,647,2025-02-17 10:46:55,0.0
-14420,-1132,-92,2000,-6691,-24,2025-02-17 10:46:55,0.0
-16028,-620,-708,1993,-8416,-177,2025-02-17 10:46:55,0.0
-15504,-444,-2248,2016,-8681,-121,2025-02-17 10:46:55,0.0
-15776,-252,-2700,1554,-8419,257,2025-02-17 10:46:55,0.0
-16592,-892,-2312,879,-9143,844,2025-02-17 10:46:55,0.0
-16708,-1884,-1160,847,-10132,781,2025-02-17 10:46:55,0.0
-16208,-2228,-100,849,-11433,675,2025-02-17 10:46:55,0.0
-9608,-2232,-2312,670,-10817,504,2025-02-17 10:46:55,0.0
-14348,-1936,2352,325,-10864,509,2025-02-17 10:46:55,0.0
-13424,-1536,3684,535,-8980,711,2025-02-17 10:46:55,0.0
-13052,-780,4288,634,-6456,733,2025-02-17 10:46:55,0.0
-16484,-332,3552,765,-6887,341,2025-02-17 10:46:55,0.0
-14840,-396,3628,694,-6844,786,2025-02-17 10:46:55,0.0
-15312,-288,4796,614,-7313,749,2025-02-17 10:46:55,
-16764,-264,4560,643,-9040,543,2025-02-17 10:46:55,0.0
-15540,-576,4328,491,-8519,944,2025-02-17 10:46:55,0.0
-15688,-652,4696,545,-7786,1136,2025-02-17 10:46:55,0.0
-16392,-204,3780,610,-7681,1398,2025-02-17 10:46:55,0.0
-15884,104,3820,558,-8404,1276,2025-02-17 10:46:55,0.0
-15352,208,4312,244,-9179,1331,2025-02-17 10:46:55,0.0
-16180,-80,5940,61,-10230,1713,2025-02-17 10:46:55,0.0
-17308,-624,8692,363,-11852,2312,2025-02-17 10:46:55,0.0
-18748,-620,13700,1385,-13747,3356,2025-02-17 10:46:55,0.0
-18912,252,16112,2717,-16946,4348,2025-02-17 10:46:55,0.0
-16732,1480,15404,2684,-14618,2585,2025-02-17 10:46:55,0.0
-18364,760,12420,2306,-9235,3795,2025-02-17 10:46:55,0.0
-16216,972,9356,1620,-6799,3962,2025-02-17 10:46:55,0.0
-11248,132,8500,1010,-7660,3391,2025-02-17 10:46:55,0.0
-8420,-1272,8480,416,-7461,2565,2025-02-17 10:46:55,0.0
-8072,-548,9892,100,-5132,1406,2025-02-17 10:46:55,0.0
-8368,116,10616,-23,-2187,500,2025-02-17 10:46:55,0.0
-10256,576,11776,-231,-503,208,2025-02-17 10:46:55,0.0
-10972,1244,11664,-569,8,208,2025-02-17 10:46:55,0.0
-11300,1676,11336,-929,61,-141,2025-02-17 10:46:55,0.0
-11404,1660,11440,-1011,-358,-359,2025-02-17 10:46:55,0.0
-11432,1424,11100,-794,-1120,-291,2025-02-17 10:46:55,0.0
-11092,1416,10680,-865,-1660,-283,2025-02-17 10:46:55,0.0
-11576,1052,11088,-892,-1513,-260,2025-02-17 10:46:55,0.0
-11668,744,11104,-798,-1566,-155,2025-02-17 10:46:55,0.0
-10900,912,10728,-841,-1489,-203,2025-02-17 10:46:55,0.0
-10608,808,10920,-927,-1191,-320,2025-02-17 10:46:55,0.0
-10668,696,10888,-1011,-569,-479,2025-02-17 10:46:55,0.0
-12024,484,10740,-1012,-549,-557,2025-02-17 10:46:55,0.0
-11552,716,10792,-1139,-265,-364,2025-02-17 10:46:55,0.0
-11620,944,10876,-1093,-677,-139,2025-02-17 10:46:55,0.0
-11164,628,10768,-1115,-694,74,2025-02-17 10:46:55,0.0
-10940,76,10344,-1282,-520,114,2025-02-17 10:46:55,0.0
-11152,-616,11616,-1041,-1030,312,2025-02-17 10:46:55,0.0
-11184,-788,11400,-778,-1700,426,2025-02-17 10:46:55,0.0
-10904,-840,11096,-529,-1679,373,2025-02-17 10:46:55,0.0
-10852,-888,11172,-162,-997,287,2025-02-17 10:46:55,0.0
-10808,-480,11068,57,-803,224,2025-02-17 10:46:55,0.0
-10876,-128,10744,47,-569,218,2025-02-17 10:46:55,0.0
-10864,132,10536,46,-208,264,2025-02-17 10:46:55,0.0
-11128,172,10188,-3,349,430,2025-02-17 10:46:55,0.0
-11408,144,10008,-56,573,653,2025-02-17 10:46:55,0.0
-11508,72,10180,-112,306,576,2025-02-17 10:46:56,0.0
-11452,-32,10620,-128,13,505,2025-02-17 10:46:56,0.0
-11860,372,10828,-133,287,332,2025-02-17 10:46:56,0.0
-11760,1080,10628,-68,-180,93,2025-02-17 10:46:56,0.0
-11404,1260,10524,-84,-371,5,2025-02-17 10:46:56,0.0
-10904,1252,10320,-222,-153,-32,2025-02-17 10:46:56,0.0
-10792,1192,10232,-286,204,-111,2025-02-17 10:46:56,0.0
-11000,892,10524,-338,354,-175,2025-02-17 10:46:56,0.0
-11268,540,10484,-363,-12,-315,2025-02-17 10:46:56,0.0
-11420,416,10788,-466,-255,-422,2025-02-17 10:46:56,0.0
-11748,324,10884,-527,-451,-593,2025-02-17 10:46:56,0.0
-11568,276,11036,-483,-824,-657,2025-02-17 10:46:56,0.0
-11204,428,11112,-473,-816,-651,2025-02-17 10:46:56,0.0
-10812,524,10984,-488,-558,-697,2025-02-17 10:46:56,0.0
-10772,720,10816,-578,-233,-853,2025-02-17 10:46:56,0.0
-10952,568,11036,-639,-70,-1013,2025-02-17 10:46:56,0.0
-11136,420,11048,-703,-22,-1054,2025-02-17 10:46:56,0.0
-11252,128,11016,-687,-73,-1017,2025-02-17 10:46:56,0.0
-11296,-108,11084,-588,-45,-865,2025-02-17 10:46:56,0.0
-11412,-216,10992,-413,-34,-652,2025-02-17 10:46:56,0.0
-11356,-144,10784,-328,-57,-484,2025-02-17 10:46:56,0.0
-11180,-100,10884,-251,36,-365,2025-02-17 10:46:56,0.0
-11112,28,10956,-251,221,-355,2025-02-17 10:46:56,0.0
-11188,40,10876,-321,372,-437,2025-02-17 10:46:56,0.0
-11440,132,10872,-355,286,-452,2025-02-17 10:46:56,0.0
-11260,48,10628,-340,117,-486,2025-02-17 10:46:56,0.0
-11244,52,10828,-356,57,-485,2025-02-17 10:46:56,0.0
-11276,48,10716,-306,77,-465,2025-02-17 10:46:56,0.0
-11188,-36,10864,-293,74,-373,2025-02-17 10:46:56,0.0
-11280,16,10716,-270,115,-296,2025-02-17 10:46:56,0.0
-11248,128,10748,-248,43,-217,2025-02-17 10:46:56,0.0
-11188,64,10876,-231,52,-236,2025-02-17 10:46:56,0.0
-11096,136,10968,-288,165,-274,2025-02-17 10:46:56,0.0
-11336,72,10856,-316,224,-307,2025-02-17 10:46:56,0.0
-11360,80,10876,-260,124,-281,2025-02-17 10:46:56,0.0
-11276,20,10900,-207,86,-248,2025-02-17 10:46:56,0.0
-11256,-76,10748,-220,41,-198,2025-02-17 10:46:56,0.0
-11124,-24,10940,-216,6,-217,2025-02-17 10:46:56,0.0
-11260,-72,10940,-234,-14,-199,2025-02-17 10:46:56,0.0
-11108,68,10960,-222,70,-220,2025-02-17 10:46:56,0.0
-11124,80,11068,-207,105,-212,2025-02-17 10:46:56,0.0
-11144,32,11064,-189,208,-189,2025-02-17 10:46:56,0.0
-11220,-36,11112,-121,249,-155,2025-02-17 10:46:56,0.0
-11168,128,11068,-159,275,-127,2025-02-17 10:46:56,0.0
-11364,88,11060,-131,310,-68,2025-02-17 10:46:56,0.0
-11260,28,11040,-111,62,-67,2025-02-17 10:46:56,0.0
-11100,-12,10744,-135,-21,-54,2025-02-17 10:46:56,0.0
-11008,128,10904,-180,55,-92,2025-02-17 10:46:56,0.0
-11276,92,10948,-134,39,-104,2025-02-17 10:46:56,0.0
-11132,24,11112,-171,90,-105,2025-02-17 10:46:56,0.0
-11036,56,11028,-187,222,-149,2025-02-17 10:46:56,0.0
-11224,120,11028,-179,385,-189,2025-02-17 10:46:56,0.0
-11172,176,10964,-155,349,-103,2025-02-17 10:46:56,0.0
-11144,116,10832,-137,261,-102,2025-02-17 10:46:56,0.0
-11132,136,10780,-182,356,-84,2025-02-17 10:46:56,0.0
-11172,32,10788,-184,399,-155,2025-02-17 10:46:56,0.0
-11192,52,10824,-152,364,-107,2025-02-17 10:46:56,0.0
-11208,12,10916,-144,276,-80,2025-02-17 10:46:56,
-11080,56,10888,-163,308,-123,2025-02-17 10:46:56,0.0
-11172,88,11104,-143,357,-170,2025-02-17 10:46:56,0.0
-11196,156,10672,-162,360,-154,2025-02-17 10:46:56,0.0
-11312,52,10828,-193,341,-205,2025-02-17 10:46:57,0.0
-11164,168,10868,-144,294,-208,2025-02-17 10:46:57,0.0
-11116,104,10844,-166,315,-173,2025-02-17 10:46:57,0.0
-11188,140,10800,-93,358,-178,2025-02-17 10:46:57,0.0
-11188,44,10728,-118,352,-151,2025-02-17 10:46:57,0.0
-11296,116,10688,-170,293,-203,2025-02-17 10:46:57,0.0
-11196,-4,10804,-192,232,-229,2025-02-17 10:46:57,0.0
-11120,108,10812,-182,335,-249,2025-02-17 10:46:57,0.0
-11296,68,10944,-192,429,-266,2025-02-17 10:46:57,0.0
-11220,-4,10672,-171,338,-254,2025-02-17 10:46:57,0.0
-11268,88,10852,-185,307,-230,2025-02-17 10:46:57,0.0
-11356,112,10748,-204,275,-208,2025-02-17 10:46:57,0.0
-11252,168,10736,-182,231,-185,2025-02-17 10:46:57,0.0
-11260,-16,10768,-241,341,-238,2025-02-17 10:46:57,0.0
-11332,76,10784,-235,378,-255,2025-02-17 10:46:57,0.0
-11292,60,10812,-204,371,-271,2025-02-17 10:46:57,0.0
-11292,84,10768,-183,348,-259,2025-02-17 10:46:57,0.0
-11260,-12,10824,-200,417,-219,2025-02-17 10:46:57,0.0
-11516,80,10600,-201,468,-211,2025-02-17 10:46:57,0.0
-11432,-12,10548,-146,144,-132,2025-02-17 10:46:57,0.0
-11340,4,10724,-150,17,-70,2025-02-17 10:46:57,0.0
-11060,116,10820,-136,109,-119,2025-02-17 10:46:57,0.0
-10868,160,11264,16,425,-173,2025-02-17 10:46:57,0.0
-10668,96,11368,116,1088,-124,2025-02-17 10:46:57,0.0
-10816,-220,10864,115,1953,6,2025-02-17 10:46:57,0.0
-11260,-88,10520,104,2229,99,2025-02-17 10:46:57,0.0
-11876,-172,10540,40,2158,174,2025-02-17 10:46:57,0.0
-12448,-176,10340,-30,1982,288,2025-02-17 10:46:57,0.0
-11916,96,10088,-299,41,723,2025-02-17 10:46:57,0.0
-11132,456,9752,-499,-69,616,2025-02-17 10:46:57,0.0
-10988,480,9908,-536,-244,365,2025-02-17 10:46:57,0.0
-11248,156,10428,-532,-256,-48,2025-02-17 10:46:57,0.0
-11064,-216,10896,-411,-256,-312,2025-02-17 10:46:57,0.0
-10656,-432,10496,-321,-283,-721,2025-02-17 10:46:57,0.0
-10480,-288,10392,-249,-155,-1152,2025-02-17 10:46:57,0.0
-10584,-228,10832,-318,442,-1549,2025-02-17 10:46:57,0.0
-10676,488,10796,-500,934,-1747,2025-02-17 10:46:57,0.0
-10856,984,10948,-565,1169,-1675,2025-02-17 10:46:57,0.0
-11236,908,11312,-502,1527,-1320,2025-02-17 10:46:57,0.0
-11244,976,11396,-397,1626,-983,2025-02-17 10:46:57,0.0
-10920,964,10984,-466,1431,-974,2025-02-17 10:46:57,0.0
-10628,728,10788,-671,1411,-1067,2025-02-17 10:46:57,0.0
-10560,-124,10824,-1237,2369,-1148,2025-02-17 10:46:57,0.0
-10480,-212,10876,-1360,2875,-1212,2025-02-17 10:46:57,0.0
-10660,-280,11020,-1474,3187,-1416,2025-02-17 10:46:57,0.0
-10788,60,10636,-1538,3422,-1544,2025-02-17 10:46:57,0.0
-10912,-64,10628,-1570,3729,-1623,2025-02-17 10:46:57,0.0
-11556,-144,10964,-1499,3754,-1953,2025-02-17 10:46:57,0.0
-11240,-508,10740,-1279,3158,-2358,2025-02-17 10:46:57,0.0
-11680,-992,11032,-1091,3134,-2693,2025-02-17 10:46:57,0.0
-10892,-1152,9224,-1013,2771,-3197,2025-02-17 10:46:57,0.0
-11732,-820,9348,-1188,2071,-3609,2025-02-17 10:46:57,0.0
-11432,-456,11184,-1604,1989,-3607,2025-02-17 10:46:57,0.0
-13636,-316,10784,-1677,3628,-3501,2025-02-17 10:46:57,0.0
-15464,256,12044,-1466,6154,-3043,2025-02-17 10:46:57,0.0
-15688,-332,10536,-1593,8399,-1926,2025-02-17 10:46:58,0.0
-14960,-880,10732,-1583,9648,-1680,2025-02-17 10:46:58,0.0
-15796,-984,11584,-1046,10375,-1749,2025-02-17 10:46:58,0.0
-17336,-1264,10564,-909,10831,-1845,2025-02-17 10:46:58,0.0
-17308,-2452,10788,-1070,10089,-2166,2025-02-17 10:46:58,0.0
-16032,-4036,10844,-665,8313,-2150,2025-02-17 10:46:58,0.0
-15292,-3748,10340,-50,6425,-1984,2025-02-17 10:46:58,0.0
-16984,-2524,10892,224,5338,-1334,2025-02-17 10:46:58,0.0
-16984,-2648,10416,418,5227,-870,2025-02-17 10:46:58,0.0
-16964,-2660,9040,510,5685,-828,2025-02-17 10:46:58,0.0
-16988,-2672,7836,527,6277,-593,2025-02-17 10:46:58,0.0
-16632,-2420,7240,598,6144,-686,2025-02-17 10:46:58,0.0
-16664,-1528,6772,624,6222,-867,2025-02-17 10:46:58,0.0
-16352,-1508,6264,564,6789,-933,2025-02-17 10:46:58,0.0
-16588,-1820,6096,388,7678,-770,2025-02-17 10:46:58,0.0
-17328,-2408,5820,296,8621,-402,2025-02-17 10:46:58,0.0
-16840,-2412,4960,56,9506,-326,2025-02-17 10:46:58,0.0
-10044,-1172,2536,1048,-95,1767,2025-02-17 10:46:58,0.0
-9632,-1932,2416,1453,-667,1455,2025-02-17 10:46:58,0.0
-9300,-2352,1984,1449,-1435,1024,2025-02-17 10:46:58,0.0
-9960,-2300,1476,1422,-1857,970,2025-02-17 10:46:58,0.0
-9404,-2060,760,1684,-2095,1043,2025-02-17 10:46:58,0.0
-9244,-1488,-488,1537,-2054,785,2025-02-17 10:46:58,0.0
-9012,-660,-388,1463,-1366,408,2025-02-17 10:46:58,0.0
-9168,-488,464,1774,-38,-10,2025-02-17 10:46:58,0.0
-9532,-1116,772,2201,1196,-251,2025-02-17 10:46:58,0.0
-9784,-2140,564,1708,2613,-419,2025-02-17 10:46:58,0.0
-9528,-2768,696,1706,3111,-1169,2025-02-17 10:46:58,0.0
-9864,-2704,652,2351,2563,-1286,2025-02-17 10:46:58,0.0
-10700,-2700,-168,2343,2546,-1309,2025-02-17 10:46:58,0.0
-10820,-2716,-176,1996,2987,-1280,2025-02-17 10:46:58,0.0
-10608,-3088,104,2112,2605,-1585,2025-02-17 10:46:58,0.0
-10556,-3580,328,2387,2286,-2148,2025-02-17 10:46:58,0.0
-10256,-3520,848,2743,2236,-2772,2025-02-17 10:46:58,0.0
-10268,-2988,740,3011,2378,-3313,2025-02-17 10:46:58,0.0
-11092,-1980,24,2718,2548,-3387,2025-02-17 10:46:58,0.0
-11720,-1500,88,2254,2704,-2872,2025-02-17 10:46:58,0.0
-12532,-1288,72,1628,3179,-1818,2025-02-17 10:46:58,0.0
-12996,-1460,268,916,3320,-1125,2025-02-17 10:46:58,0.0
-13028,-1808,688,225,2669,-676,2025-02-17 10:46:58,0.0
-13600,-2116,1324,-53,1705,-208,2025-02-17 10:46:58,0.0
-13328,-2552,828,33,893,371,2025-02-17 10:46:58,
-13564,-3144,568,-94,698,710,2025-02-17 10:46:58,0.0
-13612,-3656,352,-466,457,864,2025-02-17 10:46:58,0.0
-13216,-3608,1156,-791,279,652,2025-02-17 10:46:58,0.0
-13392,-3712,1572,-536,2,465,2025-02-17 10:46:58,0.0
-13280,-4092,780,-393,52,542,2025-02-17 10:46:58,0.0
-13472,-3652,548,-369,-21,702,2025-02-17 10:46:58,0.0
-13228,-2916,816,-549,27,679,2025-02-17 10:46:58,0.0
-13260,-2456,872,-937,70,447,2025-02-17 10:46:58,0.0
-13160,-2428,1384,-1254,479,248,2025-02-17 10:46:58,0.0
-13416,-2644,1604,-1633,698,-19,2025-02-17 10:46:59,0.0
-14280,-2952,1944,-2201,359,-66,2025-02-17 10:46:59,0.0
-14556,-3120,3080,-2665,-492,84,2025-02-17 10:46:59,0.0
-14572,-2952,2884,-2933,-766,11,2025-02-17 10:46:59,0.0
-14468,-2672,568,-3360,-315,-1015,2025-02-17 10:46:59,0.0
-14924,-2704,-1264,-2930,57,-2375,2025-02-17 10:46:59,0.0
-16600,-3332,-3496,-3116,1027,-3208,2025-02-17 10:46:59,0.0
-18404,-4388,-2312,-4173,1929,-2516,2025-02-17 10:46:59,0.0
-18720,-4296,-376,-4889,851,-274,2025-02-17 10:46:59,0.0
-17228,-2972,8,-4641,-701,2864,2025-02-17 10:46:59,0.0
-14664,-1932,-1360,-4607,-2697,4285,2025-02-17 10:46:59,0.0
-12456,-764,-1992,-4817,-3033,3742,2025-02-17 10:46:59,0.0
-10568,-40,-1368,-4497,-1178,1507,2025-02-17 10:46:59,0.0
-11528,40,-168,-3951,-266,274,2025-02-17 10:46:59,0.0
-12500,292,1016,-3325,837,153,2025-02-17 10:46:59,0.0
-12948,540,500,-2733,1859,447,2025-02-17 10:46:59,0.0
-13436,868,-16,-2906,3080,914,2025-02-17 10:46:59,0.0
-13660,1132,-128,-3567,5348,1550,2025-02-17 10:46:59,0.0
-13752,504,-152,-4332,8620,2064,2025-02-17 10:46:59,0.0
-12652,16,-252,-4466,11784,1747,2025-02-17 10:46:59,0.0
-13060,280,-1720,-4362,13661,1162,2025-02-17 10:46:59,0.0
-13332,940,-2540,-3936,12850,999,2025-02-17 10:46:59,0.0
-13676,1164,-1844,-3478,12131,1414,2025-02-17 10:46:59,0.0
-12824,1404,-2128,-3115,12005,1813,2025-02-17 10:46:59,0.0
-10920,1212,-2136,-2252,13849,1562,2025-02-17 10:46:59,0.0
-9336,508,-3088,-1647,17096,1051,2025-02-17 10:46:59,0.0
-8708,132,-3736,-1499,21623,826,2025-02-17 10:46:59,0.0
-8760,272,-4904,-1525,27701,1277,2025-02-17 10:46:59,0.0
-8892,532,-6284,-2021,32767,2571,2025-02-17 10:46:59,0.0
-8436,584,-6596,-2498,32767,4107,2025-02-17 10:46:59,0.0
-7508,428,-6156,-2215,32767,4223,2025-02-17 10:46:59,0.0
-6576,-64,-6068,-1215,32767,3102,2025-02-17 10:46:59,0.0
-7604,-700,-7148,353,32767,1984,2025-02-17 10:46:59,0.0
-7776,112,-9264,888,32767,2351,2025-02-17 10:46:59,0.0
-4392,304,-11156,-910,32767,4261,2025-02-17 10:46:59,0.0
580,396,-9384,-3473,32767,5621,2025-02-17 10:46:59,0.0
2936,624,-8120,-5117,32767,5976,2025-02-17 10:46:59,0.0
4020,640,-4980,-6385,21029,5662,2025-02-17 10:46:59,0.0
4108,116,-328,-6823,11451,4945,2025-02-17 10:46:59,0.0
3540,-296,248,-6519,5910,4409,2025-02-17 10:46:59,0.0
3240,-508,1376,-6874,4261,4009,2025-02-17 10:46:59,0.0
2836,-428,1900,-6505,4313,3552,2025-02-17 10:46:59,0.0
2980,-400,1824,-6334,4219,3088,2025-02-17 10:46:59,0.0
2976,-344,2180,-5919,4344,2657,2025-02-17 10:46:59,0.0
2560,-156,2108,-5413,4777,2238,2025-02-17 10:46:59,0.0
1836,-12,1948,-4857,5474,2409,2025-02-17 10:46:59,0.0
1776,16,2720,-3798,6706,3110,2025-02-17 10:46:59,0.0
1460,-84,2340,-2844,8383,3678,2025-02-17 10:46:59,0.0
1512,-228,2440,-1852,10443,4417,2025-02-17 10:46:59,0.0
2352,-264,2684,-705,11645,4967,2025-02-17 10:46:59,0.0
2976,-316,2068,119,11563,4671,2025-02-17 10:46:59,0.0
2244,-148,1804,596,11393,4876,2025-02-17 10:46:59,0.0
2268,-112,1856,1024,11152,5304,2025-02-17 10:46:59,0.0
2584,-208,1692,1352,10472,5511,2025-02-17 10:46:59,0.0
2964,-296,1508,1594,9582,5462,2025-02-17 10:46:59,0.0
2800,-264,1576,2032,8501,5326,2025-02-17 10:46:59,0.0
2864,-332,1572,2410,7842,5094,2025-02-17 10:46:59,0.0
3008,-276,1420,2892,7219,4847,2025-02-17 10:46:59,0.0
2776,-272,824,3136,6523,4576,2025-02-17 10:46:59,0.0
5592,-7712,-1880,6394,-23912,9174,2025-02-17 10:46:59,0.0
32767,32767,-32768,32767,-32768,17489,2025-02-17 10:46:59,0.0
-32768,-32768,-32768,23754,-18273,9717,2025-02-17 10:46:59,0.0
-3532,-13176,-30180,-10685,18599,3985,2025-02-17 10:47:00,0.0
1908,-3908,-1916,-14753,32767,-4142,2025-02-17 10:47:00,0.0
3052,-1252,2172,-13722,32767,-8131,2025-02-17 10:47:00,0.0
1180,-672,2564,-12622,32767,-9220,2025-02-17 10:47:00,0.0
1296,16,3304,-11023,32767,-9139,2025-02-17 10:47:00,0.0
2972,444,4084,-7991,32767,-6798,2025-02-17 10:47:00,0.0
2692,2420,5848,-905,32767,-1669,2025-02-17 10:47:00,0.0
4936,3480,3620,7342,16084,4799,2025-02-17 10:47:00,0.0
8648,4356,-1344,13153,-2437,10206,2025-02-17 10:47:00,0.0
25684,4772,-14272,14564,-19351,10997,2025-02-17 10:47:00,0.0
32528,632,-31272,5562,-32768,4195,2025-02-17 10:47:00,0.0
16056,-5584,-30632,-9055,-32768,1223,2025-02-17 10:47:00,0.0
4232,-4648,-22304,-13334,-32768,2182,2025-02-17 10:47:00,0.0
92,-1760,-15992,-12294,-20201,1677,2025-02-17 10:47:00,0.0
-1204,804,-13088,-8605,-8636,425,2025-02-17 10:47:00,0.0
-212,2692,-12696,-4452,-2085,33,2025-02-17 10:47:00,0.0
4036,3628,-11716,-284,3538,-522,2025-02-17 10:47:00,0.0
5380,1784,-14604,2218,5016,-184,2025-02-17 10:47:00,0.0
7424,-276,-15660,1715,3657,102,2025-02-17 10:47:00,0.0
8236,-800,-15436,167,1791,-181,2025-02-17 10:47:00,0.0
7660,580,-14160,-932,-544,-259,2025-02-17 10:47:00,0.0
6100,1352,-13976,-729,-1606,-106,2025-02-17 10:47:00,0.0
4852,896,-14972,-315,-925,-119,2025-02-17 10:47:00,0.0
4576,756,-15124,-102,568,-163,2025-02-17 10:47:00,0.0
5924,784,-14564,119,1169,-251,2025-02-17 10:47:00,0.0
6596,600,-14804,6,731,-175,2025-02-17 10:47:00,0.0
6384,592,-14556,-322,-291,-164,2025-02-17 10:47:00,0.0
5672,796,-14800,-301,-253,-154,2025-02-17 10:47:00,0.0
5488,760,-14848,-176,200,-194,2025-02-17 10:47:00,
5620,824,-14628,-131,430,-173,2025-02-17 10:47:00,0.0
6064,696,-14644,-123,267,-161,2025-02-17 10:47:00,0.0
6032,656,-14712,-190,140,-167,2025-02-17 10:47:00,0.0
5808,772,-14708,-218,51,-170,2025-02-17 10:47:00,0.0
5732,820,-14672,-184,139,-154,2025-02-17 10:47:00,0.0
5904,812,-14676,-116,222,-176,2025-02-17 10:47:00,0.0
6004,732,-14664,-136,277,-163,2025-02-17 10:47:00,0.0
6064,720,-14716,-192,201,-175,2025-02-17 10:47:00,0.0
5996,704,-14568,-216,82,-169,2025-02-17 10:47:00,0.0
5796,792,-14704,-171,160,-175,2025-02-17 10:47:00,0.0
5828,716,-14756,-153,246,-167,2025-02-17 10:47:00,0.0
6016,788,-14652,-157,246,-173,2025-02-17 10:47:00,0.0
6012,688,-14812,-162,167,-181,2025-02-17 10:47:00,0.0
5856,744,-14620,-168,151,-180,2025-02-17 10:47:00,0.0
5804,804,-14728,-174,173,-181,2025-02-17 10:47:00,0.0
5888,788,-14644,-158,178,-176,2025-02-17 10:47:00,0.0
5908,732,-14864,-143,206,-177,2025-02-17 10:47:00,0.0
5836,672,-14680,-184,171,-167,2025-02-17 10:47:00,0.0
6004,736,-14732,-192,146,-189,2025-02-17 10:47:00,0.0
5876,772,-14560,-158,170,-165,2025-02-17 10:47:00,0.0
5896,636,-14748,-162,205,-161,2025-02-17 10:47:00,0.0
5992,744,-14620,-162,180,-193,2025-02-17 10:47:00,0.0
5948,792,-14724,-167,169,-164,2025-02-17 10:47:00,0.0
5972,776,-14716,-181,179,-185,2025-02-17 10:47:00,0.0
5876,820,-14712,-147,203,-168,2025-02-17 10:47:00,0.0
5936,696,-14676,-145,194,-170,2025-02-17 10:47:00,0.0
6040,796,-14732,-171,181,-177,2025-02-17 10:47:00,0.0
5932,760,-14636,-165,178,-168,2025-02-17 10:47:00,0.0
5856,724,-14756,-173,185,-174,2025-02-17 10:47:00,0.0
5920,820,-14812,-148,182,-171,2025-02-17 10:47:00,0.0
5932,636,-14736,-163,188,-182,2025-02-17 10:47:00,0.0
5928,796,-14616,-133,152,-164,2025-02-17 10:47:00,0.0
5956,788,-14736,-160,176,-184,2025-02-17 10:47:01,0.0
5860,780,-14736,-126,166,-175,2025-02-17 10:47:01,0.0
5976,576,-14680,-154,172,-185,2025-02-17 10:47:01,0.0
5960,772,-14720,-150,188,-172,2025-02-17 10:47:01,0.0
5936,800,-14572,-170,173,-171,2025-02-17 10:47:01,0.0
5828,720,-14692,-137,165,-194,2025-02-17 10:47:01,0.0
5852,696,-14776,-186,184,-184,2025-02-17 10:47:01,0.0
5852,748,-14660,-181,198,-180,2025-02-17 10:47:01,0.0
5884,792,-14620,-195,160,-171,2025-02-17 10:47:01,0.0
6008,736,-14540,-160,181,-184,2025-02-17 10:47:01,0.0
5980,696,-14704,-167,175,-167,2025-02-17 10:47:01,0.0
5912,744,-14696,-134,182,-197,2025-02-17 10:47:01,0.0
5848,856,-14760,-158,174,-185,2025-02-17 10:47:01,0.0
5968,752,-14828,-173,186,-176,2025-02-17 10:47:01,0.0
5964,780,-14684,-162,186,-188,2025-02-17 10:47:01,0.0
5976,820,-14716,-189,179,-172,2025-02-17 10:47:01,0.0
5840,680,-14668,-146,173,-176,2025-02-17 10:47:01,0.0
5856,804,-14828,-176,169,-179,2025-02-17 10:47:01,0.0
5856,804,-14736,-182,178,-171,2025-02-17 10:47:01,0.0
5940,696,-14756,-134,187,-167,2025-02-17 10:47:01,0.0
5856,812,-14700,-142,176,-169,2025-02-17 10:47:01,0.0
5864,728,-14668,-182,163,-177,2025-02-17 10:47:01,0.0
5940,716,-14572,-174,171,-186,2025-02-17 10:47:01,0.0
5860,704,-14712,-165,199,-155,2025-02-17 10:47:01,0.0
5876,744,-14800,-162,186,-158,2025-02-17 10:47:01,0.0
5972,696,-14800,-163,178,-183,2025-02-17 10:47:01,0.0
5876,704,-14660,-158,170,-165,2025-02-17 10:47:01,0.0
5880,756,-14728,-158,163,-188,2025-02-17 10:47:01,0.0
5928,740,-14668,-164,189,-184,2025-02-17 10:47:01,0.0
5912,796,-14716,-188,177,-183,2025-02-17 10:47:01,0.0
5948,708,-14856,-181,164,-164,2025-02-17 10:47:01,0.0
6008,736,-14700,-142,184,-170,2025-02-17 10:47:01,0.0
5920,800,-14796,-185,168,-189,2025-02-17 10:47:01,0.0
5936,780,-14680,-132,171,-163,2025-02-17 10:47:01,0.0
5880,676,-14760,-183,159,-179,2025-02-17 10:47:01,0.0
6020,760,-14648,-173,178,-201,2025-02-17 10:47:01,0.0
5876,752,-14664,-158,175,-173,2025-02-17 10:47:01,0.0
5828,716,-14804,-169,175,-183,2025-02-17 10:47:01,0.0
5964,736,-14848,-199,148,-164,2025-02-17 10:47:01,0.0
5892,808,-14616,-161,175,-159,2025-02-17 10:47:01,0.0
5920,668,-14756,-181,161,-166,2025-02-17 10:47:01,0.0
5928,748,-14820,-139,190,-179,2025-02-17 10:47:01,0.0
5992,744,-14648,-156,164,-169,2025-02-17 10:47:01,0.0
5880,780,-14792,-157,176,-175,2025-02-17 10:47:01,0.0
5904,764,-14728,-147,184,-176,2025-02-17 10:47:01,0.0
5980,788,-14768,-124,167,-183,2025-02-17 10:47:01,0.0
5980,784,-14612,-136,180,-175,2025-02-17 10:47:01,0.0
5904,696,-14616,-146,173,-190,2025-02-17 10:47:01,0.0
5980,724,-14764,-163,152,-176,2025-02-17 10:47:01,0.0
5936,772,-14904,-179,175,-165,2025-02-17 10:47:01,0.0
5936,728,-14604,-170,165,-183,2025-02-17 10:47:01,0.0
5996,780,-14696,-164,159,-178,2025-02-17 10:47:01,0.0
5920,804,-14736,-169,175,-167,2025-02-17 10:47:01,0.0
5928,748,-14616,-189,198,-167,2025-02-17 10:47:01,0.0
5900,696,-14628,-177,175,-162,2025-02-17 10:47:01,0.0
5996,740,-14652,-165,175,-182,2025-02-17 10:47:01,0.0
5896,772,-14700,-124,200,-178,2025-02-17 10:47:01,0.0
5932,784,-14768,-171,194,-186,2025-02-17 10:47:01,0.0
5940,708,-14732,-176,176,-150,2025-02-17 10:47:01,0.0
5976,780,-14648,-166,187,-149,2025-02-17 10:47:01,0.0
5928,816,-14752,-166,193,-189,2025-02-17 10:47:02,0.0
5948,740,-14740,-168,180,-172,2025-02-17 10:47:02,0.0
5872,632,-14728,-176,179,-172,2025-02-17 10:47:02,0.0
5940,796,-14668,-142,188,-179,2025-02-17 10:47:02,0.0
6040,716,-14704,-176,172,-167,2025-02-17 10:47:02,0.0
5928,708,-14752,-174,177,-182,2025-02-17 10:47:02,0.0
5924,768,-14688,-168,181,-154,2025-02-17 10:47:02,0.0
5916,736,-14760,-136,217,-155,2025-02-17 10:47:02,
5952,784,-14668,-180,194,-193,2025-02-17 10:47:02,0.0
5892,720,-14680,-163,174,-165,2025-02-17 10:47:02,0.0
5904,740,-14660,-139,170,-173,2025-02-17 10:47:02,0.0
5944,716,-14772,-137,180,-177,2025-02-17 10:47:02,0.0
5972,752,-14580,-171,199,-168,2025-02-17 10:47:02,0.0
5976,756,-14672,-150,169,-180,2025-02-17 10:47:02,0.0
5880,736,-14748,-135,211,-161,2025-02-17 10:47:02,0.0
5972,700,-14820,-154,201,-175,2025-02-17 10:47:02,0.0
5924,696,-14864,-177,168,-178,2025-02-17 10:47:02,0.0
5936,772,-14660,-157,194,-145,2025-02-17 10:47:02,0.0
5928,780,-14744,-159,187,-187,2025-02-17 10:47:02,0.0
5972,760,-14632,-188,178,-182,2025-02-17 10:47:02,0.0
5932,680,-14628,-166,198,-175,2025-02-17 10:47:02,0.0
5892,724,-14640,-167,186,-175,2025-02-17 10:47:02,0.0
5996,780,-14556,-174,173,-176,2025-02-17 10:47:02,0.0
5948,756,-14560,-159,160,-186,2025-02-17 10:47:02,0.0
6000,772,-14728,-185,174,-169,2025-02-17 10:47:02,0.0
5924,688,-14772,-169,161,-151,2025-02-17 10:47:02,0.0
5896,832,-14692,-175,161,-169,2025-02-17 10:47:02,0.0
5960,764,-14852,-188,192,-170,2025-02-17 10:47:02,0.0
5996,888,-14620,-179,158,-165,2025-02-17 10:47:02,0.0
5940,792,-14756,-139,182,-181,2025-02-17 10:47:02,0.0
5956,836,-14628,-170,187,-184,2025-02-17 10:47:02,0.0
5928,776,-14724,-165,187,-167,2025-02-17 10:47:02,0.0
5972,788,-14696,-160,173,-166,2025-02-17 10:47:02,0.0
5872,788,-14808,-147,174,-178,2025-02-17 10:47:02,0.0
5764,692,-14736,-174,185,-179,2025-02-17 10:47:02,0.0
5928,788,-14796,-172,156,-173,2025-02-17 10:47:02,0.0
5964,796,-14768,-168,202,-163,2025-02-17 10:47:02,0.0
5864,828,-14616,-157,204,-161,2025-02-17 10:47:02,0.0
5956,700,-14604,-158,179,-172,2025-02-17 10:47:02,0.0
5900,780,-14604,-146,170,-157,2025-02-17 10:47:02,0.0
5956,700,-14732,-149,166,-166,2025-02-17 10:47:02,0.0
5988,724,-14704,-156,167,-167,2025-02-17 10:47:02,0.0
5840,772,-14676,-147,158,-168,2025-02-17 10:47:02,0.0
5912,764,-14628,-144,201,-189,2025-02-17 10:47:02,0.0
5828,692,-14700,-167,169,-158,2025-02-17 10:47:02,0.0
5900,808,-14764,-166,191,-175,2025-02-17 10:47:02,0.0
5948,724,-14604,-176,175,-149,2025-02-17 10:47:02,0.0
5908,764,-14804,-189,153,-171,2025-02-17 10:47:02,0.0
5964,840,-14788,-126,183,-189,2025-02-17 10:47:02,0.0
5928,764,-14792,-155,198,-188,2025-02-17 10:47:02,0.0
5872,692,-14688,-154,191,-176,2025-02-17 10:47:02,0.0
5880,684,-14748,-150,159,-164,2025-02-17 10:47:02,0.0
5952,728,-14680,-159,184,-173,2025-02-17 10:47:02,0.0
5904,820,-14684,-172,173,-163,2025-02-17 10:47:02,0.0
5924,772,-14860,-169,161,-180,2025-02-17 10:47:02,0.0
5956,752,-14692,-167,156,-149,2025-02-17 10:47:02,0.0
5832,736,-14652,-165,159,-183,2025-02-17 10:47:02,0.0
5884,804,-14588,-129,164,-169,2025-02-17 10:47:02,0.0
5868,708,-14704,-163,173,-193,2025-02-17 10:47:02,0.0
6012,860,-14664,-108,185,-157,2025-02-17 10:47:02,0.0
5876,772,-14744,-161,161,-163,2025-02-17 10:47:02,0.0
5896,764,-14824,-177,193,-175,2025-02-17 10:47:03,0.0
5900,772,-14668,-170,172,-177,2025-02-17 10:47:03,0.0
5912,688,-14684,-162,191,-186,2025-02-17 10:47:03,0.0
5924,764,-14792,-158,164,-168,2025-02-17 10:47:03,0.0
6004,672,-14528,-171,190,-176,2025-02-17 10:47:03,0.0
5940,844,-14780,-157,177,-178,2025-02-17 10:47:03,0.0
5992,700,-14672,-164,173,-179,2025-02-17 10:47:03,0.0
5948,692,-14668,-161,205,-189,2025-02-17 10:47:03,0.0
5848,836,-14752,-158,161,-192,2025-02-17 10:47:03,0.0
5920,732,-14720,-159,167,-170,2025-02-17 10:47:03,0.0
5952,816,-14768,-136,192,-189,2025-02-17 10:47:03,0.0
6016,648,-14644,-177,187,-169,2025-02-17 10:47:03,0.0
5952,692,-14608,-141,194,-176,2025-02-17 10:47:03,0.0
5892,804,-14604,-164,180,-175,2025-02-17 10:47:03,0.0
5880,776,-14660,-145,179,-162,2025-02-17 10:47:03,0.0
6068,1180,-13376,-299,345,-171,2025-02-17 10:47:03,0.0
6096,-804,-17904,-209,786,159,2025-02-17 10:47:03,0.0
5432,804,-15472,-381,1412,-332,2025-02-17 10:47:03,0.0
6072,896,-15280,290,1487,-252,2025-02-17 10:47:03,0.0
6560,620,-15512,36,942,-207,2025-02-17 10:47:03,0.0
7220,-128,-15652,-943,-2171,-246,2025-02-17 10:47:03,0.0
5528,1352,-12944,-511,-395,-46,2025-02-17 10:47:03,0.0
5408,764,-15108,207,244,-208,2025-02-17 10:47:03,0.0
6292,280,-15224,-303,371,-269,2025-02-17 10:47:03,0.0
6128,1088,-14228,-119,363,-130,2025-02-17 10:47:03,0.0
5888,156,-15144,-175,96,-83,2025-02-17 10:47:03,0.0
5580,900,-14564,-343,64,-147,2025-02-17 10:47:03,0.0
6092,952,-14036,-188,323,-226,2025-02-17 10:47:03,0.0
5780,796,-14832,-53,331,-125,2025-02-17 10:47:03,0.0
6128,592,-14964,-274,350,-156,2025-02-17 10:47:03,0.0
5516,1012,-14288,-62,443,-87,2025-02-17 10:47:03,0.0
6076,560,-14664,-76,105,-200,2025-02-17 10:47:03,0.0
5376,792,-14468,-166,-389,-139,2025-02-17 10:47:03,0.0
6040,548,-15380,-360,287,-173,2025-02-17 10:47:03,0.0
5508,896,-14616,-52,281,-188,2025-02-17 10:47:03,0.0
6056,664,-14696,-247,139,-192,2025-02-17 10:47:03,0.0
6268,960,-15112,-155,-63,-165,2025-02-17 10:47:03,0.0
6240,544,-14896,-209,300,-122,2025-02-17 10:47:03,0.0
6160,796,-14544,-381,-127,-170,2025-02-17 10:47:03,0.0
5432,728,-14496,-133,39,-189,2025-02-17 10:47:03,0.0
5596,796,-14836,-248,625,-94,2025-02-17 10:47:03,0.0
7104,1172,-13820,139,390,-463,2025-02-17 10:47:03,0.0
5400,1348,-14552,-136,-102,-167,2025-02-17 10:47:03,0.0
6380,280,-15820,-225,490,-87,2025-02-17 10:47:03,0.0
6284,820,-14700,-361,-135,-149,2025-02-17 10:47:03,0.0
5724,848,-14508,-161,-274,-238,2025-02-17 10:47:03,0.0
6132,808,-15240,-156,493,-255,2025-02-17 10:47:03,
6024,940,-14520,-132,27,-126,2025-02-17 10:47:03,0.0
6472,760,-13876,-357,-26,-53,2025-02-17 10:47:03,0.0
5836,776,-15628,-361,-284,-200,2025-02-17 10:47:03,0.0
5860,704,-14572,-177,23,-151,2025-02-17 10:47:03,0.0
5888,752,-14488,-254,40,-150,2025-02-17 10:47:03,0.0
5612,956,-14584,-164,-9,-202,2025-02-17 10:47:03,0.0
6032,552,-15012,-10,532,-212,2025-02-17 10:47:03,0.0
6024,764,-14444,-82,374,-242,2025-02-17 10:47:03,0.0
6020,844,-14564,-31,449,-235,2025-02-17 10:47:03,0.0
6052,824,-14616,-27,297,-235,2025-02-17 10:47:03,0.0
5628,668,-14808,-81,327,-187,2025-02-17 10:47:03,0.0
5996,684,-14836,-219,137,-96,2025-02-17 10:47:04,0.0
5952,852,-14520,-372,-123,-78,2025-02-17 10:47:04,0.0
6400,716,-14408,-461,-339,-112,2025-02-17 10:47:04,0.0
5284,656,-15448,-552,-718,27,2025-02-17 10:47:04,0.0
6032,468,-14756,-970,-1158,-29,2025-02-17 10:47:04,0.0
5256,1036,-14284,-817,-721,89,2025-02-17 10:47:04,0.0
5252,984,-14876,-477,-654,-151,2025-02-17 10:47:04,0.0
6196,664,-14992,-589,-958,-350,2025-02-17 10:47:04,0.0
6056,628,-15452,-1123,-1838,-356,2025-02-17 10:47:04,0.0
6432,572,-15672,-2001,-2771,-577,2025-02-17 10:47:04,0.0
5448,1136,-13800,-1377,-2983,-509,2025-02-17 10:47:04,0.0
4308,1824,-14208,-560,-1176,17,2025-02-17 10:47:04,0.0
4828,692,-14724,71,684,-86,2025-02-17 10:47:04,0.0
5516,860,-15568,-34,969,-279,2025-02-17 10:47:04,0.0
5608,1204,-14488,185,1011,-123,2025-02-17 10:47:04,0.0
5556,1016,-15636,-483,389,-33,2025-02-17 10:47:04,0.0
7028,576,-15364,-1679,-2016,82,2025-02-17 10:47:04,0.0
5776,1188,-14148,-1158,-3283,-166,2025-02-17 10:47:04,0.0
5256,1640,-13316,78,-2275,-134,2025-02-17 10:47:04,0.0
5036,916,-14864,584,-458,-323,2025-02-17 10:47:04,0.0
5376,660,-15708,662,-990,-707,2025-02-17 10:47:04,0.0
5920,1020,-16540,98,-2593,-1047,2025-02-17 10:47:04,0.0
6456,1156,-16264,45,-6556,-1839,2025-02-17 10:47:04,0.0
6024,824,-16808,187,-10013,-2502,2025-02-17 10:47:04,0.0
4148,1444,-14540,972,-13043,-2704,2025-02-17 10:47:04,0.0
2988,1332,-16860,1154,-15039,-2176,2025-02-17 10:47:04,0.0
1932,648,-19456,-272,-20176,-3360,2025-02-17 10:47:04,0.0
2488,1056,-18092,-1846,-24066,-5425,2025-02-17 10:47:04,0.0
-892,2168,-16396,-2642,-24349,-5409,2025-02-17 10:47:04,0.0
-3244,2956,-18924,-2862,-22338,-3911,2025-02-17 10:47:04,0.0
-3220,2940,-19240,-4474,-20060,-2393,2025-02-17 10:47:04,0.0
-8776,2060,-23216,-6010,-15579,409,2025-02-17 10:47:04,0.0
-5264,2004,-18540,-6096,-13282,2443,2025-02-17 10:47:04,0.0
-3496,1984,-16908,-3763,-12940,4413,2025-02-17 10:47:04,0.0
-1924,2204,-15900,63,-14786,3991,2025-02-17 10:47:04,0.0
-284,1780,-17600,2863,-15916,986,2025-02-17 10:47:04,0.0
728,1844,-20072,2830,-17081,-2682,2025-02-17 10:47:04,0.0
1356,1892,-20764,1263,-18812,-7117,2025-02-17 10:47:04,0.0
-672,2160,-18620,-597,-20606,-11090,2025-02-17 10:47:04,0.0
-3256,2448,-14912,374,-20591,-12382,2025-02-17 10:47:04,0.0
-6848,2600,-12124,3575,-19059,-11139,2025-02-17 10:47:04,0.0
-10428,2560,-10548,8484,-14587,-6167,2025-02-17 10:47:04,0.0
-12656,2240,-10652,12746,-7764,-627,2025-02-17 10:47:04,0.0
-12648,1140,-12580,16196,1574,3790,2025-02-17 10:47:04,0.0
-3460,-3068,-10376,20849,12145,2811,2025-02-17 10:47:04,0.0
-4068,-5268,-17240,22737,19298,-1425,2025-02-17 10:47:04,0.0
-2928,-7056,-21056,19884,22757,-5145,2025-02-17 10:47:04,0.0
-2908,-8236,-24788,14127,22545,-7655,2025-02-17 10:47:04,0.0
-3092,-8700,-27124,7274,19498,-8767,2025-02-17 10:47:04,0.0
-4432,-9040,-26064,1667,14485,-7989,2025-02-17 10:47:04,0.0
-4508,-8908,-25136,-395,8129,-5828,2025-02-17 10:47:04,0.0
-3536,-8380,-25652,-77,801,-3029,2025-02-17 10:47:04,0.0
-2500,-7248,-24700,307,-9243,-413,2025-02-17 10:47:04,0.0
-752,-5972,-23732,-1279,-16259,-500,2025-02-17 10:47:04,0.0
408,-5036,-21196,-3766,-21219,-2427,2025-02-17 10:47:04,0.0
-464,-4300,-18528,-6299,-24080,-4691,2025-02-17 10:47:04,0.0
-2544,-3448,-16220,-8678,-23988,-5718,2025-02-17 10:47:04,0.0
-3904,-2768,-15588,-11728,-21046,-5612,2025-02-17 10:47:04,0.0
-3536,-2160,-11816,-14120,-15325,-5510,2025-02-17 10:47:04,0.0
-3168,-1580,-7240,-12827,-9959,-6547,2025-02-17 10:47:04,0.0
-2892,-952,-3508,-8463,-4742,-8189,2025-02-17 10:47:04,0.0
-4868,64,-1428,-2059,397,-8968,2025-02-17 10:47:04,0.0
-10136,196,-2128,3624,6704,-6622,2025-02-17 10:47:04,0.0
-12888,-260,-7352,6292,16484,-6,2025-02-17 10:47:05,0.0
-9772,-1608,-11836,3660,24959,3791,2025-02-17 10:47:05,0.0
-4348,-2720,-13296,-1144,30504,2483,2025-02-17 10:47:05,0.0
-1284,-3076,-12516,-4089,31203,-2005,2025-02-17 10:47:05,0.0
-540,-2788,-11428,-4832,27939,-6126,2025-02-17 10:47:05,0.0
-1428,-2468,-10744,-4430,21302,-7821,2025-02-17 10:47:05,0.0
-2724,-1932,-10304,-3332,11898,-6387,2025-02-17 10:47:05,0.0
-2624,-856,-10828,-3236,1936,-3284,2025-02-17 10:47:05,0.0
-7780,-1796,-7480,-2127,1397,1583,2025-02-17 10:47:05,0.0
-7344,-1236,-7880,-1355,3059,2533,2025-02-17 10:47:05,0.0
-6780,-996,-8416,-464,3572,3555,2025-02-17 10:47:05,0.0
-5412,-1268,-9380,225,2765,3541,2025-02-17 10:47:05,0.0
-3908,-1832,-10508,395,685,2467,2025-02-17 10:47:05,0.0
-3528,-2316,-11436,-247,-3238,870,2025-02-17 10:47:05,0.0
-3528,-2680,-11940,-1495,-8521,192,2025-02-17 10:47:05,0.0
-4780,-3488,-8680,-1987,-17453,387,2025-02-17 10:47:05,0.0
-6600,-4164,-6908,-1590,-32768,1126,2025-02-17 10:47:05,0.0
-8040,-4644,-7728,-2241,-32768,1989,2025-02-17 10:47:05,0.0
-11952,-3888,-9740,-4412,-32768,3613,2025-02-17 10:47:05,0.0
-14316,-3292,-5804,-5505,-32768,4915,2025-02-17 10:47:05,0.0
-11204,-2304,-3852,-5043,-32768,3578,2025-02-17 10:47:05,0.0
-10056,-556,-328,-4153,-32768,521,2025-02-17 10:47:05,0.0
-11292,-608,224,-3782,-32768,-1938,2025-02-17 10:47:05,0.0
-13584,-1360,-844,-3851,-32768,-2189,2025-02-17 10:47:05,0.0
-13908,-1568,7264,-2002,-32528,-433,2025-02-17 10:47:05,0.0
-13228,-2284,3572,6503,-7474,782,2025-02-17 10:47:05,
-10116,-2076,-7376,2804,2634,2750,2025-02-17 10:47:05,0.0
-4248,-1072,-2336,-2474,6696,997,2025-02-17 10:47:05,0.0
-10336,44,-1428,-3800,8246,-1315,2025-02-17 10:47:05,0.0
-14732,1008,-1328,-2719,8904,-299,2025-02-17 10:47:05,0.0
-15476,-112,-940,-975,8392,473,2025-02-17 10:47:05,0.0
-14716,-1096,-532,-200,6803,-540,2025-02-17 10:47:05,0.0
-14936,-548,228,-703,3564,-1271,2025-02-17 10:47:05,0.0
-15176,700,-352,-2371,623,-696,2025-02-17 10:47:05,0.0
-14768,140,-424,-3361,616,111,2025-02-17 10:47:05,0.0
-14284,-648,-892,-3686,1492,385,2025-02-17 10:47:05,0.0
-14156,-660,-1028,-4003,2491,295,2025-02-17 10:47:05,0.0
-15156,-396,-44,-3900,3268,401,2025-02-17 10:47:05,0.0
-16088,-488,320,-3616,3297,818,2025-02-17 10:47:05,0.0
-16132,-1264,972,-3402,2432,1164,2025-02-17 10:47:05,0.0
-14880,-1920,1176,-3065,461,942,2025-02-17 10:47:05,0.0
-14656,-904,304,-2923,-1226,1060,2025-02-17 10:47:05,0.0
-12412,-536,-424,-3664,-1785,769,2025-02-17 10:47:05,0.0
-11668,-216,724,-3799,-1073,-58,2025-02-17 10:47:05,0.0
-11716,124,1820,-2853,79,29,2025-02-17 10:47:05,0.0
-12264,576,1092,-1091,1426,885,2025-02-17 10:47:05,0.0
-12536,1064,-864,50,3174,1344,2025-02-17 10:47:05,0.0
-12188,920,380,-107,3679,498,2025-02-17 10:47:05,0.0
-13060,448,440,429,2346,-313,2025-02-17 10:47:05,0.0
-14204,316,100,1473,773,-103,2025-02-17 10:47:05,0.0
-13748,640,-824,2061,-38,188,2025-02-17 10:47:05,0.0
-13404,1216,-1468,2093,-36,163,2025-02-17 10:47:05,0.0
-12756,1700,-1648,1248,699,-539,2025-02-17 10:47:06,0.0
-13544,1068,-140,1536,762,-457,2025-02-17 10:47:06,0.0
-14500,560,-744,2488,-31,462,2025-02-17 10:47:06,0.0
-14884,604,-1704,2857,-775,1384,2025-02-17 10:47:06,0.0
-14596,620,-1868,2402,-1255,1722,2025-02-17 10:47:06,0.0
-12740,592,-1540,1509,-1755,846,2025-02-17 10:47:06,0.0
-14244,-12,-864,1361,-617,482,2025-02-17 10:47:06,0.0
-12304,-512,-1336,2839,-298,862,2025-02-17 10:47:06,0.0
-11196,-64,-3064,3648,-1457,740,2025-02-17 10:47:06,0.0
-11272,672,-2820,3400,-1025,440,2025-02-17 10:47:06,0.0
-11296,520,-3308,2287,771,-112,2025-02-17 10:47:06,0.0
-10952,92,-3948,1159,3153,-840,2025-02-17 10:47:06,0.0
-10656,508,-3160,909,4805,-1889,2025-02-17 10:47:06,0.0
-13056,28,-416,2473,6261,-1714,2025-02-17 10:47:06,0.0
-13776,168,1276,4998,6988,-331,2025-02-17 10:47:06,0.0
-13792,460,-1008,5581,5915,960,2025-02-17 10:47:06,0.0
-13296,708,-1376,4023,4778,1177,2025-02-17 10:47:06,0.0
-12912,268,-424,3060,4298,319,2025-02-17 10:47:06,0.0
-13544,-312,-652,2705,4565,-681,2025-02-17 10:47:06,0.0
-14732,-2504,-2240,1956,6443,-1495,2025-02-17 10:47:06,0.0
-15980,-4260,-3012,-177,8760,-2026,2025-02-17 10:47:06,0.0
-17756,-4940,-2832,-2564,8301,-1870,2025-02-17 10:47:06,0.0
-17296,-4024,424,-1866,2885,-809,2025-02-17 10:47:06,0.0
-15584,-2100,2496,1030,-1975,20,2025-02-17 10:47:06,0.0
-13680,-416,1120,1937,-2587,-175,2025-02-17 10:47:06,0.0
-12576,-756,-1180,933,415,-992,2025-02-17 10:47:06,0.0
-13840,-2076,-2084,758,2118,-989,2025-02-17 10:47:06,0.0
-14836,-2836,-2576,1525,1558,-314,2025-02-17 10:47:06,0.0
-14552,-2196,-3836,-112,1351,-167,2025-02-17 10:47:06,0.0
-15084,-2260,-2224,-962,842,-765,2025-02-17 10:47:06,0.0
-14472,-2380,-1020,-880,-318,-1013,2025-02-17 10:47:06,0.0
-14008,-2248,1488,636,-1685,-1083,2025-02-17 10:47:06,0.0
-15420,-1296,-524,2451,-2303,52,2025-02-17 10:47:06,0.0
-13680,-396,-4712,1627,-2185,1509,2025-02-17 10:47:06,0.0
-9820,-60,-3984,-1074,-1821,-609,2025-02-17 10:47:06,0.0
-11504,-1216,-1060,-2058,-30,-1678,2025-02-17 10:47:06,0.0
-12244,-2572,2212,218,995,-907,2025-02-17 10:47:06,0.0
-11964,-2428,-1544,955,950,-1026,2025-02-17 10:47:06,0.0
-12500,-2032,-5068,-1506,183,-1618,2025-02-17 10:47:06,0.0
-13288,-1224,-3288,-4346,149,-2468,2025-02-17 10:47:06,0.0
-14608,-2532,-152,-3751,498,-1310,2025-02-17 10:47:06,0.0
-13952,-2456,-740,-2107,479,312,2025-02-17 10:47:06,0.0
-12540,-1488,-2532,-2248,291,389,2025-02-17 10:47:06,0.0
-12100,-2256,-1480,-3005,457,-213,2025-02-17 10:47:06,0.0
-13356,-2936,-1524,-2677,625,20,2025-02-17 10:47:06,0.0
-13476,-3284,-1544,-2591,1201,933,2025-02-17 10:47:06,0.0
-12904,-3028,-1336,-2000,435,1401,2025-02-17 10:47:06,0.0
-12216,-2028,-1884,-1945,-59,1779,2025-02-17 10:47:06,0.0
-10636,-912,-2920,-2444,263,1416,2025-02-17 10:47:06,0.0
-9780,-172,-3408,-3479,655,22,2025-02-17 10:47:06,0.0
-10460,-912,-3660,-4023,1876,-254,2025-02-17 10:47:06,0.0
-11040,-1416,-4356,-4294,3032,10,2025-02-17 10:47:06,0.0
-11048,-1424,-4644,-4674,3680,-10,2025-02-17 10:47:06,0.0
-10412,-1276,-3704,-4914,3430,-296,2025-02-17 10:47:06,0.0
-9436,-968,-2984,-4680,2709,-922,2025-02-17 10:47:06,0.0
-9040,-792,-3296,-3868,2646,-1701,2025-02-17 10:47:06,0.0
-8712,-1304,-4268,-2910,3522,-2570,2025-02-17 10:47:06,0.0
-8864,-1084,-7900,-3677,4620,-3316,2025-02-17 10:47:06,0.0
-12016,-804,-5040,-4584,4671,-3346,2025-02-17 10:47:06,0.0
-14508,-1124,2768,-4402,4110,-2036,2025-02-17 10:47:06,0.0
-14988,-24,5448,-1814,2465,-1262,2025-02-17 10:47:07,0.0
-14480,840,1556,301,-2000,-773,2025-02-17 10:47:07,0.0
-12648,120,-1252,2481,-6657,308,2025-02-17 10:47:07,0.0
-11488,528,-1924,3635,-9612,1276,2025-02-17 10:47:07,0.0
-4820,900,-1908,4594,-8113,1463,2025-02-17 10:47:07,0.0
-8788,1656,-988,3893,-6490,1918,2025-02-17 10:47:07,0.0
-8980,1496,-264,2865,-3812,1756,2025-02-17 10:47:07,0.0
-10204,352,-1124,1833,-1495,103,2025-02-17 10:47:07,0.0
-14416,-52,-1316,1221,-1118,-314,2025-02-17 10:47:07,0.0
-14428,-1212,-676,1626,-3309,-105,2025-02-17 10:47:07,0.0
-13544,-2768,924,2904,-6139,122,2025-02-17 10:47:07,0.0
-12092,-2248,-1356,2996,-10630,-78,2025-02-17 10:47:07,0.0
-12132,-1516,-480,3001,-11177,-1258,2025-02-17 10:47:07,0.0
-12552,744,-204,3038,-8857,-1633,2025-02-17 10:47:07,
-13232,1296,-920,3037,-7282,-1569,2025-02-17 10:47:07,0.0
-13756,832,-1132,2831,-6232,-1565,2025-02-17 10:47:07,0.0
-15380,140,-544,2868,-5754,-1527,2025-02-17 10:47:07,0.0
-15332,-964,-672,3177,-5605,-1166,2025-02-17 10:47:07,0.0
-14820,-880,-972,2881,-5425,-1234,2025-02-17 10:47:07,0.0
-15288,-1228,-724,2875,-4872,-1418,2025-02-17 10:47:07,0.0
-16912,-1736,-1844,3071,-4359,-983,2025-02-17 10:47:07,0.0
-18532,-1860,-624,3188,-5768,-917,2025-02-17 10:47:07,0.0
-17704,-656,396,3181,-8172,236,2025-02-17 10:47:07,0.0
-15068,4,-176,2732,-8124,620,2025-02-17 10:47:07,0.0
-14916,344,952,2086,-6766,386,2025-02-17 10:47:07,0.0
-15908,-352,1748,1755,-6497,335,2025-02-17 10:47:07,0.0
-16048,-1244,2272,1728,-7319,904,2025-02-17 10:47:07,0.0
-15536,-1876,3308,1871,-8607,1670,2025-02-17 10:47:07,0.0
-14824,-1268,4048,2312,-9153,2239,2025-02-17 10:47:07,0.0
-14652,-704,4896,2795,-9306,2701,2025-02-17 10:47:07,0.0
-14340,-464,4544,3386,-8758,4174,2025-02-17 10:47:07,0.0
-13796,-396,4660,3957,-8108,5380,2025-02-17 10:47:07,0.0
-13672,-724,4960,4474,-8260,6175,2025-02-17 10:47:07,0.0
-13140,-40,4392,4127,-9137,6078,2025-02-17 10:47:07,0.0
-16184,-732,6912,3726,-9569,5295,2025-02-17 10:47:07,0.0
-26552,1536,11852,3549,-10602,4570,2025-02-17 10:47:07,0.0
-22988,-1668,12088,2103,-17877,2508,2025-02-17 10:47:07,0.0
-23908,-2144,12148,1555,-19710,3184,2025-02-17 10:47:07,0.0
-17096,1356,8560,-836,-8178,1497,2025-02-17 10:47:07,0.0
-15760,1096,6576,-1005,-1596,969,2025-02-17 10:47:07,0.0
-12620,476,4424,-727,-1374,1577,2025-02-17 10:47:07,0.0
-11648,636,5428,-965,-3683,506,2025-02-17 10:47:07,0.0
-10908,1348,6188,-941,-7516,-316,2025-02-17 10:47:07,0.0
-11136,2176,8580,-1049,-9217,-740,2025-02-17 10:47:07,0.0
-10592,2760,10196,-1123,-7284,-835,2025-02-17 10:47:07,0.0
-9964,2492,11836,-1103,-3874,-879,2025-02-17 10:47:07,0.0
-10536,2352,11856,-870,-1390,-706,2025-02-17 10:47:07,0.0
-10804,2504,10000,-1420,-473,-929,2025-02-17 10:47:07,0.0
-12276,1656,9732,-1241,-1763,-979,2025-02-17 10:47:07,0.0
-12352,1464,9188,-1630,-3692,-1105,2025-02-17 10:47:07,0.0
-11184,2068,9476,-2673,-4136,-1197,2025-02-17 10:47:07,0.0
-10388,1792,11036,-2771,-2812,-1605,2025-02-17 10:47:07,0.0
-11300,1188,11200,-2363,-1354,-1369,2025-02-17 10:47:07,0.0
-12320,24,10764,-1805,-1571,-789,2025-02-17 10:47:07,0.0
-12428,-108,10724,-1090,-2599,-390,2025-02-17 10:47:07,0.0
-11452,-460,10664,-389,-2715,-81,2025-02-17 10:47:07,0.0
-10908,224,9980,-308,-923,27,2025-02-17 10:47:07,0.0
-10992,140,9752,-533,1273,-136,2025-02-17 10:47:07,0.0
-12460,-288,8304,-677,1343,-304,2025-02-17 10:47:07,0.0
-13572,-572,7880,-968,139,-193,2025-02-17 10:47:07,0.0
-12700,-376,9260,-887,-1109,-328,2025-02-17 10:47:07,0.0
-11940,-488,10068,-641,-1181,-322,2025-02-17 10:47:07,0.0
-11904,-4,9292,-517,-353,-178,2025-02-17 10:47:08,0.0
-11860,-64,8520,-699,-636,-225,2025-02-17 10:47:08,0.0
-11660,-328,9320,-663,-1152,-409,2025-02-17 10:47:08,0.0
-11460,-404,9700,-533,-916,-619,2025-02-17 10:47:08,0.0
-11208,-584,9796,-445,-644,-882,2025-02-17 10:47:08,0.0
-11108,-244,10272,-289,-639,-1121,2025-02-17 10:47:08,0.0
-11164,156,10076,-389,-698,-1498,2025-02-17 10:47:08,0.0
-12900,-48,10020,-545,-29,-1181,2025-02-17 10:47:08,0.0
-12164,-416,11312,-98,-898,38,2025-02-17 10:47:08,0.0
-11420,-500,10520,36,-1299,-218,2025-02-17 10:47:08,0.0
-10484,-552,9584,-149,-1183,-389,2025-02-17 10:47:08,0.0
-11424,-616,9556,-284,-518,-446,2025-02-17 10:47:08,0.0
-11272,-580,10164,-511,210,-331,2025-02-17 10:47:08,0.0
-12200,-344,10460,-325,32,-188,2025-02-17 10:47:08,0.0
-12372,-188,10116,-108,-295,7,2025-02-17 10:47:08,0.0
-12088,-576,9956,-771,-260,-271,2025-02-17 10:47:08,0.0
-12064,-848,10644,-600,-30,112,2025-02-17 10:47:08,0.0
-11780,-576,10204,-496,178,-54,2025-02-17 10:47:08,0.0
-11408,-652,9936,-433,-119,-277,2025-02-17 10:47:08,0.0
-11132,-568,9780,-446,-144,-424,2025-02-17 10:47:08,0.0
-11260,-524,10032,-470,132,-515,2025-02-17 10:47:08,0.0
-12104,-604,10052,-386,94,-412,2025-02-17 10:47:08,0.0
-11788,-576,10020,-317,179,-464,2025-02-17 10:47:08,0.0
-12040,-260,10368,-156,46,-375,2025-02-17 10:47:08,0.0
-11816,-800,9872,-394,5,-322,2025-02-17 10:47:08,0.0
-11544,-564,10372,-61,-174,-254,2025-02-17 10:47:08,0.0
-11636,-412,9976,-22,312,-55,2025-02-17 10:47:08,0.0
-11624,-352,9900,-124,482,-82,2025-02-17 10:47:08,0.0
-11812,-380,9916,-129,247,-199,2025-02-17 10:47:08,0.0
-11968,-476,9960,-104,150,-153,2025-02-17 10:47:08,0.0
-11948,-544,10168,-56,251,-111,2025-02-17 10:47:08,0.0
-11892,-536,9840,11,235,-67,2025-02-17 10:47:08,0.0
-11764,-520,9468,-11,26,-48,2025-02-17 10:47:08,0.0
-11416,-456,9812,43,-149,-88,2025-02-17 10:47:08,0.0
-11808,-256,10004,72,127,5,2025-02-17 10:47:08,0.0
-11804,-160,10060,42,5,-84,2025-02-17 10:47:08,0.0
-11668,-168,10004,19,12,-82,2025-02-17 10:47:08,0.0
-11724,-196,10060,-2,187,-67,2025-02-17 10:47:08,0.0
-11712,-128,10120,-70,206,-56,2025-02-17 10:47:08,0.0
-11688,-268,10056,-97,170,-37,2025-02-17 10:47:08,0.0
-11684,-296,9972,-128,223,33,2025-02-17 10:47:08,0.0
-11772,-264,9988,-93,305,97,2025-02-17 10:47:08,0.0
-11824,-276,9972,-54,356,186,2025-02-17 10:47:08,0.0
-11824,-332,10032,-25,362,218,2025-02-17 10:47:08,0.0
-11976,-360,10232,-9,409,236,2025-02-17 10:47:08,0.0
-11788,-300,10352,77,244,290,2025-02-17 10:47:08,0.0
-11304,-356,10452,-20,375,403,2025-02-17 10:47:08,0.0
-11076,-496,9400,95,1408,908,2025-02-17 10:47:08,0.0
-9944,-296,9212,-98,1657,752,2025-02-17 10:47:09,0.0
-11272,60,9020,-563,1459,206,2025-02-17 10:47:09,0.0
-12520,72,8520,-575,1569,149,2025-02-17 10:47:09,0.0
-12912,-416,9024,-531,483,297,2025-02-17 10:47:09,
-11680,-1124,10288,-126,-903,103,2025-02-17 10:47:09,0.0
-11548,-240,9984,-466,-763,-59,2025-02-17 10:47:09,0.0
-11304,-140,9868,-619,10,-97,2025-02-17 10:47:09,0.0
-11232,-332,10092,-541,700,-228,2025-02-17 10:47:09,0.0
-11092,-432,10040,-569,891,-463,2025-02-17 10:47:09,0.0
-11136,-500,10108,-544,1044,-786,2025-02-17 10:47:09,0.0
-11760,-508,10260,-350,1391,-961,2025-02-17 10:47:09,0.0
-11924,-108,9788,-352,1450,-1046,2025-02-17 10:47:09,0.0
-11648,64,10000,-378,922,-1220,2025-02-17 10:47:09,0.0
-11440,-56,10204,-299,1004,-1494,2025-02-17 10:47:09,0.0
-11160,-336,10296,-292,1689,-1589,2025-02-17 10:47:09,0.0
-11424,-600,10120,-173,1941,-1545,2025-02-17 10:47:09,0.0
-11208,-452,9996,-104,2161,-1671,2025-02-17 10:47:09,0.0
-11708,-116,9968,64,2506,-1539,2025-02-17 10:47:09,0.0
-12316,64,9796,92,2337,-1275,2025-02-17 10:47:09,0.0
-12356,264,9644,38,1698,-894,2025-02-17 10:47:09,0.0
-11992,608,9524,-86,1344,-353,2025-02-17 10:47:09,0.0
-11756,820,9640,-63,1592,-149,2025-02-17 10:47:09,0.0
-11852,588,9348,-193,2030,163,2025-02-17 10:47:09,0.0
-12084,16,9024,-261,2166,278,2025-02-17 10:47:09,0.0
-12000,-240,8660,-639,1808,197,2025-02-17 10:47:09,0.0
-11764,-688,8372,-963,1592,-67,2025-02-17 10:47:09,0.0
-12052,-1068,8816,-1045,1796,-324,2025-02-17 10:47:09,0.0
-12212,-904,9516,-1109,2110,-489,2025-02-17 10:47:09,0.0
-11484,-916,9576,-1116,2403,-674,2025-02-17 10:47:09,0.0
-11580,-1512,10096,-1058,3469,-1092,2025-02-17 10:47:09,0.0
-10036,-2296,11044,-689,6116,-700,2025-02-17 10:47:09,0.0
-10316,-2280,8184,-295,5978,-379,2025-02-17 10:47:09,0.0
772,96,4680,-89,8411,-804,2025-02-17 10:47:09,0.0
-11044,-788,7768,562,2805,-406,2025-02-17 10:47:09,0.0
-13012,12,7964,462,1491,-12,2025-02-17 10:47:09,0.0
-11232,352,9512,120,1717,-468,2025-02-17 10:47:09,0.0
-11528,192,10392,-255,3701,-1006,2025-02-17 10:47:09,0.0
-12680,28,11576,-406,6772,-1244,2025-02-17 10:47:09,0.0
-14200,344,12376,-411,10297,-1564,2025-02-17 10:47:09,0.0
-16132,720,11308,-416,13446,-1565,2025-02-17 10:47:09,0.0
-17336,-12,10480,-247,15441,-1273,2025-02-17 10:47:09,0.0
-17352,-676,10784,668,15345,-972,2025-02-17 10:47:09,0.0
-18000,-876,9108,944,14472,-1150,2025-02-17 10:47:09,0.0
-18188,-1084,8400,1171,13563,-1062,2025-02-17 10:47:09,0.0
-18864,-1436,8816,1235,10741,-972,2025-02-17 10:47:09,0.0
-18816,-2788,7928,1783,8038,-1147,2025-02-17 10:47:09,0.0
-18868,-3768,5784,1913,6188,-1349,2025-02-17 10:47:09,0.0
-19392,-2028,4796,1731,4481,-557,2025-02-17 10:47:09,0.0
-16808,1252,3796,1071,2429,-221,2025-02-17 10:47:09,0.0
-13920,1268,3440,336,1686,-511,2025-02-17 10:47:09,0.0
-12720,984,3268,-269,3886,-512,2025-02-17 10:47:09,0.0
-13192,304,2996,-725,7931,-655,2025-02-17 10:47:09,0.0
-13908,-488,3636,-812,11299,-1141,2025-02-17 10:47:09,0.0
-16032,-1508,1128,-1032,12102,-1434,2025-02-17 10:47:09,0.0
-17276,-1984,352,-1152,12208,-1179,2025-02-17 10:47:09,0.0
-17436,-2104,-200,-1144,11132,-707,2025-02-17 10:47:09,0.0
-17108,-1584,84,-939,9801,-449,2025-02-17 10:47:09,0.0
-16336,-992,180,-725,8391,-526,2025-02-17 10:47:09,0.0
-15936,-256,440,-796,7276,-777,2025-02-17 10:47:09,0.0
-15140,-384,540,-1088,7221,-1008,2025-02-17 10:47:09,0.0
-15520,-640,932,-1105,7738,-1005,2025-02-17 10:47:10,0.0
-14680,-612,380,-422,8259,-859,2025-02-17 10:47:10,0.0
-14392,-800,8,168,8815,-547,2025-02-17 10:47:10,0.0
-13804,-900,-432,550,9246,-488,2025-02-17 10:47:10,0.0
-12976,-1172,-1232,1140,9237,-930,2025-02-17 10:47:10,0.0
-13284,-1180,-1824,980,8422,-1304,2025-02-17 10:47:10,0.0
-13260,-1656,-1292,1051,7237,-1680,2025-02-17 10:47:10,0.0
-12888,-2148,-1372,1780,5691,-1516,2025-02-17 10:47:10,0.0
-13360,-1372,-1660,1986,3122,-419,2025-02-17 10:47:10,0.0
-9312,-132,-2288,1790,1238,255,2025-02-17 10:47:10,0.0
-9852,-856,-1440,1402,319,28,2025-02-17 10:47:10,0.0
-9568,-1180,-1176,1771,0,-313,2025-02-17 10:47:10,0.0
-8976,-1852,-1816,1740,336,-397,2025-02-17 10:47:10,0.0
-7844,-2172,-1432,1609,361,-619,2025-02-17 10:47:10,0.0
-7324,-3048,-464,1790,316,-1005,2025-02-17 10:47:10,0.0
-7452,-3372,-460,1840,769,-1615,2025-02-17 10:47:10,0.0
-8028,-3196,-1380,1420,1762,-1602,2025-02-17 10:47:10,0.0
-8324,-2608,-2620,577,2624,-1664,2025-02-17 10:47:10,0.0
-8804,-1956,-3220,-404,3606,-1994,2025-02-17 10:47:10,0.0
-9580,-1284,-3832,-1446,4615,-2263,2025-02-17 10:47:10,0.0
-10680,-1824,-2560,-1446,5573,-2060,2025-02-17 10:47:10,0.0
-11264,-2804,-2704,-616,5899,-1513,2025-02-17 10:47:10,0.0
-11280,-3136,-2832,-339,5418,-1080,2025-02-17 10:47:10,0.0
-11524,-3036,-2832,62,4212,-832,2025-02-17 10:47:10,0.0
-11572,-2432,-2528,539,2554,-302,2025-02-17 10:47:10,0.0
-11460,-1980,-1684,880,422,253,2025-02-17 10:47:10,0.0
-11256,-1684,-1692,907,-499,451,2025-02-17 10:47:10,0.0
-10796,-1524,-2356,242,-611,179,2025-02-17 10:47:10,0.0
-10628,-1752,-2292,-252,-870,-772,2025-02-17 10:47:10,0.0
-11504,-2244,-2212,-741,-880,-1725,2025-02-17 10:47:10,0.0
-12700,-3140,-1960,-903,-1061,-1480,2025-02-17 10:47:10,0.0
-12816,-3632,-1760,-505,-1591,-1126,2025-02-17 10:47:10,0.0
-12948,-4048,-2256,-492,-2020,-564,2025-02-17 10:47:10,0.0
-12804,-4192,-1184,-710,-1505,-287,2025-02-17 10:47:10,0.0
-13220,-3720,-1480,-1319,-1017,40,2025-02-17 10:47:10,0.0
-12820,-3660,-1720,-1852,-859,369,2025-02-17 10:47:10,0.0
-13164,-3832,-2100,-1855,-1264,419,2025-02-17 10:47:10,0.0
-13520,-3408,-2584,-2170,-1333,112,2025-02-17 10:47:10,0.0
-13820,-3144,-1200,-2432,-1276,-80,2025-02-17 10:47:10,0.0
-13868,-3220,-884,-2376,-1638,-548,2025-02-17 10:47:10,0.0
-14444,-2812,-1336,-2498,-1961,-854,2025-02-17 10:47:10,0.0
-14936,-3708,-3260,-3012,-3874,-38,2025-02-17 10:47:10,0.0
-14024,-2816,-3772,-3044,-4233,827,2025-02-17 10:47:10,0.0
-13064,-2036,-3804,-3775,-3833,977,2025-02-17 10:47:10,
-13008,-1656,-3124,-3871,-3123,958,2025-02-17 10:47:10,0.0
-13184,-1540,-2952,-3699,-2815,1019,2025-02-17 10:47:10,0.0
-13416,-1072,-2140,-3326,-2781,915,2025-02-17 10:47:10,0.0
-13600,-1168,-1320,-2774,-3744,912,2025-02-17 10:47:10,0.0
-13156,-1356,-1232,-2167,-4541,1272,2025-02-17 10:47:10,0.0
-11780,-1700,-1016,-1145,-4693,908,2025-02-17 10:47:10,0.0
-11956,-1000,-1068,-562,-3041,821,2025-02-17 10:47:10,0.0
-12444,-288,-1480,-467,-68,1096,2025-02-17 10:47:10,0.0
-13404,180,-2776,-1125,2135,1297,2025-02-17 10:47:10,0.0
-14440,256,-2352,-1736,2467,1427,2025-02-17 10:47:10,0.0
-14932,432,-1668,-1860,1723,1565,2025-02-17 10:47:10,0.0
-14184,620,-1408,-1586,-22,1404,2025-02-17 10:47:11,0.0
-14056,624,-908,-964,-1335,971,2025-02-17 10:47:11,0.0
-13676,292,-424,-421,-2504,834,2025-02-17 10:47:11,0.0
-13180,192,212,639,-2933,827,2025-02-17 10:47:11,0.0
-12512,76,348,1588,-3344,783,2025-02-17 10:47:11,0.0
-12172,240,20,1888,-3068,417,2025-02-17 10:47:11,0.0
-12444,-216,-488,1192,-2551,250,2025-02-17 10:47:11,0.0
-12488,-972,-76,398,-1716,89,2025-02-17 10:47:11,0.0
-12872,-2088,1844,998,-487,-69,2025-02-17 10:47:11,0.0
-13780,-2560,956,2371,918,550,2025-02-17 10:47:11,0.0
-14148,-1576,-1532,2602,2834,2858,2025-02-17 10:47:11,0.0
-12952,-788,-3124,1604,5484,4470,2025-02-17 10:47:11,0.0
-11368,-484,-4856,-181,9756,4838,2025-02-17 10:47:11,0.0
-10064,72,-6348,-3836,16345,3990,2025-02-17 10:47:11,0.0
-9448,500,-3936,-5960,22645,2820,2025-02-17 10:47:11,0.0
-8432,852,-836,-5337,29244,1315,2025-02-17 10:47:11,0.0
-8320,808,-904,-2446,32767,376,2025-02-17 10:47:11,0.0
-10016,1172,-2572,-766,32767,1943,2025-02-17 10:47:11,0.0
-10220,1848,-1988,323,32767,6350,2025-02-17 10:47:11,0.0
-6680,1420,-2192,118,32767,11477,2025-02-17 10:47:11,0.0
-4112,1368,-2600,-2587,32767,16042,2025-02-17 10:47:11,0.0
1996,-644,-188,-6448,32767,17949,2025-02-17 10:47:11,0.0
3380,-1300,1784,-9287,32767,16452,2025-02-17 10:47:11,0.0
3880,-1908,4216,-8526,32767,14344,2025-02-17 10:47:11,0.0
3164,-1372,3708,-5805,32767,12740,2025-02-17 10:47:11,0.0
2748,-840,2100,-6122,32767,12386,2025-02-17 10:47:11,0.0
2568,-960,2008,-6882,32767,11778,2025-02-17 10:47:11,0.0
2608,-868,2364,-7368,32767,11361,2025-02-17 10:47:11,0.0
2368,-700,2468,-7723,32767,10637,2025-02-17 10:47:11,0.0
3488,-748,1636,-7992,32690,9893,2025-02-17 10:47:11,0.0
2748,-596,2248,-8168,32405,9027,2025-02-17 10:47:11,0.0
2912,-540,2128,-8239,32096,8257,2025-02-17 10:47:11,0.0
2632,-532,2020,-8217,31781,7681,2025-02-17 10:47:11,0.0
2732,-568,2372,-8227,31232,7163,2025-02-17 10:47:11,0.0
2576,-420,2180,-8029,30565,6799,2025-02-17 10:47:11,0.0
2548,-456,1960,-7837,29772,6511,2025-02-17 10:47:11,0.0
2576,-500,2072,-7710,28930,6298,2025-02-17 10:47:11,0.0
2608,-452,2084,-7488,27801,6080,2025-02-17 10:47:11,0.0
2864,-480,1768,-7234,26707,5848,2025-02-17 10:47:11,0.0
2868,-484,1996,-6961,25471,5626,2025-02-17 10:47:11,0.0
3004,-364,1908,-6674,24281,5459,2025-02-17 10:47:11,0.0
3396,-336,1596,-6249,22889,5326,2025-02-17 10:47:11,0.0
-1000,4360,-7452,-4225,19106,7702,2025-02-17 10:47:11,0.0
32767,32767,-32768,5556,-32768,32767,2025-02-17 10:47:11,0.0
32767,32767,-32768,18131,-2580,22831,2025-02-17 10:47:11,0.0
32767,1896,-29356,-8406,23471,1409,2025-02-17 10:47:11,0.0
10028,-2012,-4912,-14431,16052,-3379,2025-02-17 10:47:11,0.0
3188,-1752,236,-16166,7376,-5373,2025-02-17 10:47:11,0.0
2544,-1836,28,-20110,6112,-7445,2025-02-17 10:47:11,0.0
3492,-1616,-328,-23437,5968,-8959,2025-02-17 10:47:11,0.0
2744,-1752,840,-26062,5756,-10040,2025-02-17 10:47:11,0.0
3456,-1532,2168,-26726,5400,-10920,2025-02-17 10:47:11,0.0
4312,-492,5148,-25281,5184,-11653,2025-02-17 10:47:11,0.0
4764,3528,13016,-15134,2550,-9020,2025-02-17 10:47:11,0.0
5524,10388,11252,5918,-1935,4907,2025-02-17 10:47:11,0.0
7300,11536,7148,14522,-3215,14875,2025-02-17 10:47:11,0.0
12472,11112,3944,19384,-4492,21584,2025-02-17 10:47:11,0.0
20052,9984,1388,22460,-6411,23112,2025-02-17 10:47:11,0.0
26160,7900,-4740,23040,-10279,19630,2025-02-17 10:47:11,0.0
28580,5136,-10124,20256,-16255,13451,2025-02-17 10:47:11,0.0
27344,152,-16840,14945,-29401,8068,2025-02-17 10:47:11,0.0
23696,-2796,-18088,8754,-32768,2962,2025-02-17 10:47:11,0.0
15496,-2356,-15864,2823,-32768,-3216,2025-02-17 10:47:12,0.0
7112,900,-13156,948,-27497,-5400,2025-02-17 10:47:12,0.0
2624,3732,-15356,-69,-9751,-4508,2025-02-17 10:47:12,0.0
4152,5744,-15884,-1789,5334,-1834,2025-02-17 10:47:12,0.0
10284,5532,-12072,-1296,9780,-748,2025-02-17 10:47:12,0.0
13296,4252,-10804,-101,9958,-419,2025-02-17 10:47:12,0.0
14868,3596,-9964,-24,7980,-296,2025-02-17 10:47:12,0.0
15320,3176,-8820,-314,4732,-330,2025-02-17 10:47:12,0.0
15152,3512,-8532,-384,950,-512,2025-02-17 10:47:12,0.0
14148,3992,-8328,-356,-2511,-525,2025-02-17 10:47:12,0.0
12980,4292,-9724,-79,-4102,-242,2025-02-17 10:47:12,0.0
12276,3860,-11716,174,-3252,-101,2025-02-17 10:47:12,0.0
11816,3540,-12328,-24,-424,-186,2025-02-17 10:47:12,0.0
12276,3752,-11540,-327,1572,-234,2025-02-17 10:47:12,0.0
12812,3900,-10384,-203,1780,-226,2025-02-17 10:47:12,0.0
13404,3920,-9932,-206,933,-205,2025-02-17 10:47:12,0.0
13352,3800,-9992,-66,-214,-113,2025-02-17 10:47:12,0.0
13064,3580,-10860,-154,-627,-200,2025-02-17 10:47:12,0.0
12628,3752,-10912,-276,-228,-271,2025-02-17 10:47:12,0.0
12596,3964,-10768,-141,511,-143,2025-02-17 10:47:12,0.0
12980,3736,-10432,-118,407,-154,2025-02-17 10:47:12,0.0
13048,3708,-10460,-155,188,-165,2025-02-17 10:47:12,0.0
13184,3720,-10556,-141,85,-186,2025-02-17 10:47:12,0.0
12856,3724,-10672,-208,-27,-184,2025-02-17 10:47:12,0.0
12668,3756,-10640,-181,193,-182,2025-02-17 10:47:12,0.0
12892,3776,-10684,-145,292,-148,2025-02-17 10:47:12,0.0
12916,3736,-10512,-154,273,-142,2025-02-17 10:47:12,
13040,3700,-10468,-173,132,-202,2025-02-17 10:47:12,0.0
12824,3912,-10636,-166,72,-199,2025-02-17 10:47:12,0.0
12832,3888,-10612,-150,180,-172,2025-02-17 10:47:12,0.0
12924,3720,-10616,-171,229,-169,2025-02-17 10:47:12,0.0
12928,3728,-10504,-163,196,-151,2025-02-17 10:47:12,0.0
12968,3800,-10620,-139,148,-167,2025-02-17 10:47:12,0.0
12916,3808,-10600,-170,131,-168,2025-02-17 10:47:12,0.0
12792,3736,-10436,-157,213,-171,2025-02-17 10:47:12,0.0
12856,3796,-10660,-196,225,-184,2025-02-17 10:47:12,0.0
12884,3776,-10512,-166,194,-193,2025-02-17 10:47:12,0.0
13000,3732,-10620,-154,153,-166,2025-02-17 10:47:12,0.0
12928,3748,-10600,-203,170,-168,2025-02-17 10:47:12,0.0
12908,3752,-10552,-179,175,-165,2025-02-17 10:47:12,0.0
12856,3812,-10532,-173,184,-178,2025-02-17 10:47:12,0.0
12904,3788,-10400,-158,185,-181,2025-02-17 10:47:12,0.0
12908,3820,-10624,-139,148,-179,2025-02-17 10:47:12,0.0
12916,3712,-10592,-145,174,-170,2025-02-17 10:47:12,0.0
12832,3804,-10688,-174,189,-163,2025-02-17 10:47:12,0.0
12892,3772,-10576,-129,183,-153,2025-02-17 10:47:12,0.0
12884,3780,-10652,-153,201,-189,2025-02-17 10:47:12,0.0
12864,3756,-10604,-167,165,-177,2025-02-17 10:47:12,0.0
12828,3752,-10692,-159,177,-168,2025-02-17 10:47:12,0.0
12988,3844,-10596,-168,164,-184,2025-02-17 10:47:12,0.0
12884,3828,-10628,-146,157,-170,2025-02-17 10:47:12,0.0
13000,3732,-10504,-147,179,-180,2025-02-17 10:47:12,0.0
12924,3828,-10648,-151,168,-169,2025-02-17 10:47:12,0.0
12812,3752,-10616,-147,174,-157,2025-02-17 10:47:12,0.0
12804,3788,-10648,-173,183,-166,2025-02-17 10:47:12,0.0
12924,3692,-10700,-151,172,-178,2025-02-17 10:47:12,0.0
12824,3780,-10520,-150,205,-174,2025-02-17 10:47:12,0.0
13000,3800,-10724,-160,193,-156,2025-02-17 10:47:12,0.0
12884,3696,-10604,-145,170,-181,2025-02-17 10:47:12,0.0
12928,3764,-10584,-151,189,-173,2025-02-17 10:47:12,0.0
12948,3824,-10508,-159,169,-178,2025-02-17 10:47:12,0.0
12888,3756,-10536,-151,193,-177,2025-02-17 10:47:12,0.0
12996,3756,-10608,-162,159,-187,2025-02-17 10:47:12,0.0
12840,3768,-10620,-167,190,-162,2025-02-17 10:47:13,0.0
12788,3668,-10584,-178,147,-179,2025-02-17 10:47:13,0.0
12968,3692,-10544,-179,174,-169,2025-02-17 10:47:13,0.0
12880,3784,-10556,-158,151,-192,2025-02-17 10:47:13,0.0
12848,3764,-10652,-157,197,-198,2025-02-17 10:47:13,0.0
12864,3756,-10516,-156,189,-193,2025-02-17 10:47:13,0.0
12920,3724,-10652,-167,197,-165,2025-02-17 10:47:13,0.0
12832,3776,-10700,-158,163,-169,2025-02-17 10:47:13,0.0
12904,3692,-10540,-166,171,-175,2025-02-17 10:47:13,0.0
12936,3796,-10576,-137,175,-179,2025-02-17 10:47:13,0.0
12820,3680,-10484,-187,168,-187,2025-02-17 10:47:13,0.0
12916,3792,-10672,-145,165,-172,2025-02-17 10:47:13,0.0
12912,3812,-10648,-177,165,-173,2025-02-17 10:47:13,0.0
12916,3764,-10640,-153,179,-187,2025-02-17 10:47:13,0.0
12908,3780,-10480,-172,184,-171,2025-02-17 10:47:13,0.0
12932,3752,-10676,-162,176,-174,2025-02-17 10:47:13,0.0
12884,3808,-10740,-172,174,-188,2025-02-17 10:47:13,0.0
12840,3724,-10528,-156,177,-166,2025-02-17 10:47:13,0.0
12984,3744,-10632,-160,158,-175,2025-02-17 10:47:13,0.0
12940,3756,-10588,-184,170,-186,2025-02-17 10:47:13,0.0
12936,3780,-10468,-170,180,-195,2025-02-17 10:47:13,0.0
12820,3704,-10612,-144,171,-145,2025-02-17 10:47:13,0.0
12872,3700,-10652,-165,193,-191,2025-02-17 10:47:13,0.0
12968,3748,-10572,-178,150,-173,2025-02-17 10:47:13,0.0
12868,3788,-10524,-166,157,-171,2025-02-17 10:47:13,0.0
12924,3832,-10612,-160,206,-176,2025-02-17 10:47:13,0.0
12908,3804,-10532,-173,186,-184,2025-02-17 10:47:13,0.0
12840,3748,-10616,-166,193,-158,2025-02-17 10:47:13,0.0
12868,3776,-10576,-173,154,-170,2025-02-17 10:47:13,0.0
12908,3828,-10648,-179,183,-176,2025-02-17 10:47:13,0.0
12932,3720,-10556,-141,180,-185,2025-02-17 10:47:13,0.0
12880,3732,-10608,-161,162,-169,2025-02-17 10:47:13,0.0
12896,3792,-10724,-169,177,-175,2025-02-17 10:47:13,0.0
12868,3716,-10504,-173,182,-171,2025-02-17 10:47:13,0.0
12840,3864,-10608,-164,175,-174,2025-02-17 10:47:13,0.0
12936,3764,-10556,-169,161,-184,2025-02-17 10:47:13,0.0
12924,3824,-10608,-157,163,-169,2025-02-17 10:47:13,0.0
12772,3756,-10588,-159,169,-174,2025-02-17 10:47:13,0.0
12960,3728,-10628,-131,196,-183,2025-02-17 10:47:13,0.0
12964,3804,-10508,-146,191,-162,2025-02-17 10:47:13,0.0
12932,3720,-10636,-148,170,-188,2025-02-17 10:47:13,0.0
12940,3752,-10620,-198,173,-162,2025-02-17 10:47:13,0.0
13016,3820,-10596,-157,174,-186,2025-02-17 10:47:13,0.0
12924,3804,-10632,-176,182,-180,2025-02-17 10:47:13,0.0
12984,3756,-10612,-166,152,-156,2025-02-17 10:47:13,0.0
12916,3768,-10472,-180,174,-161,2025-02-17 10:47:13,0.0
12928,3768,-10588,-141,173,-186,2025-02-17 10:47:13,0.0
12872,3708,-10652,-180,182,-186,2025-02-17 10:47:13,0.0
12920,3748,-10644,-170,156,-194,2025-02-17 10:47:13,0.0
12828,3728,-10640,-157,182,-190,2025-02-17 10:47:13,0.0
12924,3732,-10560,-157,203,-204,2025-02-17 10:47:13,0.0
12984,3748,-10624,-140,188,-185,2025-02-17 10:47:13,0.0
12796,3756,-10660,-146,198,-175,2025-02-17 10:47:13,0.0
13012,3752,-10572,-184,180,-180,2025-02-17 10:47:13,0.0
12900,3796,-10688,-133,183,-194,2025-02-17 10:47:13,0.0
13028,3820,-10660,-135,183,-142,2025-02-17 10:47:13,0.0
12912,3764,-10652,-158,172,-151,2025-02-17 10:47:13,0.0
12912,3720,-10664,-168,168,-166,2025-02-17 10:47:13,0.0
12848,3700,-10572,-139,170,-181,2025-02-17 10:47:13,0.0
12976,3740,-10568,-158,176,-169,2025-02-17 10:47:13,0.0
12900,3792,-10556,-158,181,-174,2025-02-17 10:47:14,0.0
12940,3804,-10684,-156,191,-163,2025-02-17 10:47:14,0.0
12920,3856,-10640,-170,186,-166,2025-02-17 10:47:14,0.0
12948,3684,-10712,-178,183,-157,2025-02-17 10:47:14,
12912,3724,-10644,-165,192,-175,2025-02-17 10:47:14,0.0
12936,3728,-10564,-143,162,-166,2025-02-17 10:47:14,0.0
12896,3784,-10680,-166,179,-192,2025-02-17 10:47:14,0.0
12864,3708,-10480,-158,182,-189,2025-02-17 10:47:14,0.0
12920,3660,-10512,-169,171,-184,2025-02-17 10:47:14,0.0
12920,3816,-10592,-179,185,-173,2025-02-17 10:47:14,0.0
12872,3812,-10536,-182,187,-165,2025-02-17 10:47:14,0.0
12812,3712,-10672,-154,188,-167,2025-02-17 10:47:14,0.0
12860,3776,-10632,-172,156,-181,2025-02-17 10:47:14,0.0
12936,3792,-10544,-159,163,-178,2025-02-17 10:47:14,0.0
13000,3720,-10776,-163,157,-172,2025-02-17 10:47:14,0.0
12860,3724,-10724,-146,177,-182,2025-02-17 10:47:14,0.0
12812,3728,-10560,-169,162,-164,2025-02-17 10:47:14,0.0
12880,3740,-10556,-165,183,-168,2025-02-17 10:47:14,0.0
12832,3764,-10768,-171,180,-192,2025-02-17 10:47:14,0.0
12992,3768,-10536,-156,176,-158,2025-02-17 10:47:14,0.0
12956,3740,-10520,-158,172,-168,2025-02-17 10:47:14,0.0
13016,3776,-10680,-144,167,-182,2025-02-17 10:47:14,0.0
12860,3712,-10540,-193,179,-188,2025-02-17 10:47:14,0.0
12836,3720,-10604,-138,186,-173,2025-02-17 10:47:14,0.0
12952,3824,-10500,-145,176,-167,2025-02-17 10:47:14,0.0
12856,3696,-10692,-165,166,-185,2025-02-17 10:47:14,0.0
12896,3676,-10664,-143,149,-172,2025-02-17 10:47:14,0.0
12900,3764,-10756,-165,181,-138,2025-02-17 10:47:14,0.0
12976,3760,-10556,-150,203,-177,2025-02-17 10:47:14,0.0
12932,3848,-10696,-176,146,-175,2025-02-17 10:47:14,0.0
12940,3848,-10572,-131,158,-151,2025-02-17 10:47:14,0.0
12884,3776,-10492,-161,177,-176,2025-02-17 10:47:14,0.0
12960,3680,-10520,-164,187,-169,2025-02-17 10:47:14,0.0
12924,3824,-10444,-150,200,-164,2025-02-17 10:47:14,0.0
12824,3788,-10612,-153,180,-197,2025-02-17 10:47:14,0.0
12924,3756,-10588,-143,182,-183,2025-02-17 10:47:14,0.0
12816,3844,-10636,-158,164,-189,2025-02-17 10:47:14,0.0
12996,3740,-10564,-159,156,-186,2025-02-17 10:47:14,0.0
12912,3768,-10516,-155,181,-190,2025-02-17 10:47:14,0.0
12984,3768,-10500,-141,170,-155,2025-02-17 10:47:14,0.0
12968,3712,-10556,-144,169,-165,2025-02-17 10:47:14,0.0
12936,3696,-10752,-161,176,-185,2025-02-17 10:47:14,0.0
12972,3764,-10680,-169,182,-177,2025-02-17 10:47:14,0.0
12960,3796,-10520,-136,178,-152,2025-02-17 10:47:14,0.0
13016,3804,-10644,-169,175,-177,2025-02-17 10:47:14,0.0
12944,3880,-10608,-169,140,-172,2025-02-17 10:47:14,0.0
12988,3752,-10688,-152,200,-180,2025-02-17 10:47:14,0.0
12896,3828,-10584,-160,184,-170,2025-02-17 10:47:14,0.0
12892,3664,-10652,-152,189,-178,2025-02-17 10:47:14,0.0
12876,3700,-10640,-177,179,-160,2025-02-17 10:47:14,0.0
12980,3764,-10556,-191,191,-163,2025-02-17 10:47:14,0.0
12968,3760,-10652,-147,191,-173,2025-02-17 10:47:14,0.0
12880,3832,-10544,-170,197,-178,2025-02-17 10:47:14,0.0
12876,3788,-10560,-165,158,-186,2025-02-17 10:47:14,0.0
12996,3768,-10712,-185,172,-201,2025-02-17 10:47:14,0.0
12816,3676,-10756,-198,187,-173,2025-02-17 10:47:14,0.0
12920,3676,-10684,-146,172,-165,2025-02-17 10:47:14,0.0
12976,3820,-10680,-174,202,-149,2025-02-17 10:47:14,0.0
12968,3768,-10548,-140,175,-192,2025-02-17 10:47:14,0.0
12968,3640,-10736,-145,166,-175,2025-02-17 10:47:14,0.0
12920,3728,-10616,-136,171,-168,2025-02-17 10:47:14,0.0
12916,3820,-10756,-153,181,-167,2025-02-17 10:47:15,0.0
12856,3796,-10676,-143,166,-184,2025-02-17 10:47:15,0.0
12820,3724,-10508,-186,191,-189,2025-02-17 10:47:15,0.0
12872,3804,-10696,-165,195,-181,2025-02-17 10:47:15,0.0
12632,4080,-9916,84,67,5,2025-02-17 10:47:15,0.0
13552,3544,-10956,29,299,72,2025-02-17 10:47:15,0.0
13636,3300,-11008,12,275,-158,2025-02-17 10:47:15,0.0
12292,3988,-9416,-85,25,17,2025-02-17 10:47:15,0.0
12184,4360,-10496,189,-315,270,2025-02-17 10:47:15,0.0
12896,3784,-11348,313,279,305,2025-02-17 10:47:15,0.0
13044,3456,-10764,139,998,238,2025-02-17 10:47:15,0.0
14216,2624,-10656,-470,654,-20,2025-02-17 10:47:15,0.0
12580,4072,-10188,-339,-276,-259,2025-02-17 10:47:15,0.0
13500,3700,-10056,-208,-73,-208,2025-02-17 10:47:15,0.0
13108,3888,-11012,-241,-235,-218,2025-02-17 10:47:15,0.0
12552,3992,-10660,4,-152,-261,2025-02-17 10:47:15,0.0
12376,3816,-10360,-124,391,-29,2025-02-17 10:47:15,0.0
13412,3448,-10776,46,896,-205,2025-02-17 10:47:15,0.0
13996,3172,-10472,-264,722,-440,2025-02-17 10:47:15,0.0
13664,3360,-10728,-502,-424,-781,2025-02-17 10:47:15,0.0
13404,3680,-10456,-544,-963,-1173,2025-02-17 10:47:15,0.0
12924,3916,-10120,-250,-1528,-1452,2025-02-17 10:47:15,0.0
12276,3964,-10416,212,-1345,-1990,2025-02-17 10:47:15,0.0
9292,4388,-12664,-381,188,-59,2025-02-17 10:47:15,0.0
14804,4144,-10132,579,1464,-664,2025-02-17 10:47:15,0.0
14712,3160,-10708,839,645,-873,2025-02-17 10:47:15,0.0
13004,3344,-9088,1686,-864,-1798,2025-02-17 10:47:15,0.0
14412,3836,-8872,4549,-2936,-3443,2025-02-17 10:47:15,0.0
14488,3768,-9912,7984,-7279,-5449,2025-02-17 10:47:15,0.0
12116,3456,-11432,8973,-11971,-5818,2025-02-17 10:47:15,0.0
11904,3268,-13672,8432,-16327,-4341,2025-02-17 10:47:15,0.0
11308,3192,-15700,5947,-21069,-3258,2025-02-17 10:47:15,0.0
9296,3460,-15020,3251,-24248,-1688,2025-02-17 10:47:15,0.0
8248,4296,-14416,2568,-29611,1117,2025-02-17 10:47:15,0.0
7332,4804,-13612,4241,-32768,3708,2025-02-17 10:47:15,0.0
8072,3808,-16572,6857,-32768,4570,2025-02-17 10:47:15,0.0
8736,2796,-17840,6953,-32768,2566,2025-02-17 10:47:15,0.0
19012,2292,-18788,5159,-32768,-3560,2025-02-17 10:47:15,0.0
8328,2584,-16428,4000,-32768,-9626,2025-02-17 10:47:15,0.0
6456,3336,-14064,6648,-32768,-17102,2025-02-17 10:47:15,0.0
1844,1640,-18416,7997,-32768,-24804,2025-02-17 10:47:15,0.0
-4224,224,-24264,2742,-31838,-27700,2025-02-17 10:47:15,0.0
-8620,172,-25760,-4354,-21002,-25482,2025-02-17 10:47:15,
-9284,996,-22868,-8854,-9394,-21407,2025-02-17 10:47:15,0.0
-8088,1800,-19160,-8737,1773,-18185,2025-02-17 10:47:15,0.0
-6028,2256,-17708,-5250,10203,-15898,2025-02-17 10:47:15,0.0
-5436,1796,-19236,-2039,13716,-13275,2025-02-17 10:47:15,0.0
-4484,688,-20964,-1742,11412,-10654,2025-02-17 10:47:15,0.0
-1052,-348,-22308,-3969,7948,-10375,2025-02-17 10:47:15,0.0
140,-876,-21100,-3917,4525,-11619,2025-02-17 10:47:15,0.0
-4032,-1020,-20608,-1582,687,-12028,2025-02-17 10:47:15,0.0
-6228,-684,-23380,-2760,-374,-9356,2025-02-17 10:47:15,0.0
-4540,1408,-20964,-3534,-3090,-7228,2025-02-17 10:47:15,0.0
-4940,3052,-19740,-626,-4992,-6619,2025-02-17 10:47:15,0.0
-9060,3028,-20496,4483,-4446,-5586,2025-02-17 10:47:15,0.0
-12688,652,-23664,7340,-2293,-315,2025-02-17 10:47:15,0.0
-3936,-1932,-23116,5852,-6290,2752,2025-02-17 10:47:15,0.0
1876,-4028,-21920,3129,-15663,-392,2025-02-17 10:47:15,0.0
60,-5500,-19772,164,-24640,-3739,2025-02-17 10:47:15,0.0
-5248,-6492,-16216,-1244,-28524,-3464,2025-02-17 10:47:15,0.0
-7336,-6768,-12568,-81,-27512,-1105,2025-02-17 10:47:16,0.0
-7788,-6272,-10876,2122,-22900,1547,2025-02-17 10:47:16,0.0
-7940,-6080,-10040,4985,-16576,2770,2025-02-17 10:47:16,0.0
-10120,-5072,-12356,5529,-8958,4434,2025-02-17 10:47:16,0.0
-9980,-2832,-14464,3363,-456,5966,2025-02-17 10:47:16,0.0
-8296,64,-14220,-712,8999,6109,2025-02-17 10:47:16,0.0
-4708,2564,-12320,-4188,15142,4038,2025-02-17 10:47:16,0.0
-2608,5360,-9784,-6059,17919,1374,2025-02-17 10:47:16,0.0
-2268,7212,-5812,-4778,17413,-121,2025-02-17 10:47:16,0.0
-1544,7088,-2924,-1392,13937,26,2025-02-17 10:47:16,0.0
-552,5240,-2108,2991,9187,494,2025-02-17 10:47:16,0.0
-408,3016,-2280,7263,4606,144,2025-02-17 10:47:16,0.0
-1324,344,-4564,9702,955,-430,2025-02-17 10:47:16,0.0
-2796,-1852,-7552,8954,-2024,-107,2025-02-17 10:47:16,0.0
-2904,-3260,-10452,5832,-4491,1074,2025-02-17 10:47:16,0.0
-4240,-3956,-9084,1244,-6652,3555,2025-02-17 10:47:16,0.0
-4288,-3184,-6716,-2261,-8526,5949,2025-02-17 10:47:16,0.0
-3788,-1964,-5572,-3280,-9236,6782,2025-02-17 10:47:16,0.0
-3384,-152,-5288,-3025,-9152,6474,2025-02-17 10:47:16,0.0
-3064,1716,-5524,-2391,-8804,5075,2025-02-17 10:47:16,0.0
-2624,2920,-6304,-1545,-8522,2733,2025-02-17 10:47:16,0.0
-2840,3456,-6760,-467,-8459,10,2025-02-17 10:47:16,0.0
-4060,2788,-7536,766,-8979,-2517,2025-02-17 10:47:16,0.0
-5600,1360,-8076,1295,-9895,-3040,2025-02-17 10:47:16,0.0
-6568,-240,-8772,858,-10786,-2346,2025-02-17 10:47:16,0.0
-6152,-1752,-8440,-363,-11910,-1331,2025-02-17 10:47:16,0.0
-5528,-2436,-8520,-1760,-13136,-905,2025-02-17 10:47:16,0.0
-5036,-2432,-8048,-3466,-15018,-574,2025-02-17 10:47:16,0.0
-4328,-1840,-7664,-4551,-16656,-795,2025-02-17 10:47:16,0.0
-4656,-1032,-6760,-4721,-17794,-1528,2025-02-17 10:47:16,0.0
-5624,-252,-6640,-4446,-17894,-2389,2025-02-17 10:47:16,0.0
-6956,332,-6312,-4043,-16960,-2689,2025-02-17 10:47:16,0.0
-8212,808,-5856,-3386,-15264,-2256,2025-02-17 10:47:16,0.0
-8908,728,-5288,-1983,-12305,-1894,2025-02-17 10:47:16,0.0
-8548,-216,-5368,88,-7252,-2513,2025-02-17 10:47:16,0.0
-8708,-1816,-6752,424,-1903,-4020,2025-02-17 10:47:16,0.0
-9216,-3044,-7984,-1093,2900,-5310,2025-02-17 10:47:16,0.0
-10924,-3568,-8604,-3356,6604,-4844,2025-02-17 10:47:16,0.0
-11292,-3400,-8656,-5733,9704,-2875,2025-02-17 10:47:16,0.0
-11580,-2508,-7232,-6881,11783,-356,2025-02-17 10:47:16,0.0
-11396,-848,-5120,-5790,13948,1526,2025-02-17 10:47:16,0.0
-15620,900,11428,-1947,10166,1606,2025-02-17 10:47:16,0.0
-21448,1536,9664,3910,-5556,1373,2025-02-17 10:47:16,0.0
-15848,116,-7116,3579,72,-571,2025-02-17 10:47:16,0.0
-10228,868,-15768,919,-2807,-1630,2025-02-17 10:47:16,0.0
-9600,120,-17124,-697,-10407,-571,2025-02-17 10:47:16,0.0
-12824,-1028,-11892,-669,-23993,1724,2025-02-17 10:47:16,0.0
-14164,-1044,-1544,728,-32768,3128,2025-02-17 10:47:16,0.0
-13120,-800,-4192,1316,-32768,2903,2025-02-17 10:47:16,0.0
-10344,-684,-6432,437,-32768,1184,2025-02-17 10:47:16,0.0
-11624,488,3216,1976,-32768,-1021,2025-02-17 10:47:16,0.0
-18948,-1544,1968,6198,-23244,-1746,2025-02-17 10:47:16,0.0
-4396,608,-1340,451,-4980,-2758,2025-02-17 10:47:16,0.0
-7048,280,416,-1198,3745,-3008,2025-02-17 10:47:16,0.0
-10688,-576,-728,-522,10737,-1047,2025-02-17 10:47:16,0.0
-11956,-644,-728,168,13413,-52,2025-02-17 10:47:16,0.0
-12824,-500,-804,-498,10509,-1041,2025-02-17 10:47:16,0.0
-16036,128,-1056,-1203,7376,-1743,2025-02-17 10:47:16,0.0
-18532,-276,-292,-1810,5225,-693,2025-02-17 10:47:16,0.0
-18028,-1512,16,-599,1357,625,2025-02-17 10:47:16,0.0
-16576,-1092,-1468,832,-4040,1808,2025-02-17 10:47:16,0.0
-14576,-736,-1372,1032,-6607,1786,2025-02-17 10:47:16,0.0
-12344,-344,-1584,819,-6266,563,2025-02-17 10:47:17,0.0
-11764,-592,-580,1166,-4273,-296,2025-02-17 10:47:17,0.0
-12092,-744,-928,1157,-1099,-230,2025-02-17 10:47:17,0.0
-12124,-256,-2088,75,1630,-652,2025-02-17 10:47:17,0.0
-13288,-80,-1684,-2495,2686,-1232,2025-02-17 10:47:17,0.0
-13968,-956,764,-1577,1649,-1592,2025-02-17 10:47:17,0.0
-14816,-1320,-604,-452,54,-968,2025-02-17 10:47:17,0.0
-14656,-1244,-1072,-241,-1326,81,2025-02-17 10:47:17,0.0
-14092,-620,-2092,-676,-986,846,2025-02-17 10:47:17,0.0
-14352,-600,-1832,-1723,656,1709,2025-02-17 10:47:17,0.0
-13792,-548,-1972,-2149,1738,2335,2025-02-17 10:47:17,0.0
-13132,-484,-2372,-1786,1246,2040,2025-02-17 10:47:17,0.0
-12844,24,-2548,-2085,948,992,2025-02-17 10:47:17,0.0
-13364,352,-2232,-2562,998,274,2025-02-17 10:47:17,0.0
-13336,264,-1984,-3002,732,-166,2025-02-17 10:47:17,0.0
-13216,-100,-2056,-3290,260,-569,2025-02-17 10:47:17,0.0
-12948,132,-2504,-3657,155,-1119,2025-02-17 10:47:17,0.0
-12880,188,-2524,-3948,497,-1817,2025-02-17 10:47:17,0.0
-13196,-184,-2576,-3971,576,-2409,2025-02-17 10:47:17,0.0
-13444,-368,-2652,-4179,-134,-2401,2025-02-17 10:47:17,0.0
-13812,-680,-2184,-4189,-1445,-1910,2025-02-17 10:47:17,
-13888,-512,-2304,-4282,-2444,-1375,2025-02-17 10:47:17,0.0
-13400,-336,-2216,-4680,-2690,-1076,2025-02-17 10:47:17,0.0
-12252,-148,-2520,-5148,-1662,-1661,2025-02-17 10:47:17,0.0
-11384,116,-2596,-5667,-191,-3568,2025-02-17 10:47:17,0.0
-11248,484,-2532,-6092,800,-6011,2025-02-17 10:47:17,0.0
-12040,228,-2220,-6017,1576,-8327,2025-02-17 10:47:17,0.0
-14020,-1212,-2368,-5341,1464,-8982,2025-02-17 10:47:17,0.0
-16760,-3212,-2988,-4656,182,-6841,2025-02-17 10:47:17,0.0
-17660,-3852,-2548,-5506,421,-1267,2025-02-17 10:47:17,0.0
-13044,-1884,-1004,-5571,2224,1336,2025-02-17 10:47:17,0.0
-12032,-976,-896,-5703,2952,236,2025-02-17 10:47:17,0.0
-13204,-344,440,-5838,3513,255,2025-02-17 10:47:17,0.0
-12740,-160,1268,-5197,3410,-305,2025-02-17 10:47:17,0.0
-14032,-72,1452,-4159,2424,-507,2025-02-17 10:47:17,0.0
-14684,-144,1176,-3202,1887,-50,2025-02-17 10:47:17,0.0
-11836,800,-604,-1590,772,6384,2025-02-17 10:47:17,0.0
-12416,448,-448,-806,3347,8792,2025-02-17 10:47:17,0.0
-11840,-148,-1056,-250,6588,10288,2025-02-17 10:47:17,0.0
-10464,-116,-2348,35,9964,9743,2025-02-17 10:47:17,0.0
-9028,1800,-3360,-639,13952,5027,2025-02-17 10:47:17,0.0
-11004,3128,-2140,-1250,15067,-951,2025-02-17 10:47:17,0.0
-17168,1816,-2444,-1579,8774,-2795,2025-02-17 10:47:17,0.0
-17988,96,-1520,-211,1344,-1101,2025-02-17 10:47:17,0.0
-14348,804,-2792,791,-2843,-535,2025-02-17 10:47:17,0.0
-12368,1108,-2936,718,-2922,-802,2025-02-17 10:47:17,0.0
-11272,972,-2816,1202,-1939,-1111,2025-02-17 10:47:17,0.0
-10800,616,-2748,2087,-480,-1442,2025-02-17 10:47:17,0.0
-10552,640,-3180,2685,288,-1632,2025-02-17 10:47:17,0.0
-10756,948,-3368,2962,1128,-1992,2025-02-17 10:47:17,0.0
-11344,1060,-3512,3009,1689,-2487,2025-02-17 10:47:17,0.0
-11460,664,-3128,3267,1479,-3166,2025-02-17 10:47:17,0.0
-11568,44,-3696,3316,634,-3942,2025-02-17 10:47:17,0.0
-11752,64,-3340,3276,470,-4323,2025-02-17 10:47:17,0.0
-11208,-232,-3120,3544,135,-4697,2025-02-17 10:47:17,0.0
-11124,-500,-3240,3746,99,-5116,2025-02-17 10:47:18,0.0
-11748,-244,-3640,3858,1133,-5106,2025-02-17 10:47:18,0.0
-12524,-484,-4168,3698,3027,-5106,2025-02-17 10:47:18,0.0
-13436,-344,-4444,3483,3444,-4766,2025-02-17 10:47:18,0.0
-14472,-216,-4900,3371,2799,-4266,2025-02-17 10:47:18,0.0
-15432,-356,-5356,3163,2429,-3377,2025-02-17 10:47:18,0.0
-15944,-844,-6256,3202,1302,-2528,2025-02-17 10:47:18,0.0
-15920,-148,-5576,3752,-440,-1401,2025-02-17 10:47:18,0.0
-14672,-600,-5100,4393,-1348,-295,2025-02-17 10:47:18,0.0
-13768,-1024,-6288,4626,-2202,711,2025-02-17 10:47:18,0.0
-13568,-2116,-7168,4364,-2279,1502,2025-02-17 10:47:18,0.0
-13168,-3136,-6200,4505,-2568,2191,2025-02-17 10:47:18,0.0
-12928,-3900,-2648,5377,-3002,2430,2025-02-17 10:47:18,0.0
-12792,-3284,284,6233,-2307,2296,2025-02-17 10:47:18,0.0
-12660,-1912,596,5533,-642,1171,2025-02-17 10:47:18,0.0
-15368,-1552,432,4278,407,261,2025-02-17 10:47:18,0.0
-15628,-2248,-1924,3356,-839,433,2025-02-17 10:47:18,0.0
-15740,-2440,-828,2595,-3690,772,2025-02-17 10:47:18,0.0
-14688,-2400,412,2615,-5335,366,2025-02-17 10:47:18,0.0
-12972,-2736,-376,2406,-5481,-516,2025-02-17 10:47:18,0.0
-13132,-3056,-320,1645,-3857,-1493,2025-02-17 10:47:18,0.0
-13676,-3628,100,951,-2025,-1862,2025-02-17 10:47:18,0.0
-14028,-4860,-308,609,-1713,-1143,2025-02-17 10:47:18,0.0
-12920,-4852,156,961,-1815,-303,2025-02-17 10:47:18,0.0
-11776,-3252,-884,1399,-1277,-231,2025-02-17 10:47:18,0.0
-11428,-1604,-2328,942,-5,-414,2025-02-17 10:47:18,0.0
-11584,-980,-3212,-106,1848,-562,2025-02-17 10:47:18,0.0
-12084,-1832,-1816,-1164,3060,-773,2025-02-17 10:47:18,0.0
-12764,-2316,-1152,-1643,3150,-871,2025-02-17 10:47:18,0.0
-13196,-2632,-792,-1461,2938,-645,2025-02-17 10:47:18,0.0
-13532,-2440,-812,-967,2874,-497,2025-02-17 10:47:18,0.0
-13568,-2088,-1304,-593,3149,-281,2025-02-17 10:47:18,0.0
-14336,-1704,-1580,-377,2654,21,2025-02-17 10:47:18,0.0
-14156,-1868,-1664,-347,1863,189,2025-02-17 10:47:18,0.0
-13900,-1996,-1796,-412,965,387,2025-02-17 10:47:18,0.0
-13648,-2068,-1880,-582,468,648,2025-02-17 10:47:18,0.0
-12520,-2092,-1076,-46,247,876,2025-02-17 10:47:18,0.0
-12196,-2172,-1416,197,119,942,2025-02-17 10:47:18,0.0
-11896,-2208,-1924,397,-276,989,2025-02-17 10:47:18,0.0
-11224,-1904,-2424,249,-365,824,2025-02-17 10:47:18,0.0
-10700,-1392,-2196,-221,-346,501,2025-02-17 10:47:18,0.0
-10584,-676,-2384,-381,-43,389,2025-02-17 10:47:18,0.0
-8528,-676,-2256,-907,1463,-106,2025-02-17 10:47:18,0.0
-12988,-148,-3484,-1354,781,-159,2025-02-17 10:47:18,0.0
-11160,-376,-4104,-2039,1182,518,2025-02-17 10:47:18,0.0
-10316,-384,-4004,-2653,1211,918,2025-02-17 10:47:18,0.0
-10672,-520,-3496,-3199,1394,1277,2025-02-17 10:47:18,0.0
-9568,-1276,-3116,-3435,1453,1619,2025-02-17 10:47:18,0.0
-10596,-1692,-4180,-3439,1007,1751,2025-02-17 10:47:18,0.0
-11092,-2624,-2904,-3219,175,1669,2025-02-17 10:47:18,0.0
-8580,-3572,-1320,-2751,458,1072,2025-02-17 10:47:18,0.0
-10500,-3068,-2112,-1987,-462,986,2025-02-17 10:47:18,0.0
-11680,-2856,-2512,-1228,-703,661,2025-02-17 10:47:18,0.0
-11324,-2456,-2444,-642,-987,613,2025-02-17 10:47:18,0.0
-10852,-1868,-2260,-658,-2072,488,2025-02-17 10:47:18,0.0
-10780,-944,-1348,-823,-3840,-150,2025-02-17 10:47:18,0.0
-10804,640,-812,-792,-5297,-239,2025-02-17 10:47:18,0.0
-9744,1244,-924,-841,-6206,361,2025-02-17 10:47:18,0.0
-10708,-132,20,-891,-6981,1224,2025-02-17 10:47:18,0.0
-11032,-2788,1000,-206,-7036,1091,2025-02-17 10:47:18,0.0
-12316,-3388,1180,927,-8304,373,2025-02-17 10:47:19,0.0
-11956,-1984,536,1703,-9144,652,2025-02-17 10:47:19,0.0
-12048,-1252,436,2696,-9960,512,2025-02-17 10:47:19,0.0
-14320,-652,148,2650,-10224,-21,2025-02-17 10:47:19,0.0
-14148,-804,144,2505,-10624,161,2025-02-17 10:47:19,0.0
-11144,-1288,108,2399,-10744,-535,2025-02-17 10:47:19,
-14824,-1260,1460,2393,-10250,-977,2025-02-17 10:47:19,0.0
-14900,-1032,1392,2570,-9407,-830,2025-02-17 10:47:19,0.0
-15536,-892,1476,2921,-8432,-615,2025-02-17 10:47:19,0.0
-14568,-884,1124,2956,-7038,-571,2025-02-17 10:47:19,0.0
-14724,-1184,1588,2516,-6277,-379,2025-02-17 10:47:19,0.0
-17744,-900,2484,2078,-5987,32,2025-02-17 10:47:19,0.0
-16320,-376,1964,1758,-6116,610,2025-02-17 10:47:19,0.0
-16364,-704,3108,1754,-6962,70,2025-02-17 10:47:19,0.0
-14896,-1244,3360,2271,-6972,-873,2025-02-17 10:47:19,0.0
-16304,-1624,3404,2652,-7024,-1386,2025-02-17 10:47:19,0.0
-18576,-2008,4856,2893,-7785,-730,2025-02-17 10:47:19,0.0
-19624,-2052,4668,3041,-8400,378,2025-02-17 10:47:19,0.0
-19148,-1072,6036,2783,-8703,1169,2025-02-17 10:47:19,0.0
-19256,-160,6460,2492,-9245,863,2025-02-17 10:47:19,0.0
-20624,632,6316,2274,-9671,289,2025-02-17 10:47:19,0.0
-22600,-600,8408,2258,-10510,-364,2025-02-17 10:47:19,0.0
-24160,-1424,8296,2792,-11258,38,2025-02-17 10:47:19,0.0
-19128,-1188,4584,1695,-9193,496,2025-02-17 10:47:19,0.0
-18420,132,7584,1577,-8288,742,2025-02-17 10:47:19,0.0
-14020,-560,8740,2225,-7411,1480,2025-02-17 10:47:19,0.0
-10464,-192,7344,840,-4402,273,2025-02-17 10:47:19,0.0
-10580,204,5828,-434,-2175,-266,2025-02-17 10:47:19,0.0
-11336,-860,6184,-849,-2808,-553,2025-02-17 10:47:19,0.0
-11884,-436,6408,-865,-3483,-203,2025-02-17 10:47:19,0.0
-11952,-172,8208,-1023,-3939,119,2025-02-17 10:47:19,0.0
-12044,-252,7744,-1185,-4292,87,2025-02-17 10:47:19,0.0
-12820,-624,8312,-1452,-5276,-10,2025-02-17 10:47:19,0.0
-12448,-692,9564,-1523,-5541,-170,2025-02-17 10:47:19,0.0
-12076,-1016,10256,-1216,-4955,-357,2025-02-17 10:47:19,0.0
-13008,-1132,10864,-859,-4759,-602,2025-02-17 10:47:19,0.0
-12088,-1036,10724,-388,-4418,-633,2025-02-17 10:47:19,0.0
-12012,-896,11160,136,-4575,-689,2025-02-17 10:47:19,0.0
-11540,-572,10448,540,-4374,-443,2025-02-17 10:47:19,0.0
-11556,-680,9960,471,-3923,-184,2025-02-17 10:47:19,0.0
-11176,-808,10144,372,-3027,198,2025-02-17 10:47:19,0.0
-11172,-1140,10364,375,-1929,298,2025-02-17 10:47:19,0.0
-10756,-1312,10396,399,-1588,87,2025-02-17 10:47:19,0.0
-10932,-1372,10052,480,-1083,-174,2025-02-17 10:47:19,0.0
-11404,-1096,9932,514,-697,-145,2025-02-17 10:47:19,0.0
-10980,-1056,8848,329,-393,-228,2025-02-17 10:47:19,0.0
-11796,-752,9152,111,-337,-339,2025-02-17 10:47:19,0.0
-11980,-660,9388,94,-462,-109,2025-02-17 10:47:19,0.0
-12156,-520,9316,85,-590,124,2025-02-17 10:47:19,0.0
-12220,-432,9500,46,-239,349,2025-02-17 10:47:19,0.0
-12296,-152,9516,-9,431,527,2025-02-17 10:47:19,0.0
-18220,1308,9876,-175,-347,1366,2025-02-17 10:47:19,0.0
-12096,-296,9184,-13,-5,1173,2025-02-17 10:47:19,0.0
-11972,-832,9524,157,-681,1392,2025-02-17 10:47:19,0.0
-11260,-1112,9576,200,-517,1092,2025-02-17 10:47:19,0.0
-11440,-1176,9236,147,-24,801,2025-02-17 10:47:19,0.0
-11944,-892,9128,-136,46,392,2025-02-17 10:47:19,0.0
-12384,-320,9452,-449,-533,104,2025-02-17 10:47:19,0.0
-12120,36,9448,-738,-809,246,2025-02-17 10:47:19,0.0
-11780,232,9884,-830,-878,385,2025-02-17 10:47:19,0.0
-11540,-296,10128,-724,-623,516,2025-02-17 10:47:20,0.0
-11196,-752,10284,-519,-257,604,2025-02-17 10:47:20,0.0
-11208,-716,10320,-295,-193,575,2025-02-17 10:47:20,0.0
-11312,-804,10780,-170,-250,430,2025-02-17 10:47:20,0.0
-11568,-432,10392,181,-527,307,2025-02-17 10:47:20,0.0
-11988,-304,9836,453,-679,263,2025-02-17 10:47:20,0.0
-12180,-452,9696,465,-539,167,2025-02-17 10:47:20,0.0
-12356,-152,9240,-17,-127,227,2025-02-17 10:47:20,0.0
-11416,-40,9356,-339,-696,-1,2025-02-17 10:47:20,0.0
-11264,-412,9856,-488,-599,-199,2025-02-17 10:47:20,0.0
-11384,-704,10560,-228,-437,-420,2025-02-17 10:47:20,0.0
-11320,-764,10544,39,-149,-673,2025-02-17 10:47:20,0.0
-11548,-476,10636,330,81,-718,2025-02-17 10:47:20,0.0
-11492,-328,10072,476,176,-647,2025-02-17 10:47:20,0.0
-11628,32,9836,419,550,-507,2025-02-17 10:47:20,0.0
-11656,260,9828,364,418,-279,2025-02-17 10:47:20,0.0
-11324,428,10184,201,103,-481,2025-02-17 10:47:20,0.0
-11828,264,9972,158,753,-156,2025-02-17 10:47:20,0.0
-12116,316,9792,5,1057,16,2025-02-17 10:47:20,0.0
-12140,8,9564,-220,851,47,2025-02-17 10:47:20,0.0
-11804,-100,9616,-361,613,43,2025-02-17 10:47:20,0.0
-11704,-276,9436,-518,595,-180,2025-02-17 10:47:20,0.0
-11712,-108,9012,-620,625,-375,2025-02-17 10:47:20,0.0
-12180,-152,9156,-686,626,-395,2025-02-17 10:47:20,0.0
-12596,-156,9372,-638,549,-330,2025-02-17 10:47:20,0.0
-12684,-212,9128,-556,86,-157,2025-02-17 10:47:20,0.0
-12548,-400,9064,-568,-112,62,2025-02-17 10:47:20,0.0
-12464,-424,9584,-469,-127,151,2025-02-17 10:47:20,0.0
-12128,-344,9808,-319,-220,162,2025-02-17 10:47:20,0.0
-12028,-328,9916,-214,-284,103,2025-02-17 10:47:20,0.0
-11728,-296,9516,-258,-268,38,2025-02-17 10:47:20,0.0
-11712,-444,9840,-335,-210,-24,2025-02-17 10:47:20,0.0
-11616,-612,9812,-293,-203,-138,2025-02-17 10:47:20,0.0
-11460,-692,9868,-280,-239,-213,2025-02-17 10:47:20,0.0
-11320,-616,10120,-289,-293,-398,2025-02-17 10:47:20,0.0
-11328,-672,10024,-233,-176,-520,2025-02-17 10:47:20,0.0
-11544,-592,10108,-220,-73,-552,2025-02-17 10:47:20,0.0
-11868,-424,10092,-102,76,-542,2025-02-17 10:47:20,0.0
-12032,-356,10136,5,133,-360,2025-02-17 10:47:20,0.0
-11956,-252,9992,42,189,-271,2025-02-17 10:47:20,0.0
-11816,-360,9948,162,259,-149,2025-02-17 10:47:20,0.0
-11876,-444,9980,187,310,-188,2025-02-17 10:47:20,0.0
-11776,-516,9924,233,183,-244,2025-02-17 10:47:20,0.0
-11820,-424,9756,134,129,-296,2025-02-17 10:47:20,0.0
-11848,-260,9696,43,85,-231,2025-02-17 10:47:20,0.0
-11584,-316,9716,-28,161,-221,2025-02-17 10:47:20,
-11580,-60,9784,-198,313,-286,2025-02-17 10:47:20,0.0
-11724,16,9964,-330,303,-296,2025-02-17 10:47:20,0.0
-11884,-120,9900,-283,270,-275,2025-02-17 10:47:20,0.0
-11892,-4,9804,-284,172,-234,2025-02-17 10:47:20,0.0
-11712,-80,9552,-387,138,-261,2025-02-17 10:47:20,0.0
-11740,-272,9964,-399,77,-227,2025-02-17 10:47:20,0.0
-11760,-412,10148,-283,6,-194,2025-02-17 10:47:20,0.0
-11684,-444,10100,-267,39,-234,2025-02-17 10:47:20,0.0
-11804,-404,9904,-274,169,-259,2025-02-17 10:47:20,0.0
-11856,-472,9800,-312,198,-220,2025-02-17 10:47:20,0.0
-11560,-504,9960,-253,134,-217,2025-02-17 10:47:20,0.0
-11784,-380,10036,-250,360,-266,2025-02-17 10:47:20,0.0
-11924,-424,9992,-286,373,-211,2025-02-17 10:47:20,0.0
-12136,-452,9944,-275,187,-181,2025-02-17 10:47:20,0.0
-11816,-592,9728,-270,-86,-136,2025-02-17 10:47:20,0.0
-11568,-508,10496,-132,152,-103,2025-02-17 10:47:21,0.0
-11584,-640,10780,-34,458,-151,2025-02-17 10:47:21,0.0
-11500,-484,10324,0,457,-176,2025-02-17 10:47:21,0.0
-11556,-188,10220,71,803,-218,2025-02-17 10:47:21,0.0
-11852,-156,10428,6,1432,-245,2025-02-17 10:47:21,0.0
-11708,-12,9492,-40,1639,-424,2025-02-17 10:47:21,0.0
-11868,-208,8576,-294,1172,-665,2025-02-17 10:47:21,0.0
-12056,-500,8604,-533,369,-647,2025-02-17 10:47:21,0.0
-12036,-1228,9744,-589,-57,-478,2025-02-17 10:47:21,0.0
-11676,-792,10048,-566,546,-338,2025-02-17 10:47:21,0.0
-11744,-1096,10480,-309,858,-283,2025-02-17 10:47:21,0.0
-11820,-888,9844,-186,628,-297,2025-02-17 10:47:21,0.0
-11796,-688,9988,-133,537,-289,2025-02-17 10:47:21,0.0
-11676,-744,9824,-101,539,-322,2025-02-17 10:47:21,0.0
-11460,-400,9920,-110,561,-435,2025-02-17 10:47:21,0.0
-11352,-192,9840,-80,387,-658,2025-02-17 10:47:21,0.0
-11416,-96,9520,-134,358,-719,2025-02-17 10:47:21,0.0
-11220,-52,9532,-341,426,-704,2025-02-17 10:47:21,0.0
-11336,-332,10296,-410,329,-672,2025-02-17 10:47:21,0.0
-11948,-2112,8424,-1009,12,-594,2025-02-17 10:47:21,0.0
-11964,-1648,9068,-1954,539,133,2025-02-17 10:47:21,0.0
-11164,1076,11048,-1433,1569,-234,2025-02-17 10:47:21,0.0
-11760,452,9616,-961,2201,-752,2025-02-17 10:47:21,0.0
-11384,532,8488,-1144,1226,-907,2025-02-17 10:47:21,0.0
-11600,688,8924,-1173,1589,-1121,2025-02-17 10:47:21,0.0
-11516,144,9660,-1081,2604,-1074,2025-02-17 10:47:21,0.0
