acceleration_x,acceleration_y,acceleration_z,gyroscope_x,gyroscope_y,gyroscope_z,timestamp,label
-12184,160,-5460,-184,262,-242,2025-02-17 10:26:52,0.0
-12496,36,-5400,-98,246,-172,2025-02-17 10:26:52,0.0
-12244,72,-5564,-4,263,-107,2025-02-17 10:26:52,0.0
-12184,196,-5628,-177,310,-260,2025-02-17 10:26:52,0.0
-12320,68,-5384,-232,361,-316,2025-02-17 10:26:52,0.0
-12316,52,-5268,-138,321,-213,2025-02-17 10:26:52,0.0
-12372,12,-5248,-100,188,-217,2025-02-17 10:26:52,0.0
-12384,20,-5536,-105,131,-190,2025-02-17 10:26:52,0.0
-12328,96,-5508,-110,108,-217,2025-02-17 10:26:52,0.0
-12352,104,-5352,-167,144,-285,2025-02-17 10:26:52,0.0
-12500,60,-5560,-86,129,-133,2025-02-17 10:26:52,0.0
-12276,120,-5500,-17,56,-89,2025-02-17 10:26:52,0.0
-12136,180,-5692,-209,61,-232,2025-02-17 10:26:52,0.0
-12452,-100,-5240,-103,129,-243,2025-02-17 10:26:52,0.0
-12332,32,-5540,-17,115,-135,2025-02-17 10:26:52,0.0
-12144,68,-5424,-193,201,-288,2025-02-17 10:26:52,0.0
-12352,-52,-5388,-93,187,-232,2025-02-17 10:26:52,0.0
-12336,44,-5536,-26,192,-106,2025-02-17 10:26:52,0.0
-12104,56,-5644,-326,212,-357,2025-02-17 10:26:52,0.0
-12468,-36,-5308,-298,278,-279,2025-02-17 10:26:52,0.0
-12460,36,-5356,-183,311,-170,2025-02-17 10:26:52,0.0
-12288,124,-5564,-284,238,-219,2025-02-17 10:26:52,0.0
-12280,12,-5432,-223,158,-269,2025-02-17 10:26:52,0.0
-12220,-84,-5316,-148,170,-176,2025-02-17 10:26:52,0.0
-12012,12,-5536,-215,307,-263,2025-02-17 10:26:52,0.0
-12216,156,-5448,-252,294,-358,2025-02-17 10:26:52,0.0
-12424,-64,-5220,-155,274,-225,2025-02-17 10:26:52,0.0
-12284,36,-5472,-126,243,-197,2025-02-17 10:26:52,0.0
-12312,-40,-5488,-184,192,-301,2025-02-17 10:26:52,0.0
-12480,-32,-5508,-67,186,-201,2025-02-17 10:26:52,0.0
-12148,-76,-5560,-147,172,-201,2025-02-17 10:26:52,0.0
-12292,68,-5368,-181,154,-307,2025-02-17 10:26:52,0.0
-12420,-48,-5064,-22,138,-168,2025-02-17 10:26:52,0.0
-12228,12,-5364,-27,153,-153,2025-02-17 10:26:52,0.0
-12352,8,-5508,-63,196,-201,2025-02-17 10:26:52,0.0
-12256,-100,-5460,-117,224,-181,2025-02-17 10:26:52,0.0
-12212,-84,-5448,-121,288,-239,2025-02-17 10:26:52,0.0
-12432,-160,-5392,-95,234,-221,2025-02-17 10:26:52,0.0
-12304,-24,-5268,-92,239,-209,2025-02-17 10:26:52,0.0
-12304,-120,-5444,-127,243,-246,2025-02-17 10:26:52,0.0
-12380,-184,-5376,-92,220,-234,2025-02-17 10:26:52,0.0
-12284,-104,-5272,-70,293,-194,2025-02-17 10:26:52,0.0
-12264,-12,-5452,-143,329,-199,2025-02-17 10:26:52,0.0
-12312,-136,-5468,-40,365,-221,2025-02-17 10:26:52,0.0
-12388,-112,-5324,53,286,-94,2025-02-17 10:26:52,0.0
-12260,128,-5416,107,286,-149,2025-02-17 10:26:52,0.0
-12320,-92,-5404,56,280,-229,2025-02-17 10:26:52,0.0
-12444,60,-5340,171,205,-140,2025-02-17 10:26:52,0.0
-12316,-4,-5552,153,171,-106,2025-02-17 10:26:52,0.0
-12204,-16,-5472,-10,197,-218,2025-02-17 10:26:52,0.0
-12244,-60,-5448,-17,272,-264,2025-02-17 10:26:52,0.0
-12576,-108,-5320,233,203,-48,2025-02-17 10:26:53,0.0
-12124,148,-5736,136,146,-58,2025-02-17 10:26:53,0.0
-12100,92,-5608,-158,153,-328,2025-02-17 10:26:53,0.0
-12428,-68,-5240,7,140,-195,2025-02-17 10:26:53,0.0
-12216,-32,-5472,26,255,-133,2025-02-17 10:26:53,0.0
-12136,28,-5672,-132,287,-250,2025-02-17 10:26:53,0.0
-12272,-140,-5380,-92,351,-215,2025-02-17 10:26:53,0.0
-12188,-20,-5500,-67,358,-230,2025-02-17 10:26:53,0.0
-12376,-4,-5472,-115,384,-280,2025-02-17 10:26:53,0.0
-12352,68,-5340,39,301,-201,2025-02-17 10:26:53,0.0
-12240,16,-5552,-25,254,-206,2025-02-17 10:26:53,0.0
-12312,12,-5448,-93,236,-299,2025-02-17 10:26:53,0.0
-12320,-52,-5360,-21,197,-225,2025-02-17 10:26:53,0.0
-12208,80,-5492,-46,211,-246,2025-02-17 10:26:53,0.0
-12332,-68,-5272,-3,107,-262,2025-02-17 10:26:53,0.0
-12256,-4,-5592,-33,130,-263,2025-02-17 10:26:53,0.0
-12152,-56,-5424,-120,297,-319,2025-02-17 10:26:53,0.0
-12348,-112,-5356,39,345,-164,2025-02-17 10:26:53,0.0
-12068,-60,-5792,10,432,-72,2025-02-17 10:26:53,0.0
-12076,-8,-5728,-228,480,-297,2025-02-17 10:26:53,0.0
-12428,-120,-5324,-180,386,-336,2025-02-17 10:26:53,0.0
-12568,-104,-5412,120,227,-111,2025-02-17 10:26:53,0.0
-12308,224,-5484,2,0,-142,2025-02-17 10:26:53,0.0
-12296,92,-5472,-93,-34,-301,2025-02-17 10:26:53,0.0
-12540,-176,-5280,111,-99,-135,2025-02-17 10:26:53,0.0
-12436,-160,-5572,142,-55,77,2025-02-17 10:26:53,0.0
-12356,0,-5376,129,67,67,2025-02-17 10:26:53,0.0
-12356,-220,-5452,190,92,64,2025-02-17 10:26:53,0.0
-12252,-80,-5512,135,230,66,2025-02-17 10:26:53,0.0
-12096,-8,-5308,267,357,99,2025-02-17 10:26:53,0.0
-11952,12,-5384,291,716,199,2025-02-17 10:26:53,0.0
-11824,-108,-5492,156,1373,48,2025-02-17 10:26:53,0.0
-12152,-268,-5476,-9,1812,-101,2025-02-17 10:26:53,0.0
-12480,-312,-5420,-83,1981,-320,2025-02-17 10:26:53,0.0
-12936,-196,-5224,-25,1679,-393,2025-02-17 10:26:53,0.0
-12936,-100,-5180,90,870,-364,2025-02-17 10:26:53,0.0
-12764,-32,-4916,322,-307,-361,2025-02-17 10:26:53,0.0
-12560,-144,-4784,534,-810,-336,2025-02-17 10:26:53,0.0
-12276,96,-4924,741,-856,-382,2025-02-17 10:26:53,0.0
-12192,184,-5148,826,-620,-441,2025-02-17 10:26:53,0.0
-12216,108,-5240,793,-384,-610,2025-02-17 10:26:53,0.0
-12496,208,-5184,731,-239,-779,2025-02-17 10:26:53,0.0
-12620,212,-5120,677,-302,-905,2025-02-17 10:26:53,0.0
-12624,324,-5284,828,-665,-911,2025-02-17 10:26:53,0.0
-12392,48,-5972,957,-1048,-854,2025-02-17 10:26:53,0.0
-12324,32,-6364,901,-1183,-741,2025-02-17 10:26:53,0.0
-12224,136,-6296,579,-998,-645,2025-02-17 10:26:53,0.0
-12224,196,-6220,346,-931,-576,2025-02-17 10:26:53,0.0
-12120,-116,-5376,181,-1221,-680,2025-02-17 10:26:53,
-12232,-604,-4300,359,-1573,-761,2025-02-17 10:26:53,0.0
-12080,-1020,-4008,1041,-1334,-776,2025-02-17 10:26:53,0.0
-12304,-1240,-3908,1488,-498,-822,2025-02-17 10:26:53,0.0
-12700,-1188,-4004,1509,461,-901,2025-02-17 10:26:53,0.0
-13012,-1120,-3868,1270,747,-1040,2025-02-17 10:26:53,0.0
-13348,-800,-3784,1262,66,-905,2025-02-17 10:26:53,0.0
-13260,-552,-3376,1243,-918,-928,2025-02-17 10:26:53,0.0
-12712,-676,-2832,1194,-1131,-1209,2025-02-17 10:26:53,0.0
-11980,-1028,-3252,883,-1108,-1394,2025-02-17 10:26:53,0.0
-11532,-1404,-3812,44,-204,-1871,2025-02-17 10:26:53,0.0
-11468,-1260,-4248,-804,1220,-2342,2025-02-17 10:26:53,0.0
-11460,-1012,-3988,-1518,2867,-2557,2025-02-17 10:26:53,0.0
-11268,-1000,-3644,-2293,3958,-2715,2025-02-17 10:26:54,0.0
-11316,-1052,-4248,-2709,3741,-2758,2025-02-17 10:26:54,0.0
-11432,-1072,-4876,-2962,3600,-2649,2025-02-17 10:26:54,0.0
-12048,-976,-5536,-3340,4245,-2373,2025-02-17 10:26:54,0.0
-12320,-1264,-5776,-3795,5235,-2010,2025-02-17 10:26:54,0.0
-12836,-1616,-4944,-4022,5865,-1786,2025-02-17 10:26:54,0.0
-13740,-2148,-4396,-3943,5070,-1999,2025-02-17 10:26:54,0.0
-14800,-2520,-4328,-3816,3715,-1733,2025-02-17 10:26:54,0.0
-15100,-2648,-3368,-3299,1913,-928,2025-02-17 10:26:54,0.0
-14792,-2556,-2712,-2252,174,-4,2025-02-17 10:26:54,0.0
-13520,-2304,-3316,-1670,-549,329,2025-02-17 10:26:54,0.0
-13064,-1944,-4064,-1727,-512,356,2025-02-17 10:26:54,0.0
-12756,-1728,-4224,-1771,-391,518,2025-02-17 10:26:54,0.0
-12736,-1932,-3580,-1256,129,747,2025-02-17 10:26:54,0.0
-12308,-2120,-3524,-922,781,522,2025-02-17 10:26:54,0.0
-12428,-1800,-4448,-695,882,218,2025-02-17 10:26:54,0.0
-13544,-844,-5336,-797,882,263,2025-02-17 10:26:54,0.0
-14464,300,-5340,-1009,366,541,2025-02-17 10:26:54,0.0
-14400,236,-4280,-444,-2208,146,2025-02-17 10:26:54,0.0
-14108,-1048,-3672,306,-5274,-527,2025-02-17 10:26:54,0.0
-13472,-2388,-3384,448,-8204,-956,2025-02-17 10:26:54,0.0
-12984,-3448,-4236,202,-9294,-1102,2025-02-17 10:26:54,0.0
-13428,-3300,-5564,-731,-7459,-804,2025-02-17 10:26:54,0.0
-13668,-2868,-6276,-2315,-2415,-722,2025-02-17 10:26:54,0.0
-13532,-3568,-7128,-4257,2867,-1288,2025-02-17 10:26:54,0.0
-14880,-4116,-7664,-5896,6177,-971,2025-02-17 10:26:54,0.0
-14836,-3860,-6604,-6450,6449,-611,2025-02-17 10:26:54,0.0
-15448,-2588,-5244,-5329,4736,-745,2025-02-17 10:26:54,0.0
-16620,-1152,-4996,-4098,1311,-563,2025-02-17 10:26:54,0.0
-15796,-1788,-5172,-3119,-3296,424,2025-02-17 10:26:54,0.0
-14348,-2288,-5320,-1845,-6906,1624,2025-02-17 10:26:54,0.0
-12584,-2180,-6944,-719,-7639,2687,2025-02-17 10:26:54,0.0
-10764,-636,-8208,-347,-7069,3341,2025-02-17 10:26:54,0.0
-9392,964,-7056,-178,-5091,3683,2025-02-17 10:26:54,0.0
-8632,2288,-5468,286,-3433,3718,2025-02-17 10:26:54,0.0
-8132,2480,-5060,798,-2078,3634,2025-02-17 10:26:54,0.0
-8360,2104,-5420,1207,-774,3424,2025-02-17 10:26:54,0.0
-9148,1484,-5888,1393,848,3206,2025-02-17 10:26:54,0.0
-10612,692,-6244,1078,2787,3214,2025-02-17 10:26:54,0.0
-11672,488,-5872,589,4745,3223,2025-02-17 10:26:54,0.0
-12868,452,-5416,-162,5029,3067,2025-02-17 10:26:54,0.0
-14392,1328,-5280,-497,3820,3319,2025-02-17 10:26:54,0.0
-14264,1040,-6144,-565,3403,3683,2025-02-17 10:26:54,0.0
-13364,1364,-5816,-318,777,3950,2025-02-17 10:26:54,0.0
-12180,1468,-6004,77,-4037,3547,2025-02-17 10:26:54,0.0
-11276,1372,-5760,-113,-8863,3005,2025-02-17 10:26:54,0.0
-11500,1460,-976,350,-8234,2547,2025-02-17 10:26:54,0.0
-10492,1504,-2064,920,-3678,3122,2025-02-17 10:26:54,0.0
-9228,1676,-3304,1172,-1634,3451,2025-02-17 10:26:54,0.0
-8680,2252,-3780,1468,40,2874,2025-02-17 10:26:54,0.0
-9824,2416,-3672,1498,1270,1824,2025-02-17 10:26:54,0.0
-11256,2284,-3100,1298,2115,1303,2025-02-17 10:26:54,0.0
-11896,2084,-2716,1695,1917,979,2025-02-17 10:26:54,0.0
-11628,2376,-2572,1939,869,554,2025-02-17 10:26:54,0.0
-11240,2540,-3112,1861,-24,-89,2025-02-17 10:26:54,0.0
-11256,2172,-2936,1580,-514,-586,2025-02-17 10:26:54,0.0
-11392,1892,-2624,1500,-330,-772,2025-02-17 10:26:54,0.0
-11372,2236,-2904,1439,-128,-988,2025-02-17 10:26:54,0.0
-11764,2404,-3768,1219,400,-1205,2025-02-17 10:26:54,0.0
-12208,2324,-3432,1066,909,-1299,2025-02-17 10:26:54,0.0
-12712,1604,-3720,1034,1488,-1231,2025-02-17 10:26:54,0.0
-13488,1244,-4976,1152,2002,-956,2025-02-17 10:26:55,0.0
-14656,1824,-5264,1165,2269,-118,2025-02-17 10:26:55,0.0
-15396,2080,-3812,1432,1728,550,2025-02-17 10:26:55,0.0
-15596,1068,-2828,1509,877,1132,2025-02-17 10:26:55,0.0
-15904,-28,-1080,1549,674,1827,2025-02-17 10:26:55,0.0
-15760,-232,60,2163,717,2203,2025-02-17 10:26:55,0.0
-16092,1848,-1232,3670,503,2580,2025-02-17 10:26:55,0.0
-16028,3868,-4784,4162,1034,3309,2025-02-17 10:26:55,0.0
-15780,5492,-7168,3680,475,3102,2025-02-17 10:26:55,0.0
-16132,6548,-7596,2666,-515,2501,2025-02-17 10:26:55,0.0
-16284,6356,-7448,1955,-1625,2112,2025-02-17 10:26:55,0.0
-15728,5664,-7712,1718,-2832,1784,2025-02-17 10:26:55,0.0
-14392,5048,-7908,1684,-4919,936,2025-02-17 10:26:55,0.0
-12244,4324,-7244,2053,-7283,-1151,2025-02-17 10:26:55,0.0
-10360,2792,-7232,1920,-9945,-3464,2025-02-17 10:26:55,0.0
-9612,996,-6916,1022,-12211,-5094,2025-02-17 10:26:55,0.0
-9224,-932,-5708,580,-11271,-4895,2025-02-17 10:26:55,0.0
-9944,-2624,-6536,-635,-6081,-3473,2025-02-17 10:26:55,0.0
-10632,-1928,-6288,-2000,1792,-1790,2025-02-17 10:26:55,0.0
-10664,-516,-5448,-2915,7491,-852,2025-02-17 10:26:55,0.0
-11044,1456,-4132,-3290,9248,-1307,2025-02-17 10:26:55,0.0
-11864,2820,-3008,-2350,6335,-3462,2025-02-17 10:26:55,0.0
-13516,2472,-3652,-1601,2464,-5064,2025-02-17 10:26:55,0.0
-13748,552,-4672,-1131,-952,-5564,2025-02-17 10:26:55,0.0
-13500,-1216,-4308,-325,-4103,-5231,2025-02-17 10:26:55,0.0
-12848,-1988,-4012,99,-6381,-4147,2025-02-17 10:26:55,0.0
-11420,-1688,-3424,328,-6982,-2701,2025-02-17 10:26:55,
-9856,-1352,-4172,420,-5495,-2073,2025-02-17 10:26:55,0.0
-9580,-564,-4332,-257,-2938,-1681,2025-02-17 10:26:55,0.0
-9380,-552,-3824,-988,786,-1682,2025-02-17 10:26:55,0.0
-9632,-940,-3700,-1510,3718,-1961,2025-02-17 10:26:55,0.0
-10912,-1272,-4224,-2301,5972,-1900,2025-02-17 10:26:55,0.0
-12164,-1376,-4064,-3121,7745,-1276,2025-02-17 10:26:55,0.0
-12672,-1104,-2868,-3486,8090,-748,2025-02-17 10:26:55,0.0
-12880,-768,-2404,-3021,6792,-695,2025-02-17 10:26:55,0.0
-13048,-636,-1940,-2408,3637,-867,2025-02-17 10:26:55,0.0
-13516,-612,-1996,-1354,864,-614,2025-02-17 10:26:55,0.0
-13032,-744,-2708,-751,-588,-70,2025-02-17 10:26:55,0.0
-11832,-576,-2776,-669,-556,-119,2025-02-17 10:26:55,0.0
-11760,-548,-2944,-799,-241,-541,2025-02-17 10:26:55,0.0
-12000,-320,-3172,-1072,252,-866,2025-02-17 10:26:55,0.0
-12600,-124,-2660,-1246,901,-1140,2025-02-17 10:26:55,0.0
-13140,288,-2520,-1093,1148,-1429,2025-02-17 10:26:55,0.0
-13868,-128,-2888,-1038,370,-2282,2025-02-17 10:26:55,0.0
-14740,-764,-2520,-1493,-1365,-3068,2025-02-17 10:26:55,0.0
-15352,-1384,-1672,-1913,-3545,-3411,2025-02-17 10:26:55,0.0
-15356,-1680,-860,-1792,-6174,-2923,2025-02-17 10:26:55,0.0
-14980,-1872,-296,-1520,-7823,-2320,2025-02-17 10:26:55,0.0
-13880,-2040,-3060,-1241,-7817,-2124,2025-02-17 10:26:55,0.0
-13760,-2160,-6348,-1546,-3809,-2543,2025-02-17 10:26:55,0.0
-14748,-2796,-9036,-3489,5197,-3323,2025-02-17 10:26:55,0.0
-14168,-3196,-8504,-4632,10406,-4537,2025-02-17 10:26:55,0.0
-14724,-2556,-7584,-4767,11529,-6192,2025-02-17 10:26:55,0.0
-16672,-2372,-6388,-4228,9768,-6627,2025-02-17 10:26:55,0.0
-18740,-1984,-4972,-2184,5984,-3926,2025-02-17 10:26:55,0.0
-17900,-1928,-5044,-334,2104,112,2025-02-17 10:26:55,0.0
-14108,-1032,-6332,1413,-2441,3843,2025-02-17 10:26:55,0.0
-10740,4,-7716,2003,-6424,4118,2025-02-17 10:26:55,0.0
-9028,908,-8184,1524,-9793,2619,2025-02-17 10:26:55,0.0
-9672,1432,-2700,1604,-8390,370,2025-02-17 10:26:55,0.0
-12428,-596,-5612,1028,-485,806,2025-02-17 10:26:56,0.0
-12568,-1540,-6424,-401,4797,3374,2025-02-17 10:26:56,0.0
-11932,-1580,-5028,-855,6572,4344,2025-02-17 10:26:56,0.0
-12492,-1148,-5424,-718,6293,4576,2025-02-17 10:26:56,0.0
-13636,-12,-5664,-843,5554,4893,2025-02-17 10:26:56,0.0
-13516,1236,-5204,-855,3582,5182,2025-02-17 10:26:56,0.0
-13296,2164,-4520,-511,495,5123,2025-02-17 10:26:56,0.0
-11640,2468,-4268,-47,-3045,4571,2025-02-17 10:26:56,0.0
-10696,2060,-3904,646,-5091,3671,2025-02-17 10:26:56,0.0
-10324,2024,-4216,358,-4861,3376,2025-02-17 10:26:56,0.0
-9104,1864,-3184,15,-3619,3114,2025-02-17 10:26:56,0.0
-8612,2112,-2600,102,-1687,2511,2025-02-17 10:26:56,0.0
-8756,1840,-3132,-119,443,1777,2025-02-17 10:26:56,0.0
-9756,1728,-2784,-415,2089,1003,2025-02-17 10:26:56,0.0
-10572,1552,-2752,-123,2838,479,2025-02-17 10:26:56,0.0
-11320,1512,-3064,52,2855,11,2025-02-17 10:26:56,0.0
-11804,1628,-3360,79,2395,-612,2025-02-17 10:26:56,0.0
-11804,1716,-3464,-162,1145,-1488,2025-02-17 10:26:56,0.0
-11836,1480,-2928,-309,354,-2100,2025-02-17 10:26:56,0.0
-12112,1460,-2572,-297,76,-2345,2025-02-17 10:26:56,0.0
-12776,1796,-2780,-374,16,-2187,2025-02-17 10:26:56,0.0
-13528,2172,-2724,-353,-171,-1821,2025-02-17 10:26:56,0.0
-14280,2208,-2584,-581,-819,-1439,2025-02-17 10:26:56,0.0
-14328,1436,-2140,-673,-1796,-1328,2025-02-17 10:26:56,0.0
-14432,240,-1728,-215,-2981,-1028,2025-02-17 10:26:56,0.0
-14132,-704,-1840,358,-3394,-395,2025-02-17 10:26:56,0.0
-13132,-488,-2008,783,-2873,260,2025-02-17 10:26:56,0.0
-12616,560,-2252,1116,-1158,387,2025-02-17 10:26:56,0.0
-13400,524,-1556,1363,396,706,2025-02-17 10:26:56,0.0
-14328,-32,-748,1729,1835,1271,2025-02-17 10:26:56,0.0
-14736,-596,-1128,2082,2673,1351,2025-02-17 10:26:56,0.0
-16012,-332,-3260,2448,3849,1561,2025-02-17 10:26:56,0.0
-16920,772,-5660,2565,5944,2463,2025-02-17 10:26:56,0.0
-17424,2932,-7084,1879,5957,3047,2025-02-17 10:26:56,0.0
-18144,6692,-9580,732,3971,3869,2025-02-17 10:26:56,0.0
-17720,7928,-10240,-548,2495,4580,2025-02-17 10:26:56,0.0
-15160,6360,-9144,-943,1629,3996,2025-02-17 10:26:56,0.0
-13720,3712,-7964,-673,473,2407,2025-02-17 10:26:56,0.0
-10704,2100,-6940,89,-2445,259,2025-02-17 10:26:56,0.0
-7384,960,-5888,732,-10293,-3781,2025-02-17 10:26:56,0.0
-8176,-288,-7204,110,-18284,-6445,2025-02-17 10:26:56,0.0
-11160,-1532,-2500,468,-13889,-6457,2025-02-17 10:26:56,0.0
-10384,-1808,-4416,1073,-3361,-3692,2025-02-17 10:26:56,0.0
-8176,-324,-8536,-650,5239,-1591,2025-02-17 10:26:56,0.0
-8932,1232,-7436,-2000,7872,-3032,2025-02-17 10:26:56,0.0
-12184,1656,-5204,-2406,7669,-4312,2025-02-17 10:26:56,0.0
-13764,1100,-4668,-2305,5451,-4822,2025-02-17 10:26:56,0.0
-14796,344,-4340,-2032,2590,-5118,2025-02-17 10:26:56,0.0
-14504,-132,-5968,-1820,-1114,-4701,2025-02-17 10:26:56,0.0
-13784,-16,-6228,-1784,-3522,-3704,2025-02-17 10:26:56,0.0
-11708,420,-5796,-2037,-4636,-2919,2025-02-17 10:26:56,0.0
-9864,372,-5168,-2560,-4242,-2895,2025-02-17 10:26:56,0.0
-8576,-104,-5100,-3127,-3439,-3200,2025-02-17 10:26:56,0.0
-8912,-184,-5208,-3543,-870,-3478,2025-02-17 10:26:56,0.0
-9952,-248,-4996,-4796,1897,-3575,2025-02-17 10:26:56,0.0
-10372,-460,-4924,-6038,3280,-3931,2025-02-17 10:26:56,0.0
-11396,-716,-5284,-6775,3595,-4180,2025-02-17 10:26:56,0.0
-12200,-864,-5892,-7463,3601,-4088,2025-02-17 10:26:56,0.0
-12180,-904,-6712,-8396,3340,-4085,2025-02-17 10:26:56,0.0
-12132,-880,-6024,-9313,2682,-4373,2025-02-17 10:26:56,0.0
-11772,-1024,-5988,-9577,1698,-4485,2025-02-17 10:26:56,0.0
-12344,-1256,-4720,-8967,600,-3950,2025-02-17 10:26:57,0.0
-13052,-940,-4180,-8144,135,-2739,2025-02-17 10:26:57,0.0
-12388,-436,-4304,-8205,-56,-2422,2025-02-17 10:26:57,0.0
-12632,-220,-5040,-9202,-244,-3252,2025-02-17 10:26:57,0.0
-12704,-476,-4408,-9882,-1738,-4003,2025-02-17 10:26:57,0.0
-13208,-356,-4032,-10029,-2972,-3918,2025-02-17 10:26:57,
-13244,232,-3784,-10239,-3156,-3444,2025-02-17 10:26:57,0.0
-12860,68,-4212,-10514,-2632,-3330,2025-02-17 10:26:57,0.0
-12364,-1048,-4592,-11168,-2262,-3668,2025-02-17 10:26:57,0.0
-12124,-2132,-4532,-11682,-1978,-3887,2025-02-17 10:26:57,0.0
-11988,-2676,-4556,-12107,-1307,-3916,2025-02-17 10:26:57,0.0
-11444,-1800,-4500,-12604,-123,-3844,2025-02-17 10:26:57,0.0
-11652,-1496,-3852,-13179,1423,-4168,2025-02-17 10:26:57,0.0
-12460,-1388,-3548,-13502,2786,-4274,2025-02-17 10:26:57,0.0
-13204,-1732,-3476,-13581,3009,-4009,2025-02-17 10:26:57,0.0
-13856,-2196,-4120,-13409,2370,-3504,2025-02-17 10:26:57,0.0
-14312,-2948,-4092,-13174,1752,-2854,2025-02-17 10:26:57,0.0
-14348,-3592,-3892,-13055,1663,-2800,2025-02-17 10:26:57,0.0
-14068,-4016,-4084,-12977,1536,-3325,2025-02-17 10:26:57,0.0
-13628,-4516,-5088,-13045,706,-3793,2025-02-17 10:26:57,0.0
-13072,-4440,-6028,-13101,250,-4211,2025-02-17 10:26:57,0.0
-13324,-4336,-6936,-12962,1431,-4260,2025-02-17 10:26:57,0.0
-13260,-3496,-8556,-12734,3393,-4231,2025-02-17 10:26:57,0.0
-13424,-1808,-8808,-11891,5923,-4568,2025-02-17 10:26:57,0.0
-13628,-680,-7168,-10431,8077,-5775,2025-02-17 10:26:57,0.0
-13728,-344,-6084,-9110,6925,-7044,2025-02-17 10:26:57,0.0
-16592,792,-5588,-8804,2298,-5498,2025-02-17 10:26:57,0.0
-15780,1600,-5588,-8373,-2084,-2890,2025-02-17 10:26:57,0.0
-14004,2092,-7060,-7637,-5278,-1248,2025-02-17 10:26:57,0.0
-11608,1912,-8324,-7602,-7690,-459,2025-02-17 10:26:57,0.0
-10460,1272,-5028,-7396,-5331,-851,2025-02-17 10:26:57,0.0
-9272,484,-5224,-7161,-1952,-1156,2025-02-17 10:26:57,0.0
-9772,1060,-5292,-7394,568,-1007,2025-02-17 10:26:57,0.0
-10600,2136,-5052,-7494,1937,-681,2025-02-17 10:26:57,0.0
-11392,2584,-5068,-7394,2179,-522,2025-02-17 10:26:57,0.0
-11884,3116,-5332,-7413,2212,-790,2025-02-17 10:26:57,0.0
-12468,3104,-5168,-7669,1727,-1247,2025-02-17 10:26:57,0.0
-12672,2532,-4940,-7867,913,-1903,2025-02-17 10:26:57,0.0
-12648,1936,-4744,-7569,76,-2558,2025-02-17 10:26:57,0.0
-13356,1160,-4416,-6850,-904,-2326,2025-02-17 10:26:57,0.0
-13376,924,-3616,-6017,-1531,-1549,2025-02-17 10:26:57,0.0
-12624,1280,-4232,-5532,-1671,-1314,2025-02-17 10:26:57,0.0
-11876,1824,-4540,-5879,-1507,-1509,2025-02-17 10:26:57,0.0
-11692,2044,-4368,-6112,-1003,-1567,2025-02-17 10:26:57,0.0
-11856,2468,-3980,-5975,-434,-1256,2025-02-17 10:26:57,0.0
-12000,2464,-4972,-6124,440,-524,2025-02-17 10:26:57,0.0
-11704,2564,-5184,-6501,1512,376,2025-02-17 10:26:57,0.0
-11092,2452,-5468,-6926,2970,1199,2025-02-17 10:26:57,0.0
-10500,2256,-5548,-7235,3881,1129,2025-02-17 10:26:57,0.0
-10560,2124,-5852,-7519,4652,550,2025-02-17 10:26:57,0.0
-10896,2488,-5324,-7641,5086,-25,2025-02-17 10:26:57,0.0
-11416,2696,-5184,-7730,4820,-408,2025-02-17 10:26:57,0.0
-12060,2592,-5916,-7706,4635,-483,2025-02-17 10:26:57,0.0
-12700,2860,-6388,-7282,4810,205,2025-02-17 10:26:57,0.0
-12300,2568,-6164,-6287,5342,499,2025-02-17 10:26:57,0.0
-11856,2060,-6460,-5910,5767,-206,2025-02-17 10:26:57,0.0
-11196,1104,-7436,-5767,6717,-1126,2025-02-17 10:26:57,0.0
-10532,-16,-7564,-6101,7502,-2248,2025-02-17 10:26:57,0.0
-11604,660,-6784,-6135,8300,-2856,2025-02-17 10:26:57,0.0
-12780,3192,-6144,-5282,10166,-1038,2025-02-17 10:26:57,0.0
-11720,4352,-5104,-4391,10417,-349,2025-02-17 10:26:58,0.0
-10552,4520,-4064,-3479,9126,-2583,2025-02-17 10:26:58,0.0
-11128,2896,-5616,-3063,7120,-6022,2025-02-17 10:26:58,0.0
-12500,896,-8308,-2953,4705,-7413,2025-02-17 10:26:58,0.0
-12964,-764,-9380,-2730,2254,-6070,2025-02-17 10:26:58,0.0
-12600,-1508,-9768,-2715,-918,-3879,2025-02-17 10:26:58,0.0
-12940,-184,-8400,-3357,-4587,-1833,2025-02-17 10:26:58,0.0
-12240,1188,-6272,-3607,-7360,-1413,2025-02-17 10:26:58,0.0
-11612,1768,-5800,-3662,-10360,-2183,2025-02-17 10:26:58,0.0
-11856,1080,-6648,-4110,-13060,-3009,2025-02-17 10:26:58,0.0
-12144,556,-6620,-4716,-14978,-2868,2025-02-17 10:26:58,0.0
-12508,-24,-5440,-5215,-17086,-2145,2025-02-17 10:26:58,0.0
-13684,-12,1172,-3593,-13071,-1581,2025-02-17 10:26:58,0.0
-12360,-120,-2812,-2088,-6169,-427,2025-02-17 10:26:58,0.0
-11184,476,-6296,-1795,-171,215,2025-02-17 10:26:58,0.0
-10776,2280,-6496,-2257,4018,-494,2025-02-17 10:26:58,0.0
-11404,3228,-4028,-2154,4115,-1561,2025-02-17 10:26:58,0.0
-12356,2756,-3112,-1709,2072,-2835,2025-02-17 10:26:58,0.0
-13204,1548,-3352,-1067,-1234,-3454,2025-02-17 10:26:58,0.0
-13552,456,-4164,-99,-3909,-2985,2025-02-17 10:26:58,0.0
-13916,196,-4860,759,-4853,-1354,2025-02-17 10:26:58,0.0
-13572,728,-5096,330,-2790,430,2025-02-17 10:26:58,0.0
-11744,1572,-4608,134,-1335,447,2025-02-17 10:26:58,0.0
-11668,1960,-4728,511,-1432,-305,2025-02-17 10:26:58,0.0
-12164,1660,-4704,868,-1917,-686,2025-02-17 10:26:58,0.0
-12708,1344,-3924,1075,-2401,-946,2025-02-17 10:26:58,0.0
-12828,988,-4552,877,-2188,-517,2025-02-17 10:26:58,0.0
-12984,808,-4704,96,-267,318,2025-02-17 10:26:58,0.0
-11928,656,-4048,-72,1592,301,2025-02-17 10:26:58,0.0
-11584,560,-3968,246,2189,-401,2025-02-17 10:26:58,0.0
-11800,688,-3524,898,1893,-1417,2025-02-17 10:26:58,0.0
-12976,780,-3968,1335,798,-2173,2025-02-17 10:26:58,0.0
-13708,396,-4408,1528,-280,-2326,2025-02-17 10:26:58,0.0
-14776,-36,-5180,932,-1231,-1390,2025-02-17 10:26:58,0.0
-14804,-180,-4740,243,-1749,194,2025-02-17 10:26:58,0.0
-14092,-12,-3908,21,-2135,1529,2025-02-17 10:26:58,0.0
-13604,436,-3148,262,-1912,2068,2025-02-17 10:26:58,0.0
-13052,772,-3692,238,439,2465,2025-02-17 10:26:58,0.0
-12856,836,-4500,-420,2754,2842,2025-02-17 10:26:58,0.0
-12808,1084,-4668,-1198,5126,3319,2025-02-17 10:26:58,0.0
-12184,1096,-3632,-1534,6911,3506,2025-02-17 10:26:58,0.0
-11652,1140,-2936,-765,8646,3046,2025-02-17 10:26:58,0.0
-12244,1248,-3408,663,10938,2580,2025-02-17 10:26:58,0.0
-12912,1324,-4468,1282,13921,2922,2025-02-17 10:26:58,0.0
-12980,948,-6456,946,19792,4255,2025-02-17 10:26:58,0.0
-12508,508,-7916,67,27069,5130,2025-02-17 10:26:58,
-11232,112,-8800,-954,32767,5237,2025-02-17 10:26:58,0.0
-10056,-496,-10152,-1667,32767,4556,2025-02-17 10:26:58,0.0
-9016,-640,-11184,-2266,32767,3809,2025-02-17 10:26:58,0.0
-7840,16,-10996,-3675,32767,3349,2025-02-17 10:26:58,0.0
-7424,2368,-10712,-1924,22613,3208,2025-02-17 10:26:58,0.0
-9508,956,-16636,-4748,16428,4946,2025-02-17 10:26:58,0.0
-6824,76,-14696,-7667,14109,6212,2025-02-17 10:26:58,0.0
-6348,-1416,-15160,-8846,13765,6027,2025-02-17 10:26:58,0.0
-4964,-1340,-14932,-8886,14562,5167,2025-02-17 10:26:58,0.0
-4612,-796,-15268,-8959,13572,4825,2025-02-17 10:26:58,0.0
-4216,-396,-16084,-9971,11207,5189,2025-02-17 10:26:58,0.0
-3576,-140,-16496,-11722,7628,5937,2025-02-17 10:26:58,0.0
-2716,28,-15952,-13464,3835,6424,2025-02-17 10:26:58,0.0
-1892,212,-15284,-15456,-526,6192,2025-02-17 10:26:58,0.0
-1892,464,-14332,-16334,-3132,5434,2025-02-17 10:26:58,0.0
-2580,840,-13592,-16168,-4432,4911,2025-02-17 10:26:59,0.0
-3092,1152,-12080,-15918,-5126,5116,2025-02-17 10:26:59,0.0
-2012,916,-7256,-14753,-6117,5908,2025-02-17 10:26:59,0.0
2064,-608,-1656,-10517,-8751,4014,2025-02-17 10:26:59,0.0
436,-16,-2532,-9318,-9454,2546,2025-02-17 10:26:59,0.0
-2064,420,-3084,-12306,-7164,5390,2025-02-17 10:26:59,0.0
2668,-560,2180,-13023,-6067,7454,2025-02-17 10:26:59,0.0
2836,-680,1392,-12970,-6727,7652,2025-02-17 10:26:59,0.0
2748,-780,1692,-12968,-7380,7729,2025-02-17 10:26:59,0.0
2824,-680,1836,-12866,-7915,7691,2025-02-17 10:26:59,0.0
2892,-716,1696,-12748,-8198,7514,2025-02-17 10:26:59,0.0
2772,-740,1832,-12708,-8549,7552,2025-02-17 10:26:59,0.0
2792,-780,1604,-12715,-8916,7653,2025-02-17 10:26:59,0.0
2668,-724,1528,-12812,-9312,7741,2025-02-17 10:26:59,0.0
2656,-676,1648,-12933,-9589,7873,2025-02-17 10:26:59,0.0
2676,-808,1528,-13012,-9846,8038,2025-02-17 10:26:59,0.0
2612,-720,1696,-13002,-10012,8323,2025-02-17 10:26:59,0.0
2608,-748,1640,-13016,-10033,8602,2025-02-17 10:26:59,0.0
2484,-660,1604,-13017,-10038,8871,2025-02-17 10:26:59,0.0
2272,-696,1860,-13067,-10073,9108,2025-02-17 10:26:59,0.0
2496,-700,1580,-13190,-10093,9405,2025-02-17 10:26:59,0.0
2528,-808,1528,-13475,-10029,9850,2025-02-17 10:26:59,0.0
2340,-1088,1152,-13428,-10164,10762,2025-02-17 10:26:59,0.0
2688,-1136,1580,-13400,-10551,11869,2025-02-17 10:26:59,0.0
2180,-836,2100,-13516,-10666,10847,2025-02-17 10:26:59,0.0
2604,-548,1472,-14250,-10549,12005,2025-02-17 10:26:59,0.0
5456,2128,676,-11943,-10674,10530,2025-02-17 10:26:59,0.0
-7712,32767,-4476,-8656,-7557,13027,2025-02-17 10:26:59,0.0
5320,32767,-32768,-32768,8417,-11211,2025-02-17 10:26:59,0.0
-4160,32767,5812,-10576,2539,-8091,2025-02-17 10:26:59,0.0
-3960,21780,-1808,-14374,-3498,-6575,2025-02-17 10:26:59,0.0
3736,3952,8452,-10641,-2954,-5866,2025-02-17 10:26:59,0.0
11060,2704,32767,6837,-3795,-3167,2025-02-17 10:26:59,0.0
16004,-1744,8776,22706,4021,-14598,2025-02-17 10:26:59,0.0
4376,-2440,1196,24371,7864,-17406,2025-02-17 10:26:59,0.0
4024,-1424,2056,23850,9767,-19117,2025-02-17 10:26:59,0.0
2308,616,-2280,17073,9778,-19668,2025-02-17 10:26:59,0.0
3528,4244,-4440,6299,7808,-20499,2025-02-17 10:26:59,0.0
4112,11508,-2324,-6223,3745,-25003,2025-02-17 10:26:59,0.0
4376,18608,2212,-12013,915,-30423,2025-02-17 10:26:59,0.0
2940,21164,7328,-9823,340,-32768,2025-02-17 10:26:59,0.0
3284,19148,8328,-1045,3269,-32768,2025-02-17 10:26:59,0.0
1760,10960,4412,7331,3751,-32768,2025-02-17 10:26:59,0.0
-1436,628,-296,8817,2602,-32768,2025-02-17 10:26:59,0.0
-6704,-5608,-3012,8369,5695,-32768,2025-02-17 10:26:59,0.0
-28776,-7280,-584,8977,11371,-32768,2025-02-17 10:26:59,0.0
-32768,-7644,4132,15056,10789,-32152,2025-02-17 10:26:59,0.0
-32768,-12236,-13204,12812,7719,-1908,2025-02-17 10:26:59,0.0
-29372,-12792,-16708,-855,8043,5562,2025-02-17 10:26:59,0.0
-20536,608,-4180,-3727,5926,4657,2025-02-17 10:26:59,0.0
-11480,3548,-1808,-2582,3483,6600,2025-02-17 10:26:59,0.0
-7040,4420,-376,-2147,-769,5508,2025-02-17 10:26:59,0.0
-6084,6040,508,-914,-1155,2658,2025-02-17 10:26:59,0.0
-8156,7580,536,61,-371,-156,2025-02-17 10:26:59,0.0
-11372,7360,100,366,183,-1489,2025-02-17 10:26:59,0.0
-13784,3508,-776,722,1823,-2147,2025-02-17 10:26:59,0.0
-15228,2064,-2892,402,2649,-1187,2025-02-17 10:26:59,0.0
-14532,2720,-3496,-117,2145,70,2025-02-17 10:26:59,0.0
-12368,4176,-2940,-358,-103,366,2025-02-17 10:26:59,0.0
-12000,4384,-1856,-244,-1006,76,2025-02-17 10:27:00,0.0
-12272,4432,-1124,-140,-297,-371,2025-02-17 10:27:00,0.0
-13228,3892,-1520,-57,498,-460,2025-02-17 10:27:00,0.0
-13412,3552,-2176,-112,811,-210,2025-02-17 10:27:00,0.0
-12960,3912,-2536,-216,228,-36,2025-02-17 10:27:00,0.0
-12696,4056,-1924,-241,-325,-87,2025-02-17 10:27:00,0.0
-12740,4172,-1680,-172,-143,-242,2025-02-17 10:27:00,0.0
-12968,3924,-1608,-117,381,-247,2025-02-17 10:27:00,0.0
-13024,3748,-2140,-140,523,-224,2025-02-17 10:27:00,0.0
-12920,3816,-2348,-168,155,-147,2025-02-17 10:27:00,0.0
-12856,4016,-1952,-204,-72,-133,2025-02-17 10:27:00,0.0
-12784,4000,-1820,-158,123,-202,2025-02-17 10:27:00,0.0
-12920,3896,-1936,-121,324,-195,2025-02-17 10:27:00,0.0
-12868,3976,-2252,-146,296,-213,2025-02-17 10:27:00,0.0
-12964,3872,-2096,-173,110,-183,2025-02-17 10:27:00,0.0
-12848,3868,-1916,-151,82,-156,2025-02-17 10:27:00,0.0
-12840,3936,-1924,-151,176,-177,2025-02-17 10:27:00,0.0
-12784,3912,-2044,-160,268,-187,2025-02-17 10:27:00,0.0
-12944,3900,-2076,-145,182,-198,2025-02-17 10:27:00,0.0
-12928,3936,-2076,-181,129,-176,2025-02-17 10:27:00,0.0
-12960,4028,-2012,-183,157,-181,2025-02-17 10:27:00,0.0
-12904,3892,-1832,-153,204,-167,2025-02-17 10:27:00,0.0
-12840,3928,-2064,-176,172,-199,2025-02-17 10:27:00,0.0
-12828,3928,-1944,-164,162,-198,2025-02-17 10:27:00,0.0
-12852,3964,-2036,-144,163,-174,2025-02-17 10:27:00,0.0
-12780,4004,-1976,-161,166,-177,2025-02-17 10:27:00,
-12964,3916,-1884,-144,170,-162,2025-02-17 10:27:00,0.0
-12816,3940,-1940,-148,149,-186,2025-02-17 10:27:00,0.0
-12764,3988,-1856,-155,151,-184,2025-02-17 10:27:00,0.0
-12916,3916,-2060,-163,174,-186,2025-02-17 10:27:00,0.0
-12824,3984,-1968,-174,179,-177,2025-02-17 10:27:00,0.0
-12860,4000,-2140,-142,179,-172,2025-02-17 10:27:00,0.0
-12820,3916,-1964,-154,170,-173,2025-02-17 10:27:00,0.0
-12856,3976,-1988,-153,174,-177,2025-02-17 10:27:00,0.0
-12836,3996,-1940,-171,187,-179,2025-02-17 10:27:00,0.0
-12840,3876,-2040,-139,177,-147,2025-02-17 10:27:00,0.0
-12960,3864,-1876,-163,156,-191,2025-02-17 10:27:00,0.0
-12852,4012,-1980,-161,166,-169,2025-02-17 10:27:00,0.0
-12932,3888,-1988,-152,174,-172,2025-02-17 10:27:00,0.0
-12784,3948,-1876,-166,191,-161,2025-02-17 10:27:00,0.0
-12904,3944,-2020,-149,180,-191,2025-02-17 10:27:00,0.0
-12896,4000,-2076,-173,177,-171,2025-02-17 10:27:00,0.0
-12832,3856,-2104,-158,183,-167,2025-02-17 10:27:00,0.0
-12816,3908,-2104,-155,178,-185,2025-02-17 10:27:00,0.0
-12844,3912,-1928,-172,212,-175,2025-02-17 10:27:00,0.0
-12900,3912,-1992,-154,180,-177,2025-02-17 10:27:00,0.0
-12804,3960,-1952,-177,171,-183,2025-02-17 10:27:00,0.0
-12880,3920,-1872,-138,188,-169,2025-02-17 10:27:00,0.0
-12788,4004,-1872,-136,158,-174,2025-02-17 10:27:00,0.0
-12936,3884,-1916,-133,168,-169,2025-02-17 10:27:00,0.0
-12940,3940,-1996,-161,183,-170,2025-02-17 10:27:00,0.0
-12860,3924,-2144,-168,170,-175,2025-02-17 10:27:00,0.0
-12920,3968,-2028,-181,171,-187,2025-02-17 10:27:00,0.0
-12856,3936,-2068,-162,151,-170,2025-02-17 10:27:00,0.0
-12896,3948,-1944,-176,183,-172,2025-02-17 10:27:00,0.0
-12848,3876,-1956,-177,173,-179,2025-02-17 10:27:00,0.0
-12936,3960,-1912,-154,177,-198,2025-02-17 10:27:00,0.0
-12932,3944,-1900,-159,166,-189,2025-02-17 10:27:00,0.0
-12864,3828,-1952,-174,180,-179,2025-02-17 10:27:00,0.0
-12884,3976,-1908,-175,178,-180,2025-02-17 10:27:00,0.0
-12884,3996,-2048,-163,189,-192,2025-02-17 10:27:00,0.0
-12876,3952,-2112,-186,173,-177,2025-02-17 10:27:01,0.0
-12880,3936,-1968,-153,164,-181,2025-02-17 10:27:01,0.0
-12852,3988,-1984,-159,176,-181,2025-02-17 10:27:01,0.0
-12944,3876,-1936,-152,192,-171,2025-02-17 10:27:01,0.0
-12820,3932,-2084,-154,184,-176,2025-02-17 10:27:01,0.0
-12900,3952,-2144,-149,183,-174,2025-02-17 10:27:01,0.0
-12908,3948,-2064,-161,193,-172,2025-02-17 10:27:01,0.0
-12844,3952,-1992,-152,163,-183,2025-02-17 10:27:01,0.0
-12908,3932,-1924,-156,206,-177,2025-02-17 10:27:01,0.0
-12632,1864,-2572,-303,301,-355,2025-02-17 10:27:01,0.0
-14436,-3808,-8824,-3760,4629,-1803,2025-02-17 10:27:01,0.0
-13396,672,-4936,-7019,3359,-1004,2025-02-17 10:27:01,0.0
-12128,4496,-508,-6254,-2181,-1361,2025-02-17 10:27:01,0.0
-14220,2624,-428,-5651,-2091,-2030,2025-02-17 10:27:01,0.0
-15324,2560,-840,-6549,1446,-916,2025-02-17 10:27:01,0.0
-13160,5276,436,-6172,3904,-433,2025-02-17 10:27:01,0.0
-12020,6936,-4,-4698,3732,-563,2025-02-17 10:27:01,0.0
-11512,7096,-1236,-3664,2661,-755,2025-02-17 10:27:01,0.0
-12268,7132,-1412,-2589,1530,-536,2025-02-17 10:27:01,0.0
-11968,7192,-1648,-1751,534,-358,2025-02-17 10:27:01,0.0
-11720,7112,-392,-731,-845,-298,2025-02-17 10:27:01,0.0
-11736,5492,40,319,-1673,-569,2025-02-17 10:27:01,0.0
-13896,3452,-1120,130,1388,-1171,2025-02-17 10:27:01,0.0
-13292,2844,-2656,166,1937,-599,2025-02-17 10:27:01,0.0
-13788,3104,-3364,-107,1224,-270,2025-02-17 10:27:01,0.0
-13036,3496,-3196,-311,-468,241,2025-02-17 10:27:01,0.0
-12464,4328,-1784,-345,-798,159,2025-02-17 10:27:01,0.0
-12200,4624,-1348,-177,-315,-132,2025-02-17 10:27:01,0.0
-12652,4156,-1312,-37,517,-467,2025-02-17 10:27:01,0.0
-12752,3492,-2392,-58,751,-419,2025-02-17 10:27:01,0.0
-13388,3464,-2536,-96,338,-104,2025-02-17 10:27:01,0.0
-13340,3740,-2572,-307,-63,136,2025-02-17 10:27:01,0.0
-12328,4420,-1776,-245,-126,52,2025-02-17 10:27:01,0.0
-12416,4368,-1712,-85,201,-254,2025-02-17 10:27:01,0.0
-12812,4020,-1876,-92,476,-326,2025-02-17 10:27:01,0.0
-13052,3780,-2472,-146,283,-271,2025-02-17 10:27:01,0.0
-13044,3596,-2404,-184,66,-88,2025-02-17 10:27:01,0.0
-12784,4000,-1968,-249,17,-28,2025-02-17 10:27:01,0.0
-12472,4188,-1724,-185,148,-116,2025-02-17 10:27:01,0.0
-12644,3964,-1948,-132,296,-229,2025-02-17 10:27:01,0.0
-12896,3848,-2024,-127,237,-238,2025-02-17 10:27:01,0.0
-12956,3736,-2208,-152,160,-181,2025-02-17 10:27:01,0.0
-12892,3948,-2344,-198,149,-108,2025-02-17 10:27:01,0.0
-12468,4132,-1892,-158,50,-190,2025-02-17 10:27:01,0.0
-12880,3916,-2020,-120,190,-286,2025-02-17 10:27:01,0.0
-13220,3648,-1988,-75,225,-165,2025-02-17 10:27:01,0.0
-13224,3540,-2876,-201,608,-37,2025-02-17 10:27:01,0.0
-12404,4204,-2036,-188,-154,42,2025-02-17 10:27:01,0.0
-12744,4268,-1828,-148,15,-180,2025-02-17 10:27:01,0.0
-12864,3816,-2056,-158,286,-177,2025-02-17 10:27:01,0.0
-12816,4000,-2152,-104,377,-201,2025-02-17 10:27:01,0.0
-12836,3792,-2468,-159,192,-144,2025-02-17 10:27:01,0.0
-12692,4044,-2184,-217,5,-225,2025-02-17 10:27:01,0.0
-12808,4024,-1940,-161,45,-196,2025-02-17 10:27:01,0.0
-12668,3980,-1960,-57,377,-311,2025-02-17 10:27:01,0.0
-12244,4340,-1892,-13,353,-448,2025-02-17 10:27:01,0.0
-13320,3588,-2380,39,200,-565,2025-02-17 10:27:01,0.0
-13564,3404,-2716,-339,223,-70,2025-02-17 10:27:01,0.0
-12788,3980,-2124,-210,-142,-39,2025-02-17 10:27:01,0.0
-12432,4080,-1924,-250,-74,-131,2025-02-17 10:27:01,0.0
-12624,4244,-1692,-130,192,-307,2025-02-17 10:27:01,0.0
-12888,3800,-1996,-99,487,-338,2025-02-17 10:27:01,0.0
-12700,3688,-2596,-133,232,-264,2025-02-17 10:27:01,0.0
-12916,4020,-2324,-223,-192,-237,2025-02-17 10:27:01,0.0
-12640,3984,-2224,-205,-83,-277,2025-02-17 10:27:02,
-12548,4012,-2068,-166,63,-378,2025-02-17 10:27:02,0.0
-13060,3972,-2036,-137,268,-449,2025-02-17 10:27:02,0.0
-13080,3556,-2424,-172,71,-301,2025-02-17 10:27:02,0.0
-12896,3868,-2120,-166,-366,-142,2025-02-17 10:27:02,0.0
-13348,3744,-1796,-125,138,-14,2025-02-17 10:27:02,0.0
-12512,3816,-1888,-90,673,-102,2025-02-17 10:27:02,0.0
-12724,3836,-2484,-234,342,-34,2025-02-17 10:27:02,0.0
-13396,3692,-2424,-205,92,-1,2025-02-17 10:27:02,0.0
-12884,3812,-2168,-280,-83,191,2025-02-17 10:27:02,0.0
-12800,4248,-1936,-236,-290,210,2025-02-17 10:27:02,0.0
-15724,3824,-1260,-204,-1102,1327,2025-02-17 10:27:02,0.0
-11188,4276,-2432,-1175,-3385,1147,2025-02-17 10:27:02,0.0
-15652,6096,688,476,1703,-2721,2025-02-17 10:27:02,0.0
-14196,-364,1932,-633,4215,4336,2025-02-17 10:27:02,0.0
-10608,5688,-3008,-1179,8644,828,2025-02-17 10:27:02,0.0
-12180,6104,-1400,-277,8932,-1100,2025-02-17 10:27:02,0.0
-12920,3632,-3032,707,5271,-104,2025-02-17 10:27:02,0.0
-12208,3640,-4448,210,2354,934,2025-02-17 10:27:02,0.0
-12216,3896,-3636,181,-67,1802,2025-02-17 10:27:02,0.0
-12140,3908,-3700,-638,88,1957,2025-02-17 10:27:02,0.0
-12056,5308,-1064,-866,2819,720,2025-02-17 10:27:02,0.0
-13980,6176,192,66,6917,-966,2025-02-17 10:27:02,0.0
-13488,4236,-1804,422,11603,-842,2025-02-17 10:27:02,0.0
-13008,2544,-3320,81,14898,-229,2025-02-17 10:27:02,0.0
-14184,3556,-4632,591,16148,615,2025-02-17 10:27:02,0.0
-12232,3832,-6428,-29,16844,1986,2025-02-17 10:27:02,0.0
-9492,5752,-4692,160,16710,1232,2025-02-17 10:27:02,0.0
-10328,6192,-5924,986,13945,-1487,2025-02-17 10:27:02,0.0
-10284,3456,-7992,205,11107,-748,2025-02-17 10:27:02,0.0
-10460,2948,-7740,-1522,9789,-111,2025-02-17 10:27:02,0.0
-11120,4312,-6656,-1287,9544,-10,2025-02-17 10:27:02,0.0
-11280,5072,-6560,-279,8357,689,2025-02-17 10:27:02,0.0
-9824,4220,-7516,265,6692,1443,2025-02-17 10:27:02,0.0
-8664,3872,-8064,-29,3931,1835,2025-02-17 10:27:02,0.0
-11400,5084,-6520,2596,-1090,524,2025-02-17 10:27:02,0.0
-10352,4232,-7520,2935,750,1644,2025-02-17 10:27:02,0.0
-10644,3560,-7072,3763,2699,2556,2025-02-17 10:27:02,0.0
-10712,3388,-7624,4324,2722,3287,2025-02-17 10:27:02,0.0
-8824,3900,-8136,3989,1603,3632,2025-02-17 10:27:02,0.0
-7764,4068,-8088,2287,-1975,873,2025-02-17 10:27:02,0.0
-10676,4556,-7232,799,-4232,-905,2025-02-17 10:27:02,0.0
-13564,4172,-7964,680,-1634,-12,2025-02-17 10:27:02,0.0
-11396,4484,-7848,757,1484,-107,2025-02-17 10:27:02,0.0
-11596,4392,-8064,15,3558,-175,2025-02-17 10:27:02,0.0
-10920,2968,-6768,1234,5686,-814,2025-02-17 10:27:02,0.0
-10980,2960,-7144,3802,9756,-761,2025-02-17 10:27:02,0.0
-10336,3792,-10080,4446,14351,-694,2025-02-17 10:27:02,0.0
-11536,5144,-8776,4159,18413,-1195,2025-02-17 10:27:02,0.0
-11848,6516,-9520,5256,20928,-382,2025-02-17 10:27:02,0.0
-11068,7448,-9800,8511,22074,1642,2025-02-17 10:27:02,0.0
-7928,6256,-11436,13108,24246,3031,2025-02-17 10:27:02,0.0
-6712,4736,-15644,14749,26477,1549,2025-02-17 10:27:02,0.0
-8100,3180,-17052,13842,28866,2144,2025-02-17 10:27:02,0.0
-6700,3308,-16972,11708,28307,4406,2025-02-17 10:27:02,0.0
-6644,5012,-18876,11756,25768,5761,2025-02-17 10:27:02,0.0
-8680,6760,-19228,11440,24044,7410,2025-02-17 10:27:02,0.0
-5532,6060,-20804,10798,24843,8345,2025-02-17 10:27:02,0.0
-6264,5624,-21092,10971,25190,7660,2025-02-17 10:27:02,0.0
-7376,4504,-20372,12063,25847,8516,2025-02-17 10:27:03,0.0
-6016,2328,-22720,6752,25484,8828,2025-02-17 10:27:03,0.0
-4208,1128,-15868,5533,18476,10116,2025-02-17 10:27:03,0.0
-1256,632,-13512,8992,6136,11717,2025-02-17 10:27:03,0.0
104,2232,-14112,11333,-9239,12649,2025-02-17 10:27:03,0.0
816,3396,-15988,11908,-23796,11687,2025-02-17 10:27:03,0.0
-768,4064,-18192,10236,-32768,7550,2025-02-17 10:27:03,0.0
-6236,4008,-17352,9374,-32768,7091,2025-02-17 10:27:03,0.0
-7452,4092,-15252,10525,-32768,7428,2025-02-17 10:27:03,0.0
-9212,2964,-16592,13001,-23797,9258,2025-02-17 10:27:03,0.0
-7420,2528,-17468,16034,-12601,9756,2025-02-17 10:27:03,0.0
-4008,96,-20860,16500,1073,6732,2025-02-17 10:27:03,0.0
-1976,-3244,-21936,13208,12232,1471,2025-02-17 10:27:03,0.0
-1892,-4268,-19284,9524,17620,-3468,2025-02-17 10:27:03,0.0
-5184,-4852,-16916,8963,14544,-1008,2025-02-17 10:27:03,0.0
-4824,-4612,-18544,8332,6717,4530,2025-02-17 10:27:03,0.0
-3672,-4576,-17532,4220,-247,8240,2025-02-17 10:27:03,0.0
-1668,-5204,-12748,5523,-4840,8677,2025-02-17 10:27:03,0.0
-560,-6376,-13776,7422,-5327,5226,2025-02-17 10:27:03,0.0
-2908,-8700,-15736,8692,-1662,-340,2025-02-17 10:27:03,0.0
-5468,-9496,-18160,7233,1709,-2178,2025-02-17 10:27:03,0.0
-5920,-9728,-17884,3196,4569,-2178,2025-02-17 10:27:03,0.0
-5288,-8584,-14056,873,6087,-1734,2025-02-17 10:27:03,0.0
-5280,-7452,-13060,682,4986,-771,2025-02-17 10:27:03,0.0
-6104,-4264,-13292,-549,568,2292,2025-02-17 10:27:03,0.0
-6348,-56,-11832,-363,-7432,8749,2025-02-17 10:27:03,0.0
1720,928,-14260,-2892,-12860,8478,2025-02-17 10:27:03,0.0
3164,772,-13356,-6279,-13487,39,2025-02-17 10:27:03,0.0
-1740,580,-10904,-10011,-15418,-3376,2025-02-17 10:27:03,0.0
-3644,-192,-8312,-11124,-19082,-1132,2025-02-17 10:27:03,0.0
-3144,-1168,-6564,-8183,-23630,1568,2025-02-17 10:27:03,0.0
-4060,-2004,-7396,-4424,-25653,3042,2025-02-17 10:27:03,0.0
-4912,-3316,-9520,-1234,-24937,3696,2025-02-17 10:27:03,0.0
-5196,-4772,-12052,-424,-21448,3678,2025-02-17 10:27:03,0.0
-5800,-6260,-13320,-1854,-15629,3266,2025-02-17 10:27:03,0.0
-7344,-6740,-12424,-4437,-9162,4403,2025-02-17 10:27:03,0.0
-6132,-6304,-9864,-5845,-3805,6005,2025-02-17 10:27:03,0.0
-5236,-5232,-7528,-5089,922,6388,2025-02-17 10:27:03,0.0
-4372,-3564,-8660,-4312,5187,5768,2025-02-17 10:27:03,0.0
-2948,-1620,-10720,-6191,10725,4177,2025-02-17 10:27:03,0.0
-4184,-324,-8192,-8957,15528,2007,2025-02-17 10:27:03,0.0
-4964,8,-5616,-9079,19295,705,2025-02-17 10:27:04,
-6324,560,-3380,-5300,22105,1208,2025-02-17 10:27:04,0.0
-7008,452,-4256,-679,23250,3385,2025-02-17 10:27:04,0.0
-4280,-740,-7160,1686,24060,3998,2025-02-17 10:27:04,0.0
-2752,-1272,-9308,1675,24310,1826,2025-02-17 10:27:04,0.0
-3260,-1312,-10884,409,22717,353,2025-02-17 10:27:04,0.0
-3132,-1272,-10856,-950,18954,93,2025-02-17 10:27:04,0.0
-3152,-912,-9208,-816,13242,763,2025-02-17 10:27:04,0.0
-2632,-500,-8312,643,6051,2006,2025-02-17 10:27:04,0.0
-8064,-3440,-10208,-3047,172,-746,2025-02-17 10:27:04,0.0
-8536,-3816,-11112,-4266,2993,-1148,2025-02-17 10:27:04,0.0
-9020,-4036,-11028,-5606,5736,-1232,2025-02-17 10:27:04,0.0
-9380,-3948,-10024,-6090,8123,-945,2025-02-17 10:27:04,0.0
-9524,-3516,-9236,-5588,9914,-264,2025-02-17 10:27:04,0.0
-8144,-3688,-8872,-4525,10101,509,2025-02-17 10:27:04,0.0
-6676,-6928,16620,-2517,-3032,274,2025-02-17 10:27:04,0.0
-21652,-6816,7012,-48,-23913,1165,2025-02-17 10:27:04,0.0
-12476,-1712,-9244,-390,-27858,1437,2025-02-17 10:27:04,0.0
-9052,-68,-16228,685,-27136,1290,2025-02-17 10:27:04,0.0
-9768,-1260,-20056,-1259,-24279,442,2025-02-17 10:27:04,0.0
-11720,-2136,-13800,-9210,-31940,-165,2025-02-17 10:27:04,0.0
-13860,-464,776,-7103,-32768,2255,2025-02-17 10:27:04,0.0
-11428,-1048,-1264,-101,-32768,2213,2025-02-17 10:27:04,0.0
-9224,-2380,-3876,2756,-32768,-488,2025-02-17 10:27:04,0.0
-10420,-2888,-4776,-240,-32768,-2386,2025-02-17 10:27:04,0.0
-15808,-1656,3272,-3184,-32768,-1631,2025-02-17 10:27:04,0.0
-11660,-1976,10192,-1503,-23145,-681,2025-02-17 10:27:04,0.0
-8444,-1584,6404,1924,-11123,-901,2025-02-17 10:27:04,0.0
-9388,-480,352,1112,-1130,-967,2025-02-17 10:27:04,0.0
-13836,308,1944,3082,2975,607,2025-02-17 10:27:04,0.0
-13840,1052,-656,1085,2023,1579,2025-02-17 10:27:04,0.0
-13252,892,2224,-745,1252,2073,2025-02-17 10:27:04,0.0
-12516,944,1564,-980,2067,1130,2025-02-17 10:27:04,0.0
-12916,1388,1128,-2462,3418,459,2025-02-17 10:27:04,0.0
-13220,472,1576,-4010,5854,512,2025-02-17 10:27:04,0.0
-12160,292,1996,-3892,5074,976,2025-02-17 10:27:04,0.0
-13092,-144,2788,-1653,3667,1500,2025-02-17 10:27:04,0.0
-14308,-528,952,-264,4234,2296,2025-02-17 10:27:04,0.0
-13612,-128,-316,-718,4867,2154,2025-02-17 10:27:04,0.0
-13432,1036,-440,-1978,4910,1152,2025-02-17 10:27:04,0.0
-13972,1684,-232,-2764,6040,-318,2025-02-17 10:27:04,0.0
-15000,1952,-744,-3402,5529,-1329,2025-02-17 10:27:04,0.0
-15924,2344,-1424,-4314,2988,-685,2025-02-17 10:27:04,0.0
-15708,2216,-1072,-4981,3439,362,2025-02-17 10:27:04,0.0
-14348,1928,-1236,-5545,2504,849,2025-02-17 10:27:04,0.0
-13616,2232,-1684,-5958,2764,481,2025-02-17 10:27:04,0.0
-12700,2500,-1684,-6855,2509,-364,2025-02-17 10:27:05,0.0
-12800,2396,-872,-8005,2238,-1219,2025-02-17 10:27:05,0.0
-13316,1804,-652,-9024,3311,-1913,2025-02-17 10:27:05,0.0
-13216,1184,-548,-9982,5115,-2262,2025-02-17 10:27:05,0.0
-13080,824,-296,-10804,6524,-2514,2025-02-17 10:27:05,0.0
-13016,740,-628,-11381,7083,-2580,2025-02-17 10:27:05,0.0
-13448,608,-488,-11605,7152,-2395,2025-02-17 10:27:05,0.0
-13764,788,640,-11425,7099,-2299,2025-02-17 10:27:05,0.0
-13656,1324,-332,-11007,6493,-2319,2025-02-17 10:27:05,0.0
-15708,-4748,-5684,-10713,2691,-5865,2025-02-17 10:27:05,0.0
-12760,-2456,-4644,-11001,3367,-4374,2025-02-17 10:27:05,0.0
-12932,-860,-4224,-10111,3640,-4407,2025-02-17 10:27:05,0.0
-13628,-260,-4164,-9712,3630,-4358,2025-02-17 10:27:05,0.0
-14708,-764,-3596,-10442,3631,-4403,2025-02-17 10:27:05,0.0
-14992,-1816,-3604,-10952,2851,-4775,2025-02-17 10:27:05,0.0
-14700,-2716,-4792,-11415,481,-5362,2025-02-17 10:27:05,0.0
-13424,-3360,-5080,-12112,-1543,-5658,2025-02-17 10:27:05,0.0
-12068,-3064,-4808,-12177,-1662,-5622,2025-02-17 10:27:05,0.0
-11304,-2148,-5216,-12337,-717,-5358,2025-02-17 10:27:05,0.0
-10900,-908,-4748,-12691,114,-5222,2025-02-17 10:27:05,0.0
-11536,-632,-4228,-13031,651,-5330,2025-02-17 10:27:05,0.0
-11896,-1296,-4136,-13029,-256,-5468,2025-02-17 10:27:05,0.0
-11872,-2152,-4564,-12655,-1990,-5202,2025-02-17 10:27:05,0.0
-11328,-3276,-4796,-12034,-3196,-5068,2025-02-17 10:27:05,0.0
-11916,-3860,-5560,-12274,-3186,-5058,2025-02-17 10:27:05,0.0
-12832,-3668,-5332,-13293,-1436,-4372,2025-02-17 10:27:05,0.0
-12476,-3252,-4060,-13682,821,-3267,2025-02-17 10:27:05,0.0
-13004,-4564,-4328,-13348,675,-2696,2025-02-17 10:27:05,0.0
-13264,-4492,-5216,-13213,327,-2236,2025-02-17 10:27:05,0.0
-13584,-3056,-5672,-13600,-176,-1964,2025-02-17 10:27:05,0.0
-12800,-1004,-5400,-13690,-1016,-2452,2025-02-17 10:27:05,0.0
-13288,564,-4164,-13635,-1837,-3006,2025-02-17 10:27:05,0.0
-13156,788,-2736,-11929,-2392,-2791,2025-02-17 10:27:05,0.0
-12000,-580,-3376,-10583,-2031,-2921,2025-02-17 10:27:05,0.0
-11336,-1892,-4156,-9726,-629,-3614,2025-02-17 10:27:05,0.0
-12060,-2380,-4764,-9443,1277,-3752,2025-02-17 10:27:05,0.0
-13164,-2272,-4648,-9338,3073,-2985,2025-02-17 10:27:05,0.0
-13680,-1168,-3644,-9317,3916,-1868,2025-02-17 10:27:05,0.0
-14448,548,-2368,-9009,3792,-692,2025-02-17 10:27:05,0.0
-14728,1460,-2744,-8671,2473,-300,2025-02-17 10:27:05,0.0
-14440,1636,-3672,-8309,844,-737,2025-02-17 10:27:05,0.0
-14356,1216,-3936,-8322,-671,-1190,2025-02-17 10:27:05,0.0
-13336,916,-3288,-8182,-1056,-1386,2025-02-17 10:27:05,0.0
-12332,704,-2676,-7981,-758,-1660,2025-02-17 10:27:05,0.0
-11836,608,-2588,-7779,-54,-1761,2025-02-17 10:27:05,0.0
-11472,676,-2508,-7420,984,-1723,2025-02-17 10:27:05,0.0
-11732,672,-2756,-7243,2290,-1803,2025-02-17 10:27:05,0.0
-12760,616,-2672,-6479,2725,-2508,2025-02-17 10:27:05,0.0
-12684,-20,-2900,-5909,2489,-2859,2025-02-17 10:27:05,0.0
-12676,-204,-2952,-5288,2216,-3219,2025-02-17 10:27:05,0.0
-12652,-484,-2932,-4814,1974,-3528,2025-02-17 10:27:05,0.0
-12656,-464,-3208,-4357,1634,-3747,2025-02-17 10:27:05,0.0
-12332,-932,-2992,-3504,1190,-3560,2025-02-17 10:27:05,0.0
-12708,320,-3724,-2669,777,-3129,2025-02-17 10:27:05,0.0
-12968,612,-4916,-2439,2054,-2721,2025-02-17 10:27:05,
-14488,124,-6724,-2785,4285,-2324,2025-02-17 10:27:05,0.0
-15612,-676,-5448,-3315,5718,-1529,2025-02-17 10:27:05,0.0
-14940,-268,-3640,-2815,1644,-1483,2025-02-17 10:27:06,0.0
-13688,-284,-1824,-2442,-2993,-1975,2025-02-17 10:27:06,0.0
-12060,-592,-1512,-1711,-5113,-2422,2025-02-17 10:27:06,0.0
-11588,-876,-2348,-1022,-4895,-2313,2025-02-17 10:27:06,0.0
-11780,-1376,-3424,-604,-1869,-1774,2025-02-17 10:27:06,0.0
-12236,-1492,-4440,-434,2092,-1417,2025-02-17 10:27:06,0.0
-13968,-1000,-4460,-122,2717,-1096,2025-02-17 10:27:06,0.0
-14160,-232,-4500,27,1208,-1166,2025-02-17 10:27:06,0.0
-14004,-592,-4340,348,-766,-1167,2025-02-17 10:27:06,0.0
-13288,-716,-4612,898,-1572,-998,2025-02-17 10:27:06,0.0
-11832,-820,-4904,1397,-1057,-1207,2025-02-17 10:27:06,0.0
-11612,-1400,-4136,1792,-292,-1415,2025-02-17 10:27:06,0.0
-11656,-2160,-3780,1826,-22,-1250,2025-02-17 10:27:06,0.0
-12244,-2428,-4240,1160,504,-929,2025-02-17 10:27:06,0.0
-12920,-2212,-4288,877,1201,-959,2025-02-17 10:27:06,0.0
-13480,-1400,-4440,767,1430,-1115,2025-02-17 10:27:06,0.0
-12748,-264,-4240,-67,1043,-2859,2025-02-17 10:27:06,0.0
-12708,-852,-4368,-719,1130,-3438,2025-02-17 10:27:06,0.0
-12816,-1808,-4092,-1019,1012,-3755,2025-02-17 10:27:06,0.0
-12888,-2636,-3584,-1177,556,-3548,2025-02-17 10:27:06,0.0
-12756,-2892,-2916,-1042,89,-3080,2025-02-17 10:27:06,0.0
-12600,-2872,-3456,-844,581,-2612,2025-02-17 10:27:06,0.0
-12352,-2476,-3012,-794,107,-2094,2025-02-17 10:27:06,0.0
-11820,-2140,-2912,-673,-78,-2105,2025-02-17 10:27:06,0.0
-12272,-1852,-2496,-420,1,-2012,2025-02-17 10:27:06,0.0
-12376,-1672,-2564,-200,493,-1676,2025-02-17 10:27:06,0.0
-11948,-1952,-2312,143,642,-1700,2025-02-17 10:27:06,0.0
-12608,-2344,-1536,631,491,-1629,2025-02-17 10:27:06,0.0
-13136,-2688,-1740,840,502,-1239,2025-02-17 10:27:06,0.0
-13512,-2756,-2472,853,508,-747,2025-02-17 10:27:06,0.0
-13724,-2360,-2712,573,89,-353,2025-02-17 10:27:06,0.0
-13612,-1748,-2456,336,-493,-320,2025-02-17 10:27:06,0.0
-13696,-1228,-2312,97,-924,-504,2025-02-17 10:27:06,0.0
-13808,-816,-1484,-178,-1542,-664,2025-02-17 10:27:06,0.0
-13612,-956,-1492,-144,-2650,-863,2025-02-17 10:27:06,0.0
-12828,-1572,-2460,-371,-3719,-1104,2025-02-17 10:27:06,0.0
-11748,-1792,-3288,-918,-3919,-1517,2025-02-17 10:27:06,0.0
-11284,-2268,-2948,-1201,-3536,-1773,2025-02-17 10:27:06,0.0
-11868,-2584,-2372,-1579,-2054,-1844,2025-02-17 10:27:06,0.0
-13176,-3044,-2196,-2323,126,-1627,2025-02-17 10:27:06,0.0
-14436,-4036,-2644,-3343,1795,-1495,2025-02-17 10:27:06,0.0
-14724,-4632,-2576,-3547,1508,-1977,2025-02-17 10:27:06,0.0
-16836,-4788,-1740,-3267,-393,-1712,2025-02-17 10:27:06,0.0
-16316,-4476,-888,-3164,-1773,-502,2025-02-17 10:27:06,0.0
-14568,-4884,-2984,-3329,-1214,-415,2025-02-17 10:27:06,0.0
-15040,-4720,-3844,-3377,768,-814,2025-02-17 10:27:06,0.0
-15420,-4864,-3232,-2585,2636,-1324,2025-02-17 10:27:06,0.0
-16892,-5816,-2760,-1815,2440,-2210,2025-02-17 10:27:06,0.0
-17500,-6284,-2368,-1328,-658,-1682,2025-02-17 10:27:06,0.0
-16608,-5740,-2844,-703,-3185,-394,2025-02-17 10:27:06,0.0
-14912,-3136,-3028,76,-3813,698,2025-02-17 10:27:06,0.0
-13712,-1104,-5100,181,-3718,1255,2025-02-17 10:27:06,0.0
-12840,-1724,-5800,-296,-3406,1903,2025-02-17 10:27:06,0.0
-11604,-2536,-6504,86,-3306,2177,2025-02-17 10:27:06,0.0
-10508,-3220,-7716,451,-2981,2097,2025-02-17 10:27:06,0.0
-9712,-3244,-7964,959,-1949,1728,2025-02-17 10:27:06,0.0
-10320,-1944,-7224,1139,343,1814,2025-02-17 10:27:06,0.0
-10884,-176,-5688,1156,3013,2183,2025-02-17 10:27:06,0.0
-12444,1164,-6212,611,5643,3177,2025-02-17 10:27:06,0.0
-12700,604,-6180,697,5848,4046,2025-02-17 10:27:06,0.0
-13592,-212,-5960,1285,5246,4180,2025-02-17 10:27:07,0.0
-13124,-956,-6252,974,3201,3994,2025-02-17 10:27:07,0.0
-12964,-1168,-5432,755,589,3323,2025-02-17 10:27:07,0.0
-14200,-880,-5368,386,-311,3640,2025-02-17 10:27:07,0.0
-12644,-488,-4768,114,-1821,3951,2025-02-17 10:27:07,0.0
-11500,136,-3716,97,-3328,3824,2025-02-17 10:27:07,0.0
-10780,1020,-3540,318,-3972,3663,2025-02-17 10:27:07,0.0
-9840,1136,-3388,217,-2891,3311,2025-02-17 10:27:07,0.0
-9336,1388,-2556,75,-1679,2503,2025-02-17 10:27:07,0.0
-9440,1368,-1964,-216,-885,1666,2025-02-17 10:27:07,0.0
-9516,664,-2092,-391,-116,1135,2025-02-17 10:27:07,0.0
-10140,324,-2616,-401,981,987,2025-02-17 10:27:07,0.0
-10368,-144,-2648,-413,2461,728,2025-02-17 10:27:07,0.0
-10696,-276,-1904,-534,3460,106,2025-02-17 10:27:07,0.0
-11808,92,-1316,-420,3447,-341,2025-02-17 10:27:07,0.0
-12816,-32,-1168,-165,2580,-506,2025-02-17 10:27:07,0.0
-13628,-128,-1204,187,1416,-655,2025-02-17 10:27:07,0.0
-13908,-736,-1792,570,180,-766,2025-02-17 10:27:07,0.0
-13696,-1092,-2532,747,-686,-800,2025-02-17 10:27:07,0.0
-13900,-700,-2988,1002,-1028,-707,2025-02-17 10:27:07,0.0
-14116,384,-3632,1031,-1224,-331,2025-02-17 10:27:07,0.0
-14200,912,-3224,1450,-1326,339,2025-02-17 10:27:07,0.0
-13924,540,-3260,1965,-1248,1308,2025-02-17 10:27:07,0.0
-13836,1124,-3640,2099,-284,2057,2025-02-17 10:27:07,0.0
-14644,1496,-2620,1969,1726,2833,2025-02-17 10:27:07,0.0
-15756,504,-1296,2290,2873,3024,2025-02-17 10:27:07,0.0
-16080,-500,-3044,2802,2620,2842,2025-02-17 10:27:07,0.0
-17100,-316,-4116,3133,2089,3252,2025-02-17 10:27:07,0.0
-17124,1988,-5024,2663,1577,4007,2025-02-17 10:27:07,0.0
-15780,4324,-5732,1773,883,4268,2025-02-17 10:27:07,0.0
-14240,4752,-5460,1025,101,3113,2025-02-17 10:27:07,0.0
-13768,3868,-6760,362,-161,1245,2025-02-17 10:27:07,0.0
-14860,2252,-6872,-469,371,-200,2025-02-17 10:27:07,0.0
-15188,632,-6676,-152,167,-583,2025-02-17 10:27:07,0.0
-13488,-564,-7184,379,-1872,-1022,2025-02-17 10:27:07,0.0
-12168,-1008,-7372,527,-3976,-1370,2025-02-17 10:27:07,0.0
-10764,-2068,-6356,457,-4285,-1802,2025-02-17 10:27:07,0.0
-9756,-3444,-6976,-95,-298,-2168,2025-02-17 10:27:07,
-10012,-3120,-6832,-150,3335,-2871,2025-02-17 10:27:07,0.0
-11276,-2132,-5544,368,5711,-3388,2025-02-17 10:27:07,0.0
-12844,-808,-4876,1173,5434,-3477,2025-02-17 10:27:07,0.0
-12744,-520,-4888,1610,3108,-3990,2025-02-17 10:27:07,0.0
-13460,-360,-4212,1815,-1165,-4384,2025-02-17 10:27:07,0.0
-11832,-1048,-4492,1931,-5649,-4717,2025-02-17 10:27:07,0.0
-10636,-2188,-4784,2023,-6401,-5112,2025-02-17 10:27:07,0.0
-10060,-3152,-4848,2145,-5123,-4695,2025-02-17 10:27:07,0.0
-9472,-3456,-4200,2411,-2627,-3386,2025-02-17 10:27:07,0.0
-9012,-2700,-4412,2037,104,-2292,2025-02-17 10:27:07,0.0
-8616,-2084,-4332,1232,3516,-1989,2025-02-17 10:27:07,0.0
-9748,-2316,-4492,515,5070,-2107,2025-02-17 10:27:07,0.0
-11456,-2360,-4300,184,4920,-1988,2025-02-17 10:27:07,0.0
-12444,-2736,-4412,99,3299,-1933,2025-02-17 10:27:07,0.0
-13012,-3080,-4324,57,1315,-1385,2025-02-17 10:27:07,0.0
-12536,-3044,-4184,239,424,-574,2025-02-17 10:27:07,0.0
-11644,-2684,-4052,154,192,17,2025-02-17 10:27:07,0.0
-11184,-2228,-3324,-81,462,349,2025-02-17 10:27:07,0.0
-11432,-1936,-2944,-116,549,776,2025-02-17 10:27:07,0.0
-11644,-1704,-2804,-376,185,1233,2025-02-17 10:27:07,0.0
-11672,-2072,-2512,-518,-168,1572,2025-02-17 10:27:07,0.0
-11608,-2448,-2876,-649,34,1611,2025-02-17 10:27:08,0.0
-12100,-2684,-3732,-1068,571,1464,2025-02-17 10:27:08,0.0
-12432,-2416,-4184,-1435,1213,1026,2025-02-17 10:27:08,0.0
-12824,-1536,-4604,-1768,1749,421,2025-02-17 10:27:08,0.0
-13524,-380,-4032,-1857,1973,-310,2025-02-17 10:27:08,0.0
-13528,-532,-4540,-1731,1874,-1031,2025-02-17 10:27:08,0.0
-14468,-1536,-4888,-2452,660,-2283,2025-02-17 10:27:08,0.0
-16752,-1872,-2760,-3255,-957,-2638,2025-02-17 10:27:08,0.0
-17944,-1216,-1268,-3911,-2914,-2064,2025-02-17 10:27:08,0.0
-17280,-1488,-1880,-4629,-4927,-1530,2025-02-17 10:27:08,0.0
-15344,-3328,-4920,-6176,-5629,-2068,2025-02-17 10:27:08,0.0
-14600,-4872,-5484,-6337,-4295,-2716,2025-02-17 10:27:08,0.0
-15120,-6740,-6584,-4647,-888,-3141,2025-02-17 10:27:08,0.0
-16200,-8084,-8596,-3485,777,-2775,2025-02-17 10:27:08,0.0
-16264,-7468,-9032,-2801,297,-1105,2025-02-17 10:27:08,0.0
-14352,-4728,-9340,-1893,-842,626,2025-02-17 10:27:08,0.0
-12600,-820,-8440,-1443,-1699,1946,2025-02-17 10:27:08,0.0
-10148,1588,-6724,-1608,-1533,1952,2025-02-17 10:27:08,0.0
-8748,2344,-5388,-1256,-946,1028,2025-02-17 10:27:08,0.0
-9520,2148,-6932,-1116,698,147,2025-02-17 10:27:08,0.0
-10828,1252,-7340,-1133,2483,-10,2025-02-17 10:27:08,0.0
-12624,236,-6800,-1079,4374,585,2025-02-17 10:27:08,0.0
-13732,-700,-5664,-1147,5100,1378,2025-02-17 10:27:08,0.0
-14828,-1984,-5724,-1010,2752,3106,2025-02-17 10:27:08,0.0
-13752,-1880,-4900,-704,-647,3617,2025-02-17 10:27:08,0.0
-12528,-1604,-5048,-470,-2976,3548,2025-02-17 10:27:08,0.0
-10904,-1428,-3952,-68,-3757,3606,2025-02-17 10:27:08,0.0
-9800,-1336,-3160,786,-3766,3834,2025-02-17 10:27:08,0.0
-8996,-844,-3040,1546,-2658,4280,2025-02-17 10:27:08,0.0
-8380,-732,-2572,2214,-726,4464,2025-02-17 10:27:08,0.0
-8596,-688,-2240,3149,1165,3914,2025-02-17 10:27:08,0.0
-10172,616,-3892,3300,2680,3805,2025-02-17 10:27:08,0.0
-10864,1952,-4520,2676,3004,4035,2025-02-17 10:27:08,0.0
-10528,2588,-4568,2199,2323,3271,2025-02-17 10:27:08,0.0
-10048,2488,-4872,1919,1910,1478,2025-02-17 10:27:08,0.0
-11016,1644,-4828,1314,1347,-188,2025-02-17 10:27:08,0.0
-10860,740,-3948,782,914,-1086,2025-02-17 10:27:08,0.0
-11256,340,-3776,652,769,-1739,2025-02-17 10:27:08,0.0
-12192,252,-4156,647,1806,-2094,2025-02-17 10:27:08,0.0
-13368,768,-4368,89,2493,-2100,2025-02-17 10:27:08,0.0
-14692,1516,-4584,-542,1362,-1590,2025-02-17 10:27:08,0.0
-14640,1136,-3832,-717,-1094,-855,2025-02-17 10:27:08,0.0
-13848,324,-3224,-608,-2670,-713,2025-02-17 10:27:08,0.0
-13132,-132,-2368,-513,-2948,-880,2025-02-17 10:27:08,0.0
-13180,-448,-2136,-8,-1760,-1060,2025-02-17 10:27:08,0.0
-13688,-436,-2212,475,-814,-617,2025-02-17 10:27:08,0.0
-13568,-372,-2796,905,-1007,-123,2025-02-17 10:27:08,0.0
-13700,-232,-3404,1195,-1420,301,2025-02-17 10:27:08,0.0
-14292,-328,-2772,1730,-1276,658,2025-02-17 10:27:08,0.0
-14520,-1364,-1948,2378,-541,1163,2025-02-17 10:27:08,0.0
-14308,-2284,-608,3140,210,1572,2025-02-17 10:27:08,0.0
-14092,-1748,420,4105,227,1749,2025-02-17 10:27:08,0.0
-14136,44,-1840,4579,505,2040,2025-02-17 10:27:08,0.0
-14232,1832,-5116,4440,1763,1808,2025-02-17 10:27:08,0.0
-17812,3872,-8096,1910,1368,487,2025-02-17 10:27:08,0.0
-16520,3128,-9708,1803,-2286,470,2025-02-17 10:27:08,0.0
-13700,1484,-11056,978,-6345,-150,2025-02-17 10:27:08,0.0
-11328,-780,-8496,-347,-8372,-935,2025-02-17 10:27:08,0.0
-8940,-2108,-3396,928,-6150,-899,2025-02-17 10:27:08,0.0
-6880,-2632,-4952,1784,-2671,-539,2025-02-17 10:27:08,0.0
-6048,-2276,-5888,1013,1080,-1041,2025-02-17 10:27:08,0.0
-8448,-1820,-6416,787,5338,-1854,2025-02-17 10:27:09,0.0
-11068,-1284,-7156,574,7335,-1954,2025-02-17 10:27:09,0.0
-13100,-776,-6308,507,7381,-1920,2025-02-17 10:27:09,0.0
-14152,-636,-5296,1188,4816,-2358,2025-02-17 10:27:09,0.0
-14020,-988,-6612,1081,-971,-3058,2025-02-17 10:27:09,0.0
-13064,-1408,-6260,903,-5109,-3373,2025-02-17 10:27:09,0.0
-11496,-1584,-5744,1304,-6104,-3339,2025-02-17 10:27:09,0.0
-10320,-1792,-5720,1326,-5599,-2908,2025-02-17 10:27:09,0.0
-9292,-1272,-6076,957,-3026,-2485,2025-02-17 10:27:09,0.0
-8792,-1312,-5956,270,9,-2057,2025-02-17 10:27:09,0.0
-9796,-972,-5800,-484,3785,-2039,2025-02-17 10:27:09,0.0
-11264,-1344,-4704,-1273,3873,-2540,2025-02-17 10:27:09,0.0
-12592,-1904,-4284,-1430,2076,-2988,2025-02-17 10:27:09,0.0
-13212,-2812,-5096,-1282,478,-2923,2025-02-17 10:27:09,0.0
-13336,-3184,-5368,-1497,-222,-2336,2025-02-17 10:27:09,0.0
-12904,-2892,-4500,-1587,-567,-1320,2025-02-17 10:27:09,0.0
-11676,-2608,-4068,-1538,-26,-736,2025-02-17 10:27:09,0.0
-11180,-2292,-3812,-1607,602,-534,2025-02-17 10:27:09,
-11296,-1900,-3612,-1549,1686,-343,2025-02-17 10:27:09,0.0
-12096,-1776,-3324,-1549,2609,-75,2025-02-17 10:27:09,0.0
-12836,-1680,-3320,-1412,2802,250,2025-02-17 10:27:09,0.0
-13768,-1668,-3468,-1470,2075,511,2025-02-17 10:27:09,0.0
-14032,-2148,-3844,-1598,758,622,2025-02-17 10:27:09,0.0
-14356,-2300,-3496,-1477,-1017,913,2025-02-17 10:27:09,0.0
-13740,-2012,-4452,-1293,-2287,1128,2025-02-17 10:27:09,0.0
-12800,-1716,-4748,-1090,-2899,1297,2025-02-17 10:27:09,0.0
-12120,-1624,-4588,-1064,-2299,1172,2025-02-17 10:27:09,0.0
-12216,-1528,-4396,-1396,-235,962,2025-02-17 10:27:09,0.0
-12708,-1520,-3900,-1774,970,826,2025-02-17 10:27:09,0.0
-13396,-1408,-4316,-2097,800,627,2025-02-17 10:27:09,0.0
-13428,-1304,-4552,-2691,-152,461,2025-02-17 10:27:09,0.0
-12956,-1584,-4816,-3254,-945,203,2025-02-17 10:27:09,0.0
-13016,-2240,-5024,-3652,-421,-69,2025-02-17 10:27:09,0.0
-13780,-2704,-4736,-3360,1433,-304,2025-02-17 10:27:09,0.0
-15448,-3464,-5304,-3171,2526,-137,2025-02-17 10:27:09,0.0
-16808,-3952,-5956,-2885,2230,716,2025-02-17 10:27:09,0.0
-16876,-4072,-6696,-2226,658,2216,2025-02-17 10:27:09,0.0
-14344,-3580,-7428,-1159,-1669,2652,2025-02-17 10:27:09,0.0
-12380,-2868,-7380,-863,-3613,1881,2025-02-17 10:27:09,0.0
-10900,-1844,-6148,-824,-3181,1400,2025-02-17 10:27:09,0.0
-9736,-640,-5808,-616,-2243,1698,2025-02-17 10:27:09,0.0
-8456,368,-5416,-371,-1030,1999,2025-02-17 10:27:09,0.0
-7912,1832,-5064,-338,1228,1434,2025-02-17 10:27:09,0.0
-9100,3168,-4120,-55,2819,1001,2025-02-17 10:27:09,0.0
-10876,2972,-4748,128,4793,588,2025-02-17 10:27:09,0.0
-12588,2108,-5624,260,5551,158,2025-02-17 10:27:09,0.0
-14476,1160,-7916,209,4869,324,2025-02-17 10:27:09,0.0
-15548,-92,-8188,-377,2129,843,2025-02-17 10:27:09,0.0
-14496,-960,-8396,-949,-1675,1195,2025-02-17 10:27:09,0.0
-13580,-504,-5540,-1196,-3273,1388,2025-02-17 10:27:09,0.0
-11200,-16,-5492,-1035,-1201,1328,2025-02-17 10:27:09,0.0
-10168,564,-5720,-1013,-256,1081,2025-02-17 10:27:09,0.0
-10048,716,-5244,-873,824,956,2025-02-17 10:27:09,0.0
-10284,1164,-4876,-597,1867,924,2025-02-17 10:27:09,0.0
-10920,1492,-5112,-564,2398,683,2025-02-17 10:27:09,0.0
-11664,1572,-5228,-552,2350,295,2025-02-17 10:27:09,0.0
-12244,1364,-4660,-500,1664,46,2025-02-17 10:27:09,0.0
-12408,836,-4708,-280,993,-130,2025-02-17 10:27:09,0.0
-12024,168,-5288,-2,535,-352,2025-02-17 10:27:09,0.0
-11736,-328,-5516,278,187,-633,2025-02-17 10:27:09,0.0
-11624,-708,-5008,546,508,-883,2025-02-17 10:27:10,0.0
-11564,-568,-4708,640,1129,-1083,2025-02-17 10:27:10,0.0
-11764,-64,-4540,658,1336,-1295,2025-02-17 10:27:10,0.0
-12268,220,-4256,772,1189,-1393,2025-02-17 10:27:10,0.0
-12592,820,-4716,945,392,-1611,2025-02-17 10:27:10,0.0
-12424,1364,-4768,1181,-895,-2157,2025-02-17 10:27:10,0.0
-12520,1108,-5068,1395,-1283,-2471,2025-02-17 10:27:10,0.0
-12524,640,-4692,1468,-1009,-2620,2025-02-17 10:27:10,0.0
-12608,-4,-5296,1293,-127,-2471,2025-02-17 10:27:10,0.0
-13516,-732,-6700,812,1124,-1818,2025-02-17 10:27:10,0.0
-13816,-864,-7544,293,1918,-995,2025-02-17 10:27:10,0.0
-14316,-272,-7732,-45,1236,-150,2025-02-17 10:27:10,0.0
-13284,344,-7364,-509,-972,89,2025-02-17 10:27:10,0.0
-12060,860,-6176,-733,-3283,-299,2025-02-17 10:27:10,0.0
-10768,804,-4940,-891,-3597,-822,2025-02-17 10:27:10,0.0
-9732,508,-4516,-759,-2232,-1240,2025-02-17 10:27:10,0.0
-9452,156,-5244,-633,650,-1520,2025-02-17 10:27:10,0.0
-10136,-36,-6236,-1102,3737,-1608,2025-02-17 10:27:10,0.0
-11868,-264,-6100,-1717,5608,-1671,2025-02-17 10:27:10,0.0
-13132,-224,-5932,-2134,5324,-1578,2025-02-17 10:27:10,0.0
-13664,256,-5736,-2753,2754,-1648,2025-02-17 10:27:10,0.0
-13472,320,-5964,-3323,-26,-2091,2025-02-17 10:27:10,0.0
-13084,468,-6000,-3501,-1350,-2358,2025-02-17 10:27:10,0.0
-12192,648,-6472,-3814,-1180,-2473,2025-02-17 10:27:10,0.0
-11328,764,-6628,-4455,-259,-2715,2025-02-17 10:27:10,0.0
-11216,772,-6460,-4935,827,-3106,2025-02-17 10:27:10,0.0
-11516,1028,-5944,-5597,1408,-3477,2025-02-17 10:27:10,0.0
-12316,676,-5412,-6322,1577,-4006,2025-02-17 10:27:10,0.0
-13056,188,-5416,-6742,1119,-4341,2025-02-17 10:27:10,0.0
-13188,-80,-5924,-7166,465,-4563,2025-02-17 10:27:10,0.0
-13476,-144,-5620,-7602,-554,-4717,2025-02-17 10:27:10,0.0
-13428,-40,-5680,-8010,-1695,-4677,2025-02-17 10:27:10,0.0
-12448,-48,-5996,-8599,-2474,-4579,2025-02-17 10:27:10,0.0
-11820,-124,-5744,-8997,-2345,-4597,2025-02-17 10:27:10,0.0
-11276,-156,-5888,-9371,-1818,-4508,2025-02-17 10:27:10,0.0
-11104,-396,-5660,-9571,-1318,-4509,2025-02-17 10:27:10,0.0
-11104,-864,-5796,-9599,-596,-4388,2025-02-17 10:27:10,0.0
-11164,-1136,-5640,-9792,-102,-4273,2025-02-17 10:27:10,0.0
-11556,-1308,-5924,-10046,259,-4369,2025-02-17 10:27:10,0.0
-12008,-1288,-6604,-10319,549,-4472,2025-02-17 10:27:10,0.0
-12380,-1792,-6976,-10464,844,-4859,2025-02-17 10:27:10,0.0
-13144,-2300,-6696,-10687,703,-5171,2025-02-17 10:27:10,0.0
-13616,-872,-7264,-12461,-947,-6054,2025-02-17 10:27:10,0.0
-12564,-32,-7288,-13013,-2382,-6648,2025-02-17 10:27:10,0.0
-12076,-260,-7532,-14035,-3284,-7368,2025-02-17 10:27:10,0.0
-11352,-848,-6548,-15154,-2675,-7880,2025-02-17 10:27:10,0.0
-10948,-1480,-6192,-15869,-1695,-7980,2025-02-17 10:27:10,0.0
-10856,-2224,-5832,-16075,-1345,-7859,2025-02-17 10:27:10,0.0
-10624,-3136,-5640,-16553,-749,-7719,2025-02-17 10:27:10,0.0
-10728,-3032,-5756,-16797,-624,-7744,2025-02-17 10:27:10,0.0
-11360,-3160,-5780,-16873,-397,-7673,2025-02-17 10:27:10,0.0
-11924,-3244,-5316,-16819,-118,-7370,2025-02-17 10:27:10,0.0
-12476,-3096,-4840,-16542,-357,-7162,2025-02-17 10:27:10,0.0
-12312,-3128,-5308,-16411,-1109,-6783,2025-02-17 10:27:10,0.0
-12284,-2600,-5240,-16245,-1801,-6396,2025-02-17 10:27:10,0.0
-11572,-2112,-5856,-15990,-1638,-5918,2025-02-17 10:27:10,0.0
-11012,-1816,-6080,-16114,-993,-5792,2025-02-17 10:27:10,0.0
-10976,-2340,-5748,-16420,-229,-5899,2025-02-17 10:27:10,
-11704,-3704,-5484,-16367,477,-5920,2025-02-17 10:27:10,0.0
-12808,-4264,-6088,-16571,819,-5800,2025-02-17 10:27:10,0.0
-13272,-4052,-5824,-16845,-20,-5650,2025-02-17 10:27:11,0.0
-13432,-3916,-5740,-16751,-1600,-5626,2025-02-17 10:27:11,0.0
-12896,-3540,-5452,-16658,-3096,-5641,2025-02-17 10:27:11,0.0
-12816,-2828,-5276,-16751,-4871,-5309,2025-02-17 10:27:11,0.0
-12128,-2600,-4724,-17221,-6036,-4464,2025-02-17 10:27:11,0.0
-11160,-3192,-5084,-17608,-5560,-3634,2025-02-17 10:27:11,0.0
-10616,-4348,-8044,-17924,-3915,-2587,2025-02-17 10:27:11,0.0
-11376,-3224,-10132,-18123,-1724,-1546,2025-02-17 10:27:11,0.0
-11120,-952,-8332,-17346,1966,-1456,2025-02-17 10:27:11,0.0
-11104,972,-4436,-15690,4601,-3170,2025-02-17 10:27:11,0.0
-11840,2184,-4328,-14779,3488,-5164,2025-02-17 10:27:11,0.0
-12656,1948,-5780,-15230,734,-6101,2025-02-17 10:27:11,0.0
-12728,1016,-5968,-15573,223,-5783,2025-02-17 10:27:11,0.0
-11852,800,-5728,-15667,1520,-5106,2025-02-17 10:27:11,0.0
-11824,912,-5600,-16271,4339,-4872,2025-02-17 10:27:11,0.0
-13192,160,-5104,-16914,5742,-4839,2025-02-17 10:27:11,0.0
-15000,520,-4928,-16824,5322,-5003,2025-02-17 10:27:11,0.0
-16744,1224,-5268,-16955,1714,-4685,2025-02-17 10:27:11,0.0
-15056,772,-4284,-16799,-2417,-4930,2025-02-17 10:27:11,0.0
-13756,648,-4480,-16527,-4515,-5140,2025-02-17 10:27:11,0.0
-11208,264,-4712,-16334,-4446,-5287,2025-02-17 10:27:11,0.0
-9804,-336,-4280,-15935,-2638,-5565,2025-02-17 10:27:11,0.0
-9628,-332,-3596,-15494,-1,-5492,2025-02-17 10:27:11,0.0
-9780,-76,-3316,-15105,2414,-5232,2025-02-17 10:27:11,0.0
-10988,336,-3384,-14705,3173,-5226,2025-02-17 10:27:11,0.0
-11784,828,-3616,-14300,2842,-5396,2025-02-17 10:27:11,0.0
-12712,1400,-4868,-14062,2297,-6096,2025-02-17 10:27:11,0.0
-12812,1260,-4896,-13893,1674,-6605,2025-02-17 10:27:11,0.0
-12552,872,-5320,-13848,737,-7200,2025-02-17 10:27:11,0.0
-12400,620,-5540,-13755,-39,-7437,2025-02-17 10:27:11,0.0
-12560,660,-4872,-13191,-426,-7265,2025-02-17 10:27:11,0.0
-12080,668,-4844,-12881,-162,-6984,2025-02-17 10:27:11,0.0
-12032,772,-5464,-13015,558,-6831,2025-02-17 10:27:11,0.0
-11632,708,-5680,-12975,440,-6884,2025-02-17 10:27:11,0.0
-11808,476,-5772,-12739,25,-6921,2025-02-17 10:27:11,0.0
-11776,380,-5292,-12470,72,-6483,2025-02-17 10:27:11,0.0
-11416,180,-5856,-12281,919,-6198,2025-02-17 10:27:11,0.0
-11496,20,-7260,-12713,2411,-6312,2025-02-17 10:27:11,0.0
-11996,-240,-7000,-12805,3229,-6701,2025-02-17 10:27:11,0.0
-12728,-692,-6664,-12480,2850,-6870,2025-02-17 10:27:11,0.0
-13040,-644,-6400,-12190,1853,-6830,2025-02-17 10:27:11,0.0
-12664,-360,-6344,-11858,939,-6705,2025-02-17 10:27:11,0.0
-11860,64,-6040,-11439,-29,-6715,2025-02-17 10:27:11,0.0
-11372,484,-5876,-11051,35,-6894,2025-02-17 10:27:11,0.0
-10888,192,-6276,-10921,858,-7262,2025-02-17 10:27:11,0.0
-11744,-792,-6088,-10915,1793,-7482,2025-02-17 10:27:11,0.0
-12640,-1720,-5928,-10844,2324,-7367,2025-02-17 10:27:11,0.0
-13500,-2196,-6796,-10534,2433,-6672,2025-02-17 10:27:11,0.0
-15020,-2632,-7652,-10217,2769,-5590,2025-02-17 10:27:11,0.0
-16240,-1944,-7756,-9817,2168,-4110,2025-02-17 10:27:11,0.0
-14944,-1080,-5972,-9044,-1312,-3126,2025-02-17 10:27:11,0.0
-13692,128,-3324,-7748,-5530,-3500,2025-02-17 10:27:11,0.0
-11844,-564,-2304,-6731,-6350,-4045,2025-02-17 10:27:11,0.0
-10380,-1116,-2872,-5960,-4984,-4677,2025-02-17 10:27:11,0.0
-10736,-1724,-4016,-5536,-2121,-4479,2025-02-17 10:27:11,0.0
-10892,-2352,-4452,-5494,1073,-3988,2025-02-17 10:27:11,0.0
-11368,-2352,-4624,-5679,2515,-4061,2025-02-17 10:27:11,0.0
-13016,-1628,-5300,-5937,2522,-4024,2025-02-17 10:27:11,0.0
-13664,-772,-5044,-6028,1814,-3714,2025-02-17 10:27:11,0.0
-13272,-296,-4076,-5653,-11,-3355,2025-02-17 10:27:11,0.0
-11840,-188,-4180,-5381,-1426,-3398,2025-02-17 10:27:11,0.0
-10948,-1648,-3864,-4908,-1893,-4367,2025-02-17 10:27:12,0.0
-11876,-3048,-4168,-5106,-554,-4546,2025-02-17 10:27:12,0.0
-12872,-3944,-3920,-5982,1756,-4171,2025-02-17 10:27:12,0.0
-13208,-4368,-2976,-5828,2723,-3728,2025-02-17 10:27:12,0.0
-14568,-3716,-3264,-5107,2012,-2846,2025-02-17 10:27:12,0.0
-14300,-3208,-3128,-4799,215,-1928,2025-02-17 10:27:12,0.0
-13960,-2624,-3024,-4522,-1275,-1210,2025-02-17 10:27:12,0.0
-13184,-2600,-3100,-4150,-1710,-598,2025-02-17 10:27:12,0.0
-12624,-2552,-4060,-2864,-749,-470,2025-02-17 10:27:12,0.0
-12844,-1868,-3920,-2282,-1223,-180,2025-02-17 10:27:12,0.0
-12748,-880,-3952,-1452,-919,-73,2025-02-17 10:27:12,0.0
-12716,24,-4660,-1186,-390,-117,2025-02-17 10:27:12,0.0
-12556,108,-5000,-964,-300,-396,2025-02-17 10:27:12,0.0
-11624,-1400,-5336,-669,-392,-1076,2025-02-17 10:27:12,0.0
-12068,-1860,-4792,-792,312,-1231,2025-02-17 10:27:12,0.0
-12808,-1988,-3888,-853,1203,-551,2025-02-17 10:27:12,0.0
-12604,-1404,-3472,-787,1424,-18,2025-02-17 10:27:12,0.0
-13104,-936,-3504,-791,926,-256,2025-02-17 10:27:12,0.0
-13260,-456,-4000,-761,-34,-363,2025-02-17 10:27:12,0.0
-13080,-640,-4908,-890,-829,-368,2025-02-17 10:27:12,0.0
-12348,-892,-4852,-819,-639,-233,2025-02-17 10:27:12,0.0
-12044,-588,-4712,-759,310,-87,2025-02-17 10:27:12,0.0
-11976,-424,-4508,-825,1209,-66,2025-02-17 10:27:12,0.0
-11868,-596,-4352,-700,1670,-174,2025-02-17 10:27:12,0.0
-12148,-712,-4080,-450,1583,-384,2025-02-17 10:27:12,0.0
-12604,-912,-4264,-333,1022,-518,2025-02-17 10:27:12,0.0
-12712,-976,-4708,-302,721,-494,2025-02-17 10:27:12,0.0
-12532,-1040,-5084,-267,471,-399,2025-02-17 10:27:12,0.0
-12952,-776,-5160,-183,562,-343,2025-02-17 10:27:12,0.0
-12776,-576,-4796,252,411,-431,2025-02-17 10:27:12,0.0
-12416,-544,-4944,176,17,-575,2025-02-17 10:27:12,0.0
-12296,-736,-4668,267,-107,-780,2025-02-17 10:27:12,0.0
-12364,-788,-4840,337,126,-792,2025-02-17 10:27:12,0.0
-12248,-560,-5268,210,-98,-851,2025-02-17 10:27:12,0.0
-12712,-408,-4980,147,-113,-998,2025-02-17 10:27:12,0.0
-12836,-512,-5104,-101,-279,-1088,2025-02-17 10:27:12,0.0
-12924,-768,-5060,-161,-333,-1065,2025-02-17 10:27:12,
-12756,-1052,-4896,-79,-452,-1019,2025-02-17 10:27:12,0.0
-12160,-1176,-5160,-78,-285,-1084,2025-02-17 10:27:12,0.0
-11680,-1380,-4708,-111,258,-1357,2025-02-17 10:27:12,0.0
-12096,-2076,-5628,225,949,-1789,2025-02-17 10:27:12,0.0
-12388,-2172,-6024,140,502,-2026,2025-02-17 10:27:12,0.0
-12948,-2252,-5704,267,300,-2036,2025-02-17 10:27:12,0.0
-13560,-2284,-5200,339,-64,-1919,2025-02-17 10:27:12,0.0
-14072,-1540,-3892,296,-1249,-1371,2025-02-17 10:27:12,0.0
-13016,-1172,-3104,81,-2515,-1202,2025-02-17 10:27:12,0.0
-12076,-764,-2752,-118,-2677,-1564,2025-02-17 10:27:12,0.0
-11224,-1116,-3312,-521,-1210,-2134,2025-02-17 10:27:12,0.0
-11080,-1652,-4032,-1296,993,-2659,2025-02-17 10:27:12,0.0
-11536,-2340,-3864,-1919,2996,-3062,2025-02-17 10:27:12,0.0
-13740,-2784,-3252,-1896,4193,-3229,2025-02-17 10:27:12,0.0
-14504,-3116,-3276,-1748,2506,-2987,2025-02-17 10:27:12,0.0
-14280,-3068,-3128,-1505,-62,-2546,2025-02-17 10:27:12,0.0
-12852,-2580,-2716,-1083,-2173,-2264,2025-02-17 10:27:12,0.0
-11728,-2556,-2832,-1043,-2577,-2145,2025-02-17 10:27:12,0.0
-11228,-2580,-2828,-1206,-1795,-1770,2025-02-17 10:27:12,0.0
-11416,-2900,-3060,-1226,267,-1411,2025-02-17 10:27:12,0.0
-12276,-3208,-2512,-1109,1967,-1056,2025-02-17 10:27:13,0.0
-13356,-3164,-2244,-849,1934,-889,2025-02-17 10:27:13,0.0
-14464,-3264,-2184,-404,895,-619,2025-02-17 10:27:13,0.0
-14948,-3460,-1736,42,-679,-99,2025-02-17 10:27:13,0.0
-13636,-3640,-1336,236,-2665,66,2025-02-17 10:27:13,0.0
-12684,-3724,-1476,410,-3739,-163,2025-02-17 10:27:13,0.0
-12312,-3048,-2228,211,-2801,-117,2025-02-17 10:27:13,0.0
-12316,-2104,-2456,-16,-705,-371,2025-02-17 10:27:13,0.0
-13028,-1956,-2796,-492,798,-1002,2025-02-17 10:27:13,0.0
-13920,-1940,-2540,-1115,1365,-1606,2025-02-17 10:27:13,0.0
-14228,-2468,-1764,-1276,378,-2436,2025-02-17 10:27:13,0.0
-14796,-2960,-2172,-1293,-1512,-2867,2025-02-17 10:27:13,0.0
-14496,-4068,-3840,-2113,-1886,-2523,2025-02-17 10:27:13,0.0
-13916,-5460,-4568,-3026,-303,-2572,2025-02-17 10:27:13,0.0
-14328,-6112,-4972,-3201,2550,-2849,2025-02-17 10:27:13,0.0
-15432,-6000,-4616,-3035,4203,-2737,2025-02-17 10:27:13,0.0
-16692,-5488,-4272,-2675,3691,-2174,2025-02-17 10:27:13,0.0
-17136,-5040,-4432,-2000,1809,-1039,2025-02-17 10:27:13,0.0
-16344,-4800,-5112,-1223,-860,463,2025-02-17 10:27:13,0.0
-15652,-4284,-5008,-552,-2499,1772,2025-02-17 10:27:13,0.0
-14340,-3508,-5320,-99,-3446,2955,2025-02-17 10:27:13,0.0
-13104,-3316,-5380,-156,-3323,3572,2025-02-17 10:27:13,0.0
-12256,-3504,-5876,-410,-2468,3769,2025-02-17 10:27:13,0.0
-11840,-3740,-6564,-795,-2135,4025,2025-02-17 10:27:13,0.0
-11544,-3132,-6956,-719,-2634,4640,2025-02-17 10:27:13,0.0
-9176,1336,-2560,2065,-6198,3849,2025-02-17 10:27:13,0.0
-8396,668,-3656,2617,-2838,3271,2025-02-17 10:27:13,0.0
-9108,996,-3852,2407,-386,3122,2025-02-17 10:27:13,0.0
-9692,1356,-3136,2157,1393,2906,2025-02-17 10:27:13,0.0
-10204,1560,-2920,2081,2644,2238,2025-02-17 10:27:13,0.0
-11076,1600,-3368,1614,2981,1112,2025-02-17 10:27:13,0.0
-11820,1176,-3848,989,1946,126,2025-02-17 10:27:13,0.0
-12456,336,-4008,744,1118,-277,2025-02-17 10:27:13,0.0
-12312,284,-3496,801,618,-310,2025-02-17 10:27:13,0.0
-12040,468,-2720,686,542,-636,2025-02-17 10:27:13,0.0
-11880,268,-2288,518,953,-768,2025-02-17 10:27:13,0.0
-11608,128,-1944,553,1693,-800,2025-02-17 10:27:13,0.0
-11668,556,-2752,556,2203,-628,2025-02-17 10:27:13,0.0
-11964,992,-3280,612,2571,-397,2025-02-17 10:27:13,0.0
-12248,1376,-2808,778,2513,-402,2025-02-17 10:27:13,0.0
-12660,1644,-2240,865,2240,-656,2025-02-17 10:27:13,0.0
-13140,1280,-3232,1218,1711,-1130,2025-02-17 10:27:13,0.0
-14560,-320,-3700,1644,630,-1242,2025-02-17 10:27:13,0.0
-15152,-2400,-4436,1734,-388,-836,2025-02-17 10:27:13,0.0
-16268,-1364,-3312,1726,290,454,2025-02-17 10:27:13,0.0
-15972,148,-3380,2139,1631,1543,2025-02-17 10:27:13,0.0
-16020,1692,-3368,2407,2602,2439,2025-02-17 10:27:13,0.0
-16060,1892,-3608,2473,2623,2608,2025-02-17 10:27:13,0.0
-15524,1164,-6724,1994,2390,2165,2025-02-17 10:27:13,0.0
-17896,2104,-6448,1981,3504,2764,2025-02-17 10:27:14,0.0
-18312,3216,-8004,1793,4777,3338,2025-02-17 10:27:14,0.0
-18672,3972,-8892,772,6819,3569,2025-02-17 10:27:14,0.0
-16668,4520,-9092,-1230,6714,2741,2025-02-17 10:27:14,0.0
-12812,3720,-9392,-2632,1742,152,2025-02-17 10:27:14,0.0
-11228,3244,-9708,-2895,-7359,-2713,2025-02-17 10:27:14,0.0
-10376,1760,-8628,-2362,-17841,-4302,2025-02-17 10:27:14,0.0
-9664,-56,-2304,-3104,-17629,-5057,2025-02-17 10:27:14,0.0
-6296,-1608,-3008,-3072,-12593,-5260,2025-02-17 10:27:14,0.0
-4232,-2668,-4640,-2435,-7193,-5626,2025-02-17 10:27:14,0.0
-5412,-3160,-5228,-1679,176,-5668,2025-02-17 10:27:14,0.0
-7684,-3076,-5708,-1664,6894,-4815,2025-02-17 10:27:14,0.0
-10952,-3072,-5392,-1938,11551,-3159,2025-02-17 10:27:14,0.0
-12900,-2896,-3984,-1692,13175,-1827,2025-02-17 10:27:14,0.0
-14052,-2556,-3892,-779,10833,-1114,2025-02-17 10:27:14,0.0
-14312,-1856,-5292,-500,6167,-1162,2025-02-17 10:27:14,0.0
-13224,-1580,-6164,-794,1220,-2703,2025-02-17 10:27:14,0.0
-13900,-2032,-6060,-899,-1893,-4126,2025-02-17 10:27:14,0.0
-13744,-2352,-4500,-1192,-3133,-4018,2025-02-17 10:27:14,0.0
-12592,-2060,-3272,-1097,-2702,-3414,2025-02-17 10:27:14,0.0
-11300,-1488,-3148,-1063,-1453,-2927,2025-02-17 10:27:14,0.0
-10732,-1304,-4116,-1640,-386,-2828,2025-02-17 10:27:14,0.0
-10408,-1524,-4336,-2043,313,-2949,2025-02-17 10:27:14,0.0
-10508,-1976,-4348,-2323,1523,-3092,2025-02-17 10:27:14,0.0
-10688,-2204,-4416,-2579,2138,-3351,2025-02-17 10:27:14,0.0
-12108,-2952,-2988,-2472,2369,-3321,2025-02-17 10:27:14,0.0
-13564,-3100,-2960,-2084,2264,-2564,2025-02-17 10:27:14,0.0
-13500,-3084,-3724,-1747,1032,-1703,2025-02-17 10:27:14,0.0
-12952,-2656,-3728,-1964,-719,-1222,2025-02-17 10:27:14,0.0
-11600,-2184,-4772,-2574,-2329,-954,2025-02-17 10:27:14,0.0
-10388,-2144,-5248,-3437,-3317,-766,2025-02-17 10:27:14,
-9652,-2056,-3736,-3625,-3597,-444,2025-02-17 10:27:14,0.0
-9232,-1192,-3292,-3317,-473,-181,2025-02-17 10:27:14,0.0
-10356,156,-4088,-3663,4076,-329,2025-02-17 10:27:14,0.0
-12320,208,-4364,-4267,7001,-721,2025-02-17 10:27:14,0.0
-13836,80,-4092,-3790,8885,-1887,2025-02-17 10:27:14,0.0
-14072,-2060,-3740,-3022,6826,-5940,2025-02-17 10:27:14,0.0
-14960,-5380,-4148,-2846,2266,-10039,2025-02-17 10:27:14,0.0
-17484,-6812,-4276,-2485,-3382,-10844,2025-02-17 10:27:14,0.0
-19664,-6992,-6136,-2455,-9101,-8170,2025-02-17 10:27:14,0.0
-20884,-7484,-6468,-3132,-11432,-3694,2025-02-17 10:27:14,0.0
-17068,-7360,-5152,-2967,-6316,-709,2025-02-17 10:27:14,0.0
-13652,-6900,-5996,-1794,-2237,-1279,2025-02-17 10:27:14,0.0
-14888,-5412,-6696,-1382,-995,-2340,2025-02-17 10:27:14,0.0
-16032,-3976,-7312,-1565,-1735,-1404,2025-02-17 10:27:14,0.0
-15960,-2768,-7232,-2231,-2817,759,2025-02-17 10:27:14,0.0
-14256,-2408,-7472,-2805,-4654,2834,2025-02-17 10:27:14,0.0
-11624,-1668,-7440,-2361,-5644,4090,2025-02-17 10:27:14,0.0
-9008,24,-6820,-1462,-3983,3629,2025-02-17 10:27:14,0.0
-7800,1260,-6876,-1309,-1188,1983,2025-02-17 10:27:14,0.0
-8556,1716,-6528,-956,1216,346,2025-02-17 10:27:14,0.0
-10240,1156,-6024,-427,2411,-352,2025-02-17 10:27:14,0.0
-11804,-476,-6160,-451,2807,-211,2025-02-17 10:27:14,0.0
-12608,-1428,-5984,-542,3000,607,2025-02-17 10:27:14,0.0
-14200,-2888,-6140,-688,2985,2089,2025-02-17 10:27:14,0.0
-14504,-3572,-4844,-104,1300,4064,2025-02-17 10:27:14,0.0
-13388,-3704,-5492,241,-789,4605,2025-02-17 10:27:14,0.0
-12548,-2988,-5444,283,-2698,4997,2025-02-17 10:27:14,0.0
-11608,-1548,-4636,346,-3856,5684,2025-02-17 10:27:14,0.0
-10832,-260,-3400,797,-3489,6207,2025-02-17 10:27:15,0.0
-9576,616,-2860,2245,-1563,6034,2025-02-17 10:27:15,0.0
-8804,1172,-3404,3188,-439,5199,2025-02-17 10:27:15,0.0
-8768,1380,-3692,3475,306,4066,2025-02-17 10:27:15,0.0
-9464,1176,-3748,3402,698,3264,2025-02-17 10:27:15,0.0
-9992,864,-3108,3457,1078,2761,2025-02-17 10:27:15,0.0
-10792,820,-4020,3198,1495,2701,2025-02-17 10:27:15,0.0
-10296,996,-3608,2943,1331,2221,2025-02-17 10:27:15,0.0
-10596,1304,-3600,2637,1111,1377,2025-02-17 10:27:15,0.0
-10772,1104,-3704,2242,952,506,2025-02-17 10:27:15,0.0
-11004,188,-3072,1879,765,-296,2025-02-17 10:27:15,0.0
-11724,-184,-2792,1731,553,-673,2025-02-17 10:27:15,0.0
-12304,184,-3096,1579,1146,-725,2025-02-17 10:27:15,0.0
-13060,524,-3552,1550,1698,-632,2025-02-17 10:27:15,0.0
-14120,768,-3288,1743,1642,-377,2025-02-17 10:27:15,0.0
-14084,976,-3568,1896,117,108,2025-02-17 10:27:15,0.0
-13836,516,-3796,1888,-1373,289,2025-02-17 10:27:15,0.0
-13068,-504,-3960,1979,-1262,603,2025-02-17 10:27:15,0.0
-12544,-604,-3996,2253,232,928,2025-02-17 10:27:15,0.0
-13072,-60,-3312,2464,2596,975,2025-02-17 10:27:15,0.0
-14916,640,-2764,2830,4013,1135,2025-02-17 10:27:15,0.0
-16132,52,-1952,3180,2728,1300,2025-02-17 10:27:15,0.0
-16716,180,-1692,3797,-76,1258,2025-02-17 10:27:15,0.0
-16884,628,-3476,4415,-419,2210,2025-02-17 10:27:15,0.0
-16516,1076,-5368,4727,503,3102,2025-02-17 10:27:15,0.0
-15980,2176,-7572,4072,1539,3674,2025-02-17 10:27:15,0.0
-14916,2804,-9100,2205,3348,2697,2025-02-17 10:27:15,0.0
-15192,3680,-10300,460,6092,1485,2025-02-17 10:27:15,0.0
-14228,3360,-10508,-506,6441,697,2025-02-17 10:27:15,0.0
-12592,2272,-10260,-629,972,-183,2025-02-17 10:27:15,0.0
-10820,620,-9008,-510,-8524,-1913,2025-02-17 10:27:15,0.0
-10172,-856,-7932,-737,-15936,-3191,2025-02-17 10:27:15,0.0
-12904,-3128,-1796,-1964,-15277,-3335,2025-02-17 10:27:15,0.0
-9640,-4160,-2992,-1964,-4725,-2844,2025-02-17 10:27:15,0.0
-9612,-3820,-5836,-712,1876,-2467,2025-02-17 10:27:15,0.0
-11156,-1560,-6272,-560,4264,-1560,2025-02-17 10:27:15,0.0
-11648,-276,-5060,-485,4483,-1357,2025-02-17 10:27:15,0.0
-12372,348,-4736,-448,2940,-1916,2025-02-17 10:27:15,0.0
-12828,556,-4996,-606,566,-2803,2025-02-17 10:27:15,0.0
-11800,-180,-5920,-698,-1718,-3831,2025-02-17 10:27:15,0.0
-10976,-1228,-6292,-797,-3016,-4730,2025-02-17 10:27:15,0.0
-11088,-1960,-5068,-744,-3448,-5111,2025-02-17 10:27:15,0.0
-11188,-2348,-4188,-711,-2822,-4614,2025-02-17 10:27:15,0.0
-11120,-2516,-4184,-1012,-953,-3282,2025-02-17 10:27:15,0.0
-10728,-2020,-3836,-1300,480,-2029,2025-02-17 10:27:15,0.0
-9784,-2096,-4096,-1602,488,-1897,2025-02-17 10:27:15,0.0
-10160,-2352,-4224,-1853,1008,-2600,2025-02-17 10:27:15,0.0
-11260,-2492,-3944,-1903,1675,-2718,2025-02-17 10:27:15,0.0
-12312,-2472,-4020,-1818,1992,-1946,2025-02-17 10:27:15,0.0
-12384,-2080,-3884,-1755,2115,-916,2025-02-17 10:27:15,0.0
-12604,-1864,-3944,-1831,1719,-809,2025-02-17 10:27:15,0.0
-13024,-1764,-3388,-1815,610,-379,2025-02-17 10:27:15,0.0
-12672,-1708,-3148,-1713,-333,113,2025-02-17 10:27:15,0.0
-12048,-1780,-3336,-1830,-621,328,2025-02-17 10:27:15,0.0
-12140,-1868,-3368,-1902,-208,440,2025-02-17 10:27:15,0.0
-12300,-2104,-2840,-1835,605,577,2025-02-17 10:27:15,0.0
-12636,-2056,-3060,-1741,921,625,2025-02-17 10:27:15,0.0
-12332,-2112,-3676,-1982,199,503,2025-02-17 10:27:15,0.0
-12328,-2016,-3960,-2234,-294,429,2025-02-17 10:27:15,0.0
-11712,-2140,-4496,-2398,-310,394,2025-02-17 10:27:15,0.0
-11816,-1676,-4416,-2664,690,468,2025-02-17 10:27:15,0.0
-12344,-1028,-3236,-2654,2462,475,2025-02-17 10:27:15,0.0
-13208,-1400,-3616,-2767,2864,121,2025-02-17 10:27:15,0.0
-14136,-1972,-3564,-3067,2296,-531,2025-02-17 10:27:15,0.0
-14848,-2500,-3464,-3153,833,-1268,2025-02-17 10:27:16,0.0
-15440,-2896,-3412,-3267,-1752,-1620,2025-02-17 10:27:16,0.0
-15324,-2128,-2672,-3638,-3691,-1184,2025-02-17 10:27:16,0.0
-13628,-2104,-2016,-3716,-3583,-1153,2025-02-17 10:27:16,0.0
-12844,-2380,-3864,-3795,-1528,-1826,2025-02-17 10:27:16,0.0
-14132,-3272,-4172,-3493,1343,-2259,2025-02-17 10:27:16,0.0
-14984,-4760,-3984,-2565,2867,-2894,2025-02-17 10:27:16,0.0
-16248,-5920,-4216,-1700,3011,-3234,2025-02-17 10:27:16,
-16828,-5968,-4936,-737,2637,-2391,2025-02-17 10:27:16,0.0
-15528,-5284,-6208,120,1882,-1559,2025-02-17 10:27:16,0.0
-14740,-3292,-7364,959,653,-1345,2025-02-17 10:27:16,0.0
-15180,-1516,-8052,859,-1628,-449,2025-02-17 10:27:16,0.0
-10076,552,-6060,-540,-7655,1964,2025-02-17 10:27:16,0.0
-7752,1784,-6164,-362,-1577,1436,2025-02-17 10:27:16,0.0
-7056,2436,-6888,19,2940,448,2025-02-17 10:27:16,0.0
-8380,2544,-7792,265,5737,-786,2025-02-17 10:27:16,0.0
-10548,1364,-8132,-825,7221,-1671,2025-02-17 10:27:16,0.0
-14516,-904,-6212,-2186,8338,-1280,2025-02-17 10:27:16,0.0
-18000,-2320,-4476,-1699,7577,660,2025-02-17 10:27:16,0.0
-18256,-2944,-5492,-1062,6085,3261,2025-02-17 10:27:16,0.0
-15384,-2508,-6516,-674,3020,4388,2025-02-17 10:27:16,0.0
-13124,-1448,-7620,-878,-774,4407,2025-02-17 10:27:16,0.0
-11272,-596,-6612,-775,-5696,3865,2025-02-17 10:27:16,0.0
-10992,-288,-4808,-5,-8697,3366,2025-02-17 10:27:16,0.0
-10820,-24,-3964,651,-10640,2993,2025-02-17 10:27:16,0.0
-10456,40,-1624,784,-8031,2731,2025-02-17 10:27:16,0.0
-8492,220,-2684,1206,-2388,2762,2025-02-17 10:27:16,0.0
-7148,132,-3916,1471,1459,2058,2025-02-17 10:27:16,0.0
-8464,268,-4928,1470,3695,1099,2025-02-17 10:27:16,0.0
-10044,144,-4928,1066,5227,573,2025-02-17 10:27:16,0.0
-11544,-16,-5236,828,6349,-246,2025-02-17 10:27:16,0.0
-12836,-560,-4604,644,5720,-916,2025-02-17 10:27:16,0.0
-13780,-1408,-5132,854,3861,-654,2025-02-17 10:27:16,0.0
-13312,-1672,-5688,1285,1223,167,2025-02-17 10:27:16,0.0
-12808,-1068,-4460,1942,-890,586,2025-02-17 10:27:16,0.0
-12032,216,-3252,2581,675,55,2025-02-17 10:27:16,0.0
-11668,872,-3844,3353,1356,-497,2025-02-17 10:27:16,0.0
-11364,1060,-5144,3630,749,-1512,2025-02-17 10:27:16,0.0
-11588,1108,-5076,3470,-79,-2474,2025-02-17 10:27:16,0.0
-11604,324,-5932,3379,-702,-3220,2025-02-17 10:27:16,0.0
-12036,-604,-6672,3389,-1058,-3733,2025-02-17 10:27:16,0.0
-13328,-1224,-6808,3286,-935,-3329,2025-02-17 10:27:16,0.0
-14344,-1864,-7284,3359,120,-1871,2025-02-17 10:27:16,0.0
-15064,-2112,-8112,2789,1666,433,2025-02-17 10:27:16,0.0
-13236,-580,-7220,2410,2101,1629,2025-02-17 10:27:16,0.0
-11756,432,-7396,1962,754,1177,2025-02-17 10:27:16,0.0
-10508,1212,-7160,1379,-692,190,2025-02-17 10:27:16,0.0
-10380,888,-6536,874,-641,-649,2025-02-17 10:27:16,0.0
-10556,508,-5524,751,644,-952,2025-02-17 10:27:16,0.0
-10796,220,-5212,700,1690,-1118,2025-02-17 10:27:16,0.0
-10980,16,-5328,270,2347,-1451,2025-02-17 10:27:16,0.0
-11648,-860,-5864,-947,2322,-2091,2025-02-17 10:27:16,0.0
-12176,-972,-5744,-1910,1536,-2481,2025-02-17 10:27:16,0.0
-12640,-444,-5904,-2129,555,-2603,2025-02-17 10:27:16,0.0
-13064,96,-6624,-2337,396,-2486,2025-02-17 10:27:16,0.0
-13012,616,-7084,-3458,229,-2336,2025-02-17 10:27:16,0.0
-11892,584,-6852,-4694,-930,-3200,2025-02-17 10:27:16,0.0
-11908,312,-6692,-5193,-1536,-4224,2025-02-17 10:27:16,0.0
-11876,56,-6544,-5698,-1253,-4497,2025-02-17 10:27:16,0.0
-11192,-408,-6588,-6359,-436,-4822,2025-02-17 10:27:16,0.0
-11724,-556,-6700,-7248,917,-5166,2025-02-17 10:27:17,0.0
-12688,-304,-6840,-8368,1906,-5507,2025-02-17 10:27:17,0.0
-14008,-436,-6400,-9969,1815,-5848,2025-02-17 10:27:17,0.0
-14204,-400,-5848,-10488,515,-6097,2025-02-17 10:27:17,0.0
-14108,-728,-6600,-11171,-1953,-5775,2025-02-17 10:27:17,0.0
-12356,-800,-5528,-12558,-4442,-5214,2025-02-17 10:27:17,0.0
-10540,-752,-5332,-13630,-4522,-5139,2025-02-17 10:27:17,0.0
-8352,-1872,-6052,-14743,-3373,-5980,2025-02-17 10:27:17,0.0
-8228,-3148,-5928,-14807,-901,-6978,2025-02-17 10:27:17,0.0
-9856,-3576,-6484,-14572,1991,-7136,2025-02-17 10:27:17,0.0
-11160,-3028,-6980,-14746,4284,-6680,2025-02-17 10:27:17,0.0
-12456,-2624,-7324,-15054,5316,-6508,2025-02-17 10:27:17,0.0
-12852,-2244,-6708,-15366,6161,-6752,2025-02-17 10:27:17,0.0
-12316,-2108,-6784,-15714,7144,-7429,2025-02-17 10:27:17,0.0
-12080,-2284,-7132,-15767,7426,-8085,2025-02-17 10:27:17,0.0
-11344,-3060,-8328,-15747,6397,-8619,2025-02-17 10:27:17,0.0
-10060,-4740,-9992,-16275,2266,-9100,2025-02-17 10:27:17,0.0
-9648,-5856,-10176,-16891,-679,-9462,2025-02-17 10:27:17,0.0
-10312,-5568,-8952,-17512,-2254,-9356,2025-02-17 10:27:17,0.0
-10840,-4932,-7404,-17575,-2471,-8833,2025-02-17 10:27:17,0.0
-11276,-4716,-6244,-17459,-1427,-8334,2025-02-17 10:27:17,0.0
-11888,-4160,-5844,-17028,736,-7900,2025-02-17 10:27:17,0.0
-11680,-3640,-6608,-16491,3073,-7610,2025-02-17 10:27:17,0.0
-11108,-3608,-7864,-16028,3390,-7799,2025-02-17 10:27:17,0.0
-10988,-3916,-9080,-16076,1511,-8089,2025-02-17 10:27:17,0.0
-11028,-4032,-9196,-16369,-1412,-7710,2025-02-17 10:27:17,0.0
-10780,-4048,-8744,-16792,-4680,-6734,2025-02-17 10:27:17,0.0
-10380,-4672,-7924,-17127,-7372,-5784,2025-02-17 10:27:17,0.0
-10148,-4844,-6192,-16118,-8886,-5300,2025-02-17 10:27:17,0.0
-11292,-4552,-6808,-15497,-9882,-4412,2025-02-17 10:27:17,0.0
-11676,-4268,-7272,-15635,-9640,-3504,2025-02-17 10:27:17,0.0
-12336,-3488,-7092,-15421,-6869,-3031,2025-02-17 10:27:17,0.0
-13576,-1148,-3660,-10107,-3914,-4126,2025-02-17 10:27:17,0.0
-13992,-1132,-3636,-9052,-4736,-3204,2025-02-17 10:27:17,0.0
-13300,-1128,-3820,-9158,-5448,-2867,2025-02-17 10:27:17,0.0
-12540,-1088,-2180,-8744,-5596,-2676,2025-02-17 10:27:17,0.0
-12500,-1048,-1964,-7738,-3369,-1879,2025-02-17 10:27:17,0.0
-12012,-1336,-3624,-7791,2437,-377,2025-02-17 10:27:17,0.0
-10564,-1828,-3432,-7863,11391,869,2025-02-17 10:27:17,0.0
-10360,-2176,-1404,-6271,20945,1618,2025-02-17 10:27:17,0.0
-9356,-2656,-2260,-3443,30888,2614,2025-02-17 10:27:17,0.0
-11032,-3600,-3340,-611,32767,4981,2025-02-17 10:27:17,0.0
-13904,-3536,-7332,-1047,32767,9632,2025-02-17 10:27:17,0.0
-12964,-4428,-10144,-4500,32767,13924,2025-02-17 10:27:17,0.0
-9736,-4928,-12700,-10117,32767,15874,2025-02-17 10:27:17,0.0
-5396,-5016,-14668,-15295,32767,15390,2025-02-17 10:27:17,0.0
84,-4432,-15076,-19278,32767,12305,2025-02-17 10:27:17,0.0
4104,-2708,-15548,-20442,32767,8069,2025-02-17 10:27:17,
5804,-396,-16972,-20397,27197,4735,2025-02-17 10:27:17,0.0
6384,1956,-18828,-21067,13336,2295,2025-02-17 10:27:17,0.0
5460,3992,-19264,-23135,-463,402,2025-02-17 10:27:17,0.0
3304,5476,-17256,-24899,-9948,-208,2025-02-17 10:27:17,0.0
1240,6276,-13976,-25356,-17093,184,2025-02-17 10:27:17,0.0
-100,6864,-11040,-24721,-20200,1270,2025-02-17 10:27:18,0.0
-704,7008,-8552,-22825,-19960,1844,2025-02-17 10:27:18,0.0
-728,6940,-6896,-19415,-17019,1178,2025-02-17 10:27:18,0.0
-1272,6964,-6972,-15794,-12231,-312,2025-02-17 10:27:18,0.0
-2872,6480,-7184,-12407,-5956,-1621,2025-02-17 10:27:18,0.0
-1368,3748,-3848,-8646,-1731,-3211,2025-02-17 10:27:18,0.0
412,968,88,-3748,-491,-4664,2025-02-17 10:27:18,0.0
1312,16,1620,915,-3127,-5173,2025-02-17 10:27:18,0.0
-1880,900,-2596,648,-6017,-1831,2025-02-17 10:27:18,0.0
-2300,668,-2872,-3214,-5389,1855,2025-02-17 10:27:18,0.0
-456,188,-1104,-7012,-4514,5817,2025-02-17 10:27:18,0.0
1164,-228,-1544,-9353,-3498,8402,2025-02-17 10:27:18,0.0
3328,-480,1644,-10097,-3571,8788,2025-02-17 10:27:18,0.0
2548,-496,1540,-9724,-3812,8310,2025-02-17 10:27:18,0.0
2200,-480,2120,-9633,-3322,8252,2025-02-17 10:27:18,0.0
2644,-448,1788,-9431,-2994,7992,2025-02-17 10:27:18,0.0
2920,-464,1796,-9143,-2754,7560,2025-02-17 10:27:18,0.0
2868,-464,1756,-8949,-3074,7190,2025-02-17 10:27:18,0.0
2824,-424,1760,-8775,-3720,6995,2025-02-17 10:27:18,0.0
2836,-404,1832,-8524,-4428,6910,2025-02-17 10:27:18,0.0
2672,-476,1632,-8252,-5018,6935,2025-02-17 10:27:18,0.0
2644,-296,1864,-7907,-5506,6988,2025-02-17 10:27:18,0.0
2728,-356,1900,-7400,-5854,7054,2025-02-17 10:27:18,0.0
2772,-308,1680,-7024,-6233,7039,2025-02-17 10:27:18,0.0
2636,-188,2148,-6111,-7224,7133,2025-02-17 10:27:18,0.0
2376,-296,1468,-5978,-8599,7818,2025-02-17 10:27:18,0.0
2324,-188,1280,-5989,-8026,7970,2025-02-17 10:27:18,0.0
-20,9408,14816,-111,-2822,7464,2025-02-17 10:27:18,0.0
12232,32767,-7384,32767,6498,-27016,2025-02-17 10:27:18,0.0
-32768,32767,-32768,32767,32767,-32768,2025-02-17 10:27:18,0.0
-32768,7336,-32768,32767,14200,-23136,2025-02-17 10:27:18,0.0
-19096,-8140,-32768,20062,-969,196,2025-02-17 10:27:18,0.0
-512,-5136,-16996,2095,5122,4235,2025-02-17 10:27:18,0.0
932,-1716,-2648,-1552,5532,5674,2025-02-17 10:27:18,0.0
728,-2184,-3356,-5558,4838,8472,2025-02-17 10:27:18,0.0
-5748,-1500,-76,-7641,4572,13373,2025-02-17 10:27:18,0.0
-17080,-484,6224,-5965,7743,26165,2025-02-17 10:27:18,0.0
-6008,-2376,1256,151,8327,32767,2025-02-17 10:27:18,0.0
13180,1264,-16560,979,1764,32767,2025-02-17 10:27:18,0.0
27156,8968,-29676,-3252,-7627,12280,2025-02-17 10:27:18,0.0
3664,15416,-14232,-308,-4030,815,2025-02-17 10:27:18,0.0
2880,13424,-12360,2950,1454,-1890,2025-02-17 10:27:18,0.0
2688,11396,-10260,2191,280,-1643,2025-02-17 10:27:18,0.0
2444,10424,-8536,1497,-2710,-1374,2025-02-17 10:27:18,0.0
976,10736,-8928,1522,-4222,-1569,2025-02-17 10:27:18,0.0
-604,10936,-13184,1200,-3209,-867,2025-02-17 10:27:18,0.0
-612,10808,-14660,-53,-418,-294,2025-02-17 10:27:18,0.0
1560,8884,-11440,-308,137,-138,2025-02-17 10:27:18,0.0
1260,9604,-12056,-230,140,-160,2025-02-17 10:27:18,0.0
1496,9252,-12016,-107,332,-194,2025-02-17 10:27:18,0.0
1188,8816,-11940,-118,-97,-211,2025-02-17 10:27:18,0.0
680,9144,-11992,-92,-205,-172,2025-02-17 10:27:18,0.0
940,9020,-12340,-206,573,-124,2025-02-17 10:27:18,0.0
1472,9128,-11748,-288,291,-166,2025-02-17 10:27:18,0.0
1240,9152,-11556,-159,11,-213,2025-02-17 10:27:18,0.0
1192,9168,-12064,-120,-73,-220,2025-02-17 10:27:18,0.0
720,8976,-11940,-209,249,-166,2025-02-17 10:27:18,0.0
1212,9116,-12032,-138,367,-146,2025-02-17 10:27:18,0.0
1160,9044,-11848,-174,158,-147,2025-02-17 10:27:18,0.0
1232,9144,-11856,-180,207,-149,2025-02-17 10:27:19,0.0
1252,9136,-11980,-144,200,-173,2025-02-17 10:27:19,0.0
1064,9048,-11752,-159,107,-192,2025-02-17 10:27:19,0.0
996,9064,-12088,-132,196,-194,2025-02-17 10:27:19,0.0
1060,9168,-11964,-173,266,-167,2025-02-17 10:27:19,0.0
1240,9120,-11944,-188,171,-187,2025-02-17 10:27:19,0.0
1088,9040,-11988,-151,158,-188,2025-02-17 10:27:19,0.0
1100,9068,-12092,-171,209,-165,2025-02-17 10:27:19,0.0
1184,9060,-11848,-142,155,-170,2025-02-17 10:27:19,0.0
1172,9056,-12000,-175,157,-177,2025-02-17 10:27:19,0.0
1172,9116,-12044,-163,173,-159,2025-02-17 10:27:19,0.0
1076,9028,-11828,-133,199,-185,2025-02-17 10:27:19,0.0
1104,9016,-11968,-143,176,-176,2025-02-17 10:27:19,0.0
1104,9024,-11956,-151,180,-181,2025-02-17 10:27:19,0.0
1068,9028,-11904,-176,169,-198,2025-02-17 10:27:19,0.0
1192,9052,-11960,-153,173,-175,2025-02-17 10:27:19,0.0
1080,9012,-12028,-154,190,-191,2025-02-17 10:27:19,0.0
1172,8980,-12020,-140,173,-196,2025-02-17 10:27:19,0.0
1076,9056,-11920,-155,183,-166,2025-02-17 10:27:19,0.0
1172,9132,-11924,-152,178,-186,2025-02-17 10:27:19,0.0
1104,9048,-11860,-161,202,-160,2025-02-17 10:27:19,0.0
1172,9092,-12076,-161,183,-164,2025-02-17 10:27:19,0.0
1196,8988,-12052,-171,179,-179,2025-02-17 10:27:19,0.0
1160,9148,-11948,-192,178,-167,2025-02-17 10:27:19,0.0
1104,9068,-11920,-170,174,-178,2025-02-17 10:27:19,0.0
1168,9064,-11828,-156,180,-189,2025-02-17 10:27:19,0.0
1164,9172,-11996,-159,197,-164,2025-02-17 10:27:19,0.0
1132,9072,-11864,-184,167,-155,2025-02-17 10:27:19,0.0
1164,9076,-11892,-171,173,-176,2025-02-17 10:27:19,0.0
1076,9084,-11928,-127,174,-176,2025-02-17 10:27:19,0.0
1108,9092,-11944,-161,191,-178,2025-02-17 10:27:19,0.0
1180,9144,-12048,-154,171,-191,2025-02-17 10:27:19,0.0
1072,9092,-11996,-162,188,-176,2025-02-17 10:27:19,0.0
1216,8968,-12100,-170,190,-181,2025-02-17 10:27:19,0.0
1140,9020,-11956,-156,175,-181,2025-02-17 10:27:19,0.0
1252,9032,-12036,-163,176,-160,2025-02-17 10:27:19,
1172,9160,-11884,-161,180,-185,2025-02-17 10:27:19,0.0
1120,9124,-11844,-171,164,-184,2025-02-17 10:27:19,0.0
1144,9084,-11992,-158,183,-183,2025-02-17 10:27:19,0.0
1128,9048,-12020,-164,185,-169,2025-02-17 10:27:19,0.0
1148,9032,-11988,-159,183,-170,2025-02-17 10:27:19,0.0
1068,9008,-11792,-172,172,-181,2025-02-17 10:27:19,0.0
1096,8980,-12008,-162,198,-164,2025-02-17 10:27:19,0.0
1192,9044,-11856,-145,196,-163,2025-02-17 10:27:19,0.0
1148,8964,-11768,-149,175,-160,2025-02-17 10:27:19,0.0
1096,9048,-11760,-151,179,-191,2025-02-17 10:27:19,0.0
1172,9128,-11860,-173,171,-180,2025-02-17 10:27:19,0.0
1088,9100,-11916,-165,168,-176,2025-02-17 10:27:19,0.0
1108,9072,-12008,-163,149,-168,2025-02-17 10:27:19,0.0
1032,9016,-11876,-157,169,-170,2025-02-17 10:27:19,0.0
1144,9080,-11904,-156,187,-191,2025-02-17 10:27:19,0.0
1088,9160,-11848,-174,155,-157,2025-02-17 10:27:19,0.0
1228,9096,-11984,-155,188,-190,2025-02-17 10:27:19,0.0
1108,9012,-11968,-167,174,-180,2025-02-17 10:27:19,0.0
1044,9172,-11860,-157,167,-178,2025-02-17 10:27:19,0.0
1044,9092,-12084,-169,184,-169,2025-02-17 10:27:19,0.0
1112,9192,-12000,-185,172,-180,2025-02-17 10:27:19,0.0
1116,9144,-12052,-159,167,-190,2025-02-17 10:27:19,0.0
1140,9096,-11824,-172,170,-149,2025-02-17 10:27:19,0.0
1132,9136,-11928,-153,199,-169,2025-02-17 10:27:19,0.0
1108,9032,-11984,-175,187,-172,2025-02-17 10:27:20,0.0
1188,9124,-11876,-172,185,-188,2025-02-17 10:27:20,0.0
1184,9088,-11972,-161,158,-164,2025-02-17 10:27:20,0.0
1164,9156,-11884,-158,176,-174,2025-02-17 10:27:20,0.0
1096,9116,-11984,-168,162,-170,2025-02-17 10:27:20,0.0
1152,9068,-11896,-156,188,-177,2025-02-17 10:27:20,0.0
1136,8980,-11860,-158,169,-187,2025-02-17 10:27:20,0.0
1040,9088,-12172,-146,181,-190,2025-02-17 10:27:20,0.0
1132,9024,-11828,-154,198,-184,2025-02-17 10:27:20,0.0
1140,9064,-11796,-174,158,-168,2025-02-17 10:27:20,0.0
1116,9056,-12076,-166,194,-173,2025-02-17 10:27:20,0.0
1052,9064,-11932,-163,165,-173,2025-02-17 10:27:20,0.0
1180,9060,-11888,-161,174,-187,2025-02-17 10:27:20,0.0
1164,9148,-11916,-161,183,-175,2025-02-17 10:27:20,0.0
1132,9020,-11944,-159,174,-190,2025-02-17 10:27:20,0.0
1120,9052,-11984,-169,184,-179,2025-02-17 10:27:20,0.0
1124,9076,-11848,-165,203,-171,2025-02-17 10:27:20,0.0
1144,8968,-11892,-159,163,-166,2025-02-17 10:27:20,0.0
1068,9120,-11888,-140,160,-183,2025-02-17 10:27:20,0.0
1116,9056,-11892,-174,162,-197,2025-02-17 10:27:20,0.0
1108,9072,-12020,-168,177,-177,2025-02-17 10:27:20,0.0
1000,9076,-11964,-164,178,-191,2025-02-17 10:27:20,0.0
1164,9020,-11824,-165,168,-190,2025-02-17 10:27:20,0.0
1176,9048,-12032,-180,174,-164,2025-02-17 10:27:20,0.0
1108,9048,-11832,-152,189,-181,2025-02-17 10:27:20,0.0
1084,9048,-11840,-146,159,-187,2025-02-17 10:27:20,0.0
1124,9100,-12000,-184,179,-184,2025-02-17 10:27:20,0.0
1108,9096,-11976,-172,164,-180,2025-02-17 10:27:20,0.0
1224,9052,-11948,-155,155,-183,2025-02-17 10:27:20,0.0
1152,9120,-11940,-155,177,-168,2025-02-17 10:27:20,0.0
1204,9008,-11976,-166,172,-177,2025-02-17 10:27:20,0.0
1172,9100,-11880,-149,177,-154,2025-02-17 10:27:20,0.0
1116,8976,-11908,-167,172,-151,2025-02-17 10:27:20,0.0
1136,9100,-11916,-173,172,-185,2025-02-17 10:27:20,0.0
1192,9096,-11960,-155,173,-170,2025-02-17 10:27:20,0.0
1200,9080,-12020,-134,162,-151,2025-02-17 10:27:20,0.0
1132,9112,-11952,-182,181,-169,2025-02-17 10:27:20,0.0
1076,9016,-11924,-179,179,-185,2025-02-17 10:27:20,0.0
1092,9036,-11912,-184,175,-174,2025-02-17 10:27:20,0.0
1200,8968,-11864,-157,186,-182,2025-02-17 10:27:20,0.0
1204,9032,-11872,-194,179,-164,2025-02-17 10:27:20,0.0
1068,9044,-12004,-175,169,-167,2025-02-17 10:27:20,0.0
1204,9028,-11888,-172,184,-184,2025-02-17 10:27:20,0.0
1044,9072,-11964,-165,184,-190,2025-02-17 10:27:20,0.0
1144,9048,-11912,-163,191,-184,2025-02-17 10:27:20,0.0
1172,9052,-11836,-172,168,-187,2025-02-17 10:27:20,0.0
1132,9124,-11908,-165,181,-171,2025-02-17 10:27:20,0.0
1152,9024,-11980,-177,173,-179,2025-02-17 10:27:20,0.0
1108,9028,-11940,-133,170,-186,2025-02-17 10:27:20,0.0
1196,9068,-11936,-181,192,-168,2025-02-17 10:27:20,0.0
1148,9132,-11848,-165,172,-186,2025-02-17 10:27:20,0.0
1148,9080,-12020,-159,184,-182,2025-02-17 10:27:20,0.0
1140,9124,-11988,-136,171,-187,2025-02-17 10:27:20,0.0
1160,9116,-11984,-178,176,-169,2025-02-17 10:27:20,0.0
1116,9052,-11944,-137,156,-161,2025-02-17 10:27:20,0.0
1168,9128,-11992,-175,191,-180,2025-02-17 10:27:20,0.0
1096,9004,-11880,-150,176,-189,2025-02-17 10:27:20,0.0
1164,9116,-11880,-158,182,-183,2025-02-17 10:27:20,0.0
1128,9104,-11972,-170,161,-183,2025-02-17 10:27:20,0.0
1136,9164,-11840,-170,168,-172,2025-02-17 10:27:21,0.0
1252,9056,-11884,-173,188,-186,2025-02-17 10:27:21,0.0
1060,9080,-11932,-170,169,-174,2025-02-17 10:27:21,0.0
1088,9096,-11960,-151,183,-163,2025-02-17 10:27:21,0.0
1088,9068,-11856,-189,176,-163,2025-02-17 10:27:21,0.0
1144,9124,-11896,-159,176,-191,2025-02-17 10:27:21,0.0
1096,9088,-11988,-170,171,-178,2025-02-17 10:27:21,0.0
1048,9008,-11944,-158,188,-167,2025-02-17 10:27:21,0.0
1192,9096,-12148,-164,161,-193,2025-02-17 10:27:21,0.0
1076,9104,-11932,-192,166,-176,2025-02-17 10:27:21,0.0
1160,9128,-11896,-173,166,-165,2025-02-17 10:27:21,0.0
1132,9076,-12016,-147,163,-168,2025-02-17 10:27:21,0.0
1036,9140,-11996,-160,176,-172,2025-02-17 10:27:21,0.0
1188,8996,-11808,-158,182,-177,2025-02-17 10:27:21,0.0
1148,9168,-11896,-167,178,-178,2025-02-17 10:27:21,0.0
1068,9008,-11896,-163,174,-180,2025-02-17 10:27:21,0.0
1188,9096,-11948,-173,194,-182,2025-02-17 10:27:21,
1148,9000,-12064,-175,181,-161,2025-02-17 10:27:21,0.0
1152,9100,-12020,-156,196,-175,2025-02-17 10:27:21,0.0
1128,9120,-11908,-166,168,-179,2025-02-17 10:27:21,0.0
1100,9068,-11904,-147,190,-175,2025-02-17 10:27:21,0.0
1144,9120,-11728,-173,168,-183,2025-02-17 10:27:21,0.0
1196,9056,-12024,-173,170,-171,2025-02-17 10:27:21,0.0
1180,9044,-11892,-156,193,-191,2025-02-17 10:27:21,0.0
1156,9096,-11996,-173,155,-167,2025-02-17 10:27:21,0.0
1216,9000,-11948,-177,163,-177,2025-02-17 10:27:21,0.0
1120,9036,-12088,-184,162,-174,2025-02-17 10:27:21,0.0
1172,9040,-11896,-158,180,-177,2025-02-17 10:27:21,0.0
1208,9160,-11836,-191,181,-183,2025-02-17 10:27:21,0.0
1268,9164,-11936,-160,180,-184,2025-02-17 10:27:21,0.0
1076,9044,-12004,-143,191,-167,2025-02-17 10:27:21,0.0
1100,9024,-11996,-163,173,-150,2025-02-17 10:27:21,0.0
1140,9092,-11976,-172,176,-176,2025-02-17 10:27:21,0.0
1160,9072,-11976,-173,184,-176,2025-02-17 10:27:21,0.0
1104,9064,-11972,-172,166,-165,2025-02-17 10:27:21,0.0
1152,9096,-12028,-171,182,-191,2025-02-17 10:27:21,0.0
1120,8980,-11984,-154,162,-174,2025-02-17 10:27:21,0.0
1204,9116,-11908,-170,179,-184,2025-02-17 10:27:21,0.0
1128,9140,-11860,-164,170,-171,2025-02-17 10:27:21,0.0
1140,8996,-11984,-157,185,-168,2025-02-17 10:27:21,0.0
1096,9160,-11812,-157,177,-156,2025-02-17 10:27:21,0.0
1220,9048,-11912,-165,190,-173,2025-02-17 10:27:21,0.0
1044,9008,-11968,-174,177,-170,2025-02-17 10:27:21,0.0
1268,9088,-12004,-193,181,-165,2025-02-17 10:27:21,0.0
1208,8984,-12036,-163,195,-186,2025-02-17 10:27:21,0.0
1196,9112,-11996,-176,176,-169,2025-02-17 10:27:21,0.0
1192,9048,-11896,-173,188,-185,2025-02-17 10:27:21,0.0
1172,9108,-12020,-184,172,-167,2025-02-17 10:27:21,0.0
1120,9048,-11980,-147,175,-194,2025-02-17 10:27:21,0.0
1044,8992,-11932,-148,176,-181,2025-02-17 10:27:21,0.0
1044,8980,-11928,-147,184,-185,2025-02-17 10:27:21,0.0
1156,9052,-11940,-160,171,-173,2025-02-17 10:27:21,0.0
1116,9084,-11988,-161,181,-168,2025-02-17 10:27:21,0.0
1216,9024,-11960,-179,167,-168,2025-02-17 10:27:21,0.0
1236,9004,-11968,-168,178,-160,2025-02-17 10:27:21,0.0
1156,9100,-11956,-166,157,-170,2025-02-17 10:27:21,0.0
1132,9068,-11952,-150,172,-162,2025-02-17 10:27:21,0.0
1020,9076,-12056,-126,186,-167,2025-02-17 10:27:22,0.0
1104,9096,-11944,-169,193,-162,2025-02-17 10:27:22,0.0
1088,9072,-12040,-162,179,-164,2025-02-17 10:27:22,0.0
1132,9140,-12092,-158,174,-157,2025-02-17 10:27:22,0.0
1144,9064,-11812,-185,192,-164,2025-02-17 10:27:22,0.0
1084,9104,-11812,-151,187,-174,2025-02-17 10:27:22,0.0
1180,9096,-12068,-170,168,-191,2025-02-17 10:27:22,0.0
1180,9032,-12060,-180,183,-189,2025-02-17 10:27:22,0.0
1112,9060,-11876,-159,180,-178,2025-02-17 10:27:22,0.0
1180,9048,-11780,-172,193,-167,2025-02-17 10:27:22,0.0
1228,9060,-11936,-162,167,-191,2025-02-17 10:27:22,0.0
1104,9064,-11896,-163,178,-175,2025-02-17 10:27:22,0.0
1220,8908,-11924,-155,180,-184,2025-02-17 10:27:22,0.0
1184,9012,-11856,-154,197,-188,2025-02-17 10:27:22,0.0
1112,9048,-11940,-156,182,-151,2025-02-17 10:27:22,0.0
1120,9080,-11820,-155,171,-190,2025-02-17 10:27:22,0.0
1212,9116,-11960,-149,171,-166,2025-02-17 10:27:22,0.0
1112,9080,-11968,-174,175,-163,2025-02-17 10:27:22,0.0
1204,9064,-11980,-150,179,-172,2025-02-17 10:27:22,0.0
1208,9016,-12104,-154,172,-186,2025-02-17 10:27:22,0.0
1224,9132,-11912,-163,183,-151,2025-02-17 10:27:22,0.0
1088,9116,-11872,-163,172,-188,2025-02-17 10:27:22,0.0
1016,8992,-11796,-166,185,-192,2025-02-17 10:27:22,0.0
1164,9028,-12016,-158,185,-189,2025-02-17 10:27:22,0.0
1176,9136,-11956,-167,153,-172,2025-02-17 10:27:22,0.0
1084,9096,-11884,-159,179,-188,2025-02-17 10:27:22,0.0
1156,9060,-11960,-185,188,-185,2025-02-17 10:27:22,0.0
1088,9056,-11952,-187,183,-178,2025-02-17 10:27:22,0.0
1112,9052,-11896,-158,191,-178,2025-02-17 10:27:22,0.0
1128,9092,-11928,-170,172,-173,2025-02-17 10:27:22,0.0
1156,9144,-11948,-146,203,-155,2025-02-17 10:27:22,0.0
1132,9072,-12000,-180,183,-172,2025-02-17 10:27:22,0.0
1068,9036,-11976,-135,181,-173,2025-02-17 10:27:22,0.0
1232,9084,-12036,-162,181,-180,2025-02-17 10:27:22,0.0
1184,9072,-12024,-161,160,-167,2025-02-17 10:27:22,0.0
1092,9104,-11896,-161,173,-184,2025-02-17 10:27:22,0.0
1148,9132,-11836,-146,177,-163,2025-02-17 10:27:22,0.0
1196,9004,-12020,-188,164,-179,2025-02-17 10:27:22,0.0
1132,9052,-11856,-167,175,-176,2025-02-17 10:27:22,0.0
1200,9160,-11900,-155,185,-175,2025-02-17 10:27:22,0.0
1208,9104,-11944,-158,182,-159,2025-02-17 10:27:22,0.0
1104,9068,-11900,-172,151,-190,2025-02-17 10:27:22,0.0
1136,9064,-11888,-187,180,-154,2025-02-17 10:27:22,0.0
1064,9108,-11888,-167,179,-193,2025-02-17 10:27:22,0.0
1060,9088,-11956,-156,176,-179,2025-02-17 10:27:22,0.0
1088,9188,-11788,-174,182,-187,2025-02-17 10:27:22,0.0
1224,9004,-12020,-154,188,-186,2025-02-17 10:27:22,0.0
1092,9100,-11904,-152,186,-171,2025-02-17 10:27:22,0.0
1088,9056,-11976,-137,181,-143,2025-02-17 10:27:22,0.0
1120,9116,-11872,-168,173,-171,2025-02-17 10:27:22,0.0
1120,9004,-12032,-144,186,-182,2025-02-17 10:27:22,0.0
1088,9136,-11920,-161,153,-161,2025-02-17 10:27:22,0.0
1132,9032,-11896,-155,167,-171,2025-02-17 10:27:22,0.0
1156,9092,-12096,-171,150,-187,2025-02-17 10:27:22,0.0
1112,9000,-11920,-132,171,-169,2025-02-17 10:27:22,0.0
1148,9000,-11936,-154,179,-155,2025-02-17 10:27:22,0.0
1072,9060,-12024,-160,164,-204,2025-02-17 10:27:22,0.0
1204,9012,-11880,-139,164,-169,2025-02-17 10:27:22,0.0
1040,9048,-11972,-182,173,-189,2025-02-17 10:27:23,0.0
1124,8952,-12000,-168,190,-179,2025-02-17 10:27:23,
1140,9148,-11992,-164,200,-173,2025-02-17 10:27:23,0.0
1172,9112,-11912,-168,187,-190,2025-02-17 10:27:23,0.0
1176,9036,-12028,-131,157,-187,2025-02-17 10:27:23,0.0
1160,9072,-11948,-155,193,-178,2025-02-17 10:27:23,0.0
1136,9068,-11956,-173,170,-168,2025-02-17 10:27:23,0.0
1080,9076,-11896,-160,180,-181,2025-02-17 10:27:23,0.0
1028,8968,-11940,-138,191,-178,2025-02-17 10:27:23,0.0
1080,9024,-11936,-157,200,-190,2025-02-17 10:27:23,0.0
1024,9108,-11864,-172,162,-180,2025-02-17 10:27:23,0.0
1148,9160,-11864,-170,176,-179,2025-02-17 10:27:23,0.0
1196,9056,-11876,-144,193,-179,2025-02-17 10:27:23,0.0
1080,9044,-12024,-190,164,-176,2025-02-17 10:27:23,0.0
1156,9068,-11892,-164,189,-209,2025-02-17 10:27:23,0.0
1104,9072,-11896,-172,178,-179,2025-02-17 10:27:23,0.0
1280,9032,-11908,-137,175,-166,2025-02-17 10:27:23,0.0
1196,9084,-11916,-131,192,-174,2025-02-17 10:27:23,0.0
1124,9072,-11868,-148,179,-160,2025-02-17 10:27:23,0.0
1136,9116,-11896,-173,183,-166,2025-02-17 10:27:23,0.0
1184,8992,-12060,-165,182,-180,2025-02-17 10:27:23,0.0
1052,9080,-11988,-164,172,-201,2025-02-17 10:27:23,0.0
1180,9024,-11924,-137,167,-176,2025-02-17 10:27:23,0.0
1124,9104,-11940,-161,161,-157,2025-02-17 10:27:23,0.0
1172,9112,-11836,-165,151,-189,2025-02-17 10:27:23,0.0
1208,9044,-11948,-140,185,-161,2025-02-17 10:27:23,0.0
1044,9064,-11972,-178,171,-186,2025-02-17 10:27:23,0.0
1200,9112,-11924,-177,155,-172,2025-02-17 10:27:23,0.0
1192,9080,-11940,-181,179,-182,2025-02-17 10:27:23,0.0
1140,9060,-11940,-153,162,-176,2025-02-17 10:27:23,0.0
1156,8984,-11860,-162,190,-170,2025-02-17 10:27:23,0.0
1196,9072,-11848,-170,183,-163,2025-02-17 10:27:23,0.0
1128,8984,-11988,-142,181,-190,2025-02-17 10:27:23,0.0
1156,9076,-11980,-177,177,-197,2025-02-17 10:27:23,0.0
1248,9060,-11944,-176,157,-177,2025-02-17 10:27:23,0.0
1184,9128,-11932,-166,178,-172,2025-02-17 10:27:23,0.0
1160,9100,-11860,-166,188,-172,2025-02-17 10:27:23,0.0
1128,9036,-11760,-152,184,-175,2025-02-17 10:27:23,0.0
1080,9108,-12056,-155,233,-175,2025-02-17 10:27:23,0.0
1156,9100,-11836,-175,146,-182,2025-02-17 10:27:23,0.0
1088,9024,-11896,-155,160,-160,2025-02-17 10:27:23,0.0
1148,9112,-12000,-164,214,-172,2025-02-17 10:27:23,0.0
1120,9080,-11840,-194,164,-175,2025-02-17 10:27:23,0.0
1024,9080,-11940,-158,232,-130,2025-02-17 10:27:23,0.0
1280,9020,-11932,-140,253,-150,2025-02-17 10:27:23,0.0
1236,9112,-11832,-203,114,-160,2025-02-17 10:27:23,0.0
1128,9028,-12004,-153,166,-153,2025-02-17 10:27:23,0.0
1192,9084,-11876,-150,268,-131,2025-02-17 10:27:23,0.0
1184,9100,-11824,-205,-8,-158,2025-02-17 10:27:23,0.0
1052,9072,-12088,-207,274,-188,2025-02-17 10:27:23,0.0
1348,9236,-11816,-142,200,-213,2025-02-17 10:27:23,0.0
1312,9068,-12088,-145,10,-187,2025-02-17 10:27:23,0.0
924,8976,-12040,-146,104,-181,2025-02-17 10:27:23,0.0
988,8924,-12032,-178,308,-153,2025-02-17 10:27:23,0.0
1292,9144,-11828,-187,319,-175,2025-02-17 10:27:23,0.0
1380,9072,-11752,-132,79,-211,2025-02-17 10:27:23,0.0
1128,9076,-11952,-177,84,-219,2025-02-17 10:27:23,0.0
1080,9088,-12068,-134,216,-192,2025-02-17 10:27:23,0.0
1088,9068,-11952,-195,196,-160,2025-02-17 10:27:23,0.0
1136,9080,-11876,-181,233,-161,2025-02-17 10:27:23,0.0
1168,9068,-12084,-165,147,-191,2025-02-17 10:27:23,0.0
1216,9088,-11920,-147,104,-194,2025-02-17 10:27:24,0.0
1172,9112,-12064,-178,260,-170,2025-02-17 10:27:24,0.0
1288,9128,-11956,-150,127,-185,2025-02-17 10:27:24,0.0
1016,9112,-11864,-151,151,-175,2025-02-17 10:27:24,0.0
1144,9124,-11876,-159,226,-165,2025-02-17 10:27:24,0.0
1116,9052,-11960,-202,172,-173,2025-02-17 10:27:24,0.0
1204,9088,-11880,-149,222,-160,2025-02-17 10:27:24,0.0
1260,9052,-11936,-189,150,-184,2025-02-17 10:27:24,0.0
1116,9072,-11852,-143,120,-191,2025-02-17 10:27:24,0.0
1080,9076,-12020,-163,214,-172,2025-02-17 10:27:24,0.0
1080,9104,-11908,-164,219,-153,2025-02-17 10:27:24,0.0
1124,9096,-11872,-185,147,-151,2025-02-17 10:27:24,0.0
1176,9072,-11896,-160,221,-145,2025-02-17 10:27:24,0.0
1068,9084,-12140,-174,231,-168,2025-02-17 10:27:24,0.0
1144,9120,-11988,-163,174,-154,2025-02-17 10:27:24,0.0
1252,9116,-11948,-174,167,-164,2025-02-17 10:27:24,0.0
1148,9112,-11956,-159,148,-176,2025-02-17 10:27:24,0.0
1172,9076,-11940,-137,174,-182,2025-02-17 10:27:24,0.0
1192,9128,-11904,-162,189,-189,2025-02-17 10:27:24,0.0
1356,9120,-12012,-159,202,-177,2025-02-17 10:27:24,0.0
1188,9028,-11924,-161,135,-177,2025-02-17 10:27:24,0.0
1212,9020,-12016,-200,174,-168,2025-02-17 10:27:24,0.0
1220,9056,-11876,-156,182,-188,2025-02-17 10:27:24,0.0
1188,8960,-12020,-157,116,-167,2025-02-17 10:27:24,0.0
964,9116,-12060,-173,224,-166,2025-02-17 10:27:24,0.0
1180,9104,-12024,-158,208,-177,2025-02-17 10:27:24,0.0
1232,8984,-11916,-171,132,-170,2025-02-17 10:27:24,0.0
1168,9040,-11892,-181,139,-196,2025-02-17 10:27:24,0.0
1096,9112,-11888,-164,166,-193,2025-02-17 10:27:24,0.0
1140,9012,-11796,-193,186,-164,2025-02-17 10:27:24,0.0
1144,9104,-12020,-174,249,-152,2025-02-17 10:27:24,0.0
1240,9140,-12100,-189,196,-155,2025-02-17 10:27:24,0.0
1152,9104,-11992,-133,150,-180,2025-02-17 10:27:24,0.0
1136,9048,-12004,-171,158,-191,2025-02-17 10:27:24,0.0
1084,9008,-11884,-174,230,-174,2025-02-17 10:27:24,0.0
1172,9016,-11740,-133,133,-182,2025-02-17 10:27:24,0.0
1080,9016,-12072,-161,184,-165,2025-02-17 10:27:24,0.0
1224,9072,-11836,-142,193,-189,2025-02-17 10:27:24,0.0
1148,9044,-11972,-172,152,-170,2025-02-17 10:27:24,0.0
1232,9060,-11896,-149,200,-179,2025-02-17 10:27:24,0.0
1184,9064,-11880,-154,177,-185,2025-02-17 10:27:24,
1140,9136,-11880,-143,174,-167,2025-02-17 10:27:24,0.0
980,9032,-11844,-158,-46,-145,2025-02-17 10:27:24,0.0
1036,9084,-11972,-131,338,-197,2025-02-17 10:27:24,0.0
1000,8860,-11316,-106,222,-156,2025-02-17 10:27:24,0.0
1064,8712,-11788,-55,619,-69,2025-02-17 10:27:24,0.0
1664,9072,-12564,-116,461,-270,2025-02-17 10:27:24,0.0
200,9148,-12320,-540,-781,-36,2025-02-17 10:27:24,0.0
288,9108,-11132,-336,399,5,2025-02-17 10:27:24,0.0
1944,9384,-11156,63,1212,-116,2025-02-17 10:27:24,0.0
3332,9104,-12148,-291,-677,-464,2025-02-17 10:27:24,0.0
-140,8972,-12404,-265,-933,-360,2025-02-17 10:27:24,0.0
232,9032,-11636,-404,800,-127,2025-02-17 10:27:24,0.0
1780,9260,-11500,-189,691,-111,2025-02-17 10:27:25,0.0
1824,9404,-12044,-176,320,-242,2025-02-17 10:27:25,0.0
1944,9176,-12236,-20,-584,-329,2025-02-17 10:27:25,0.0
496,9208,-11424,-174,-896,-257,2025-02-17 10:27:25,0.0
616,8748,-12176,-142,298,-412,2025-02-17 10:27:25,0.0
808,9348,-12140,-65,334,-99,2025-02-17 10:27:25,0.0
708,8980,-11968,-243,629,30,2025-02-17 10:27:25,0.0
1900,8908,-11660,-170,1122,-172,2025-02-17 10:27:25,0.0
2268,9596,-10892,366,-54,-252,2025-02-17 10:27:25,0.0
388,8820,-11996,-454,-1171,-456,2025-02-17 10:27:25,0.0
900,9752,-11364,825,-112,-863,2025-02-17 10:27:25,0.0
1220,8288,-11688,2414,-1472,-1052,2025-02-17 10:27:25,0.0
524,6800,-14332,495,-1503,-935,2025-02-17 10:27:25,0.0
424,9056,-12256,-1193,857,-929,2025-02-17 10:27:25,0.0
272,10832,-11424,442,1103,-973,2025-02-17 10:27:25,0.0
144,10504,-12408,282,-392,-607,2025-02-17 10:27:25,0.0
-160,9972,-11876,-590,-746,-470,2025-02-17 10:27:25,0.0
216,8564,-11736,497,426,-169,2025-02-17 10:27:25,0.0
344,8148,-12784,-431,702,-152,2025-02-17 10:27:25,0.0
716,9132,-11916,-122,-154,-195,2025-02-17 10:27:25,0.0
404,8548,-11624,-159,184,-187,2025-02-17 10:27:25,0.0
772,8620,-12128,-130,250,-111,2025-02-17 10:27:25,0.0
1040,8656,-12048,-252,273,-280,2025-02-17 10:27:25,0.0
-172,9212,-11452,-116,-68,-103,2025-02-17 10:27:25,0.0
-316,8500,-11680,-59,686,-57,2025-02-17 10:27:25,0.0
956,8628,-12380,-113,808,-50,2025-02-17 10:27:25,0.0
1448,8968,-12416,-225,20,-223,2025-02-17 10:27:25,0.0
536,8680,-11884,-194,-634,-299,2025-02-17 10:27:25,0.0
228,8860,-11856,-72,-217,-329,2025-02-17 10:27:25,0.0
180,8608,-12152,5,128,-221,2025-02-17 10:27:25,0.0
868,8728,-12264,-215,-453,-217,2025-02-17 10:27:25,0.0
1476,8632,-11704,-175,-987,-480,2025-02-17 10:27:25,0.0
1412,9252,-11744,-65,-2704,-773,2025-02-17 10:27:25,0.0
-8,8648,-12732,562,-3020,-1082,2025-02-17 10:27:25,0.0
-1820,8456,-12968,-209,-1049,-578,2025-02-17 10:27:25,0.0
-856,9368,-11500,-219,1462,78,2025-02-17 10:27:25,0.0
-776,8692,-11848,108,2325,331,2025-02-17 10:27:25,0.0
-332,8608,-12748,-152,2260,857,2025-02-17 10:27:25,0.0
-288,9280,-12648,-280,2661,1189,2025-02-17 10:27:25,0.0
-236,9496,-12576,-73,3101,1567,2025-02-17 10:27:25,0.0
196,9580,-12092,370,2681,2064,2025-02-17 10:27:25,0.0
224,9808,-12076,1010,750,2759,2025-02-17 10:27:25,0.0
272,9308,-13412,701,-2033,3826,2025-02-17 10:27:25,0.0
404,7988,-15728,-3354,-3346,4640,2025-02-17 10:27:25,0.0
-412,10916,-10196,-5149,-4520,5556,2025-02-17 10:27:25,0.0
2972,12056,-8360,-1020,-7544,7590,2025-02-17 10:27:25,0.0
5032,12356,-11072,5644,-9004,5884,2025-02-17 10:27:25,0.0
3824,11516,-17112,8142,-6445,1616,2025-02-17 10:27:25,0.0
-208,10308,-18836,5782,-2586,168,2025-02-17 10:27:25,0.0
-2644,8384,-19492,-312,2137,1088,2025-02-17 10:27:26,0.0
-1768,7700,-14680,-4878,8380,2104,2025-02-17 10:27:26,0.0
720,7624,-12608,-4563,12036,2630,2025-02-17 10:27:26,0.0
1024,8688,-14092,-1733,9156,3837,2025-02-17 10:27:26,0.0
980,11836,-12844,2295,2933,4747,2025-02-17 10:27:26,0.0
1340,13792,-13096,6287,-2062,4316,2025-02-17 10:27:26,0.0
1804,13096,-15688,7765,-5144,2964,2025-02-17 10:27:26,0.0
1712,11964,-16964,5413,-8235,1192,2025-02-17 10:27:26,0.0
2512,12288,-14580,4010,-9732,-1430,2025-02-17 10:27:26,0.0
944,12568,-14132,5103,-8414,-5064,2025-02-17 10:27:26,0.0
-1224,12368,-15452,5440,-5752,-6597,2025-02-17 10:27:26,0.0
-1916,12220,-14724,5935,-4126,-6637,2025-02-17 10:27:26,0.0
-1412,11484,-14976,7597,-4388,-6221,2025-02-17 10:27:26,0.0
-508,10656,-17312,7599,-7079,-5699,2025-02-17 10:27:26,0.0
228,10224,-17884,5632,-12011,-5216,2025-02-17 10:27:26,0.0
580,9876,-16720,4548,-18029,-4554,2025-02-17 10:27:26,0.0
360,9872,-15124,5510,-21890,-4379,2025-02-17 10:27:26,0.0
-1788,9716,-16112,7282,-19638,-5300,2025-02-17 10:27:26,0.0
-4116,9652,-17780,6722,-12320,-5352,2025-02-17 10:27:26,0.0
-4800,9664,-17308,5242,-4267,-4070,2025-02-17 10:27:26,0.0
-2968,9632,-16076,4630,655,-3145,2025-02-17 10:27:26,0.0
-1696,9408,-14488,5661,3254,-3093,2025-02-17 10:27:26,0.0
-1508,9312,-15920,6530,4360,-3005,2025-02-17 10:27:26,0.0
-1604,8976,-16292,5978,5045,-2472,2025-02-17 10:27:26,0.0
-1476,8592,-15320,6468,6168,-2449,2025-02-17 10:27:26,0.0
-1692,7808,-16396,7451,8794,-3206,2025-02-17 10:27:26,0.0
-848,6756,-17168,7546,11346,-4414,2025-02-17 10:27:26,0.0
252,5756,-17320,7681,13380,-6723,2025-02-17 10:27:26,0.0
1184,4088,-17976,7645,13444,-10355,2025-02-17 10:27:26,0.0
884,2944,-17260,6460,10121,-12022,2025-02-17 10:27:26,0.0
596,1816,-15188,5101,3762,-11952,2025-02-17 10:27:26,0.0
588,1024,-12784,4762,-4679,-10986,2025-02-17 10:27:26,0.0
212,404,-11752,5263,-11952,-10193,2025-02-17 10:27:26,0.0
-992,284,-13272,4672,-16420,-9600,2025-02-17 10:27:26,0.0
-2116,-480,-14240,2950,-16422,-9382,2025-02-17 10:27:26,0.0
-2560,-992,-14728,1251,-13755,-9716,2025-02-17 10:27:26,0.0
-3212,-1272,-14400,-503,-9686,-9834,2025-02-17 10:27:26,0.0
-3704,-1096,-13416,-1668,-6173,-9160,2025-02-17 10:27:26,0.0
-3472,-740,-12444,-2584,-3614,-8068,2025-02-17 10:27:26,
-2992,-288,-11772,-3258,-1852,-7031,2025-02-17 10:27:26,0.0
-2824,60,-10976,-3520,-277,-6268,2025-02-17 10:27:26,0.0
-3048,372,-9904,-3071,2456,-5295,2025-02-17 10:27:26,0.0
-3244,656,-8944,-2424,5251,-4605,2025-02-17 10:27:26,0.0
-3248,876,-8208,-2307,7416,-3566,2025-02-17 10:27:26,0.0
-2068,624,-7032,-1882,8875,-3248,2025-02-17 10:27:26,0.0
-1980,608,-6628,-1019,10037,-3486,2025-02-17 10:27:26,0.0
-1788,616,-6496,-74,10946,-3835,2025-02-17 10:27:26,0.0
-2332,360,-7220,1173,11941,-4337,2025-02-17 10:27:26,0.0
-3008,204,-8032,1244,11691,-3819,2025-02-17 10:27:26,0.0
-2540,-276,-7880,1014,10082,-3191,2025-02-17 10:27:26,0.0
-1360,-796,-7916,933,7400,-3303,2025-02-17 10:27:26,0.0
-656,-1212,-8488,898,3841,-4094,2025-02-17 10:27:26,0.0
-1932,-1296,-8872,749,442,-4543,2025-02-17 10:27:26,0.0
-2900,-1520,-8984,295,-2779,-4178,2025-02-17 10:27:26,0.0
-3180,-1572,-8352,360,-5353,-3716,2025-02-17 10:27:26,0.0
-3004,-1640,-8588,898,-7362,-3847,2025-02-17 10:27:26,0.0
-2968,-1652,-9232,1140,-8969,-4406,2025-02-17 10:27:26,0.0
-3136,-1800,-9640,691,-10144,-5171,2025-02-17 10:27:26,0.0
-3732,-2120,-9740,100,-11014,-5802,2025-02-17 10:27:27,0.0
-3944,-2852,-11868,-1463,-11656,-6397,2025-02-17 10:27:27,0.0
-3912,-3192,-13420,-3379,-12028,-6840,2025-02-17 10:27:27,0.0
-4056,-3300,-14136,-5219,-12473,-7204,2025-02-17 10:27:27,0.0
-4912,-3032,-14080,-6213,-12866,-6946,2025-02-17 10:27:27,0.0
-6084,-2552,-13668,-5733,-12930,-5770,2025-02-17 10:27:27,0.0
-6700,-1652,-13876,-4246,-12510,-4072,2025-02-17 10:27:27,0.0
-6756,-796,-14948,-3025,-11745,-2241,2025-02-17 10:27:27,0.0
-5200,-176,-16184,-2893,-10678,-1297,2025-02-17 10:27:27,0.0
-5244,-888,-9296,1515,-6543,-4666,2025-02-17 10:27:27,0.0
-5376,-1632,-9468,2068,-5977,-3834,2025-02-17 10:27:27,0.0
-5108,-2080,-10076,1593,-5461,-3308,2025-02-17 10:27:27,0.0
-5304,-2692,-11044,-949,-4389,-2824,2025-02-17 10:27:27,0.0
-14924,-5236,-2256,-5976,-3639,-5555,2025-02-17 10:27:27,0.0
-14944,-1416,-368,-7788,712,-6042,2025-02-17 10:27:27,0.0
-6848,-1176,-11140,-7238,1960,-6549,2025-02-17 10:27:27,0.0
-4464,-1548,-14852,-5780,669,-6273,2025-02-17 10:27:27,0.0
-11920,-984,-9112,-1045,-1498,-1948,2025-02-17 10:27:27,0.0
-11560,-2348,-11712,-768,-5134,-74,2025-02-17 10:27:27,0.0
-9500,-268,-11384,-2254,-8937,-431,2025-02-17 10:27:27,0.0
-7440,-188,-12308,-3252,-13367,-2232,2025-02-17 10:27:27,0.0
-8404,-712,-10644,-2870,-18164,-3638,2025-02-17 10:27:27,0.0
-10264,-1136,-9672,-1414,-23850,-3958,2025-02-17 10:27:27,0.0
-11860,-744,-9112,-380,-30910,-3423,2025-02-17 10:27:27,0.0
-11932,-440,-9476,-740,-32768,-2926,2025-02-17 10:27:27,0.0
-11616,-648,-9528,-1739,-32768,-2816,2025-02-17 10:27:27,0.0
-11264,-1272,-8628,-2582,-32768,-2826,2025-02-17 10:27:27,0.0
-12232,-1348,-6524,-2948,-32768,-2516,2025-02-17 10:27:27,0.0
-12952,-1184,-4172,-2688,-32768,-1675,2025-02-17 10:27:27,0.0
-14916,-1200,6792,-2270,-32768,-551,2025-02-17 10:27:27,0.0
-17308,-3588,10376,-3461,-32768,48,2025-02-17 10:27:27,0.0
-8912,-756,11264,-6206,-32768,370,2025-02-17 10:27:27,0.0
-7364,-756,7152,-5816,-24305,1112,2025-02-17 10:27:27,0.0
-4608,-1492,5624,-3187,-4077,800,2025-02-17 10:27:27,0.0
-4748,-2620,8444,2024,12163,796,2025-02-17 10:27:27,0.0
-10184,-1936,10312,5151,25609,2463,2025-02-17 10:27:27,0.0
-12416,-1184,8044,6205,32767,4542,2025-02-17 10:27:27,0.0
-12828,-880,5664,5403,32767,5462,2025-02-17 10:27:27,0.0
-9888,-232,1584,4193,22420,5272,2025-02-17 10:27:27,0.0
-10388,8,-308,3346,8427,4574,2025-02-17 10:27:27,0.0
-13104,348,2940,3624,3514,4012,2025-02-17 10:27:27,0.0
-14120,212,4708,4670,8202,3291,2025-02-17 10:27:27,0.0
-12208,112,2768,4730,15628,2113,2025-02-17 10:27:27,0.0
-12164,772,-336,3626,15704,2050,2025-02-17 10:27:27,0.0
-14516,864,-364,1919,14979,3691,2025-02-17 10:27:27,0.0
-14792,808,524,809,19541,4883,2025-02-17 10:27:27,0.0
-14464,1512,-108,-1059,25133,3100,2025-02-17 10:27:27,0.0
-15208,2352,-288,-2101,30483,460,2025-02-17 10:27:27,0.0
-15680,2636,-2824,-2059,32767,-1583,2025-02-17 10:27:27,0.0
-14852,1848,-5048,-2682,30578,-2293,2025-02-17 10:27:27,0.0
-13940,1592,-4976,-3469,21041,-2643,2025-02-17 10:27:27,0.0
-14596,1720,-3700,-3159,13161,-3795,2025-02-17 10:27:27,0.0
-13868,1148,-4068,-2121,7379,-5086,2025-02-17 10:27:27,0.0
-14452,560,-4420,-895,1385,-5421,2025-02-17 10:27:27,0.0
-15760,-20,-4172,353,-3049,-4340,2025-02-17 10:27:27,0.0
-15368,-180,-4432,1059,-5420,-2816,2025-02-17 10:27:27,0.0
-13412,544,-5224,651,-5837,-1560,2025-02-17 10:27:27,0.0
-12088,844,-5072,-63,-4453,-1475,2025-02-17 10:27:27,0.0
-12192,556,-4584,-550,-2434,-1618,2025-02-17 10:27:27,0.0
-12664,-56,-3664,-999,283,-1281,2025-02-17 10:27:27,0.0
-13524,-108,-3096,-848,3185,-132,2025-02-17 10:27:27,0.0
-13104,240,-4324,-1143,5057,1081,2025-02-17 10:27:27,0.0
-12180,708,-4736,-1973,5682,958,2025-02-17 10:27:28,0.0
-11536,816,-4748,-2699,6281,-364,2025-02-17 10:27:28,0.0
-12356,688,-4028,-2776,6022,-1260,2025-02-17 10:27:28,0.0
-13476,100,-3372,-1350,4330,-974,2025-02-17 10:27:28,0.0
-13904,-44,-4996,-52,1837,-247,2025-02-17 10:27:28,0.0
-12856,940,-5276,144,-523,317,2025-02-17 10:27:28,0.0
-12244,2688,-5240,88,-1123,-62,2025-02-17 10:27:28,0.0
-11860,680,-4480,-245,259,-718,2025-02-17 10:27:28,0.0
-11220,964,-4816,301,796,-1005,2025-02-17 10:27:28,0.0
-10084,708,-3460,1418,1501,-1987,2025-02-17 10:27:28,0.0
-11604,988,-5756,2068,2534,-2414,2025-02-17 10:27:28,0.0
-13240,372,-6688,678,4136,-1219,2025-02-17 10:27:28,0.0
-13852,-324,-5232,-168,6112,770,2025-02-17 10:27:28,0.0
-12616,-88,-4888,714,5524,1510,2025-02-17 10:27:28,0.0
-11664,552,-6768,828,4513,595,2025-02-17 10:27:28,0.0
-12176,932,-7424,-53,2115,-608,2025-02-17 10:27:28,0.0
-12976,1260,-8000,-1302,-526,-1075,2025-02-17 10:27:28,0.0
-12580,920,-6220,-1705,-2009,-1095,2025-02-17 10:27:28,0.0
