acceleration_x,acceleration_y,acceleration_z,gyroscope_x,gyroscope_y,gyroscope_z,timestamp,label
-12516,-728,-5164,-191,214,-189,2025-02-17 10:16:54,0.0
-12340,-740,-5372,-220,119,-216,2025-02-17 10:16:54,0.0
-12396,-588,-5396,-210,170,-207,2025-02-17 10:16:54,0.0
-12356,-680,-5328,-266,304,-214,2025-02-17 10:16:54,0.0
-12360,-840,-5260,-289,234,-236,2025-02-17 10:16:54,0.0
-12528,-760,-5304,-267,164,-220,2025-02-17 10:16:54,0.0
-12304,-720,-5408,-245,72,-195,2025-02-17 10:16:54,0.0
-12448,-916,-5232,-231,-17,-194,2025-02-17 10:16:54,0.0
-12384,-824,-5296,-226,38,-201,2025-02-17 10:16:54,0.0
-12408,-804,-5280,-183,107,-172,2025-02-17 10:16:54,0.0
-12352,-788,-5428,-171,110,-182,2025-02-17 10:16:54,0.0
-12216,-864,-5264,-178,116,-168,2025-02-17 10:16:54,0.0
-12192,-852,-5276,-170,155,-183,2025-02-17 10:16:54,0.0
-12264,-872,-5144,-137,228,-198,2025-02-17 10:16:54,0.0
-12356,-876,-5272,-87,287,-208,2025-02-17 10:16:54,0.0
-12392,-800,-5260,-81,322,-196,2025-02-17 10:16:54,0.0
-12268,-772,-5372,-84,309,-194,2025-02-17 10:16:54,0.0
-12428,-744,-5380,-87,289,-174,2025-02-17 10:16:54,0.0
-12368,-752,-5428,-79,254,-172,2025-02-17 10:16:54,0.0
-12372,-720,-5292,-101,187,-192,2025-02-17 10:16:54,0.0
-12524,-912,-5268,-137,105,-193,2025-02-17 10:16:54,0.0
-12408,-772,-5204,-18,182,-106,2025-02-17 10:16:54,0.0
-12304,-700,-5328,-68,242,-168,2025-02-17 10:16:54,0.0
-12244,-760,-5192,-63,321,-186,2025-02-17 10:16:54,0.0
-12452,-664,-5236,-57,398,-155,2025-02-17 10:16:54,0.0
-12336,-760,-5368,-72,383,-137,2025-02-17 10:16:55,0.0
-12336,-780,-5244,-62,319,-169,2025-02-17 10:16:55,0.0
-12376,-744,-5508,-68,253,-193,2025-02-17 10:16:55,0.0
-12392,-612,-5480,-146,326,-170,2025-02-17 10:16:55,0.0
-12204,-744,-5404,-191,362,-226,2025-02-17 10:16:55,0.0
-12292,-792,-5276,-177,379,-219,2025-02-17 10:16:55,0.0
-12468,-808,-5276,-140,369,-216,2025-02-17 10:16:55,0.0
-12428,-776,-5348,-149,349,-157,2025-02-17 10:16:55,0.0
-12416,-792,-5380,-136,245,-178,2025-02-17 10:16:55,0.0
-12284,-832,-5124,-121,222,-156,2025-02-17 10:16:55,0.0
-12344,-768,-5376,-120,237,-185,2025-02-17 10:16:55,0.0
-12276,-656,-5428,-140,316,-170,2025-02-17 10:16:55,0.0
-12312,-736,-5400,-134,346,-191,2025-02-17 10:16:55,0.0
-12484,-732,-5332,-132,333,-172,2025-02-17 10:16:55,0.0
-12488,-772,-5424,-139,268,-184,2025-02-17 10:16:55,0.0
-12304,-824,-5420,-121,198,-177,2025-02-17 10:16:55,0.0
-12332,-844,-5356,-134,184,-166,2025-02-17 10:16:55,0.0
-12304,-772,-5240,-94,205,-150,2025-02-17 10:16:55,0.0
-12204,-684,-5432,-103,189,-182,2025-02-17 10:16:55,0.0
-12296,-792,-5560,-92,285,-176,2025-02-17 10:16:55,0.0
-12388,-736,-5532,-71,375,-177,2025-02-17 10:16:55,0.0
-12356,-720,-5264,-73,318,-153,2025-02-17 10:16:55,0.0
-12316,-768,-5304,-77,296,-154,2025-02-17 10:16:55,0.0
-12324,-788,-5384,-57,292,-162,2025-02-17 10:16:55,0.0
-12304,-684,-5356,-31,346,-173,2025-02-17 10:16:55,0.0
-12368,-728,-5568,-73,376,-232,2025-02-17 10:16:55,0.0
-12184,-796,-5500,-75,494,-299,2025-02-17 10:16:55,0.0
-12264,-804,-5508,-67,512,-256,2025-02-17 10:16:55,0.0
-12420,-800,-5320,-113,442,-246,2025-02-17 10:16:55,0.0
-12348,-780,-5200,-54,308,-224,2025-02-17 10:16:55,0.0
-12148,-732,-5580,8,314,-173,2025-02-17 10:16:55,0.0
-12024,-716,-5956,-41,423,-201,2025-02-17 10:16:55,0.0
-12256,-756,-5752,-116,438,-182,2025-02-17 10:16:55,0.0
-12364,-808,-5636,-106,386,-166,2025-02-17 10:16:55,0.0
-12284,-728,-5688,-24,267,-89,2025-02-17 10:16:55,0.0
-12268,-768,-5620,-77,238,-126,2025-02-17 10:16:55,0.0
-12288,-860,-5568,-53,267,-83,2025-02-17 10:16:55,0.0
-12336,-568,-5496,60,213,20,2025-02-17 10:16:55,0.0
-12372,-376,-5328,85,308,121,2025-02-17 10:16:55,0.0
-12256,-216,-5604,-43,442,234,2025-02-17 10:16:55,0.0
-12100,416,-6900,-389,769,313,2025-02-17 10:16:55,0.0
-12540,596,-7444,-1215,2028,616,2025-02-17 10:16:55,0.0
-12572,292,-5928,-1651,2409,512,2025-02-17 10:16:55,0.0
-12856,-332,-5484,-1616,1376,256,2025-02-17 10:16:55,0.0
-12564,-708,-5360,-1616,-992,-122,2025-02-17 10:16:55,0.0
-12516,-700,-5064,-1302,-2620,-363,2025-02-17 10:16:55,0.0
-12292,-80,-5100,-1205,-2054,-119,2025-02-17 10:16:55,0.0
-11420,416,-4068,-1241,-529,-260,2025-02-17 10:16:55,0.0
-11736,416,-3944,-1239,-148,-687,2025-02-17 10:16:55,0.0
-12284,132,-4388,-1277,-368,-996,2025-02-17 10:16:55,0.0
-12556,-4,-4772,-1200,-540,-1211,2025-02-17 10:16:55,0.0
-12636,188,-4932,-1132,-235,-1262,2025-02-17 10:16:55,0.0
-12496,452,-4604,-1166,212,-1311,2025-02-17 10:16:55,0.0
-12576,1092,-5052,-1262,284,-1467,2025-02-17 10:16:55,0.0
-12424,956,-5552,-1646,-263,-1854,2025-02-17 10:16:55,0.0
-12220,576,-5460,-2035,-703,-2145,2025-02-17 10:16:55,0.0
-11904,4,-5180,-2074,-681,-2437,2025-02-17 10:16:55,0.0
-11912,-164,-5276,-1861,-325,-2611,2025-02-17 10:16:55,0.0
-12200,-216,-5032,-1588,-130,-2689,2025-02-17 10:16:55,0.0
-12520,-668,-5432,-1452,-354,-2787,2025-02-17 10:16:55,0.0
-12260,-1508,-5332,-1267,-903,-2911,2025-02-17 10:16:55,0.0
-11832,-2864,-4940,-899,-1650,-2991,2025-02-17 10:16:56,0.0
-11564,-2992,-4400,76,-1772,-2504,2025-02-17 10:16:56,0.0
-11196,-2660,-4740,596,-468,-1784,2025-02-17 10:16:56,0.0
-11680,-2332,-3992,278,1593,-1723,2025-02-17 10:16:56,0.0
-12496,-1784,-3788,73,3064,-2078,2025-02-17 10:16:56,0.0
-14452,-1232,-4776,-317,2839,-2635,2025-02-17 10:16:56,0.0
-15624,-1240,-5104,-1097,500,-2755,2025-02-17 10:16:56,0.0
-15468,-1916,-3636,-1670,-2065,-2905,2025-02-17 10:16:56,0.0
-14296,-1564,-2708,-1741,-3466,-3086,2025-02-17 10:16:56,0.0
-13176,-1128,-2616,-1827,-3911,-3468,2025-02-17 10:16:56,0.0
-11820,-1284,-3592,-2270,-3615,-4103,2025-02-17 10:16:56,0.0
-11096,-2236,-3664,-2733,-1911,-4693,2025-02-17 10:16:56,0.0
-11276,-3408,-2948,-2739,-1,-4863,2025-02-17 10:16:56,0.0
-11752,-4136,-2360,-2287,1046,-4741,2025-02-17 10:16:56,
-12424,-4312,-2824,-1863,1193,-4245,2025-02-17 10:16:56,0.0
-13224,-3988,-2780,-1495,738,-3585,2025-02-17 10:16:56,0.0
-13540,-3340,-2588,-1108,-154,-2783,2025-02-17 10:16:56,0.0
-13124,-2896,-2588,-857,-1015,-2236,2025-02-17 10:16:56,0.0
-12968,-2696,-2300,-649,-1679,-2056,2025-02-17 10:16:56,0.0
-12960,-2460,-2664,-478,-2000,-1881,2025-02-17 10:16:56,0.0
-12836,-2408,-2368,-493,-1828,-1558,2025-02-17 10:16:56,0.0
-12448,-2660,-2152,-551,-1483,-1385,2025-02-17 10:16:56,0.0
-12196,-2828,-2548,-586,-1172,-1179,2025-02-17 10:16:56,0.0
-12152,-2864,-2568,-713,-753,-887,2025-02-17 10:16:56,0.0
-12052,-2548,-2868,-1252,347,-608,2025-02-17 10:16:56,0.0
-12312,-2192,-2712,-1955,1521,-676,2025-02-17 10:16:56,0.0
-13308,-2440,-2012,-2420,1668,-661,2025-02-17 10:16:56,0.0
-13904,-2904,-1808,-2608,728,-595,2025-02-17 10:16:56,0.0
-13712,-3228,-2048,-2522,-481,-530,2025-02-17 10:16:56,0.0
-12156,-3392,-2864,-2269,-1542,-768,2025-02-17 10:16:56,0.0
-12248,-4032,-2728,-2307,-1449,-1115,2025-02-17 10:16:56,0.0
-12156,-4528,-3256,-2340,754,-1324,2025-02-17 10:16:56,0.0
-13252,-4524,-3520,-2737,4039,-1214,2025-02-17 10:16:56,0.0
-14620,-3900,-3220,-3146,6061,-1257,2025-02-17 10:16:56,0.0
-16348,-3436,-2900,-3482,5323,-1399,2025-02-17 10:16:56,0.0
-16900,-3872,-2952,-3668,3171,-1266,2025-02-17 10:16:56,0.0
-16856,-4960,-3804,-3398,769,-1336,2025-02-17 10:16:56,0.0
-16660,-5540,-3896,-2363,-518,-1561,2025-02-17 10:16:56,0.0
-16560,-6164,-3904,-1020,-1517,-1703,2025-02-17 10:16:56,0.0
-16896,-6264,-3268,321,-3319,-842,2025-02-17 10:16:56,0.0
-16172,-4868,-3224,1536,-4982,1035,2025-02-17 10:16:56,0.0
-14244,-3900,-4868,1464,-4943,1806,2025-02-17 10:16:56,0.0
-13472,-3296,-6364,675,-3962,2617,2025-02-17 10:16:56,0.0
-11836,-3556,-6732,310,-3605,3489,2025-02-17 10:16:56,0.0
-9904,-3644,-6660,902,-3263,3595,2025-02-17 10:16:56,0.0
-9036,-3172,-6832,1315,-1893,3231,2025-02-17 10:16:56,0.0
-8896,-1556,-6572,1394,232,2701,2025-02-17 10:16:56,0.0
-9532,860,-6284,1074,1842,2135,2025-02-17 10:16:56,0.0
-10984,1820,-6344,102,3306,1694,2025-02-17 10:16:56,0.0
-13308,1160,-6144,-629,4288,2171,2025-02-17 10:16:56,0.0
-14284,-488,-6440,-662,3228,3654,2025-02-17 10:16:56,0.0
-13092,-1272,-6880,-819,781,3789,2025-02-17 10:16:56,0.0
-13172,-1948,-6028,-697,-2084,3165,2025-02-17 10:16:56,0.0
-13240,-2380,-5840,-358,-3207,3114,2025-02-17 10:16:56,0.0
-12852,-2612,-5396,-160,-3364,3477,2025-02-17 10:16:56,0.0
-12324,-2252,-4356,185,-3614,4036,2025-02-17 10:16:56,0.0
-11884,-1488,-3912,566,-4248,4495,2025-02-17 10:16:56,0.0
-10868,-272,-3952,600,-4583,4719,2025-02-17 10:16:56,0.0
-10156,524,-3876,480,-4068,4314,2025-02-17 10:16:56,0.0
-9728,760,-3176,412,-2304,3506,2025-02-17 10:16:56,0.0
-10012,1056,-3120,570,-748,2784,2025-02-17 10:16:56,0.0
-10456,804,-3368,430,715,2222,2025-02-17 10:16:57,0.0
-10984,368,-2992,338,1410,1827,2025-02-17 10:16:57,0.0
-11204,8,-2684,528,1669,1565,2025-02-17 10:16:57,0.0
-11440,-236,-2516,758,1669,1296,2025-02-17 10:16:57,0.0
-11308,-76,-2248,872,1364,943,2025-02-17 10:16:57,0.0
-11460,328,-2048,958,827,417,2025-02-17 10:16:57,0.0
-11696,540,-2012,1001,839,100,2025-02-17 10:16:57,0.0
-12476,608,-2128,983,974,-192,2025-02-17 10:16:57,0.0
-13116,616,-1844,969,498,-372,2025-02-17 10:16:57,0.0
-13556,292,-1648,954,-670,-604,2025-02-17 10:16:57,0.0
-13932,284,-2032,993,-2251,-756,2025-02-17 10:16:57,0.0
-13628,172,-2444,1347,-3921,-681,2025-02-17 10:16:57,0.0
-13044,92,-3200,1616,-4680,-333,2025-02-17 10:16:57,0.0
-12040,-20,-4044,1460,-3643,-84,2025-02-17 10:16:57,0.0
-12236,-184,-4432,1133,-1004,210,2025-02-17 10:16:57,0.0
-13044,-176,-3348,975,2592,580,2025-02-17 10:16:57,0.0
-15540,-116,-1968,1129,5645,1283,2025-02-17 10:16:57,0.0
-17612,-1168,-296,2065,6332,1593,2025-02-17 10:16:57,0.0
-19816,-800,-176,3578,3013,2174,2025-02-17 10:16:57,0.0
-19380,112,-2944,4461,-522,2993,2025-02-17 10:16:57,0.0
-17212,624,-5392,4115,-2621,2840,2025-02-17 10:16:57,0.0
-15700,2036,-6544,3459,-3371,2362,2025-02-17 10:16:57,0.0
-13868,3212,-6960,2045,-3019,1415,2025-02-17 10:16:57,0.0
-13088,3272,-6644,563,-1491,206,2025-02-17 10:16:57,0.0
-13416,3344,-7912,-542,355,-344,2025-02-17 10:16:57,0.0
-12608,2432,-6924,-1405,1535,-369,2025-02-17 10:16:57,0.0
-10720,1544,-5328,-1124,686,-969,2025-02-17 10:16:57,0.0
-10204,-1396,-5168,-907,-1427,-1675,2025-02-17 10:16:57,0.0
-9944,-3584,-4564,-329,498,-2177,2025-02-17 10:16:57,0.0
-11048,-4824,-4980,337,3106,-2909,2025-02-17 10:16:57,0.0
-12956,-4564,-6480,884,3857,-2954,2025-02-17 10:16:57,0.0
-14224,-3116,-7244,1103,2507,-2095,2025-02-17 10:16:57,0.0
-14044,-1304,-5336,1467,209,-1230,2025-02-17 10:16:57,0.0
-13432,232,-3924,1678,-1496,-1176,2025-02-17 10:16:57,0.0
-11620,1384,-4344,1178,-2415,-1928,2025-02-17 10:16:57,0.0
-10388,1264,-5124,572,-3177,-3085,2025-02-17 10:16:57,0.0
-10128,728,-4996,155,-3381,-3807,2025-02-17 10:16:57,0.0
-9900,-344,-5272,-410,-3293,-4344,2025-02-17 10:16:57,0.0
-9728,-1868,-4400,-1081,-2561,-4452,2025-02-17 10:16:57,0.0
-10568,-2904,-2652,-1214,-793,-4170,2025-02-17 10:16:57,0.0
-11064,-3412,-2260,-897,1040,-3372,2025-02-17 10:16:57,0.0
-11684,-3212,-2712,-557,2193,-2489,2025-02-17 10:16:57,0.0
-11904,-2796,-3440,-635,1975,-1760,2025-02-17 10:16:57,0.0
-11692,-2800,-3140,-637,1553,-1595,2025-02-17 10:16:57,0.0
-11952,-3064,-3124,-301,1242,-1465,2025-02-17 10:16:57,0.0
-12904,-3128,-3324,-160,1101,-892,2025-02-17 10:16:57,0.0
-12964,-3012,-3856,-47,987,-220,2025-02-17 10:16:57,0.0
-12876,-2228,-2908,57,964,315,2025-02-17 10:16:57,0.0
-12816,-1924,-2472,-6,342,675,2025-02-17 10:16:57,0.0
-12460,-1836,-1916,53,-186,971,2025-02-17 10:16:57,0.0
-11848,-1632,-2228,-5,-369,1208,2025-02-17 10:16:57,0.0
-11940,-1724,-2832,-293,428,1423,2025-02-17 10:16:57,0.0
-11620,-1900,-3108,-545,1476,1254,2025-02-17 10:16:57,
-11940,-2064,-3580,-969,2120,620,2025-02-17 10:16:57,0.0
-12560,-1644,-3496,-1384,2319,-86,2025-02-17 10:16:57,0.0
-13500,-996,-3484,-1778,2140,-282,2025-02-17 10:16:57,0.0
-13880,-816,-3676,-2230,1507,-407,2025-02-17 10:16:57,0.0
-14176,-948,-4136,-2643,1270,-665,2025-02-17 10:16:57,0.0
-14516,-1400,-4268,-3166,1080,-1184,2025-02-17 10:16:57,0.0
-15424,-1568,-3860,-3655,477,-2104,2025-02-17 10:16:57,0.0
-16932,-900,-2560,-4177,-1470,-2645,2025-02-17 10:16:57,0.0
-17008,-312,-1736,-4527,-3722,-2450,2025-02-17 10:16:58,0.0
-15008,-1936,-1912,-4910,-5646,-1899,2025-02-17 10:16:58,0.0
-13232,-4456,-2264,-4947,-5907,-2264,2025-02-17 10:16:58,0.0
-14148,-5132,-3128,-4367,-3160,-2383,2025-02-17 10:16:58,0.0
-14976,-5592,-2888,-3399,915,-2316,2025-02-17 10:16:58,0.0
-15728,-6188,-3088,-2135,1954,-2475,2025-02-17 10:16:58,0.0
-17048,-6336,-4016,-604,707,-1316,2025-02-17 10:16:58,0.0
-16516,-4992,-5832,890,-3353,1725,2025-02-17 10:16:58,0.0
-13424,-4204,-6452,892,-5151,2391,2025-02-17 10:16:58,0.0
-11272,-3344,-5456,562,-5895,2525,2025-02-17 10:16:58,0.0
-9440,-2352,-4304,622,-5451,2616,2025-02-17 10:16:58,0.0
-8412,-592,-3892,581,-3405,2540,2025-02-17 10:16:58,0.0
-8648,1220,-4388,131,914,2141,2025-02-17 10:16:58,0.0
-10512,2376,-5548,-627,6408,1245,2025-02-17 10:16:58,0.0
-13192,2236,-5808,-1389,9737,521,2025-02-17 10:16:58,0.0
-15484,548,-5840,-1615,9569,557,2025-02-17 10:16:58,0.0
-16572,-1324,-5176,-1286,5191,1301,2025-02-17 10:16:58,0.0
-16056,-2824,-4080,-224,-1251,1946,2025-02-17 10:16:58,0.0
-14896,-3592,-4392,453,-3678,2497,2025-02-17 10:16:58,0.0
-12908,-3604,-4016,869,-3944,2951,2025-02-17 10:16:58,0.0
-11536,-2868,-3760,1395,-4487,3377,2025-02-17 10:16:58,0.0
-10348,-1832,-3060,2026,-4426,3926,2025-02-17 10:16:58,0.0
-9512,-444,-3040,2241,-3120,4071,2025-02-17 10:16:58,0.0
-9236,944,-2940,2108,-687,3725,2025-02-17 10:16:58,0.0
-9964,1636,-2452,2164,1420,3163,2025-02-17 10:16:58,0.0
-10340,1372,-3048,2220,2643,2544,2025-02-17 10:16:58,0.0
-11100,1112,-3224,2050,2764,2001,2025-02-17 10:16:58,0.0
-11704,952,-3092,1797,2131,1386,2025-02-17 10:16:58,0.0
-12376,1084,-3020,1469,1292,889,2025-02-17 10:16:58,0.0
-12852,1408,-2848,1225,402,530,2025-02-17 10:16:58,0.0
-12580,1452,-3436,1062,-803,195,2025-02-17 10:16:58,0.0
-12264,960,-3572,720,-1772,-88,2025-02-17 10:16:58,0.0
-12028,136,-2116,504,467,-424,2025-02-17 10:16:58,0.0
-12256,496,-2436,522,1301,-456,2025-02-17 10:16:58,0.0
-13148,580,-2236,818,1605,-512,2025-02-17 10:16:58,0.0
-13748,668,-2112,1159,1591,-436,2025-02-17 10:16:58,0.0
-14052,364,-2148,1378,813,-309,2025-02-17 10:16:58,0.0
-14024,-180,-2852,1716,-52,-145,2025-02-17 10:16:58,0.0
-13740,-452,-3972,1881,90,88,2025-02-17 10:16:58,0.0
-13296,-104,-3468,1981,809,-179,2025-02-17 10:16:58,0.0
-14152,-16,-2664,1924,1612,-443,2025-02-17 10:16:58,0.0
-15688,-296,-832,2434,1403,-5,2025-02-17 10:16:58,0.0
-15804,-216,-1552,3302,598,936,2025-02-17 10:16:58,0.0
-15884,72,-3344,3731,793,1674,2025-02-17 10:16:58,0.0
-16164,280,-4372,3465,1334,1851,2025-02-17 10:16:58,0.0
-16364,888,-5108,3166,1254,2089,2025-02-17 10:16:58,0.0
-15932,1176,-4724,2490,612,1679,2025-02-17 10:16:58,0.0
-15808,2268,-4416,2318,-538,806,2025-02-17 10:16:58,0.0
-14968,2160,-6316,2196,-1782,173,2025-02-17 10:16:58,0.0
-13512,1460,-6764,1246,-2372,-488,2025-02-17 10:16:58,0.0
-11760,448,-5048,1193,-2135,-874,2025-02-17 10:16:58,0.0
-9980,-132,-4752,1665,-2246,-1189,2025-02-17 10:16:58,0.0
-9388,-1456,-4912,1456,-1654,-1720,2025-02-17 10:16:58,0.0
-9988,-2844,-4316,1217,232,-1866,2025-02-17 10:16:58,0.0
-11164,-3372,-4712,1217,2579,-1483,2025-02-17 10:16:58,0.0
-12808,-2448,-5660,1310,4294,-502,2025-02-17 10:16:58,0.0
-13232,-1064,-5564,1283,4783,67,2025-02-17 10:16:58,0.0
-13496,140,-5428,1350,3952,-175,2025-02-17 10:16:58,0.0
-13268,584,-5256,916,642,-1540,2025-02-17 10:16:58,0.0
-13444,296,-4976,611,-1955,-2534,2025-02-17 10:16:58,0.0
-12436,-236,-5256,330,-3462,-2801,2025-02-17 10:16:59,0.0
-11072,-568,-5344,-93,-4282,-3024,2025-02-17 10:16:59,0.0
-10292,-820,-4724,-663,-4029,-3161,2025-02-17 10:16:59,0.0
-10132,-1180,-3888,-1206,-2186,-3224,2025-02-17 10:16:59,0.0
-10696,-1800,-3132,-1716,321,-3098,2025-02-17 10:16:59,0.0
-11104,-2860,-2384,-1853,1837,-2957,2025-02-17 10:16:59,0.0
-12136,-3512,-2056,-1441,2551,-2835,2025-02-17 10:16:59,0.0
-13260,-3236,-2580,-784,2201,-2246,2025-02-17 10:16:59,0.0
-13944,-2852,-3512,-842,1443,-1325,2025-02-17 10:16:59,0.0
-13200,-2240,-2664,-791,405,-768,2025-02-17 10:16:59,0.0
-13132,-2132,-3336,-808,122,-508,2025-02-17 10:16:59,0.0
-12872,-2088,-3612,-872,0,-140,2025-02-17 10:16:59,0.0
-12904,-1932,-3548,-961,-114,57,2025-02-17 10:16:59,0.0
-12580,-1472,-2964,-1011,56,17,2025-02-17 10:16:59,0.0
-12424,-956,-2868,-1259,104,-145,2025-02-17 10:16:59,0.0
-12712,-744,-2384,-1714,415,-385,2025-02-17 10:16:59,0.0
-12824,-1128,-2444,-2193,547,-527,2025-02-17 10:16:59,0.0
-13184,-1316,-2660,-2474,403,-503,2025-02-17 10:16:59,0.0
-13000,-1484,-2712,-2779,-370,-369,2025-02-17 10:16:59,0.0
-12304,-1228,-3080,-3111,-789,-376,2025-02-17 10:16:59,0.0
-12084,-940,-3384,-3513,-489,-654,2025-02-17 10:16:59,0.0
-12068,-1172,-4072,-3998,404,-901,2025-02-17 10:16:59,0.0
-12148,-1624,-3784,-4257,1595,-1259,2025-02-17 10:16:59,0.0
-12660,-1620,-3740,-4530,2118,-1839,2025-02-17 10:16:59,0.0
-13236,-1904,-3144,-4786,2005,-2277,2025-02-17 10:16:59,0.0
-14096,-2572,-2900,-4888,1183,-2699,2025-02-17 10:16:59,0.0
-14356,-3292,-2556,-4865,319,-2691,2025-02-17 10:16:59,0.0
-14088,-4048,-2284,-4592,-776,-2331,2025-02-17 10:16:59,0.0
-13576,-3960,-2992,-4305,-644,-2201,2025-02-17 10:16:59,0.0
-13364,-3392,-3384,-3981,-27,-2428,2025-02-17 10:16:59,0.0
-14500,-3184,-3636,-3645,133,-2529,2025-02-17 10:16:59,0.0
-15464,-3496,-3416,-3402,155,-1874,2025-02-17 10:16:59,
-15836,-3376,-4144,-2929,345,-907,2025-02-17 10:16:59,0.0
-15268,-3112,-6148,-2573,396,-406,2025-02-17 10:16:59,0.0
-14924,-3132,-6448,-2375,-689,45,2025-02-17 10:16:59,0.0
-14116,-2732,-5644,-2099,-2026,381,2025-02-17 10:16:59,0.0
-13104,-1368,-4904,-1825,-2879,785,2025-02-17 10:16:59,0.0
-11592,-668,-4332,-2012,-2773,932,2025-02-17 10:16:59,0.0
-10712,-220,-4556,-2118,-1752,873,2025-02-17 10:16:59,0.0
-10572,376,-4476,-2152,107,1026,2025-02-17 10:16:59,0.0
-10784,588,-3356,-1933,2593,1045,2025-02-17 10:16:59,0.0
-13004,-16,-4416,-1469,6052,688,2025-02-17 10:16:59,0.0
-14556,-912,-4484,-1542,5464,868,2025-02-17 10:16:59,0.0
-14964,-1340,-3896,-1468,3670,1354,2025-02-17 10:16:59,0.0
-14924,-576,-2564,-1186,969,1610,2025-02-17 10:16:59,0.0
-13032,560,-3632,-1260,-1753,1382,2025-02-17 10:16:59,0.0
-11220,1184,-4400,-1311,-1933,1189,2025-02-17 10:16:59,0.0
-10084,1432,-4276,-1362,-1233,590,2025-02-17 10:16:59,0.0
-10016,1660,-4684,-1523,889,120,2025-02-17 10:16:59,0.0
-10720,1308,-4476,-2022,3348,-72,2025-02-17 10:16:59,0.0
-12008,672,-4324,-2224,4567,-129,2025-02-17 10:16:59,0.0
-13336,180,-4676,-2347,4728,-96,2025-02-17 10:16:59,0.0
-13740,-404,-4392,-2445,3053,-443,2025-02-17 10:16:59,0.0
-14128,-872,-4140,-1976,435,-632,2025-02-17 10:16:59,0.0
-13896,-968,-4036,-1378,-2204,-597,2025-02-17 10:16:59,0.0
-13272,-516,-4384,-1187,-3058,-357,2025-02-17 10:16:59,0.0
-12088,-1104,-4456,-1365,-2628,-599,2025-02-17 10:16:59,0.0
-11708,-1180,-4148,-1320,-1710,-955,2025-02-17 10:16:59,0.0
-11344,-1304,-4220,-1426,-1215,-1377,2025-02-17 10:16:59,0.0
-12440,-140,-3480,-1624,953,-1592,2025-02-17 10:17:00,0.0
-12748,336,1520,-7145,10533,-1162,2025-02-17 10:17:00,0.0
-10288,-944,6392,-5343,32004,-1148,2025-02-17 10:17:00,0.0
-4864,-1032,2896,-4146,32767,-740,2025-02-17 10:17:00,0.0
-876,-508,1440,-3906,32767,-242,2025-02-17 10:17:00,0.0
2192,-476,1620,-4717,32767,-655,2025-02-17 10:17:00,0.0
-1080,-740,2236,-4562,32767,-1151,2025-02-17 10:17:00,0.0
604,-568,2324,-4198,32767,-1342,2025-02-17 10:17:00,0.0
2432,-364,2844,-3868,32767,-1419,2025-02-17 10:17:00,0.0
2364,-248,2412,-3481,32767,-1205,2025-02-17 10:17:00,0.0
2176,-212,2388,-3140,32767,-862,2025-02-17 10:17:00,0.0
2188,-212,2632,-2691,32767,-431,2025-02-17 10:17:00,0.0
2436,-296,2352,-2234,32767,-44,2025-02-17 10:17:00,0.0
2244,-316,2832,-1853,32767,341,2025-02-17 10:17:00,0.0
2460,-412,2304,-1634,32767,699,2025-02-17 10:17:00,0.0
2732,-668,2184,-1829,32767,838,2025-02-17 10:17:00,0.0
3292,-780,1820,-2300,32767,297,2025-02-17 10:17:00,0.0
3208,-336,2532,-2142,32767,-807,2025-02-17 10:17:00,0.0
3316,-412,2108,-2045,32767,-1669,2025-02-17 10:17:00,0.0
3324,-260,2224,-1802,32767,-2347,2025-02-17 10:17:00,0.0
3304,-240,2176,-1430,32767,-2967,2025-02-17 10:17:00,0.0
3496,-164,2620,-617,32767,-3883,2025-02-17 10:17:00,0.0
3436,-184,2404,180,32767,-4489,2025-02-17 10:17:00,0.0
3300,-160,2344,807,32767,-4930,2025-02-17 10:17:00,0.0
3352,-280,2164,1293,32767,-5200,2025-02-17 10:17:00,0.0
3512,-132,2116,1681,32767,-5403,2025-02-17 10:17:00,0.0
4140,820,2488,2569,32516,-6359,2025-02-17 10:17:00,0.0
32767,-6696,-31320,-24633,19347,-32768,2025-02-17 10:17:00,0.0
32767,-32768,32767,-32768,-32768,30688,2025-02-17 10:17:00,0.0
32767,22456,-13740,-24658,-32768,2899,2025-02-17 10:17:00,0.0
26664,-908,-5916,-19178,-32768,-21957,2025-02-17 10:17:00,0.0
2676,-1076,5348,-17554,-32768,-22232,2025-02-17 10:17:00,0.0
4064,288,6184,-13765,-32768,-24486,2025-02-17 10:17:00,0.0
2028,-20,6804,-10694,-32768,-26354,2025-02-17 10:17:00,0.0
60,548,6572,-6682,-32768,-25078,2025-02-17 10:17:00,0.0
-1688,1908,6156,-1296,-32768,-21930,2025-02-17 10:17:00,0.0
-7472,4768,-712,4932,-29866,-15221,2025-02-17 10:17:00,0.0
-14592,7516,-11328,5113,-9493,-7015,2025-02-17 10:17:00,0.0
-18136,9948,-19668,643,17275,3034,2025-02-17 10:17:00,0.0
-10912,8648,-16572,-3427,32767,9607,2025-02-17 10:17:00,0.0
-1524,8220,-11016,-2681,32767,9599,2025-02-17 10:17:00,0.0
4680,9388,-9872,2161,32767,8664,2025-02-17 10:17:00,0.0
9604,8404,-13620,4864,32767,8759,2025-02-17 10:17:00,0.0
12812,7052,-15216,3937,17924,8882,2025-02-17 10:17:00,0.0
11772,6540,-13592,-27,5303,9186,2025-02-17 10:17:00,0.0
12160,6524,-9012,-1313,1069,8674,2025-02-17 10:17:00,0.0
13328,6232,-8100,460,-131,6757,2025-02-17 10:17:00,0.0
14896,6016,-10608,1648,1439,3919,2025-02-17 10:17:00,0.0
15124,5664,-13544,1305,1578,1212,2025-02-17 10:17:00,0.0
12956,5060,-14448,-44,-873,-448,2025-02-17 10:17:00,0.0
9276,5816,-12260,-1240,-2182,-407,2025-02-17 10:17:00,0.0
8712,6684,-10648,-570,-1011,-369,2025-02-17 10:17:00,0.0
8404,6980,-11488,180,380,-140,2025-02-17 10:17:00,0.0
9940,5920,-12552,95,627,-60,2025-02-17 10:17:00,0.0
9904,5980,-12164,-294,263,-164,2025-02-17 10:17:00,0.0
9664,6188,-11260,-202,285,-208,2025-02-17 10:17:00,0.0
9756,6340,-11620,-59,160,-178,2025-02-17 10:17:00,0.0
9512,6172,-12228,-112,19,-140,2025-02-17 10:17:00,0.0
9428,6364,-12120,-189,227,-170,2025-02-17 10:17:01,0.0
9704,6216,-11704,-156,396,-145,2025-02-17 10:17:01,0.0
9644,6300,-11692,-152,123,-146,2025-02-17 10:17:01,0.0
9684,6124,-11756,-90,34,-198,2025-02-17 10:17:01,0.0
9660,6108,-11804,-219,153,-213,2025-02-17 10:17:01,0.0
9584,6272,-11988,-174,191,-173,2025-02-17 10:17:01,0.0
9644,6192,-11772,-139,284,-129,2025-02-17 10:17:01,0.0
9692,6208,-12008,-149,166,-164,2025-02-17 10:17:01,0.0
9748,6276,-11736,-188,145,-209,2025-02-17 10:17:01,0.0
9516,6204,-11860,-126,93,-167,2025-02-17 10:17:01,0.0
9628,6208,-11832,-167,193,-189,2025-02-17 10:17:01,0.0
9796,6324,-11756,-124,255,-167,2025-02-17 10:17:01,0.0
9840,6124,-11640,-102,208,-202,2025-02-17 10:17:01,0.0
9768,6272,-11824,-184,175,-193,2025-02-17 10:17:01,0.0
9608,6336,-12048,-160,136,-182,2025-02-17 10:17:01,
9512,6212,-11760,-123,124,-173,2025-02-17 10:17:01,0.0
9656,6124,-11864,-162,269,-211,2025-02-17 10:17:01,0.0
9684,6284,-11924,-145,210,-172,2025-02-17 10:17:01,0.0
9540,6168,-11844,-175,128,-179,2025-02-17 10:17:01,0.0
9604,6216,-11872,-150,159,-178,2025-02-17 10:17:01,0.0
9632,6264,-11900,-164,243,-173,2025-02-17 10:17:01,0.0
9572,6220,-11768,-173,152,-175,2025-02-17 10:17:01,0.0
9704,6372,-11812,-151,147,-171,2025-02-17 10:17:01,0.0
9688,6292,-11784,-176,178,-165,2025-02-17 10:17:01,0.0
9668,6284,-11848,-156,185,-181,2025-02-17 10:17:01,0.0
9620,6208,-11752,-156,157,-180,2025-02-17 10:17:01,0.0
9644,6308,-11796,-161,181,-178,2025-02-17 10:17:01,0.0
9624,6248,-11992,-171,184,-182,2025-02-17 10:17:01,0.0
9608,6364,-11812,-153,150,-172,2025-02-17 10:17:01,0.0
9648,6172,-11924,-146,182,-177,2025-02-17 10:17:01,0.0
9692,6420,-11820,-189,218,-175,2025-02-17 10:17:01,0.0
9672,6148,-11780,-128,160,-187,2025-02-17 10:17:01,0.0
9664,6188,-11888,-179,155,-190,2025-02-17 10:17:01,0.0
9532,6204,-11776,-184,139,-175,2025-02-17 10:17:01,0.0
9644,6296,-11976,-136,175,-189,2025-02-17 10:17:01,0.0
9596,6212,-11808,-156,185,-183,2025-02-17 10:17:01,0.0
9644,6244,-11676,-170,149,-165,2025-02-17 10:17:01,0.0
9580,6180,-11960,-170,157,-163,2025-02-17 10:17:01,0.0
9600,6208,-11936,-158,170,-180,2025-02-17 10:17:01,0.0
9580,6216,-11940,-172,177,-152,2025-02-17 10:17:01,0.0
9668,6224,-12004,-158,173,-178,2025-02-17 10:17:01,0.0
9628,6092,-11856,-152,191,-171,2025-02-17 10:17:01,0.0
9696,6232,-12004,-132,142,-187,2025-02-17 10:17:01,0.0
9648,6212,-11856,-181,162,-178,2025-02-17 10:17:01,0.0
9672,6240,-11784,-181,186,-168,2025-02-17 10:17:01,0.0
9696,6264,-11740,-176,173,-181,2025-02-17 10:17:01,0.0
9672,6332,-11792,-161,168,-176,2025-02-17 10:17:01,0.0
9592,6268,-11852,-141,172,-179,2025-02-17 10:17:01,0.0
9612,6196,-11792,-177,168,-177,2025-02-17 10:17:01,0.0
9652,6260,-11836,-170,174,-179,2025-02-17 10:17:01,0.0
9588,6268,-11904,-150,176,-172,2025-02-17 10:17:01,0.0
9640,6184,-11904,-151,170,-174,2025-02-17 10:17:01,0.0
9704,6204,-11728,-166,168,-180,2025-02-17 10:17:01,0.0
9664,6236,-11924,-186,154,-174,2025-02-17 10:17:01,0.0
9668,6240,-11808,-175,168,-155,2025-02-17 10:17:01,0.0
9716,6256,-11852,-167,150,-187,2025-02-17 10:17:01,0.0
9584,6264,-11892,-160,169,-172,2025-02-17 10:17:01,0.0
9540,6208,-11904,-130,163,-195,2025-02-17 10:17:01,0.0
9648,6220,-11912,-134,163,-200,2025-02-17 10:17:01,0.0
9612,6276,-11752,-159,173,-178,2025-02-17 10:17:01,0.0
9712,6188,-11836,-170,173,-162,2025-02-17 10:17:01,0.0
9612,6200,-11816,-152,178,-178,2025-02-17 10:17:01,0.0
9668,6204,-11964,-165,172,-182,2025-02-17 10:17:01,0.0
9588,6160,-11908,-185,156,-177,2025-02-17 10:17:01,0.0
9656,6152,-11932,-144,147,-178,2025-02-17 10:17:02,0.0
9560,6188,-11856,-169,174,-157,2025-02-17 10:17:02,0.0
9660,6244,-11868,-160,162,-174,2025-02-17 10:17:02,0.0
9568,6304,-12000,-163,166,-172,2025-02-17 10:17:02,0.0
9676,6188,-11948,-160,155,-203,2025-02-17 10:17:02,0.0
9640,6244,-11864,-154,169,-185,2025-02-17 10:17:02,0.0
9516,6176,-11776,-182,190,-166,2025-02-17 10:17:02,0.0
9676,6276,-11932,-177,157,-185,2025-02-17 10:17:02,0.0
9596,6216,-11800,-156,193,-177,2025-02-17 10:17:02,0.0
9636,6212,-11860,-150,166,-173,2025-02-17 10:17:02,0.0
9640,6184,-11844,-172,177,-183,2025-02-17 10:17:02,0.0
9676,6312,-11940,-159,170,-187,2025-02-17 10:17:02,0.0
9688,6240,-11740,-144,188,-175,2025-02-17 10:17:02,0.0
9544,6212,-11884,-160,163,-152,2025-02-17 10:17:02,0.0
9624,6312,-11740,-157,180,-167,2025-02-17 10:17:02,0.0
9656,6284,-11788,-156,158,-157,2025-02-17 10:17:02,0.0
9600,6172,-11724,-141,182,-172,2025-02-17 10:17:02,0.0
9660,6208,-11948,-161,180,-180,2025-02-17 10:17:02,0.0
9600,6284,-11896,-162,174,-167,2025-02-17 10:17:02,0.0
9700,6228,-11928,-156,198,-178,2025-02-17 10:17:02,0.0
9520,6220,-11872,-158,173,-171,2025-02-17 10:17:02,0.0
9660,6200,-11912,-143,173,-173,2025-02-17 10:17:02,0.0
9576,6188,-11764,-154,166,-192,2025-02-17 10:17:02,0.0
9756,6240,-11872,-172,163,-178,2025-02-17 10:17:02,0.0
9636,6188,-11704,-171,181,-184,2025-02-17 10:17:02,0.0
9556,6188,-11800,-163,182,-171,2025-02-17 10:17:02,0.0
9636,6192,-11832,-160,171,-173,2025-02-17 10:17:02,0.0
9612,6220,-11944,-146,178,-165,2025-02-17 10:17:02,0.0
9612,6200,-11760,-163,182,-171,2025-02-17 10:17:02,0.0
9764,6236,-11876,-143,165,-185,2025-02-17 10:17:02,0.0
9664,6212,-11780,-164,175,-167,2025-02-17 10:17:02,0.0
9732,6252,-11808,-138,181,-177,2025-02-17 10:17:02,0.0
9712,6112,-12032,-165,155,-169,2025-02-17 10:17:02,0.0
9800,6168,-11792,-165,181,-177,2025-02-17 10:17:02,0.0
9660,6284,-11952,-160,176,-186,2025-02-17 10:17:02,0.0
9604,6204,-11832,-156,167,-177,2025-02-17 10:17:02,0.0
9616,6244,-11900,-173,161,-188,2025-02-17 10:17:02,0.0
9720,6276,-11896,-169,146,-179,2025-02-17 10:17:02,0.0
9752,6184,-11676,-169,159,-175,2025-02-17 10:17:02,0.0
9564,6272,-11672,-165,171,-178,2025-02-17 10:17:02,0.0
9632,6252,-11796,-150,156,-182,2025-02-17 10:17:03,0.0
9652,6144,-11968,-135,187,-190,2025-02-17 10:17:03,0.0
9644,6256,-11948,-171,176,-199,2025-02-17 10:17:03,0.0
9892,6312,-11868,-136,138,-180,2025-02-17 10:17:03,0.0
9744,6240,-11960,-155,186,-185,2025-02-17 10:17:03,0.0
9804,6288,-11872,-144,185,-177,2025-02-17 10:17:03,0.0
9600,6232,-11856,-153,162,-170,2025-02-17 10:17:03,0.0
9760,6160,-11848,-148,179,-192,2025-02-17 10:17:03,0.0
9576,6228,-11636,-163,199,-177,2025-02-17 10:17:03,0.0
9624,6232,-11932,-167,166,-178,2025-02-17 10:17:03,0.0
9692,6200,-11924,-163,155,-170,2025-02-17 10:17:03,
9636,6148,-11856,-167,197,-171,2025-02-17 10:17:03,0.0
9616,6180,-11908,-136,177,-179,2025-02-17 10:17:03,0.0
9668,6152,-11828,-181,189,-167,2025-02-17 10:17:03,0.0
9676,6204,-11880,-184,170,-169,2025-02-17 10:17:03,0.0
9672,6120,-11848,-140,177,-178,2025-02-17 10:17:03,0.0
9608,6252,-11776,-163,160,-188,2025-02-17 10:17:03,0.0
9584,6236,-11620,-159,180,-182,2025-02-17 10:17:03,0.0
9616,6244,-11772,-152,179,-181,2025-02-17 10:17:03,0.0
9704,6208,-11780,-155,172,-168,2025-02-17 10:17:03,0.0
9728,6232,-11980,-148,165,-171,2025-02-17 10:17:03,0.0
9728,6144,-11904,-148,166,-175,2025-02-17 10:17:03,0.0
9684,6204,-12008,-157,182,-163,2025-02-17 10:17:03,0.0
9716,6256,-12056,-159,169,-191,2025-02-17 10:17:03,0.0
9672,6188,-11708,-166,182,-182,2025-02-17 10:17:03,0.0
9644,6312,-11812,-150,171,-169,2025-02-17 10:17:03,0.0
9640,6264,-11748,-147,172,-165,2025-02-17 10:17:03,0.0
9616,6224,-11712,-182,190,-186,2025-02-17 10:17:03,0.0
9640,6184,-11892,-161,184,-155,2025-02-17 10:17:03,0.0
9604,6160,-11816,-167,172,-183,2025-02-17 10:17:03,0.0
9636,6200,-11880,-148,178,-173,2025-02-17 10:17:03,0.0
9504,6268,-11792,-152,179,-180,2025-02-17 10:17:03,0.0
9600,6224,-11820,-156,184,-192,2025-02-17 10:17:03,0.0
9740,6196,-11756,-143,196,-183,2025-02-17 10:17:03,0.0
9668,6212,-11848,-146,176,-192,2025-02-17 10:17:03,0.0
9744,6196,-11876,-171,177,-191,2025-02-17 10:17:03,0.0
9668,6224,-11932,-174,164,-165,2025-02-17 10:17:03,0.0
9688,6304,-11848,-162,189,-176,2025-02-17 10:17:03,0.0
9548,6180,-11868,-176,161,-165,2025-02-17 10:17:03,0.0
9560,6416,-11852,-181,156,-170,2025-02-17 10:17:03,0.0
9652,6152,-11772,-167,176,-201,2025-02-17 10:17:03,0.0
9764,6356,-11744,-88,436,-169,2025-02-17 10:17:03,0.0
9820,6152,-12096,-145,175,-130,2025-02-17 10:17:03,0.0
9784,6160,-12012,-217,90,-191,2025-02-17 10:17:03,0.0
9436,6320,-11436,-45,-254,-159,2025-02-17 10:17:03,0.0
9332,6156,-12412,-138,-16,-190,2025-02-17 10:17:03,0.0
9344,6424,-12072,-214,377,-122,2025-02-17 10:17:03,0.0
9996,6232,-11532,-62,554,-164,2025-02-17 10:17:03,0.0
9996,5772,-11824,-157,4,-165,2025-02-17 10:17:03,0.0
9580,6432,-12024,-365,14,-316,2025-02-17 10:17:03,0.0
9324,6448,-11664,-55,72,-173,2025-02-17 10:17:03,0.0
9380,6124,-12208,-113,181,-156,2025-02-17 10:17:03,0.0
9852,6164,-11968,-297,253,-148,2025-02-17 10:17:03,0.0
9680,6412,-11512,-83,122,-168,2025-02-17 10:17:03,0.0
9652,6048,-11872,-169,83,-214,2025-02-17 10:17:03,0.0
9556,6156,-11880,-236,105,-206,2025-02-17 10:17:03,0.0
9696,6328,-11776,-211,68,-199,2025-02-17 10:17:03,0.0
9848,6200,-11768,-241,27,-226,2025-02-17 10:17:03,0.0
9648,6232,-11716,-215,-192,-236,2025-02-17 10:17:03,0.0
9628,6392,-11780,9,-84,-129,2025-02-17 10:17:03,0.0
9380,6180,-12044,0,-26,-145,2025-02-17 10:17:03,0.0
9424,6156,-12068,-246,-238,-91,2025-02-17 10:17:03,0.0
9516,6560,-11776,-204,-132,291,2025-02-17 10:17:03,0.0
10236,6040,-11996,-178,-317,-97,2025-02-17 10:17:03,0.0
9844,5920,-11944,-456,-627,-198,2025-02-17 10:17:04,0.0
9580,6308,-12064,-476,-1015,-310,2025-02-17 10:17:04,0.0
9288,6456,-12188,-423,-1006,-195,2025-02-17 10:17:04,0.0
9316,6244,-12272,-406,-541,-282,2025-02-17 10:17:04,0.0
9284,6196,-12084,-364,-22,-357,2025-02-17 10:17:04,0.0
9752,6476,-11900,-364,-52,-260,2025-02-17 10:17:04,0.0
9560,6308,-11928,-483,-470,-309,2025-02-17 10:17:04,0.0
8904,6192,-11704,-363,-403,-189,2025-02-17 10:17:04,0.0
9328,6448,-11868,-278,-186,-98,2025-02-17 10:17:04,0.0
9828,6308,-11812,-140,-367,-172,2025-02-17 10:17:04,0.0
9472,6300,-11976,-128,-887,-127,2025-02-17 10:17:04,0.0
9248,6296,-11392,25,-1271,33,2025-02-17 10:17:04,0.0
9720,6308,-12248,-121,-1845,-7,2025-02-17 10:17:04,0.0
9316,6112,-12312,-135,-2324,57,2025-02-17 10:17:04,0.0
9272,6240,-12456,-253,-2103,-164,2025-02-17 10:17:04,0.0
8720,6376,-11840,-293,-1438,49,2025-02-17 10:17:04,0.0
9400,6632,-11240,503,-1558,319,2025-02-17 10:17:04,0.0
9036,6760,-11976,1145,-1898,559,2025-02-17 10:17:04,0.0
9748,6132,-12576,1422,-2826,871,2025-02-17 10:17:04,0.0
7920,6648,-10992,3435,-2894,2273,2025-02-17 10:17:04,0.0
9456,6248,-12964,5411,-1911,4235,2025-02-17 10:17:04,0.0
8252,5908,-13292,7189,-63,6156,2025-02-17 10:17:04,0.0
9012,5604,-13496,7761,1140,6417,2025-02-17 10:17:04,0.0
8184,5764,-11684,7879,2482,4996,2025-02-17 10:17:04,0.0
9784,4996,-12600,6854,-571,-1321,2025-02-17 10:17:04,0.0
7936,4204,-12996,6886,-1496,-1995,2025-02-17 10:17:04,0.0
7932,3760,-12628,7689,-1284,-1665,2025-02-17 10:17:04,0.0
8056,3104,-12632,9366,-605,-897,2025-02-17 10:17:04,0.0
8012,2972,-14268,11322,1668,-221,2025-02-17 10:17:04,0.0
8088,3440,-13116,14235,3647,583,2025-02-17 10:17:04,0.0
9160,2992,-13660,16939,4856,474,2025-02-17 10:17:04,0.0
9932,2476,-14096,20169,4214,590,2025-02-17 10:17:04,0.0
9768,1580,-14516,22212,2663,1011,2025-02-17 10:17:04,0.0
10784,168,-15520,23859,287,1238,2025-02-17 10:17:04,0.0
11096,-408,-16476,20052,-3377,-642,2025-02-17 10:17:04,0.0
11176,-396,-15088,13974,-9334,-3434,2025-02-17 10:17:04,0.0
10996,-132,-15912,5982,-17816,-5794,2025-02-17 10:17:04,0.0
7608,-324,-13996,-2304,-27539,-5248,2025-02-17 10:17:04,0.0
4724,4,-9932,-668,-32768,756,2025-02-17 10:17:04,0.0
5444,-1600,-13720,3390,-32768,7344,2025-02-17 10:17:04,0.0
5784,-2720,-14416,5002,-32768,10196,2025-02-17 10:17:04,0.0
2548,-5344,-22596,5409,-32768,13329,2025-02-17 10:17:04,0.0
2908,-5028,-21712,8936,-32768,11807,2025-02-17 10:17:04,0.0
3868,-4460,-25080,10419,-32768,6673,2025-02-17 10:17:04,0.0
1520,-4528,-30360,5343,-26078,-629,2025-02-17 10:17:04,0.0
-2348,-2916,-31392,-3019,-11942,-5810,2025-02-17 10:17:04,0.0
-3500,-3552,-26196,-8374,2953,-8471,2025-02-17 10:17:04,
-3860,-2776,-19532,-5920,17228,-10232,2025-02-17 10:17:04,0.0
-3728,-2040,-16732,1724,26489,-9668,2025-02-17 10:17:04,0.0
-3152,-1896,-18568,7457,29414,-6241,2025-02-17 10:17:04,0.0
-696,-2240,-22844,7061,25543,186,2025-02-17 10:17:04,0.0
2336,-2812,-23136,2089,17770,4365,2025-02-17 10:17:04,0.0
4840,-3588,-20860,-1828,7957,6310,2025-02-17 10:17:04,0.0
7316,-3660,-19696,-1979,-1402,6296,2025-02-17 10:17:04,0.0
6204,-4468,-16388,-487,-8331,4608,2025-02-17 10:17:04,0.0
6112,-4696,-19408,-286,-13801,2228,2025-02-17 10:17:04,0.0
4304,-4976,-20840,-2306,-15287,-439,2025-02-17 10:17:04,0.0
2060,-5272,-20180,-4247,-13494,-2044,2025-02-17 10:17:04,0.0
652,-5496,-18840,-4974,-9147,-2595,2025-02-17 10:17:04,0.0
-660,-5196,-18172,-4103,-3152,-1964,2025-02-17 10:17:04,0.0
-1520,-4512,-18540,-3031,2328,-290,2025-02-17 10:17:05,0.0
-900,-3964,-18752,-2786,6752,2056,2025-02-17 10:17:05,0.0
412,-3168,-19364,-3598,9059,3690,2025-02-17 10:17:05,0.0
2180,-2720,-18456,-5032,10002,4216,2025-02-17 10:17:05,0.0
3464,-2064,-16936,-5994,9683,3695,2025-02-17 10:17:05,0.0
4052,-1288,-15092,-6259,8637,2577,2025-02-17 10:17:05,0.0
4260,-180,-13596,-5881,7101,1327,2025-02-17 10:17:05,0.0
3972,1020,-12436,-5067,4514,633,2025-02-17 10:17:05,0.0
3440,2124,-11684,-5163,1194,715,2025-02-17 10:17:05,0.0
2268,2324,-11744,-6719,-2118,1810,2025-02-17 10:17:05,0.0
1524,2236,-10272,-9371,-6031,4515,2025-02-17 10:17:05,0.0
2076,2460,-8236,-10326,-9021,6505,2025-02-17 10:17:05,0.0
2876,2284,-5804,-9658,-11119,7175,2025-02-17 10:17:05,0.0
3748,2000,-3860,-5754,-10099,4693,2025-02-17 10:17:05,0.0
3724,1600,-3388,-1431,-7737,1021,2025-02-17 10:17:05,0.0
3184,1144,-4444,1836,-4841,-2680,2025-02-17 10:17:05,0.0
2348,100,-4724,4617,-809,-6445,2025-02-17 10:17:05,0.0
1664,-1316,-6664,8883,4955,-10802,2025-02-17 10:17:05,0.0
-1640,-2196,-11596,10004,10693,-13154,2025-02-17 10:17:05,0.0
-4060,-2784,-15636,6710,15244,-11546,2025-02-17 10:17:05,0.0
-5000,-3348,-16372,358,18510,-6718,2025-02-17 10:17:05,0.0
-4276,-4040,-14212,-4189,19572,-1966,2025-02-17 10:17:05,0.0
-2028,-4948,-10948,-5370,18752,1268,2025-02-17 10:17:05,0.0
1212,-5816,-8532,-2662,16413,2106,2025-02-17 10:17:05,0.0
3116,-5220,-10056,219,13470,707,2025-02-17 10:17:05,0.0
3968,-3416,-12640,393,9926,-1413,2025-02-17 10:17:05,0.0
4012,-1652,-15192,-3298,5578,-2821,2025-02-17 10:17:05,0.0
3476,-80,-15608,-8904,807,-3189,2025-02-17 10:17:05,0.0
3340,1300,-13804,-14378,-3816,-2663,2025-02-17 10:17:05,0.0
3664,2208,-9952,-16835,-8536,-1300,2025-02-17 10:17:05,0.0
4724,4300,-4392,-13238,-14951,65,2025-02-17 10:17:05,0.0
6220,5068,-660,-4238,-19965,-992,2025-02-17 10:17:05,0.0
6916,5044,-944,7408,-22952,-4788,2025-02-17 10:17:05,0.0
5992,4328,-4972,14089,-24286,-8909,2025-02-17 10:17:05,0.0
3584,2604,-9508,16097,-24424,-12136,2025-02-17 10:17:05,0.0
-576,884,-14228,13324,-23044,-12084,2025-02-17 10:17:05,0.0
-4440,12,-16916,7328,-20765,-7851,2025-02-17 10:17:05,0.0
-6484,580,-17244,214,-17790,-104,2025-02-17 10:17:05,0.0
-5288,44,-14684,-3961,-15233,7454,2025-02-17 10:17:05,0.0
-2012,-844,-11972,-3014,-12355,10721,2025-02-17 10:17:05,0.0
2084,-1220,-11452,1861,-7155,8059,2025-02-17 10:17:05,0.0
3552,-1136,-13076,5336,-1254,1748,2025-02-17 10:17:05,0.0
2256,-1068,-17012,5568,5779,-5306,2025-02-17 10:17:05,0.0
-1640,-784,-19132,2760,12892,-8544,2025-02-17 10:17:05,0.0
-4660,-1052,-19200,-675,19523,-6975,2025-02-17 10:17:05,0.0
-7160,0,-17248,-2504,25769,-1113,2025-02-17 10:17:05,0.0
-4712,-1128,-15124,-2064,28219,4661,2025-02-17 10:17:05,0.0
-2160,-2804,-13560,-426,20804,5335,2025-02-17 10:17:05,0.0
148,-3708,-14108,732,6336,1270,2025-02-17 10:17:05,0.0
260,-3392,-14668,-192,-13837,-5082,2025-02-17 10:17:05,0.0
-23524,-616,-15212,-1642,-22173,-7403,2025-02-17 10:17:05,0.0
-2696,-1192,-15624,-1012,-14834,-1106,2025-02-17 10:17:05,0.0
2288,-228,-17244,-2963,-19274,2659,2025-02-17 10:17:05,0.0
-1620,-368,-13908,-3453,-18227,6084,2025-02-17 10:17:05,0.0
-156,-1156,-12428,-2339,-10859,7136,2025-02-17 10:17:05,0.0
3420,-656,-11344,-2037,-3533,3224,2025-02-17 10:17:05,0.0
2904,1728,-9648,-166,4447,-2319,2025-02-17 10:17:05,0.0
900,196,-11132,3075,13743,-4554,2025-02-17 10:17:05,0.0
-1104,-1100,-12852,4733,23601,-3032,2025-02-17 10:17:05,0.0
272,-700,-14116,3391,26631,-746,2025-02-17 10:17:05,0.0
1300,368,-15604,-1013,18532,-1942,2025-02-17 10:17:05,0.0
-932,-360,-19624,-5225,14931,-4177,2025-02-17 10:17:05,0.0
-844,-1608,-14764,-2771,12509,-3098,2025-02-17 10:17:05,0.0
-1552,-1676,-15648,2751,3777,563,2025-02-17 10:17:06,0.0
-156,-1052,-19916,2672,-2017,2402,2025-02-17 10:17:06,0.0
1168,244,-18468,88,-4149,1745,2025-02-17 10:17:06,0.0
1856,-68,-14016,181,-4472,708,2025-02-17 10:17:06,0.0
1568,-664,-13384,659,-3242,-50,2025-02-17 10:17:06,0.0
2052,272,-13476,-144,929,-505,2025-02-17 10:17:06,0.0
2060,548,-12572,95,4270,-1798,2025-02-17 10:17:06,0.0
1216,-296,-14548,703,5625,-2291,2025-02-17 10:17:06,0.0
324,-404,-16360,349,5460,-2064,2025-02-17 10:17:06,0.0
516,-736,-16588,-222,4171,-1261,2025-02-17 10:17:06,0.0
1380,-508,-16308,-379,1939,-1028,2025-02-17 10:17:06,0.0
1292,-140,-15544,62,-513,-1365,2025-02-17 10:17:06,0.0
1276,-420,-15288,-468,-996,-1888,2025-02-17 10:17:06,0.0
1428,-744,-14840,-868,206,-1900,2025-02-17 10:17:06,0.0
1956,-680,-14412,-762,1452,-1834,2025-02-17 10:17:06,0.0
2220,-192,-14568,-261,1805,-2276,2025-02-17 10:17:06,0.0
2700,24,-15540,-445,1740,-3449,2025-02-17 10:17:06,0.0
1884,-824,-15436,-1121,1698,-3868,2025-02-17 10:17:06,0.0
2340,-1448,-15120,-1195,2008,-4073,2025-02-17 10:17:06,0.0
1116,-1428,-14560,-411,1983,-2644,2025-02-17 10:17:06,0.0
24,-1280,-14556,659,1667,-396,2025-02-17 10:17:06,0.0
728,-724,-15920,834,1662,731,2025-02-17 10:17:06,0.0
2272,-292,-16268,193,2009,-177,2025-02-17 10:17:06,0.0
3040,-148,-15572,-348,2110,-2003,2025-02-17 10:17:06,
3004,-300,-14396,-379,1820,-3773,2025-02-17 10:17:06,0.0
2576,-176,-13884,296,1769,-4957,2025-02-17 10:17:06,0.0
1896,-128,-13896,1350,2714,-4970,2025-02-17 10:17:06,0.0
1696,-316,-14756,2089,4405,-4431,2025-02-17 10:17:06,0.0
1560,-288,-15556,2104,6043,-3723,2025-02-17 10:17:06,0.0
1816,-636,-15752,1542,6770,-3157,2025-02-17 10:17:06,0.0
1772,-624,-16012,645,6530,-2728,2025-02-17 10:17:06,0.0
1124,-528,-16008,-575,5527,-1545,2025-02-17 10:17:06,0.0
1128,-500,-15628,-1007,4066,250,2025-02-17 10:17:06,0.0
1384,-376,-15156,-786,2737,1487,2025-02-17 10:17:06,0.0
2452,-552,-14812,-303,962,1679,2025-02-17 10:17:06,0.0
3348,-920,-14168,573,-952,886,2025-02-17 10:17:06,0.0
3684,-1344,-14132,1815,-3399,-443,2025-02-17 10:17:06,0.0
2884,-1276,-14812,2555,-6454,-1270,2025-02-17 10:17:06,0.0
2316,-1340,-15560,1959,-9605,-1000,2025-02-17 10:17:06,0.0
2260,-1396,-15648,594,-12709,-229,2025-02-17 10:17:06,0.0
2524,-1444,-14968,-822,-16161,442,2025-02-17 10:17:06,0.0
3064,-1696,-14232,-1353,-19007,283,2025-02-17 10:17:06,0.0
3220,-1548,-14064,-1360,-21904,-511,2025-02-17 10:17:06,0.0
2584,-752,-14604,-1602,-24190,-1244,2025-02-17 10:17:06,0.0
1796,-452,-14660,-2250,-25816,-1321,2025-02-17 10:17:06,0.0
1140,-220,-14608,-2588,-26757,-1022,2025-02-17 10:17:06,0.0
704,12,-14400,-2259,-27081,-537,2025-02-17 10:17:06,0.0
232,164,-14216,-1317,-26665,-275,2025-02-17 10:17:06,0.0
-664,400,-15112,39,-24749,-215,2025-02-17 10:17:06,0.0
-1716,300,-16036,773,-21584,-213,2025-02-17 10:17:06,0.0
-2776,-76,-16984,1159,-17035,-127,2025-02-17 10:17:06,0.0
-3400,-456,-17188,1442,-12168,-40,2025-02-17 10:17:06,0.0
-4112,-808,-17804,1772,-6214,26,2025-02-17 10:17:06,0.0
-4992,-1308,-17112,1962,1110,157,2025-02-17 10:17:06,0.0
-5064,-1472,-16800,2144,8314,194,2025-02-17 10:17:06,0.0
-4832,-2060,-15476,2123,13319,-297,2025-02-17 10:17:06,0.0
-19412,-4320,1316,-2233,-8860,-6115,2025-02-17 10:17:06,0.0
-32768,584,4972,-6110,-17333,-5967,2025-02-17 10:17:06,0.0
-12332,-3672,-9088,785,-11407,-872,2025-02-17 10:17:06,0.0
-5584,-3840,-14912,3979,-19316,4667,2025-02-17 10:17:06,0.0
-3520,-2660,-17852,2277,-31747,7798,2025-02-17 10:17:07,0.0
-5132,-764,-16024,-2513,-32768,5076,2025-02-17 10:17:07,0.0
-6592,1084,-9612,-5581,-32768,238,2025-02-17 10:17:07,0.0
-7116,492,-5128,-4735,-32768,-3561,2025-02-17 10:17:07,0.0
-8024,-1056,-4492,-1114,-32768,-5737,2025-02-17 10:17:07,0.0
-12024,-2028,-2004,2490,-32768,-5350,2025-02-17 10:17:07,0.0
-17756,-2060,1840,7461,-32768,-2336,2025-02-17 10:17:07,0.0
-19780,-1876,-1572,9452,-32768,2284,2025-02-17 10:17:07,0.0
-17956,-940,-3556,7331,-32768,6521,2025-02-17 10:17:07,0.0
-14172,-468,-2300,5081,-32768,7946,2025-02-17 10:17:07,0.0
-11924,116,1060,322,2470,459,2025-02-17 10:17:07,0.0
-12228,36,68,122,3577,107,2025-02-17 10:17:07,0.0
-12128,344,-1424,-811,4667,315,2025-02-17 10:17:07,0.0
-12212,1116,-728,-2260,7395,707,2025-02-17 10:17:07,0.0
-10928,1216,-716,-3214,11509,417,2025-02-17 10:17:07,0.0
-9040,876,-492,-3111,16034,-2047,2025-02-17 10:17:07,0.0
-8960,8,-1812,-1544,20312,-6593,2025-02-17 10:17:07,0.0
-11768,136,-5600,-2254,20837,-9218,2025-02-17 10:17:07,0.0
-16304,1360,-5592,-4196,20123,-8597,2025-02-17 10:17:07,0.0
-20224,816,-3628,-5217,18937,-5956,2025-02-17 10:17:07,0.0
-20672,-300,-3116,-5020,12930,-2539,2025-02-17 10:17:07,0.0
-18380,196,-4152,-4220,4962,-1206,2025-02-17 10:17:07,0.0
-16556,-28,-3656,-3821,-3406,-1313,2025-02-17 10:17:07,0.0
-15508,740,-3792,-3659,-6383,-629,2025-02-17 10:17:07,0.0
-12728,792,-3936,-4587,-7539,-185,2025-02-17 10:17:07,0.0
-10816,680,-3560,-5351,-6095,-512,2025-02-17 10:17:07,0.0
-10120,1056,-3636,-5753,-3125,-965,2025-02-17 10:17:07,0.0
-9372,1324,-4232,-6618,319,-1754,2025-02-17 10:17:07,0.0
-10276,1548,-4464,-7576,2786,-2766,2025-02-17 10:17:07,0.0
-12444,1168,-4684,-8445,4229,-3162,2025-02-17 10:17:07,0.0
-13360,808,-4368,-8749,4466,-3264,2025-02-17 10:17:07,0.0
-14044,768,-4436,-9020,3296,-3517,2025-02-17 10:17:07,0.0
-14364,1112,-4284,-8970,1176,-3355,2025-02-17 10:17:07,0.0
-13512,1648,-4648,-9244,-457,-3200,2025-02-17 10:17:07,0.0
-12304,1484,-5260,-10258,-645,-3393,2025-02-17 10:17:07,0.0
-11772,924,-5496,-10833,665,-3519,2025-02-17 10:17:07,0.0
-11800,248,-5424,-11114,1940,-3697,2025-02-17 10:17:07,0.0
-12436,260,-5212,-11410,2309,-4155,2025-02-17 10:17:07,0.0
-12792,92,-5056,-11755,2251,-4400,2025-02-17 10:17:07,0.0
-12788,572,-4356,-11880,1948,-4489,2025-02-17 10:17:07,0.0
-12768,1484,-4492,-12077,1825,-4407,2025-02-17 10:17:07,0.0
-12224,2068,-5076,-12494,1825,-4590,2025-02-17 10:17:07,0.0
-12164,2156,-5552,-13172,1978,-5018,2025-02-17 10:17:07,0.0
-12020,1800,-6084,-13680,1954,-5591,2025-02-17 10:17:07,0.0
-12504,1004,-5836,-14159,1993,-5993,2025-02-17 10:17:07,0.0
-12268,-548,-5172,-14562,1595,-6277,2025-02-17 10:17:08,0.0
-12380,-848,-4724,-13974,1073,-6331,2025-02-17 10:17:08,0.0
-12712,-1276,-4624,-13590,323,-6232,2025-02-17 10:17:08,0.0
-12472,-1188,-4468,-13188,233,-6138,2025-02-17 10:17:08,0.0
-12380,-1460,-4228,-12903,118,-5942,2025-02-17 10:17:08,0.0
-12380,-1404,-4420,-12335,-239,-5834,2025-02-17 10:17:08,0.0
-12588,-1540,-4036,-11636,-674,-5576,2025-02-17 10:17:08,0.0
-12548,-1088,-4116,-10723,-639,-4984,2025-02-17 10:17:08,0.0
-12032,-1712,-4740,-10136,-567,-4432,2025-02-17 10:17:08,0.0
-11460,-3080,-4912,-9001,-465,-4534,2025-02-17 10:17:08,0.0
-11972,-3240,-6224,-8711,764,-4949,2025-02-17 10:17:08,0.0
-12740,-1956,-7092,-8864,2152,-5408,2025-02-17 10:17:08,0.0
-14212,-96,-7048,-9469,3346,-5359,2025-02-17 10:17:08,0.0
-13560,492,-8024,-10497,2916,-5632,2025-02-17 10:17:08,0.0
-13456,976,-7568,-11860,671,-6490,2025-02-17 10:17:08,0.0
-12948,300,-6612,-13263,-3148,-7391,2025-02-17 10:17:08,0.0
-12748,-1560,-5368,-14867,-5776,-7636,2025-02-17 10:17:08,0.0
-12052,-2936,-4680,-15243,-6013,-7185,2025-02-17 10:17:08,0.0
-11720,-3840,-5532,-15185,-4264,-6368,2025-02-17 10:17:08,
-11148,-4424,-5728,-15507,-1740,-5834,2025-02-17 10:17:08,0.0
-11608,-3968,-5388,-15244,339,-5664,2025-02-17 10:17:08,0.0
-11984,-3120,-5864,-15072,360,-5504,2025-02-17 10:17:08,0.0
-12032,-2140,-5676,-15123,-492,-5571,2025-02-17 10:17:08,0.0
-12072,-1316,-5412,-15223,-1426,-5424,2025-02-17 10:17:08,0.0
-11888,-1004,-5696,-15514,-2393,-5266,2025-02-17 10:17:08,0.0
-11004,-1536,-5848,-15885,-2653,-5418,2025-02-17 10:17:08,0.0
-11176,-1816,-6352,-16225,-2058,-5569,2025-02-17 10:17:08,0.0
-11544,-1752,-6688,-16718,-355,-5573,2025-02-17 10:17:08,0.0
-11872,-1944,-6268,-17024,994,-5645,2025-02-17 10:17:08,0.0
-12172,-2400,-5992,-17152,937,-5729,2025-02-17 10:17:08,0.0
-12272,-3608,-5012,-17140,-149,-5506,2025-02-17 10:17:08,0.0
-12076,-4240,-4044,-16454,-969,-5279,2025-02-17 10:17:08,0.0
-12028,-4052,-4904,-15809,-534,-5001,2025-02-17 10:17:08,0.0
-12076,-4340,-5812,-15680,326,-5079,2025-02-17 10:17:08,0.0
-12448,-3852,-5568,-15173,1526,-5251,2025-02-17 10:17:08,0.0
-12832,-2984,-5500,-14829,1825,-5032,2025-02-17 10:17:08,0.0
-11936,-3032,-5496,-14748,1094,-4255,2025-02-17 10:17:08,0.0
-10956,-3348,-5904,-14439,400,-3477,2025-02-17 10:17:08,0.0
-10504,-3320,-5952,-14174,818,-3019,2025-02-17 10:17:08,0.0
-9912,-3300,-6008,-14048,2821,-3394,2025-02-17 10:17:08,0.0
-10972,-3204,-5944,-13804,4779,-3765,2025-02-17 10:17:08,0.0
-12160,-3572,-5484,-13562,5360,-3719,2025-02-17 10:17:08,0.0
-12544,-4040,-6396,-12729,5576,-3614,2025-02-17 10:17:08,0.0
-13196,-4036,-7300,-11683,6571,-4070,2025-02-17 10:17:08,0.0
-14676,-1908,-5620,-10868,6607,-4486,2025-02-17 10:17:08,0.0
-14684,1760,-6104,-10536,5631,-4099,2025-02-17 10:17:08,0.0
-13856,4044,-6880,-11480,3089,-3779,2025-02-17 10:17:08,0.0
-12896,3916,-7280,-12724,-813,-4068,2025-02-17 10:17:08,0.0
-12240,3012,-5956,-13607,-2563,-4310,2025-02-17 10:17:08,0.0
-10948,1404,-5232,-14012,-2014,-4515,2025-02-17 10:17:08,0.0
-10452,-232,-4708,-14023,-664,-4770,2025-02-17 10:17:08,0.0
-10628,-1252,-5464,-13816,1003,-4998,2025-02-17 10:17:08,0.0
-12044,-968,-5296,-13646,2273,-4942,2025-02-17 10:17:08,0.0
-13952,-168,-5492,-13300,2306,-4760,2025-02-17 10:17:08,0.0
-14572,816,-5480,-13082,811,-4561,2025-02-17 10:17:08,0.0
-13848,1592,-5308,-13053,-1288,-4783,2025-02-17 10:17:08,0.0
-12732,1572,-4928,-13056,-2476,-5376,2025-02-17 10:17:08,0.0
-11972,912,-4324,-12661,-2265,-5714,2025-02-17 10:17:08,0.0
-11660,-204,-3276,-12066,-1066,-5798,2025-02-17 10:17:08,0.0
-11800,-916,-3396,-11122,263,-5515,2025-02-17 10:17:08,0.0
-12236,-652,-3792,-10020,657,-4941,2025-02-17 10:17:08,0.0
-12104,316,-4276,-9371,626,-4697,2025-02-17 10:17:08,0.0
-12096,1024,-4260,-8916,797,-4626,2025-02-17 10:17:08,0.0
-12332,924,-4680,-8527,1107,-4583,2025-02-17 10:17:08,0.0
-12344,1028,-5220,-7942,1330,-4594,2025-02-17 10:17:08,0.0
-11992,800,-5396,-7802,1476,-4575,2025-02-17 10:17:08,0.0
-11936,596,-5252,-7642,1640,-4612,2025-02-17 10:17:09,0.0
-11988,804,-5128,-7451,1649,-4594,2025-02-17 10:17:09,0.0
-11904,996,-5048,-7359,1443,-4440,2025-02-17 10:17:09,0.0
-11556,1160,-5124,-7147,1386,-4463,2025-02-17 10:17:09,0.0
-11740,1052,-5076,-6979,1819,-4463,2025-02-17 10:17:09,0.0
-11852,404,-4980,-6832,2406,-4488,2025-02-17 10:17:09,0.0
-12252,-356,-4844,-6407,2585,-4458,2025-02-17 10:17:09,0.0
-12748,-944,-4716,-5845,2244,-4216,2025-02-17 10:17:09,0.0
-12892,-908,-4820,-5243,1868,-3805,2025-02-17 10:17:09,0.0
-12976,-356,-4528,-4627,1568,-3549,2025-02-17 10:17:09,0.0
-13388,-64,-5032,-4274,1561,-3219,2025-02-17 10:17:09,0.0
-13884,-184,-5928,-4205,1896,-2849,2025-02-17 10:17:09,0.0
-14748,-208,-5192,-4021,1911,-2352,2025-02-17 10:17:09,0.0
-14124,-568,-5236,-3913,537,-2278,2025-02-17 10:17:09,0.0
-13900,-964,-4452,-3746,-1509,-2491,2025-02-17 10:17:09,0.0
-12652,-1760,-2896,-3046,-3504,-2289,2025-02-17 10:17:09,0.0
-11492,-1220,-2712,-2093,-3478,-2173,2025-02-17 10:17:09,0.0
-10912,-652,-3392,-1609,-2253,-2170,2025-02-17 10:17:09,0.0
-11268,-96,-4432,-1393,72,-2213,2025-02-17 10:17:09,0.0
-11960,56,-5048,-1335,1573,-2226,2025-02-17 10:17:09,0.0
-13380,288,-5424,-1083,1646,-1934,2025-02-17 10:17:09,0.0
-13036,84,-5412,-997,-130,-1886,2025-02-17 10:17:09,0.0
-12528,-60,-5168,-800,-1636,-1646,2025-02-17 10:17:09,0.0
-11096,-640,-5120,-816,-2037,-1443,2025-02-17 10:17:09,0.0
-10448,-1424,-4996,-957,-1119,-1327,2025-02-17 10:17:09,0.0
-10832,-2332,-5016,-1137,1320,-1076,2025-02-17 10:17:09,0.0
-11764,-2620,-6148,-1137,3341,-1306,2025-02-17 10:17:09,0.0
-13328,-2800,-6344,-1064,4444,-1786,2025-02-17 10:17:09,0.0
-14392,-2128,-6520,-730,4231,-2216,2025-02-17 10:17:09,0.0
-14144,-1332,-6716,-218,1990,-2906,2025-02-17 10:17:09,0.0
-13704,-836,-5084,381,-340,-3595,2025-02-17 10:17:09,0.0
-12128,-184,-4396,700,-937,-4027,2025-02-17 10:17:09,0.0
-10572,-44,-6168,-163,184,-4636,2025-02-17 10:17:09,0.0
-10784,-1052,-6472,-1535,1724,-5298,2025-02-17 10:17:09,0.0
-11504,-2072,-5332,-2238,2781,-5540,2025-02-17 10:17:09,0.0
-12616,-2848,-4132,-2239,2639,-5340,2025-02-17 10:17:09,0.0
-13616,-3000,-3548,-2084,1228,-4761,2025-02-17 10:17:09,0.0
-13588,-2780,-3108,-1911,-959,-3939,2025-02-17 10:17:09,0.0
-12992,-2260,-3028,-1612,-2351,-3174,2025-02-17 10:17:09,0.0
-12176,-2044,-3116,-1488,-2297,-2604,2025-02-17 10:17:09,0.0
-11776,-2396,-2688,-1517,-1203,-2219,2025-02-17 10:17:09,0.0
-11712,-2780,-2924,-1489,320,-2003,2025-02-17 10:17:09,0.0
-12356,-2612,-2544,-1436,1281,-1805,2025-02-17 10:17:09,0.0
-13108,-2692,-2720,-1222,742,-1580,2025-02-17 10:17:09,0.0
-13080,-2932,-3016,-843,-256,-1237,2025-02-17 10:17:09,0.0
-12684,-2452,-3324,-935,-865,-1058,2025-02-17 10:17:09,0.0
-12340,-1880,-2864,-1198,-907,-1284,2025-02-17 10:17:09,0.0
-12320,-2328,-3356,-1406,-916,-1611,2025-02-17 10:17:09,0.0
-12256,-2252,-3984,-1563,-709,-1778,2025-02-17 10:17:09,0.0
-12696,-2308,-4188,-2026,199,-2083,2025-02-17 10:17:09,0.0
-13112,-2572,-3460,-2370,403,-2175,2025-02-17 10:17:09,0.0
-13056,-3036,-3740,-2697,231,-2207,2025-02-17 10:17:09,0.0
-12704,-3500,-4316,-3064,541,-2378,2025-02-17 10:17:09,
-12468,-3780,-4284,-3456,1254,-2820,2025-02-17 10:17:09,0.0
-12820,-3916,-4224,-3979,1796,-3150,2025-02-17 10:17:09,0.0
-12144,-5380,-6428,-4314,2214,-4105,2025-02-17 10:17:09,0.0
-13716,-4628,-6840,-3757,3178,-5299,2025-02-17 10:17:09,0.0
-15908,-4560,-7000,-2876,4024,-6576,2025-02-17 10:17:09,0.0
-19252,-5792,-7564,-2664,1696,-6851,2025-02-17 10:17:09,0.0
-21500,-7640,-6912,-1970,-4529,-3618,2025-02-17 10:17:09,0.0
-17364,-6900,-5696,-148,-8144,678,2025-02-17 10:17:09,0.0
-11744,-4536,-7772,-324,-8142,1232,2025-02-17 10:17:10,0.0
-10000,-2788,-7640,-1201,-5985,1005,2025-02-17 10:17:10,0.0
-10096,-2152,-7372,-1449,-2956,1453,2025-02-17 10:17:10,0.0
-10292,-2364,-7792,-1209,-1589,2613,2025-02-17 10:17:10,0.0
-9904,-1552,-6604,-125,-1435,2855,2025-02-17 10:17:10,0.0
-10308,-280,-6756,396,-457,2714,2025-02-17 10:17:10,0.0
-11340,372,-6572,257,820,2523,2025-02-17 10:17:10,0.0
-12848,40,-6200,137,777,2354,2025-02-17 10:17:10,0.0
-14360,-644,-6528,515,-636,2766,2025-02-17 10:17:10,0.0
-14456,-1460,-6856,850,-1700,3254,2025-02-17 10:17:10,0.0
-13524,-2216,-6868,922,-1675,4014,2025-02-17 10:17:10,0.0
-12356,-2292,-6208,737,-1410,4620,2025-02-17 10:17:10,0.0
-11728,-1776,-5148,951,-1143,4958,2025-02-17 10:17:10,0.0
-11256,-1116,-4880,1132,-1409,5074,2025-02-17 10:17:10,0.0
-10772,-200,-4528,875,-1636,5161,2025-02-17 10:17:10,0.0
-10088,148,-4400,624,-1649,5063,2025-02-17 10:17:10,0.0
-9832,272,-4276,429,-1191,4413,2025-02-17 10:17:10,0.0
-10136,788,-4140,601,-410,3897,2025-02-17 10:17:10,0.0
-10500,1456,-3996,564,424,3668,2025-02-17 10:17:10,0.0
-10400,1484,-4052,228,1208,3232,2025-02-17 10:17:10,0.0
-10360,1032,-4184,-3,771,2542,2025-02-17 10:17:10,0.0
-10604,-260,-3788,-53,152,1687,2025-02-17 10:17:10,0.0
-10952,-1432,-2992,75,-64,1203,2025-02-17 10:17:10,0.0
-10728,-1592,-2724,500,211,977,2025-02-17 10:17:10,0.0
-10348,-876,-2736,841,759,630,2025-02-17 10:17:10,0.0
-11084,-256,-2404,954,1313,544,2025-02-17 10:17:10,0.0
-12292,188,-2204,1191,1696,521,2025-02-17 10:17:10,0.0
-13332,660,-2552,1280,1360,478,2025-02-17 10:17:10,0.0
-12892,1300,-4428,1295,375,434,2025-02-17 10:17:10,0.0
-14052,1948,-3560,1187,-1009,582,2025-02-17 10:17:10,0.0
-13204,1488,-4360,1221,-2668,922,2025-02-17 10:17:10,0.0
-12364,616,-4644,1309,-1289,1412,2025-02-17 10:17:10,0.0
-12404,536,-5424,1500,1054,1762,2025-02-17 10:17:10,0.0
-14120,756,-5668,1384,3413,2152,2025-02-17 10:17:10,0.0
-15376,568,-4156,1242,4751,2848,2025-02-17 10:17:10,0.0
-15912,-412,-2544,1822,3217,2909,2025-02-17 10:17:10,0.0
-16200,-828,-2632,2804,74,2788,2025-02-17 10:17:10,0.0
-15924,-356,-4500,3928,-1315,3074,2025-02-17 10:17:10,0.0
-16028,936,-6100,4345,-569,3359,2025-02-17 10:17:10,0.0
-15596,2484,-7420,3924,249,3544,2025-02-17 10:17:10,0.0
-15072,3128,-7212,2628,-158,2823,2025-02-17 10:17:10,0.0
-14876,2940,-7424,1201,-1439,1254,2025-02-17 10:17:10,0.0
-15652,1812,-8640,279,-1723,751,2025-02-17 10:17:10,0.0
-13084,452,-7820,379,-2850,499,2025-02-17 10:17:10,0.0
-10772,576,-6848,694,-5172,-787,2025-02-17 10:17:10,0.0
-9736,12,-6340,741,-6309,-1517,2025-02-17 10:17:10,0.0
-9056,-1816,-5804,983,-4065,-2221,2025-02-17 10:17:10,0.0
-8972,-3036,-6772,1487,186,-2525,2025-02-17 10:17:10,0.0
-9856,-1736,-7704,1009,3288,-2453,2025-02-17 10:17:10,0.0
-10892,-920,-6628,640,4524,-2561,2025-02-17 10:17:10,0.0
-11984,-412,-5688,833,4454,-2589,2025-02-17 10:17:10,0.0
-12420,-368,-5284,871,2532,-2548,2025-02-17 10:17:10,0.0
-12100,-276,-4696,914,313,-3044,2025-02-17 10:17:10,0.0
-10952,-652,-6080,1084,-486,-4006,2025-02-17 10:17:10,0.0
-11016,-868,-6356,1011,-1490,-4907,2025-02-17 10:17:10,0.0
-10964,-1332,-6064,692,-2577,-5055,2025-02-17 10:17:10,0.0
-11084,-1692,-5380,324,-2393,-4350,2025-02-17 10:17:10,0.0
-10328,-2204,-4684,37,-1032,-3037,2025-02-17 10:17:10,0.0
-9392,-2388,-3760,52,-97,-2827,2025-02-17 10:17:10,0.0
-9212,-2724,-4588,103,322,-3050,2025-02-17 10:17:11,0.0
-10020,-2968,-4352,-49,1007,-3014,2025-02-17 10:17:11,0.0
-10476,-3012,-3724,63,1478,-2572,2025-02-17 10:17:11,0.0
-11332,-2780,-3976,168,2286,-1847,2025-02-17 10:17:11,0.0
-11724,-2112,-4588,-121,2913,-1309,2025-02-17 10:17:11,0.0
-11948,-1580,-4644,-461,2543,-1057,2025-02-17 10:17:11,0.0
-12244,-1264,-4216,-796,1684,-626,2025-02-17 10:17:11,0.0
-11748,-1600,-3732,-909,846,-233,2025-02-17 10:17:11,0.0
-11340,-1640,-3640,-1009,792,-1,2025-02-17 10:17:11,0.0
-10972,-1788,-4108,-1376,1511,201,2025-02-17 10:17:11,0.0
-11184,-2152,-4736,-2180,3027,223,2025-02-17 10:17:11,0.0
-11552,-2296,-5272,-2824,4453,-376,2025-02-17 10:17:11,0.0
-12568,-1812,-5232,-2999,4664,-1324,2025-02-17 10:17:11,0.0
-13464,-1220,-5424,-3093,4003,-2209,2025-02-17 10:17:11,0.0
-13720,-1224,-5628,-3269,2781,-2983,2025-02-17 10:17:11,0.0
-14248,-2572,-5212,-3516,1725,-3679,2025-02-17 10:17:11,0.0
-14612,-2960,-4380,-3750,638,-4246,2025-02-17 10:17:11,0.0
-15996,-2572,-3816,-3908,-1362,-4077,2025-02-17 10:17:11,0.0
-16640,-3132,-4640,-4427,-2923,-2945,2025-02-17 10:17:11,0.0
-16116,-4040,-6192,-5185,-3166,-1985,2025-02-17 10:17:11,0.0
-15364,-5456,-5636,-4501,-2019,-1629,2025-02-17 10:17:11,0.0
-15356,-6200,-6276,-2644,-1407,-2296,2025-02-17 10:17:11,0.0
-16380,-6348,-7340,-662,-3207,-1845,2025-02-17 10:17:11,0.0
-16148,-5164,-6384,928,-4868,-43,2025-02-17 10:17:11,0.0
-13600,-3644,-6288,1723,-5278,266,2025-02-17 10:17:11,0.0
-12084,-2028,-7688,1676,-6131,314,2025-02-17 10:17:11,0.0
-10696,-1320,-7292,1247,-7050,1264,2025-02-17 10:17:11,0.0
-9472,-1080,-6044,831,-6090,2263,2025-02-17 10:17:11,0.0
-9112,-1120,-6172,963,-2312,2858,2025-02-17 10:17:11,0.0
-10144,-648,-7376,949,2241,3176,2025-02-17 10:17:11,0.0
-11352,300,-7060,592,5069,2816,2025-02-17 10:17:11,0.0
-12828,640,-6456,327,4873,1830,2025-02-17 10:17:11,0.0
-14592,632,-5664,76,2123,1434,2025-02-17 10:17:11,
-15316,464,-5452,-50,-1947,2025,2025-02-17 10:17:11,0.0
-13780,-100,-7468,-463,-3390,2704,2025-02-17 10:17:11,0.0
-11916,-868,-7112,-1338,-3532,2919,2025-02-17 10:17:11,0.0
-10536,-1448,-5576,-1546,-2998,2629,2025-02-17 10:17:11,0.0
-10444,-1192,-4412,-1112,-2004,2573,2025-02-17 10:17:11,0.0
-10648,-220,-4252,-598,-1022,2730,2025-02-17 10:17:11,0.0
-10980,1024,-3996,-556,-283,2860,2025-02-17 10:17:11,0.0
-10884,1772,-4132,-776,-584,2555,2025-02-17 10:17:11,0.0
-10592,1944,-4288,-1115,-1211,2072,2025-02-17 10:17:11,0.0
-10464,1288,-4392,-1461,-805,1707,2025-02-17 10:17:11,0.0
-10440,-24,-3192,-1454,423,1264,2025-02-17 10:17:11,0.0
-10848,-608,-2604,-1092,1362,1000,2025-02-17 10:17:11,0.0
-11068,-768,-2628,-717,1876,1058,2025-02-17 10:17:11,0.0
-11260,-124,-3212,-322,2198,1044,2025-02-17 10:17:11,0.0
-11092,560,-3284,-101,2320,735,2025-02-17 10:17:11,0.0
-11504,408,-3336,68,2173,277,2025-02-17 10:17:11,0.0
-12244,44,-2628,205,2063,187,2025-02-17 10:17:11,0.0
-12792,-384,-2380,516,1954,191,2025-02-17 10:17:11,0.0
-13348,-400,-2380,889,1634,92,2025-02-17 10:17:11,0.0
-14040,-64,-2256,1108,1078,122,2025-02-17 10:17:11,0.0
-13436,1312,-5148,1697,-2192,1349,2025-02-17 10:17:11,0.0
-12636,1208,-5508,1548,-2479,1483,2025-02-17 10:17:11,0.0
-12968,800,-5316,1503,-919,1528,2025-02-17 10:17:11,0.0
-13712,512,-2876,1677,473,1720,2025-02-17 10:17:11,0.0
-13724,72,-2636,2524,459,1593,2025-02-17 10:17:11,0.0
-14412,312,-4136,3620,181,1108,2025-02-17 10:17:11,0.0
-15376,1192,-5736,3888,-77,732,2025-02-17 10:17:11,0.0
-15000,2440,-7016,3167,-851,35,2025-02-17 10:17:12,0.0
-14916,2792,-7828,2180,-2186,-636,2025-02-17 10:17:12,0.0
-15456,1924,-7876,1457,-1958,-415,2025-02-17 10:17:12,0.0
-14236,988,-7648,1235,-1606,-261,2025-02-17 10:17:12,0.0
-12348,684,-7220,854,-2868,-650,2025-02-17 10:17:12,0.0
-10440,-1024,-6368,743,-3875,-1304,2025-02-17 10:17:12,0.0
-9756,-2932,-5128,569,-3145,-1402,2025-02-17 10:17:12,0.0
-9592,-3352,-4336,876,-586,-665,2025-02-17 10:17:12,0.0
-9352,-3548,-5212,1453,3506,-53,2025-02-17 10:17:12,0.0
-10728,-1928,-6136,1781,6567,-129,2025-02-17 10:17:12,0.0
-13412,-644,-6188,1875,8708,-777,2025-02-17 10:17:12,0.0
-14568,-384,-6984,1689,7137,-1353,2025-02-17 10:17:12,0.0
-15104,-500,-7048,1344,2812,-2289,2025-02-17 10:17:12,0.0
-14828,-704,-6924,1132,-2343,-2999,2025-02-17 10:17:12,0.0
-13600,-1308,-5928,996,-5436,-3137,2025-02-17 10:17:12,0.0
-11860,-1696,-5352,751,-5582,-2788,2025-02-17 10:17:12,0.0
-10056,-2000,-3980,654,-5075,-2418,2025-02-17 10:17:12,0.0
-8948,-2224,-3576,1082,-2684,-1867,2025-02-17 10:17:12,0.0
-8816,-2244,-4292,999,480,-1370,2025-02-17 10:17:12,0.0
-9012,-2116,-5316,482,4113,-988,2025-02-17 10:17:12,0.0
-9496,-2324,-4592,64,5782,-1207,2025-02-17 10:17:12,0.0
-10776,-2856,-4192,120,6008,-1625,2025-02-17 10:17:12,0.0
-12344,-2888,-4704,333,5285,-1404,2025-02-17 10:17:12,0.0
-13340,-2404,-4528,229,4330,-690,2025-02-17 10:17:12,0.0
-13480,-1756,-4724,47,3510,-33,2025-02-17 10:17:12,0.0
-10452,-1616,-8296,-2002,3246,-1292,2025-02-17 10:17:12,0.0
-11884,-2572,-8304,-1178,3583,-2748,2025-02-17 10:17:12,0.0
-12868,-3592,-8720,-430,2898,-3281,2025-02-17 10:17:12,0.0
-14884,-4048,-8020,-279,1024,-2112,2025-02-17 10:17:12,0.0
-14116,-2912,-7056,-371,105,287,2025-02-17 10:17:12,0.0
-10936,-2060,-6788,-89,-1519,820,2025-02-17 10:17:12,0.0
-10608,-1412,-7412,-81,-708,781,2025-02-17 10:17:12,0.0
-11508,-1232,-7360,8,1307,1534,2025-02-17 10:17:12,0.0
-11912,-1008,-7348,279,2215,2163,2025-02-17 10:17:12,0.0
-11860,-1004,-7524,672,2481,2431,2025-02-17 10:17:12,0.0
-11552,-1132,-7104,1140,1954,2258,2025-02-17 10:17:12,0.0
-11480,-1308,-5992,1570,1032,1987,2025-02-17 10:17:12,0.0
-11592,-1748,-5212,2139,593,2321,2025-02-17 10:17:12,0.0
-11740,-2136,-4944,2880,954,3267,2025-02-17 10:17:12,0.0
-11508,-2092,-5124,3637,1919,4239,2025-02-17 10:17:12,0.0
-11720,-1584,-5448,4208,2963,4855,2025-02-17 10:17:12,0.0
-11844,-912,-6172,4645,3197,5281,2025-02-17 10:17:12,0.0
-12084,284,-7592,4996,2697,5517,2025-02-17 10:17:12,0.0
-12084,916,-7896,4955,2023,5288,2025-02-17 10:17:12,0.0
-12316,584,-7420,5127,1851,4682,2025-02-17 10:17:12,0.0
-12844,404,-7240,5591,1644,4586,2025-02-17 10:17:12,0.0
-12404,-64,-7092,6200,1468,4615,2025-02-17 10:17:12,0.0
-11940,-356,-7036,6966,1364,4561,2025-02-17 10:17:12,0.0
-11556,-660,-6692,7545,1070,4535,2025-02-17 10:17:12,0.0
-11180,-1024,-6348,8173,1070,4686,2025-02-17 10:17:12,0.0
-10836,-1056,-6412,8787,1243,4902,2025-02-17 10:17:12,0.0
-10872,-1228,-6548,9132,1515,5123,2025-02-17 10:17:12,0.0
-11432,-1028,-6296,9447,1436,5360,2025-02-17 10:17:13,0.0
-11976,-756,-5752,9754,1114,5613,2025-02-17 10:17:13,0.0
-11920,-172,-5508,10300,282,5703,2025-02-17 10:17:13,0.0
-11896,536,-5768,10832,-364,5751,2025-02-17 10:17:13,0.0
-11448,764,-6416,11055,-795,5650,2025-02-17 10:17:13,0.0
-11296,836,-6460,11419,-707,5403,2025-02-17 10:17:13,0.0
-11232,704,-6920,11632,-606,5339,2025-02-17 10:17:13,0.0
-11480,664,-6900,11738,-357,5399,2025-02-17 10:17:13,0.0
-11868,796,-6904,11965,514,5791,2025-02-17 10:17:13,0.0
-12228,224,-6420,12095,1144,6086,2025-02-17 10:17:13,0.0
-12704,-184,-6180,12445,1100,6216,2025-02-17 10:17:13,0.0
-13104,-148,-6484,12894,-109,6524,2025-02-17 10:17:13,0.0
-13260,136,-6468,13313,-1091,6948,2025-02-17 10:17:13,0.0
-12532,-252,-5264,13527,-1779,7068,2025-02-17 10:17:13,0.0
-12592,-648,-3296,14116,-1269,6966,2025-02-17 10:17:13,0.0
-12532,-860,-3836,14876,-645,7194,2025-02-17 10:17:13,0.0
-11940,-552,-4932,15775,-1074,7356,2025-02-17 10:17:13,0.0
-11392,-232,-5936,16356,-2038,7154,2025-02-17 10:17:13,0.0
-10932,-368,-5328,16692,-2742,6596,2025-02-17 10:17:13,0.0
-10656,-68,-5480,16949,-3060,6022,2025-02-17 10:17:13,0.0
-10268,-148,-5864,17266,-2175,5394,2025-02-17 10:17:13,
-10364,308,-7664,17524,-514,5272,2025-02-17 10:17:13,0.0
-10780,-168,-8696,17166,1543,5684,2025-02-17 10:17:13,0.0
-11500,-748,-9020,16303,2763,5792,2025-02-17 10:17:13,0.0
-12128,-352,-9304,15065,2444,6015,2025-02-17 10:17:13,0.0
-12176,364,-9444,14208,1540,6095,2025-02-17 10:17:13,0.0
-12028,296,-8816,13669,909,6023,2025-02-17 10:17:13,0.0
-12160,-656,-7144,13984,597,6318,2025-02-17 10:17:13,0.0
-11348,-1556,-6440,14555,378,6668,2025-02-17 10:17:13,0.0
-10076,-2832,-6192,15110,251,6419,2025-02-17 10:17:13,0.0
-9516,-4500,-5396,15343,749,5788,2025-02-17 10:17:13,0.0
-10144,-4948,-4536,15789,2345,5695,2025-02-17 10:17:13,0.0
-10768,-5124,-5588,16349,3801,6158,2025-02-17 10:17:13,0.0
-11036,-4100,-6940,16583,4394,6588,2025-02-17 10:17:13,0.0
-12096,-3236,-7760,16476,4463,6966,2025-02-17 10:17:13,0.0
-12832,-2284,-7900,16102,4130,7266,2025-02-17 10:17:13,0.0
-12844,-2188,-7556,15535,3505,7036,2025-02-17 10:17:13,0.0
-12920,-2308,-7340,15142,1835,6362,2025-02-17 10:17:13,0.0
-12896,-2452,-7492,14595,-219,6002,2025-02-17 10:17:13,0.0
-12320,-2476,-6936,14091,-1546,5740,2025-02-17 10:17:13,0.0
-11252,-2084,-6812,13764,-1256,5456,2025-02-17 10:17:13,0.0
-10600,-1900,-6940,13126,-102,5143,2025-02-17 10:17:13,0.0
-10328,-1988,-6564,12338,807,4839,2025-02-17 10:17:13,0.0
-10496,-2088,-6228,11863,1857,4833,2025-02-17 10:17:13,0.0
-10996,-2128,-6340,11447,2825,5175,2025-02-17 10:17:13,0.0
-10900,-2396,-6792,10934,2754,5476,2025-02-17 10:17:13,0.0
-11392,-3044,-6516,10430,2043,5613,2025-02-17 10:17:13,0.0
-11912,-3692,-6092,10333,1654,6013,2025-02-17 10:17:13,0.0
-11968,-3680,-6060,10750,1463,6508,2025-02-17 10:17:13,0.0
-12136,-3088,-6092,10905,1122,6993,2025-02-17 10:17:13,0.0
-11352,-2736,-6360,11088,773,7399,2025-02-17 10:17:13,0.0
-11084,-2492,-6752,11140,474,7537,2025-02-17 10:17:13,0.0
-11016,-2400,-6928,11249,524,7810,2025-02-17 10:17:13,0.0
-10928,-2672,-7036,11371,914,8156,2025-02-17 10:17:13,0.0
-10964,-2580,-7168,11395,1347,8083,2025-02-17 10:17:13,0.0
-11724,-2048,-6984,11386,1807,7964,2025-02-17 10:17:13,0.0
-11292,-2076,-6888,11557,1595,8040,2025-02-17 10:17:13,0.0
-11392,-2204,-7696,11865,1353,7851,2025-02-17 10:17:13,0.0
-11660,-2480,-7776,11657,259,7321,2025-02-17 10:17:13,0.0
-11756,-2728,-7704,11331,-223,7056,2025-02-17 10:17:13,0.0
-11712,-2712,-7096,11709,-47,7261,2025-02-17 10:17:13,0.0
-11592,-1916,-7092,12007,341,7695,2025-02-17 10:17:14,0.0
-11544,-692,-7352,11710,482,8043,2025-02-17 10:17:14,0.0
-11108,-784,-7784,11137,502,7915,2025-02-17 10:17:14,0.0
-11156,-828,-8068,10704,350,7568,2025-02-17 10:17:14,0.0
-11064,-1000,-8448,10383,384,7223,2025-02-17 10:17:14,0.0
-11052,-800,-8328,10226,538,6845,2025-02-17 10:17:14,0.0
-11172,-524,-7960,10093,673,6353,2025-02-17 10:17:14,0.0
-11804,-12,-7840,9892,1780,5989,2025-02-17 10:17:14,0.0
-12248,240,-7996,9710,3751,5379,2025-02-17 10:17:14,0.0
-12956,608,-8016,8912,4278,4785,2025-02-17 10:17:14,0.0
-13364,712,-8336,7659,3077,4863,2025-02-17 10:17:14,0.0
-12280,1032,-8396,6758,-383,5259,2025-02-17 10:17:14,0.0
-11012,572,-8416,5782,-4672,4739,2025-02-17 10:17:14,0.0
-11352,-120,-7852,5022,-7256,4050,2025-02-17 10:17:14,0.0
-11976,-1152,-5944,4671,-8324,3856,2025-02-17 10:17:14,0.0
-11976,-1292,-2272,5043,-3539,4196,2025-02-17 10:17:14,0.0
-9996,-1592,-3344,6794,551,4234,2025-02-17 10:17:14,0.0
-10592,-436,-4956,7248,1802,4309,2025-02-17 10:17:14,0.0
-11188,940,-5448,7611,3109,4180,2025-02-17 10:17:14,0.0
-11876,1184,-5824,7458,3537,3851,2025-02-17 10:17:14,0.0
-12756,964,-5552,7130,2659,3633,2025-02-17 10:17:14,0.0
-13020,540,-5068,6976,1331,3548,2025-02-17 10:17:14,0.0
-12984,588,-4708,7141,22,3604,2025-02-17 10:17:14,0.0
-12468,964,-4936,7294,-683,3624,2025-02-17 10:17:14,0.0
-11816,1544,-5320,7319,-646,3439,2025-02-17 10:17:14,0.0
-11252,1392,-5844,7217,-480,3044,2025-02-17 10:17:14,0.0
-11144,1004,-5680,7087,85,2853,2025-02-17 10:17:14,0.0
-11552,44,-5152,7048,1249,2677,2025-02-17 10:17:14,0.0
-12096,424,-5008,6973,1632,2578,2025-02-17 10:17:14,0.0
-12460,1036,-5260,6771,1826,2412,2025-02-17 10:17:14,0.0
-12276,1472,-6028,6692,1726,2134,2025-02-17 10:17:14,0.0
-11884,1556,-7408,6556,1627,1915,2025-02-17 10:17:14,0.0
-11124,1260,-8436,6114,1503,1674,2025-02-17 10:17:14,0.0
-11224,444,-7876,5838,832,1363,2025-02-17 10:17:14,0.0
-12052,-312,-6612,5872,194,1260,2025-02-17 10:17:14,0.0
-12900,-796,-6048,5719,-19,1510,2025-02-17 10:17:14,0.0
-12600,-1236,-5364,5570,-169,1478,2025-02-17 10:17:14,0.0
-12372,-1592,-6840,5479,-279,1249,2025-02-17 10:17:14,0.0
-12332,-1420,-6916,5378,-734,1522,2025-02-17 10:17:14,0.0
-11728,-652,-7124,5373,-2203,1677,2025-02-17 10:17:14,0.0
-10888,368,-7484,4203,-4859,1242,2025-02-17 10:17:14,0.0
-10784,872,-6872,3298,-5993,323,2025-02-17 10:17:14,0.0
-11512,476,-5116,2316,-4134,-269,2025-02-17 10:17:14,0.0
-10156,-868,-5536,2666,253,-255,2025-02-17 10:17:14,0.0
-9560,-1580,-7272,2341,2927,-318,2025-02-17 10:17:14,0.0
-9568,-2592,-6396,1763,4936,-998,2025-02-17 10:17:14,0.0
-11640,-2872,-4624,1952,6742,-1232,2025-02-17 10:17:14,0.0
-12956,-2896,-5040,2205,7601,-870,2025-02-17 10:17:14,0.0
-13580,-3048,-6048,2115,7677,-613,2025-02-17 10:17:14,0.0
-13540,-3296,-6064,2007,7135,-456,2025-02-17 10:17:14,0.0
-13440,-2968,-6288,2210,4812,31,2025-02-17 10:17:14,0.0
-13008,-2492,-6636,2182,1111,963,2025-02-17 10:17:14,0.0
-12284,-1712,-6284,2009,-2673,1409,2025-02-17 10:17:14,0.0
-12064,-1144,-5936,1769,-5673,1551,2025-02-17 10:17:14,0.0
-12280,-1000,-4500,1086,-5718,1860,2025-02-17 10:17:14,0.0
-9796,-2116,-5372,1917,473,1815,2025-02-17 10:17:15,0.0
-10120,-2668,-7568,2309,2732,1514,2025-02-17 10:17:15,0.0
-10800,-2192,-6892,2661,4625,1085,2025-02-17 10:17:15,0.0
-11892,-1656,-6164,3197,6276,383,2025-02-17 10:17:15,0.0
-13060,-1120,-5796,3077,7102,-81,2025-02-17 10:17:15,
-13332,-840,-6396,2588,6907,-153,2025-02-17 10:17:15,0.0
-13116,-700,-7632,2074,5755,155,2025-02-17 10:17:15,0.0
-12172,-772,-8456,1287,3607,412,2025-02-17 10:17:15,0.0
-11988,-872,-8404,518,913,485,2025-02-17 10:17:15,0.0
-12012,-1204,-8024,44,-1989,371,2025-02-17 10:17:15,0.0
-11908,-1380,-8144,-495,-5562,370,2025-02-17 10:17:15,0.0
-11928,-1588,-7564,-1147,-8255,368,2025-02-17 10:17:15,0.0
-12476,-2232,-6452,-1408,-9806,495,2025-02-17 10:17:15,0.0
-12672,-3144,-3548,-1683,-9265,743,2025-02-17 10:17:15,0.0
-10444,-3696,-2604,-914,-4027,995,2025-02-17 10:17:15,0.0
-10060,-3564,-4416,-31,-669,746,2025-02-17 10:17:15,0.0
-10728,-2952,-4252,197,1155,399,2025-02-17 10:17:15,0.0
-12008,-2852,-4332,809,2032,-284,2025-02-17 10:17:15,0.0
-13860,-2140,-5104,1259,1498,-731,2025-02-17 10:17:15,0.0
-14284,-628,-5796,900,-594,-943,2025-02-17 10:17:15,0.0
-13616,92,-5464,108,-2216,-1228,2025-02-17 10:17:15,0.0
-12308,-176,-4444,-490,-2676,-1867,2025-02-17 10:17:15,0.0
-11516,-484,-4240,-765,-2390,-2238,2025-02-17 10:17:15,0.0
-11044,-1152,-4932,-1067,-1241,-2420,2025-02-17 10:17:15,0.0
-11440,-1108,-4984,-1538,229,-2640,2025-02-17 10:17:15,0.0
-12052,-1156,-4212,-1954,1187,-2760,2025-02-17 10:17:15,0.0
-12936,-1420,-3428,-2395,1022,-2714,2025-02-17 10:17:15,0.0
-13136,-1460,-2960,-2584,487,-2528,2025-02-17 10:17:15,0.0
-12696,-1396,-3016,-2729,47,-2375,2025-02-17 10:17:15,0.0
-12000,-1824,-3160,-2902,-128,-2397,2025-02-17 10:17:15,0.0
-11788,-2156,-3320,-3071,46,-2307,2025-02-17 10:17:15,0.0
-11784,-2108,-3508,-3289,546,-2152,2025-02-17 10:17:15,0.0
-11808,-1536,-3744,-3559,1268,-2218,2025-02-17 10:17:15,0.0
-12208,-1312,-4008,-3917,1572,-2616,2025-02-17 10:17:15,0.0
-12896,-1768,-3744,-4153,1406,-2979,2025-02-17 10:17:15,0.0
-13444,-2144,-3240,-4006,981,-2969,2025-02-17 10:17:15,0.0
-13300,-2976,-3684,-4160,898,-3223,2025-02-17 10:17:15,0.0
-13392,-3412,-3652,-4179,974,-3736,2025-02-17 10:17:15,0.0
-13860,-3472,-4180,-4186,398,-4036,2025-02-17 10:17:15,0.0
-14052,-3368,-3288,-4436,-482,-4088,2025-02-17 10:17:15,0.0
-13556,-3396,-1668,-4353,-1311,-4108,2025-02-17 10:17:15,0.0
-12460,-4524,-3636,-4026,-1439,-4519,2025-02-17 10:17:15,0.0
-13424,-5268,-4864,-3477,244,-5121,2025-02-17 10:17:15,0.0
-14880,-7152,-4984,-2196,3130,-5733,2025-02-17 10:17:15,0.0
-16852,-9600,-7692,-946,3961,-5135,2025-02-17 10:17:15,0.0
-18736,-9992,-8584,808,2350,-2196,2025-02-17 10:17:15,0.0
-17696,-7516,-9424,1939,-1136,489,2025-02-17 10:17:15,0.0
-16072,-3812,-9912,1516,-5406,1172,2025-02-17 10:17:15,0.0
-14992,-2444,-7228,663,-7663,1984,2025-02-17 10:17:15,0.0
-13176,-1936,-7816,469,-6739,3468,2025-02-17 10:17:15,0.0
-10736,-1568,-8612,-174,-6032,4722,2025-02-17 10:17:15,0.0
-8948,-1596,-8696,-179,-4387,4880,2025-02-17 10:17:15,0.0
-7960,-1220,-7628,55,-2529,4193,2025-02-17 10:17:15,0.0
-8304,-672,-6140,362,-1388,3424,2025-02-17 10:17:15,0.0
-9180,-188,-4956,573,-729,2967,2025-02-17 10:17:15,0.0
-10584,-644,-5260,591,-145,3090,2025-02-17 10:17:15,0.0
-12188,-1484,-6232,759,926,3525,2025-02-17 10:17:15,0.0
-12812,-2216,-6580,818,1516,4231,2025-02-17 10:17:15,0.0
-13636,-2396,-6712,1043,1646,4799,2025-02-17 10:17:15,0.0
-13268,-2224,-6188,1242,-264,4920,2025-02-17 10:17:15,0.0
-12704,-1368,-6084,1405,-2273,5178,2025-02-17 10:17:15,0.0
-11536,-328,-5736,1430,-3597,5634,2025-02-17 10:17:15,0.0
-9784,652,-5680,1373,-4260,5740,2025-02-17 10:17:15,0.0
-8824,976,-5000,1370,-3056,5207,2025-02-17 10:17:15,0.0
-8736,1100,-4592,1326,-1331,4479,2025-02-17 10:17:15,0.0
-9548,1304,-4128,1270,364,3835,2025-02-17 10:17:16,0.0
-10436,1160,-4256,1193,1404,3459,2025-02-17 10:17:16,0.0
-10968,860,-4312,1096,1540,2922,2025-02-17 10:17:16,0.0
-11620,596,-3984,1262,800,2251,2025-02-17 10:17:16,0.0
-11872,204,-4144,1251,-50,1734,2025-02-17 10:17:16,0.0
-11528,16,-4084,1178,-729,1227,2025-02-17 10:17:16,0.0
-11260,-240,-4052,1144,-908,837,2025-02-17 10:17:16,0.0
-10940,36,-3708,1235,-598,507,2025-02-17 10:17:16,0.0
-11460,128,-3512,1267,83,407,2025-02-17 10:17:16,0.0
-11984,204,-3308,1341,640,465,2025-02-17 10:17:16,0.0
-12624,412,-3288,1324,816,432,2025-02-17 10:17:16,0.0
-12532,524,-3456,1267,199,363,2025-02-17 10:17:16,0.0
-12624,796,-3672,1320,-402,175,2025-02-17 10:17:16,0.0
-12828,1128,-3436,1396,-813,-124,2025-02-17 10:17:16,0.0
-12876,996,-4040,1385,-984,-287,2025-02-17 10:17:16,0.0
-12904,544,-4424,1223,-677,-259,2025-02-17 10:17:16,0.0
-13248,112,-3848,1286,-37,-103,2025-02-17 10:17:16,0.0
-13440,-716,-3576,1716,551,266,2025-02-17 10:17:16,0.0
-13808,-1092,-3856,2210,1243,454,2025-02-17 10:17:16,0.0
-14376,-1448,-3472,2488,1544,461,2025-02-17 10:17:16,0.0
-15292,-1760,-2160,2859,761,568,2025-02-17 10:17:16,0.0
-15796,-1332,-1496,3352,-418,924,2025-02-17 10:17:16,0.0
-15860,668,-1836,3901,-1194,1446,2025-02-17 10:17:16,0.0
-15176,2208,-4128,4192,-353,2385,2025-02-17 10:17:16,0.0
-15012,1288,-6048,4158,1078,2620,2025-02-17 10:17:16,0.0
-15320,184,-6360,3737,2033,2251,2025-02-17 10:17:16,0.0
-15436,100,-6564,3081,1891,1638,2025-02-17 10:17:16,0.0
-14800,1452,-7888,2385,1239,1212,2025-02-17 10:17:16,0.0
-12376,2208,-9808,1801,-752,864,2025-02-17 10:17:16,0.0
-9192,2152,-11076,796,-3630,-269,2025-02-17 10:17:16,0.0
-8656,1444,-9372,-299,-7744,-2120,2025-02-17 10:17:16,0.0
-11164,612,-4664,-1965,-3599,-1904,2025-02-17 10:17:16,0.0
-9068,-876,-3820,-470,2510,-2043,2025-02-17 10:17:16,0.0
-10256,-1012,-7408,762,5502,-3074,2025-02-17 10:17:16,0.0
-12280,-844,-8284,-452,6255,-3501,2025-02-17 10:17:16,0.0
-12904,-932,-8224,-983,5964,-3570,2025-02-17 10:17:16,0.0
-13016,-788,-7580,-1053,3203,-3144,2025-02-17 10:17:16,0.0
-12084,-656,-7336,-971,-1425,-3022,2025-02-17 10:17:16,0.0
-10280,-932,-6772,-808,-4915,-3821,2025-02-17 10:17:16,0.0
-10512,-828,-5936,-841,-7604,-5222,2025-02-17 10:17:16,
-10884,-968,-3740,-690,-3521,-5053,2025-02-17 10:17:16,0.0
-9828,-1796,-4560,-279,-797,-4147,2025-02-17 10:17:16,0.0
-9616,-2188,-5348,-633,962,-3589,2025-02-17 10:17:16,0.0
-9876,-2276,-4428,-894,2807,-3391,2025-02-17 10:17:16,0.0
-10912,-2324,-4128,-961,3475,-3215,2025-02-17 10:17:16,0.0
-11964,-2280,-4340,-1153,2180,-2895,2025-02-17 10:17:16,0.0
-12248,-2164,-4244,-1188,932,-2028,2025-02-17 10:17:16,0.0
-11860,-2044,-3996,-1300,933,-1228,2025-02-17 10:17:16,0.0
-11468,-2000,-3436,-1341,1169,-801,2025-02-17 10:17:16,0.0
-11180,-2044,-3764,-1440,1772,-656,2025-02-17 10:17:16,0.0
-11444,-2180,-3888,-1660,2103,-575,2025-02-17 10:17:16,0.0
-12068,-1964,-3632,-1776,1934,-400,2025-02-17 10:17:16,0.0
-12120,-1660,-3376,-1761,1726,-168,2025-02-17 10:17:16,0.0
-12264,-1236,-3412,-1824,1689,28,2025-02-17 10:17:16,0.0
-12424,-1344,-3260,-1954,1484,-22,2025-02-17 10:17:16,0.0
-12164,-1532,-3760,-2172,1130,-89,2025-02-17 10:17:16,0.0
-12200,-1924,-4516,-2528,1034,-459,2025-02-17 10:17:16,0.0
-12460,-2108,-4416,-2782,1184,-1016,2025-02-17 10:17:16,0.0
-12740,-1692,-5020,-3116,1197,-1400,2025-02-17 10:17:16,0.0
-12664,-1192,-5176,-3109,928,-1606,2025-02-17 10:17:16,0.0
-12220,-1424,-5496,-2948,861,-2107,2025-02-17 10:17:16,0.0
-12124,-2668,-5948,-3226,1481,-3371,2025-02-17 10:17:16,0.0
-13372,-3064,-4680,-3451,1477,-4344,2025-02-17 10:17:16,0.0
-14924,-2440,-3744,-3304,634,-4201,2025-02-17 10:17:17,0.0
-15664,-2656,-4668,-3565,242,-3407,2025-02-17 10:17:17,0.0
-15884,-3336,-6956,-4396,1904,-3031,2025-02-17 10:17:17,0.0
-15028,-4456,-7172,-4811,3627,-3452,2025-02-17 10:17:17,0.0
-16268,-5644,-5784,-3424,2966,-3650,2025-02-17 10:17:17,0.0
-17272,-6584,-5828,-2269,661,-2696,2025-02-17 10:17:17,0.0
-17692,-6236,-6236,-1280,-2124,-949,2025-02-17 10:17:17,0.0
-16092,-4604,-7596,-886,-4334,498,2025-02-17 10:17:17,0.0
-14488,-3308,-8652,-1129,-6546,883,2025-02-17 10:17:17,0.0
-13584,-3088,-8068,-1783,-8952,1071,2025-02-17 10:17:17,0.0
-11892,-3124,-5176,-1242,-10249,1507,2025-02-17 10:17:17,0.0
-8828,-2088,-6572,-439,-9200,1778,2025-02-17 10:17:17,0.0
-7352,-128,-6460,-417,-5730,1956,2025-02-17 10:17:17,0.0
-7140,1332,-5216,82,-1126,1911,2025-02-17 10:17:17,0.0
-7796,1720,-5328,463,3759,1433,2025-02-17 10:17:17,0.0
-9404,572,-6428,62,7735,251,2025-02-17 10:17:17,0.0
-13760,-1236,-6012,-385,8895,-209,2025-02-17 10:17:17,0.0
-16656,-2860,-5768,-54,5973,1367,2025-02-17 10:17:17,0.0
-16544,-2932,-6220,794,1895,3075,2025-02-17 10:17:17,0.0
-14832,-2476,-8024,901,-1954,4033,2025-02-17 10:17:17,0.0
-13752,-1328,-8176,495,-5573,4661,2025-02-17 10:17:17,0.0
-12052,0,-4280,161,-7249,5234,2025-02-17 10:17:17,0.0
-9500,-76,-3776,417,-5160,5307,2025-02-17 10:17:17,0.0
-7792,160,-4224,904,-3215,4667,2025-02-17 10:17:17,0.0
-7528,836,-3956,1391,-990,3916,2025-02-17 10:17:17,0.0
-8456,1504,-4032,1461,1071,3052,2025-02-17 10:17:17,0.0
-9568,1528,-4348,870,1904,2413,2025-02-17 10:17:17,0.0
-10536,1240,-3912,424,1885,1870,2025-02-17 10:17:17,0.0
-11316,820,-3676,502,1377,1295,2025-02-17 10:17:17,0.0
-11208,716,-3644,461,811,776,2025-02-17 10:17:17,0.0
-10840,388,-3256,332,121,-101,2025-02-17 10:17:17,0.0
-10688,412,-2420,212,-107,-888,2025-02-17 10:17:17,0.0
-10816,84,-2320,287,-18,-1347,2025-02-17 10:17:17,0.0
-11348,-664,-2348,539,511,-1704,2025-02-17 10:17:17,0.0
-12568,-1340,-2476,885,1069,-1738,2025-02-17 10:17:17,0.0
-13984,-1264,-2684,1230,1236,-1378,2025-02-17 10:17:17,0.0
-15252,-548,-3392,1996,479,321,2025-02-17 10:17:17,0.0
-14716,-788,-4416,2192,-672,1157,2025-02-17 10:17:17,0.0
-14396,-616,-4440,2230,-1098,1535,2025-02-17 10:17:17,0.0
-14340,604,-4504,2474,166,2035,2025-02-17 10:17:17,0.0
-15120,1616,-4856,2866,2468,2833,2025-02-17 10:17:17,0.0
-14872,652,-5112,2781,2707,3204,2025-02-17 10:17:17,0.0
-15760,-768,-4680,2903,1831,2700,2025-02-17 10:17:17,0.0
-18364,-1088,-4660,3378,1788,3152,2025-02-17 10:17:17,0.0
-17536,1416,-5264,3980,1729,4335,2025-02-17 10:17:17,0.0
-13464,3028,-7592,3512,852,3386,2025-02-17 10:17:17,0.0
-12388,4236,-9040,2483,128,705,2025-02-17 10:17:17,0.0
-12736,3408,-9700,1016,128,-1606,2025-02-17 10:17:17,0.0
-12972,2556,-9360,545,-1189,-2229,2025-02-17 10:17:17,0.0
-10872,480,-9228,138,-4197,-2623,2025-02-17 10:17:17,0.0
-9116,-1512,-8864,-28,-7497,-3479,2025-02-17 10:17:17,0.0
-9564,-3460,-6756,-974,-9757,-3982,2025-02-17 10:17:17,0.0
-9464,-4168,-2904,-680,-2459,-2606,2025-02-17 10:17:17,0.0
-8300,-4696,-5532,1531,2653,-1765,2025-02-17 10:17:17,0.0
-9180,-2632,-7944,2044,5481,-1429,2025-02-17 10:17:17,0.0
-10272,-1168,-6872,1937,7694,-1897,2025-02-17 10:17:17,0.0
-11964,-840,-5808,1924,8472,-2705,2025-02-17 10:17:17,0.0
-14184,-672,-5760,1540,7859,-3070,2025-02-17 10:17:17,0.0
-14384,-904,-6524,1115,4435,-2938,2025-02-17 10:17:17,0.0
-12776,-1688,-7260,1036,-357,-2910,2025-02-17 10:17:17,0.0
-10616,-2072,-7508,1265,-6527,-3234,2025-02-17 10:17:18,0.0
-10172,-2448,-7008,887,-11145,-3803,2025-02-17 10:17:18,0.0
-12204,-2356,248,400,-7590,-3338,2025-02-17 10:17:18,0.0
-9268,-2872,-5020,1010,65,-949,2025-02-17 10:17:18,0.0
-7608,-2676,-5628,769,1604,-1120,2025-02-17 10:17:18,0.0
-9240,-2632,-5212,455,3257,-1198,2025-02-17 10:17:18,0.0
-10916,-2608,-4648,329,4273,-684,2025-02-17 10:17:18,0.0
-11972,-2200,-4584,139,4419,-136,2025-02-17 10:17:18,0.0
-12748,-1972,-4948,-177,3505,283,2025-02-17 10:17:18,0.0
-12860,-1720,-5248,-551,1945,763,2025-02-17 10:17:18,0.0
-12232,-1624,-5116,-917,664,927,2025-02-17 10:17:18,0.0
-11956,-1188,-4508,-1048,732,1010,2025-02-17 10:17:18,0.0
-11776,-1112,-3484,-1314,1862,1080,2025-02-17 10:17:18,0.0
-11580,-1248,-4140,-1604,3275,805,2025-02-17 10:17:18,0.0
-11432,-1556,-5740,-1779,4114,-47,2025-02-17 10:17:18,0.0
-12220,-1840,-6436,-1789,3697,-910,2025-02-17 10:17:18,0.0
-13572,-1956,-5812,-1981,2596,-1365,2025-02-17 10:17:18,
-14232,-2116,-5200,-2425,1334,-1572,2025-02-17 10:17:18,0.0
-13956,-2596,-5016,-2763,-273,-1878,2025-02-17 10:17:18,0.0
-13888,-2736,-5016,-2845,-2866,-2252,2025-02-17 10:17:18,0.0
-13624,-2504,-5132,-2937,-6669,-2130,2025-02-17 10:17:18,0.0
-13316,-2076,-2644,-3349,-6373,-2212,2025-02-17 10:17:18,0.0
-11788,-2424,-2984,-3013,-3991,-2317,2025-02-17 10:17:18,0.0
-10712,-2724,-4648,-3219,-3208,-2478,2025-02-17 10:17:18,0.0
-10472,-3788,-5028,-3540,-1803,-2602,2025-02-17 10:17:18,0.0
-11756,-4372,-6344,-3837,1225,-2438,2025-02-17 10:17:18,0.0
-13392,-4576,-5472,-3623,3519,-2225,2025-02-17 10:17:18,0.0
-15272,-4364,-4768,-3023,3938,-2450,2025-02-17 10:17:18,0.0
-16028,-4724,-4700,-2440,2800,-1964,2025-02-17 10:17:18,0.0
-15348,-5060,-5612,-1647,822,-1087,2025-02-17 10:17:18,0.0
-14092,-4384,-7568,-1130,-1738,-185,2025-02-17 10:17:18,0.0
-12420,-2424,-9376,-1418,-4568,362,2025-02-17 10:17:18,0.0
-12128,-900,-8656,-2202,-6310,357,2025-02-17 10:17:18,0.0
-12384,-40,-6388,-2732,-7806,310,2025-02-17 10:17:18,0.0
-12476,-364,-3584,-1742,-3844,257,2025-02-17 10:17:18,0.0
-11872,-308,-4608,-1811,-983,696,2025-02-17 10:17:18,0.0
-11700,-984,-5080,-1844,64,568,2025-02-17 10:17:18,0.0
-13284,-868,-5408,-1297,779,529,2025-02-17 10:17:18,0.0
-14672,-480,-6352,-1445,1932,1420,2025-02-17 10:17:18,0.0
-14576,-600,-6440,-1631,2632,2060,2025-02-17 10:17:18,0.0
-13824,-820,-6604,-1805,1810,2018,2025-02-17 10:17:18,0.0
-13336,-680,-7152,-2166,-198,1885,2025-02-17 10:17:18,0.0
-12360,-416,-7352,-2533,-2942,1845,2025-02-17 10:17:18,0.0
-11168,0,-6492,-2478,-6855,1710,2025-02-17 10:17:18,0.0
-10524,296,-5372,-2168,-10866,1500,2025-02-17 10:17:18,0.0
-11512,40,-36,-1179,-7911,1310,2025-02-17 10:17:18,0.0
-9028,452,-2812,-1393,-1787,1808,2025-02-17 10:17:18,0.0
-8944,516,-4244,-1404,1347,1266,2025-02-17 10:17:18,0.0
-10728,256,-4572,-1082,3531,872,2025-02-17 10:17:18,0.0
-12444,-88,-4512,-1206,4820,946,2025-02-17 10:17:18,0.0
-13252,-96,-3972,-1002,4241,860,2025-02-17 10:17:18,0.0
-13552,4,-3976,-681,2147,731,2025-02-17 10:17:18,0.0
-12984,-148,-4864,-555,59,449,2025-02-17 10:17:18,0.0
-12608,-36,-4480,-552,-1580,354,2025-02-17 10:17:18,0.0
-12172,360,-3676,-341,-127,664,2025-02-17 10:17:18,0.0
-11692,708,-3952,-307,620,687,2025-02-17 10:17:18,0.0
-11864,904,-3780,-264,1196,607,2025-02-17 10:17:18,0.0
-12244,872,-3812,-119,1445,447,2025-02-17 10:17:18,0.0
-12408,604,-3688,-75,1311,245,2025-02-17 10:17:19,0.0
-12484,432,-3388,36,991,151,2025-02-17 10:17:19,0.0
-12104,280,-3196,-7,812,-65,2025-02-17 10:17:19,0.0
-12032,68,-3500,71,683,-457,2025-02-17 10:17:19,0.0
-11788,-272,-4020,-127,763,-966,2025-02-17 10:17:19,0.0
-12292,-480,-4712,-448,1336,-1374,2025-02-17 10:17:19,0.0
-13512,-452,-4972,-269,2489,-1179,2025-02-17 10:17:19,0.0
-13952,-608,-6020,-254,3264,-574,2025-02-17 10:17:19,0.0
-14144,-940,-4976,-299,3197,-252,2025-02-17 10:17:19,0.0
-14072,-1264,-4088,143,1683,109,2025-02-17 10:17:19,0.0
-13876,-1408,-4072,615,-330,539,2025-02-17 10:17:19,0.0
-13356,-428,-3868,1311,-2615,865,2025-02-17 10:17:19,0.0
-12664,288,-3032,1684,-2542,659,2025-02-17 10:17:19,0.0
-11696,588,-5348,1162,96,437,2025-02-17 10:17:19,0.0
-11192,68,-5616,709,1116,189,2025-02-17 10:17:19,0.0
-11420,-724,-5388,431,2101,-64,2025-02-17 10:17:19,0.0
-12156,-1300,-4616,424,2808,-133,2025-02-17 10:17:19,0.0
-12996,-812,-4044,831,2728,183,2025-02-17 10:17:19,0.0
-12528,-488,-4636,883,2347,32,2025-02-17 10:17:19,0.0
-11624,-164,-6296,205,1879,-656,2025-02-17 10:17:19,0.0
-11220,-464,-6340,-690,1629,-1432,2025-02-17 10:17:19,0.0
-11256,-900,-5920,-1520,2273,-1665,2025-02-17 10:17:19,0.0
-12468,504,-7424,-6192,4621,-193,2025-02-17 10:17:19,0.0
-12060,-1348,6296,-5557,10381,2378,2025-02-17 10:17:19,0.0
-9264,-936,2124,-4751,32767,2872,2025-02-17 10:17:19,0.0
-4356,-236,1252,-4497,32767,2705,2025-02-17 10:17:19,0.0
60,-428,2520,-4557,32767,1782,2025-02-17 10:17:19,0.0
-4104,-408,2364,-4555,32767,2206,2025-02-17 10:17:19,0.0
-2408,-388,2092,-4083,32767,1889,2025-02-17 10:17:19,0.0
-1888,-480,528,-4251,32767,1440,2025-02-17 10:17:19,0.0
2912,-556,2212,-5748,32767,1387,2025-02-17 10:17:19,0.0
2196,-504,2736,-6105,32767,818,2025-02-17 10:17:19,0.0
2072,-532,2888,-6066,32767,648,2025-02-17 10:17:19,0.0
1896,-388,2724,-5868,32767,632,2025-02-17 10:17:19,0.0
2112,-368,2772,-5733,32767,569,2025-02-17 10:17:19,0.0
2140,-300,2792,-5578,32767,414,2025-02-17 10:17:19,0.0
2152,-260,2780,-5371,32767,277,2025-02-17 10:17:19,0.0
2300,-228,2744,-5044,32767,174,2025-02-17 10:17:19,0.0
2392,-244,2860,-4547,32767,75,2025-02-17 10:17:19,0.0
2316,-220,2900,-3812,32767,32,2025-02-17 10:17:19,0.0
2484,-200,2964,-3033,32767,-26,2025-02-17 10:17:19,0.0
2828,-248,3008,-2230,32767,-210,2025-02-17 10:17:19,0.0
2624,-176,3308,-1448,32767,-605,2025-02-17 10:17:19,0.0
2896,-236,3156,-672,32767,-1086,2025-02-17 10:17:19,0.0
2620,-60,3352,222,32767,-1499,2025-02-17 10:17:19,0.0
2624,28,3420,1159,32767,-1693,2025-02-17 10:17:19,0.0
2556,180,3816,2184,32767,-1580,2025-02-17 10:17:19,0.0
2560,160,4164,3393,32767,-1137,2025-02-17 10:17:19,0.0
3028,328,5524,4634,32767,-1042,2025-02-17 10:17:19,0.0
32767,12160,32767,32767,32767,-32768,2025-02-17 10:17:19,0.0
32767,32767,-3220,-32768,32767,-5363,2025-02-17 10:17:19,0.0
2708,32767,32767,-4748,32767,-3908,2025-02-17 10:17:19,0.0
1392,6344,20584,12758,31613,-1869,2025-02-17 10:17:19,0.0
-3236,676,8312,14284,23579,1337,2025-02-17 10:17:19,0.0
212,260,2316,14651,26882,1446,2025-02-17 10:17:19,0.0
-1676,516,1484,14601,32363,2186,2025-02-17 10:17:19,0.0
-2132,300,872,13103,32767,2434,2025-02-17 10:17:19,0.0
-1736,168,-1740,8424,32767,2354,2025-02-17 10:17:19,0.0
-1816,1128,-2556,78,32767,3856,2025-02-17 10:17:19,
-1660,2320,-1084,-7832,32767,4801,2025-02-17 10:17:19,0.0
128,3368,-1036,-16983,25756,3659,2025-02-17 10:17:19,0.0
300,5692,760,-26858,13967,2309,2025-02-17 10:17:19,0.0
-452,7308,5040,-32768,-718,1651,2025-02-17 10:17:19,0.0
-1924,11356,25268,-32768,-17041,2220,2025-02-17 10:17:20,0.0
-3256,15024,32767,-17001,-25850,1522,2025-02-17 10:17:20,0.0
5096,104,32767,1440,-31054,-2185,2025-02-17 10:17:20,0.0
6032,-4436,28740,8142,-24016,-3455,2025-02-17 10:17:20,0.0
6396,1556,17520,9287,-17019,-3153,2025-02-17 10:17:20,0.0
5424,4104,11204,9507,-11046,-3352,2025-02-17 10:17:20,0.0
4868,5592,7860,6236,-7521,-3672,2025-02-17 10:17:20,0.0
3188,7220,9296,1556,-5414,-3083,2025-02-17 10:17:20,0.0
2132,9024,13828,-1387,-1170,-1251,2025-02-17 10:17:20,0.0
3296,8236,17632,-2700,4127,794,2025-02-17 10:17:20,0.0
5172,4128,18484,-3417,6172,516,2025-02-17 10:17:20,0.0
5228,3764,19336,-1881,6236,-263,2025-02-17 10:17:20,0.0
3560,5000,18780,-822,4337,-463,2025-02-17 10:17:20,0.0
2452,5448,17872,-633,2538,-508,2025-02-17 10:17:20,0.0
1800,5300,17984,-471,1099,-190,2025-02-17 10:17:20,0.0
2824,4592,18104,-19,-772,-80,2025-02-17 10:17:20,0.0
3664,5048,17760,215,-1497,-80,2025-02-17 10:17:20,0.0
4112,5240,17412,120,-879,-146,2025-02-17 10:17:20,0.0
4084,5376,17196,-114,313,-217,2025-02-17 10:17:20,0.0
3584,5168,17160,-423,1188,-177,2025-02-17 10:17:20,0.0
3232,4804,17956,-300,949,-183,2025-02-17 10:17:20,0.0
3076,5104,17788,-89,64,-214,2025-02-17 10:17:20,0.0
3388,5132,17572,-123,-244,-151,2025-02-17 10:17:20,0.0
3724,4964,17696,-112,-94,-148,2025-02-17 10:17:20,0.0
3828,5092,17696,-111,232,-155,2025-02-17 10:17:20,0.0
3612,5172,17488,-189,328,-172,2025-02-17 10:17:20,0.0
3484,4928,17568,-190,273,-189,2025-02-17 10:17:20,0.0
3464,5008,17776,-125,170,-182,2025-02-17 10:17:20,0.0
3296,5044,17576,-148,156,-176,2025-02-17 10:17:20,0.0
3376,5156,17716,-143,102,-164,2025-02-17 10:17:20,0.0
3128,4988,17568,-174,244,-150,2025-02-17 10:17:20,0.0
3484,5152,17580,-164,301,-173,2025-02-17 10:17:20,0.0
3484,5000,17568,-195,181,-216,2025-02-17 10:17:20,0.0
3596,5052,17960,-139,82,-198,2025-02-17 10:17:20,0.0
3484,5164,17740,-153,116,-191,2025-02-17 10:17:20,0.0
3412,5080,17676,-183,252,-173,2025-02-17 10:17:20,0.0
3392,5072,17676,-154,211,-169,2025-02-17 10:17:20,0.0
3532,5056,17708,-116,163,-187,2025-02-17 10:17:20,0.0
3408,5108,17548,-156,191,-157,2025-02-17 10:17:20,0.0
3440,5012,17468,-171,178,-175,2025-02-17 10:17:20,0.0
3596,5032,17680,-131,169,-215,2025-02-17 10:17:20,0.0
3512,5152,17584,-129,159,-193,2025-02-17 10:17:20,0.0
3548,4992,17496,-159,172,-189,2025-02-17 10:17:20,0.0
3560,5152,17644,-131,194,-192,2025-02-17 10:17:20,0.0
3520,5056,17668,-159,176,-192,2025-02-17 10:17:20,0.0
3560,5028,17516,-137,151,-184,2025-02-17 10:17:20,0.0
3464,5028,17508,-170,152,-166,2025-02-17 10:17:20,0.0
3516,5092,17608,-159,189,-183,2025-02-17 10:17:20,0.0
3524,5060,17540,-142,236,-175,2025-02-17 10:17:20,0.0
3492,5036,17616,-164,140,-165,2025-02-17 10:17:20,0.0
3504,5060,17552,-149,146,-184,2025-02-17 10:17:20,0.0
3492,5076,17604,-145,189,-173,2025-02-17 10:17:20,0.0
3528,5104,17624,-151,212,-172,2025-02-17 10:17:20,0.0
3564,5036,17636,-178,135,-172,2025-02-17 10:17:20,0.0
3420,5128,17696,-162,190,-186,2025-02-17 10:17:20,0.0
3408,5144,17728,-173,174,-172,2025-02-17 10:17:20,0.0
3404,5068,17588,-142,207,-184,2025-02-17 10:17:20,0.0
3560,5168,17680,-170,165,-167,2025-02-17 10:17:20,0.0
3528,4984,17716,-140,196,-168,2025-02-17 10:17:20,0.0
3404,5104,17636,-160,194,-187,2025-02-17 10:17:20,0.0
3568,5076,17572,-146,158,-162,2025-02-17 10:17:20,0.0
3428,5052,17708,-173,159,-163,2025-02-17 10:17:21,0.0
3452,5020,17652,-149,216,-177,2025-02-17 10:17:21,0.0
3412,5080,17552,-137,176,-159,2025-02-17 10:17:21,0.0
3424,5056,17636,-143,159,-164,2025-02-17 10:17:21,0.0
3508,5068,17592,-177,180,-170,2025-02-17 10:17:21,0.0
3480,5064,17772,-139,186,-195,2025-02-17 10:17:21,0.0
3544,5076,17772,-151,181,-173,2025-02-17 10:17:21,0.0
3492,5012,17564,-164,195,-172,2025-02-17 10:17:21,0.0
3372,5144,17732,-156,187,-165,2025-02-17 10:17:21,0.0
3552,4992,17444,-145,178,-181,2025-02-17 10:17:21,0.0
3480,4976,17668,-163,180,-191,2025-02-17 10:17:21,0.0
3472,5068,17600,-168,176,-181,2025-02-17 10:17:21,0.0
3484,5108,17652,-157,187,-178,2025-02-17 10:17:21,0.0
3508,5092,17600,-153,206,-179,2025-02-17 10:17:21,0.0
3464,5072,17696,-166,176,-165,2025-02-17 10:17:21,0.0
3500,4960,17620,-153,183,-174,2025-02-17 10:17:21,0.0
3404,5116,17616,-161,177,-175,2025-02-17 10:17:21,0.0
3516,4996,17596,-154,181,-181,2025-02-17 10:17:21,0.0
3492,5104,17624,-163,178,-176,2025-02-17 10:17:21,0.0
3504,5072,17692,-155,192,-188,2025-02-17 10:17:21,0.0
3572,4976,17556,-198,118,-188,2025-02-17 10:17:21,0.0
3424,5176,17604,-156,197,-189,2025-02-17 10:17:21,0.0
3456,5032,17684,-164,224,-162,2025-02-17 10:17:21,0.0
3496,5084,17792,-114,138,-144,2025-02-17 10:17:21,0.0
3452,5132,17504,-124,154,-194,2025-02-17 10:17:21,0.0
3692,4948,17684,-194,202,-188,2025-02-17 10:17:21,0.0
3552,5080,17772,-121,203,-172,2025-02-17 10:17:21,0.0
3492,5068,17348,-153,172,-168,2025-02-17 10:17:21,0.0
3524,5112,17600,-167,163,-197,2025-02-17 10:17:21,0.0
3536,5028,17600,-115,197,-174,2025-02-17 10:17:21,0.0
3436,5076,17496,-156,230,-189,2025-02-17 10:17:21,0.0
3228,5044,17780,-164,185,-154,2025-02-17 10:17:21,0.0
3396,5104,17560,-147,160,-167,2025-02-17 10:17:21,0.0
3472,5160,17568,-153,188,-172,2025-02-17 10:17:21,0.0
3372,5084,17632,-143,215,-167,2025-02-17 10:17:21,
3576,5084,17724,-145,164,-189,2025-02-17 10:17:21,0.0
3568,5004,17672,-145,162,-184,2025-02-17 10:17:21,0.0
3512,5012,17652,-161,204,-189,2025-02-17 10:17:21,0.0
3508,5112,17736,-140,172,-166,2025-02-17 10:17:21,0.0
3424,5036,17548,-158,167,-174,2025-02-17 10:17:21,0.0
3500,4976,17676,-151,173,-176,2025-02-17 10:17:21,0.0
3592,4980,17608,-160,169,-169,2025-02-17 10:17:21,0.0
3504,5112,17744,-147,189,-180,2025-02-17 10:17:21,0.0
3584,5064,17460,-145,157,-167,2025-02-17 10:17:21,0.0
3472,5008,17660,-139,207,-176,2025-02-17 10:17:21,0.0
3472,5116,17680,-167,190,-179,2025-02-17 10:17:21,0.0
3496,5164,17424,-154,176,-162,2025-02-17 10:17:21,0.0
3468,5088,17556,-171,178,-184,2025-02-17 10:17:21,0.0
3504,5020,17572,-160,174,-169,2025-02-17 10:17:21,0.0
3468,5044,17652,-171,187,-178,2025-02-17 10:17:21,0.0
3508,5052,17548,-150,155,-185,2025-02-17 10:17:21,0.0
3452,5024,17500,-149,205,-170,2025-02-17 10:17:21,0.0
3500,5084,17660,-154,170,-159,2025-02-17 10:17:21,0.0
3448,5004,17716,-166,177,-179,2025-02-17 10:17:21,0.0
3480,5120,17612,-155,166,-161,2025-02-17 10:17:21,0.0
3448,5056,17584,-134,170,-171,2025-02-17 10:17:21,0.0
3456,4960,17828,-146,178,-188,2025-02-17 10:17:21,0.0
3564,5000,17556,-149,183,-184,2025-02-17 10:17:21,0.0
3524,5096,17488,-167,192,-160,2025-02-17 10:17:21,0.0
3572,4880,17524,-152,187,-165,2025-02-17 10:17:21,0.0
3428,5032,17768,-177,167,-187,2025-02-17 10:17:21,0.0
3492,4940,17636,-161,185,-172,2025-02-17 10:17:21,0.0
3388,4976,17456,-136,181,-198,2025-02-17 10:17:22,0.0
3556,5032,17584,-131,189,-175,2025-02-17 10:17:22,0.0
3388,5028,17724,-138,180,-172,2025-02-17 10:17:22,0.0
3496,5032,17636,-144,157,-180,2025-02-17 10:17:22,0.0
3440,4956,17580,-168,159,-192,2025-02-17 10:17:22,0.0
3432,5100,17540,-160,198,-168,2025-02-17 10:17:22,0.0
3652,5032,17544,-154,190,-182,2025-02-17 10:17:22,0.0
3468,5076,17784,-136,142,-157,2025-02-17 10:17:22,0.0
3620,5064,17260,-156,156,-182,2025-02-17 10:17:22,0.0
3392,5084,17788,-163,208,-186,2025-02-17 10:17:22,0.0
3528,5000,17696,-141,180,-179,2025-02-17 10:17:22,0.0
3424,5032,17568,-132,197,-174,2025-02-17 10:17:22,0.0
3604,5104,17632,-149,172,-187,2025-02-17 10:17:22,0.0
3532,5024,17564,-155,187,-202,2025-02-17 10:17:22,0.0
3600,5064,17652,-160,167,-178,2025-02-17 10:17:22,0.0
3480,5072,17632,-158,165,-186,2025-02-17 10:17:22,0.0
3476,5136,17596,-152,176,-175,2025-02-17 10:17:22,0.0
3500,5060,17612,-163,200,-203,2025-02-17 10:17:22,0.0
3468,5028,17480,-165,170,-193,2025-02-17 10:17:22,0.0
3432,5100,17604,-128,164,-164,2025-02-17 10:17:22,0.0
3520,5052,17488,-159,179,-185,2025-02-17 10:17:22,0.0
3436,4992,17560,-159,200,-159,2025-02-17 10:17:22,0.0
3532,5000,17404,-134,155,-176,2025-02-17 10:17:22,0.0
3496,5068,17528,-165,198,-181,2025-02-17 10:17:22,0.0
3500,5128,17452,-142,178,-184,2025-02-17 10:17:22,0.0
3436,5056,17468,-165,179,-180,2025-02-17 10:17:22,0.0
3464,5008,17732,-150,171,-171,2025-02-17 10:17:22,0.0
3436,5192,17492,-125,168,-175,2025-02-17 10:17:22,0.0
3484,5064,17628,-153,163,-186,2025-02-17 10:17:22,0.0
3600,5104,17488,-153,176,-172,2025-02-17 10:17:22,0.0
3536,4984,17564,-154,180,-167,2025-02-17 10:17:22,0.0
3568,5080,17708,-135,184,-181,2025-02-17 10:17:22,0.0
3464,4980,17740,-170,179,-174,2025-02-17 10:17:22,0.0
3448,5028,17620,-167,186,-182,2025-02-17 10:17:22,0.0
3516,5048,17472,-153,162,-186,2025-02-17 10:17:22,0.0
3564,5104,17664,-143,190,-170,2025-02-17 10:17:22,0.0
3584,5032,17604,-157,193,-178,2025-02-17 10:17:22,0.0
3464,5140,17552,-146,159,-175,2025-02-17 10:17:22,0.0
3496,5100,17532,-170,186,-191,2025-02-17 10:17:22,0.0
3524,5104,17488,-147,174,-188,2025-02-17 10:17:22,0.0
3528,5104,17464,-152,178,-180,2025-02-17 10:17:22,0.0
3588,5160,17568,-152,170,-164,2025-02-17 10:17:22,0.0
3484,5104,17588,-160,184,-170,2025-02-17 10:17:22,0.0
3468,5156,17536,-144,179,-181,2025-02-17 10:17:22,0.0
3540,5036,17608,-133,170,-188,2025-02-17 10:17:22,0.0
3496,5140,17576,-173,182,-177,2025-02-17 10:17:22,0.0
3528,5108,17572,-139,170,-186,2025-02-17 10:17:22,0.0
3620,5048,17520,-153,174,-158,2025-02-17 10:17:22,0.0
3496,5076,17544,-156,202,-167,2025-02-17 10:17:22,0.0
3424,5240,17608,-144,171,-175,2025-02-17 10:17:22,0.0
3388,5080,17584,-159,185,-175,2025-02-17 10:17:22,0.0
3404,5040,17440,-150,164,-184,2025-02-17 10:17:22,0.0
3496,5068,17620,-150,170,-190,2025-02-17 10:17:22,0.0
3560,5080,17680,-157,180,-170,2025-02-17 10:17:22,0.0
3488,5088,17516,-155,184,-175,2025-02-17 10:17:22,0.0
3488,4968,17784,-139,164,-183,2025-02-17 10:17:22,0.0
3492,5128,17724,-148,181,-184,2025-02-17 10:17:22,0.0
3464,5108,17760,-131,168,-181,2025-02-17 10:17:22,0.0
3556,5064,17648,-168,187,-160,2025-02-17 10:17:22,0.0
3496,5056,17452,-170,174,-174,2025-02-17 10:17:23,0.0
3500,5068,17492,-124,178,-173,2025-02-17 10:17:23,0.0
3528,4984,17384,-179,160,-182,2025-02-17 10:17:23,0.0
3488,5020,17608,-147,184,-176,2025-02-17 10:17:23,0.0
3608,5028,17616,-152,190,-187,2025-02-17 10:17:23,0.0
3384,5060,17640,-174,189,-166,2025-02-17 10:17:23,0.0
3372,4992,17756,-151,196,-181,2025-02-17 10:17:23,0.0
3512,5080,17640,-140,181,-178,2025-02-17 10:17:23,0.0
3436,5168,17632,-128,173,-164,2025-02-17 10:17:23,0.0
3452,5072,17664,-162,157,-180,2025-02-17 10:17:23,0.0
3528,5060,17508,-141,174,-176,2025-02-17 10:17:23,0.0
3592,4984,17692,-162,173,-159,2025-02-17 10:17:23,0.0
3568,4976,17676,-149,192,-158,2025-02-17 10:17:23,0.0
3484,5068,17516,-170,174,-184,2025-02-17 10:17:23,
3528,4972,17800,-157,163,-156,2025-02-17 10:17:23,0.0
3528,5060,17552,-147,166,-167,2025-02-17 10:17:23,0.0
3548,5144,17524,-155,180,-177,2025-02-17 10:17:23,0.0
3528,5076,17640,-152,182,-175,2025-02-17 10:17:23,0.0
3516,5092,17556,-147,184,-178,2025-02-17 10:17:23,0.0
3412,5032,17700,-169,190,-158,2025-02-17 10:17:23,0.0
3512,5060,17480,-154,182,-185,2025-02-17 10:17:23,0.0
3484,5060,17480,-164,162,-171,2025-02-17 10:17:23,0.0
3468,5140,17632,-140,172,-179,2025-02-17 10:17:23,0.0
3476,5084,17608,-155,157,-176,2025-02-17 10:17:23,0.0
3492,5148,17520,-149,190,-189,2025-02-17 10:17:23,0.0
3532,5116,17576,-155,162,-165,2025-02-17 10:17:23,0.0
3460,5052,17636,-146,187,-185,2025-02-17 10:17:23,0.0
3480,5088,17608,-167,184,-186,2025-02-17 10:17:23,0.0
3608,5032,17504,-155,154,-171,2025-02-17 10:17:23,0.0
3552,5136,17616,-144,188,-164,2025-02-17 10:17:23,0.0
3560,5132,17548,-153,172,-175,2025-02-17 10:17:23,0.0
3448,5028,17504,-135,178,-179,2025-02-17 10:17:23,0.0
3520,5084,17600,-167,187,-163,2025-02-17 10:17:23,0.0
3532,5076,17520,-148,149,-166,2025-02-17 10:17:23,0.0
3508,5024,17624,-153,171,-185,2025-02-17 10:17:23,0.0
3388,5076,17652,-155,156,-166,2025-02-17 10:17:23,0.0
3496,5052,17592,-150,177,-171,2025-02-17 10:17:23,0.0
3524,5040,17588,-147,179,-160,2025-02-17 10:17:23,0.0
3384,5040,17572,-158,174,-188,2025-02-17 10:17:23,0.0
3432,5180,17624,-138,183,-178,2025-02-17 10:17:23,0.0
3540,4988,17544,-174,169,-183,2025-02-17 10:17:23,0.0
3448,5076,17648,-148,188,-188,2025-02-17 10:17:23,0.0
3564,5004,17696,-181,173,-181,2025-02-17 10:17:23,0.0
3460,5032,17532,-152,182,-190,2025-02-17 10:17:23,0.0
3532,5008,17784,-153,194,-164,2025-02-17 10:17:23,0.0
3508,5092,17520,-156,187,-183,2025-02-17 10:17:23,0.0
3532,4964,17552,-158,170,-176,2025-02-17 10:17:23,0.0
3420,5012,17608,-161,185,-166,2025-02-17 10:17:23,0.0
3476,5084,17552,-161,174,-173,2025-02-17 10:17:23,0.0
3448,5112,17728,-136,174,-185,2025-02-17 10:17:23,0.0
3472,5052,17592,-139,175,-182,2025-02-17 10:17:23,0.0
3500,5032,17572,-148,183,-167,2025-02-17 10:17:23,0.0
3552,5164,17552,-149,174,-202,2025-02-17 10:17:23,0.0
3444,5012,17436,-135,173,-173,2025-02-17 10:17:23,0.0
3532,5104,17552,-162,180,-183,2025-02-17 10:17:23,0.0
3596,5084,17492,-161,181,-174,2025-02-17 10:17:23,0.0
3464,5092,17600,-172,176,-177,2025-02-17 10:17:23,0.0
3412,5064,17716,-157,204,-175,2025-02-17 10:17:23,0.0
3560,5128,17664,-161,179,-172,2025-02-17 10:17:23,0.0
3472,5072,17604,-146,160,-185,2025-02-17 10:17:23,0.0
3464,5076,17628,-165,182,-179,2025-02-17 10:17:23,0.0
3436,5112,17576,-150,169,-172,2025-02-17 10:17:23,0.0
3532,5088,17556,-147,213,-161,2025-02-17 10:17:24,0.0
3428,5128,17716,-131,190,-178,2025-02-17 10:17:24,0.0
3556,5080,17564,-149,183,-164,2025-02-17 10:17:24,0.0
3532,5164,17568,-174,175,-177,2025-02-17 10:17:24,0.0
3504,5036,17576,-165,153,-180,2025-02-17 10:17:24,0.0
3544,5132,17668,-151,166,-170,2025-02-17 10:17:24,0.0
3408,5068,17736,-153,191,-207,2025-02-17 10:17:24,0.0
3408,5084,17520,-143,166,-189,2025-02-17 10:17:24,0.0
3440,5128,17516,-172,165,-171,2025-02-17 10:17:24,0.0
3516,5112,17460,-153,180,-175,2025-02-17 10:17:24,0.0
3560,5048,17508,-166,180,-166,2025-02-17 10:17:24,0.0
3600,5072,17556,-158,196,-181,2025-02-17 10:17:24,0.0
3560,5036,17564,-128,166,-182,2025-02-17 10:17:24,0.0
3812,4904,17208,-215,298,-257,2025-02-17 10:17:24,0.0
3472,5048,16724,-681,966,-107,2025-02-17 10:17:24,0.0
3368,5248,18872,-368,954,-102,2025-02-17 10:17:24,0.0
3180,4628,17352,-112,187,-183,2025-02-17 10:17:24,0.0
3172,5164,16780,22,-11,-144,2025-02-17 10:17:24,0.0
3524,5040,18168,-371,274,-48,2025-02-17 10:17:24,0.0
3728,5324,17384,92,60,-357,2025-02-17 10:17:24,0.0
3388,4840,17544,-232,189,-209,2025-02-17 10:17:24,0.0
3236,5080,18392,36,208,-225,2025-02-17 10:17:24,0.0
2644,5188,17720,-12,-152,72,2025-02-17 10:17:24,0.0
3156,5188,17432,109,-691,-164,2025-02-17 10:17:24,0.0
3880,4884,17500,-123,-627,-7,2025-02-17 10:17:24,0.0
4032,5128,17684,-84,-392,-217,2025-02-17 10:17:24,0.0
3648,5276,17716,-474,367,-188,2025-02-17 10:17:24,0.0
3180,4632,17408,-554,562,-235,2025-02-17 10:17:24,0.0
3272,5028,18056,-233,525,-140,2025-02-17 10:17:24,0.0
3192,5020,17736,-149,242,-154,2025-02-17 10:17:24,0.0
3184,5292,17788,-85,-306,-186,2025-02-17 10:17:24,0.0
3644,4568,17752,-88,-397,-147,2025-02-17 10:17:24,0.0
3212,5252,17208,-183,-316,-348,2025-02-17 10:17:24,0.0
3260,5028,17360,-261,-388,-202,2025-02-17 10:17:24,0.0
2752,4964,18012,10,-536,47,2025-02-17 10:17:24,0.0
4684,4504,16996,477,-783,-124,2025-02-17 10:17:24,0.0
3116,4880,17600,800,-565,193,2025-02-17 10:17:24,0.0
3284,4956,17864,1462,-1290,600,2025-02-17 10:17:24,0.0
3812,4540,18288,2226,-2135,473,2025-02-17 10:17:24,0.0
2664,6584,19520,1806,-4854,-195,2025-02-17 10:17:24,0.0
3616,5612,16840,1602,-6205,-257,2025-02-17 10:17:24,0.0
4128,5452,16436,-139,-6159,-723,2025-02-17 10:17:24,0.0
5324,5168,16772,-1578,-4889,-308,2025-02-17 10:17:24,0.0
4472,5848,16272,-4324,-2834,-822,2025-02-17 10:17:24,0.0
5452,6400,17464,-8282,-824,-373,2025-02-17 10:17:24,0.0
4516,6020,20292,-9750,-352,-270,2025-02-17 10:17:24,0.0
3956,6288,21948,-8763,-1477,1005,2025-02-17 10:17:24,0.0
3684,6716,23456,-6324,-3077,2014,2025-02-17 10:17:24,0.0
3264,7548,23360,-3681,-3605,3587,2025-02-17 10:17:24,0.0
3960,7436,24268,-2420,-1991,4446,2025-02-17 10:17:24,0.0
4132,7388,24808,-2266,2070,4420,2025-02-17 10:17:24,0.0
4572,6748,25504,-2908,7813,3058,2025-02-17 10:17:24,
5216,6040,25700,-3251,12720,803,2025-02-17 10:17:24,0.0
5100,5044,24864,-3821,16855,-1756,2025-02-17 10:17:24,0.0
3840,3900,24472,-4375,19834,-4496,2025-02-17 10:17:24,0.0
1284,2964,24240,-3964,22998,-4724,2025-02-17 10:17:24,0.0
328,3004,23228,-3768,23505,-5895,2025-02-17 10:17:24,0.0
-1840,2564,22284,-3630,24384,-4680,2025-02-17 10:17:24,0.0
-3192,2260,22116,-3574,24095,-3711,2025-02-17 10:17:24,0.0
-3788,1888,21616,-3862,23095,-1674,2025-02-17 10:17:24,0.0
-4516,1600,21912,-3842,22144,424,2025-02-17 10:17:25,0.0
-4604,1972,22636,-3383,20712,2029,2025-02-17 10:17:25,0.0
-4668,1840,22700,-2322,19530,2990,2025-02-17 10:17:25,0.0
-3104,1608,20172,-2809,18849,3058,2025-02-17 10:17:25,0.0
-4176,1564,21164,-4366,18527,1813,2025-02-17 10:17:25,0.0
-5032,1676,21504,-4890,18579,-253,2025-02-17 10:17:25,0.0
-5836,1856,21380,-4955,18988,-1954,2025-02-17 10:17:25,0.0
-7628,2136,21220,-4255,19415,-2894,2025-02-17 10:17:25,0.0
-9504,2356,20636,-3482,20037,-2867,2025-02-17 10:17:25,0.0
-9832,2396,18684,-2878,20284,-2160,2025-02-17 10:17:25,0.0
-9580,2084,15716,-3214,20715,-1482,2025-02-17 10:17:25,0.0
-9356,1600,13888,-4636,21444,-1440,2025-02-17 10:17:25,0.0
-9916,1744,13248,-5666,22366,-1626,2025-02-17 10:17:25,0.0
-10144,1960,12960,-5743,23444,-1508,2025-02-17 10:17:25,0.0
-10660,1776,12920,-5159,24922,-1615,2025-02-17 10:17:25,0.0
-10484,1308,12284,-4318,26984,-2460,2025-02-17 10:17:25,0.0
-11300,916,11980,-3170,30491,-4140,2025-02-17 10:17:25,0.0
-11180,536,10568,-1631,32767,-5399,2025-02-17 10:17:25,0.0
-12488,384,10232,186,32767,-5950,2025-02-17 10:17:25,0.0
-13112,360,9044,2385,32767,-5562,2025-02-17 10:17:25,0.0
-13468,176,6980,4364,32767,-4102,2025-02-17 10:17:25,0.0
-13684,232,5660,5703,32767,-1921,2025-02-17 10:17:25,0.0
-12800,292,3536,6233,32767,447,2025-02-17 10:17:25,0.0
-10968,368,1096,5687,32767,2751,2025-02-17 10:17:25,0.0
-9312,0,-288,4770,32767,3294,2025-02-17 10:17:25,0.0
-7692,-8,-1316,4035,32767,2702,2025-02-17 10:17:25,0.0
-5964,-240,-2616,3753,32767,1479,2025-02-17 10:17:25,0.0
-4896,-8,-3840,4031,32767,38,2025-02-17 10:17:25,0.0
-3484,200,-5336,4443,32767,-636,2025-02-17 10:17:25,0.0
-2304,164,-7068,4038,32767,-428,2025-02-17 10:17:25,0.0
-280,-260,-8544,3163,32767,493,2025-02-17 10:17:25,0.0
1572,-476,-8840,2022,32767,1430,2025-02-17 10:17:25,0.0
3572,-568,-8764,656,32767,2529,2025-02-17 10:17:25,0.0
4856,-552,-8180,-348,22707,3459,2025-02-17 10:17:25,0.0
6144,-500,-7248,-511,5342,3905,2025-02-17 10:17:25,0.0
6784,-616,-6824,-221,-8637,3366,2025-02-17 10:17:25,0.0
6704,-732,-5860,505,-20484,2006,2025-02-17 10:17:25,0.0
6060,-812,-5852,1251,-29947,138,2025-02-17 10:17:25,0.0
4660,-804,-6220,1511,-32768,-2032,2025-02-17 10:17:25,0.0
1904,-556,-7024,577,-32768,-3871,2025-02-17 10:17:25,0.0
-768,-328,-7076,-981,-32768,-4039,2025-02-17 10:17:25,0.0
-3328,-208,-6736,-2321,-32768,-3164,2025-02-17 10:17:25,0.0
-5304,-252,-5676,-2582,-32768,-1838,2025-02-17 10:17:25,0.0
-6192,-332,-5516,-1927,-32768,-855,2025-02-17 10:17:25,0.0
-7352,-284,-4952,-726,-32768,-575,2025-02-17 10:17:25,0.0
-8452,-336,-5276,279,-32768,-884,2025-02-17 10:17:25,0.0
-9768,-244,-6276,547,-27682,-1473,2025-02-17 10:17:25,0.0
-11056,-528,-7376,-234,-21008,-1875,2025-02-17 10:17:25,0.0
-12468,-1020,-8008,-1826,-14278,-2016,2025-02-17 10:17:25,0.0
-13400,-760,-8980,-4251,-5050,-1420,2025-02-17 10:17:25,0.0
-13924,-772,-8520,-5582,3164,-1131,2025-02-17 10:17:25,0.0
-13968,-628,-8612,-5349,11125,-887,2025-02-17 10:17:25,0.0
-15944,-2520,-6132,-4458,16392,-1648,2025-02-17 10:17:25,0.0
-16604,-2076,-4088,-3844,17769,-2012,2025-02-17 10:17:25,0.0
-16672,-1572,-2764,-2877,10105,-1425,2025-02-17 10:17:25,0.0
-15136,-1932,-4256,-2570,-2936,-460,2025-02-17 10:17:25,0.0
-14204,-1612,-9208,-2879,-16137,125,2025-02-17 10:17:25,0.0
-11616,-396,-11728,-2068,-23363,636,2025-02-17 10:17:25,0.0
-11080,72,-13136,-1467,-30376,374,2025-02-17 10:17:25,0.0
-11088,532,-13172,-1324,-32768,-478,2025-02-17 10:17:25,0.0
-10852,-84,-11264,-2769,-32768,-1919,2025-02-17 10:17:25,0.0
-11992,-692,-7396,-5100,-32768,-3087,2025-02-17 10:17:25,0.0
-14124,-344,-1956,-6510,-32768,-3914,2025-02-17 10:17:26,0.0
-32768,-1360,32767,12670,-18499,-3142,2025-02-17 10:17:26,0.0
-14944,216,-4200,13898,13663,3433,2025-02-17 10:17:26,0.0
-11240,-140,-14100,-2331,16253,8385,2025-02-17 10:17:26,0.0
-660,-1760,4840,-8924,7835,4925,2025-02-17 10:17:26,0.0
-3564,-3316,10144,-4073,-2779,-1206,2025-02-17 10:17:26,0.0
-11940,-2716,3708,914,2566,-1799,2025-02-17 10:17:26,0.0
-13800,-704,1008,2800,6391,1309,2025-02-17 10:17:26,0.0
-12876,1356,-1188,2637,9477,3365,2025-02-17 10:17:26,0.0
-11076,2108,-2868,-155,11842,2167,2025-02-17 10:17:26,0.0
-11868,1860,-1564,-3182,11590,-549,2025-02-17 10:17:26,0.0
-13600,1108,4,-3824,9857,-2129,2025-02-17 10:17:26,0.0
-15384,-44,540,-2352,8237,-1942,2025-02-17 10:17:26,0.0
-15348,-528,-272,-641,5342,-1598,2025-02-17 10:17:26,0.0
-15212,660,-1776,-1731,3513,-1412,2025-02-17 10:17:26,0.0
-14152,708,-1208,-2438,1676,-1953,2025-02-17 10:17:26,0.0
-13516,744,-1656,-2803,721,-2249,2025-02-17 10:17:26,0.0
-13808,1016,-1280,-3446,1683,-2020,2025-02-17 10:17:26,0.0
-12280,708,-852,-4126,3328,-1947,2025-02-17 10:17:26,0.0
-12140,0,772,-4056,5518,-2143,2025-02-17 10:17:26,0.0
-12704,-1292,-472,-3154,6791,-2419,2025-02-17 10:17:26,0.0
-13664,-208,-3064,-3080,6657,-2219,2025-02-17 10:17:26,0.0
-15116,1432,-3584,-4155,5760,-1819,2025-02-17 10:17:26,0.0
-14996,1076,-4396,-4917,3895,-2036,2025-02-17 10:17:26,0.0
-15680,-712,-2096,-5472,1625,-1800,2025-02-17 10:17:26,0.0
-14932,24,-1916,-5050,-2008,-737,2025-02-17 10:17:26,0.0
-12084,752,-2616,-5585,-4325,-326,2025-02-17 10:17:26,0.0
-10944,768,-2864,-6583,-3555,-195,2025-02-17 10:17:26,0.0
-10668,-108,-3136,-7919,-85,-121,2025-02-17 10:17:26,0.0
-10684,-100,-3776,-9119,3896,-548,2025-02-17 10:17:26,
-12296,76,-4636,-10529,6433,-1445,2025-02-17 10:17:26,0.0
-13012,-596,-5620,-11702,7456,-2875,2025-02-17 10:17:26,0.0
-14228,-1424,-5912,-12254,6183,-4284,2025-02-17 10:17:26,0.0
-15404,-1000,-5476,-12410,3287,-4509,2025-02-17 10:17:26,0.0
-15348,-324,-5096,-12668,71,-4297,2025-02-17 10:17:26,0.0
-14444,924,-4748,-12982,-2114,-4412,2025-02-17 10:17:26,0.0
-12744,696,-6444,-13854,-3236,-4439,2025-02-17 10:17:26,0.0
-11344,-372,-5936,-14654,-3179,-4460,2025-02-17 10:17:26,0.0
-11224,-2848,-4716,-14804,-1705,-4442,2025-02-17 10:17:26,0.0
-10692,-4612,-4072,-14217,261,-3547,2025-02-17 10:17:26,0.0
-11548,-5456,-2624,-12944,2145,-2105,2025-02-17 10:17:26,0.0
-12192,-4788,-2460,-11871,3486,-1286,2025-02-17 10:17:26,0.0
-13700,-3556,-2868,-11358,4815,-1433,2025-02-17 10:17:26,0.0
-15608,-1584,-2460,-11352,4905,-1317,2025-02-17 10:17:26,0.0
-16408,536,-2304,-11574,-2485,170,2025-02-17 10:17:26,0.0
-13972,1604,-2768,-10868,-6019,493,2025-02-17 10:17:26,0.0
-12432,3476,-4752,-10226,-4326,22,2025-02-17 10:17:26,0.0
-11288,3328,-5428,-10563,-173,-1372,2025-02-17 10:17:26,0.0
-11536,1380,-4108,-11083,2590,-3134,2025-02-17 10:17:26,0.0
-13304,8,-1480,-11249,2892,-3089,2025-02-17 10:17:26,0.0
-12504,8,-1452,-11431,2322,-2534,2025-02-17 10:17:26,0.0
-12704,452,-2252,-12367,2431,-2509,2025-02-17 10:17:26,0.0
-13564,1380,-2280,-13122,2670,-2298,2025-02-17 10:17:26,0.0
-13920,2288,-2824,-13397,2680,-2006,2025-02-17 10:17:26,0.0
-13812,2440,-3156,-13625,2594,-2230,2025-02-17 10:17:26,0.0
-13600,1620,-3020,-13764,2898,-2936,2025-02-17 10:17:26,0.0
-13228,524,-2368,-13479,2794,-3670,2025-02-17 10:17:26,0.0
-13528,-68,-2588,-13024,2437,-3856,2025-02-17 10:17:26,0.0
-13076,-68,-2260,-12722,2246,-3368,2025-02-17 10:17:26,0.0
-12172,396,-2508,-12421,2346,-3486,2025-02-17 10:17:27,0.0
-12600,724,-2928,-12601,2501,-3833,2025-02-17 10:17:27,0.0
-12428,704,-2692,-12418,2669,-4006,2025-02-17 10:17:27,0.0
-13368,876,-2296,-11904,2096,-4070,2025-02-17 10:17:27,0.0
-13000,1252,-2840,-11439,1014,-4125,2025-02-17 10:17:27,0.0
-12584,1764,-2732,-11237,141,-4486,2025-02-17 10:17:27,0.0
-12288,2084,-2812,-11241,154,-4777,2025-02-17 10:17:27,0.0
-12084,2316,-3432,-11647,956,-4918,2025-02-17 10:17:27,0.0
-12220,2168,-4012,-11897,2483,-4850,2025-02-17 10:17:27,0.0
-12592,1352,-6540,-12568,3166,-7123,2025-02-17 10:17:27,0.0
-14524,-1236,-6168,-12579,4525,-6651,2025-02-17 10:17:27,0.0
-16844,-2464,-5512,-12223,3726,-5720,2025-02-17 10:17:27,0.0
-16536,-1752,-6496,-11823,-218,-4522,2025-02-17 10:17:27,0.0
-15436,-1188,-5516,-11583,-3978,-4434,2025-02-17 10:17:27,0.0
-12132,-1788,-5076,-11291,-4765,-4679,2025-02-17 10:17:27,0.0
-10340,-2056,-4764,-11120,-2210,-5346,2025-02-17 10:17:27,0.0
-10744,-1352,-5720,-11389,443,-6184,2025-02-17 10:17:27,0.0
-11764,-676,-5696,-11329,1957,-6021,2025-02-17 10:17:27,0.0
-12952,-208,-4612,-10804,3231,-5324,2025-02-17 10:17:27,0.0
-12628,-316,-4568,-10896,3955,-5037,2025-02-17 10:17:27,0.0
-12872,-500,-4244,-11511,3355,-5602,2025-02-17 10:17:27,0.0
-13452,-1556,-3940,-12135,2062,-6347,2025-02-17 10:17:27,0.0
-13592,-2484,-4100,-12018,1157,-6665,2025-02-17 10:17:27,0.0
-13572,-2812,-4508,-11842,453,-6858,2025-02-17 10:17:27,0.0
-13692,-3096,-3896,-11830,-41,-6661,2025-02-17 10:17:27,0.0
-12748,-2656,-4204,-11651,-502,-6192,2025-02-17 10:17:27,0.0
-12012,-1816,-4568,-11369,-1146,-5545,2025-02-17 10:17:27,0.0
-11308,-1480,-4752,-11324,-942,-4870,2025-02-17 10:17:27,0.0
-10888,-1392,-3660,-11290,-55,-4202,2025-02-17 10:17:27,0.0
-11156,-1456,-4412,-11392,749,-4008,2025-02-17 10:17:27,0.0
-11796,-1920,-4300,-11531,1624,-3821,2025-02-17 10:17:27,0.0
-12568,-2160,-4424,-11157,2583,-3730,2025-02-17 10:17:27,0.0
-13384,-2184,-4420,-10905,2479,-4014,2025-02-17 10:17:27,0.0
-13968,-1868,-4544,-10360,1304,-4081,2025-02-17 10:17:27,0.0
-13996,-1296,-4712,-9994,331,-3877,2025-02-17 10:17:27,0.0
-13624,-1288,-4524,-10158,-190,-3755,2025-02-17 10:17:27,0.0
-13496,-1648,-3740,-10381,-207,-3594,2025-02-17 10:17:27,0.0
-12948,-2296,-4268,-10343,-366,-3523,2025-02-17 10:17:27,0.0
-12796,-2604,-4672,-10127,-437,-3550,2025-02-17 10:17:27,0.0
-12380,-2412,-4556,-10184,-711,-3497,2025-02-17 10:17:27,0.0
-12652,-1552,-4000,-10234,-796,-2935,2025-02-17 10:17:27,0.0
-12328,-1032,-3620,-10349,-296,-2344,2025-02-17 10:17:27,0.0
-12344,-748,-4032,-10674,579,-1983,2025-02-17 10:17:27,0.0
-12904,-1520,-5064,-11057,792,-1696,2025-02-17 10:17:27,0.0
-13020,-2468,-5896,-10266,800,-1455,2025-02-17 10:17:27,0.0
-12648,-2372,-5956,-8752,1151,-1850,2025-02-17 10:17:27,0.0
-12992,-932,-5732,-7682,999,-2442,2025-02-17 10:17:27,0.0
-12776,656,-5804,-7583,213,-2152,2025-02-17 10:17:27,0.0
-11976,1060,-5360,-7804,-991,-1890,2025-02-17 10:17:27,0.0
-11536,424,-4928,-7865,78,-1364,2025-02-17 10:17:28,0.0
-11128,-312,-5560,-7864,2504,-1036,2025-02-17 10:17:28,0.0
-11276,-844,-5028,-7477,3969,-1084,2025-02-17 10:17:28,0.0
-11540,-812,-4368,-6544,5093,-1218,2025-02-17 10:17:28,0.0
-11772,36,-3348,-5656,4849,-1544,2025-02-17 10:17:28,0.0
-12384,1512,-3236,-5240,4467,-1861,2025-02-17 10:17:28,0.0
-12612,2168,-3452,-5247,4007,-2148,2025-02-17 10:17:28,0.0
-11764,2204,-5312,-5443,3595,-2268,2025-02-17 10:17:28,0.0
-13712,1684,-4320,-5516,3547,-2278,2025-02-17 10:17:28,0.0
-14232,932,-4884,-4504,2501,-2118,2025-02-17 10:17:28,0.0
-13696,644,-4616,-3776,632,-2033,2025-02-17 10:17:28,0.0
-13424,108,-4288,-3388,-163,-2070,2025-02-17 10:17:28,0.0
-13188,-56,-3800,-3427,-345,-2125,2025-02-17 10:17:28,0.0
-13288,-68,-3320,-3090,-498,-1951,2025-02-17 10:17:28,0.0
-12684,600,-3084,-2597,-981,-1804,2025-02-17 10:17:28,0.0
-12056,1472,-3812,-2478,-1367,-1902,2025-02-17 10:17:28,0.0
-11600,2112,-4116,-2531,-918,-2064,2025-02-17 10:17:28,0.0
-11644,2104,-4792,-2399,249,-1999,2025-02-17 10:17:28,0.0
-11968,1580,-5700,-2308,1828,-1838,2025-02-17 10:17:28,0.0
-13264,1300,-6040,-2293,2968,-1382,2025-02-17 10:17:28,0.0
-14144,564,-6140,-2725,2396,-1009,2025-02-17 10:17:28,0.0
-14044,576,-5732,-2870,232,-1022,2025-02-17 10:17:28,
-12788,940,-4984,-2668,-1879,-1374,2025-02-17 10:17:28,0.0
-12020,976,-3752,-2190,-2531,-1332,2025-02-17 10:17:28,0.0
-11012,1128,-3672,-1587,-1952,-1160,2025-02-17 10:17:28,0.0
-10344,1440,-4280,-1148,-107,-1168,2025-02-17 10:17:28,0.0
-10824,1172,-4804,-945,2225,-1211,2025-02-17 10:17:28,0.0
-11876,420,-4872,-951,3218,-1240,2025-02-17 10:17:28,0.0
-13244,-96,-5432,-1373,2716,-1542,2025-02-17 10:17:28,0.0
-13696,328,-5552,-1909,1158,-1879,2025-02-17 10:17:28,0.0
-13724,1148,-6012,-2088,244,-1785,2025-02-17 10:17:28,0.0
-11632,1912,-6888,-2342,151,-1890,2025-02-17 10:17:28,0.0
-10764,2220,-6856,-2574,676,-2369,2025-02-17 10:17:28,0.0
-10660,1972,-6652,-2801,1989,-2809,2025-02-17 10:17:28,0.0
-11732,1108,-6216,-3062,2639,-2943,2025-02-17 10:17:28,0.0
-12400,104,-5552,-2813,2279,-2730,2025-02-17 10:17:28,0.0
-12916,-580,-4944,-2581,1599,-2782,2025-02-17 10:17:28,0.0
-13216,-1104,-4860,-2528,759,-3144,2025-02-17 10:17:28,0.0
-13704,-1204,-4656,-2267,144,-3416,2025-02-17 10:17:28,0.0
-13996,-1184,-4956,-1754,-1123,-3411,2025-02-17 10:17:28,0.0
-14132,-1592,-5080,-1664,-2239,-3438,2025-02-17 10:17:28,0.0
-14144,-2164,-3796,-1700,-3098,-3248,2025-02-17 10:17:28,0.0
-13028,-1992,-4208,-1955,-3528,-2924,2025-02-17 10:17:28,0.0
-11580,-1976,-4832,-1991,-2737,-2803,2025-02-17 10:17:28,0.0
-11060,-1488,-5276,-1633,-1459,-2616,2025-02-17 10:17:28,0.0
-10732,-1036,-5668,-1424,441,-2519,2025-02-17 10:17:28,0.0
-11068,-804,-4712,-1429,2074,-2632,2025-02-17 10:17:28,0.0
-11896,-908,-4588,-1598,3326,-3108,2025-02-17 10:17:28,0.0
-13128,-1540,-4380,-1850,2547,-3240,2025-02-17 10:17:28,0.0
-13204,-2064,-4868,-1848,644,-2895,2025-02-17 10:17:28,0.0
-12600,-2328,-4440,-1621,-801,-2850,2025-02-17 10:17:28,0.0
-12376,-2112,-4176,-1518,-1066,-2678,2025-02-17 10:17:28,0.0
-12016,-1748,-4024,-1631,-584,-2321,2025-02-17 10:17:28,0.0
-11912,-1272,-3592,-1996,722,-1949,2025-02-17 10:17:28,0.0
-11704,-1824,-3516,-2074,1464,-1897,2025-02-17 10:17:28,0.0
-12800,-880,-3408,-1747,1891,-1652,2025-02-17 10:17:28,0.0
-12356,-940,-3584,-1909,1478,-1299,2025-02-17 10:17:28,0.0
-12604,-816,-3228,-2093,1223,-1234,2025-02-17 10:17:28,0.0
-12896,-1300,-2796,-2258,1040,-1179,2025-02-17 10:17:28,0.0
-12992,-1572,-3260,-2614,2,-1141,2025-02-17 10:17:28,0.0
-12864,-1604,-3208,-2580,-322,-961,2025-02-17 10:17:29,0.0
-12720,-1712,-3428,-2551,-355,-887,2025-02-17 10:17:29,0.0
-12660,-1480,-3056,-2405,-408,-802,2025-02-17 10:17:29,0.0
-12852,-1588,-2868,-2530,-392,-957,2025-02-17 10:17:29,0.0
-12360,-2056,-3116,-2615,-482,-1494,2025-02-17 10:17:29,0.0
-12744,-2232,-3320,-2564,-474,-1832,2025-02-17 10:17:29,0.0
-12472,-2600,-3968,-2462,-409,-1931,2025-02-17 10:17:29,0.0
-12196,-2788,-3656,-2086,108,-1647,2025-02-17 10:17:29,0.0
-11772,-2688,-3488,-1853,977,-1498,2025-02-17 10:17:29,0.0
-12056,-2700,-3576,-2050,2490,-1693,2025-02-17 10:17:29,0.0
-13340,-2760,-3220,-2325,3454,-1982,2025-02-17 10:17:29,0.0
-14168,-2808,-4368,-2845,3460,-2328,2025-02-17 10:17:29,0.0
-13968,-2484,-4932,-2912,3026,-3015,2025-02-17 10:17:29,0.0
-15064,-1836,-4584,-2393,2687,-3483,2025-02-17 10:17:29,0.0
-16168,-2428,-5360,-1930,2867,-3692,2025-02-17 10:17:29,0.0
-17408,-3492,-5772,-1412,3380,-3806,2025-02-17 10:17:29,0.0
-16836,-4308,-6980,-1015,1060,-3739,2025-02-17 10:17:29,0.0
-17444,-4852,-6712,-597,-3069,-2596,2025-02-17 10:17:29,0.0
-16676,-4488,-6332,-242,-4743,-466,2025-02-17 10:17:29,0.0
-14092,-3412,-6740,-386,-4191,1087,2025-02-17 10:17:29,0.0
-12792,-2740,-7148,-843,-2783,1427,2025-02-17 10:17:29,0.0
-12732,-2888,-7692,-1209,-1654,2201,2025-02-17 10:17:29,0.0
-12736,-3108,-7612,-723,-1836,3068,2025-02-17 10:17:29,0.0
-11532,-2648,-8560,463,-2924,3984,2025-02-17 10:17:29,0.0
-10624,-1712,-8068,1011,-3149,4056,2025-02-17 10:17:29,0.0
-9580,-492,-6992,1450,-3219,3748,2025-02-17 10:17:29,0.0
-9484,1220,-5368,1999,-2671,3523,2025-02-17 10:17:29,0.0
-9384,2392,-5544,1530,-1313,3383,2025-02-17 10:17:29,0.0
-10152,2624,-6444,151,1149,3520,2025-02-17 10:17:29,0.0
-10344,1704,-7284,-712,3271,3485,2025-02-17 10:17:29,0.0
-11576,876,-7560,-941,4118,3707,2025-02-17 10:17:29,0.0
-13284,-352,-7136,-911,4123,4186,2025-02-17 10:17:29,0.0
-13664,-908,-5188,-743,2286,4057,2025-02-17 10:17:29,0.0
-13672,-712,-4640,-479,-342,3884,2025-02-17 10:17:29,0.0
-12640,-180,-5068,-352,-2865,4044,2025-02-17 10:17:29,0.0
-11172,80,-3952,-138,-4321,4026,2025-02-17 10:17:29,0.0
-9596,444,-3448,406,-5078,3762,2025-02-17 10:17:29,0.0
-8808,1048,-4180,456,-3240,3781,2025-02-17 10:17:29,0.0
-8664,1632,-4096,600,-994,3844,2025-02-17 10:17:29,0.0
-8736,2244,-4216,519,872,3561,2025-02-17 10:17:29,0.0
-8776,2572,-5340,-24,2095,3025,2025-02-17 10:17:29,0.0
-9528,2300,-4472,-513,2595,2250,2025-02-17 10:17:29,0.0
-10420,1352,-3780,-374,2789,953,2025-02-17 10:17:29,0.0
-11304,688,-3444,-221,2509,410,2025-02-17 10:17:29,0.0
-12200,948,-2648,71,1788,127,2025-02-17 10:17:29,0.0
-12184,1084,-2736,381,795,-134,2025-02-17 10:17:29,0.0
-12248,632,-2620,589,463,-268,2025-02-17 10:17:29,0.0
-12428,540,-3424,858,207,-442,2025-02-17 10:17:29,0.0
-13384,640,-3856,1121,-227,-554,2025-02-17 10:17:29,0.0
-14364,620,-4176,1669,-811,-185,2025-02-17 10:17:29,0.0
-14988,792,-3844,2162,-1555,535,2025-02-17 10:17:29,0.0
-14980,1104,-4328,2370,-2241,1244,2025-02-17 10:17:29,0.0
-14220,1144,-5312,2396,-2924,1975,2025-02-17 10:17:29,0.0
-13840,2220,-5480,2525,-3008,2992,2025-02-17 10:17:29,0.0
-13164,2500,-3884,2704,-1808,3976,2025-02-17 10:17:29,0.0
-13140,1028,-2616,2256,-549,3808,2025-02-17 10:17:29,0.0
-14916,2276,-2128,2513,202,3411,2025-02-17 10:17:29,0.0
-16232,3252,-4640,2556,651,3368,2025-02-17 10:17:29,0.0
-17840,5436,-5864,1817,-492,3758,2025-02-17 10:17:29,0.0
-18972,7692,-6592,1162,-2618,4590,2025-02-17 10:17:29,0.0
-17188,8476,-5788,101,-5298,4397,2025-02-17 10:17:30,0.0
-13568,6028,-4248,-849,-6734,1162,2025-02-17 10:17:30,
-13376,2956,-4500,-1852,-5971,-2296,2025-02-17 10:17:30,0.0
-13376,1064,-6248,-1817,-5271,-3914,2025-02-17 10:17:30,0.0
-11364,628,-8512,-1179,-5076,-4318,2025-02-17 10:17:30,0.0
