acceleration_x,acceleration_y,acceleration_z,gyroscope_x,gyroscope_y,gyroscope_z,timestamp,label
-10624,-1004,11604,-157,176,-142,2025-02-17 11:36:40,0.0
-10512,-1084,11692,-231,174,-217,2025-02-17 11:36:40,0.0
-10616,-1184,11812,-211,347,-263,2025-02-17 11:36:40,0.0
-10796,-1216,11572,-153,403,-292,2025-02-17 11:36:40,0.0
-10736,-1164,11528,-157,286,-151,2025-02-17 11:36:40,0.0
-10720,-1148,11528,-215,274,-189,2025-02-17 11:36:41,0.0
-10704,-1128,11640,-265,430,-230,2025-02-17 11:36:41,0.0
-10884,-1164,11360,-314,505,-179,2025-02-17 11:36:41,0.0
-10876,-1136,11280,-353,187,-120,2025-02-17 11:36:41,0.0
-10748,-1196,11516,-341,69,-124,2025-02-17 11:36:41,0.0
-10540,-1112,11620,-283,247,-142,2025-02-17 11:36:41,0.0
-10596,-1300,11368,-356,254,-183,2025-02-17 11:36:41,0.0
-10772,-1228,11708,-197,148,-206,2025-02-17 11:36:41,0.0
-10724,-1120,11532,-167,194,-175,2025-02-17 11:36:41,0.0
-10576,-1292,11524,-264,160,-198,2025-02-17 11:36:41,0.0
-10604,-1176,11556,-303,297,-180,2025-02-17 11:36:41,0.0
-10608,-1124,11392,-349,450,-151,2025-02-17 11:36:41,0.0
-10824,-1236,11424,-347,522,-169,2025-02-17 11:36:41,0.0
-10924,-1260,11548,-330,289,-157,2025-02-17 11:36:41,0.0
-10988,-1304,11516,-415,46,-169,2025-02-17 11:36:41,0.0
-10752,-1260,11444,-522,-110,-140,2025-02-17 11:36:41,0.0
-10536,-1160,11640,-457,16,-128,2025-02-17 11:36:41,0.0
-10636,-1080,11648,-408,156,-164,2025-02-17 11:36:41,0.0
-10748,-1012,11544,-335,151,-186,2025-02-17 11:36:41,0.0
-10892,-1212,11592,-329,41,-168,2025-02-17 11:36:41,0.0
-10744,-1224,11732,-224,-28,-158,2025-02-17 11:36:41,0.0
-10636,-1304,11712,-138,58,-163,2025-02-17 11:36:41,0.0
-10568,-1280,11568,-170,147,-183,2025-02-17 11:36:41,0.0
-10624,-1256,11548,-115,216,-158,2025-02-17 11:36:41,0.0
-10692,-1328,11584,-175,302,-188,2025-02-17 11:36:41,0.0
-10764,-1192,11676,-196,309,-213,2025-02-17 11:36:41,0.0
-10888,-1200,11496,-168,283,-175,2025-02-17 11:36:41,0.0
-10812,-1324,11516,-223,205,-183,2025-02-17 11:36:41,0.0
-10844,-1420,11648,-223,151,-168,2025-02-17 11:36:41,0.0
-10700,-1304,11620,-201,205,-157,2025-02-17 11:36:41,0.0
-10552,-1400,11412,-180,225,-223,2025-02-17 11:36:41,0.0
-10644,-1180,11440,-225,194,-254,2025-02-17 11:36:41,0.0
-10696,-1272,11444,-217,148,-246,2025-02-17 11:36:41,0.0
-10848,-1236,11524,-101,190,-261,2025-02-17 11:36:41,0.0
-10772,-1200,11356,-113,159,-237,2025-02-17 11:36:41,0.0
-10804,-1144,11440,-168,12,-223,2025-02-17 11:36:41,0.0
-10944,-1060,11328,-273,-168,-241,2025-02-17 11:36:41,0.0
-10908,-1060,11620,-357,-234,-157,2025-02-17 11:36:41,0.0
-10768,-996,11568,-476,-274,-144,2025-02-17 11:36:41,0.0
-10464,-1196,11424,-589,-403,-141,2025-02-17 11:36:41,0.0
-10468,-1244,11728,-608,-194,-118,2025-02-17 11:36:41,0.0
-10560,-1036,11548,-665,43,-78,2025-02-17 11:36:41,0.0
-10848,-1096,11860,-658,119,-8,2025-02-17 11:36:41,0.0
-10932,-1008,11640,-751,123,126,2025-02-17 11:36:41,0.0
-10708,-1232,11596,-869,-8,13,2025-02-17 11:36:41,0.0
-10720,-1208,11432,-768,-9,-222,2025-02-17 11:36:41,0.0
-10832,-1384,11552,-697,-61,-297,2025-02-17 11:36:41,0.0
-10700,-1516,11184,-727,66,-225,2025-02-17 11:36:41,0.0
-10648,-1648,11228,-850,9,-272,2025-02-17 11:36:41,0.0
-10808,-1760,11592,-725,-49,-31,2025-02-17 11:36:41,0.0
-10660,-1800,11224,-703,-39,171,2025-02-17 11:36:41,0.0
-10244,-1560,11684,-484,-90,177,2025-02-17 11:36:41,0.0
-10292,-1384,11608,-299,114,72,2025-02-17 11:36:41,0.0
-10800,-1348,11704,-190,249,208,2025-02-17 11:36:41,0.0
-10488,-1468,11652,-244,-66,301,2025-02-17 11:36:41,0.0
-10548,-1352,12040,-14,-31,221,2025-02-17 11:36:41,0.0
-10440,-1232,11724,65,218,296,2025-02-17 11:36:41,0.0
-10516,-1264,11788,31,349,207,2025-02-17 11:36:41,0.0
-10704,-1408,11672,1,429,177,2025-02-17 11:36:41,0.0
-10744,-1468,11416,-114,394,228,2025-02-17 11:36:41,0.0
-10624,-1212,11648,-227,335,285,2025-02-17 11:36:41,0.0
-10520,-1140,11868,-224,439,207,2025-02-17 11:36:41,0.0
-10452,-1132,11852,-194,699,81,2025-02-17 11:36:41,0.0
-10692,-1300,11640,-167,806,35,2025-02-17 11:36:41,0.0
-10912,-1268,11476,-152,743,38,2025-02-17 11:36:41,0.0
-11016,-1296,11560,-199,576,90,2025-02-17 11:36:42,0.0
-10876,-1212,11364,-255,413,159,2025-02-17 11:36:42,0.0
-10764,-1100,11664,-226,170,51,2025-02-17 11:36:42,0.0
-10700,-996,11452,-209,118,43,2025-02-17 11:36:42,0.0
-10776,-1016,11616,-220,232,-49,2025-02-17 11:36:42,0.0
-10944,-1036,11452,-318,260,-122,2025-02-17 11:36:42,0.0
-11104,-1116,11576,-275,66,-132,2025-02-17 11:36:42,0.0
-10880,-1160,11620,-240,-168,-167,2025-02-17 11:36:42,0.0
-10668,-1292,11668,-218,-122,-184,2025-02-17 11:36:42,0.0
-10572,-1248,11752,-142,-83,-144,2025-02-17 11:36:42,0.0
-10524,-1240,11644,-103,52,-201,2025-02-17 11:36:42,0.0
-10556,-1164,11584,-149,118,-236,2025-02-17 11:36:42,0.0
-10564,-1196,11528,-190,230,-231,2025-02-17 11:36:42,0.0
-10724,-1036,11396,-263,145,-231,2025-02-17 11:36:42,0.0
-10796,-1100,11620,-273,47,-216,2025-02-17 11:36:42,0.0
-10740,-960,11592,-227,49,-197,2025-02-17 11:36:42,0.0
-10880,-812,11220,-310,69,-165,2025-02-17 11:36:42,0.0
-10932,-976,10964,-418,23,-78,2025-02-17 11:36:42,0.0
-11360,-996,10732,-765,-122,47,2025-02-17 11:36:42,0.0
-11704,-1232,10424,-1333,-424,389,2025-02-17 11:36:42,0.0
-11240,-1428,10720,-1746,-645,737,2025-02-17 11:36:42,0.0
-10760,-1548,11012,-2007,-893,667,2025-02-17 11:36:42,0.0
-10512,-1820,11456,-1966,-741,580,2025-02-17 11:36:42,0.0
-10528,-2004,11524,-1778,-603,688,2025-02-17 11:36:42,0.0
-10800,-1748,11304,-1550,-465,1043,2025-02-17 11:36:42,0.0
-11236,-1384,11988,-1066,-798,1463,2025-02-17 11:36:42,0.0
-10952,-1028,12136,-365,-1034,1549,2025-02-17 11:36:42,0.0
-10624,-692,11704,-111,-1053,1559,2025-02-17 11:36:42,0.0
-10620,-372,11996,6,-607,1499,2025-02-17 11:36:42,0.0
-10828,-460,11480,-189,-472,1573,2025-02-17 11:36:42,
-10604,-736,11336,-420,-930,1776,2025-02-17 11:36:42,0.0
-10112,-1272,12104,-508,-1308,2140,2025-02-17 11:36:42,0.0
-9404,-2044,12776,-229,-675,2395,2025-02-17 11:36:42,0.0
-8896,-2244,12396,-485,390,2319,2025-02-17 11:36:42,0.0
-8968,-2396,12224,-539,2186,2621,2025-02-17 11:36:42,0.0
-9340,-2116,11704,-349,3680,3079,2025-02-17 11:36:42,0.0
-10364,-1244,12164,492,4948,3677,2025-02-17 11:36:42,0.0
-10376,-808,11960,891,5159,3753,2025-02-17 11:36:42,0.0
-8216,-1760,11172,1022,5086,2810,2025-02-17 11:36:42,0.0
-7880,-2168,12008,1106,5926,1523,2025-02-17 11:36:42,0.0
-8992,-376,10208,1070,7160,557,2025-02-17 11:36:42,0.0
-12812,2868,9064,454,9552,546,2025-02-17 11:36:42,0.0
-14560,4184,9260,-738,8368,-156,2025-02-17 11:36:42,0.0
-13416,3316,9360,-1563,3988,-1403,2025-02-17 11:36:42,0.0
-10736,1240,11364,-1917,1317,-3340,2025-02-17 11:36:42,0.0
-9984,-1212,12444,-868,2659,-3687,2025-02-17 11:36:42,0.0
-10104,-1304,13300,278,4191,-3722,2025-02-17 11:36:42,0.0
-11216,-492,11724,951,5179,-3630,2025-02-17 11:36:42,0.0
-16712,1548,12088,942,6471,-3313,2025-02-17 11:36:42,0.0
-12172,52,11252,434,4487,-3348,2025-02-17 11:36:42,0.0
-11036,36,11084,668,3774,-3839,2025-02-17 11:36:42,0.0
-10624,-552,10020,405,3737,-4490,2025-02-17 11:36:42,0.0
-9492,-1156,10232,247,4240,-5286,2025-02-17 11:36:42,0.0
-10656,-1308,11464,834,5333,-5220,2025-02-17 11:36:42,0.0
-11536,-1112,8576,379,5708,-5105,2025-02-17 11:36:42,0.0
-12592,-1132,9004,-165,4251,-5082,2025-02-17 11:36:42,0.0
-12284,-1712,9144,-973,2588,-4972,2025-02-17 11:36:42,0.0
-11360,-1640,9408,-1831,2731,-4468,2025-02-17 11:36:42,0.0
-11420,-1976,9512,-2187,4879,-3670,2025-02-17 11:36:42,0.0
-12548,-2356,8348,-2445,7203,-2754,2025-02-17 11:36:42,0.0
-11780,-1496,5840,-3213,7831,-2053,2025-02-17 11:36:43,0.0
-12416,-308,5792,-4345,8040,-1871,2025-02-17 11:36:43,0.0
-12304,-4,6692,-5300,8839,-1912,2025-02-17 11:36:43,0.0
-14000,-688,6048,-5862,9443,-1658,2025-02-17 11:36:43,0.0
-14264,-1992,6168,-6324,9523,-1132,2025-02-17 11:36:43,0.0
-14924,-1592,6200,-7220,8863,-455,2025-02-17 11:36:43,0.0
-14240,-2032,7412,-8007,8568,14,2025-02-17 11:36:43,0.0
-12456,-1516,10612,-7858,9747,-808,2025-02-17 11:36:43,0.0
-15836,-2908,10176,-7022,13091,-1273,2025-02-17 11:36:43,0.0
-22896,-5904,13272,-5528,15621,-269,2025-02-17 11:36:43,0.0
-19684,-8360,10620,-4307,17515,2506,2025-02-17 11:36:43,0.0
-15584,-7516,9412,-3266,13125,3919,2025-02-17 11:36:43,0.0
-20004,-2692,8672,-3554,11092,3389,2025-02-17 11:36:43,0.0
-21092,-3500,5984,-4358,9411,1920,2025-02-17 11:36:43,0.0
-19616,-1296,4884,-4398,5511,1403,2025-02-17 11:36:43,0.0
-16328,-4436,4964,-4918,5079,1294,2025-02-17 11:36:43,0.0
-17404,-4956,5492,-4574,5928,1297,2025-02-17 11:36:43,0.0
-19520,-4496,4200,-4169,6245,2948,2025-02-17 11:36:43,0.0
-19432,-3060,3656,-4025,4487,4330,2025-02-17 11:36:43,0.0
-16120,-2020,3776,-3941,4705,4531,2025-02-17 11:36:43,0.0
-15292,-1160,4016,-3746,6201,4199,2025-02-17 11:36:43,0.0
-15768,116,2296,-3967,8294,2934,2025-02-17 11:36:43,0.0
-17344,-228,1932,-3081,9625,1856,2025-02-17 11:36:43,0.0
-17720,-1704,-212,-1241,9319,2226,2025-02-17 11:36:43,0.0
-16984,-1664,-3644,337,6236,2496,2025-02-17 11:36:43,0.0
-17912,-1980,-4568,350,3099,3441,2025-02-17 11:36:43,0.0
-16636,-1684,-4504,-543,2217,4361,2025-02-17 11:36:43,0.0
-15464,-1160,-2704,-1548,1556,5114,2025-02-17 11:36:43,0.0
-12448,-504,-692,-1198,811,4286,2025-02-17 11:36:43,0.0
-13168,-1048,-580,-622,-2631,2577,2025-02-17 11:36:43,0.0
-14420,-2092,488,470,-5707,1423,2025-02-17 11:36:43,0.0
-15580,-2248,1204,1598,-7177,824,2025-02-17 11:36:43,0.0
-16780,-1796,348,2273,-5435,837,2025-02-17 11:36:43,0.0
-16252,-2412,-1032,2324,-2853,1876,2025-02-17 11:36:43,0.0
-16756,-3788,-2116,1793,1697,4221,2025-02-17 11:36:43,0.0
-15788,-4840,-1524,562,9959,6357,2025-02-17 11:36:43,0.0
-13876,-4288,460,1009,20122,8038,2025-02-17 11:36:43,0.0
-11940,-3828,1972,2307,30088,8684,2025-02-17 11:36:43,0.0
-9392,-3156,2592,4162,32767,8703,2025-02-17 11:36:43,0.0
-7576,-3652,-1048,3858,32767,8411,2025-02-17 11:36:43,0.0
-7704,-4384,-4248,1938,32767,8095,2025-02-17 11:36:43,0.0
-6324,-5072,-6088,-429,32767,9945,2025-02-17 11:36:43,0.0
-5608,-5644,-7864,-3522,27470,14778,2025-02-17 11:36:43,0.0
-4780,-6528,-9748,-7828,12971,20155,2025-02-17 11:36:43,0.0
-2240,-6712,-8208,-11774,-1459,23709,2025-02-17 11:36:43,0.0
-668,-6324,-4532,-11793,-13317,24737,2025-02-17 11:36:43,0.0
-2032,-4800,-3352,-9264,-20372,23919,2025-02-17 11:36:43,0.0
-5092,-3728,-3844,-8078,-20524,24224,2025-02-17 11:36:43,0.0
-5084,-3000,-4700,-7853,-17729,25102,2025-02-17 11:36:43,0.0
-3672,-2160,-5456,-9400,-13309,25251,2025-02-17 11:36:43,0.0
-2472,-1204,-4096,-12282,-12319,26786,2025-02-17 11:36:43,0.0
1876,-1224,-2824,-16157,-15008,28953,2025-02-17 11:36:43,0.0
3968,-1884,576,-17864,-18668,28178,2025-02-17 11:36:43,0.0
4048,-2172,1140,-17663,-21565,27788,2025-02-17 11:36:43,0.0
8008,-3128,1016,-16989,-24247,27656,2025-02-17 11:36:43,0.0
5344,-1356,2540,-15493,-25684,25840,2025-02-17 11:36:43,0.0
4652,-1296,1452,-14240,-26978,23990,2025-02-17 11:36:43,0.0
3720,-1216,1232,-13518,-27880,23356,2025-02-17 11:36:43,0.0
3636,-1180,1252,-12847,-28533,23085,2025-02-17 11:36:43,0.0
3968,-1168,1324,-11968,-29137,22654,2025-02-17 11:36:43,0.0
3628,-1048,1684,-10846,-29502,22244,2025-02-17 11:36:43,0.0
3844,-940,1640,-9576,-29871,21680,2025-02-17 11:36:44,0.0
3740,-780,1720,-8253,-30140,21168,2025-02-17 11:36:44,0.0
3556,-716,2064,-6995,-30286,20703,2025-02-17 11:36:44,0.0
3712,-584,1944,-5837,-30413,20163,2025-02-17 11:36:44,0.0
3944,-532,1932,-4625,-30470,19432,2025-02-17 11:36:44,0.0
3640,-536,1732,-3306,-30588,18648,2025-02-17 11:36:44,0.0
3348,-500,1748,-2090,-30845,18171,2025-02-17 11:36:44,0.0
3400,-384,1848,-1010,-31240,17865,2025-02-17 11:36:44,0.0
3440,-372,1740,50,-31775,17544,2025-02-17 11:36:44,
3628,-764,3440,1952,-32768,17264,2025-02-17 11:36:44,0.0
2732,-1012,2184,5299,-32768,18609,2025-02-17 11:36:44,0.0
3500,-780,4256,7712,-32768,18696,2025-02-17 11:36:44,0.0
-32768,32767,16872,17527,-32768,32767,2025-02-17 11:36:44,0.0
-18380,32767,956,26796,-30221,32767,2025-02-17 11:36:44,0.0
-5424,32767,21712,32767,25661,32767,2025-02-17 11:36:44,0.0
28340,-25888,-5796,32767,32767,32767,2025-02-17 11:36:44,0.0
32767,-32768,-19996,32767,20200,32767,2025-02-17 11:36:44,0.0
32767,-32768,24284,32767,-401,-2408,2025-02-17 11:36:44,0.0
-26024,-32768,2300,30038,11384,19172,2025-02-17 11:36:44,0.0
8312,-27252,-804,22513,14058,30869,2025-02-17 11:36:44,0.0
17076,-11788,8500,21265,12379,23872,2025-02-17 11:36:44,0.0
18860,-5828,4832,20424,8617,11208,2025-02-17 11:36:44,0.0
13344,-2784,2664,16512,8075,-276,2025-02-17 11:36:44,0.0
11904,-1552,6380,11645,8852,-7910,2025-02-17 11:36:44,0.0
13752,-176,8040,6129,3049,-13052,2025-02-17 11:36:44,0.0
15968,960,11268,2260,-8816,-13550,2025-02-17 11:36:44,0.0
16860,1304,15192,889,-21751,-11414,2025-02-17 11:36:44,0.0
20088,1648,15192,1107,-32306,-8961,2025-02-17 11:36:44,0.0
21356,428,10048,-185,-32768,-6724,2025-02-17 11:36:44,0.0
25296,-1172,4484,-2477,-32768,-6046,2025-02-17 11:36:44,0.0
28040,-4500,-880,-4910,-32768,-8865,2025-02-17 11:36:44,0.0
19144,-3512,-1604,-8414,-32768,-12051,2025-02-17 11:36:44,0.0
12768,-2452,-644,-9595,-32768,-10878,2025-02-17 11:36:44,0.0
14572,-2392,-3336,-10058,-32768,-9248,2025-02-17 11:36:44,0.0
14724,-3020,-7580,-12610,-32768,-9228,2025-02-17 11:36:44,0.0
-32768,-6988,-13272,-14871,-32768,-3139,2025-02-17 11:36:44,0.0
22156,2508,-5448,-8353,-32768,-2915,2025-02-17 11:36:44,0.0
19232,2948,-10960,-1191,-32768,-7388,2025-02-17 11:36:44,0.0
10556,3068,-11032,6574,-32768,-5861,2025-02-17 11:36:44,0.0
5428,2332,-15248,7570,-32211,-3034,2025-02-17 11:36:44,0.0
4944,696,-19072,5031,-15786,-1043,2025-02-17 11:36:44,0.0
5328,-1252,-19348,1124,-1513,-369,2025-02-17 11:36:44,0.0
9300,-1616,-16036,-1724,7260,-257,2025-02-17 11:36:44,0.0
12008,-208,-11864,-1940,8390,-874,2025-02-17 11:36:44,0.0
13252,728,-10680,-1063,5456,-1059,2025-02-17 11:36:44,0.0
13736,1092,-9500,-378,1404,-498,2025-02-17 11:36:44,0.0
13292,628,-10672,246,-1866,-127,2025-02-17 11:36:44,0.0
11348,92,-12476,290,-2280,-186,2025-02-17 11:36:44,0.0
10940,84,-13228,-115,-667,-261,2025-02-17 11:36:44,0.0
11192,332,-13032,-272,845,-186,2025-02-17 11:36:44,0.0
11888,412,-11924,-251,1059,-134,2025-02-17 11:36:44,0.0
12304,304,-11652,-160,299,-205,2025-02-17 11:36:44,0.0
11964,396,-11924,-90,-236,-191,2025-02-17 11:36:44,0.0
11532,248,-12536,-127,130,-248,2025-02-17 11:36:44,0.0
11916,232,-12496,-165,469,-179,2025-02-17 11:36:44,0.0
11836,392,-12028,-197,184,-198,2025-02-17 11:36:44,0.0
11796,220,-12384,-190,84,-190,2025-02-17 11:36:44,0.0
11764,456,-12120,-151,166,-157,2025-02-17 11:36:44,0.0
11864,304,-12224,-114,191,-143,2025-02-17 11:36:44,0.0
11780,256,-12196,-152,228,-180,2025-02-17 11:36:44,0.0
11812,376,-12060,-165,141,-205,2025-02-17 11:36:44,0.0
11840,384,-12256,-154,167,-171,2025-02-17 11:36:45,0.0
11832,368,-12148,-157,172,-178,2025-02-17 11:36:45,0.0
11924,268,-12120,-179,159,-165,2025-02-17 11:36:45,0.0
11772,304,-12052,-188,179,-189,2025-02-17 11:36:45,0.0
11820,280,-12308,-163,186,-187,2025-02-17 11:36:45,0.0
11908,368,-11936,-157,169,-168,2025-02-17 11:36:45,0.0
11820,316,-12032,-169,186,-191,2025-02-17 11:36:45,0.0
11812,284,-12072,-147,137,-180,2025-02-17 11:36:45,0.0
11744,352,-12172,-179,169,-167,2025-02-17 11:36:45,0.0
11952,312,-12136,-156,212,-159,2025-02-17 11:36:45,0.0
11840,372,-12148,-156,182,-171,2025-02-17 11:36:45,0.0
11776,280,-12100,-154,162,-184,2025-02-17 11:36:45,0.0
11824,308,-12200,-146,171,-179,2025-02-17 11:36:45,0.0
11856,300,-12196,-189,173,-179,2025-02-17 11:36:45,0.0
11812,356,-12120,-163,180,-189,2025-02-17 11:36:45,0.0
11852,276,-12084,-142,149,-167,2025-02-17 11:36:45,0.0
11856,356,-12168,-158,184,-144,2025-02-17 11:36:45,0.0
11828,304,-12224,-169,161,-171,2025-02-17 11:36:45,0.0
11816,352,-12084,-159,176,-191,2025-02-17 11:36:45,0.0
11856,372,-12220,-176,150,-195,2025-02-17 11:36:45,0.0
11800,204,-12132,-150,142,-142,2025-02-17 11:36:45,0.0
11844,316,-12116,-162,161,-148,2025-02-17 11:36:45,0.0
11856,332,-12180,-154,182,-170,2025-02-17 11:36:45,0.0
11820,372,-12296,-154,174,-189,2025-02-17 11:36:45,0.0
11832,332,-12184,-180,146,-160,2025-02-17 11:36:45,0.0
11868,316,-12128,-157,182,-178,2025-02-17 11:36:45,0.0
11784,456,-12072,-153,159,-170,2025-02-17 11:36:45,0.0
11860,320,-12148,-157,174,-186,2025-02-17 11:36:45,0.0
11832,344,-12180,-166,200,-169,2025-02-17 11:36:45,0.0
11784,284,-12064,-137,164,-178,2025-02-17 11:36:45,0.0
11876,404,-11956,-168,173,-181,2025-02-17 11:36:45,0.0
11812,316,-12236,-185,153,-170,2025-02-17 11:36:45,0.0
11856,324,-12064,-146,150,-170,2025-02-17 11:36:45,0.0
11804,372,-12216,-179,187,-190,2025-02-17 11:36:45,0.0
11844,328,-12184,-152,195,-185,2025-02-17 11:36:45,0.0
11824,360,-12148,-177,166,-159,2025-02-17 11:36:45,0.0
11816,300,-12156,-144,171,-178,2025-02-17 11:36:45,0.0
11756,316,-12196,-154,164,-188,2025-02-17 11:36:45,0.0
11780,312,-12104,-158,166,-191,2025-02-17 11:36:45,0.0
11832,356,-12124,-179,149,-173,2025-02-17 11:36:45,0.0
11744,376,-12128,-182,166,-182,2025-02-17 11:36:45,0.0
11756,288,-12020,-138,154,-182,2025-02-17 11:36:45,0.0
11788,272,-12196,-176,150,-190,2025-02-17 11:36:45,0.0
11784,380,-12020,-180,184,-175,2025-02-17 11:36:45,0.0
11796,344,-12112,-176,164,-181,2025-02-17 11:36:45,0.0
11864,256,-12280,-156,164,-170,2025-02-17 11:36:45,0.0
11788,320,-12124,-186,183,-173,2025-02-17 11:36:45,0.0
11812,328,-12132,-141,174,-181,2025-02-17 11:36:45,
11764,292,-12092,-166,153,-177,2025-02-17 11:36:45,0.0
11888,228,-12232,-131,180,-164,2025-02-17 11:36:45,0.0
11700,380,-12184,-162,190,-188,2025-02-17 11:36:45,0.0
11820,312,-11976,-165,175,-172,2025-02-17 11:36:45,0.0
10540,228,-10028,282,-26,113,2025-02-17 11:36:45,0.0
12672,80,-11236,215,344,-430,2025-02-17 11:36:45,0.0
10952,1272,-12828,120,669,120,2025-02-17 11:36:45,0.0
12744,-76,-12284,-842,1754,-245,2025-02-17 11:36:45,0.0
11740,-96,-12752,-1101,2087,204,2025-02-17 11:36:45,0.0
14180,608,-11036,-467,1552,-708,2025-02-17 11:36:45,0.0
13016,-340,-10336,-200,-1615,-708,2025-02-17 11:36:45,0.0
12964,192,-11924,-326,-3687,-1624,2025-02-17 11:36:45,0.0
10344,884,-12488,-474,-2246,-612,2025-02-17 11:36:45,0.0
8480,404,-15896,-1301,1738,160,2025-02-17 11:36:46,0.0
16924,-720,-11540,-1627,1900,-1919,2025-02-17 11:36:46,0.0
19040,-1868,-7716,-279,-7542,-6104,2025-02-17 11:36:46,0.0
12464,28,-10828,-626,-12584,-6458,2025-02-17 11:36:46,0.0
10496,2368,-13104,-1149,-9996,-5676,2025-02-17 11:36:46,0.0
12852,3680,-13248,-426,-7244,-7253,2025-02-17 11:36:46,0.0
12484,1792,-18152,-1540,-4636,-9197,2025-02-17 11:36:46,0.0
14280,1108,-16124,-4431,2189,-9989,2025-02-17 11:36:46,0.0
10176,-16,-16584,-5567,4657,-11429,2025-02-17 11:36:46,0.0
14004,3456,-5996,-4982,3794,-13131,2025-02-17 11:36:46,0.0
16836,3792,-13652,-4967,-7233,-16713,2025-02-17 11:36:46,0.0
5816,6076,-18116,1860,4581,-2287,2025-02-17 11:36:46,0.0
12912,5512,-19340,-1232,2937,-4385,2025-02-17 11:36:46,0.0
14644,5668,-18876,-4906,-401,-7140,2025-02-17 11:36:46,0.0
12644,5880,-15276,-6914,-3267,-9585,2025-02-17 11:36:46,0.0
8232,5704,-13772,-7276,-4675,-9878,2025-02-17 11:36:46,0.0
6564,5488,-16248,-9568,-4793,-9274,2025-02-17 11:36:46,0.0
5384,4744,-15488,-11424,-5025,-8201,2025-02-17 11:36:46,0.0
5700,4936,-16384,-13046,-6790,-7129,2025-02-17 11:36:46,0.0
6012,6868,-15676,-15113,-8843,-5740,2025-02-17 11:36:46,0.0
5048,8344,-14940,-16197,-10174,-4924,2025-02-17 11:36:46,0.0
2820,8024,-16184,-18245,-9483,-3221,2025-02-17 11:36:46,0.0
1476,7896,-17728,-21275,-7576,-1480,2025-02-17 11:36:46,0.0
2388,8496,-18556,-25595,-6306,268,2025-02-17 11:36:46,0.0
5644,10564,-16744,-29071,-7020,479,2025-02-17 11:36:46,0.0
8532,12164,-11504,-30527,-9248,-1250,2025-02-17 11:36:46,0.0
8668,12436,-8788,-31027,-10966,-2984,2025-02-17 11:36:46,0.0
5616,13844,-6148,-31364,-11267,-3080,2025-02-17 11:36:46,0.0
3492,14500,-4900,-31341,-10152,-1457,2025-02-17 11:36:46,0.0
3384,15844,-5904,-32455,-7863,115,2025-02-17 11:36:46,0.0
2444,17528,-7020,-32768,-5409,1797,2025-02-17 11:36:46,0.0
4964,18620,-5420,-32768,-3538,1955,2025-02-17 11:36:46,0.0
5516,20520,-448,-32768,-3040,1265,2025-02-17 11:36:46,0.0
5572,22196,4884,-31184,-4190,672,2025-02-17 11:36:46,0.0
-12416,17448,-10736,-30318,-3918,5624,2025-02-17 11:36:46,0.0
6692,21856,4720,-28620,-4031,8638,2025-02-17 11:36:46,0.0
8808,25396,11680,-19491,-4180,4446,2025-02-17 11:36:46,0.0
3688,25876,5812,-8029,-1597,15,2025-02-17 11:36:46,0.0
1848,26216,2716,-3122,939,-960,2025-02-17 11:36:46,0.0
2668,26176,4992,2996,6131,-1593,2025-02-17 11:36:46,0.0
4324,23764,3472,8392,8609,-3707,2025-02-17 11:36:46,0.0
4272,23312,3448,12679,9267,-5171,2025-02-17 11:36:46,0.0
3204,23044,1076,14887,9969,-5901,2025-02-17 11:36:46,0.0
3900,22688,180,16058,7691,-5157,2025-02-17 11:36:46,0.0
4292,21632,-3204,16352,3789,-3279,2025-02-17 11:36:46,0.0
5556,20404,-5904,14516,-522,-1584,2025-02-17 11:36:46,0.0
6720,20020,-7068,11286,-3914,-869,2025-02-17 11:36:46,0.0
3540,19588,-1784,9569,-6752,-526,2025-02-17 11:36:46,0.0
3476,18680,-596,10783,-10357,1723,2025-02-17 11:36:46,0.0
4988,17580,-3836,8552,-12863,2015,2025-02-17 11:36:46,0.0
4660,18192,-3164,4730,-13532,1289,2025-02-17 11:36:47,0.0
3816,17320,-488,2887,-12760,-167,2025-02-17 11:36:47,0.0
3412,16468,-504,1983,-9887,-2223,2025-02-17 11:36:47,0.0
2816,15088,-1912,605,-4927,-4108,2025-02-17 11:36:47,0.0
1832,13428,-3920,-2388,2079,-5275,2025-02-17 11:36:47,0.0
1148,12596,-3292,-6248,11256,-5575,2025-02-17 11:36:47,0.0
412,13720,-544,-8028,20856,-5575,2025-02-17 11:36:47,0.0
276,13728,-96,-8356,29350,-5161,2025-02-17 11:36:47,0.0
328,13204,652,-8324,32767,-4663,2025-02-17 11:36:47,0.0
2436,12340,1768,-7398,32767,-5425,2025-02-17 11:36:47,0.0
2792,10860,1696,-6032,32767,-7145,2025-02-17 11:36:47,0.0
2516,10588,160,-5596,32767,-8991,2025-02-17 11:36:47,0.0
2412,11560,1264,-4925,32767,-10280,2025-02-17 11:36:47,0.0
2496,11784,1376,-3845,32767,-11342,2025-02-17 11:36:47,0.0
3192,11148,1040,-2792,32767,-12433,2025-02-17 11:36:47,0.0
4448,10168,1192,-1666,32767,-14103,2025-02-17 11:36:47,0.0
5592,9376,1000,-494,32767,-16295,2025-02-17 11:36:47,0.0
6440,8948,1552,898,32767,-19145,2025-02-17 11:36:47,0.0
5368,8928,2280,3307,30864,-21792,2025-02-17 11:36:47,0.0
992,7924,-1648,-9016,9545,-22783,2025-02-17 11:36:47,0.0
-384,8188,432,-8341,13329,-25357,2025-02-17 11:36:47,0.0
-3624,7380,-1836,-9126,16101,-25425,2025-02-17 11:36:47,0.0
-5836,6208,-1204,-9752,19944,-25801,2025-02-17 11:36:47,0.0
-8600,5056,-3988,-13397,23405,-24220,2025-02-17 11:36:47,0.0
-7404,2512,-856,-16705,27414,-23718,2025-02-17 11:36:47,0.0
-7292,1260,2204,-12046,32767,-26969,2025-02-17 11:36:47,0.0
-9048,-1220,-2096,-5736,32767,-30469,2025-02-17 11:36:47,0.0
-21316,348,32767,-1924,-20214,-3659,2025-02-17 11:36:47,0.0
-17292,-144,2972,3530,-25907,-1213,2025-02-17 11:36:47,0.0
-16092,1900,-9160,1280,-28209,-1728,2025-02-17 11:36:47,0.0
-14740,2792,-8176,-2230,-31074,-1105,2025-02-17 11:36:47,0.0
-11008,2456,-4792,-4227,-32768,-2052,2025-02-17 11:36:47,0.0
-10244,1856,-4324,-7515,-32768,-4414,2025-02-17 11:36:48,0.0
-15220,2468,5020,-11939,-32768,-5626,2025-02-17 11:36:50,0.0
-16264,1584,14116,-10409,-1031,-5105,2025-02-17 11:36:50,0.0
-10640,-772,5496,-5935,12215,-5272,2025-02-17 11:36:50,0.0
-13496,-640,-1368,-5653,10821,-5123,2025-02-17 11:36:50,
-16208,-960,-2336,-8681,2437,-3239,2025-02-17 11:36:50,0.0
-16188,-1384,676,-10615,-5136,-2214,2025-02-17 11:36:50,0.0
-14156,24,4404,-10480,-8801,-2755,2025-02-17 11:36:50,0.0
-13296,400,5816,-9315,-8704,-2567,2025-02-17 11:36:50,0.0
-14196,1208,5868,474,9496,3291,2025-02-17 11:36:51,0.0
-12100,-1588,-5496,-7289,-13848,-2843,2025-02-17 11:36:51,0.0
-10092,-1572,-5204,-6800,-16691,-3793,2025-02-17 11:36:51,0.0
-8736,-1812,-4612,-6927,-14558,-5000,2025-02-17 11:36:51,0.0
-8464,-1468,-6704,-8472,-9221,-6143,2025-02-17 11:36:51,0.0
-10700,-1340,-5900,-11079,-3935,-6995,2025-02-17 11:36:51,0.0
-11776,-1168,-6276,-12758,183,-6869,2025-02-17 11:36:51,0.0
-12504,-2192,-5884,-13935,1374,-6559,2025-02-17 11:36:51,0.0
-12932,-4364,-4680,-14482,370,-6357,2025-02-17 11:36:51,0.0
-13232,-5948,-3280,-14391,-103,-5953,2025-02-17 11:36:51,0.0
-12992,-6336,-2452,-14454,-632,-5587,2025-02-17 11:36:51,0.0
-12436,-5936,-1504,-14015,-1793,-5139,2025-02-17 11:36:51,0.0
-11952,-5376,-1000,-13444,-3086,-5122,2025-02-17 11:36:51,0.0
-11964,-4556,-2392,-13123,-3194,-4597,2025-02-17 11:36:51,0.0
-11520,-4180,-1540,-12849,-2099,-3941,2025-02-17 11:36:51,0.0
-11712,-3992,-1308,-12139,-1124,-3587,2025-02-17 11:36:51,0.0
-11544,-3508,-1480,-11644,-534,-3058,2025-02-17 11:36:51,0.0
-11188,-3296,-764,-11198,107,-3102,2025-02-17 11:36:51,0.0
-11864,-3492,-436,-10872,374,-3245,2025-02-17 11:36:51,0.0
-12348,-3728,-152,-10368,327,-2913,2025-02-17 11:36:51,0.0
-11760,-3452,148,-9723,-183,-2691,2025-02-17 11:36:51,0.0
-11900,-3284,376,-9544,-863,-2597,2025-02-17 11:36:51,0.0
-11964,-3328,1484,-8617,-1018,-2357,2025-02-17 11:36:51,0.0
-12152,-3320,1072,-7674,-1261,-1920,2025-02-17 11:36:51,0.0
-12252,-2976,1300,-6914,-1624,-1551,2025-02-17 11:36:51,0.0
-12672,-3156,1056,-6397,-2097,-1226,2025-02-17 11:36:51,0.0
-12632,-3780,952,-6347,-2674,-1119,2025-02-17 11:36:51,0.0
-12364,-4876,92,-6563,-2062,-1055,2025-02-17 11:36:51,0.0
-14016,-4208,-1824,-7758,509,-1572,2025-02-17 11:36:51,0.0
-14384,-2852,-1104,-8044,402,-2217,2025-02-17 11:36:51,0.0
-14936,-3088,-1936,-8817,-250,-3341,2025-02-17 11:36:51,0.0
-15996,-4440,-772,-9606,-740,-4378,2025-02-17 11:36:51,0.0
-16188,-4448,1512,-9739,-1628,-5234,2025-02-17 11:36:51,0.0
-16740,-3628,3928,-9048,-4305,-6543,2025-02-17 11:36:51,0.0
-17724,-4840,3352,-8009,-7051,-7020,2025-02-17 11:36:51,0.0
-18196,-6304,0,-7168,-8485,-6690,2025-02-17 11:36:51,0.0
-19256,-6808,-3840,-7679,-6162,-5091,2025-02-17 11:36:51,0.0
-19800,-9628,-3832,-8199,-2762,-2595,2025-02-17 11:36:51,0.0
-16732,-10532,-4028,-8860,-1981,-1885,2025-02-17 11:36:51,0.0
-16820,-7880,-4040,-8097,-2521,-1142,2025-02-17 11:36:51,0.0
-15312,-4896,-4812,-7867,-3899,3,2025-02-17 11:36:51,0.0
-12432,-2040,-5348,-7691,-5400,775,2025-02-17 11:36:51,0.0
-10736,392,-4788,-7140,-6112,1443,2025-02-17 11:36:51,0.0
-10220,256,-6460,-7538,-4863,2117,2025-02-17 11:36:51,0.0
-13572,-2264,-2080,-7318,3704,720,2025-02-17 11:36:51,0.0
-16060,-3652,-1680,-6506,2127,1288,2025-02-17 11:36:51,0.0
-17308,-4196,-2172,-6069,830,2647,2025-02-17 11:36:51,0.0
-16612,-3320,-2296,-6012,-522,3883,2025-02-17 11:36:51,0.0
-14056,-3024,-2224,-6157,-1886,3895,2025-02-17 11:36:51,0.0
-12868,-3216,-1268,-5541,-3696,2894,2025-02-17 11:36:51,0.0
-12072,-3076,-992,-4755,-6381,2836,2025-02-17 11:36:52,0.0
-9908,-2872,-912,-4413,-7209,2913,2025-02-17 11:36:52,0.0
-8748,-2012,-1752,-4614,-6369,2634,2025-02-17 11:36:52,0.0
-7964,-1356,-1444,-5133,-4105,2283,2025-02-17 11:36:52,0.0
-7392,-1476,-656,-5301,-1161,1621,2025-02-17 11:36:52,0.0
-8340,-1724,-344,-5503,2018,523,2025-02-17 11:36:52,0.0
-9948,-1992,688,-5369,3402,489,2025-02-17 11:36:52,0.0
-10936,-2352,1824,-4713,3948,798,2025-02-17 11:36:52,0.0
-9712,-2060,132,-2907,4262,1255,2025-02-17 11:36:52,0.0
-10948,-2228,2304,-1022,4259,2348,2025-02-17 11:36:52,0.0
-8812,-1924,-128,-685,4312,-28,2025-02-17 11:36:52,0.0
-12872,-192,-412,-1806,4658,-1346,2025-02-17 11:36:52,0.0
-12928,-724,968,-1061,4192,-1172,2025-02-17 11:36:52,0.0
-13216,-2032,-336,818,2805,-1289,2025-02-17 11:36:52,0.0
-14128,-1936,-1056,1985,1722,-1156,2025-02-17 11:36:52,0.0
-14048,-1700,-516,2687,1528,-1202,2025-02-17 11:36:52,0.0
-14388,-2036,-68,2793,1240,-1912,2025-02-17 11:36:52,0.0
-15168,-3724,-176,2608,1785,-2398,2025-02-17 11:36:52,0.0
-16908,-3304,-1820,1696,2129,-2047,2025-02-17 11:36:52,0.0
-18876,208,-220,2324,1366,-330,2025-02-17 11:36:52,0.0
-19256,1272,1156,4327,36,1323,2025-02-17 11:36:52,0.0
-17892,-1660,1836,4442,-2538,1108,2025-02-17 11:36:52,0.0
-18644,-4572,3752,4606,-4378,1064,2025-02-17 11:36:52,0.0
-18412,-2308,3820,6791,-6404,2250,2025-02-17 11:36:52,0.0
-16236,-3132,-1324,9130,-7820,3125,2025-02-17 11:36:52,0.0
-16188,-620,-4372,9623,-7449,3288,2025-02-17 11:36:52,0.0
-15832,532,-5152,9179,-8335,3901,2025-02-17 11:36:52,0.0
-15476,-36,-4932,8487,-7371,4325,2025-02-17 11:36:52,0.0
-15028,-1800,-10008,4597,-3353,4809,2025-02-17 11:36:52,0.0
-13064,-2576,-9252,540,1204,4181,2025-02-17 11:36:52,0.0
-12004,-4420,-6744,-1088,4220,2706,2025-02-17 11:36:52,0.0
-12476,-10136,-4656,-3134,9014,348,2025-02-17 11:36:52,0.0
-12868,-8452,1036,-915,12504,-1507,2025-02-17 11:36:52,0.0
-13272,-5980,-1684,785,12531,-1355,2025-02-17 11:36:52,0.0
-13608,-1104,-3132,1203,11206,-411,2025-02-17 11:36:52,0.0
-13552,1052,-2260,1597,7701,682,2025-02-17 11:36:52,0.0
-14084,420,-4920,640,7896,1415,2025-02-17 11:36:52,0.0
-11772,-1284,-4372,-773,11450,1729,2025-02-17 11:36:52,0.0
-9096,-3268,-3420,-314,12193,2837,2025-02-17 11:36:52,0.0
-5120,-5548,-3060,517,12183,2881,2025-02-17 11:36:52,0.0
-1976,-5728,-1716,965,12671,928,2025-02-17 11:36:52,0.0
136,-4812,-876,865,11570,-1404,2025-02-17 11:36:52,0.0
-72,-2764,-1444,-498,9947,-3367,2025-02-17 11:36:52,0.0
-840,-956,-1684,-2784,10007,-2004,2025-02-17 11:36:52,0.0
1304,-312,1476,-4433,9928,-664,2025-02-17 11:36:52,0.0
1428,-468,1576,-4005,11216,35,2025-02-17 11:36:52,
460,-496,1344,-4164,12333,259,2025-02-17 11:36:52,0.0
1120,-564,1364,-4310,18175,594,2025-02-17 11:36:52,0.0
2600,-280,1856,-4159,18348,417,2025-02-17 11:36:52,0.0
2484,-340,1744,-3976,18123,86,2025-02-17 11:36:52,0.0
2852,-236,1912,-3675,18044,-488,2025-02-17 11:36:52,0.0
3012,-304,2136,-3303,18135,-1189,2025-02-17 11:36:52,0.0
3164,-140,2000,-2811,18293,-1988,2025-02-17 11:36:52,0.0
2904,-260,1924,-2298,18393,-2748,2025-02-17 11:36:52,0.0
2836,-368,1644,-1906,18305,-3295,2025-02-17 11:36:52,0.0
2736,-388,1508,-1618,18040,-3661,2025-02-17 11:36:52,0.0
2748,-352,1648,-1294,17832,-3839,2025-02-17 11:36:52,0.0
2784,-308,1512,-960,17636,-4024,2025-02-17 11:36:52,0.0
2948,-244,1524,-513,17429,-4271,2025-02-17 11:36:52,0.0
3080,-232,1724,-38,17325,-4672,2025-02-17 11:36:52,0.0
3216,-188,1412,375,17146,-5265,2025-02-17 11:36:53,0.0
3044,-288,1204,653,16877,-5695,2025-02-17 11:36:53,0.0
2868,-192,1036,783,16552,-5991,2025-02-17 11:36:53,0.0
3148,-300,692,865,16232,-6316,2025-02-17 11:36:53,0.0
3020,-416,816,827,15645,-6793,2025-02-17 11:36:53,0.0
956,-5872,-10520,-2918,16008,-5692,2025-02-17 11:36:53,0.0
-32768,-32768,-32768,-32768,32767,9854,2025-02-17 11:36:53,0.0
32767,32767,32767,13753,-32768,-1732,2025-02-17 11:36:53,0.0
-32768,-25536,-32768,32767,17616,6051,2025-02-17 11:36:53,0.0
-3876,-7176,-32768,-6641,32767,14946,2025-02-17 11:36:53,0.0
4944,-612,-9564,-15812,28299,14481,2025-02-17 11:36:53,0.0
4660,-512,372,-17143,24878,13497,2025-02-17 11:36:53,0.0
3000,-1324,860,-18206,27280,11731,2025-02-17 11:36:53,0.0
1980,-1084,2888,-18927,29611,11656,2025-02-17 11:36:53,0.0
1868,-1316,2152,-19070,29053,11391,2025-02-17 11:36:53,0.0
1460,-1360,1896,-19988,30399,11705,2025-02-17 11:36:53,0.0
4912,2264,3508,-16286,21336,9737,2025-02-17 11:36:53,0.0
9636,11480,4116,-3302,-1960,8348,2025-02-17 11:36:53,0.0
11848,22772,-2228,17859,-28581,10298,2025-02-17 11:36:53,0.0
15580,16348,-27332,24787,-32768,8246,2025-02-17 11:36:53,0.0
11376,2628,-32768,9707,-20678,1229,2025-02-17 11:36:53,0.0
-1700,-2980,-28772,-2139,-8570,239,2025-02-17 11:36:53,0.0
-1360,464,-17184,-5187,-230,265,2025-02-17 11:36:53,0.0
2560,5772,-10048,-4076,8428,-659,2025-02-17 11:36:53,0.0
4552,7364,-8412,-1065,8940,-404,2025-02-17 11:36:53,0.0
8732,6412,-11696,1175,2978,516,2025-02-17 11:36:53,0.0
8592,3648,-13880,763,-1924,-128,2025-02-17 11:36:53,0.0
5848,4060,-15040,-347,-3294,-375,2025-02-17 11:36:53,0.0
3944,5152,-14504,-496,-1254,-421,2025-02-17 11:36:53,0.0
3504,5460,-14320,-108,590,-175,2025-02-17 11:36:53,0.0
4952,4740,-14104,-136,1247,-71,2025-02-17 11:36:53,0.0
6024,4852,-13680,-131,896,-119,2025-02-17 11:36:53,0.0
6088,4864,-13596,-105,-4,-178,2025-02-17 11:36:53,0.0
5404,4724,-14008,-262,-342,-238,2025-02-17 11:36:53,0.0
4936,4976,-14028,-194,-57,-233,2025-02-17 11:36:53,0.0
4900,5064,-14036,-142,325,-98,2025-02-17 11:36:53,0.0
5584,4840,-14100,-125,505,-151,2025-02-17 11:36:53,0.0
5596,4772,-13680,-197,143,-176,2025-02-17 11:36:53,0.0
5312,4896,-13936,-148,36,-203,2025-02-17 11:36:53,0.0
5152,4928,-14032,-137,115,-187,2025-02-17 11:36:53,0.0
5356,4908,-14116,-158,258,-149,2025-02-17 11:36:53,0.0
5424,4792,-14004,-158,288,-168,2025-02-17 11:36:53,0.0
5520,4920,-13712,-176,118,-180,2025-02-17 11:36:53,0.0
5260,4864,-13892,-148,93,-171,2025-02-17 11:36:53,0.0
5248,4884,-14088,-183,195,-162,2025-02-17 11:36:53,0.0
5396,4908,-13820,-171,223,-171,2025-02-17 11:36:53,0.0
5376,4936,-13880,-166,190,-197,2025-02-17 11:36:53,0.0
5472,4924,-13896,-155,155,-181,2025-02-17 11:36:53,0.0
5344,4928,-14020,-170,139,-194,2025-02-17 11:36:53,0.0
5316,4948,-13756,-172,177,-175,2025-02-17 11:36:53,0.0
5436,4824,-13932,-129,188,-160,2025-02-17 11:36:53,0.0
5368,4848,-13748,-174,165,-180,2025-02-17 11:36:53,0.0
5388,4896,-14012,-144,170,-196,2025-02-17 11:36:53,0.0
5368,4824,-13888,-151,182,-170,2025-02-17 11:36:53,0.0
5308,4852,-13968,-188,180,-172,2025-02-17 11:36:53,0.0
5368,4916,-14044,-144,172,-171,2025-02-17 11:36:53,0.0
5348,4908,-13808,-154,171,-162,2025-02-17 11:36:53,0.0
5340,4924,-13792,-148,162,-162,2025-02-17 11:36:53,0.0
5292,4824,-13952,-157,165,-179,2025-02-17 11:36:54,0.0
5412,4868,-13896,-161,158,-174,2025-02-17 11:36:54,0.0
5400,4864,-13892,-177,172,-198,2025-02-17 11:36:54,0.0
5432,4828,-13892,-166,159,-155,2025-02-17 11:36:54,0.0
5348,4948,-13892,-143,173,-185,2025-02-17 11:36:54,0.0
5376,4904,-13976,-163,191,-164,2025-02-17 11:36:54,0.0
5372,4868,-14008,-173,156,-160,2025-02-17 11:36:54,0.0
5484,4876,-13936,-183,175,-172,2025-02-17 11:36:54,0.0
5476,4908,-13788,-176,147,-179,2025-02-17 11:36:54,0.0
5440,4884,-14052,-166,171,-175,2025-02-17 11:36:54,0.0
5416,4836,-13888,-162,191,-173,2025-02-17 11:36:54,0.0
5380,4824,-13816,-151,194,-176,2025-02-17 11:36:54,0.0
5352,4808,-13876,-161,173,-178,2025-02-17 11:36:54,0.0
5344,4840,-14100,-119,181,-192,2025-02-17 11:36:54,0.0
5364,4836,-13944,-156,191,-146,2025-02-17 11:36:54,0.0
5412,4920,-13852,-143,163,-177,2025-02-17 11:36:54,0.0
5388,4916,-13840,-149,176,-176,2025-02-17 11:36:54,0.0
5292,4900,-14016,-144,141,-186,2025-02-17 11:36:54,0.0
5364,4900,-13716,-164,197,-160,2025-02-17 11:36:54,0.0
5428,4992,-13860,-157,206,-163,2025-02-17 11:36:54,0.0
5312,4880,-13868,-152,186,-164,2025-02-17 11:36:54,0.0
5368,4876,-13964,-166,167,-177,2025-02-17 11:36:54,0.0
5300,4876,-14044,-168,179,-177,2025-02-17 11:36:54,0.0
5400,4940,-13964,-153,155,-188,2025-02-17 11:36:54,0.0
5296,4944,-13896,-126,157,-185,2025-02-17 11:36:54,0.0
5476,4872,-13936,-171,154,-192,2025-02-17 11:36:54,0.0
5380,4876,-14020,-162,160,-171,2025-02-17 11:36:54,0.0
5412,4924,-14044,-150,158,-172,2025-02-17 11:36:54,
5376,4928,-13972,-174,171,-154,2025-02-17 11:36:54,0.0
5420,4924,-13980,-170,196,-193,2025-02-17 11:36:54,0.0
5500,4860,-13928,-146,152,-154,2025-02-17 11:36:54,0.0
5324,4896,-13888,-180,168,-178,2025-02-17 11:36:54,0.0
5388,4872,-14044,-172,176,-155,2025-02-17 11:36:54,0.0
5368,4900,-13972,-171,170,-182,2025-02-17 11:36:54,0.0
5296,4864,-13928,-134,186,-175,2025-02-17 11:36:54,0.0
5340,4920,-13972,-143,150,-163,2025-02-17 11:36:54,0.0
5380,4864,-13888,-162,156,-166,2025-02-17 11:36:54,0.0
5440,4904,-13832,-168,168,-170,2025-02-17 11:36:54,0.0
5360,4832,-13876,-134,161,-173,2025-02-17 11:36:54,0.0
5336,4956,-13948,-119,111,-173,2025-02-17 11:36:54,0.0
5456,4908,-13584,-87,-186,-222,2025-02-17 11:36:54,0.0
5044,4980,-14116,-95,468,-180,2025-02-17 11:36:54,0.0
5432,4848,-13808,-77,288,-147,2025-02-17 11:36:54,0.0
5280,4868,-13876,-168,151,-147,2025-02-17 11:36:54,0.0
5088,4788,-13800,-186,293,-124,2025-02-17 11:36:54,0.0
5696,4996,-14384,-48,89,-99,2025-02-17 11:36:54,0.0
5292,4960,-14204,-247,-359,-346,2025-02-17 11:36:54,0.0
5016,4760,-14104,-597,206,56,2025-02-17 11:36:54,0.0
5436,4428,-13276,-813,-1058,391,2025-02-17 11:36:54,0.0
4728,4672,-13476,-719,-2064,849,2025-02-17 11:36:54,0.0
5732,5308,-13532,-550,-3363,1661,2025-02-17 11:36:54,0.0
4064,5064,-13212,140,-2620,2206,2025-02-17 11:36:54,0.0
6156,5648,-13676,110,-3667,2109,2025-02-17 11:36:54,0.0
5388,6336,-13680,187,-2573,993,2025-02-17 11:36:54,0.0
8752,5416,-13316,636,-3873,1260,2025-02-17 11:36:54,0.0
1396,5536,-14040,1365,-5912,-522,2025-02-17 11:36:54,0.0
2568,3596,-15620,259,-4845,2015,2025-02-17 11:36:54,0.0
2876,3984,-14764,-735,84,-55,2025-02-17 11:36:54,0.0
2492,4452,-13888,-42,2932,-191,2025-02-17 11:36:54,0.0
4784,4776,-14160,291,3213,493,2025-02-17 11:36:54,0.0
8044,4152,-13680,79,2054,-376,2025-02-17 11:36:54,0.0
2612,4436,-14952,-427,1422,-525,2025-02-17 11:36:54,0.0
5380,4992,-12448,382,1934,-1137,2025-02-17 11:36:55,0.0
3944,3716,-13788,1625,2643,-310,2025-02-17 11:36:55,0.0
6664,3500,-15164,834,850,-229,2025-02-17 11:36:55,0.0
4864,5140,-13820,247,-246,-1129,2025-02-17 11:36:55,0.0
5692,5100,-14036,928,-2174,-77,2025-02-17 11:36:55,0.0
5112,4512,-15320,819,-3066,214,2025-02-17 11:36:55,0.0
4312,4344,-15296,-50,-2354,120,2025-02-17 11:36:55,0.0
3996,3916,-14952,-1570,-1290,-182,2025-02-17 11:36:55,0.0
3812,4088,-12972,-2623,-196,-173,2025-02-17 11:36:55,0.0
5116,6460,-11728,145,-1012,-662,2025-02-17 11:36:55,0.0
3752,5868,-13080,1372,1485,-409,2025-02-17 11:36:55,0.0
5844,3916,-13920,2503,1385,-125,2025-02-17 11:36:55,0.0
7256,3908,-14628,1422,258,-1976,2025-02-17 11:36:55,0.0
3036,4552,-15200,1603,-966,-723,2025-02-17 11:36:55,0.0
7524,5336,-14784,1370,-2932,-729,2025-02-17 11:36:55,0.0
5444,5532,-13948,2635,-5564,-878,2025-02-17 11:36:55,0.0
4016,4856,-13552,4393,-7450,-1306,2025-02-17 11:36:55,0.0
3748,4456,-16488,3383,-6738,-1919,2025-02-17 11:36:55,0.0
5012,5092,-14976,835,-5493,-3494,2025-02-17 11:36:55,0.0
6388,6124,-15204,-2059,-3373,-6596,2025-02-17 11:36:55,0.0
3636,6736,-13580,-3949,-1735,-9363,2025-02-17 11:36:55,0.0
1616,6700,-14968,-1607,-510,-11442,2025-02-17 11:36:55,0.0
-548,6856,-16256,2857,-2841,-10319,2025-02-17 11:36:55,0.0
2084,6624,-16476,6993,-9151,-9740,2025-02-17 11:36:55,0.0
1336,5320,-17204,8790,-15718,-8528,2025-02-17 11:36:55,0.0
2068,3176,-16656,9460,-21892,-6394,2025-02-17 11:36:55,0.0
-520,1564,-16068,9979,-26445,-4551,2025-02-17 11:36:55,0.0
-7520,-444,-16136,10997,-25012,-1919,2025-02-17 11:36:55,0.0
-14892,-5792,-18292,12523,-17824,3886,2025-02-17 11:36:55,0.0
-10080,-2600,-20872,12467,-17126,11450,2025-02-17 11:36:55,0.0
-1760,2660,-24900,10765,-26135,8995,2025-02-17 11:36:55,0.0
-1024,5232,-26596,6554,-32768,5593,2025-02-17 11:36:55,0.0
-5180,7692,-26120,3105,-26640,2806,2025-02-17 11:36:55,0.0
-3944,8080,-24328,509,-13432,3,2025-02-17 11:36:55,0.0
-5632,6896,-21596,-400,-3327,-2223,2025-02-17 11:36:55,0.0
-5104,4764,-19444,1351,1353,-3499,2025-02-17 11:36:55,0.0
-1652,2624,-22056,1454,328,-5418,2025-02-17 11:36:55,0.0
-2180,1712,-21108,-1118,-2442,-9363,2025-02-17 11:36:55,0.0
-6256,-32,-17308,473,-6172,-10527,2025-02-17 11:36:55,0.0
-8508,-1276,-18424,1506,-10426,-8579,2025-02-17 11:36:55,0.0
-7896,-2224,-19632,2705,-14297,-5660,2025-02-17 11:36:55,0.0
-7620,-2232,-19380,2096,-17183,-4575,2025-02-17 11:36:55,0.0
-8492,-1904,-18124,1746,-18636,-4391,2025-02-17 11:36:55,0.0
-7880,-1708,-16936,2669,-19010,-4982,2025-02-17 11:36:55,0.0
-7056,-2360,-17516,3206,-18077,-7423,2025-02-17 11:36:55,0.0
-9544,-2720,-17312,1976,-15607,-8696,2025-02-17 11:36:55,0.0
-11416,-2124,-15288,691,-12948,-6607,2025-02-17 11:36:55,0.0
-9820,-1472,-11676,2082,-11531,-3711,2025-02-17 11:36:55,0.0
-7908,-2564,-12320,5187,-11278,-2171,2025-02-17 11:36:55,0.0
-13504,-5096,-15256,4813,-8563,-117,2025-02-17 11:36:55,0.0
-13312,-5752,-13456,603,-3722,1778,2025-02-17 11:36:55,0.0
-10820,-4748,-8988,-2474,2745,363,2025-02-17 11:36:55,0.0
-9072,-2704,-5048,-3542,8241,-1433,2025-02-17 11:36:55,0.0
-10704,-2652,-936,-549,12468,-1455,2025-02-17 11:36:55,0.0
-11120,-2000,-3604,2964,15177,-161,2025-02-17 11:36:55,0.0
-9040,-2452,-11244,3320,14662,1046,2025-02-17 11:36:56,0.0
-6016,-1980,-13596,950,11317,1309,2025-02-17 11:36:56,0.0
-5920,-1260,-13104,-3959,8027,820,2025-02-17 11:36:56,0.0
-7776,-932,-6376,-5206,5378,2671,2025-02-17 11:36:56,0.0
-6432,-1296,-2672,-3296,3165,7207,2025-02-17 11:36:56,0.0
-4508,-708,-1588,-518,1576,8908,2025-02-17 11:36:56,0.0
-4324,724,-4808,589,561,7137,2025-02-17 11:36:56,0.0
-5100,2900,-6320,-1157,-547,3911,2025-02-17 11:36:56,0.0
-5400,2092,-5264,-3550,-3836,2101,2025-02-17 11:36:56,0.0
-6508,796,-652,6877,-15273,288,2025-02-17 11:36:56,0.0
-6240,-760,-612,6057,-14735,445,2025-02-17 11:36:56,
-10768,-764,-632,5454,-12874,1667,2025-02-17 11:36:56,0.0
-10168,-28,2192,5833,-9504,2674,2025-02-17 11:36:56,0.0
-9792,1708,2208,6915,-6071,2039,2025-02-17 11:36:56,0.0
-11676,1552,-1332,5566,-976,1053,2025-02-17 11:36:56,0.0
-13036,-56,-1896,3323,2799,938,2025-02-17 11:36:56,0.0
-13308,-1776,-1208,2205,5542,897,2025-02-17 11:36:56,0.0
-12100,-1472,-2208,1609,6380,480,2025-02-17 11:36:56,0.0
-12056,448,-2228,554,5976,-45,2025-02-17 11:36:56,0.0
-11696,1656,-1540,-139,5267,-603,2025-02-17 11:36:56,0.0
-11836,1784,-512,15,4323,-1525,2025-02-17 11:36:56,0.0
-13288,1068,168,751,3769,-902,2025-02-17 11:36:56,0.0
-13604,192,-1020,912,4691,-640,2025-02-17 11:36:56,0.0
-13608,-2004,7596,5559,-10457,-732,2025-02-17 11:36:56,0.0
-18580,1076,4112,-51,-8579,-919,2025-02-17 11:36:56,0.0
-15824,3100,792,-1391,-383,-1135,2025-02-17 11:36:56,0.0
-14000,1332,-544,3506,-845,-2789,2025-02-17 11:36:56,0.0
-17280,-80,-1960,3330,-1573,-1999,2025-02-17 11:36:56,0.0
-14864,-796,3492,3466,-2176,-339,2025-02-17 11:36:56,0.0
-14144,-372,2676,5354,-1578,198,2025-02-17 11:36:56,0.0
-13972,392,36,4594,-239,1635,2025-02-17 11:36:56,0.0
-13204,128,468,4025,352,1979,2025-02-17 11:36:56,0.0
-12572,-144,1168,3882,1468,1298,2025-02-17 11:36:56,0.0
-12452,12,472,3839,2083,-192,2025-02-17 11:36:56,0.0
-12576,324,-284,2674,1206,-979,2025-02-17 11:36:56,0.0
-12868,236,484,2461,870,-1482,2025-02-17 11:36:56,0.0
-14424,640,980,2103,1896,-543,2025-02-17 11:36:56,0.0
-12316,204,1248,2733,1849,-702,2025-02-17 11:36:56,0.0
-11824,-80,544,2623,2334,-2817,2025-02-17 11:36:56,0.0
-12108,-232,568,2135,2663,-4824,2025-02-17 11:36:56,0.0
-13788,-544,488,2002,3205,-5558,2025-02-17 11:36:56,0.0
-15200,-1068,1580,2150,4318,-5180,2025-02-17 11:36:56,0.0
-15372,-1444,2212,2535,4072,-5055,2025-02-17 11:36:56,0.0
-15784,-1068,1160,2636,3438,-4602,2025-02-17 11:36:56,0.0
-14924,-1256,168,3723,3238,-4527,2025-02-17 11:36:56,0.0
-14696,-880,-2128,3484,1785,-4639,2025-02-17 11:36:56,0.0
-14828,-1796,-164,2397,-26,-4586,2025-02-17 11:36:56,0.0
-14856,-2952,1552,1976,-1837,-3893,2025-02-17 11:36:56,0.0
-14036,-3428,3072,2121,-3319,-2668,2025-02-17 11:36:56,0.0
-13156,-3200,3196,2902,-4106,-1639,2025-02-17 11:36:56,0.0
-12044,-2944,2136,3339,-3219,-1195,2025-02-17 11:36:56,0.0
-11300,-2644,1060,2755,-416,-1332,2025-02-17 11:36:56,0.0
-12064,-2116,1012,1981,2734,-1567,2025-02-17 11:36:56,0.0
-13436,-2032,856,905,4144,-1949,2025-02-17 11:36:56,0.0
-14208,-2408,1492,803,3188,-2065,2025-02-17 11:36:56,0.0
-14140,-3072,1756,1308,1797,-2030,2025-02-17 11:36:56,0.0
-13556,-3364,1304,1516,1162,-1968,2025-02-17 11:36:56,0.0
-13328,-3644,676,1360,1480,-1517,2025-02-17 11:36:56,0.0
-12604,-3848,472,967,2701,-1367,2025-02-17 11:36:57,0.0
-12988,-3748,1232,1027,3819,-1379,2025-02-17 11:36:57,0.0
-13504,-3492,1416,1140,3929,-1084,2025-02-17 11:36:57,0.0
-13548,-3424,1168,1336,3159,-1027,2025-02-17 11:36:57,0.0
-13760,-3340,1192,1627,2130,-886,2025-02-17 11:36:57,0.0
-13656,-3656,808,1706,1765,-418,2025-02-17 11:36:57,0.0
-13332,-3504,708,1557,1463,-138,2025-02-17 11:36:57,0.0
-12972,-3104,608,1431,985,-30,2025-02-17 11:36:57,0.0
-12848,-2540,508,1000,1161,-33,2025-02-17 11:36:57,0.0
-12948,-2500,1284,811,1744,-45,2025-02-17 11:36:57,0.0
-12852,-2604,956,702,1745,3,2025-02-17 11:36:57,0.0
-12996,-2700,668,274,1325,262,2025-02-17 11:36:57,0.0
-12932,-3112,1224,-223,1373,635,2025-02-17 11:36:57,0.0
-13128,-3416,1268,-626,1986,1112,2025-02-17 11:36:57,0.0
-12736,-3520,1640,-883,2187,1364,2025-02-17 11:36:57,0.0
-12980,-3824,1820,-993,1909,1437,2025-02-17 11:36:57,0.0
-13044,-2812,2432,-1147,1300,1683,2025-02-17 11:36:57,0.0
-13232,-3052,2552,-1412,1402,1445,2025-02-17 11:36:57,0.0
-13608,-2828,2680,-1578,605,932,2025-02-17 11:36:57,0.0
-14228,-2864,2292,-1999,-221,437,2025-02-17 11:36:57,0.0
-15044,-3520,3636,-2246,-288,387,2025-02-17 11:36:57,0.0
-15272,-4204,3268,-2265,197,595,2025-02-17 11:36:57,0.0
-15112,-4332,-1800,-2856,1900,73,2025-02-17 11:36:57,0.0
-16848,-2388,-3216,-4050,5740,-996,2025-02-17 11:36:57,0.0
-16280,-4956,-2740,-4469,9123,-4016,2025-02-17 11:36:57,0.0
-18792,-6580,-3160,-4250,9369,-5644,2025-02-17 11:36:57,0.0
-20984,-6760,-3444,-3863,10111,-4638,2025-02-17 11:36:57,0.0
-20776,-6420,-4352,-3618,11010,-3483,2025-02-17 11:36:57,0.0
-19636,-4632,-4768,-3252,7813,-2042,2025-02-17 11:36:57,0.0
-17224,-4388,-7228,-3132,-757,309,2025-02-17 11:36:57,0.0
-14228,-3320,-6448,-2238,-9473,2521,2025-02-17 11:36:57,0.0
-11592,-1392,-4548,-426,-15229,3349,2025-02-17 11:36:57,0.0
-10848,180,-2668,931,-14978,3779,2025-02-17 11:36:57,0.0
-9804,-176,-1328,2816,-10647,3669,2025-02-17 11:36:57,0.0
-11460,-1788,-1452,5028,-7380,3884,2025-02-17 11:36:57,0.0
-13044,-1800,-1684,6137,-4485,5417,2025-02-17 11:36:57,0.0
-13280,-744,-1716,5643,-1950,6287,2025-02-17 11:36:57,0.0
-12688,592,-2472,4730,-124,6236,2025-02-17 11:36:57,0.0
-12348,1752,-3100,3774,1448,5736,2025-02-17 11:36:57,0.0
-12356,2172,-3304,2746,2704,4426,2025-02-17 11:36:57,0.0
-13108,1360,-3160,2567,797,3657,2025-02-17 11:36:57,0.0
-13428,28,-2684,2649,-2907,3439,2025-02-17 11:36:57,0.0
-13136,-224,-3092,2504,-4791,3605,2025-02-17 11:36:57,0.0
-12416,564,-3404,2157,-4080,3752,2025-02-17 11:36:57,0.0
-11264,1208,-3004,1653,-3087,3726,2025-02-17 11:36:57,0.0
-10536,988,-1580,1305,-2245,3333,2025-02-17 11:36:57,0.0
-10860,268,-720,1592,-1145,3065,2025-02-17 11:36:57,0.0
-11580,-316,488,2072,717,3048,2025-02-17 11:36:57,0.0
-11820,-312,720,2716,1970,3176,2025-02-17 11:36:57,0.0
-12840,-92,-208,2940,2055,3237,2025-02-17 11:36:57,0.0
-12928,24,-828,3423,2028,3482,2025-02-17 11:36:57,0.0
-12716,1208,-884,3730,1990,3695,2025-02-17 11:36:57,0.0
-12668,1492,-860,4068,2134,4018,2025-02-17 11:36:57,
-12496,1548,-660,4417,1599,4206,2025-02-17 11:36:57,0.0
-12260,1476,-1084,4302,646,3837,2025-02-17 11:36:57,0.0
-10996,1104,-2836,4192,-562,3115,2025-02-17 11:36:57,0.0
-11192,1972,-1076,3846,-1449,2185,2025-02-17 11:36:57,0.0
-10416,2144,-812,3663,-1543,1341,2025-02-17 11:36:57,0.0
-9760,2240,-824,3408,-1471,387,2025-02-17 11:36:57,0.0
-9452,2580,-1248,3210,-1210,-439,2025-02-17 11:36:57,0.0
-9492,2564,-1080,2593,-256,-1575,2025-02-17 11:36:57,0.0
-10476,2140,792,1908,834,-2993,2025-02-17 11:36:57,0.0
-11860,1608,1892,1463,718,-4067,2025-02-17 11:36:58,0.0
-13076,1576,2556,1179,-671,-4503,2025-02-17 11:36:58,0.0
-14072,1912,1792,1315,-2404,-4235,2025-02-17 11:36:58,0.0
-14652,1872,-528,1612,-4237,-3315,2025-02-17 11:36:58,0.0
-14060,1792,-2408,2326,-4194,-2440,2025-02-17 11:36:58,0.0
-13088,-120,-1752,2429,-721,-1911,2025-02-17 11:36:58,0.0
-13784,-656,-1152,2539,5243,-2189,2025-02-17 11:36:58,0.0
-17412,1648,1484,800,13819,-404,2025-02-17 11:36:58,0.0
-20244,1296,136,508,12583,-184,2025-02-17 11:36:58,0.0
-23344,-2080,-1540,-98,11621,-137,2025-02-17 11:36:58,0.0
-26284,-1864,-3432,16,8705,848,2025-02-17 11:36:58,0.0
-23408,2364,-8828,-33,3521,3186,2025-02-17 11:36:58,0.0
-18204,5216,-11316,-896,-2200,3958,2025-02-17 11:36:58,0.0
-14052,5428,-7556,-1050,-6836,2226,2025-02-17 11:36:58,0.0
-10528,2188,-4440,-426,-10129,491,2025-02-17 11:36:58,0.0
-9872,-2532,-660,690,-11657,-686,2025-02-17 11:36:58,0.0
-8604,-4048,-2916,1167,-8496,-1678,2025-02-17 11:36:58,0.0
-8336,-3240,-4972,-139,-3992,-3556,2025-02-17 11:36:58,0.0
-9692,-1744,-5600,-1842,-347,-4978,2025-02-17 11:36:58,0.0
-10996,-128,-6248,-3287,1235,-5458,2025-02-17 11:36:58,0.0
-12468,692,-4616,-4154,2350,-4817,2025-02-17 11:36:58,0.0
-13268,1044,-3120,-3630,4206,-3610,2025-02-17 11:36:58,0.0
-12748,1040,-2748,-3349,5501,-3478,2025-02-17 11:36:58,0.0
-13436,892,-2536,-3516,5235,-3790,2025-02-17 11:36:58,0.0
-14020,320,-4044,-4305,1267,-3953,2025-02-17 11:36:58,0.0
-13680,-252,-4376,-4644,-2407,-3718,2025-02-17 11:36:58,0.0
-13256,-480,-5124,-5398,-4483,-3235,2025-02-17 11:36:58,0.0
-11860,-976,-4748,-6684,-5411,-3029,2025-02-17 11:36:58,0.0
-10924,-1172,-4704,-7886,-6167,-3330,2025-02-17 11:36:58,0.0
-10644,-1176,-4380,-9356,-6233,-3775,2025-02-17 11:36:58,0.0
-11056,-1128,-3856,-10828,-4759,-3456,2025-02-17 11:36:58,0.0
-10780,-1284,-3356,-12004,-2428,-2631,2025-02-17 11:36:58,0.0
-11120,-1060,-3108,-12908,237,-1987,2025-02-17 11:36:58,0.0
-12220,-1104,-3536,-13947,1755,-1708,2025-02-17 11:36:58,0.0
-12984,-932,-3264,-14702,1634,-1613,2025-02-17 11:36:58,0.0
-13128,-1212,-3692,-15751,677,-1613,2025-02-17 11:36:58,0.0
-12832,-1508,-2888,-16207,-455,-1892,2025-02-17 11:36:58,0.0
-12944,-1684,-1936,-15676,-1144,-1935,2025-02-17 11:36:58,0.0
-12904,-1484,-2720,-15520,-961,-2063,2025-02-17 11:36:58,0.0
-12928,-1556,-2028,-15812,26,-2230,2025-02-17 11:36:58,0.0
-14480,-1748,-2192,-15924,663,-2069,2025-02-17 11:36:58,0.0
-15180,-1832,-3028,-16371,201,-1878,2025-02-17 11:36:58,0.0
-15124,-2144,-2816,-16888,-1898,-2142,2025-02-17 11:36:58,0.0
-14700,-2200,-3060,-17237,-3072,-2056,2025-02-17 11:36:58,0.0
-13392,-2976,-2804,-17829,-3291,-1915,2025-02-17 11:36:58,0.0
-13244,-2968,-2152,-18320,-3058,-1836,2025-02-17 11:36:58,0.0
-12880,-1756,-2964,-19381,-2134,-2076,2025-02-17 11:36:58,0.0
-14112,-220,-4420,-20077,-1337,-2195,2025-02-17 11:36:58,0.0
-14408,-600,-4884,-19779,-1380,-2894,2025-02-17 11:36:58,0.0
-14528,-1272,-5092,-19448,-600,-3364,2025-02-17 11:36:58,0.0
-13256,-1976,-5964,-19627,216,-3503,2025-02-17 11:36:58,0.0
-12328,-1960,-6132,-20448,1596,-3581,2025-02-17 11:36:58,0.0
-12592,-472,-4296,-21415,2826,-3308,2025-02-17 11:36:58,0.0
-13704,228,-3888,-21688,3984,-2668,2025-02-17 11:36:58,0.0
-13992,504,-4920,-21833,4421,-1970,2025-02-17 11:36:58,0.0
-13340,140,-4336,-21726,4216,-1977,2025-02-17 11:36:58,0.0
-12772,348,-3420,-20769,3546,-2025,2025-02-17 11:36:58,0.0
-11724,1240,-2848,-19566,2247,-2180,2025-02-17 11:36:58,0.0
-12632,1404,-1928,-18189,953,-2668,2025-02-17 11:36:58,0.0
-12992,1316,-2092,-17166,-17,-3053,2025-02-17 11:36:58,0.0
-13008,1108,-2408,-16204,-1346,-3104,2025-02-17 11:36:59,0.0
-13104,564,-1912,-14568,-2540,-2863,2025-02-17 11:36:59,0.0
-13068,216,-2304,-13426,-3012,-2324,2025-02-17 11:36:59,0.0
-12572,164,-3412,-13468,-2497,-2000,2025-02-17 11:36:59,0.0
-11920,72,-3832,-15086,-945,-2480,2025-02-17 11:36:59,0.0
-12840,136,-2572,-16746,542,-2778,2025-02-17 11:36:59,0.0
-13048,-196,-2524,-17106,1228,-2799,2025-02-17 11:36:59,0.0
-12800,-56,-2464,-16673,1173,-2959,2025-02-17 11:36:59,0.0
-12616,372,-1888,-16369,1299,-3121,2025-02-17 11:36:59,0.0
-12696,984,-2396,-16633,1596,-3639,2025-02-17 11:36:59,0.0
-12516,984,-2796,-16835,2450,-4464,2025-02-17 11:36:59,0.0
-13256,472,-2768,-16515,3282,-4633,2025-02-17 11:36:59,0.0
-13908,-284,-2608,-15868,3947,-4251,2025-02-17 11:36:59,0.0
-14440,-532,-2364,-15277,3914,-3865,2025-02-17 11:36:59,0.0
-14552,-776,-2000,-14722,2638,-3710,2025-02-17 11:36:59,0.0
-14480,-1084,-1800,-14043,691,-3537,2025-02-17 11:36:59,0.0
-13620,-744,-1716,-13700,-1160,-3532,2025-02-17 11:36:59,0.0
-12868,-500,-1068,-13504,-2254,-3730,2025-02-17 11:36:59,0.0
-12636,-476,-1480,-13359,-1967,-3905,2025-02-17 11:36:59,0.0
-12744,-244,-2428,-13587,-536,-4160,2025-02-17 11:36:59,0.0
-13192,-1112,-2108,-12941,545,-4028,2025-02-17 11:36:59,0.0
-12752,-860,-2452,-12030,686,-4285,2025-02-17 11:36:59,0.0
-13004,-736,-2768,-11868,419,-4622,2025-02-17 11:36:59,0.0
-13348,-712,-2568,-11781,65,-4849,2025-02-17 11:36:59,0.0
-13552,-1164,-2420,-11348,-240,-4751,2025-02-17 11:36:59,0.0
-13288,-1068,-2032,-10794,-489,-4628,2025-02-17 11:36:59,0.0
-13616,-1664,-820,-10323,-631,-4823,2025-02-17 11:36:59,0.0
-13272,-2096,-1080,-10114,-906,-4932,2025-02-17 11:36:59,0.0
-14276,-2212,-636,-9682,-890,-4750,2025-02-17 11:36:59,0.0
-15216,-2808,-316,-9358,-1385,-3846,2025-02-17 11:36:59,0.0
-16444,-3172,180,-8370,-1068,-2662,2025-02-17 11:36:59,
-15736,-3188,532,-7196,-1133,-875,2025-02-17 11:36:59,0.0
-14016,-2992,116,-5921,-763,78,2025-02-17 11:36:59,0.0
-14160,-2260,312,-5143,1325,826,2025-02-17 11:36:59,0.0
-13640,-2544,-812,-4802,3814,1268,2025-02-17 11:36:59,0.0
-13644,-2488,-760,-3738,5270,950,2025-02-17 11:36:59,0.0
-14636,-1600,-964,-2668,4049,1005,2025-02-17 11:36:59,0.0
-14784,-1040,-1736,-2317,1050,1209,2025-02-17 11:36:59,0.0
-14148,-932,-1932,-1779,-2791,1465,2025-02-17 11:36:59,0.0
-12512,-92,-4148,-1713,-6396,1112,2025-02-17 11:36:59,0.0
-10944,488,-4680,-1931,-7700,447,2025-02-17 11:36:59,0.0
-9576,620,-3472,-2231,-7327,-255,2025-02-17 11:36:59,0.0
-9148,304,-2544,-2778,-5386,-1284,2025-02-17 11:36:59,0.0
-10096,-488,-1504,-3803,-1676,-1951,2025-02-17 11:36:59,0.0
-11536,-1240,-848,-4622,1687,-2150,2025-02-17 11:36:59,0.0
-13836,-1392,144,-4696,5676,-1281,2025-02-17 11:36:59,0.0
-15124,-1816,320,-4491,9297,169,2025-02-17 11:36:59,0.0
-15760,-1800,280,-3762,11612,1369,2025-02-17 11:36:59,0.0
-16884,-1552,-652,-3042,11900,2631,2025-02-17 11:36:59,0.0
-16980,-1004,-920,-2404,9692,3364,2025-02-17 11:36:59,0.0
-16372,-424,-1484,-1335,4801,2650,2025-02-17 11:36:59,0.0
-14656,-176,-904,-223,-1776,2572,2025-02-17 11:36:59,0.0
-12748,-368,-144,627,-3665,2253,2025-02-17 11:36:59,0.0
-10904,-624,-328,1231,-3428,2201,2025-02-17 11:36:59,0.0
-10396,-656,-240,1798,-1844,1857,2025-02-17 11:36:59,0.0
-10696,-708,440,2368,578,1656,2025-02-17 11:36:59,0.0
-11728,-116,744,2828,3118,1241,2025-02-17 11:36:59,0.0
-12564,248,336,2858,3857,611,2025-02-17 11:36:59,0.0
-12864,544,64,2534,3689,89,2025-02-17 11:36:59,0.0
-14224,1144,-80,2134,3280,-263,2025-02-17 11:36:59,0.0
-14464,1356,944,1946,2837,-344,2025-02-17 11:36:59,0.0
-14344,1648,752,1751,1097,-290,2025-02-17 11:36:59,0.0
-13304,1600,744,1684,-181,-348,2025-02-17 11:37:00,0.0
-13124,2096,676,1672,-368,-441,2025-02-17 11:37:00,0.0
-13748,2324,876,1579,321,-423,2025-02-17 11:37:00,0.0
-15220,2640,1896,1642,277,-57,2025-02-17 11:37:00,0.0
-15300,2624,1308,2157,-954,322,2025-02-17 11:37:00,0.0
-14320,2568,572,2614,-2899,444,2025-02-17 11:37:00,0.0
-13488,2628,444,3062,-3610,458,2025-02-17 11:37:00,0.0
-13256,3220,-1112,3122,-2499,772,2025-02-17 11:37:00,0.0
-14312,2628,-4312,3048,1722,1331,2025-02-17 11:37:00,0.0
-16444,672,-3148,2880,6858,1911,2025-02-17 11:37:00,0.0
-20548,744,-712,2972,8820,3265,2025-02-17 11:37:00,0.0
-22764,3072,-6100,3411,11234,5056,2025-02-17 11:37:00,0.0
-21096,4528,-9756,3079,9171,4582,2025-02-17 11:37:00,0.0
-17568,2904,-8348,2184,-2052,310,2025-02-17 11:37:00,0.0
-16812,2212,-6648,1798,-11073,-2037,2025-02-17 11:37:00,0.0
-13332,716,-6308,1955,-12539,-2322,2025-02-17 11:37:00,0.0
-11356,-1044,-6040,2583,-10573,-2528,2025-02-17 11:37:00,0.0
-9736,-2232,-6020,2486,-9378,-2290,2025-02-17 11:37:00,0.0
-8728,-2904,-5052,1492,-9228,-2362,2025-02-17 11:37:00,0.0
-9172,-2228,-3960,1052,-7053,-2618,2025-02-17 11:37:00,0.0
-9604,-1548,-4328,213,-3990,-2520,2025-02-17 11:37:00,0.0
-9720,-1896,-2708,91,-1282,-2705,2025-02-17 11:37:00,0.0
-9876,-2288,-2736,541,396,-3047,2025-02-17 11:37:00,0.0
-10020,-1880,-3676,1110,1015,-3370,2025-02-17 11:37:00,0.0
-10652,-1620,-3868,900,1957,-3595,2025-02-17 11:37:00,0.0
-11668,-824,-3308,773,2791,-3249,2025-02-17 11:37:00,0.0
-11952,-664,-2500,584,3325,-2995,2025-02-17 11:37:00,0.0
-13292,-1240,-1200,859,2487,-2714,2025-02-17 11:37:00,0.0
-14128,-1592,-1432,1188,642,-2026,2025-02-17 11:37:00,0.0
-14084,-1960,-2440,697,-1756,-1572,2025-02-17 11:37:00,0.0
-12876,-2268,-2504,76,-4036,-1351,2025-02-17 11:37:00,0.0
-11556,-2468,-1428,-212,-5224,-1511,2025-02-17 11:37:00,0.0
-10796,-2296,-904,-430,-5500,-1835,2025-02-17 11:37:00,0.0
-10948,-2456,-920,-684,-3846,-1897,2025-02-17 11:37:00,0.0
-11608,-1648,260,-1004,-1661,-1518,2025-02-17 11:37:00,0.0
-11920,-1352,100,-1296,165,-1036,2025-02-17 11:37:00,0.0
-12768,-1008,-392,-1627,688,-698,2025-02-17 11:37:00,0.0
-12992,-2624,1856,-164,-3036,889,2025-02-17 11:37:00,0.0
-12628,-3452,380,664,-3382,2133,2025-02-17 11:37:00,0.0
-12708,-3484,-2212,-527,-2052,3077,2025-02-17 11:37:00,0.0
-13480,-2388,-2364,-3223,354,2847,2025-02-17 11:37:00,0.0
-15544,604,-2040,-4997,2628,1602,2025-02-17 11:37:00,0.0
-17876,3812,-480,-3795,1151,-308,2025-02-17 11:37:00,0.0
-19904,2532,-912,-2431,-2331,-789,2025-02-17 11:37:00,0.0
-18328,3292,-1208,-2919,-9466,-442,2025-02-17 11:37:00,0.0
-14636,4108,160,-6412,-14574,-2501,2025-02-17 11:37:00,0.0
-13160,4284,1876,-10451,-16852,-5009,2025-02-17 11:37:00,0.0
-7528,592,-684,-15809,-19057,-8967,2025-02-17 11:37:00,0.0
-8488,1456,172,-17840,-19884,-12775,2025-02-17 11:37:00,0.0
-14456,3932,-12912,-19050,-12497,-11443,2025-02-17 11:37:00,0.0
-13652,5844,-15340,-19430,7737,-10299,2025-02-17 11:37:00,0.0
-17400,-8740,-18200,-22436,15352,-6494,2025-02-17 11:37:00,0.0
-15680,-9904,-5752,-23437,18093,-6192,2025-02-17 11:37:00,0.0
-22080,-6112,-68,-24494,16644,-3805,2025-02-17 11:37:00,0.0
-23464,68,-4984,-25068,5786,3999,2025-02-17 11:37:00,0.0
-18068,-1180,-7428,-25802,-3492,5016,2025-02-17 11:37:00,0.0
-15516,1232,-4796,-23334,-9059,1470,2025-02-17 11:37:00,0.0
-11572,3080,-9636,-22603,-9320,-117,2025-02-17 11:37:00,0.0
-9208,2124,-7164,-23999,-8277,-2262,2025-02-17 11:37:00,0.0
-10172,-640,-4996,-23783,-4883,-4016,2025-02-17 11:37:00,0.0
-10020,-2224,-7624,-23773,-1731,-4017,2025-02-17 11:37:01,0.0
-11516,-3460,-6144,-24697,495,-4034,2025-02-17 11:37:01,0.0
-13544,-4640,-3668,-24639,1964,-1911,2025-02-17 11:37:01,0.0
-11772,-4000,-2016,-24273,-643,-1580,2025-02-17 11:37:01,0.0
-11060,-1940,-1620,-24507,-5510,-2293,2025-02-17 11:37:01,0.0
-11544,-488,-3904,-25054,-7251,-2080,2025-02-17 11:37:01,0.0
-10820,-44,-4856,-25975,-7302,-1905,2025-02-17 11:37:01,0.0
-10556,-116,-4348,-26485,-5496,-2518,2025-02-17 11:37:01,0.0
-11100,-380,-3476,-25826,-3119,-3358,2025-02-17 11:37:01,
-13368,-1580,-2988,-24906,-1343,-3167,2025-02-17 11:37:01,0.0
-13408,-2808,-504,-23604,135,-3123,2025-02-17 11:37:01,0.0
-14724,-2280,-656,-21553,1952,-4956,2025-02-17 11:37:01,0.0
-17844,-2120,-2888,-20005,9886,-5634,2025-02-17 11:37:01,0.0
-17756,-2376,-3932,-19146,19955,-4960,2025-02-17 11:37:01,0.0
-14544,-2244,-932,-18789,27297,-4452,2025-02-17 11:37:01,0.0
-13296,-840,-1216,-18796,29820,-4275,2025-02-17 11:37:01,0.0
-16096,1200,204,-18712,32767,-2064,2025-02-17 11:37:01,0.0
-13800,-288,4880,-14987,32767,274,2025-02-17 11:37:01,0.0
-12192,-664,1628,-10485,32767,2375,2025-02-17 11:37:01,0.0
-10288,28,-3584,-9265,32767,3759,2025-02-17 11:37:01,0.0
2552,-420,1128,-3537,6130,-4984,2025-02-17 11:37:01,0.0
2608,-440,1236,-3673,7526,-5581,2025-02-17 11:37:01,0.0
2840,-480,1148,-3809,8951,-6454,2025-02-17 11:37:01,0.0
2776,-572,1060,-4021,10487,-7430,2025-02-17 11:37:01,0.0
2596,-628,1068,-4187,11897,-8346,2025-02-17 11:37:01,0.0
2680,-552,1096,-4392,13481,-9247,2025-02-17 11:37:01,0.0
2400,-588,772,-4422,15177,-10103,2025-02-17 11:37:01,0.0
2588,-596,620,-4485,16708,-11038,2025-02-17 11:37:01,0.0
2008,-516,504,-4342,18343,-11489,2025-02-17 11:37:01,0.0
15988,5692,32767,32767,32767,-27807,2025-02-17 11:37:01,0.0
-32768,-32768,-32768,32767,32767,-32768,2025-02-17 11:37:01,0.0
22820,-32768,-18400,-32768,32767,-9610,2025-02-17 11:37:01,0.0
9176,15692,9236,9936,18446,10074,2025-02-17 11:37:01,0.0
5928,2652,5596,26644,14292,14498,2025-02-17 11:37:01,0.0
6032,-2112,3212,32003,16608,11522,2025-02-17 11:37:01,0.0
9112,-5540,-1728,31919,22324,5087,2025-02-17 11:37:01,0.0
8404,-5040,-1228,26973,25623,-5000,2025-02-17 11:37:01,0.0
3912,-1612,1604,24403,27239,-8524,2025-02-17 11:37:01,0.0
3440,-1640,-152,23570,26745,-8100,2025-02-17 11:37:01,0.0
4088,-2952,-5928,19142,21416,-6618,2025-02-17 11:37:02,0.0
8376,-6772,-13208,9603,10051,-6132,2025-02-17 11:37:02,0.0
14948,-12212,-17572,-1357,-1219,-8298,2025-02-17 11:37:02,0.0
17464,-21748,-16752,-12463,-13265,-10892,2025-02-17 11:37:02,0.0
16596,-22932,-15128,-19076,-21214,-9551,2025-02-17 11:37:02,0.0
13428,-14920,-8808,-18901,-26071,-3965,2025-02-17 11:37:02,0.0
13476,-6200,-7532,-12623,-32344,1126,2025-02-17 11:37:02,0.0
9720,-3164,-10020,-7523,-32768,2135,2025-02-17 11:37:02,0.0
4176,-3736,-11780,-4800,-32768,2673,2025-02-17 11:37:02,0.0
636,-6080,-14264,-2453,-27946,3196,2025-02-17 11:37:02,0.0
-1656,-7920,-15716,-1270,-14906,2499,2025-02-17 11:37:02,0.0
-1940,-8740,-14024,-327,-1516,1095,2025-02-17 11:37:02,0.0
1236,-8720,-12272,468,5480,-809,2025-02-17 11:37:02,0.0
3352,-7572,-12932,201,8642,-868,2025-02-17 11:37:02,0.0
5788,-7340,-13412,-105,6263,-799,2025-02-17 11:37:02,0.0
6496,-7632,-13588,-116,1850,-350,2025-02-17 11:37:02,0.0
5532,-7764,-13396,-108,-1819,15,2025-02-17 11:37:02,0.0
3824,-7628,-12976,-366,-2123,54,2025-02-17 11:37:02,0.0
3140,-7432,-13176,-233,-459,-118,2025-02-17 11:37:02,0.0
3576,-7592,-13488,-103,1017,-272,2025-02-17 11:37:02,0.0
4688,-7628,-13464,-142,910,-277,2025-02-17 11:37:02,0.0
4752,-7428,-13120,-158,-87,-138,2025-02-17 11:37:02,0.0
4052,-7584,-13452,-210,-275,-99,2025-02-17 11:37:02,0.0
3792,-7596,-13400,-147,130,-140,2025-02-17 11:37:02,0.0
4048,-7640,-13244,-147,425,-225,2025-02-17 11:37:02,0.0
4420,-7564,-13368,-148,328,-194,2025-02-17 11:37:02,0.0
4324,-7560,-13428,-154,82,-162,2025-02-17 11:37:02,0.0
4128,-7568,-13308,-148,15,-147,2025-02-17 11:37:02,0.0
4088,-7600,-13244,-147,158,-174,2025-02-17 11:37:02,0.0
4116,-7572,-13356,-183,263,-213,2025-02-17 11:37:02,0.0
4324,-7564,-13248,-184,249,-195,2025-02-17 11:37:02,0.0
4220,-7532,-13324,-142,108,-181,2025-02-17 11:37:02,0.0
4168,-7488,-13292,-170,113,-175,2025-02-17 11:37:02,0.0
4112,-7612,-13384,-142,194,-168,2025-02-17 11:37:02,0.0
4184,-7524,-13384,-162,202,-173,2025-02-17 11:37:02,0.0
4256,-7536,-13360,-160,162,-183,2025-02-17 11:37:02,0.0
4180,-7548,-13408,-140,140,-178,2025-02-17 11:37:02,0.0
4212,-7576,-13328,-162,162,-159,2025-02-17 11:37:02,0.0
4216,-7556,-13336,-154,186,-174,2025-02-17 11:37:02,0.0
4220,-7584,-13428,-158,178,-186,2025-02-17 11:37:02,0.0
4272,-7600,-13384,-154,163,-157,2025-02-17 11:37:02,0.0
4212,-7552,-13340,-164,149,-180,2025-02-17 11:37:02,0.0
4152,-7584,-13328,-160,179,-183,2025-02-17 11:37:02,0.0
4200,-7584,-13256,-148,191,-170,2025-02-17 11:37:02,0.0
4176,-7540,-13376,-159,177,-180,2025-02-17 11:37:02,0.0
4224,-7584,-13296,-152,150,-172,2025-02-17 11:37:02,0.0
4136,-7568,-13320,-162,180,-173,2025-02-17 11:37:02,0.0
4312,-7584,-13388,-186,166,-188,2025-02-17 11:37:02,0.0
4080,-7588,-13304,-160,177,-172,2025-02-17 11:37:02,0.0
4220,-7632,-13248,-172,153,-164,2025-02-17 11:37:02,0.0
4152,-7548,-13460,-184,184,-177,2025-02-17 11:37:02,0.0
4212,-7572,-13160,-136,171,-191,2025-02-17 11:37:02,0.0
4252,-7604,-13360,-152,171,-183,2025-02-17 11:37:02,0.0
4252,-7568,-13372,-159,171,-181,2025-02-17 11:37:02,0.0
4200,-7448,-13384,-175,151,-190,2025-02-17 11:37:02,0.0
4284,-7556,-13164,-160,176,-179,2025-02-17 11:37:02,0.0
4264,-7480,-13256,-158,147,-183,2025-02-17 11:37:02,0.0
4152,-7624,-13344,-169,169,-175,2025-02-17 11:37:02,0.0
4252,-7516,-13264,-134,178,-161,2025-02-17 11:37:02,0.0
4232,-7508,-13412,-174,171,-200,2025-02-17 11:37:02,0.0
4220,-7552,-13288,-171,180,-173,2025-02-17 11:37:02,0.0
4216,-7476,-13240,-150,200,-172,2025-02-17 11:37:02,0.0
4316,-7536,-13284,-167,164,-191,2025-02-17 11:37:02,0.0
4204,-7544,-13368,-168,155,-178,2025-02-17 11:37:02,0.0
4168,-7536,-13404,-148,178,-171,2025-02-17 11:37:02,0.0
4228,-7520,-13272,-161,175,-184,2025-02-17 11:37:03,0.0
4168,-7520,-13308,-182,161,-176,2025-02-17 11:37:03,0.0
4200,-7624,-13404,-177,191,-192,2025-02-17 11:37:03,0.0
4296,-7436,-13416,-163,165,-181,2025-02-17 11:37:03,0.0
4128,-7584,-13300,-145,176,-186,2025-02-17 11:37:03,
4168,-7592,-13324,-169,179,-186,2025-02-17 11:37:03,0.0
4216,-7488,-13272,-143,168,-181,2025-02-17 11:37:03,0.0
4212,-7472,-13376,-146,164,-162,2025-02-17 11:37:03,0.0
4204,-7436,-13408,-133,169,-156,2025-02-17 11:37:03,0.0
4248,-7488,-13236,-166,177,-160,2025-02-17 11:37:03,0.0
4252,-7528,-13396,-168,152,-177,2025-02-17 11:37:03,0.0
4188,-7548,-13396,-147,165,-193,2025-02-17 11:37:03,0.0
4252,-7812,-12980,40,269,-91,2025-02-17 11:37:03,0.0
3740,-7676,-13480,-362,76,-121,2025-02-17 11:37:03,0.0
4156,-6988,-12904,-118,193,-216,2025-02-17 11:37:03,0.0
4392,-8068,-13696,-153,142,-203,2025-02-17 11:37:03,0.0
4248,-7248,-12668,-185,183,-121,2025-02-17 11:37:03,0.0
4128,-7628,-13624,-151,177,-182,2025-02-17 11:37:03,0.0
4428,-7704,-13148,-175,118,-219,2025-02-17 11:37:03,0.0
4152,-7372,-13116,-134,135,-158,2025-02-17 11:37:03,0.0
4168,-7632,-13640,-164,222,-150,2025-02-17 11:37:03,0.0
4188,-7392,-13260,-154,186,-199,2025-02-17 11:37:03,0.0
4228,-7572,-13336,-157,136,-168,2025-02-17 11:37:03,0.0
4340,-7580,-13324,-177,118,-178,2025-02-17 11:37:03,0.0
4264,-7496,-13420,-147,154,-167,2025-02-17 11:37:03,0.0
4132,-7580,-13264,-172,231,-138,2025-02-17 11:37:03,0.0
4280,-7892,-13096,-491,419,2,2025-02-17 11:37:03,0.0
4480,-7732,-13352,-961,-246,36,2025-02-17 11:37:03,0.0
5492,-7516,-14020,-1302,-1316,-119,2025-02-17 11:37:03,0.0
4424,-7316,-13692,-1326,-1976,241,2025-02-17 11:37:03,0.0
3952,-7148,-12996,-1037,-2058,34,2025-02-17 11:37:03,0.0
7308,-5264,-8156,1023,-1452,-1756,2025-02-17 11:37:03,0.0
4072,-8000,-16088,181,-1565,77,2025-02-17 11:37:03,0.0
3452,-7980,-13616,123,-1515,27,2025-02-17 11:37:03,0.0
3036,-7712,-13968,-451,-855,507,2025-02-17 11:37:03,0.0
3336,-7684,-13272,-1022,-357,443,2025-02-17 11:37:03,0.0
4152,-6868,-13592,-701,-856,852,2025-02-17 11:37:03,0.0
3516,-7184,-13748,-930,-1042,1491,2025-02-17 11:37:03,0.0
4076,-8068,-13320,-328,-1899,1297,2025-02-17 11:37:03,0.0
3432,-8272,-13800,-1005,-2991,1022,2025-02-17 11:37:03,0.0
2024,-7564,-14384,-1301,-2920,1627,2025-02-17 11:37:03,0.0
3592,-6900,-12768,-1225,-2326,1956,2025-02-17 11:37:03,0.0
4348,-6800,-12788,-431,-3511,1389,2025-02-17 11:37:03,0.0
3280,-6976,-13496,-289,-3739,862,2025-02-17 11:37:03,0.0
2708,-7500,-14748,-774,-4267,888,2025-02-17 11:37:03,0.0
2856,-6776,-13444,-1054,-4557,946,2025-02-17 11:37:03,0.0
3112,-6080,-9696,-29,-5617,556,2025-02-17 11:37:03,0.0
2308,-6460,-13032,1127,-5298,1292,2025-02-17 11:37:03,0.0
1272,-7396,-14300,754,-3364,2214,2025-02-17 11:37:03,0.0
1116,-7280,-13764,822,-2440,2504,2025-02-17 11:37:03,0.0
1552,-7516,-15448,-39,-1391,2123,2025-02-17 11:37:03,0.0
2164,-7896,-13908,-1150,-1432,1302,2025-02-17 11:37:03,0.0
2020,-8252,-14692,-2387,-2715,361,2025-02-17 11:37:03,0.0
1844,-8412,-14596,-3451,-3503,378,2025-02-17 11:37:03,0.0
1108,-7476,-15304,-4114,-3645,947,2025-02-17 11:37:03,0.0
2968,-6832,-14676,-2669,-5537,138,2025-02-17 11:37:03,0.0
3088,-6692,-16540,76,-10133,-603,2025-02-17 11:37:03,0.0
1844,-7896,-17796,-744,-15856,-1578,2025-02-17 11:37:03,0.0
1192,-9616,-16956,-942,-24497,-2285,2025-02-17 11:37:03,0.0
2204,-11880,-18868,1175,-32722,-5054,2025-02-17 11:37:03,0.0
-4956,-15200,-22752,1045,-32768,-7491,2025-02-17 11:37:04,0.0
-9884,-15688,-24316,-1270,-28094,-6823,2025-02-17 11:37:04,0.0
-10788,-13752,-23772,-3986,-18980,-5153,2025-02-17 11:37:04,0.0
-8884,-10068,-21248,-5233,-10372,-4218,2025-02-17 11:37:04,0.0
-9472,-6980,-18036,-5146,-4858,-1877,2025-02-17 11:37:04,0.0
-6180,-5968,-15296,-2799,-3009,209,2025-02-17 11:37:04,0.0
-4252,-7192,-13740,-366,-3901,1697,2025-02-17 11:37:04,0.0
-4376,-9384,-15436,476,-5211,3710,2025-02-17 11:37:04,0.0
-3188,-12884,-18672,-1680,-6555,4197,2025-02-17 11:37:04,0.0
-532,-13980,-18892,-5250,-6442,1951,2025-02-17 11:37:04,0.0
-1484,-12988,-18508,-8861,-5408,-911,2025-02-17 11:37:04,0.0
-4588,-10700,-16356,-11309,-3432,-818,2025-02-17 11:37:04,0.0
-7604,-8584,-15720,-11791,189,1974,2025-02-17 11:37:04,0.0
-9308,-6676,-16196,-12438,5793,4846,2025-02-17 11:37:04,0.0
-7412,-4408,-15820,-13167,12659,6833,2025-02-17 11:37:04,0.0
-5232,-2104,-14368,-10716,14618,5974,2025-02-17 11:37:04,0.0
-4376,-1124,-16728,-7415,12897,5387,2025-02-17 11:37:04,0.0
-3900,-660,-20640,-7075,8134,5622,2025-02-17 11:37:04,0.0
-2700,-408,-20016,-7854,2870,5327,2025-02-17 11:37:04,0.0
-3060,-1020,-17744,-7629,-2192,3739,2025-02-17 11:37:04,0.0
-4272,-1796,-14532,-6844,-5554,3686,2025-02-17 11:37:04,0.0
-4800,-2356,-12040,-4483,-7962,4743,2025-02-17 11:37:04,0.0
-4656,-2644,-11732,-2152,-9530,6329,2025-02-17 11:37:04,0.0
-2868,-2316,-12084,-887,-11009,6313,2025-02-17 11:37:04,0.0
-3740,-1508,-13488,-372,-12365,5718,2025-02-17 11:37:04,0.0
-5260,-988,-14040,-543,-13027,6478,2025-02-17 11:37:04,0.0
-4748,-544,-13508,-173,-12879,6383,2025-02-17 11:37:04,0.0
-4272,-72,-11804,1117,-12433,5268,2025-02-17 11:37:04,0.0
-4280,560,-10816,2777,-10608,3252,2025-02-17 11:37:04,0.0
-5156,680,-10728,2376,-8512,1735,2025-02-17 11:37:04,0.0
-4700,-1240,-6064,2717,-8513,2136,2025-02-17 11:37:04,0.0
-4696,-3180,-4660,4843,-8888,2805,2025-02-17 11:37:04,0.0
-5372,-3672,-5976,5808,-8896,3995,2025-02-17 11:37:04,0.0
-5500,-2952,-6308,4510,-8676,6151,2025-02-17 11:37:04,0.0
-5056,-2196,-6064,3027,-7943,7572,2025-02-17 11:37:04,0.0
-3720,-1176,-4936,2785,-6796,7169,2025-02-17 11:37:04,0.0
-3136,-708,-4768,3709,-4994,4962,2025-02-17 11:37:04,0.0
-4436,-384,-5444,3691,-2147,2941,2025-02-17 11:37:04,0.0
-5172,-880,-5496,3049,1097,1877,2025-02-17 11:37:04,0.0
-5960,-1704,-5064,2644,4063,1845,2025-02-17 11:37:04,0.0
-6204,-2220,-4756,2705,6467,2400,2025-02-17 11:37:04,0.0
-6608,-2440,-5700,2501,8852,2947,2025-02-17 11:37:04,0.0
-6684,-1904,-6564,1046,10638,4351,2025-02-17 11:37:04,0.0
-5468,-2036,-7328,-160,10888,4233,2025-02-17 11:37:04,0.0
-6856,-1224,-8228,-1330,9539,4753,2025-02-17 11:37:04,
-6504,-768,-8112,-2137,7137,5723,2025-02-17 11:37:04,0.0
-5996,-368,-7720,-1921,5186,5199,2025-02-17 11:37:04,0.0
-6100,-52,-7580,-1340,3728,4090,2025-02-17 11:37:04,0.0
-6452,116,-7184,-483,2756,2713,2025-02-17 11:37:04,0.0
-6884,-276,-7472,80,1259,2065,2025-02-17 11:37:04,0.0
-7252,-816,-7712,195,-1458,2017,2025-02-17 11:37:04,0.0
-7052,-1164,-8484,20,-4570,1946,2025-02-17 11:37:04,0.0
-6924,-1060,-8496,-230,-9487,2033,2025-02-17 11:37:04,0.0
-6660,-688,-7928,444,-13180,2365,2025-02-17 11:37:05,0.0
-7228,-76,-8076,1828,-15463,2375,2025-02-17 11:37:05,0.0
-7684,220,-9092,2499,-15626,1796,2025-02-17 11:37:05,0.0
-8444,-172,-9828,2266,-14079,830,2025-02-17 11:37:05,0.0
-8808,-1004,-9560,1850,-11534,-256,2025-02-17 11:37:05,0.0
-8944,-1840,-9612,1201,-8683,-1145,2025-02-17 11:37:05,0.0
-8704,-2368,-9136,190,-6724,-1054,2025-02-17 11:37:05,0.0
-8448,-2048,-8436,-233,-5595,-293,2025-02-17 11:37:05,0.0
-8336,-1180,-8628,-469,-4964,927,2025-02-17 11:37:05,0.0
-8596,208,-6268,-759,-6313,884,2025-02-17 11:37:05,0.0
-13484,1912,200,-243,-13962,1004,2025-02-17 11:37:05,0.0
-16148,412,-3256,1574,-12371,1110,2025-02-17 11:37:05,0.0
-13968,-616,-8072,1611,-11110,1260,2025-02-17 11:37:05,0.0
-12320,-636,-9848,1089,-14742,2547,2025-02-17 11:37:05,0.0
-10984,-636,-9876,1050,-20066,3079,2025-02-17 11:37:05,0.0
-10216,-892,-5608,58,-27158,2401,2025-02-17 11:37:05,0.0
-9924,-868,-4052,107,-30171,1690,2025-02-17 11:37:05,0.0
-9836,-336,-4288,440,-31216,456,2025-02-17 11:37:05,0.0
-13056,860,-2316,293,-25266,-36,2025-02-17 11:37:05,0.0
-14124,560,-1124,2463,-3397,688,2025-02-17 11:37:05,0.0
-8688,-20,-3524,1266,3309,-104,2025-02-17 11:37:05,0.0
-12768,-668,-2040,845,4854,-417,2025-02-17 11:37:05,0.0
-13872,-820,-1704,2304,2912,-716,2025-02-17 11:37:05,0.0
-15000,-392,-2308,2566,990,-72,2025-02-17 11:37:05,0.0
-14356,-148,-2356,2472,-224,-57,2025-02-17 11:37:05,0.0
-13800,-168,-2776,2191,-547,-31,2025-02-17 11:37:05,0.0
-12900,-84,-2732,1765,85,-152,2025-02-17 11:37:05,0.0
-12764,-460,-2996,1716,970,-411,2025-02-17 11:37:05,0.0
-13012,-800,-2588,1934,1856,-387,2025-02-17 11:37:05,0.0
-12972,-1052,-2488,2517,2250,-197,2025-02-17 11:37:05,0.0
-12940,-816,-2388,2925,1881,-107,2025-02-17 11:37:05,0.0
-13260,-688,-3008,2876,1770,-459,2025-02-17 11:37:05,0.0
-13268,-784,-2776,2802,1763,-525,2025-02-17 11:37:05,0.0
-13544,-776,-2456,3032,1260,-665,2025-02-17 11:37:05,0.0
-13964,-772,-2356,3092,1076,-461,2025-02-17 11:37:05,0.0
-13960,-488,-1680,3484,853,-14,2025-02-17 11:37:05,0.0
-14200,-256,-1104,3984,400,481,2025-02-17 11:37:05,0.0
-13524,76,-1380,4090,-788,1008,2025-02-17 11:37:05,0.0
-13232,-372,-1224,4169,-977,802,2025-02-17 11:37:05,0.0
-12792,-380,-1464,4188,-544,691,2025-02-17 11:37:05,0.0
-12324,-36,-2904,3989,488,293,2025-02-17 11:37:05,0.0
-12840,292,-2876,3564,1445,137,2025-02-17 11:37:05,0.0
-13172,932,-3144,3238,2064,-1,2025-02-17 11:37:05,0.0
-13248,368,-3736,2504,1849,-126,2025-02-17 11:37:05,0.0
-13876,1212,-2972,1909,1338,-206,2025-02-17 11:37:05,0.0
-13604,624,-2596,1527,933,-626,2025-02-17 11:37:05,0.0
-13360,-160,-2240,1660,317,-1319,2025-02-17 11:37:05,0.0
-13900,-1168,-2448,1443,-160,-1876,2025-02-17 11:37:05,0.0
-14116,-2164,-2408,1372,-124,-1917,2025-02-17 11:37:05,0.0
-13940,-2828,-2456,1435,-120,-1500,2025-02-17 11:37:05,0.0
-13316,-2568,-3364,1200,198,-1024,2025-02-17 11:37:05,0.0
-13496,-1960,-2532,1294,742,-162,2025-02-17 11:37:05,0.0
-12752,-1652,-1628,2047,1218,246,2025-02-17 11:37:05,0.0
-12828,-2096,-1060,2337,1673,478,2025-02-17 11:37:05,0.0
-12908,-3064,-696,2357,2476,124,2025-02-17 11:37:05,0.0
-13140,-3360,-1552,2210,3471,-519,2025-02-17 11:37:05,0.0
-13840,-2612,-1784,2161,5070,-1307,2025-02-17 11:37:05,0.0
-13276,-1744,-1280,2246,5536,-1787,2025-02-17 11:37:05,0.0
-12520,-1396,-820,2931,5504,-2425,2025-02-17 11:37:05,0.0
-13260,-2456,-3152,2734,6226,-4388,2025-02-17 11:37:05,0.0
-13988,-2684,-2904,2868,6333,-4204,2025-02-17 11:37:05,0.0
-14300,-2548,-3252,2862,5218,-3769,2025-02-17 11:37:05,0.0
-14616,-2360,-2616,2839,2643,-2713,2025-02-17 11:37:05,0.0
-13872,-2468,-2524,2761,-263,-1738,2025-02-17 11:37:05,0.0
-12244,-2560,-1940,2744,-2093,-1562,2025-02-17 11:37:05,0.0
-11720,-3072,-2108,2480,-2222,-1323,2025-02-17 11:37:05,0.0
-10448,-3052,-1912,2256,-843,-1097,2025-02-17 11:37:06,0.0
-9848,-3076,-2120,1833,1057,-1118,2025-02-17 11:37:06,0.0
-11068,-3244,-1516,1882,3829,-1191,2025-02-17 11:37:06,0.0
-11028,-3356,-836,2249,4862,-1607,2025-02-17 11:37:06,0.0
-12576,-3700,-1828,2844,4228,-2003,2025-02-17 11:37:06,0.0
-13540,-3624,-1488,2943,3048,-1636,2025-02-17 11:37:06,0.0
-14376,-3020,-1680,3266,1429,-965,2025-02-17 11:37:06,0.0
-13728,-2976,-2356,3261,-133,-647,2025-02-17 11:37:06,0.0
-12940,-2916,-2052,3280,-1942,-1116,2025-02-17 11:37:06,0.0
-13424,-2812,-2588,3134,-3523,-1039,2025-02-17 11:37:06,0.0
-13588,-2780,-1968,2818,-3801,-469,2025-02-17 11:37:06,0.0
-13236,-2628,-1336,2441,-3587,25,2025-02-17 11:37:06,0.0
-12456,-3656,-1280,1707,-3326,272,2025-02-17 11:37:06,0.0
-13652,-3908,-1312,903,-1848,363,2025-02-17 11:37:06,0.0
-13676,-4292,-1432,126,403,493,2025-02-17 11:37:06,0.0
-14028,-4428,-1920,-839,494,801,2025-02-17 11:37:06,0.0
-13600,-4692,-2140,-1793,-832,705,2025-02-17 11:37:06,0.0
-13912,-5236,-780,-2244,-1174,364,2025-02-17 11:37:06,0.0
-14612,-5704,100,-2027,-996,503,2025-02-17 11:37:06,0.0
-15580,-6712,-428,-2321,-181,1087,2025-02-17 11:37:06,0.0
-15028,-8560,-6516,-3439,983,1806,2025-02-17 11:37:06,0.0
-15692,-7180,-6512,-5229,5337,743,2025-02-17 11:37:06,0.0
-14888,-6936,-68,-4148,9836,-1831,2025-02-17 11:37:06,0.0
-15992,-7948,-1520,-2442,11119,-4222,2025-02-17 11:37:06,0.0
-18580,-8204,-1060,-72,9292,-4134,2025-02-17 11:37:06,0.0
-19804,-7208,-3824,2419,2766,-2676,2025-02-17 11:37:06,
-19044,-2116,-6352,2895,-4830,-1618,2025-02-17 11:37:06,0.0
-15752,-1004,-7320,1655,-11419,-783,2025-02-17 11:37:06,0.0
-13308,-2276,-6508,1712,-14677,188,2025-02-17 11:37:06,0.0
-10972,-1768,-8208,1980,-13938,1298,2025-02-17 11:37:06,0.0
-9156,-1556,-9336,692,-7381,2739,2025-02-17 11:37:06,0.0
-9020,-1584,-7784,249,-2109,3421,2025-02-17 11:37:06,0.0
-9868,-1408,-6508,381,542,3697,2025-02-17 11:37:06,0.0
-11728,-656,-4360,870,2120,3991,2025-02-17 11:37:06,0.0
-12828,-140,-2728,2035,2479,4113,2025-02-17 11:37:06,0.0
-14156,-680,-3188,2877,1687,4140,2025-02-17 11:37:06,0.0
-16276,-2064,-3456,2854,1304,5010,2025-02-17 11:37:06,0.0
-14380,-3196,-3976,2859,107,5392,2025-02-17 11:37:06,0.0
-13300,-2772,-4060,2206,-936,5579,2025-02-17 11:37:06,0.0
-11988,-2828,-3680,1475,-491,5309,2025-02-17 11:37:06,0.0
-12912,-2040,-2432,1274,-112,5633,2025-02-17 11:37:06,0.0
-12144,-996,-1724,1241,-823,5954,2025-02-17 11:37:06,0.0
-10520,1288,-3908,1179,-2385,5677,2025-02-17 11:37:06,0.0
-10712,2712,-3748,620,-3963,5035,2025-02-17 11:37:06,0.0
-10928,2728,-2368,636,-4564,4483,2025-02-17 11:37:06,0.0
-10768,1456,-2656,689,-4337,4046,2025-02-17 11:37:06,0.0
-10256,-640,-2464,672,-3346,3522,2025-02-17 11:37:06,0.0
-10408,-1792,-2328,639,-1807,3053,2025-02-17 11:37:06,0.0
-10880,-1756,-1836,648,379,3303,2025-02-17 11:37:06,0.0
-11184,-584,-2072,412,1953,3379,2025-02-17 11:37:06,0.0
-12008,48,-1592,287,2044,3623,2025-02-17 11:37:06,0.0
-11496,824,-1804,281,1510,3761,2025-02-17 11:37:06,0.0
-11160,884,-2084,313,740,3620,2025-02-17 11:37:06,0.0
-9844,1400,-1852,622,332,2403,2025-02-17 11:37:06,0.0
-9192,1724,-1080,972,-53,276,2025-02-17 11:37:06,0.0
-9620,2052,-748,1403,-419,-1650,2025-02-17 11:37:06,0.0
-10944,2136,164,1341,-213,-2603,2025-02-17 11:37:06,0.0
-11816,2072,1016,1746,245,-3259,2025-02-17 11:37:06,0.0
-13224,1988,1288,1764,-118,-3920,2025-02-17 11:37:06,0.0
-13644,1484,1028,1647,-1439,-4228,2025-02-17 11:37:06,0.0
-13544,1272,-36,2040,-3131,-3379,2025-02-17 11:37:07,0.0
-12892,1100,-1844,2113,-3209,-2639,2025-02-17 11:37:07,0.0
-12340,856,-4288,1709,-1470,-2114,2025-02-17 11:37:07,0.0
-12632,848,-4612,1222,2291,-2206,2025-02-17 11:37:07,0.0
-15284,1324,-2456,465,7011,-2856,2025-02-17 11:37:07,0.0
-21124,1312,-2960,-814,10243,-2142,2025-02-17 11:37:07,0.0
-24076,-252,-3764,-866,11268,29,2025-02-17 11:37:07,0.0
-23600,536,-4668,-1107,8192,1456,2025-02-17 11:37:07,0.0
-21496,3348,-7440,-504,3568,2129,2025-02-17 11:37:07,0.0
-17360,4636,-8620,-702,-1080,1452,2025-02-17 11:37:07,0.0
-16832,2592,-6848,-775,-6033,566,2025-02-17 11:37:07,0.0
-14140,-1376,-5344,-394,-10457,469,2025-02-17 11:37:07,0.0
-11120,-3544,-7260,219,-12664,777,2025-02-17 11:37:07,0.0
-9396,-4736,-6184,417,-11189,1573,2025-02-17 11:37:07,0.0
-8668,-5268,-5352,1890,-1374,1594,2025-02-17 11:37:07,0.0
-9548,-2540,-6500,-210,4864,365,2025-02-17 11:37:07,0.0
-10736,300,-7044,-2135,5016,-1320,2025-02-17 11:37:07,0.0
-12108,1740,-7652,-4236,3024,-3242,2025-02-17 11:37:07,0.0
-13948,1556,-5300,-5369,2472,-4133,2025-02-17 11:37:07,0.0
-14448,204,-4296,-5455,1903,-4655,2025-02-17 11:37:07,0.0
-14304,-264,-4364,-5356,-49,-4317,2025-02-17 11:37:07,0.0
-13480,-628,-4540,-5278,-3143,-3320,2025-02-17 11:37:07,0.0
-11812,-964,-4160,-4715,-4454,-2527,2025-02-17 11:37:07,0.0
-10796,-1036,-3112,-4319,-4051,-1893,2025-02-17 11:37:07,0.0
-10380,-1484,-3456,-4686,-3669,-1902,2025-02-17 11:37:07,0.0
-10328,-2128,-3680,-5448,-3677,-2191,2025-02-17 11:37:07,0.0
-11180,-2212,-3896,-6170,-4147,-2178,2025-02-17 11:37:07,0.0
-10980,-2408,-3748,-6720,-4489,-1584,2025-02-17 11:37:07,0.0
-10300,-2080,-3500,-7200,-4164,-1229,2025-02-17 11:37:07,0.0
-9964,-1920,-3412,-7800,-2474,-886,2025-02-17 11:37:07,0.0
-9920,-1740,-2368,-7954,-416,-1043,2025-02-17 11:37:07,0.0
-10572,-1480,-2612,-8065,1004,-1121,2025-02-17 11:37:07,0.0
-11788,-844,-2596,-8238,1064,-1214,2025-02-17 11:37:07,0.0
-12836,-420,-2696,-8315,910,-1241,2025-02-17 11:37:07,0.0
-13392,-288,-2964,-8722,511,-1214,2025-02-17 11:37:07,0.0
-13716,-636,-1560,-8568,-199,-1306,2025-02-17 11:37:07,0.0
-13684,-1516,-1648,-7839,-1578,-1214,2025-02-17 11:37:07,0.0
-13016,-2272,-2260,-7284,-2841,-1545,2025-02-17 11:37:07,0.0
-12460,-2196,-1728,-6592,-3319,-2367,2025-02-17 11:37:07,0.0
-13332,-1276,-4128,-7355,-2812,-3054,2025-02-17 11:37:07,0.0
-14008,-216,-5120,-9770,-440,-3107,2025-02-17 11:37:07,0.0
-13700,-464,-4036,-12107,887,-3560,2025-02-17 11:37:07,0.0
-14960,-1744,-1796,-12828,-239,-4155,2025-02-17 11:37:07,0.0
-15384,-1372,-2256,-13250,-1553,-3847,2025-02-17 11:37:07,0.0
-15336,-76,-3340,-13889,-3078,-3650,2025-02-17 11:37:07,0.0
-14044,892,-5176,-15489,-2140,-4759,2025-02-17 11:37:07,0.0
-14784,352,-6432,-16588,-823,-6596,2025-02-17 11:37:07,0.0
-16724,-200,-5968,-17164,-501,-7198,2025-02-17 11:37:07,0.0
-16636,-964,-4504,-16839,-4277,-6058,2025-02-17 11:37:07,0.0
-14968,-1992,-5484,-16165,-7314,-3577,2025-02-17 11:37:07,0.0
-12092,-2736,-7252,-15924,-4441,-2564,2025-02-17 11:37:07,0.0
-12428,-2868,-7624,-16465,993,-2315,2025-02-17 11:37:07,0.0
-13204,-1964,-6052,-17029,5974,-1975,2025-02-17 11:37:07,0.0
-13860,-1204,-4756,-17417,9472,-1517,2025-02-17 11:37:07,0.0
-12876,-1048,-5844,-17462,8895,-1230,2025-02-17 11:37:07,0.0
-12832,-656,-6796,-17986,3209,-762,2025-02-17 11:37:07,0.0
-11660,-280,-6040,-18815,-3780,-649,2025-02-17 11:37:07,0.0
-11020,280,536,-17750,-5321,-913,2025-02-17 11:37:07,0.0
-10340,176,-1664,-15376,-719,-1567,2025-02-17 11:37:07,0.0
-11580,1148,-5220,-14896,2650,-1435,2025-02-17 11:37:07,0.0
-12308,1760,-4552,-15395,2818,-1803,2025-02-17 11:37:07,0.0
-13364,1872,-4876,-15629,1598,-2350,2025-02-17 11:37:07,0.0
-12940,1224,-4228,-15776,-6,-2550,2025-02-17 11:37:07,0.0
-12224,420,-4336,-15541,-1033,-2551,2025-02-17 11:37:07,0.0
-11100,-224,-3936,-15495,-1210,-2483,2025-02-17 11:37:08,0.0
-10592,-136,-3444,-15507,-940,-2533,2025-02-17 11:37:08,
-10900,12,-3392,-15673,216,-2423,2025-02-17 11:37:08,0.0
-10552,716,-3464,-16099,1660,-2798,2025-02-17 11:37:08,0.0
-11328,1348,-4132,-16642,2229,-3404,2025-02-17 11:37:08,0.0
-11856,1260,-3960,-16979,2216,-3783,2025-02-17 11:37:08,0.0
-12192,312,-4316,-17057,2069,-3651,2025-02-17 11:37:08,0.0
-11712,16,-3312,-16725,1680,-3685,2025-02-17 11:37:08,0.0
-11536,120,-3572,-16065,3167,-3689,2025-02-17 11:37:08,0.0
-11736,108,-3684,-15569,5775,-4012,2025-02-17 11:37:08,0.0
-13088,116,-4540,-15315,8068,-3996,2025-02-17 11:37:08,0.0
-14204,412,-4048,-14801,9033,-3428,2025-02-17 11:37:08,0.0
-15328,4,-3756,-14072,8211,-2844,2025-02-17 11:37:08,0.0
-15872,-276,-2856,-13340,5775,-2305,2025-02-17 11:37:08,0.0
-16116,136,-2940,-12091,3284,-1761,2025-02-17 11:37:08,0.0
-15168,860,-2772,-11227,413,-1557,2025-02-17 11:37:08,0.0
-14116,1020,-2272,-10327,-1406,-1917,2025-02-17 11:37:08,0.0
-12972,1328,-2152,-9706,-1946,-2130,2025-02-17 11:37:08,0.0
-11732,1996,-2164,-9523,-1558,-2188,2025-02-17 11:37:08,0.0
-10988,2156,-2112,-9368,-718,-2455,2025-02-17 11:37:08,0.0
-10980,2212,-2000,-9305,248,-2783,2025-02-17 11:37:08,0.0
-11496,2024,-1952,-9269,1334,-2986,2025-02-17 11:37:08,0.0
-14668,1080,-1420,-6388,2078,-2793,2025-02-17 11:37:08,0.0
-13860,1020,-2048,-5626,1287,-2318,2025-02-17 11:37:08,0.0
-13060,1328,-2500,-4769,1125,-2384,2025-02-17 11:37:08,0.0
-13172,1992,-3684,-4412,2240,-2268,2025-02-17 11:37:08,0.0
-13096,3212,-6128,-4485,4316,-2399,2025-02-17 11:37:08,0.0
-14828,4244,-7120,-4892,5892,-2346,2025-02-17 11:37:08,0.0
-15512,4132,-6992,-4948,6327,-2482,2025-02-17 11:37:08,0.0
-16448,3508,-6548,-5699,5043,-3161,2025-02-17 11:37:08,0.0
-14820,3192,-8060,-6800,1729,-4114,2025-02-17 11:37:08,0.0
-12596,3224,-8300,-7912,-3683,-5611,2025-02-17 11:37:08,0.0
-11492,3052,-7480,-8645,-5644,-5999,2025-02-17 11:37:08,0.0
-9688,2296,-7104,-9202,-5553,-6187,2025-02-17 11:37:08,0.0
-8644,1152,-6904,-9663,-4483,-6710,2025-02-17 11:37:08,0.0
-8220,-636,-7448,-10593,-3963,-7336,2025-02-17 11:37:08,0.0
-9572,-2068,-5936,-11265,-1990,-7338,2025-02-17 11:37:08,0.0
-10552,-2796,-5488,-11350,1219,-6620,2025-02-17 11:37:08,0.0
-11700,-2892,-5544,-11521,3088,-5875,2025-02-17 11:37:08,0.0
-13668,-2504,-4836,-11520,3115,-4822,2025-02-17 11:37:08,0.0
-13708,-1884,-4648,-10875,1344,-4060,2025-02-17 11:37:08,0.0
-13724,-1324,-4328,-10281,-1088,-4386,2025-02-17 11:37:08,0.0
-13268,-416,-5720,-9758,-2838,-4869,2025-02-17 11:37:08,0.0
-11900,-216,-6616,-9958,-2952,-5761,2025-02-17 11:37:08,0.0
-11120,-332,-6396,-10199,-1914,-7252,2025-02-17 11:37:08,0.0
-11504,-412,-6056,-10269,-1350,-7954,2025-02-17 11:37:08,0.0
-11768,36,-5396,-10412,-1712,-8081,2025-02-17 11:37:08,0.0
-11816,-580,-5208,-10335,-1890,-7895,2025-02-17 11:37:08,0.0
-12144,-1192,-4468,-9751,-1858,-7777,2025-02-17 11:37:08,0.0
-12512,-1888,-4596,-9314,-2428,-7695,2025-02-17 11:37:08,0.0
-12896,-2808,-4056,-8906,-3231,-7485,2025-02-17 11:37:08,0.0
-12980,-3240,-3424,-8920,-3948,-7097,2025-02-17 11:37:08,0.0
-12044,-3636,-3376,-8886,-4007,-6662,2025-02-17 11:37:08,0.0
-11320,-3548,-2252,-8938,-3317,-6064,2025-02-17 11:37:08,0.0
-11124,-3448,-1820,-8801,-2174,-5361,2025-02-17 11:37:08,0.0
-10908,-3140,-2056,-8638,-250,-5009,2025-02-17 11:37:08,0.0
-11464,-2788,-2340,-8796,1532,-4762,2025-02-17 11:37:08,0.0
-12632,-2352,-1904,-8659,2576,-4095,2025-02-17 11:37:08,0.0
-13896,-2444,-1132,-8141,2439,-3289,2025-02-17 11:37:08,0.0
-14644,-2908,-968,-7371,1115,-2276,2025-02-17 11:37:09,0.0
-14796,-2716,-720,-6901,-906,-1529,2025-02-17 11:37:09,0.0
-14864,-2284,-1404,-6882,-1731,-1652,2025-02-17 11:37:09,0.0
-14276,-1272,-1936,-6891,-2290,-1904,2025-02-17 11:37:09,0.0
-14304,-1100,-3424,-7004,-2117,-2314,2025-02-17 11:37:09,0.0
-14888,-996,-2792,-6286,-3617,-2369,2025-02-17 11:37:09,0.0
-14892,-1228,-4296,-5876,-5486,-2782,2025-02-17 11:37:09,0.0
-15004,-464,-7284,-6147,-6060,-3874,2025-02-17 11:37:09,0.0
-16544,-836,-5972,-6426,-4025,-4225,2025-02-17 11:37:09,0.0
-16632,-3088,-6444,-6091,-2323,-2986,2025-02-17 11:37:09,0.0
-15876,-5120,-8220,-6121,-1508,-240,2025-02-17 11:37:09,0.0
-13556,-5752,-8024,-6336,-710,2112,2025-02-17 11:37:09,0.0
-11212,-4756,-7864,-6573,139,3130,2025-02-17 11:37:09,0.0
-9840,-2496,-6404,-6961,1779,3059,2025-02-17 11:37:09,0.0
-9104,-436,-4308,-6874,3053,2101,2025-02-17 11:37:09,0.0
-9664,1396,-3308,-6346,3884,697,2025-02-17 11:37:09,0.0
-10904,2368,-3312,-6299,4172,-309,2025-02-17 11:37:09,0.0
-15348,1216,-4268,-5704,2565,585,2025-02-17 11:37:09,0.0
-15864,568,-4648,-5346,665,1466,2025-02-17 11:37:09,0.0
-14408,-620,-4816,-5165,-2073,1401,2025-02-17 11:37:09,0.0
-14264,-1132,-4604,-4891,-2866,1717,2025-02-17 11:37:09,0.0
-12792,-924,-4024,-4666,-2161,2724,2025-02-17 11:37:09,0.0
-9964,-1128,-2928,-4364,-2639,2221,2025-02-17 11:37:09,0.0
-9740,292,-4768,-5055,-1663,1087,2025-02-17 11:37:09,0.0
-10216,740,-3816,-5715,242,470,2025-02-17 11:37:09,0.0
-10548,728,-1756,-5475,770,362,2025-02-17 11:37:09,0.0
-10748,1132,-764,-4466,170,171,2025-02-17 11:37:09,0.0
-10988,1880,-1376,-3508,-48,230,2025-02-17 11:37:09,0.0
-11268,1992,-1844,-2806,133,291,2025-02-17 11:37:09,0.0
-10948,1756,-2864,-1947,1202,58,2025-02-17 11:37:09,0.0
-10432,1456,-3272,-1554,2247,-859,2025-02-17 11:37:09,0.0
-9928,908,-3732,-1278,3680,-1968,2025-02-17 11:37:09,0.0
-10760,608,-3448,-1094,5257,-2713,2025-02-17 11:37:09,0.0
-12872,-88,-3228,-969,6766,-2573,2025-02-17 11:37:09,0.0
-14592,-500,-3024,-592,7321,-2016,2025-02-17 11:37:09,0.0
-16172,-880,-3652,-180,5892,-1101,2025-02-17 11:37:09,0.0
-16256,-660,-3100,-90,3167,-475,2025-02-17 11:37:09,0.0
-15392,-340,-2152,188,164,-292,2025-02-17 11:37:09,0.0
-14784,888,-2324,458,-1445,291,2025-02-17 11:37:09,0.0
-13960,2228,-4048,1033,-1580,1396,2025-02-17 11:37:09,0.0
-13452,2180,-6796,1664,-4,2344,2025-02-17 11:37:09,0.0
-14024,964,-6072,2736,2483,2582,2025-02-17 11:37:09,0.0
-15256,-816,-5180,4281,4491,2636,2025-02-17 11:37:09,
-15840,-220,-5444,6151,5268,3088,2025-02-17 11:37:09,0.0
-13272,868,-9892,5873,3573,2812,2025-02-17 11:37:09,0.0
-8828,1136,-11680,2995,-1003,-804,2025-02-17 11:37:09,0.0
-10404,-128,-9844,484,-1860,-3164,2025-02-17 11:37:09,0.0
-11040,-772,-7108,-132,110,-2827,2025-02-17 11:37:09,0.0
-11868,-904,-4496,462,1609,-2342,2025-02-17 11:37:09,0.0
-11788,-716,-5372,954,389,-2019,2025-02-17 11:37:09,0.0
-12264,-108,-7052,-214,-1842,-2796,2025-02-17 11:37:09,0.0
-12512,-432,-6932,-2191,-3115,-4289,2025-02-17 11:37:09,0.0
-14040,-180,-6120,-3800,-3563,-5465,2025-02-17 11:37:09,0.0
-14804,-412,-5644,-5092,-3667,-4707,2025-02-17 11:37:09,0.0
-12220,-1424,-6020,-5898,-5033,-4263,2025-02-17 11:37:09,0.0
-10968,-1676,-5292,-6213,-6124,-4747,2025-02-17 11:37:09,0.0
-11268,-2336,-6648,-7093,-4852,-4074,2025-02-17 11:37:09,0.0
-10416,-2704,-6528,-8424,-1707,-3486,2025-02-17 11:37:09,0.0
-9868,-2576,-5756,-9016,569,-3833,2025-02-17 11:37:09,0.0
-10048,-2576,-6160,-9372,736,-4411,2025-02-17 11:37:09,0.0
-10792,-2284,-5768,-9758,-214,-4876,2025-02-17 11:37:10,0.0
-11600,-1620,-5208,-10113,-1063,-5097,2025-02-17 11:37:10,0.0
-13164,-1432,-7180,-11118,-1108,-4725,2025-02-17 11:37:10,0.0
-12712,-816,-3300,-10538,-661,-4239,2025-02-17 11:37:10,0.0
-12320,-916,-5212,-10441,-928,-4088,2025-02-17 11:37:10,0.0
-11660,-804,-5940,-11464,-1226,-4170,2025-02-17 11:37:10,0.0
-10944,-1196,-5792,-12279,-1349,-4464,2025-02-17 11:37:10,0.0
-10600,-1520,-5772,-13060,-950,-4931,2025-02-17 11:37:10,0.0
-11524,-1808,-5260,-13561,-780,-5079,2025-02-17 11:37:10,0.0
-12396,-2144,-4888,-13837,-387,-5143,2025-02-17 11:37:10,0.0
-13960,-2676,-5036,-14121,73,-4682,2025-02-17 11:37:10,0.0
-13404,-2520,-6032,-14698,-1408,-4396,2025-02-17 11:37:10,0.0
-12896,-3176,-5796,-15236,-3215,-4043,2025-02-17 11:37:10,0.0
-11172,-3416,-5800,-15703,-4356,-3891,2025-02-17 11:37:10,0.0
-11192,-2960,-4800,-16104,-3779,-4294,2025-02-17 11:37:10,0.0
-11712,-2580,-3872,-16305,-1412,-3846,2025-02-17 11:37:10,0.0
-12064,-2384,-3764,-16269,1720,-3770,2025-02-17 11:37:10,0.0
-12928,-2692,-4828,-16605,2604,-4220,2025-02-17 11:37:10,0.0
-13200,-3024,-5136,-16681,1260,-4682,2025-02-17 11:37:10,0.0
-13776,-3184,-4616,-16484,-684,-4333,2025-02-17 11:37:10,0.0
-13176,-3068,-4392,-15480,-1068,-3839,2025-02-17 11:37:10,0.0
-12640,-3412,-6700,-15591,-540,-3754,2025-02-17 11:37:10,0.0
-13052,-3300,-8132,-15798,343,-3533,2025-02-17 11:37:10,0.0
-12740,-2568,-8460,-15095,1105,-3265,2025-02-17 11:37:10,0.0
-11952,-1860,-6692,-13608,1439,-3636,2025-02-17 11:37:10,0.0
-12248,-840,-5576,-11898,940,-3706,2025-02-17 11:37:10,0.0
-12408,396,-5808,-11714,1113,-3273,2025-02-17 11:37:10,0.0
-11976,316,-5824,-11928,1759,-2902,2025-02-17 11:37:10,0.0
-11060,300,-5928,-11569,480,-2840,2025-02-17 11:37:10,0.0
-10944,472,-6532,-11670,95,-2735,2025-02-17 11:37:10,0.0
-10252,768,-7184,-12341,1144,-2910,2025-02-17 11:37:10,0.0
-9828,1152,-7580,-13002,3196,-3937,2025-02-17 11:37:10,0.0
-11004,1288,-7160,-13557,6032,-4953,2025-02-17 11:37:10,0.0
-12276,892,-6636,-13977,7995,-5448,2025-02-17 11:37:10,0.0
-12604,648,-6304,-13684,7601,-5925,2025-02-17 11:37:10,0.0
-13244,388,-6608,-13408,5297,-6068,2025-02-17 11:37:10,0.0
-13304,-84,-6436,-13005,3135,-5700,2025-02-17 11:37:10,0.0
-12680,-760,-6216,-12362,1824,-5168,2025-02-17 11:37:10,0.0
-10704,-1224,-6148,-11466,1523,-5154,2025-02-17 11:37:10,0.0
-11464,-1408,-6760,-10811,2581,-4618,2025-02-17 11:37:10,0.0
-11440,-736,-6216,-10359,3102,-4493,2025-02-17 11:37:10,0.0
-12212,-328,-5716,-9541,2809,-4199,2025-02-17 11:37:10,0.0
-11232,-480,-6740,-9750,1700,-4654,2025-02-17 11:37:10,0.0
-11104,-460,-6264,-9967,681,-5286,2025-02-17 11:37:10,0.0
-10616,-424,-6940,-8791,-875,-4943,2025-02-17 11:37:10,0.0
-9084,148,-7400,-6760,-2351,-4399,2025-02-17 11:37:10,0.0
-9020,244,-6096,-4985,-3385,-3782,2025-02-17 11:37:10,0.0
-6788,184,-5516,-3895,-4060,-3515,2025-02-17 11:37:10,0.0
-7092,292,-5220,-3414,-3396,-3798,2025-02-17 11:37:10,0.0
-7872,-148,-5280,-2804,-1740,-3146,2025-02-17 11:37:10,0.0
-8068,-708,-5672,-2478,-881,-3151,2025-02-17 11:37:10,0.0
-8084,-1236,-5036,-2159,663,-2425,2025-02-17 11:37:10,0.0
-8836,-1248,-4964,-1643,1681,-2067,2025-02-17 11:37:10,0.0
-8360,-736,-3868,-897,1625,-1687,2025-02-17 11:37:10,0.0
-9028,-1020,-4712,495,397,-1157,2025-02-17 11:37:10,0.0
-10024,-756,-3756,-783,764,-1269,2025-02-17 11:37:10,0.0
-10904,-604,-4924,-2102,-687,-1801,2025-02-17 11:37:10,0.0
-11236,-356,-2368,-1899,-3150,-2012,2025-02-17 11:37:11,0.0
-13368,-564,-3256,-130,-3615,-544,2025-02-17 11:37:11,0.0
-11600,-88,-6772,-107,-4836,-36,2025-02-17 11:37:11,0.0
-11824,1352,-5464,-460,-6052,-934,2025-02-17 11:37:11,0.0
-14040,1220,-5924,121,-6700,79,2025-02-17 11:37:11,0.0
-14412,204,-5604,-521,-6517,1628,2025-02-17 11:37:11,0.0
-17448,40,-3520,-791,-7422,2657,2025-02-17 11:37:11,0.0
-12388,-284,-3736,-1102,-9269,2552,2025-02-17 11:37:11,0.0
-11356,580,-3204,-1271,-9486,2671,2025-02-17 11:37:11,0.0
-16612,-1236,4976,-808,-14263,2059,2025-02-17 11:37:11,0.0
-20748,-2820,10036,694,-13642,2133,2025-02-17 11:37:11,0.0
-21916,-3040,11364,1816,-13971,1795,2025-02-17 11:37:11,0.0
-22392,-1200,14980,2715,-14068,1702,2025-02-17 11:37:11,0.0
-21628,-1776,7812,-331,-9261,551,2025-02-17 11:37:11,0.0
-20928,-36,7188,-1242,-2143,-515,2025-02-17 11:37:11,0.0
-15572,-412,8200,-570,-621,-515,2025-02-17 11:37:11,0.0
-11848,-796,6244,1390,-362,19,2025-02-17 11:37:11,0.0
-11372,2316,8140,1364,-5138,-1132,2025-02-17 11:37:11,0.0
-11856,2076,7692,1435,-3597,-968,2025-02-17 11:37:11,0.0
-11652,2096,8144,948,-2208,-773,2025-02-17 11:37:11,0.0
-11312,1536,8136,390,-1844,-1027,2025-02-17 11:37:11,0.0
-12400,1292,8752,146,-1675,-1036,2025-02-17 11:37:11,0.0
-12736,1276,8472,240,-1821,-989,2025-02-17 11:37:11,0.0
-13268,1096,8716,470,-1329,-770,2025-02-17 11:37:11,0.0
-12488,1324,9408,665,-1243,-897,2025-02-17 11:37:11,0.0
-12400,616,7440,491,-415,-950,2025-02-17 11:37:11,
-12516,-156,6656,8,395,-583,2025-02-17 11:37:11,0.0
-12300,-308,7672,-132,1010,-553,2025-02-17 11:37:12,0.0
-12952,-268,7480,39,1445,-858,2025-02-17 11:37:12,0.0
-13616,-636,7016,345,2304,-729,2025-02-17 11:37:12,0.0
-12640,-140,6396,557,2535,-1014,2025-02-17 11:37:12,0.0
-12512,212,5504,216,2178,-1620,2025-02-17 11:37:12,0.0
-12508,-556,4940,-289,1547,-2315,2025-02-17 11:37:12,0.0
-13784,-932,5816,-380,-185,-2102,2025-02-17 11:37:12,0.0
-14732,-536,6688,-86,-1479,-1113,2025-02-17 11:37:12,0.0
-14844,284,6860,15,-2303,-126,2025-02-17 11:37:12,0.0
-12944,520,9616,-988,-2810,-362,2025-02-17 11:37:12,0.0
-12472,-508,9132,-587,-1906,-507,2025-02-17 11:37:12,0.0
-12528,-1204,8652,-110,-1174,-643,2025-02-17 11:37:12,0.0
-12644,-1516,7920,224,-865,-564,2025-02-17 11:37:12,0.0
-12304,-880,7828,307,-792,-692,2025-02-17 11:37:12,0.0
-12348,-192,7528,58,-813,-670,2025-02-17 11:37:12,0.0
-12164,440,7432,-314,-471,-928,2025-02-17 11:37:12,0.0
-12428,456,7240,-345,-281,-1183,2025-02-17 11:37:12,0.0
-12572,-12,8220,-426,-875,-1123,2025-02-17 11:37:12,0.0
-12512,-732,7708,-301,-1247,-866,2025-02-17 11:37:12,0.0
-12468,-1084,7968,-134,-1375,-641,2025-02-17 11:37:12,0.0
-12628,-988,8376,30,-716,-491,2025-02-17 11:37:12,0.0
-12548,-780,7944,167,-234,-430,2025-02-17 11:37:12,0.0
-12472,-612,8140,309,-235,-413,2025-02-17 11:37:12,0.0
-12808,-408,8116,239,-357,-273,2025-02-17 11:37:12,0.0
-12804,-528,7748,83,-314,-526,2025-02-17 11:37:12,0.0
-13568,-364,8124,-187,-633,-506,2025-02-17 11:37:12,0.0
-12712,-736,8620,-251,-665,-646,2025-02-17 11:37:12,0.0
-12524,-1036,8380,-285,-546,-329,2025-02-17 11:37:12,0.0
-12136,-1328,7868,-99,-603,34,2025-02-17 11:37:12,0.0
-12096,-1012,7928,-188,-831,40,2025-02-17 11:37:12,0.0
-12576,-628,8516,-74,-784,11,2025-02-17 11:37:12,0.0
-12716,-536,8080,-22,-515,131,2025-02-17 11:37:12,0.0
-12792,-424,8072,11,-689,57,2025-02-17 11:37:12,0.0
-12900,-388,7920,100,-650,62,2025-02-17 11:37:12,0.0
-12348,-216,7508,0,-853,-71,2025-02-17 11:37:12,0.0
-12712,-148,7464,-113,-1225,-101,2025-02-17 11:37:12,0.0
-12792,-96,7728,-268,-1499,-50,2025-02-17 11:37:12,0.0
-12588,48,7956,-403,-1693,-148,2025-02-17 11:37:12,0.0
-12424,160,8228,-399,-1483,-134,2025-02-17 11:37:12,0.0
-12380,340,8308,-552,-1046,-228,2025-02-17 11:37:12,0.0
-11684,88,7864,-545,-759,-163,2025-02-17 11:37:12,0.0
-12764,56,8376,-484,-891,-136,2025-02-17 11:37:12,0.0
-12460,128,8276,-544,-1253,-230,2025-02-17 11:37:12,0.0
-12364,48,8436,-807,-1564,-403,2025-02-17 11:37:12,0.0
-12588,-136,8900,-679,-1747,-567,2025-02-17 11:37:12,0.0
-9896,-1044,8848,-702,-1580,-464,2025-02-17 11:37:12,0.0
-12460,-356,9844,-301,-1207,-349,2025-02-17 11:37:12,0.0
-12208,-384,9480,-27,-606,-171,2025-02-17 11:37:12,0.0
-12144,-396,9020,6,-20,66,2025-02-17 11:37:12,0.0
-12268,-232,8680,-217,-61,213,2025-02-17 11:37:12,0.0
-12024,-300,9088,-283,-656,200,2025-02-17 11:37:12,0.0
-12360,-252,7936,-747,-955,247,2025-02-17 11:37:12,0.0
-12272,-164,8436,-1359,-1428,206,2025-02-17 11:37:12,0.0
-12528,-700,8976,-1372,-2005,366,2025-02-17 11:37:12,0.0
-11940,-652,7424,-1387,-2649,670,2025-02-17 11:37:12,0.0
-12364,-692,9904,-1090,-1754,559,2025-02-17 11:37:12,0.0
-11652,-652,9800,-324,-466,-441,2025-02-17 11:37:12,0.0
-11752,-556,8700,-213,524,-557,2025-02-17 11:37:12,0.0
-12172,-492,10908,-372,316,-749,2025-02-17 11:37:12,0.0
-12968,-696,9364,-424,-216,-751,2025-02-17 11:37:12,0.0
-12764,-876,9360,-193,-458,-82,2025-02-17 11:37:12,0.0
-12396,-1012,9644,165,-315,130,2025-02-17 11:37:12,0.0
-11996,-1016,8368,277,-202,253,2025-02-17 11:37:12,0.0
-12712,-1012,8196,334,417,371,2025-02-17 11:37:12,0.0
-12704,-1036,8044,533,506,407,2025-02-17 11:37:12,0.0
-13152,-680,8480,659,-504,608,2025-02-17 11:37:12,0.0
-12524,-452,8604,501,-1195,860,2025-02-17 11:37:12,0.0
-11928,-372,8656,520,-1283,770,2025-02-17 11:37:12,0.0
-11424,-692,8976,431,-1065,820,2025-02-17 11:37:12,0.0
-11424,-1068,9480,588,-601,933,2025-02-17 11:37:13,0.0
-11120,-688,9224,739,290,919,2025-02-17 11:37:13,0.0
-11552,300,9792,618,331,974,2025-02-17 11:37:13,0.0
-11836,948,9840,357,115,1198,2025-02-17 11:37:13,0.0
-11408,1396,10088,60,-579,1638,2025-02-17 11:37:13,0.0
-10404,1664,10880,-9,-880,1098,2025-02-17 11:37:13,0.0
-10000,1216,11812,-200,-50,84,2025-02-17 11:37:13,0.0
-9712,844,12284,-557,1287,-792,2025-02-17 11:37:13,0.0
-9812,484,11128,-433,3182,-888,2025-02-17 11:37:13,0.0
-9856,616,11212,-764,5943,-788,2025-02-17 11:37:13,0.0
-12412,-280,10476,-1106,7733,-50,2025-02-17 11:37:13,0.0
-11596,-252,11120,-998,7557,533,2025-02-17 11:37:13,0.0
-10552,208,10608,-1215,7477,-412,2025-02-17 11:37:13,0.0
-10520,-200,10840,-1196,8299,-861,2025-02-17 11:37:13,0.0
-11132,-76,9772,-855,9704,-1133,2025-02-17 11:37:13,0.0
-11336,236,8796,-883,10237,-1045,2025-02-17 11:37:13,0.0
-12612,-92,8148,-1141,10140,-839,2025-02-17 11:37:13,0.0
-12992,-56,7132,-1280,8708,-38,2025-02-17 11:37:13,0.0
-13700,-72,6512,-1246,8524,302,2025-02-17 11:37:13,0.0
-13888,-528,6688,-1028,7889,756,2025-02-17 11:37:13,0.0
-13464,-532,7600,-977,7619,764,2025-02-17 11:37:13,0.0
-13768,500,7924,-374,7958,38,2025-02-17 11:37:13,0.0
-13360,52,8648,-194,10070,-723,2025-02-17 11:37:13,0.0
-16760,-432,8856,959,13167,-1072,2025-02-17 11:37:13,0.0
-19724,-156,7824,1130,13835,-1080,2025-02-17 11:37:13,0.0
-19936,2048,6644,387,14521,-2063,2025-02-17 11:37:13,0.0
-20956,2112,7948,-637,13578,-2404,2025-02-17 11:37:13,0.0
-21540,-260,8468,-1547,12764,-720,2025-02-17 11:37:13,0.0
-20064,-2456,8260,-1201,12982,2415,2025-02-17 11:37:13,0.0
-17640,-2692,8376,-80,10070,2603,2025-02-17 11:37:13,
-15656,-2688,7732,1047,8069,1675,2025-02-17 11:37:13,0.0
-17120,-1596,8004,2475,8057,957,2025-02-17 11:37:13,0.0
-17996,-1044,7224,4145,6967,1048,2025-02-17 11:37:13,0.0
-16892,-240,3264,5417,5756,1309,2025-02-17 11:37:13,0.0
-18500,532,1184,5404,3920,1159,2025-02-17 11:37:13,0.0
-16040,-160,156,4479,6191,655,2025-02-17 11:37:13,0.0
-15056,856,300,3772,10088,96,2025-02-17 11:37:13,0.0
-15716,1848,172,3246,12296,-987,2025-02-17 11:37:13,0.0
-14452,1736,-1784,2748,13602,-1922,2025-02-17 11:37:13,0.0
-16708,900,-2756,2160,13060,-2284,2025-02-17 11:37:13,0.0
-17168,172,-4568,1570,10721,-2402,2025-02-17 11:37:13,0.0
-17112,-184,-3824,1045,6478,-2436,2025-02-17 11:37:13,0.0
-17532,-220,-4108,1689,4421,-2446,2025-02-17 11:37:13,0.0
-16692,-636,-3656,2033,3155,-2100,2025-02-17 11:37:13,0.0
-16252,-452,-3924,1567,1902,-1007,2025-02-17 11:37:13,0.0
-12196,404,-3532,-102,1212,-1287,2025-02-17 11:37:13,0.0
-9968,840,-2620,-1017,1478,-2890,2025-02-17 11:37:13,0.0
-9484,536,-2132,-1240,2626,-4622,2025-02-17 11:37:13,0.0
-10512,644,-2536,-1024,3640,-5155,2025-02-17 11:37:13,0.0
-11040,504,-1256,-608,4637,-4805,2025-02-17 11:37:13,0.0
-10256,-688,-2148,148,3885,-5043,2025-02-17 11:37:13,0.0
-10464,-1456,-2328,238,3369,-5481,2025-02-17 11:37:13,0.0
-11280,-1532,-2000,205,4104,-5376,2025-02-17 11:37:13,0.0
-11976,-1868,-1524,11,6713,-4497,2025-02-17 11:37:13,0.0
-10692,-2196,-1988,-1056,11247,-3583,2025-02-17 11:37:13,0.0
-9572,-2364,-2156,-2137,18515,-2929,2025-02-17 11:37:13,0.0
-9060,-2708,-2204,-2655,23735,-1758,2025-02-17 11:37:13,0.0
-7716,-2340,-4048,-3644,27097,-415,2025-02-17 11:37:13,0.0
-6340,-1220,-5408,-5713,28762,-371,2025-02-17 11:37:13,0.0
-6048,-84,-5172,-7346,29253,-625,2025-02-17 11:37:13,0.0
-6256,964,-2436,-7303,28942,941,2025-02-17 11:37:14,0.0
-6508,1252,-1192,-6291,27868,3540,2025-02-17 11:37:14,0.0
-3256,1104,-1404,-5559,24155,6341,2025-02-17 11:37:14,0.0
-1392,1104,-1600,-5646,18793,7892,2025-02-17 11:37:14,0.0
-532,1248,-704,-5759,13160,8870,2025-02-17 11:37:14,0.0
3940,604,1764,-5891,7216,9473,2025-02-17 11:37:14,0.0
4808,-188,2800,-4370,2734,7435,2025-02-17 11:37:14,0.0
2924,-276,1796,-2873,3234,5706,2025-02-17 11:37:14,0.0
2428,-268,1336,-2602,4087,5573,2025-02-17 11:37:14,0.0
2556,-392,1760,-2522,4329,5481,2025-02-17 11:37:14,0.0
2972,-388,1620,-2478,4233,5131,2025-02-17 11:37:14,0.0
2864,-384,1880,-2400,4499,4571,2025-02-17 11:37:14,0.0
2716,-336,1528,-2322,4821,4081,2025-02-17 11:37:14,0.0
2584,-348,1524,-2242,5346,3847,2025-02-17 11:37:14,0.0
2948,-392,1428,-2233,5757,3454,2025-02-17 11:37:14,0.0
2716,-460,1512,-2135,6069,2968,2025-02-17 11:37:14,0.0
2732,-344,1616,-2031,6370,2559,2025-02-17 11:37:14,0.0
2704,-364,1472,-1915,6731,2202,2025-02-17 11:37:14,0.0
2668,-268,1508,-1786,7139,1817,2025-02-17 11:37:14,0.0
2832,-372,1284,-1703,7576,1470,2025-02-17 11:37:14,0.0
2524,-404,1468,-1629,8037,1190,2025-02-17 11:37:14,0.0
2616,-404,1364,-1507,8332,1022,2025-02-17 11:37:14,0.0
2568,-416,1204,-1357,8646,1005,2025-02-17 11:37:14,0.0
2352,-492,1236,-1290,8964,1150,2025-02-17 11:37:14,0.0
2232,-488,1096,-1246,9444,1437,2025-02-17 11:37:14,0.0
2272,-464,1040,-1308,10196,1886,2025-02-17 11:37:14,0.0
2340,-396,924,-1309,10808,2199,2025-02-17 11:37:14,0.0
2496,-368,884,-1237,11164,2401,2025-02-17 11:37:14,0.0
-32636,2908,-32768,-9495,6128,5562,2025-02-17 11:37:14,0.0
10780,32767,-32768,-32768,-32768,5614,2025-02-17 11:37:14,0.0
-32768,32767,-32768,16118,-8668,-15164,2025-02-17 11:37:14,0.0
-32768,12116,-32768,2277,592,-12624,2025-02-17 11:37:14,0.0
-9472,2504,-20284,-15183,-19612,-6664,2025-02-17 11:37:14,0.0
1556,-1072,-2400,-19770,-23693,-5907,2025-02-17 11:37:14,0.0
3480,-820,2464,-20540,-21689,-7134,2025-02-17 11:37:14,0.0
3480,-924,3580,-19770,-20798,-8248,2025-02-17 11:37:14,0.0
2436,-508,5732,-17783,-20380,-8569,2025-02-17 11:37:14,0.0
1800,-464,6696,-14534,-21009,-8062,2025-02-17 11:37:14,0.0
1636,-388,4940,-11315,-20801,-7276,2025-02-17 11:37:14,0.0
2484,280,6708,-7823,-18490,-8025,2025-02-17 11:37:14,0.0
648,808,8280,-2548,-17901,-8532,2025-02-17 11:37:14,0.0
-10764,2508,10244,4459,-16648,-5788,2025-02-17 11:37:14,0.0
-20728,3608,10016,11637,-9990,3843,2025-02-17 11:37:14,0.0
-24600,3408,4988,16182,3140,13655,2025-02-17 11:37:14,0.0
-16384,7272,-2772,12246,14712,1299,2025-02-17 11:37:14,0.0
-32024,14424,-3372,11155,32284,-15778,2025-02-17 11:37:14,0.0
-32768,10636,-9652,8861,32767,-10742,2025-02-17 11:37:14,0.0
-20296,3388,-9432,3489,32767,-1648,2025-02-17 11:37:14,0.0
-11188,892,-7848,1775,32767,-160,2025-02-17 11:37:14,0.0
-6660,556,-7332,2170,32767,352,2025-02-17 11:37:14,0.0
-2308,2060,-10012,2895,32767,714,2025-02-17 11:37:14,0.0
3636,3332,-15156,2248,32767,-565,2025-02-17 11:37:14,0.0
5820,3960,-18360,1636,23147,-2307,2025-02-17 11:37:14,0.0
5028,3940,-20280,811,4078,-1891,2025-02-17 11:37:14,0.0
3152,3060,-18372,-637,-5186,375,2025-02-17 11:37:14,0.0
40,2304,-13804,-1324,-11673,-287,2025-02-17 11:37:14,0.0
-3740,2864,-12240,-1025,-11303,-1016,2025-02-17 11:37:14,0.0
-7096,3452,-11964,-520,-6641,-1352,2025-02-17 11:37:14,0.0
-8252,3724,-11756,8,-1121,-451,2025-02-17 11:37:14,0.0
-6464,3828,-12512,-48,2432,-87,2025-02-17 11:37:14,0.0
-3604,2960,-13104,172,4010,-189,2025-02-17 11:37:14,0.0
-2332,2908,-14004,-23,2233,-120,2025-02-17 11:37:15,0.0
-2348,3152,-14204,-162,-301,-187,2025-02-17 11:37:15,0.0
-3896,3164,-13584,-264,-1233,-200,2025-02-17 11:37:15,0.0
-4596,3220,-12980,-228,-116,-161,2025-02-17 11:37:15,0.0
-3984,3148,-13116,-130,858,-164,2025-02-17 11:37:15,0.0
-3440,3184,-13496,-128,554,-170,2025-02-17 11:37:15,0.0
-3424,3076,-13532,-175,-99,-196,2025-02-17 11:37:15,0.0
-3992,3128,-13248,-172,-164,-197,2025-02-17 11:37:15,0.0
-4040,3220,-13272,-171,351,-178,2025-02-17 11:37:15,
-3580,3168,-13336,-135,353,-166,2025-02-17 11:37:15,0.0
-3664,3160,-13372,-155,91,-185,2025-02-17 11:37:15,0.0
-3956,3028,-13284,-144,35,-195,2025-02-17 11:37:15,0.0
-3996,3140,-13428,-159,196,-182,2025-02-17 11:37:15,0.0
-3704,3200,-13340,-180,236,-157,2025-02-17 11:37:15,0.0
-3704,3172,-13400,-170,137,-191,2025-02-17 11:37:15,0.0
-3800,3196,-13356,-143,110,-195,2025-02-17 11:37:15,0.0
-3880,3140,-13336,-152,166,-168,2025-02-17 11:37:15,0.0
-3788,3144,-13292,-124,213,-191,2025-02-17 11:37:15,0.0
-3760,3200,-13340,-148,125,-176,2025-02-17 11:37:15,0.0
-3840,3060,-13336,-133,145,-173,2025-02-17 11:37:15,0.0
-3788,3176,-13396,-137,181,-185,2025-02-17 11:37:15,0.0
-3816,3156,-13432,-133,163,-177,2025-02-17 11:37:15,0.0
-3788,3136,-13436,-163,150,-203,2025-02-17 11:37:15,0.0
-3800,3140,-13412,-163,160,-201,2025-02-17 11:37:15,0.0
-3780,3084,-13356,-133,160,-199,2025-02-17 11:37:15,0.0
-3856,3164,-13384,-157,155,-177,2025-02-17 11:37:15,0.0
-3824,3200,-13364,-118,153,-190,2025-02-17 11:37:15,0.0
-3832,3208,-13352,-176,164,-166,2025-02-17 11:37:15,0.0
-3864,3144,-13388,-151,184,-189,2025-02-17 11:37:15,0.0
-3756,3184,-13300,-173,184,-190,2025-02-17 11:37:15,0.0
-3780,3160,-13320,-157,167,-188,2025-02-17 11:37:15,0.0
-3800,3160,-13356,-151,138,-177,2025-02-17 11:37:15,0.0
-3816,3180,-13224,-152,131,-191,2025-02-17 11:37:15,0.0
-3780,3168,-13468,-153,177,-158,2025-02-17 11:37:15,0.0
-3832,3220,-13396,-190,138,-184,2025-02-17 11:37:15,0.0
-3780,3220,-13400,-161,166,-194,2025-02-17 11:37:15,0.0
-3780,3164,-13436,-124,163,-154,2025-02-17 11:37:15,0.0
-3864,3100,-13444,-158,155,-194,2025-02-17 11:37:15,0.0
-3880,3132,-13508,-159,144,-183,2025-02-17 11:37:15,0.0
-3756,3160,-13388,-150,162,-198,2025-02-17 11:37:15,0.0
-3772,3128,-13332,-150,152,-181,2025-02-17 11:37:15,0.0
-3988,3140,-13400,-138,158,-179,2025-02-17 11:37:15,0.0
-3872,3096,-13300,-156,192,-178,2025-02-17 11:37:15,0.0
-3796,3200,-13440,-156,171,-168,2025-02-17 11:37:15,0.0
-3828,3076,-13320,-161,143,-177,2025-02-17 11:37:15,0.0
-3816,3088,-13276,-138,152,-191,2025-02-17 11:37:15,0.0
-3788,3088,-13408,-172,155,-171,2025-02-17 11:37:15,0.0
-3768,3100,-13432,-171,153,-180,2025-02-17 11:37:15,0.0
-3856,3180,-13308,-161,163,-178,2025-02-17 11:37:15,0.0
-3856,3140,-13428,-165,164,-179,2025-02-17 11:37:15,0.0
-3896,3192,-13268,-138,169,-170,2025-02-17 11:37:15,0.0
-3760,3068,-13380,-163,150,-179,2025-02-17 11:37:15,0.0
-3784,3116,-13236,-133,165,-181,2025-02-17 11:37:15,0.0
-3824,3164,-13344,-177,155,-195,2025-02-17 11:37:15,0.0
-3840,3100,-13400,-144,178,-179,2025-02-17 11:37:15,0.0
-3852,3152,-13440,-171,179,-167,2025-02-17 11:37:15,0.0
-3784,3192,-13416,-164,172,-193,2025-02-17 11:37:15,0.0
-3868,3052,-13400,-170,141,-181,2025-02-17 11:37:15,0.0
-3756,3140,-13400,-147,158,-186,2025-02-17 11:37:15,0.0
-3792,3048,-13324,-164,177,-176,2025-02-17 11:37:15,0.0
-3776,3180,-13348,-163,179,-184,2025-02-17 11:37:15,0.0
-3744,3132,-13396,-158,148,-172,2025-02-17 11:37:15,0.0
-3836,3132,-13396,-160,167,-175,2025-02-17 11:37:16,0.0
-3828,3068,-13448,-141,139,-177,2025-02-17 11:37:16,0.0
-3872,3076,-13376,-173,180,-184,2025-02-17 11:37:16,0.0
-3876,3048,-13472,-174,160,-199,2025-02-17 11:37:16,0.0
-3760,3228,-13348,-140,190,-181,2025-02-17 11:37:16,0.0
-3872,3164,-13164,-151,146,-183,2025-02-17 11:37:16,0.0
-3772,3144,-13316,-167,172,-178,2025-02-17 11:37:16,0.0
-3788,3192,-13240,-149,172,-185,2025-02-17 11:37:16,0.0
-3612,2932,-12724,-33,885,-253,2025-02-17 11:37:16,0.0
-3168,3352,-13760,-23,348,-209,2025-02-17 11:37:16,0.0
-3276,3364,-12788,335,413,-411,2025-02-17 11:37:16,0.0
-3196,3368,-13128,286,699,-534,2025-02-17 11:37:16,0.0
-3768,2820,-14904,102,-39,-548,2025-02-17 11:37:16,0.0
-3944,2648,-13368,117,-216,-578,2025-02-17 11:37:16,0.0
-3000,2884,-12564,128,417,-977,2025-02-17 11:37:16,0.0
-3096,2836,-12616,571,252,-881,2025-02-17 11:37:16,0.0
-2804,3344,-12348,1743,-1524,-122,2025-02-17 11:37:16,0.0
-3372,2972,-13440,1097,-1879,-361,2025-02-17 11:37:16,0.0
-6476,3152,-13212,1358,-447,-972,2025-02-17 11:37:16,0.0
-5896,2588,-14020,1279,2364,-664,2025-02-17 11:37:16,0.0
-2640,2344,-11784,1940,2457,-1092,2025-02-17 11:37:16,0.0
-1152,2864,-11380,3162,1167,-2090,2025-02-17 11:37:16,0.0
-672,2752,-11496,4846,-1708,-3391,2025-02-17 11:37:16,0.0
-1300,1896,-14312,6099,-4850,-4811,2025-02-17 11:37:16,0.0
-4756,1740,-16892,4623,-9462,-3340,2025-02-17 11:37:16,0.0
-2572,2748,-15800,3186,-10472,-1841,2025-02-17 11:37:16,0.0
-6068,2156,-14000,4050,-12080,-2535,2025-02-17 11:37:16,0.0
-7628,748,-16348,1406,-9606,361,2025-02-17 11:37:16,0.0
-4768,2884,-8888,2175,-8533,-1228,2025-02-17 11:37:16,0.0
-10696,2104,-13816,2332,-3186,-224,2025-02-17 11:37:16,0.0
-6060,560,-13156,-171,8,-434,2025-02-17 11:37:16,0.0
-7016,432,-13944,-1558,1222,-1045,2025-02-17 11:37:16,0.0
-7072,1236,-11184,-2221,3872,-1414,2025-02-17 11:37:16,0.0
-8788,932,-11916,-1633,5910,-695,2025-02-17 11:37:16,0.0
-5536,1456,-12288,-917,3872,269,2025-02-17 11:37:16,0.0
-5612,2592,-11932,150,3255,-234,2025-02-17 11:37:16,0.0
-4568,1284,-11520,1227,2451,-114,2025-02-17 11:37:16,0.0
-5044,1328,-13184,1872,1820,-195,2025-02-17 11:37:16,0.0
-3928,628,-14584,1544,-186,-605,2025-02-17 11:37:16,0.0
-5932,-252,-13248,1714,-1464,-736,2025-02-17 11:37:16,0.0
-8376,-616,-11920,3025,-794,117,2025-02-17 11:37:16,0.0
-7964,-580,-11840,4908,1060,451,2025-02-17 11:37:16,0.0
-6904,-400,-10700,7138,3032,-263,2025-02-17 11:37:16,0.0
-8344,1004,-14572,8496,5728,334,2025-02-17 11:37:16,0.0
-7352,2560,-18740,7718,3639,1304,2025-02-17 11:37:16,0.0
-13408,5824,-17636,6942,-3761,2464,2025-02-17 11:37:16,0.0
-3988,3044,-20300,6587,-9422,589,2025-02-17 11:37:16,
-5288,1904,-19556,4250,-12159,-1613,2025-02-17 11:37:16,0.0
-6188,420,-16468,1899,-9389,-5422,2025-02-17 11:37:16,0.0
-13032,-2196,-9660,2150,-6932,-2213,2025-02-17 11:37:16,0.0
-8500,-3044,-14644,4950,-7675,2235,2025-02-17 11:37:16,0.0
-7744,-2576,-16496,4334,-5330,2768,2025-02-17 11:37:16,0.0
-12416,-256,-14996,5905,-665,5046,2025-02-17 11:37:16,0.0
-9040,-48,-19072,5210,-1852,8542,2025-02-17 11:37:16,0.0
-5708,-252,-20380,2666,-6616,8067,2025-02-17 11:37:16,0.0
-7580,-508,-18976,653,-9788,7079,2025-02-17 11:37:16,0.0
-6796,-1148,-16464,817,-9134,5650,2025-02-17 11:37:16,0.0
-5700,-1500,-18244,-389,-7992,3206,2025-02-17 11:37:16,0.0
-6376,-1472,-17264,-3192,-7193,1472,2025-02-17 11:37:16,0.0
-9180,-416,-14972,-3041,-4750,1039,2025-02-17 11:37:16,0.0
-11092,820,-15980,-566,-793,1207,2025-02-17 11:37:17,0.0
-9464,1432,-18276,-545,2111,338,2025-02-17 11:37:17,0.0
-7148,956,-19016,-2398,1249,-1731,2025-02-17 11:37:17,0.0
-6936,684,-18536,-3481,-1655,-3811,2025-02-17 11:37:17,0.0
-10336,604,-18336,-3531,-3567,-4112,2025-02-17 11:37:17,0.0
-13144,1364,-17688,-1814,-3211,-1942,2025-02-17 11:37:17,0.0
-11920,2156,-15148,1337,-1243,-256,2025-02-17 11:37:17,0.0
-11332,2492,-14400,4880,1411,391,2025-02-17 11:37:17,0.0
-12648,1372,-15888,6272,4762,754,2025-02-17 11:37:17,0.0
-7776,164,-15500,6898,6134,-1076,2025-02-17 11:37:17,0.0
-6276,-900,-14728,7522,3988,-5451,2025-02-17 11:37:17,0.0
-9264,-2892,-17704,5736,1679,-6319,2025-02-17 11:37:17,0.0
-15152,-4148,-17236,3633,1478,-4427,2025-02-17 11:37:17,0.0
-18092,-4232,-15920,3145,5027,-287,2025-02-17 11:37:17,0.0
-16608,-3108,-15784,2752,8538,2311,2025-02-17 11:37:17,0.0
-11028,-1448,-14168,1877,9372,2513,2025-02-17 11:37:17,0.0
-7488,484,-11324,1574,6757,2051,2025-02-17 11:37:17,0.0
-5208,1492,-8752,2099,1935,1527,2025-02-17 11:37:17,0.0
-4720,992,-6824,2915,-3332,702,2025-02-17 11:37:17,0.0
-4484,72,-6332,3915,-6918,-1287,2025-02-17 11:37:17,0.0
-4528,-1024,-7784,3848,-10367,-2375,2025-02-17 11:37:17,0.0
-4628,-1736,-8688,3180,-14181,-2269,2025-02-17 11:37:17,0.0
-4712,-2068,-8952,2031,-17187,-1087,2025-02-17 11:37:17,0.0
-4408,-1732,-7764,994,-19214,-232,2025-02-17 11:37:17,0.0
-3816,-1116,-6224,882,-19184,-762,2025-02-17 11:37:17,0.0
-6136,-488,-4596,1520,-16694,-682,2025-02-17 11:37:17,0.0
-7532,-276,-4168,2171,-12286,-80,2025-02-17 11:37:17,0.0
-7764,-672,-4356,2181,-7275,429,2025-02-17 11:37:17,0.0
-8112,-1176,-5096,1346,-2781,1629,2025-02-17 11:37:17,0.0
-7864,-1888,-4624,783,579,3341,2025-02-17 11:37:17,0.0
-6416,-2288,-4008,91,2550,4432,2025-02-17 11:37:17,0.0
-4392,-2088,-3800,-621,2479,4322,2025-02-17 11:37:17,0.0
-4044,-1880,-3844,-1780,525,3691,2025-02-17 11:37:17,0.0
-4568,-2120,-3844,-2289,-2055,3641,2025-02-17 11:37:17,0.0
-4864,-2740,-3708,-2558,-4947,3672,2025-02-17 11:37:17,0.0
-5276,-2804,-4692,-4543,-8886,4032,2025-02-17 11:37:17,0.0
-4256,-2656,-3208,-6079,-12252,4274,2025-02-17 11:37:17,0.0
-3196,-2196,-2312,-7175,-15257,3251,2025-02-17 11:37:17,0.0
-2952,-1172,-1708,-8403,-17083,1830,2025-02-17 11:37:17,0.0
-2456,-1244,-1392,-9430,-18909,476,2025-02-17 11:37:17,0.0
-3272,-1896,-1868,-11160,-19658,-558,2025-02-17 11:37:17,0.0
-4144,-2776,-2084,-12500,-19473,-1977,2025-02-17 11:37:17,0.0
-6628,-1988,-3728,-14824,-17732,-3151,2025-02-17 11:37:17,0.0
-8352,-68,-3272,-15596,-15022,-3684,2025-02-17 11:37:17,0.0
-9828,1848,-3136,-13131,-11037,-4047,2025-02-17 11:37:17,0.0
-11156,2196,-5416,-11279,-7505,-4066,2025-02-17 11:37:17,0.0
-10984,1308,-5964,-11153,-4196,-4080,2025-02-17 11:37:17,0.0
-9988,628,-3408,-10849,-1838,-4926,2025-02-17 11:37:17,0.0
-11596,-204,15836,-7646,-26941,-6020,2025-02-17 11:37:17,0.0
-19924,980,5468,-6038,-26591,-5376,2025-02-17 11:37:17,0.0
-23220,-440,-5412,-5533,-6940,-648,2025-02-17 11:37:17,0.0
-11676,-904,-3292,-6054,-2659,25,2025-02-17 11:37:17,0.0
-11636,-216,236,-3750,-2656,-381,2025-02-17 11:37:17,0.0
-11944,568,-2132,-4403,202,79,2025-02-17 11:37:17,0.0
-12100,1188,-1280,-6146,3371,62,2025-02-17 11:37:17,0.0
-13672,1560,-64,-5923,4644,-61,2025-02-17 11:37:17,0.0
-15800,1312,-544,-5922,3322,415,2025-02-17 11:37:17,0.0
-15284,624,296,-5544,1379,671,2025-02-17 11:37:17,0.0
-14816,864,124,-4990,58,313,2025-02-17 11:37:17,0.0
-13816,1876,-8,-4613,-599,-228,2025-02-17 11:37:17,0.0
-13520,2228,-320,-4122,-476,-308,2025-02-17 11:37:17,0.0
-13148,2560,-304,-3933,209,-359,2025-02-17 11:37:17,0.0
-12900,2692,-192,-4143,797,-834,2025-02-17 11:37:17,0.0
-13368,2372,-64,-4749,575,-1303,2025-02-17 11:37:18,0.0
-13512,2388,296,-4953,-289,-1681,2025-02-17 11:37:18,0.0
-13052,2304,328,-4849,-1309,-2034,2025-02-17 11:37:18,0.0
-13348,2268,828,-4371,-1682,-2328,2025-02-17 11:37:18,0.0
-12780,2476,-12,-4185,-1354,-2676,2025-02-17 11:37:18,0.0
-13848,2132,-148,-4038,-218,-3128,2025-02-17 11:37:18,0.0
-15040,2144,-596,-4298,-179,-2390,2025-02-17 11:37:18,0.0
-15420,1736,268,-5035,-1279,-1530,2025-02-17 11:37:18,0.0
-15300,548,548,-4658,-2482,-1317,2025-02-17 11:37:18,0.0
-14792,-264,64,-4508,-3218,-1607,2025-02-17 11:37:18,0.0
-14896,-960,364,-4236,-3092,-2267,2025-02-17 11:37:18,0.0
-14560,-1640,324,-3552,-3126,-2582,2025-02-17 11:37:18,0.0
-14460,-2256,656,-2334,-3379,-2541,2025-02-17 11:37:18,0.0
-13544,-2812,156,-957,-4031,-2225,2025-02-17 11:37:18,0.0
-12840,-3536,292,603,-4421,-1791,2025-02-17 11:37:18,0.0
-11616,-4456,-284,1829,-3503,-1294,2025-02-17 11:37:18,0.0
-11032,-6724,-1368,1366,-1869,-1432,2025-02-17 11:37:18,0.0
-11028,-6804,-356,439,546,-1510,2025-02-17 11:37:18,0.0
-12404,-5504,476,-830,3789,-2073,2025-02-17 11:37:18,0.0
-14620,-3480,152,-2197,6091,-2920,2025-02-17 11:37:18,0.0
-16896,-1920,3288,-2897,3844,-3403,2025-02-17 11:37:18,0.0
-16316,-1752,4912,-1845,-243,-3585,2025-02-17 11:37:18,0.0
-15488,-1632,4296,-1413,-3373,-4054,2025-02-17 11:37:18,0.0
-14396,-3068,2500,-1547,-5001,-4503,2025-02-17 11:37:18,
-11944,-3960,744,-1401,-3407,-4970,2025-02-17 11:37:18,0.0
-9440,-3300,304,-1330,-664,-6223,2025-02-17 11:37:18,0.0
-10464,-3244,424,-1788,2796,-6719,2025-02-17 11:37:18,0.0
-11780,-3516,1396,-2266,5145,-5748,2025-02-17 11:37:18,0.0
-13216,-3880,2152,-1796,5616,-4233,2025-02-17 11:37:18,0.0
-15032,-3680,2388,-1665,4410,-2905,2025-02-17 11:37:18,0.0
-16152,-3232,2956,-799,2516,-1564,2025-02-17 11:37:18,0.0
-15204,-2884,2904,569,449,-277,2025-02-17 11:37:18,0.0
-13156,-3480,2256,1581,-472,339,2025-02-17 11:37:18,0.0
-11352,-3884,1724,2310,-10,577,2025-02-17 11:37:18,0.0
-10896,-4456,1312,2275,1768,462,2025-02-17 11:37:18,0.0
-11616,-4444,1192,1779,3137,507,2025-02-17 11:37:18,0.0
-12648,-4036,2680,1715,2955,993,2025-02-17 11:37:18,0.0
-13512,-3660,3496,2189,1957,1477,2025-02-17 11:37:18,0.0
-13376,-3540,3580,2649,1108,1880,2025-02-17 11:37:18,0.0
-12884,-3576,2388,3030,484,2118,2025-02-17 11:37:18,0.0
-12696,-3144,1916,2992,-63,2010,2025-02-17 11:37:18,0.0
-13048,-2128,2048,2367,-199,1971,2025-02-17 11:37:18,0.0
-13240,-2052,4124,2384,-179,1906,2025-02-17 11:37:18,0.0
-12912,-3680,4316,3826,-639,2314,2025-02-17 11:37:18,0.0
-11580,-6156,3152,4893,-108,2478,2025-02-17 11:37:18,0.0
-11028,-7860,2000,4792,2562,2191,2025-02-17 11:37:18,0.0
-12532,-8312,600,4264,5655,2404,2025-02-17 11:37:18,0.0
-14924,-7296,344,4036,7711,3936,2025-02-17 11:37:18,0.0
-16900,-4492,2700,4378,7588,4728,2025-02-17 11:37:18,0.0
-18316,-504,4648,6147,4913,5060,2025-02-17 11:37:18,0.0
-18432,-408,3884,7949,915,5308,2025-02-17 11:37:18,0.0
-18036,-2360,2268,8670,-1792,5613,2025-02-17 11:37:18,0.0
-15724,-5432,2168,9076,-3313,5671,2025-02-17 11:37:18,0.0
-14812,-9140,1684,9939,-1555,4287,2025-02-17 11:37:18,0.0
-14648,-9308,-2688,11399,1301,2948,2025-02-17 11:37:18,0.0
-16708,-9600,-7156,10624,7394,1296,2025-02-17 11:37:18,0.0
-17836,-8428,-8412,9496,9405,317,2025-02-17 11:37:18,0.0
-18612,-5540,-7352,8499,7575,1162,2025-02-17 11:37:18,0.0
-14820,-68,-1640,10324,-3581,4346,2025-02-17 11:37:18,0.0
-12964,-772,-2260,11745,-8967,5175,2025-02-17 11:37:18,0.0
-10424,-2748,-2772,13548,-9730,5503,2025-02-17 11:37:19,0.0
-10076,-5336,-4232,14288,-6928,4862,2025-02-17 11:37:19,0.0
-11128,-7108,-4304,14727,-1291,4626,2025-02-17 11:37:19,0.0
-12380,-7912,-3844,14773,2645,4861,2025-02-17 11:37:19,0.0
-13508,-6156,-3968,15332,4269,5397,2025-02-17 11:37:19,0.0
-14344,-3624,-3584,15791,4796,5873,2025-02-17 11:37:19,0.0
-14080,-2008,-3168,16791,2381,6333,2025-02-17 11:37:19,0.0
-12828,-1984,-2476,18250,-1338,5975,2025-02-17 11:37:19,0.0
-11472,-2304,-3092,19606,-3731,5227,2025-02-17 11:37:19,0.0
-10496,-2632,-3716,19916,-4010,4711,2025-02-17 11:37:19,0.0
-9892,-3096,-3116,20068,-3225,4053,2025-02-17 11:37:19,0.0
-10340,-3356,-2620,20440,-1751,3702,2025-02-17 11:37:19,0.0
-10848,-3220,-3304,20797,-409,3583,2025-02-17 11:37:19,0.0
-11400,-2840,-4392,20556,743,3391,2025-02-17 11:37:19,0.0
-11416,-1308,-3444,20625,1454,3169,2025-02-17 11:37:19,0.0
-10720,-588,-3260,20638,799,3035,2025-02-17 11:37:19,0.0
-10572,-76,-3432,20213,1070,2359,2025-02-17 11:37:19,0.0
-10752,424,-3432,19447,1984,1765,2025-02-17 11:37:19,0.0
-11380,544,-2848,18886,2490,1273,2025-02-17 11:37:19,0.0
-12620,316,-2904,18282,2236,1114,2025-02-17 11:37:19,0.0
-15724,748,-1344,16511,41,1535,2025-02-17 11:37:19,0.0
-15824,1120,-200,16428,-1855,2380,2025-02-17 11:37:19,0.0
-15264,964,-792,16582,-5145,2714,2025-02-17 11:37:19,0.0
-14564,464,-1284,15765,-6762,2331,2025-02-17 11:37:19,0.0
-12660,-544,-1124,14230,-6926,1482,2025-02-17 11:37:19,0.0
-12080,-1628,568,13574,-3947,948,2025-02-17 11:37:19,0.0
-11496,-2712,660,12728,-783,327,2025-02-17 11:37:19,0.0
-12628,-3096,1028,12030,1838,-3,2025-02-17 11:37:19,0.0
-14052,-3128,1364,11602,3090,303,2025-02-17 11:37:19,0.0
-15560,-2688,2444,11747,3943,1030,2025-02-17 11:37:19,0.0
-16284,-2980,4280,12639,2836,1830,2025-02-17 11:37:19,0.0
-16144,-2848,5692,13860,813,1816,2025-02-17 11:37:19,0.0
-16756,-3408,3384,15591,-626,1545,2025-02-17 11:37:19,0.0
-17492,-4532,-1044,16348,406,1776,2025-02-17 11:37:19,0.0
-19024,-944,-2912,16193,1330,2087,2025-02-17 11:37:19,0.0
-19812,-1220,-2880,15557,1285,2723,2025-02-17 11:37:19,0.0
-19164,-2016,-6516,15843,2424,3929,2025-02-17 11:37:19,0.0
-17372,-3300,-6624,15424,4056,3712,2025-02-17 11:37:19,0.0
-16544,-3380,-6540,15285,3479,4331,2025-02-17 11:37:19,0.0
-14620,-2688,-4860,15906,1829,5962,2025-02-17 11:37:19,0.0
-11684,-1520,-6420,16710,608,6986,2025-02-17 11:37:19,0.0
-9248,-1440,-6624,15546,-1222,7186,2025-02-17 11:37:19,0.0
-8372,-2072,-6820,14027,-42,5978,2025-02-17 11:37:19,0.0
-7776,-2324,-5224,12119,2490,3542,2025-02-17 11:37:19,0.0
-9960,-356,-4436,10996,4952,699,2025-02-17 11:37:19,0.0
-12156,1916,-3548,10391,7052,-1276,2025-02-17 11:37:19,0.0
-14020,1684,-2320,10862,7255,-2373,2025-02-17 11:37:19,0.0
