acceleration_x,acceleration_y,acceleration_z,gyroscope_x,gyroscope_y,gyroscope_z,timestamp,label
-13200,-352,-3072,-256,171,-168,2025-01-29 15:05:52,0.0
-13236,-280,-3236,-243,117,-146,2025-01-29 15:05:52,0.0
-13048,-248,-3240,-191,18,-162,2025-01-29 15:05:52,0.0
-13100,-220,-3136,-211,39,-131,2025-01-29 15:05:52,0.0
-13028,-280,-3324,-165,66,-168,2025-01-29 15:05:52,0.0
-13012,-140,-3324,-185,182,-191,2025-01-29 15:05:52,0.0
-13168,-264,-3312,-191,242,-202,2025-01-29 15:05:52,0.0
-13152,-148,-3196,-182,275,-193,2025-01-29 15:05:52,0.0
-13096,-244,-3244,-185,125,-167,2025-01-29 15:05:52,0.0
-13128,-280,-3328,-207,4,-147,2025-01-29 15:05:53,0.0
-13116,-220,-2932,-269,137,-201,2025-01-29 15:05:53,0.0
-13112,-208,-3080,-275,164,-202,2025-01-29 15:05:53,0.0
-13196,-240,-3076,-241,123,-199,2025-01-29 15:05:53,0.0
-13152,-188,-3132,-219,126,-159,2025-01-29 15:05:53,0.0
-13260,-200,-3100,-304,124,-181,2025-01-29 15:05:53,0.0
-13124,-208,-3312,-278,93,-162,2025-01-29 15:05:53,0.0
-13104,-168,-3028,-261,105,-172,2025-01-29 15:05:53,0.0
-13236,-192,-3008,-232,132,-204,2025-01-29 15:05:53,0.0
-13156,-340,-2820,-110,209,-158,2025-01-29 15:05:53,0.0
-13200,-408,-3076,-52,154,-143,2025-01-29 15:05:53,0.0
-13256,-268,-3088,-69,76,-140,2025-01-29 15:05:53,0.0
-13176,-216,-3080,-9,44,-161,2025-01-29 15:05:53,0.0
-13080,-164,-3116,2,90,-163,2025-01-29 15:05:53,0.0
-12972,-244,-3208,-65,135,-174,2025-01-29 15:05:53,0.0
-13052,-164,-3124,-74,293,-188,2025-01-29 15:05:53,0.0
-13128,-128,-3000,-112,375,-190,2025-01-29 15:05:53,0.0
-13128,-100,-3060,-130,318,-202,2025-01-29 15:05:53,0.0
-13188,-132,-3008,-128,251,-195,2025-01-29 15:05:53,0.0
-13048,-80,-3184,-107,217,-201,2025-01-29 15:05:53,0.0
-13128,-208,-3184,-138,259,-199,2025-01-29 15:05:53,0.0
-13164,-92,-3156,-162,297,-188,2025-01-29 15:05:53,0.0
-13316,-168,-3100,-119,174,-131,2025-01-29 15:05:53,0.0
-12780,-296,-2392,-534,327,-1103,2025-01-29 15:05:53,0.0
-12964,-256,-2308,-367,595,-1183,2025-01-29 15:05:53,0.0
-13140,-160,-2452,-365,771,-1313,2025-01-29 15:05:53,0.0
-13436,-104,-2808,-288,820,-1360,2025-01-29 15:05:53,0.0
-13656,-36,-3192,-204,322,-1295,2025-01-29 15:05:53,0.0
-13696,-144,-2812,20,-181,-1269,2025-01-29 15:05:54,0.0
-13556,-340,-2544,148,-370,-1272,2025-01-29 15:05:54,0.0
-13484,-420,-2544,407,-524,-1362,2025-01-29 15:05:54,0.0
-13564,-488,-2476,600,-650,-1419,2025-01-29 15:05:54,0.0
-13504,-428,-2684,820,-615,-1398,2025-01-29 15:05:54,0.0
-13452,-352,-2776,1005,-598,-1445,2025-01-29 15:05:54,0.0
-13328,-436,-2988,1142,-572,-1511,2025-01-29 15:05:54,0.0
-13208,-768,-3008,1349,-370,-1649,2025-01-29 15:05:54,0.0
-13008,-1092,-2828,1712,-148,-1840,2025-01-29 15:05:54,0.0
-13736,-1688,-172,-886,500,114,2025-01-29 15:05:54,0.0
-13856,-1576,-648,-1051,-112,359,2025-01-29 15:05:54,0.0
-13628,-1644,-1240,-1268,-610,598,2025-01-29 15:05:54,0.0
-13096,-1704,-1380,-1329,-612,738,2025-01-29 15:05:54,0.0
-12672,-1788,-1476,-1532,233,557,2025-01-29 15:05:54,0.0
-12624,-1772,-1260,-1812,1594,108,2025-01-29 15:05:54,0.0
-13348,-1956,-724,-2073,2548,-172,2025-01-29 15:05:54,0.0
-14036,-2176,-192,-2290,2560,-297,2025-01-29 15:05:54,0.0
-14508,-2380,212,-2299,1818,-462,2025-01-29 15:05:54,0.0
-14660,-2316,308,-2387,615,-642,2025-01-29 15:05:54,0.0
-14568,-1812,252,-2606,-795,-875,2025-01-29 15:05:54,0.0
-13896,-1172,-180,-2976,-1747,-1019,2025-01-29 15:05:54,0.0
-13504,-896,-644,-3546,-1986,-1080,2025-01-29 15:05:54,0.0
-10508,1272,-4736,-347,-3496,4815,2025-01-29 15:05:54,0.0
-9172,1656,-4008,-708,-3132,3895,2025-01-29 15:05:54,0.0
-8516,2244,-3764,-1086,-859,2855,2025-01-29 15:05:54,0.0
-9468,2268,-3696,-1445,3115,1851,2025-01-29 15:05:54,0.0
-11392,908,-3660,-1475,6629,1491,2025-01-29 15:05:55,0.0
-13632,-196,-2976,-959,8020,1723,2025-01-29 15:05:55,0.0
-14740,-980,-2412,-245,7423,2376,2025-01-29 15:05:55,0.0
-15516,-920,-2048,361,5088,2774,2025-01-29 15:05:55,0.0
-15496,-488,-2364,831,1736,3160,2025-01-29 15:05:55,0.0
-14664,432,-2612,1054,-2241,3307,2025-01-29 15:05:55,0.0
-13572,1112,-2816,1172,-4758,3356,2025-01-29 15:05:55,0.0
-12088,1296,-2856,1422,-5611,3280,2025-01-29 15:05:55,0.0
-11280,1188,-2352,1807,-5298,3135,2025-01-29 15:05:55,0.0
-14084,-1416,-428,1240,3235,-1274,2025-01-29 15:05:55,0.0
-16708,-344,1428,2596,4246,-656,2025-01-29 15:05:55,0.0
-18508,-72,2248,3679,4364,644,2025-01-29 15:05:55,0.0
-18436,-484,2960,4708,3009,2001,2025-01-29 15:05:55,0.0
-15956,64,2576,5998,102,2563,2025-01-29 15:05:55,0.0
-13748,372,860,6834,-2245,2116,2025-01-29 15:05:55,0.0
-13424,892,-416,7335,-1197,1846,2025-01-29 15:05:55,0.0
-13532,1516,-2108,7499,2605,1721,2025-01-29 15:05:55,0.0
-13624,3196,-3056,6928,5881,922,2025-01-29 15:05:55,0.0
-14796,4824,-3504,5706,7402,148,2025-01-29 15:05:55,0.0
-16536,5928,-4496,3948,7929,-96,2025-01-29 15:05:55,0.0
-17860,5992,-6156,1892,7806,192,2025-01-29 15:05:55,0.0
-18224,5336,-7068,-305,6863,663,2025-01-29 15:05:55,0.0
-16280,3376,-6332,-1581,4024,-26,2025-01-29 15:05:55,0.0
-11440,-1180,-4184,-13374,2018,-3459,2025-01-29 15:05:55,0.0
-12872,-1868,-3796,-14115,2543,-4037,2025-01-29 15:05:55,0.0
-14176,-2208,-3228,-14383,1156,-4277,2025-01-29 15:05:55,0.0
-14452,-2332,-3464,-14722,-1670,-4128,2025-01-29 15:05:55,0.0
-13980,-2048,-3440,-15090,-4588,-3759,2025-01-29 15:05:56,0.0
-13236,-1740,-3412,-15458,-6070,-3324,2025-01-29 15:05:56,0.0
-12312,-1584,-3444,-15834,-6310,-2844,2025-01-29 15:05:56,0.0
-11924,-1572,-3060,-15770,-5222,-2361,2025-01-29 15:05:56,0.0
-11492,-1676,-3448,-15532,-3399,-1928,2025-01-29 15:05:56,0.0
-12164,-1844,-3216,-15330,-1376,-1407,2025-01-29 15:05:56,0.0
-12428,-2224,-3344,-15271,347,-1186,2025-01-29 15:05:56,0.0
-12996,-2624,-3096,-15290,1290,-1160,2025-01-29 15:05:56,0.0
-14020,-2692,-2912,-15426,1212,-1206,2025-01-29 15:05:56,0.0
-13292,-4400,-5512,-19171,5830,-3719,2025-01-29 15:05:56,
-14084,-388,-3380,-17863,5516,-4199,2025-01-29 15:05:56,0.0
-13936,1840,-2076,-17691,4971,-3545,2025-01-29 15:05:56,0.0
-13180,1864,-3288,-18157,4997,-2571,2025-01-29 15:05:56,0.0
-11972,428,-6180,-19329,5688,-2377,2025-01-29 15:05:56,0.0
-11644,-1060,-7516,-20918,7144,-3359,2025-01-29 15:05:56,0.0
-12928,-1536,-5948,-22005,8938,-4624,2025-01-29 15:05:56,0.0
-14472,-624,-4224,-22304,9963,-5057,2025-01-29 15:05:56,0.0
-16024,644,-3172,-22273,9570,-4729,2025-01-29 15:05:56,0.0
-15976,2360,-2988,-22221,7562,-3968,2025-01-29 15:05:56,0.0
-15348,2844,-3336,-22028,4679,-3379,2025-01-29 15:05:56,0.0
-13816,2208,-4636,-22279,1798,-3108,2025-01-29 15:05:56,0.0
-12208,948,-4832,-22693,295,-3400,2025-01-29 15:05:56,0.0
-10512,-128,-6776,-14776,2378,-6427,2025-01-29 15:05:56,0.0
-10972,-120,-6192,-14037,3169,-6358,2025-01-29 15:05:56,0.0
-11880,-232,-5636,-13633,4149,-6270,2025-01-29 15:05:56,0.0
-12992,-856,-4348,-12832,4524,-6205,2025-01-29 15:05:56,0.0
-14148,-1148,-4152,-11758,3899,-6019,2025-01-29 15:05:57,0.0
-14952,-1204,-3748,-10663,2594,-5650,2025-01-29 15:05:57,0.0
-15140,-1332,-3516,-9718,999,-5302,2025-01-29 15:05:57,0.0
-14840,-1272,-2652,-8816,-969,-5028,2025-01-29 15:05:57,0.0
-13464,-1264,-2096,-7989,-3057,-4913,2025-01-29 15:05:57,0.0
-12416,-808,-2348,-7475,-4543,-4853,2025-01-29 15:05:57,0.0
-11668,-276,-2776,-6986,-4707,-4799,2025-01-29 15:05:57,0.0
-11424,36,-3288,-6432,-3603,-4822,2025-01-29 15:05:57,0.0
-12224,100,-4192,-5855,-1138,-4664,2025-01-29 15:05:57,0.0
-11388,-2620,-2892,-6837,-370,-2518,2025-01-29 15:05:57,0.0
-11588,-2564,-3060,-6718,-633,-2221,2025-01-29 15:05:57,0.0
-11312,-2472,-2816,-6373,-1310,-2105,2025-01-29 15:05:57,0.0
-11176,-2540,-2888,-5999,-1745,-1857,2025-01-29 15:05:57,0.0
-10468,-2472,-3264,-5442,-2112,-1306,2025-01-29 15:05:57,0.0
-9648,-2880,-3092,-4917,-2284,-779,2025-01-29 15:05:57,0.0
-9500,-3216,-2904,-4407,-1685,-444,2025-01-29 15:05:57,0.0
-9624,-3404,-2912,-4001,-323,-87,2025-01-29 15:05:57,0.0
-9632,-3576,-3388,-3514,697,256,2025-01-29 15:05:57,0.0
-9308,-3500,-3824,-3008,578,666,2025-01-29 15:05:57,0.0
-8708,-2856,-4012,-2492,-1057,1162,2025-01-29 15:05:57,0.0
-8368,-2196,-3356,-1861,-2948,1796,2025-01-29 15:05:57,0.0
-8648,-1312,-2596,-1003,-3576,2697,2025-01-29 15:05:57,0.0
-15840,776,1852,270,-7761,1218,2025-01-29 15:05:57,0.0
-13100,-40,760,-542,-6491,44,2025-01-29 15:05:57,0.0
-14612,1512,1032,-1562,-6469,-538,2025-01-29 15:05:57,0.0
-15668,2024,820,-2647,-6359,-742,2025-01-29 15:05:58,0.0
-16796,1904,2588,-2857,-7844,-790,2025-01-29 15:05:58,0.0
-15564,2488,3764,-3017,-9220,-613,2025-01-29 15:05:58,0.0
-14716,1812,2440,-2936,-8803,-337,2025-01-29 15:05:58,0.0
-15944,968,3104,-2953,-9025,-330,2025-01-29 15:05:58,0.0
-14160,532,3484,-2765,-8471,-670,2025-01-29 15:05:58,0.0
-14484,656,3368,-2821,-8068,-684,2025-01-29 15:05:58,0.0
-14844,1212,6436,-2653,-8109,-731,2025-01-29 15:05:58,0.0
-14376,1760,5128,-2440,-8317,-458,2025-01-29 15:05:58,0.0
-12252,2752,12164,107,-9311,-1242,2025-01-29 15:05:58,0.0
-11572,2920,12164,206,-8920,-847,2025-01-29 15:05:58,0.0
-10004,2892,12732,353,-8170,-580,2025-01-29 15:05:58,0.0
-9272,2580,12288,356,-7147,-678,2025-01-29 15:05:58,0.0
-9912,2236,12792,435,-6237,-743,2025-01-29 15:05:58,0.0
-10904,1872,13540,473,-5499,-580,2025-01-29 15:05:58,0.0
-10804,1548,13520,552,-5210,-478,2025-01-29 15:05:58,0.0
-10192,1532,13380,468,-5600,-471,2025-01-29 15:05:58,0.0
-9756,1204,12960,314,-5351,-509,2025-01-29 15:05:58,0.0
-8724,688,12572,288,-4674,-643,2025-01-29 15:05:58,0.0
-8416,1084,12716,-390,-1528,-436,2025-01-29 15:05:58,0.0
-8956,1504,12824,-785,-483,-502,2025-01-29 15:05:58,0.0
-8548,1604,13072,-811,-166,-538,2025-01-29 15:05:58,0.0
-9012,1676,13508,-918,-145,-545,2025-01-29 15:05:59,0.0
-9028,1580,13584,-632,-481,-362,2025-01-29 15:05:59,0.0
-8960,1488,13636,-486,-556,-356,2025-01-29 15:05:59,0.0
-8736,1516,13344,-471,-348,-400,2025-01-29 15:05:59,0.0
-8608,1476,13280,-526,188,-557,2025-01-29 15:05:59,0.0
-8552,1276,13124,-669,769,-703,2025-01-29 15:05:59,0.0
-8936,1136,13152,-779,1301,-743,2025-01-29 15:05:59,0.0
-9264,1256,13224,-683,1589,-687,2025-01-29 15:05:59,0.0
-9768,848,13228,-594,1607,-476,2025-01-29 15:05:59,0.0
-9408,792,13044,-184,213,-219,2025-01-29 15:05:59,0.0
-9532,840,13072,-135,189,-195,2025-01-29 15:05:59,0.0
-9568,908,12972,-95,133,-164,2025-01-29 15:05:59,0.0
-9560,988,13060,-32,77,-101,2025-01-29 15:05:59,0.0
-9460,1068,12956,-2,120,-106,2025-01-29 15:05:59,0.0
-9576,1272,12900,-85,94,-63,2025-01-29 15:05:59,0.0
-9836,1128,13088,6,-57,-97,2025-01-29 15:05:59,0.0
-9392,1228,12936,-89,-241,-42,2025-01-29 15:05:59,0.0
-9340,1168,13104,-119,-169,-133,2025-01-29 15:05:59,0.0
-9412,1004,13056,-135,-218,-108,2025-01-29 15:05:59,0.0
-9348,996,13124,-129,-152,-99,2025-01-29 15:05:59,0.0
-9360,940,13060,-168,-108,-196,2025-01-29 15:05:59,0.0
-9528,1004,13148,-160,-55,-226,2025-01-29 15:05:59,0.0
-9412,1024,13180,-212,19,-228,2025-01-29 15:06:00,0.0
-9364,1076,13276,-142,261,-220,2025-01-29 15:06:00,0.0
-9528,1160,13224,-192,186,-221,2025-01-29 15:06:00,0.0
-9464,1148,13192,-157,91,-211,2025-01-29 15:06:00,0.0
-9500,1072,13216,-105,52,-155,2025-01-29 15:06:00,0.0
-9332,1140,13108,-70,-22,-134,2025-01-29 15:06:00,0.0
-9404,1052,13116,-64,-83,-107,2025-01-29 15:06:00,0.0
-9388,1120,13224,-150,-99,-119,2025-01-29 15:06:00,0.0
-9316,992,13204,-171,7,-194,2025-01-29 15:06:00,0.0
-9360,1084,13288,-134,135,-184,2025-01-29 15:06:00,0.0
-9392,1192,13348,-136,125,-187,2025-01-29 15:06:00,0.0
-9364,952,13376,-132,106,-192,2025-01-29 15:06:00,0.0
-9372,1048,13168,-140,115,-148,2025-01-29 15:06:00,0.0
-9240,1140,13292,-136,107,-191,2025-01-29 15:06:00,0.0
-9264,1044,13180,-177,85,-191,2025-01-29 15:06:00,
-9276,1084,13280,-139,96,-178,2025-01-29 15:06:00,0.0
-9204,1128,13240,-155,98,-206,2025-01-29 15:06:00,0.0
-9304,992,13188,-160,117,-214,2025-01-29 15:06:00,0.0
-9192,1096,13332,-168,198,-201,2025-01-29 15:06:00,0.0
-9284,1012,13152,-172,283,-227,2025-01-29 15:06:00,0.0
-9312,1068,13120,-180,345,-265,2025-01-29 15:06:00,0.0
-9012,844,13352,147,467,8,2025-01-29 15:06:00,0.0
-9060,924,13380,210,479,18,2025-01-29 15:06:00,0.0
-8944,936,13416,361,584,-16,2025-01-29 15:06:00,0.0
-8968,996,13652,401,597,-84,2025-01-29 15:06:00,0.0
-9028,1120,13400,291,556,-168,2025-01-29 15:06:00,0.0
-8756,1164,13176,91,513,-219,2025-01-29 15:06:00,0.0
-8464,944,13144,96,306,-184,2025-01-29 15:06:00,0.0
-8472,828,13076,334,365,-115,2025-01-29 15:06:00,0.0
-8612,896,13536,589,514,-25,2025-01-29 15:06:00,0.0
-8848,1088,14032,849,454,86,2025-01-29 15:06:00,0.0
-9132,1132,14116,884,83,160,2025-01-29 15:06:00,0.0
-9300,1196,14024,792,-151,180,2025-01-29 15:06:00,0.0
-8872,1184,13424,663,-114,196,2025-01-29 15:06:00,0.0
-7784,956,12228,529,-991,159,2025-01-29 15:06:00,0.0
-8524,1052,13276,583,-901,280,2025-01-29 15:06:01,0.0
-8516,1268,13476,737,-1637,233,2025-01-29 15:06:01,0.0
-8568,1208,13712,818,-2234,168,2025-01-29 15:06:01,0.0
-8768,1224,13888,722,-2975,97,2025-01-29 15:06:01,0.0
-8660,1108,13848,803,-4160,98,2025-01-29 15:06:01,0.0
-8668,988,14556,763,-5109,33,2025-01-29 15:06:01,0.0
-8192,1104,14752,903,-5760,-80,2025-01-29 15:06:01,0.0
-8176,1600,14868,829,-6092,-167,2025-01-29 15:06:01,0.0
-8292,1768,14996,1005,-6060,-331,2025-01-29 15:06:01,0.0
-8096,1788,15212,1200,-6146,-402,2025-01-29 15:06:01,0.0
-8048,1832,15300,1344,-6210,-354,2025-01-29 15:06:01,0.0
-7424,2144,14652,1572,-6083,-238,2025-01-29 15:06:01,0.0
-6056,1788,14772,1513,-5010,-430,2025-01-29 15:06:01,0.0
-6296,2160,14396,1032,-3242,-664,2025-01-29 15:06:01,0.0
-6908,2508,14428,515,-1141,-772,2025-01-29 15:06:01,0.0
-7888,2648,14864,110,-63,-695,2025-01-29 15:06:01,0.0
-7560,2580,15404,-69,632,-583,2025-01-29 15:06:01,0.0
-7320,2412,15252,-346,713,-473,2025-01-29 15:06:01,0.0
-3420,1912,14000,-290,1516,-335,2025-01-29 15:06:01,0.0
-7192,1556,16204,-328,3339,-33,2025-01-29 15:06:01,0.0
-7016,1432,16452,-400,4340,-41,2025-01-29 15:06:01,0.0
-7184,1464,16996,-482,4235,-87,2025-01-29 15:06:01,0.0
-6848,1076,17408,-542,3395,-264,2025-01-29 15:06:01,0.0
-6580,696,17760,-730,2241,-597,2025-01-29 15:06:01,0.0
-6296,828,18092,-394,872,-858,2025-01-29 15:06:01,0.0
-6732,760,17300,-323,-261,-962,2025-01-29 15:06:01,0.0
-6664,524,15672,-378,-336,-1169,2025-01-29 15:06:01,0.0
-7756,1244,15328,-203,-563,-1692,2025-01-29 15:06:01,0.0
-9628,1328,16268,-19,1976,-1942,2025-01-29 15:06:01,0.0
-10336,2248,16080,68,2814,-1410,2025-01-29 15:06:01,0.0
-10076,2492,16412,166,3919,-1001,2025-01-29 15:06:01,0.0
-10004,2352,16752,526,4916,-763,2025-01-29 15:06:01,0.0
-10060,2192,16460,995,5307,-624,2025-01-29 15:06:01,0.0
-9424,1920,15964,1205,5583,-778,2025-01-29 15:06:01,0.0
-9460,1464,15600,1212,5884,-988,2025-01-29 15:06:01,0.0
-9532,1640,15340,1264,6116,-1194,2025-01-29 15:06:01,0.0
-9112,1784,14752,1292,5908,-1269,2025-01-29 15:06:01,0.0
-9160,1808,14612,1548,5850,-1206,2025-01-29 15:06:01,0.0
-9044,1616,14356,1863,6230,-1178,2025-01-29 15:06:01,0.0
-8648,1780,13612,1924,6630,-1206,2025-01-29 15:06:01,0.0
-8584,1828,13272,1758,7093,-1366,2025-01-29 15:06:01,0.0
-9456,1824,12956,1541,7287,-1471,2025-01-29 15:06:01,0.0
-9828,2056,13124,1339,7038,-1444,2025-01-29 15:06:01,0.0
-9964,2336,13228,1240,6161,-1175,2025-01-29 15:06:01,0.0
-9812,1756,12880,1217,5434,-837,2025-01-29 15:06:01,0.0
-9252,1168,12936,1036,5007,-815,2025-01-29 15:06:01,0.0
-8324,1232,12608,539,5001,-820,2025-01-29 15:06:01,0.0
-7776,1544,11628,205,6104,-1029,2025-01-29 15:06:01,0.0
-8584,1952,11128,21,8008,-1206,2025-01-29 15:06:01,0.0
-10144,2160,11292,61,10377,-1506,2025-01-29 15:06:01,0.0
-11556,1712,11188,167,11178,-1623,2025-01-29 15:06:01,0.0
-12516,1860,11312,326,11399,-1444,2025-01-29 15:06:01,0.0
-12688,1896,10236,-272,9845,-1112,2025-01-29 15:06:01,0.0
-12760,2132,10216,-576,7902,-869,2025-01-29 15:06:01,0.0
-12268,2616,10144,-596,7057,-715,2025-01-29 15:06:01,0.0
-12080,2656,9716,-589,7148,-616,2025-01-29 15:06:02,0.0
-11900,2320,9084,-679,7752,-495,2025-01-29 15:06:02,0.0
-11620,1844,7928,-1089,9228,-564,2025-01-29 15:06:02,0.0
-12120,1296,7724,-1229,9879,-619,2025-01-29 15:06:02,0.0
-13032,1176,8248,-1350,10489,-528,2025-01-29 15:06:02,0.0
-12988,532,8224,-1250,10622,-179,2025-01-29 15:06:02,0.0
-13652,820,7600,-1104,9925,-349,2025-01-29 15:06:02,0.0
-13120,1080,6464,-1655,9657,-501,2025-01-29 15:06:02,0.0
-12920,1616,6836,-1891,9172,-724,2025-01-29 15:06:02,0.0
-13184,1628,7616,-1581,8321,-603,2025-01-29 15:06:02,0.0
-12900,1552,6176,-1596,7365,-481,2025-01-29 15:06:02,0.0
-14500,1640,5896,-1719,6907,129,2025-01-29 15:06:02,0.0
-13336,1128,5644,-1631,7410,67,2025-01-29 15:06:02,0.0
-13304,924,5968,-1387,8271,-280,2025-01-29 15:06:02,0.0
-14156,388,4920,-1195,8396,-1108,2025-01-29 15:06:02,0.0
-13172,868,4180,-958,9590,-706,2025-01-29 15:06:02,0.0
-14284,1036,4316,-1155,8540,-913,2025-01-29 15:06:02,0.0
-11232,944,148,-1139,7732,-426,2025-01-29 15:06:02,0.0
-13200,1256,3136,-1139,7289,-163,2025-01-29 15:06:02,0.0
-12508,1480,3308,-1080,7096,-111,2025-01-29 15:06:02,0.0
-11800,1388,3524,-1106,6959,-241,2025-01-29 15:06:02,0.0
-11824,1448,3356,-1114,6767,-409,2025-01-29 15:06:02,0.0
-12000,1388,3320,-1067,6792,-535,2025-01-29 15:06:02,0.0
-12116,1364,2952,-796,6929,-398,2025-01-29 15:06:02,0.0
-12312,1116,2512,-560,7220,-213,2025-01-29 15:06:02,
-12028,632,1800,-371,7645,-285,2025-01-29 15:06:02,0.0
-11904,476,1824,-136,7715,-574,2025-01-29 15:06:02,0.0
-12052,628,1996,161,7418,-845,2025-01-29 15:06:02,0.0
-12372,952,2240,557,6914,-891,2025-01-29 15:06:02,0.0
-12668,1568,2240,1346,6359,-615,2025-01-29 15:06:02,0.0
-13056,1748,1852,1914,6163,-5,2025-01-29 15:06:02,0.0
-12860,1168,1400,2277,6087,562,2025-01-29 15:06:02,0.0
-12152,436,864,2626,5548,419,2025-01-29 15:06:02,0.0
-11624,492,-248,2785,4813,107,2025-01-29 15:06:02,0.0
-11244,796,-380,3232,3487,-607,2025-01-29 15:06:02,0.0
-11964,1376,-264,3629,2563,-1169,2025-01-29 15:06:02,0.0
-12408,1364,-64,3643,2403,-1358,2025-01-29 15:06:02,0.0
-12792,1140,168,3562,2619,-1409,2025-01-29 15:06:02,0.0
-13184,984,4,3488,2256,-1403,2025-01-29 15:06:02,0.0
-13236,1016,-684,3446,831,-1524,2025-01-29 15:06:02,0.0
-12948,1568,-648,3738,-1527,-1789,2025-01-29 15:06:02,0.0
-12176,1632,-676,4147,-4483,-1994,2025-01-29 15:06:02,0.0
-11924,880,-1060,3917,-4481,-2296,2025-01-29 15:06:02,0.0
-12172,724,-1440,3575,-3174,-2569,2025-01-29 15:06:02,0.0
-12496,1188,-1500,3203,-749,-2595,2025-01-29 15:06:02,0.0
-13092,2072,-1776,2771,909,-2522,2025-01-29 15:06:02,0.0
-12756,2216,-1576,2328,1775,-2600,2025-01-29 15:06:02,0.0
-13068,2336,-2084,1922,2530,-2834,2025-01-29 15:06:02,0.0
-13720,1792,-2284,1572,3614,-3059,2025-01-29 15:06:02,0.0
-14020,1100,-2332,1136,4306,-3449,2025-01-29 15:06:02,0.0
-14224,424,-2800,703,3827,-3872,2025-01-29 15:06:02,0.0
-14664,60,-3260,257,1858,-3897,2025-01-29 15:06:02,0.0
-14552,-676,-2332,-83,-1921,-3553,2025-01-29 15:06:02,0.0
-13832,-1672,-840,-253,-4370,-3219,2025-01-29 15:06:02,0.0
-13004,-2468,176,-319,-5043,-3088,2025-01-29 15:06:02,0.0
-12476,-3456,472,2,-4148,-2840,2025-01-29 15:06:02,0.0
-12452,-4232,72,275,-2641,-2347,2025-01-29 15:06:02,0.0
-12516,-4184,124,664,-998,-1909,2025-01-29 15:06:02,0.0
-12496,-2880,760,873,1053,-1617,2025-01-29 15:06:02,0.0
-13080,-1068,836,307,2800,-1454,2025-01-29 15:06:02,0.0
-13520,-260,564,-621,3334,-1410,2025-01-29 15:06:02,0.0
-14012,-248,432,-1581,3230,-1396,2025-01-29 15:06:02,0.0
-14072,-988,1200,-1790,2316,-1207,2025-01-29 15:06:02,0.0
-13816,-1896,1708,-1900,1333,-982,2025-01-29 15:06:02,0.0
-13344,-2716,2180,-1987,401,-835,2025-01-29 15:06:02,0.0
-12940,-3128,2144,-1866,-4,-837,2025-01-29 15:06:03,0.0
-12756,-2920,1892,-1850,313,-555,2025-01-29 15:06:03,0.0
-12416,-2580,1824,-1840,1427,-439,2025-01-29 15:06:03,0.0
-12276,-2504,1544,-2139,2540,-525,2025-01-29 15:06:03,0.0
-12720,-2052,1432,-2562,3310,-486,2025-01-29 15:06:03,0.0
-13468,-1536,2096,-2852,3435,-255,2025-01-29 15:06:03,0.0
-13944,-1160,1884,-3193,3050,190,2025-01-29 15:06:03,0.0
-14108,-1032,1832,-3747,2142,786,2025-01-29 15:06:03,0.0
-13844,-1376,1656,-4036,1492,1248,2025-01-29 15:06:03,0.0
-13204,-2132,1460,-3946,1261,1587,2025-01-29 15:06:03,0.0
-12740,-3132,1484,-3688,1607,1513,2025-01-29 15:06:03,0.0
-12448,-3768,1712,-3352,2395,959,2025-01-29 15:06:03,0.0
-13244,-3692,1652,-2922,3394,285,2025-01-29 15:06:03,0.0
-13936,-3160,2036,-2493,3632,-355,2025-01-29 15:06:03,0.0
-14516,-3088,2556,-2206,3195,-994,2025-01-29 15:06:03,0.0
-14900,-2720,2980,-2413,1957,-1307,2025-01-29 15:06:03,0.0
-14808,-1592,3368,-2884,834,-1334,2025-01-29 15:06:03,0.0
-15052,-412,2712,-3660,263,-1410,2025-01-29 15:06:03,0.0
-15032,-408,336,-4713,1079,-1956,2025-01-29 15:06:03,0.0
-15444,-920,-2052,-6127,2207,-3444,2025-01-29 15:06:03,0.0
-15496,-2028,-372,-6839,2156,-4814,2025-01-29 15:06:03,0.0
-15596,-3940,1648,-5961,-353,-5800,2025-01-29 15:06:03,0.0
-16480,-4332,1556,-4155,-3291,-5765,2025-01-29 15:06:03,0.0
-17104,-4972,108,-2186,-5341,-4866,2025-01-29 15:06:03,0.0
-17376,-6084,-1668,-780,-5038,-3887,2025-01-29 15:06:03,0.0
-18560,-6292,-3072,-298,-3054,-2656,2025-01-29 15:06:03,0.0
-20056,-5292,-3356,-940,-432,554,2025-01-29 15:06:03,0.0
-16940,-3640,-2152,-350,-1177,3666,2025-01-29 15:06:03,0.0
-15092,-2892,-2880,253,-3582,4773,2025-01-29 15:06:03,0.0
-13880,-1268,-3556,765,-5090,5223,2025-01-29 15:06:03,0.0
-12148,-64,-3500,1023,-5200,4857,2025-01-29 15:06:03,0.0
-10704,1408,-2400,811,-3926,3333,2025-01-29 15:06:03,0.0
-11044,2380,-1320,609,-1812,2293,2025-01-29 15:06:03,0.0
-12072,1644,-1468,89,227,2044,2025-01-29 15:06:03,0.0
-13116,412,-1152,-222,583,2606,2025-01-29 15:06:03,0.0
-13548,-416,-836,11,662,3186,2025-01-29 15:06:03,0.0
-12900,-1308,-1088,328,984,3138,2025-01-29 15:06:03,0.0
-13460,-2028,-1012,771,1571,2819,2025-01-29 15:06:03,0.0
-13868,-1300,-508,1564,1384,2598,2025-01-29 15:06:03,0.0
-13432,-344,-1144,2207,364,2817,2025-01-29 15:06:03,0.0
-12592,440,-1656,2340,-958,3009,2025-01-29 15:06:03,0.0
-11804,1100,-1380,2353,-1597,2795,2025-01-29 15:06:03,0.0
-11708,1288,-1812,2456,-1224,2616,2025-01-29 15:06:03,0.0
-11912,1312,-1884,2551,164,2498,2025-01-29 15:06:03,0.0
-12284,1540,-1724,2571,1663,2567,2025-01-29 15:06:03,0.0
-12732,1648,-1324,2634,2632,2623,2025-01-29 15:06:03,0.0
-12760,1320,-1100,2862,2496,2516,2025-01-29 15:06:03,0.0
-12636,820,-1196,2938,1301,2160,2025-01-29 15:06:03,0.0
-12424,544,-1064,2966,-438,1754,2025-01-29 15:06:03,0.0
-12216,528,-784,3065,-1479,1369,2025-01-29 15:06:03,0.0
-12200,788,-364,3165,-1567,896,2025-01-29 15:06:03,0.0
-12292,1092,-192,3143,-1097,508,2025-01-29 15:06:03,0.0
-12360,1364,-184,3055,-642,373,2025-01-29 15:06:03,0.0
-12872,1240,8,2840,-515,503,2025-01-29 15:06:03,0.0
-12956,1024,304,2731,-721,495,2025-01-29 15:06:03,0.0
-13140,528,712,2710,-931,92,2025-01-29 15:06:04,0.0
-13328,376,596,2830,-1233,-485,2025-01-29 15:06:04,0.0
-13192,272,824,3017,-1793,-874,2025-01-29 15:06:04,0.0
-12856,372,1152,3255,-2401,-1106,2025-01-29 15:06:04,0.0
-12200,428,1096,3374,-2610,-1338,2025-01-29 15:06:04,
-12224,640,1136,3462,-1990,-1623,2025-01-29 15:06:04,0.0
-12720,860,1268,3536,-659,-1814,2025-01-29 15:06:04,0.0
-13432,832,1448,3894,1220,-2057,2025-01-29 15:06:04,0.0
-14692,524,1396,4400,2287,-2113,2025-01-29 15:06:04,0.0
-15412,-168,1400,4733,2256,-1798,2025-01-29 15:06:04,0.0
-15620,-420,1372,4901,1098,-1219,2025-01-29 15:06:04,0.0
-15672,964,1616,5005,251,-669,2025-01-29 15:06:04,0.0
-15932,1476,1984,4992,562,-268,2025-01-29 15:06:04,0.0
-16352,444,2384,5148,1861,302,2025-01-29 15:06:04,0.0
-16028,-1616,2344,5281,3027,757,2025-01-29 15:06:04,0.0
-15976,-2848,1116,5301,3848,1107,2025-01-29 15:06:04,0.0
-16152,-2332,108,5441,4384,1603,2025-01-29 15:06:04,0.0
-16540,-12,-1260,5462,4751,2299,2025-01-29 15:06:04,0.0
-16408,2308,-2340,4710,5184,2852,2025-01-29 15:06:04,0.0
-15556,3700,-3256,3571,5316,2823,2025-01-29 15:06:04,0.0
-14324,4032,-4236,2305,4693,2123,2025-01-29 15:06:04,0.0
-12984,3176,-4528,1104,3085,680,2025-01-29 15:06:04,0.0
-12772,500,-3592,-293,147,-1835,2025-01-29 15:06:04,0.0
-12672,-1052,-3148,-363,-1219,-2926,2025-01-29 15:06:04,0.0
-12584,-1152,-3864,119,-1207,-3318,2025-01-29 15:06:04,0.0
-13152,-1016,-4492,175,-507,-3121,2025-01-29 15:06:04,0.0
-12512,-932,-4756,181,280,-2824,2025-01-29 15:06:04,0.0
-12520,-1028,-4300,187,1247,-2352,2025-01-29 15:06:04,0.0
-12592,-936,-3352,241,1737,-1871,2025-01-29 15:06:04,0.0
-12588,-1032,-2360,582,1449,-1472,2025-01-29 15:06:04,0.0
-12852,-1020,-2060,816,840,-1139,2025-01-29 15:06:04,0.0
-13080,-720,-1708,1042,476,-995,2025-01-29 15:06:04,0.0
-12880,-676,-1724,930,265,-1119,2025-01-29 15:06:04,0.0
-12872,-680,-1948,415,-1,-1331,2025-01-29 15:06:04,0.0
-13560,-756,-2212,-61,-720,-1708,2025-01-29 15:06:04,0.0
-13704,-808,-3268,-614,-2177,-2006,2025-01-29 15:06:04,0.0
-14244,-740,-3752,-1127,-4033,-1903,2025-01-29 15:06:04,0.0
-13492,-592,-3052,-1590,-5450,-1618,2025-01-29 15:06:04,0.0
-12512,-448,-2804,-2161,-5794,-1358,2025-01-29 15:06:04,0.0
-12028,-296,-2384,-2826,-4735,-1077,2025-01-29 15:06:04,0.0
-11476,-564,-2664,-3216,-3179,-897,2025-01-29 15:06:04,0.0
-11368,-724,-2336,-3436,-1341,-852,2025-01-29 15:06:04,0.0
-11860,-1004,-1648,-3723,54,-778,2025-01-29 15:06:04,0.0
-12480,-1140,-900,-4020,1082,-779,2025-01-29 15:06:04,0.0
-12516,-1312,-940,-7065,1205,617,2025-01-29 15:06:04,0.0
-13000,-1472,-452,-7019,1981,786,2025-01-29 15:06:04,0.0
-13852,-1584,120,-7035,2264,1035,2025-01-29 15:06:04,0.0
-14604,-1632,220,-7048,1942,1145,2025-01-29 15:06:04,0.0
-15216,-1644,-144,-7033,1340,1137,2025-01-29 15:06:04,0.0
-15576,-1496,344,-7092,318,841,2025-01-29 15:06:04,0.0
-15152,-1708,840,-7273,-1145,274,2025-01-29 15:06:04,0.0
-14984,-1672,916,-7616,-2462,-352,2025-01-29 15:06:04,0.0
-14472,-1440,848,-8202,-3409,-838,2025-01-29 15:06:04,0.0
-13524,-1064,444,-8759,-3512,-1283,2025-01-29 15:06:04,0.0
-13116,-196,-772,-9595,-2361,-1600,2025-01-29 15:06:05,0.0
-13148,204,-2080,-10664,-387,-2076,2025-01-29 15:06:05,0.0
-13716,-40,-2560,-11468,739,-2719,2025-01-29 15:06:05,0.0
-14348,-440,-1812,-12058,784,-3336,2025-01-29 15:06:05,0.0
-14908,-180,-912,-12347,-245,-3497,2025-01-29 15:06:05,0.0
-15176,480,-1368,-12464,-2106,-3090,2025-01-29 15:06:05,0.0
-14724,764,-2544,-12414,-3868,-2187,2025-01-29 15:06:05,0.0
-13548,-516,-3684,-12296,-4130,-1508,2025-01-29 15:06:05,0.0
-12712,-1932,-4376,-12191,-2031,-1563,2025-01-29 15:06:05,0.0
-13620,-2604,-3520,-12014,3457,-1463,2025-01-29 15:06:05,0.0
-14792,-2380,-1936,-11223,6985,-1064,2025-01-29 15:06:05,0.0
-15552,-1644,-1176,-10315,7668,-663,2025-01-29 15:06:05,0.0
-15828,-736,-1080,-9641,5772,-137,2025-01-29 15:06:05,0.0
-15396,28,-1324,-9458,2063,335,2025-01-29 15:06:05,0.0
-14332,884,-2112,-9748,-1675,414,2025-01-29 15:06:05,0.0
-13284,1772,-2512,-10099,-3383,462,2025-01-29 15:06:05,0.0
-12288,2148,-3004,-10318,-2992,512,2025-01-29 15:06:05,0.0
-11388,2064,-3528,-10505,-1514,306,2025-01-29 15:06:05,0.0
-10724,1828,-3400,-10816,430,10,2025-01-29 15:06:05,0.0
-10628,1124,-2860,-11246,3046,-544,2025-01-29 15:06:05,0.0
-11520,548,-2456,-11576,4469,-781,2025-01-29 15:06:05,0.0
-12528,404,-1816,-11634,4955,-1311,2025-01-29 15:06:05,0.0
-14460,1312,-1356,-11712,5160,-1304,2025-01-29 15:06:05,0.0
-15404,2252,-1592,-11832,5146,-885,2025-01-29 15:06:05,0.0
-16140,2928,-2144,-12231,3890,-114,2025-01-29 15:06:05,0.0
-15416,3508,-3224,-12849,1633,467,2025-01-29 15:06:05,0.0
-13780,3692,-4344,-13871,-493,555,2025-01-29 15:06:05,0.0
-12268,3328,-5040,-15521,-1462,27,2025-01-29 15:06:05,0.0
-11460,2952,-4936,-16627,-522,-572,2025-01-29 15:06:05,0.0
-11124,2544,-4248,-17251,878,-1095,2025-01-29 15:06:05,0.0
-11540,2560,-3868,-17752,2373,-1328,2025-01-29 15:06:05,0.0
-11768,1900,-3252,-17924,3925,-1650,2025-01-29 15:06:05,0.0
-12972,1120,-2128,-17756,4633,-2024,2025-01-29 15:06:05,0.0
-13748,732,-1632,-17314,3983,-2260,2025-01-29 15:06:05,0.0
-14168,612,-1604,-16899,2682,-2312,2025-01-29 15:06:05,0.0
-13560,564,-1496,-16472,1199,-2594,2025-01-29 15:06:05,0.0
-12880,388,-1676,-16138,-251,-3122,2025-01-29 15:06:05,0.0
-12344,-192,-1656,-15399,-1538,-3659,2025-01-29 15:06:05,0.0
-12284,-748,-884,-14662,-1451,-3950,2025-01-29 15:06:05,0.0
-11692,-704,-872,-13936,-466,-4322,2025-01-29 15:06:05,0.0
-11840,-228,-368,-13275,690,-4643,2025-01-29 15:06:05,0.0
-12424,196,320,-12469,1162,-4882,2025-01-29 15:06:05,0.0
-12900,256,1380,-11704,1253,-4969,2025-01-29 15:06:05,0.0
-13276,-636,2140,-10613,1053,-4985,2025-01-29 15:06:05,0.0
-13948,-1288,1452,-9187,1356,-4830,2025-01-29 15:06:05,0.0
-14560,-1876,640,-7263,1936,-4570,2025-01-29 15:06:05,0.0
-16164,-1436,-1204,-5253,3172,-3560,2025-01-29 15:06:05,0.0
-17120,-1012,-2824,-3541,4041,-2008,2025-01-29 15:06:05,0.0
-16656,-80,-3488,-2439,4053,-958,2025-01-29 15:06:05,0.0
-14860,1300,-3636,-2316,2709,-772,2025-01-29 15:06:05,0.0
-13196,2904,-2760,-2739,309,-1530,2025-01-29 15:06:05,
-12608,3464,-2520,-3454,-1690,-2398,2025-01-29 15:06:05,0.0
-12688,3444,-2212,-4104,-1834,-2962,2025-01-29 15:06:05,0.0
-13328,1696,-5040,-5658,974,-3909,2025-01-29 15:06:05,0.0
-13232,1040,-4844,-6444,734,-4082,2025-01-29 15:06:05,0.0
-13008,652,-4400,-7001,-105,-4063,2025-01-29 15:06:05,0.0
-12764,632,-3908,-7443,-449,-3970,2025-01-29 15:06:05,0.0
-12488,160,-3420,-8164,-201,-3961,2025-01-29 15:06:05,0.0
-12596,-952,-3108,-8954,403,-4081,2025-01-29 15:06:05,0.0
-13200,-1916,-2696,-9515,964,-4331,2025-01-29 15:06:05,0.0
-14092,-2764,-2292,-9831,1045,-4404,2025-01-29 15:06:05,0.0
-14552,-2888,-2440,-9944,498,-4355,2025-01-29 15:06:05,0.0
-14560,-2832,-2456,-10078,-581,-4375,2025-01-29 15:06:05,0.0
-14868,-2260,-1968,-10222,-1644,-4310,2025-01-29 15:06:05,0.0
-14468,-1816,-2132,-10284,-2460,-4183,2025-01-29 15:06:05,0.0
-13832,-1604,-2280,-10498,-2926,-4062,2025-01-29 15:06:06,0.0
-13364,-1368,-2304,-10719,-2988,-3866,2025-01-29 15:06:06,0.0
-12876,-1248,-2128,-10987,-2753,-3493,2025-01-29 15:06:06,0.0
-12480,-1572,-2424,-11273,-2281,-3180,2025-01-29 15:06:06,0.0
-12136,-1868,-2768,-11540,-1554,-3065,2025-01-29 15:06:06,0.0
-12128,-2044,-3052,-11977,-652,-3129,2025-01-29 15:06:06,0.0
-12476,-1696,-2548,-12342,98,-3208,2025-01-29 15:06:06,0.0
-12868,-1540,-2376,-12696,380,-3203,2025-01-29 15:06:06,0.0
-13268,-1496,-2076,-13126,271,-3149,2025-01-29 15:06:06,0.0
-13880,-1180,-2340,-13522,-611,-2801,2025-01-29 15:06:06,0.0
-13732,-1388,-2760,-14025,-1773,-2394,2025-01-29 15:06:06,0.0
-13336,-1944,-2636,-14411,-2679,-2088,2025-01-29 15:06:06,0.0
-13164,-2544,-2244,-14429,-2824,-2047,2025-01-29 15:06:06,0.0
-13200,-2776,-1832,-14212,-2112,-2008,2025-01-29 15:06:06,0.0
-13296,-2176,-1952,-13868,-951,-1748,2025-01-29 15:06:06,0.0
-13080,-2076,-2432,-13656,-406,-1502,2025-01-29 15:06:06,0.0
-13124,-2328,-2500,-13420,82,-1486,2025-01-29 15:06:06,0.0
-13312,-2772,-2180,-13148,779,-1613,2025-01-29 15:06:06,0.0
-13808,-3168,-2288,-13188,1386,-1784,2025-01-29 15:06:06,0.0
-14340,-3300,-1712,-13183,954,-1922,2025-01-29 15:06:06,0.0
-14524,-2640,-1416,-13221,-451,-1833,2025-01-29 15:06:06,0.0
-14328,-1760,-1172,-13423,-1924,-1495,2025-01-29 15:06:06,0.0
-13980,-1264,-1316,-13625,-2773,-1143,2025-01-29 15:06:06,0.0
-13436,-1208,-1416,-13766,-3002,-788,2025-01-29 15:06:06,0.0
-12844,-1592,-1908,-13973,-2477,-555,2025-01-29 15:06:06,0.0
-12416,-2136,-1716,-14222,-1407,-511,2025-01-29 15:06:06,0.0
-12356,-2672,-1228,-14413,-270,-657,2025-01-29 15:06:06,0.0
-13460,-3128,-796,-14032,683,-777,2025-01-29 15:06:06,0.0
-14264,-3340,-1256,-13520,792,-857,2025-01-29 15:06:06,0.0
-14592,-3556,-1548,-12808,-487,-905,2025-01-29 15:06:06,0.0
-14016,-2720,-2288,-12464,-2553,-800,2025-01-29 15:06:06,0.0
-13212,-1260,-2044,-12480,-3617,-280,2025-01-29 15:06:06,0.0
-12628,76,-2024,-12390,-2750,305,2025-01-29 15:06:06,0.0
-12168,896,-2688,-12311,-668,638,2025-01-29 15:06:06,0.0
-12252,780,-3336,-12362,1696,343,2025-01-29 15:06:06,0.0
-12420,660,-3600,-12689,3366,-17,2025-01-29 15:06:06,0.0
-13064,864,-2680,-12876,4380,-263,2025-01-29 15:06:06,0.0
-13764,1040,-1504,-12705,5074,-321,2025-01-29 15:06:06,0.0
-14244,888,-652,-12555,4991,-542,2025-01-29 15:06:06,0.0
-14624,344,-324,-12413,3339,-960,2025-01-29 15:06:06,0.0
-14568,124,-916,-12258,622,-1260,2025-01-29 15:06:06,0.0
-14176,360,-1588,-12001,-1251,-1410,2025-01-29 15:06:06,0.0
-12884,1508,-2016,-11951,-843,-1537,2025-01-29 15:06:06,0.0
-12064,1832,-1536,-12095,913,-1876,2025-01-29 15:06:06,0.0
-12308,1576,-776,-12039,2697,-2205,2025-01-29 15:06:06,0.0
-13452,968,-604,-11640,3810,-2333,2025-01-29 15:06:06,0.0
-14776,304,-904,-10968,4083,-2020,2025-01-29 15:06:06,0.0
-15368,-272,-1200,-10177,3576,-1514,2025-01-29 15:06:06,0.0
-15424,-176,-960,-9648,1986,-1104,2025-01-29 15:06:06,0.0
-14888,704,-712,-9119,-454,-757,2025-01-29 15:06:06,0.0
-14168,1152,-768,-8647,-1834,-665,2025-01-29 15:06:06,0.0
-13508,1044,-1068,-8149,-2185,-746,2025-01-29 15:06:06,0.0
-12900,208,-1208,-7655,-1990,-891,2025-01-29 15:06:06,0.0
-12740,-300,-1088,-6877,-1332,-1163,2025-01-29 15:06:06,0.0
-12600,-84,40,-5475,-754,-1463,2025-01-29 15:06:06,0.0
-12648,32,892,-4248,-1201,-1782,2025-01-29 15:06:06,0.0
-13196,296,1400,-3130,-1261,-1911,2025-01-29 15:06:06,0.0
-13616,852,716,-2418,-972,-1727,2025-01-29 15:06:06,0.0
-13780,1804,-216,-1789,-498,-1048,2025-01-29 15:06:06,0.0
-13204,2376,-1348,-1754,-136,-591,2025-01-29 15:06:06,0.0
-12304,2800,-2076,-2055,239,-706,2025-01-29 15:06:07,0.0
-12064,2736,-2488,-2719,451,-1470,2025-01-29 15:06:07,0.0
-12420,2436,-2220,-3069,414,-1945,2025-01-29 15:06:07,0.0
-12852,1824,-2076,-3192,27,-2204,2025-01-29 15:06:07,0.0
-13624,896,-1732,-3065,-315,-2254,2025-01-29 15:06:07,0.0
-14148,-88,-952,-2524,-67,-2028,2025-01-29 15:06:07,0.0
-14284,-1180,-1488,-1759,-174,-1654,2025-01-29 15:06:07,0.0
-13744,-1224,-1988,-1387,-765,-1536,2025-01-29 15:06:07,0.0
-13088,-1056,-2188,-1136,-1406,-1543,2025-01-29 15:06:07,0.0
-12492,-708,-2036,-852,-1592,-1571,2025-01-29 15:06:07,0.0
-12532,-328,-2288,-401,-633,-1579,2025-01-29 15:06:07,0.0
-12064,-424,-2648,61,1955,-1749,2025-01-29 15:06:07,0.0
-12884,-608,-1956,510,4095,-1958,2025-01-29 15:06:07,0.0
-14124,-736,-2260,722,5025,-1954,2025-01-29 15:06:07,0.0
-14800,-748,-2396,494,4739,-1943,2025-01-29 15:06:07,0.0
-15860,8,-2604,284,3742,-1538,2025-01-29 15:06:07,0.0
-15876,92,-2596,-31,1770,-899,2025-01-29 15:06:07,0.0
-15364,-288,-2168,-153,-1149,-445,2025-01-29 15:06:07,0.0
-13972,-572,-1516,-245,-3035,-9,2025-01-29 15:06:07,0.0
-12668,-1036,-1716,-168,-2738,47,2025-01-29 15:06:07,0.0
-12056,-1452,-1428,147,-884,-123,2025-01-29 15:06:07,0.0
-12140,-1900,-1212,635,1523,-274,2025-01-29 15:06:07,0.0
-12748,-1684,-1444,1009,2841,-358,2025-01-29 15:06:07,0.0
-13424,-1208,-1556,1211,2809,-339,2025-01-29 15:06:07,0.0
-14104,-608,-1916,1126,1998,-284,2025-01-29 15:06:07,0.0
-14336,-208,-2064,761,1059,-158,2025-01-29 15:06:07,
-14220,-60,-1816,477,445,-15,2025-01-29 15:06:07,0.0
-13868,-48,-1792,249,188,114,2025-01-29 15:06:07,0.0
-13436,-56,-1420,-16,265,75,2025-01-29 15:06:07,0.0
-13416,-240,-1644,-290,554,-36,2025-01-29 15:06:07,0.0
-13656,-536,-1824,-314,515,-130,2025-01-29 15:06:07,0.0
-13664,-700,-1828,-237,186,-72,2025-01-29 15:06:07,0.0
-13564,-772,-1632,-172,90,34,2025-01-29 15:06:07,0.0
-13416,-840,-1400,-21,111,106,2025-01-29 15:06:07,0.0
-13292,-620,-1756,139,167,100,2025-01-29 15:06:07,0.0
-13396,-500,-2116,193,384,24,2025-01-29 15:06:07,0.0
-13332,-432,-2164,308,644,-25,2025-01-29 15:06:07,0.0
-13368,-380,-2120,367,756,-81,2025-01-29 15:06:07,0.0
-13512,-248,-1856,372,725,-77,2025-01-29 15:06:07,0.0
-13712,-196,-1736,304,487,-67,2025-01-29 15:06:07,0.0
-13804,-96,-1936,311,61,10,2025-01-29 15:06:07,0.0
-13516,-112,-1996,185,-337,3,2025-01-29 15:06:07,0.0
-13268,-120,-2412,70,-206,-9,2025-01-29 15:06:07,0.0
-13184,-212,-2180,-22,127,-40,2025-01-29 15:06:07,0.0
-13232,-200,-2172,-109,476,-54,2025-01-29 15:06:07,0.0
-13336,-192,-2284,-174,645,-92,2025-01-29 15:06:07,0.0
-13320,-236,-2204,-215,631,-120,2025-01-29 15:06:07,0.0
-13564,-328,-2248,-199,513,-112,2025-01-29 15:06:07,0.0
-13396,-320,-2176,-186,420,-126,2025-01-29 15:06:07,0.0
-13524,-244,-2092,-181,450,-153,2025-01-29 15:06:07,0.0
-13496,-156,-2232,-296,483,-180,2025-01-29 15:06:07,0.0
-13412,-144,-2396,-332,442,-223,2025-01-29 15:06:07,0.0
-13408,-324,-2172,-303,374,-187,2025-01-29 15:06:07,0.0
-13452,-284,-2336,-249,418,-135,2025-01-29 15:06:07,0.0
-13148,-124,-2168,-268,654,-112,2025-01-29 15:06:07,0.0
-13188,-40,-2540,-320,1000,-171,2025-01-29 15:06:07,0.0
-13384,-44,-2184,-422,1216,-233,2025-01-29 15:06:07,0.0
-13340,-68,-2160,-439,1191,-158,2025-01-29 15:06:07,0.0
-13728,-228,-1788,-380,1033,-54,2025-01-29 15:06:07,0.0
-13424,-220,-1972,-312,536,54,2025-01-29 15:06:08,0.0
-13260,-136,-2028,-341,183,-45,2025-01-29 15:06:08,0.0
-13296,-200,-2380,-308,149,-67,2025-01-29 15:06:08,0.0
-13220,-100,-2548,-268,385,-139,2025-01-29 15:06:08,0.0
-13236,-148,-2568,-290,692,-172,2025-01-29 15:06:08,0.0
-13428,-152,-2384,-290,721,-182,2025-01-29 15:06:08,0.0
-13548,-156,-2324,-279,444,-78,2025-01-29 15:06:08,0.0
-13420,-116,-2476,-369,322,-93,2025-01-29 15:06:08,0.0
-13292,36,-2520,-418,529,-139,2025-01-29 15:06:08,0.0
-13276,-64,-2480,-382,671,-159,2025-01-29 15:06:08,0.0
-13408,-140,-2724,-382,469,-155,2025-01-29 15:06:08,0.0
-13344,-392,-2664,-370,345,-146,2025-01-29 15:06:08,0.0
-13244,-156,-2356,-310,429,-164,2025-01-29 15:06:08,0.0
-13212,-32,-2360,-317,579,-155,2025-01-29 15:06:08,0.0
-13400,-36,-2684,-300,596,-105,2025-01-29 15:06:08,0.0
-13396,12,-2828,-364,567,-53,2025-01-29 15:06:08,0.0
-13256,156,-2800,-409,702,-31,2025-01-29 15:06:08,0.0
-13232,340,-3064,-402,858,-56,2025-01-29 15:06:08,0.0
-13036,212,-3144,-383,986,-135,2025-01-29 15:06:08,0.0
-13032,136,-3128,-377,1231,-161,2025-01-29 15:06:08,0.0
-13516,336,-2992,-373,1737,-166,2025-01-29 15:06:08,0.0
-13904,836,-2988,-453,2328,74,2025-01-29 15:06:08,0.0
-13712,1616,-3256,-645,2867,403,2025-01-29 15:06:08,0.0
-13252,2084,-3868,-980,2614,370,2025-01-29 15:06:08,0.0
-12912,2096,-3580,-1289,1500,-114,2025-01-29 15:06:08,0.0
-12784,944,-1856,-1578,-189,-757,2025-01-29 15:06:08,0.0
-12812,-608,324,-961,-1664,-1602,2025-01-29 15:06:08,0.0
-13556,-1188,1160,273,-1632,-1591,2025-01-29 15:06:08,0.0
-13176,-556,428,1416,-785,-1253,2025-01-29 15:06:08,0.0
-12552,636,-2124,1524,-567,-1366,2025-01-29 15:06:08,0.0
-13244,1684,-3964,877,-582,-1352,2025-01-29 15:06:08,0.0
-13392,1792,-4732,170,-448,-1169,2025-01-29 15:06:08,0.0
-13236,1864,-4192,-240,-47,-1243,2025-01-29 15:06:08,0.0
-13232,1376,-3504,-561,417,-1809,2025-01-29 15:06:08,0.0
-13524,372,-2892,-662,-145,-2234,2025-01-29 15:06:08,0.0
-13704,-388,-2156,-455,-1096,-2410,2025-01-29 15:06:08,0.0
-14072,-912,-1860,-374,-2159,-2223,2025-01-29 15:06:08,0.0
-13828,-884,-1616,-276,-2564,-2020,2025-01-29 15:06:08,0.0
-13696,-1032,-1572,-80,-2002,-1909,2025-01-29 15:06:08,0.0
-13284,-1996,-1372,-167,-692,-2212,2025-01-29 15:06:08,0.0
-13080,-3008,-168,-657,362,-2855,2025-01-29 15:06:08,0.0
-13760,-3388,1636,-880,791,-2970,2025-01-29 15:06:08,0.0
-14436,-3072,2008,-593,938,-2608,2025-01-29 15:06:08,0.0
-14408,-2640,864,-184,428,-2429,2025-01-29 15:06:08,0.0
-14476,-2520,556,42,-522,-2530,2025-01-29 15:06:08,0.0
-14044,-2044,540,414,-1603,-2654,2025-01-29 15:06:08,0.0
-13688,-1620,248,580,-2216,-2516,2025-01-29 15:06:08,0.0
-13036,-896,76,514,-2336,-2152,2025-01-29 15:06:08,0.0
-12288,-664,-228,155,-2367,-1648,2025-01-29 15:06:08,0.0
-11944,-744,-188,-372,-2251,-1210,2025-01-29 15:06:08,0.0
-11872,-1220,136,-831,-1769,-913,2025-01-29 15:06:08,0.0
-12436,-1980,752,-1135,-1221,-356,2025-01-29 15:06:08,0.0
-13028,-2524,1568,-1085,-885,319,2025-01-29 15:06:08,0.0
-13656,-2484,1856,-765,-712,1078,2025-01-29 15:06:08,0.0
-13812,-2300,1916,-427,-963,1889,2025-01-29 15:06:08,0.0
-13432,-2056,1172,-306,-1524,2507,2025-01-29 15:06:08,0.0
-12332,-1884,140,-585,-1810,2491,2025-01-29 15:06:08,0.0
-12180,-1568,-680,-1209,-596,1852,2025-01-29 15:06:08,0.0
-13048,-500,-1204,-1752,1596,1276,2025-01-29 15:06:09,0.0
-14268,860,-948,-2311,3718,1213,2025-01-29 15:06:09,0.0
-14612,-168,-596,-2522,5106,857,2025-01-29 15:06:09,0.0
-15120,-2360,-252,-2861,4682,85,2025-01-29 15:06:09,0.0
-16368,-4076,24,-3142,2897,-911,2025-01-29 15:06:09,0.0
-17100,-3072,-1132,-3082,354,-2125,2025-01-29 15:06:09,0.0
-17204,160,-2728,-3719,-1630,-3928,2025-01-29 15:06:09,0.0
-17276,1316,-2848,-5094,-2966,-4810,2025-01-29 15:06:09,0.0
-16396,164,-1252,-6019,-4095,-4474,2025-01-29 15:06:09,
-14936,-2392,-424,-5876,-5429,-3896,2025-01-29 15:06:09,0.0
-14576,-5136,-76,-5200,-5944,-3194,2025-01-29 15:06:09,0.0
-15072,-7496,-40,-4397,-4744,-2137,2025-01-29 15:06:09,0.0
-16036,-7480,1152,-2976,-2433,-444,2025-01-29 15:06:09,0.0
-15592,-4684,1524,-1022,-898,1515,2025-01-29 15:06:09,0.0
-14544,-2704,-480,-432,-852,2939,2025-01-29 15:06:09,0.0
-14344,-2312,-1640,-398,-1272,3039,2025-01-29 15:06:09,0.0
-14368,-2448,-2348,258,-1769,3234,2025-01-29 15:06:09,0.0
-13868,-2692,-2896,1218,-2147,3173,2025-01-29 15:06:09,0.0
-13012,-1828,-2876,2175,-2798,2946,2025-01-29 15:06:09,0.0
-11504,-836,-3496,2217,-3399,2737,2025-01-29 15:06:09,0.0
-10160,604,-3640,1824,-3786,2350,2025-01-29 15:06:09,0.0
-9588,1904,-4336,1204,-3202,1852,2025-01-29 15:06:09,0.0
-9608,2608,-4624,489,-1248,1342,2025-01-29 15:06:09,0.0
-10676,2400,-4188,-273,2470,767,2025-01-29 15:06:09,0.0
-12080,1172,-3688,-951,6386,484,2025-01-29 15:06:09,0.0
-14688,216,-1592,-1015,9291,654,2025-01-29 15:06:09,0.0
-16384,-904,-864,-560,10282,1372,2025-01-29 15:06:09,0.0
-16672,-1276,-832,-178,8361,2087,2025-01-29 15:06:09,0.0
-16836,-836,-656,567,4080,2894,2025-01-29 15:06:09,0.0
-15568,-88,-1472,1091,-2839,3272,2025-01-29 15:06:09,0.0
-14380,612,-564,926,-7196,3276,2025-01-29 15:06:09,0.0
-12400,700,-644,1206,-7253,3161,2025-01-29 15:06:09,0.0
-11096,500,-448,1648,-5603,2937,2025-01-29 15:06:09,0.0
-9924,340,-1136,1954,-3413,2571,2025-01-29 15:06:09,0.0
-9536,560,-1396,2059,-690,1983,2025-01-29 15:06:09,0.0
-10480,996,-816,2104,1681,1660,2025-01-29 15:06:09,0.0
-11640,1392,-804,2009,3029,1333,2025-01-29 15:06:09,0.0
-12232,1416,-524,1904,2540,800,2025-01-29 15:06:09,0.0
-12556,1056,164,1828,1431,128,2025-01-29 15:06:09,0.0
-12836,580,700,1861,425,-575,2025-01-29 15:06:09,0.0
-12604,452,1168,1958,-492,-1260,2025-01-29 15:06:09,0.0
-12372,248,520,2090,-1262,-1721,2025-01-29 15:06:09,0.0
-12292,-56,496,2088,-1705,-2113,2025-01-29 15:06:09,0.0
-12344,60,648,2225,-1382,-2548,2025-01-29 15:06:09,0.0
-12904,388,808,2410,-623,-2722,2025-01-29 15:06:09,0.0
-13524,624,972,2540,-186,-2582,2025-01-29 15:06:09,0.0
-13912,636,604,2725,-425,-2416,2025-01-29 15:06:09,0.0
-14040,852,236,2899,-986,-2266,2025-01-29 15:06:09,0.0
-14172,688,-612,3075,-1370,-1994,2025-01-29 15:06:09,0.0
-14348,580,-1216,3454,-743,-1560,2025-01-29 15:06:09,0.0
-14784,224,-1436,3929,500,-720,2025-01-29 15:06:09,0.0
-14880,124,420,4597,1894,108,2025-01-29 15:06:09,0.0
-15772,-508,2696,5189,2539,735,2025-01-29 15:06:09,0.0
-17060,-688,3344,5830,2679,1696,2025-01-29 15:06:09,0.0
-17388,-620,2144,6264,2447,2943,2025-01-29 15:06:09,0.0
-16536,200,620,6892,2039,3251,2025-01-29 15:06:09,0.0
-16176,1384,-1756,7246,2047,2636,2025-01-29 15:06:09,0.0
-17124,2648,-4048,6824,2732,2334,2025-01-29 15:06:09,0.0
-16644,4336,-5096,5316,4056,2419,2025-01-29 15:06:09,0.0
-16560,5700,-5208,3001,4600,2286,2025-01-29 15:06:09,0.0
-15824,5336,-6000,155,4313,1731,2025-01-29 15:06:09,0.0
-13928,3068,-4976,-2185,2163,378,2025-01-29 15:06:09,0.0
-12760,384,-3292,-2623,-1198,-1495,2025-01-29 15:06:09,0.0
-11832,-1040,-2612,-1992,-4382,-2704,2025-01-29 15:06:10,0.0
-10780,-1356,-2680,-1321,-6216,-3131,2025-01-29 15:06:10,0.0
-9560,-1628,-3360,-1079,-5958,-3396,2025-01-29 15:06:10,0.0
-9028,-1912,-4128,-1112,-3802,-3525,2025-01-29 15:06:10,0.0
-9680,-1952,-4756,-1258,427,-3214,2025-01-29 15:06:10,0.0
-10984,-1716,-4340,-1335,3973,-2489,2025-01-29 15:06:10,0.0
-12392,-2024,-3352,-1214,6029,-1714,2025-01-29 15:06:10,0.0
-13196,-2212,-3228,-1087,6620,-1307,2025-01-29 15:06:10,0.0
-14144,-1916,-2452,-922,5542,-1273,2025-01-29 15:06:10,0.0
-14896,-500,-2856,-1114,2507,-1443,2025-01-29 15:06:10,0.0
-14744,784,-3768,-1878,-49,-1939,2025-01-29 15:06:10,0.0
-14532,952,-3848,-3074,-1836,-2573,2025-01-29 15:06:10,0.0
-13252,464,-4452,-4196,-3328,-3117,2025-01-29 15:06:10,0.0
-12856,-136,-4368,-5111,-4945,-3307,2025-01-29 15:06:10,0.0
-12476,-580,-4008,-5873,-5853,-3096,2025-01-29 15:06:10,0.0
-11412,-724,-3432,-6422,-5169,-2903,2025-01-29 15:06:10,0.0
-10936,-808,-2820,-7112,-3373,-2869,2025-01-29 15:06:10,0.0
-10852,-732,-2816,-7606,-1140,-2896,2025-01-29 15:06:10,0.0
-11560,-864,-2432,-8024,593,-2863,2025-01-29 15:06:10,0.0
-12428,-1120,-2272,-8371,1398,-2813,2025-01-29 15:06:10,0.0
-13652,-1380,-1488,-8654,1359,-2696,2025-01-29 15:06:10,0.0
-13628,-1600,-1900,-8976,411,-2559,2025-01-29 15:06:10,0.0
-14160,-1640,-1596,-9277,-1011,-2369,2025-01-29 15:06:10,0.0
-13808,-1560,-1996,-9574,-2588,-1918,2025-01-29 15:06:10,0.0
-13428,-1284,-2400,-9788,-3821,-1415,2025-01-29 15:06:10,0.0
-12840,-848,-2740,-10033,-4137,-973,2025-01-29 15:06:10,0.0
-12292,-372,-3112,-10478,-3317,-741,2025-01-29 15:06:10,0.0
-12128,-72,-3384,-11081,-1674,-606,2025-01-29 15:06:10,0.0
-12168,404,-3044,-11658,3,-558,2025-01-29 15:06:10,0.0
-13028,892,-2352,-12310,1056,-30,2025-01-29 15:06:10,0.0
-13576,52,-1816,-13040,1012,345,2025-01-29 15:06:10,0.0
-14316,-500,-1876,-13833,188,322,2025-01-29 15:06:10,0.0
-14556,-1328,-2320,-14325,-1105,234,2025-01-29 15:06:10,0.0
-14252,-1612,-2264,-14468,-1527,-33,2025-01-29 15:06:10,0.0
-13428,-1504,-2004,-14817,-1223,-538,2025-01-29 15:06:10,0.0
-13616,-1032,-1652,-15641,-985,-896,2025-01-29 15:06:10,0.0
-13852,-308,-1280,-16138,-1021,-931,2025-01-29 15:06:10,0.0
-14352,20,-1536,-16482,-1270,-796,2025-01-29 15:06:10,0.0
-14336,-20,-1540,-16909,-1625,-751,2025-01-29 15:06:10,0.0
-13968,-508,-924,-17321,-1708,-1060,2025-01-29 15:06:10,0.0
-13776,-1480,-828,-17666,-1544,-1249,2025-01-29 15:06:10,0.0
-14092,-2516,-772,-17921,-1240,-1364,2025-01-29 15:06:10,0.0
-14388,-3052,-384,-17985,-910,-1479,2025-01-29 15:06:10,0.0
-14636,-2720,-472,-18109,-1303,-1684,2025-01-29 15:06:10,0.0
-14652,-1960,-1260,-18375,-2440,-1518,2025-01-29 15:06:10,0.0
-14836,-1260,-2128,-18586,-3491,-1155,2025-01-29 15:06:10,
-14664,-212,-3276,-18822,-3875,-722,2025-01-29 15:06:10,0.0
-14144,500,-4096,-19346,-3014,-841,2025-01-29 15:06:10,0.0
-13704,80,-4028,-19803,-1964,-1212,2025-01-29 15:06:10,0.0
-13364,-708,-2900,-19732,-1402,-1087,2025-01-29 15:06:10,0.0
-12296,-1544,-2784,-19097,-643,-575,2025-01-29 15:06:10,0.0
-10872,-2164,-4256,-18595,792,-649,2025-01-29 15:06:10,0.0
-10028,-2548,-4964,-18451,3656,-1647,2025-01-29 15:06:10,0.0
-10424,-2732,-3800,-18426,6616,-2704,2025-01-29 15:06:10,0.0
-11656,-2400,-1720,-17975,9407,-3673,2025-01-29 15:06:10,0.0
-13120,-2476,-404,-17044,10686,-4014,2025-01-29 15:06:10,0.0
-14160,-1952,-784,-15636,9257,-3833,2025-01-29 15:06:10,0.0
-13888,-1304,-2300,-15098,6148,-3723,2025-01-29 15:06:10,0.0
-13564,-556,-3572,-15436,3582,-3905,2025-01-29 15:06:10,0.0
-13624,284,-2820,-15765,3444,-3697,2025-01-29 15:06:10,0.0
-13644,1032,-3352,-15521,4335,-3160,2025-01-29 15:06:11,0.0
-14004,1760,-4456,-15789,5067,-3039,2025-01-29 15:06:11,0.0
-13748,1556,-4532,-16745,4715,-3259,2025-01-29 15:06:11,0.0
-13416,1268,-3992,-17410,2942,-3743,2025-01-29 15:06:11,0.0
-13420,1028,-4072,-17849,1129,-3873,2025-01-29 15:06:11,0.0
-12432,676,-4028,-18120,0,-3977,2025-01-29 15:06:11,0.0
-11964,460,-4420,-18004,107,-4156,2025-01-29 15:06:11,0.0
-11572,136,-5236,-17964,1494,-4351,2025-01-29 15:06:11,0.0
-11744,-428,-5212,-18199,3299,-4687,2025-01-29 15:06:11,0.0
-11796,-1120,-4292,-18212,3573,-4876,2025-01-29 15:06:11,0.0
-12036,-1868,-3736,-17952,2835,-5022,2025-01-29 15:06:11,0.0
-12292,-2128,-3108,-17390,1690,-5014,2025-01-29 15:06:11,0.0
-12104,-1724,-3100,-16681,1019,-4904,2025-01-29 15:06:11,0.0
-11608,-1460,-3380,-16250,1162,-4908,2025-01-29 15:06:11,0.0
-11304,-948,-4592,-15698,1691,-4823,2025-01-29 15:06:11,0.0
-11660,-176,-5508,-15432,2321,-4457,2025-01-29 15:06:11,0.0
-11704,32,-5704,-15472,2421,-3769,2025-01-29 15:06:11,0.0
-10952,-100,-5388,-15562,1424,-3214,2025-01-29 15:06:11,0.0
-10320,-340,-4736,-15745,274,-2941,2025-01-29 15:06:11,0.0
-9240,-852,-4544,-16027,27,-3347,2025-01-29 15:06:11,0.0
-10104,-1548,-5508,-16519,1202,-4288,2025-01-29 15:06:11,0.0
-11208,-1520,-7604,-17179,2763,-5141,2025-01-29 15:06:11,0.0
-12364,-1120,-7624,-17582,3856,-5940,2025-01-29 15:06:11,0.0
-12984,-636,-5996,-17577,3336,-6241,2025-01-29 15:06:11,0.0
-12792,-508,-3960,-17041,1124,-5867,2025-01-29 15:06:11,0.0
-12424,-1244,-2924,-16114,-1517,-5297,2025-01-29 15:06:11,0.0
-11860,-2532,-2848,-15103,-4339,-4325,2025-01-29 15:06:11,0.0
-11348,-3600,-4128,-14296,-5331,-3584,2025-01-29 15:06:11,0.0
-12048,-3724,-4508,-13145,-4862,-2612,2025-01-29 15:06:11,0.0
-11704,-3700,-3564,-11793,-4630,-1682,2025-01-29 15:06:11,0.0
-11648,-3612,-2644,-10875,-5102,-641,2025-01-29 15:06:11,0.0
-10908,-2472,-1728,-10742,-6142,173,2025-01-29 15:06:11,0.0
-10160,-1152,-4480,-10399,-6447,-31,2025-01-29 15:06:11,0.0
-11916,-564,-2936,-9935,15,-1556,2025-01-29 15:06:11,0.0
-14040,-1352,-928,-9557,1694,-1862,2025-01-29 15:06:11,0.0
-15092,-2136,-132,-9234,-982,-1902,2025-01-29 15:06:11,0.0
-15228,-2632,76,-8894,-5397,-1932,2025-01-29 15:06:11,0.0
-16356,-3100,40,-8630,-7839,-1166,2025-01-29 15:06:11,0.0
-14876,-3780,-308,-8365,-7559,4,2025-01-29 15:06:11,0.0
-13784,-3048,-256,-8944,-6446,-298,2025-01-29 15:06:11,0.0
-12864,-2236,0,-9512,-6310,-718,2025-01-29 15:06:11,0.0
-13612,-1868,-544,-10896,-6299,-249,2025-01-29 15:06:11,0.0
-13472,-1016,96,-11420,-6021,740,2025-01-29 15:06:11,0.0
-13208,-1164,1732,-11256,-6876,1772,2025-01-29 15:06:11,0.0
-11440,-1780,1764,-11161,-8285,1717,2025-01-29 15:06:11,0.0
-11064,-1400,1444,-11580,-8573,1081,2025-01-29 15:06:11,0.0
-13240,-1056,1800,-12105,-7920,1155,2025-01-29 15:06:11,0.0
-14428,-488,1548,-11985,-7341,2099,2025-01-29 15:06:11,0.0
-15936,188,4240,-11364,-9661,2338,2025-01-29 15:06:11,0.0
-15504,-832,5992,-10694,-15195,1043,2025-01-29 15:06:11,0.0
-15308,-28,5080,-9368,-16917,-368,2025-01-29 15:06:11,0.0
-14432,76,3976,-8429,-16164,-71,2025-01-29 15:06:11,0.0
-15132,316,4112,-8385,-15581,712,2025-01-29 15:06:11,0.0
-15288,988,4148,-7955,-14278,1059,2025-01-29 15:06:11,0.0
-15676,1480,3900,-7477,-12356,1680,2025-01-29 15:06:11,0.0
-14008,1432,5604,-6865,-11261,2289,2025-01-29 15:06:11,0.0
-14272,-84,7152,-6008,-10785,2625,2025-01-29 15:06:11,0.0
-13516,376,8244,-5143,-11026,2065,2025-01-29 15:06:11,0.0
-14020,264,7932,-4876,-10935,1628,2025-01-29 15:06:11,0.0
-13304,876,7848,-5099,-11195,1085,2025-01-29 15:06:11,0.0
-12108,1260,8500,-5212,-10586,731,2025-01-29 15:06:11,0.0
-12564,1508,9536,-4885,-10478,1217,2025-01-29 15:06:12,0.0
-12728,-184,10560,-4450,-11221,1948,2025-01-29 15:06:12,0.0
-10276,904,10796,-4389,-11741,1498,2025-01-29 15:06:12,0.0
-10088,716,11324,-4163,-10669,1004,2025-01-29 15:06:12,0.0
-9156,296,12464,-3713,-10160,487,2025-01-29 15:06:12,0.0
-9356,256,12036,-3688,-10332,510,2025-01-29 15:06:12,0.0
-9116,-204,13364,-3331,-12294,1125,2025-01-29 15:06:12,0.0
-9800,80,13240,-3263,-12778,723,2025-01-29 15:06:12,0.0
-11812,1128,13084,-3438,-11349,102,2025-01-29 15:06:12,0.0
-12344,1520,14032,-3265,-10042,-235,2025-01-29 15:06:12,0.0
-11764,1192,13600,-2573,-10071,-65,2025-01-29 15:06:12,0.0
-12120,1068,13224,-2456,-10508,157,2025-01-29 15:06:12,0.0
-12056,620,14616,-1982,-11056,471,2025-01-29 15:06:12,0.0
-11128,1464,15240,-1425,-11847,875,2025-01-29 15:06:12,0.0
-10788,1468,16812,-789,-11855,1045,2025-01-29 15:06:12,0.0
-9752,892,17112,-7,-11608,991,2025-01-29 15:06:12,0.0
-8656,1260,15912,312,-10826,752,2025-01-29 15:06:12,0.0
-7656,1516,14456,115,-8474,596,2025-01-29 15:06:12,0.0
-7072,2020,14840,-91,-5706,384,2025-01-29 15:06:12,0.0
-8148,1688,15620,78,-3262,246,2025-01-29 15:06:12,0.0
-8584,1280,16032,213,-3111,359,2025-01-29 15:06:12,0.0
-9076,1212,16076,287,-4001,784,2025-01-29 15:06:12,0.0
-8040,1776,15432,289,-4573,932,2025-01-29 15:06:12,0.0
-7548,1912,15684,208,-4342,796,2025-01-29 15:06:12,0.0
-7008,1400,15184,342,-3630,770,2025-01-29 15:06:12,
-7184,748,15468,481,-2807,945,2025-01-29 15:06:12,0.0
-7284,528,15632,551,-2500,1035,2025-01-29 15:06:12,0.0
-7072,852,16044,523,-2955,1102,2025-01-29 15:06:12,0.0
-6936,1156,16140,608,-3043,1329,2025-01-29 15:06:12,0.0
-6772,1140,15108,716,-2240,1306,2025-01-29 15:06:12,0.0
-6468,1164,14720,558,-1388,1350,2025-01-29 15:06:12,0.0
-6628,836,15020,5,-969,1402,2025-01-29 15:06:12,0.0
-6624,764,15884,-244,-1079,1537,2025-01-29 15:06:12,0.0
-7072,968,16632,-365,-1433,1491,2025-01-29 15:06:12,0.0
-7384,912,16580,-246,-1881,1480,2025-01-29 15:06:12,0.0
-6816,772,16192,-277,-2228,1387,2025-01-29 15:06:12,0.0
-6172,708,15952,-104,-1590,1335,2025-01-29 15:06:12,0.0
-6332,1084,15784,-124,-52,1231,2025-01-29 15:06:12,0.0
-6748,1408,15856,-206,-177,1162,2025-01-29 15:06:12,0.0
-6592,1916,15852,-283,-1272,1205,2025-01-29 15:06:12,0.0
-6208,2056,15772,-399,-1929,1257,2025-01-29 15:06:12,0.0
-5792,2248,15712,-465,-1950,1326,2025-01-29 15:06:12,0.0
-5272,2352,15676,-576,-1302,1140,2025-01-29 15:06:12,0.0
-5176,2256,15408,-707,289,836,2025-01-29 15:06:12,0.0
-6088,2640,15940,-801,2511,1151,2025-01-29 15:06:12,0.0
-6072,2024,16980,-662,3254,1257,2025-01-29 15:06:12,0.0
-6540,1904,16608,-777,2302,1110,2025-01-29 15:06:12,0.0
-6336,1756,15672,-1026,1796,1013,2025-01-29 15:06:12,0.0
-6480,1924,15816,-1012,1638,827,2025-01-29 15:06:12,0.0
-6276,1864,15676,-819,1497,568,2025-01-29 15:06:12,0.0
-6288,1888,15200,-861,1352,446,2025-01-29 15:06:12,0.0
-6592,1748,15292,-1014,933,423,2025-01-29 15:06:12,0.0
-7340,692,15736,-1036,231,617,2025-01-29 15:06:12,0.0
-7128,308,16660,-663,-559,609,2025-01-29 15:06:12,0.0
-6460,-32,16640,-343,-1544,357,2025-01-29 15:06:12,0.0
-5996,524,15936,-18,-2115,12,2025-01-29 15:06:12,0.0
-5728,968,15504,111,-1975,-239,2025-01-29 15:06:12,0.0
-6016,1404,15728,246,-1392,-237,2025-01-29 15:06:12,0.0
-6368,1708,15800,517,-989,-118,2025-01-29 15:06:12,0.0
-6748,1872,15548,657,-518,135,2025-01-29 15:06:12,0.0
-6768,2140,15492,495,-646,216,2025-01-29 15:06:13,0.0
-6612,2144,15100,414,-757,94,2025-01-29 15:06:13,0.0
-6680,2144,15036,527,-498,-73,2025-01-29 15:06:13,0.0
-6464,1968,14404,586,-321,-147,2025-01-29 15:06:13,0.0
-6532,1984,14628,517,-86,36,2025-01-29 15:06:13,0.0
-6588,2148,14916,211,166,115,2025-01-29 15:06:13,0.0
-6880,2132,15468,-27,320,207,2025-01-29 15:06:13,0.0
-6944,1988,15792,-101,219,336,2025-01-29 15:06:13,0.0
-6696,1716,15688,67,-158,374,2025-01-29 15:06:13,0.0
-6428,1492,15704,108,-400,295,2025-01-29 15:06:13,0.0
-6148,1444,15520,33,-415,113,2025-01-29 15:06:13,0.0
-6004,1388,15528,-130,-354,-127,2025-01-29 15:06:13,0.0
-5980,1532,15588,-269,-254,-300,2025-01-29 15:06:13,0.0
-6156,1696,15860,-284,-124,-382,2025-01-29 15:06:13,0.0
-6220,2044,15808,-295,-54,-399,2025-01-29 15:06:13,0.0
-6220,1976,15924,-281,-28,-298,2025-01-29 15:06:13,0.0
-6168,2040,15884,-255,18,-251,2025-01-29 15:06:13,0.0
-6064,1812,15872,-195,86,-208,2025-01-29 15:06:13,0.0
-5984,1888,15824,-228,177,-226,2025-01-29 15:06:13,0.0
-6116,1776,15668,-266,254,-283,2025-01-29 15:06:13,0.0
-6172,1880,15600,-314,331,-308,2025-01-29 15:06:13,0.0
-6416,1836,15768,-269,359,-292,2025-01-29 15:06:13,0.0
-6312,1800,15924,-243,317,-290,2025-01-29 15:06:13,0.0
-6392,1748,15740,-197,251,-257,2025-01-29 15:06:13,0.0
-6296,1776,15676,-177,253,-243,2025-01-29 15:06:13,0.0
-6424,1740,15524,-192,403,-209,2025-01-29 15:06:13,0.0
-6484,1904,15736,-163,592,-110,2025-01-29 15:06:13,0.0
-6424,1844,15816,-66,593,-34,2025-01-29 15:06:13,0.0
-6192,1876,15348,-137,483,-84,2025-01-29 15:06:13,0.0
-6464,1844,15524,-267,386,-124,2025-01-29 15:06:13,0.0
-6412,1812,15516,-226,329,-158,2025-01-29 15:06:13,0.0
-6440,1824,15540,-185,285,-129,2025-01-29 15:06:13,0.0
-6444,1928,15472,-193,288,-156,2025-01-29 15:06:13,0.0
-6516,1992,15468,-236,243,-166,2025-01-29 15:06:13,0.0
-6516,1860,15648,-229,139,-160,2025-01-29 15:06:13,0.0
-6444,1840,15748,-206,41,-215,2025-01-29 15:06:13,0.0
-6296,1856,15776,-257,120,-249,2025-01-29 15:06:13,0.0
-6456,1836,15652,-225,141,-323,2025-01-29 15:06:13,0.0
-6504,1816,15732,-183,33,-319,2025-01-29 15:06:13,0.0
-6436,1780,15660,-183,11,-291,2025-01-29 15:06:13,0.0
-6388,1592,15668,-267,19,-205,2025-01-29 15:06:13,0.0
-6436,1644,15768,-225,55,-239,2025-01-29 15:06:13,0.0
-6456,1780,15580,-185,26,-234,2025-01-29 15:06:13,0.0
-6288,1640,15780,-164,-1,-224,2025-01-29 15:06:13,0.0
-6288,1804,15760,-154,-16,-217,2025-01-29 15:06:13,0.0
-6236,1692,15776,-143,-42,-239,2025-01-29 15:06:13,0.0
-6132,1608,15700,-210,-20,-243,2025-01-29 15:06:13,0.0
-6224,1524,15816,-187,22,-262,2025-01-29 15:06:13,0.0
-6372,1660,15944,-153,69,-303,2025-01-29 15:06:14,0.0
-6368,1756,15772,-169,118,-269,2025-01-29 15:06:14,0.0
-6384,1720,15732,-160,157,-295,2025-01-29 15:06:14,0.0
-6420,1764,15696,-184,101,-285,2025-01-29 15:06:14,0.0
-6376,1836,15768,-170,83,-242,2025-01-29 15:06:14,0.0
-6292,1672,15720,-188,112,-243,2025-01-29 15:06:14,0.0
-6316,1684,15812,-170,92,-260,2025-01-29 15:06:14,0.0
-6364,1744,15704,-182,163,-232,2025-01-29 15:06:14,0.0
-6360,1716,15828,-168,215,-228,2025-01-29 15:06:14,0.0
-6364,1692,15816,-172,233,-186,2025-01-29 15:06:14,0.0
-6328,1768,15804,-186,210,-178,2025-01-29 15:06:14,0.0
-6348,1680,15980,-151,209,-150,2025-01-29 15:06:14,0.0
-6340,1672,15804,-149,184,-223,2025-01-29 15:06:14,0.0
-6360,1636,15704,-132,106,-223,2025-01-29 15:06:14,0.0
-6444,1740,15660,-132,-19,-185,2025-01-29 15:06:14,0.0
-6376,1680,15764,-175,-147,-188,2025-01-29 15:06:14,0.0
-6236,1792,15664,-156,-133,-198,2025-01-29 15:06:14,
-6240,1644,15788,-170,-63,-185,2025-01-29 15:06:14,0.0
-6256,1696,15904,-153,3,-224,2025-01-29 15:06:14,0.0
-6252,1680,15716,-185,51,-208,2025-01-29 15:06:14,0.0
-6408,1700,15704,-190,95,-203,2025-01-29 15:06:14,0.0
-6324,1700,15600,-215,87,-206,2025-01-29 15:06:14,0.0
-6336,1676,15752,-204,88,-185,2025-01-29 15:06:14,0.0
-6320,1608,15632,-186,2,-190,2025-01-29 15:06:14,0.0
-6292,1700,15728,-171,-61,-179,2025-01-29 15:06:14,0.0
-6212,1704,15712,-193,-4,-192,2025-01-29 15:06:14,0.0
-6212,1652,15912,-177,32,-183,2025-01-29 15:06:14,0.0
-6320,1632,15780,-173,103,-183,2025-01-29 15:06:14,0.0
-6276,1664,15632,-183,179,-193,2025-01-29 15:06:14,0.0
-6248,1748,15976,-187,152,-220,2025-01-29 15:06:14,0.0
-6332,1736,15808,-223,110,-206,2025-01-29 15:06:14,0.0
-6184,1688,15848,-176,144,-208,2025-01-29 15:06:14,0.0
-6240,1700,15816,-155,106,-204,2025-01-29 15:06:14,0.0
-6148,1784,15740,-173,142,-190,2025-01-29 15:06:14,0.0
-6236,1580,15820,-148,177,-188,2025-01-29 15:06:14,0.0
-6236,1676,15976,-115,231,-191,2025-01-29 15:06:14,0.0
-6248,1596,15948,-130,280,-148,2025-01-29 15:06:14,0.0
-6300,1616,15788,-138,281,-151,2025-01-29 15:06:14,0.0
-6288,1740,15636,-107,315,-166,2025-01-29 15:06:14,0.0
-6240,1776,15792,-147,273,-182,2025-01-29 15:06:14,0.0
-6296,1724,15708,-151,228,-159,2025-01-29 15:06:14,0.0
-6332,1608,15648,-175,144,-157,2025-01-29 15:06:14,0.0
-6240,1664,15856,-135,156,-143,2025-01-29 15:06:14,0.0
-6224,1720,15900,-146,200,-121,2025-01-29 15:06:14,0.0
-6388,1644,15788,-129,216,-139,2025-01-29 15:06:14,0.0
-6200,1648,15764,-143,232,-186,2025-01-29 15:06:14,0.0
-6116,1612,15688,-159,233,-230,2025-01-29 15:06:14,0.0
-6332,1796,15800,-209,299,-258,2025-01-29 15:06:14,0.0
-6472,1708,15892,-123,217,-259,2025-01-29 15:06:14,0.0
-6472,1676,15728,-79,110,-211,2025-01-29 15:06:14,0.0
-6256,1676,15716,-115,-38,-179,2025-01-29 15:06:14,0.0
-6160,1712,15740,-143,-101,-181,2025-01-29 15:06:14,0.0
-6180,1576,15644,-134,-19,-175,2025-01-29 15:06:14,0.0
-6172,1736,15880,-156,93,-228,2025-01-29 15:06:14,0.0
-6192,1720,15780,-197,154,-254,2025-01-29 15:06:14,0.0
-6308,1668,15780,-191,184,-226,2025-01-29 15:06:14,0.0
-6308,1648,15816,-164,183,-214,2025-01-29 15:06:14,0.0
-6380,1728,15604,-165,156,-160,2025-01-29 15:06:14,0.0
-6268,1680,15768,-160,76,-172,2025-01-29 15:06:14,0.0
-6240,1620,15724,-180,51,-203,2025-01-29 15:06:14,0.0
-6264,1636,15864,-163,44,-185,2025-01-29 15:06:15,0.0
-6308,1660,15840,-195,96,-207,2025-01-29 15:06:15,0.0
-6316,1720,15916,-173,148,-186,2025-01-29 15:06:15,0.0
-6252,1684,15812,-170,168,-199,2025-01-29 15:06:15,0.0
-6320,1672,15752,-170,145,-195,2025-01-29 15:06:15,0.0
-6284,1716,15784,-189,138,-184,2025-01-29 15:06:15,0.0
-6156,1620,15644,-191,87,-164,2025-01-29 15:06:15,0.0
-6232,1556,15752,-177,90,-174,2025-01-29 15:06:15,0.0
-6136,1664,15884,-170,70,-186,2025-01-29 15:06:15,0.0
-6200,1716,15872,-179,98,-170,2025-01-29 15:06:15,0.0
-6204,1592,15732,-177,132,-185,2025-01-29 15:06:15,0.0
-6200,1612,15836,-148,156,-188,2025-01-29 15:06:15,0.0
-6208,1664,15872,-162,199,-197,2025-01-29 15:06:15,0.0
-6208,1612,15676,-172,161,-194,2025-01-29 15:06:15,0.0
-6396,1616,15720,-134,143,-191,2025-01-29 15:06:15,0.0
-6224,1612,15780,-132,132,-191,2025-01-29 15:06:15,0.0
-6296,1680,15840,-171,140,-201,2025-01-29 15:06:15,0.0
-6164,1580,15632,-169,81,-188,2025-01-29 15:06:15,0.0
-6296,1712,15744,-137,42,-201,2025-01-29 15:06:15,0.0
-6296,1604,15860,-127,66,-194,2025-01-29 15:06:15,0.0
-6244,1600,15896,-160,115,-185,2025-01-29 15:06:15,0.0
-6236,1592,15784,-156,227,-201,2025-01-29 15:06:15,0.0
-6268,1636,15860,-152,277,-181,2025-01-29 15:06:15,0.0
-6276,1668,15820,-120,252,-165,2025-01-29 15:06:15,0.0
-6244,1524,15760,-168,233,-172,2025-01-29 15:06:15,0.0
-6188,1568,15724,-175,262,-196,2025-01-29 15:06:15,0.0
-6364,1704,15796,-171,210,-225,2025-01-29 15:06:15,0.0
-6388,1624,15684,-117,68,-198,2025-01-29 15:06:15,0.0
-6332,1676,15760,-132,-68,-134,2025-01-29 15:06:15,0.0
-6228,1688,15776,-123,-127,-157,2025-01-29 15:06:15,0.0
-6040,1660,15552,-134,-9,-146,2025-01-29 15:06:15,0.0
-6192,1564,15780,-115,77,-169,2025-01-29 15:06:15,0.0
-6208,1588,16036,-140,98,-180,2025-01-29 15:06:15,0.0
-6212,1620,15764,-153,145,-161,2025-01-29 15:06:15,0.0
-6200,1660,15864,-150,171,-193,2025-01-29 15:06:15,0.0
-6272,1672,15844,-134,137,-167,2025-01-29 15:06:15,0.0
-6328,1604,15788,-107,100,-183,2025-01-29 15:06:15,0.0
-6244,1588,15736,-165,43,-171,2025-01-29 15:06:15,0.0
-6172,1628,15904,-148,36,-185,2025-01-29 15:06:15,0.0
-6208,1636,15832,-159,70,-164,2025-01-29 15:06:15,0.0
-6184,1740,15924,-162,91,-147,2025-01-29 15:06:15,0.0
-6156,1780,15680,-124,159,-186,2025-01-29 15:06:15,0.0
-6156,1704,15876,-129,155,-173,2025-01-29 15:06:15,0.0
-6192,1624,15872,-166,164,-167,2025-01-29 15:06:15,0.0
-6180,1688,15724,-127,134,-175,2025-01-29 15:06:15,0.0
-6112,1700,15804,-160,113,-187,2025-01-29 15:06:15,0.0
-6208,1596,15796,-167,115,-166,2025-01-29 15:06:15,0.0
-6132,1604,15804,-136,107,-162,2025-01-29 15:06:15,0.0
-6200,1672,15736,-140,152,-190,2025-01-29 15:06:15,0.0
-6148,1636,15720,-150,165,-164,2025-01-29 15:06:15,0.0
-6220,1540,15856,-170,174,-160,2025-01-29 15:06:15,0.0
-6232,1676,15980,-140,225,-161,2025-01-29 15:06:15,0.0
-6200,1772,15676,-172,167,-201,2025-01-29 15:06:15,0.0
-6280,1672,15776,-193,183,-188,2025-01-29 15:06:15,0.0
-6280,1736,15864,-189,174,-185,2025-01-29 15:06:15,0.0
-6168,1668,15592,-180,198,-205,2025-01-29 15:06:15,0.0
-6208,1592,15760,-187,251,-195,2025-01-29 15:06:15,
-6200,1540,15892,-144,245,-179,2025-01-29 15:06:15,0.0
-6172,1536,15676,-294,177,-200,2025-01-29 15:06:15,0.0
-6308,1708,15212,-349,482,-232,2025-01-29 15:06:15,0.0
-6304,1440,15820,-284,893,-152,2025-01-29 15:06:15,0.0
-6712,1492,15584,-305,808,-156,2025-01-29 15:06:15,0.0
-6924,1864,14996,-411,154,-226,2025-01-29 15:06:16,0.0
-6644,1840,15232,-598,-659,-330,2025-01-29 15:06:16,0.0
-6272,1900,15308,-726,-719,-383,2025-01-29 15:06:16,0.0
-5664,1856,15924,-529,-151,-390,2025-01-29 15:06:16,0.0
-5688,2176,15680,-473,715,-296,2025-01-29 15:06:16,0.0
-5960,1692,15548,-342,1780,-174,2025-01-29 15:06:16,0.0
-6272,1208,16020,-181,2161,-174,2025-01-29 15:06:16,0.0
-6364,968,15844,-1,2050,-101,2025-01-29 15:06:16,0.0
-6044,1096,15604,98,1590,-99,2025-01-29 15:06:16,0.0
-5808,1460,15556,76,1334,-263,2025-01-29 15:06:16,0.0
-5620,1556,15716,146,1565,-392,2025-01-29 15:06:16,0.0
-5640,1420,15684,202,1670,-441,2025-01-29 15:06:16,0.0
-5852,1192,15632,180,1763,-433,2025-01-29 15:06:16,0.0
-6268,1180,15588,121,1685,-438,2025-01-29 15:06:16,0.0
-6392,1388,15548,205,1600,-405,2025-01-29 15:06:16,0.0
-6660,1548,15364,326,1498,-444,2025-01-29 15:06:16,0.0
-7176,1668,15684,400,1231,-332,2025-01-29 15:06:16,0.0
-7368,1600,16188,372,679,-238,2025-01-29 15:06:16,0.0
-7316,1692,15796,112,-175,-225,2025-01-29 15:06:16,0.0
-7288,1700,15640,-27,-634,-301,2025-01-29 15:06:16,0.0
-7460,1624,15448,-85,-1020,-341,2025-01-29 15:06:16,0.0
-7476,1484,14940,-89,-1495,-317,2025-01-29 15:06:16,0.0
-7488,1444,14868,-68,-1857,-323,2025-01-29 15:06:16,0.0
-7420,1592,15088,-60,-2119,-217,2025-01-29 15:06:16,0.0
-6336,1492,15916,266,-2628,-120,2025-01-29 15:06:16,0.0
-5588,1412,16184,654,-2260,12,2025-01-29 15:06:16,0.0
-4968,1624,16292,816,-1795,-44,2025-01-29 15:06:16,0.0
-4640,1992,16252,747,-905,-128,2025-01-29 15:06:16,0.0
-4608,2388,16380,529,100,-316,2025-01-29 15:06:16,0.0
-4964,2500,16668,491,846,-434,2025-01-29 15:06:16,0.0
-5076,2328,16544,548,1289,-622,2025-01-29 15:06:16,0.0
-5340,2260,16244,627,1425,-846,2025-01-29 15:06:16,0.0
-5512,2128,15636,593,1385,-946,2025-01-29 15:06:16,0.0
-5672,1832,15840,396,1312,-1035,2025-01-29 15:06:16,0.0
-6080,1588,15260,340,1630,-1059,2025-01-29 15:06:16,0.0
-6320,1916,15404,373,2530,-736,2025-01-29 15:06:16,0.0
-6548,2108,15380,537,3757,-643,2025-01-29 15:06:16,0.0
-5936,1880,14940,753,4690,-864,2025-01-29 15:06:16,0.0
-6196,1768,15288,549,4486,-1154,2025-01-29 15:06:16,0.0
-4208,1544,14272,394,2792,-1501,2025-01-29 15:06:16,0.0
-6900,964,15236,279,1932,-2061,2025-01-29 15:06:16,0.0
-8056,772,15680,519,1500,-2247,2025-01-29 15:06:16,0.0
-7684,384,15852,780,1221,-2108,2025-01-29 15:06:16,0.0
-7716,748,16024,962,1531,-1986,2025-01-29 15:06:16,0.0
-8320,1684,15540,1018,2397,-1632,2025-01-29 15:06:16,0.0
-7860,1992,15660,954,2822,-1459,2025-01-29 15:06:16,0.0
-7336,1680,15448,490,2963,-1355,2025-01-29 15:06:16,0.0
-7896,1600,15600,-302,3628,-1202,2025-01-29 15:06:16,0.0
-7304,1332,17408,-830,4135,-1241,2025-01-29 15:06:16,0.0
-7572,1308,19168,-642,3746,-1194,2025-01-29 15:06:16,0.0
-7116,1396,19096,-96,3358,-1160,2025-01-29 15:06:16,0.0
-7552,2260,18316,168,3063,-1033,2025-01-29 15:06:16,0.0
-7956,3000,18120,183,2616,-691,2025-01-29 15:06:16,0.0
-8072,3172,17564,118,2374,-271,2025-01-29 15:06:16,0.0
-5084,2728,15824,259,2495,176,2025-01-29 15:06:16,0.0
-8636,1932,16940,401,3692,84,2025-01-29 15:06:16,0.0
-8880,1732,16316,437,5111,-42,2025-01-29 15:06:16,0.0
-9552,2188,15340,330,5537,-325,2025-01-29 15:06:16,0.0
-9804,2900,14216,-131,5668,-447,2025-01-29 15:06:16,0.0
-10556,3024,14796,-239,5731,-452,2025-01-29 15:06:16,0.0
-10776,2536,15656,-34,5005,-264,2025-01-29 15:06:17,0.0
-10596,2484,15740,447,3859,182,2025-01-29 15:06:17,0.0
-9456,2356,14536,929,3546,322,2025-01-29 15:06:17,0.0
-9136,1520,13864,1133,4095,128,2025-01-29 15:06:17,0.0
-8408,1184,12400,1020,4969,-236,2025-01-29 15:06:17,0.0
-8460,1320,12192,963,5608,-536,2025-01-29 15:06:17,0.0
-8880,1688,12288,941,5886,-595,2025-01-29 15:06:17,0.0
-9376,1748,12636,632,6000,-679,2025-01-29 15:06:17,0.0
-9988,1952,13124,477,6078,-637,2025-01-29 15:06:17,0.0
-10372,1872,12876,571,5752,-521,2025-01-29 15:06:17,0.0
-10136,1600,12332,459,5501,-389,2025-01-29 15:06:17,0.0
-10136,1400,12024,425,5831,-393,2025-01-29 15:06:17,0.0
-10260,1636,11936,338,6263,-466,2025-01-29 15:06:17,0.0
-10596,1608,11844,184,6625,-507,2025-01-29 15:06:17,0.0
-10336,1824,11640,21,7005,-643,2025-01-29 15:06:17,0.0
-10848,1728,10976,60,7315,-704,2025-01-29 15:06:17,0.0
-11188,1556,11024,174,7593,-776,2025-01-29 15:06:17,0.0
-11412,1480,10712,99,7748,-791,2025-01-29 15:06:17,0.0
-11344,1336,10288,34,7846,-791,2025-01-29 15:06:17,0.0
-11048,1128,10040,-92,8011,-785,2025-01-29 15:06:17,0.0
-10716,964,9636,-364,8575,-1011,2025-01-29 15:06:17,0.0
-10744,1052,9084,-817,10135,-1249,2025-01-29 15:06:17,0.0
-11056,1424,9596,-912,10353,-1485,2025-01-29 15:06:17,0.0
-11580,1552,8776,-1009,10073,-1576,2025-01-29 15:06:17,0.0
-12104,1648,8656,-1270,10017,-1531,2025-01-29 15:06:17,0.0
-12228,1524,9644,-971,9330,-1442,2025-01-29 15:06:17,0.0
-12632,1320,8820,-1016,8766,-1312,2025-01-29 15:06:17,0.0
-12572,1596,8612,-1070,8092,-1172,2025-01-29 15:06:17,0.0
-12824,1552,8248,-1112,7579,-1062,2025-01-29 15:06:17,0.0
-12676,1576,7548,-1139,7766,-991,2025-01-29 15:06:17,0.0
-12620,1028,7128,-935,8386,-946,2025-01-29 15:06:17,0.0
-13328,756,6468,-563,9066,-781,2025-01-29 15:06:17,0.0
-13148,844,6144,-297,9240,-700,2025-01-29 15:06:17,0.0
-13208,964,5688,-145,8935,-940,2025-01-29 15:06:17,0.0
-13436,1252,5472,-23,8646,-1092,2025-01-29 15:06:17,
-13472,1436,5484,41,8497,-1293,2025-01-29 15:06:17,0.0
-13392,1748,5004,-194,8373,-964,2025-01-29 15:06:17,0.0
-13332,1876,4960,-416,8198,-815,2025-01-29 15:06:17,0.0
-12788,1840,4912,-300,8096,-699,2025-01-29 15:06:17,0.0
-12740,1840,3688,-472,7626,-680,2025-01-29 15:06:17,0.0
-12868,1640,3924,-546,7042,-685,2025-01-29 15:06:17,0.0
-12712,1396,3900,-672,6689,-673,2025-01-29 15:06:17,0.0
-12764,1012,3876,-884,6262,-671,2025-01-29 15:06:17,0.0
-12548,968,3276,-1094,5788,-718,2025-01-29 15:06:17,0.0
-12600,1084,3004,-1344,5443,-740,2025-01-29 15:06:17,0.0
-12608,1488,2620,-1633,5468,-697,2025-01-29 15:06:17,0.0
-12376,1704,2544,-1736,5776,-732,2025-01-29 15:06:17,0.0
-12528,1848,3132,-1655,5775,-587,2025-01-29 15:06:17,0.0
-12616,1552,3084,-1575,6105,-561,2025-01-29 15:06:17,0.0
-12828,1392,2960,-1587,6515,-488,2025-01-29 15:06:17,0.0
-13044,1632,2604,-1707,6703,-386,2025-01-29 15:06:17,0.0
-12768,1752,2124,-1714,5690,-311,2025-01-29 15:06:17,0.0
-12572,1096,1628,-1670,3846,-158,2025-01-29 15:06:17,0.0
-12124,144,1864,-1305,2020,-324,2025-01-29 15:06:17,0.0
-12316,-812,2144,-612,1014,-530,2025-01-29 15:06:17,0.0
-12652,-708,2228,110,1599,-511,2025-01-29 15:06:17,0.0
-13248,-316,2056,997,2237,-243,2025-01-29 15:06:17,0.0
-12980,484,1344,1734,2499,179,2025-01-29 15:06:17,0.0
-12564,1012,1032,2186,1884,328,2025-01-29 15:06:18,0.0
-12448,1296,1072,2193,1099,170,2025-01-29 15:06:18,0.0
-12612,1532,1464,2229,833,-132,2025-01-29 15:06:18,0.0
-12980,1276,1648,2302,1340,-374,2025-01-29 15:06:18,0.0
-12880,996,1868,2646,1449,-675,2025-01-29 15:06:18,0.0
-12840,416,1708,3171,1226,-997,2025-01-29 15:06:18,0.0
-13052,284,1624,3705,-118,-1377,2025-01-29 15:06:18,0.0
-12916,1096,1040,4066,-1541,-1408,2025-01-29 15:06:18,0.0
-12844,1604,648,4335,-2429,-1294,2025-01-29 15:06:18,0.0
-12268,2272,-100,4489,-2225,-1516,2025-01-29 15:06:18,0.0
-11468,2892,-668,4350,-1552,-2179,2025-01-29 15:06:18,0.0
-11140,2892,-1520,3710,-789,-2955,2025-01-29 15:06:18,0.0
-11752,2404,-2316,2935,-161,-3360,2025-01-29 15:06:18,0.0
-12712,2232,-2816,2279,1428,-3282,2025-01-29 15:06:18,0.0
-13880,2336,-2812,1940,3958,-2742,2025-01-29 15:06:18,0.0
-14604,2664,-1876,1742,6332,-2102,2025-01-29 15:06:18,0.0
-14684,2108,-424,1437,8059,-1769,2025-01-29 15:06:18,0.0
-13960,1132,1124,1294,7567,-2397,2025-01-29 15:06:18,0.0
-14280,-84,1240,1220,5354,-3152,2025-01-29 15:06:18,0.0
-14656,-1420,420,1119,2710,-3809,2025-01-29 15:06:18,0.0
-18532,1092,-1164,1087,-1491,-4581,2025-01-29 15:06:18,0.0
-13688,-2464,-1512,1679,-917,-3776,2025-01-29 15:06:18,0.0
-14088,-2524,-1132,1976,-2529,-3574,2025-01-29 15:06:18,0.0
-13156,-1980,-136,1745,-3409,-3063,2025-01-29 15:06:18,0.0
-12152,-1672,976,1325,-2794,-2670,2025-01-29 15:06:18,0.0
-12216,-1204,948,691,-339,-2274,2025-01-29 15:06:18,0.0
-12224,-1088,1080,43,1742,-1879,2025-01-29 15:06:18,0.0
-12584,-1044,764,-623,3023,-1656,2025-01-29 15:06:18,0.0
-13436,-1648,480,-1182,3823,-1626,2025-01-29 15:06:18,0.0
-13772,-2404,1000,-1495,4195,-1879,2025-01-29 15:06:18,0.0
-14424,-3384,1048,-1416,4252,-2073,2025-01-29 15:06:18,0.0
-14864,-4064,1596,-1081,3340,-2222,2025-01-29 15:06:18,0.0
-14828,-4620,1784,-454,1471,-2264,2025-01-29 15:06:18,0.0
-14588,-4444,1652,458,-1507,-1962,2025-01-29 15:06:18,0.0
-13524,-3832,1328,840,-3071,-1643,2025-01-29 15:06:18,0.0
-12768,-2872,1008,904,-3491,-1471,2025-01-29 15:06:18,0.0
-12252,-1844,900,808,-3126,-1073,2025-01-29 15:06:18,0.0
-12224,-1080,816,408,-1566,-616,2025-01-29 15:06:18,0.0
-12380,-1128,888,-316,640,-22,2025-01-29 15:06:18,0.0
-12696,-1600,1224,-812,2381,431,2025-01-29 15:06:18,0.0
-13008,-2432,1448,-967,2545,698,2025-01-29 15:06:18,0.0
-13340,-2880,1128,-978,2014,1007,2025-01-29 15:06:18,0.0
-13364,-2776,940,-684,1392,1172,2025-01-29 15:06:18,0.0
-13296,-2788,980,-799,1856,1054,2025-01-29 15:06:18,0.0
-13600,-2628,1072,-1338,2928,761,2025-01-29 15:06:18,0.0
-14276,-1956,928,-1946,3466,542,2025-01-29 15:06:18,0.0
-14536,-1300,1024,-2546,3354,254,2025-01-29 15:06:18,0.0
-14944,-1536,856,-3163,2837,96,2025-01-29 15:06:18,0.0
-15496,-1876,1264,-3612,1850,217,2025-01-29 15:06:18,0.0
-15456,-1268,1608,-4013,568,500,2025-01-29 15:06:18,0.0
-15308,-88,1352,-4885,13,733,2025-01-29 15:06:18,0.0
-15012,192,1100,-5837,190,821,2025-01-29 15:06:18,0.0
-15096,-432,28,-6681,686,494,2025-01-29 15:06:18,0.0
-15416,-1780,-260,-7362,1099,223,2025-01-29 15:06:18,0.0
-15676,-4036,1016,-7315,1702,-376,2025-01-29 15:06:18,0.0
-16340,-6140,2096,-6015,1940,-560,2025-01-29 15:06:18,0.0
-16952,-6972,2936,-3758,1007,46,2025-01-29 15:06:18,0.0
-17048,-6504,2380,-1735,-1123,1001,2025-01-29 15:06:18,0.0
-16380,-5800,1280,-418,-3406,1610,2025-01-29 15:06:18,0.0
-15492,-4764,1128,236,-5027,1889,2025-01-29 15:06:18,0.0
-14876,-3360,56,845,-5005,2803,2025-01-29 15:06:18,0.0
-14048,-1976,-1496,1055,-4025,3938,2025-01-29 15:06:19,0.0
-12720,-408,-2672,1083,-2752,4774,2025-01-29 15:06:19,0.0
-11776,904,-3644,844,-1249,4720,2025-01-29 15:06:19,0.0
-11084,1624,-4368,364,672,3871,2025-01-29 15:06:19,0.0
-10860,2388,-4044,-480,2552,2356,2025-01-29 15:06:19,0.0
-11724,2740,-2248,-905,3535,1175,2025-01-29 15:06:19,0.0
-13400,2564,-1380,-842,4137,1056,2025-01-29 15:06:19,0.0
-15096,1704,-1424,-589,4546,1859,2025-01-29 15:06:19,0.0
-15728,932,-1684,-569,4143,2650,2025-01-29 15:06:19,0.0
-16208,576,-752,-422,2430,3042,2025-01-29 15:06:19,0.0
-15120,576,-1292,1,-395,3082,2025-01-29 15:06:19,0.0
-13940,632,-1300,322,-3231,2801,2025-01-29 15:06:19,0.0
-13844,796,-1152,427,-5132,2575,2025-01-29 15:06:19,0.0
-12908,840,-956,600,-5608,2625,2025-01-29 15:06:19,0.0
-12064,960,-744,878,-5333,2491,2025-01-29 15:06:19,0.0
-11236,1204,-592,1066,-4838,2379,2025-01-29 15:06:19,
-10748,1672,-964,1308,-3825,2056,2025-01-29 15:06:19,0.0
-10708,2208,-1176,1368,-2121,1847,2025-01-29 15:06:19,0.0
-11160,2916,-876,1458,-257,1803,2025-01-29 15:06:19,0.0
-11680,3060,-944,1527,1530,1749,2025-01-29 15:06:19,0.0
-12268,2576,-784,1499,3081,1665,2025-01-29 15:06:19,0.0
-13188,1968,-316,1530,3598,1510,2025-01-29 15:06:19,0.0
-13268,1288,-164,1501,3069,1151,2025-01-29 15:06:19,0.0
-13388,968,196,1499,1546,763,2025-01-29 15:06:19,0.0
-13320,1140,532,1535,-875,256,2025-01-29 15:06:19,0.0
-12768,1476,772,1505,-2205,-178,2025-01-29 15:06:19,0.0
-12188,1860,900,1546,-2511,-686,2025-01-29 15:06:19,0.0
-11916,2128,700,1492,-2264,-848,2025-01-29 15:06:19,0.0
-11708,1804,876,1468,-1583,-1034,2025-01-29 15:06:19,0.0
-11672,1572,1040,1568,-499,-1343,2025-01-29 15:06:19,0.0
-12032,1400,1128,1780,761,-1696,2025-01-29 15:06:19,0.0
-12712,1492,892,2042,1885,-1972,2025-01-29 15:06:19,0.0
-13536,1612,888,2194,2291,-2090,2025-01-29 15:06:19,0.0
-14080,1768,980,2259,1786,-2028,2025-01-29 15:06:19,0.0
-14084,1832,1204,2442,534,-1818,2025-01-29 15:06:19,0.0
-13836,2000,1160,2798,-576,-1622,2025-01-29 15:06:19,0.0
-13596,1916,816,3023,-447,-1604,2025-01-29 15:06:19,0.0
-14056,1564,1256,3215,298,-1555,2025-01-29 15:06:19,0.0
-14528,1212,1992,3532,732,-1328,2025-01-29 15:06:19,0.0
-15148,600,2184,3852,655,-1129,2025-01-29 15:06:19,0.0
-15340,-104,2348,4231,300,-887,2025-01-29 15:06:19,0.0
-15080,456,1988,4848,-4,-592,2025-01-29 15:06:19,0.0
-14896,1084,1652,5302,-342,-236,2025-01-29 15:06:19,0.0
-14472,1276,1292,5628,-995,173,2025-01-29 15:06:19,0.0
-14620,-120,1244,6827,1668,1257,2025-01-29 15:06:19,0.0
-15020,-140,148,6840,4404,1279,2025-01-29 15:06:19,0.0
-15844,460,-540,6618,6710,874,2025-01-29 15:06:19,0.0
-17292,2396,-1272,6272,7974,1058,2025-01-29 15:06:19,0.0
-17764,3944,-1992,5630,7154,1793,2025-01-29 15:06:19,0.0
-17568,4808,-2860,4329,4863,2336,2025-01-29 15:06:19,0.0
-16880,4844,-3828,2385,1963,2314,2025-01-29 15:06:19,0.0
-15668,3748,-3392,797,-1202,1335,2025-01-29 15:06:19,0.0
-13860,820,-3152,239,-4788,-294,2025-01-29 15:06:19,0.0
-12828,-600,-1728,380,-7893,-1257,2025-01-29 15:06:19,0.0
-11172,-816,-528,1538,-8448,-1715,2025-01-29 15:06:19,0.0
-10064,-1492,-1380,2735,-7231,-1965,2025-01-29 15:06:19,0.0
-10072,-2128,-2360,3701,-5192,-1775,2025-01-29 15:06:19,0.0
-10476,-2404,-3208,4320,-2132,-952,2025-01-29 15:06:19,0.0
-11488,-1652,-2696,4718,1859,-237,2025-01-29 15:06:19,0.0
-11740,-1092,-3068,4936,5555,-118,2025-01-29 15:06:19,0.0
-13512,-580,-2456,4877,8324,-306,2025-01-29 15:06:20,0.0
-14728,140,-1688,4850,8823,-859,2025-01-29 15:06:20,0.0
-15492,1264,-1328,4343,6823,-1459,2025-01-29 15:06:20,0.0
-15668,2180,-1052,3177,2237,-2195,2025-01-29 15:06:20,0.0
-15404,1960,-2404,1947,-2962,-2569,2025-01-29 15:06:20,0.0
-14396,1564,-3984,550,-8266,-2544,2025-01-29 15:06:20,0.0
-13636,1468,-3404,-739,-11120,-2393,2025-01-29 15:06:20,0.0
-13060,1212,-2980,-1612,-11394,-2090,2025-01-29 15:06:20,0.0
-11380,584,-3108,-2371,-9276,-1534,2025-01-29 15:06:20,0.0
-9580,-200,-1972,-3478,-4,-1455,2025-01-29 15:06:20,0.0
-10884,-848,-1108,-4036,4457,-2172,2025-01-29 15:06:20,0.0
-12364,-1404,-796,-4348,6591,-2623,2025-01-29 15:06:20,0.0
-14404,-1512,-176,-4356,6646,-2613,2025-01-29 15:06:20,0.0
-15456,-1480,256,-4436,5033,-2554,2025-01-29 15:06:20,0.0
-15624,-1076,-304,-4846,1192,-2310,2025-01-29 15:06:20,0.0
-15160,-636,-276,-5269,-2744,-1897,2025-01-29 15:06:20,0.0
-15132,-320,716,-5574,-4692,-1389,2025-01-29 15:06:20,0.0
-13448,100,-508,-5888,-5443,-807,2025-01-29 15:06:20,0.0
-12312,500,-1208,-5979,-4841,-192,2025-01-29 15:06:20,0.0
-13308,780,-212,-7795,3210,735,2025-01-29 15:06:20,0.0
-14084,520,464,-8212,2428,879,2025-01-29 15:06:20,0.0
-14340,412,60,-8693,950,1007,2025-01-29 15:06:20,0.0
-14060,232,-340,-9115,-113,1096,2025-01-29 15:06:20,0.0
-13612,92,-620,-9473,-213,1073,2025-01-29 15:06:20,0.0
-13080,8,-1152,-9975,345,942,2025-01-29 15:06:20,0.0
-13304,44,-1064,-10567,1223,655,2025-01-29 15:06:20,0.0
-13492,-180,-1260,-11033,1940,467,2025-01-29 15:06:20,0.0
-13764,-368,-1432,-11477,2269,284,2025-01-29 15:06:20,0.0
-13960,248,-1536,-11943,2271,187,2025-01-29 15:06:20,0.0
-13808,972,-1804,-12589,2194,115,2025-01-29 15:06:20,0.0
-13872,1368,-1500,-13434,2308,-219,2025-01-29 15:06:20,0.0
-14076,976,-1504,-14334,2586,-650,2025-01-29 15:06:20,0.0
-14540,496,-960,-15172,2963,-1211,2025-01-29 15:06:20,0.0
-15256,-500,-712,-16072,3243,-1885,2025-01-29 15:06:20,0.0
-14932,-1668,-1200,-16882,3244,-2717,2025-01-29 15:06:20,0.0
-15640,-2204,-1540,-17696,2628,-3459,2025-01-29 15:06:20,0.0
-15768,-2432,-2400,-17992,1426,-3733,2025-01-29 15:06:20,0.0
-16032,-2204,-2628,-18120,-79,-4025,2025-01-29 15:06:20,0.0
-16040,-1392,-2792,-18406,-1850,-4187,2025-01-29 15:06:20,0.0
-15656,428,-2104,-19044,-4084,-4067,2025-01-29 15:06:20,0.0
-15800,1800,-1352,-20049,-6482,-3153,2025-01-29 15:06:20,0.0
-16260,2468,-696,-20818,-8607,-1605,2025-01-29 15:06:20,0.0
-15384,2316,-2012,-21329,-10350,383,2025-01-29 15:06:20,0.0
-13456,568,-3748,-21734,-9815,2266,2025-01-29 15:06:20,0.0
-10172,-1360,-4616,-21932,-6280,2478,2025-01-29 15:06:20,0.0
-9260,-2324,-3588,-21641,1179,1049,2025-01-29 15:06:20,0.0
-10200,-4076,-2296,-20664,8546,-215,2025-01-29 15:06:20,0.0
-12000,-4988,-536,-18542,13954,-1503,2025-01-29 15:06:20,0.0
-14072,-4428,60,-16035,15503,-2283,2025-01-29 15:06:20,0.0
-15584,-2928,-328,-14794,12599,-2028,2025-01-29 15:06:20,0.0
-15480,-736,-628,-14906,6768,-1480,2025-01-29 15:06:20,0.0
-14564,1360,-2116,-15715,1283,-805,2025-01-29 15:06:20,0.0
-13856,2884,-1784,-16355,-2096,-414,2025-01-29 15:06:20,0.0
-12280,3152,-2704,-16759,-2940,-433,2025-01-29 15:06:20,0.0
-10892,2628,-3908,-17480,-1038,-744,2025-01-29 15:06:20,0.0
-9924,1900,-3928,-18284,2176,-1477,2025-01-29 15:06:20,
-10588,1148,-3460,-18957,4915,-2234,2025-01-29 15:06:20,0.0
-11604,948,-2720,-19180,6935,-2853,2025-01-29 15:06:20,0.0
-12340,708,-2128,-19386,8101,-3165,2025-01-29 15:06:20,0.0
-13932,1404,-1652,-19624,8475,-3284,2025-01-29 15:06:20,0.0
-14592,2520,-1272,-20027,7265,-3359,2025-01-29 15:06:21,0.0
-14452,3252,-2964,-20279,5499,-3189,2025-01-29 15:06:21,0.0
-14684,3160,-3828,-20681,3584,-3035,2025-01-29 15:06:21,0.0
-13804,1828,-3300,-21201,1829,-3215,2025-01-29 15:06:21,0.0
-13368,720,-2180,-21254,696,-3436,2025-01-29 15:06:21,0.0
-13276,520,-1464,-20876,424,-3457,2025-01-29 15:06:21,0.0
-13268,940,-1520,-20484,914,-3473,2025-01-29 15:06:21,0.0
-12808,1304,-2144,-20248,1351,-3814,2025-01-29 15:06:21,0.0
-12620,1360,-2628,-20275,1344,-4473,2025-01-29 15:06:21,0.0
-12676,1668,-2300,-20233,1009,-4856,2025-01-29 15:06:21,0.0
-12432,1456,-1836,-20128,772,-5000,2025-01-29 15:06:21,0.0
-12624,868,-1804,-20133,1107,-5039,2025-01-29 15:06:21,0.0
-12904,728,-1688,-20089,1796,-5223,2025-01-29 15:06:21,0.0
-12892,876,-2084,-20047,2162,-5339,2025-01-29 15:06:21,0.0
-13172,1176,-3472,-20095,1726,-5383,2025-01-29 15:06:21,0.0
-12952,1404,-3644,-20065,960,-5427,2025-01-29 15:06:21,0.0
-12920,1404,-3404,-20163,800,-5438,2025-01-29 15:06:21,0.0
-12564,1312,-2608,-20315,1333,-5555,2025-01-29 15:06:21,0.0
-12828,1036,-2568,-20489,2355,-5741,2025-01-29 15:06:21,0.0
-12968,1080,-2956,-20532,3262,-5811,2025-01-29 15:06:21,0.0
-12912,1116,-3508,-20458,4117,-5989,2025-01-29 15:06:21,0.0
-12672,1208,-3980,-20357,4782,-6375,2025-01-29 15:06:21,0.0
-13292,1032,-3968,-20521,5319,-6831,2025-01-29 15:06:21,0.0
-14748,1076,-3060,-20497,5504,-6876,2025-01-29 15:06:21,0.0
-15584,228,-1784,-20004,4726,-6485,2025-01-29 15:06:21,0.0
-15308,-896,-520,-18726,2346,-5991,2025-01-29 15:06:21,0.0
-15400,-1980,-1128,-17195,-763,-5417,2025-01-29 15:06:21,0.0
-14088,-1892,-1524,-15652,-3295,-4905,2025-01-29 15:06:21,0.0
-13120,-1204,-2020,-14317,-3840,-4787,2025-01-29 15:06:21,0.0
-12684,-1036,-1900,-13397,-2872,-4730,2025-01-29 15:06:21,0.0
-12848,-1636,-892,-12358,-892,-4522,2025-01-29 15:06:21,0.0
-13596,-3188,-212,-10985,1212,-4070,2025-01-29 15:06:21,0.0
-13548,-4204,56,-9287,1978,-3613,2025-01-29 15:06:21,0.0
-13396,-3328,-1772,-7579,519,-3070,2025-01-29 15:06:21,0.0
-12580,-844,-3028,-6423,-705,-2813,2025-01-29 15:06:21,0.0
-11832,1188,-3988,-6016,153,-2732,2025-01-29 15:06:21,0.0
-11592,1268,-3932,-6651,1753,-3011,2025-01-29 15:06:21,0.0
-12776,528,-3100,-7957,3538,-3480,2025-01-29 15:06:21,0.0
-14324,-692,-2012,-8748,4277,-3306,2025-01-29 15:06:21,0.0
-15236,-2684,-2368,-8779,3105,-2682,2025-01-29 15:06:21,0.0
-15268,-3500,-2680,-8504,788,-2234,2025-01-29 15:06:21,0.0
-15332,-3412,-2540,-7993,-1256,-2109,2025-01-29 15:06:21,0.0
-13996,-2932,-1296,-7309,-2333,-2311,2025-01-29 15:06:21,0.0
-12884,-2584,-1584,-6876,-2582,-2630,2025-01-29 15:06:21,0.0
-12776,-1912,-2208,-6607,-2489,-2663,2025-01-29 15:06:21,0.0
-13100,-1584,-2620,-6528,-2122,-2359,2025-01-29 15:06:21,0.0
-13132,-1396,-2140,-6501,-1554,-2111,2025-01-29 15:06:21,0.0
-13024,-1132,-1980,-6462,-956,-1916,2025-01-29 15:06:21,0.0
-12844,-1040,-2112,-6403,-864,-1721,2025-01-29 15:06:21,0.0
-12796,-1196,-2028,-6236,-500,-1615,2025-01-29 15:06:21,0.0
-12968,-1304,-2028,-6168,692,-1412,2025-01-29 15:06:21,0.0
-13568,-1924,-2044,-6101,2141,-1152,2025-01-29 15:06:21,0.0
-13920,-2456,-2064,-6017,2648,-1135,2025-01-29 15:06:21,0.0
-14168,-2800,-1864,-5948,2239,-1358,2025-01-29 15:06:21,0.0
-14640,-2812,-1792,-5900,1050,-1481,2025-01-29 15:06:21,0.0
-14872,-2348,-1816,-5768,-652,-1408,2025-01-29 15:06:21,0.0
-14724,-1668,-1132,-5716,-2228,-1130,2025-01-29 15:06:21,0.0
-14084,-1660,-1128,-5563,-3213,-849,2025-01-29 15:06:21,0.0
-13556,-1168,-1396,-5557,-4167,-225,2025-01-29 15:06:21,0.0
-12840,-348,-1232,-5646,-4574,675,2025-01-29 15:06:21,0.0
-12000,-604,-1140,-5671,-3445,1143,2025-01-29 15:06:21,0.0
-11620,-1848,-1148,-5672,-1127,1118,2025-01-29 15:06:22,0.0
-11792,-2796,-900,-5234,1235,664,2025-01-29 15:06:22,0.0
-12460,-2712,-804,-4480,2738,181,2025-01-29 15:06:22,0.0
-13344,-1928,-708,-3630,3044,-253,2025-01-29 15:06:22,0.0
-14504,-972,-760,-2884,2657,-156,2025-01-29 15:06:22,0.0
-15068,-216,-1460,-2330,2354,51,2025-01-29 15:06:22,0.0
-15048,448,-3004,-2387,1292,45,2025-01-29 15:06:22,0.0
-14520,428,-3340,-2914,-618,-65,2025-01-29 15:06:22,0.0
-14024,72,-2428,-3151,-2078,244,2025-01-29 15:06:22,0.0
-13380,-364,-1824,-2796,-2376,740,2025-01-29 15:06:22,0.0
-13032,-584,-2076,-2329,-1382,1083,2025-01-29 15:06:22,0.0
-12776,-556,-2012,-1964,130,1193,2025-01-29 15:06:22,0.0
-13008,-308,-1760,-1618,1256,1119,2025-01-29 15:06:22,0.0
-13208,-200,-1484,-1260,1522,987,2025-01-29 15:06:22,0.0
-13284,-348,-1068,-820,1019,834,2025-01-29 15:06:22,0.0
-13276,-744,-1232,-266,247,434,2025-01-29 15:06:22,0.0
-13716,-604,-1744,77,427,34,2025-01-29 15:06:22,0.0
-13228,-116,-1116,270,571,-262,2025-01-29 15:06:22,0.0
-13284,388,-804,522,280,-229,2025-01-29 15:06:22,0.0
-13140,752,-644,849,274,-236,2025-01-29 15:06:22,0.0
-13732,596,-1508,1070,777,-215,2025-01-29 15:06:22,0.0
-13972,712,-2064,1110,1016,-125,2025-01-29 15:06:22,0.0
-13616,956,-1976,919,433,-75,2025-01-29 15:06:22,0.0
-13376,968,-1748,690,-221,-177,2025-01-29 15:06:22,0.0
-13408,976,-1744,572,-386,-223,2025-01-29 15:06:22,0.0
-13684,1104,-2044,468,-183,-148,2025-01-29 15:06:22,0.0
-13764,1132,-2372,382,-73,-23,2025-01-29 15:06:22,0.0
-13888,1172,-2460,211,71,152,2025-01-29 15:06:22,0.0
-13760,1072,-2348,-46,77,226,2025-01-29 15:06:22,0.0
-13532,888,-2084,-157,-180,196,2025-01-29 15:06:22,0.0
-13440,604,-1816,-217,-505,128,2025-01-29 15:06:22,0.0
-13080,520,-1732,-287,-597,23,2025-01-29 15:06:22,0.0
-13148,488,-1928,-278,-317,-126,2025-01-29 15:06:22,0.0
-13284,588,-1912,-315,-7,-146,2025-01-29 15:06:22,0.0
-13312,588,-1820,-328,101,-160,2025-01-29 15:06:22,
-13480,664,-1932,-543,24,-206,2025-01-29 15:06:22,0.0
-13404,684,-1892,-739,-128,-247,2025-01-29 15:06:22,0.0
-13432,464,-2020,-815,-260,-205,2025-01-29 15:06:22,0.0
-13408,596,-2028,-903,-239,-214,2025-01-29 15:06:22,0.0
-13312,656,-2052,-1013,-24,-242,2025-01-29 15:06:22,0.0
-13216,608,-2020,-1089,-43,-260,2025-01-29 15:06:22,0.0
-13436,300,-1940,-1082,-199,-264,2025-01-29 15:06:22,0.0
-13560,180,-1680,-1061,236,-237,2025-01-29 15:06:22,0.0
-13652,124,-1728,-925,461,-148,2025-01-29 15:06:22,0.0
-13632,152,-1484,-871,340,-143,2025-01-29 15:06:22,0.0
-13616,-112,-1372,-668,53,-179,2025-01-29 15:06:22,0.0
-13496,-32,-1456,-473,-110,-166,2025-01-29 15:06:22,0.0
-13392,-8,-1424,-329,51,-169,2025-01-29 15:06:22,0.0
-13376,12,-1472,-171,327,-173,2025-01-29 15:06:22,0.0
-13516,72,-1580,-90,507,-230,2025-01-29 15:06:22,0.0
-13648,260,-1444,5,310,-244,2025-01-29 15:06:22,0.0
-13648,188,-1428,55,66,-238,2025-01-29 15:06:22,0.0
-13636,284,-1528,63,-65,-179,2025-01-29 15:06:22,0.0
-13524,272,-1456,56,7,-146,2025-01-29 15:06:22,0.0
-13424,308,-1552,41,281,-109,2025-01-29 15:06:22,0.0
-13384,248,-1592,56,419,-177,2025-01-29 15:06:22,0.0
-13592,284,-1664,50,367,-163,2025-01-29 15:06:22,0.0
-13564,448,-1592,39,241,-145,2025-01-29 15:06:22,0.0
-13504,496,-1556,-1,107,-150,2025-01-29 15:06:22,0.0
-13460,440,-1740,-31,8,-184,2025-01-29 15:06:22,0.0
-13296,372,-1772,-73,42,-209,2025-01-29 15:06:23,0.0
-13292,256,-1768,-24,217,-219,2025-01-29 15:06:23,0.0
-13296,304,-1860,-27,357,-248,2025-01-29 15:06:23,0.0
-13456,372,-1920,-102,513,-266,2025-01-29 15:06:23,0.0
-13620,460,-1656,-108,556,-277,2025-01-29 15:06:23,0.0
-13656,428,-1760,-98,450,-229,2025-01-29 15:06:23,0.0
-13716,296,-1764,-77,197,-191,2025-01-29 15:06:23,0.0
-13592,272,-1588,-72,-49,-196,2025-01-29 15:06:23,0.0
-13536,388,-1704,-41,-161,-242,2025-01-29 15:06:23,0.0
-13436,384,-1708,-13,-63,-256,2025-01-29 15:06:23,0.0
-13384,300,-1664,34,103,-279,2025-01-29 15:06:23,0.0
-13432,276,-1860,10,256,-263,2025-01-29 15:06:23,0.0
-13452,324,-1720,79,364,-220,2025-01-29 15:06:23,0.0
-13460,392,-1568,87,472,-252,2025-01-29 15:06:23,0.0
-13472,352,-1684,108,463,-275,2025-01-29 15:06:23,0.0
-13668,164,-1916,117,79,-338,2025-01-29 15:06:23,0.0
-13628,172,-1748,197,-278,-320,2025-01-29 15:06:23,0.0
-13324,264,-1572,288,-245,-277,2025-01-29 15:06:23,0.0
-13332,336,-1424,283,-28,-332,2025-01-29 15:06:23,0.0
-13292,352,-1480,307,198,-341,2025-01-29 15:06:23,0.0
-13336,368,-1620,380,379,-330,2025-01-29 15:06:23,0.0
-13468,308,-1656,350,564,-324,2025-01-29 15:06:23,0.0
-13700,228,-1488,346,448,-334,2025-01-29 15:06:23,0.0
-13592,420,-1472,432,182,-342,2025-01-29 15:06:23,0.0
-13352,324,-1648,408,146,-365,2025-01-29 15:06:23,0.0
-13504,376,-1696,433,164,-400,2025-01-29 15:06:23,0.0
-13468,364,-1848,499,343,-349,2025-01-29 15:06:23,0.0
-13584,468,-1804,558,409,-274,2025-01-29 15:06:23,0.0
-13536,472,-1696,592,231,-223,2025-01-29 15:06:23,0.0
-13496,524,-1440,616,137,-140,2025-01-29 15:06:23,0.0
-13180,640,-1488,641,272,-118,2025-01-29 15:06:23,0.0
-13092,432,-1380,745,619,-187,2025-01-29 15:06:23,0.0
-13524,188,-1908,730,1111,-158,2025-01-29 15:06:23,0.0
-13708,340,-1680,873,1889,-8,2025-01-29 15:06:23,0.0
-13936,716,-1632,959,2557,109,2025-01-29 15:06:23,0.0
-13872,544,-1100,1096,2037,85,2025-01-29 15:06:23,0.0
-13532,-228,-608,1174,539,-68,2025-01-29 15:06:23,0.0
-13520,-928,-1192,1519,-744,-334,2025-01-29 15:06:23,0.0
-13640,-1052,-1444,2088,-723,-393,2025-01-29 15:06:23,0.0
-13712,-400,-956,2747,399,-231,2025-01-29 15:06:23,0.0
-13344,600,-1084,3020,742,-186,2025-01-29 15:06:23,0.0
-13344,1364,-1332,2629,141,-235,2025-01-29 15:06:23,0.0
-13204,1688,-1500,2065,-629,-311,2025-01-29 15:06:23,0.0
-13160,1444,-1248,1753,-850,-300,2025-01-29 15:06:23,0.0
-13024,1296,-1400,1685,-542,-237,2025-01-29 15:06:23,0.0
-12920,1188,-2060,1357,31,-193,2025-01-29 15:06:23,0.0
-12896,1024,-1804,1080,907,-338,2025-01-29 15:06:23,0.0
-13540,916,-1880,1119,1528,-573,2025-01-29 15:06:23,0.0
-14136,868,-2228,995,1294,-612,2025-01-29 15:06:23,0.0
-14316,1508,-2908,321,-406,-1062,2025-01-29 15:06:23,0.0
-14248,1592,-2604,-300,-1705,-1622,2025-01-29 15:06:23,0.0
-13708,1052,-2264,-584,-2488,-2029,2025-01-29 15:06:23,0.0
-13024,24,-2084,-314,-2566,-2461,2025-01-29 15:06:23,0.0
-12808,-1072,-1876,-33,-1986,-2893,2025-01-29 15:06:23,0.0
-12672,-1928,-1544,240,-1046,-3257,2025-01-29 15:06:23,0.0
-12564,-2540,-1276,352,-342,-3496,2025-01-29 15:06:23,0.0
-12668,-3008,-112,468,363,-3608,2025-01-29 15:06:23,0.0
-13252,-2696,1368,702,1265,-3238,2025-01-29 15:06:23,0.0
-13528,-1848,1744,782,1670,-2579,2025-01-29 15:06:23,0.0
-13548,-1364,1464,511,1846,-2126,2025-01-29 15:06:23,0.0
-13848,-1412,1036,160,2023,-1987,2025-01-29 15:06:23,0.0
-14136,-1796,572,106,1779,-1990,2025-01-29 15:06:24,0.0
-14340,-2136,776,210,1179,-2065,2025-01-29 15:06:24,0.0
-14300,-2272,524,314,102,-2042,2025-01-29 15:06:24,0.0
-14204,-2096,388,221,-1068,-1743,2025-01-29 15:06:24,0.0
-13688,-1740,248,135,-2334,-1215,2025-01-29 15:06:24,0.0
-12980,-1460,300,-42,-3604,-611,2025-01-29 15:06:24,0.0
-12504,-1732,452,-375,-3684,-408,2025-01-29 15:06:24,0.0
-12704,-1724,1096,-697,-2786,-273,2025-01-29 15:06:24,0.0
-13132,-1660,1472,-838,-1514,121,2025-01-29 15:06:24,0.0
-13536,-1376,1748,-781,-702,727,2025-01-29 15:06:24,0.0
-13428,-1592,1664,-835,-703,1248,2025-01-29 15:06:24,0.0
-12788,-1920,972,-1025,-857,1457,2025-01-29 15:06:24,0.0
-12480,-1876,132,-1359,-344,1437,2025-01-29 15:06:24,0.0
-12264,-1980,-740,-1786,997,1040,2025-01-29 15:06:24,
-12572,-1404,-1000,-2533,2867,283,2025-01-29 15:06:24,0.0
-14148,-552,-600,-3074,4420,-155,2025-01-29 15:06:24,0.0
-15004,-1376,28,-3162,5270,-495,2025-01-29 15:06:24,0.0
-16108,-3472,800,-3140,4745,-1006,2025-01-29 15:06:24,0.0
-16792,-4000,1640,-3136,2441,-1251,2025-01-29 15:06:24,0.0
-17108,-2928,456,-3098,-573,-1789,2025-01-29 15:06:24,0.0
-17416,-972,-1128,-3440,-2717,-2219,2025-01-29 15:06:24,0.0
-16468,-320,-1844,-4128,-3509,-2376,2025-01-29 15:06:24,0.0
-15832,-1292,-1112,-4687,-3150,-2150,2025-01-29 15:06:24,0.0
-15352,-3076,-688,-4602,-1834,-1612,2025-01-29 15:06:24,0.0
-15172,-4160,-124,-4006,-682,-1146,2025-01-29 15:06:24,0.0
-15932,-4836,244,-2990,-240,-469,2025-01-29 15:06:24,0.0
-16636,-4776,336,-1776,-587,472,2025-01-29 15:06:24,0.0
-16400,-3544,-152,-734,-1582,2030,2025-01-29 15:06:24,0.0
-14016,-2016,-1500,-348,-2664,2846,2025-01-29 15:06:24,0.0
-13500,-1364,-1672,-295,-2661,3022,2025-01-29 15:06:24,0.0
-13028,-1084,-2052,191,-2203,3391,2025-01-29 15:06:24,0.0
-12448,-600,-3340,687,-1648,3527,2025-01-29 15:06:24,0.0
-12268,492,-5108,748,-1498,3586,2025-01-29 15:06:24,0.0
-11384,1864,-5632,-16,-1296,3239,2025-01-29 15:06:24,0.0
-10920,2828,-5040,-895,-659,2473,2025-01-29 15:06:24,0.0
-11128,2920,-4256,-1464,408,1826,2025-01-29 15:06:24,0.0
-11900,2172,-3768,-1894,1882,1605,2025-01-29 15:06:24,0.0
-12420,1220,-2824,-2148,3202,1514,2025-01-29 15:06:24,0.0
-13732,-124,-1888,-2126,4602,1372,2025-01-29 15:06:24,0.0
-14720,-816,-1548,-1834,5087,1399,2025-01-29 15:06:24,0.0
-15216,-1004,-1292,-1429,3918,1595,2025-01-29 15:06:24,0.0
-15584,-420,-1052,-771,1305,1831,2025-01-29 15:06:24,0.0
-15096,536,-804,-357,-1936,2319,2025-01-29 15:06:24,0.0
-13608,1276,-936,-84,-4064,2423,2025-01-29 15:06:24,0.0
-12340,1664,-1284,207,-5080,2362,2025-01-29 15:06:24,0.0
-11464,1480,-1716,353,-4473,2328,2025-01-29 15:06:24,0.0
-10868,1120,-1424,440,-2421,2291,2025-01-29 15:06:24,0.0
-10408,844,-1484,611,-207,2047,2025-01-29 15:06:24,0.0
-10972,852,-1644,696,1647,1721,2025-01-29 15:06:24,0.0
-11736,1140,-1524,526,2424,1341,2025-01-29 15:06:24,0.0
-12388,1600,-888,513,2140,1023,2025-01-29 15:06:24,0.0
-12812,1524,-968,412,1299,524,2025-01-29 15:06:24,0.0
-13140,1520,-1008,173,315,-32,2025-01-29 15:06:24,0.0
-13060,1512,-760,73,-451,-307,2025-01-29 15:06:24,0.0
-12712,1412,-132,102,-809,-575,2025-01-29 15:06:24,0.0
-12596,960,-100,146,-633,-753,2025-01-29 15:06:24,0.0
-12856,712,220,508,-158,-874,2025-01-29 15:06:24,0.0
-13128,488,68,991,121,-896,2025-01-29 15:06:24,0.0
-13576,460,432,1463,-292,-854,2025-01-29 15:06:24,0.0
-13540,632,704,1848,-936,-831,2025-01-29 15:06:24,0.0
-13180,916,772,2067,-1619,-992,2025-01-29 15:06:25,0.0
-13108,1096,732,2262,-2113,-1068,2025-01-29 15:06:25,0.0
-12848,1344,340,2475,-2297,-1013,2025-01-29 15:06:25,0.0
-12760,1720,-340,2683,-1727,-937,2025-01-29 15:06:25,0.0
-12544,1948,-976,2562,-544,-908,2025-01-29 15:06:25,0.0
-12956,1740,-912,2440,642,-1044,2025-01-29 15:06:25,0.0
-14100,1388,-404,2538,1551,-948,2025-01-29 15:06:25,0.0
-15532,264,1244,3043,2064,-304,2025-01-29 15:06:25,0.0
-15788,-320,1816,3912,2018,377,2025-01-29 15:06:25,0.0
-15480,-28,1444,4328,1140,900,2025-01-29 15:06:25,0.0
-15004,412,1372,4656,84,1150,2025-01-29 15:06:25,0.0
-14424,888,1308,5077,-258,1233,2025-01-29 15:06:25,0.0
-14468,1412,232,5517,262,1456,2025-01-29 15:06:25,0.0
-15096,1488,-912,5750,1613,1743,2025-01-29 15:06:25,0.0
-15352,1920,-1668,5502,3464,2106,2025-01-29 15:06:25,0.0
-15852,3356,-2132,5015,5245,2241,2025-01-29 15:06:25,0.0
-15968,4260,-2912,4208,5766,2054,2025-01-29 15:06:25,0.0
-15980,4848,-3476,2827,4032,1468,2025-01-29 15:06:25,0.0
-15888,4472,-4000,1260,1216,953,2025-01-29 15:06:25,0.0
-15288,3600,-3192,158,-994,315,2025-01-29 15:06:25,0.0
-14484,2000,-2752,-628,-2119,-539,2025-01-29 15:06:25,0.0
-12828,1268,-2780,-782,-2956,-1785,2025-01-29 15:06:25,0.0
-12204,1380,-3176,-883,-3248,-2793,2025-01-29 15:06:25,0.0
-11656,980,-3780,-1255,-2823,-3168,2025-01-29 15:06:25,0.0
-11772,416,-4308,-1497,-1980,-3249,2025-01-29 15:06:25,0.0
-11416,-284,-4704,-1698,-1191,-3079,2025-01-29 15:06:25,0.0
-11180,-1024,-4480,-1844,-281,-2734,2025-01-29 15:06:25,0.0
-11048,-1536,-2924,-1770,437,-2543,2025-01-29 15:06:25,0.0
-11132,-1628,-2412,-1503,1577,-2499,2025-01-29 15:06:25,0.0
-12216,-1144,-2364,-1504,3170,-2411,2025-01-29 15:06:25,0.0
-13108,-548,-2784,-1812,3621,-2404,2025-01-29 15:06:25,0.0
-13892,152,-2432,-2237,3237,-2649,2025-01-29 15:06:25,0.0
-14368,484,-2900,-2849,2080,-2932,2025-01-29 15:06:25,0.0
-14856,544,-3036,-3473,643,-3075,2025-01-29 15:06:25,0.0
-14992,336,-3356,-4206,-981,-3033,2025-01-29 15:06:25,0.0
-14516,188,-3276,-4990,-2614,-2841,2025-01-29 15:06:25,0.0
-13280,216,-3468,-5871,-3730,-2785,2025-01-29 15:06:25,0.0
-12076,260,-3836,-6917,-4041,-2923,2025-01-29 15:06:25,0.0
-11472,320,-3344,-7829,-3371,-2960,2025-01-29 15:06:25,0.0
-11440,364,-2872,-8385,-2092,-2801,2025-01-29 15:06:25,0.0
-11564,128,-2284,-8756,-751,-2449,2025-01-29 15:06:25,0.0
-11872,-84,-2000,-9154,255,-2257,2025-01-29 15:06:25,0.0
-12244,-216,-2196,-9832,758,-2210,2025-01-29 15:06:25,0.0
-13276,-224,-1820,-10644,380,-2246,2025-01-29 15:06:25,0.0
-13672,-132,-2032,-11348,-621,-1914,2025-01-29 15:06:25,0.0
-13688,148,-2064,-11743,-1214,-1423,2025-01-29 15:06:25,0.0
-13436,200,-2148,-12036,-1194,-998,2025-01-29 15:06:25,0.0
-13380,480,-2084,-12312,-1025,-706,2025-01-29 15:06:25,0.0
-13008,648,-1808,-12673,-1106,-547,2025-01-29 15:06:25,0.0
-13204,396,-1828,-13326,-1082,-546,2025-01-29 15:06:25,0.0
-13300,-152,-1752,-13719,-1154,-476,2025-01-29 15:06:25,0.0
-13352,-740,-2328,-14003,-924,-589,2025-01-29 15:06:25,0.0
-13328,-1060,-2044,-14181,-523,-745,2025-01-29 15:06:25,0.0
-13376,-1320,-1684,-14416,-9,-1058,2025-01-29 15:06:25,
-13460,-992,-1172,-14480,213,-1233,2025-01-29 15:06:25,0.0
-13648,-572,-1944,-14536,39,-1116,2025-01-29 15:06:25,0.0
-13508,-388,-2400,-14995,43,-1182,2025-01-29 15:06:25,0.0
-13500,-308,-2768,-15629,681,-1559,2025-01-29 15:06:25,0.0
-13552,-276,-3168,-16468,1593,-2007,2025-01-29 15:06:25,0.0
-13848,-168,-2916,-17207,2092,-2379,2025-01-29 15:06:26,0.0
-14132,-192,-2784,-17871,2098,-2519,2025-01-29 15:06:26,0.0
-14076,-504,-2696,-18461,1798,-2590,2025-01-29 15:06:26,0.0
-13472,-848,-2600,-19119,345,-2854,2025-01-29 15:06:26,0.0
-13068,-1608,-2620,-19693,-502,-3281,2025-01-29 15:06:26,0.0
-12900,-2352,-2416,-20355,-625,-3985,2025-01-29 15:06:26,0.0
-13436,-2736,-2004,-20833,-276,-4435,2025-01-29 15:06:26,0.0
-14276,-2360,-1364,-21036,83,-3974,2025-01-29 15:06:26,0.0
-14588,-1956,312,-20862,-136,-2679,2025-01-29 15:06:26,0.0
-13880,-1984,416,-20742,-1325,-1108,2025-01-29 15:06:26,0.0
-13644,-1928,-1864,-20446,-2232,-138,2025-01-29 15:06:26,0.0
-13912,-2456,-4224,-19453,-2198,267,2025-01-29 15:06:26,0.0
-13544,-4768,-4824,-17993,78,-857,2025-01-29 15:06:26,0.0
-13236,-5328,-5120,-16023,2798,-2995,2025-01-29 15:06:26,0.0
-13580,-3348,-4508,-15112,3685,-4297,2025-01-29 15:06:26,0.0
-13008,-144,-3856,-15675,3351,-4506,2025-01-29 15:06:26,0.0
-12632,2800,-2812,-16895,2303,-3895,2025-01-29 15:06:26,0.0
-12024,4028,-3272,-17444,1782,-2522,2025-01-29 15:06:26,0.0
-11224,3488,-5020,-17733,2829,-1636,2025-01-29 15:06:26,0.0
-10764,844,-6432,-18640,5939,-2013,2025-01-29 15:06:26,0.0
-11484,-2040,-5448,-18818,9053,-3165,2025-01-29 15:06:26,0.0
-12988,-3456,-3480,-18319,11018,-4232,2025-01-29 15:06:26,0.0
-14884,-3172,-1468,-17767,10811,-5161,2025-01-29 15:06:26,0.0
-16352,-884,-688,-16598,7810,-4791,2025-01-29 15:06:26,0.0
-16432,704,-2092,-15243,2219,-3719,2025-01-29 15:06:26,0.0
-14784,1052,-3836,-15348,-2490,-3319,2025-01-29 15:06:26,0.0
-12904,724,-4064,-15970,-3564,-3247,2025-01-29 15:06:26,0.0
-11956,732,-3476,-16123,-2202,-3178,2025-01-29 15:06:26,0.0
-11236,700,-3452,-16151,-33,-3322,2025-01-29 15:06:26,0.0
-11840,964,-3828,-16264,1163,-3336,2025-01-29 15:06:26,0.0
-12640,1072,-4240,-16223,1494,-3000,2025-01-29 15:06:26,0.0
-13220,888,-4348,-16227,1773,-2905,2025-01-29 15:06:26,0.0
-13500,308,-3724,-16416,2108,-3200,2025-01-29 15:06:26,0.0
-13844,-104,-2480,-16289,1963,-3526,2025-01-29 15:06:26,0.0
-13836,-348,-1952,-15685,1168,-3467,2025-01-29 15:06:26,0.0
-12728,-656,-3496,-15141,-101,-3586,2025-01-29 15:06:26,0.0
-12388,-936,-4684,-15223,-402,-3713,2025-01-29 15:06:26,0.0
-12068,-776,-4592,-15340,-200,-3994,2025-01-29 15:06:26,0.0
-12000,-564,-4004,-15423,521,-4079,2025-01-29 15:06:26,0.0
-12064,-656,-3716,-15292,1097,-3987,2025-01-29 15:06:26,0.0
-11852,-216,-4096,-15192,1294,-3883,2025-01-29 15:06:26,0.0
-11608,68,-4632,-15113,1182,-3833,2025-01-29 15:06:26,0.0
-11476,124,-4704,-14915,1325,-3706,2025-01-29 15:06:26,0.0
-11668,-596,-4568,-14606,1940,-3376,2025-01-29 15:06:26,0.0
-11672,-1188,-4308,-14476,2622,-3409,2025-01-29 15:06:26,0.0
-11604,-1764,-3920,-14399,3304,-3611,2025-01-29 15:06:26,0.0
-11328,-1764,-3424,-14379,3299,-4173,2025-01-29 15:06:26,0.0
-11392,-1436,-3032,-14156,2844,-4706,2025-01-29 15:06:26,0.0
-11840,-1124,-2792,-13646,2553,-5044,2025-01-29 15:06:26,0.0
-12360,-1020,-2612,-13245,2351,-5335,2025-01-29 15:06:26,0.0
-12964,-1228,-2484,-13046,2467,-5503,2025-01-29 15:06:26,0.0
-13492,-1416,-2560,-12679,2203,-5639,2025-01-29 15:06:26,0.0
-14016,-1260,-3188,-12508,1308,-5588,2025-01-29 15:06:26,0.0
-14000,-508,-3604,-12415,-361,-5279,2025-01-29 15:06:26,0.0
-15524,460,-2396,-12326,-3426,-4429,2025-01-29 15:06:26,0.0
-11588,268,-3740,-12226,-5069,-3879,2025-01-29 15:06:26,0.0
-12232,-24,-2160,-12065,-5963,-3071,2025-01-29 15:06:26,0.0
-11524,-648,-2644,-11897,-6230,-2310,2025-01-29 15:06:26,0.0
-11808,-1660,-3344,-11443,-5278,-1647,2025-01-29 15:06:26,0.0
-11192,-2180,-3380,-11219,-4660,-1082,2025-01-29 15:06:27,0.0
-10488,-1324,-2536,-11120,-4233,-418,2025-01-29 15:06:27,0.0
-10976,652,-1528,-11286,-2998,130,2025-01-29 15:06:27,0.0
-12340,2292,-208,-11193,-1087,1087,2025-01-29 15:06:27,0.0
-12420,1916,928,-11026,-1928,1921,2025-01-29 15:06:27,0.0
-12416,-780,2308,-10359,-3928,1201,2025-01-29 15:06:27,0.0
-13280,-3304,2336,-9216,-6894,204,2025-01-29 15:06:27,0.0
-13312,-4324,792,-8478,-9486,-390,2025-01-29 15:06:27,0.0
-11756,-3272,52,-8376,-10190,-1097,2025-01-29 15:06:27,0.0
-10224,-1504,-44,-8302,-9908,-1681,2025-01-29 15:06:27,0.0
-10448,-228,-672,-8150,-9399,-2098,2025-01-29 15:06:27,0.0
-17920,1728,-484,-8401,-7493,-1487,2025-01-29 15:06:27,0.0
-15676,768,-360,-9204,-5499,26,2025-01-29 15:06:27,0.0
-16952,-592,552,-9425,-3084,917,2025-01-29 15:06:27,0.0
-17788,-1196,1224,-9424,-3045,2098,2025-01-29 15:06:27,0.0
-16372,-264,1700,-9553,-4105,2020,2025-01-29 15:06:27,0.0
-16544,368,80,-10101,-5879,873,2025-01-29 15:06:27,0.0
-17696,-892,2592,-10617,-7558,-375,2025-01-29 15:06:27,0.0
-15844,-180,6268,-8958,-7608,-1064,2025-01-29 15:06:27,0.0
-15036,1036,6092,-8520,-7408,-174,2025-01-29 15:06:27,0.0
-14256,-136,5016,-7709,-7052,312,2025-01-29 15:06:27,0.0
-14916,-52,4528,-6717,-8684,736,2025-01-29 15:06:27,0.0
-13740,444,5868,-6079,-9818,832,2025-01-29 15:06:27,0.0
-12032,952,5436,-5550,-8933,742,2025-01-29 15:06:27,0.0
-12560,940,5940,-4680,-7732,880,2025-01-29 15:06:27,0.0
-13380,1076,6976,-3626,-7399,1538,2025-01-29 15:06:27,0.0
-13076,1116,7712,-2830,-8630,1761,2025-01-29 15:06:27,0.0
-9136,340,6840,-2123,-8790,2166,2025-01-29 15:06:27,0.0
-11828,40,7564,-2019,-12745,1884,2025-01-29 15:06:27,0.0
-11340,256,8124,-1486,-12890,1662,2025-01-29 15:06:27,0.0
-10972,1368,8400,-1102,-13094,1427,2025-01-29 15:06:27,0.0
-10820,2296,8428,-954,-13197,1266,2025-01-29 15:06:27,0.0
-11504,2760,8060,-1015,-12737,1288,2025-01-29 15:06:27,0.0
-11384,2972,9520,-757,-12641,1487,2025-01-29 15:06:27,0.0
-12056,1772,10192,-494,-12164,1732,2025-01-29 15:06:27,0.0
-11752,188,10416,50,-11856,1464,2025-01-29 15:06:27,
-11144,276,10120,-14,-10494,737,2025-01-29 15:06:27,0.0
-11720,816,9520,-360,-8774,81,2025-01-29 15:06:27,0.0
-12352,104,10860,-434,-6607,-835,2025-01-29 15:06:27,0.0
-13384,-504,12540,-198,-6342,-1548,2025-01-29 15:06:27,0.0
-13488,268,12512,-280,-7508,-1812,2025-01-29 15:06:27,0.0
-12896,204,12260,253,-7812,-1665,2025-01-29 15:06:27,0.0
-12968,1948,12188,564,-8261,-1323,2025-01-29 15:06:27,0.0
-13188,2880,12608,399,-10490,-889,2025-01-29 15:06:27,0.0
-12048,2436,12176,171,-11143,-604,2025-01-29 15:06:27,0.0
-11580,1432,12752,66,-10589,-675,2025-01-29 15:06:27,0.0
-10828,440,13240,365,-9125,-982,2025-01-29 15:06:27,0.0
-11780,-1324,15192,567,-7936,-613,2025-01-29 15:06:27,0.0
-11604,520,15080,986,-7420,-879,2025-01-29 15:06:27,0.0
-11540,1384,14580,1210,-7871,-668,2025-01-29 15:06:27,0.0
-9332,1544,14076,1287,-8248,-633,2025-01-29 15:06:27,0.0
-7812,1488,13776,1188,-7702,-964,2025-01-29 15:06:27,0.0
-7292,1628,13656,794,-6383,-1214,2025-01-29 15:06:27,0.0
-7892,1760,14244,481,-4951,-1075,2025-01-29 15:06:27,0.0
-9268,2580,15252,130,-3861,-1030,2025-01-29 15:06:27,0.0
-10872,3104,15680,-27,-3939,-497,2025-01-29 15:06:27,0.0
-10768,3376,15044,-196,-5449,407,2025-01-29 15:06:27,0.0
-9392,2876,15460,-216,-6590,1245,2025-01-29 15:06:27,0.0
-6888,2432,14460,-675,-6926,1337,2025-01-29 15:06:27,0.0
-5796,1780,14076,-1409,-6436,1014,2025-01-29 15:06:27,0.0
-5744,1512,14780,-1462,-4676,616,2025-01-29 15:06:27,0.0
-6404,1344,15328,-1342,-3147,151,2025-01-29 15:06:28,0.0
-6880,1464,15500,-1231,-2414,-138,2025-01-29 15:06:28,0.0
-7216,1084,15980,-854,-1804,-302,2025-01-29 15:06:28,0.0
-7632,1288,15268,-957,-2180,-379,2025-01-29 15:06:28,0.0
-7056,1568,14700,-1088,-2585,-264,2025-01-29 15:06:28,0.0
-6768,1736,14088,-1431,-2124,-89,2025-01-29 15:06:28,0.0
-6472,1352,14916,-1625,-1189,-52,2025-01-29 15:06:28,0.0
-6396,1236,14884,-1653,25,44,2025-01-29 15:06:28,0.0
-6988,984,15364,-1372,1533,138,2025-01-29 15:06:28,0.0
-7456,264,15948,-825,2190,285,2025-01-29 15:06:28,0.0
-8388,-740,15880,-547,1398,520,2025-01-29 15:06:28,0.0
-8620,-832,16168,-350,-136,652,2025-01-29 15:06:28,0.0
-7728,-96,16212,49,-1428,719,2025-01-29 15:06:28,0.0
-6604,580,15808,87,-526,699,2025-01-29 15:06:28,0.0
-5972,1364,15188,-143,488,569,2025-01-29 15:06:28,0.0
-6000,1600,14864,-668,995,403,2025-01-29 15:06:28,0.0
-6420,1524,14724,-1110,1458,21,2025-01-29 15:06:28,0.0
-7296,1412,15220,-1121,1533,-80,2025-01-29 15:06:28,0.0
-7884,1584,15496,-1033,1249,49,2025-01-29 15:06:28,0.0
-7988,1816,15748,-723,741,247,2025-01-29 15:06:28,0.0
-7804,2120,15820,-531,-3,372,2025-01-29 15:06:28,0.0
-7304,1900,15160,-509,-679,373,2025-01-29 15:06:28,0.0
-6836,1540,14940,-449,-1282,218,2025-01-29 15:06:28,0.0
-6988,1696,14872,-560,-1436,106,2025-01-29 15:06:28,0.0
-7140,1876,15504,-628,-1358,105,2025-01-29 15:06:28,0.0
-7228,1956,16260,-686,-1784,220,2025-01-29 15:06:28,0.0
-6876,1204,16224,-694,-2185,105,2025-01-29 15:06:28,0.0
-6556,972,16032,-630,-2122,78,2025-01-29 15:06:28,0.0
-6096,528,15716,-614,-1520,110,2025-01-29 15:06:28,0.0
-6348,480,15252,-640,-838,121,2025-01-29 15:06:28,0.0
-6680,656,15260,-523,-212,173,2025-01-29 15:06:28,0.0
-7124,784,15168,-328,90,203,2025-01-29 15:06:28,0.0
-7528,920,15316,-140,-277,286,2025-01-29 15:06:28,0.0
-7384,868,15132,-99,-989,301,2025-01-29 15:06:28,0.0
-6808,768,15252,-181,-1630,164,2025-01-29 15:06:28,0.0
-6700,800,14960,-222,-1710,72,2025-01-29 15:06:28,0.0
-6480,956,14824,-231,-1385,13,2025-01-29 15:06:28,0.0
-6284,904,14764,-366,-702,-223,2025-01-29 15:06:28,0.0
-6712,1052,15128,-360,-178,-399,2025-01-29 15:06:28,0.0
-7044,1292,15468,-308,129,-325,2025-01-29 15:06:28,0.0
-6984,1296,15436,-271,140,-176,2025-01-29 15:06:28,0.0
-6896,1280,15520,-293,-60,110,2025-01-29 15:06:28,0.0
-6612,1260,15264,-249,-39,281,2025-01-29 15:06:28,0.0
-6676,928,15076,-284,185,147,2025-01-29 15:06:28,0.0
-6668,1124,15224,-418,425,-97,2025-01-29 15:06:28,0.0
-6544,1256,15300,-558,567,-221,2025-01-29 15:06:28,0.0
-6872,1172,15688,-735,368,-303,2025-01-29 15:06:28,0.0
-6920,1004,15816,-576,-28,-216,2025-01-29 15:06:28,0.0
-6792,860,15660,-290,-124,-111,2025-01-29 15:06:28,0.0
-6524,784,15536,-111,82,-86,2025-01-29 15:06:28,0.0
-6548,804,15304,-12,228,-101,2025-01-29 15:06:28,0.0
-6636,1028,15276,-138,305,-167,2025-01-29 15:06:28,0.0
-6772,1128,15560,-293,160,-298,2025-01-29 15:06:28,0.0
-6884,1140,15732,-467,-17,-433,2025-01-29 15:06:28,0.0
-7004,1088,15684,-570,-169,-521,2025-01-29 15:06:28,0.0
-6864,1020,15720,-436,-153,-520,2025-01-29 15:06:28,0.0
-6636,900,15748,-217,-26,-443,2025-01-29 15:06:29,0.0
-6600,972,15452,-28,164,-386,2025-01-29 15:06:29,0.0
-6524,916,15468,15,202,-343,2025-01-29 15:06:29,0.0
-6548,912,15420,-14,199,-350,2025-01-29 15:06:29,0.0
-6672,992,15604,-142,152,-374,2025-01-29 15:06:29,0.0
-6724,924,15528,-122,143,-436,2025-01-29 15:06:29,0.0
-6828,1036,15588,-116,148,-379,2025-01-29 15:06:29,0.0
-6696,1012,15628,-39,250,-352,2025-01-29 15:06:29,0.0
-6436,1000,15676,-47,311,-300,2025-01-29 15:06:29,0.0
-6660,1072,15544,-32,365,-274,2025-01-29 15:06:29,0.0
-6672,1192,15628,-7,337,-261,2025-01-29 15:06:29,0.0
-6748,1144,15476,-76,296,-247,2025-01-29 15:06:29,0.0
-6760,1256,15432,-143,344,-249,2025-01-29 15:06:29,0.0
-6924,1108,15512,-177,316,-212,2025-01-29 15:06:29,0.0
-6904,1100,15560,-176,310,-173,2025-01-29 15:06:29,0.0
-6872,1172,15428,-141,298,-107,2025-01-29 15:06:29,0.0
-6872,1124,15468,-178,345,-99,2025-01-29 15:06:29,0.0
-6964,972,15408,-191,404,-59,2025-01-29 15:06:29,0.0
-6880,1080,15356,-203,219,-79,2025-01-29 15:06:29,
-6936,972,15400,-197,122,-69,2025-01-29 15:06:29,0.0
-6888,1104,15332,-208,71,-65,2025-01-29 15:06:29,0.0
-6732,1076,15468,-181,-15,-33,2025-01-29 15:06:29,0.0
-6700,1060,15580,-179,-45,-56,2025-01-29 15:06:29,0.0
-6564,1040,15564,-230,58,-73,2025-01-29 15:06:29,0.0
-6592,836,15540,-235,201,-119,2025-01-29 15:06:29,0.0
-6656,888,15608,-194,290,-133,2025-01-29 15:06:29,0.0
-6844,876,15564,-156,301,-118,2025-01-29 15:06:29,0.0
-6748,948,15448,-177,223,-149,2025-01-29 15:06:29,0.0
-6776,976,15484,-194,196,-124,2025-01-29 15:06:29,0.0
-6740,968,15440,-206,187,-153,2025-01-29 15:06:29,0.0
-6800,980,15524,-189,215,-130,2025-01-29 15:06:29,0.0
-6696,936,15532,-198,203,-140,2025-01-29 15:06:29,0.0
-6744,888,15600,-162,159,-123,2025-01-29 15:06:29,0.0
-6836,952,15512,-179,203,-151,2025-01-29 15:06:29,0.0
-6844,956,15464,-187,205,-196,2025-01-29 15:06:29,0.0
-6756,896,15508,-200,204,-208,2025-01-29 15:06:29,0.0
-6744,960,15576,-117,146,-197,2025-01-29 15:06:29,0.0
-6820,1004,15580,-107,147,-203,2025-01-29 15:06:29,0.0
-6768,912,15436,-118,170,-224,2025-01-29 15:06:29,0.0
-6784,1012,15588,-165,185,-219,2025-01-29 15:06:29,0.0
-6672,1004,15708,-166,257,-223,2025-01-29 15:06:29,0.0
-6756,1056,15568,-147,332,-219,2025-01-29 15:06:29,0.0
-6848,1004,15600,-164,358,-231,2025-01-29 15:06:29,0.0
-6888,1120,15304,-179,333,-227,2025-01-29 15:06:29,0.0
-6808,968,15388,-205,283,-236,2025-01-29 15:06:29,0.0
-6960,1044,15352,-154,230,-213,2025-01-29 15:06:29,0.0
-6844,1052,15616,-142,278,-160,2025-01-29 15:06:29,0.0
-6960,1156,15420,-172,356,-160,2025-01-29 15:06:29,0.0
-6904,988,15556,-170,363,-151,2025-01-29 15:06:29,0.0
-6824,1024,15560,-148,356,-185,2025-01-29 15:06:29,0.0
-6764,960,15512,-197,384,-140,2025-01-29 15:06:29,0.0
-6960,1052,15400,-287,362,-164,2025-01-29 15:06:29,0.0
-6932,1136,15540,-240,311,-165,2025-01-29 15:06:29,0.0
-6940,1112,15340,-208,198,-135,2025-01-29 15:06:29,0.0
-6924,1028,15424,-173,85,-154,2025-01-29 15:06:29,0.0
-6768,988,15340,-153,3,-130,2025-01-29 15:06:29,0.0
-6840,928,15476,-187,70,-167,2025-01-29 15:06:29,0.0
-6664,884,15620,-223,204,-196,2025-01-29 15:06:29,0.0
-6844,1028,15616,-212,277,-203,2025-01-29 15:06:29,0.0
-6848,956,15580,-206,330,-159,2025-01-29 15:06:29,0.0
-6860,1064,15436,-169,366,-131,2025-01-29 15:06:29,0.0
-6896,960,15416,-150,325,-137,2025-01-29 15:06:29,0.0
-6896,996,15384,-180,280,-170,2025-01-29 15:06:29,0.0
-6856,912,15340,-148,227,-170,2025-01-29 15:06:29,0.0
-6928,1004,15392,-152,257,-179,2025-01-29 15:06:29,0.0
-6844,1032,15420,-162,245,-176,2025-01-29 15:06:29,0.0
-6896,972,15508,-129,287,-140,2025-01-29 15:06:30,0.0
-6836,1056,15440,-161,344,-160,2025-01-29 15:06:30,0.0
-6732,1040,15512,-207,265,-165,2025-01-29 15:06:30,0.0
-6840,1012,15368,-136,318,-176,2025-01-29 15:06:30,0.0
-6736,972,15500,-150,334,-174,2025-01-29 15:06:30,0.0
-6876,1000,15408,-186,330,-188,2025-01-29 15:06:30,0.0
-6960,1032,15316,-200,304,-147,2025-01-29 15:06:30,0.0
-6944,984,15460,-202,351,-187,2025-01-29 15:06:30,0.0
-6948,880,15336,-118,391,-154,2025-01-29 15:06:30,0.0
-6956,1048,15476,-134,358,-176,2025-01-29 15:06:30,0.0
-6932,952,15592,-126,362,-168,2025-01-29 15:06:30,0.0
-6940,1092,15240,-143,316,-170,2025-01-29 15:06:30,0.0
-6920,1084,15316,-174,321,-185,2025-01-29 15:06:30,0.0
-7000,1040,15328,-123,296,-133,2025-01-29 15:06:30,0.0
-6896,952,15432,-166,329,-158,2025-01-29 15:06:30,0.0
-7016,1064,15476,-181,373,-164,2025-01-29 15:06:30,0.0
-6948,1096,15332,-227,312,-120,2025-01-29 15:06:30,0.0
-6868,848,15304,-126,358,-133,2025-01-29 15:06:30,0.0
-6836,964,15204,-145,416,-158,2025-01-29 15:06:30,0.0
-7088,992,15292,-204,438,-171,2025-01-29 15:06:30,0.0
-7076,1080,15480,-234,329,-156,2025-01-29 15:06:30,0.0
-7112,956,15280,-138,230,-156,2025-01-29 15:06:30,0.0
-6952,1092,15232,-99,213,-162,2025-01-29 15:06:30,0.0
-6932,988,15392,-134,149,-161,2025-01-29 15:06:30,0.0
-6892,1004,15424,-119,201,-163,2025-01-29 15:06:30,0.0
-6908,1008,15392,-132,278,-183,2025-01-29 15:06:30,0.0
-6964,916,15308,-148,356,-229,2025-01-29 15:06:30,0.0
-7020,908,15376,-118,396,-210,2025-01-29 15:06:30,0.0
-7112,1000,15328,-169,331,-218,2025-01-29 15:06:30,0.0
-7000,1072,15216,-127,275,-242,2025-01-29 15:06:30,0.0
-7028,888,15172,-149,161,-229,2025-01-29 15:06:30,0.0
-7072,960,15308,-185,164,-230,2025-01-29 15:06:30,0.0
-7072,1020,15360,-136,185,-233,2025-01-29 15:06:30,0.0
-7024,1044,15312,-168,231,-221,2025-01-29 15:06:30,0.0
-7044,1000,15216,-200,236,-257,2025-01-29 15:06:30,0.0
-7060,892,15292,-205,338,-295,2025-01-29 15:06:30,0.0
-6896,1052,15208,-181,418,-325,2025-01-29 15:06:30,0.0
-6956,1028,15272,-143,504,-396,2025-01-29 15:06:30,0.0
-6740,1068,15144,-109,644,-460,2025-01-29 15:06:30,0.0
-7048,792,15184,-34,711,-486,2025-01-29 15:06:30,0.0
-7348,592,14996,-22,746,-468,2025-01-29 15:06:30,0.0
-7560,604,14780,-37,642,-561,2025-01-29 15:06:30,0.0
-7620,672,14972,-11,479,-657,2025-01-29 15:06:30,0.0
-7768,740,15216,48,269,-778,2025-01-29 15:06:30,0.0
-8200,928,14884,146,-157,-753,2025-01-29 15:06:30,0.0
-7748,1100,14704,154,-836,-596,2025-01-29 15:06:30,0.0
-6740,1224,14740,233,-968,-337,2025-01-29 15:06:30,0.0
-6196,940,15080,284,-834,-219,2025-01-29 15:06:30,0.0
-6268,844,15316,305,-539,-149,2025-01-29 15:06:30,0.0
-6332,596,15704,306,-53,-102,2025-01-29 15:06:30,0.0
-6412,624,16168,385,299,-64,2025-01-29 15:06:30,0.0
-6272,744,15960,424,469,-62,2025-01-29 15:06:30,0.0
-6184,892,15596,374,687,-108,2025-01-29 15:06:30,
-6364,1056,15196,275,967,-129,2025-01-29 15:06:30,0.0
-6636,1144,15228,359,933,-25,2025-01-29 15:06:30,0.0
-6588,1172,15144,401,810,135,2025-01-29 15:06:30,0.0
-6752,1168,15392,444,604,170,2025-01-29 15:06:30,0.0
-6116,1396,16252,401,-48,296,2025-01-29 15:06:30,0.0
-6948,1308,15560,421,239,295,2025-01-29 15:06:30,0.0
-7104,1308,15392,431,-127,248,2025-01-29 15:06:30,0.0
-6828,1164,14480,449,-310,222,2025-01-29 15:06:31,0.0
-6656,1064,14336,380,-275,106,2025-01-29 15:06:31,0.0
-6472,916,14596,257,-192,-16,2025-01-29 15:06:31,0.0
-6624,1100,15392,171,-319,-150,2025-01-29 15:06:31,0.0
-6556,1444,15976,89,-592,-284,2025-01-29 15:06:31,0.0
-6772,1432,16244,237,-961,-349,2025-01-29 15:06:31,0.0
-6872,1644,16152,258,-1106,-316,2025-01-29 15:06:31,0.0
-6864,1328,16140,246,-898,-387,2025-01-29 15:06:31,0.0
-6572,1356,16016,334,-344,-238,2025-01-29 15:06:31,0.0
-6940,1504,16036,626,-263,-298,2025-01-29 15:06:31,0.0
-6464,1592,15828,639,-512,-167,2025-01-29 15:06:31,0.0
-5884,1768,15772,524,-294,-130,2025-01-29 15:06:31,0.0
-5828,1624,15684,258,341,-132,2025-01-29 15:06:31,0.0
-5372,1820,15524,150,1950,-364,2025-01-29 15:06:31,0.0
-5500,1588,15956,305,3363,-698,2025-01-29 15:06:31,0.0
-6480,1264,15760,450,4143,-804,2025-01-29 15:06:31,0.0
-7260,1080,16160,603,4356,-697,2025-01-29 15:06:31,0.0
-7216,1152,15300,816,4291,-497,2025-01-29 15:06:31,0.0
-6192,1436,15288,998,4627,-493,2025-01-29 15:06:31,0.0
-9032,2040,16344,1037,6203,-617,2025-01-29 15:06:31,0.0
-6896,1792,15672,1163,7146,-641,2025-01-29 15:06:31,0.0
-6776,1332,15072,1329,7365,-828,2025-01-29 15:06:31,0.0
-7636,808,15836,1405,7347,-697,2025-01-29 15:06:31,0.0
-9288,448,15192,863,8039,-349,2025-01-29 15:06:31,0.0
-8840,220,15948,533,7425,-783,2025-01-29 15:06:31,0.0
-9052,364,17500,787,6708,-1234,2025-01-29 15:06:31,0.0
-10360,1064,18296,1293,6644,-1412,2025-01-29 15:06:31,0.0
-9968,2192,16904,1630,7138,-1337,2025-01-29 15:06:31,0.0
-10956,2732,17428,1606,7550,-986,2025-01-29 15:06:31,0.0
-11728,2356,17716,908,6410,-570,2025-01-29 15:06:31,0.0
-11824,1620,17260,271,4829,-282,2025-01-29 15:06:31,0.0
-11040,1408,15772,-55,4742,-151,2025-01-29 15:06:31,0.0
-10860,1120,14440,45,6587,-292,2025-01-29 15:06:31,0.0
-12524,1712,14164,262,8585,-518,2025-01-29 15:06:31,0.0
-12800,2268,14096,410,8584,-643,2025-01-29 15:06:31,0.0
-12924,2536,13984,443,7722,-608,2025-01-29 15:06:31,0.0
-12664,2556,13380,610,6776,-311,2025-01-29 15:06:31,0.0
-12120,2516,12488,714,6601,-268,2025-01-29 15:06:31,0.0
-11308,2616,11332,453,6504,-422,2025-01-29 15:06:31,0.0
-11120,2540,10996,141,6565,-453,2025-01-29 15:06:31,0.0
-11572,2576,10988,-148,6713,-326,2025-01-29 15:06:31,0.0
-11652,2616,11188,-140,6854,-227,2025-01-29 15:06:31,0.0
-11676,2416,10740,152,6838,-138,2025-01-29 15:06:31,0.0
-11016,1864,9788,147,7011,-207,2025-01-29 15:06:31,0.0
-10756,1572,9280,-42,7401,-469,2025-01-29 15:06:31,0.0
-11076,1496,9412,-94,8118,-609,2025-01-29 15:06:31,0.0
-11672,1524,9524,-127,8226,-742,2025-01-29 15:06:31,0.0
-12116,1636,9264,-227,7666,-783,2025-01-29 15:06:31,0.0
-11972,1992,8676,-320,7018,-860,2025-01-29 15:06:31,0.0
-11644,1928,7868,-296,6577,-890,2025-01-29 15:06:31,0.0
-11432,1944,7372,-515,6297,-618,2025-01-29 15:06:31,0.0
-10916,1764,8020,-655,6396,-664,2025-01-29 15:06:31,0.0
-10836,1856,8728,-740,6866,-702,2025-01-29 15:06:31,0.0
-11284,2016,8804,-550,7480,-688,2025-01-29 15:06:31,0.0
-12024,1884,8456,-216,8522,-739,2025-01-29 15:06:31,0.0
-12648,1864,7620,-150,9042,-1091,2025-01-29 15:06:31,0.0
-13252,1704,6972,-563,8108,-937,2025-01-29 15:06:31,0.0
-13560,1564,6176,-1082,7052,-688,2025-01-29 15:06:31,0.0
-13644,1588,5900,-1347,6503,-730,2025-01-29 15:06:31,0.0
-13764,1936,6008,-1364,6376,-745,2025-01-29 15:06:31,0.0
-13652,2440,5752,-1274,6670,-544,2025-01-29 15:06:32,0.0
-13376,2028,5016,-1085,7459,-679,2025-01-29 15:06:32,0.0
-13636,2060,5532,-1217,8227,-756,2025-01-29 15:06:32,0.0
-14956,2320,5056,-1144,9535,-145,2025-01-29 15:06:32,0.0
-12824,1440,4796,-1174,10099,-264,2025-01-29 15:06:32,0.0
-12884,784,5044,-789,9452,-983,2025-01-29 15:06:32,0.0
-13024,500,4932,-379,9062,-1430,2025-01-29 15:06:32,0.0
-13608,708,4360,123,9386,-1641,2025-01-29 15:06:32,0.0
-13608,916,4288,376,9454,-1576,2025-01-29 15:06:32,0.0
-13488,968,3744,608,8632,-1509,2025-01-29 15:06:32,0.0
-13304,1240,3816,775,7457,-1418,2025-01-29 15:06:32,0.0
-13308,1684,3464,1160,6138,-1338,2025-01-29 15:06:32,0.0
-13064,1476,2908,1445,5492,-1431,2025-01-29 15:06:32,0.0
-12632,1320,2868,1590,4759,-1331,2025-01-29 15:06:32,0.0
-12636,868,2768,1594,3832,-1303,2025-01-29 15:06:32,0.0
-11940,716,2716,1716,2809,-1373,2025-01-29 15:06:32,0.0
-11876,912,2476,2085,2259,-1549,2025-01-29 15:06:32,0.0
-11828,1196,2044,2410,2315,-1711,2025-01-29 15:06:32,0.0
-12044,996,1484,2661,2797,-1676,2025-01-29 15:06:32,0.0
-11560,576,1280,2703,2854,-1622,2025-01-29 15:06:32,0.0
-11428,372,968,2723,2327,-1680,2025-01-29 15:06:32,0.0
-11564,672,244,2387,1523,-1721,2025-01-29 15:06:32,0.0
-11492,1148,172,2055,1029,-1863,2025-01-29 15:06:32,0.0
-11712,1568,252,1910,475,-1881,2025-01-29 15:06:32,0.0
-11968,2344,928,1619,282,-1624,2025-01-29 15:06:32,0.0
-12208,2172,1344,1334,357,-1242,2025-01-29 15:06:32,0.0
-12404,1320,1404,1002,300,-962,2025-01-29 15:06:32,0.0
-12448,696,1184,765,-177,-645,2025-01-29 15:06:32,0.0
-12200,444,-2320,220,-1757,-727,2025-01-29 15:06:32,0.0
-12064,-264,-908,431,-164,-596,2025-01-29 15:06:32,0.0
-13228,-560,-1896,441,647,-1037,2025-01-29 15:06:32,0.0
-13748,-232,-1348,699,1988,-1307,2025-01-29 15:06:32,0.0
-13744,500,-432,786,2790,-1469,2025-01-29 15:06:32,
-13104,1676,92,163,2151,-1821,2025-01-29 15:06:32,0.0
-13108,1380,-296,-580,785,-2330,2025-01-29 15:06:32,0.0
-12992,124,-492,-1131,-326,-2794,2025-01-29 15:06:32,0.0
-13112,-904,-460,-1318,-709,-3008,2025-01-29 15:06:32,0.0
-13120,-2352,260,-1272,-814,-2749,2025-01-29 15:06:32,0.0
-12576,-3128,1548,-1088,-864,-2174,2025-01-29 15:06:32,0.0
-12312,-3092,1956,-531,-452,-1591,2025-01-29 15:06:32,0.0
-12168,-2668,1472,160,845,-1174,2025-01-29 15:06:32,0.0
-11980,-2076,592,421,2171,-1098,2025-01-29 15:06:32,0.0
-11952,-1352,468,77,3029,-1162,2025-01-29 15:06:32,0.0
-12644,-1040,1712,-499,4665,-1165,2025-01-29 15:06:32,0.0
-13136,-1324,2048,-607,5424,-1475,2025-01-29 15:06:32,0.0
-13904,-1912,1776,-759,5633,-1962,2025-01-29 15:06:32,0.0
-14824,-2244,2116,-775,4713,-2379,2025-01-29 15:06:32,0.0
-15244,-2244,2832,-310,2436,-2155,2025-01-29 15:06:32,0.0
-15056,-2368,3184,206,-727,-1389,2025-01-29 15:06:32,0.0
