acceleration_x,acceleration_y,acceleration_z,gyroscope_x,gyroscope_y,gyroscope_z,timestamp,label
-13716,-936,-672,-163,214,-191,2025-01-29 15:14:53,0.0
-13616,-916,-504,-169,166,-181,2025-01-29 15:14:53,0.0
-13784,-944,-668,-116,139,-186,2025-01-29 15:14:53,0.0
-13692,-904,-600,-100,79,-169,2025-01-29 15:14:53,0.0
-13680,-980,-608,-105,98,-178,2025-01-29 15:14:53,0.0
-13508,-908,-552,-95,143,-186,2025-01-29 15:14:53,0.0
-13572,-964,-608,-82,276,-198,2025-01-29 15:14:53,0.0
-13704,-872,-620,-109,301,-189,2025-01-29 15:14:53,0.0
-13808,-948,-724,-77,212,-197,2025-01-29 15:14:53,0.0
-13656,-1024,-688,-55,193,-141,2025-01-29 15:14:53,0.0
-13544,-816,-552,-72,313,-154,2025-01-29 15:14:53,0.0
-13652,-976,-932,-111,109,-201,2025-01-29 15:14:53,0.0
-13740,-1028,-840,-91,-71,-205,2025-01-29 15:14:53,0.0
-13660,-1032,-724,-84,19,-190,2025-01-29 15:14:53,0.0
-13600,-804,-668,-55,98,-180,2025-01-29 15:14:53,0.0
-13644,-836,-588,-115,157,-168,2025-01-29 15:14:53,0.0
-13716,-804,-444,-114,174,-161,2025-01-29 15:14:53,0.0
-13660,-836,-760,-114,193,-139,2025-01-29 15:14:53,0.0
-13700,-792,-736,-161,167,-123,2025-01-29 15:14:53,0.0
-13668,-828,-860,-150,148,-176,2025-01-29 15:14:53,0.0
-13488,-904,-680,-162,156,-161,2025-01-29 15:14:53,0.0
-13608,-812,-812,-161,222,-172,2025-01-29 15:14:53,0.0
-13572,-748,-716,-194,315,-189,2025-01-29 15:14:53,0.0
-13744,-820,-720,-165,350,-186,2025-01-29 15:14:53,0.0
-13692,-812,-764,-192,302,-212,2025-01-29 15:14:53,0.0
-13772,-704,-780,-249,191,-160,2025-01-29 15:14:53,0.0
-13776,-880,-592,-249,105,-199,2025-01-29 15:14:53,0.0
-13700,-908,-664,-221,59,-175,2025-01-29 15:14:53,0.0
-13648,-864,-728,-204,92,-146,2025-01-29 15:14:53,0.0
-13528,-924,-592,-226,118,-160,2025-01-29 15:14:53,0.0
-13740,-796,-496,-209,138,-177,2025-01-29 15:14:53,0.0
-13592,-1000,-704,-212,113,-214,2025-01-29 15:14:53,0.0
-13716,-936,-800,-215,149,-167,2025-01-29 15:14:53,0.0
-13624,-1060,-668,-153,230,-198,2025-01-29 15:14:53,0.0
-13596,-1012,-660,-133,256,-224,2025-01-29 15:14:53,0.0
-13600,-1088,-564,-51,294,-239,2025-01-29 15:14:53,0.0
-13672,-1116,-708,0,280,-278,2025-01-29 15:14:53,0.0
-13716,-1020,-540,50,353,-261,2025-01-29 15:14:53,0.0
-13692,-1128,-760,117,452,-229,2025-01-29 15:14:53,0.0
-13680,-1080,-596,134,446,-195,2025-01-29 15:14:53,0.0
-13640,-916,-640,90,373,-187,2025-01-29 15:14:53,0.0
-13696,-840,-620,118,491,-190,2025-01-29 15:14:53,0.0
-13720,-928,-732,73,163,-199,2025-01-29 15:14:53,0.0
-13776,-900,-672,121,-42,-155,2025-01-29 15:14:54,0.0
-13668,-1000,-812,151,57,-159,2025-01-29 15:14:54,0.0
-13536,-776,-796,76,170,-153,2025-01-29 15:14:54,0.0
-13676,-756,-812,21,191,-155,2025-01-29 15:14:54,0.0
-13708,-624,-804,-97,303,-191,2025-01-29 15:14:54,0.0
-13684,-688,-904,-191,407,-192,2025-01-29 15:14:54,0.0
-13572,-688,-772,-249,339,-183,2025-01-29 15:14:54,0.0
-13628,-780,-708,-344,289,-177,2025-01-29 15:14:54,0.0
-13632,-748,-916,-396,244,-178,2025-01-29 15:14:54,0.0
-13612,-800,-1132,-448,266,-179,2025-01-29 15:14:54,0.0
-13772,-908,-1072,-461,242,-196,2025-01-29 15:14:54,0.0
-13872,-816,-732,-472,158,-123,2025-01-29 15:14:54,0.0
-13780,-768,-852,-479,112,-126,2025-01-29 15:14:54,0.0
-13808,-884,-836,-471,-80,-110,2025-01-29 15:14:54,0.0
-13792,-880,-856,-451,-282,-62,2025-01-29 15:14:54,0.0
-13648,-992,-1064,-377,-237,-2,2025-01-29 15:14:54,0.0
-13544,-924,-1028,-304,-87,-20,2025-01-29 15:14:54,0.0
-13580,-904,-980,-238,80,-21,2025-01-29 15:14:54,0.0
-13720,-808,-1088,-159,129,34,2025-01-29 15:14:54,0.0
-13628,-760,-1124,-105,17,-7,2025-01-29 15:14:54,0.0
-13624,-744,-988,-102,-9,-34,2025-01-29 15:14:54,0.0
-13544,-604,-996,-104,-23,47,2025-01-29 15:14:54,0.0
-13456,-496,-1096,-104,98,43,2025-01-29 15:14:54,0.0
-13300,-356,-1232,-112,434,76,2025-01-29 15:14:54,0.0
-13320,-272,-1164,-171,905,35,2025-01-29 15:14:54,0.0
-13348,-392,-1064,-178,1326,-16,2025-01-29 15:14:54,0.0
-13484,-296,-952,-164,1618,-75,2025-01-29 15:14:54,0.0
-13852,-276,-956,-106,1723,-36,2025-01-29 15:14:54,0.0
-14000,-60,-868,-60,1563,-28,2025-01-29 15:14:54,0.0
-14272,-128,-508,-157,827,45,2025-01-29 15:14:54,0.0
-14276,64,-368,-113,238,133,2025-01-29 15:14:54,0.0
-14044,132,-512,-135,-327,207,2025-01-29 15:14:54,0.0
-13608,224,-568,-173,-681,140,2025-01-29 15:14:54,0.0
-13280,316,-512,-319,-682,-50,2025-01-29 15:14:54,0.0
-13268,248,-556,-530,-407,-242,2025-01-29 15:14:54,0.0
-13380,344,-428,-572,43,-404,2025-01-29 15:14:54,0.0
-13584,208,-100,-531,272,-532,2025-01-29 15:14:54,0.0
-13648,176,268,-539,328,-786,2025-01-29 15:14:54,0.0
-13704,-64,-36,-616,-58,-991,2025-01-29 15:14:54,0.0
-13820,-32,-100,-656,-779,-1087,2025-01-29 15:14:54,0.0
-13720,16,-304,-800,-1015,-1085,2025-01-29 15:14:54,0.0
-13744,284,-548,-923,-829,-1142,2025-01-29 15:14:54,0.0
-13792,364,-852,-1127,-520,-1285,2025-01-29 15:14:54,0.0
-14088,80,-1152,-1356,-352,-1456,2025-01-29 15:14:54,0.0
-14436,-112,-1052,-1472,-625,-1545,2025-01-29 15:14:54,0.0
-14552,-544,-1060,-1481,-1141,-1595,2025-01-29 15:14:54,0.0
-14504,-1016,-992,-1393,-1856,-1639,2025-01-29 15:14:54,0.0
-14244,-1216,-936,-1186,-2635,-1648,2025-01-29 15:14:54,0.0
-13676,-1612,-644,-875,-3134,-1629,2025-01-29 15:14:54,0.0
-13028,-2080,-608,-508,-3454,-1734,2025-01-29 15:14:54,0.0
-12532,-2812,-424,-111,-3243,-1990,2025-01-29 15:14:54,0.0
-12344,-3628,92,220,-2569,-2317,2025-01-29 15:14:54,0.0
-12608,-4076,1204,872,-1178,-2415,2025-01-29 15:14:54,0.0
-13084,-3584,1804,1626,289,-1962,2025-01-29 15:14:54,0.0
-13232,-3008,1964,2132,1739,-1415,2025-01-29 15:14:54,0.0
-12904,-2032,2092,2061,2459,-1314,2025-01-29 15:14:54,0.0
-13608,-852,1824,1135,2314,-1595,2025-01-29 15:14:54,
-14324,528,1748,-13,1693,-1711,2025-01-29 15:14:54,0.0
-14748,876,1172,-1130,781,-1893,2025-01-29 15:14:54,0.0
-14300,552,604,-2428,42,-2033,2025-01-29 15:14:54,0.0
-13340,-1096,544,-3791,-88,-2776,2025-01-29 15:14:54,0.0
-13364,-2932,1444,-4181,-111,-3307,2025-01-29 15:14:54,0.0
-13624,-3608,2056,-3793,-279,-3067,2025-01-29 15:14:54,0.0
-13840,-3632,2380,-3206,-505,-2550,2025-01-29 15:14:54,0.0
-13672,-2912,2652,-2965,-755,-2156,2025-01-29 15:14:55,0.0
-13620,-2536,2848,-2931,-1401,-2041,2025-01-29 15:14:55,0.0
-13988,-2396,3468,-2858,-2668,-1750,2025-01-29 15:14:55,0.0
-13272,-2716,3108,-2486,-3955,-1132,2025-01-29 15:14:55,0.0
-12664,-2832,2832,-2333,-4080,-695,2025-01-29 15:14:55,0.0
-12756,-2828,2528,-2169,-2759,-299,2025-01-29 15:14:55,0.0
-12608,-2964,2168,-1935,-956,301,2025-01-29 15:14:55,0.0
-12448,-2916,2112,-1756,334,649,2025-01-29 15:14:55,0.0
-12896,-2624,2168,-1504,1174,962,2025-01-29 15:14:55,0.0
-13288,-2704,2076,-1320,1592,1247,2025-01-29 15:14:55,0.0
-13272,-3164,2016,-1384,1982,1234,2025-01-29 15:14:55,0.0
-13504,-3412,2072,-1848,1845,635,2025-01-29 15:14:55,0.0
-14176,-2736,2888,-2307,982,-23,2025-01-29 15:14:55,0.0
-15056,-1792,3228,-2382,-371,-27,2025-01-29 15:14:55,0.0
-14628,-1212,2392,-2345,-1638,493,2025-01-29 15:14:55,0.0
-13500,-752,1528,-2758,-1955,786,2025-01-29 15:14:55,0.0
-12780,-1216,1520,-3870,-677,575,2025-01-29 15:14:55,0.0
-12636,-2312,2340,-4834,1453,115,2025-01-29 15:14:55,0.0
-13112,-3400,2704,-5467,2432,-393,2025-01-29 15:14:55,0.0
-13896,-3512,3024,-6126,2660,-966,2025-01-29 15:14:55,0.0
-15108,-3320,3532,-6286,2498,-678,2025-01-29 15:14:55,0.0
-15004,-4524,852,-5792,3323,-660,2025-01-29 15:14:55,0.0
-15744,-5156,-1128,-6016,4591,-1607,2025-01-29 15:14:55,0.0
-16532,-5864,1548,-5487,5456,-2666,2025-01-29 15:14:55,0.0
-17520,-6708,2516,-3713,4892,-3164,2025-01-29 15:14:55,0.0
-19224,-7220,1836,-1976,2222,-2085,2025-01-29 15:14:55,0.0
-19452,-6304,908,-611,-1023,-476,2025-01-29 15:14:55,0.0
-17964,-4228,356,518,-3515,-23,2025-01-29 15:14:55,0.0
-17672,-2664,-304,942,-4780,331,2025-01-29 15:14:55,0.0
-17420,-1480,-480,1168,-5968,2106,2025-01-29 15:14:55,0.0
-15196,-1644,-1592,1183,-7045,5006,2025-01-29 15:14:55,0.0
-12668,-2032,-2736,1136,-6515,6205,2025-01-29 15:14:55,0.0
-10620,-1964,-3884,827,-3875,5767,2025-01-29 15:14:55,0.0
-9360,-1656,-4592,51,-1064,4278,2025-01-29 15:14:55,0.0
-9312,-300,-3508,-516,313,2679,2025-01-29 15:14:55,0.0
-10084,1320,-2280,-597,942,1288,2025-01-29 15:14:55,0.0
-12556,1824,-1604,-159,1576,565,2025-01-29 15:14:55,0.0
-13924,736,-1124,261,2119,1259,2025-01-29 15:14:55,0.0
-14028,-724,-1088,273,2711,1802,2025-01-29 15:14:55,0.0
-14524,-1612,388,510,2887,2236,2025-01-29 15:14:55,0.0
-14504,-1812,608,1224,2384,2400,2025-01-29 15:14:55,0.0
-14452,-1428,484,2038,1269,2537,2025-01-29 15:14:55,0.0
-13860,-860,268,2770,-233,2463,2025-01-29 15:14:55,0.0
-13824,52,-68,3159,-1589,2471,2025-01-29 15:14:55,0.0
-13120,952,-56,3099,-1625,2698,2025-01-29 15:14:55,0.0
-11984,900,204,2935,-697,2414,2025-01-29 15:14:55,0.0
-11600,832,212,2748,466,1778,2025-01-29 15:14:55,0.0
-11968,788,-76,2631,1363,1553,2025-01-29 15:14:55,0.0
-12108,788,248,2643,1654,1539,2025-01-29 15:14:55,0.0
-12516,860,312,2566,1682,1585,2025-01-29 15:14:55,0.0
-12772,816,324,2579,1373,1644,2025-01-29 15:14:55,0.0
-13108,608,564,2613,717,1628,2025-01-29 15:14:55,0.0
-13260,336,1020,2651,-118,1439,2025-01-29 15:14:55,0.0
-13020,448,1388,2433,-1263,1029,2025-01-29 15:14:55,0.0
-12544,392,1896,2375,-2143,503,2025-01-29 15:14:55,0.0
-12168,568,1880,2511,-2643,76,2025-01-29 15:14:55,0.0
-11936,504,2156,2858,-2451,-202,2025-01-29 15:14:55,0.0
-12348,-52,2832,3241,-1732,-338,2025-01-29 15:14:55,0.0
-12936,-564,3020,3569,-1430,-611,2025-01-29 15:14:55,0.0
-13636,-348,3180,3876,-1606,-856,2025-01-29 15:14:55,0.0
-14200,588,3396,4312,-2109,-794,2025-01-29 15:14:55,0.0
-14456,1684,2480,4844,-3314,-284,2025-01-29 15:14:56,0.0
-13844,2120,276,4737,-4072,93,2025-01-29 15:14:56,0.0
-13188,1628,-884,3881,-3555,305,2025-01-29 15:14:56,0.0
-12516,1232,172,3423,-1609,418,2025-01-29 15:14:56,0.0
-12752,616,1908,3817,1617,564,2025-01-29 15:14:56,0.0
-14056,332,3708,4772,3518,693,2025-01-29 15:14:56,0.0
-16692,328,3312,6191,5551,910,2025-01-29 15:14:56,0.0
-18956,-152,1080,6674,7759,1431,2025-01-29 15:14:56,0.0
-19160,1804,160,6079,7732,2228,2025-01-29 15:14:56,0.0
-18384,4588,-2576,4365,4870,3013,2025-01-29 15:14:56,0.0
-18160,6312,-4140,1896,2475,3024,2025-01-29 15:14:56,0.0
-17864,6252,-3824,-222,1477,2308,2025-01-29 15:14:56,0.0
-16232,4848,-2984,-2333,-107,1128,2025-01-29 15:14:56,0.0
-13800,3028,-2204,-3560,-3274,-388,2025-01-29 15:14:56,0.0
-12116,492,-2644,-4147,-7907,-2036,2025-01-29 15:14:56,0.0
-10840,-2116,-2564,-4205,-12090,-3359,2025-01-29 15:14:56,0.0
-11140,-4504,-2712,-3978,-13490,-3901,2025-01-29 15:14:56,0.0
-11788,-5888,-1816,-3206,-9218,-2997,2025-01-29 15:14:56,0.0
-11964,-4896,-332,-708,-318,-1431,2025-01-29 15:14:56,0.0
-11792,-3160,-1120,2025,6087,-663,2025-01-29 15:14:56,0.0
-11552,-1176,-1284,2574,9313,-771,2025-01-29 15:14:56,0.0
-12060,284,-156,2180,10738,-1701,2025-01-29 15:14:56,0.0
-13912,712,0,1024,11058,-2649,2025-01-29 15:14:56,0.0
-15664,64,-372,7,9454,-3201,2025-01-29 15:14:56,0.0
-16568,-1140,-836,-734,5066,-3374,2025-01-29 15:14:56,0.0
-16224,-2320,-412,-710,-1492,-2854,2025-01-29 15:14:56,0.0
-15132,-2732,216,-349,-6867,-2032,2025-01-29 15:14:56,0.0
-13104,-2552,132,-447,-9223,-1615,2025-01-29 15:14:56,0.0
-11844,-2088,16,-642,-9360,-1864,2025-01-29 15:14:56,0.0
-10528,-1468,-716,-806,-7251,-2188,2025-01-29 15:14:56,0.0
-10364,-796,-848,-1007,-3141,-2461,2025-01-29 15:14:56,0.0
-10648,-1104,-564,-1293,1180,-2467,2025-01-29 15:14:56,
-11240,-1704,20,-1332,3933,-2196,2025-01-29 15:14:56,0.0
-12120,-1900,220,-1337,4635,-1904,2025-01-29 15:14:56,0.0
-13056,-2156,560,-1412,4645,-1527,2025-01-29 15:14:56,0.0
-14056,-1900,1344,-1476,3937,-1089,2025-01-29 15:14:56,0.0
-14724,-1624,1444,-1272,2165,-143,2025-01-29 15:14:56,0.0
-14684,-1452,1420,-977,95,958,2025-01-29 15:14:56,0.0
-13884,-1192,1416,-944,-1753,1936,2025-01-29 15:14:56,0.0
-13236,-1164,1328,-1017,-2721,2522,2025-01-29 15:14:56,0.0
-12584,-1264,1144,-1040,-3047,2960,2025-01-29 15:14:56,0.0
-11968,-1380,1380,-1109,-2970,3223,2025-01-29 15:14:56,0.0
-11720,-1548,1512,-1248,-2327,3337,2025-01-29 15:14:56,0.0
-11688,-1792,1532,-1411,-1396,3233,2025-01-29 15:14:56,0.0
-12232,-1608,1372,-1577,-259,3166,2025-01-29 15:14:56,0.0
-12568,-1356,744,-1705,815,3042,2025-01-29 15:14:56,0.0
-13068,-180,504,-2324,1987,2613,2025-01-29 15:14:56,0.0
-12792,1140,292,-3445,3071,1546,2025-01-29 15:14:56,0.0
-13732,1044,448,-4839,3809,-71,2025-01-29 15:14:56,0.0
-15608,-576,1552,-5717,3572,-1277,2025-01-29 15:14:56,0.0
-16724,-1872,2632,-5945,2356,-1482,2025-01-29 15:14:56,0.0
-16956,-1888,3500,-6072,877,-1286,2025-01-29 15:14:56,0.0
-16720,-1440,3756,-6174,-355,-976,2025-01-29 15:14:56,0.0
-16404,-1372,2092,-6017,-201,-788,2025-01-29 15:14:56,0.0
-16296,-1540,-344,-6103,1266,-1500,2025-01-29 15:14:56,0.0
-16208,-3812,404,-6498,2011,-2946,2025-01-29 15:14:56,0.0
-16508,-6160,1416,-5337,2205,-4315,2025-01-29 15:14:56,0.0
-17684,-7148,2072,-2783,1303,-4265,2025-01-29 15:14:56,0.0
-18556,-6060,2492,941,-691,-2413,2025-01-29 15:14:56,0.0
-17644,-2288,632,2741,-2634,-931,2025-01-29 15:14:56,0.0
-16680,916,-1512,2386,-4531,106,2025-01-29 15:14:57,0.0
-15652,2480,-2988,1665,-6320,1640,2025-01-29 15:14:57,0.0
-12932,1792,-3912,1052,-7311,3128,2025-01-29 15:14:57,0.0
-10236,1056,-4616,269,-6381,2864,2025-01-29 15:14:57,0.0
-8868,1296,-5016,-1339,-3098,1456,2025-01-29 15:14:57,0.0
-9440,1800,-5132,-2781,2142,-240,2025-01-29 15:14:57,0.0
-11800,2260,-4608,-3504,6567,-1028,2025-01-29 15:14:57,0.0
-13096,2556,-3352,-3301,7998,-1053,2025-01-29 15:14:57,0.0
-15192,2288,-2716,-3145,7825,-588,2025-01-29 15:14:57,0.0
-15472,1256,-2876,-3401,5881,123,2025-01-29 15:14:57,0.0
-15936,320,-1384,-3300,3372,1026,2025-01-29 15:14:57,0.0
-15624,-528,-772,-2824,1108,1742,2025-01-29 15:14:57,0.0
-15244,-676,-984,-2390,-138,2174,2025-01-29 15:14:57,0.0
-14468,-520,-424,-1535,-888,2562,2025-01-29 15:14:57,0.0
-13008,-540,-548,-713,-1482,2510,2025-01-29 15:14:57,0.0
-11744,-144,-1248,-27,-1911,2324,2025-01-29 15:14:57,0.0
-11168,520,-1608,386,-1626,2048,2025-01-29 15:14:57,0.0
-11356,1052,-1476,462,-364,1723,2025-01-29 15:14:57,0.0
-11216,1772,-1700,367,2033,1351,2025-01-29 15:14:57,0.0
-11580,1872,-2092,130,4175,1157,2025-01-29 15:14:57,0.0
-12268,2044,-1800,-82,5063,954,2025-01-29 15:14:57,0.0
-12436,1936,-1756,-306,5049,732,2025-01-29 15:14:57,0.0
-13064,2000,-1364,-290,4705,605,2025-01-29 15:14:57,0.0
-13728,1796,-1552,-13,4474,902,2025-01-29 15:14:57,0.0
-14044,1344,-1868,412,4267,1163,2025-01-29 15:14:57,0.0
-14272,716,-1560,739,3795,1340,2025-01-29 15:14:57,0.0
-14356,128,-1056,1074,3160,1410,2025-01-29 15:14:57,0.0
-13976,84,-772,1402,2334,1302,2025-01-29 15:14:57,0.0
-13284,328,-668,1728,1111,956,2025-01-29 15:14:57,0.0
-12728,632,-1572,2007,-495,627,2025-01-29 15:14:57,0.0
-12020,940,-2144,2220,-1610,168,2025-01-29 15:14:57,0.0
-10948,1200,-2584,2487,-1969,-506,2025-01-29 15:14:57,0.0
-10560,1220,-2468,2794,-1018,-1128,2025-01-29 15:14:57,0.0
-10368,1032,-2716,2935,598,-1615,2025-01-29 15:14:57,0.0
-10568,804,-2844,3063,1780,-2197,2025-01-29 15:14:57,0.0
-11436,484,-2624,3063,1982,-2696,2025-01-29 15:14:57,0.0
-11896,84,-2716,3295,1051,-2883,2025-01-29 15:14:57,0.0
-11880,16,-3304,3433,-348,-2680,2025-01-29 15:14:57,0.0
-11140,-192,-3684,3180,-1928,-2183,2025-01-29 15:14:57,0.0
-10124,188,-3516,2913,-2712,-1795,2025-01-29 15:14:57,0.0
-9372,432,-3704,2760,-3055,-1321,2025-01-29 15:14:57,0.0
-8720,804,-4192,2228,-3010,-780,2025-01-29 15:14:57,0.0
-7808,1424,-4572,924,-3020,-632,2025-01-29 15:14:57,0.0
-7432,2248,-4392,-653,-3784,-611,2025-01-29 15:14:57,0.0
-7444,2204,-3280,-2319,-3833,-465,2025-01-29 15:14:57,0.0
-8124,1028,688,-3925,243,-686,2025-01-29 15:14:57,0.0
-13612,-588,8868,-3684,6165,-1049,2025-01-29 15:14:57,0.0
-13568,-1836,4344,-2236,6901,-873,2025-01-29 15:14:57,0.0
-15196,-1872,3288,-1345,3307,-644,2025-01-29 15:14:57,0.0
-14672,-1020,2516,-696,-580,-338,2025-01-29 15:14:57,0.0
-12576,-720,2356,187,-2953,433,2025-01-29 15:14:57,0.0
-9884,-1460,932,390,-4596,399,2025-01-29 15:14:57,0.0
-9664,-1308,-752,-184,-5640,-323,2025-01-29 15:14:57,0.0
-10380,-608,-792,-809,-5130,-665,2025-01-29 15:14:57,0.0
-10768,-488,488,-943,-3818,-1029,2025-01-29 15:14:57,0.0
-11168,-412,668,-1099,-2364,-1428,2025-01-29 15:14:57,0.0
-11920,-520,724,-1538,-2128,-1812,2025-01-29 15:14:57,0.0
-13756,328,480,-1633,-3399,-1732,2025-01-29 15:14:57,0.0
-14812,1168,820,-1740,-6546,-1010,2025-01-29 15:14:57,0.0
-14272,1116,1900,-1304,-7803,-260,2025-01-29 15:14:57,0.0
-14116,-280,2220,-1123,-10720,9,2025-01-29 15:14:57,0.0
-13104,-1172,900,-1273,-11212,38,2025-01-29 15:14:58,0.0
-13316,-1624,80,-1407,-11734,316,2025-01-29 15:14:58,0.0
-12708,-1620,324,-1377,-9255,-119,2025-01-29 15:14:58,0.0
-14444,-1252,1060,-1310,-7865,-190,2025-01-29 15:14:58,0.0
-14928,-780,1644,-1183,-6563,56,2025-01-29 15:14:58,0.0
-15580,-928,2584,-919,-6307,283,2025-01-29 15:14:58,0.0
-16468,-624,3324,-475,-7066,310,2025-01-29 15:14:58,0.0
-16092,-1088,4356,-177,-8284,86,2025-01-29 15:14:58,0.0
-14080,-1344,4180,43,-9320,-367,2025-01-29 15:14:58,0.0
-15804,136,4904,482,-11666,-70,2025-01-29 15:14:58,0.0
-16032,416,3884,293,-11918,514,2025-01-29 15:14:58,
-14812,-136,4808,523,-11406,878,2025-01-29 15:14:58,0.0
-14076,-1120,5408,716,-11533,671,2025-01-29 15:14:58,0.0
-12796,-948,5688,282,-11475,-3,2025-01-29 15:14:58,0.0
-12156,-28,5244,-173,-9412,-421,2025-01-29 15:14:58,0.0
-13088,1212,6836,152,-10654,-351,2025-01-29 15:14:58,0.0
-13332,672,6500,59,-9819,-141,2025-01-29 15:14:58,0.0
-13368,-644,7764,239,-9304,-368,2025-01-29 15:14:58,0.0
-13376,-1504,8352,35,-9731,-850,2025-01-29 15:14:58,0.0
-13700,-716,8576,81,-10090,-1059,2025-01-29 15:14:58,0.0
-13808,224,8860,110,-9615,-781,2025-01-29 15:14:58,0.0
-13880,312,9392,451,-8971,-172,2025-01-29 15:14:58,0.0
-14348,196,9792,631,-8459,112,2025-01-29 15:14:58,0.0
-13844,-428,10464,621,-8581,208,2025-01-29 15:14:58,0.0
-13056,-408,11052,125,-8674,-535,2025-01-29 15:14:58,0.0
-12612,296,11276,-645,-9276,-1266,2025-01-29 15:14:58,0.0
-12460,492,9496,-822,-7245,-1479,2025-01-29 15:14:58,0.0
-13624,248,9864,-943,-4894,-1477,2025-01-29 15:14:58,0.0
-15148,-340,12320,-915,-3583,-841,2025-01-29 15:14:58,0.0
-15436,-1016,14352,-812,-5315,-413,2025-01-29 15:14:58,0.0
-14300,-324,14016,-878,-8169,-368,2025-01-29 15:14:58,0.0
-13480,380,12428,-1272,-8761,-45,2025-01-29 15:14:58,0.0
-12488,500,12076,-1580,-7721,2,2025-01-29 15:14:58,0.0
-12512,120,12668,-1603,-6385,31,2025-01-29 15:14:58,0.0
-12744,-156,13600,-1368,-6655,47,2025-01-29 15:14:58,0.0
-12616,-288,13996,-941,-7958,199,2025-01-29 15:14:58,0.0
-12844,-948,14192,-363,-9886,538,2025-01-29 15:14:58,0.0
-11536,-1144,13424,251,-12476,984,2025-01-29 15:14:58,0.0
-9936,-1128,12916,288,-13745,778,2025-01-29 15:14:58,0.0
-9200,-480,12480,164,-12667,288,2025-01-29 15:14:58,0.0
-8392,-120,12296,158,-10041,50,2025-01-29 15:14:58,0.0
-9168,-140,13596,302,-6909,79,2025-01-29 15:14:58,0.0
-9428,-936,13712,560,-4065,13,2025-01-29 15:14:58,0.0
-10072,-1176,14548,806,-2230,-49,2025-01-29 15:14:58,0.0
-10420,-1032,15264,755,-1859,-223,2025-01-29 15:14:58,0.0
-10980,-708,15564,402,-2102,-347,2025-01-29 15:14:58,0.0
-10668,-420,15292,-14,-2323,-390,2025-01-29 15:14:58,0.0
-10068,-360,15592,-383,-2244,-351,2025-01-29 15:14:58,0.0
-9192,-540,15296,-638,-1940,-327,2025-01-29 15:14:58,0.0
-8884,-496,14668,-871,-1068,-325,2025-01-29 15:14:58,0.0
-8340,-444,14472,-987,442,-300,2025-01-29 15:14:58,0.0
-8192,-348,14576,-1089,1611,-283,2025-01-29 15:14:58,0.0
-8028,-360,14892,-1151,2083,-199,2025-01-29 15:14:58,0.0
-7976,-180,14840,-879,2040,17,2025-01-29 15:14:58,0.0
-8116,-288,14864,-540,1534,278,2025-01-29 15:14:58,0.0
-8072,-352,14592,-290,857,338,2025-01-29 15:14:58,0.0
-8016,-432,14204,-222,173,365,2025-01-29 15:14:58,0.0
-7724,-400,13948,-134,-262,255,2025-01-29 15:14:58,0.0
-7308,-392,13444,-14,-300,106,2025-01-29 15:14:58,0.0
-7228,-500,13376,30,-137,-15,2025-01-29 15:14:59,0.0
-7400,-276,13476,-25,72,-125,2025-01-29 15:14:59,0.0
-7896,-152,13624,-65,64,-116,2025-01-29 15:14:59,0.0
-8172,-108,13924,-314,-228,-110,2025-01-29 15:14:59,0.0
-8332,-400,14180,-480,-278,-131,2025-01-29 15:14:59,0.0
-8612,-376,14164,-544,-456,-95,2025-01-29 15:14:59,0.0
-8628,-688,14460,-442,-647,-32,2025-01-29 15:14:59,0.0
-8232,-788,14548,-323,-755,-8,2025-01-29 15:14:59,0.0
-8028,-780,14840,-215,-745,-92,2025-01-29 15:14:59,0.0
-8100,-516,14912,-241,-577,-111,2025-01-29 15:14:59,0.0
-8532,-360,14716,-283,-205,-118,2025-01-29 15:14:59,0.0
-9212,228,14716,-441,99,14,2025-01-29 15:14:59,0.0
-9080,196,15544,-67,414,511,2025-01-29 15:14:59,0.0
-8504,-64,15504,123,125,859,2025-01-29 15:14:59,0.0
-7656,-396,14868,146,134,878,2025-01-29 15:14:59,0.0
-7260,-556,14368,-24,224,625,2025-01-29 15:14:59,0.0
-7280,-696,14812,40,174,341,2025-01-29 15:14:59,0.0
-7532,-684,14592,63,-134,46,2025-01-29 15:14:59,0.0
-7788,-564,14460,38,-672,-362,2025-01-29 15:14:59,0.0
-7844,-424,14236,-161,-1087,-609,2025-01-29 15:14:59,0.0
-7956,-132,14144,-555,-1300,-705,2025-01-29 15:14:59,0.0
-8064,80,14068,-793,-1174,-622,2025-01-29 15:14:59,0.0
-8244,-436,14184,-817,-822,-544,2025-01-29 15:14:59,0.0
-8392,-1068,14276,-775,-386,-625,2025-01-29 15:14:59,0.0
-8412,-1064,14468,-743,52,-691,2025-01-29 15:14:59,0.0
-8540,-560,14364,-644,147,-613,2025-01-29 15:14:59,0.0
-8412,-324,14468,-536,116,-478,2025-01-29 15:14:59,0.0
-8408,-372,14384,-499,-45,-358,2025-01-29 15:14:59,0.0
-8496,-484,14504,-411,-118,-225,2025-01-29 15:14:59,0.0
-8012,-1192,14736,-247,-144,-380,2025-01-29 15:14:59,0.0
-7804,-744,14480,-287,-67,-491,2025-01-29 15:14:59,0.0
-7844,-100,14328,-407,115,-486,2025-01-29 15:14:59,0.0
-7888,148,14136,-422,251,-338,2025-01-29 15:14:59,0.0
-8080,-64,14524,-383,178,-240,2025-01-29 15:14:59,0.0
-8284,-376,14580,-372,-13,-149,2025-01-29 15:14:59,0.0
-8188,-496,14440,-329,-274,-83,2025-01-29 15:14:59,0.0
-8000,-496,14360,-273,-318,-57,2025-01-29 15:14:59,0.0
-7736,-492,14528,-200,-332,-77,2025-01-29 15:14:59,0.0
-7672,-712,14520,-52,-71,-177,2025-01-29 15:14:59,0.0
-7796,-776,14636,-5,381,-267,2025-01-29 15:14:59,0.0
-7728,-500,14628,65,692,-257,2025-01-29 15:14:59,0.0
-7716,-400,14864,50,916,-238,2025-01-29 15:14:59,0.0
-8408,-304,14968,80,858,-206,2025-01-29 15:14:59,0.0
-8564,-228,14944,50,217,-131,2025-01-29 15:14:59,0.0
-8208,-280,14768,-11,-387,-68,2025-01-29 15:14:59,0.0
-8072,-340,14736,-134,-602,-76,2025-01-29 15:14:59,0.0
-7992,-268,14572,-214,-498,-82,2025-01-29 15:14:59,0.0
-7864,-300,14780,-282,-278,-60,2025-01-29 15:14:59,0.0
-7964,-688,14808,-209,-149,-86,2025-01-29 15:14:59,0.0
-7840,-940,14932,-65,-162,-196,2025-01-29 15:14:59,0.0
-7848,-964,14960,56,-149,-319,2025-01-29 15:14:59,0.0
-7976,-808,14752,114,-135,-431,2025-01-29 15:14:59,
-8016,-544,14512,90,-114,-443,2025-01-29 15:14:59,0.0
-7936,-216,14528,27,47,-384,2025-01-29 15:14:59,0.0
-7828,-184,14224,-128,154,-304,2025-01-29 15:14:59,0.0
-7788,-244,14244,-261,209,-230,2025-01-29 15:14:59,0.0
-7836,-484,14480,-307,160,-202,2025-01-29 15:14:59,0.0
-7828,-844,14608,-251,-1,-227,2025-01-29 15:14:59,0.0
-7920,-952,14708,-142,-148,-300,2025-01-29 15:14:59,0.0
-7908,-712,14744,-64,-222,-357,2025-01-29 15:14:59,0.0
-7696,-328,14568,-92,-275,-342,2025-01-29 15:14:59,0.0
-7828,-420,14560,-198,-189,-346,2025-01-29 15:14:59,0.0
-7736,-440,14736,-244,-109,-325,2025-01-29 15:15:00,0.0
-7820,-560,14808,-267,-125,-291,2025-01-29 15:15:00,0.0
-7788,-624,14816,-203,-95,-280,2025-01-29 15:15:00,0.0
-7724,-604,14940,-215,-92,-288,2025-01-29 15:15:00,0.0
-7916,-648,14912,-175,65,-308,2025-01-29 15:15:00,0.0
-7864,-492,14848,-161,166,-347,2025-01-29 15:15:00,0.0
-7812,-380,14792,-223,232,-279,2025-01-29 15:15:00,0.0
-7744,-376,14764,-252,256,-223,2025-01-29 15:15:00,0.0
-7652,-576,14868,-249,302,-159,2025-01-29 15:15:00,0.0
-7604,-540,14772,-260,275,-183,2025-01-29 15:15:00,0.0
-7620,-596,14900,-237,196,-178,2025-01-29 15:15:00,0.0
-7720,-576,14816,-196,142,-149,2025-01-29 15:15:00,0.0
-7712,-724,14868,-142,47,-141,2025-01-29 15:15:00,0.0
-7672,-868,14752,-109,-152,-170,2025-01-29 15:15:00,0.0
-7768,-876,14588,-92,-289,-266,2025-01-29 15:15:00,0.0
-7684,-768,14716,-140,-316,-327,2025-01-29 15:15:00,0.0
-7708,-568,14656,-147,-220,-303,2025-01-29 15:15:00,0.0
-7872,-544,14692,-152,-99,-305,2025-01-29 15:15:00,0.0
-7888,-504,14660,-188,4,-203,2025-01-29 15:15:00,0.0
-7872,-544,14780,-179,64,-125,2025-01-29 15:15:00,0.0
-7940,-536,14904,-245,169,-105,2025-01-29 15:15:00,0.0
-7860,-520,14808,-224,128,-100,2025-01-29 15:15:00,0.0
-7760,-616,14816,-226,15,-86,2025-01-29 15:15:00,0.0
-7716,-532,14912,-164,5,-118,2025-01-29 15:15:00,0.0
-7752,-552,14864,-152,86,-121,2025-01-29 15:15:00,0.0
-7760,-504,14796,-161,166,-152,2025-01-29 15:15:00,0.0
-7564,-468,14736,-194,192,-141,2025-01-29 15:15:00,0.0
-7780,-484,14948,-218,400,-166,2025-01-29 15:15:00,0.0
-7932,-656,14828,-179,338,-161,2025-01-29 15:15:00,0.0
-7756,-660,14688,-98,132,-213,2025-01-29 15:15:00,0.0
-7684,-600,14872,-18,-67,-205,2025-01-29 15:15:00,0.0
-7664,-620,14824,12,-160,-208,2025-01-29 15:15:00,0.0
-7476,-620,14968,-35,-113,-241,2025-01-29 15:15:00,0.0
-7560,-572,14740,-44,79,-282,2025-01-29 15:15:00,0.0
-7544,-588,14980,-55,180,-297,2025-01-29 15:15:00,0.0
-7708,-520,14920,-69,189,-333,2025-01-29 15:15:00,0.0
-7756,-528,14884,-13,202,-336,2025-01-29 15:15:00,0.0
-7688,-728,14908,-32,143,-333,2025-01-29 15:15:00,0.0
-7732,-664,14888,22,98,-351,2025-01-29 15:15:00,0.0
-7772,-640,14588,-5,13,-349,2025-01-29 15:15:00,0.0
-7628,-512,14840,-39,-106,-348,2025-01-29 15:15:00,0.0
-7720,-600,14840,-60,-169,-349,2025-01-29 15:15:00,0.0
-7704,-516,14888,-89,-174,-338,2025-01-29 15:15:00,0.0
-7888,-652,14964,-105,-116,-338,2025-01-29 15:15:00,0.0
-7624,-580,14872,-119,-49,-331,2025-01-29 15:15:00,0.0
-7568,-600,14812,-82,79,-320,2025-01-29 15:15:00,0.0
-7624,-616,14824,-87,197,-336,2025-01-29 15:15:00,0.0
-7484,-520,14912,-130,311,-368,2025-01-29 15:15:00,0.0
-7628,-652,15004,-128,336,-369,2025-01-29 15:15:00,0.0
-7796,-572,15036,-100,352,-342,2025-01-29 15:15:00,0.0
-7676,-344,14516,-212,746,-361,2025-01-29 15:15:00,0.0
-7940,-288,14716,-376,1570,-392,2025-01-29 15:15:00,0.0
-9036,-524,16700,-130,1836,-173,2025-01-29 15:15:00,0.0
-8428,-800,17636,-95,1949,-420,2025-01-29 15:15:00,0.0
-9552,-592,18012,-223,2554,-533,2025-01-29 15:15:00,0.0
-10640,-440,17716,-388,4790,-698,2025-01-29 15:15:00,0.0
-12792,-712,18604,-514,7412,-639,2025-01-29 15:15:00,0.0
-13640,-864,19500,-294,9194,-478,2025-01-29 15:15:00,0.0
-14180,-844,19208,-95,9815,-312,2025-01-29 15:15:01,0.0
-14920,-1572,19424,4,10096,-172,2025-01-29 15:15:01,0.0
-15340,-1668,19008,6,10279,57,2025-01-29 15:15:01,0.0
-15688,-1016,18412,-252,10579,328,2025-01-29 15:15:01,0.0
-15336,-124,17912,-389,10475,620,2025-01-29 15:15:01,0.0
-13596,180,16344,-326,9931,980,2025-01-29 15:15:01,0.0
-12784,196,14592,-305,10342,1307,2025-01-29 15:15:01,0.0
-12136,156,13372,-342,11019,1490,2025-01-29 15:15:01,0.0
-11124,60,12928,-740,11128,1376,2025-01-29 15:15:01,0.0
-10352,-528,13148,-909,11360,1004,2025-01-29 15:15:01,0.0
-10372,-708,13140,-565,11304,757,2025-01-29 15:15:01,0.0
-10632,-276,12576,-176,11121,649,2025-01-29 15:15:01,0.0
-10348,-304,11664,343,11066,641,2025-01-29 15:15:01,0.0
-10220,-552,11424,1071,11407,699,2025-01-29 15:15:01,0.0
-10104,-844,9792,1298,11511,449,2025-01-29 15:15:01,0.0
-10512,-524,8716,1006,11762,53,2025-01-29 15:15:01,0.0
-11592,-120,8440,815,11778,-309,2025-01-29 15:15:01,0.0
-12184,-536,8284,717,11088,-671,2025-01-29 15:15:01,0.0
-12456,-444,7724,429,10279,-943,2025-01-29 15:15:01,0.0
-13272,68,7464,318,9545,-914,2025-01-29 15:15:01,0.0
-13368,136,6828,54,8755,-648,2025-01-29 15:15:01,0.0
-13628,-204,6740,-132,8348,-355,2025-01-29 15:15:01,0.0
-14036,-408,6524,-351,7913,-134,2025-01-29 15:15:01,0.0
-13356,-744,6736,-604,6908,-145,2025-01-29 15:15:01,0.0
-12964,-636,7172,-688,5567,-62,2025-01-29 15:15:01,0.0
-12312,-720,6632,-553,4507,-127,2025-01-29 15:15:01,0.0
-11760,-804,6144,-198,4721,-17,2025-01-29 15:15:01,0.0
-11948,-796,5132,82,5821,-66,2025-01-29 15:15:01,0.0
-12668,-556,4920,139,7329,107,2025-01-29 15:15:01,0.0
-12772,-368,5144,-65,7687,184,2025-01-29 15:15:01,0.0
-12684,-164,5868,-196,7347,163,2025-01-29 15:15:01,0.0
-12568,268,6264,-9,6421,87,2025-01-29 15:15:01,
-12580,504,5128,448,5603,506,2025-01-29 15:15:01,0.0
-12708,364,3980,828,6044,885,2025-01-29 15:15:01,0.0
-12504,-156,3516,1068,6938,1186,2025-01-29 15:15:01,0.0
-12064,-312,3260,1269,7513,1288,2025-01-29 15:15:01,0.0
-12004,-384,3484,1355,6981,1235,2025-01-29 15:15:01,0.0
-11852,-72,4044,1478,6058,1019,2025-01-29 15:15:01,0.0
-11416,280,4452,1740,4543,622,2025-01-29 15:15:01,0.0
-11744,624,3936,2060,3466,310,2025-01-29 15:15:01,0.0
-11436,668,3064,2133,2815,107,2025-01-29 15:15:01,0.0
-11072,380,2664,1972,2598,-74,2025-01-29 15:15:01,0.0
-10844,116,2844,1509,2305,-153,2025-01-29 15:15:01,0.0
-10320,-312,3000,1193,2033,-364,2025-01-29 15:15:01,0.0
-9372,-644,3484,1094,1419,-890,2025-01-29 15:15:01,0.0
-9364,-636,2920,1120,1103,-1348,2025-01-29 15:15:01,0.0
-9756,-520,2500,1131,1512,-1683,2025-01-29 15:15:01,0.0
-9684,36,2380,1314,1811,-1884,2025-01-29 15:15:01,0.0
-9952,464,2216,1697,1678,-1711,2025-01-29 15:15:01,0.0
-10064,920,1724,1586,1260,-1259,2025-01-29 15:15:01,0.0
-9800,584,1540,1031,1125,-980,2025-01-29 15:15:01,0.0
-9572,-456,1536,197,1289,-1033,2025-01-29 15:15:01,0.0
-9228,-824,1548,-64,1382,-1541,2025-01-29 15:15:01,0.0
-9400,-700,788,-130,856,-1920,2025-01-29 15:15:01,0.0
-9656,-372,264,-283,625,-1940,2025-01-29 15:15:01,0.0
-10060,504,24,-241,1438,-1982,2025-01-29 15:15:01,0.0
-11400,916,-408,-111,3535,-1820,2025-01-29 15:15:01,0.0
-12328,-1076,-68,69,6339,-1520,2025-01-29 15:15:01,0.0
-12904,-3156,600,369,8546,-1918,2025-01-29 15:15:01,0.0
-14480,-4152,1780,602,10152,-2344,2025-01-29 15:15:01,0.0
-16268,-3020,2432,1891,10317,-2289,2025-01-29 15:15:01,0.0
-17144,-1132,1904,3412,8713,-1408,2025-01-29 15:15:01,0.0
-17908,360,-136,3969,5403,173,2025-01-29 15:15:01,0.0
-16484,1116,-1364,3107,1486,1036,2025-01-29 15:15:02,0.0
-14060,612,-988,1385,-1866,291,2025-01-29 15:15:02,0.0
-13508,180,476,279,-3855,-582,2025-01-29 15:15:02,0.0
-13740,-256,1500,238,-4284,-682,2025-01-29 15:15:02,0.0
-13520,-120,1584,652,-3653,-239,2025-01-29 15:15:02,0.0
-12840,124,1256,881,-2171,87,2025-01-29 15:15:02,0.0
-12480,164,820,599,-235,-91,2025-01-29 15:15:02,0.0
-12896,-100,796,195,1397,-427,2025-01-29 15:15:02,0.0
-13496,-556,844,-153,2099,-593,2025-01-29 15:15:02,0.0
-14012,-668,1236,-279,1949,-672,2025-01-29 15:15:02,0.0
-14532,-448,900,-335,686,-456,2025-01-29 15:15:02,0.0
-14424,-348,76,-533,-638,-144,2025-01-29 15:15:02,0.0
-14172,-396,-340,-799,-1198,-36,2025-01-29 15:15:02,0.0
-13536,-596,-4,-994,-595,-127,2025-01-29 15:15:02,0.0
-13260,-876,740,-932,505,-305,2025-01-29 15:15:02,0.0
-13780,-1076,1108,-674,990,-344,2025-01-29 15:15:02,0.0
-14096,-1024,1432,-492,904,-257,2025-01-29 15:15:02,0.0
-14136,-756,2032,-222,431,-59,2025-01-29 15:15:02,0.0
-13896,-1020,1836,101,-478,81,2025-01-29 15:15:02,0.0
-13684,-756,1240,243,-1088,15,2025-01-29 15:15:02,0.0
-13844,-124,652,234,-831,136,2025-01-29 15:15:02,0.0
-13732,340,296,58,35,288,2025-01-29 15:15:02,0.0
-13652,732,256,-245,708,311,2025-01-29 15:15:02,0.0
-13752,900,388,-581,1035,78,2025-01-29 15:15:02,0.0
-13804,748,692,-1152,942,-234,2025-01-29 15:15:02,0.0
-13948,516,1604,-1443,359,-521,2025-01-29 15:15:02,0.0
-14216,704,1520,-1449,-822,-727,2025-01-29 15:15:02,0.0
-14164,792,1108,-1661,-1476,-795,2025-01-29 15:15:02,0.0
-13768,760,840,-1827,-1392,-1031,2025-01-29 15:15:02,0.0
-13356,-40,596,-1861,-838,-1343,2025-01-29 15:15:02,0.0
-13140,-1024,588,-1544,94,-1807,2025-01-29 15:15:02,0.0
-13172,-1776,656,-886,1402,-2325,2025-01-29 15:15:02,0.0
-13096,-3036,612,-251,2195,-2462,2025-01-29 15:15:02,0.0
-12908,-4080,1032,8,1406,-2126,2025-01-29 15:15:02,0.0
-13336,-3784,2740,809,853,-1398,2025-01-29 15:15:02,0.0
-13916,-1580,3876,2392,1889,-534,2025-01-29 15:15:02,0.0
-14280,32,2840,2898,2883,344,2025-01-29 15:15:02,0.0
-13056,588,1604,1572,3361,229,2025-01-29 15:15:02,0.0
-12860,176,1256,-1261,3069,-1266,2025-01-29 15:15:02,0.0
-13844,-452,2228,-3100,3134,-2715,2025-01-29 15:15:02,0.0
-14836,-1312,2812,-3322,3112,-3161,2025-01-29 15:15:02,0.0
-15100,-2168,3188,-3044,2330,-2993,2025-01-29 15:15:02,0.0
-14800,-2804,3584,-2565,481,-2955,2025-01-29 15:15:02,0.0
-14340,-3068,3700,-2194,-1275,-2902,2025-01-29 15:15:02,0.0
-13944,-2980,3952,-1857,-2532,-2630,2025-01-29 15:15:02,0.0
-13412,-2932,3912,-1363,-3366,-1911,2025-01-29 15:15:02,0.0
-12344,-2764,3768,-987,-3429,-1333,2025-01-29 15:15:02,0.0
-11736,-2308,3468,-790,-2916,-904,2025-01-29 15:15:02,0.0
-11460,-1812,3092,-781,-1742,-471,2025-01-29 15:15:02,0.0
-11460,-1596,2692,-977,-282,-125,2025-01-29 15:15:02,0.0
-11828,-1988,3256,-1005,915,177,2025-01-29 15:15:02,0.0
-12520,-2580,3112,-792,1553,603,2025-01-29 15:15:02,0.0
-13088,-2788,2628,-642,2003,1131,2025-01-29 15:15:02,0.0
-13008,-2632,2300,-769,2424,1385,2025-01-29 15:15:02,0.0
-13880,-1896,1988,-1309,2724,1432,2025-01-29 15:15:02,0.0
-14908,-1052,2340,-1973,2541,1400,2025-01-29 15:15:02,0.0
-15260,-644,3828,-2389,1469,1212,2025-01-29 15:15:02,0.0
-15276,-1184,4680,-2734,-896,897,2025-01-29 15:15:02,0.0
-15124,-2028,3984,-3186,-2103,484,2025-01-29 15:15:02,0.0
-14916,-2444,3056,-3672,-2044,225,2025-01-29 15:15:02,0.0
-13896,-3268,1756,-4066,-1803,-502,2025-01-29 15:15:02,0.0
-14608,-3448,-424,-4955,-312,-1913,2025-01-29 15:15:03,0.0
-15520,-3716,1020,-5813,1518,-3184,2025-01-29 15:15:03,0.0
-15716,-3972,3568,-5537,1358,-4298,2025-01-29 15:15:03,0.0
-16296,-5504,5556,-4284,-597,-4919,2025-01-29 15:15:03,0.0
-17188,-7040,6316,-2800,-1177,-4941,2025-01-29 15:15:03,0.0
-18140,-8344,5764,-1617,-834,-4659,2025-01-29 15:15:03,0.0
-19144,-7476,4960,-705,-1634,-4091,2025-01-29 15:15:03,0.0
-20660,-5296,3716,422,-4568,-1544,2025-01-29 15:15:03,
-20724,-3452,2764,2178,-7687,3080,2025-01-29 15:15:03,0.0
-15696,-3448,-1064,4055,-8459,6380,2025-01-29 15:15:03,0.0
-13348,-2720,-3336,3497,-5679,5800,2025-01-29 15:15:03,0.0
-12320,-1452,-4696,2331,-2256,4067,2025-01-29 15:15:03,0.0
-12572,-408,-3912,1461,-326,3170,2025-01-29 15:15:03,0.0
-11664,120,-1188,2186,-3,2770,2025-01-29 15:15:03,0.0
-11320,804,-400,3346,-172,2622,2025-01-29 15:15:03,0.0
-10840,1328,-1228,3272,96,2656,2025-01-29 15:15:03,0.0
-11336,1576,-1928,2158,1187,2752,2025-01-29 15:15:03,0.0
-12468,664,-1092,1266,2799,2916,2025-01-29 15:15:03,0.0
-13312,-364,68,1634,3966,2963,2025-01-29 15:15:03,0.0
-13776,-912,1104,2400,4089,2968,2025-01-29 15:15:03,0.0
-13912,-1020,1312,3041,3428,3098,2025-01-29 15:15:03,0.0
-13600,-1080,984,3303,2291,3216,2025-01-29 15:15:03,0.0
-13004,-540,816,3588,359,2732,2025-01-29 15:15:03,0.0
-12468,148,556,3858,-1010,2236,2025-01-29 15:15:03,0.0
-12352,688,856,4133,-1332,2108,2025-01-29 15:15:03,0.0
-11844,976,992,4241,-641,2054,2025-01-29 15:15:03,0.0
-11756,908,984,3982,63,1954,2025-01-29 15:15:03,0.0
-11928,896,1284,3865,588,1838,2025-01-29 15:15:03,0.0
-12452,1320,1412,4041,949,1902,2025-01-29 15:15:03,0.0
-12832,1832,1380,4024,987,1996,2025-01-29 15:15:03,0.0
-12628,2040,1120,3865,685,1763,2025-01-29 15:15:03,0.0
-12172,1912,1520,3317,-61,1178,2025-01-29 15:15:03,0.0
-12200,1648,2240,2638,-1152,285,2025-01-29 15:15:03,0.0
-12024,864,3484,2364,-1927,-474,2025-01-29 15:15:03,0.0
-12308,396,4116,2738,-2503,-1052,2025-01-29 15:15:03,0.0
-11968,-28,3380,3087,-3387,-1785,2025-01-29 15:15:03,0.0
-11984,188,2892,3092,-4254,-2513,2025-01-29 15:15:03,0.0
-12316,820,2688,3032,-4828,-2833,2025-01-29 15:15:03,0.0
-12808,1416,2224,3006,-4651,-2600,2025-01-29 15:15:03,0.0
-12416,1432,1408,2707,-3465,-2302,2025-01-29 15:15:03,0.0
-12700,1064,980,2267,-1396,-1987,2025-01-29 15:15:03,0.0
-13312,-196,2440,2367,898,-1273,2025-01-29 15:15:03,0.0
-14324,8,4224,3500,3382,-175,2025-01-29 15:15:03,0.0
-15668,1508,4596,4920,5268,879,2025-01-29 15:15:03,0.0
-16732,1224,4912,5335,5463,1659,2025-01-29 15:15:03,0.0
-16292,-380,6636,5398,4460,1709,2025-01-29 15:15:03,0.0
-16756,-1056,6336,5829,2828,606,2025-01-29 15:15:03,0.0
-17144,84,3112,6023,2270,205,2025-01-29 15:15:03,0.0
-18020,2496,1640,6318,3213,418,2025-01-29 15:15:03,0.0
-19288,5120,-132,6136,5659,2086,2025-01-29 15:15:03,0.0
-19592,6220,-2828,4511,7647,3993,2025-01-29 15:15:03,0.0
-19080,6528,-4648,1197,7872,5290,2025-01-29 15:15:03,0.0
-18220,6296,-3716,-2100,6126,5531,2025-01-29 15:15:03,0.0
-16576,4640,-492,-3450,2363,4178,2025-01-29 15:15:04,0.0
-16748,-436,-588,-4513,2529,-4305,2025-01-29 15:15:04,0.0
-17384,-1280,108,-4422,-3733,-3471,2025-01-29 15:15:04,0.0
-15588,-1532,-4,-4257,-9323,-1978,2025-01-29 15:15:04,0.0
-11628,-1420,-872,-4508,-12486,-1120,2025-01-29 15:15:04,0.0
-10580,-1396,-296,-4967,-12159,-1195,2025-01-29 15:15:04,0.0
-9832,-1388,-192,-5491,-8839,-1566,2025-01-29 15:15:04,0.0
-9100,-1244,-376,-5686,-1120,-1998,2025-01-29 15:15:04,0.0
-10644,-1024,76,-5338,5125,-1952,2025-01-29 15:15:04,0.0
-12536,-988,764,-5517,6550,-1471,2025-01-29 15:15:04,0.0
-13800,-1008,1896,-5893,5678,-825,2025-01-29 15:15:04,0.0
-14708,-1064,2640,-6173,2721,-212,2025-01-29 15:15:04,0.0
-15760,-644,2520,-5967,-889,531,2025-01-29 15:15:04,0.0
-15100,-240,1220,-5693,-4317,1505,2025-01-29 15:15:04,0.0
-14280,340,856,-6033,-6022,2403,2025-01-29 15:15:04,0.0
-12232,772,284,-6691,-5804,2855,2025-01-29 15:15:04,0.0
-11820,1216,752,-7625,-3594,3074,2025-01-29 15:15:04,0.0
-11420,1064,412,-8529,-1122,3238,2025-01-29 15:15:04,0.0
-11300,444,492,-9250,223,3283,2025-01-29 15:15:04,0.0
-11772,-152,920,-9869,640,3177,2025-01-29 15:15:04,0.0
-12436,-452,1316,-10514,1113,2920,2025-01-29 15:15:04,0.0
-13156,-336,1740,-10747,1598,2778,2025-01-29 15:15:04,0.0
-13884,-52,1712,-11176,2371,2640,2025-01-29 15:15:04,0.0
-14812,156,1868,-11493,3045,2512,2025-01-29 15:15:04,0.0
-15264,24,1616,-11698,2827,2312,2025-01-29 15:15:04,0.0
-15096,-524,1364,-12128,1883,1679,2025-01-29 15:15:04,0.0
-15100,-856,1644,-12556,1084,975,2025-01-29 15:15:04,0.0
-14668,-404,2836,-12927,755,332,2025-01-29 15:15:04,0.0
-14624,-76,3528,-13393,852,-118,2025-01-29 15:15:04,0.0
-15456,-112,3464,-13858,1283,106,2025-01-29 15:15:04,0.0
-16456,572,336,-14419,2872,-81,2025-01-29 15:15:04,0.0
-16256,-1080,-1716,-15620,4397,-1860,2025-01-29 15:15:04,0.0
-15372,-4464,456,-16089,3633,-5075,2025-01-29 15:15:04,0.0
-16916,-5784,2112,-14601,47,-7043,2025-01-29 15:15:04,0.0
-19216,-5536,3364,-12264,-3381,-6311,2025-01-29 15:15:04,0.0
-20224,-3136,3084,-10210,-4915,-2836,2025-01-29 15:15:04,0.0
-16680,992,2908,-8597,-5557,483,2025-01-29 15:15:04,0.0
-11764,2692,-1660,-9373,-4018,2574,2025-01-29 15:15:04,0.0
-7756,1312,-3632,-11888,-1269,2695,2025-01-29 15:15:04,0.0
-6948,320,-4392,-13530,3733,567,2025-01-29 15:15:04,0.0
-9900,-888,-5756,-14959,11503,-2243,2025-01-29 15:15:04,0.0
-13016,-1364,-3964,-15859,17489,-4516,2025-01-29 15:15:04,0.0
-15332,-472,-660,-15585,19382,-5955,2025-01-29 15:15:04,0.0
-17768,1048,1736,-13977,15917,-5525,2025-01-29 15:15:04,0.0
-18976,2200,172,-12113,8012,-2927,2025-01-29 15:15:04,0.0
-16848,2456,-3048,-12224,386,-899,2025-01-29 15:15:04,0.0
-13664,1940,-4832,-14036,-4986,-341,2025-01-29 15:15:04,0.0
-11520,656,-4328,-15345,-6428,-595,2025-01-29 15:15:04,0.0
-10696,-188,-4088,-16177,-4899,-869,2025-01-29 15:15:04,0.0
-10216,-256,-2996,-16616,-1041,-1140,2025-01-29 15:15:04,0.0
-10104,376,-2508,-16071,4237,-1504,2025-01-29 15:15:04,0.0
-10976,620,-3032,-15897,6294,-1846,2025-01-29 15:15:04,0.0
-11928,984,-2744,-15988,6537,-2559,2025-01-29 15:15:04,0.0
-13176,1388,-2616,-16165,5757,-2943,2025-01-29 15:15:04,0.0
-14208,1352,-2816,-16497,4273,-2899,2025-01-29 15:15:04,
-14228,920,-3072,-17021,1619,-2643,2025-01-29 15:15:05,0.0
-13832,396,-3036,-17413,-642,-2417,2025-01-29 15:15:05,0.0
-13288,248,-3308,-17544,-1161,-2393,2025-01-29 15:15:05,0.0
-13160,212,-3040,-17707,-1016,-2471,2025-01-29 15:15:05,0.0
-12428,20,-3152,-17861,-713,-2793,2025-01-29 15:15:05,0.0
-12592,-12,-2976,-17991,-384,-3258,2025-01-29 15:15:05,0.0
-12724,-220,-2624,-18292,-81,-3784,2025-01-29 15:15:05,0.0
-13148,-748,-2012,-18516,68,-4309,2025-01-29 15:15:05,0.0
-13608,-1116,-1308,-18387,-108,-4707,2025-01-29 15:15:05,0.0
-14060,-1224,-988,-18062,-462,-4715,2025-01-29 15:15:05,0.0
-14288,-1156,-1624,-17778,-1170,-4688,2025-01-29 15:15:05,0.0
-14424,-692,-2016,-17635,-1936,-4586,2025-01-29 15:15:05,0.0
-14248,-476,-2364,-17699,-2313,-4426,2025-01-29 15:15:05,0.0
-13556,-224,-2552,-17929,-2294,-4440,2025-01-29 15:15:05,0.0
-13356,-96,-3352,-18346,-2396,-4513,2025-01-29 15:15:05,0.0
-13216,328,-4332,-18894,-2773,-4383,2025-01-29 15:15:05,0.0
-13200,572,-5412,-19866,-3144,-4083,2025-01-29 15:15:05,0.0
-12860,1084,-5496,-20875,-2902,-3932,2025-01-29 15:15:05,0.0
-12748,1588,-4728,-21579,-1990,-3919,2025-01-29 15:15:05,0.0
-13024,1304,-4544,-21982,-515,-3931,2025-01-29 15:15:05,0.0
-13388,216,-4420,-22311,777,-3938,2025-01-29 15:15:05,0.0
-13924,-1916,-2980,-22204,1140,-4014,2025-01-29 15:15:05,0.0
-14700,-4048,-1748,-21226,684,-3689,2025-01-29 15:15:05,0.0
-14832,-5416,-1196,-19914,-169,-3001,2025-01-29 15:15:05,0.0
-14380,-4148,-792,-18611,-1257,-2402,2025-01-29 15:15:05,0.0
-13612,-1664,-676,-17698,-1792,-2222,2025-01-29 15:15:05,0.0
-12984,668,-744,-17391,-792,-2624,2025-01-29 15:15:05,0.0
-13156,864,-1516,-17911,1533,-3428,2025-01-29 15:15:05,0.0
-14508,-248,-1260,-18321,2946,-3621,2025-01-29 15:15:05,0.0
-15416,-1468,-724,-17734,3051,-3413,2025-01-29 15:15:05,0.0
-16516,-2012,-244,-16897,1986,-2843,2025-01-29 15:15:05,0.0
-16620,-1840,-460,-15902,-316,-2077,2025-01-29 15:15:05,0.0
-15896,-864,-928,-14911,-3966,-1259,2025-01-29 15:15:05,0.0
-14564,52,-616,-14477,-6419,-711,2025-01-29 15:15:05,0.0
-13048,-28,-504,-14172,-7092,-626,2025-01-29 15:15:05,0.0
-12540,-596,-856,-13838,-6169,-808,2025-01-29 15:15:05,0.0
-11972,-1164,-1152,-13628,-4622,-1293,2025-01-29 15:15:05,0.0
-11428,-1004,-1340,-13281,-3425,-1792,2025-01-29 15:15:05,0.0
-11316,-580,-1004,-12973,-2242,-2335,2025-01-29 15:15:05,0.0
-11280,-304,-1024,-12726,-1339,-2843,2025-01-29 15:15:05,0.0
-12176,-440,-1460,-12652,-652,-2964,2025-01-29 15:15:05,0.0
-12636,-592,-1304,-12675,-468,-2858,2025-01-29 15:15:05,0.0
-12932,-1424,-904,-12647,-410,-2632,2025-01-29 15:15:05,0.0
-12976,-2372,-724,-12471,-260,-2600,2025-01-29 15:15:05,0.0
-13144,-3180,-948,-12158,-71,-2598,2025-01-29 15:15:05,0.0
-13228,-3604,-1760,-11665,-166,-2772,2025-01-29 15:15:05,0.0
-12996,-4064,-1632,-11237,-372,-2980,2025-01-29 15:15:05,0.0
-13072,-3984,-592,-10589,-165,-3058,2025-01-29 15:15:05,0.0
-13756,-3928,-144,-9769,1279,-2852,2025-01-29 15:15:05,0.0
-14636,-3976,-64,-9050,3008,-2421,2025-01-29 15:15:05,0.0
-15036,-4440,248,-8273,3843,-1983,2025-01-29 15:15:05,0.0
-14484,-5396,1792,-7062,2299,-1861,2025-01-29 15:15:05,0.0
-13960,-5792,2652,-5753,-750,-1788,2025-01-29 15:15:05,0.0
-13636,-5688,2600,-4462,-3508,-1492,2025-01-29 15:15:05,0.0
-12772,-5640,2184,-3614,-4183,-1399,2025-01-29 15:15:05,0.0
-12192,-5312,1660,-2978,-2474,-1589,2025-01-29 15:15:05,0.0
-12776,-4444,984,-2471,482,-1685,2025-01-29 15:15:05,0.0
-13080,-3028,-456,-2117,2490,-1282,2025-01-29 15:15:05,0.0
-13792,-2176,0,-2229,2673,-1064,2025-01-29 15:15:05,0.0
-14412,-1672,-68,-2672,2190,-1005,2025-01-29 15:15:05,0.0
-14688,-1188,8,-3046,869,-802,2025-01-29 15:15:05,0.0
-14612,-1336,344,-3529,-1017,-458,2025-01-29 15:15:06,0.0
-14028,-1944,304,-3804,-2203,-125,2025-01-29 15:15:06,0.0
-13536,-2512,-240,-3710,-2270,169,2025-01-29 15:15:06,0.0
-13280,-2532,-248,-3514,-1462,396,2025-01-29 15:15:06,0.0
-12828,-2732,372,-3233,-349,560,2025-01-29 15:15:06,0.0
-12748,-2860,1128,-2915,782,542,2025-01-29 15:15:06,0.0
-13052,-2716,1144,-2530,1261,763,2025-01-29 15:15:06,0.0
-13396,-2244,1232,-2008,1041,1105,2025-01-29 15:15:06,0.0
-13692,-1740,924,-1600,892,1702,2025-01-29 15:15:06,0.0
-13548,-1752,1048,-1192,465,2404,2025-01-29 15:15:06,0.0
-13624,-2408,532,-1037,209,3034,2025-01-29 15:15:06,0.0
-13636,-2732,-316,-896,606,3225,2025-01-29 15:15:06,0.0
-14076,-2368,-648,-782,1947,3057,2025-01-29 15:15:06,0.0
-14832,-1972,-908,-682,3987,2490,2025-01-29 15:15:06,0.0
-15124,-1076,-1116,-588,5062,1752,2025-01-29 15:15:06,0.0
-15600,-196,-644,-650,3473,1299,2025-01-29 15:15:06,0.0
-15644,224,-568,-1038,-458,1526,2025-01-29 15:15:06,0.0
-14924,32,-660,-1612,-4156,1990,2025-01-29 15:15:06,0.0
-14048,-552,-1108,-1816,-5873,2254,2025-01-29 15:15:06,0.0
-12944,-1192,-1876,-1880,-5761,2296,2025-01-29 15:15:06,0.0
-12160,-1324,-2024,-1916,-4653,2051,2025-01-29 15:15:06,0.0
-12116,-1204,-1948,-1828,-2134,1785,2025-01-29 15:15:06,0.0
-12328,-624,-956,-1433,1045,1670,2025-01-29 15:15:06,0.0
-12564,-56,-516,-1134,3524,1441,2025-01-29 15:15:06,0.0
-12932,-60,256,-963,4181,1099,2025-01-29 15:15:06,0.0
-13356,-224,276,-704,3051,744,2025-01-29 15:15:06,0.0
-13600,-600,100,-366,469,366,2025-01-29 15:15:06,0.0
-13300,-716,-316,-180,-1435,-52,2025-01-29 15:15:06,0.0
-12920,-420,-624,-306,-1792,-499,2025-01-29 15:15:06,0.0
-12584,-44,-1072,-460,-1258,-918,2025-01-29 15:15:06,0.0
-12740,364,-1328,-632,-210,-1244,2025-01-29 15:15:06,0.0
-13268,652,-1836,-983,1231,-1315,2025-01-29 15:15:06,0.0
-14180,328,-1864,-1424,2661,-947,2025-01-29 15:15:06,0.0
-14956,-136,-644,-1535,3575,-156,2025-01-29 15:15:06,0.0
-14616,-236,132,-1192,2987,225,2025-01-29 15:15:06,0.0
-14268,-132,-112,-938,750,47,2025-01-29 15:15:06,0.0
-13892,88,-228,-816,-1538,-362,2025-01-29 15:15:06,0.0
-13936,124,-556,-690,-2365,-572,2025-01-29 15:15:06,0.0
-13912,-12,-940,-490,-1978,-535,2025-01-29 15:15:06,
-13660,-248,-1540,-312,-906,-338,2025-01-29 15:15:06,0.0
-13476,-352,-1480,-166,99,-196,2025-01-29 15:15:06,0.0
-13412,-720,-1184,-130,847,-141,2025-01-29 15:15:06,0.0
-13480,-860,-612,40,1242,-230,2025-01-29 15:15:06,0.0
-13592,-856,-216,348,1153,-283,2025-01-29 15:15:06,0.0
-13648,-456,140,610,742,-344,2025-01-29 15:15:06,0.0
-13748,-96,104,809,237,-391,2025-01-29 15:15:06,0.0
-13768,116,16,935,-73,-374,2025-01-29 15:15:06,0.0
-13684,4,-304,904,-191,-264,2025-01-29 15:15:06,0.0
-13624,-232,-352,856,-19,-257,2025-01-29 15:15:06,0.0
-13612,-408,-480,876,281,-285,2025-01-29 15:15:06,0.0
-13572,-216,-748,876,430,-255,2025-01-29 15:15:06,0.0
-13516,52,-1120,762,475,-191,2025-01-29 15:15:06,0.0
-13540,412,-1176,555,628,-97,2025-01-29 15:15:06,0.0
-13508,396,-1084,332,945,-41,2025-01-29 15:15:06,0.0
-13700,152,-888,129,1147,-121,2025-01-29 15:15:06,0.0
-13884,-188,-352,76,1156,-175,2025-01-29 15:15:06,0.0
-14200,-256,-240,205,926,-264,2025-01-29 15:15:06,0.0
-14156,-240,-632,217,270,-233,2025-01-29 15:15:06,0.0
-13808,-60,-948,161,-395,-222,2025-01-29 15:15:06,0.0
-13624,-4,-980,-23,-513,-236,2025-01-29 15:15:06,0.0
-13356,20,-1092,-151,-213,-220,2025-01-29 15:15:06,0.0
-13264,112,-796,-203,471,-248,2025-01-29 15:15:07,0.0
-13204,-72,-972,-267,901,-314,2025-01-29 15:15:07,0.0
-13500,-228,-776,-343,819,-330,2025-01-29 15:15:07,0.0
-13908,-100,-524,-305,732,-296,2025-01-29 15:15:07,0.0
-14084,-128,-648,-332,430,-168,2025-01-29 15:15:07,0.0
-14008,56,-668,-437,-16,-103,2025-01-29 15:15:07,0.0
-13664,72,-620,-488,-209,-67,2025-01-29 15:15:07,0.0
-13360,4,-976,-497,-67,-70,2025-01-29 15:15:07,0.0
-13324,124,-1096,-592,248,-145,2025-01-29 15:15:07,0.0
-13360,76,-1100,-715,661,-247,2025-01-29 15:15:07,0.0
-13604,-8,-1028,-716,764,-211,2025-01-29 15:15:07,0.0
-13724,-180,-876,-751,699,-278,2025-01-29 15:15:07,0.0
-13748,-128,-936,-700,496,-216,2025-01-29 15:15:07,0.0
-13712,92,-1108,-737,645,-244,2025-01-29 15:15:07,0.0
-13828,228,-972,-729,583,-177,2025-01-29 15:15:07,0.0
-13864,80,-712,-682,609,-103,2025-01-29 15:15:07,0.0
-13672,20,-760,-552,587,-11,2025-01-29 15:15:07,0.0
-13740,-136,-880,-466,766,59,2025-01-29 15:15:07,0.0
-13808,-276,-660,-305,1427,75,2025-01-29 15:15:07,0.0
-13900,-496,-376,-96,1829,34,2025-01-29 15:15:07,0.0
-14036,-772,-88,204,1579,-17,2025-01-29 15:15:07,0.0
-13992,-880,732,757,846,-67,2025-01-29 15:15:07,0.0
-13636,-844,1116,1319,212,-160,2025-01-29 15:15:07,0.0
-13596,-204,888,1695,275,-296,2025-01-29 15:15:07,0.0
-13468,344,-92,1687,618,-629,2025-01-29 15:15:07,0.0
-13696,780,-888,1524,329,-861,2025-01-29 15:15:07,0.0
-13932,884,-812,1380,-217,-974,2025-01-29 15:15:07,0.0
-13976,736,-744,1100,-531,-1046,2025-01-29 15:15:07,0.0
-14052,572,-584,954,-871,-967,2025-01-29 15:15:07,0.0
-13712,500,-708,895,-1426,-943,2025-01-29 15:15:07,0.0
-13572,424,-828,726,-1767,-942,2025-01-29 15:15:07,0.0
-13500,864,-1208,523,-1683,-1005,2025-01-29 15:15:07,0.0
-13456,1088,-1316,263,-1250,-1236,2025-01-29 15:15:07,0.0
-13448,1104,-1600,-12,-1002,-1473,2025-01-29 15:15:07,0.0
-13452,732,-1856,-405,-876,-1752,2025-01-29 15:15:07,0.0
-13676,48,-1448,-627,-968,-1980,2025-01-29 15:15:07,0.0
-13900,-376,-948,-666,-1226,-2037,2025-01-29 15:15:07,0.0
-13884,-656,-544,-651,-1526,-1998,2025-01-29 15:15:07,0.0
-13368,-856,-860,-751,-1288,-2383,2025-01-29 15:15:07,0.0
-13420,-1260,-652,-1125,-857,-3044,2025-01-29 15:15:07,0.0
-14104,-600,-276,-1244,-236,-3662,2025-01-29 15:15:07,0.0
-14408,-84,-428,-1333,-935,-3343,2025-01-29 15:15:07,0.0
-13928,-504,-348,-1763,-2340,-2785,2025-01-29 15:15:07,0.0
-13192,-1528,512,-2409,-2976,-2642,2025-01-29 15:15:07,0.0
-12724,-2232,1512,-3023,-2624,-2710,2025-01-29 15:15:07,0.0
-12772,-2724,1956,-3027,-1763,-2701,2025-01-29 15:15:07,0.0
-13260,-2784,2160,-2718,-678,-2287,2025-01-29 15:15:07,0.0
-13172,-2740,1856,-2122,628,-1911,2025-01-29 15:15:07,0.0
-13100,-2356,1756,-1880,1550,-1707,2025-01-29 15:15:07,0.0
-13168,-2168,1468,-1902,2093,-1790,2025-01-29 15:15:07,0.0
-13560,-2180,1496,-2075,2111,-1874,2025-01-29 15:15:07,0.0
-14116,-2308,1376,-2238,1735,-1960,2025-01-29 15:15:07,0.0
-14392,-2448,1616,-2324,979,-2214,2025-01-29 15:15:07,0.0
-14296,-2228,1844,-2294,-430,-2243,2025-01-29 15:15:07,0.0
-14216,-2076,1784,-2141,-1853,-1958,2025-01-29 15:15:07,0.0
-13984,-1908,1664,-2157,-2909,-1499,2025-01-29 15:15:07,0.0
-13876,-1752,1304,-2332,-3479,-830,2025-01-29 15:15:08,0.0
-13160,-1436,1064,-2607,-3201,-115,2025-01-29 15:15:08,0.0
-12632,-1388,1236,-2860,-2173,469,2025-01-29 15:15:08,0.0
-11744,-2092,1192,-3268,-548,691,2025-01-29 15:15:08,0.0
-11848,-2800,1720,-3597,681,483,2025-01-29 15:15:08,0.0
-12592,-3560,2996,-3492,1102,425,2025-01-29 15:15:08,0.0
-13376,-3704,4372,-2755,769,748,2025-01-29 15:15:08,0.0
-13828,-3496,4336,-1736,-189,1318,2025-01-29 15:15:08,0.0
-13696,-3140,3036,-849,-1243,1726,2025-01-29 15:15:08,0.0
-13572,-2584,2260,-646,-1415,1667,2025-01-29 15:15:08,0.0
-13432,-1980,2060,-687,-1207,1571,2025-01-29 15:15:08,0.0
-13368,-1784,1576,-864,-622,1452,2025-01-29 15:15:08,0.0
-13400,-1980,804,-1484,332,983,2025-01-29 15:15:08,0.0
-13644,-2556,836,-2319,905,304,2025-01-29 15:15:08,0.0
-13588,-2892,1328,-2777,886,-334,2025-01-29 15:15:08,0.0
-13792,-2152,2128,-3313,570,-692,2025-01-29 15:15:08,0.0
-13776,-1260,3156,-3935,771,-592,2025-01-29 15:15:08,0.0
-14140,-1172,3220,-4201,1745,-425,2025-01-29 15:15:08,0.0
-14832,-2000,2284,-4752,2627,-561,2025-01-29 15:15:08,0.0
-15956,-3248,1216,-5510,3773,-1134,2025-01-29 15:15:08,0.0
-16400,-4576,1368,-5805,4836,-2352,2025-01-29 15:15:08,0.0
-17220,-5892,1980,-4984,4743,-3833,2025-01-29 15:15:08,
-18280,-7032,3280,-2725,2254,-4527,2025-01-29 15:15:08,0.0
-19040,-7104,3172,-110,-1591,-3971,2025-01-29 15:15:08,0.0
-20080,-6340,2580,1695,-5429,-2317,2025-01-29 15:15:08,0.0
-19384,-4464,2260,2404,-8340,78,2025-01-29 15:15:08,0.0
-17436,-2496,2020,2975,-10138,1716,2025-01-29 15:15:08,0.0
-16336,-1276,-28,3076,-9984,3990,2025-01-29 15:15:08,0.0
-13332,-1684,-3156,2472,-6786,5221,2025-01-29 15:15:08,0.0
-11084,-1536,-4064,1778,-3494,4732,2025-01-29 15:15:08,0.0
-10168,-1236,-4456,1399,-969,3456,2025-01-29 15:15:08,0.0
-9388,-528,-3900,794,712,1900,2025-01-29 15:15:08,0.0
-10152,644,-2336,105,1725,554,2025-01-29 15:15:08,0.0
-11404,1360,-1132,-419,2818,-161,2025-01-29 15:15:08,0.0
-14236,924,304,-232,4298,499,2025-01-29 15:15:08,0.0
-15424,-264,360,876,4654,2029,2025-01-29 15:15:08,0.0
-14732,-1484,-264,1640,3274,2898,2025-01-29 15:15:08,0.0
-14180,-2208,112,2016,1373,2912,2025-01-29 15:15:08,0.0
-13540,-2464,844,2390,-364,2641,2025-01-29 15:15:08,0.0
-13372,-2028,1264,3115,-1209,2655,2025-01-29 15:15:08,0.0
-13544,-1324,1624,4063,-1275,2975,2025-01-29 15:15:08,0.0
-12932,-504,1520,4620,-868,3271,2025-01-29 15:15:08,0.0
-12516,-8,1636,4968,-506,3289,2025-01-29 15:15:08,0.0
-12016,172,1572,5284,-412,3055,2025-01-29 15:15:08,0.0
-12296,612,1176,5687,-291,2704,2025-01-29 15:15:08,0.0
-12592,784,1036,5795,169,2660,2025-01-29 15:15:08,0.0
-12508,920,1708,5769,589,2405,2025-01-29 15:15:08,0.0
-12596,728,1776,5777,569,2112,2025-01-29 15:15:08,0.0
-12500,576,1700,5567,146,1738,2025-01-29 15:15:08,0.0
-12296,476,1832,5267,-389,1155,2025-01-29 15:15:08,0.0
-11976,668,2184,4966,-722,476,2025-01-29 15:15:08,0.0
-11804,1332,1876,4740,-1012,-173,2025-01-29 15:15:08,0.0
-12128,1680,1572,4288,-1644,-564,2025-01-29 15:15:08,0.0
-12208,1536,2196,3775,-2323,-1150,2025-01-29 15:15:08,0.0
-12200,1056,2928,3377,-2505,-1445,2025-01-29 15:15:08,0.0
-11840,580,2980,3231,-2463,-1804,2025-01-29 15:15:08,0.0
-11684,464,2648,3062,-2071,-2046,2025-01-29 15:15:08,0.0
-11660,784,2008,3082,-1330,-1979,2025-01-29 15:15:08,0.0
-11960,1004,1308,3369,-21,-1806,2025-01-29 15:15:08,0.0
-12196,788,832,3545,1721,-1655,2025-01-29 15:15:08,0.0
-13400,116,788,3609,3102,-1453,2025-01-29 15:15:08,0.0
-14840,-32,1308,3871,4520,-954,2025-01-29 15:15:08,0.0
-15968,748,1908,4369,5374,-99,2025-01-29 15:15:08,0.0
-16624,2108,2560,4984,4675,1322,2025-01-29 15:15:08,0.0
-16968,1956,2964,4812,3363,2319,2025-01-29 15:15:08,0.0
-17560,936,3420,4691,3104,3023,2025-01-29 15:15:09,0.0
-18400,-76,2340,5109,4186,3567,2025-01-29 15:15:09,0.0
-18744,-276,272,5607,5472,4041,2025-01-29 15:15:09,0.0
-18684,1632,-448,5657,4992,4570,2025-01-29 15:15:09,0.0
-18528,4012,-1904,4904,3311,5102,2025-01-29 15:15:09,0.0
-18248,5832,-2968,2929,1214,5351,2025-01-29 15:15:09,0.0
-16976,6868,-2444,-44,-1270,4758,2025-01-29 15:15:09,0.0
-13516,5280,-1164,-2707,-4147,1502,2025-01-29 15:15:09,0.0
-11788,1900,-2008,-4154,-6854,-2761,2025-01-29 15:15:09,0.0
-12784,-252,-2584,-4771,-9133,-4831,2025-01-29 15:15:09,0.0
-13764,-2296,-2276,-4156,-11178,-4347,2025-01-29 15:15:09,0.0
-13364,-3900,-2288,-3592,-11026,-2605,2025-01-29 15:15:09,0.0
-11872,-4128,-2384,-3306,-7174,-975,2025-01-29 15:15:09,0.0
-10080,-3024,-2304,-2286,-242,-613,2025-01-29 15:15:09,0.0
-10084,-2088,-1544,-1070,5718,-1374,2025-01-29 15:15:09,0.0
-10584,-692,-1700,-463,9208,-1886,2025-01-29 15:15:09,0.0
-11744,172,-252,-154,11154,-2402,2025-01-29 15:15:09,0.0
-12636,708,-196,-339,11761,-3002,2025-01-29 15:15:09,0.0
-14252,552,-620,-1121,10762,-3315,2025-01-29 15:15:09,0.0
-15524,-472,-692,-2256,7927,-3794,2025-01-29 15:15:09,0.0
-16152,-1812,-776,-2859,3718,-4303,2025-01-29 15:15:09,0.0
-16092,-2560,-664,-2927,-1210,-4193,2025-01-29 15:15:09,0.0
-15004,-2520,-736,-2715,-6019,-3220,2025-01-29 15:15:09,0.0
-13448,-1736,208,-2400,-8539,-2357,2025-01-29 15:15:09,0.0
-11568,-1088,204,-2183,-9181,-1997,2025-01-29 15:15:09,0.0
-10416,-788,-272,-2192,-7859,-2114,2025-01-29 15:15:09,0.0
-9836,-1224,-248,-2585,-4322,-2593,2025-01-29 15:15:09,0.0
-10036,-1772,84,-2843,-848,-2943,2025-01-29 15:15:09,0.0
-10512,-2248,236,-2744,1863,-2903,2025-01-29 15:15:09,0.0
-11404,-1952,504,-2404,3290,-2223,2025-01-29 15:15:09,0.0
-12300,-1328,832,-2173,3674,-1537,2025-01-29 15:15:09,0.0
-13148,-720,956,-2194,3706,-753,2025-01-29 15:15:09,0.0
-13776,-456,892,-2542,3421,72,2025-01-29 15:15:09,0.0
-13764,-440,1588,-2817,2520,919,2025-01-29 15:15:09,0.0
-13580,-504,1968,-2765,1227,1521,2025-01-29 15:15:09,0.0
-13596,-832,1728,-2653,201,2076,2025-01-29 15:15:09,0.0
-13320,-1140,1484,-2758,-49,2268,2025-01-29 15:15:09,0.0
-12864,-1556,1584,-3036,440,2056,2025-01-29 15:15:09,0.0
-13128,-1804,1900,-3374,1046,1688,2025-01-29 15:15:09,0.0
-13488,-1964,1496,-3591,1346,1420,2025-01-29 15:15:09,0.0
-13408,-1724,776,-3845,1177,956,2025-01-29 15:15:09,0.0
-13468,-1156,412,-4325,717,368,2025-01-29 15:15:09,0.0
-13824,-680,1200,-4918,494,-263,2025-01-29 15:15:09,0.0
-14524,-1000,2008,-5353,976,-619,2025-01-29 15:15:09,0.0
-15416,-1752,2840,-5928,1580,-1007,2025-01-29 15:15:09,0.0
-16312,-1984,3420,-6442,1218,-1630,2025-01-29 15:15:09,0.0
-17084,-2584,3688,-6217,-114,-1706,2025-01-29 15:15:09,0.0
-17752,-2448,2312,-5414,-597,-1620,2025-01-29 15:15:09,0.0
-16792,-2208,-36,-5129,-1111,-2206,2025-01-29 15:15:09,0.0
-15516,-3812,840,-4680,-1042,-4150,2025-01-29 15:15:09,0.0
-15992,-5656,1732,-3132,-911,-6342,2025-01-29 15:15:09,0.0
-17660,-6908,1940,-477,-1568,-6911,2025-01-29 15:15:09,0.0
-20592,-6460,1868,2078,-2955,-4484,2025-01-29 15:15:09,0.0
-20016,-2724,852,3728,-5545,131,2025-01-29 15:15:09,0.0
-17276,-200,-2268,3860,-8619,2592,2025-01-29 15:15:09,0.0
-14544,1300,-4988,2719,-11860,4480,2025-01-29 15:15:09,0.0
-10972,2136,-6260,822,-13772,4551,2025-01-29 15:15:09,
-8748,3128,-6068,-1433,-11708,2723,2025-01-29 15:15:09,0.0
-8312,3640,-4660,-3335,-4208,516,2025-01-29 15:15:09,0.0
-10800,2324,-3912,-4169,5463,-795,2025-01-29 15:15:09,0.0
-12912,352,-1892,-3419,10966,-808,2025-01-29 15:15:09,0.0
-14864,-1288,700,-2242,13778,-292,2025-01-29 15:15:10,0.0
-15560,-2184,1512,-1277,11594,677,2025-01-29 15:15:10,0.0
-16208,-2564,1512,-154,6796,1519,2025-01-29 15:15:10,0.0
-16408,-2324,1276,970,1620,2268,2025-01-29 15:15:10,0.0
-15732,-1592,788,1674,-2505,2934,2025-01-29 15:15:10,0.0
-14184,-904,820,2278,-4836,3296,2025-01-29 15:15:10,0.0
-12644,24,616,2798,-5923,3367,2025-01-29 15:15:10,0.0
-11452,936,444,3121,-5940,3185,2025-01-29 15:15:10,0.0
-10436,1812,-132,3055,-4517,2749,2025-01-29 15:15:10,0.0
-10284,2052,-352,2486,-1284,2116,2025-01-29 15:15:10,0.0
-10480,1716,184,2019,1911,1381,2025-01-29 15:15:10,0.0
-10856,1156,340,1824,3837,906,2025-01-29 15:15:10,0.0
-12088,772,1376,1938,4068,705,2025-01-29 15:15:10,0.0
-13000,584,2204,2094,2959,701,2025-01-29 15:15:10,0.0
-13108,656,2236,2199,1183,442,2025-01-29 15:15:10,0.0
-12728,832,1868,2113,-323,-79,2025-01-29 15:15:10,0.0
-12436,1048,1924,1980,-1239,-734,2025-01-29 15:15:10,0.0
-12644,892,2040,2070,-1505,-1162,2025-01-29 15:15:10,0.0
-12772,516,2184,2088,-1388,-1239,2025-01-29 15:15:10,0.0
-13132,404,1928,2111,-1357,-1223,2025-01-29 15:15:10,0.0
-12852,228,1484,2032,-1508,-1258,2025-01-29 15:15:10,0.0
-12656,332,1460,2003,-1507,-1410,2025-01-29 15:15:10,0.0
-12960,456,1320,2063,-1048,-1404,2025-01-29 15:15:10,0.0
-12624,448,1336,2228,-579,-1220,2025-01-29 15:15:10,0.0
-12448,696,1332,2592,-54,-1183,2025-01-29 15:15:10,0.0
-12608,944,1660,2801,737,-1093,2025-01-29 15:15:10,0.0
-12688,748,2300,3052,1918,-1126,2025-01-29 15:15:10,0.0
-13920,532,2284,3344,3360,-974,2025-01-29 15:15:10,0.0
-14504,628,1884,3630,3928,-386,2025-01-29 15:15:10,0.0
-14456,968,1520,3812,3454,127,2025-01-29 15:15:10,0.0
-14448,1660,1496,3717,2621,463,2025-01-29 15:15:10,0.0
-14140,2340,1968,3581,2379,697,2025-01-29 15:15:10,0.0
-14688,2660,1768,3481,3593,814,2025-01-29 15:15:10,0.0
-15964,1864,1116,3290,6316,962,2025-01-29 15:15:10,0.0
-18192,964,864,3111,8729,1497,2025-01-29 15:15:10,0.0
-19812,1656,988,3312,8941,2460,2025-01-29 15:15:10,0.0
-20592,3276,-1396,2943,6644,4109,2025-01-29 15:15:10,0.0
-19620,3828,-4040,1051,2908,4916,2025-01-29 15:15:10,0.0
-18040,4212,-4400,-1588,-1412,4616,2025-01-29 15:15:10,0.0
-14580,2828,-1948,-3290,-4786,2400,2025-01-29 15:15:10,0.0
-12924,724,-540,-3815,-6684,-957,2025-01-29 15:15:10,0.0
-12400,-732,-1400,-3598,-8411,-3413,2025-01-29 15:15:10,0.0
-12620,-1500,-2840,-2817,-10382,-3839,2025-01-29 15:15:10,0.0
-12140,-2764,-3612,-2280,-11491,-3043,2025-01-29 15:15:10,0.0
-11292,-3712,-3024,-2099,-10218,-1880,2025-01-29 15:15:10,0.0
-10656,-3228,-2124,-1784,-4265,-491,2025-01-29 15:15:10,0.0
-10072,-1924,-1852,-423,4141,-14,2025-01-29 15:15:10,0.0
-10788,-772,-2220,227,9241,-112,2025-01-29 15:15:10,0.0
-11924,204,-264,245,12243,-494,2025-01-29 15:15:10,0.0
-13288,576,408,-170,13992,-1430,2025-01-29 15:15:10,0.0
-15656,320,268,-964,13176,-2022,2025-01-29 15:15:10,0.0
-16460,-224,-1240,-1788,9902,-2407,2025-01-29 15:15:10,0.0
-17316,-640,-1428,-2693,3850,-2704,2025-01-29 15:15:10,0.0
-16892,-1672,488,-3120,-2756,-2689,2025-01-29 15:15:10,0.0
-14088,-2032,-708,-3341,-7413,-2491,2025-01-29 15:15:10,0.0
-13244,-2092,84,-3180,-8699,-2260,2025-01-29 15:15:10,0.0
-11928,-1996,-112,-3064,-8070,-2076,2025-01-29 15:15:10,0.0
-10740,-1748,-288,-2860,-5923,-2208,2025-01-29 15:15:10,0.0
-10288,-1524,-592,-2777,-1310,-2622,2025-01-29 15:15:10,0.0
-10588,-1660,-720,-2759,1967,-2837,2025-01-29 15:15:10,0.0
-11720,-1708,-224,-2958,3697,-2844,2025-01-29 15:15:10,0.0
-13252,-1456,496,-3030,4379,-2516,2025-01-29 15:15:11,0.0
-14280,-908,880,-2955,4178,-1865,2025-01-29 15:15:11,0.0
-14696,-504,1016,-2962,3096,-1070,2025-01-29 15:15:11,0.0
-14452,-464,1272,-3068,677,-184,2025-01-29 15:15:11,0.0
-14088,-564,1648,-3022,-1595,598,2025-01-29 15:15:11,0.0
-13348,-1012,1264,-2902,-2321,1181,2025-01-29 15:15:11,0.0
-12652,-980,984,-2720,-2362,1614,2025-01-29 15:15:11,0.0
-12460,-1344,1000,-2669,-2194,1984,2025-01-29 15:15:11,0.0
-12732,-1416,1032,-2435,-1995,2429,2025-01-29 15:15:11,0.0
-12816,-1496,1264,-2259,-1768,2812,2025-01-29 15:15:11,0.0
-12772,-1488,1096,-2266,-1455,3017,2025-01-29 15:15:11,0.0
-12832,-1412,760,-2190,-1490,3088,2025-01-29 15:15:11,0.0
-12572,-1316,204,-2290,-1733,2915,2025-01-29 15:15:11,0.0
-12424,-528,108,-2682,-1507,2486,2025-01-29 15:15:11,0.0
-12792,540,852,-3252,-123,1886,2025-01-29 15:15:11,0.0
-13888,1820,1232,-3909,1667,1503,2025-01-29 15:15:11,0.0
-14656,1104,1172,-4808,2414,839,2025-01-29 15:15:11,0.0
-15212,-664,1312,-5516,1170,153,2025-01-29 15:15:11,0.0
-15400,-2056,2168,-5982,-1372,-438,2025-01-29 15:15:11,0.0
-15364,-2360,3772,-5817,-3433,-763,2025-01-29 15:15:11,0.0
-13652,-2032,3644,-5648,-3352,-1140,2025-01-29 15:15:11,0.0
-13192,-1788,3776,-5510,-686,-1626,2025-01-29 15:15:11,0.0
-14600,-2184,1760,-5043,3618,-1806,2025-01-29 15:15:11,0.0
-15852,-2584,-700,-5211,5831,-2336,2025-01-29 15:15:11,0.0
-16384,-4376,660,-4951,6640,-3619,2025-01-29 15:15:11,0.0
-17376,-5628,1864,-3225,6255,-5180,2025-01-29 15:15:11,0.0
-19644,-5648,2228,-398,4124,-5379,2025-01-29 15:15:11,0.0
-20796,-4112,736,2354,414,-4093,2025-01-29 15:15:11,0.0
-20508,-860,-392,3421,-5283,-1327,2025-01-29 15:15:11,0.0
-17560,1876,-604,3575,-9742,1050,2025-01-29 15:15:11,0.0
-14468,2804,-3080,2627,-12471,3591,2025-01-29 15:15:11,0.0
-10544,2400,-5400,1237,-11944,4523,2025-01-29 15:15:11,0.0
-8908,2108,-5912,-406,-8589,3552,2025-01-29 15:15:11,0.0
-7056,1720,-5284,-1913,-3290,1393,2025-01-29 15:15:11,0.0
-7960,992,-5656,-2668,5386,-1063,2025-01-29 15:15:11,
-9248,772,-4064,-2404,9477,-1975,2025-01-29 15:15:11,0.0
-9984,892,-3620,-1780,10891,-2692,2025-01-29 15:15:11,0.0
-12836,936,-2724,-1872,11531,-3026,2025-01-29 15:15:11,0.0
-13780,168,-2384,-2201,11132,-3113,2025-01-29 15:15:11,0.0
-15604,-300,-1728,-2047,10272,-2500,2025-01-29 15:15:11,0.0
-16888,-340,-1432,-1360,8812,-1342,2025-01-29 15:15:11,0.0
-18228,200,-2464,-665,5860,526,2025-01-29 15:15:11,0.0
-17668,744,-2008,-364,2175,1726,2025-01-29 15:15:11,0.0
-15712,424,-2208,50,-1319,2171,2025-01-29 15:15:11,0.0
-14148,316,-2392,155,-2983,2246,2025-01-29 15:15:11,0.0
-11856,436,-3396,66,-2580,2139,2025-01-29 15:15:11,0.0
-11624,496,-2732,-124,-592,1793,2025-01-29 15:15:11,0.0
-11248,616,-2716,-527,1987,1318,2025-01-29 15:15:11,0.0
-12168,812,-2084,-836,4002,879,2025-01-29 15:15:11,0.0
-12840,972,-1724,-954,4247,612,2025-01-29 15:15:11,0.0
-13504,1084,-1096,-913,3454,478,2025-01-29 15:15:11,0.0
-13596,912,-956,-689,2332,416,2025-01-29 15:15:11,0.0
-13300,536,-992,-345,1908,313,2025-01-29 15:15:11,0.0
-13312,372,-1336,15,2091,240,2025-01-29 15:15:11,0.0
-13260,304,-1364,371,2402,245,2025-01-29 15:15:11,0.0
-13268,104,-1444,753,2409,237,2025-01-29 15:15:11,0.0
-13296,-280,-1740,1273,2150,238,2025-01-29 15:15:11,0.0
-13432,-280,-2072,1721,1670,144,2025-01-29 15:15:11,0.0
-13184,-228,-2208,2143,896,40,2025-01-29 15:15:12,0.0
-12992,160,-2272,2699,241,57,2025-01-29 15:15:12,0.0
-13224,316,-2868,3121,53,166,2025-01-29 15:15:12,0.0
-12852,228,-3064,3376,-65,327,2025-01-29 15:15:12,0.0
-12380,-64,-3008,3486,-709,255,2025-01-29 15:15:12,0.0
-11936,-296,-3008,3677,-1854,211,2025-01-29 15:15:12,0.0
-11516,-44,-2816,3929,-2943,92,2025-01-29 15:15:12,0.0
-10980,400,-2768,4324,-3732,-297,2025-01-29 15:15:12,0.0
-10520,924,-3204,4578,-5235,-401,2025-01-29 15:15:12,0.0
-9728,988,-3264,4431,-7310,-201,2025-01-29 15:15:12,0.0
-8500,1020,-2492,3825,-8591,22,2025-01-29 15:15:12,0.0
-6876,1432,-1320,2910,-9138,367,2025-01-29 15:15:12,0.0
-6428,2040,-1456,1841,-7512,383,2025-01-29 15:15:12,0.0
-6688,2756,-1356,347,-3763,-229,2025-01-29 15:15:12,0.0
-7484,2108,-200,-1078,-513,-926,2025-01-29 15:15:12,0.0
-9036,568,1704,-1512,1223,-1272,2025-01-29 15:15:12,0.0
-11044,-1296,3524,-539,1735,-635,2025-01-29 15:15:12,0.0
-12148,-1344,3028,328,1457,483,2025-01-29 15:15:12,0.0
-11728,-520,2552,160,288,703,2025-01-29 15:15:12,0.0
-11240,-900,2776,629,-2308,285,2025-01-29 15:15:12,0.0
-10920,-1576,260,793,-5084,-256,2025-01-29 15:15:12,0.0
-11312,-1596,-1312,141,-6671,-522,2025-01-29 15:15:12,0.0
-10920,-1084,-788,-276,-6325,-235,2025-01-29 15:15:12,0.0
-10020,-1156,188,43,-4833,-607,2025-01-29 15:15:12,0.0
-10304,-1228,740,5,-2969,-1115,2025-01-29 15:15:12,0.0
-11176,-1580,832,-411,-1191,-1473,2025-01-29 15:15:12,0.0
-12476,-2028,164,-972,253,-2069,2025-01-29 15:15:12,0.0
-14076,-1392,-28,-1163,647,-2114,2025-01-29 15:15:12,0.0
-14288,-396,532,-302,-3356,-565,2025-01-29 15:15:12,0.0
-14184,-172,-136,-559,-4775,-223,2025-01-29 15:15:12,0.0
-15720,100,1996,-851,-3812,161,2025-01-29 15:15:12,0.0
-16056,-484,3076,-575,-2479,436,2025-01-29 15:15:12,0.0
-15884,-948,2716,-539,-3805,969,2025-01-29 15:15:12,0.0
-14316,-1736,1100,-500,-6965,1192,2025-01-29 15:15:12,0.0
-13556,-1348,-8,-795,-8905,1606,2025-01-29 15:15:12,0.0
-14236,-1216,808,-878,-7881,1428,2025-01-29 15:15:12,0.0
-15640,-1336,2436,-374,-6076,1364,2025-01-29 15:15:12,0.0
-15596,-1136,3620,-235,-4886,896,2025-01-29 15:15:12,0.0
-15952,-644,3368,-475,-6717,-92,2025-01-29 15:15:12,0.0
-15920,372,4292,-492,-9002,-608,2025-01-29 15:15:12,0.0
-15880,864,3620,-1045,-10966,-506,2025-01-29 15:15:12,0.0
-14848,880,4436,-1024,-12282,225,2025-01-29 15:15:12,0.0
-14456,196,5292,-884,-12518,584,2025-01-29 15:15:12,0.0
-13736,-8,5188,-262,-12658,397,2025-01-29 15:15:12,0.0
-13448,-376,5696,-448,-12277,-98,2025-01-29 15:15:12,0.0
-14640,140,5400,-754,-11531,-472,2025-01-29 15:15:12,0.0
-14908,932,7416,-1267,-10424,-347,2025-01-29 15:15:12,0.0
-15032,744,7104,-896,-9209,-150,2025-01-29 15:15:12,0.0
-14576,220,7284,-649,-8332,444,2025-01-29 15:15:12,0.0
-14384,-1024,7880,-149,-7475,823,2025-01-29 15:15:12,0.0
-14200,-2000,7516,219,-6621,641,2025-01-29 15:15:12,0.0
-15272,-948,8564,292,-6819,210,2025-01-29 15:15:12,0.0
-15400,380,9908,462,-7501,297,2025-01-29 15:15:12,0.0
-14544,444,9728,671,-8523,404,2025-01-29 15:15:12,0.0
-14708,-24,9276,610,-9125,144,2025-01-29 15:15:12,0.0
-15636,-164,10764,300,-9854,-95,2025-01-29 15:15:12,0.0
-14988,344,10692,-120,-10157,-476,2025-01-29 15:15:12,0.0
-15480,920,11464,-492,-11595,-472,2025-01-29 15:15:12,0.0
-13632,484,12100,-699,-13700,223,2025-01-29 15:15:12,0.0
-12588,-32,12224,-598,-15900,843,2025-01-29 15:15:12,0.0
-11872,-212,11888,-403,-16922,905,2025-01-29 15:15:12,0.0
-11172,148,10852,-761,-15817,652,2025-01-29 15:15:12,0.0
-11140,-416,12280,-983,-13613,452,2025-01-29 15:15:12,0.0
-11740,-520,13036,-1336,-12422,-74,2025-01-29 15:15:12,0.0
-11676,-276,14944,-846,-13120,5,2025-01-29 15:15:13,0.0
-10852,-820,14396,-355,-13011,301,2025-01-29 15:15:13,0.0
-10108,-984,14984,16,-11664,101,2025-01-29 15:15:13,0.0
-10288,-760,15144,-13,-9374,-422,2025-01-29 15:15:13,0.0
-10364,-16,15644,-116,-6493,-976,2025-01-29 15:15:13,0.0
-9836,284,15596,-44,-3423,-1274,2025-01-29 15:15:13,0.0
-9848,248,16288,251,-1580,-1268,2025-01-29 15:15:13,0.0
-10052,392,16324,549,-310,-1067,2025-01-29 15:15:13,0.0
-10448,292,16256,564,-140,-749,2025-01-29 15:15:13,0.0
-10544,64,16204,434,-231,-571,2025-01-29 15:15:13,0.0
-9960,88,15664,152,-112,-449,2025-01-29 15:15:13,0.0
-9252,-100,15040,-98,0,-273,2025-01-29 15:15:13,0.0
-8516,-628,14616,-231,215,-276,2025-01-29 15:15:13,
-8296,-736,14168,-218,579,-292,2025-01-29 15:15:13,0.0
-7880,-844,13908,-229,1230,-365,2025-01-29 15:15:13,0.0
-7484,-920,13268,-347,2082,-598,2025-01-29 15:15:13,0.0
-7064,-408,12600,-721,3354,-879,2025-01-29 15:15:13,0.0
-7588,188,13528,-739,3767,-634,2025-01-29 15:15:13,0.0
-7764,356,13716,-701,3045,-329,2025-01-29 15:15:13,0.0
-8044,-40,14016,-623,2199,-170,2025-01-29 15:15:13,0.0
-8272,-140,14212,-547,1262,-77,2025-01-29 15:15:13,0.0
-8160,-220,14356,-496,352,-51,2025-01-29 15:15:13,0.0
-8152,28,13848,-456,-95,6,2025-01-29 15:15:13,0.0
-7892,128,13148,-375,-37,79,2025-01-29 15:15:13,0.0
-8036,-76,13752,-229,274,180,2025-01-29 15:15:13,0.0
-8364,-772,14308,-79,-84,3,2025-01-29 15:15:13,0.0
-8584,-996,14568,155,-713,-195,2025-01-29 15:15:13,0.0
-8860,-676,14268,328,-1189,-290,2025-01-29 15:15:13,0.0
-8684,-404,14088,334,-1219,-289,2025-01-29 15:15:13,0.0
-8240,272,13452,169,-749,-275,2025-01-29 15:15:13,0.0
-8008,672,13536,-85,180,-168,2025-01-29 15:15:13,0.0
-8416,452,14068,-269,478,40,2025-01-29 15:15:13,0.0
-8752,-356,14868,-311,-88,173,2025-01-29 15:15:13,0.0
-8572,-672,14608,-310,-760,168,2025-01-29 15:15:13,0.0
-8676,-596,14364,-278,-899,81,2025-01-29 15:15:13,0.0
-9004,-268,14404,-221,-1023,96,2025-01-29 15:15:13,0.0
-8756,-944,14376,129,-710,48,2025-01-29 15:15:13,0.0
-8320,-568,14184,358,-174,6,2025-01-29 15:15:13,0.0
-8292,28,14040,345,315,2,2025-01-29 15:15:13,0.0
-8760,772,14268,152,760,162,2025-01-29 15:15:13,0.0
-8844,768,14552,86,920,380,2025-01-29 15:15:13,0.0
-9008,348,14612,105,611,556,2025-01-29 15:15:13,0.0
-8404,-24,14328,36,204,572,2025-01-29 15:15:13,0.0
-8188,-272,14336,-28,236,443,2025-01-29 15:15:13,0.0
-8028,-124,14192,8,491,351,2025-01-29 15:15:13,0.0
-8080,76,14092,-41,729,247,2025-01-29 15:15:13,0.0
-8424,432,13996,-202,709,269,2025-01-29 15:15:13,0.0
-8556,656,14028,-362,492,345,2025-01-29 15:15:13,0.0
-8612,380,14368,-412,228,412,2025-01-29 15:15:13,0.0
-8356,-152,14356,-388,-31,380,2025-01-29 15:15:13,0.0
-8344,-304,14380,-298,-230,230,2025-01-29 15:15:13,0.0
-8332,-408,14148,-158,-269,132,2025-01-29 15:15:13,0.0
-8312,28,14168,12,-143,145,2025-01-29 15:15:13,0.0
-8228,256,14040,123,177,188,2025-01-29 15:15:13,0.0
-8560,504,13980,98,481,238,2025-01-29 15:15:13,0.0
-8500,740,14180,-43,521,305,2025-01-29 15:15:13,0.0
-8532,664,14324,-212,348,316,2025-01-29 15:15:13,0.0
-8540,344,14572,-340,101,238,2025-01-29 15:15:13,0.0
-8756,20,14744,-395,-175,167,2025-01-29 15:15:13,0.0
-8680,-256,14580,-443,-509,10,2025-01-29 15:15:13,0.0
-8776,-140,14616,-405,-871,-75,2025-01-29 15:15:14,0.0
-8648,-72,14444,-317,-1258,-115,2025-01-29 15:15:14,0.0
-8412,-28,14312,-348,-1318,-219,2025-01-29 15:15:14,0.0
-8452,-220,13992,-279,-875,-334,2025-01-29 15:15:14,0.0
-8476,-244,13528,-109,-274,-488,2025-01-29 15:15:14,0.0
-8608,-100,13780,-95,-29,-514,2025-01-29 15:15:14,0.0
-8580,340,13696,-132,-16,-418,2025-01-29 15:15:14,0.0
-8520,600,14228,-189,-226,-320,2025-01-29 15:15:14,0.0
-8344,972,14108,-317,-603,-149,2025-01-29 15:15:14,0.0
-8472,704,14108,-467,-642,-38,2025-01-29 15:15:14,0.0
-8288,508,14444,-518,-404,89,2025-01-29 15:15:14,0.0
-8168,404,14156,-481,-56,99,2025-01-29 15:15:14,0.0
-7944,420,13900,-408,231,136,2025-01-29 15:15:14,0.0
-7836,224,13800,-356,818,218,2025-01-29 15:15:14,0.0
-8048,76,13552,-248,1346,159,2025-01-29 15:15:14,0.0
-8172,-136,14080,-120,1397,147,2025-01-29 15:15:14,0.0
-7888,-556,14272,130,960,46,2025-01-29 15:15:14,0.0
-7848,-464,14096,283,425,-229,2025-01-29 15:15:14,0.0
-8020,184,14460,174,168,-437,2025-01-29 15:15:14,0.0
-8372,708,14580,1,-38,-481,2025-01-29 15:15:14,0.0
-8576,784,14768,-89,-333,-410,2025-01-29 15:15:14,0.0
-8840,560,14896,-145,-512,-284,2025-01-29 15:15:14,0.0
-8732,104,14684,-196,-539,-177,2025-01-29 15:15:14,0.0
-8708,-304,14556,-238,-601,-148,2025-01-29 15:15:14,0.0
-8640,-332,14608,-269,-751,-208,2025-01-29 15:15:14,0.0
-8656,32,14588,-282,-905,-180,2025-01-29 15:15:14,0.0
-8288,160,14480,-233,-602,-173,2025-01-29 15:15:14,0.0
-8068,-188,14452,-148,98,-274,2025-01-29 15:15:14,0.0
-7964,-260,14316,-143,658,-466,2025-01-29 15:15:14,0.0
-8012,112,14384,-186,803,-551,2025-01-29 15:15:14,0.0
-8284,408,14464,-247,634,-438,2025-01-29 15:15:14,0.0
-8596,616,14540,-313,307,-208,2025-01-29 15:15:14,0.0
-8252,328,14320,-401,144,-15,2025-01-29 15:15:14,0.0
-7908,-8,14116,-423,209,-7,2025-01-29 15:15:14,0.0
-7864,-260,14164,-428,316,-71,2025-01-29 15:15:14,0.0
-8036,-300,14232,-367,295,-142,2025-01-29 15:15:14,0.0
-8092,-216,14576,-281,84,-161,2025-01-29 15:15:14,0.0
-8176,-4,14632,-229,-145,-196,2025-01-29 15:15:14,0.0
-8244,352,14392,-213,-277,-158,2025-01-29 15:15:14,0.0
-8352,208,14168,-331,-301,-150,2025-01-29 15:15:14,0.0
-8260,36,14264,-370,-188,-135,2025-01-29 15:15:14,0.0
-8252,-72,14396,-368,-111,-156,2025-01-29 15:15:14,0.0
-8312,-288,14428,-264,-11,-185,2025-01-29 15:15:14,0.0
-8372,-264,14312,-207,84,-288,2025-01-29 15:15:14,0.0
-8480,48,14448,-177,115,-347,2025-01-29 15:15:14,0.0
-8588,204,14624,-216,75,-328,2025-01-29 15:15:14,0.0
-8324,180,14588,-154,83,-255,2025-01-29 15:15:14,0.0
-8228,-76,14640,-93,61,-233,2025-01-29 15:15:14,0.0
-7724,-224,14268,-30,74,-217,2025-01-29 15:15:14,0.0
-8072,-152,14584,58,144,-211,2025-01-29 15:15:14,0.0
-8264,40,14528,106,125,-208,2025-01-29 15:15:14,0.0
-8428,164,14372,93,67,-179,2025-01-29 15:15:14,0.0
-8276,304,14204,29,-13,-176,2025-01-29 15:15:14,
-8176,176,14036,-113,-105,-63,2025-01-29 15:15:14,0.0
-8156,284,14272,-265,-216,-25,2025-01-29 15:15:14,0.0
-8024,56,14152,-386,-253,17,2025-01-29 15:15:14,0.0
-8064,12,14184,-491,-126,35,2025-01-29 15:15:14,0.0
-8032,-76,14336,-482,54,9,2025-01-29 15:15:14,0.0
-8124,68,14068,-433,190,-8,2025-01-29 15:15:14,0.0
-8120,-52,14220,-336,326,2,2025-01-29 15:15:15,0.0
-8184,-96,14496,-251,248,12,2025-01-29 15:15:15,0.0
-8116,16,14492,-178,6,26,2025-01-29 15:15:15,0.0
-8344,232,14516,-158,-225,48,2025-01-29 15:15:15,0.0
-8388,292,14420,-152,-251,70,2025-01-29 15:15:15,0.0
-8232,432,14524,-218,-167,106,2025-01-29 15:15:15,0.0
-8116,284,14496,-245,-27,78,2025-01-29 15:15:15,0.0
-8212,-68,14580,-234,18,9,2025-01-29 15:15:15,0.0
-8100,-136,14688,-195,-20,-31,2025-01-29 15:15:15,0.0
-8196,-92,14688,-131,-79,-102,2025-01-29 15:15:15,0.0
-8176,40,14592,-113,-109,-113,2025-01-29 15:15:15,0.0
-8176,180,14484,-157,-80,-76,2025-01-29 15:15:15,0.0
-8044,124,14504,-195,-50,-81,2025-01-29 15:15:15,0.0
-8180,164,14484,-193,-27,-89,2025-01-29 15:15:15,0.0
-8116,-44,14524,-169,-21,-110,2025-01-29 15:15:15,0.0
-8112,-4,14552,-145,-60,-149,2025-01-29 15:15:15,0.0
-8048,96,14420,-90,-50,-162,2025-01-29 15:15:15,0.0
-8020,112,14504,-79,-12,-177,2025-01-29 15:15:15,0.0
-7904,36,14460,-32,-17,-186,2025-01-29 15:15:15,0.0
-8048,152,14640,-80,-37,-210,2025-01-29 15:15:15,0.0
-8028,120,14572,-85,-59,-247,2025-01-29 15:15:15,0.0
-7916,116,14544,-55,-116,-256,2025-01-29 15:15:15,0.0
-7888,164,14744,-47,-135,-255,2025-01-29 15:15:15,0.0
-7888,76,14492,-43,-171,-279,2025-01-29 15:15:15,0.0
-7928,84,14692,-17,-227,-283,2025-01-29 15:15:15,0.0
-7868,64,14660,-43,-225,-311,2025-01-29 15:15:15,0.0
-7992,60,14556,-82,-154,-322,2025-01-29 15:15:15,0.0
-8140,76,14604,-61,-143,-323,2025-01-29 15:15:15,0.0
-7980,60,14520,-20,-126,-323,2025-01-29 15:15:15,0.0
-8020,76,14700,-18,-46,-347,2025-01-29 15:15:15,0.0
-8308,76,14788,-85,124,-352,2025-01-29 15:15:15,0.0
-8328,40,14656,-20,46,-339,2025-01-29 15:15:15,0.0
-8208,40,14480,-22,-88,-293,2025-01-29 15:15:15,0.0
-8072,96,14664,-17,-246,-288,2025-01-29 15:15:15,0.0
-7872,124,14720,-64,-272,-283,2025-01-29 15:15:15,0.0
-7832,160,14648,-124,-164,-264,2025-01-29 15:15:15,0.0
-7840,108,14720,-124,38,-289,2025-01-29 15:15:15,0.0
-7856,4,14800,-39,126,-311,2025-01-29 15:15:15,0.0
-7848,-32,14916,-10,68,-336,2025-01-29 15:15:15,0.0
-7948,24,14692,-14,-68,-369,2025-01-29 15:15:15,0.0
-8004,112,14744,-25,-154,-334,2025-01-29 15:15:15,0.0
-7900,196,14528,-56,-181,-294,2025-01-29 15:15:15,0.0
-7908,164,14576,-70,-120,-204,2025-01-29 15:15:15,0.0
-7716,64,14604,-37,-51,-189,2025-01-29 15:15:15,0.0
-7656,68,14756,-11,13,-204,2025-01-29 15:15:15,0.0
-7688,12,14600,-23,73,-236,2025-01-29 15:15:15,0.0
-7664,152,14404,-67,173,-280,2025-01-29 15:15:15,0.0
-7988,256,14476,-233,600,-403,2025-01-29 15:15:15,0.0
-7960,400,14336,-111,1320,-283,2025-01-29 15:15:15,0.0
-8112,328,15176,119,1634,-111,2025-01-29 15:15:15,0.0
-8484,104,15696,223,1937,-154,2025-01-29 15:15:15,0.0
-8540,12,16148,68,2406,-296,2025-01-29 15:15:15,0.0
-8648,124,16612,-7,3086,-451,2025-01-29 15:15:15,0.0
-9288,-168,16948,27,3882,-670,2025-01-29 15:15:15,0.0
-10288,-252,17828,218,4691,-906,2025-01-29 15:15:15,0.0
-11364,276,17984,229,5144,-1067,2025-01-29 15:15:15,0.0
-12012,584,18260,292,5748,-1091,2025-01-29 15:15:15,0.0
-13052,400,18660,418,6099,-972,2025-01-29 15:15:15,0.0
-13152,124,18028,465,6066,-973,2025-01-29 15:15:15,0.0
-13400,-404,17152,581,6703,-1100,2025-01-29 15:15:15,0.0
-13496,-536,16192,637,7652,-1235,2025-01-29 15:15:15,0.0
-13608,-8,15580,467,8350,-1203,2025-01-29 15:15:15,0.0
-13436,348,15076,273,8615,-1205,2025-01-29 15:15:16,0.0
-13328,384,14900,230,8885,-1251,2025-01-29 15:15:16,0.0
-13304,504,14296,159,9049,-1164,2025-01-29 15:15:16,0.0
-12940,176,13400,109,9287,-1040,2025-01-29 15:15:16,0.0
-12440,136,12704,-32,9777,-962,2025-01-29 15:15:16,0.0
-11872,724,12432,-61,10717,-549,2025-01-29 15:15:16,0.0
-10700,872,11772,218,11612,-425,2025-01-29 15:15:16,0.0
-9744,184,10924,448,11769,-875,2025-01-29 15:15:16,0.0
-9688,-864,9988,440,11620,-1330,2025-01-29 15:15:16,0.0
-9972,-1056,9380,41,11654,-1818,2025-01-29 15:15:16,0.0
-10728,-176,10076,195,11827,-1748,2025-01-29 15:15:16,0.0
-11300,388,10268,435,11585,-1391,2025-01-29 15:15:16,0.0
-12032,-272,9972,660,10979,-1287,2025-01-29 15:15:16,0.0
-12868,-808,9612,972,10454,-1303,2025-01-29 15:15:16,0.0
-13664,-420,9252,1078,10064,-1242,2025-01-29 15:15:16,0.0
-13872,-48,9548,1106,9422,-1101,2025-01-29 15:15:16,0.0
-13912,304,9356,992,8575,-1020,2025-01-29 15:15:16,0.0
-13580,464,8320,823,7532,-849,2025-01-29 15:15:16,0.0
-13308,688,6896,553,7024,-561,2025-01-29 15:15:16,0.0
-13004,408,5948,487,6608,-110,2025-01-29 15:15:16,0.0
-13040,156,5264,-131,6266,-2,2025-01-29 15:15:16,0.0
-12948,112,5624,-675,6216,76,2025-01-29 15:15:16,0.0
-13056,-172,5872,-1047,6319,31,2025-01-29 15:15:16,0.0
-13712,-248,6180,-1142,6418,55,2025-01-29 15:15:16,0.0
-14184,108,6380,-1081,6368,13,2025-01-29 15:15:16,0.0
-13984,544,6612,-1074,5902,314,2025-01-29 15:15:16,0.0
-13484,728,6968,-1042,4857,532,2025-01-29 15:15:16,0.0
-13164,504,5792,-951,4009,727,2025-01-29 15:15:16,0.0
-12696,232,4228,-1050,4173,725,2025-01-29 15:15:16,0.0
-12920,120,3104,-1286,5332,834,2025-01-29 15:15:16,0.0
-12240,-172,3492,-1492,6668,780,2025-01-29 15:15:16,0.0
-12172,-124,4740,-1358,7376,548,2025-01-29 15:15:16,
-12376,-164,5436,-879,7261,503,2025-01-29 15:15:16,0.0
-12508,-244,4964,-553,6540,594,2025-01-29 15:15:16,0.0
-12680,-460,3976,-327,5466,702,2025-01-29 15:15:16,0.0
-12436,-508,3116,29,4438,318,2025-01-29 15:15:16,0.0
-12956,-332,2576,-77,3926,175,2025-01-29 15:15:16,0.0
-12508,204,3412,-595,4017,-2,2025-01-29 15:15:16,0.0
-11948,656,4964,-563,3333,-206,2025-01-29 15:15:16,0.0
-11844,484,4484,-175,1461,224,2025-01-29 15:15:16,0.0
-11372,316,2868,-360,260,736,2025-01-29 15:15:16,0.0
-11156,32,2252,-715,579,827,2025-01-29 15:15:16,0.0
-11204,-60,2876,-730,1912,711,2025-01-29 15:15:16,0.0
-11460,72,3268,-441,2856,773,2025-01-29 15:15:16,0.0
-11616,108,3112,-291,3037,849,2025-01-29 15:15:16,0.0
-11192,104,3480,-253,2872,547,2025-01-29 15:15:16,0.0
-11136,-324,3744,-182,2400,-149,2025-01-29 15:15:16,0.0
-11496,-660,3292,-131,2044,-905,2025-01-29 15:15:16,0.0
-11848,-612,3096,20,1688,-1278,2025-01-29 15:15:16,0.0
-12032,-176,3184,313,758,-1097,2025-01-29 15:15:16,0.0
-11592,868,3296,765,-185,-551,2025-01-29 15:15:16,0.0
-11228,1424,2212,457,-448,50,2025-01-29 15:15:16,0.0
-10420,1128,1560,-178,279,-75,2025-01-29 15:15:16,0.0
-10272,484,1256,-911,1057,-738,2025-01-29 15:15:16,0.0
-10812,-152,1780,-1347,1450,-1280,2025-01-29 15:15:16,0.0
-11552,-612,2628,-1132,1358,-1166,2025-01-29 15:15:16,0.0
-11872,-1040,3160,-446,735,-680,2025-01-29 15:15:16,0.0
-11592,-1064,3352,256,225,-547,2025-01-29 15:15:16,0.0
-11748,-608,2864,579,-51,-757,2025-01-29 15:15:16,0.0
-12004,96,2828,724,-248,-976,2025-01-29 15:15:16,0.0
-12156,616,2516,552,-652,-906,2025-01-29 15:15:16,0.0
-12216,608,2584,520,-568,-868,2025-01-29 15:15:17,0.0
-12288,-56,1964,679,153,-1038,2025-01-29 15:15:17,0.0
-12912,-544,1468,664,1183,-861,2025-01-29 15:15:17,0.0
-13052,-284,1500,1177,1710,-646,2025-01-29 15:15:17,0.0
-13160,176,1356,1675,2232,-353,2025-01-29 15:15:17,0.0
-12996,380,1052,1800,3004,-379,2025-01-29 15:15:17,0.0
-13340,460,676,1774,3752,-610,2025-01-29 15:15:17,0.0
-14052,536,124,1658,3810,-704,2025-01-29 15:15:17,0.0
-14536,516,-336,1452,3704,-682,2025-01-29 15:15:17,0.0
-15032,520,-48,1303,3885,-606,2025-01-29 15:15:17,0.0
-15004,412,944,1216,3888,-587,2025-01-29 15:15:17,0.0
-14776,228,2664,1192,3003,-744,2025-01-29 15:15:17,0.0
-15032,552,3040,1167,1370,-858,2025-01-29 15:15:17,0.0
-14968,652,2640,764,-633,-895,2025-01-29 15:15:17,0.0
-14608,596,2636,196,-2505,-1050,2025-01-29 15:15:17,0.0
-14196,284,2880,-229,-3506,-1030,2025-01-29 15:15:17,0.0
-13424,-264,2732,-540,-3834,-1024,2025-01-29 15:15:17,0.0
-12428,-1036,2492,-463,-3212,-1474,2025-01-29 15:15:17,0.0
-12104,-1568,1532,-337,-1991,-1991,2025-01-29 15:15:17,0.0
-12068,-2080,1696,70,-758,-2277,2025-01-29 15:15:17,0.0
-12364,-2236,2936,929,373,-1968,2025-01-29 15:15:17,0.0
-12648,-2280,3900,1986,1929,-1434,2025-01-29 15:15:17,0.0
-13408,-2220,3452,2788,3548,-986,2025-01-29 15:15:17,0.0
-14680,-1852,2344,2818,5173,-811,2025-01-29 15:15:17,0.0
-15456,-1448,1784,2538,6798,-1172,2025-01-29 15:15:17,0.0
-15508,-760,1912,2458,7154,-1743,2025-01-29 15:15:17,0.0
-15124,-688,2116,2361,5370,-2361,2025-01-29 15:15:17,0.0
-14964,-632,2392,1778,1910,-2517,2025-01-29 15:15:17,0.0
-14948,-328,2676,1098,-933,-2343,2025-01-29 15:15:17,0.0
-14248,-12,2144,450,-2036,-2106,2025-01-29 15:15:17,0.0
-13524,248,1324,-176,-1673,-2143,2025-01-29 15:15:17,0.0
-12652,8,968,-1061,-1219,-2189,2025-01-29 15:15:17,0.0
-12404,-612,1120,-1936,-601,-2400,2025-01-29 15:15:17,0.0
-12600,-1876,1852,-2476,394,-2566,2025-01-29 15:15:17,0.0
-13108,-2580,2344,-2364,1212,-2367,2025-01-29 15:15:17,0.0
-13588,-2916,3304,-1794,1414,-1998,2025-01-29 15:15:17,0.0
-13576,-2940,3400,-1092,908,-1446,2025-01-29 15:15:17,0.0
-13292,-2588,3180,-902,215,-1257,2025-01-29 15:15:17,0.0
-13280,-1996,2736,-876,-60,-1102,2025-01-29 15:15:17,0.0
-13100,-1348,2264,-956,169,-904,2025-01-29 15:15:17,0.0
-13124,-940,1840,-1246,784,-685,2025-01-29 15:15:17,0.0
-13048,-1216,1800,-1651,1572,-521,2025-01-29 15:15:17,0.0
-13216,-1868,2244,-1911,2295,-372,2025-01-29 15:15:17,0.0
-13408,-2388,2608,-1867,2298,-224,2025-01-29 15:15:17,0.0
-13628,-2696,2780,-1608,1967,-40,2025-01-29 15:15:17,0.0
-13552,-2340,2840,-1342,1608,60,2025-01-29 15:15:17,0.0
-13540,-1620,2972,-1434,1439,165,2025-01-29 15:15:17,0.0
-13764,-956,2676,-1742,1257,289,2025-01-29 15:15:17,0.0
-13856,-1164,2324,-2222,732,433,2025-01-29 15:15:17,0.0
-13644,-1496,2496,-2461,634,575,2025-01-29 15:15:17,0.0
-13280,-1952,2628,-2656,894,863,2025-01-29 15:15:17,0.0
-13068,-2016,2652,-2958,1196,951,2025-01-29 15:15:17,0.0
-13020,-2064,3108,-3176,1376,1032,2025-01-29 15:15:17,0.0
-13196,-2172,3352,-3141,1331,1053,2025-01-29 15:15:17,0.0
-13080,-2596,3384,-3014,1186,1010,2025-01-29 15:15:17,0.0
-13044,-2600,3304,-2977,1520,378,2025-01-29 15:15:17,0.0
-13300,-2236,3772,-3194,1809,-155,2025-01-29 15:15:17,0.0
-13744,-2228,4352,-3131,1729,-541,2025-01-29 15:15:17,0.0
-14148,-3344,2772,-2970,2274,-1357,2025-01-29 15:15:17,0.0
-14940,-4144,1028,-3471,3255,-2770,2025-01-29 15:15:17,0.0
-15224,-5012,1172,-3249,3514,-4595,2025-01-29 15:15:18,0.0
-16120,-6348,1764,-2131,2391,-5999,2025-01-29 15:15:18,0.0
-17220,-6756,2152,-502,216,-6346,2025-01-29 15:15:18,0.0
-19228,-5928,1752,1045,-1535,-5611,2025-01-29 15:15:18,0.0
-20896,-4124,988,1518,-2560,-3754,2025-01-29 15:15:18,0.0
-20636,-2676,1128,1686,-4657,-1432,2025-01-29 15:15:18,0.0
-19752,-1552,1336,2419,-8541,1817,2025-01-29 15:15:18,0.0
-17004,-2336,48,3195,-11904,5134,2025-01-29 15:15:18,0.0
-13640,-3384,-1820,3199,-11656,5909,2025-01-29 15:15:18,0.0
-11288,-3764,-2460,2893,-7163,4859,2025-01-29 15:15:18,0.0
-10300,-3392,-2600,2787,-2013,3348,2025-01-29 15:15:18,
-10748,-2576,-2308,3055,649,2548,2025-01-29 15:15:18,0.0
-11052,-804,-1804,3614,1040,2235,2025-01-29 15:15:18,0.0
-11616,1180,-1720,3703,955,2154,2025-01-29 15:15:18,0.0
-11892,2276,-1704,3055,1492,2141,2025-01-29 15:15:18,0.0
-12112,2152,-1712,1919,2886,1902,2025-01-29 15:15:18,0.0
-13128,972,-988,1146,4612,1701,2025-01-29 15:15:18,0.0
-14608,-296,572,1436,5973,2155,2025-01-29 15:15:18,0.0
-15340,-960,1480,2032,6010,2602,2025-01-29 15:15:18,0.0
-15908,-1384,1768,2995,3950,3422,2025-01-29 15:15:18,0.0
-15680,-812,1728,3541,1038,3879,2025-01-29 15:15:18,0.0
-14368,-12,1056,3850,-1951,4098,2025-01-29 15:15:18,0.0
-13000,244,640,3945,-3394,3820,2025-01-29 15:15:18,0.0
-11884,472,748,3697,-3079,3248,2025-01-29 15:15:18,0.0
-11056,864,840,3539,-1662,2568,2025-01-29 15:15:18,0.0
-10744,804,724,3421,65,2000,2025-01-29 15:15:18,0.0
-11212,592,832,3405,1063,1724,2025-01-29 15:15:18,0.0
-11876,356,1096,3600,1925,1516,2025-01-29 15:15:18,0.0
-12088,352,1536,3614,2138,1333,2025-01-29 15:15:18,0.0
-12256,516,2200,3498,1858,1065,2025-01-29 15:15:18,0.0
-12212,820,2644,3429,1176,589,2025-01-29 15:15:18,0.0
-11968,920,3000,3306,291,-83,2025-01-29 15:15:18,0.0
-12028,664,3068,2939,-384,-915,2025-01-29 15:15:18,0.0
-12464,176,3724,2754,-930,-1525,2025-01-29 15:15:18,0.0
-12596,-96,3440,2698,-1920,-2068,2025-01-29 15:15:18,0.0
-13076,60,2028,2519,-2680,-2421,2025-01-29 15:15:18,0.0
-13476,740,1516,2023,-2635,-2319,2025-01-29 15:15:18,0.0
-13444,1296,1920,1757,-2040,-1917,2025-01-29 15:15:18,0.0
-13720,1096,2112,1714,-1520,-1375,2025-01-29 15:15:18,0.0
-14392,412,1404,1631,-828,-793,2025-01-29 15:15:18,0.0
-14900,-352,988,1857,362,-282,2025-01-29 15:15:18,0.0
-15168,-572,1552,2486,1223,-102,2025-01-29 15:15:18,0.0
-15804,-356,3436,3290,1165,419,2025-01-29 15:15:18,0.0
-15092,-532,5344,4343,227,821,2025-01-29 15:15:18,0.0
-15068,-716,4516,5408,-662,1124,2025-01-29 15:15:18,0.0
-14760,-668,2744,5969,151,1371,2025-01-29 15:15:18,0.0
-15192,-256,700,6446,2785,1317,2025-01-29 15:15:18,0.0
-16824,1392,-44,7035,6679,1554,2025-01-29 15:15:18,0.0
-18780,3804,156,6940,9829,2753,2025-01-29 15:15:18,0.0
-19556,6000,-540,5802,11240,4005,2025-01-29 15:15:18,0.0
-18952,7680,-2456,2097,8647,4781,2025-01-29 15:15:18,0.0
-17312,7872,-3384,-1748,1916,4402,2025-01-29 15:15:18,0.0
-13836,5320,-2320,-3898,-4865,842,2025-01-29 15:15:18,0.0
-12348,396,-2900,-5097,-9957,-3976,2025-01-29 15:15:18,0.0
-13000,-1564,-1912,-6217,-13356,-5265,2025-01-29 15:15:18,0.0
-12824,-2904,-1184,-6081,-15290,-4675,2025-01-29 15:15:18,0.0
-11732,-4428,-980,-5098,-13291,-2996,2025-01-29 15:15:18,0.0
-10800,-4056,-1120,-3308,-7414,-1250,2025-01-29 15:15:18,0.0
-10176,-2300,-1812,-924,1139,-432,2025-01-29 15:15:19,0.0
-9900,-732,-3020,216,8538,-710,2025-01-29 15:15:19,0.0
-10864,852,-1568,564,12490,-1423,2025-01-29 15:15:19,0.0
-12448,1984,-420,442,14231,-2088,2025-01-29 15:15:19,0.0
-15196,1692,-168,-1266,12949,-2080,2025-01-29 15:15:19,0.0
-16612,520,-876,-3065,9452,-1927,2025-01-29 15:15:19,0.0
-17212,-900,-1328,-4511,3555,-2129,2025-01-29 15:15:19,0.0
-16212,-1508,-1136,-5212,-2822,-2270,2025-01-29 15:15:19,0.0
-15200,-900,-824,-5662,-8160,-1879,2025-01-29 15:15:19,0.0
-13508,-444,168,-6491,-10481,-1652,2025-01-29 15:15:19,0.0
-12472,76,-124,-6566,-9595,-1608,2025-01-29 15:15:19,0.0
-11788,476,-604,-6990,-6979,-1119,2025-01-29 15:15:19,0.0
-11224,556,-1040,-7508,-3860,-743,2025-01-29 15:15:19,0.0
-11108,-140,-752,-8097,-1057,-413,2025-01-29 15:15:19,0.0
-11820,-540,268,-8403,-267,64,2025-01-29 15:15:19,0.0
-12716,-948,764,-8482,-249,606,2025-01-29 15:15:19,0.0
-13064,-1012,1372,-8522,-932,1120,2025-01-29 15:15:19,0.0
-13472,-1308,1524,-8502,-1916,1557,2025-01-29 15:15:19,0.0
-13504,-1252,924,-8276,-2267,1969,2025-01-29 15:15:19,0.0
-13376,-372,1320,-7864,-1723,2623,2025-01-29 15:15:19,0.0
-12872,704,1496,-7806,-490,3030,2025-01-29 15:15:19,0.0
-12672,1192,1124,-8446,28,2816,2025-01-29 15:15:19,0.0
-12696,1120,1368,-9250,-106,2363,2025-01-29 15:15:19,0.0
-13396,424,1508,-9862,-384,2035,2025-01-29 15:15:19,0.0
-13992,-76,1668,-10136,-417,2007,2025-01-29 15:15:19,0.0
-13960,-384,1648,-10485,-369,2028,2025-01-29 15:15:19,0.0
-13720,-548,1780,-10929,-595,1822,2025-01-29 15:15:19,0.0
-13712,-212,1800,-11341,-784,1690,2025-01-29 15:15:19,0.0
-13572,264,1268,-11701,-686,1566,2025-01-29 15:15:19,0.0
-13508,444,396,-11976,-342,1371,2025-01-29 15:15:19,0.0
-13660,184,464,-12610,496,1065,2025-01-29 15:15:19,0.0
-13920,-612,1272,-13024,1252,661,2025-01-29 15:15:19,0.0
-14348,-1380,2076,-13497,1587,319,2025-01-29 15:15:19,0.0
-14820,-1572,2484,-13985,1530,87,2025-01-29 15:15:19,0.0
-15056,-1184,3136,-14439,1382,145,2025-01-29 15:15:19,0.0
-15188,-152,1768,-14355,1997,378,2025-01-29 15:15:19,0.0
-15556,628,-1096,-14874,3490,-179,2025-01-29 15:15:19,0.0
-14736,-852,-916,-16371,4036,-2215,2025-01-29 15:15:19,0.0
-15760,-2420,1516,-16578,1873,-4110,2025-01-29 15:15:19,0.0
-17400,-2764,2056,-15523,-780,-3469,2025-01-29 15:15:19,0.0
-17852,-1744,1628,-13877,-2204,-1301,2025-01-29 15:15:19,0.0
-15912,604,436,-12478,-1623,565,2025-01-29 15:15:19,0.0
-13548,2064,-2000,-12593,686,664,2025-01-29 15:15:19,0.0
-11536,936,-4232,-14799,2614,-7,2025-01-29 15:15:19,0.0
-10144,-232,-2848,-16516,4312,-1268,2025-01-29 15:15:19,0.0
-11016,-784,-1380,-16538,6549,-2487,2025-01-29 15:15:19,0.0
-11780,-972,-1392,-16182,8868,-3179,2025-01-29 15:15:19,0.0
-12868,-800,-636,-15613,10083,-3424,2025-01-29 15:15:19,0.0
-13540,-160,0,-14532,9309,-3438,2025-01-29 15:15:19,0.0
-14108,1080,-260,-14066,7575,-3453,2025-01-29 15:15:19,0.0
-14884,1744,-648,-14060,5931,-3302,2025-01-29 15:15:19,0.0
-15288,1824,-1704,-14073,4138,-2340,2025-01-29 15:15:19,0.0
-14460,1556,-2464,-14489,2653,-1539,2025-01-29 15:15:19,
-13704,1660,-2708,-15259,1702,-1220,2025-01-29 15:15:19,0.0
-13144,2152,-2732,-15862,1008,-1050,2025-01-29 15:15:19,0.0
-12932,2044,-3252,-16133,345,-939,2025-01-29 15:15:19,0.0
-12632,1852,-3052,-16465,252,-745,2025-01-29 15:15:19,0.0
-12196,1644,-2268,-16555,638,-818,2025-01-29 15:15:19,0.0
-12356,2048,-2580,-16854,1223,-954,2025-01-29 15:15:19,0.0
-12596,3244,-2876,-17441,1745,-1151,2025-01-29 15:15:19,0.0
-12944,3616,-3236,-17862,1767,-1490,2025-01-29 15:15:19,0.0
-12748,2836,-3936,-18383,1096,-2052,2025-01-29 15:15:19,0.0
-12872,832,-3084,-19047,-61,-2615,2025-01-29 15:15:19,0.0
-12608,-536,-1792,-19019,-514,-2941,2025-01-29 15:15:20,0.0
-12500,-1580,-948,-18424,-140,-3166,2025-01-29 15:15:20,0.0
-12344,-2040,-580,-17592,213,-3433,2025-01-29 15:15:20,0.0
-12816,-1784,-1328,-16775,334,-3793,2025-01-29 15:15:20,0.0
-13208,-632,-1076,-16746,284,-4268,2025-01-29 15:15:20,0.0
-13600,572,-1612,-17004,74,-4714,2025-01-29 15:15:20,0.0
-14088,1812,-2500,-17464,-479,-4941,2025-01-29 15:15:20,0.0
-14636,2436,-3712,-17964,-1145,-4871,2025-01-29 15:15:20,0.0
-14264,2452,-4796,-18877,-1668,-4603,2025-01-29 15:15:20,0.0
-13720,1900,-5028,-20019,-1520,-4365,2025-01-29 15:15:20,0.0
-13304,1372,-5044,-21100,-706,-4228,2025-01-29 15:15:20,0.0
-12688,952,-4508,-21818,458,-4259,2025-01-29 15:15:20,0.0
-12808,472,-3864,-22183,1102,-4556,2025-01-29 15:15:20,0.0
-13916,108,-3392,-22392,1511,-4485,2025-01-29 15:15:20,0.0
-14268,-260,-2712,-22032,1564,-4188,2025-01-29 15:15:20,0.0
-14560,-628,-2184,-21198,842,-3796,2025-01-29 15:15:20,0.0
-14660,-1488,-2000,-20229,-311,-3343,2025-01-29 15:15:20,0.0
-14212,-2300,-1292,-18932,-1355,-2928,2025-01-29 15:15:20,0.0
-14132,-2624,-32,-17705,-1563,-2591,2025-01-29 15:15:20,0.0
-13360,-3004,-144,-16363,-1329,-2457,2025-01-29 15:15:20,0.0
-13180,-2864,-376,-14955,-992,-2519,2025-01-29 15:15:20,0.0
-12988,-2656,-876,-14031,-734,-2498,2025-01-29 15:15:20,0.0
-12580,-2320,84,-13229,-941,-2566,2025-01-29 15:15:20,0.0
-12284,-1776,176,-12385,-1217,-2693,2025-01-29 15:15:20,0.0
-12564,-996,324,-11393,-701,-2792,2025-01-29 15:15:20,0.0
-14108,-936,-84,-10468,1298,-2347,2025-01-29 15:15:20,0.0
-14796,-1316,124,-9673,2659,-1853,2025-01-29 15:15:20,0.0
-15424,-1436,-136,-8868,3067,-1430,2025-01-29 15:15:20,0.0
-15968,-908,-240,-7989,2277,-958,2025-01-29 15:15:20,0.0
-16104,-728,-208,-6978,486,-384,2025-01-29 15:15:20,0.0
-15264,-856,1012,-6072,-2142,-73,2025-01-29 15:15:20,0.0
-14188,-868,1928,-5358,-4937,-65,2025-01-29 15:15:20,0.0
-12956,-924,1580,-5026,-6992,-555,2025-01-29 15:15:20,0.0
-12540,-744,-208,-5289,-7902,-1109,2025-01-29 15:15:20,0.0
-12348,236,-2192,-6134,-7585,-1475,2025-01-29 15:15:20,0.0
-12268,2984,-3524,-7999,-4230,-1705,2025-01-29 15:15:20,0.0
-12044,4520,-4348,-10678,1333,-2082,2025-01-29 15:15:20,0.0
-11672,2808,-4120,-14143,5394,-3245,2025-01-29 15:15:20,0.0
-12556,-1000,-2228,-16559,6195,-4360,2025-01-29 15:15:20,0.0
-13620,-4164,-368,-17543,5064,-5149,2025-01-29 15:15:20,0.0
-14524,-6976,240,-17363,2903,-5040,2025-01-29 15:15:20,0.0
-15384,-7892,628,-15932,42,-4193,2025-01-29 15:15:20,0.0
-15128,-7488,1388,-13857,-2897,-3035,2025-01-29 15:15:20,0.0
-14108,-6052,1580,-12216,-4597,-2546,2025-01-29 15:15:20,0.0
-13116,-4664,420,-11590,-3870,-2651,2025-01-29 15:15:20,0.0
-13732,-3692,-788,-11440,-2826,-2587,2025-01-29 15:15:20,0.0
-14380,-2748,-272,-10962,-2416,-2209,2025-01-29 15:15:20,0.0
-13992,-2540,288,-10636,-2904,-1595,2025-01-29 15:15:20,0.0
-13944,-2740,1612,-10274,-3533,-1231,2025-01-29 15:15:20,0.0
-13916,-2716,1508,-10018,-3999,-881,2025-01-29 15:15:20,0.0
-14116,-2868,1376,-9691,-4678,-536,2025-01-29 15:15:20,0.0
-13308,-3448,196,-9308,-4988,-128,2025-01-29 15:15:20,0.0
-13604,-2636,1068,-8799,-4701,289,2025-01-29 15:15:20,0.0
-12916,-2020,456,-8684,-4754,849,2025-01-29 15:15:20,0.0
-12096,-1868,1052,-8773,-4353,1019,2025-01-29 15:15:20,0.0
-12036,-2520,1032,-8680,-2236,1083,2025-01-29 15:15:20,0.0
-12684,-3508,1968,-7974,711,1196,2025-01-29 15:15:20,0.0
-12872,-3968,2516,-6649,2210,1534,2025-01-29 15:15:20,0.0
-13076,-4152,2776,-5182,2391,1912,2025-01-29 15:15:20,0.0
-13968,-4532,2300,-3978,2418,2064,2025-01-29 15:15:20,0.0
-14220,-4944,1068,-3028,2811,1668,2025-01-29 15:15:20,0.0
-14404,-4568,1208,-2052,3025,1001,2025-01-29 15:15:21,0.0
-14764,-3144,1900,-1087,2499,818,2025-01-29 15:15:21,0.0
-14572,-1596,1708,-331,1202,1309,2025-01-29 15:15:21,0.0
-14212,-712,1168,-58,-127,2055,2025-01-29 15:15:21,0.0
-13540,-376,152,-284,-503,2178,2025-01-29 15:15:21,0.0
-13044,-592,-584,-795,314,1748,2025-01-29 15:15:21,0.0
-12748,-1408,-308,-1140,1200,944,2025-01-29 15:15:21,0.0
-13112,-2092,-56,-1046,1273,234,2025-01-29 15:15:21,0.0
-13388,-1964,-88,-708,682,-17,2025-01-29 15:15:21,0.0
-13448,-1140,100,-323,532,69,2025-01-29 15:15:21,0.0
-13604,-320,-196,-193,989,226,2025-01-29 15:15:21,0.0
-13696,-8,-72,-341,1508,345,2025-01-29 15:15:21,0.0
-13684,168,-600,-671,1845,422,2025-01-29 15:15:21,0.0
-13764,-228,-1124,-1119,2121,271,2025-01-29 15:15:21,0.0
-14112,-804,-1268,-1419,2416,-301,2025-01-29 15:15:21,0.0
-14936,-968,-900,-1367,2255,-529,2025-01-29 15:15:21,0.0
-14952,-700,32,-1011,1408,-286,2025-01-29 15:15:21,0.0
-14640,-488,156,-701,147,144,2025-01-29 15:15:21,0.0
-13776,-400,420,-735,-788,221,2025-01-29 15:15:21,0.0
-13436,-504,316,-739,-1036,25,2025-01-29 15:15:21,0.0
-13136,-628,-156,-686,-539,-211,2025-01-29 15:15:21,0.0
-13496,-460,-84,-480,260,-330,2025-01-29 15:15:21,0.0
-13564,-248,-28,-372,201,-299,2025-01-29 15:15:21,0.0
-13628,-172,204,-241,-109,-182,2025-01-29 15:15:21,0.0
-13652,-48,200,-223,-7,-61,2025-01-29 15:15:21,0.0
-13664,20,-100,-319,385,23,2025-01-29 15:15:21,0.0
-13996,164,-456,-533,691,35,2025-01-29 15:15:21,0.0
-14052,-160,-232,-637,496,31,2025-01-29 15:15:21,0.0
-14004,-552,392,-572,-120,42,2025-01-29 15:15:21,
-13944,-680,436,-284,-479,82,2025-01-29 15:15:21,0.0
-13772,-368,-240,-152,-587,53,2025-01-29 15:15:21,0.0
-13764,-264,-872,-258,-529,51,2025-01-29 15:15:21,0.0
-13376,-664,-504,-316,-354,-65,2025-01-29 15:15:21,0.0
-13592,-624,-64,-233,97,-93,2025-01-29 15:15:21,0.0
-13556,-556,188,-160,480,-82,2025-01-29 15:15:21,0.0
-13740,-312,268,-208,432,-128,2025-01-29 15:15:21,0.0
-13708,-196,84,-219,233,-139,2025-01-29 15:15:21,0.0
-13828,-436,164,-143,71,-100,2025-01-29 15:15:21,0.0
-13600,-440,-64,-91,156,-111,2025-01-29 15:15:21,0.0
-13536,-352,-224,-161,355,-176,2025-01-29 15:15:21,0.0
-13568,-288,-216,-283,530,-249,2025-01-29 15:15:21,0.0
-13708,-328,-300,-332,565,-255,2025-01-29 15:15:21,0.0
-13668,-352,-112,-338,547,-233,2025-01-29 15:15:21,0.0
-13624,-460,96,-288,568,-289,2025-01-29 15:15:21,0.0
-13956,-484,128,-234,658,-310,2025-01-29 15:15:21,0.0
-13728,-492,-24,-200,599,-342,2025-01-29 15:15:21,0.0
-13884,-444,12,-146,483,-346,2025-01-29 15:15:21,0.0
-13856,-504,-32,-96,416,-315,2025-01-29 15:15:21,0.0
-13728,-384,-116,-83,433,-304,2025-01-29 15:15:21,0.0
-13836,-344,-24,-39,504,-268,2025-01-29 15:15:21,0.0
-13780,-388,-184,-61,413,-279,2025-01-29 15:15:21,0.0
-13844,-432,-40,-34,374,-256,2025-01-29 15:15:21,0.0
-13828,-564,320,-4,331,-264,2025-01-29 15:15:21,0.0
-13500,-336,312,81,453,-255,2025-01-29 15:15:21,0.0
-13584,-512,76,133,526,-298,2025-01-29 15:15:21,0.0
-13772,-688,-300,173,300,-343,2025-01-29 15:15:21,0.0
-13944,-664,-116,305,326,-264,2025-01-29 15:15:21,0.0
-13836,-548,-132,335,504,-262,2025-01-29 15:15:21,0.0
-13800,-228,4,322,508,-177,2025-01-29 15:15:21,0.0
-13728,-60,-188,313,440,-40,2025-01-29 15:15:21,0.0
-13588,4,-604,215,492,-47,2025-01-29 15:15:21,0.0
-13432,144,-812,110,750,-188,2025-01-29 15:15:22,0.0
-13212,-32,-796,110,1128,-347,2025-01-29 15:15:22,0.0
-13088,-416,-904,96,1478,-570,2025-01-29 15:15:22,0.0
-12924,-752,-968,188,1871,-925,2025-01-29 15:15:22,0.0
-13164,-1144,-1236,456,2386,-1254,2025-01-29 15:15:22,0.0
-13120,-1460,-1264,951,3050,-1591,2025-01-29 15:15:22,0.0
-13760,-1280,-1444,1562,3674,-1772,2025-01-29 15:15:22,0.0
-14340,-1104,-1928,1967,3848,-1613,2025-01-29 15:15:22,0.0
-14492,-1020,-1384,2206,3109,-1432,2025-01-29 15:15:22,0.0
-14612,-488,-592,2449,1271,-962,2025-01-29 15:15:22,0.0
-13984,-168,16,2469,-173,-675,2025-01-29 15:15:22,0.0
-13896,172,52,2177,-711,-704,2025-01-29 15:15:22,0.0
-13808,704,-552,1899,-598,-938,2025-01-29 15:15:22,0.0
-13624,956,-1308,1428,-461,-1248,2025-01-29 15:15:22,0.0
-13280,568,-1076,1100,-658,-1543,2025-01-29 15:15:22,0.0
-13020,112,-240,872,-645,-1763,2025-01-29 15:15:22,0.0
-13112,-220,528,955,-106,-1666,2025-01-29 15:15:22,0.0
-13332,-980,860,1310,659,-1392,2025-01-29 15:15:22,0.0
-13636,-2136,752,1672,1248,-1177,2025-01-29 15:15:22,0.0
-13544,-2968,1440,2105,1350,-1188,2025-01-29 15:15:22,0.0
-14392,-3488,1404,2649,1119,-1270,2025-01-29 15:15:22,0.0
-14968,-3052,1420,2558,898,-1353,2025-01-29 15:15:22,0.0
-15404,-2148,1880,2240,484,-1736,2025-01-29 15:15:22,0.0
-15640,-900,1852,1768,-523,-2477,2025-01-29 15:15:22,0.0
-16384,488,2004,870,-3340,-2345,2025-01-29 15:15:22,0.0
-15560,804,2544,214,-6898,-957,2025-01-29 15:15:22,0.0
-13356,-44,1780,-436,-8415,-341,2025-01-29 15:15:22,0.0
-11960,-1308,692,-1069,-7663,-440,2025-01-29 15:15:22,0.0
-10392,-2320,16,-1483,-4644,-1138,2025-01-29 15:15:22,0.0
-10244,-2760,224,-1730,-1295,-1930,2025-01-29 15:15:22,0.0
-11164,-2704,1408,-1927,1675,-2356,2025-01-29 15:15:22,0.0
-12880,-1928,2660,-1939,2717,-2366,2025-01-29 15:15:22,0.0
-13968,-1312,2780,-1937,1913,-1650,2025-01-29 15:15:22,0.0
-13868,-1436,3360,-1886,401,-343,2025-01-29 15:15:22,0.0
-12964,-2032,3188,-1739,-38,324,2025-01-29 15:15:22,0.0
-12420,-2608,2580,-1765,408,600,2025-01-29 15:15:22,0.0
-12468,-3044,2416,-1783,1341,771,2025-01-29 15:15:22,0.0
-13060,-2628,2476,-1655,2168,1005,2025-01-29 15:15:22,0.0
-13128,-2272,2872,-1522,2194,1277,2025-01-29 15:15:22,0.0
-13280,-1964,2776,-1430,1874,1509,2025-01-29 15:15:22,0.0
-13236,-1888,2332,-1539,1530,1444,2025-01-29 15:15:22,0.0
-13520,-1992,2172,-1865,1222,1217,2025-01-29 15:15:22,0.0
-14212,-2072,1948,-2486,857,826,2025-01-29 15:15:22,0.0
-15204,-1784,2368,-3055,524,508,2025-01-29 15:15:22,0.0
-15920,-1812,3248,-3416,-490,308,2025-01-29 15:15:22,0.0
-16004,-2228,4052,-3557,-2130,335,2025-01-29 15:15:22,0.0
-14924,-3108,4536,-3803,-3587,50,2025-01-29 15:15:22,0.0
-13644,-4144,5008,-3654,-4367,-328,2025-01-29 15:15:22,0.0
-12428,-4840,4540,-2780,-3847,-592,2025-01-29 15:15:22,0.0
-12320,-4276,1332,-2146,-1841,-1710,2025-01-29 15:15:22,0.0
-13160,-2888,-708,-3222,673,-3619,2025-01-29 15:15:22,0.0
-14836,-2432,616,-4242,1922,-5773,2025-01-29 15:15:22,0.0
-16832,-2292,2864,-4267,1265,-6906,2025-01-29 15:15:22,0.0
-18160,-3444,1812,-2779,-1471,-7310,2025-01-29 15:15:22,0.0
-19112,-4980,552,-1731,-4513,-6917,2025-01-29 15:15:22,0.0
-21080,-5604,1332,-502,-5945,-5101,2025-01-29 15:15:22,0.0
-22960,-6376,936,1535,-4848,-266,2025-01-29 15:15:22,0.0
-19380,-4160,1652,4142,-3987,5432,2025-01-29 15:15:23,0.0
-13840,-4252,-1704,4227,-3719,6503,2025-01-29 15:15:23,0.0
-11816,-3504,-2928,2921,-3007,4691,2025-01-29 15:15:23,0.0
-11884,-3260,-3456,2369,-1587,3124,2025-01-29 15:15:23,0.0
-11472,-2604,-2984,2584,-640,2623,2025-01-29 15:15:23,0.0
-10384,-1536,-1436,3184,99,2379,2025-01-29 15:15:23,0.0
-9532,-172,-364,3528,1066,1948,2025-01-29 15:15:23,0.0
-10184,652,-400,2907,2421,1608,2025-01-29 15:15:23,0.0
-12552,448,-840,2004,4166,2057,2025-01-29 15:15:23,0.0
-13628,-656,-480,2278,5131,2653,2025-01-29 15:15:23,0.0
-13948,-1084,-692,2562,5531,2967,2025-01-29 15:15:23,
-14060,-1064,-468,2435,5246,2736,2025-01-29 15:15:23,0.0
-14568,-400,-16,2068,4018,2537,2025-01-29 15:15:23,0.0
-14944,80,424,2159,2155,2692,2025-01-29 15:15:23,0.0
-14960,208,512,2404,382,3280,2025-01-29 15:15:23,0.0
-14008,276,764,2589,-809,3540,2025-01-29 15:15:23,0.0
-12984,184,744,2572,-1250,3473,2025-01-29 15:15:23,0.0
-12616,372,872,2228,-942,3421,2025-01-29 15:15:23,0.0
-12156,300,888,2182,-339,3368,2025-01-29 15:15:23,0.0
-11868,84,1020,2354,285,3072,2025-01-29 15:15:23,0.0
-11740,136,1400,2697,453,2565,2025-01-29 15:15:23,0.0
-11672,-20,1800,2970,142,1903,2025-01-29 15:15:23,0.0
-11580,-216,2004,3103,-298,1071,2025-01-29 15:15:23,0.0
-11460,-480,1816,3022,-512,301,2025-01-29 15:15:23,0.0
-11600,-156,1736,2952,-679,-487,2025-01-29 15:15:23,0.0
-11680,116,1844,2575,-435,-910,2025-01-29 15:15:23,0.0
-11780,636,2432,2237,-129,-1293,2025-01-29 15:15:23,0.0
-12560,820,2368,1998,-78,-1610,2025-01-29 15:15:23,0.0
-13112,1164,2080,1829,-210,-1660,2025-01-29 15:15:23,0.0
-13416,1428,1848,1613,-593,-1636,2025-01-29 15:15:23,0.0
-13092,1608,1484,1328,-1386,-1768,2025-01-29 15:15:23,0.0
-12716,1628,1432,834,-2027,-2106,2025-01-29 15:15:23,0.0
-12616,1328,1388,340,-2129,-2324,2025-01-29 15:15:23,0.0
-12716,680,1388,110,-1543,-2315,2025-01-29 15:15:23,0.0
-13248,-216,1192,61,99,-1907,2025-01-29 15:15:23,0.0
-14132,-500,1564,311,2432,-1187,2025-01-29 15:15:23,0.0
-15500,164,1644,616,4503,10,2025-01-29 15:15:23,0.0
-17140,1324,1804,439,5003,1703,2025-01-29 15:15:23,0.0
-17312,2192,2524,626,3720,2943,2025-01-29 15:15:23,0.0
-17072,2204,2608,651,1856,3122,2025-01-29 15:15:23,0.0
-16840,1560,2964,184,664,2552,2025-01-29 15:15:23,0.0
-16788,388,3828,-41,39,1579,2025-01-29 15:15:23,0.0
-17556,44,3244,90,-66,1458,2025-01-29 15:15:23,0.0
-17804,184,2148,661,273,1935,2025-01-29 15:15:23,0.0
-17580,1288,632,639,814,2572,2025-01-29 15:15:23,0.0
-17536,3120,-404,-104,1901,3162,2025-01-29 15:15:23,0.0
-17640,4320,-1800,-1210,2499,3878,2025-01-29 15:15:23,0.0
-13140,3080,-2220,-901,6239,-3185,2025-01-29 15:15:23,0.0
-14288,1704,-416,-2291,3418,-3541,2025-01-29 15:15:23,0.0
-15076,272,448,-2717,550,-3605,2025-01-29 15:15:23,0.0
-14876,-892,-224,-2798,-2288,-3541,2025-01-29 15:15:23,0.0
-14020,-1436,-1024,-3109,-4708,-3437,2025-01-29 15:15:23,0.0
-12216,-1308,-1692,-3608,-6080,-3371,2025-01-29 15:15:23,0.0
-11232,-948,-1240,-4073,-5507,-3358,2025-01-29 15:15:23,0.0
-10952,-408,-504,-4385,-2860,-3269,2025-01-29 15:15:23,0.0
-11340,-104,-108,-4347,1452,-2868,2025-01-29 15:15:23,0.0
-11356,-612,-336,-4601,3354,-2654,2025-01-29 15:15:24,0.0
-12004,-1416,436,-5098,3835,-2962,2025-01-29 15:15:24,0.0
-13324,-2000,1472,-5304,3518,-3098,2025-01-29 15:15:24,0.0
-14180,-2436,2440,-4882,2221,-2762,2025-01-29 15:15:24,0.0
-13900,-2800,1600,-4021,314,-2028,2025-01-29 15:15:24,0.0
-13936,-2576,1276,-3185,-1243,-1088,2025-01-29 15:15:24,0.0
-12564,-1764,468,-2715,-1744,-459,2025-01-29 15:15:24,0.0
-11988,-1144,492,-2928,-814,-163,2025-01-29 15:15:24,0.0
-11372,-640,504,-3520,353,27,2025-01-29 15:15:24,0.0
-11928,92,1520,-3802,1190,471,2025-01-29 15:15:24,0.0
-12232,-96,1556,-3879,1464,1132,2025-01-29 15:15:24,0.0
-12536,-656,1880,-4184,1524,1430,2025-01-29 15:15:24,0.0
-13520,-1792,1704,-4668,1468,1173,2025-01-29 15:15:24,0.0
-15144,-2084,1704,-5101,1377,714,2025-01-29 15:15:24,0.0
-16316,-1408,1908,-5075,957,365,2025-01-29 15:15:24,0.0
-16212,-876,1712,-4653,-560,186,2025-01-29 15:15:24,0.0
-14984,-2028,2388,-4504,-2414,-262,2025-01-29 15:15:24,0.0
-13744,-3512,3056,-4391,-3440,-1133,2025-01-29 15:15:24,0.0
-14000,-3964,3132,-4276,-2425,-2020,2025-01-29 15:15:24,0.0
-15764,-2232,1712,-4198,334,-2736,2025-01-29 15:15:24,0.0
-17648,-124,-412,-4517,3159,-3919,2025-01-29 15:15:24,0.0
-18984,-424,-304,-5364,3791,-4900,2025-01-29 15:15:24,0.0
-19452,-3096,1572,-5251,1494,-5394,2025-01-29 15:15:24,0.0
-20380,-5428,1928,-3720,-1774,-5000,2025-01-29 15:15:24,0.0
-22064,-6652,2020,-1351,-4804,-3008,2025-01-29 15:15:24,0.0
-23724,-5264,1452,1085,-6656,1474,2025-01-29 15:15:24,0.0
-17988,-2636,140,3391,-9236,5744,2025-01-29 15:15:24,0.0
-13284,-2216,-2696,3054,-11520,6305,2025-01-29 15:15:24,0.0
-9560,-1656,-4268,1631,-12910,5448,2025-01-29 15:15:24,0.0
-5812,-568,-5216,-434,-9284,3152,2025-01-29 15:15:24,0.0
-4788,584,-4932,-1488,-4709,952,2025-01-29 15:15:24,0.0
-5964,1324,-4644,-1311,503,-701,2025-01-29 15:15:24,0.0
-8392,908,-4540,-784,6359,-1371,2025-01-29 15:15:24,0.0
-10592,272,-3272,-675,11276,-1513,2025-01-29 15:15:24,0.0
-13236,-828,-912,-740,14908,-1559,2025-01-29 15:15:24,0.0
-16096,-1408,1048,-492,16152,-955,2025-01-29 15:15:24,0.0
-17620,-2364,2344,184,14064,49,2025-01-29 15:15:24,0.0
-18620,-3092,2640,1593,9555,1142,2025-01-29 15:15:24,0.0
-16380,-780,1488,5629,-8127,5160,2025-01-29 15:15:24,0.0
-13740,-172,456,6510,-11325,5121,2025-01-29 15:15:24,0.0
-11800,296,-268,6634,-12715,4627,2025-01-29 15:15:24,0.0
-9600,432,172,6304,-10966,3756,2025-01-29 15:15:24,0.0
-8012,36,-172,5932,-4200,2198,2025-01-29 15:15:24,0.0
-8256,-452,-288,6016,1386,1031,2025-01-29 15:15:24,0.0
-9272,-260,-80,6363,3901,682,2025-01-29 15:15:24,0.0
-9828,144,368,6443,4838,531,2025-01-29 15:15:24,0.0
-10988,828,984,6123,5564,-497,2025-01-29 15:15:24,0.0
-12172,1264,1664,5598,5302,-1399,2025-01-29 15:15:24,0.0
-13536,1620,2068,5055,3624,-1871,2025-01-29 15:15:24,0.0
-14428,1964,1248,4449,1043,-2042,2025-01-29 15:15:24,0.0
-14740,2300,580,3544,-2103,-2114,2025-01-29 15:15:24,0.0
-15008,2536,1088,2543,-3957,-2250,2025-01-29 15:15:24,0.0
-14308,1944,1508,1455,-4134,-2091,2025-01-29 15:15:24,0.0
-13560,1152,1764,1110,-3545,-1788,2025-01-29 15:15:24,0.0
-12740,112,1764,1061,-3139,-1532,2025-01-29 15:15:24,
-12204,-884,1860,1339,-2313,-1400,2025-01-29 15:15:24,0.0
-12144,-1468,2688,1864,-651,-1253,2025-01-29 15:15:24,0.0
-12708,-1940,3716,2629,1316,-1005,2025-01-29 15:15:24,0.0
-13464,-1440,3912,3197,2416,-748,2025-01-29 15:15:24,0.0
-15296,352,3552,3649,2292,-297,2025-01-29 15:15:24,0.0
-16012,64,2756,3848,1565,-356,2025-01-29 15:15:25,0.0
-16308,-788,2852,4123,245,-272,2025-01-29 15:15:25,0.0
-16408,-444,4348,4853,-250,372,2025-01-29 15:15:25,0.0
-15780,136,4880,5670,793,1174,2025-01-29 15:15:25,0.0
-15688,-16,3784,5700,2911,1780,2025-01-29 15:15:25,0.0
-16260,12,3296,5740,5028,1887,2025-01-29 15:15:25,0.0
-18232,1640,744,5702,7032,2499,2025-01-29 15:15:25,0.0
-19272,3696,-1300,4615,7514,3797,2025-01-29 15:15:25,0.0
-19144,5412,-2064,2615,6162,4967,2025-01-29 15:15:25,0.0
-17316,5520,-2588,467,3291,4726,2025-01-29 15:15:25,0.0
-16000,4780,-3808,-2054,306,3286,2025-01-29 15:15:25,0.0
-13452,2464,-3640,-4263,-2790,691,2025-01-29 15:15:25,0.0
-12068,460,-2120,-5223,-5361,-1252,2025-01-29 15:15:25,0.0
-11140,-664,-1216,-4748,-7848,-2167,2025-01-29 15:15:25,0.0
-11096,-2032,-2048,-4138,-9255,-2229,2025-01-29 15:15:25,0.0
-10944,-3208,-2992,-3695,-8496,-2062,2025-01-29 15:15:25,0.0
-11008,-3732,-3424,-2991,-5166,-1930,2025-01-29 15:15:25,0.0
-11836,-3368,-2856,-2079,1812,-1879,2025-01-29 15:15:25,0.0
-12260,-2212,-1496,-1067,7433,-1902,2025-01-29 15:15:25,0.0
-12956,-1036,-584,-369,9904,-2132,2025-01-29 15:15:25,0.0
-13220,44,-60,-528,8387,-2615,2025-01-29 15:15:25,0.0
-14032,248,-68,-1332,4405,-2964,2025-01-29 15:15:25,0.0
-13968,-480,-384,-2237,160,-3228,2025-01-29 15:15:25,0.0
-14400,-1720,480,-2501,-2322,-3690,2025-01-29 15:15:25,0.0
-13504,-2704,-228,-2066,-3172,-4273,2025-01-29 15:15:25,0.0
-13256,-2888,-724,-1782,-3662,-4312,2025-01-29 15:15:25,0.0
-12160,-2672,-808,-1603,-3986,-3968,2025-01-29 15:15:25,0.0
-11336,-1956,220,-1395,-3235,-3245,2025-01-29 15:15:25,0.0
-11300,-1544,368,-1291,-924,-2841,2025-01-29 15:15:25,0.0
-11356,-1428,156,-1311,1669,-2590,2025-01-29 15:15:25,0.0
-11728,-1572,336,-1379,3215,-2336,2025-01-29 15:15:25,0.0
-12512,-1588,1332,-1450,3798,-2107,2025-01-29 15:15:25,0.0
-13140,-1608,1928,-1372,3701,-1959,2025-01-29 15:15:25,0.0
-14092,-1948,2392,-1121,2591,-1712,2025-01-29 15:15:25,0.0
-14536,-2512,2148,-663,690,-1051,2025-01-29 15:15:25,0.0
-14436,-2628,1904,-23,-801,-38,2025-01-29 15:15:25,0.0
-13424,-2204,2344,488,-1554,688,2025-01-29 15:15:25,0.0
-12704,-1328,2052,516,-1659,1182,2025-01-29 15:15:25,0.0
-12328,-568,1888,214,-1153,1558,2025-01-29 15:15:25,0.0
-12188,-44,1684,-370,-89,1893,2025-01-29 15:15:25,0.0
-12376,-260,1628,-987,835,1922,2025-01-29 15:15:25,0.0
-13004,-796,1380,-1697,1518,1773,2025-01-29 15:15:25,0.0
-13752,-1300,808,-2421,2150,1304,2025-01-29 15:15:25,0.0
-14592,-1224,836,-3253,2501,624,2025-01-29 15:15:25,0.0
-15036,-972,1472,-3791,2187,-89,2025-01-29 15:15:25,0.0
-15236,-1540,2104,-4038,953,-831,2025-01-29 15:15:25,0.0
-15156,-1940,2424,-4304,-777,-1515,2025-01-29 15:15:25,0.0
-15060,-1580,2952,-4708,-2812,-1805,2025-01-29 15:15:25,0.0
-14668,-552,3328,-5580,-4371,-1894,2025-01-29 15:15:25,0.0
-15028,-416,3224,-6260,-3293,-2320,2025-01-29 15:15:25,0.0
-15296,-1472,628,-7064,-314,-3237,2025-01-29 15:15:25,0.0
-15392,-4572,-208,-7707,3094,-4628,2025-01-29 15:15:25,0.0
-16000,-7188,652,-6913,5316,-6739,2025-01-29 15:15:25,0.0
-18188,-8112,2712,-4852,4437,-7626,2025-01-29 15:15:25,0.0
-21404,-7692,3632,-1452,1048,-5645,2025-01-29 15:15:25,0.0
-23708,-5400,2244,1798,-2562,-1034,2025-01-29 15:15:25,0.0
-20584,-2092,716,3619,-6374,2971,2025-01-29 15:15:25,0.0
-17276,-1152,-2212,3308,-9650,4561,2025-01-29 15:15:26,0.0
-14396,-1044,-3656,1689,-11983,5382,2025-01-29 15:15:26,0.0
-11892,-1316,-3524,802,-12738,5356,2025-01-29 15:15:26,0.0
-9936,-1196,-4292,421,-12108,4636,2025-01-29 15:15:26,0.0
-8464,140,-4484,-396,-9372,3574,2025-01-29 15:15:26,0.0
-7160,1956,-3824,-1128,-3267,2087,2025-01-29 15:15:26,0.0
-8392,2732,-4236,-2125,4951,203,2025-01-29 15:15:26,0.0
-10824,2220,-3176,-3177,9706,-559,2025-01-29 15:15:26,0.0
-13004,1168,-1756,-3916,12398,-820,2025-01-29 15:15:26,0.0
-15032,-648,-232,-4163,13306,-651,2025-01-29 15:15:26,0.0
-17108,-2516,1520,-3649,11395,209,2025-01-29 15:15:26,0.0
-18100,-2628,2528,-2275,7136,1238,2025-01-29 15:15:26,0.0
-18192,-1780,2536,-602,1478,2596,2025-01-29 15:15:26,0.0
-16732,-1052,1912,493,-3961,3626,2025-01-29 15:15:26,0.0
-13952,-612,616,929,-7945,3737,2025-01-29 15:15:26,0.0
-11908,-392,128,844,-9281,3467,2025-01-29 15:15:26,0.0
-10260,196,516,867,-8353,3104,2025-01-29 15:15:26,0.0
-9308,356,656,915,-5301,2559,2025-01-29 15:15:26,0.0
-8932,600,956,906,-672,1653,2025-01-29 15:15:26,0.0
-9676,716,1032,654,3538,778,2025-01-29 15:15:26,0.0
-10824,656,1792,528,5154,393,2025-01-29 15:15:26,0.0
-12272,916,2888,518,4570,-97,2025-01-29 15:15:26,0.0
-12680,928,3204,492,2645,-835,2025-01-29 15:15:26,0.0
-13124,804,3732,300,303,-1884,2025-01-29 15:15:26,0.0
-13132,444,2904,23,-1258,-2424,2025-01-29 15:15:26,0.0
-13436,-16,2828,22,-1746,-2633,2025-01-29 15:15:26,0.0
-13380,-44,2776,334,-1796,-2792,2025-01-29 15:15:26,0.0
-14288,244,2452,481,-1591,-2656,2025-01-29 15:15:26,0.0
-15340,660,2608,613,-1222,-1822,2025-01-29 15:15:26,0.0
-15924,152,3864,1198,-628,-967,2025-01-29 15:15:26,0.0
-15452,-1044,3536,2411,-463,-241,2025-01-29 15:15:26,0.0
-13748,-2156,1856,3096,-2274,14,2025-01-29 15:15:26,0.0
-12260,-3452,1444,3397,-4648,-320,2025-01-29 15:15:26,0.0
-11620,-3040,2820,4322,-5151,-648,2025-01-29 15:15:26,0.0
-12572,80,3004,5643,-3577,119,2025-01-29 15:15:26,0.0
-13228,2640,2424,6468,678,1220,2025-01-29 15:15:26,0.0
-13376,2348,2484,6147,6272,1817,2025-01-29 15:15:26,0.0
-13732,948,3372,5805,10438,1695,2025-01-29 15:15:26,
-14740,536,2980,6099,12394,1589,2025-01-29 15:15:26,0.0
-16700,1236,1032,5822,12139,1508,2025-01-29 15:15:26,0.0
-18608,3040,-1744,4453,10415,1500,2025-01-29 15:15:26,0.0
-19620,4280,-5156,2207,7502,1735,2025-01-29 15:15:26,0.0
-20224,4852,-6904,-617,4291,2113,2025-01-29 15:15:26,0.0
-18140,4572,-5684,-3236,55,2063,2025-01-29 15:15:26,0.0
-15164,2184,-2368,-4794,-3678,834,2025-01-29 15:15:26,0.0
-13412,52,-344,-5364,-5393,-839,2025-01-29 15:15:26,0.0
-11992,-2316,-1496,-4973,-6043,-2614,2025-01-29 15:15:26,0.0
-11328,-3960,-3432,-4088,-6529,-4043,2025-01-29 15:15:26,0.0
-11484,-5776,-4404,-2796,-6721,-4696,2025-01-29 15:15:26,0.0
-11720,-6896,-2612,-885,-5881,-4089,2025-01-29 15:15:26,0.0
-11724,-6524,-656,1023,-2932,-2523,2025-01-29 15:15:26,0.0
-11212,-4908,-184,3047,2529,-1244,2025-01-29 15:15:26,0.0
-11688,-3276,-2616,3901,7928,-877,2025-01-29 15:15:26,0.0
-11980,-1672,-2904,3828,11264,-1576,2025-01-29 15:15:26,0.0
-13084,-768,-2280,3618,12374,-2769,2025-01-29 15:15:26,0.0
-14584,-836,-2204,3160,11281,-3552,2025-01-29 15:15:26,0.0
-15792,-1212,-1508,2512,6868,-3729,2025-01-29 15:15:26,0.0
-15560,-1700,-1556,2187,1568,-3316,2025-01-29 15:15:26,0.0
-14984,-1632,-828,1988,-3396,-2510,2025-01-29 15:15:26,0.0
-13076,-1868,-1252,1665,-5326,-2128,2025-01-29 15:15:26,0.0
-12028,-2044,-952,1346,-4820,-2014,2025-01-29 15:15:26,0.0
-11496,-2040,-960,1221,-2736,-1942,2025-01-29 15:15:26,0.0
-11844,-1800,-1504,982,79,-1750,2025-01-29 15:15:26,0.0
-11872,-1916,-1272,621,2629,-1582,2025-01-29 15:15:26,0.0
-12948,-2336,-1164,122,3751,-1464,2025-01-29 15:15:26,0.0
-14032,-2368,-872,-326,2911,-1208,2025-01-29 15:15:27,0.0
-14708,-2420,-472,-625,1121,-756,2025-01-29 15:15:27,0.0
-14844,-2348,-360,-648,-459,-440,2025-01-29 15:15:27,0.0
-14304,-2068,-1008,-857,-1347,-188,2025-01-29 15:15:27,0.0
-13792,-1908,-1448,-1200,-1931,-41,2025-01-29 15:15:27,0.0
-12996,-1960,-1708,-1480,-2478,300,2025-01-29 15:15:27,0.0
-12128,-2132,-2556,-1716,-2513,652,2025-01-29 15:15:27,0.0
-11736,-2464,-2700,-2109,-1634,716,2025-01-29 15:15:27,0.0
-11660,-2368,-2440,-2586,-406,595,2025-01-29 15:15:27,0.0
-11924,-2280,-1536,-2953,442,679,2025-01-29 15:15:27,0.0
-11880,-2504,-1424,-3125,197,783,2025-01-29 15:15:27,0.0
-11920,-2884,-2008,-3448,-354,1133,2025-01-29 15:15:27,0.0
-11808,-2908,-1500,-3777,-435,1444,2025-01-29 15:15:27,0.0
-11692,-2536,-1240,-4229,-220,1339,2025-01-29 15:15:27,0.0
-11240,-2524,-596,-5159,-455,670,2025-01-29 15:15:27,0.0
-11004,-2404,-852,-5726,-2302,-151,2025-01-29 15:15:27,0.0
-10708,-2532,-1804,-5898,-4619,-391,2025-01-29 15:15:27,0.0
-9652,-2536,-1196,-5765,-6718,-568,2025-01-29 15:15:27,0.0
-8636,-2648,92,-5352,-6604,-1376,2025-01-29 15:15:27,0.0
-8376,-3392,1252,-4529,-2228,-2398,2025-01-29 15:15:27,0.0
-9148,-3236,748,-3052,259,-2292,2025-01-29 15:15:27,0.0
-8872,-2456,140,-2241,-92,-1524,2025-01-29 15:15:27,0.0
-8000,-1640,-84,-2267,-777,-1093,2025-01-29 15:15:27,0.0
-7728,-1288,932,-2328,-916,-885,2025-01-29 15:15:27,0.0
-8020,-880,1836,-2178,-581,-501,2025-01-29 15:15:27,0.0
-8996,-884,2248,-2148,-282,209,2025-01-29 15:15:27,0.0
-10156,-1460,1816,-2103,-25,532,2025-01-29 15:15:27,0.0
-11268,-1724,1036,-2064,-530,413,2025-01-29 15:15:27,0.0
-12416,-860,616,-2137,-1517,359,2025-01-29 15:15:27,0.0
-12720,248,1448,-2294,-2698,542,2025-01-29 15:15:27,0.0
-12668,844,2116,-1804,-3469,837,2025-01-29 15:15:27,0.0
-15204,964,3152,-1429,-4171,1584,2025-01-29 15:15:27,0.0
-12900,84,1408,-1370,-3830,1984,2025-01-29 15:15:27,0.0
-12780,-628,-820,-1671,-1989,1723,2025-01-29 15:15:27,0.0
-13252,-788,-548,-2173,-1568,1785,2025-01-29 15:15:27,0.0
-14204,-328,404,-2025,-4364,1890,2025-01-29 15:15:27,0.0
-15884,-140,1688,-1971,-4923,1835,2025-01-29 15:15:27,0.0
-16088,-408,2652,-1653,-6045,1703,2025-01-29 15:15:27,0.0
-15628,-960,2820,-1437,-7600,1020,2025-01-29 15:15:27,0.0
-15760,-1060,2624,-1002,-8803,747,2025-01-29 15:15:27,0.0
-14740,-1296,2012,-1142,-9319,371,2025-01-29 15:15:27,0.0
-14564,-536,2576,-1167,-9460,477,2025-01-29 15:15:27,0.0
-14316,-308,3944,-721,-9812,1088,2025-01-29 15:15:27,0.0
-14540,-492,3916,-233,-9650,1573,2025-01-29 15:15:27,0.0
-14644,-1116,3324,-265,-9189,1555,2025-01-29 15:15:27,0.0
-15028,-1484,4040,-267,-9320,1023,2025-01-29 15:15:27,0.0
-15960,-1000,5396,-146,-9664,749,2025-01-29 15:15:27,0.0
-15856,-184,6960,-146,-10085,983,2025-01-29 15:15:27,0.0
-15340,384,6732,159,-10682,1148,2025-01-29 15:15:27,0.0
-15232,192,6532,451,-11171,1239,2025-01-29 15:15:27,0.0
-14744,-656,5588,418,-11849,1080,2025-01-29 15:15:27,0.0
-14556,-936,6084,238,-11515,679,2025-01-29 15:15:27,0.0
-14836,-840,6972,226,-10704,727,2025-01-29 15:15:27,0.0
-14368,-936,8516,312,-9980,301,2025-01-29 15:15:27,0.0
-13580,-88,8236,148,-10792,-290,2025-01-29 15:15:27,0.0
-13116,388,8304,23,-11632,-602,2025-01-29 15:15:27,0.0
-13516,340,7964,-116,-10525,-391,2025-01-29 15:15:27,0.0
-14372,-416,9544,-301,-9351,-140,2025-01-29 15:15:27,0.0
-14476,-984,10932,-246,-9401,-55,2025-01-29 15:15:27,0.0
-13512,-1688,11240,6,-9721,-43,2025-01-29 15:15:27,0.0
-12740,-1496,11432,-39,-10180,-303,2025-01-29 15:15:28,0.0
-12400,-904,11376,-78,-10423,-444,2025-01-29 15:15:28,0.0
-11888,-580,11100,-320,-9611,-555,2025-01-29 15:15:28,0.0
-12848,28,10400,-1133,-8060,-678,2025-01-29 15:15:28,0.0
-13776,112,11960,-1737,-8125,-697,2025-01-29 15:15:28,0.0
-13656,-140,13620,-2091,-8962,-337,2025-01-29 15:15:28,0.0
-12744,-464,14460,-1904,-10016,306,2025-01-29 15:15:28,0.0
-11492,-660,15244,-1412,-11097,836,2025-01-29 15:15:28,0.0
-10416,-844,15392,-800,-11770,1056,2025-01-29 15:15:28,0.0
-10452,-328,14844,-236,-10984,1463,2025-01-29 15:15:28,0.0
-10300,16,14012,-335,-10203,1626,2025-01-29 15:15:28,0.0
-10104,788,13820,-769,-9512,1654,2025-01-29 15:15:28,0.0
-9784,724,14200,-1074,-8625,1661,2025-01-29 15:15:28,
-9408,580,14588,-1308,-7487,1431,2025-01-29 15:15:28,0.0
-9748,240,15468,-1071,-6383,1365,2025-01-29 15:15:28,0.0
-9588,-680,16012,-652,-5299,1216,2025-01-29 15:15:28,0.0
-9648,-1156,16436,-316,-4274,886,2025-01-29 15:15:28,0.0
-10044,-736,16692,-212,-3473,572,2025-01-29 15:15:28,0.0
-10468,-156,16752,-175,-2455,463,2025-01-29 15:15:28,0.0
-9764,196,16392,-311,-1009,423,2025-01-29 15:15:28,0.0
-9612,88,16356,-468,-347,438,2025-01-29 15:15:28,0.0
-8944,-208,16252,-505,-274,318,2025-01-29 15:15:28,0.0
-8340,-760,15992,-580,-115,-56,2025-01-29 15:15:28,0.0
-8192,-1080,15860,-557,128,-433,2025-01-29 15:15:28,0.0
-8080,-1092,15352,-513,223,-719,2025-01-29 15:15:28,0.0
-8060,-1164,14692,-466,591,-1102,2025-01-29 15:15:28,0.0
-7852,-904,14116,-469,822,-1290,2025-01-29 15:15:28,0.0
-7760,-576,13872,-495,1044,-1282,2025-01-29 15:15:28,0.0
-7628,32,13724,-612,1162,-1177,2025-01-29 15:15:28,0.0
-7728,12,13624,-592,993,-968,2025-01-29 15:15:28,0.0
-7868,-368,13788,-533,811,-806,2025-01-29 15:15:28,0.0
-7692,-672,14116,-419,265,-729,2025-01-29 15:15:28,0.0
-7608,-704,14408,-344,-57,-744,2025-01-29 15:15:28,0.0
-7300,-900,14016,-261,-276,-866,2025-01-29 15:15:28,0.0
-7456,-1172,14096,-125,-238,-978,2025-01-29 15:15:28,0.0
-7844,-956,14384,17,-280,-999,2025-01-29 15:15:28,0.0
-8200,-696,14556,152,-538,-956,2025-01-29 15:15:28,0.0
-8748,-680,15092,168,-913,-949,2025-01-29 15:15:28,0.0
-8040,-552,14320,105,-1005,-941,2025-01-29 15:15:28,0.0
-8312,-688,14532,-49,-805,-992,2025-01-29 15:15:28,0.0
-8312,-592,14384,-170,-316,-972,2025-01-29 15:15:28,0.0
-7960,-736,14472,-216,21,-960,2025-01-29 15:15:28,0.0
-8132,-972,14796,-287,40,-980,2025-01-29 15:15:28,0.0
