acceleration_x,acceleration_y,acceleration_z,gyroscope_x,gyroscope_y,gyroscope_z,timestamp,label
-13952,-476,136,-269,185,-254,2025-02-17 11:21:14,0.0
-14012,-548,148,-134,-60,-244,2025-02-17 11:21:14,0.0
-13792,-556,100,-243,-159,-286,2025-02-17 11:21:14,0.0
-13764,-400,48,-403,-81,-319,2025-02-17 11:21:14,0.0
-13640,-564,272,-374,126,-407,2025-02-17 11:21:14,0.0
-13956,-676,312,-114,408,-215,2025-02-17 11:21:14,0.0
-13624,-580,172,139,769,-7,2025-02-17 11:21:14,0.0
-13708,-468,-44,247,1039,-51,2025-02-17 11:21:14,0.0
-13732,-468,220,235,961,21,2025-02-17 11:21:14,0.0
-13852,-468,144,349,790,-65,2025-02-17 11:21:14,0.0
-13672,-604,460,1008,796,-231,2025-02-17 11:21:14,0.0
-13696,-308,-1140,433,777,-91,2025-02-17 11:21:14,0.0
-13540,-496,-16,42,762,-222,2025-02-17 11:21:14,0.0
-13668,-324,-324,-105,336,-488,2025-02-17 11:21:14,0.0
-14140,-376,-240,-427,432,-423,2025-02-17 11:21:14,0.0
-14008,-656,52,-323,197,-300,2025-02-17 11:21:14,0.0
-13932,-620,68,-134,17,-191,2025-02-17 11:21:14,0.0
-13740,-452,-48,-125,-156,-180,2025-02-17 11:21:14,0.0
-13712,-472,-100,-171,-192,-169,2025-02-17 11:21:14,0.0
-13772,-452,12,-201,-80,-185,2025-02-17 11:21:14,0.0
-13828,-532,84,-161,78,-176,2025-02-17 11:21:14,0.0
-13652,-608,172,-66,153,-162,2025-02-17 11:21:14,0.0
-13668,-544,-104,-30,170,-188,2025-02-17 11:21:14,0.0
-13712,-520,20,0,115,-204,2025-02-17 11:21:14,0.0
-13860,-560,60,8,151,-197,2025-02-17 11:21:14,0.0
-13792,-456,80,68,125,-171,2025-02-17 11:21:14,0.0
-13736,-436,-32,47,149,-191,2025-02-17 11:21:14,0.0
-13600,-512,-12,-21,206,-238,2025-02-17 11:21:14,0.0
-13680,-476,8,-15,322,-204,2025-02-17 11:21:14,0.0
-13664,-656,-68,-11,490,-216,2025-02-17 11:21:14,0.0
-13764,-564,-124,-27,508,-211,2025-02-17 11:21:14,0.0
-13760,-364,-8,-15,522,-190,2025-02-17 11:21:14,0.0
-13856,-496,-248,-111,540,-171,2025-02-17 11:21:14,0.0
-13644,-588,84,65,438,-213,2025-02-17 11:21:14,0.0
-13720,-616,-372,292,502,-143,2025-02-17 11:21:15,0.0
-12748,-292,-316,110,456,-397,2025-02-17 11:21:15,0.0
-12408,-228,-208,16,301,-1111,2025-02-17 11:21:15,0.0
-13064,-384,-848,-213,1350,-1238,2025-02-17 11:21:15,0.0
-12636,-444,-488,-742,932,-1190,2025-02-17 11:21:15,0.0
-13408,-896,320,64,1568,-1269,2025-02-17 11:21:15,0.0
-14416,-780,304,573,2689,-718,2025-02-17 11:21:15,0.0
-14444,-648,40,705,2790,136,2025-02-17 11:21:15,0.0
-14540,-548,-264,685,2110,448,2025-02-17 11:21:15,0.0
-14492,-264,-572,381,1325,343,2025-02-17 11:21:15,0.0
-13676,-452,-796,72,691,52,2025-02-17 11:21:15,0.0
-13172,-596,-1052,333,886,-342,2025-02-17 11:21:15,0.0
-13276,-524,-804,391,654,-473,2025-02-17 11:21:15,0.0
-13772,-648,-348,479,1374,-389,2025-02-17 11:21:15,0.0
-13444,-224,-740,166,2436,-44,2025-02-17 11:21:15,0.0
-13696,-196,-1164,-220,3926,410,2025-02-17 11:21:15,0.0
-12880,-332,-1304,-474,5054,232,2025-02-17 11:21:15,0.0
-13288,-48,-1604,-923,5486,-238,2025-02-17 11:21:15,0.0
-12936,-208,-2416,-1527,5203,-756,2025-02-17 11:21:15,0.0
-13332,-136,-1696,-1768,5080,-1139,2025-02-17 11:21:15,0.0
-13104,-196,-1328,-1635,4948,-1484,2025-02-17 11:21:15,0.0
-13968,-76,-672,-1478,4434,-1490,2025-02-17 11:21:15,0.0
-13904,-96,-56,-1077,3475,-1330,2025-02-17 11:21:15,0.0
-13452,100,-1064,-1352,2024,-1511,2025-02-17 11:21:15,0.0
-13496,-108,-876,-1633,1131,-1994,2025-02-17 11:21:15,0.0
-13400,-628,-528,-1523,1010,-2488,2025-02-17 11:21:15,0.0
-14428,-540,-1540,-1514,1260,-2372,2025-02-17 11:21:15,0.0
-15028,-644,-1292,-1053,1245,-1537,2025-02-17 11:21:15,0.0
-14884,-484,-1796,-1169,474,-730,2025-02-17 11:21:15,0.0
-14500,-284,-1724,-1352,-923,-376,2025-02-17 11:21:15,0.0
-14496,-296,-916,-1183,-1978,-360,2025-02-17 11:21:15,0.0
-14136,-112,-1424,-1141,-2905,-500,2025-02-17 11:21:15,0.0
-13940,-588,-1056,-895,-3912,-850,2025-02-17 11:21:15,0.0
-14032,-900,-1440,-739,-4840,-1074,2025-02-17 11:21:15,0.0
-13404,-1052,-1488,-699,-5998,-1119,2025-02-17 11:21:15,0.0
-12540,-1448,-1228,-158,-7380,-1229,2025-02-17 11:21:15,0.0
-11820,-2264,-1016,298,-8531,-1090,2025-02-17 11:21:15,0.0
-11740,-3088,32,603,-7879,-380,2025-02-17 11:21:15,0.0
-12036,-2788,44,505,-2737,190,2025-02-17 11:21:15,0.0
-12976,-1792,-332,-637,4785,-131,2025-02-17 11:21:15,0.0
-14404,-1128,-496,-1591,9034,-448,2025-02-17 11:21:15,0.0
-15196,-156,768,-1781,9587,-1080,2025-02-17 11:21:15,0.0
-15492,760,1192,-1012,5571,-2266,2025-02-17 11:21:15,0.0
-15212,-72,60,-754,-515,-3095,2025-02-17 11:21:15,0.0
-14236,-2044,372,-514,-6658,-3197,2025-02-17 11:21:15,0.0
-13068,-3508,292,-621,-9713,-2750,2025-02-17 11:21:15,0.0
-12644,-3936,656,-853,-7996,-2181,2025-02-17 11:21:15,0.0
-12248,-3888,728,-1241,-984,-1574,2025-02-17 11:21:15,0.0
-10956,-3452,540,-1649,4116,-1717,2025-02-17 11:21:15,0.0
-13004,-2792,724,-1780,5688,-1579,2025-02-17 11:21:15,0.0
-13740,-2156,1176,-1826,5101,-912,2025-02-17 11:21:15,0.0
-13824,-1748,1204,-1679,3263,-557,2025-02-17 11:21:15,0.0
-13072,-1480,916,-1423,1417,-341,2025-02-17 11:21:15,0.0
-12772,-1264,636,-1386,582,-460,2025-02-17 11:21:15,0.0
-12808,-1060,1092,-1435,960,-344,2025-02-17 11:21:15,0.0
-12612,-1728,720,-1637,1693,-406,2025-02-17 11:21:15,0.0
-13480,-2472,836,-1734,1607,-324,2025-02-17 11:21:15,0.0
-13756,-2676,1580,-1477,1040,70,2025-02-17 11:21:15,0.0
-13928,-2400,2244,-1116,119,487,2025-02-17 11:21:15,0.0
-13752,-1896,2628,-1069,-861,526,2025-02-17 11:21:15,0.0
-14324,-1828,2216,-1397,-1600,655,2025-02-17 11:21:15,0.0
-14116,-2016,2684,-1312,-2464,905,2025-02-17 11:21:16,0.0
-13592,-2120,2408,-816,-2646,806,2025-02-17 11:21:16,0.0
-13244,-2380,1512,-1295,-2679,547,2025-02-17 11:21:16,0.0
-13496,-1748,2092,-2169,-1028,80,2025-02-17 11:21:16,0.0
-14096,-1444,2804,-2908,-514,146,2025-02-17 11:21:16,
-14000,-2104,2136,-3382,-967,213,2025-02-17 11:21:16,0.0
-14380,-2780,84,-3769,-794,-246,2025-02-17 11:21:16,0.0
-14872,-3344,1068,-2942,558,-1334,2025-02-17 11:21:16,0.0
-15836,-4328,-2104,-1654,1788,-3201,2025-02-17 11:21:16,0.0
-18248,-4988,-2472,-1616,2623,-4538,2025-02-17 11:21:16,0.0
-19808,-4952,-2512,-1398,3287,-4480,2025-02-17 11:21:16,0.0
-20244,-5076,-3108,-1791,3386,-4059,2025-02-17 11:21:16,0.0
-20764,-4652,-3248,-2475,933,-2225,2025-02-17 11:21:16,0.0
-19464,-4132,-2292,-2841,-3531,718,2025-02-17 11:21:16,0.0
-16292,-4116,-2064,-2243,-7168,2651,2025-02-17 11:21:16,0.0
-13872,-2832,-4904,-1965,-8210,4223,2025-02-17 11:21:16,0.0
-11484,-1524,-4888,-2572,-6041,4130,2025-02-17 11:21:16,0.0
-9852,-96,-4128,-3065,-3602,3556,2025-02-17 11:21:16,0.0
-8776,1540,-2196,-2797,-3182,3084,2025-02-17 11:21:16,0.0
-8276,2216,-808,-1672,-3148,2672,2025-02-17 11:21:16,0.0
-8700,1600,-564,-609,-2399,2040,2025-02-17 11:21:16,0.0
-10240,392,-1716,-600,1969,1623,2025-02-17 11:21:16,0.0
-12092,-748,-1564,-401,6654,1923,2025-02-17 11:21:16,0.0
-13724,-1456,-1660,-335,9664,2540,2025-02-17 11:21:16,0.0
-13672,-2088,-1596,-568,11835,2779,2025-02-17 11:21:16,0.0
-13732,-1140,-2528,-1122,13907,1980,2025-02-17 11:21:16,0.0
-13488,324,-3700,-2009,13623,1297,2025-02-17 11:21:16,0.0
-13644,872,-3248,-2999,11310,1160,2025-02-17 11:21:16,0.0
-12940,776,-1652,-2774,8134,1018,2025-02-17 11:21:16,0.0
-13308,388,-1064,-1775,5917,1014,2025-02-17 11:21:16,0.0
-13940,120,-688,-470,2975,1688,2025-02-17 11:21:16,0.0
-13556,388,-1784,847,-817,2577,2025-02-17 11:21:16,0.0
-12228,1096,-2580,1314,-3007,2154,2025-02-17 11:21:16,0.0
-11708,1120,-2260,1590,-3740,1475,2025-02-17 11:21:16,0.0
-11304,728,-2088,1675,-3679,1141,2025-02-17 11:21:16,0.0
-10472,672,-1984,1755,-2574,536,2025-02-17 11:21:16,0.0
-10292,936,-1664,1640,-675,-120,2025-02-17 11:21:16,0.0
-11256,776,-1176,1327,1466,-689,2025-02-17 11:21:16,0.0
-12184,332,-1072,1159,2033,-910,2025-02-17 11:21:16,0.0
-12624,268,-1304,1037,1823,-2008,2025-02-17 11:21:16,0.0
-14340,-176,-720,951,974,-2972,2025-02-17 11:21:16,0.0
-15592,-200,-220,711,-901,-3250,2025-02-17 11:21:16,0.0
-15660,-228,0,574,-3550,-2873,2025-02-17 11:21:16,0.0
-15496,-920,-120,924,-6570,-2782,2025-02-17 11:21:16,0.0
-16040,-1076,-412,1095,-8928,-1885,2025-02-17 11:21:16,0.0
-16124,-504,676,1476,-9187,-585,2025-02-17 11:21:16,0.0
-15028,-1836,1596,2309,-6580,332,2025-02-17 11:21:16,0.0
-14504,-3116,3092,3823,-4052,878,2025-02-17 11:21:16,0.0
-14456,-3340,2596,5332,-3076,1536,2025-02-17 11:21:16,0.0
-13624,-3216,1028,7337,-2478,1896,2025-02-17 11:21:16,0.0
-14584,-1072,-3432,7595,-1629,2449,2025-02-17 11:21:16,0.0
-15244,1344,-5260,6565,-942,2852,2025-02-17 11:21:16,0.0
-16428,3100,-5472,4719,-116,2536,2025-02-17 11:21:16,0.0
-16940,4516,-4268,3135,1728,1698,2025-02-17 11:21:16,0.0
-16396,4244,-3584,3236,2724,538,2025-02-17 11:21:16,0.0
-15164,1920,-2264,3976,1058,-1114,2025-02-17 11:21:16,0.0
-13460,-220,-2420,4908,-2631,-2901,2025-02-17 11:21:16,0.0
-12060,-2408,-2960,4952,-7000,-4096,2025-02-17 11:21:16,0.0
-11396,-3668,-2736,3782,-8922,-4446,2025-02-17 11:21:16,0.0
-10632,-3952,-748,2503,-7192,-3827,2025-02-17 11:21:16,0.0
-10684,-3636,-1676,1984,-2202,-2565,2025-02-17 11:21:17,0.0
-10744,-2764,-1780,1811,1216,-1235,2025-02-17 11:21:17,0.0
-11552,-2092,-2852,1247,3519,-992,2025-02-17 11:21:17,0.0
-14000,-1612,-1060,911,5191,-756,2025-02-17 11:21:17,0.0
-14408,-2292,-48,1308,4010,-780,2025-02-17 11:21:17,0.0
-14900,-2416,444,1443,1093,-746,2025-02-17 11:21:17,0.0
-14272,-2672,-480,1441,-804,-671,2025-02-17 11:21:17,0.0
-13028,-2864,-944,1573,-1398,-625,2025-02-17 11:21:17,0.0
-11988,-2772,-1612,1757,-914,-651,2025-02-17 11:21:17,0.0
-10920,-2920,-80,2646,51,-790,2025-02-17 11:21:17,0.0
-10944,-2948,-1860,3396,976,-1057,2025-02-17 11:21:17,0.0
-11228,-2732,-2320,2817,2236,-1234,2025-02-17 11:21:17,0.0
-12576,-2224,-2720,1700,3260,-1247,2025-02-17 11:21:17,0.0
-13172,-2340,-1016,1042,3287,-1316,2025-02-17 11:21:17,0.0
-14304,-2972,516,1423,2563,-1144,2025-02-17 11:21:17,0.0
-14300,-3172,632,1879,1462,-637,2025-02-17 11:21:17,0.0
-13672,-3404,400,2240,645,-328,2025-02-17 11:21:17,0.0
-13148,-3216,232,2568,527,58,2025-02-17 11:21:17,0.0
-12640,-3232,392,2875,442,412,2025-02-17 11:21:17,0.0
-12384,-3076,572,3466,939,588,2025-02-17 11:21:17,0.0
-13328,-4116,716,6190,517,1651,2025-02-17 11:21:17,0.0
-13616,-4592,768,6561,-617,1325,2025-02-17 11:21:17,0.0
-14132,-4460,1824,7798,-1837,2107,2025-02-17 11:21:17,0.0
-13244,-4252,1060,8241,-2768,3764,2025-02-17 11:21:17,0.0
-10780,-3916,556,7537,-1723,2957,2025-02-17 11:21:17,0.0
-10588,-3168,40,6060,-202,1537,2025-02-17 11:21:17,0.0
-12052,-3560,788,6937,982,-330,2025-02-17 11:21:17,0.0
-13712,-4744,-748,10142,-222,-1539,2025-02-17 11:21:17,0.0
-16576,-5672,-4508,11950,1185,-1874,2025-02-17 11:21:17,0.0
-18240,-5236,-3216,13400,7330,-1278,2025-02-17 11:21:17,0.0
-16196,-5836,-4920,13245,10840,-1208,2025-02-17 11:21:17,0.0
-15596,-5344,-3388,11676,7943,-1460,2025-02-17 11:21:17,0.0
-17076,-1436,-980,12351,3791,230,2025-02-17 11:21:17,5
-16328,-1176,-2100,12027,1478,1751,2025-02-17 11:21:17,5
-13812,-1796,-1276,13952,1692,37,2025-02-17 11:21:17,5
-14668,-2472,-1972,14760,538,-1558,2025-02-17 11:21:17,5
-15412,-3928,-1336,14732,-800,-1991,2025-02-17 11:21:17,5
-14144,-4784,-2280,14727,-2206,-1630,2025-02-17 11:21:17,5
-13060,-4016,-3344,14591,-4037,-1279,2025-02-17 11:21:17,5
-11768,-3212,-3480,13956,-4842,-1598,2025-02-17 11:21:17,5
-12644,-1920,-3540,13145,-4430,-2547,2025-02-17 11:21:17,5
-13968,-324,-3760,12652,-4214,-3286,2025-02-17 11:21:17,5
-15348,1728,-5168,11097,-4825,-3095,2025-02-17 11:21:17,5
-13740,1280,-5108,8507,-8395,-3026,2025-02-17 11:21:17,5
-13552,780,-5900,6677,-10603,-3494,2025-02-17 11:21:17,5
-16372,3836,-3268,5953,-8336,-2622,2025-02-17 11:21:17,5
-12924,5408,-444,6987,-5565,-2080,2025-02-17 11:21:17,5
-9308,5116,1292,7842,-3932,-3861,2025-02-17 11:21:17,5
-6572,3188,1776,7525,-1595,-8452,2025-02-17 11:21:17,5
-5940,2120,1240,6070,-945,-12907,2025-02-17 11:21:17,5
-8172,1240,1812,3425,-1734,-16171,2025-02-17 11:21:17,5
-10612,920,3612,1807,-2297,-16657,2025-02-17 11:21:17,5
-10992,1356,4116,1195,-2926,-15741,2025-02-17 11:21:17,5
-9580,3600,2692,-1482,-2766,-14612,2025-02-17 11:21:17,5
5328,1508,2108,-2248,-146,-18788,2025-02-17 11:21:17,5
4288,-796,4964,1373,2966,-25171,2025-02-17 11:21:17,5
-148,-1580,5012,7149,-2053,-22038,2025-02-17 11:21:17,5
-2544,-2120,5488,12706,-9782,-14833,2025-02-17 11:21:17,5
612,-1952,3276,16047,-14681,-9728,2025-02-17 11:21:18,5
1536,-2020,2632,17563,-16904,-6994,2025-02-17 11:21:18,5
1800,-1820,2344,18591,-17521,-5617,2025-02-17 11:21:18,5
3344,-964,1984,18607,-17274,-6296,2025-02-17 11:21:18,5
3872,-1128,1840,18349,-16345,-8081,2025-02-17 11:21:18,5
3928,-1096,2088,17961,-15361,-9949,2025-02-17 11:21:18,5
3584,-1560,2152,17807,-14741,-11573,2025-02-17 11:21:18,5
3548,-2632,376,15928,-13655,-11613,2025-02-17 11:21:18,5
3968,-844,960,15297,-12241,-13390,2025-02-17 11:21:18,5
2924,-1760,1536,12513,-10868,-16422,2025-02-17 11:21:18,5
3124,-1468,2140,11857,-10876,-17249,2025-02-17 11:21:18,5
3212,-1276,2584,11865,-11027,-18203,2025-02-17 11:21:18,5
2884,-1512,2440,11800,-10957,-19020,2025-02-17 11:21:18,5
2456,-1964,1596,11034,-10397,-19401,2025-02-17 11:21:18,5
2796,-1324,2776,10298,-9697,-19879,2025-02-17 11:21:18,5
1816,-1828,3760,9739,-8428,-20279,2025-02-17 11:21:18,5
3688,-1748,1832,8995,-7231,-20749,2025-02-17 11:21:18,5
-4012,-11564,32767,30478,18009,-12963,2025-02-17 11:21:18,5
-32768,-32768,32767,32767,-32768,-9068,2025-02-17 11:21:18,5
-32768,-32768,32767,32767,-32768,-29056,2025-02-17 11:21:18,5
-32768,20056,3316,32767,-32768,-16085,2025-02-17 11:21:18,5
-32556,32767,32767,8080,-32768,32767,2025-02-17 11:21:18,5
32767,640,-9052,13641,-32768,32767,2025-02-17 11:21:18,5
17752,-8536,-26492,2029,-32768,19682,2025-02-17 11:21:18,5
896,-8412,-32768,-17829,-32768,14497,2025-02-17 11:21:18,5
-5456,-7376,-31492,-32768,-32768,20174,2025-02-17 11:21:18,5
-5852,-5708,-22916,-32768,-32768,21496,2025-02-17 11:21:18,5
-10396,-2504,-17472,-30997,-28669,21159,2025-02-17 11:21:18,5
-2920,2316,-6188,-20829,5921,15857,2025-02-17 11:21:18,5
4216,7340,-848,1863,29858,8253,2025-02-17 11:21:18,5
11924,6784,-2816,4806,20824,11452,2025-02-17 11:21:18,5
17680,6796,-6604,3173,6999,13467,2025-02-17 11:21:18,5
24276,6304,-7872,905,-4935,14433,2025-02-17 11:21:18,5
32767,4144,-8112,721,-8731,9911,2025-02-17 11:21:18,5
32767,-1032,-11680,1696,-4444,-418,2025-02-17 11:21:18,5
19112,-2004,-13568,-286,-4134,-933,2025-02-17 11:21:18,5
13788,2532,-9232,-858,-4479,-2371,2025-02-17 11:21:18,5
8292,3500,-8684,-718,-1283,-1092,2025-02-17 11:21:18,5
12152,3300,-8504,-73,1651,92,2025-02-17 11:21:18,5
16016,2392,-8220,149,1387,232,2025-02-17 11:21:18,5
16824,1724,-9404,3,-567,-105,2025-02-17 11:21:18,5
14492,2124,-9988,-300,-408,-347,2025-02-17 11:21:18,5
13912,2552,-9092,-234,696,-195,2025-02-17 11:21:18,5
15144,2436,-8472,-101,387,-98,2025-02-17 11:21:18,5
15168,2292,-9000,-109,-205,-169,2025-02-17 11:21:18,5
14548,2256,-9424,-131,20,-189,2025-02-17 11:21:18,5
14736,2356,-9468,-189,379,-188,2025-02-17 11:21:18,5
14948,2408,-8904,-171,229,-166,2025-02-17 11:21:18,5
14704,2392,-8980,-117,44,-158,2025-02-17 11:21:18,5
14692,2244,-9212,-138,120,-140,2025-02-17 11:21:18,5
14808,2268,-9324,-159,196,-161,2025-02-17 11:21:18,5
14880,2340,-9188,-165,175,-189,2025-02-17 11:21:18,5
14668,2368,-9040,-138,135,-159,2025-02-17 11:21:18,5
14792,2168,-9180,-148,111,-150,2025-02-17 11:21:18,5
14868,2224,-9176,-168,132,-197,2025-02-17 11:21:18,5
14852,2320,-9064,-149,199,-160,2025-02-17 11:21:18,5
14812,2332,-9120,-148,171,-168,2025-02-17 11:21:18,5
14856,2292,-9124,-163,137,-187,2025-02-17 11:21:18,5
14720,2268,-9128,-166,159,-190,2025-02-17 11:21:19,5
14880,2304,-9184,-171,191,-185,2025-02-17 11:21:19,5
14752,2308,-9160,-137,159,-179,2025-02-17 11:21:19,5
14736,2316,-9104,-175,136,-194,2025-02-17 11:21:19,5
14812,2272,-9180,-125,157,-171,2025-02-17 11:21:19,5
14716,2256,-9188,-159,170,-189,2025-02-17 11:21:19,5
14752,2360,-9280,-156,175,-143,2025-02-17 11:21:19,5
14840,2268,-9236,-151,173,-191,2025-02-17 11:21:19,5
14772,2172,-9244,-174,181,-165,2025-02-17 11:21:19,5
14728,2296,-9160,-170,164,-180,2025-02-17 11:21:19,5
14812,2260,-9156,-143,131,-164,2025-02-17 11:21:19,5
14816,2384,-9140,-179,167,-174,2025-02-17 11:21:19,5
14772,2312,-9232,-144,152,-191,2025-02-17 11:21:19,5
14816,2364,-9216,-186,171,-178,2025-02-17 11:21:19,5
14740,2376,-9216,-159,187,-167,2025-02-17 11:21:19,5
14772,2320,-9116,-127,152,-169,2025-02-17 11:21:19,5
14780,2260,-9036,-144,149,-177,2025-02-17 11:21:19,5
14780,2336,-9068,-136,156,-179,2025-02-17 11:21:19,5
14780,2324,-9168,-157,164,-187,2025-02-17 11:21:19,0.0
14796,2340,-8980,-155,160,-182,2025-02-17 11:21:19,0.0
14740,2364,-9088,-165,157,-175,2025-02-17 11:21:19,0.0
14856,2256,-9136,-130,137,-204,2025-02-17 11:21:19,0.0
14780,2264,-9064,-158,172,-183,2025-02-17 11:21:19,0.0
14760,2212,-9136,-146,167,-174,2025-02-17 11:21:19,0.0
14876,2292,-9108,-171,169,-165,2025-02-17 11:21:19,0.0
14916,2320,-9132,-149,181,-208,2025-02-17 11:21:19,0.0
14868,2320,-9104,-131,146,-172,2025-02-17 11:21:19,0.0
14828,2220,-9112,-150,149,-185,2025-02-17 11:21:19,0.0
14792,2352,-9116,-174,181,-195,2025-02-17 11:21:19,
14852,2288,-8908,-133,126,-164,2025-02-17 11:21:19,0.0
14780,2216,-9368,-159,93,-168,2025-02-17 11:21:19,0.0
14832,2336,-9220,-208,318,-221,2025-02-17 11:21:19,0.0
14824,2416,-8964,-104,104,-170,2025-02-17 11:21:19,0.0
14904,2268,-9212,-180,158,-180,2025-02-17 11:21:19,0.0
14960,2228,-9220,-125,194,-188,2025-02-17 11:21:19,0.0
14728,2392,-8888,-127,214,-165,2025-02-17 11:21:19,0.0
14684,2268,-9068,-128,111,-162,2025-02-17 11:21:19,0.0
14872,2336,-9348,-209,302,-197,2025-02-17 11:21:19,0.0
14748,2284,-8996,-160,155,-184,2025-02-17 11:21:19,0.0
14676,2464,-9216,-127,127,-151,2025-02-17 11:21:19,0.0
14840,2284,-9176,-140,185,-180,2025-02-17 11:21:19,0.0
14756,2268,-9100,-189,150,-196,2025-02-17 11:21:19,0.0
14720,2380,-9056,-146,131,-175,2025-02-17 11:21:19,0.0
14944,2360,-9340,-132,197,-179,2025-02-17 11:21:19,0.0
14880,2360,-9164,-182,156,-181,2025-02-17 11:21:19,0.0
14760,2336,-9180,-176,156,-163,2025-02-17 11:21:19,0.0
14732,2344,-8972,-178,188,-186,2025-02-17 11:21:19,0.0
14820,2380,-9024,-143,145,-175,2025-02-17 11:21:19,0.0
14708,2272,-9176,-180,187,-187,2025-02-17 11:21:19,0.0
14780,2336,-9180,-175,153,-206,2025-02-17 11:21:19,0.0
14856,2280,-9212,-169,166,-187,2025-02-17 11:21:19,0.0
14740,2412,-9068,-154,172,-182,2025-02-17 11:21:19,0.0
14788,2280,-9012,-179,143,-153,2025-02-17 11:21:19,0.0
14772,2296,-9132,-136,169,-177,2025-02-17 11:21:19,0.0
14836,2272,-9060,-143,142,-198,2025-02-17 11:21:19,0.0
14400,2512,-8740,-110,-47,-62,2025-02-17 11:21:19,0.0
14700,2316,-9560,-53,90,-21,2025-02-17 11:21:19,0.0
14700,2228,-9580,-121,519,-121,2025-02-17 11:21:19,0.0
14972,2496,-8616,-172,126,-141,2025-02-17 11:21:19,0.0
14608,2400,-8692,-74,-480,-90,2025-02-17 11:21:19,0.0
14436,2712,-9248,13,-232,19,2025-02-17 11:21:19,0.0
12344,2504,-9448,80,59,641,2025-02-17 11:21:19,0.0
16096,1920,-9512,132,239,164,2025-02-17 11:21:19,0.0
14716,2444,-6876,533,-2103,451,2025-02-17 11:21:20,0.0
14864,2456,-9072,619,-3239,664,2025-02-17 11:21:20,0.0
13336,1996,-9652,516,-1236,1000,2025-02-17 11:21:20,0.0
13444,2456,-9244,702,-638,994,2025-02-17 11:21:20,0.0
14620,2244,-9044,882,-192,1385,2025-02-17 11:21:20,0.0
15460,1708,-9984,714,-122,966,2025-02-17 11:21:20,0.0
15560,1332,-10440,232,196,686,2025-02-17 11:21:20,0.0
16132,1072,-10004,-212,383,-222,2025-02-17 11:21:20,0.0
16748,1184,-9784,-506,-1009,-1265,2025-02-17 11:21:20,0.0
14760,1464,-10116,-1011,-1008,-1443,2025-02-17 11:21:20,0.0
14776,1608,-10644,-1355,-1002,-1898,2025-02-17 11:21:20,0.0
15548,1796,-11056,-1926,-1669,-2479,2025-02-17 11:21:20,0.0
13576,2100,-12516,-3373,-1935,-2389,2025-02-17 11:21:20,0.0
14048,2328,-12836,-5079,-2155,-1730,2025-02-17 11:21:20,0.0
15332,1616,-12152,-6387,-3733,-2712,2025-02-17 11:21:20,0.0
15348,1528,-13312,-8622,-6195,-3274,2025-02-17 11:21:20,0.0
15396,2492,-13968,-11001,-8437,-3674,2025-02-17 11:21:20,0.0
15040,3388,-14008,-12952,-9104,-4229,2025-02-17 11:21:20,0.0
12960,3608,-15476,-15690,-8176,-4223,2025-02-17 11:21:20,0.0
12612,3596,-15068,-18480,-7888,-3773,2025-02-17 11:21:20,0.0
13000,4392,-14180,-20769,-8788,-3917,2025-02-17 11:21:20,0.0
13316,5528,-10900,-22395,-11069,-4476,2025-02-17 11:21:20,0.0
14728,6036,-6536,-21368,-13156,-4914,2025-02-17 11:21:20,0.0
14528,6792,-5184,-19297,-15486,-5306,2025-02-17 11:21:20,0.0
13944,7228,-6808,-18564,-15970,-6163,2025-02-17 11:21:20,0.0
11956,7808,-10332,-19528,-15690,-6570,2025-02-17 11:21:20,0.0
9916,8100,-11164,-20775,-15518,-5955,2025-02-17 11:21:20,0.0
8868,8728,-10792,-21864,-17122,-5495,2025-02-17 11:21:20,0.0
9376,9308,-11036,-23376,-20545,-5272,2025-02-17 11:21:20,0.0
8264,9600,-8908,-24881,-22653,-4604,2025-02-17 11:21:20,0.0
8108,10260,-6744,-24395,-23413,-3990,2025-02-17 11:21:20,0.0
8020,11060,-7988,-23571,-23844,-4130,2025-02-17 11:21:20,0.0
6172,11880,-8508,-24788,-22344,-4486,2025-02-17 11:21:20,0.0
6136,12992,-7964,-25546,-19124,-4167,2025-02-17 11:21:20,0.0
7524,14528,-6200,-25452,-15176,-4986,2025-02-17 11:21:20,0.0
8096,15412,-5336,-25085,-12646,-6982,2025-02-17 11:21:20,0.0
5632,15700,-4512,-27504,-11493,-8835,2025-02-17 11:21:20,0.0
1704,16172,-2644,-27643,-11812,-7632,2025-02-17 11:21:20,0.0
2992,16556,-4816,-30022,-9509,-4958,2025-02-17 11:21:20,0.0
3296,16516,4,-31534,-3568,-5453,2025-02-17 11:21:20,0.0
4988,17184,1992,-29560,3378,-7179,2025-02-17 11:21:20,0.0
2968,18092,1340,-27260,10242,-8341,2025-02-17 11:21:20,0.0
2320,19868,3096,-22255,16636,-7687,2025-02-17 11:21:20,0.0
3780,20732,4048,-18116,19709,-7645,2025-02-17 11:21:20,0.0
3564,19460,1880,-14841,21616,-7905,2025-02-17 11:21:20,0.0
1700,18220,3976,-10906,22966,-7074,2025-02-17 11:21:20,0.0
1508,16592,5092,-5553,22053,-5565,2025-02-17 11:21:20,0.0
2956,15136,3520,-1114,17503,-3223,2025-02-17 11:21:20,0.0
4792,15052,1736,880,11758,-2489,2025-02-17 11:21:20,0.0
3268,15388,2636,2554,5869,-2040,2025-02-17 11:21:20,0.0
968,16188,3556,5395,-714,-6,2025-02-17 11:21:20,0.0
224,17040,2892,7931,-5512,2747,2025-02-17 11:21:20,0.0
1568,18104,1092,9224,-8707,4431,2025-02-17 11:21:20,0.0
1660,19096,1524,10048,-10519,4878,2025-02-17 11:21:20,0.0
2848,19600,1004,10697,-11808,4314,2025-02-17 11:21:20,0.0
1652,19768,1080,11206,-12466,4003,2025-02-17 11:21:20,0.0
1924,20140,-456,10762,-12159,3529,2025-02-17 11:21:20,0.0
2408,20200,-1296,8816,-10073,2202,2025-02-17 11:21:20,0.0
2520,19972,568,7929,-9248,1479,2025-02-17 11:21:20,0.0
4020,21476,-316,5755,-8616,-1754,2025-02-17 11:21:20,0.0
4692,22512,-1684,3587,-8118,-4159,2025-02-17 11:21:20,0.0
2616,23408,-1564,1379,-5252,-5246,2025-02-17 11:21:21,0.0
-1012,23016,-848,-254,-412,-4239,2025-02-17 11:21:21,0.0
-24,20788,-3240,-2109,5111,-1662,2025-02-17 11:21:21,0.0
1352,19408,-3016,-4792,9605,-462,2025-02-17 11:21:21,0.0
1148,19004,-2664,-7456,13913,-180,2025-02-17 11:21:21,
1080,18608,-2152,-9815,17642,8,2025-02-17 11:21:21,0.0
2296,19404,-876,-11581,21063,-1185,2025-02-17 11:21:21,0.0
2000,19016,164,-12227,23452,-2397,2025-02-17 11:21:21,0.0
820,18384,832,-12365,23881,-2354,2025-02-17 11:21:21,0.0
2304,18224,2316,-11359,20491,-1376,2025-02-17 11:21:21,0.0
2716,13416,3172,5134,-6821,-1488,2025-02-17 11:21:21,0.0
1500,15348,3392,7854,-6232,-2910,2025-02-17 11:21:21,0.0
-2608,14500,3020,9609,-2711,-1399,2025-02-17 11:21:21,0.0
-1272,10632,-1208,8884,1109,690,2025-02-17 11:21:21,0.0
1728,9760,512,6503,5074,1986,2025-02-17 11:21:21,0.0
372,9828,4340,7200,6113,3495,2025-02-17 11:21:21,0.0
3724,10596,3136,8246,2452,4510,2025-02-17 11:21:21,0.0
2604,12000,16,6851,-2711,3758,2025-02-17 11:21:21,0.0
2868,11864,-832,4351,-7632,2840,2025-02-17 11:21:21,0.0
4300,10984,416,2586,-12013,494,2025-02-17 11:21:21,0.0
3924,10644,2704,2352,-14931,-2212,2025-02-17 11:21:21,0.0
3396,11024,776,2454,-14967,-4501,2025-02-17 11:21:21,0.0
2136,11512,264,1804,-12627,-6037,2025-02-17 11:21:21,0.0
1068,12140,536,973,-9282,-7120,2025-02-17 11:21:21,0.0
952,12344,1852,608,-6774,-8033,2025-02-17 11:21:21,0.0
116,11620,1652,270,-6039,-8094,2025-02-17 11:21:21,0.0
2324,10860,384,-1110,-6773,-8845,2025-02-17 11:21:21,0.0
1796,10728,1312,-2512,-8106,-10011,2025-02-17 11:21:21,0.0
-180,11436,3556,-2654,-7259,-11207,2025-02-17 11:21:21,0.0
-80,11800,960,-1824,-3943,-11321,2025-02-17 11:21:21,0.0
-1616,13008,1496,-352,-60,-10550,2025-02-17 11:21:21,0.0
-3040,13644,1864,947,2068,-9039,2025-02-17 11:21:21,0.0
-2212,14172,1316,1962,1062,-7224,2025-02-17 11:21:21,0.0
-692,14072,-1452,720,-3203,-5191,2025-02-17 11:21:21,0.0
156,13584,520,-2299,-8028,-3333,2025-02-17 11:21:21,0.0
1376,13312,2940,-3218,-10193,-3689,2025-02-17 11:21:21,0.0
-392,14140,2176,-3223,-7087,-5207,2025-02-17 11:21:21,0.0
296,14076,1476,-2900,-593,-8348,2025-02-17 11:21:21,0.0
-680,13972,1612,-3542,6281,-12401,2025-02-17 11:21:21,0.0
40,12280,1328,-3782,11124,-15008,2025-02-17 11:21:21,0.0
1556,11032,1000,-3840,13889,-17312,2025-02-17 11:21:21,0.0
1184,10028,1208,-4451,13487,-19006,2025-02-17 11:21:21,0.0
304,8316,1444,-3903,13584,-20196,2025-02-17 11:21:21,0.0
-2544,7448,1084,-2688,16034,-20227,2025-02-17 11:21:21,0.0
-3792,6908,812,-1543,19112,-20597,2025-02-17 11:21:21,0.0
-3072,6732,1120,-501,23096,-22894,2025-02-17 11:21:21,0.0
-5392,7168,2864,1849,27296,-25651,2025-02-17 11:21:21,0.0
-10912,8028,2020,5149,28709,-25569,2025-02-17 11:21:21,0.0
-11464,6272,-3328,5249,31808,-24891,2025-02-17 11:21:22,0.0
-12192,3984,-3868,6650,32767,-26232,2025-02-17 11:21:22,0.0
-11904,2464,-6432,9263,32767,-25402,2025-02-17 11:21:22,0.0
-8976,2528,-8152,10962,32767,-24978,2025-02-17 11:21:22,0.0
-6944,3268,-9064,11599,28751,-25092,2025-02-17 11:21:22,0.0
-10496,5808,-10216,12352,22057,-22039,2025-02-17 11:21:22,0.0
-10388,6572,-10984,13414,15867,-18316,2025-02-17 11:21:22,0.0
-10960,7352,-10356,14175,9385,-14912,2025-02-17 11:21:22,0.0
-9348,7576,-12456,14669,1654,-12628,2025-02-17 11:21:22,0.0
-9244,7688,-12196,14528,-6523,-10419,2025-02-17 11:21:22,0.0
-8096,6676,-11848,13841,-14654,-9135,2025-02-17 11:21:22,0.0
-8608,5480,-10488,12629,-21342,-8792,2025-02-17 11:21:22,0.0
-9852,4536,-8624,11212,-25190,-8587,2025-02-17 11:21:22,0.0
-10944,4236,-6420,10636,-25080,-8268,2025-02-17 11:21:22,0.0
-12972,4404,-5608,10239,-21200,-8086,2025-02-17 11:21:22,0.0
-15528,4912,-5388,9840,-14851,-7420,2025-02-17 11:21:22,0.0
-17680,4520,-4292,10049,-6961,-5993,2025-02-17 11:21:22,0.0
-17812,3648,-4676,10260,496,-4687,2025-02-17 11:21:22,0.0
-14176,2260,-4864,10049,5870,-5092,2025-02-17 11:21:22,0.0
-11860,2028,-5236,9616,7741,-5957,2025-02-17 11:21:22,0.0
-11024,2428,-5128,9123,6757,-6954,2025-02-17 11:21:22,0.0
-13616,2592,-6024,9008,5011,-6425,2025-02-17 11:21:22,0.0
-17968,1160,-7980,7730,4212,-3881,2025-02-17 11:21:22,0.0
-16272,-632,-8592,6421,4832,-1283,2025-02-17 11:21:22,0.0
-15064,-1048,-9500,4932,4978,-195,2025-02-17 11:21:22,0.0
-11632,80,-9652,3088,3071,-576,2025-02-17 11:21:22,0.0
-10156,348,-8464,1924,125,-1852,2025-02-17 11:21:22,0.0
-9984,-364,-6792,777,-4366,-3330,2025-02-17 11:21:22,0.0
-11752,-612,-1000,540,-10913,-4123,2025-02-17 11:21:22,0.0
-19848,-948,5580,2734,-14249,-4149,2025-02-17 11:21:22,0.0
-17208,-3300,1368,6373,-11079,-2545,2025-02-17 11:21:22,0.0
-12792,-2972,-7148,6447,-5819,-1680,2025-02-17 11:21:22,0.0
-9992,-2456,-8072,4918,-2822,-2437,2025-02-17 11:21:22,0.0
-10432,-2584,-4356,4764,-3295,-3624,2025-02-17 11:21:22,0.0
-11404,-3256,-2480,6644,-3589,-3287,2025-02-17 11:21:22,0.0
-17092,-4708,1168,9094,-1816,-1801,2025-02-17 11:21:22,0.0
-11860,-4388,-936,11236,2324,-2063,2025-02-17 11:21:22,0.0
-10668,-3916,-2892,12515,4181,-2639,2025-02-17 11:21:22,0.0
-11476,-4156,-5780,12885,5541,-2700,2025-02-17 11:21:22,0.0
-13080,-4524,-6452,12260,6344,-2313,2025-02-17 11:21:22,0.0
-14924,-4252,-6528,11405,5248,-932,2025-02-17 11:21:22,0.0
-15028,-4308,-5056,10567,1629,786,2025-02-17 11:21:22,0.0
-14156,-5068,-4416,10589,-3106,1845,2025-02-17 11:21:22,0.0
-12580,-6744,-4356,11073,-7962,2204,2025-02-17 11:21:22,0.0
-14316,-5860,-6780,9377,-7774,3243,2025-02-17 11:21:22,0.0
-15636,-4812,-4660,7794,-2896,5885,2025-02-17 11:21:22,0.0
-13092,-4244,-3900,8177,1662,6449,2025-02-17 11:21:22,0.0
-12020,-5288,-6212,6682,2273,6424,2025-02-17 11:21:22,0.0
-11544,-6028,-4580,6057,150,6070,2025-02-17 11:21:22,0.0
-11608,-5444,-2288,6784,-1880,5276,2025-02-17 11:21:22,0.0
-12644,-5676,-764,8229,-1685,5268,2025-02-17 11:21:22,0.0
-13124,-5632,-988,10159,-400,5507,2025-02-17 11:21:22,0.0
-11588,-5268,-1284,12016,1020,5129,2025-02-17 11:21:22,0.0
-11284,-4904,-2364,13247,1835,4320,2025-02-17 11:21:22,0.0
-11944,-4896,-2468,14710,2280,3864,2025-02-17 11:21:22,0.0
-12700,-4848,-2436,15875,2596,4377,2025-02-17 11:21:22,0.0
-12124,-4388,-3184,16614,1976,4538,2025-02-17 11:21:22,
-11504,-4408,-2996,17116,1291,3600,2025-02-17 11:21:22,0.0
-11636,-4544,-3104,17318,2032,2925,2025-02-17 11:21:22,0.0
-11900,-5336,-4092,16792,3406,2663,2025-02-17 11:21:22,0.0
-11284,-5388,-3136,16811,4865,1860,2025-02-17 11:21:22,0.0
-12164,-5296,-4060,16320,6117,2480,2025-02-17 11:21:23,0.0
-10208,-4524,-5432,15219,6096,2653,2025-02-17 11:21:23,0.0
-9192,-3660,-5524,14664,6675,1628,2025-02-17 11:21:23,0.0
-10348,-3412,-4744,13880,9331,847,2025-02-17 11:21:23,0.0
-12804,-3156,-4144,13446,12063,1384,2025-02-17 11:21:23,0.0
-14036,-3312,-3536,13535,12067,3365,2025-02-17 11:21:23,0.0
-15880,-3156,-3276,13900,8845,5528,2025-02-17 11:21:23,0.0
-13868,-3540,-3004,14397,4389,6510,2025-02-17 11:21:23,0.0
-13864,-3808,-3760,14144,479,6419,2025-02-17 11:21:23,0.0
-14908,-5620,-3356,13492,-2230,7025,2025-02-17 11:21:23,0.0
-12404,-7836,-408,13708,-2751,7136,2025-02-17 11:21:23,0.0
-11660,-7488,-2748,14160,-3273,6441,2025-02-17 11:21:23,0.0
-11688,-5652,-2736,13351,-2144,5322,2025-02-17 11:21:23,0.0
-11692,-3564,-4104,13083,513,4857,2025-02-17 11:21:23,0.0
-10776,-3424,-2960,13603,2523,3726,2025-02-17 11:21:23,0.0
-12652,-3632,-3352,13710,3697,3354,2025-02-17 11:21:23,0.0
-12000,-3196,-4712,13252,3787,2627,2025-02-17 11:21:23,0.0
-12676,-3128,-4528,12900,3202,1164,2025-02-17 11:21:23,0.0
-11832,-3508,-4016,12638,2265,780,2025-02-17 11:21:23,0.0
-10952,-2772,-5596,9429,2048,4388,2025-02-17 11:21:23,0.0
-12848,-2452,-5072,9131,4012,5497,2025-02-17 11:21:23,0.0
-12324,-1460,-5144,8768,4482,5458,2025-02-17 11:21:23,0.0
-13912,-496,-4992,8710,4442,5245,2025-02-17 11:21:23,0.0
-14904,40,-3812,8870,3626,5590,2025-02-17 11:21:23,0.0
-14008,-324,-4780,9194,2248,6080,2025-02-17 11:21:23,0.0
-12924,296,-4640,8718,1169,5757,2025-02-17 11:21:23,0.0
-13532,160,-3352,8732,672,5669,2025-02-17 11:21:23,0.0
-13072,-816,-3268,8588,623,5853,2025-02-17 11:21:23,0.0
-12844,-1244,-3392,8210,24,5643,2025-02-17 11:21:23,0.0
-13220,-1708,-2828,7892,-1050,5770,2025-02-17 11:21:23,0.0
-12056,-2200,-3008,7067,-2020,5505,2025-02-17 11:21:23,0.0
-10940,-1596,-2748,6300,-2571,4708,2025-02-17 11:21:23,0.0
-12152,-1800,-1724,5578,-1784,4652,2025-02-17 11:21:23,0.0
-8596,200,696,6442,-1188,4894,2025-02-17 11:21:23,0.0
-11640,-28,-1760,5438,-1967,5151,2025-02-17 11:21:23,0.0
-12200,164,-832,5802,-1765,5491,2025-02-17 11:21:23,0.0
-11880,-84,-904,6293,-244,4975,2025-02-17 11:21:23,0.0
-10684,-196,-1120,6445,1547,3195,2025-02-17 11:21:23,0.0
-10752,-760,-588,6023,2184,1730,2025-02-17 11:21:23,0.0
-13096,296,-328,4229,1145,1238,2025-02-17 11:21:23,0.0
-16076,-456,-716,6030,-498,1080,2025-02-17 11:21:23,0.0
-13828,-672,-1152,6753,-2922,766,2025-02-17 11:21:23,0.0
-13828,-716,-528,6513,-3929,-166,2025-02-17 11:21:23,0.0
-15736,-1112,292,6406,-3531,-133,2025-02-17 11:21:23,0.0
-15764,-1104,472,6379,-3956,163,2025-02-17 11:21:23,0.0
-14340,-1504,-348,6353,-5164,40,2025-02-17 11:21:23,0.0
-14856,-1816,-692,5834,-7544,-130,2025-02-17 11:21:23,0.0
-14836,-2576,-2496,5099,-6378,-667,2025-02-17 11:21:23,0.0
-14784,-2924,-6104,4918,-1893,-386,2025-02-17 11:21:23,0.0
-13844,-1004,-6168,3819,4843,-537,2025-02-17 11:21:23,0.0
-15096,-1408,-4920,3070,10918,-416,2025-02-17 11:21:23,0.0
-7220,-1176,-11192,1891,14108,-3,2025-02-17 11:21:23,0.0
-16444,3708,-2204,1778,15752,-236,2025-02-17 11:21:23,0.0
-11960,-1064,-7536,967,10635,684,2025-02-17 11:21:23,0.0
-13304,-1212,-2416,2122,7121,2052,2025-02-17 11:21:24,0.0
-11728,-1968,-4488,3348,1712,3766,2025-02-17 11:21:24,0.0
-9880,-2216,-5572,2811,-1005,1854,2025-02-17 11:21:24,0.0
-10748,-3632,-4604,2253,370,-1033,2025-02-17 11:21:24,0.0
-12376,-3432,-3588,1459,2050,-2552,2025-02-17 11:21:24,0.0
-13832,-2532,-2240,1383,1377,-2261,2025-02-17 11:21:24,0.0
-13448,-2412,-3132,1272,571,-2102,2025-02-17 11:21:24,0.0
-13392,-2356,-3312,1373,340,-1756,2025-02-17 11:21:24,0.0
-12540,-1848,-3452,1359,-466,-1435,2025-02-17 11:21:24,0.0
-12464,-1660,-3536,1204,-633,-1998,2025-02-17 11:21:24,0.0
-12372,-2224,-3764,1007,-978,-2287,2025-02-17 11:21:24,0.0
-12148,-2556,-3556,508,-2381,-2774,2025-02-17 11:21:24,0.0
-11568,-3296,-3896,66,-3304,-3185,2025-02-17 11:21:24,0.0
-10964,-3428,-3068,-419,-3559,-3492,2025-02-17 11:21:24,0.0
-10840,-3472,-3948,-1495,-2085,-3718,2025-02-17 11:21:24,0.0
-11580,-3348,-2864,-1755,-176,-3265,2025-02-17 11:21:24,0.0
-12992,-3224,-2620,-1433,2455,-1570,2025-02-17 11:21:24,0.0
-12652,-2640,-2140,-1182,1850,-817,2025-02-17 11:21:24,0.0
-12528,-1956,-1724,-855,1776,-868,2025-02-17 11:21:24,0.0
-13036,-1668,-1288,-376,1527,-531,2025-02-17 11:21:24,0.0
-11980,-2152,-1816,-21,286,-648,2025-02-17 11:21:24,0.0
-12624,-2956,-2336,-506,134,-555,2025-02-17 11:21:24,0.0
-13296,-3416,-2868,-1036,628,-1,2025-02-17 11:21:24,0.0
-13524,-3676,-2148,-1766,514,657,2025-02-17 11:21:24,0.0
-13688,-3536,-1684,-1949,125,872,2025-02-17 11:21:24,0.0
-13340,-2848,-1596,-2303,-385,748,2025-02-17 11:21:24,0.0
-13592,-3048,-1928,-2549,-816,594,2025-02-17 11:21:24,0.0
-13784,-3424,-1848,-2734,-1332,647,2025-02-17 11:21:24,0.0
-13444,-3484,-1488,-3341,-2140,533,2025-02-17 11:21:24,0.0
-13668,-3524,-1272,-3508,-2855,374,2025-02-17 11:21:24,0.0
-13284,-2608,-1860,-3734,-3150,133,2025-02-17 11:21:24,0.0
-13852,-2244,-460,-3307,-3828,-62,2025-02-17 11:21:24,0.0
-14228,-2220,-1808,-2932,-3418,-677,2025-02-17 11:21:24,0.0
-13412,-2712,-3444,-3301,-3051,-1731,2025-02-17 11:21:24,0.0
-12984,-4284,-3628,-3893,-1966,-2803,2025-02-17 11:21:24,0.0
-13220,-5276,-3728,-4960,-1215,-3060,2025-02-17 11:21:24,0.0
-15164,-5824,-3896,-5713,1457,-2437,2025-02-17 11:21:24,0.0
-16096,-5068,-4076,-5949,4818,-1749,2025-02-17 11:21:24,0.0
-16564,-4084,-5516,-6075,5699,-1384,2025-02-17 11:21:24,0.0
-16320,-3504,-6380,-5929,4381,-751,2025-02-17 11:21:24,0.0
-15252,-3296,-6712,-5656,2504,147,2025-02-17 11:21:24,0.0
-13756,-2808,-6560,-5164,1095,810,2025-02-17 11:21:24,
-12340,-2156,-5520,-4475,566,886,2025-02-17 11:21:24,0.0
-11812,-936,-4884,-3779,34,790,2025-02-17 11:21:24,0.0
-12400,260,-4664,-2998,-1173,910,2025-02-17 11:21:24,0.0
-12436,368,-4656,-2261,-2486,1481,2025-02-17 11:21:24,0.0
-13008,-348,-1612,542,-3063,2833,2025-02-17 11:21:24,0.0
-12128,460,-5740,119,-690,3981,2025-02-17 11:21:24,0.0
-10308,-1076,-7196,-375,3023,3295,2025-02-17 11:21:24,0.0
-10952,-1080,-6384,-1577,7815,2321,2025-02-17 11:21:24,0.0
-11872,-980,-5608,-2196,10160,2037,2025-02-17 11:21:24,0.0
-12624,-1056,-5252,-2281,11507,2271,2025-02-17 11:21:24,0.0
-13404,-424,-6612,-2217,10156,2559,2025-02-17 11:21:24,0.0
-12768,368,-5464,-1661,3361,1160,2025-02-17 11:21:24,0.0
-13104,-328,-5624,-1723,-1332,490,2025-02-17 11:21:24,0.0
-12252,-416,-5092,-1522,-3009,189,2025-02-17 11:21:24,0.0
-11288,-304,-4620,-1354,-2665,459,2025-02-17 11:21:24,0.0
-10984,-232,-3928,-911,-1763,930,2025-02-17 11:21:24,0.0
-10056,-472,-4160,-410,-1105,1514,2025-02-17 11:21:24,0.0
-9332,-804,-4016,-263,-278,1345,2025-02-17 11:21:24,0.0
-8924,-740,-4892,-389,1245,567,2025-02-17 11:21:25,0.0
-9556,-744,-4476,-710,2018,-463,2025-02-17 11:21:25,0.0
-9820,-764,-4512,-828,2425,-1020,2025-02-17 11:21:25,0.0
-10196,-488,-5456,-1360,2548,-1550,2025-02-17 11:21:25,0.0
-10312,136,-5712,-1608,2140,-2052,2025-02-17 11:21:25,0.0
-10560,764,-6052,-1649,1994,-2914,2025-02-17 11:21:25,0.0
-10652,608,-6604,-2206,2770,-4361,2025-02-17 11:21:25,0.0
-11732,-192,-7256,-3154,3493,-5775,2025-02-17 11:21:25,0.0
-12912,-1152,-8872,-4091,3790,-6354,2025-02-17 11:21:25,0.0
-13184,-1380,-9736,-5627,5223,-6788,2025-02-17 11:21:25,0.0
-14232,-1480,-6940,-7066,6347,-6985,2025-02-17 11:21:25,0.0
-20860,-5228,-3416,-7089,1758,-6061,2025-02-17 11:21:25,0.0
-14832,2956,-5696,-6679,-654,-5665,2025-02-17 11:21:25,0.0
-13828,4324,-4848,-5208,-4151,-5665,2025-02-17 11:21:25,0.0
-13680,3160,-4664,-3766,-5571,-5985,2025-02-17 11:21:25,0.0
-13192,880,-5848,-3195,-7122,-5841,2025-02-17 11:21:25,0.0
-12736,-1392,-6976,-3702,-7451,-5234,2025-02-17 11:21:25,0.0
-12876,-2612,-7348,-5142,-5797,-4358,2025-02-17 11:21:25,0.0
-12020,-1944,-7032,-7475,-3319,-3401,2025-02-17 11:21:25,0.0
-11112,-1032,-6788,-8569,-2442,-3545,2025-02-17 11:21:25,0.0
-11540,-136,-6460,-9374,-2249,-3706,2025-02-17 11:21:25,0.0
-11652,356,-5676,-9790,-3071,-3789,2025-02-17 11:21:25,0.0
-11852,240,-5928,-9795,-3507,-3365,2025-02-17 11:21:25,0.0
-10832,-200,-6680,-10782,-3474,-3751,2025-02-17 11:21:25,0.0
-10588,-1156,-7916,-12131,-3019,-4728,2025-02-17 11:21:25,0.0
-10592,-2576,-8260,-12945,-1717,-5867,2025-02-17 11:21:25,0.0
-11216,-2828,-9420,-14536,-48,-6847,2025-02-17 11:21:25,0.0
-12460,-2840,-8236,-16147,177,-6974,2025-02-17 11:21:25,0.0
-13444,-2396,-7732,-17226,-1056,-6799,2025-02-17 11:21:25,0.0
-12864,-1740,-7776,-18031,-3787,-6679,2025-02-17 11:21:25,0.0
-12200,-1596,-8560,-19534,-5836,-6882,2025-02-17 11:21:25,0.0
-11256,-1724,-7112,-19778,-6728,-7093,2025-02-17 11:21:25,0.0
-10976,-1904,-7256,-19998,-6893,-7160,2025-02-17 11:21:25,0.0
-10504,-2228,-7280,-20472,-6894,-7239,2025-02-17 11:21:25,0.0
-10148,-2852,-7348,-20971,-6614,-7421,2025-02-17 11:21:25,0.0
-9756,-3904,-7372,-21679,-6026,-7720,2025-02-17 11:21:25,0.0
-10112,-4196,-6200,-22897,-2390,-8412,2025-02-17 11:21:25,0.0
-10584,-4428,-6304,-23115,-1583,-8708,2025-02-17 11:21:25,0.0
-11712,-4508,-5508,-22951,-890,-8899,2025-02-17 11:21:25,0.0
-11912,-4280,-5428,-22587,-1224,-8804,2025-02-17 11:21:25,0.0
-11664,-5396,-5824,-22430,-1393,-8872,2025-02-17 11:21:25,0.0
-11412,-5564,-5908,-22109,-1078,-9246,2025-02-17 11:21:25,0.0
-10616,-5904,-6652,-22045,-538,-9867,2025-02-17 11:21:25,0.0
-11188,-6564,-7136,-22459,-565,-10509,2025-02-17 11:21:25,0.0
-11312,-7020,-7444,-22883,-695,-10631,2025-02-17 11:21:25,0.0
-11832,-7100,-7124,-23508,-1083,-10419,2025-02-17 11:21:25,0.0
-12156,-7652,-6160,-24092,-1003,-9939,2025-02-17 11:21:25,0.0
-12656,-6460,-5160,-24170,-1322,-9372,2025-02-17 11:21:25,0.0
-13460,-5576,-3920,-23656,-3106,-8268,2025-02-17 11:21:25,0.0
-13656,-5084,-4096,-22546,-5079,-6973,2025-02-17 11:21:25,0.0
-12588,-4884,-4180,-21819,-7045,-6026,2025-02-17 11:21:25,0.0
-11520,-5768,-4832,-21342,-7841,-5696,2025-02-17 11:21:25,0.0
-10660,-6232,-6120,-21421,-6107,-5915,2025-02-17 11:21:25,0.0
-10744,-5388,-6928,-21950,-1460,-6290,2025-02-17 11:21:25,0.0
-11208,-4764,-6260,-22346,3305,-6271,2025-02-17 11:21:25,0.0
-12464,-4104,-4768,-21893,4894,-5513,2025-02-17 11:21:25,0.0
-13192,-3612,-4332,-20993,4042,-4473,2025-02-17 11:21:25,0.0
-13452,-2808,-4692,-20040,1908,-3738,2025-02-17 11:21:25,0.0
-13480,-1432,-5300,-19240,-838,-3469,2025-02-17 11:21:25,0.0
-12896,-868,-4848,-18018,-2249,-3708,2025-02-17 11:21:25,0.0
-12220,-600,-4500,-16560,-1795,-4106,2025-02-17 11:21:26,0.0
-11504,-592,-4568,-15510,-346,-4478,2025-02-17 11:21:26,0.0
-11368,-644,-4700,-14639,1607,-4943,2025-02-17 11:21:26,0.0
-11432,-660,-4728,-13914,2809,-5549,2025-02-17 11:21:26,0.0
-12612,-508,-4144,-13468,2112,-5844,2025-02-17 11:21:26,0.0
-13496,-788,-4164,-12964,1034,-6085,2025-02-17 11:21:26,0.0
-14716,-1888,-3720,-12325,718,-5713,2025-02-17 11:21:26,0.0
-15420,-1996,-3400,-11847,547,-4821,2025-02-17 11:21:26,0.0
-15456,-1204,-3888,-12028,-350,-4081,2025-02-17 11:21:26,0.0
-15680,-1028,-3680,-12074,-2027,-3351,2025-02-17 11:21:26,0.0
-15356,-1224,-3484,-11654,-4022,-2380,2025-02-17 11:21:26,0.0
-13504,-676,-4220,-11443,-5174,-1879,2025-02-17 11:21:26,0.0
-10228,596,-5488,-12131,-5773,-2634,2025-02-17 11:21:26,0.0
-8316,1108,-4912,-12267,-5534,-4060,2025-02-17 11:21:26,0.0
-8552,1012,-4500,-11974,-3875,-5840,2025-02-17 11:21:26,0.0
-9604,-308,-5208,-12393,-1840,-6417,2025-02-17 11:21:26,0.0
-9932,-1312,-3988,-11941,-205,-6961,2025-02-17 11:21:26,0.0
-11360,-1532,-4028,-11155,1228,-6963,2025-02-17 11:21:26,0.0
-11160,-984,-5636,-11100,2501,-6896,2025-02-17 11:21:26,0.0
-11280,-348,-5768,-11156,2808,-6897,2025-02-17 11:21:26,0.0
-12060,-8,-5236,-10365,2842,-6618,2025-02-17 11:21:26,0.0
-13480,-960,-6156,-9249,2715,-5715,2025-02-17 11:21:26,
-14280,-1588,-6172,-8456,3003,-4642,2025-02-17 11:21:26,0.0
-14424,-2248,-5032,-8344,3205,-3978,2025-02-17 11:21:26,0.0
-14320,-2872,-5804,-8245,4262,-3694,2025-02-17 11:21:26,0.0
-13684,-4048,-5224,-8500,4363,-3961,2025-02-17 11:21:26,0.0
-13832,-2664,-4700,-8281,960,-3504,2025-02-17 11:21:26,0.0
-13020,-2144,-4040,-7809,-3997,-2950,2025-02-17 11:21:26,0.0
-12864,-2904,-2572,-7056,-7609,-2567,2025-02-17 11:21:26,0.0
-12572,-3176,-2120,-6388,-8360,-2367,2025-02-17 11:21:26,0.0
-12500,-2816,-4044,-5914,-6569,-2173,2025-02-17 11:21:26,0.0
-11924,-1936,-5344,-5765,-2134,-2015,2025-02-17 11:21:26,0.0
-11412,-548,-5508,-4881,3400,-2235,2025-02-17 11:21:26,0.0
-11104,-320,-4768,-4521,4678,-2790,2025-02-17 11:21:26,0.0
-11860,-1304,-4136,-3698,3863,-3515,2025-02-17 11:21:26,0.0
-12584,-1896,-3352,-3193,2634,-3483,2025-02-17 11:21:26,0.0
-12704,-2524,-3976,-2828,1890,-3661,2025-02-17 11:21:26,0.0
-13120,-2656,-5108,-2783,1223,-4094,2025-02-17 11:21:26,0.0
-13540,-2784,-5244,-2757,336,-4629,2025-02-17 11:21:26,0.0
-13852,-2152,-5096,-2556,-560,-4722,2025-02-17 11:21:26,0.0
-13208,-2140,-4848,-2815,-395,-4693,2025-02-17 11:21:26,0.0
-12704,-3144,-4184,-2508,173,-4570,2025-02-17 11:21:26,0.0
-12772,-3740,-4376,-1994,801,-4114,2025-02-17 11:21:26,0.0
-12644,-3936,-5636,-1934,1279,-3552,2025-02-17 11:21:26,0.0
-12640,-3780,-5548,-2174,1318,-3554,2025-02-17 11:21:26,0.0
-13056,-3752,-4900,-2223,523,-3503,2025-02-17 11:21:26,0.0
-12904,-3768,-4764,-2045,-1160,-3189,2025-02-17 11:21:26,0.0
-12120,-4244,-4552,-2007,-2239,-3016,2025-02-17 11:21:26,0.0
-10988,-3976,-3808,-1719,-2391,-2678,2025-02-17 11:21:26,0.0
-10508,-3584,-4236,-1751,-1465,-2710,2025-02-17 11:21:26,0.0
-10236,-3468,-4044,-1768,-137,-2877,2025-02-17 11:21:26,0.0
-11176,-2824,-3488,-1361,1388,-2726,2025-02-17 11:21:26,0.0
-11724,-2872,-3428,-853,2159,-2530,2025-02-17 11:21:26,0.0
-12148,-2976,-2784,-198,2311,-2302,2025-02-17 11:21:26,0.0
-12576,-3260,-3128,659,2260,-2101,2025-02-17 11:21:26,0.0
-13000,-3520,-3708,1064,1799,-1503,2025-02-17 11:21:27,0.0
-12596,-3784,-3640,1299,1209,-798,2025-02-17 11:21:27,0.0
-13764,-3568,-3716,1330,578,-23,2025-02-17 11:21:27,0.0
-13432,-3120,-3604,1185,243,940,2025-02-17 11:21:27,0.0
-13004,-2412,-3532,718,227,1156,2025-02-17 11:21:27,0.0
-12964,-2324,-3064,637,211,1099,2025-02-17 11:21:27,0.0
-12828,-2380,-3268,762,-409,938,2025-02-17 11:21:27,0.0
-12444,-2396,-3320,409,-1289,429,2025-02-17 11:21:27,0.0
-12296,-2580,-3352,290,-1788,-34,2025-02-17 11:21:27,0.0
-12072,-2940,-3968,-796,-1840,-909,2025-02-17 11:21:27,0.0
-12276,-3332,-3740,-1477,-1130,-789,2025-02-17 11:21:27,0.0
-12504,-3452,-3692,-1997,-122,-371,2025-02-17 11:21:27,0.0
-12528,-3384,-3604,-2452,636,-86,2025-02-17 11:21:27,0.0
-12956,-3172,-3008,-2611,1497,-37,2025-02-17 11:21:27,0.0
-13408,-3104,-3336,-2980,1711,-27,2025-02-17 11:21:27,0.0
-14060,-3548,-3164,-3477,860,-61,2025-02-17 11:21:27,0.0
-14300,-3892,-2224,-3709,-409,83,2025-02-17 11:21:27,0.0
-14248,-4788,-2936,-3989,-979,216,2025-02-17 11:21:27,0.0
-13860,-5516,-6236,-4584,523,67,2025-02-17 11:21:27,0.0
-13820,-5284,-6100,-4480,4383,-669,2025-02-17 11:21:27,0.0
-14908,-5392,-6564,-4156,7128,-1148,2025-02-17 11:21:27,0.0
-16196,-5028,-6820,-5381,6070,-493,2025-02-17 11:21:27,0.0
-14984,-5388,-7524,-4109,3740,-623,2025-02-17 11:21:27,0.0
-16140,-5240,-7840,-3058,2158,41,2025-02-17 11:21:27,0.0
-14944,-4628,-8696,-2977,1744,103,2025-02-17 11:21:27,0.0
-13832,-3684,-8108,-3069,746,263,2025-02-17 11:21:27,0.0
-12796,-4036,-7504,-3433,-1352,1010,2025-02-17 11:21:27,0.0
-11116,-3780,-7812,-3730,-3435,2397,2025-02-17 11:21:27,0.0
-9944,-2328,-8628,-3984,-4574,3903,2025-02-17 11:21:27,0.0
-9088,-228,-7592,-3704,-4340,5151,2025-02-17 11:21:27,0.0
-8872,1644,-6760,-2989,-2830,5573,2025-02-17 11:21:27,0.0
-8772,2836,-6012,-2231,-1103,5356,2025-02-17 11:21:27,0.0
-9280,2440,-6624,-1613,1315,4689,2025-02-17 11:21:27,0.0
-9656,1500,-7336,-709,4414,4619,2025-02-17 11:21:27,0.0
-9464,448,-7756,-888,7096,3358,2025-02-17 11:21:27,0.0
-11092,-528,-7844,-942,8544,2633,2025-02-17 11:21:27,0.0
-12700,-904,-8304,-1715,8664,2696,2025-02-17 11:21:27,0.0
-12540,-784,-8440,-2615,7492,1439,2025-02-17 11:21:27,0.0
-12864,-768,-8720,-2573,3510,1705,2025-02-17 11:21:27,0.0
-12416,60,-8740,-2102,-2353,1852,2025-02-17 11:21:27,0.0
-11988,520,-8420,-1787,-8923,2007,2025-02-17 11:21:27,0.0
-11912,944,-3432,-1265,-12355,2178,2025-02-17 11:21:27,0.0
-9912,1128,-4332,-740,-6257,1973,2025-02-17 11:21:27,0.0
-8452,668,-4360,-505,-2956,1693,2025-02-17 11:21:27,0.0
-7896,844,-4192,-602,-1861,810,2025-02-17 11:21:27,0.0
-8500,744,-5032,-1040,-1498,-26,2025-02-17 11:21:27,0.0
-9648,1632,-2100,-575,-491,443,2025-02-17 11:21:27,0.0
-9468,796,-4156,1918,800,891,2025-02-17 11:21:27,0.0
-10068,1704,-4120,2521,1271,1076,2025-02-17 11:21:27,0.0
-10852,1112,-4036,2911,1100,637,2025-02-17 11:21:27,0.0
-11416,536,-4512,3260,222,275,2025-02-17 11:21:27,0.0
-12112,56,-4996,3351,-605,40,2025-02-17 11:21:27,0.0
-12236,-52,-4888,3033,-900,-103,2025-02-17 11:21:27,0.0
-12632,260,-5000,2185,-891,-383,2025-02-17 11:21:27,0.0
-12584,604,-5172,1842,-955,-615,2025-02-17 11:21:27,0.0
-13000,92,-5456,1628,-1810,-721,2025-02-17 11:21:27,0.0
-14044,-672,-5324,1433,-3406,-708,2025-02-17 11:21:27,0.0
-13892,128,-5768,1374,-4744,-330,2025-02-17 11:21:27,0.0
-13212,916,-5724,1393,-4528,-553,2025-02-17 11:21:27,0.0
-13208,-360,-4556,1526,-3360,-977,2025-02-17 11:21:27,0.0
-14536,-2188,-3980,2772,-3793,-326,2025-02-17 11:21:27,0.0
-16032,-1664,-4660,4144,-3652,2906,2025-02-17 11:21:27,0.0
-14196,68,-7484,4767,-1289,4034,2025-02-17 11:21:27,0.0
-14420,2080,-10132,4226,1088,3893,2025-02-17 11:21:28,0.0
-14192,2292,-12180,3527,3595,3356,2025-02-17 11:21:28,0.0
-14132,3028,-9340,3644,4652,2236,2025-02-17 11:21:28,0.0
-13052,3360,-7820,4188,2245,-2,2025-02-17 11:21:28,
-12596,2124,-7036,4615,-991,-2454,2025-02-17 11:21:28,0.0
-11688,596,-7144,5166,-3485,-3525,2025-02-17 11:21:28,0.0
-11300,-960,-7172,5192,-5232,-3476,2025-02-17 11:21:28,0.0
-10084,-1984,-6288,4964,-5638,-2160,2025-02-17 11:21:28,0.0
-9188,-2936,-6276,4370,-5404,-994,2025-02-17 11:21:28,0.0
-9316,-3112,-6276,2902,-4447,170,2025-02-17 11:21:28,0.0
-9944,-3640,-5572,2202,-2387,456,2025-02-17 11:21:28,0.0
-10240,-3236,-5616,2011,1798,-3,2025-02-17 11:21:28,0.0
-10624,-1196,-5432,1589,5466,-420,2025-02-17 11:21:28,0.0
-12188,-924,-4456,1573,6965,-122,2025-02-17 11:21:28,0.0
-12220,-1280,-5524,1824,6504,770,2025-02-17 11:21:28,0.0
-12476,-1552,-5676,2348,4872,517,2025-02-17 11:21:28,0.0
-12540,-1300,-5960,2500,2340,-438,2025-02-17 11:21:28,0.0
-13176,-1308,-6248,2434,-309,-923,2025-02-17 11:21:28,0.0
-12940,-1628,-5832,2464,-2806,-727,2025-02-17 11:21:28,0.0
-12080,-1964,-5140,2477,-4482,-339,2025-02-17 11:21:28,0.0
-10932,-2044,-4892,2559,-5166,95,2025-02-17 11:21:28,0.0
-9612,-2068,-4772,2394,-4319,485,2025-02-17 11:21:28,0.0
-9320,-2172,-4648,2196,-2052,786,2025-02-17 11:21:28,0.0
-9300,-2196,-5116,1574,1095,862,2025-02-17 11:21:28,0.0
-9784,-2072,-5384,896,3890,583,2025-02-17 11:21:28,0.0
-11716,-1888,-5452,191,5259,607,2025-02-17 11:21:28,0.0
-12676,-1736,-4656,-32,4760,702,2025-02-17 11:21:28,0.0
-13520,-1436,-4040,386,3633,829,2025-02-17 11:21:28,0.0
-13460,-1356,-4436,559,2484,642,2025-02-17 11:21:28,0.0
-13660,-1464,-3940,435,1281,240,2025-02-17 11:21:28,0.0
-13328,-1744,-3704,405,496,-28,2025-02-17 11:21:28,0.0
-13088,-1736,-4000,543,-326,357,2025-02-17 11:21:28,0.0
-12688,-1984,-4232,527,-669,637,2025-02-17 11:21:28,0.0
-12920,-2088,-3716,359,-715,1140,2025-02-17 11:21:28,0.0
-12268,-2224,-2816,484,-1131,1519,2025-02-17 11:21:28,0.0
-12592,-2028,-4100,486,-1232,2139,2025-02-17 11:21:28,0.0
-12388,-2512,-4680,163,-1209,2518,2025-02-17 11:21:28,0.0
-11528,-2308,-3096,297,-1298,2517,2025-02-17 11:21:28,0.0
-11968,-2796,-2680,570,-1126,2590,2025-02-17 11:21:28,0.0
-12224,-3304,-2120,1061,-1254,3253,2025-02-17 11:21:28,0.0
-12428,-3160,-2560,2141,-2231,3931,2025-02-17 11:21:28,0.0
-12024,-4096,-5528,3009,-2390,4206,2025-02-17 11:21:28,0.0
-12348,-4260,-10140,4002,1154,2581,2025-02-17 11:21:28,0.0
-13636,-1136,-14036,5636,10171,731,2025-02-17 11:21:28,0.0
-12008,-3048,-10992,5691,17130,-2713,2025-02-17 11:21:28,0.0
-16248,-5156,-8068,6287,11054,-2512,2025-02-17 11:21:28,0.0
-15912,-6040,-5480,7221,158,2431,2025-02-17 11:21:28,0.0
-14680,-4944,-6888,8429,-3238,5681,2025-02-17 11:21:28,0.0
-12068,-3120,-7100,8870,-2346,6526,2025-02-17 11:21:28,0.0
-12216,-948,-6672,9360,-2894,6531,2025-02-17 11:21:28,0.0
-11268,-1668,-6484,10539,-2820,6407,2025-02-17 11:21:28,0.0
-13484,-1464,-6352,13262,-588,7575,2025-02-17 11:21:28,0.0
-12640,-592,-7940,14561,2598,8124,2025-02-17 11:21:28,0.0
-11948,-1228,-7440,14752,1146,7836,2025-02-17 11:21:28,0.0
-11352,-2420,-5256,16464,-2350,6690,2025-02-17 11:21:28,0.0
-10780,-3336,-5124,19061,-4919,4935,2025-02-17 11:21:28,0.0
-13292,-3120,-7060,19599,-7724,3368,2025-02-17 11:21:28,0.0
-14008,-2424,-5504,19652,-11403,3370,2025-02-17 11:21:28,0.0
-12464,-2528,-6212,20064,-16005,2984,2025-02-17 11:21:28,0.0
-12416,-2424,-6556,19725,-18771,2120,2025-02-17 11:21:28,0.0
-11908,-2724,-6896,18963,-18509,1850,2025-02-17 11:21:28,0.0
-10876,-3696,-6556,18692,-13194,707,2025-02-17 11:21:28,0.0
-11124,-3540,-6504,17734,-2875,-1288,2025-02-17 11:21:28,0.0
-11116,-2168,-8040,16236,8336,-4558,2025-02-17 11:21:29,0.0
-11176,-632,-6304,14559,13277,-7080,2025-02-17 11:21:29,0.0
-11468,144,-6316,13263,12872,-8835,2025-02-17 11:21:29,0.0
-12076,-292,-4040,13235,9045,-9828,2025-02-17 11:21:29,0.0
-12532,-692,-5232,14920,2532,-9748,2025-02-17 11:21:29,0.0
-12560,-256,-6520,15774,-371,-9736,2025-02-17 11:21:29,0.0
-10436,-548,-5904,16608,-1479,-11045,2025-02-17 11:21:29,5
-11284,-616,-4632,16989,-1429,-12045,2025-02-17 11:21:29,5
-11180,-848,-3580,16655,-359,-12620,2025-02-17 11:21:29,5
-9880,-1016,-3204,15416,516,-12776,2025-02-17 11:21:29,5
-9620,-1188,-1720,15823,2573,-12497,2025-02-17 11:21:29,5
-11528,-1416,-2372,15738,7035,-11624,2025-02-17 11:21:29,5
-10728,-1192,-3164,15332,13098,-10373,2025-02-17 11:21:29,5
-8776,-1988,-5208,14099,17894,-10752,2025-02-17 11:21:29,5
-7528,-2372,-6740,12278,21854,-12660,2025-02-17 11:21:29,5
-8036,-2076,-6104,12041,26601,-14907,2025-02-17 11:21:29,5
-6876,-684,-6924,12627,32767,-17012,2025-02-17 11:21:29,5
-5168,-1112,-7428,13358,32767,-17754,2025-02-17 11:21:29,5
-2144,-2384,-7592,13094,32767,-17272,2025-02-17 11:21:29,5
-80,-3264,-5452,11004,32767,-14853,2025-02-17 11:21:29,5
3632,-2980,776,10495,32767,-14371,2025-02-17 11:21:29,5
840,-1196,2312,12331,32767,-11736,2025-02-17 11:21:29,5
1844,-324,2376,13454,32767,-8428,2025-02-17 11:21:29,5
1720,-564,1984,13934,32767,-6831,2025-02-17 11:21:29,5
2036,-640,1936,14141,32767,-5136,2025-02-17 11:21:29,5
2160,-620,2004,14214,32767,-4112,2025-02-17 11:21:29,5
2524,-540,1648,14068,32767,-3114,2025-02-17 11:21:29,5
2384,-540,1868,13991,32767,-2146,2025-02-17 11:21:29,5
2404,-640,1904,13970,32767,-1196,2025-02-17 11:21:29,5
2436,-612,2224,13904,32767,-289,2025-02-17 11:21:29,5
2320,-580,2124,13858,32767,700,2025-02-17 11:21:29,5
2156,-604,2056,13662,32767,1874,2025-02-17 11:21:29,5
1592,-556,2260,13429,32767,3293,2025-02-17 11:21:29,5
1044,-636,2708,13244,32767,5361,2025-02-17 11:21:29,5
140,-776,3404,13290,32767,7875,2025-02-17 11:21:29,5
-472,-1028,3176,13120,32767,10903,2025-02-17 11:21:29,5
56,-1552,2180,12041,32767,13703,2025-02-17 11:21:29,5
-2964,-1412,600,9830,32767,16709,2025-02-17 11:21:29,5
-4468,-1484,3220,7846,32767,21097,2025-02-17 11:21:29,5
-10504,-3104,2132,5850,32767,30521,2025-02-17 11:21:29,5
-21404,-11744,-4936,-1439,32767,32767,2025-02-17 11:21:29,5
-32768,-32768,-21640,-22978,32767,32767,2025-02-17 11:21:29,5
-10428,-32768,-32768,-32768,12106,32767,2025-02-17 11:21:29,5
-32768,-32768,-7060,-32768,32767,32767,2025-02-17 11:21:29,5
-30344,20952,21284,-32768,32767,32767,2025-02-17 11:21:29,5
6868,32767,-21788,21188,32767,8627,2025-02-17 11:21:29,5
32767,456,29664,20794,-32768,-28035,2025-02-17 11:21:29,5
-19200,10772,32767,12026,32767,-25115,2025-02-17 11:21:29,5
-10756,1108,-16944,3415,25707,-11452,2025-02-17 11:21:29,5
5384,-4028,-5364,-1817,10801,-3785,2025-02-17 11:21:29,5
9488,-8604,-4664,-1809,4557,-3508,2025-02-17 11:21:29,5
1564,-8412,-12832,-1927,409,-390,2025-02-17 11:21:29,5
2340,-4664,-18000,-2632,-598,1574,2025-02-17 11:21:29,5
-360,-3848,-16124,-175,67,-190,2025-02-17 11:21:29,5
2992,-5152,-14468,186,892,-240,2025-02-17 11:21:29,5
2464,-4696,-12960,-418,-342,-170,2025-02-17 11:21:29,5
1580,-4232,-15580,-290,898,-194,2025-02-17 11:21:29,5
2556,-4792,-14848,29,-132,-134,2025-02-17 11:21:29,5
1480,-5056,-14700,-314,62,-89,2025-02-17 11:21:29,5
1836,-4384,-14408,-167,514,-260,2025-02-17 11:21:29,5
2180,-4756,-14612,-191,179,-168,2025-02-17 11:21:29,5
1868,-4740,-14724,-174,109,-120,2025-02-17 11:21:29,5
1784,-4744,-14280,-186,227,-175,2025-02-17 11:21:30,5
2036,-4784,-14580,-195,235,-165,2025-02-17 11:21:30,5
1948,-4756,-14248,-104,277,-182,2025-02-17 11:21:30,5
1992,-4508,-14964,-379,140,-169,2025-02-17 11:21:30,5
1900,-5100,-14444,-129,244,-206,2025-02-17 11:21:30,5
2012,-4116,-14200,-194,288,-165,2025-02-17 11:21:30,5
1864,-5024,-14744,-126,20,-199,2025-02-17 11:21:30,5
1740,-4772,-14456,-228,95,-179,2025-02-17 11:21:30,5
2152,-4540,-14528,-196,-15,-201,2025-02-17 11:21:30,5
1904,-4764,-14632,-153,1,-198,2025-02-17 11:21:30,5
1780,-4684,-14576,-190,88,-141,2025-02-17 11:21:30,5
1740,-4696,-14512,-182,203,-156,2025-02-17 11:21:30,5
2012,-4688,-14440,-120,196,-198,2025-02-17 11:21:30,5
1896,-4652,-14556,-176,155,-186,2025-02-17 11:21:30,5
1800,-4708,-14680,-167,175,-161,2025-02-17 11:21:30,5
1972,-4688,-14524,-155,188,-181,2025-02-17 11:21:30,5
1956,-4668,-14456,-162,159,-147,2025-02-17 11:21:30,5
1896,-4696,-14488,-165,178,-171,2025-02-17 11:21:30,5
1892,-4672,-14608,-154,177,-177,2025-02-17 11:21:30,5
1912,-4680,-14500,-183,209,-174,2025-02-17 11:21:30,5
1896,-4632,-14552,-159,178,-194,2025-02-17 11:21:30,5
1924,-4696,-14592,-143,177,-177,2025-02-17 11:21:30,5
1920,-4828,-14632,-167,181,-160,2025-02-17 11:21:30,5
1976,-4652,-14496,-159,182,-180,2025-02-17 11:21:30,5
1944,-4684,-14508,-178,188,-155,2025-02-17 11:21:30,5
1856,-4600,-14488,-179,165,-153,2025-02-17 11:21:30,5
1964,-4760,-14536,-146,160,-165,2025-02-17 11:21:30,5
1828,-4656,-14612,-176,186,-171,2025-02-17 11:21:30,5
1876,-4720,-14436,-193,194,-175,2025-02-17 11:21:30,5
1948,-4744,-14500,-155,187,-179,2025-02-17 11:21:30,5
1896,-4724,-14640,-187,180,-185,2025-02-17 11:21:30,5
1936,-4632,-14536,-153,190,-159,2025-02-17 11:21:30,5
1980,-4700,-14512,-174,197,-197,2025-02-17 11:21:30,5
1936,-4684,-14576,-144,198,-179,2025-02-17 11:21:30,5
1932,-4620,-14544,-139,172,-162,2025-02-17 11:21:30,5
1932,-4684,-14536,-154,181,-156,2025-02-17 11:21:30,5
1896,-4652,-14536,-178,154,-162,2025-02-17 11:21:30,5
1768,-4684,-14516,-143,199,-196,2025-02-17 11:21:30,5
1976,-4692,-14492,-181,166,-187,2025-02-17 11:21:30,5
1876,-4628,-14532,-174,180,-156,2025-02-17 11:21:30,0.0
1952,-4684,-14468,-195,182,-177,2025-02-17 11:21:30,0.0
1936,-4700,-14556,-176,188,-166,2025-02-17 11:21:30,0.0
1872,-4752,-14564,-167,198,-173,2025-02-17 11:21:30,0.0
1944,-4684,-14588,-194,174,-191,2025-02-17 11:21:30,0.0
1940,-4692,-14488,-169,178,-183,2025-02-17 11:21:30,0.0
1852,-4748,-14584,-169,183,-181,2025-02-17 11:21:30,0.0
1840,-4664,-14548,-179,186,-171,2025-02-17 11:21:30,0.0
1964,-4612,-14572,-169,204,-182,2025-02-17 11:21:30,0.0
1944,-4748,-14608,-166,203,-192,2025-02-17 11:21:30,0.0
1856,-4644,-14524,-143,185,-180,2025-02-17 11:21:30,0.0
1832,-4708,-14660,-187,178,-181,2025-02-17 11:21:30,0.0
1916,-4676,-14600,-165,182,-163,2025-02-17 11:21:30,0.0
1984,-4568,-14628,-164,157,-183,2025-02-17 11:21:30,0.0
1856,-4688,-14496,-172,180,-173,2025-02-17 11:21:30,0.0
1880,-4704,-14600,-157,186,-177,2025-02-17 11:21:30,0.0
1916,-4636,-14476,-122,169,-175,2025-02-17 11:21:30,0.0
1888,-4708,-14476,-154,167,-166,2025-02-17 11:21:30,0.0
1960,-4712,-14588,-162,176,-176,2025-02-17 11:21:30,0.0
1920,-4636,-14440,-178,185,-179,2025-02-17 11:21:30,0.0
1956,-4692,-14524,-133,171,-168,2025-02-17 11:21:30,0.0
1904,-4620,-14432,-142,163,-182,2025-02-17 11:21:30,0.0
1912,-4644,-14560,-179,174,-148,2025-02-17 11:21:30,0.0
1828,-4700,-14540,-183,184,-172,2025-02-17 11:21:31,0.0
2008,-4712,-14576,-161,154,-149,2025-02-17 11:21:31,0.0
1844,-4756,-14544,-160,211,-171,2025-02-17 11:21:31,0.0
1936,-4724,-14660,-174,186,-183,2025-02-17 11:21:31,0.0
1868,-4572,-14576,-178,168,-183,2025-02-17 11:21:31,0.0
1996,-4704,-14512,-157,163,-170,2025-02-17 11:21:31,0.0
1980,-4672,-14532,-181,173,-183,2025-02-17 11:21:31,0.0
1956,-4660,-14536,-155,191,-190,2025-02-17 11:21:31,0.0
1936,-4684,-14484,-182,194,-160,2025-02-17 11:21:31,0.0
2056,-4688,-14528,-161,167,-152,2025-02-17 11:21:31,0.0
1988,-4588,-14452,-159,167,-186,2025-02-17 11:21:31,0.0
2012,-4680,-14544,-135,176,-174,2025-02-17 11:21:31,0.0
1868,-4632,-14500,-170,185,-162,2025-02-17 11:21:31,0.0
1952,-4648,-14528,-167,173,-160,2025-02-17 11:21:31,0.0
1964,-4688,-14500,-173,176,-172,2025-02-17 11:21:31,0.0
1828,-4664,-14568,-168,165,-186,2025-02-17 11:21:31,0.0
2004,-4580,-14504,-156,171,-181,2025-02-17 11:21:31,
1904,-4636,-14588,-178,169,-159,2025-02-17 11:21:31,0.0
2004,-4716,-14636,-178,169,-176,2025-02-17 11:21:31,0.0
1904,-4680,-14504,-156,152,-173,2025-02-17 11:21:31,0.0
1852,-4708,-14480,-191,179,-194,2025-02-17 11:21:31,0.0
1976,-4668,-14508,-177,169,-165,2025-02-17 11:21:31,0.0
1796,-4664,-14336,-175,156,-163,2025-02-17 11:21:31,0.0
1916,-4620,-14524,-165,171,-147,2025-02-17 11:21:31,0.0
1916,-4604,-14548,-183,165,-193,2025-02-17 11:21:31,0.0
1960,-4660,-14640,-159,160,-149,2025-02-17 11:21:31,0.0
2036,-4700,-14232,-275,-96,-256,2025-02-17 11:21:31,0.0
2028,-4572,-15012,-119,369,-197,2025-02-17 11:21:31,0.0
1800,-4880,-14652,-161,43,-163,2025-02-17 11:21:31,0.0
1860,-4560,-14304,-198,228,-191,2025-02-17 11:21:31,0.0
2008,-4720,-14476,-143,83,-179,2025-02-17 11:21:31,0.0
1856,-4444,-14176,45,66,-144,2025-02-17 11:21:31,0.0
2184,-4452,-14164,157,-46,-169,2025-02-17 11:21:31,0.0
2404,-3952,-13284,630,-645,-290,2025-02-17 11:21:31,0.0
1940,-4068,-13460,1437,-1057,-324,2025-02-17 11:21:31,0.0
1540,-5432,-16068,785,-584,-212,2025-02-17 11:21:31,0.0
1160,-6440,-16140,-351,413,58,2025-02-17 11:21:31,0.0
1540,-4916,-15464,-477,303,-75,2025-02-17 11:21:31,0.0
740,-5036,-14192,-740,1085,118,2025-02-17 11:21:31,0.0
1156,-4672,-13968,-595,1989,325,2025-02-17 11:21:31,0.0
1196,-4536,-14128,-835,3664,638,2025-02-17 11:21:31,0.0
540,-5020,-18060,-1674,5006,731,2025-02-17 11:21:31,0.0
2576,-4976,-11852,-2623,8583,1666,2025-02-17 11:21:31,0.0
6876,-3684,-13028,-1065,2870,-1125,2025-02-17 11:21:31,0.0
2000,-5344,-15940,-1324,19,533,2025-02-17 11:21:31,0.0
1316,-5544,-15452,-1966,2463,386,2025-02-17 11:21:31,0.0
2096,-4288,-14136,-2149,3463,769,2025-02-17 11:21:31,0.0
3404,-3776,-12928,-1556,3010,423,2025-02-17 11:21:31,0.0
4908,-3672,-12868,-391,595,-353,2025-02-17 11:21:31,0.0
3500,-4148,-13612,-310,-1151,-424,2025-02-17 11:21:31,0.0
1600,-5840,-17520,-1106,1395,70,2025-02-17 11:21:31,0.0
2232,-5244,-16152,-1906,2604,128,2025-02-17 11:21:31,0.0
908,-4856,-19120,-3944,3588,962,2025-02-17 11:21:31,0.0
420,-4056,-17928,-5716,5677,1869,2025-02-17 11:21:31,0.0
3456,-2356,-15088,-5453,3271,2016,2025-02-17 11:21:31,0.0
3944,-2852,-16572,-5774,-871,2195,2025-02-17 11:21:31,0.0
2768,-3428,-16088,-7234,-1040,2413,2025-02-17 11:21:31,0.0
1916,-3424,-15372,-8189,127,2719,2025-02-17 11:21:32,0.0
3256,-2784,-15928,-9808,-2548,2078,2025-02-17 11:21:32,0.0
4484,-2340,-18664,-12006,-6884,1071,2025-02-17 11:21:32,0.0
3064,-1724,-18900,-14945,-10212,1249,2025-02-17 11:21:32,0.0
2596,-1996,-18080,-16978,-11007,1323,2025-02-17 11:21:32,0.0
2584,-2036,-16168,-17317,-9718,879,2025-02-17 11:21:32,0.0
812,-1656,-13476,-16333,-7177,567,2025-02-17 11:21:32,0.0
280,-1548,-13996,-15738,-5052,1196,2025-02-17 11:21:32,0.0
3684,-544,-14508,-16400,-3177,584,2025-02-17 11:21:32,0.0
4256,232,-15088,-15928,-1446,-1399,2025-02-17 11:21:32,0.0
3264,584,-18020,-17148,-561,-2284,2025-02-17 11:21:32,0.0
2320,1312,-18484,-19492,-587,-2867,2025-02-17 11:21:32,0.0
1512,2296,-22948,-24193,1106,-3468,2025-02-17 11:21:32,0.0
400,4036,-21796,-29458,3569,-3636,2025-02-17 11:21:32,0.0
556,5224,-19152,-32755,5136,-4145,2025-02-17 11:21:32,0.0
-604,6156,-14960,-32768,6697,-3867,2025-02-17 11:21:32,0.0
-856,5980,-13080,-32768,7290,-2797,2025-02-17 11:21:32,0.0
-1820,4836,-11408,-32768,7620,-1907,2025-02-17 11:21:32,0.0
-1724,5452,-6912,-32768,7355,-791,2025-02-17 11:21:32,0.0
-132,6800,-3384,-32768,4434,369,2025-02-17 11:21:32,0.0
-768,9812,-1044,-32768,2229,167,2025-02-17 11:21:32,0.0
1736,11400,-2940,-32768,-3367,670,2025-02-17 11:21:32,0.0
3820,12476,-5652,-32768,-11962,399,2025-02-17 11:21:32,0.0
4156,15172,-2484,-29657,-24319,2317,2025-02-17 11:21:32,0.0
2628,16668,-3108,-27947,-32728,3783,2025-02-17 11:21:32,0.0
-636,17284,-4024,-27340,-32768,7922,2025-02-17 11:21:32,0.0
-1568,16748,-2620,-28338,-32768,12810,2025-02-17 11:21:32,0.0
692,17516,-2772,-28488,-32768,16987,2025-02-17 11:21:32,0.0
2412,18636,1716,-26244,-32768,19417,2025-02-17 11:21:32,0.0
4684,18876,4788,-22212,-32768,19104,2025-02-17 11:21:32,0.0
4352,20108,9112,-13864,-32768,15754,2025-02-17 11:21:32,0.0
3656,19512,4860,565,-32768,7513,2025-02-17 11:21:32,0.0
-208,18740,-1460,8497,-28062,291,2025-02-17 11:21:32,0.0
-2416,18032,-7944,9477,-13411,-4388,2025-02-17 11:21:32,0.0
-3544,17860,-10872,5741,-442,-6331,2025-02-17 11:21:32,0.0
-1404,16920,-7664,-1061,5211,-5014,2025-02-17 11:21:32,0.0
332,16060,-2680,-5009,7116,-4068,2025-02-17 11:21:32,0.0
516,17648,8892,-1781,7028,-2255,2025-02-17 11:21:32,0.0
1888,19684,15316,9126,6161,-1334,2025-02-17 11:21:32,0.0
2376,20876,12060,21652,4775,-739,2025-02-17 11:21:32,0.0
1932,21456,2792,25898,3091,-196,2025-02-17 11:21:32,0.0
1984,21612,-8892,21518,723,321,2025-02-17 11:21:32,0.0
1504,21264,-14452,9904,-2292,1033,2025-02-17 11:21:32,0.0
380,20956,-8612,-1401,-5170,2530,2025-02-17 11:21:32,0.0
788,21460,956,-4740,-7461,4466,2025-02-17 11:21:32,0.0
2868,22388,5556,-1530,-9489,4774,2025-02-17 11:21:32,0.0
5216,22128,3296,1154,-11716,3047,2025-02-17 11:21:32,0.0
4756,20428,-1156,1141,-13868,579,2025-02-17 11:21:32,0.0
800,18180,-5564,-4220,-16228,895,2025-02-17 11:21:32,0.0
-960,17096,-5548,-9845,-17019,4105,2025-02-17 11:21:32,0.0
24,16000,-3828,-14140,-17804,7506,2025-02-17 11:21:32,0.0
3420,15564,-1156,-16343,-17651,8164,2025-02-17 11:21:32,0.0
5260,14620,1840,-16330,-17482,6600,2025-02-17 11:21:32,0.0
6240,12364,2856,-15116,-17738,4396,2025-02-17 11:21:32,0.0
5456,14284,4060,-13253,-17117,1482,2025-02-17 11:21:32,0.0
1980,16412,6492,-9162,-15527,765,2025-02-17 11:21:32,0.0
-84,17240,7620,-3424,-13069,2353,2025-02-17 11:21:32,0.0
364,16816,4348,1164,-10979,3703,2025-02-17 11:21:32,0.0
68,16992,-272,2387,-7914,3389,2025-02-17 11:21:32,0.0
-1452,18232,-3100,350,-4558,2712,2025-02-17 11:21:32,
-3508,20224,-4984,-4133,-2829,5601,2025-02-17 11:21:32,0.0
-1092,21132,-2408,-8172,-2862,9823,2025-02-17 11:21:32,0.0
3244,20720,1604,-8535,-3070,9657,2025-02-17 11:21:32,0.0
5412,19792,5112,-6089,-3455,7231,2025-02-17 11:21:32,0.0
5860,18432,7124,-287,-4474,3466,2025-02-17 11:21:32,0.0
5020,15948,6404,5601,-5280,267,2025-02-17 11:21:33,0.0
2888,13748,3848,9619,-5820,-1711,2025-02-17 11:21:33,0.0
904,12388,400,11396,-6949,-1446,2025-02-17 11:21:33,0.0
580,11776,-3472,9724,-8143,-124,2025-02-17 11:21:33,0.0
1300,11244,-6036,4634,-9232,1176,2025-02-17 11:21:33,0.0
2644,10892,-5324,-1162,-10542,1754,2025-02-17 11:21:33,0.0
4184,11016,-2936,-5527,-11887,1229,2025-02-17 11:21:33,0.0
5572,11396,-156,-7328,-12685,-234,2025-02-17 11:21:33,0.0
5944,11616,2192,-7008,-12933,-2548,2025-02-17 11:21:33,0.0
5232,11552,3140,-5454,-12542,-4624,2025-02-17 11:21:33,0.0
3436,11236,1828,-4168,-11185,-5818,2025-02-17 11:21:33,0.0
1128,11896,44,-4488,-8917,-5124,2025-02-17 11:21:33,0.0
-252,12456,-1776,-5983,-6097,-2947,2025-02-17 11:21:33,0.0
-152,12672,-2812,-8145,-3183,-237,2025-02-17 11:21:33,0.0
1480,12784,-3452,-10825,-541,1476,2025-02-17 11:21:33,0.0
3820,12848,-1348,-13834,2718,987,2025-02-17 11:21:33,0.0
4032,12816,1372,-13202,6208,-1603,2025-02-17 11:21:33,0.0
5228,12008,1804,-11014,11833,-5412,2025-02-17 11:21:33,0.0
684,11604,296,-10518,20664,-10068,2025-02-17 11:21:33,0.0
-12700,12352,3736,-10219,25084,-5357,2025-02-17 11:21:33,0.0
-2100,10572,-4288,-11170,17094,10292,2025-02-17 11:21:33,0.0
5580,9836,-2388,-19069,15630,11375,2025-02-17 11:21:33,0.0
8592,9852,912,-24089,9059,9294,2025-02-17 11:21:33,0.0
9332,9072,3064,-28495,6679,4057,2025-02-17 11:21:33,0.0
5684,10096,8068,-27906,8919,326,2025-02-17 11:21:33,0.0
776,9688,8508,-26636,13730,-702,2025-02-17 11:21:33,0.0
-560,9416,7572,-26599,18957,819,2025-02-17 11:21:33,0.0
-1736,9920,8356,-25486,25314,1963,2025-02-17 11:21:33,0.0
-2224,9740,8296,-24054,29200,2812,2025-02-17 11:21:33,0.0
-936,8684,7488,-22369,31372,1556,2025-02-17 11:21:33,0.0
76,7792,4376,-22203,32767,-906,2025-02-17 11:21:33,0.0
-748,6916,3028,-23196,32767,-3209,2025-02-17 11:21:33,0.0
-1880,6396,2320,-25904,32767,-5206,2025-02-17 11:21:33,0.0
-2220,6328,5568,-28282,32767,-7526,2025-02-17 11:21:33,0.0
-3312,5460,10464,-27234,32767,-10480,2025-02-17 11:21:33,0.0
-4312,4172,13744,-24663,32767,-11940,2025-02-17 11:21:33,0.0
-4588,3520,16056,-20259,32767,-14685,2025-02-17 11:21:33,0.0
-7316,3128,15316,-15328,32767,-17459,2025-02-17 11:21:33,0.0
-9616,3608,11696,-12142,32767,-17591,2025-02-17 11:21:33,0.0
-12252,3776,11432,-9953,32767,-16145,2025-02-17 11:21:33,0.0
-12044,4580,9176,-7777,32767,-14726,2025-02-17 11:21:33,0.0
-9264,4772,5280,-8322,32767,-16522,2025-02-17 11:21:33,0.0
-8812,5500,3964,-9861,32767,-20813,2025-02-17 11:21:33,0.0
-13148,6476,4596,-8545,32767,-21916,2025-02-17 11:21:33,0.0
-15988,5824,3424,-7561,32767,-19840,2025-02-17 11:21:33,0.0
-18080,5348,3036,-8179,31644,-17072,2025-02-17 11:21:33,0.0
-18628,4244,5520,-6548,27139,-13330,2025-02-17 11:21:33,0.0
-18068,2396,6568,-3443,24647,-10897,2025-02-17 11:21:33,0.0
-17992,32,5420,-1613,23016,-8582,2025-02-17 11:21:33,0.0
-16124,-1984,4328,-1961,20588,-8074,2025-02-17 11:21:33,0.0
-17544,-2352,5208,-1881,17243,-6757,2025-02-17 11:21:33,0.0
-19860,-1424,6160,-798,13201,-4178,2025-02-17 11:21:33,0.0
-19344,-28,5856,562,8466,-1127,2025-02-17 11:21:33,0.0
-16336,160,3332,1161,2968,326,2025-02-17 11:21:33,0.0
-16112,2152,20692,-10051,-4689,-3650,2025-02-17 11:21:33,0.0
-17044,-1308,17944,-4535,6047,-2575,2025-02-17 11:21:33,0.0
-16100,-2784,7336,4121,5951,-628,2025-02-17 11:21:33,0.0
-15792,-1620,-5736,6413,-810,2322,2025-02-17 11:21:33,0.0
-14028,1108,-9504,257,-5294,3157,2025-02-17 11:21:34,0.0
-11032,2820,-3836,-5090,-5730,1537,2025-02-17 11:21:34,0.0
-7632,-240,5948,-3969,-93,-2349,2025-02-17 11:21:34,0.0
-8188,-3080,7624,2846,5270,-5845,2025-02-17 11:21:34,0.0
-12936,-3260,1676,8481,6285,-5170,2025-02-17 11:21:34,0.0
-16228,-1540,-1512,8483,8848,-2801,2025-02-17 11:21:34,0.0
-16832,-180,-5196,4102,9127,-1077,2025-02-17 11:21:34,0.0
-14776,-1664,-144,3964,4507,-1741,2025-02-17 11:21:34,0.0
-17208,-2840,852,5279,-1502,-1352,2025-02-17 11:21:34,0.0
-17164,-3360,1728,6895,-4772,240,2025-02-17 11:21:34,0.0
-13908,-3776,2248,9228,-7022,479,2025-02-17 11:21:34,0.0
-13612,-3512,-84,11238,-8219,-126,2025-02-17 11:21:34,0.0
-14488,-2944,-3744,9219,-6042,796,2025-02-17 11:21:34,0.0
-7480,-3500,52,7687,-2577,-592,2025-02-17 11:21:34,0.0
-7492,-3308,-436,8979,-2173,-4663,2025-02-17 11:21:34,0.0
-13964,-2856,-1956,7129,1582,-4800,2025-02-17 11:21:34,0.0
-14476,-2268,-2172,5901,7629,-2259,2025-02-17 11:21:34,0.0
-10972,-3492,692,5963,8833,-3027,2025-02-17 11:21:34,0.0
-14768,-4372,1120,7609,8945,-1838,2025-02-17 11:21:34,0.0
-13360,-4736,2824,9518,7602,-374,2025-02-17 11:21:34,0.0
-13244,-4668,1608,11548,5936,-1724,2025-02-17 11:21:34,0.0
-15192,-3776,-1068,12071,5829,-861,2025-02-17 11:21:34,0.0
-12608,-3032,-1408,12122,4709,-1824,2025-02-17 11:21:34,0.0
-11996,-2836,-2312,11955,4489,-3470,2025-02-17 11:21:34,0.0
-11892,-2784,-1644,11557,5756,-5168,2025-02-17 11:21:34,0.0
-12796,-2336,-1460,11770,7613,-6150,2025-02-17 11:21:34,0.0
-13584,-2424,-1968,11324,8240,-6077,2025-02-17 11:21:34,0.0
-15892,-3532,900,12901,8279,-4581,2025-02-17 11:21:34,0.0
-17468,-4616,2200,14329,7996,-1378,2025-02-17 11:21:34,0.0
-17208,-6044,1556,16046,6048,1427,2025-02-17 11:21:34,0.0
-15480,-5656,-304,16758,2545,2985,2025-02-17 11:21:34,0.0
-13120,-4584,-3772,15464,-137,1737,2025-02-17 11:21:34,0.0
-11424,-5456,-6192,13026,2232,2091,2025-02-17 11:21:34,0.0
-14544,-4128,-176,14152,4710,4528,2025-02-17 11:21:34,0.0
-13372,-5148,-3824,13734,5263,5644,2025-02-17 11:21:34,0.0
-12924,-3208,-1352,15329,2836,5931,2025-02-17 11:21:34,0.0
-12540,-2664,-2860,14974,1890,5333,2025-02-17 11:21:34,
-10148,-2512,-3136,13758,1708,3637,2025-02-17 11:21:34,0.0
-12496,-3048,-3464,12619,3136,2512,2025-02-17 11:21:34,0.0
-13212,-3092,-1276,12563,4237,3166,2025-02-17 11:21:34,0.0
-12592,-3604,-1728,13014,2408,2844,2025-02-17 11:21:34,0.0
-11412,-2596,-1984,11733,1056,2308,2025-02-17 11:21:34,0.0
-12208,-3464,-2268,11553,622,2157,2025-02-17 11:21:34,0.0
-11216,-2844,-1640,11235,-422,919,2025-02-17 11:21:34,0.0
-11652,-2352,-1232,11006,-1048,-343,2025-02-17 11:21:34,0.0
-12064,-2408,-3628,9490,-200,-838,2025-02-17 11:21:34,0.0
-9980,-3908,-1584,7935,-544,-2989,2025-02-17 11:21:34,0.0
-13360,-4660,-660,7410,1383,-2750,2025-02-17 11:21:34,0.0
-17076,-4312,520,7484,4733,692,2025-02-17 11:21:34,0.0
-15300,-4440,824,7291,4089,2443,2025-02-17 11:21:34,0.0
-14736,-4860,1560,7183,2039,3841,2025-02-17 11:21:34,0.0
-11936,-5036,2440,8448,123,2768,2025-02-17 11:21:34,0.0
-11612,-5192,4936,9952,1095,1868,2025-02-17 11:21:34,0.0
-16972,-6380,-1880,11785,5990,4404,2025-02-17 11:21:34,0.0
-9364,-4380,-8436,7557,5650,2266,2025-02-17 11:21:34,0.0
-14292,-832,-6940,3784,6038,609,2025-02-17 11:21:34,0.0
-15896,-3472,-1956,3090,8370,1428,2025-02-17 11:21:34,0.0
-16544,-5376,868,3956,6372,2477,2025-02-17 11:21:34,0.0
-15840,-5604,720,5415,1542,3504,2025-02-17 11:21:34,0.0
-14716,-4324,100,6172,-1736,3926,2025-02-17 11:21:34,0.0
-12932,-3004,-2652,5774,-3957,3966,2025-02-17 11:21:34,0.0
-13492,-2224,-1044,5633,-3989,3892,2025-02-17 11:21:35,0.0
-14092,-1512,-2796,6173,-2005,4277,2025-02-17 11:21:35,0.0
-13236,-1972,-2272,7275,1074,4367,2025-02-17 11:21:35,0.0
-10084,-2180,-5572,6670,3857,1550,2025-02-17 11:21:35,0.0
-14192,-1440,-5468,4389,8740,1565,2025-02-17 11:21:35,0.0
-13580,-1648,-4404,3603,13146,2230,2025-02-17 11:21:35,0.0
-14024,-1508,-5112,2612,14526,2456,2025-02-17 11:21:35,0.0
-14024,-808,-5488,2239,13764,2748,2025-02-17 11:21:35,0.0
-16668,-964,-3076,2540,8904,2864,2025-02-17 11:21:35,0.0
-17272,-1240,-1580,3331,1383,3317,2025-02-17 11:21:35,0.0
-16100,-1072,-1832,4187,-5337,3720,2025-02-17 11:21:35,0.0
-13236,-1152,-2632,4740,-7708,3607,2025-02-17 11:21:35,0.0
-11896,-1268,-1516,5520,-6696,3367,2025-02-17 11:21:35,0.0
-11372,-1264,-3012,6620,-4371,3747,2025-02-17 11:21:35,0.0
-9596,-1460,-3528,6279,-1477,3861,2025-02-17 11:21:35,0.0
-11304,-2432,-2048,6444,822,4346,2025-02-17 11:21:35,0.0
-18276,-4428,-860,7262,1731,6886,2025-02-17 11:21:35,0.0
-11672,-1120,-372,8315,-2930,7556,2025-02-17 11:21:35,0.0
-11276,-1512,-4692,5942,-4761,6984,2025-02-17 11:21:35,0.0
-8008,-1548,-3532,4685,-5238,5063,2025-02-17 11:21:35,0.0
-10192,-512,-3508,3185,-3726,4185,2025-02-17 11:21:35,0.0
-11584,-920,-2952,1872,-190,4062,2025-02-17 11:21:35,0.0
-10812,-972,-4128,879,3220,2993,2025-02-17 11:21:35,0.0
-8340,380,-80,530,5051,1031,2025-02-17 11:21:35,0.0
-11320,2608,272,931,4889,107,2025-02-17 11:21:35,0.0
-13272,2540,980,2864,3732,978,2025-02-17 11:21:35,0.0
-12364,708,260,4740,1420,1134,2025-02-17 11:21:35,0.0
-12464,-1012,-4476,3326,1347,759,2025-02-17 11:21:35,0.0
-13352,924,-112,2805,2278,528,2025-02-17 11:21:35,0.0
-14872,2180,1444,4556,2989,1291,2025-02-17 11:21:35,0.0
-16172,1036,-932,6188,1714,2032,2025-02-17 11:21:35,0.0
-15932,324,-500,5672,-132,2256,2025-02-17 11:21:35,0.0
-15724,-1380,196,5896,-2036,2171,2025-02-17 11:21:35,0.0
-14768,-2176,-488,5858,-2845,2266,2025-02-17 11:21:35,0.0
-14712,-2412,-1492,5164,-2527,2578,2025-02-17 11:21:35,0.0
-14012,-1652,-876,4972,-2536,2522,2025-02-17 11:21:35,0.0
-13608,-780,-48,5201,-2569,2369,2025-02-17 11:21:35,0.0
-11496,924,-528,5449,-2382,2118,2025-02-17 11:21:35,0.0
-13236,1352,124,5605,-172,1860,2025-02-17 11:21:35,0.0
-15496,268,-828,7313,1997,2657,2025-02-17 11:21:35,0.0
-16936,68,-2444,8456,2791,3658,2025-02-17 11:21:35,0.0
-18752,244,-3928,8975,2415,5250,2025-02-17 11:21:35,0.0
-17636,168,-4824,8299,499,7281,2025-02-17 11:21:35,0.0
-16692,-680,-5192,6902,-535,8307,2025-02-17 11:21:35,0.0
-16332,-376,-5468,6367,1506,7423,2025-02-17 11:21:35,0.0
-13344,-132,-4584,6637,3880,6350,2025-02-17 11:21:35,0.0
-8988,1072,-7860,5832,4152,3764,2025-02-17 11:21:35,0.0
-8896,3004,-7508,2972,5047,1796,2025-02-17 11:21:35,0.0
-9516,2284,-6404,2734,3986,-10,2025-02-17 11:21:35,0.0
-10276,1600,-8480,2541,1630,-898,2025-02-17 11:21:35,0.0
-11808,1596,-7280,1806,-1237,-1499,2025-02-17 11:21:35,0.0
-13868,880,-2512,1952,-1002,-1736,2025-02-17 11:21:35,0.0
-12660,1816,-4376,1806,3465,-2147,2025-02-17 11:21:35,0.0
-13340,3268,-4148,1736,2912,-2804,2025-02-17 11:21:35,0.0
-13788,2260,-3772,1688,1961,-3371,2025-02-17 11:21:35,0.0
-14488,1416,-3000,2390,1069,-3634,2025-02-17 11:21:35,0.0
-13680,136,-3420,2850,-904,-3765,2025-02-17 11:21:35,0.0
-13228,-720,-3632,3717,-3493,-2803,2025-02-17 11:21:35,0.0
-12912,-1872,1888,7969,-5853,-925,2025-02-17 11:21:35,0.0
-11596,-1112,-8144,6284,-7822,-119,2025-02-17 11:21:36,0.0
-11292,-176,-7288,2791,-8528,-533,2025-02-17 11:21:36,0.0
-11304,-816,-5008,713,-7770,-543,2025-02-17 11:21:36,0.0
-10600,-1772,-3144,-550,-6341,-822,2025-02-17 11:21:36,0.0
-10564,-2300,-1900,-895,-4252,-886,2025-02-17 11:21:36,0.0
-10296,-2280,-1768,-621,-2118,-984,2025-02-17 11:21:36,0.0
-10804,-1828,-2580,-474,299,-679,2025-02-17 11:21:36,0.0
-11424,-1416,-2636,-596,2931,-208,2025-02-17 11:21:36,0.0
-11764,-856,-2740,-862,4936,-39,2025-02-17 11:21:36,0.0
-13468,-12,-1068,40,3603,-58,2025-02-17 11:21:36,0.0
-14152,220,-596,1175,733,366,2025-02-17 11:21:36,0.0
-14204,-128,-924,1697,-1803,582,2025-02-17 11:21:36,0.0
-13672,-216,104,2661,-3954,786,2025-02-17 11:21:36,0.0
-13156,-616,424,3613,-5687,786,2025-02-17 11:21:36,0.0
-12388,-960,-2116,4443,-6329,93,2025-02-17 11:21:36,0.0
-12624,-1156,-4348,3623,-4445,-170,2025-02-17 11:21:36,0.0
-12008,-1364,-5980,1780,-864,-459,2025-02-17 11:21:36,
-11648,-1072,-6024,-887,3879,-1058,2025-02-17 11:21:36,0.0
-12160,-872,-5108,-2921,7840,-1666,2025-02-17 11:21:36,0.0
-14252,-736,-3996,-4513,11604,-2081,2025-02-17 11:21:36,0.0
-14916,-704,-2420,-5608,13548,-2615,2025-02-17 11:21:36,0.0
-15556,-476,-2220,-6063,10963,-3816,2025-02-17 11:21:36,0.0
-17036,-912,-3144,-6433,6237,-4749,2025-02-17 11:21:36,0.0
-17132,-2096,-4832,-6596,735,-5161,2025-02-17 11:21:36,0.0
-17460,-3280,-6064,-7160,-4214,-4391,2025-02-17 11:21:36,0.0
-16500,-3308,-6540,-7690,-7587,-2645,2025-02-17 11:21:36,0.0
-14008,-2412,-6464,-7942,-7431,-1025,2025-02-17 11:21:36,0.0
-12388,-1456,-5164,-7851,-4643,-142,2025-02-17 11:21:36,0.0
-10456,-328,-4008,-7088,-1295,474,2025-02-17 11:21:36,0.0
-9196,-28,-2764,-5834,365,341,2025-02-17 11:21:36,0.0
-8684,856,-2404,-4430,831,-373,2025-02-17 11:21:36,0.0
-10192,1096,-2088,-2673,1876,-872,2025-02-17 11:21:36,0.0
-11808,780,-4804,-2145,4339,-494,2025-02-17 11:21:36,0.0
-13596,300,-5736,-2090,7233,225,2025-02-17 11:21:36,0.0
-15484,384,-5148,-2052,9918,1718,2025-02-17 11:21:36,0.0
-14984,192,-5484,-2071,10495,3094,2025-02-17 11:21:36,0.0
-13948,88,-5168,-1160,9656,3938,2025-02-17 11:21:36,0.0
-12040,-252,-5512,583,7004,4315,2025-02-17 11:21:36,0.0
-11852,-524,-6148,1343,3752,3563,2025-02-17 11:21:36,0.0
-11540,-992,-6960,688,-886,1968,2025-02-17 11:21:36,0.0
-14292,28,-6144,-5628,-2347,-3871,2025-02-17 11:21:36,0.0
-13304,92,-5940,-7101,-4508,-3409,2025-02-17 11:21:36,0.0
-11904,-284,-6072,-8079,-4819,-3185,2025-02-17 11:21:37,0.0
-11072,-88,-5504,-8974,-3644,-3216,2025-02-17 11:21:37,0.0
-11056,-356,-5388,-9937,-1812,-3342,2025-02-17 11:21:37,0.0
-11588,-1208,-4308,-9881,-538,-3517,2025-02-17 11:21:37,0.0
-12260,-1584,-5188,-9962,206,-3558,2025-02-17 11:21:37,0.0
-12168,-1408,-5736,-10809,-561,-3415,2025-02-17 11:21:37,0.0
-12072,-1712,-5448,-11094,-1664,-2964,2025-02-17 11:21:37,0.0
-10696,-2072,-4372,-10890,-1864,-2411,2025-02-17 11:21:37,0.0
-10808,-2228,-5160,-9848,-490,-2399,2025-02-17 11:21:37,0.0
-9884,-2296,-5308,-10545,2763,-2427,2025-02-17 11:21:37,0.0
-11396,-2232,-5116,-11544,5295,-3404,2025-02-17 11:21:37,0.0
-13540,-2276,-4952,-12433,6481,-4550,2025-02-17 11:21:37,0.0
-15876,-1820,-4576,-12963,6204,-5138,2025-02-17 11:21:37,0.0
-16660,-1668,-4588,-13074,3994,-4844,2025-02-17 11:21:37,0.0
-15740,-1556,-5440,-13637,359,-4616,2025-02-17 11:21:37,0.0
-14412,-1356,-5120,-14500,-3160,-4950,2025-02-17 11:21:37,0.0
-12484,-1236,-5768,-15374,-4087,-5839,2025-02-17 11:21:37,0.0
-11876,-1484,-5668,-15759,-3198,-6294,2025-02-17 11:21:37,0.0
-11852,-1708,-5600,-15999,-2700,-6308,2025-02-17 11:21:37,0.0
-11456,-2172,-4808,-16208,-2296,-6452,2025-02-17 11:21:37,0.0
-11616,-2188,-4692,-16418,-2519,-6681,2025-02-17 11:21:37,0.0
-12012,-2532,-5540,-17212,-2173,-6958,2025-02-17 11:21:37,0.0
-12076,-3380,-4912,-18078,-2406,-7108,2025-02-17 11:21:37,0.0
-12412,-2592,-4284,-18183,-3028,-6664,2025-02-17 11:21:37,0.0
-12384,-2820,-4044,-18060,-2543,-6057,2025-02-17 11:21:37,0.0
-12156,-3068,-4144,-18102,-1534,-5656,2025-02-17 11:21:37,0.0
-12140,-2728,-4316,-18418,-604,-5604,2025-02-17 11:21:37,0.0
-12396,-3172,-4440,-18653,-690,-5871,2025-02-17 11:21:37,0.0
-12936,-3228,-4112,-18666,-973,-5959,2025-02-17 11:21:37,0.0
-13064,-3508,-3832,-18767,-1446,-5826,2025-02-17 11:21:37,0.0
-12944,-3144,-4432,-19368,-2175,-5786,2025-02-17 11:21:37,0.0
-13052,-3016,-3624,-19975,-3494,-5784,2025-02-17 11:21:37,0.0
-12688,-3500,-6204,-21964,-4258,-5382,2025-02-17 11:21:37,0.0
-11804,-5080,-5764,-21545,-3678,-5447,2025-02-17 11:21:37,0.0
-12588,-4004,-7480,-20161,-1313,-4467,2025-02-17 11:21:37,0.0
-11348,-2576,-6876,-19047,2192,-3790,2025-02-17 11:21:37,0.0
-10460,-680,-5112,-19866,6009,-2801,2025-02-17 11:21:37,0.0
-11216,140,-4256,-20148,6210,-4205,2025-02-17 11:21:37,0.0
-13364,-60,-4476,-19835,4332,-5040,2025-02-17 11:21:37,0.0
-14552,-496,-4944,-19884,2225,-4918,2025-02-17 11:21:37,0.0
-14616,-288,-5244,-19865,1437,-4529,2025-02-17 11:21:37,0.0
-13992,-536,-5384,-19714,1479,-4357,2025-02-17 11:21:37,0.0
-13732,-316,-5024,-19165,1546,-4336,2025-02-17 11:21:37,0.0
-12512,156,-4036,-18843,206,-4974,2025-02-17 11:21:37,0.0
-11888,84,-4432,-18632,-618,-5853,2025-02-17 11:21:37,0.0
-12100,-492,-4404,-18569,-846,-6566,2025-02-17 11:21:37,0.0
-12316,-800,-3928,-18162,-758,-6878,2025-02-17 11:21:37,0.0
-12868,-484,-3084,-17268,-1365,-6517,2025-02-17 11:21:37,0.0
-12668,-80,-3088,-16506,-1232,-6041,2025-02-17 11:21:37,0.0
-11988,332,-3524,-15689,-720,-5942,2025-02-17 11:21:37,0.0
-11728,664,-4348,-15357,-370,-6039,2025-02-17 11:21:37,0.0
-11520,456,-3708,-14610,-49,-6341,2025-02-17 11:21:37,0.0
-11432,772,-4688,-14467,643,-6600,2025-02-17 11:21:37,0.0
-11896,-164,-4016,-14359,1718,-6884,2025-02-17 11:21:37,0.0
-12196,-500,-4372,-14357,1956,-6920,2025-02-17 11:21:37,0.0
-12624,-728,-4108,-14185,1354,-6928,2025-02-17 11:21:37,0.0
-12644,-896,-4052,-13809,366,-6932,2025-02-17 11:21:37,0.0
-12816,-1144,-3792,-13428,-645,-6826,2025-02-17 11:21:37,0.0
-12672,-1132,-4260,-13172,-1023,-6592,2025-02-17 11:21:37,0.0
-12740,-576,-3784,-12696,-721,-6258,2025-02-17 11:21:37,0.0
-12804,-388,-4128,-12172,-439,-5940,2025-02-17 11:21:38,0.0
-12720,-64,-4760,-11850,-153,-5779,2025-02-17 11:21:38,0.0
-12528,536,-5808,-11673,19,-5731,2025-02-17 11:21:38,0.0
-11724,824,-5856,-11509,-185,-6212,2025-02-17 11:21:38,0.0
-11852,512,-6048,-11262,-116,-6831,2025-02-17 11:21:38,0.0
-13608,-652,-7160,-10798,3591,-7237,2025-02-17 11:21:38,0.0
-14956,-2516,-4920,-10415,7002,-7040,2025-02-17 11:21:38,0.0
-14164,-3416,-3440,-9308,6681,-6791,2025-02-17 11:21:38,0.0
-13704,-3148,-4596,-9782,3217,-6629,2025-02-17 11:21:38,0.0
-13280,-3032,-5568,-11402,-2754,-6116,2025-02-17 11:21:38,0.0
-14048,-2612,-3676,-11842,-8254,-5659,2025-02-17 11:21:38,0.0
-12688,-564,-2780,-11452,-8357,-4411,2025-02-17 11:21:38,0.0
-11456,-132,-4168,-11097,-4034,-3954,2025-02-17 11:21:38,0.0
-11628,-512,-3936,-11316,286,-4139,2025-02-17 11:21:38,0.0
-12828,-2028,-2908,-11281,2470,-4509,2025-02-17 11:21:38,
-13996,-2424,-2024,-10933,1528,-4327,2025-02-17 11:21:38,0.0
-14272,-2916,-2816,-10055,-507,-3770,2025-02-17 11:21:38,0.0
-13708,-2760,-3672,-9520,-2065,-3192,2025-02-17 11:21:38,0.0
-13700,-2728,-3148,-8482,-2459,-2687,2025-02-17 11:21:38,0.0
-13316,-2524,-3872,-8068,-2027,-1903,2025-02-17 11:21:38,0.0
-12688,-2516,-2864,-7246,-1580,-1448,2025-02-17 11:21:38,0.0
-12500,-2832,-1572,-5456,-1095,-1179,2025-02-17 11:21:38,0.0
-11608,-3048,-908,-3121,-684,-1031,2025-02-17 11:21:38,0.0
-11728,-2532,-3616,-1703,252,-934,2025-02-17 11:21:38,0.0
-11856,-1728,-8548,-3533,1571,-929,2025-02-17 11:21:38,0.0
-11700,-1768,-7312,-6947,1893,-1826,2025-02-17 11:21:38,0.0
-13224,-2124,-3592,-7684,1780,-2384,2025-02-17 11:21:38,0.0
-14128,-2228,-2156,-6372,1518,-2098,2025-02-17 11:21:38,0.0
-14016,-1468,-3720,-5352,-215,-2177,2025-02-17 11:21:38,0.0
-14044,-1040,-4972,-5271,-1568,-1977,2025-02-17 11:21:38,0.0
-13240,-1192,-3472,-5039,-2371,-2000,2025-02-17 11:21:38,0.0
-12828,-1580,-2924,-3954,-2200,-2149,2025-02-17 11:21:38,0.0
-12592,-1760,-3340,-3056,-1857,-2218,2025-02-17 11:21:38,0.0
-11956,-1728,-3612,-2244,-1897,-2507,2025-02-17 11:21:38,0.0
-11700,-1820,-3748,-1754,-2141,-2888,2025-02-17 11:21:38,0.0
-12060,-1764,-2856,-1304,-1718,-2956,2025-02-17 11:21:38,0.0
-12240,-2312,-2240,-469,-771,-2802,2025-02-17 11:21:38,0.0
-12764,-2484,-2344,120,297,-2425,2025-02-17 11:21:38,0.0
-13132,-2564,-2588,774,1810,-2040,2025-02-17 11:21:38,0.0
-13016,-2580,-2576,979,2276,-1729,2025-02-17 11:21:38,0.0
-13012,-2780,-2372,914,2282,-1860,2025-02-17 11:21:38,0.0
-13044,-2720,-2388,751,2884,-2154,2025-02-17 11:21:38,0.0
-13888,-2288,-1484,728,3992,-2343,2025-02-17 11:21:38,0.0
-14852,-1864,-3096,473,3967,-2450,2025-02-17 11:21:38,0.0
-14904,-1660,-3472,-287,1789,-2360,2025-02-17 11:21:38,0.0
-14956,-1836,-3284,-616,-721,-2183,2025-02-17 11:21:38,0.0
-13328,-2208,-2872,-980,-2776,-2252,2025-02-17 11:21:38,0.0
-12160,-2012,-2652,-1072,-3620,-2225,2025-02-17 11:21:38,0.0
-11032,-1552,-3088,-1498,-3514,-2377,2025-02-17 11:21:38,0.0
-10740,-1508,-2812,-1727,-1898,-2595,2025-02-17 11:21:38,0.0
-11028,-2040,-2816,-2083,142,-2893,2025-02-17 11:21:38,0.0
-12248,-2208,-1732,-2200,975,-2954,2025-02-17 11:21:38,0.0
-13356,-2344,-836,-2006,1072,-2707,2025-02-17 11:21:38,0.0
-13720,-3128,-1672,-584,-179,-2514,2025-02-17 11:21:38,0.0
-13556,-2416,-2100,-1592,-1109,-2275,2025-02-17 11:21:38,0.0
-13232,-2616,-2832,-2376,-962,-1839,2025-02-17 11:21:38,0.0
-13408,-2636,-1912,-2854,-595,-1547,2025-02-17 11:21:38,0.0
-13680,-2360,-1812,-3151,-497,-1143,2025-02-17 11:21:38,0.0
-12448,-2252,-3424,-3520,-1386,-1177,2025-02-17 11:21:38,0.0
-13236,-2280,-1820,-3732,-1921,-1234,2025-02-17 11:21:38,0.0
-12220,-2216,-992,-3760,-2700,-1651,2025-02-17 11:21:39,0.0
-12920,-2076,100,-3588,-2626,-1999,2025-02-17 11:21:39,0.0
-12000,-2388,-1796,-3471,-1504,-2171,2025-02-17 11:21:39,0.0
-12436,-2616,-2020,-4026,318,-2357,2025-02-17 11:21:39,0.0
-12692,-3472,-1452,-4455,1455,-2674,2025-02-17 11:21:39,0.0
-14816,-3680,-1964,-4689,1744,-1927,2025-02-17 11:21:39,0.0
-15328,-4360,-1656,-4988,1256,-1198,2025-02-17 11:21:39,0.0
-15412,-4688,-880,-5043,891,-778,2025-02-17 11:21:39,0.0
-15432,-4444,-88,-4910,92,-387,2025-02-17 11:21:39,0.0
-14780,-5248,456,-4306,-1009,-299,2025-02-17 11:21:39,0.0
-14576,-5960,-3916,-4133,-426,-540,2025-02-17 11:21:39,0.0
-17080,-5580,-4764,-4226,3648,-1297,2025-02-17 11:21:39,0.0
-16744,-6392,-3688,-3664,6392,-2434,2025-02-17 11:21:39,0.0
-18684,-7604,-4136,-3017,3900,-2567,2025-02-17 11:21:39,0.0
-18820,-7868,-4560,-2133,-830,-259,2025-02-17 11:21:39,0.0
-15560,-5488,-5684,-1046,-2030,1181,2025-02-17 11:21:39,0.0
-14140,-3564,-7052,-1395,-848,732,2025-02-17 11:21:39,0.0
-13728,-1808,-7180,-2103,-1950,994,2025-02-17 11:21:39,0.0
-12428,-1640,-7040,-1686,-5539,1681,2025-02-17 11:21:39,0.0
-11484,-1268,-6756,-799,-7514,2585,2025-02-17 11:21:39,0.0
-9112,-348,-6712,2,-6843,2822,2025-02-17 11:21:39,0.0
-8748,1332,-6536,484,-3928,1993,2025-02-17 11:21:39,0.0
-9736,1552,-5168,909,318,1049,2025-02-17 11:21:39,0.0
-11868,728,-5820,620,2498,986,2025-02-17 11:21:39,0.0
-13572,-948,-5368,409,2514,1787,2025-02-17 11:21:39,0.0
-14464,-2644,-5560,218,3592,2688,2025-02-17 11:21:39,0.0
-14120,-3748,-5580,-383,5084,4002,2025-02-17 11:21:39,0.0
-14972,-3040,-4912,-528,4811,4986,2025-02-17 11:21:39,0.0
-13060,-2244,-6700,-1017,-153,5230,2025-02-17 11:21:39,0.0
-12524,-1692,-4312,-917,-4483,4514,2025-02-17 11:21:39,0.0
-11824,-1068,-2668,-357,-5391,4193,2025-02-17 11:21:39,0.0
-9840,-384,-2288,75,-4025,3874,2025-02-17 11:21:39,0.0
-8880,220,-2292,527,-2550,2860,2025-02-17 11:21:39,0.0
-9932,656,-2512,830,-1409,2339,2025-02-17 11:21:39,0.0
-10416,252,-2232,1067,-898,2359,2025-02-17 11:21:39,0.0
-10716,-48,-2096,1309,-403,2299,2025-02-17 11:21:39,0.0
-10892,-532,-1908,1564,139,2288,2025-02-17 11:21:39,0.0
-9932,44,-892,2332,138,1818,2025-02-17 11:21:39,0.0
-9228,780,-2120,2536,281,771,2025-02-17 11:21:39,0.0
-9776,680,-2356,1959,1152,-209,2025-02-17 11:21:39,0.0
-10360,204,-1588,2191,1503,-687,2025-02-17 11:21:39,0.0
-11168,20,-2032,2611,1267,-952,2025-02-17 11:21:39,0.0
-12148,-28,-2772,2654,1443,-899,2025-02-17 11:21:39,0.0
-12784,172,-3024,2192,2203,-1022,2025-02-17 11:21:39,0.0
-14344,420,-3512,1472,3331,-840,2025-02-17 11:21:39,0.0
-15672,-132,-3676,1138,3322,-238,2025-02-17 11:21:39,0.0
-15052,-1108,-3248,341,1768,-186,2025-02-17 11:21:39,0.0
-15468,-2172,-2268,70,-155,-94,2025-02-17 11:21:39,0.0
-15312,-2048,-2064,836,-1873,910,2025-02-17 11:21:39,0.0
-14388,-1652,-2420,1827,-2951,2154,2025-02-17 11:21:39,0.0
-13912,-880,-1964,2432,-2889,2924,2025-02-17 11:21:39,0.0
-13896,-988,-1308,3282,-1853,3237,2025-02-17 11:21:39,0.0
-19800,-3824,-1380,3947,-1613,5192,2025-02-17 11:21:39,0.0
-10764,-1288,3508,6686,-4503,6836,2025-02-17 11:21:39,0.0
-10356,496,-2932,7995,-4188,3668,2025-02-17 11:21:39,
-11756,2228,-5420,6750,521,3435,2025-02-17 11:21:39,0.0
-15236,3924,-7408,6116,3685,2820,2025-02-17 11:21:39,0.0
-16972,4340,-10656,4614,4541,2461,2025-02-17 11:21:39,0.0
-19616,4032,-11216,2674,4015,2117,2025-02-17 11:21:39,0.0
-18908,2308,-7552,2634,872,1780,2025-02-17 11:21:39,0.0
-15244,644,-7188,3096,-2867,-213,2025-02-17 11:21:39,0.0
-13516,-820,-6216,3367,-4185,-308,2025-02-17 11:21:39,0.0
-9992,-1508,-5408,3787,-5102,-249,2025-02-17 11:21:39,0.0
-7572,-1860,-5032,3622,-3655,-613,2025-02-17 11:21:39,0.0
-5860,-3092,-4876,2985,-665,-1170,2025-02-17 11:21:40,0.0
-8064,-2968,-4272,3082,4722,-1758,2025-02-17 11:21:40,0.0
-10860,-1848,-4280,3434,6742,-1626,2025-02-17 11:21:40,0.0
-12660,-1632,-5520,3549,6001,-1639,2025-02-17 11:21:40,0.0
-14452,-512,-5464,3197,4454,-2277,2025-02-17 11:21:40,0.0
-15388,-840,-5588,2365,2488,-1935,2025-02-17 11:21:40,0.0
-14736,-496,-6364,1399,154,-1956,2025-02-17 11:21:40,0.0
-13080,-1060,-5528,403,-907,-2564,2025-02-17 11:21:40,0.0
-12412,-1608,-4460,566,-1673,-1913,2025-02-17 11:21:40,0.0
-10692,-2220,-3852,798,-1576,-1597,2025-02-17 11:21:40,0.0
-10372,-2380,-3936,976,-450,-1447,2025-02-17 11:21:40,0.0
-11140,-1796,-3244,731,689,-1732,2025-02-17 11:21:40,0.0
-11688,-1992,-3592,613,554,-1921,2025-02-17 11:21:40,0.0
-12156,-1928,-4312,488,-48,-1806,2025-02-17 11:21:40,0.0
-11852,-2076,-3760,219,-379,-1643,2025-02-17 11:21:40,0.0
-11600,-2548,-2892,242,304,-1381,2025-02-17 11:21:40,0.0
-10820,-3256,-3496,362,1123,-883,2025-02-17 11:21:40,0.0
-12596,-3512,-628,1011,2939,126,2025-02-17 11:21:40,0.0
-14368,-3564,1052,1923,2938,1020,2025-02-17 11:21:40,0.0
-14568,-4340,716,3347,1939,2086,2025-02-17 11:21:40,0.0
-14472,-5088,-152,4965,24,3036,2025-02-17 11:21:40,0.0
-13660,-5448,-1644,6372,-2344,4062,2025-02-17 11:21:40,0.0
-12372,-4740,-2968,7414,-3061,4993,2025-02-17 11:21:40,0.0
-11256,-3756,-2692,8415,-2333,6038,2025-02-17 11:21:40,0.0
-10444,-3392,-2188,9321,-370,6042,2025-02-17 11:21:40,0.0
-11300,-4936,-2712,10348,1668,6298,2025-02-17 11:21:40,0.0
-12824,-6556,-4724,11323,2540,6341,2025-02-17 11:21:40,0.0
-15036,-6380,-5816,11550,2293,6484,2025-02-17 11:21:40,0.0
-14392,-4372,-5388,12116,405,6452,2025-02-17 11:21:40,0.0
-13380,-1744,-4540,13952,-2160,5459,2025-02-17 11:21:40,0.0
-12044,-1104,-3760,16482,-3726,3296,2025-02-17 11:21:40,0.0
-12052,-2888,-4324,18735,-4644,353,2025-02-17 11:21:40,0.0
-12700,-4972,-4180,20489,-4358,-984,2025-02-17 11:21:40,0.0
-12192,-7080,-7300,20788,-2712,-1279,2025-02-17 11:21:40,0.0
-11548,-6680,-5692,20123,259,-1344,2025-02-17 11:21:40,0.0
-12728,-7804,-6844,20004,4460,-438,2025-02-17 11:21:40,0.0
-15812,-7404,-5256,19784,8042,1875,2025-02-17 11:21:40,0.0
-15856,-5852,-5804,19871,7448,3858,2025-02-17 11:21:40,0.0
-14724,-4488,-7308,19101,3594,4243,2025-02-17 11:21:40,0.0
-13384,-3540,-8104,18613,-1783,2940,2025-02-17 11:21:40,0.0
-12908,-3448,-7388,18242,-5509,1274,2025-02-17 11:21:40,0.0
-11620,-3524,-6424,18477,-7066,79,2025-02-17 11:21:40,5
-10764,-3072,-5736,18697,-5901,-735,2025-02-17 11:21:40,5
-8448,-2148,-8208,17786,-1992,-2457,2025-02-17 11:21:40,5
-9396,-1636,-8576,15244,4269,-7154,2025-02-17 11:21:40,5
-10464,-1800,-7160,14234,5328,-9357,2025-02-17 11:21:40,5
-11120,-1740,-5272,13435,3041,-10974,2025-02-17 11:21:40,5
-11356,-1508,-6096,12194,-2079,-12355,2025-02-17 11:21:40,5
-14360,-1652,-6048,10154,-7098,-12064,2025-02-17 11:21:40,5
-13960,-176,-6088,7966,-10020,-11688,2025-02-17 11:21:40,5
-12560,1488,-5680,6045,-12355,-12242,2025-02-17 11:21:40,5
-12380,2232,-3972,4754,-13875,-13722,2025-02-17 11:21:40,5
-12172,2436,-2032,3542,-14623,-15962,2025-02-17 11:21:40,5
-13068,2624,-108,2833,-13493,-17452,2025-02-17 11:21:40,5
-13608,2976,1296,2983,-9990,-17845,2025-02-17 11:21:40,5
-12020,3396,864,3331,91,-18058,2025-02-17 11:21:40,5
-10068,3420,1876,4086,8110,-18146,2025-02-17 11:21:40,5
-8044,2164,3424,6459,15333,-18470,2025-02-17 11:21:40,5
-4760,-132,4084,9426,20511,-18103,2025-02-17 11:21:40,5
2612,-1820,3900,11979,21309,-19929,2025-02-17 11:21:40,5
5832,-1172,1644,12931,15949,-26737,2025-02-17 11:21:41,5
1200,-1980,1704,14179,13492,-27933,2025-02-17 11:21:41,5
1692,-1724,1896,14221,13532,-24728,2025-02-17 11:21:41,5
2100,-1740,32,14028,13789,-23475,2025-02-17 11:21:41,5
524,-792,2956,14728,13869,-21757,2025-02-17 11:21:41,5
576,-1020,1764,14566,14610,-19127,2025-02-17 11:21:41,5
2156,-1112,456,14200,15221,-16810,2025-02-17 11:21:41,5
1076,-740,1756,13985,16065,-14526,2025-02-17 11:21:41,5
1272,-228,2456,14354,17007,-12443,2025-02-17 11:21:41,5
1812,216,3864,15688,18198,-10735,2025-02-17 11:21:41,5
1668,-60,3336,17070,19387,-9014,2025-02-17 11:21:41,5
1236,-820,2572,17851,20190,-6570,2025-02-17 11:21:41,5
1644,-936,1688,17727,20704,-3879,2025-02-17 11:21:41,5
1836,-1060,1880,17199,21300,-1560,2025-02-17 11:21:41,5
1968,-800,3928,17453,21959,213,2025-02-17 11:21:41,5
804,-1212,3836,18080,22526,2462,2025-02-17 11:21:41,5
1012,-1848,1628,16979,23190,4790,2025-02-17 11:21:41,5
688,-2476,672,14622,23813,7437,2025-02-17 11:21:41,5
-160,-1320,4112,13046,24252,10932,2025-02-17 11:21:41,5
1220,1244,15352,24150,25063,15016,2025-02-17 11:21:41,5
-16152,-3612,25536,32767,23120,25589,2025-02-17 11:21:41,5
-32768,-32768,31360,32767,32767,32767,2025-02-17 11:21:41,5
-32768,-32768,32767,32767,3629,32767,2025-02-17 11:21:41,5
-32768,-32768,32767,32767,-31206,32767,2025-02-17 11:21:41,5
-25216,23924,32767,25354,-2837,32767,2025-02-17 11:21:41,5
-10148,24748,22144,-9095,9991,-16137,2025-02-17 11:21:41,5
-7104,10724,6744,-6552,12877,-13919,2025-02-17 11:21:41,5
-3660,3688,-7468,-12378,-14418,-13876,2025-02-17 11:21:41,5
-3756,-2488,-1532,-16645,-4821,-7848,2025-02-17 11:21:41,5
-2736,-2792,2496,-15693,1243,-4781,2025-02-17 11:21:41,5
-7932,-1004,8796,-9896,1892,795,2025-02-17 11:21:41,5
-10260,-1540,10312,-2227,1315,8704,2025-02-17 11:21:41,5
-9384,-3120,7636,3158,3218,11520,2025-02-17 11:21:41,5
-11664,-3428,7752,5196,5336,11486,2025-02-17 11:21:41,5
-14296,-2156,9760,5335,8956,9187,2025-02-17 11:21:41,5
-13952,-1488,9624,3814,12637,4890,2025-02-17 11:21:41,5
-15280,-592,10000,460,11688,780,2025-02-17 11:21:41,5
-14584,-184,8356,-1280,5503,267,2025-02-17 11:21:41,5
-11656,-1496,6828,-1585,3358,-90,2025-02-17 11:21:41,5
-12164,-1936,6284,-603,1916,231,2025-02-17 11:21:41,5
-13168,-1380,6808,109,-387,-184,2025-02-17 11:21:41,5
-12980,-1568,7792,-181,-1527,-323,2025-02-17 11:21:41,5
-12592,-1292,8152,-159,-498,-232,2025-02-17 11:21:41,5
-12436,-1988,8580,75,534,-108,2025-02-17 11:21:41,5
-12800,-1668,7764,-312,413,-30,2025-02-17 11:21:41,5
-12484,-1328,6972,-234,447,-75,2025-02-17 11:21:41,5
-12276,-1552,7196,-148,-418,-286,2025-02-17 11:21:41,5
-12808,-1816,7972,-71,-263,-213,2025-02-17 11:21:41,5
-12788,-1584,8160,-80,393,-69,2025-02-17 11:21:41,5
-12532,-1348,7692,-209,679,-53,2025-02-17 11:21:41,5
-12776,-1600,7244,-173,311,-140,2025-02-17 11:21:41,5
-12812,-1672,7544,-72,-106,-192,2025-02-17 11:21:41,5
-12176,-1680,7736,-124,115,-164,2025-02-17 11:21:42,5
-13160,-1388,7964,-107,349,-49,2025-02-17 11:21:42,5
-12720,-1740,7872,-115,107,-215,2025-02-17 11:21:42,5
-12756,-1220,7768,-133,-189,-148,2025-02-17 11:21:42,5
-12836,-1592,8160,-152,15,-197,2025-02-17 11:21:42,5
-12864,-1616,7828,-149,367,-97,2025-02-17 11:21:42,5
-12728,-1560,7620,-132,311,-108,2025-02-17 11:21:42,5
-12896,-1520,7856,-189,181,-163,2025-02-17 11:21:42,5
-12668,-1548,7532,-146,89,-170,2025-02-17 11:21:42,5
-12784,-1632,7632,-157,170,-165,2025-02-17 11:21:42,5
-12672,-1552,7680,-142,169,-192,2025-02-17 11:21:42,5
-12688,-1508,7588,-175,201,-185,2025-02-17 11:21:42,5
-12744,-1528,7744,-131,213,-185,2025-02-17 11:21:42,5
-12720,-1496,7544,-183,167,-158,2025-02-17 11:21:42,5
-12744,-1592,7572,-168,168,-187,2025-02-17 11:21:42,5
-12764,-1524,7792,-172,169,-163,2025-02-17 11:21:42,5
-12704,-1544,7748,-187,171,-183,2025-02-17 11:21:42,5
-12756,-1572,7704,-160,192,-157,2025-02-17 11:21:42,5
-12664,-1508,7604,-170,178,-179,2025-02-17 11:21:42,5
-12784,-1516,7772,-143,179,-199,2025-02-17 11:21:42,5
-12748,-1468,7824,-152,168,-191,2025-02-17 11:21:42,5
-12736,-1544,7740,-161,188,-173,2025-02-17 11:21:42,5
-12660,-1568,7632,-142,188,-165,2025-02-17 11:21:42,5
-12796,-1512,7740,-175,174,-173,2025-02-17 11:21:42,5
-12736,-1536,7772,-155,184,-177,2025-02-17 11:21:42,5
-12704,-1608,7708,-178,186,-177,2025-02-17 11:21:42,5
-12660,-1552,7628,-144,173,-182,2025-02-17 11:21:42,5
-12764,-1524,7688,-149,184,-179,2025-02-17 11:21:42,5
-12712,-1544,7696,-117,204,-165,2025-02-17 11:21:42,5
-12728,-1552,7628,-157,206,-213,2025-02-17 11:21:42,5
-12700,-1564,7772,-161,192,-159,2025-02-17 11:21:42,5
-12600,-1452,7644,-162,160,-165,2025-02-17 11:21:42,5
-12756,-1496,7840,-160,169,-170,2025-02-17 11:21:42,5
-12780,-1520,7540,-161,188,-166,2025-02-17 11:21:42,5
-12732,-1616,7824,-175,167,-180,2025-02-17 11:21:42,5
-12696,-1568,7584,-174,186,-176,2025-02-17 11:21:42,5
-12768,-1404,7632,-137,172,-147,2025-02-17 11:21:42,5
-12660,-1580,7584,-160,168,-183,2025-02-17 11:21:42,5
-12728,-1608,7788,-150,169,-174,2025-02-17 11:21:42,5
-12740,-1440,7648,-155,170,-166,2025-02-17 11:21:42,5
-12720,-1576,7684,-142,189,-190,2025-02-17 11:21:42,5
-12640,-1472,7760,-145,183,-175,2025-02-17 11:21:42,5
-12596,-1548,7608,-178,199,-169,2025-02-17 11:21:42,5
-12720,-1584,7616,-166,163,-161,2025-02-17 11:21:42,5
-12720,-1536,7692,-160,182,-176,2025-02-17 11:21:42,5
-12648,-1556,7720,-169,174,-188,2025-02-17 11:21:42,5
-12756,-1612,7620,-184,157,-168,2025-02-17 11:21:42,5
-12712,-1496,7680,-167,149,-164,2025-02-17 11:21:42,5
-12712,-1552,7728,-172,203,-187,2025-02-17 11:21:42,5
-12700,-1528,7560,-169,161,-169,2025-02-17 11:21:42,5
-12708,-1528,7820,-134,191,-179,2025-02-17 11:21:42,0.0
-12732,-1508,7672,-140,178,-185,2025-02-17 11:21:42,0.0
-12684,-1500,7728,-141,181,-179,2025-02-17 11:21:42,0.0
-12796,-1540,7620,-148,181,-179,2025-02-17 11:21:42,0.0
-12772,-1552,7608,-157,187,-166,2025-02-17 11:21:42,0.0
-12728,-1588,7704,-159,174,-171,2025-02-17 11:21:42,0.0
-12808,-1568,7536,-148,176,-153,2025-02-17 11:21:42,0.0
-12764,-1508,7696,-180,162,-186,2025-02-17 11:21:42,0.0
-12728,-1464,7792,-147,173,-180,2025-02-17 11:21:42,0.0
-12676,-1488,7608,-177,182,-183,2025-02-17 11:21:43,0.0
-12696,-1572,7660,-156,198,-197,2025-02-17 11:21:43,0.0
-12748,-1464,7584,-152,132,-169,2025-02-17 11:21:43,0.0
-12772,-1544,7624,-151,187,-180,2025-02-17 11:21:43,0.0
-12768,-1576,7664,-167,182,-152,2025-02-17 11:21:43,0.0
-12720,-1488,7624,-136,164,-166,2025-02-17 11:21:43,0.0
-12704,-1504,7624,-135,183,-177,2025-02-17 11:21:43,0.0
-12820,-1528,7692,-141,175,-172,2025-02-17 11:21:43,0.0
-12704,-1524,7712,-183,142,-189,2025-02-17 11:21:43,0.0
-12748,-1524,7600,-150,185,-170,2025-02-17 11:21:43,0.0
-12628,-1556,7684,-146,183,-165,2025-02-17 11:21:43,0.0
-12712,-1484,7720,-175,149,-159,2025-02-17 11:21:43,0.0
-12800,-1516,7740,-171,189,-157,2025-02-17 11:21:43,0.0
-12772,-1480,7704,-160,179,-185,2025-02-17 11:21:43,0.0
-12784,-1508,7728,-162,205,-187,2025-02-17 11:21:43,0.0
-12724,-1592,7824,-133,169,-164,2025-02-17 11:21:43,0.0
-12560,-1568,7516,-170,154,-176,2025-02-17 11:21:43,0.0
-12716,-1592,7716,-152,156,-185,2025-02-17 11:21:43,0.0
-12748,-1516,7640,-161,183,-168,2025-02-17 11:21:43,0.0
-12712,-1508,7608,-145,184,-178,2025-02-17 11:21:43,
-12756,-1560,7560,-171,170,-190,2025-02-17 11:21:43,0.0
-12724,-1548,7648,-128,167,-196,2025-02-17 11:21:43,0.0
-12768,-1652,7660,-151,181,-162,2025-02-17 11:21:43,0.0
-12724,-1552,7612,-145,193,-159,2025-02-17 11:21:43,0.0
-12696,-1564,7672,-167,195,-189,2025-02-17 11:21:43,0.0
-12748,-1504,7632,-165,176,-172,2025-02-17 11:21:43,0.0
-12724,-1552,7680,-159,175,-179,2025-02-17 11:21:43,0.0
-12764,-1516,7640,-140,175,-144,2025-02-17 11:21:43,0.0
-12756,-1576,7704,-160,170,-166,2025-02-17 11:21:43,0.0
-12752,-1528,7740,-165,184,-169,2025-02-17 11:21:43,0.0
-12736,-1424,7676,-173,166,-192,2025-02-17 11:21:43,0.0
-12752,-1520,7760,-181,165,-182,2025-02-17 11:21:43,0.0
-12404,-1516,7240,-229,120,-186,2025-02-17 11:21:43,0.0
-12988,-1472,7628,-133,35,-78,2025-02-17 11:21:43,0.0
-12936,-1336,7740,-180,-112,-224,2025-02-17 11:21:43,0.0
-12616,-1572,7920,-186,-41,-237,2025-02-17 11:21:43,0.0
-12736,-1596,7740,-126,-9,-143,2025-02-17 11:21:43,0.0
-12880,-1464,7272,-243,130,-174,2025-02-17 11:21:43,0.0
-12744,-1416,7792,-147,225,-138,2025-02-17 11:21:43,0.0
-12784,-1580,7728,-199,538,-134,2025-02-17 11:21:43,0.0
-12912,-1724,7524,-95,342,-66,2025-02-17 11:21:43,0.0
-12860,-1412,7468,-124,-19,-163,2025-02-17 11:21:43,0.0
-12692,-1552,7876,-344,-24,-214,2025-02-17 11:21:43,0.0
-12620,-1708,7576,-185,455,-118,2025-02-17 11:21:43,0.0
-12960,-1508,7456,-213,660,-134,2025-02-17 11:21:43,0.0
-12348,-1340,7212,-183,183,-198,2025-02-17 11:21:43,0.0
-12672,-1524,7804,-280,5,-211,2025-02-17 11:21:43,0.0
-12776,-1520,7940,-220,1310,-117,2025-02-17 11:21:43,0.0
-13236,-1592,6924,-1251,-447,-4,2025-02-17 11:21:43,0.0
-14040,-960,8796,-3174,-833,-255,2025-02-17 11:21:43,0.0
-11668,-2248,7840,-4702,88,398,2025-02-17 11:21:43,0.0
-12016,-2684,7680,-7718,-255,1490,2025-02-17 11:21:43,0.0
-12568,-2948,6584,-11763,-1389,2190,2025-02-17 11:21:43,0.0
-12236,-3080,7564,-17435,-2810,3488,2025-02-17 11:21:43,0.0
-11880,-4216,8080,-22491,-4046,5258,2025-02-17 11:21:43,0.0
-12660,-3520,8352,-25076,-2008,4110,2025-02-17 11:21:43,0.0
-12944,-2300,10536,-24293,1195,540,2025-02-17 11:21:43,0.0
-13696,-912,8400,-24763,643,-4088,2025-02-17 11:21:43,0.0
-12916,-2256,8128,-23471,-1200,-7967,2025-02-17 11:21:43,0.0
-12880,-2020,6684,-20256,-2456,-10021,2025-02-17 11:21:43,0.0
-12592,-2464,7660,-16178,-1555,-9723,2025-02-17 11:21:43,0.0
-13356,-2960,8008,-11413,1737,-10941,2025-02-17 11:21:44,0.0
-14808,-3448,8324,-6892,6069,-11248,2025-02-17 11:21:44,0.0
-12648,-4660,6696,-4979,8368,-11683,2025-02-17 11:21:44,0.0
-11324,-5900,6044,-5693,5841,-13077,2025-02-17 11:21:44,0.0
-11268,-7572,4448,-10046,-2876,-13321,2025-02-17 11:21:44,0.0
-13272,-7008,8300,-11777,-7723,-11258,2025-02-17 11:21:44,0.0
-11224,-6872,8664,-11219,-11148,-8631,2025-02-17 11:21:44,0.0
-7540,-9236,4576,-12039,-12474,-7866,2025-02-17 11:21:44,0.0
-10744,-10476,5148,-14071,-12234,-7340,2025-02-17 11:21:44,0.0
-9228,-10008,5036,-15483,-12043,-6105,2025-02-17 11:21:44,0.0
-7820,-9716,3472,-17757,-11669,-5925,2025-02-17 11:21:44,0.0
-4660,-10688,1144,-22651,-11950,-8121,2025-02-17 11:21:44,0.0
-7240,-11108,3028,-27913,-14161,-10793,2025-02-17 11:21:44,0.0
-8544,-11532,5296,-30420,-19438,-10375,2025-02-17 11:21:44,0.0
-8024,-11884,7388,-29409,-26066,-8630,2025-02-17 11:21:44,0.0
-5472,-12476,6092,-29312,-30213,-9653,2025-02-17 11:21:44,0.0
-5412,-12988,8080,-28113,-31695,-10779,2025-02-17 11:21:44,0.0
-8528,-13680,9612,-26244,-30713,-10883,2025-02-17 11:21:44,0.0
-10312,-14060,10852,-22973,-29292,-8921,2025-02-17 11:21:44,0.0
-10368,-14468,11464,-18922,-27444,-6678,2025-02-17 11:21:44,0.0
-8072,-14872,8580,-15751,-22153,-6167,2025-02-17 11:21:44,0.0
-7264,-15092,7816,-13106,-14212,-6803,2025-02-17 11:21:44,0.0
-6276,-14868,5836,-12456,-8973,-7928,2025-02-17 11:21:44,0.0
-4812,-14940,4716,-12743,-4575,-9135,2025-02-17 11:21:44,0.0
-4720,-15248,3984,-13125,-1232,-10071,2025-02-17 11:21:44,0.0
-3100,-15820,3624,-12727,2948,-9421,2025-02-17 11:21:44,0.0
-2004,-15660,3524,-11809,2526,-8891,2025-02-17 11:21:44,0.0
-1284,-15604,2700,-10494,2196,-8285,2025-02-17 11:21:44,0.0
-3320,-15148,4852,-7970,1409,-6607,2025-02-17 11:21:44,0.0
-4536,-14676,5924,-4095,1029,-3609,2025-02-17 11:21:44,0.0
-3928,-15068,4536,-92,1395,-146,2025-02-17 11:21:44,0.0
-2876,-15692,3568,1950,2961,1924,2025-02-17 11:21:44,0.0
-1500,-16440,2200,2814,5411,2252,2025-02-17 11:21:44,0.0
-192,-17176,1696,2355,8086,312,2025-02-17 11:21:44,0.0
-696,-17308,1312,1632,10287,-2300,2025-02-17 11:21:44,0.0
-1340,-17708,1348,891,12411,-4515,2025-02-17 11:21:44,0.0
-2188,-18236,1312,-199,14256,-5967,2025-02-17 11:21:44,0.0
860,-18456,-452,-2158,16808,-8546,2025-02-17 11:21:44,0.0
-3280,-16676,608,-5502,21699,-16122,2025-02-17 11:21:44,0.0
-12232,-16512,4452,-4578,26388,-14224,2025-02-17 11:21:44,0.0
-11480,-17224,3176,-2331,29530,-7549,2025-02-17 11:21:44,0.0
-500,-18372,-892,-3245,29490,-5265,2025-02-17 11:21:44,0.0
-1284,-19384,1968,-3184,25221,-3247,2025-02-17 11:21:44,0.0
-664,-19908,3960,1622,17919,2201,2025-02-17 11:21:44,0.0
2096,-20220,3276,6555,11461,4810,2025-02-17 11:21:44,0.0
5740,-21816,-1660,7182,5440,3751,2025-02-17 11:21:44,0.0
6092,-22516,-3372,2925,349,-2438,2025-02-17 11:21:44,0.0
3452,-23156,-2324,-2684,-4559,-6658,2025-02-17 11:21:44,0.0
1860,-23420,-736,-6651,-9609,-7583,2025-02-17 11:21:44,0.0
1036,-22228,1000,-7894,-14868,-5724,2025-02-17 11:21:44,0.0
1920,-20716,456,-8292,-19236,-4329,2025-02-17 11:21:44,0.0
2652,-19324,60,-10553,-22253,-5406,2025-02-17 11:21:44,0.0
3128,-16180,1984,-11214,-23921,-7158,2025-02-17 11:21:44,0.0
2460,-16060,3624,-9007,-24320,-9271,2025-02-17 11:21:44,0.0
2624,-20496,2160,-6085,-24217,-11112,2025-02-17 11:21:44,0.0
2804,-25456,280,-6348,-24197,-14222,2025-02-17 11:21:44,0.0
692,-27692,2616,-5322,-23592,-15198,2025-02-17 11:21:44,0.0
-1916,-28116,5172,312,-21858,-13372,2025-02-17 11:21:44,0.0
-436,-24884,1872,4509,-19506,-12755,2025-02-17 11:21:44,
-404,-21780,-84,2621,-16137,-13440,2025-02-17 11:21:44,0.0
-2448,-22212,1248,2155,-12310,-12034,2025-02-17 11:21:45,0.0
-2336,-22004,2168,3054,-6942,-8392,2025-02-17 11:21:45,0.0
-1732,-20476,1156,4972,-1102,-6096,2025-02-17 11:21:45,0.0
-1856,-20148,-24,4433,3024,-3852,2025-02-17 11:21:45,0.0
-820,-18840,952,3462,5261,-730,2025-02-17 11:21:45,0.0
728,-18084,1416,3428,3889,1752,2025-02-17 11:21:45,0.0
-168,-18000,784,3056,-521,4260,2025-02-17 11:21:45,0.0
928,-17564,1204,2183,-6019,6551,2025-02-17 11:21:45,0.0
-44,-17124,1248,2512,-10187,7717,2025-02-17 11:21:45,0.0
-1056,-17536,-1028,1664,-12940,9998,2025-02-17 11:21:45,0.0
536,-18296,2840,4389,-12012,10160,2025-02-17 11:21:45,0.0
4008,-18216,1028,4247,-12482,8080,2025-02-17 11:21:45,0.0
280,-18012,2036,5619,-12340,8042,2025-02-17 11:21:45,0.0
616,-15892,1604,5333,-11786,7630,2025-02-17 11:21:45,0.0
1364,-14132,2000,6387,-12670,5828,2025-02-17 11:21:45,0.0
2860,-14796,2420,7133,-7491,1723,2025-02-17 11:21:45,0.0
3436,-14348,836,7746,-6567,-264,2025-02-17 11:21:45,0.0
3148,-14652,-28,6592,-8693,-2811,2025-02-17 11:21:45,0.0
-3660,-12916,-3336,3199,-6138,-1088,2025-02-17 11:21:45,0.0
1244,-13884,1532,3096,-549,-1073,2025-02-17 11:21:45,0.0
-552,-12524,668,1737,4735,32,2025-02-17 11:21:45,0.0
-908,-10352,1068,1417,9451,1909,2025-02-17 11:21:45,0.0
868,-9340,1744,1628,12075,2178,2025-02-17 11:21:45,0.0
1348,-8536,2556,3028,11882,2049,2025-02-17 11:21:45,0.0
1436,-10836,2328,3871,8734,1237,2025-02-17 11:21:45,0.0
2100,-12420,1408,4143,4948,988,2025-02-17 11:21:45,0.0
1312,-12668,992,3020,321,896,2025-02-17 11:21:45,0.0
1316,-11788,652,1015,-4798,1678,2025-02-17 11:21:45,0.0
1388,-11328,1396,129,-7393,1785,2025-02-17 11:21:45,0.0
3148,-11604,17316,5337,335,658,2025-02-17 11:21:45,0.0
-9496,-12912,1840,8110,16048,1861,2025-02-17 11:21:45,0.0
-6776,-11944,4420,6363,28532,7950,2025-02-17 11:21:45,0.0
-5108,-13460,3960,6160,29761,11067,2025-02-17 11:21:45,0.0
-10316,-13164,5252,5202,32767,16528,2025-02-17 11:21:45,0.0
-7116,-12376,5992,4847,32767,20844,2025-02-17 11:21:45,0.0
-1340,-12908,9064,5101,32767,23016,2025-02-17 11:21:45,0.0
-1424,-13556,9060,6442,23545,23882,2025-02-17 11:21:45,0.0
-4444,-13756,8092,7855,12443,25289,2025-02-17 11:21:45,0.0
-3100,-13880,9272,9853,5970,25991,2025-02-17 11:21:45,0.0
-2168,-13616,7700,11388,1252,25745,2025-02-17 11:21:45,0.0
-4884,-12032,780,9123,-7187,25850,2025-02-17 11:21:45,0.0
-4252,-10032,4252,8552,-11797,22830,2025-02-17 11:21:45,0.0
-8900,-6788,6572,9577,-17636,20109,2025-02-17 11:21:45,0.0
-12620,-4908,6296,9942,-15954,19762,2025-02-17 11:21:45,0.0
-11860,-4568,5912,9184,-9494,17912,2025-02-17 11:21:45,0.0
-12668,-4316,7672,7940,-2475,15669,2025-02-17 11:21:45,0.0
-13260,-4172,7824,7683,5048,14830,2025-02-17 11:21:45,0.0
-9360,-3564,8192,7764,8106,12696,2025-02-17 11:21:45,0.0
-8480,-2032,8608,8541,9431,9866,2025-02-17 11:21:45,0.0
-9432,-1640,8940,9025,10871,7558,2025-02-17 11:21:45,0.0
-10708,-1948,9416,8830,12188,6777,2025-02-17 11:21:46,0.0
-11044,-2320,9140,7954,13369,6507,2025-02-17 11:21:46,0.0
-11660,-1992,9284,7133,15067,6045,2025-02-17 11:21:46,0.0
-12160,-1512,8372,7276,16604,5405,2025-02-17 11:21:46,0.0
-11012,-1356,8104,7116,17629,4516,2025-02-17 11:21:46,0.0
-10896,-1300,7632,6863,17121,4020,2025-02-17 11:21:46,0.0
-12852,-1828,5668,6112,15670,4070,2025-02-17 11:21:46,0.0
-13276,-2476,4572,4752,13170,4307,2025-02-17 11:21:46,0.0
-11560,-5100,9680,1890,18296,4521,2025-02-17 11:21:46,0.0
-9592,-3608,1868,-327,11717,2693,2025-02-17 11:21:46,0.0
-13164,-3848,1800,-588,4879,1972,2025-02-17 11:21:46,0.0
-15392,-4332,3360,1046,2601,2328,2025-02-17 11:21:46,0.0
-16068,-4836,3092,4262,4856,2929,2025-02-17 11:21:46,0.0
-15008,-4668,1512,4926,4665,3141,2025-02-17 11:21:46,0.0
-13208,-2560,1740,5334,2223,2116,2025-02-17 11:21:46,0.0
-13732,-796,968,4228,-3522,2226,2025-02-17 11:21:46,0.0
-12688,-1316,3652,4344,-4267,1442,2025-02-17 11:21:46,0.0
-12092,-3164,4044,5223,-1708,460,2025-02-17 11:21:46,0.0
-13332,-2852,2948,5666,2242,158,2025-02-17 11:21:46,0.0
-11848,-2300,2468,5818,4691,-357,2025-02-17 11:21:46,0.0
-12656,-1952,2612,6202,5255,-2187,2025-02-17 11:21:46,0.0
-12276,-2048,3060,6535,4403,-3848,2025-02-17 11:21:46,0.0
-12520,-2228,3440,7752,3772,-5291,2025-02-17 11:21:46,0.0
-12772,-2708,3032,9355,4117,-5868,2025-02-17 11:21:46,0.0
-14312,-2996,2472,10326,4481,-4521,2025-02-17 11:21:46,0.0
-15236,-2932,2344,10721,4769,-1152,2025-02-17 11:21:46,0.0
-12904,-3384,1384,10642,5743,163,2025-02-17 11:21:46,0.0
-12104,-3388,1036,10567,6694,-339,2025-02-17 11:21:46,0.0
-14320,-3100,1204,11245,6679,-471,2025-02-17 11:21:46,0.0
-15056,-3404,2260,13459,5484,481,2025-02-17 11:21:46,0.0
-14908,-2976,760,14150,4804,1356,2025-02-17 11:21:46,0.0
-13568,-2972,544,12811,5600,1810,2025-02-17 11:21:46,0.0
-12380,-2540,996,12565,6269,1071,2025-02-17 11:21:46,0.0
-12156,-1992,-40,9689,6755,-763,2025-02-17 11:21:46,0.0
-12716,-3864,680,9462,5930,-1225,2025-02-17 11:21:46,0.0
-14288,-4764,1516,11398,4302,-399,2025-02-17 11:21:46,0.0
-16208,-4500,-512,12285,3554,2616,2025-02-17 11:21:46,0.0
-13520,-3200,-656,11052,5829,2194,2025-02-17 11:21:46,0.0
-14296,-2912,40,10613,4053,863,2025-02-17 11:21:46,0.0
-16292,-3412,532,10554,870,1407,2025-02-17 11:21:46,0.0
-14888,-3536,1924,11557,-1887,2654,2025-02-17 11:21:46,0.0
-13520,-3172,1796,12560,-2798,2564,2025-02-17 11:21:46,0.0
-13452,-2920,1296,13073,-2609,2093,2025-02-17 11:21:46,0.0
-13044,-2960,-648,12191,-929,1891,2025-02-17 11:21:46,0.0
-14160,-2532,-2856,10460,2178,1213,2025-02-17 11:21:46,0.0
-12240,-4444,-1708,8930,6358,1060,2025-02-17 11:21:46,0.0
-14476,-5664,-1912,9070,7378,1017,2025-02-17 11:21:46,0.0
-15824,-6728,-1696,10437,7839,1794,2025-02-17 11:21:46,0.0
-16308,-6588,-2108,13397,6185,1234,2025-02-17 11:21:46,
-15372,-376,-4124,10927,-2561,3335,2025-02-17 11:21:46,0.0
-13580,-1576,-3312,12370,-5064,3022,2025-02-17 11:21:46,0.0
-11740,-2188,-6300,12723,-4868,2657,2025-02-17 11:21:46,0.0
-11416,-2500,-3996,12242,-2775,2555,2025-02-17 11:21:46,0.0
-10948,-2412,-4052,12154,-73,2603,2025-02-17 11:21:46,0.0
-12176,-1184,-4388,10689,1848,2494,2025-02-17 11:21:46,0.0
-13836,-256,-3140,9430,3419,3160,2025-02-17 11:21:46,0.0
-13740,208,-3636,8174,4229,3677,2025-02-17 11:21:46,0.0
-12816,396,-3676,7417,4659,3626,2025-02-17 11:21:46,0.0
-11916,128,-4212,6964,5656,3467,2025-02-17 11:21:46,0.0
-11136,208,-4616,6618,7333,3312,2025-02-17 11:21:46,0.0
-10220,524,-5244,5754,9297,2653,2025-02-17 11:21:46,0.0
-11644,1152,-4632,4120,11008,1619,2025-02-17 11:21:46,0.0
-13020,208,-4420,3446,11704,1536,2025-02-17 11:21:47,0.0
-13868,-908,-2948,4451,10523,2480,2025-02-17 11:21:47,0.0
-13872,-1384,-3412,5455,8117,3690,2025-02-17 11:21:47,0.0
-13412,-816,-3808,6054,4895,4569,2025-02-17 11:21:47,0.0
-12728,-204,-3836,6216,3312,4760,2025-02-17 11:21:47,0.0
-12176,664,-3288,6282,2859,4606,2025-02-17 11:21:47,0.0
-12336,996,-2976,6161,2883,4227,2025-02-17 11:21:47,0.0
-12604,1032,-2992,6047,2637,4066,2025-02-17 11:21:47,0.0
-12376,1088,-3184,6314,1719,3916,2025-02-17 11:21:47,0.0
-12476,808,-3968,6663,646,3747,2025-02-17 11:21:47,0.0
-11620,996,-3564,6891,37,3151,2025-02-17 11:21:47,0.0
-11736,1080,-3556,7152,-1199,2583,2025-02-17 11:21:47,0.0
-11640,1460,-3228,6562,-1788,1471,2025-02-17 11:21:47,0.0
-11792,1552,-2748,5460,-1826,240,2025-02-17 11:21:47,0.0
-11000,1032,-3028,4368,-2943,-1079,2025-02-17 11:21:47,0.0
-11300,352,-1912,4654,-4267,-2057,2025-02-17 11:21:47,0.0
-12048,660,-1756,5591,-5741,-1999,2025-02-17 11:21:47,0.0
-12804,300,-940,6233,-6836,-1675,2025-02-17 11:21:47,0.0
-13380,-472,-84,6263,-6806,-1617,2025-02-17 11:21:47,0.0
-14600,-1400,-188,5173,-5582,-1251,2025-02-17 11:21:47,0.0
-13612,-1556,-1396,3653,-3308,-910,2025-02-17 11:21:47,0.0
-13408,-1120,-1848,2449,-221,-947,2025-02-17 11:21:47,0.0
-12932,-1120,-1720,1774,2784,-1291,2025-02-17 11:21:47,0.0
-13884,-1364,-1572,1890,5316,-1450,2025-02-17 11:21:47,0.0
-15696,-2180,-700,1964,7033,-736,2025-02-17 11:21:47,0.0
-16552,-2916,548,2608,4329,689,2025-02-17 11:21:47,0.0
-15404,-2552,948,3375,-165,1096,2025-02-17 11:21:47,0.0
-15244,-868,-352,4451,-2980,1364,2025-02-17 11:21:47,0.0
-14836,220,-2204,4738,-2052,1705,2025-02-17 11:21:47,0.0
-15208,-196,-3936,5737,1557,1474,2025-02-17 11:21:47,0.0
-16360,2440,-7336,4541,5132,1714,2025-02-17 11:21:47,0.0
-16620,3504,-5560,3191,6443,850,2025-02-17 11:21:47,0.0
-16436,3176,-5820,3997,5133,-76,2025-02-17 11:21:47,0.0
-15156,1892,-6968,4767,1164,-1163,2025-02-17 11:21:47,0.0
-15280,-44,-7104,5128,-2033,-1776,2025-02-17 11:21:47,0.0
-13280,-2400,-7276,3997,-4833,-1022,2025-02-17 11:21:47,0.0
-10572,-2636,-5336,2957,-8410,-1327,2025-02-17 11:21:47,0.0
-10104,-2960,-5024,2262,-12258,-1731,2025-02-17 11:21:47,0.0
-10400,-3716,-5528,565,-13566,-1398,2025-02-17 11:21:47,0.0
-10876,-3440,-4476,-993,-11261,-514,2025-02-17 11:21:47,0.0
-11336,-2196,-5260,-1977,-6351,578,2025-02-17 11:21:47,0.0
-9444,-696,-4372,-2949,1675,-52,2025-02-17 11:21:47,0.0
-9940,-548,-2308,-3079,4694,-1206,2025-02-17 11:21:47,0.0
-10612,-1100,-2500,-3475,5980,-2967,2025-02-17 11:21:47,0.0
-12560,-2712,-3676,-4032,5740,-4475,2025-02-17 11:21:47,0.0
-13660,-2912,-4192,-3929,4483,-4582,2025-02-17 11:21:47,0.0
-13852,-2868,-4308,-3274,2379,-4263,2025-02-17 11:21:47,0.0
-13836,-2844,-4052,-2604,755,-3771,2025-02-17 11:21:47,0.0
-12940,-2728,-3976,-2196,-450,-3334,2025-02-17 11:21:47,0.0
-12524,-2936,-2748,-1950,-918,-3147,2025-02-17 11:21:47,0.0
-12016,-3500,-2244,-1670,-2043,-2723,2025-02-17 11:21:47,0.0
-12088,-3636,-2280,-1214,-2454,-2145,2025-02-17 11:21:47,0.0
-11936,-3400,-1748,-762,-2496,-1400,2025-02-17 11:21:47,0.0
-11684,-3388,-1796,-655,-1522,-772,2025-02-17 11:21:47,0.0
-11252,-3636,-2096,-1128,471,-496,2025-02-17 11:21:47,0.0
-10392,-3548,-3004,-2381,1928,-694,2025-02-17 11:21:47,0.0
-11400,-3312,-1928,-3592,2834,-1095,2025-02-17 11:21:47,0.0
-11692,-3344,-1320,-4208,3413,-1396,2025-02-17 11:21:47,0.0
-13036,-3288,-468,-2956,3032,-1133,2025-02-17 11:21:47,0.0
-14100,-3284,-736,-1440,1729,358,2025-02-17 11:21:48,0.0
-13504,-2872,-1532,-471,779,1048,2025-02-17 11:21:48,0.0
-12928,-2444,-2520,-780,770,769,2025-02-17 11:21:48,0.0
-12444,-2768,-3316,-1195,1496,-33,2025-02-17 11:21:48,0.0
-12560,-3072,-3196,-1257,2384,-885,2025-02-17 11:21:48,0.0
-13252,-3132,-2704,-913,3174,-1334,2025-02-17 11:21:48,0.0
-13816,-2672,-2492,-529,2803,-1628,2025-02-17 11:21:48,0.0
-14824,-2156,-2208,-480,2195,-1677,2025-02-17 11:21:48,0.0
-15136,-2052,-2824,-509,1512,-1667,2025-02-17 11:21:48,0.0
-15024,-2392,-3548,-2395,-4112,-1484,2025-02-17 11:21:48,0.0
-14884,-3468,-4028,-2626,-5229,-1231,2025-02-17 11:21:48,0.0
-14668,-4816,-4268,-2415,-3779,-839,2025-02-17 11:21:48,0.0
-14260,-6064,-4436,-2666,-2017,-519,2025-02-17 11:21:48,0.0
-13740,-6784,-5608,-3125,-1024,388,2025-02-17 11:21:48,0.0
-12460,-7332,-7720,-3756,181,685,2025-02-17 11:21:48,0.0
-11868,-5972,-8716,-4313,1521,809,2025-02-17 11:21:48,0.0
-12156,-2940,-5908,-4903,2246,1032,2025-02-17 11:21:48,0.0
-11284,-1020,-4520,-4760,2756,1238,2025-02-17 11:21:48,0.0
-11348,724,-5392,-4453,2999,1246,2025-02-17 11:21:48,0.0
-11604,1308,-4612,-3518,3526,1417,2025-02-17 11:21:48,0.0
-12828,636,-3524,-1667,4604,1539,2025-02-17 11:21:48,0.0
-13820,-1316,-5364,-682,5267,1396,2025-02-17 11:21:48,0.0
-13660,-1864,-7172,-558,5506,1239,2025-02-17 11:21:48,0.0
-15388,-1532,-5620,-421,4616,2158,2025-02-17 11:21:48,0.0
-14548,-1512,-5796,-13,2670,2933,2025-02-17 11:21:48,0.0
-13912,-1728,-4968,547,334,3491,2025-02-17 11:21:48,0.0
-11440,-2024,-5116,996,-1490,3407,2025-02-17 11:21:48,0.0
-9720,-1904,-5100,934,-1794,2663,2025-02-17 11:21:48,
-9300,-1564,-4484,789,-2088,1852,2025-02-17 11:21:48,0.0
-9136,-1248,-3728,895,-2134,1215,2025-02-17 11:21:48,0.0
-9476,-664,-2840,1055,-1359,715,2025-02-17 11:21:48,0.0
-9976,-180,-2976,997,505,486,2025-02-17 11:21:48,0.0
-10484,84,-4104,-524,3191,-149,2025-02-17 11:21:48,0.0
-10456,52,-5528,-3501,4966,-1986,2025-02-17 11:21:48,0.0
-11960,-888,-3188,-4061,5782,-3521,2025-02-17 11:21:48,0.0
-13620,-1248,-4172,-1924,6113,-3492,2025-02-17 11:21:48,0.0
-14428,-1480,-3904,1417,5689,-1983,2025-02-17 11:21:48,0.0
-16460,-2096,-4196,4098,4567,8,2025-02-17 11:21:48,0.0
-16016,-1908,-4852,4266,4057,1152,2025-02-17 11:21:48,0.0
-15252,-1300,-7048,2279,1656,689,2025-02-17 11:21:48,0.0
-15508,-1364,-5192,1614,-3233,62,2025-02-17 11:21:48,0.0
-12820,-1732,-6404,1255,-7835,-434,2025-02-17 11:21:48,0.0
-11412,-1316,-5000,1301,-9386,-511,2025-02-17 11:21:48,0.0
-9844,476,-6060,1114,-7349,-680,2025-02-17 11:21:48,0.0
-8884,1592,-6680,592,-3875,-1302,2025-02-17 11:21:48,0.0
-9412,1720,-6224,-390,608,-1743,2025-02-17 11:21:48,0.0
-9756,1184,-5740,-1031,3242,-2634,2025-02-17 11:21:48,0.0
-10980,688,-5920,-1339,3846,-3609,2025-02-17 11:21:48,0.0
-12604,416,-6008,-1740,3208,-4029,2025-02-17 11:21:48,0.0
-13068,388,-6556,-2569,2224,-4044,2025-02-17 11:21:48,0.0
-13080,76,-6344,-3871,1134,-4114,2025-02-17 11:21:48,0.0
-13276,-128,-6028,-5208,355,-4048,2025-02-17 11:21:48,0.0
-12668,-32,-6224,-6802,-265,-4049,2025-02-17 11:21:48,0.0
-12560,-608,-6564,-9657,-778,-4539,2025-02-17 11:21:48,0.0
-13988,-1344,-7616,-11746,-723,-4538,2025-02-17 11:21:48,0.0
-14708,-1420,-8256,-14246,-1692,-3852,2025-02-17 11:21:48,0.0
-15608,-1468,-6900,-16086,-3082,-3110,2025-02-17 11:21:48,0.0
-15076,-1044,-5448,-16675,-4591,-2139,2025-02-17 11:21:48,0.0
-12552,-376,-4712,-16265,-6008,-2521,2025-02-17 11:21:48,0.0
-10876,-380,-5240,-15962,-6434,-3894,2025-02-17 11:21:48,0.0
-9888,-440,-4320,-14826,-5410,-5819,2025-02-17 11:21:48,0.0
-10152,-848,-5520,-13903,-3890,-7080,2025-02-17 11:21:49,0.0
-10676,-1192,-6116,-13363,-2709,-7051,2025-02-17 11:21:49,0.0
-10764,-1568,-5968,-13037,-1888,-6717,2025-02-17 11:21:49,0.0
-11116,-2156,-5440,-12877,-1206,-5955,2025-02-17 11:21:49,0.0
-10788,-2644,-5268,-13141,-1163,-5430,2025-02-17 11:21:49,0.0
-10676,-3172,-5512,-13799,-1071,-5372,2025-02-17 11:21:49,0.0
-10844,-3976,-5236,-14431,-754,-5257,2025-02-17 11:21:49,0.0
-11296,-3780,-5812,-14856,-152,-5011,2025-02-17 11:21:49,0.0
-11820,-3904,-6120,-15468,957,-4905,2025-02-17 11:21:49,0.0
-13128,-3928,-5848,-16414,2414,-4754,2025-02-17 11:21:49,0.0
-14084,-3808,-5376,-17238,3098,-4945,2025-02-17 11:21:49,0.0
-14328,-3168,-6196,-17959,2448,-5423,2025-02-17 11:21:49,0.0
-14756,-2544,-6256,-18310,364,-5876,2025-02-17 11:21:49,0.0
-14132,-2412,-6332,-18693,-2144,-6281,2025-02-17 11:21:49,0.0
-13204,-2720,-6088,-18960,-3896,-6673,2025-02-17 11:21:49,0.0
-11708,-2656,-6100,-19164,-5046,-6777,2025-02-17 11:21:49,0.0
-10696,-3276,-5920,-19504,-5336,-6968,2025-02-17 11:21:49,0.0
-10292,-3588,-6164,-19879,-4957,-6994,2025-02-17 11:21:49,0.0
-9980,-4324,-6084,-20187,-4201,-7036,2025-02-17 11:21:49,0.0
-10484,-4912,-5568,-20014,-2239,-6814,2025-02-17 11:21:49,0.0
-11192,-5200,-4672,-19626,116,-6342,2025-02-17 11:21:49,0.0
-11384,-5424,-4744,-19033,485,-6081,2025-02-17 11:21:49,0.0
-11840,-5236,-5344,-18923,19,-5651,2025-02-17 11:21:49,0.0
-11608,-5172,-5368,-19059,-419,-5495,2025-02-17 11:21:49,0.0
-11712,-5372,-5284,-19072,-416,-5449,2025-02-17 11:21:49,0.0
-12128,-4576,-6016,-19298,-85,-5528,2025-02-17 11:21:49,0.0
-12704,-3644,-4812,-19484,-791,-5508,2025-02-17 11:21:49,0.0
-12880,-3088,-4584,-19360,-2015,-5074,2025-02-17 11:21:49,0.0
-12952,-2628,-4328,-19494,-2662,-4887,2025-02-17 11:21:49,0.0
-12904,-2868,-4660,-19953,-2870,-4684,2025-02-17 11:21:49,0.0
-12516,-3704,-5268,-19912,-3108,-4743,2025-02-17 11:21:49,0.0
-11712,-4488,-6344,-19502,-2247,-4967,2025-02-17 11:21:49,0.0
-11536,-4684,-7208,-18876,-590,-5350,2025-02-17 11:21:49,0.0
-11728,-3956,-7188,-18611,1003,-5211,2025-02-17 11:21:49,0.0
-11952,-2828,-6124,-18949,2256,-5073,2025-02-17 11:21:49,0.0
-12456,-1692,-5128,-19278,2795,-4320,2025-02-17 11:21:49,0.0
-12284,-860,-4572,-19164,2475,-3867,2025-02-17 11:21:49,0.0
-12348,-248,-5224,-18743,1950,-3528,2025-02-17 11:21:49,0.0
-12400,128,-5876,-18165,1901,-3572,2025-02-17 11:21:49,0.0
-12420,-88,-5996,-17611,2016,-4115,2025-02-17 11:21:49,0.0
-12864,-128,-5768,-17234,2335,-4817,2025-02-17 11:21:49,0.0
-13756,72,-4488,-16761,1790,-5326,2025-02-17 11:21:49,0.0
-14540,-416,-3872,-16291,1271,-5407,2025-02-17 11:21:49,0.0
-14636,-924,-4364,-15724,407,-4740,2025-02-17 11:21:49,0.0
-14180,-1692,-4676,-15524,-507,-4300,2025-02-17 11:21:49,0.0
-13368,-1040,-4148,-15453,-1417,-4380,2025-02-17 11:21:49,0.0
-12752,-272,-4568,-15550,-1823,-4631,2025-02-17 11:21:49,0.0
-12528,-656,-4280,-15708,-1663,-5075,2025-02-17 11:21:49,0.0
