acceleration_x,acceleration_y,acceleration_z,gyroscope_x,gyroscope_y,gyroscope_z,timestamp,label
-12488,-556,-5104,-263,156,-200,2025-01-29 11:52:18,1
-12376,-604,-5144,-259,123,-193,2025-01-29 11:52:18,1
-12380,-568,-5228,-259,134,-187,2025-01-29 11:52:18,1
-12400,-600,-5144,-233,138,-216,2025-01-29 11:52:18,1
-12444,-608,-5136,-211,165,-190,2025-01-29 11:52:18,1
-12424,-644,-5156,-203,156,-187,2025-01-29 11:52:18,1
-12492,-640,-5124,-218,165,-190,2025-01-29 11:52:18,1
-12356,-624,-5216,-257,183,-204,2025-01-29 11:52:18,1
-12300,-524,-5360,-276,196,-227,2025-01-29 11:52:18,1
-12336,-540,-4996,-287,183,-216,2025-01-29 11:52:18,1
-12456,-592,-5244,-295,157,-229,2025-01-29 11:52:18,1
-12388,-544,-5120,-326,212,-258,2025-01-29 11:52:18,1
-12344,-608,-4968,-315,317,-231,2025-01-29 11:52:19,1
-12428,-640,-5100,-275,176,-252,2025-01-29 11:52:19,1
-12316,-808,-5232,-270,109,-221,2025-01-29 11:52:19,1
-12304,-796,-5140,-192,195,-212,2025-01-29 11:52:19,1
-12396,-740,-5144,-141,242,-176,2025-01-29 11:52:19,1
-12508,-692,-5052,-92,264,-160,2025-01-29 11:52:19,1
-12612,-468,-5040,-64,225,-140,2025-01-29 11:52:19,1
-12440,-612,-5092,-80,161,-134,2025-01-29 11:52:19,1
-12476,-504,-5192,-58,128,-130,2025-01-29 11:52:19,1
-12452,-584,-5228,-58,168,-105,2025-01-29 11:52:19,1
-12468,-544,-5216,-78,108,-126,2025-01-29 11:52:19,1
-12420,-492,-5184,-102,22,-134,2025-01-29 11:52:19,1
-12324,-492,-5116,-167,63,-149,2025-01-29 11:52:19,1
-12392,-560,-5104,-150,113,-153,2025-01-29 11:52:19,1
-12232,-524,-5040,-175,165,-174,2025-01-29 11:52:19,1
-12292,-420,-5092,-200,222,-210,2025-01-29 11:52:19,1
-12312,-592,-5048,-210,310,-211,2025-01-29 11:52:19,1
-12432,-648,-5064,-171,317,-176,2025-01-29 11:52:19,1
-12284,-696,-5088,-132,295,-181,2025-01-29 11:52:19,1
-12476,-700,-5156,-117,301,-183,2025-01-29 11:52:19,1
-12420,-568,-5112,-110,307,-208,2025-01-29 11:52:19,1
-12464,-592,-5164,-132,348,-217,2025-01-29 11:52:19,1
-12452,-712,-4996,-71,318,-230,2025-01-29 11:52:19,1
-12604,-664,-5048,-90,266,-207,2025-01-29 11:52:19,1
-12440,-632,-5116,-72,219,-207,2025-01-29 11:52:19,1
-12548,-608,-5064,-84,194,-204,2025-01-29 11:52:19,1
-12592,-632,-5040,-132,209,-212,2025-01-29 11:52:19,1
-12440,-580,-5160,-121,235,-217,2025-01-29 11:52:19,1
-12492,-668,-4968,-210,260,-188,2025-01-29 11:52:19,1
-12480,-608,-5248,-216,277,-166,2025-01-29 11:52:19,1
-12476,-636,-5148,-258,209,-174,2025-01-29 11:52:19,1
-12396,-568,-5168,-268,208,-211,2025-01-29 11:52:19,1
-12384,-576,-5096,-262,162,-154,2025-01-29 11:52:19,1
-12312,-636,-5136,-291,218,-168,2025-01-29 11:52:19,1
-12392,-652,-4960,-242,253,-140,2025-01-29 11:52:19,1
-12460,-616,-5048,-244,322,-114,2025-01-29 11:52:19,1
-12536,-752,-5172,-249,367,-105,2025-01-29 11:52:19,1
-12548,-776,-5088,-186,323,-77,2025-01-29 11:52:19,1
-12496,-640,-5128,-194,240,-92,2025-01-29 11:52:19,1
-12444,-556,-5148,-172,161,-56,2025-01-29 11:52:19,1
-12460,-572,-5112,-132,163,-81,2025-01-29 11:52:19,1
-12360,-536,-5128,-90,187,-75,2025-01-29 11:52:19,1
-12380,-508,-5128,-30,190,-64,2025-01-29 11:52:19,1
-12352,-608,-5200,-50,259,-96,2025-01-29 11:52:19,1
-12380,-680,-5292,14,316,-119,2025-01-29 11:52:19,1
-12388,-764,-5116,69,334,-90,2025-01-29 11:52:19,1
-12344,-604,-5244,165,307,-61,2025-01-29 11:52:19,1
-12408,-680,-5216,142,306,-74,2025-01-29 11:52:19,1
-12292,-572,-5220,192,312,-22,2025-01-29 11:52:19,1
-12272,-580,-5244,172,407,-8,2025-01-29 11:52:19,1
-12296,-740,-5248,200,499,-26,2025-01-29 11:52:19,1
-12444,-680,-5020,266,468,14,2025-01-29 11:52:19,1
-12528,-696,-5096,315,463,32,2025-01-29 11:52:19,1
-12528,-440,-5244,277,428,77,2025-01-29 11:52:19,1
-12616,-328,-4944,291,449,130,2025-01-29 11:52:19,1
-12660,-248,-5256,270,446,169,2025-01-29 11:52:19,1
-12592,-344,-5656,223,314,284,2025-01-29 11:52:19,1
-12856,-368,-5792,158,178,293,2025-01-29 11:52:19,1
-12972,-332,-5484,149,-2,305,2025-01-29 11:52:19,1
-12924,-376,-4928,260,-336,302,2025-01-29 11:52:19,1
-12708,-264,-4608,513,-1104,159,2025-01-29 11:52:20,1
-12168,-180,-4640,791,-1679,-31,2025-01-29 11:52:20,1
-12280,-156,-4568,1184,-1694,-84,2025-01-29 11:52:20,1
-12760,76,-4240,1450,-922,131,2025-01-29 11:52:20,1
-13072,652,-4040,1524,-306,474,2025-01-29 11:52:20,1
-13420,1268,-3992,1493,-426,670,2025-01-29 11:52:20,1
-13832,1524,-4036,1205,-955,910,2025-01-29 11:52:20,1
-12964,1272,-3340,1372,-1628,821,2025-01-29 11:52:20,1
-12240,1000,-2276,2038,-2397,385,2025-01-29 11:52:20,1
-11808,36,-2360,2990,-2825,-15,2025-01-29 11:52:20,1
-11684,-1288,-2520,4039,-2269,-52,2025-01-29 11:52:20,1
-11468,-2568,-3268,5520,-896,143,2025-01-29 11:52:20,1
-11808,-2488,-4000,6597,-284,265,2025-01-29 11:52:20,1
-11872,-1668,-5592,6912,-385,232,2025-01-29 11:52:20,1
-12256,-900,-6028,6620,-273,149,2025-01-29 11:52:20,1
-12976,-312,-5992,6182,608,375,2025-01-29 11:52:20,1
-12992,1352,-6456,5697,1566,398,2025-01-29 11:52:20,1
-13508,2796,-6836,4622,1825,-69,2025-01-29 11:52:20,1
-13432,2344,-5500,3130,1368,-955,2025-01-29 11:52:20,1
-13364,1260,-3744,2245,-100,-1652,2025-01-29 11:52:20,1
-13024,-632,-3216,1822,-1422,-2404,2025-01-29 11:52:20,1
-12864,-2336,-3208,1230,-1672,-2819,2025-01-29 11:52:20,1
-12872,-3160,-2168,858,-416,-2621,2025-01-29 11:52:20,1
-12060,-2912,-1888,788,941,-2374,2025-01-29 11:52:20,1
-11668,-2548,-2280,532,1721,-2150,2025-01-29 11:52:20,1
-11564,-2832,-2576,116,2220,-1905,2025-01-29 11:52:20,1
-11484,-3132,-2988,-232,3077,-1891,2025-01-29 11:52:20,1
-12372,-3416,-2588,-394,4091,-1899,2025-01-29 11:52:20,1
-13008,-3652,-2748,-215,4216,-2045,2025-01-29 11:52:20,1
-13448,-3716,-2940,-3,3203,-2065,2025-01-29 11:52:20,1
-13716,-3780,-2964,257,1500,-1792,2025-01-29 11:52:20,1
-13540,-3700,-2712,376,220,-1501,2025-01-29 11:52:20,1
-12524,-3452,-2644,427,-428,-1337,2025-01-29 11:52:20,1
-11904,-3136,-2776,248,-343,-1277,2025-01-29 11:52:20,1
-11820,-2900,-2760,-177,343,-1160,2025-01-29 11:52:20,1
-12076,-3052,-2368,-623,964,-1021,2025-01-29 11:52:20,1
-12668,-2964,-2572,-1092,940,-910,2025-01-29 11:52:20,1
-13332,-2500,-2816,-1492,532,-654,2025-01-29 11:52:20,1
-13348,-2204,-2984,-1777,92,-375,2025-01-29 11:52:20,1
-13120,-2604,-2796,-1936,-288,-421,2025-01-29 11:52:20,1
-12960,-3004,-3000,-2079,-422,-700,2025-01-29 11:52:20,1
-13032,-3508,-3052,-2140,-327,-982,2025-01-29 11:52:20,1
-13148,-4020,-3284,-2076,61,-1192,2025-01-29 11:52:20,1
-13560,-4360,-3428,-2014,845,-1431,2025-01-29 11:52:20,1
-13832,-3792,-2672,-2068,995,-1571,2025-01-29 11:52:20,1
-13740,-3316,-1924,-2126,844,-1739,2025-01-29 11:52:20,1
-13804,-3400,-1824,-2339,1047,-2170,2025-01-29 11:52:20,1
-14648,-2512,-4128,-2161,959,-3167,2025-01-29 11:52:20,1
-16212,-1812,-5800,-2797,1462,-4300,2025-01-29 11:52:20,1
-16716,-2964,-4928,-3132,684,-5642,2025-01-29 11:52:20,1
-17312,-5024,-4860,-2433,-2809,-6276,2025-01-29 11:52:20,1
-18088,-7056,-4876,-1044,-6276,-4278,2025-01-29 11:52:20,1
-17500,-7804,-5520,-421,-6380,-1325,2025-01-29 11:52:20,1
-14852,-6340,-6016,157,-5258,908,2025-01-29 11:52:20,1
-12328,-4116,-7280,-157,-4637,1568,2025-01-29 11:52:20,1
-11488,-2240,-7720,-1529,-4462,2035,2025-01-29 11:52:20,1
-10720,-964,-7084,-1449,-4479,2743,2025-01-29 11:52:21,1
-10016,-276,-7044,-1003,-4154,3415,2025-01-29 11:52:21,1
-8940,328,-7144,-1105,-2922,3430,2025-01-29 11:52:21,1
-8184,372,-6472,-1736,-683,2338,2025-01-29 11:52:21,1
-9196,372,-5860,-2419,1457,846,2025-01-29 11:52:21,1
-12224,-36,-5476,-3014,2720,469,2025-01-29 11:52:21,1
-14328,-560,-5404,-3081,3095,1268,2025-01-29 11:52:21,1
-15248,-1236,-5112,-2884,1774,2254,2025-01-29 11:52:21,1
-14884,-1336,-4444,-2529,-540,2927,2025-01-29 11:52:21,1
-12044,180,-2552,1077,1640,887,2025-01-29 11:52:21,1
-11964,464,-2204,1470,962,462,2025-01-29 11:52:21,1
-12636,148,-2152,1656,580,123,2025-01-29 11:52:21,1
-13336,-196,-1428,1830,582,137,2025-01-29 11:52:21,1
-13120,-624,-632,2231,392,252,2025-01-29 11:52:21,1
-12096,-536,-1456,2650,-646,-199,2025-01-29 11:52:21,1
-12464,236,-2128,2910,-1069,-610,2025-01-29 11:52:21,1
-13080,1276,-3244,2851,-36,-320,2025-01-29 11:52:21,1
-13612,1752,-3928,2532,1220,428,2025-01-29 11:52:21,1
-13796,1800,-3920,2183,1724,1388,2025-01-29 11:52:21,1
-13532,1136,-4368,1794,1543,2277,2025-01-29 11:52:21,1
-13332,-88,-5032,1699,1729,2852,2025-01-29 11:52:21,1
-13212,-1176,-3936,2155,2511,3233,2025-01-29 11:52:21,1
-13832,-388,-3096,2595,2211,3277,2025-01-29 11:52:21,1
-15120,640,-2860,2665,1689,3912,2025-01-29 11:52:21,1
-16420,1256,-3292,2801,1277,4801,2025-01-29 11:52:21,1
-16552,116,-4592,3239,1335,4863,2025-01-29 11:52:21,1
-16424,212,-5716,3556,-24,3743,2025-01-29 11:52:21,1
-16180,3160,-6940,3481,-2158,2800,2025-01-29 11:52:21,1
-15136,5372,-8080,2514,-2908,2454,2025-01-29 11:52:21,1
-13784,5404,-8500,1047,-1281,1858,2025-01-29 11:52:21,1
-12956,3668,-8528,-929,112,424,2025-01-29 11:52:21,1
-12740,1352,-8040,-1567,-729,-1036,2025-01-29 11:52:21,1
-10996,160,-6944,-1197,-2202,-2168,2025-01-29 11:52:21,1
-9780,-1764,-5396,-451,-2732,-2866,2025-01-29 11:52:21,1
-8696,-3972,-4860,384,-1955,-2827,2025-01-29 11:52:21,1
-8312,-5416,-5336,948,-565,-2285,2025-01-29 11:52:21,1
-9184,-4124,-5680,1329,2961,-1100,2025-01-29 11:52:21,1
-10212,-2004,-5376,1824,6018,-1090,2025-01-29 11:52:21,1
-12628,-428,-6000,1631,7186,-1868,2025-01-29 11:52:21,1
-14388,688,-6216,989,6367,-2701,2025-01-29 11:52:21,1
-15640,1404,-6092,322,3421,-3475,2025-01-29 11:52:21,1
-15680,1212,-6016,-552,-705,-3578,2025-01-29 11:52:21,1
-13956,320,-6164,-1552,-3453,-3380,2025-01-29 11:52:21,1
-11564,-1040,-5976,-2316,-4302,-3457,2025-01-29 11:52:21,1
-10352,-2072,-4608,-2448,-3391,-3535,2025-01-29 11:52:21,1
-9272,-2664,-3880,-2437,-1502,-3443,2025-01-29 11:52:21,1
-8384,-2964,-3824,-2598,591,-3754,2025-01-29 11:52:21,1
-8360,-3252,-4164,-2507,2544,-3936,2025-01-29 11:52:21,1
-9948,-3316,-4100,-2079,3986,-4060,2025-01-29 11:52:21,1
-11504,-3096,-4704,-1796,4309,-3825,2025-01-29 11:52:21,1
-13184,-2540,-4444,-1793,3614,-3161,2025-01-29 11:52:21,1
-13808,-2336,-4292,-1874,2514,-2340,2025-01-29 11:52:21,1
-13692,-2404,-4156,-1913,1270,-1627,2025-01-29 11:52:21,1
-12172,-2656,-5040,-1680,314,-970,2025-01-29 11:52:21,1
-12280,-2584,-4052,-1383,-2,-403,2025-01-29 11:52:21,1
-12004,-2240,-3600,-1309,-36,42,2025-01-29 11:52:22,1
-11528,-1836,-3664,-1430,88,346,2025-01-29 11:52:22,1
-11672,-1484,-3032,-1631,374,456,2025-01-29 11:52:22,1
-11860,-1352,-3224,-1779,411,523,2025-01-29 11:52:22,1
-12012,-1484,-3440,-2008,471,635,2025-01-29 11:52:22,1
-12004,-1972,-3860,-2269,512,686,2025-01-29 11:52:22,1
-11688,-2336,-4348,-2432,597,725,2025-01-29 11:52:22,1
-11356,-2596,-4516,-2634,657,515,2025-01-29 11:52:22,1
-11416,-2084,-4716,-2775,885,64,2025-01-29 11:52:22,1
-11760,-600,-5132,-2686,1090,-278,2025-01-29 11:52:22,1
-12756,-852,-5848,-3093,1764,-586,2025-01-29 11:52:22,1
-13140,-2052,-5240,-3184,1891,-978,2025-01-29 11:52:22,1
-14100,-2968,-4652,-3137,1432,-2006,2025-01-29 11:52:22,1
-15444,-2508,-3868,-3106,859,-2938,2025-01-29 11:52:22,1
-16804,-1360,-3364,-3286,-5,-3184,2025-01-29 11:52:22,1
-17092,-348,-3160,-3958,-652,-2684,2025-01-29 11:52:22,1
-15504,-1556,-3924,-4721,-1342,-2319,2025-01-29 11:52:22,1
-14132,-3800,-6284,-4762,-1370,-2772,2025-01-29 11:52:22,1
-14460,-5760,-5704,-4053,377,-3107,2025-01-29 11:52:22,1
-15908,-6504,-4240,-2375,814,-2791,2025-01-29 11:52:22,1
-17956,-6356,-5876,-222,-1719,-1238,2025-01-29 11:52:22,1
-18444,-4936,-8356,873,-4402,1264,2025-01-29 11:52:22,1
-15316,-3404,-8792,1291,-6096,3065,2025-01-29 11:52:22,1
-12052,-2348,-8524,1596,-7474,3336,2025-01-29 11:52:22,1
-9260,-1308,-8204,1505,-8285,3383,2025-01-29 11:52:22,1
-7460,740,-7616,642,-7230,3355,2025-01-29 11:52:22,1
-7348,3004,-7520,-905,-2322,3016,2025-01-29 11:52:22,1
-8884,3916,-7008,-2039,2905,2261,2025-01-29 11:52:22,1
-11748,2316,-6240,-2863,6151,1428,2025-01-29 11:52:22,1
-14888,172,-4652,-2793,7113,1242,2025-01-29 11:52:22,1
-16800,-1736,-3440,-1645,4727,2013,2025-01-29 11:52:22,1
-17084,-2848,-3932,-430,-759,3754,2025-01-29 11:52:22,1
-13564,-2300,-4584,887,-5180,4729,2025-01-29 11:52:22,1
-10488,-1196,-4984,1594,-6107,4439,2025-01-29 11:52:22,1
-8652,-692,-4596,2217,-4991,3976,2025-01-29 11:52:22,1
-7776,-328,-4056,2866,-2512,3655,2025-01-29 11:52:22,1
-7864,24,-3944,3453,-296,3563,2025-01-29 11:52:22,1
-8768,104,-4264,3623,1947,3720,2025-01-29 11:52:22,1
-10076,528,-3964,3611,3684,3844,2025-01-29 11:52:22,1
-11348,1152,-3872,3559,3964,3671,2025-01-29 11:52:22,1
-12284,1888,-3956,3565,3149,3197,2025-01-29 11:52:22,1
-13340,2012,-4548,3356,713,2605,2025-01-29 11:52:22,1
-13332,1760,-4596,3283,-1592,2062,2025-01-29 11:52:22,1
-12724,1328,-3640,3273,-3000,1554,2025-01-29 11:52:22,1
-11524,892,-3412,3343,-3016,1184,2025-01-29 11:52:22,1
-10740,496,-3292,3295,-2499,735,2025-01-29 11:52:22,1
-10280,212,-3144,3237,-1973,228,2025-01-29 11:52:22,1
-10632,260,-2740,3312,-1629,-264,2025-01-29 11:52:22,1
-11512,820,-2620,3424,-1268,-618,2025-01-29 11:52:22,1
-12352,1440,-2936,3251,-1009,-1145,2025-01-29 11:52:22,1
-12064,2316,-4052,2926,-1293,-1556,2025-01-29 11:52:22,1
-11696,2908,-4400,2592,-1978,-1948,2025-01-29 11:52:22,1
-11532,2860,-3936,1959,-1965,-2159,2025-01-29 11:52:22,1
-10900,1708,-3668,1668,-133,-1816,2025-01-29 11:52:22,1
-10892,436,-3044,1771,2432,-1521,2025-01-29 11:52:22,1
-12272,-560,-2448,1983,4595,-1189,2025-01-29 11:52:22,1
-14340,-664,-2424,2552,5707,-795,2025-01-29 11:52:22,1
-15736,-100,-3032,2953,5109,-497,2025-01-29 11:52:22,1
-17100,316,-3624,2979,2764,-376,2025-01-29 11:52:22,1
-17128,808,-3316,3199,-268,-129,2025-01-29 11:52:22,1
-16660,792,-3232,3578,-2242,68,2025-01-29 11:52:23,1
-15596,612,-3108,3424,-2051,486,2025-01-29 11:52:23,1
-15228,-712,-2196,3173,-490,999,2025-01-29 11:52:23,1
-15008,-1840,-3084,3396,1913,1766,2025-01-29 11:52:23,1
-16064,-996,-4060,3533,3366,2262,2025-01-29 11:52:23,1
-17656,1472,-7072,2806,3664,2436,2025-01-29 11:52:23,1
-19200,3476,-9328,797,2398,3450,2025-01-29 11:52:23,1
-18676,5132,-9876,-1224,-318,3898,2025-01-29 11:52:23,1
-16164,6216,-8844,-2492,-3836,3275,2025-01-29 11:52:23,1
-10988,4628,-7156,-2878,-6970,757,2025-01-29 11:52:23,1
-8568,632,-5880,-3250,-7964,-2490,2025-01-29 11:52:23,1
-7348,-2100,-4264,-2362,-6989,-3059,2025-01-29 11:52:23,1
-6512,-4468,-4928,-1134,-4496,-2723,2025-01-29 11:52:23,1
-6620,-5508,-6764,-495,-748,-2430,2025-01-29 11:52:23,1
-7896,-4416,-7200,-404,3343,-2151,2025-01-29 11:52:23,1
-9892,-1868,-6236,-143,6135,-2032,2025-01-29 11:52:23,1
-13152,512,-5372,-102,7236,-2066,2025-01-29 11:52:23,1
-13996,1028,-4476,-590,5431,-2305,2025-01-29 11:52:23,1
-14608,460,-4408,-1008,2290,-3284,2025-01-29 11:52:23,1
-15268,-304,-4636,-1041,-700,-4402,2025-01-29 11:52:23,1
-14992,-968,-5284,-991,-2899,-4559,2025-01-29 11:52:23,1
-13424,-1512,-5240,-1006,-4327,-4047,2025-01-29 11:52:23,1
-11408,-1360,-5248,-979,-4523,-3764,2025-01-29 11:52:23,1
-9500,-1132,-5352,-1286,-3278,-3905,2025-01-29 11:52:23,1
-9184,-956,-4696,-1699,-1339,-3921,2025-01-29 11:52:23,1
-9228,-724,-4344,-2191,514,-3786,2025-01-29 11:52:23,1
-9724,-836,-4000,-2607,2374,-3572,2025-01-29 11:52:23,1
-10384,-1172,-3400,-2915,3792,-3535,2025-01-29 11:52:23,1
-11648,-1820,-2812,-3054,4175,-3725,2025-01-29 11:52:23,1
-12904,-2228,-2700,-2987,3721,-3804,2025-01-29 11:52:23,1
-13884,-2676,-2644,-2780,2735,-3491,2025-01-29 11:52:23,1
-14692,-3020,-2380,-2378,818,-2170,2025-01-29 11:52:23,1
-13880,-2992,-2288,-1971,-468,-787,2025-01-29 11:52:23,1
-11540,-2300,-2752,-1752,-747,-100,2025-01-29 11:52:23,1
-10784,-1512,-2284,-1945,-63,335,2025-01-29 11:52:23,1
-10468,-1340,-2376,-2161,1568,860,2025-01-29 11:52:23,1
-10964,-2020,-2380,-2356,3274,1385,2025-01-29 11:52:23,1
-11792,-2848,-2868,-2115,4143,1745,2025-01-29 11:52:23,1
-12516,-3428,-3900,-1468,4243,1612,2025-01-29 11:52:23,1
-13484,-3064,-4744,-1074,3590,887,2025-01-29 11:52:23,1
-14528,-1728,-4400,-1037,2271,356,2025-01-29 11:52:23,1
-15300,-744,-3848,-1192,618,170,2025-01-29 11:52:23,1
-14932,-592,-4260,-1265,-752,-138,2025-01-29 11:52:23,1
-14716,-724,-4172,-1837,-2030,-509,2025-01-29 11:52:23,1
-13956,-424,-3760,-2462,-2900,-926,2025-01-29 11:52:23,1
-13184,192,-2956,-3125,-2720,-1492,2025-01-29 11:52:23,1
-12756,420,-3060,-3833,-2238,-1858,2025-01-29 11:52:23,1
-12460,-596,-5292,-3974,-682,-2801,2025-01-29 11:52:23,1
-12964,-3428,-8316,-4718,3669,-4245,2025-01-29 11:52:23,1
-13444,-5432,-7984,-4055,6661,-6139,2025-01-29 11:52:23,1
-16040,-6808,-6648,-2179,5363,-7516,2025-01-29 11:52:23,1
-20192,-6984,-6624,-663,75,-6300,2025-01-29 11:52:23,1
-23520,-5628,-7292,-209,-4769,-2042,2025-01-29 11:52:23,1
-19500,-2544,-5640,-499,-7701,3833,2025-01-29 11:52:23,1
-13512,-1304,-5020,-255,-9529,6222,2025-01-29 11:52:23,1
-8708,-1468,-6536,-874,-9110,7329,2025-01-29 11:52:23,1
-5244,-916,-7132,-1649,-5702,6953,2025-01-29 11:52:23,1
-3824,-88,-6560,-1713,-589,5243,2025-01-29 11:52:23,1
-4380,752,-5104,-1157,5315,2232,2025-01-29 11:52:23,1
-8068,324,-5028,-754,8775,-824,2025-01-29 11:52:23,1
-12556,392,-4740,-430,9511,-1604,2025-01-29 11:52:24,1
-15708,148,-5260,-523,8839,-603,2025-01-29 11:52:24,1
-17916,-400,-5808,-846,6451,1242,2025-01-29 11:52:24,1
-18040,-1364,-6408,-718,2614,3175,2025-01-29 11:52:24,1
-16336,-1620,-6668,-101,-1643,4273,2025-01-29 11:52:24,1
-14480,-1144,-6724,482,-4175,4322,2025-01-29 11:52:24,1
-12080,-620,-5584,1064,-5136,3844,2025-01-29 11:52:24,1
-10260,-200,-5216,1645,-5100,3188,2025-01-29 11:52:24,1
-9360,308,-4808,1956,-4125,2750,2025-01-29 11:52:24,1
-9448,564,-4536,2073,-2347,2646,2025-01-29 11:52:24,1
-9312,728,-4224,2061,-163,2624,2025-01-29 11:52:24,1
-9488,776,-4408,1939,1530,2630,2025-01-29 11:52:24,1
-11392,1104,-4596,1866,2131,2649,2025-01-29 11:52:24,1
-12092,1368,-4708,1919,1237,2586,2025-01-29 11:52:24,1
-12204,1772,-4916,1990,59,2335,2025-01-29 11:52:24,1
-11796,1716,-5064,2076,-774,1880,2025-01-29 11:52:24,1
-11580,1408,-4960,2059,-1154,1242,2025-01-29 11:52:24,1
-11708,1092,-4548,1957,-1019,814,2025-01-29 11:52:24,1
-11852,740,-4172,1936,-602,710,2025-01-29 11:52:24,1
-11724,420,-4056,2036,-238,704,2025-01-29 11:52:24,1
-11768,104,-3704,2270,18,561,2025-01-29 11:52:24,1
-11812,-36,-3660,2708,94,328,2025-01-29 11:52:24,1
-11860,-104,-3668,3170,-105,396,2025-01-29 11:52:24,1
-11772,-16,-3628,3534,-386,482,2025-01-29 11:52:24,1
-11620,420,-3712,3820,-450,522,2025-01-29 11:52:24,1
-11664,732,-3868,3987,-153,550,2025-01-29 11:52:24,1
-11712,936,-3936,4125,450,309,2025-01-29 11:52:24,1
-12428,1064,-3788,4351,811,27,2025-01-29 11:52:24,1
-13352,924,-3860,4531,813,-161,2025-01-29 11:52:24,1
-13940,472,-3772,4639,359,-181,2025-01-29 11:52:24,1
-14020,-140,-3604,4770,-403,-52,2025-01-29 11:52:24,1
-13496,-956,-3616,4976,-825,163,2025-01-29 11:52:24,1
-13004,-1908,-3248,5087,-386,130,2025-01-29 11:52:24,1
-13296,-2800,-2516,5635,312,211,2025-01-29 11:52:24,1
-13760,-3192,-1804,6708,1079,707,2025-01-29 11:52:24,1
-14024,-2468,-1192,7511,1412,1180,2025-01-29 11:52:24,1
-15012,-1224,-2496,8150,1507,1770,2025-01-29 11:52:24,1
-16576,-476,-4388,8451,1641,3186,2025-01-29 11:52:24,1
-16840,-868,-6180,8453,1073,4057,2025-01-29 11:52:24,7
-16860,-192,-7464,7808,225,4568,2025-01-29 11:52:24,7
-15752,1056,-8732,6817,-1105,4639,2025-01-29 11:52:24,7
-14808,3000,-9868,5243,-2134,4319,2025-01-29 11:52:24,7
-14304,4656,-8376,4042,-1699,3815,2025-01-29 11:52:24,7
-11208,4240,-6144,3654,-849,2158,2025-01-29 11:52:24,7
-9204,2872,-5344,3715,-1446,-514,2025-01-29 11:52:24,7
-9448,884,-5372,3675,-1905,-1586,2025-01-29 11:52:24,7
-8656,-1456,-5792,3801,-1904,-2069,2025-01-29 11:52:24,7
-8464,-3280,-6648,3894,-963,-2603,2025-01-29 11:52:24,7
-9040,-4168,-7752,3700,1023,-2619,2025-01-29 11:52:24,7
-10484,-3536,-7700,3334,3666,-1670,2025-01-29 11:52:24,7
-11572,-1496,-6108,3448,5202,-524,2025-01-29 11:52:24,7
-12488,32,-5992,3279,5276,-427,2025-01-29 11:52:24,7
-13976,1540,-5212,2718,4071,-882,2025-01-29 11:52:25,7
-12628,-2780,-5420,-5115,1012,-3931,2025-01-29 11:52:25,7
-13104,-2324,-5144,-5408,399,-3201,2025-01-29 11:52:25,7
-12492,-1428,-5084,-5751,-527,-2834,2025-01-29 11:52:25,7
-12052,-788,-5700,-6460,-1218,-2993,2025-01-29 11:52:25,7
-11708,-332,-5728,-7230,-1453,-2785,2025-01-29 11:52:25,7
-10760,-420,-5764,-8211,-891,-3021,2025-01-29 11:52:25,7
-10692,-444,-5672,-9192,-343,-3374,2025-01-29 11:52:25,7
-11024,-524,-5588,-10053,59,-3325,2025-01-29 11:52:25,7
-11424,-680,-5508,-10514,-129,-3066,2025-01-29 11:52:25,7
-11264,-1040,-5576,-10977,-501,-3014,2025-01-29 11:52:25,7
-11488,-2112,-5392,-11509,-719,-3162,2025-01-29 11:52:25,7
-11512,-3252,-5016,-11725,-859,-3237,2025-01-29 11:52:25,7
-11324,-3280,-6116,-11820,-730,-3295,2025-01-29 11:52:25,7
-10924,-2548,-6116,-11847,-597,-3485,2025-01-29 11:52:25,7
-10988,-2428,-5620,-11937,-279,-3899,2025-01-29 11:52:25,7
-11276,-2644,-5992,-12200,-332,-4491,2025-01-29 11:52:25,7
-11344,-3440,-7088,-12495,-862,-5752,2025-01-29 11:52:25,7
-11728,-3180,-7472,-12941,-1463,-6679,2025-01-29 11:52:25,7
-11136,-2128,-7548,-13789,-1647,-6868,2025-01-29 11:52:25,7
-10176,-1608,-7108,-14777,-1122,-7100,2025-01-29 11:52:25,7
-9744,-1572,-7064,-16134,-112,-7683,2025-01-29 11:52:25,7
-10556,-2488,-6928,-17786,1541,-8234,2025-01-29 11:52:25,7
-11396,-3372,-7668,-19070,2573,-8412,2025-01-29 11:52:25,7
-12104,-4320,-8184,-19889,2914,-8398,2025-01-29 11:52:25,7
-12756,-4836,-7868,-20558,2940,-7978,2025-01-29 11:52:25,7
-12840,-5244,-6932,-20949,2384,-7686,2025-01-29 11:52:25,7
-13112,-5832,-6344,-21046,1549,-7390,2025-01-29 11:52:25,7
-13156,-6548,-5776,-20856,586,-6994,2025-01-29 11:52:25,7
-13360,-7300,-6100,-20610,55,-6517,2025-01-29 11:52:25,7
-12976,-7532,-5696,-20233,-178,-6150,2025-01-29 11:52:25,7
-12876,-6112,-6996,-19303,-844,-5683,2025-01-29 11:52:25,7
-12632,-4768,-8828,-18654,-1082,-4955,2025-01-29 11:52:25,7
-11896,-3364,-10808,-17589,-700,-4772,2025-01-29 11:52:25,7
-10508,-2692,-12448,-16316,10,-5807,2025-01-29 11:52:25,7
-8996,-2680,-10148,-15090,1324,-8408,2025-01-29 11:52:25,7
-9612,-1884,-8136,-14837,2084,-11047,2025-01-29 11:52:25,7
-12132,948,-6744,-15644,2745,-12321,2025-01-29 11:52:25,7
-14148,3564,-7884,-17433,2979,-11643,2025-01-29 11:52:25,7
-13360,3320,-10904,-20687,2740,-8127,2025-01-29 11:52:25,7
-10456,996,-10444,-22665,2215,-8109,2025-01-29 11:52:25,7
-10980,-1020,-7528,-22801,2212,-8086,2025-01-29 11:52:25,7
-12388,-2732,-5360,-21236,2484,-7341,2025-01-29 11:52:25,7
-13068,-3728,-4920,-19629,3085,-6892,2025-01-29 11:52:25,7
-13096,-3772,-4548,-18217,3035,-6858,2025-01-29 11:52:25,7
-13768,-2184,-3540,-16460,2183,-6902,2025-01-29 11:52:25,7
-12928,104,-5048,-14824,566,-6609,2025-01-29 11:52:25,7
-11860,1328,-7344,-14910,-983,-6406,2025-01-29 11:52:25,7
-11000,1888,-8356,-16157,-1530,-6373,2025-01-29 11:52:25,7
-10312,1840,-6252,-17037,-1134,-6394,2025-01-29 11:52:25,7
-10568,1700,-4368,-16574,-93,-6475,2025-01-29 11:52:25,7
-10980,772,-4044,-15339,1505,-6458,2025-01-29 11:52:25,7
-11820,-1064,-4976,-14080,2640,-6229,2025-01-29 11:52:25,7
-11212,-2608,-5292,-12841,2859,-6056,2025-01-29 11:52:25,7
-10128,-2852,-5320,-11833,2956,-6251,2025-01-29 11:52:25,7
-9940,-1324,-5288,-10844,3225,-6597,2025-01-29 11:52:25,7
-10392,852,-6308,-10391,3116,-7044,2025-01-29 11:52:25,7
-11068,2776,-7240,-10293,2678,-7175,2025-01-29 11:52:25,7
-11300,3856,-7772,-10486,1674,-7143,2025-01-29 11:52:25,7
-11164,3928,-8048,-10842,800,-6823,2025-01-29 11:52:25,7
-9744,2944,-8488,-11346,307,-6505,2025-01-29 11:52:26,7
-8368,1096,-8196,-11680,139,-6853,2025-01-29 11:52:26,7
-8308,-312,-7352,-11381,-121,-7349,2025-01-29 11:52:26,7
-8972,-1332,-6540,-10335,-262,-7310,2025-01-29 11:52:26,7
-9016,-1556,-6192,-9221,-603,-7002,2025-01-29 11:52:26,7
-9152,-1664,-6028,-8314,-777,-6408,2025-01-29 11:52:26,7
-8780,-1552,-6040,-7425,-1237,-5500,2025-01-29 11:52:26,7
-8588,-1456,-4848,-6694,-1865,-4871,2025-01-29 11:52:26,7
-7960,-1224,-4604,-6140,-1133,-4669,2025-01-29 11:52:26,7
-8356,-1104,-3988,-5407,489,-4926,2025-01-29 11:52:26,7
-9012,-880,-4500,-4499,2007,-5290,2025-01-29 11:52:26,7
-9504,-612,-5476,-3422,2366,-4986,2025-01-29 11:52:26,7
-8952,-720,-6184,-2804,1648,-4307,2025-01-29 11:52:26,7
-7888,-1400,-5820,-2581,573,-4068,2025-01-29 11:52:26,7
-7168,-2336,-6092,-2612,485,-4620,2025-01-29 11:52:26,7
-7740,-1752,-7004,-3095,1357,-5389,2025-01-29 11:52:26,7
-9392,-424,-7460,-3485,1922,-5904,2025-01-29 11:52:26,7
-11956,564,-7824,-3825,2149,-5667,2025-01-29 11:52:26,7
-14316,400,-7636,-4006,2085,-3966,2025-01-29 11:52:26,7
-15832,-484,-7056,-4273,2285,-1410,2025-01-29 11:52:26,7
-15004,-1876,-6840,-4891,1732,430,2025-01-29 11:52:26,7
-12012,-1684,-4884,-5015,515,385,2025-01-29 11:52:26,7
-7864,-28,-1940,-2191,-3634,-2392,2025-01-29 11:52:26,7
-10652,-2440,-5688,-2423,-5066,-3212,2025-01-29 11:52:26,7
-10672,-2056,-4716,-2348,-5104,-1387,2025-01-29 11:52:26,7
-9092,-1728,-5952,-2137,-4841,-339,2025-01-29 11:52:26,7
-9884,-152,-6368,-2182,-5326,-1625,2025-01-29 11:52:26,7
-13860,372,-6760,-3213,-6051,-1932,2025-01-29 11:52:26,7
-15256,-156,-5508,-4191,-5432,-1337,2025-01-29 11:52:26,0.0
-13804,-1308,-4316,-3970,-4915,-933,2025-01-29 11:52:26,2
-14460,-1916,-4824,-3328,-4471,-1422,2025-01-29 11:52:26,2
-13588,-1308,-6516,-3282,-3959,-1440,2025-01-29 11:52:26,2
-14184,-292,-7164,-3724,-4322,-832,2025-01-29 11:52:26,2
-14284,-244,-6712,-4099,-5981,-512,2025-01-29 11:52:26,2
-13704,-1196,-5204,-4100,-7063,-716,2025-01-29 11:52:26,2
-1272,-2724,-3388,-3222,-181,-2006,2025-01-29 11:52:26,2
-14336,-2660,-3944,-2612,-7204,-1083,2025-01-29 11:52:26,2
-13684,-1528,-4380,-2203,-5990,-1253,2025-01-29 11:52:26,2
-13184,396,-3332,-2020,-4018,-1286,2025-01-29 11:52:26,2
-15664,568,-3708,-1848,-6174,-320,2025-01-29 11:52:26,2
-15424,-120,-3180,-1431,-7419,408,2025-01-29 11:52:26,2
-13800,-564,-2432,-1186,-7704,650,2025-01-29 11:52:26,2
-12548,-616,-1592,-809,-7424,104,2025-01-29 11:52:26,2
-14044,-480,-1204,-487,-6859,14,2025-01-29 11:52:26,2
-14828,-640,-400,-519,-5988,519,2025-01-29 11:52:26,2
-15020,-364,780,-706,-5108,906,2025-01-29 11:52:26,2
-17004,352,1172,-703,-3307,512,2025-01-29 11:52:26,2
-13880,24,-712,-1138,-3464,585,2025-01-29 11:52:26,2
-14164,52,-2652,-1677,-3887,75,2025-01-29 11:52:26,2
-15056,472,-3812,-2416,-5543,131,2025-01-29 11:52:26,2
-14124,588,-2712,-2468,-8018,-125,2025-01-29 11:52:26,2
-13560,-324,-2316,-2400,-9705,-37,2025-01-29 11:52:26,2
-14508,-380,-1732,-2087,-9142,213,2025-01-29 11:52:26,2
-15312,604,-684,-1765,-8243,374,2025-01-29 11:52:26,2
-16004,1736,-64,-1936,-8201,4,2025-01-29 11:52:26,2
-16420,1516,1200,-2026,-7989,-23,2025-01-29 11:52:26,2
-16328,44,1640,-1789,-7681,-14,2025-01-29 11:52:26,2
-15752,-960,1404,-1377,-6966,-16,2025-01-29 11:52:26,2
-15848,-200,1444,-1198,-6421,450,2025-01-29 11:52:27,2
-15772,224,2440,-866,-5938,603,2025-01-29 11:52:27,2
-15884,400,2680,-245,-5217,762,2025-01-29 11:52:27,2
-15340,548,2112,-238,-3932,586,2025-01-29 11:52:27,2
-15344,932,1812,-506,-2995,183,2025-01-29 11:52:27,2
-15460,1184,2060,-905,-2899,-528,2025-01-29 11:52:27,2
-15744,1276,2580,-1101,-3326,-1383,2025-01-29 11:52:27,2
-16392,540,2816,-1043,-3693,-1786,2025-01-29 11:52:27,2
-16368,160,2976,-753,-4534,-1460,2025-01-29 11:52:27,2
-15308,-168,2060,-232,-5555,-1355,2025-01-29 11:52:27,2
-14228,-100,1560,229,-6646,-1424,2025-01-29 11:52:27,2
-13912,-180,2156,224,-7296,-1381,2025-01-29 11:52:27,2
-9232,560,2424,108,-6381,-1339,2025-01-29 11:52:27,2
-12136,492,3412,-159,-4272,-1250,2025-01-29 11:52:27,2
-12272,724,2832,19,-2520,-1289,2025-01-29 11:52:27,2
-12328,472,1988,-215,-1777,-1249,2025-01-29 11:52:27,2
-12904,440,1924,-318,-2760,-967,2025-01-29 11:52:27,2
-13708,428,3272,-570,-3850,-892,2025-01-29 11:52:27,2
-13968,216,3332,-534,-3621,-853,2025-01-29 11:52:27,2
-12272,236,4312,-568,-2612,-1073,2025-01-29 11:52:27,2
-13732,-1212,3868,-647,-2533,-1519,2025-01-29 11:52:27,2
-13820,-1368,3792,-322,-3026,-1271,2025-01-29 11:52:27,2
-13564,-1056,4208,-107,-3524,-595,2025-01-29 11:52:27,2
-13036,-376,4356,39,-3456,-175,2025-01-29 11:52:27,2
-13172,8,4328,-74,-2379,-4,2025-01-29 11:52:27,2
-13800,-272,5148,-221,-775,-216,2025-01-29 11:52:27,2
-14884,-524,5372,-117,-53,-182,2025-01-29 11:52:27,2
-15300,-664,5264,-2,-113,-124,2025-01-29 11:52:27,2
-14912,-804,4920,197,-515,-198,2025-01-29 11:52:27,2
-14076,-776,4560,292,-1243,-401,2025-01-29 11:52:27,2
-13720,-428,4336,119,-1792,-425,2025-01-29 11:52:27,2
-12960,-32,4644,-70,-2455,-172,2025-01-29 11:52:27,2
-12768,-4,4796,-162,-2255,-157,2025-01-29 11:52:27,2
-12676,-516,4824,-286,-1135,-425,2025-01-29 11:52:27,2
-13320,-1044,5348,-166,-405,-294,2025-01-29 11:52:27,2
-13700,-1336,5616,-136,-314,6,2025-01-29 11:52:27,2
-13308,-1392,5736,-134,-529,40,2025-01-29 11:52:27,2
-12516,-1336,5644,20,-440,-94,2025-01-29 11:52:27,2
-12608,-1080,5568,218,287,-318,2025-01-29 11:52:27,2
-13184,-924,5324,375,819,-474,2025-01-29 11:52:27,2
-13544,-740,5084,446,696,-480,2025-01-29 11:52:27,2
-13672,-692,5052,458,278,-517,2025-01-29 11:52:27,2
-13516,-528,4996,435,37,-496,2025-01-29 11:52:27,2
-13284,-408,5080,343,46,-508,2025-01-29 11:52:27,2
-13312,-248,5168,384,200,-494,2025-01-29 11:52:27,2
-13272,-264,5252,413,262,-501,2025-01-29 11:52:27,2
-13532,-224,5316,423,225,-455,2025-01-29 11:52:27,2
-13432,-468,5344,447,402,-356,2025-01-29 11:52:27,2
-13496,-528,5376,462,531,-291,2025-01-29 11:52:27,2
-13732,-596,5244,490,663,-318,2025-01-29 11:52:27,2
-13884,-744,4912,521,644,-283,2025-01-29 11:52:27,2
-13584,-624,4892,456,431,-345,2025-01-29 11:52:27,2
-13456,-456,4852,415,429,-355,2025-01-29 11:52:27,2
-13368,-656,4868,383,546,-266,2025-01-29 11:52:27,2
-13484,-584,4612,319,520,-175,2025-01-29 11:52:27,2
-13672,-528,4384,286,533,-123,2025-01-29 11:52:27,2
-13756,-544,4348,176,365,-63,2025-01-29 11:52:27,2
-13828,-544,4396,142,254,-42,2025-01-29 11:52:27,2
-13684,-528,4368,121,144,-32,2025-01-29 11:52:27,2
-13444,-504,4496,55,154,-94,2025-01-29 11:52:27,2
-13452,-400,4656,22,256,-179,2025-01-29 11:52:27,2
-13544,-412,4492,-32,281,-195,2025-01-29 11:52:27,2
-13712,-308,4592,-88,159,-170,2025-01-29 11:52:27,2
-13688,-264,4540,-119,67,-68,2025-01-29 11:52:27,2
-13580,-200,4656,-177,39,-37,2025-01-29 11:52:27,2
-13364,-124,4584,-262,99,-107,2025-01-29 11:52:28,2
-13556,-28,4744,-284,168,-121,2025-01-29 11:52:28,2
-13688,-220,4736,-326,220,-117,2025-01-29 11:52:28,2
-13812,-328,4912,-366,241,-71,2025-01-29 11:52:28,2
-13748,-456,4800,-407,217,-25,2025-01-29 11:52:28,2
-13772,-584,4892,-393,182,-20,2025-01-29 11:52:28,2
-13644,-564,4852,-444,66,-20,2025-01-29 11:52:28,2
-13544,-532,4920,-432,102,-77,2025-01-29 11:52:28,2
-13508,-464,4828,-444,154,-128,2025-01-29 11:52:28,2
-13560,-376,4688,-449,222,-186,2025-01-29 11:52:28,2
-13644,-396,4604,-456,221,-213,2025-01-29 11:52:28,2
-13688,-400,4752,-419,176,-120,2025-01-29 11:52:28,2
-13584,-308,4580,-422,125,-90,2025-01-29 11:52:28,2
-13548,-332,4712,-422,41,-64,2025-01-29 11:52:28,2
-13600,-340,4776,-440,35,-34,2025-01-29 11:52:28,2
-13600,-336,4632,-454,10,-101,2025-01-29 11:52:28,2
-13496,-260,4756,-450,11,-87,2025-01-29 11:52:28,2
-13684,-236,4832,-447,15,-66,2025-01-29 11:52:28,2
-13596,-232,4808,-405,-11,-52,2025-01-29 11:52:28,2
-13512,-240,4828,-411,-38,-67,2025-01-29 11:52:28,2
-13476,-384,4868,-422,23,-76,2025-01-29 11:52:28,2
-13596,-344,4928,-387,84,-88,2025-01-29 11:52:28,2
-13448,-292,4776,-381,162,-151,2025-01-29 11:52:28,2
-13212,-500,4552,-466,72,-204,2025-01-29 11:52:28,2
-13456,-440,4848,-392,121,-204,2025-01-29 11:52:28,2
-13412,-420,5028,-366,194,-217,2025-01-29 11:52:28,2
-13680,-440,4876,-329,299,-227,2025-01-29 11:52:28,2
-13632,-412,4660,-286,195,-270,2025-01-29 11:52:28,2
-13576,-400,4516,-221,36,-207,2025-01-29 11:52:28,2
-13600,-340,4800,-203,35,-201,2025-01-29 11:52:28,2
-13588,-460,4748,-196,25,-188,2025-01-29 11:52:28,2
-13480,-292,4860,-225,15,-197,2025-01-29 11:52:28,2
-13468,-528,4888,-202,58,-235,2025-01-29 11:52:28,2
-13512,-440,4940,-171,150,-245,2025-01-29 11:52:28,2
-13708,-524,4884,-180,216,-229,2025-01-29 11:52:28,2
-13644,-504,4776,-191,195,-164,2025-01-29 11:52:28,2
-13592,-440,4684,-159,157,-135,2025-01-29 11:52:28,2
-13500,-496,4744,-153,128,-170,2025-01-29 11:52:28,2
-13592,-372,4696,-122,112,-181,2025-01-29 11:52:28,2
-13488,-424,4732,-115,130,-187,2025-01-29 11:52:28,2
-13536,-352,4788,-155,165,-199,2025-01-29 11:52:28,2
-13472,-376,4800,-144,183,-232,2025-01-29 11:52:28,2
-13548,-460,4832,-145,174,-262,2025-01-29 11:52:28,2
-13560,-476,4784,-156,194,-244,2025-01-29 11:52:28,2
-13540,-460,4848,-132,174,-197,2025-01-29 11:52:28,2
-13608,-432,4708,-132,162,-194,2025-01-29 11:52:28,2
-13480,-388,4900,-127,192,-169,2025-01-29 11:52:28,2
-13624,-296,4864,-159,213,-179,2025-01-29 11:52:28,2
-13488,-380,4880,-172,212,-146,2025-01-29 11:52:28,2
-13556,-500,4816,-169,224,-167,2025-01-29 11:52:28,2
-13568,-440,4832,-197,212,-150,2025-01-29 11:52:28,2
-13540,-500,4828,-187,202,-130,2025-01-29 11:52:28,2
-13544,-396,4828,-215,191,-172,2025-01-29 11:52:28,2
-13424,-396,4804,-188,189,-168,2025-01-29 11:52:28,2
-13556,-448,4880,-199,206,-139,2025-01-29 11:52:28,2
-13596,-452,4712,-217,210,-157,2025-01-29 11:52:28,2
-13592,-376,4720,-220,196,-162,2025-01-29 11:52:28,2
-13460,-484,4780,-222,176,-143,2025-01-29 11:52:28,2
-13544,-464,4720,-235,146,-117,2025-01-29 11:52:28,2
-13556,-368,4896,-247,135,-164,2025-01-29 11:52:28,2
-13496,-464,4756,-237,165,-168,2025-01-29 11:52:28,2
-13552,-416,4808,-250,137,-148,2025-01-29 11:52:29,2
-13584,-464,4692,-266,150,-137,2025-01-29 11:52:29,2
-13560,-320,4796,-257,166,-155,2025-01-29 11:52:29,2
-13564,-268,4828,-252,151,-148,2025-01-29 11:52:29,2
-13616,-348,4908,-247,165,-160,2025-01-29 11:52:29,2
-13672,-488,4724,-255,138,-130,2025-01-29 11:52:29,2
-13628,-416,4896,-269,162,-153,2025-01-29 11:52:29,2
-13676,-428,4808,-242,154,-184,2025-01-29 11:52:29,2
-13576,-416,4696,-266,142,-144,2025-01-29 11:52:29,2
-13592,-420,4736,-276,167,-137,2025-01-29 11:52:29,2
-13540,-344,4772,-268,152,-121,2025-01-29 11:52:29,2
-13612,-304,4980,-270,122,-122,2025-01-29 11:52:29,2
-13584,-388,4820,-287,195,-137,2025-01-29 11:52:29,2
-13484,-480,4864,-307,240,-121,2025-01-29 11:52:29,2
-13624,-388,4792,-266,196,-136,2025-01-29 11:52:29,2
-13436,-320,4776,-268,94,-90,2025-01-29 11:52:29,2
-13512,-324,4876,-252,102,-159,2025-01-29 11:52:29,2
-13636,-376,5008,-247,163,-228,2025-01-29 11:52:29,2
-13648,-364,4700,-224,191,-252,2025-01-29 11:52:29,2
-13644,-356,4432,-205,7,-181,2025-01-29 11:52:29,2
-13600,-372,4676,-197,-41,-117,2025-01-29 11:52:29,2
-13544,-320,4864,-221,-64,-122,2025-01-29 11:52:29,2
-13504,-412,4764,-217,-82,-86,2025-01-29 11:52:29,2
-13480,-428,4936,-204,15,-143,2025-01-29 11:52:29,2
-13516,-428,5040,-210,126,-164,2025-01-29 11:52:29,2
-13496,-372,4940,-225,179,-165,2025-01-29 11:52:29,2
-13588,-416,4896,-209,153,-146,2025-01-29 11:52:29,2
-13628,-548,4856,-218,94,-145,2025-01-29 11:52:29,2
-13612,-364,4736,-221,71,-129,2025-01-29 11:52:29,2
-13588,-400,4912,-217,105,-136,2025-01-29 11:52:29,2
-13580,-436,4864,-208,100,-147,2025-01-29 11:52:29,2
-13508,-444,4896,-229,116,-157,2025-01-29 11:52:29,2
-13540,-396,4864,-237,114,-212,2025-01-29 11:52:29,2
-13596,-412,4952,-232,167,-208,2025-01-29 11:52:29,2
-13636,-440,4720,-198,136,-195,2025-01-29 11:52:29,2
-13708,-460,4784,-159,133,-182,2025-01-29 11:52:29,2
-13616,-440,4644,-177,110,-192,2025-01-29 11:52:29,2
-13512,-372,4556,-188,-86,-257,2025-01-29 11:52:29,2
-13464,-296,4656,-177,-167,-406,2025-01-29 11:52:29,2
-13680,-168,4816,-103,-135,-525,2025-01-29 11:52:29,2
-13920,-228,4736,-94,-135,-632,2025-01-29 11:52:29,2
-14092,-336,4556,-48,-176,-610,2025-01-29 11:52:29,2
-13472,-268,4460,-103,-806,-417,2025-01-29 11:52:29,2
-13112,-268,4288,-102,-1282,-530,2025-01-29 11:52:29,2
-13224,-472,4944,-38,-1607,-543,2025-01-29 11:52:29,2
-13120,-588,5244,29,-1399,-374,2025-01-29 11:52:29,2
-13032,-472,5508,18,-907,-263,2025-01-29 11:52:29,2
-13152,-348,5888,0,-435,-137,2025-01-29 11:52:29,2
-13528,-348,5808,-67,-103,-24,2025-01-29 11:52:29,2
-13636,-308,5664,-190,55,114,2025-01-29 11:52:29,2
-13488,-448,5328,-270,141,164,2025-01-29 11:52:29,2
-13368,-636,5204,-343,33,135,2025-01-29 11:52:29,2
-13436,-884,5112,-391,-33,82,2025-01-29 11:52:29,2
-13380,-844,4980,-427,92,90,2025-01-29 11:52:29,2
-13084,-700,5100,-530,32,166,2025-01-29 11:52:29,2
-12704,-640,5112,-597,217,237,2025-01-29 11:52:29,2
-12644,-344,5144,-702,563,128,2025-01-29 11:52:29,2
-12628,-424,5208,-675,1085,-87,2025-01-29 11:52:29,2
-12948,-516,5360,-712,1347,-260,2025-01-29 11:52:29,2
-13276,-736,5108,-766,1396,-206,2025-01-29 11:52:30,2
-13136,-520,5212,-818,1622,-144,2025-01-29 11:52:30,2
-13276,-460,5780,-666,2135,-32,2025-01-29 11:52:30,2
-13220,-264,4976,-920,2767,19,2025-01-29 11:52:30,2
-12872,112,4512,-1017,3496,79,2025-01-29 11:52:30,2
-13244,-112,4784,-1179,4293,16,2025-01-29 11:52:30,2
-13412,-300,4972,-1252,5238,-45,2025-01-29 11:52:30,2
-13756,-428,5036,-1105,6410,-239,2025-01-29 11:52:30,2
-13596,-512,4516,-840,6775,-247,2025-01-29 11:52:30,2
-14680,-548,4472,-768,6583,171,2025-01-29 11:52:30,2
-14724,-520,4600,-974,6258,775,2025-01-29 11:52:30,2
-14088,-60,3904,-1162,5594,1368,2025-01-29 11:52:30,2
-14200,892,3896,-1406,5280,1846,2025-01-29 11:52:30,2
-13852,1352,4528,-1375,6087,1915,2025-01-29 11:52:30,2
-14152,604,4832,-933,6991,2019,2025-01-29 11:52:30,2
-15264,-592,3852,-734,7788,1860,2025-01-29 11:52:30,2
-15056,-1020,3536,-573,7768,1710,2025-01-29 11:52:30,2
-14568,-912,2364,-570,7417,1681,2025-01-29 11:52:30,2
-14140,520,1780,-1007,7928,2218,2025-01-29 11:52:30,2
-13500,464,2432,-1295,8983,2182,2025-01-29 11:52:30,2
-13700,-452,2172,-1320,10741,1631,2025-01-29 11:52:30,2
-14412,-1564,1876,-1027,14152,539,2025-01-29 11:52:30,2
-16116,-1440,1376,-374,16830,-85,2025-01-29 11:52:30,2
-17584,-16,-48,-310,18874,-298,2025-01-29 11:52:30,2
-16916,812,-44,-636,18747,-298,2025-01-29 11:52:30,2
-26320,976,-760,-638,17037,213,2025-01-29 11:52:30,2
-16828,-296,-668,-682,15468,16,2025-01-29 11:52:30,2
-16768,-372,-1300,-96,14270,-470,2025-01-29 11:52:30,2
-17680,-28,-3064,190,13375,-584,2025-01-29 11:52:30,2
-17296,140,-3504,305,11827,-123,2025-01-29 11:52:30,2
-15916,372,-3296,385,10278,300,2025-01-29 11:52:30,2
-15036,504,-4616,747,9472,229,2025-01-29 11:52:30,2
-14552,468,-5640,1144,8708,-23,2025-01-29 11:52:30,2
-14048,344,-6108,1320,8659,-216,2025-01-29 11:52:30,2
-14248,340,-6236,1453,8523,-118,2025-01-29 11:52:30,2
-14024,484,-6188,1580,8117,16,2025-01-29 11:52:30,2
-13688,696,-6116,1643,7616,131,2025-01-29 11:52:30,2
-12444,916,-6600,1628,6585,-65,2025-01-29 11:52:30,2
-11160,1216,-6768,1665,5648,-446,2025-01-29 11:52:30,2
-11096,956,-6960,1564,5609,-822,2025-01-29 11:52:30,2
-11744,1028,-6516,1302,6236,-1061,2025-01-29 11:52:30,2
-11720,872,-6500,859,7485,-984,2025-01-29 11:52:30,2
-10988,104,-6836,417,7814,-854,2025-01-29 11:52:30,2
-10824,-264,-6940,246,7878,-559,2025-01-29 11:52:30,2
-10048,-508,-6896,307,8153,-505,2025-01-29 11:52:30,2
-9832,-92,-7956,423,8164,-707,2025-01-29 11:52:30,2
-10128,284,-8768,491,7426,-953,2025-01-29 11:52:30,2
-10584,172,-9240,377,6364,-1068,2025-01-29 11:52:30,2
-10436,348,-9792,21,4861,-964,2025-01-29 11:52:30,2
-10520,504,-9400,-230,3433,-661,2025-01-29 11:52:30,2
-9476,268,-9400,-524,2001,-501,2025-01-29 11:52:30,2
-9200,280,-9120,-671,813,-337,2025-01-29 11:52:30,2
-9340,-84,-8108,-742,1417,-493,2025-01-29 11:52:30,2
-9516,-360,-8296,-885,2815,-843,2025-01-29 11:52:30,2
-9492,-668,-8404,-903,3008,-1159,2025-01-29 11:52:30,2
-9940,-644,-9152,-902,2132,-1384,2025-01-29 11:52:30,1
-10536,-304,-9256,-689,847,-1506,2025-01-29 11:52:30,1
-16628,-1396,-9360,-446,-1565,-1092,2025-01-29 11:52:30,1
-10284,-620,-9228,-264,238,-1488,2025-01-29 11:52:30,1
-10512,-760,-9268,-17,-63,-1579,2025-01-29 11:52:30,1
-10744,-848,-9044,328,-326,-1533,2025-01-29 11:52:30,1
-10624,-888,-9176,369,-427,-1461,2025-01-29 11:52:31,1
-11032,-684,-9072,367,-1442,-1397,2025-01-29 11:52:31,1
-11520,-436,-8688,604,-3315,-1231,2025-01-29 11:52:31,1
-10440,-476,-9300,473,-5024,-1013,2025-01-29 11:52:31,1
-10224,-420,-9284,368,-6504,-833,2025-01-29 11:52:31,1
-10992,-748,-8864,259,-6847,-546,2025-01-29 11:52:31,1
-10828,-1152,-8224,262,-7205,-445,2025-01-29 11:52:31,1
-11288,-1348,-7556,279,-7687,-491,2025-01-29 11:52:31,1
-10416,-1188,-7720,388,-8189,-560,2025-01-29 11:52:31,1
-11668,-1056,-7104,511,-5991,-852,2025-01-29 11:52:31,1
-11904,-968,-6656,511,-6039,-924,2025-01-29 11:52:31,1
-11588,-1076,-6088,585,-7147,-1064,2025-01-29 11:52:31,1
-11348,-1464,-6352,514,-8420,-1329,2025-01-29 11:52:31,1
-11124,-1628,-5540,319,-10076,-1574,2025-01-29 11:52:31,1
-10504,-1732,-5168,236,-11318,-1844,2025-01-29 11:52:31,1
-10364,-1852,-4768,191,-11555,-2022,2025-01-29 11:52:31,1
-10076,-1868,-4864,10,-10287,-1612,2025-01-29 11:52:31,1
-10168,-1548,-4288,-22,-8497,-928,2025-01-29 11:52:31,1
-9544,-1532,-4360,-12,-6880,-309,2025-01-29 11:52:31,1
-8812,-1844,-4688,2,-5200,126,2025-01-29 11:52:31,1
-8936,-2468,-4048,557,-3880,441,2025-01-29 11:52:31,1
-8600,-3104,-6604,897,-2215,692,2025-01-29 11:52:31,1
-7928,-3204,-8860,869,-332,734,2025-01-29 11:52:31,1
-7784,-1524,-9344,484,519,816,2025-01-29 11:52:31,1
-7108,980,-7916,-273,-651,1359,2025-01-29 11:52:31,1
-8248,3404,-7020,-1208,-1309,2270,2025-01-29 11:52:31,1
-8420,4916,-6796,-2405,408,2902,2025-01-29 11:52:31,1
-8224,4752,-5708,-4493,5141,2021,2025-01-29 11:52:31,1
-8220,2272,-3884,-4761,7720,-112,2025-01-29 11:52:31,1
-9532,-228,-2572,-3892,7948,-1826,2025-01-29 11:52:31,1
-12072,-1896,-2396,-2251,9079,-2536,2025-01-29 11:52:31,1
-14108,-2264,-3404,-1397,10127,-1991,2025-01-29 11:52:31,1
-15780,-1092,-3860,-812,9934,-488,2025-01-29 11:52:31,1
-17036,552,-5032,-304,5708,1083,2025-01-29 11:52:31,1
-11976,720,-8224,-387,4253,2089,2025-01-29 11:52:31,1
-13784,1348,-5988,-74,-1134,2256,2025-01-29 11:52:31,1
-12292,272,-4376,354,-5604,882,2025-01-29 11:52:31,1
-11784,-528,-2964,988,-5679,260,2025-01-29 11:52:31,1
-10752,-768,-2612,1770,-4758,14,2025-01-29 11:52:31,1
-9936,-500,-3000,2352,-3461,-166,2025-01-29 11:52:31,1
-9620,308,-3568,2675,-1676,-179,2025-01-29 11:52:31,1
-10172,1608,-4088,2596,1210,-199,2025-01-29 11:52:31,1
-11256,2644,-3952,2206,3243,-534,2025-01-29 11:52:31,1
-12652,2748,-4664,1567,3040,-998,2025-01-29 11:52:31,1
-13356,2704,-5324,1047,1482,-1233,2025-01-29 11:52:31,1
-13456,2180,-5508,460,-709,-1412,2025-01-29 11:52:31,1
-13504,1928,-5028,-156,-2134,-1324,2025-01-29 11:52:31,1
-13136,1440,-3820,-397,-2668,-1176,2025-01-29 11:52:31,1
-12816,1272,-3720,-563,-2498,-1146,2025-01-29 11:52:31,1
-12692,1540,-3816,-850,-2136,-1165,2025-01-29 11:52:31,1
-13720,1976,-3188,-1041,-1303,-880,2025-01-29 11:52:31,1
-14716,1868,-2464,-1275,-280,-93,2025-01-29 11:52:31,1
-15136,-344,-516,-270,193,720,2025-01-29 11:52:31,1
-14536,-1864,-1716,1138,148,287,2025-01-29 11:52:31,1
-14960,-2372,-4096,2176,1936,-95,2025-01-29 11:52:31,1
-16272,-1300,-6304,2563,5044,349,2025-01-29 11:52:31,1
-16948,876,-8768,1759,7712,1264,2025-01-29 11:52:31,1
-18304,3840,-12424,-315,9230,2763,2025-01-29 11:52:31,1
-22324,7340,-12484,-3082,5132,4350,2025-01-29 11:52:31,1
-12064,6152,-9620,-4192,-840,1770,2025-01-29 11:52:32,1
-7864,3088,-8332,-3567,-7433,-3333,2025-01-29 11:52:32,1
-7716,872,-7908,-2494,-10444,-6966,2025-01-29 11:52:32,1
-7932,-1704,-6360,-1640,-10592,-7716,2025-01-29 11:52:32,1
-8056,-2880,-5520,-1452,-7585,-6375,2025-01-29 11:52:32,1
-7900,-2444,-6792,-2066,-2847,-4329,2025-01-29 11:52:32,1
-7268,-1192,-7600,-3189,2099,-3309,2025-01-29 11:52:32,1
-8476,-1356,-7168,-4150,5085,-3780,2025-01-29 11:52:32,1
-10084,-1928,-5580,-4185,6093,-4157,2025-01-29 11:52:32,1
-12092,-2640,-5676,-3638,6256,-4452,2025-01-29 11:52:32,1
-13548,-3188,-6200,-3350,4935,-4698,2025-01-29 11:52:32,1
-13632,-3284,-6892,-2749,1880,-4827,2025-01-29 11:52:32,1
-14332,-3124,-6448,-2013,-2082,-4047,2025-01-29 11:52:32,1
-13312,-2536,-6580,-1892,-4165,-3054,2025-01-29 11:52:32,1
-11060,-1532,-6516,-2015,-4830,-2883,2025-01-29 11:52:32,1
-9604,-848,-7180,-2312,-4422,-3102,2025-01-29 11:52:32,1
-8668,-448,-7320,-3106,-2473,-3337,2025-01-29 11:52:32,1
-8704,-788,-6712,-4154,968,-3802,2025-01-29 11:52:32,1
-9208,-1436,-5416,-4751,2740,-4356,2025-01-29 11:52:32,1
-10356,-2180,-5664,-4950,3120,-4710,2025-01-29 11:52:32,1
-11508,-2752,-5808,-5033,3035,-4879,2025-01-29 11:52:32,1
-12188,-2908,-6220,-5151,2564,-4731,2025-01-29 11:52:32,1
-12676,-2388,-5844,-5356,1783,-4280,2025-01-29 11:52:32,1
-12524,-1752,-5884,-5609,766,-3785,2025-01-29 11:52:32,1
-12020,-1448,-5736,-5988,-241,-3540,2025-01-29 11:52:32,1
-11704,-1364,-5108,-6273,-803,-3117,2025-01-29 11:52:32,1
-11096,-1796,-5168,-6444,-681,-2695,2025-01-29 11:52:32,1
-10244,-2620,-4940,-6456,140,-2407,2025-01-29 11:52:32,1
-10048,-3240,-5352,-6203,903,-2155,2025-01-29 11:52:32,1
-9844,-3336,-5228,-6020,1743,-1934,2025-01-29 11:52:32,1
-9760,-2808,-5528,-5899,2631,-2194,2025-01-29 11:52:32,1
-10928,-2052,-5564,-5888,3315,-2491,2025-01-29 11:52:32,1
-12108,-1272,-5776,-6022,3716,-2323,2025-01-29 11:52:32,1
-12560,-1184,-6180,-6233,3711,-2115,2025-01-29 11:52:32,1
-12832,-1408,-6080,-6443,3302,-2375,2025-01-29 11:52:32,1
-12872,-2032,-6420,-6498,2269,-2852,2025-01-29 11:52:32,1
-13160,-2140,-7132,-6047,685,-3506,2025-01-29 11:52:32,1
-13544,-2260,-7212,-5748,-610,-3911,2025-01-29 11:52:32,1
-13896,-1956,-6440,-5997,-1281,-4118,2025-01-29 11:52:32,1
-14200,-1592,-5592,-6522,-1528,-4260,2025-01-29 11:52:32,1
-14460,-1320,-4812,-7048,-1584,-4536,2025-01-29 11:52:32,1
-14720,-1792,-5008,-7460,-1383,-4877,2025-01-29 11:52:32,1
-14208,-3480,-6968,-7030,-711,-5576,2025-01-29 11:52:32,1
-14080,-5596,-7312,-6259,168,-6244,2025-01-29 11:52:32,1
-14808,-6644,-6904,-5053,385,-6626,2025-01-29 11:52:32,1
-16872,-5812,-6836,-3912,-908,-5400,2025-01-29 11:52:32,1
-18000,-4004,-8080,-3476,-3489,-2303,2025-01-29 11:52:32,1
-15392,-2580,-9280,-3535,-6722,397,2025-01-29 11:52:32,1
-11632,-2760,-9696,-3207,-8476,808,2025-01-29 11:52:32,1
-8196,-2824,-9676,-3167,-8832,-468,2025-01-29 11:52:32,1
-6408,-2132,-8956,-3478,-8446,-1532,2025-01-29 11:52:32,1
-5928,-628,-8128,-3795,-7294,-1965,2025-01-29 11:52:32,1
-6496,940,-8240,-4214,-4593,-1564,2025-01-29 11:52:32,1
-7500,1956,-9364,-5399,1548,-648,2025-01-29 11:52:32,1
-8104,1480,-9288,-6545,6345,-764,2025-01-29 11:52:32,1
-9940,192,-7976,-6579,8961,-1363,2025-01-29 11:52:32,1
-11964,-992,-6728,-6148,9491,-1507,2025-01-29 11:52:32,1
-13776,-2308,-5692,-5465,8621,-1094,2025-01-29 11:52:32,1
-14340,-3508,-5920,-4680,5531,-439,2025-01-29 11:52:32,1
-15020,-3588,-6460,-3603,1748,469,2025-01-29 11:52:32,1
-14356,-2536,-7160,-2522,-1685,1321,2025-01-29 11:52:32,1
-13340,-1004,-7404,-2266,-3915,1633,2025-01-29 11:52:33,1
-12108,232,-6512,-2014,-4789,1697,2025-01-29 11:52:33,1
-10380,908,-6576,-1892,-5111,1590,2025-01-29 11:52:33,1
-9644,1076,-5436,-2076,-3951,1288,2025-01-29 11:52:33,1
-9244,796,-4892,-2324,-1683,872,2025-01-29 11:52:33,1
-9160,568,-4676,-2502,782,306,2025-01-29 11:52:33,1
-10056,4,-4656,-2447,2035,-14,2025-01-29 11:52:33,1
-10800,-948,-4580,-2235,2130,38,2025-01-29 11:52:33,1
-11140,-1272,-4136,-1691,1183,-209,2025-01-29 11:52:33,1
-11356,-1020,-4436,-1121,-346,-520,2025-01-29 11:52:33,1
-11232,-332,-4708,-655,-1828,-898,2025-01-29 11:52:33,1
-11196,-400,-4036,-212,-2488,-1143,2025-01-29 11:52:33,1
-11184,-552,-3452,351,-2597,-1313,2025-01-29 11:52:33,1
-11088,-508,-3792,659,-2408,-1312,2025-01-29 11:52:33,1
-11204,-616,-3776,829,-1992,-1229,2025-01-29 11:52:33,1
-11088,-920,-3588,1035,-1395,-1136,2025-01-29 11:52:33,1
-11320,-420,-3476,1133,-785,-1189,2025-01-29 11:52:33,1
-11836,-132,-3884,1119,-448,-965,2025-01-29 11:52:33,1
-12004,188,-5268,1129,248,-554,2025-01-29 11:52:33,1
-12636,92,-5440,721,1129,-74,2025-01-29 11:52:33,1
-13800,-456,-4816,665,2433,688,2025-01-29 11:52:33,1
-14992,-1444,-4844,919,3235,1689,2025-01-29 11:52:33,1
-15188,-2444,-5380,1191,2990,2319,2025-01-29 11:52:33,1
-15700,-1056,-5392,1666,1530,3032,2025-01-29 11:52:33,1
-16220,292,-4188,1989,352,4048,2025-01-29 11:52:33,1
-15064,760,-3032,2670,-65,3901,2025-01-29 11:52:33,1
-14368,-360,-4244,3256,177,2920,2025-01-29 11:52:33,1
-14032,-184,-6760,3871,1300,2466,2025-01-29 11:52:33,1
-14756,1360,-8600,3346,2743,2644,2025-01-29 11:52:33,1
-14912,3072,-9220,2318,3892,2923,2025-01-29 11:52:33,1
-15204,4204,-9272,538,4213,2775,2025-01-29 11:52:33,1
-14292,4408,-9136,-733,1947,1196,2025-01-29 11:52:33,1
-13064,3620,-10232,-899,-1320,-867,2025-01-29 11:52:33,1
-12512,1652,-10904,-1482,-4002,-1947,2025-01-29 11:52:33,1
-10804,-168,-8568,-1351,-6008,-2093,2025-01-29 11:52:33,1
-9364,-1832,-6696,-429,-7468,-1998,2025-01-29 11:52:33,1
-7588,-3480,-5572,574,-7696,-1826,2025-01-29 11:52:33,1
-6772,-4408,-5728,1398,-5011,-1563,2025-01-29 11:52:33,1
-7280,-4124,-7352,1336,108,-1196,2025-01-29 11:52:33,1
-7592,-3052,-7672,920,4936,-1202,2025-01-29 11:52:33,1
-9140,-1636,-7320,459,6872,-1627,2025-01-29 11:52:33,1
-11736,-292,-7252,-155,6457,-2318,2025-01-29 11:52:33,1
-13124,96,-7248,-1042,4793,-3164,2025-01-29 11:52:33,1
-13944,-128,-6692,-1786,1666,-4222,2025-01-29 11:52:33,1
-14164,-860,-6468,-1915,-1873,-5086,2025-01-29 11:52:33,1
-13796,-1416,-6524,-2081,-4102,-5078,2025-01-29 11:52:33,1
-12080,-1784,-5736,-2413,-5724,-4717,2025-01-29 11:52:33,1
-9960,-2068,-5432,-2764,-6466,-4604,2025-01-29 11:52:33,1
-8680,-2156,-5528,-3087,-5374,-4562,2025-01-29 11:52:33,1
-7736,-2296,-5804,-3653,-2315,-4701,2025-01-29 11:52:33,1
-7392,-2408,-6132,-4244,506,-4890,2025-01-29 11:52:33,1
-7876,-2540,-5676,-4663,2899,-5076,2025-01-29 11:52:33,1
-9876,-2456,-5184,-4646,4922,-4866,2025-01-29 11:52:33,1
-11244,-2940,-5396,-4650,5730,-4677,2025-01-29 11:52:33,1
-12520,-3572,-5060,-4503,5159,-4636,2025-01-29 11:52:33,1
-13452,-4396,-4596,-4159,3377,-4246,2025-01-29 11:52:33,1
-14432,-4612,-4644,-3750,1036,-3056,2025-01-29 11:52:33,1
-13184,-4040,-4428,-2997,-982,-1409,2025-01-29 11:52:33,1
-11192,-2536,-4664,-2966,-1500,-900,2025-01-29 11:52:33,1
-11028,-1972,-4116,-3282,-1117,-668,2025-01-29 11:52:34,1
-10556,-1724,-4428,-3727,-270,-519,2025-01-29 11:52:34,1
-10660,-2064,-4688,-4149,476,-445,2025-01-29 11:52:34,1
-10292,-2412,-4756,-4055,752,-457,2025-01-29 11:52:34,1
-10304,-3172,-5416,-3862,1320,-748,2025-01-29 11:52:34,1
-10572,-3412,-5620,-3520,2166,-654,2025-01-29 11:52:34,1
-11484,-4068,-5496,-3128,3084,-353,2025-01-29 11:52:34,1
-12628,-4376,-5292,-2968,3707,-435,2025-01-29 11:52:34,1
-13812,-3880,-4724,-2997,3370,-929,2025-01-29 11:52:34,1
-15276,-2672,-4636,-3036,2582,-1580,2025-01-29 11:52:34,1
-15292,-1784,-7868,-2871,2291,-3508,2025-01-29 11:52:34,1
-15432,-2124,-10376,-2456,2176,-5447,2025-01-29 11:52:34,1
-16228,-4776,-10180,-1777,1045,-6430,2025-01-29 11:52:34,1
-17368,-7668,-8320,-838,-494,-5821,2025-01-29 11:52:34,1
-18108,-9176,-7904,272,-2271,-3102,2025-01-29 11:52:34,1
-18408,-8012,-8296,1016,-4137,1898,2025-01-29 11:52:34,1
-12840,-4312,-9912,1044,-6102,4409,2025-01-29 11:52:34,1
-10616,-1712,-10208,435,-7623,4496,2025-01-29 11:52:34,1
-8148,192,-9720,-310,-8723,4179,2025-01-29 11:52:34,1
-6400,1408,-8912,-874,-8583,3429,2025-01-29 11:52:34,1
-5228,2036,-8732,-1226,-6445,2064,2025-01-29 11:52:34,1
-5024,1112,-8220,-1495,-2750,35,2025-01-29 11:52:34,1
-7176,-824,-7188,-1840,1668,-1480,2025-01-29 11:52:34,1
-10084,-1844,-5288,-1958,4822,-1209,2025-01-29 11:52:34,1
-12080,-2576,-4908,-1455,6315,-471,2025-01-29 11:52:34,1
-13400,-2604,-6128,-1092,6092,314,2025-01-29 11:52:34,1
-14876,-1636,-7200,-1205,3649,1279,2025-01-29 11:52:34,1
-15376,-192,-7204,-1188,309,2357,2025-01-29 11:52:34,1
-14304,940,-7016,-1312,-3086,3051,2025-01-29 11:52:34,1
-12268,836,-6416,-1175,-4962,2720,2025-01-29 11:52:34,1
-10644,176,-6376,-1056,-5827,1848,2025-01-29 11:52:34,1
-9928,-984,-5056,-874,-5489,1329,2025-01-29 11:52:34,1
-9148,-1900,-4084,-271,-3451,1626,2025-01-29 11:52:34,1
-9252,-1880,-3764,329,-769,2085,2025-01-29 11:52:34,1
-9460,-1392,-4084,930,2034,2219,2025-01-29 11:52:34,1
-10448,-568,-4580,1407,3411,2329,2025-01-29 11:52:34,1
-11312,-392,-5248,1714,3322,2496,2025-01-29 11:52:34,1
-11680,-368,-5016,1837,2086,2413,2025-01-29 11:52:34,1
-11572,-588,-4796,2062,621,2034,2025-01-29 11:52:34,1
-11288,-524,-4644,2485,-531,1515,2025-01-29 11:52:34,1
-10548,-468,-4520,2737,-922,897,2025-01-29 11:52:34,1
-10752,-348,-4308,2914,-562,448,2025-01-29 11:52:34,1
-10920,-320,-4248,3009,33,292,2025-01-29 11:52:34,1
-11156,-240,-4440,3047,192,191,2025-01-29 11:52:34,1
-11488,-164,-4724,3146,-189,194,2025-01-29 11:52:34,1
-11804,-332,-4628,3249,-650,145,2025-01-29 11:52:34,1
-12000,-484,-4212,3615,-1209,38,2025-01-29 11:52:34,1
-12052,-664,-3776,4109,-1500,-110,2025-01-29 11:52:34,1
-13040,-1888,-3312,5240,1322,1143,2025-01-29 11:52:34,1
-13820,-2140,-3332,5628,2958,1928,2025-01-29 11:52:34,1
-14544,-2032,-3592,5770,3722,2387,2025-01-29 11:52:34,1
-15264,-1044,-3996,5807,3249,2680,2025-01-29 11:52:34,1
-15532,628,-4552,5696,1510,2909,2025-01-29 11:52:34,1
-14796,2192,-4480,5501,-764,2499,2025-01-29 11:52:34,1
-14340,2724,-6364,4836,-1468,1912,2025-01-29 11:52:34,1
-14528,1352,-8848,3101,269,1298,2025-01-29 11:52:34,1
-15876,1192,-8884,1118,2114,1140,2025-01-29 11:52:35,1
-18260,1592,-9720,-1050,3713,2116,2025-01-29 11:52:35,1
-19044,1924,-11100,-2831,4071,3511,2025-01-29 11:52:35,1
-18520,2248,-11348,-4497,2392,4665,2025-01-29 11:52:35,1
-15648,2496,-9184,-5163,-2448,4450,2025-01-29 11:52:35,1
-11164,1992,-6068,-4123,-7881,2206,2025-01-29 11:52:35,1
-7816,-352,-6536,-2626,-10375,-641,2025-01-29 11:52:35,1
-6292,-3024,-5748,-1133,-11163,-2451,2025-01-29 11:52:35,1
-5728,-5572,-5424,591,-9615,-3042,2025-01-29 11:52:35,1
-6224,-7540,-5560,2592,-4153,-2397,2025-01-29 11:52:35,1
-7668,-6708,-6224,3319,3199,-992,2025-01-29 11:52:35,1
-8376,-3328,-6924,3591,7373,165,2025-01-29 11:52:35,1
-10108,-1012,-7940,2897,9057,384,2025-01-29 11:52:35,1
-12028,360,-7532,1481,8788,437,2025-01-29 11:52:35,1
-12768,108,-6372,538,5292,-214,2025-01-29 11:52:35,1
-13440,-928,-6608,577,853,-1112,2025-01-29 11:52:35,1
-13352,-1644,-7500,629,-1680,-1410,2025-01-29 11:52:35,1
-11852,-2104,-8176,549,-2700,-1394,2025-01-29 11:52:35,1
-10788,-2276,-7140,314,-2541,-1549,2025-01-29 11:52:35,1
-10004,-2024,-6116,31,-1294,-1747,2025-01-29 11:52:35,1
-9604,-2064,-5748,-453,443,-2067,2025-01-29 11:52:35,1
-9784,-2068,-5344,-660,1629,-2345,2025-01-29 11:52:35,1
-10320,-1984,-5352,-833,2285,-2546,2025-01-29 11:52:35,1
-10796,-2228,-5308,-1181,2884,-2640,2025-01-29 11:52:35,1
-11248,-2780,-4996,-1311,3350,-2642,2025-01-29 11:52:35,1
-11924,-3320,-4416,-1241,3447,-2427,2025-01-29 11:52:35,1
-12296,-3572,-4372,-1082,3162,-2105,2025-01-29 11:52:35,1
-12184,-3472,-4268,-904,2523,-1645,2025-01-29 11:52:35,1
-12148,-3296,-4836,-891,2080,-1070,2025-01-29 11:52:35,1
-12224,-2272,-4228,-893,1689,-770,2025-01-29 11:52:35,1
-12292,-1448,-4644,-1125,1380,-352,2025-01-29 11:52:35,1
-12356,-1116,-4608,-1585,1252,277,2025-01-29 11:52:35,1
-11916,-1392,-4792,-2086,1279,503,2025-01-29 11:52:35,1
-12112,-1920,-5060,-2412,1248,421,2025-01-29 11:52:35,1
-12376,-2472,-4968,-2517,1247,225,2025-01-29 11:52:35,1
-12448,-2248,-5092,-2255,980,-92,2025-01-29 11:52:35,1
-13400,-2240,-5044,-2173,-21,3,2025-01-29 11:52:35,1
-13380,-2420,-4736,-2052,-906,421,2025-01-29 11:52:35,1
-13012,-2324,-4864,-2111,-1340,37,2025-01-29 11:52:35,1
-13424,-1756,-5252,-2829,-1603,-764,2025-01-29 11:52:35,1
-14056,-460,-5704,-3447,-1610,-1630,2025-01-29 11:52:35,1
-13860,512,-7264,-3898,-1896,-2825,2025-01-29 11:52:35,1
-13680,-816,-8000,-4519,-2388,-3829,2025-01-29 11:52:35,1
-11876,-3156,-7828,-4374,-2918,-4523,2025-01-29 11:52:35,1
-12092,-5272,-7372,-3355,-2247,-5161,2025-01-29 11:52:35,1
-13744,-6132,-8104,-2267,-5,-4686,2025-01-29 11:52:35,1
-16184,-4964,-9108,-2392,1906,-1760,2025-01-29 11:52:35,1
-14876,-3564,-8536,-2680,112,251,2025-01-29 11:52:35,1
-12788,-2356,-9040,-2665,-3490,316,2025-01-29 11:52:35,1
-11484,-940,-9000,-2842,-5622,86,2025-01-29 11:52:35,1
-9764,148,-7984,-3108,-6267,69,2025-01-29 11:52:35,1
-8128,1120,-6996,-3122,-5654,-9,2025-01-29 11:52:35,1
-7248,1528,-6700,-3130,-3816,-220,2025-01-29 11:52:35,1
-6748,1020,-7044,-3208,296,-826,2025-01-29 11:52:35,1
-7760,-432,-7124,-2995,4723,-1421,2025-01-29 11:52:35,1
-10012,-1396,-6880,-2748,7740,-1285,2025-01-29 11:52:35,1
-11696,-2032,-7152,-2707,8915,-1012,2025-01-29 11:52:35,1
-13576,-2176,-7460,-2777,8461,-756,2025-01-29 11:52:35,1
-15180,-1740,-7608,-2574,5044,299,2025-01-29 11:52:35,1
-14676,-72,-7460,-2102,-592,1471,2025-01-29 11:52:35,1
-13364,892,-7808,-2213,-3488,1630,2025-01-29 11:52:35,1
-11048,1416,-7196,-2209,-4932,1371,2025-01-29 11:52:35,1
-9448,1124,-6620,-2160,-4440,807,2025-01-29 11:52:35,1
-8300,104,-5868,-2209,-2626,265,2025-01-29 11:52:35,1
-8664,-1192,-5016,-1942,1232,-218,2025-01-29 11:52:36,1
-9636,-1584,-4572,-1454,3541,-247,2025-01-29 11:52:36,1
-10900,-1484,-4684,-976,4235,-166,2025-01-29 11:52:36,1
-12008,-1092,-4984,-481,4056,-39,2025-01-29 11:52:36,1
-12820,-624,-5484,-85,3167,-83,2025-01-29 11:52:36,1
-13456,-392,-5908,130,1825,-183,2025-01-29 11:52:36,1
-13276,-372,-5772,385,201,-343,2025-01-29 11:52:36,1
-12588,-592,-5504,623,-852,-711,2025-01-29 11:52:36,1
-11948,-824,-5080,719,-992,-1017,2025-01-29 11:52:36,1
-10740,-684,-4908,812,-752,-1487,2025-01-29 11:52:36,1
-10224,-208,-5536,523,-678,-2159,2025-01-29 11:52:36,1
-10900,608,-5564,-19,-131,-2635,2025-01-29 11:52:36,1
-11688,1372,-5560,-564,400,-2626,2025-01-29 11:52:36,1
-12452,1616,-5660,-1123,359,-2521,2025-01-29 11:52:36,1
-12636,1212,-5212,-1762,-288,-2687,2025-01-29 11:52:36,1
-12660,292,-5012,-2191,-1069,-2679,2025-01-29 11:52:36,1
-11996,-736,-5296,-2439,-1516,-2677,2025-01-29 11:52:36,1
-11528,-812,-5692,-2301,-1326,-2678,2025-01-29 11:52:36,1
-11308,-744,-6260,-2148,-512,-2671,2025-01-29 11:52:36,1
-11344,-1084,-6364,-2136,734,-2722,2025-01-29 11:52:36,1
-11944,-2284,-5328,-1913,1805,-2741,2025-01-29 11:52:36,1
-12696,-2688,-5960,-1326,2568,-2563,2025-01-29 11:52:36,0.0
-14032,-2332,-7608,-1106,3178,-1624,2025-01-29 11:52:36,0.0
-14584,-1928,-8656,-983,3726,-189,2025-01-29 11:52:36,7
-14148,-728,-9556,-1215,3068,705,2025-01-29 11:52:36,7
-14268,836,-9552,-2229,1653,1337,2025-01-29 11:52:36,7
-12324,1840,-7748,-2149,-567,1345,2025-01-29 11:52:36,7
-9776,884,-6568,-876,-2297,-965,2025-01-29 11:52:36,7
-10116,-592,-7396,-252,-1799,-2929,2025-01-29 11:52:36,7
-10352,-1384,-7808,-47,-1030,-3346,2025-01-29 11:52:36,7
-10656,-1192,-8752,-448,-200,-3102,2025-01-29 11:52:36,7
-10280,24,-8844,-1469,50,-2921,2025-01-29 11:52:36,7
-9928,1516,-8960,-3167,121,-3383,2025-01-29 11:52:36,7
-9780,2200,-9060,-5166,194,-3952,2025-01-29 11:52:36,7
-9732,1960,-8904,-6604,118,-4663,2025-01-29 11:52:36,7
-10304,1064,-9072,-8065,281,-5553,2025-01-29 11:52:36,7
-11000,-448,-8620,-9384,561,-6600,2025-01-29 11:52:36,7
-11780,-1812,-8824,-10084,209,-7502,2025-01-29 11:52:36,7
-12328,-2872,-9392,-10554,-1108,-8029,2025-01-29 11:52:36,7
-12216,-3448,-9188,-10831,-2691,-7992,2025-01-29 11:52:36,7
-11660,-3312,-8604,-10823,-3730,-7628,2025-01-29 11:52:36,7
-10388,-2344,-8452,-11169,-4071,-7440,2025-01-29 11:52:36,7
-9420,-1488,-8468,-11925,-3853,-7494,2025-01-29 11:52:36,7
-8672,-1020,-8708,-13023,-3126,-7765,2025-01-29 11:52:36,7
-8576,-1420,-9280,-15631,-349,-8519,2025-01-29 11:52:36,7
-9160,-1928,-9096,-16633,619,-8824,2025-01-29 11:52:36,7
-9760,-2408,-9040,-17399,900,-9249,2025-01-29 11:52:36,7
-10456,-3000,-9156,-17907,543,-9693,2025-01-29 11:52:36,7
-10840,-3708,-9268,-17989,-253,-9990,2025-01-29 11:52:36,7
-10800,-4392,-9308,-18050,-1279,-10023,2025-01-29 11:52:36,7
-10456,-4884,-9200,-18214,-1820,-10043,2025-01-29 11:52:36,7
-10160,-5388,-8392,-18180,-1509,-10263,2025-01-29 11:52:36,7
-10064,-5232,-8176,-17945,-990,-10349,2025-01-29 11:52:36,7
-10244,-4584,-8744,-17833,-199,-10299,2025-01-29 11:52:36,7
-10024,-3380,-8376,-17773,199,-10237,2025-01-29 11:52:36,7
-10004,-2828,-8272,-17972,477,-10664,2025-01-29 11:52:36,7
-10576,-2912,-8288,-18497,227,-11506,2025-01-29 11:52:36,7
-11216,-3032,-8100,-18781,-669,-12040,2025-01-29 11:52:36,7
-11460,-3428,-8360,-19161,-2030,-12227,2025-01-29 11:52:36,7
-11244,-4384,-8408,-19419,-3346,-12232,2025-01-29 11:52:36,7
-11012,-5032,-8116,-19582,-4077,-12090,2025-01-29 11:52:36,7
-10404,-5496,-7904,-19758,-4006,-11839,2025-01-29 11:52:36,7
-9984,-6024,-7544,-19924,-3486,-11588,2025-01-29 11:52:36,7
-10464,-6296,-6732,-19987,-2552,-10910,2025-01-29 11:52:37,7
-10856,-5896,-6728,-20234,-2622,-9677,2025-01-29 11:52:37,7
-10556,-5352,-6852,-20570,-2891,-8444,2025-01-29 11:52:37,7
-10312,-4948,-7152,-20799,-2488,-7577,2025-01-29 11:52:37,7
-10448,-5564,-7272,-20701,-1732,-7433,2025-01-29 11:52:37,7
-11048,-5704,-8160,-19702,-1457,-7793,2025-01-29 11:52:37,7
-11364,-5636,-8016,-18195,-2211,-8402,2025-01-29 11:52:37,7
-11624,-4544,-7436,-16461,-3544,-8557,2025-01-29 11:52:37,7
-11096,-2668,-8048,-15794,-3854,-7966,2025-01-29 11:52:37,7
-9744,-1436,-7904,-15869,-2768,-7798,2025-01-29 11:52:37,7
-8940,-1160,-7588,-16197,-754,-8553,2025-01-29 11:52:37,7
-9436,-932,-7308,-16267,1143,-9390,2025-01-29 11:52:37,7
-10236,-540,-7264,-16450,2098,-9735,2025-01-29 11:52:37,7
-10992,-152,-6612,-16853,2555,-10100,2025-01-29 11:52:37,7
-11548,60,-7088,-17022,2277,-10357,2025-01-29 11:52:37,7
-11832,300,-7752,-16826,1854,-10550,2025-01-29 11:52:37,7
-12284,148,-8204,-16692,1296,-10783,2025-01-29 11:52:37,7
-12884,132,-8304,-17043,1100,-10667,2025-01-29 11:52:37,7
-12984,260,-8800,-17610,496,-10139,2025-01-29 11:52:37,7
-12980,-168,-9480,-18211,-471,-9623,2025-01-29 11:52:37,7
-12712,-1032,-9220,-18404,-1538,-9210,2025-01-29 11:52:37,7
-12624,-1824,-7856,-17914,-2342,-8782,2025-01-29 11:52:37,7
-12304,-2184,-7056,-17331,-2942,-8150,2025-01-29 11:52:37,7
-11932,-2264,-6080,-16838,-2976,-7606,2025-01-29 11:52:37,7
-11612,-2084,-5192,-16096,-3013,-7430,2025-01-29 11:52:37,7
-11620,-1628,-4984,-15080,-3128,-7259,2025-01-29 11:52:37,7
-11404,-1208,-5412,-14406,-3372,-7045,2025-01-29 11:52:37,7
-10988,-648,-5868,-13795,-3393,-6829,2025-01-29 11:52:37,7
-10492,-300,-6204,-13280,-3056,-6705,2025-01-29 11:52:37,7
-10544,168,-6240,-12969,-2075,-6619,2025-01-29 11:52:37,7
-10996,64,-5712,-12629,-894,-6436,2025-01-29 11:52:37,7
-11560,-284,-5548,-12120,-302,-6256,2025-01-29 11:52:37,7
-11656,-800,-5616,-11466,-257,-6131,2025-01-29 11:52:37,7
-11704,-1072,-6036,-10751,-572,-6079,2025-01-29 11:52:37,7
-11892,-820,-6136,-10007,-1059,-5799,2025-01-29 11:52:37,7
-11732,-500,-6108,-9294,-1131,-5349,2025-01-29 11:52:37,7
-11508,-216,-6380,-8827,-585,-5162,2025-01-29 11:52:37,7
-11760,-28,-6460,-8635,-15,-4993,2025-01-29 11:52:37,7
-11972,-336,-5996,-8457,300,-4667,2025-01-29 11:52:37,7
-11760,-976,-5452,-7938,-129,-4503,2025-01-29 11:52:37,7
-11620,-1100,-5080,-7120,-1019,-4326,2025-01-29 11:52:37,7
-11224,-844,-5600,-6427,-1337,-4314,2025-01-29 11:52:37,7
-10816,-792,-6276,-6034,-1093,-4430,2025-01-29 11:52:37,7
-10632,-592,-6552,-5614,-604,-4603,2025-01-29 11:52:37,7
-10500,-264,-7132,-5609,43,-4879,2025-01-29 11:52:37,7
-10340,-532,-7524,-5914,317,-5375,2025-01-29 11:52:37,7
-10284,-1616,-7628,-6159,-137,-6221,2025-01-29 11:52:37,7
-10632,-2468,-7880,-6251,-762,-6735,2025-01-29 11:52:37,7
-11492,-2868,-8068,-6252,-652,-6713,2025-01-29 11:52:37,7
-11724,-2128,-8184,-6095,-734,-5987,2025-01-29 11:52:37,7
-12164,-1572,-7276,-5900,-542,-5670,2025-01-29 11:52:37,7
-12692,-1444,-5952,-5337,-75,-5215,2025-01-29 11:52:37,7
-12324,-1828,-5760,-4144,123,-4534,2025-01-29 11:52:37,7
-11556,-2888,-6320,-3533,398,-4364,2025-01-29 11:52:37,7
-11276,-3852,-5844,-2775,1385,-4246,2025-01-29 11:52:37,7
-11556,-3516,-6304,-1875,2462,-3970,2025-01-29 11:52:37,7
-11804,-2960,-7172,-1776,2687,-3683,2025-01-29 11:52:37,7
-12196,-2216,-6656,-1733,2119,-3986,2025-01-29 11:52:37,7
-13272,-1968,-6008,-1760,1364,-3882,2025-01-29 11:52:37,7
-13488,-1756,-5656,-1667,368,-3256,2025-01-29 11:52:37,7
-12980,-1676,-5916,-1714,-900,-2504,2025-01-29 11:52:37,7
-11828,-1792,-6456,-2173,-1642,-1736,2025-01-29 11:52:38,7
-10436,-2384,-5648,-2668,-1269,-906,2025-01-29 11:52:38,7
-9880,-3092,-5040,-2851,-115,-377,2025-01-29 11:52:38,7
-10016,-3104,-4924,-2873,1172,79,2025-01-29 11:52:38,7
-10576,-3080,-4832,-2875,2176,392,2025-01-29 11:52:38,7
-11416,-3176,-5384,-2842,2808,630,2025-01-29 11:52:38,7
-12152,-3572,-6160,-2503,3066,755,2025-01-29 11:52:38,7
-12860,-3424,-7448,-1874,3234,513,2025-01-29 11:52:38,7
-13640,-2316,-8824,-1471,2574,526,2025-01-29 11:52:38,7
-14256,-1344,-8840,-1389,620,949,2025-01-29 11:52:38,7
-13008,-1232,-8396,-1085,-1644,1281,2025-01-29 11:52:38,7
-12036,-1628,-7668,-534,-2663,1265,2025-01-29 11:52:38,7
-10860,-2236,-7120,76,-2276,1021,2025-01-29 11:52:38,7
-10080,-2784,-6504,787,-917,727,2025-01-29 11:52:38,7
-9944,-2740,-6948,1234,527,534,2025-01-29 11:52:38,0.0
-10504,-2432,-7228,1315,1118,554,2025-01-29 11:52:38,0.0
-11472,-1892,-7052,1174,1171,635,2025-01-29 11:52:38,0.0
-12044,-1116,-6948,957,498,717,2025-01-29 11:52:38,0.0
-12360,-880,-6884,757,-581,653,2025-01-29 11:52:38,0.0
-12208,-644,-6760,600,-1495,392,2025-01-29 11:52:38,0.0
-11880,-532,-6772,476,-1959,201,2025-01-29 11:52:38,0.0
-11044,-820,-6748,272,-1916,-92,2025-01-29 11:52:38,0.0
-10804,-1024,-6532,-11,-1402,-177,2025-01-29 11:52:38,0.0
-10564,-1240,-6780,-273,-561,-142,2025-01-29 11:52:38,0.0
-10624,-1424,-7012,-512,298,-120,2025-01-29 11:52:38,0.0
-10888,-1524,-7092,-586,895,-165,2025-01-29 11:52:38,0.0
-11492,-1504,-6876,-545,1195,-205,2025-01-29 11:52:38,0.0
-11988,-1552,-6800,-412,796,-254,2025-01-29 11:52:38,0.0
-12148,-1524,-6800,-279,106,-223,2025-01-29 11:52:38,0.0
-12020,-1360,-7136,-205,-483,-118,2025-01-29 11:52:38,0.0
-11664,-1240,-7084,-224,-662,-58,2025-01-29 11:52:38,0.0
-11352,-1248,-7236,-273,-518,-71,2025-01-29 11:52:38,0.0
-11116,-1416,-7136,-272,-49,-104,2025-01-29 11:52:38,1
-11096,-1264,-7104,-244,322,-183,2025-01-29 11:52:38,1
-11128,-1368,-6792,-236,689,-199,2025-01-29 11:52:38,1
-11424,-1280,-6908,-105,862,-180,2025-01-29 11:52:38,1
-11592,-1448,-6832,-127,866,-89,2025-01-29 11:52:38,1
-11740,-1340,-6908,-99,713,2,2025-01-29 11:52:38,1
-11816,-1068,-7152,-181,322,-63,2025-01-29 11:52:38,1
-11756,-1224,-6856,-253,-48,-92,2025-01-29 11:52:38,1
-11480,-1248,-6840,-134,-281,-92,2025-01-29 11:52:38,1
-11232,-1156,-7020,-135,-230,-113,2025-01-29 11:52:38,1
-11240,-1416,-6984,-155,-67,-153,2025-01-29 11:52:38,1
-11080,-1420,-7168,-203,113,-184,2025-01-29 11:52:38,1
-11244,-1424,-7068,-220,222,-182,2025-01-29 11:52:38,1
-11388,-1264,-7060,-240,284,-189,2025-01-29 11:52:38,1
-11508,-1280,-7116,-304,305,-227,2025-01-29 11:52:38,1
-11636,-1284,-6928,-292,233,-219,2025-01-29 11:52:38,1
-11708,-1264,-6880,-278,87,-244,2025-01-29 11:52:38,1
-11544,-1312,-6992,-324,-37,-250,2025-01-29 11:52:38,1
-11384,-1404,-6788,-338,-18,-245,2025-01-29 11:52:38,1
-11308,-1596,-6876,-311,75,-194,2025-01-29 11:52:38,1
-11268,-1512,-6864,-289,281,-218,2025-01-29 11:52:38,1
-11444,-1496,-6960,-317,411,-246,2025-01-29 11:52:38,1
-11476,-1520,-6988,-281,493,-239,2025-01-29 11:52:38,1
-11804,-1312,-6904,-184,438,-208,2025-01-29 11:52:38,1
-11760,-1248,-6884,-213,232,-159,2025-01-29 11:52:38,1
-11596,-1360,-6888,-252,60,-194,2025-01-29 11:52:38,1
-11480,-1336,-7044,-254,45,-200,2025-01-29 11:52:38,1
-11404,-1356,-6944,-205,149,-164,2025-01-29 11:52:38,1
-11308,-1428,-7072,-193,235,-135,2025-01-29 11:52:38,1
-11336,-1316,-6880,-206,360,-174,2025-01-29 11:52:38,1
-11520,-1380,-6928,-185,365,-195,2025-01-29 11:52:39,1
-11560,-1312,-6624,-120,335,-182,2025-01-29 11:52:39,1
-11728,-1516,-6852,-102,207,-118,2025-01-29 11:52:39,1
-11492,-1344,-6748,-79,148,-110,2025-01-29 11:52:39,1
-11472,-1192,-6724,-79,159,-129,2025-01-29 11:52:39,1
-11456,-1252,-6828,-53,211,-154,2025-01-29 11:52:39,1
-11316,-1448,-7048,13,119,-129,2025-01-29 11:52:39,1
-11340,-1324,-6984,-43,279,-131,2025-01-29 11:52:39,1
-11476,-1232,-7060,-52,454,-115,2025-01-29 11:52:39,1
-11512,-1292,-6944,-52,476,-123,2025-01-29 11:52:39,1
-11484,-1228,-6852,-46,440,-102,2025-01-29 11:52:39,1
-11536,-1324,-6728,-74,365,-130,2025-01-29 11:52:39,1
-11552,-1380,-6652,16,379,-116,2025-01-29 11:52:39,1
-11472,-1396,-6808,-2,399,-138,2025-01-29 11:52:39,1
-11536,-1364,-6948,-17,462,-153,2025-01-29 11:52:39,1
-11492,-1300,-6864,1,380,-174,2025-01-29 11:52:39,1
-11580,-1396,-7036,9,348,-173,2025-01-29 11:52:39,1
-11556,-1352,-6996,-14,389,-147,2025-01-29 11:52:39,1
-11416,-1272,-7008,-13,410,-172,2025-01-29 11:52:39,1
-11456,-1244,-6808,-63,382,-143,2025-01-29 11:52:39,1
-11460,-1332,-6980,-59,330,-111,2025-01-29 11:52:39,1
-11388,-1348,-6988,-41,379,-100,2025-01-29 11:52:39,1
-11440,-1292,-6984,-43,413,-98,2025-01-29 11:52:39,1
-11488,-1396,-7036,7,401,-129,2025-01-29 11:52:39,1
-11444,-1428,-6848,26,344,-152,2025-01-29 11:52:39,1
-11536,-1480,-6940,107,340,-135,2025-01-29 11:52:39,1
-11368,-1332,-6752,103,377,-100,2025-01-29 11:52:39,1
-11388,-1360,-6988,90,421,-110,2025-01-29 11:52:39,1
-11344,-1304,-7152,49,501,-105,2025-01-29 11:52:39,1
-11380,-1292,-7124,57,554,-128,2025-01-29 11:52:39,1
-11380,-1492,-7220,64,537,-162,2025-01-29 11:52:39,1
-11464,-1332,-7264,90,478,-143,2025-01-29 11:52:39,1
-11504,-1264,-7160,62,368,-136,2025-01-29 11:52:39,1
-11488,-1312,-7212,32,311,-148,2025-01-29 11:52:39,1
-11484,-1256,-7212,51,225,-152,2025-01-29 11:52:39,1
-11384,-1244,-7256,-8,118,-88,2025-01-29 11:52:39,1
-11556,-1100,-7324,-53,71,-107,2025-01-29 11:52:39,1
-11204,-1060,-7460,-66,53,-151,2025-01-29 11:52:39,1
-11236,-1108,-7492,-59,94,-252,2025-01-29 11:52:39,1
-11440,-1340,-7148,-33,173,-276,2025-01-29 11:52:39,1
-11372,-1348,-6900,68,175,-296,2025-01-29 11:52:39,1
-11536,-1184,-6800,140,116,-346,2025-01-29 11:52:39,1
-11596,-1152,-6672,231,60,-355,2025-01-29 11:52:39,1
-11600,-1100,-6656,320,72,-351,2025-01-29 11:52:39,1
-11644,-1272,-6392,564,196,-312,2025-01-29 11:52:39,1
-11644,-1472,-6384,803,363,-261,2025-01-29 11:52:39,1
-11476,-1468,-6300,1108,336,-189,2025-01-29 11:52:39,1
-11260,-1464,-6476,1417,360,-78,2025-01-29 11:52:39,1
-11128,-1756,-6764,1581,742,-54,2025-01-29 11:52:39,1
-11212,-1848,-6556,1922,1184,25,2025-01-29 11:52:39,1
-11304,-1620,-6832,2205,1300,4,2025-01-29 11:52:39,1
-11580,-1716,-6956,2186,1122,-32,2025-01-29 11:52:39,1
-11880,-1760,-6672,2379,936,140,2025-01-29 11:52:39,1
-11684,-1852,-6788,2518,585,281,2025-01-29 11:52:39,1
-11584,-1348,-6968,2648,56,256,2025-01-29 11:52:39,1
-11580,-740,-7356,2675,40,21,2025-01-29 11:52:39,1
-11744,-624,-7640,2481,187,-357,2025-01-29 11:52:39,1
-11816,-888,-7592,2318,270,-548,2025-01-29 11:52:39,1
-11936,-868,-7712,2238,-32,-581,2025-01-29 11:52:39,1
-11772,-980,-7332,2063,-469,-568,2025-01-29 11:52:39,1
-11540,-1160,-7212,1892,-782,-550,2025-01-29 11:52:39,1
-11092,-1368,-6776,1837,-1054,-870,2025-01-29 11:52:40,1
-10980,-1848,-6280,1931,-946,-1339,2025-01-29 11:52:40,1
-10872,-2628,-6096,2242,-480,-1660,2025-01-29 11:52:40,1
-11292,-3320,-5880,2511,197,-1683,2025-01-29 11:52:40,1
-11432,-3260,-5612,2518,693,-1402,2025-01-29 11:52:40,1
-11736,-2540,-5224,2261,1044,-1228,2025-01-29 11:52:40,1
-11928,-1812,-5308,1794,881,-1210,2025-01-29 11:52:40,1
-12188,-1380,-5152,1091,715,-1300,2025-01-29 11:52:40,1
-12048,-1368,-5004,399,595,-1469,2025-01-29 11:52:40,1
-12016,-2004,-5052,-443,507,-1881,2025-01-29 11:52:40,1
-11980,-2752,-4912,-932,476,-2037,2025-01-29 11:52:40,1
-11740,-3492,-5212,-975,356,-1901,2025-01-29 11:52:40,1
-11664,-3948,-5424,-928,514,-1727,2025-01-29 11:52:40,1
-11668,-3964,-4888,-738,977,-1666,2025-01-29 11:52:40,1
-12140,-3580,-4572,-639,1093,-1557,2025-01-29 11:52:40,1
-12568,-3368,-4516,-744,559,-1337,2025-01-29 11:52:40,1
-12396,-3240,-4440,-872,-407,-959,2025-01-29 11:52:40,1
-11992,-3132,-4240,-979,-1048,-485,2025-01-29 11:52:40,1
-11644,-3028,-4320,-1207,-1065,-125,2025-01-29 11:52:40,1
-11300,-2984,-4536,-1492,-554,169,2025-01-29 11:52:40,1
-11236,-3188,-4648,-1711,51,495,2025-01-29 11:52:40,1
-11324,-3400,-4788,-1849,748,543,2025-01-29 11:52:40,1
-11884,-3688,-4880,-1825,1047,610,2025-01-29 11:52:40,1
-12216,-4180,-5052,-1663,922,750,2025-01-29 11:52:40,1
-12156,-4120,-5616,-1235,398,806,2025-01-29 11:52:40,1
-11840,-3708,-6168,-947,17,445,2025-01-29 11:52:40,1
-11972,-2372,-6044,-1136,127,-135,2025-01-29 11:52:40,1
-12252,-1216,-5664,-1657,199,-673,2025-01-29 11:52:40,1
-12376,-972,-5480,-2373,90,-1239,2025-01-29 11:52:40,1
-12756,-1328,-5304,-3009,20,-1722,2025-01-29 11:52:40,1
-13100,-2204,-5500,-3776,-14,-2341,2025-01-29 11:52:40,1
-13116,-2876,-5040,-4325,-200,-3284,2025-01-29 11:52:40,1
-13124,-4088,-5116,-4437,-582,-4343,2025-01-29 11:52:40,1
-12644,-4608,-5964,-4063,-1284,-5099,2025-01-29 11:52:40,1
-13032,-4828,-6476,-3687,-1191,-5418,2025-01-29 11:52:40,1
-13528,-5356,-5564,-3300,-395,-5566,2025-01-29 11:52:40,1
-14144,-6060,-4692,-2648,430,-5588,2025-01-29 11:52:40,1
-14844,-6560,-5248,-1982,576,-5240,2025-01-29 11:52:40,1
-15744,-7024,-6424,-1597,28,-4206,2025-01-29 11:52:40,1
-16172,-6680,-7192,-1461,-670,-2331,2025-01-29 11:52:40,1
-15968,-5480,-7384,-1415,-1649,-247,2025-01-29 11:52:40,1
-13016,-3648,-6256,-2458,1181,1692,2025-01-29 11:52:40,1
-13272,-4020,-6048,-1230,-325,2521,2025-01-29 11:52:40,1
-13048,-3672,-6148,-260,-1348,3320,2025-01-29 11:52:40,1
-12416,-2652,-6152,315,-2158,3879,2025-01-29 11:52:40,1
-11712,-1248,-5980,766,-2812,4404,2025-01-29 11:52:40,1
-10528,4,-6020,1016,-3132,4643,2025-01-29 11:52:40,1
-9412,648,-6300,1094,-2565,4424,2025-01-29 11:52:40,1
-9016,892,-5928,962,-1290,3917,2025-01-29 11:52:41,1
-9136,936,-5592,908,343,3416,2025-01-29 11:52:41,1
-9232,540,-5708,768,1170,2995,2025-01-29 11:52:41,1
-10148,208,-5360,696,1301,2538,2025-01-29 11:52:41,1
-10572,-344,-4964,851,1224,2241,2025-01-29 11:52:41,1
-10708,-428,-4920,1064,765,1914,2025-01-29 11:52:41,1
-10744,-196,-4748,1481,290,1382,2025-01-29 11:52:41,1
-10784,-64,-4688,1912,-80,760,2025-01-29 11:52:41,1
-11364,276,-4596,2166,-380,217,2025-01-29 11:52:41,1
-11748,116,-4500,2300,-913,16,2025-01-29 11:52:41,1
-11796,-400,-4224,2404,-1203,148,2025-01-29 11:52:41,1
-11924,-784,-4024,2631,-1199,246,2025-01-29 11:52:41,1
-12304,-820,-3748,2827,-1193,390,2025-01-29 11:52:41,1
-12684,-780,-3848,3219,-986,497,2025-01-29 11:52:41,1
-13328,-860,-4288,3608,-987,613,2025-01-29 11:52:41,1
-13900,-564,-4560,3799,-1525,971,2025-01-29 11:52:41,1
-13920,300,-5584,3709,-1781,1629,2025-01-29 11:52:41,1
-13236,996,-6252,3063,-1325,2159,2025-01-29 11:52:41,1
-12704,996,-5536,2565,-324,2116,2025-01-29 11:52:41,1
-13152,468,-3400,2539,971,1659,2025-01-29 11:52:41,1
-15148,296,-2944,2940,2252,1823,2025-01-29 11:52:41,1
-16100,-188,-4876,3064,3731,2285,2025-01-29 11:52:41,1
-16396,8,-6240,2903,4423,2635,2025-01-29 11:52:41,1
-16812,1492,-6916,2214,3334,2964,2025-01-29 11:52:41,1
-16352,3032,-7688,1428,1334,3128,2025-01-29 11:52:41,1
-14584,3552,-8428,462,-1000,2512,2025-01-29 11:52:41,1
-13008,2720,-7924,-298,-2304,475,2025-01-29 11:52:41,1
-12720,1356,-7668,-659,-2337,-1302,2025-01-29 11:52:41,1
-11900,288,-8352,-251,-2205,-1709,2025-01-29 11:52:41,1
-9900,-440,-9520,52,-2926,-1915,2025-01-29 11:52:41,1
-8508,-2292,-8540,532,-3205,-2196,2025-01-29 11:52:41,1
-8148,-3580,-7788,1183,-2205,-2365,2025-01-29 11:52:41,1
-8140,-4188,-7628,1494,-271,-2381,2025-01-29 11:52:41,1
-8680,-4160,-7356,1653,1961,-2120,2025-01-29 11:52:41,1
-9688,-2968,-6984,1762,3610,-1619,2025-01-29 11:52:41,1
-10268,-1476,-6852,1775,4169,-1499,2025-01-29 11:52:41,1
-11336,24,-7212,1266,4141,-2031,2025-01-29 11:52:41,1
-12268,504,-7672,375,2588,-2829,2025-01-29 11:52:41,1
-12528,-60,-7724,-187,156,-3487,2025-01-29 11:52:41,1
-12548,-1288,-7772,-450,-1551,-3780,2025-01-29 11:52:41,1
-11884,-2272,-7144,-653,-2742,-3787,2025-01-29 11:52:41,1
-11064,-2396,-6404,-949,-3463,-3592,2025-01-29 11:52:41,1
-9964,-2248,-5572,-1278,-3056,-3195,2025-01-29 11:52:41,1
-8940,-2108,-5320,-1613,-1541,-3327,2025-01-29 11:52:41,1
-8696,-2360,-5004,-1955,261,-3718,2025-01-29 11:52:41,1
-9180,-2756,-4704,-2154,1810,-4055,2025-01-29 11:52:41,1
-9952,-3236,-4648,-2135,2898,-4181,2025-01-29 11:52:41,1
-10896,-3536,-4752,-1960,3215,-3959,2025-01-29 11:52:41,1
-11528,-3708,-4976,-1823,2966,-3429,2025-01-29 11:52:41,1
-12108,-3984,-5228,-1749,2000,-2633,2025-01-29 11:52:41,1
-12416,-3632,-5316,-1623,1210,-1802,2025-01-29 11:52:41,1
-11888,-3316,-5456,-1518,743,-1211,2025-01-29 11:52:41,1
-11324,-2892,-5528,-1460,472,-891,2025-01-29 11:52:41,1
-11104,-2480,-5356,-1740,640,-717,2025-01-29 11:52:41,1
-11056,-2296,-5228,-2228,1103,-590,2025-01-29 11:52:41,1
-11704,-2104,-4732,-2619,1340,-411,2025-01-29 11:52:41,1
-11952,-2144,-4804,-2935,1055,-10,2025-01-29 11:52:41,1
-11728,-2424,-4948,-3282,738,291,2025-01-29 11:52:41,1
-11676,-3148,-5000,-3412,597,328,2025-01-29 11:52:42,1
-11304,-3440,-5548,-3401,545,80,2025-01-29 11:52:42,1
-11616,-3392,-5384,-3229,951,-191,2025-01-29 11:52:42,1
-12176,-3092,-5320,-3240,1425,-285,2025-01-29 11:52:42,1
-12632,-2148,-5636,-3335,1840,-97,2025-01-29 11:52:42,1
-12748,-1308,-6364,-3400,1917,-223,2025-01-29 11:52:42,1
-13648,-2376,-6720,-3830,2379,-864,2025-01-29 11:52:42,1
-14116,-3568,-5088,-3728,2366,-2153,2025-01-29 11:52:42,1
-15460,-3900,-4192,-3341,1042,-2841,2025-01-29 11:52:42,1
-15896,-3428,-5096,-2984,14,-2813,2025-01-29 11:52:42,1
-15416,-1908,-7884,-2593,-238,-3067,2025-01-29 11:52:42,1
-14904,-3108,-8020,-2987,151,-3816,2025-01-29 11:52:42,1
-14856,-5772,-7156,-2290,-219,-3995,2025-01-29 11:52:42,1
-16068,-7080,-7768,-1497,-903,-2125,2025-01-29 11:52:42,1
-16064,-6092,-8692,-1019,-2002,1334,2025-01-29 11:52:42,1
-12984,-4768,-9256,-336,-3546,2235,2025-01-29 11:52:42,1
-11592,-3600,-8880,-127,-4542,1704,2025-01-29 11:52:42,1
-9888,-2292,-7556,351,-5635,1357,2025-01-29 11:52:42,1
-8340,-1180,-7700,504,-5414,1104,2025-01-29 11:52:42,1
-7756,560,-9260,-281,-3494,720,2025-01-29 11:52:42,1
-8188,1832,-9336,-1396,-172,665,2025-01-29 11:52:42,1
-9264,1168,-8808,-1786,2456,650,2025-01-29 11:52:42,1
-11084,-904,-8360,-1941,4175,1104,2025-01-29 11:52:42,1
-11884,-2068,-7552,-1741,4228,1469,2025-01-29 11:52:42,1
-12432,-3032,-6344,-1223,2180,1910,2025-01-29 11:52:42,1
-12728,-3600,-5596,-198,-613,2590,2025-01-29 11:52:42,1
-12268,-3520,-6184,1017,-2403,3389,2025-01-29 11:52:42,1
-11276,-3060,-7144,1646,-2914,3751,2025-01-29 11:52:42,1
-10512,-1800,-6304,2396,-3206,4061,2025-01-29 11:52:42,1
-9972,-692,-5560,2900,-3531,4407,2025-01-29 11:52:42,1
-9220,268,-5820,3162,-3148,4558,2025-01-29 11:52:42,1
-9016,880,-6052,3010,-1539,4399,2025-01-29 11:52:42,1
-8700,924,-6332,2783,339,3972,2025-01-29 11:52:42,1
-9088,788,-5568,2819,1850,3223,2025-01-29 11:52:42,1
-10172,320,-5264,2827,2344,2632,2025-01-29 11:52:42,1
-10944,-348,-4812,2778,2315,2518,2025-01-29 11:52:42,1
-11068,-464,-4456,2940,1691,2018,2025-01-29 11:52:42,1
-11216,80,-4352,3013,737,1582,2025-01-29 11:52:42,1
-10768,480,-4876,3017,-69,1101,2025-01-29 11:52:42,1
-10276,812,-4760,2899,-456,309,2025-01-29 11:52:42,1
-10808,596,-4460,2665,-126,-372,2025-01-29 11:52:42,1
-11280,220,-4304,2441,70,-841,2025-01-29 11:52:42,1
-11692,-84,-4192,2412,-100,-1185,2025-01-29 11:52:42,1
-12180,-100,-4108,2246,-559,-1272,2025-01-29 11:52:42,1
-12612,84,-4328,2047,-795,-1161,2025-01-29 11:52:42,1
-12296,-540,-4668,1814,-339,-655,2025-01-29 11:52:42,1
-12420,-1052,-4084,1828,645,-55,2025-01-29 11:52:42,1
-12364,-1676,-3788,2026,1661,575,2025-01-29 11:52:42,1
-12436,-2164,-4560,2489,2506,1236,2025-01-29 11:52:42,1
-12608,-2060,-5280,3343,3394,1728,2025-01-29 11:52:42,1
-13148,-1136,-5636,3791,3681,2052,2025-01-29 11:52:42,1
-14028,-364,-5768,3967,3636,2221,2025-01-29 11:52:42,1
-15012,300,-5212,4016,3198,2249,2025-01-29 11:52:42,1
-15896,1132,-6160,3905,2774,2402,2025-01-29 11:52:42,1
-16672,1236,-7660,3490,2845,2746,2025-01-29 11:52:42,1
-16980,768,-8528,2842,2650,3197,2025-01-29 11:52:42,1
-17188,1000,-8588,1794,1211,3644,2025-01-29 11:52:42,1
-16468,1400,-9640,559,-364,3885,2025-01-29 11:52:42,1
-15296,2156,-11100,-623,-1699,3294,2025-01-29 11:52:42,1
-14280,3152,-12284,-1517,-2731,2379,2025-01-29 11:52:42,1
-11828,3192,-9596,-1719,-5002,426,2025-01-29 11:52:42,1
-8744,600,-7952,-1285,-7908,-2179,2025-01-29 11:52:42,1
-7464,-1624,-6224,-176,-9666,-2986,2025-01-29 11:52:42,1
-6304,-3848,-6336,751,-8681,-2665,2025-01-29 11:52:43,1
-5472,-5420,-7152,1307,-5103,-1981,2025-01-29 11:52:43,1
-5948,-5640,-8036,1375,576,-1367,2025-01-29 11:52:43,1
-6740,-3872,-8284,1477,6765,-1171,2025-01-29 11:52:43,1
-8608,-1704,-8108,1500,9759,-1536,2025-01-29 11:52:43,1
-11248,336,-7920,1046,10432,-1946,2025-01-29 11:52:43,1
-13144,1436,-7248,168,8670,-2406,2025-01-29 11:52:43,1
-14028,1356,-6892,-732,4892,-3118,2025-01-29 11:52:43,1
-14104,-104,-7536,-1241,851,-3819,2025-01-29 11:52:43,1
-12684,-3068,-8164,-1349,-3681,-4106,2025-01-29 11:52:43,1
-11192,-3328,-6968,-1185,-4380,-3679,2025-01-29 11:52:43,1
-8736,-2644,-6644,-1206,-4110,-3403,2025-01-29 11:52:43,1
-8304,-2016,-5944,-1432,-2704,-3593,2025-01-29 11:52:43,1
-8052,-2040,-6072,-1924,-272,-3714,2025-01-29 11:52:43,1
-8932,-2720,-5064,-2251,2457,-3736,2025-01-29 11:52:43,1
-10148,-3416,-4436,-2013,3266,-3821,2025-01-29 11:52:43,1
-11280,-3620,-4908,-1689,3262,-3565,2025-01-29 11:52:43,1
-12244,-3356,-5492,-1444,2849,-3098,2025-01-29 11:52:43,1
-12784,-2920,-5912,-1395,1773,-2583,2025-01-29 11:52:43,1
-12688,-2456,-6212,-1462,173,-1616,2025-01-29 11:52:43,1
-12704,-2324,-5492,-1628,-767,-727,2025-01-29 11:52:43,1
-11364,-2356,-5008,-1811,-1044,-350,2025-01-29 11:52:43,1
-11176,-2268,-3980,-1834,-1062,-72,2025-01-29 11:52:43,1
-10820,-1996,-3824,-1823,-711,171,2025-01-29 11:52:43,1
-10740,-2120,-4064,-1879,-142,394,2025-01-29 11:52:43,1
-10716,-2336,-4588,-1859,413,768,2025-01-29 11:52:43,1
-10688,-2720,-5240,-1789,767,678,2025-01-29 11:52:43,1
-10868,-3256,-5636,-1793,1431,84,2025-01-29 11:52:43,1
-11848,-3052,-5504,-1612,1965,-193,2025-01-29 11:52:43,1
-12556,-1444,-6496,-1583,1809,-205,2025-01-29 11:52:43,1
-13296,-1088,-6792,-2082,930,-605,2025-01-29 11:52:43,1
-13252,-1904,-6260,-2482,-68,-1595,2025-01-29 11:52:43,1
-13676,-2264,-5440,-2852,-921,-2915,2025-01-29 11:52:43,1
-14604,-1652,-4588,-3092,-1893,-3738,2025-01-29 11:52:43,1
-14732,-1272,-5228,-3782,-2397,-3770,2025-01-29 11:52:43,1
-14176,-1204,-6860,-4190,-1682,-3887,2025-01-29 11:52:43,1
-13652,-3384,-7860,-4944,34,-4361,2025-01-29 11:52:43,1
-13480,-5760,-7408,-4894,1797,-5135,2025-01-29 11:52:43,1
-14456,-7660,-6600,-3737,2242,-5266,2025-01-29 11:52:43,1
-16100,-7880,-6560,-1926,1199,-3640,2025-01-29 11:52:43,1
-17504,-7036,-8012,-672,-685,-721,2025-01-29 11:52:43,1
-11956,-2188,-8536,-54,-7488,931,2025-01-29 11:52:43,1
-9908,-1268,-8104,-227,-8369,1941,2025-01-29 11:52:43,1
-7504,-116,-8236,-540,-7885,2417,2025-01-29 11:52:43,1
-5912,1156,-8252,-1192,-5455,2021,2025-01-29 11:52:43,1
-4884,1604,-7744,-1897,-1002,567,2025-01-29 11:52:43,1
-5880,660,-7404,-2415,3908,-1287,2025-01-29 11:52:43,1
-9252,-728,-6776,-2688,7670,-1759,2025-01-29 11:52:43,1
-11552,-1676,-7312,-2589,9612,-1417,2025-01-29 11:52:43,1
-13400,-2176,-7228,-2553,9357,-1072,2025-01-29 11:52:43,1
-15624,-2468,-7964,-2263,6163,-84,2025-01-29 11:52:43,1
-16024,-2008,-8128,-1968,1733,1001,2025-01-29 11:52:43,1
-15424,-1436,-7764,-1609,-2757,2022,2025-01-29 11:52:43,1
-13516,-1296,-7464,-1445,-5345,2647,2025-01-29 11:52:43,1
-11436,-1120,-6152,-1213,-6493,2893,2025-01-29 11:52:43,1
-9848,-972,-5684,-949,-6056,2773,2025-01-29 11:52:43,1
-8688,-1288,-5204,-818,-4536,2522,2025-01-29 11:52:43,1
-7984,-1252,-4624,-527,-1984,2119,2025-01-29 11:52:43,1
-8376,-764,-4328,36,1433,1721,2025-01-29 11:52:43,1
-9172,-424,-4868,250,3196,1434,2025-01-29 11:52:43,1
-9888,-348,-4992,308,3690,1083,2025-01-29 11:52:44,1
-11244,-144,-5024,379,3270,690,2025-01-29 11:52:44,1
-12224,-32,-4908,411,2100,477,2025-01-29 11:52:44,1
-11724,92,-5304,686,347,-16,2025-01-29 11:52:44,1
-11840,68,-5192,850,-944,-621,2025-01-29 11:52:44,1
-11812,0,-4768,988,-1474,-844,2025-01-29 11:52:44,1
-11396,-276,-4572,1082,-1495,-1017,2025-01-29 11:52:44,1
-11488,-808,-4360,1171,-1545,-1354,2025-01-29 11:52:44,1
-12056,-1184,-4600,1307,-1547,-1481,2025-01-29 11:52:44,1
-12600,-1712,-4836,1561,-1245,-1221,2025-01-29 11:52:44,1
-12956,-1972,-4492,1873,-1105,-835,2025-01-29 11:52:44,1
-12808,-1804,-4536,2238,-1414,-333,2025-01-29 11:52:44,1
-12664,-1220,-4928,2583,-1619,181,2025-01-29 11:52:44,1
-12268,-688,-4984,2932,-1035,742,2025-01-29 11:52:44,1
-12268,-1004,-4732,3096,550,1236,2025-01-29 11:52:44,1
-12232,-1516,-4060,3468,1729,1522,2025-01-29 11:52:44,1
-12756,-808,-4372,3777,1654,1680,2025-01-29 11:52:44,1
-13524,96,-4496,3999,1543,2020,2025-01-29 11:52:44,1
-14032,696,-5344,4029,1467,2441,2025-01-29 11:52:44,1
-14012,296,-6280,3803,1697,2621,2025-01-29 11:52:44,1
-14168,-264,-6556,3522,1773,2431,2025-01-29 11:52:44,1
-14236,36,-7192,3581,2105,2334,2025-01-29 11:52:44,1
-14528,1004,-8712,2800,2704,2468,2025-01-29 11:52:44,1
-13708,2336,-9996,-736,1755,1028,2025-01-29 11:52:44,1
-14332,1504,-10308,-2000,1060,-512,2025-01-29 11:52:44,1
-14496,448,-7824,-2334,-720,-1269,2025-01-29 11:52:44,1
-13200,-1236,-6408,-1676,-3086,-1891,2025-01-29 11:52:44,1
-10872,-3164,-5484,-339,-4706,-2671,2025-01-29 11:52:44,1
-8636,-4684,-5428,1190,-4989,-3382,2025-01-29 11:52:44,1
-7532,-5792,-6144,2368,-3489,-3510,2025-01-29 11:52:44,1
-6880,-6284,-7220,3122,-578,-2814,2025-01-29 11:52:44,1
-7044,-6648,-8092,3646,3181,-1929,2025-01-29 11:52:44,1
-7940,-5892,-8340,4102,7032,-1009,2025-01-29 11:52:44,1
-9404,-4332,-7904,4062,8902,-255,2025-01-29 11:52:44,1
-11316,-3228,-7092,3983,7547,-217,2025-01-29 11:52:44,1
-12556,-2712,-7432,3962,5485,-131,2025-01-29 11:52:44,1
-12480,-2852,-8324,3771,3412,-291,2025-01-29 11:52:44,1
-12244,-2972,-8816,3530,1846,-791,2025-01-29 11:52:44,1
-12044,-3028,-8320,3196,872,-1138,2025-01-29 11:52:44,1
-11116,-2876,-8548,2782,26,-1153,2025-01-29 11:52:44,1
-10308,-2732,-8092,2463,-145,-1223,2025-01-29 11:52:44,1
-9664,-2828,-7796,1939,335,-1366,2025-01-29 11:52:44,1
-9760,-3008,-6792,1573,1128,-1341,2025-01-29 11:52:44,1
-9412,-3140,-6788,1200,1903,-1374,2025-01-29 11:52:44,1
-9576,-3716,-6796,770,2637,-1549,2025-01-29 11:52:44,1
-10424,-3996,-7040,518,2538,-1543,2025-01-29 11:52:44,1
-10988,-4072,-7332,201,2207,-1284,2025-01-29 11:52:44,1
-11128,-3984,-7064,-33,1702,-1045,2025-01-29 11:52:44,1
-11208,-4132,-7188,-153,1194,-773,2025-01-29 11:52:44,1
-11408,-4096,-6880,-232,888,-461,2025-01-29 11:52:44,1
-11188,-4120,-7044,-393,626,-295,2025-01-29 11:52:44,1
-10844,-3968,-7620,-622,349,-42,2025-01-29 11:52:44,1
-10796,-3496,-7724,-829,209,158,2025-01-29 11:52:44,1
-10776,-3300,-7708,-1030,201,428,2025-01-29 11:52:44,1
-10252,-3604,-7932,-1206,239,408,2025-01-29 11:52:44,1
-10384,-3664,-8080,-1359,254,344,2025-01-29 11:52:44,1
-10884,-3784,-7772,-1600,233,510,2025-01-29 11:52:44,1
-10852,-3356,-7508,-1812,-136,782,2025-01-29 11:52:44,1
-11012,-2904,-7556,-2190,-598,1222,2025-01-29 11:52:44,1
-11180,-2500,-6888,-2662,-887,1890,2025-01-29 11:52:45,1
-10772,-2580,-7124,-3138,-948,2339,2025-01-29 11:52:45,1
-10692,-2000,-7972,-3837,-971,2166,2025-01-29 11:52:45,1
-11608,-1688,-7320,-4455,-744,2369,2025-01-29 11:52:45,1
-11860,-2132,-7212,-4261,-720,2641,2025-01-29 11:52:45,1
-11620,-2868,-7944,-4027,-1075,2217,2025-01-29 11:52:45,1
-12056,-3200,-7684,-3591,-1743,1730,2025-01-29 11:52:45,1
-11216,-3652,-7544,-2627,-2682,1142,2025-01-29 11:52:45,1
-10564,-3304,-6944,-1410,-2845,629,2025-01-29 11:52:45,1
-10228,-2344,-7688,-740,-2182,233,2025-01-29 11:52:45,1
-10264,-1396,-8776,-818,-527,135,2025-01-29 11:52:45,1
-10012,-1176,-9192,-1374,1453,19,2025-01-29 11:52:45,1
-10748,-1504,-8992,-1927,2723,6,2025-01-29 11:52:45,1
-10540,-1452,-8696,-2108,2708,21,2025-01-29 11:52:45,1
-10372,-1216,-8660,-2181,2173,-348,2025-01-29 11:52:45,1
-10212,-1020,-8988,-2327,1868,-589,2025-01-29 11:52:45,1
-9880,-952,-9152,-2485,1637,-721,2025-01-29 11:52:45,1
-9304,-836,-9316,-2616,1565,-781,2025-01-29 11:52:45,1
-8580,-676,-8992,-2750,1757,-841,2025-01-29 11:52:45,1
-7892,-700,-8576,-2742,1764,-1013,2025-01-29 11:52:45,1
-7420,-1188,-8200,-2728,2182,-1388,2025-01-29 11:52:45,1
-6636,-1536,-7932,-2470,2497,-1759,2025-01-29 11:52:45,1
-6132,-2032,-7368,-2077,2205,-2025,2025-01-29 11:52:45,1
-5764,-2368,-6744,-1510,1657,-2053,2025-01-29 11:52:45,1
-5304,-2084,-5680,-1065,1007,-1980,2025-01-29 11:52:45,1
-5512,-1776,-5308,-964,747,-1849,2025-01-29 11:52:45,1
-5164,-1120,-4920,-854,734,-1987,2025-01-29 11:52:45,1
-4860,-712,-4696,-629,251,-2324,2025-01-29 11:52:45,1
-4964,-356,-4000,-426,-1388,-2336,2025-01-29 11:52:45,1
-4336,-104,-3112,-440,-3641,-1887,2025-01-29 11:52:45,1
-3400,-172,-2276,-1254,-5749,-1102,2025-01-29 11:52:45,1
-2948,-460,-864,-2503,-6816,-110,2025-01-29 11:52:45,1
-2600,-1132,1180,-2497,-6447,-243,2025-01-29 11:52:45,1
-3468,-908,2300,-1203,-4662,-232,2025-01-29 11:52:45,1
-4408,-420,-340,-652,-1793,686,2025-01-29 11:52:45,1
-4720,140,-2408,-1120,166,1590,2025-01-29 11:52:45,1
-5968,1176,-4712,-1857,1946,2562,2025-01-29 11:52:45,1
-6636,1648,-4848,-2228,3250,2666,2025-01-29 11:52:45,1
-8288,2184,-5816,-2179,3924,1931,2025-01-29 11:52:45,0.0
-10392,1700,-7100,-2832,3809,1474,2025-01-29 11:52:45,0.0
-12696,488,-5432,-3167,1370,1472,2025-01-29 11:52:45,3
-14444,-1628,-5100,-2637,-238,1604,2025-01-29 11:52:45,3
-12776,-3536,-6372,-1155,-223,136,2025-01-29 11:52:45,3
-11536,-3964,-7904,-569,-360,-431,2025-01-29 11:52:45,3
-13492,-2112,-8696,-757,2715,354,2025-01-29 11:52:45,3
-11940,-1476,-7008,-1844,2696,1733,2025-01-29 11:52:45,3
-13352,-1156,-6268,-1271,1424,1344,2025-01-29 11:52:45,3
-16168,-532,-7068,-1232,929,983,2025-01-29 11:52:45,3
-16244,24,-8852,-1386,-389,921,2025-01-29 11:52:45,3
-18792,848,-12564,-3306,-403,1839,2025-01-29 11:52:45,3
-25592,-264,-14080,-4744,1115,1653,2025-01-29 11:52:45,3
-20924,-1948,-11244,-3576,-7444,840,2025-01-29 11:52:45,3
-17344,-1864,-11548,-2366,-11462,-71,2025-01-29 11:52:45,3
-18920,916,-10652,-1901,-11817,-854,2025-01-29 11:52:45,3
-22468,1580,-10404,-1988,-8525,-456,2025-01-29 11:52:45,3
-24736,1332,-10696,-1517,-7958,-581,2025-01-29 11:52:45,3
-25000,220,-11084,-1352,-8756,148,2025-01-29 11:52:45,3
-22844,336,-10432,-1959,-9753,1163,2025-01-29 11:52:45,3
-26240,1016,-9268,-2503,-8139,971,2025-01-29 11:52:45,3
-20588,1504,-8956,-2273,-9040,795,2025-01-29 11:52:45,3
-18752,384,-7616,-1676,-8704,395,2025-01-29 11:52:45,3
-14340,-104,-5544,-538,-6752,-88,2025-01-29 11:52:45,3
-12556,-276,-5852,282,-3047,-911,2025-01-29 11:52:46,3
-12776,-152,-5260,443,780,-1292,2025-01-29 11:52:46,3
-12688,136,-4316,442,2687,-2135,2025-01-29 11:52:46,3
-12920,60,-3564,420,3757,-2687,2025-01-29 11:52:46,3
-13424,-184,-2784,354,4014,-2801,2025-01-29 11:52:46,3
-13588,-1244,-2292,547,3372,-2716,2025-01-29 11:52:46,3
-13456,-1600,-2576,958,2226,-1720,2025-01-29 11:52:46,3
-12932,-1000,-2364,1159,1381,-803,2025-01-29 11:52:46,3
-11796,-52,-2096,1076,727,-218,2025-01-29 11:52:46,3
-10796,792,-1932,787,248,-26,2025-01-29 11:52:46,3
-10772,1200,-2304,385,210,214,2025-01-29 11:52:46,3
-10564,1168,-3248,-139,537,448,2025-01-29 11:52:46,3
-11024,412,-3204,-324,513,372,2025-01-29 11:52:46,3
-11348,-860,-3340,-13,961,-26,2025-01-29 11:52:46,3
-12032,-2152,-3264,627,978,-228,2025-01-29 11:52:46,3
-12172,-1708,-4108,970,-39,-219,2025-01-29 11:52:46,3
-11984,-640,-4860,1011,-1410,-294,2025-01-29 11:52:46,3
-12004,-184,-4564,767,-1849,-516,2025-01-29 11:52:46,3
-12344,-672,-4256,593,-1832,-539,2025-01-29 11:52:46,3
-12620,-1216,-4228,538,-1238,-429,2025-01-29 11:52:46,3
-12824,-1360,-3964,520,-426,-283,2025-01-29 11:52:46,3
-13616,-964,-4228,420,-111,9,2025-01-29 11:52:46,3
-13832,-324,-4408,251,-467,314,2025-01-29 11:52:46,3
-13664,120,-4636,2,-990,356,2025-01-29 11:52:46,3
-13720,184,-4684,-179,-1449,349,2025-01-29 11:52:46,3
-13756,144,-4524,-314,-1706,404,2025-01-29 11:52:46,3
-13356,-124,-4476,-300,-1456,374,2025-01-29 11:52:46,3
-12700,-732,-3828,-115,-588,98,2025-01-29 11:52:46,3
-12464,-988,-3176,253,463,-359,2025-01-29 11:52:46,3
-12764,-932,-3260,587,1235,-742,2025-01-29 11:52:46,3
-14032,-832,-4148,688,1260,-755,2025-01-29 11:52:46,3
-14476,-188,-4988,467,669,-459,2025-01-29 11:52:46,3
-14132,248,-5096,92,246,-226,2025-01-29 11:52:46,3
-13296,140,-4960,-162,-66,-255,2025-01-29 11:52:46,3
-12580,-112,-4516,-321,-15,-507,2025-01-29 11:52:46,3
-12452,-348,-4000,-367,225,-619,2025-01-29 11:52:46,3
-12668,-500,-3796,-382,622,-563,2025-01-29 11:52:46,3
-12896,-572,-3860,-390,827,-370,2025-01-29 11:52:46,3
-13036,-460,-4144,-450,843,-127,2025-01-29 11:52:46,3
-12844,-560,-4344,-558,696,13,2025-01-29 11:52:46,3
-12696,-200,-3964,-548,538,67,2025-01-29 11:52:46,3
-12592,-208,-3888,-564,463,36,2025-01-29 11:52:46,3
-12812,-220,-4184,-612,389,25,2025-01-29 11:52:46,3
-12652,-348,-4096,-675,236,15,2025-01-29 11:52:46,3
-12588,-412,-4012,-703,188,93,2025-01-29 11:52:46,3
-12668,-520,-3880,-565,135,140,2025-01-29 11:52:46,3
-12780,-344,-3808,-483,161,114,2025-01-29 11:52:46,3
-12736,-176,-3784,-493,343,-14,2025-01-29 11:52:46,3
-12756,124,-3872,-546,454,-182,2025-01-29 11:52:46,3
-12828,-148,-4124,-648,467,-313,2025-01-29 11:52:46,3
-12920,-436,-3984,-641,472,-322,2025-01-29 11:52:46,3
-12948,-540,-4084,-612,388,-285,2025-01-29 11:52:46,3
-13092,-596,-3888,-523,308,-204,2025-01-29 11:52:46,3
-13216,-624,-3996,-417,105,-122,2025-01-29 11:52:46,3
-12968,-364,-3940,-390,9,-40,2025-01-29 11:52:46,3
-12792,-120,-4188,-443,147,-98,2025-01-29 11:52:46,3
-12904,4,-4336,-553,247,-129,2025-01-29 11:52:46,3
-12916,20,-4540,-673,77,-170,2025-01-29 11:52:46,3
-12888,84,-4672,-730,-57,-175,2025-01-29 11:52:46,3
-12792,-144,-4548,-776,-95,-212,2025-01-29 11:52:46,3
-12784,-336,-4484,-722,-36,-338,2025-01-29 11:52:46,3
-12872,-524,-4212,-562,150,-454,2025-01-29 11:52:47,3
-12752,-532,-4028,-450,223,-534,2025-01-29 11:52:47,3
-12916,-512,-3808,-356,260,-508,2025-01-29 11:52:47,3
-12784,-448,-4172,-300,365,-489,2025-01-29 11:52:47,3
-13104,-308,-4292,-348,429,-341,2025-01-29 11:52:47,3
-12880,-132,-4488,-450,241,-183,2025-01-29 11:52:47,3
-12452,-88,-4432,-536,13,-230,2025-01-29 11:52:47,3
-12540,-240,-4144,-524,53,-322,2025-01-29 11:52:47,3
-12888,-312,-3948,-473,213,-298,2025-01-29 11:52:47,3
-12736,-104,-4148,-506,371,-304,2025-01-29 11:52:47,3
-12732,-4,-4444,-510,417,-312,2025-01-29 11:52:47,3
-12884,-452,-4376,-506,136,-205,2025-01-29 11:52:47,3
-12704,-472,-4320,-483,-192,-195,2025-01-29 11:52:47,3
-12460,-76,-4324,-455,-31,-243,2025-01-29 11:52:47,3
-12408,-328,-4304,-481,123,-275,2025-01-29 11:52:47,3
-12680,-504,-4120,-493,81,-206,2025-01-29 11:52:47,3
-12676,-364,-4192,-484,-1,-202,2025-01-29 11:52:47,3
-12800,-336,-4084,-503,-61,-236,2025-01-29 11:52:47,3
-12796,-552,-4000,-418,-68,-239,2025-01-29 11:52:47,3
-12808,-548,-3884,-307,-35,-224,2025-01-29 11:52:47,3
-12784,-396,-3936,-245,50,-231,2025-01-29 11:52:47,3
-12844,-552,-3792,-95,278,-250,2025-01-29 11:52:47,3
-12940,-340,-3864,-66,357,-217,2025-01-29 11:52:47,3
-13056,-148,-4080,-125,175,-252,2025-01-29 11:52:47,3
-13228,-148,-4356,-208,-235,-315,2025-01-29 11:52:47,3
-13000,-204,-4220,-253,-347,-289,2025-01-29 11:52:47,3
-12712,-432,-3824,-283,4,-219,2025-01-29 11:52:47,3
-12628,-424,-3628,-237,407,-224,2025-01-29 11:52:47,3
-12660,-216,-4052,-268,398,-262,2025-01-29 11:52:47,3
-12864,-152,-4020,-282,239,-269,2025-01-29 11:52:47,3
-13004,-252,-4188,-252,66,-285,2025-01-29 11:52:47,3
-13004,-344,-4204,-195,-175,-274,2025-01-29 11:52:47,3
-12664,-332,-3980,-127,-250,-325,2025-01-29 11:52:47,3
-12536,-176,-3864,-125,-7,-394,2025-01-29 11:52:47,3
-12628,-52,-4024,-182,229,-390,2025-01-29 11:52:47,3
-12800,-36,-4148,-306,311,-334,2025-01-29 11:52:47,3
-12784,-300,-4192,-352,338,-272,2025-01-29 11:52:47,3
-12860,-312,-4084,-302,362,-260,2025-01-29 11:52:47,3
-13108,-676,-4088,-220,351,-288,2025-01-29 11:52:47,3
-12668,-460,-4244,-118,187,-391,2025-01-29 11:52:47,3
-12872,-56,-4272,-87,43,-484,2025-01-29 11:52:47,3
-13060,-128,-4364,-127,-139,-475,2025-01-29 11:52:47,3
-12808,-208,-4256,-208,-219,-501,2025-01-29 11:52:47,3
-12796,-388,-3964,-207,-178,-444,2025-01-29 11:52:47,3
-12544,-352,-3976,-164,72,-526,2025-01-29 11:52:47,3
-12532,-172,-3996,-224,322,-650,2025-01-29 11:52:47,3
-12736,-468,-3892,-193,663,-706,2025-01-29 11:52:47,3
-13012,-836,-4048,-94,723,-625,2025-01-29 11:52:47,3
-13288,-868,-4096,33,460,-521,2025-01-29 11:52:47,3
-13296,-1084,-4228,251,133,-508,2025-01-29 11:52:47,3
-13368,-928,-4104,370,-228,-331,2025-01-29 11:52:47,3
-12460,-556,-3544,547,84,-231,2025-01-29 11:52:47,3
-13164,-496,-3596,436,677,-312,2025-01-29 11:52:47,3
-12944,-496,-3944,406,2137,-254,2025-01-29 11:52:47,3
-14496,-940,-4420,470,3199,-148,2025-01-29 11:52:47,3
-15676,-884,-5160,638,3861,-348,2025-01-29 11:52:47,3
-17140,-704,-6840,525,4528,-532,2025-01-29 11:52:47,3
-18464,-488,-7284,98,5152,-466,2025-01-29 11:52:47,3
-19056,568,-7156,-666,6587,-200,2025-01-29 11:52:47,3
-16976,1768,-7000,-1080,9167,3,2025-01-29 11:52:47,3
-6180,1680,-11900,-1764,14372,-1047,2025-01-29 11:52:47,3
-17620,-1544,-7976,27,10357,-213,2025-01-29 11:52:48,3
-19980,-3028,-8808,805,9587,167,2025-01-29 11:52:48,3
-21200,-2396,-10376,1891,7491,239,2025-01-29 11:52:48,3
-19276,-1148,-11240,2701,6812,-56,2025-01-29 11:52:48,3
-16736,-492,-11672,3009,6606,-60,2025-01-29 11:52:48,3
-14460,-700,-10876,2948,5497,-85,2025-01-29 11:52:48,3
-14200,-1584,-10140,3084,4997,-62,2025-01-29 11:52:48,3
-13684,-2224,-9228,3373,5066,20,2025-01-29 11:52:48,3
-13820,-1624,-8096,3560,5050,236,2025-01-29 11:52:48,3
-13372,-716,-7384,3653,4500,152,2025-01-29 11:52:48,3
-12220,-800,-7364,3452,4027,-236,2025-01-29 11:52:48,3
-13416,-1020,-8268,3263,3854,32,2025-01-29 11:52:48,3
-16152,-1252,-8480,2778,2122,1029,2025-01-29 11:52:48,3
-12304,404,-9256,1925,729,758,2025-01-29 11:52:48,3
-13208,848,-8064,1253,-1304,525,2025-01-29 11:52:48,3
-13356,-244,-8512,699,-2493,121,2025-01-29 11:52:48,3
-12032,-1412,-9200,480,-3302,-480,2025-01-29 11:52:48,3
-12920,-1492,-8568,439,-3811,-979,2025-01-29 11:52:48,3
-12292,-860,-8308,173,-3904,-1203,2025-01-29 11:52:48,3
-12964,-644,-7704,-276,-3531,-1297,2025-01-29 11:52:48,3
-11324,-608,-7432,-736,-3410,-1582,2025-01-29 11:52:48,3
-11440,-672,-6716,-1079,-3960,-1960,2025-01-29 11:52:48,3
-10964,-572,-5256,-1200,-4090,-1990,2025-01-29 11:52:48,3
-10872,-1540,-5836,-1549,-2102,-2343,2025-01-29 11:52:48,3
-9916,-1776,-5604,-1690,-2022,-2142,2025-01-29 11:52:48,3
-9424,-1600,-5536,-1745,-3178,-1987,2025-01-29 11:52:48,3
-9928,-1388,-4848,-1697,-3652,-1692,2025-01-29 11:52:48,3
-9464,-1044,-4436,-1891,-3157,-1351,2025-01-29 11:52:48,3
-8428,-840,-4112,-1896,-3338,-878,2025-01-29 11:52:48,3
-7916,-640,-3976,-1658,-4236,-351,2025-01-29 11:52:48,3
-7312,-536,-3928,-1533,-5138,246,2025-01-29 11:52:48,3
-7176,-392,-2856,-1841,-5974,902,2025-01-29 11:52:48,3
-6388,-600,-1640,-1992,-6588,1130,2025-01-29 11:52:48,3
-5612,-680,-736,-1718,-7365,1139,2025-01-29 11:52:48,3
-5296,-532,0,-1207,-8038,1152,2025-01-29 11:52:48,3
-5220,-480,16,-631,-8052,1283,2025-01-29 11:52:48,3
-5280,-968,-1024,-117,-6284,1530,2025-01-29 11:52:48,3
-5092,-1904,-2260,227,-2843,1633,2025-01-29 11:52:48,3
-4780,-2732,-3216,897,975,1283,2025-01-29 11:52:48,3
-4588,-2468,-4856,1832,3882,284,2025-01-29 11:52:48,3
-6088,-1088,-5188,2115,4470,-30,2025-01-29 11:52:48,3
-7740,288,-5024,2164,4659,286,2025-01-29 11:52:48,3
-8760,1112,-5844,2219,5197,965,2025-01-29 11:52:48,3
-9032,412,-7036,1625,5184,719,2025-01-29 11:52:48,3
-9156,-1188,-6648,848,4632,-648,2025-01-29 11:52:48,3
-9728,-2568,-6008,526,2246,-2282,2025-01-29 11:52:48,3
-10416,-3816,-5428,866,-2012,-2666,2025-01-29 11:52:48,3
-13692,-3016,-5856,1420,-5772,-422,2025-01-29 11:52:48,3
-12660,-3436,-6332,1076,-2514,1130,2025-01-29 11:52:48,3
-13128,-2144,-7472,1285,503,2313,2025-01-29 11:52:48,3
-13652,-1584,-10600,1699,6765,1722,2025-01-29 11:52:48,3
-16176,-332,-13052,1491,8846,75,2025-01-29 11:52:48,0.0
-13204,972,-6924,1448,4311,-2341,2025-01-29 11:52:48,0.0
-16416,-56,-4800,1341,-6656,-880,2025-01-29 11:52:48,0.0
-13204,-1772,-4556,1696,-7837,1059,2025-01-29 11:52:48,0.0
-9548,-2616,-3768,2230,-5280,731,2025-01-29 11:52:48,0.0
-9060,-3124,-3260,2708,-1484,-450,2025-01-29 11:52:48,0.0
-11084,-2752,-3448,2730,1523,-273,2025-01-29 11:52:48,0.0
-12992,-2292,-3616,2808,3079,633,2025-01-29 11:52:48,0.0
-14100,-1640,-3772,3105,2334,868,2025-01-29 11:52:48,0.0
-14588,-996,-4488,3358,-83,1213,2025-01-29 11:52:48,0.0
-13376,-720,-5124,3426,-1962,1240,2025-01-29 11:52:49,0.0
-12440,-724,-5584,3282,-2083,976,2025-01-29 11:52:49,
-12076,-348,-5648,3042,-1595,934,2025-01-29 11:52:49,0.0
-11668,-236,-5300,2534,-640,928,2025-01-29 11:52:49,0.0
-12068,64,-4888,1959,89,711,2025-01-29 11:52:49,0.0
-12624,84,-4964,1249,-250,695,2025-01-29 11:52:49,0.0
-12564,-684,-4684,704,-745,361,2025-01-29 11:52:49,0.0
-12764,-772,-4176,673,-1027,102,2025-01-29 11:52:49,0.0
-12484,-636,-4432,415,-641,-40,2025-01-29 11:52:49,0.0
-12420,-956,-4332,139,297,-412,2025-01-29 11:52:49,0.0
-12876,-1256,-3820,184,543,-456,2025-01-29 11:52:49,7
-12936,-1492,-3812,61,348,-395,2025-01-29 11:52:49,7
-12832,-1804,-4172,-69,26,-342,2025-01-29 11:52:49,7
-12560,-1956,-4676,-88,-145,-322,2025-01-29 11:52:49,7
-12412,-1768,-4672,-46,-128,-345,2025-01-29 11:52:49,7
-12208,-1508,-4400,-226,-197,-511,2025-01-29 11:52:49,7
-12204,-1160,-3988,-226,-248,-688,2025-01-29 11:52:49,7
-12204,-740,-4432,-300,96,-828,2025-01-29 11:52:49,7
-12388,-908,-5320,-782,1084,-941,2025-01-29 11:52:49,7
-12492,-1064,-5948,-1292,1952,-1093,2025-01-29 11:52:49,7
-12628,-1220,-6016,-1762,1725,-1466,2025-01-29 11:52:49,7
-12972,-868,-5548,-2107,581,-1663,2025-01-29 11:52:49,7
-12952,-600,-4904,-2577,-918,-1767,2025-01-29 11:52:49,7
-12468,-304,-5520,-3032,-1568,-1921,2025-01-29 11:52:49,7
-11820,52,-6104,-3648,-1622,-2128,2025-01-29 11:52:49,7
-11548,332,-6392,-4261,-1553,-2536,2025-01-29 11:52:49,7
-11608,-44,-6336,-4958,-921,-3052,2025-01-29 11:52:49,7
-11884,-1472,-4784,-5437,84,-3725,2025-01-29 11:52:49,7
-12144,-2152,-4028,-5292,933,-4295,2025-01-29 11:52:49,7
-12588,-2140,-4748,-5166,1450,-4480,2025-01-29 11:52:49,7
-12720,-2144,-5092,-5412,1927,-4269,2025-01-29 11:52:49,7
-12644,-2128,-5148,-6042,2834,-4705,2025-01-29 11:52:49,7
-12436,-1808,-6188,-6307,2950,-5600,2025-01-29 11:52:49,7
-12508,-1820,-7080,-6759,1851,-6320,2025-01-29 11:52:49,7
-12676,-2052,-6976,-7197,-91,-6445,2025-01-29 11:52:49,7
-12384,-2172,-6624,-7627,-1276,-6051,2025-01-29 11:52:49,7
-11376,-2268,-6092,-8184,-1263,-5767,2025-01-29 11:52:49,7
-10772,-2488,-5552,-8677,-789,-5685,2025-01-29 11:52:49,7
-10240,-3024,-5448,-9184,-344,-5679,2025-01-29 11:52:49,7
-10968,-3168,-4648,-9345,355,-5579,2025-01-29 11:52:49,7
-11400,-3584,-4680,-9424,998,-5478,2025-01-29 11:52:49,7
-11992,-4020,-4580,-9599,1363,-5464,2025-01-29 11:52:49,7
-12800,-3956,-4728,-9631,1082,-5234,2025-01-29 11:52:49,7
-13160,-3752,-5460,-9678,330,-4637,2025-01-29 11:52:49,7
-12340,-3592,-6256,-10159,-427,-4203,2025-01-29 11:52:49,7
-11732,-3452,-6628,-10634,-634,-4173,2025-01-29 11:52:49,7
-11292,-3256,-6752,-11125,-481,-4250,2025-01-29 11:52:49,7
-10992,-3112,-6476,-11610,279,-4592,2025-01-29 11:52:49,7
-11284,-3332,-6216,-12004,776,-4858,2025-01-29 11:52:49,7
-11436,-3832,-6524,-12205,731,-4987,2025-01-29 11:52:49,7
-11516,-4216,-6844,-12226,497,-5143,2025-01-29 11:52:49,7
-11688,-4708,-6960,-12286,370,-5484,2025-01-29 11:52:49,7
-12084,-4540,-6780,-12242,264,-5645,2025-01-29 11:52:49,7
-12324,-3860,-6512,-12295,100,-5621,2025-01-29 11:52:49,7
-11912,-3080,-5996,-12555,-566,-5565,2025-01-29 11:52:49,7
-11088,-3088,-6284,-12978,-1157,-5665,2025-01-29 11:52:49,7
-10020,-3324,-7136,-13398,-1419,-5957,2025-01-29 11:52:49,7
-9868,-3392,-7136,-13775,-1004,-6300,2025-01-29 11:52:49,7
-10192,-2848,-7360,-14513,-78,-6422,2025-01-29 11:52:49,7
-10288,-2148,-7092,-15307,598,-6508,2025-01-29 11:52:49,7
-10576,-2156,-7420,-16304,607,-6869,2025-01-29 11:52:49,7
-11076,-2760,-7504,-16985,240,-7135,2025-01-29 11:52:50,7
-11380,-3872,-7728,-17552,-515,-7163,2025-01-29 11:52:50,7
-11940,-4544,-7656,-17902,-1376,-6882,2025-01-29 11:52:50,7
-12332,-4892,-7612,-17991,-2359,-6508,2025-01-29 11:52:50,7
-12348,-5184,-7528,-17529,-3061,-6413,2025-01-29 11:52:50,7
-12036,-5656,-7940,-16318,-3534,-6742,2025-01-29 11:52:50,7
-11576,-6248,-8036,-14860,-3842,-7286,2025-01-29 11:52:50,7
-11716,-5700,-7304,-13155,-4573,-7458,2025-01-29 11:52:50,7
-12008,-3412,-6456,-12386,-5535,-6906,2025-01-29 11:52:50,7
-11952,-1104,-6616,-12856,-6444,-6017,2025-01-29 11:52:50,7
-11524,472,-7368,-13689,-6545,-4936,2025-01-29 11:52:50,7
-10388,1060,-8192,-14173,-5327,-4219,2025-01-29 11:52:50,7
-8884,952,-7760,-14321,-2688,-4610,2025-01-29 11:52:50,7
-8196,-752,-6788,-14346,1178,-6611,2025-01-29 11:52:50,7
-10940,-2140,-4636,-14127,3661,-8717,2025-01-29 11:52:50,7
-13724,-2120,-4620,-13539,3185,-8539,2025-01-29 11:52:50,7
-16300,-836,-5608,-13473,2368,-7077,2025-01-29 11:52:50,7
-16900,1428,-6976,-13887,819,-5366,2025-01-29 11:52:50,7
-16232,2800,-8028,-14758,-1405,-4120,2025-01-29 11:52:50,7
-14320,2600,-7920,-15596,-3644,-3888,2025-01-29 11:52:50,7
-11880,1464,-6704,-16168,-4715,-4609,2025-01-29 11:52:50,7
-10940,236,-5008,-16312,-4840,-4988,2025-01-29 11:52:50,7
-10284,-216,-3784,-16008,-4291,-4974,2025-01-29 11:52:50,7
-9960,-196,-3812,-15557,-2696,-4901,2025-01-29 11:52:50,7
-9624,276,-4960,-15437,-528,-5320,2025-01-29 11:52:50,7
-10328,824,-5540,-15309,922,-6011,2025-01-29 11:52:50,7
-11548,464,-5548,-15447,1507,-6392,2025-01-29 11:52:50,7
-12504,252,-4356,-15331,922,-6670,2025-01-29 11:52:50,7
-13132,76,-3848,-14916,-15,-6632,2025-01-29 11:52:50,7
-12996,-116,-4096,-14555,-661,-6523,2025-01-29 11:52:50,7
-12276,-356,-4896,-14197,-893,-6698,2025-01-29 11:52:50,7
-12084,-680,-5512,-13901,-523,-6747,2025-01-29 11:52:50,7
-12080,-1180,-4352,-13351,135,-6333,2025-01-29 11:52:50,7
-11752,-1852,-3508,-12621,790,-5819,2025-01-29 11:52:50,7
-11188,-2368,-3740,-11805,1361,-5297,2025-01-29 11:52:50,7
-10572,-2244,-3920,-11053,1884,-4890,2025-01-29 11:52:50,7
-10732,-1964,-3956,-10074,2967,-4622,2025-01-29 11:52:50,7
-11480,-1156,-5252,-9092,4989,-4773,2025-01-29 11:52:50,7
-13020,-800,-5896,-8446,5797,-4769,2025-01-29 11:52:50,7
-13676,-616,-6304,-7914,5060,-4708,2025-01-29 11:52:50,7
-14196,-132,-6468,-7521,3216,-4523,2025-01-29 11:52:50,7
-14284,492,-6500,-7512,907,-4099,2025-01-29 11:52:50,7
-13200,1156,-6736,-7873,-955,-3891,2025-01-29 11:52:50,7
-12332,1740,-6332,-8358,-1475,-3894,2025-01-29 11:52:50,7
-11640,1732,-5968,-8703,-782,-3883,2025-01-29 11:52:50,7
-11268,1528,-5400,-8926,-8,-4077,2025-01-29 11:52:50,7
-11248,964,-4960,-8907,152,-4398,2025-01-29 11:52:50,7
-11064,612,-5408,-8714,-216,-4685,2025-01-29 11:52:50,7
-11004,752,-5560,-8641,-296,-4978,2025-01-29 11:52:50,7
-11568,776,-4588,-8488,-119,-5025,2025-01-29 11:52:50,7
-11608,472,-4260,-8131,298,-5001,2025-01-29 11:52:50,7
-12252,-68,-4076,-7735,580,-5010,2025-01-29 11:52:50,7
-12948,-616,-4296,-7285,532,-4860,2025-01-29 11:52:50,7
-13816,-816,-4076,-6686,152,-4596,2025-01-29 11:52:50,7
-14356,-692,-3940,-5860,-663,-4171,2025-01-29 11:52:50,7
-14376,-908,-3624,-5094,-1773,-3568,2025-01-29 11:52:50,7
-13732,-780,-2796,-4372,-2359,-3006,2025-01-29 11:52:50,7
-12476,-460,-2596,-3735,-2373,-2612,2025-01-29 11:52:50,7
-11524,-260,-2972,-3230,-531,-2555,2025-01-29 11:52:50,7
-11880,-456,-2900,-2889,1217,-2423,2025-01-29 11:52:50,7
-12728,-732,-2956,-2152,2159,-1912,2025-01-29 11:52:51,7
-13564,-1168,-3428,-1656,2609,-1435,2025-01-29 11:52:51,7
-14500,-1244,-4432,-1401,2901,-783,2025-01-29 11:52:51,7
-16332,-348,-6344,-1815,2700,937,2025-01-29 11:52:51,7
-15496,1188,-8436,-2293,1947,2795,2025-01-29 11:52:51,7
-14896,2080,-8608,-3685,1200,3794,2025-01-29 11:52:51,7
-13464,2708,-6088,-4577,-582,3885,2025-01-29 11:52:51,7
-11724,3680,-4596,-4295,-2723,2668,2025-01-29 11:52:51,7
-10056,3844,-5208,-3494,-3314,-103,2025-01-29 11:52:51,7
-9408,3760,-7072,-2689,-1820,-3050,2025-01-29 11:52:51,7
-9732,1904,-8960,-2054,1150,-5790,2025-01-29 11:52:51,7
-10984,1492,-9956,-2337,2394,-6895,2025-01-29 11:52:51,7
-11388,1288,-9388,-3120,2190,-7184,2025-01-29 11:52:51,7
-11492,1040,-8712,-3897,1165,-7339,2025-01-29 11:52:51,7
-11260,200,-7860,-4568,-603,-7408,2025-01-29 11:52:51,7
-10576,-1216,-7996,-5034,-1720,-7222,2025-01-29 11:52:51,7
-10300,-2248,-7828,-5623,-2346,-6886,2025-01-29 11:52:51,7
-10076,-3020,-6876,-5791,-2252,-6455,2025-01-29 11:52:51,7
-10020,-3736,-6332,-5487,-1302,-6216,2025-01-29 11:52:51,7
-10324,-4224,-5676,-4913,229,-6236,2025-01-29 11:52:51,7
-11220,-4240,-5804,-4209,1397,-6259,2025-01-29 11:52:51,7
-12128,-3968,-6540,-3715,1228,-6094,2025-01-29 11:52:51,0.0
-12368,-3616,-7004,-3320,265,-5728,2025-01-29 11:52:51,0.0
-12224,-2940,-6760,-3076,-711,-5165,2025-01-29 11:52:51,0.0
-11376,-1992,-6756,-3169,-1382,-4783,2025-01-29 11:52:51,0.0
-10612,-1072,-6940,-3827,-1111,-4626,2025-01-29 11:52:51,0.0
-10328,-660,-6616,-4548,-296,-4708,2025-01-29 11:52:51,0.0
-10344,-944,-6376,-5195,718,-5115,2025-01-29 11:52:51,0.0
-10840,-1716,-5856,-5509,1431,-5622,2025-01-29 11:52:51,0.0
-11556,-2184,-5328,-5528,1412,-5794,2025-01-29 11:52:51,0.0
-12076,-2852,-4976,-5510,1116,-5737,2025-01-29 11:52:51,0.0
-12092,-3440,-4468,-5257,250,-5493,2025-01-29 11:52:51,0.0
-12252,-3856,-4264,-4874,-463,-4919,2025-01-29 11:52:51,0.0
-11704,-4060,-4500,-4593,-701,-4324,2025-01-29 11:52:51,0.0
-11476,-3840,-4620,-4410,-483,-3758,2025-01-29 11:52:51,1
-11296,-3320,-4820,-4394,24,-3224,2025-01-29 11:52:51,1
-11296,-2896,-4844,-4577,586,-2689,2025-01-29 11:52:51,1
-11576,-2568,-4520,-4829,914,-1999,2025-01-29 11:52:51,1
-11464,-2664,-4548,-5052,971,-1206,2025-01-29 11:52:51,1
-11012,-2940,-4616,-5057,953,-816,2025-01-29 11:52:51,1
-10644,-3604,-4856,-4883,1642,-972,2025-01-29 11:52:51,1
-10900,-3928,-5600,-4435,2669,-1374,2025-01-29 11:52:51,1
-11808,-3456,-6448,-4302,3342,-1655,2025-01-29 11:52:51,1
-13052,-3056,-6536,-4392,2856,-1427,2025-01-29 11:52:51,1
-13492,-2672,-5964,-4543,1414,-1140,2025-01-29 11:52:51,1
-13032,-3232,-5876,-4643,-489,-1397,2025-01-29 11:52:51,1
-12392,-3584,-5396,-4175,-1580,-2372,2025-01-29 11:52:51,1
-12728,-2284,-4996,-4046,-2154,-3395,2025-01-29 11:52:51,1
-13136,-976,-4096,-4577,-2107,-4045,2025-01-29 11:52:51,1
-14032,-384,-5200,-4804,-684,-4297,2025-01-29 11:52:51,1
-13888,-1896,-8056,-5319,1120,-5152,2025-01-29 11:52:51,1
-14088,-4896,-7984,-5421,2687,-6287,2025-01-29 11:52:51,1
-15000,-7952,-6400,-3575,2703,-7098,2025-01-29 11:52:51,1
-16448,-8828,-5120,-1204,1301,-5779,2025-01-29 11:52:51,1
-18244,-7372,-6248,-50,-800,-2040,2025-01-29 11:52:51,1
-16620,-4412,-7928,-308,-2040,1173,2025-01-29 11:52:51,1
-13820,-2636,-9456,-1001,-2720,1829,2025-01-29 11:52:51,1
-12608,-2252,-10320,-1684,-3710,2141,2025-01-29 11:52:51,1
-10876,-2492,-9936,-2071,-3928,2483,2025-01-29 11:52:51,1
-9252,-2404,-8916,-1997,-3933,2229,2025-01-29 11:52:51,1
-7864,-1800,-8000,-1550,-4237,1400,2025-01-29 11:52:52,1
-6980,-892,-7800,-1146,-4484,883,2025-01-29 11:52:52,1
-6444,480,-7852,-1079,-3887,324,2025-01-29 11:52:52,1
-6744,2060,-7700,-1462,-1522,-239,2025-01-29 11:52:52,1
-7396,2408,-8076,-2656,2992,-1115,2025-01-29 11:52:52,1
-9676,620,-8420,-3947,6420,-1821,2025-01-29 11:52:52,1
-11604,-1060,-8640,-4428,7498,-1587,2025-01-29 11:52:52,1
-12608,-2520,-8540,-4401,6893,-1437,2025-01-29 11:52:52,1
-13820,-3184,-6888,-3819,4017,-1051,2025-01-29 11:52:52,1
-14652,-3372,-5672,-2702,400,-9,2025-01-29 11:52:52,1
-14052,-2572,-5612,-1553,-2354,1447,2025-01-29 11:52:52,1
-12656,-1496,-6432,-1319,-3261,2194,2025-01-29 11:52:52,1
-11076,-604,-6008,-1185,-3567,2750,2025-01-29 11:52:52,1
-9556,-456,-5984,-982,-3403,2835,2025-01-29 11:52:52,1
-8884,-376,-5120,-818,-2333,2623,2025-01-29 11:52:52,1
-8848,-132,-5028,-780,-320,2365,2025-01-29 11:52:52,1
-9436,284,-5060,-987,1666,1991,2025-01-29 11:52:52,1
-10320,520,-5192,-1073,2252,1617,2025-01-29 11:52:52,1
-11032,512,-5292,-1056,1878,1162,2025-01-29 11:52:52,1
-11532,212,-5552,-936,544,708,2025-01-29 11:52:52,1
-12004,-8,-5004,-673,-977,598,2025-01-29 11:52:52,1
-11800,-212,-4556,-389,-1785,521,2025-01-29 11:52:52,1
-11476,-456,-4096,-3,-1862,329,2025-01-29 11:52:52,1
-11556,-688,-3684,396,-1565,351,2025-01-29 11:52:52,1
-11596,-1080,-3664,771,-1425,430,2025-01-29 11:52:52,1
-11648,-1064,-3780,1306,-1635,419,2025-01-29 11:52:52,1
-12220,-336,-4384,1870,-1882,538,2025-01-29 11:52:52,1
-12504,328,-5176,2046,-2051,640,2025-01-29 11:52:52,1
-12524,776,-6152,2017,-1749,845,2025-01-29 11:52:52,1
-12696,264,-6040,1768,-1142,1174,2025-01-29 11:52:52,1
-12528,-52,-5220,1710,-274,1357,2025-01-29 11:52:52,1
-12992,4,-4496,1820,662,1511,2025-01-29 11:52:52,1
-14000,-8,-4684,2118,1659,1780,2025-01-29 11:52:52,1
-14972,-604,-6084,2276,2554,2016,2025-01-29 11:52:52,1
-16872,-1336,-7564,1973,3342,2367,2025-01-29 11:52:52,1
-17796,-568,-9336,1642,3374,3060,2025-01-29 11:52:52,1
-18400,1580,-10072,450,1407,3834,2025-01-29 11:52:52,1
-15672,4548,-11428,-1572,-2941,3950,2025-01-29 11:52:52,1
-12192,5524,-9608,-2419,-5476,2238,2025-01-29 11:52:52,1
-9512,3400,-7964,-2559,-5664,-1195,2025-01-29 11:52:52,1
-8796,940,-8752,-3028,-5643,-3191,2025-01-29 11:52:52,1
-8272,-1024,-8240,-2934,-5105,-3481,2025-01-29 11:52:52,1
-7712,-3548,-6932,-1919,-3617,-3220,2025-01-29 11:52:52,1
-7856,-5480,-6200,-766,-981,-2881,2025-01-29 11:52:52,1
-8348,-6052,-5900,4,2597,-2584,2025-01-29 11:52:52,1
-9412,-4956,-5260,1085,5180,-2207,2025-01-29 11:52:52,1
-11048,-3424,-5684,2117,5682,-1816,2025-01-29 11:52:52,1
-12756,-2200,-6024,2542,5590,-1558,2025-01-29 11:52:52,1
-13436,-1932,-6836,2430,4816,-1588,2025-01-29 11:52:52,1
-12984,-1844,-8568,2012,2147,-2038,2025-01-29 11:52:52,1
-12472,-1600,-9256,1732,-776,-2293,2025-01-29 11:52:52,1
-12036,-996,-8616,1473,-2222,-1939,2025-01-29 11:52:52,1
-11084,-572,-6948,1087,-2446,-1827,2025-01-29 11:52:52,1
-9248,-724,-6268,662,-2168,-2204,2025-01-29 11:52:52,1
-8848,-1368,-5356,188,-1333,-2816,2025-01-29 11:52:52,1
-8644,-2292,-5420,141,120,-3029,2025-01-29 11:52:52,1
-9760,-3072,-4656,335,2107,-3336,2025-01-29 11:52:52,1
-10392,-3480,-5336,401,3149,-3484,2025-01-29 11:52:52,1
-10628,-3660,-5692,346,3038,-3285,2025-01-29 11:52:52,1
-11440,-3516,-5884,249,2294,-2846,2025-01-29 11:52:52,1
-11836,-3364,-5916,93,1352,-2380,2025-01-29 11:52:52,1
-12172,-2880,-5632,-134,457,-1558,2025-01-29 11:52:52,1
-11416,-2368,-5712,-386,-139,-1028,2025-01-29 11:52:53,1
-11120,-1992,-5820,-832,-318,-918,2025-01-29 11:52:53,1
-10856,-1804,-5656,-1364,-262,-757,2025-01-29 11:52:53,1
-10856,-1792,-4884,-1808,-100,-551,2025-01-29 11:52:53,1
-10860,-1740,-4276,-2261,239,-410,2025-01-29 11:52:53,1
-11156,-1792,-4380,-2717,571,-162,2025-01-29 11:52:53,1
-11576,-2180,-4616,-3090,903,205,2025-01-29 11:52:53,1
-11864,-3000,-4624,-3401,1325,456,2025-01-29 11:52:53,1
-11464,-3652,-5056,-3489,1378,287,2025-01-29 11:52:53,1
-10936,-4092,-5160,-2964,1166,-381,2025-01-29 11:52:53,1
-11440,-4252,-5484,-2083,1129,-892,2025-01-29 11:52:53,1
-11356,-4428,-5768,-1575,1812,-1059,2025-01-29 11:52:53,1
-11712,-4256,-6136,-1339,2706,-1587,2025-01-29 11:52:53,1
-13208,-3716,-5880,-1527,3296,-2155,2025-01-29 11:52:53,1
-15200,-2328,-5084,-1885,3296,-2362,2025-01-29 11:52:53,1
-16460,-1000,-4716,-2549,2106,-2682,2025-01-29 11:52:53,1
-17640,-780,-4088,-3528,2,-2595,2025-01-29 11:52:53,1
-16116,-2368,-6564,-4015,-1913,-2205,2025-01-29 11:52:53,1
-14464,-4168,-9208,-4156,-2754,-1982,2025-01-29 11:52:53,1
-14016,-6336,-6956,-2619,-744,-2016,2025-01-29 11:52:53,1
-13756,-7736,-6716,-502,-824,-2178,2025-01-29 11:52:53,1
-14496,-7956,-8372,1778,-2038,-1500,2025-01-29 11:52:53,1
-14616,-5912,-9864,2780,-3416,452,2025-01-29 11:52:53,1
-12144,-3852,-10176,2850,-4463,919,2025-01-29 11:52:53,1
-10872,-1372,-9836,2323,-6196,612,2025-01-29 11:52:53,1
-9552,252,-10036,1356,-7030,1264,2025-01-29 11:52:53,1
-8256,1456,-10436,-183,-5750,1973,2025-01-29 11:52:53,1
-7440,2048,-10352,-2025,-2053,1768,2025-01-29 11:52:53,1
-8012,1352,-9828,-3139,2112,913,2025-01-29 11:52:53,1
-9684,-388,-8912,-3401,4716,300,2025-01-29 11:52:53,1
-11636,-1676,-7656,-2628,5153,-34,2025-01-29 11:52:53,1
-12788,-2216,-7132,-1691,3233,-137,2025-01-29 11:52:53,1
-13856,-2120,-7584,-1093,-348,748,2025-01-29 11:52:53,1
-12924,-2116,-7356,-889,-2623,2068,2025-01-29 11:52:53,1
-11072,-2000,-6880,-615,-3412,2711,2025-01-29 11:52:53,1
-9576,-1764,-5968,-34,-3548,3101,2025-01-29 11:52:53,1
-8448,-1272,-5404,438,-3118,3335,2025-01-29 11:52:53,1
-8048,-588,-4820,856,-1677,3340,2025-01-29 11:52:53,1
-8484,-52,-4756,1132,503,3103,2025-01-29 11:52:53,1
-9032,152,-5244,1419,2679,2871,2025-01-29 11:52:53,1
-10088,268,-5796,1635,3897,2612,2025-01-29 11:52:53,1
-11404,500,-5972,1730,4097,2487,2025-01-29 11:52:53,1
-12324,340,-5736,1771,2228,2132,2025-01-29 11:52:53,1
-12316,228,-5212,1963,-63,1606,2025-01-29 11:52:53,1
-11952,-288,-5152,2040,-1321,1294,2025-01-29 11:52:53,1
-10916,-704,-4672,2203,-1926,1045,2025-01-29 11:52:53,1
-10160,-1084,-4308,2403,-1656,695,2025-01-29 11:52:53,1
-10024,-1440,-4160,2606,-623,422,2025-01-29 11:52:53,1
-10472,-1392,-4368,2714,445,64,2025-01-29 11:52:53,1
-11432,-1028,-5172,2777,1064,-128,2025-01-29 11:52:53,1
-12604,-448,-5692,2603,1209,66,2025-01-29 11:52:53,1
-13208,-180,-5344,2507,848,328,2025-01-29 11:52:53,1
-13876,-180,-4860,2600,-85,557,2025-01-29 11:52:53,1
-13672,-404,-4384,2729,-1561,629,2025-01-29 11:52:53,1
-13052,-744,-4344,3003,-2813,522,2025-01-29 11:52:53,1
-11868,-680,-4980,3301,-3115,188,2025-01-29 11:52:53,1
-11540,-92,-5548,3435,-2165,23,2025-01-29 11:52:53,1
-12192,292,-4848,3141,-177,196,2025-01-29 11:52:53,1
-12948,440,-3684,3069,1182,634,2025-01-29 11:52:53,1
-13848,72,-3036,3074,1669,1125,2025-01-29 11:52:53,1
-15168,-1680,-3632,3015,2484,1908,2025-01-29 11:52:53,1
-15532,-3072,-4712,3372,4171,3032,2025-01-29 11:52:53,1
-15364,-1620,-6092,3793,4351,3415,2025-01-29 11:52:53,1
-15500,1132,-8604,2846,3149,3768,2025-01-29 11:52:54,1
-14892,2044,-10840,1650,2590,3220,2025-01-29 11:52:54,1
-14872,2748,-13300,260,2460,2336,2025-01-29 11:52:54,1
-14856,3500,-11756,-964,1457,1729,2025-01-29 11:52:54,1
-12656,2024,-9780,-1148,-1593,339,2025-01-29 11:52:54,1
-11100,-988,-8644,-567,-4824,-1056,2025-01-29 11:52:54,1
-9416,-3252,-7392,553,-6676,-1417,2025-01-29 11:52:54,1
-7904,-4924,-6952,1344,-7144,-1214,2025-01-29 11:52:54,1
-6712,-6012,-7032,1972,-5891,-765,2025-01-29 11:52:54,1
-6364,-6144,-7652,2233,-2298,-355,2025-01-29 11:52:54,1
-7092,-3904,-7600,2410,2680,-164,2025-01-29 11:52:54,1
-8460,-1392,-7228,2358,5963,-419,2025-01-29 11:52:54,1
-11144,668,-7320,1383,7336,-799,2025-01-29 11:52:54,1
-12120,816,-7796,420,6066,-1309,2025-01-29 11:52:54,1
-13000,-472,-7224,-53,3006,-2261,2025-01-29 11:52:54,1
-13788,-1948,-7112,-137,-126,-2996,2025-01-29 11:52:54,1
-13888,-3316,-7304,-150,-2321,-2773,2025-01-29 11:52:54,1
-12756,-3944,-6312,-16,-3387,-1937,2025-01-29 11:52:54,1
-10720,-3700,-5844,173,-3286,-1669,2025-01-29 11:52:54,1
-9392,-3164,-5696,258,-2523,-1669,2025-01-29 11:52:54,1
-8648,-2640,-5676,149,-1144,-1811,2025-01-29 11:52:54,1
-8824,-2404,-5304,-243,1092,-2044,2025-01-29 11:52:54,1
-9708,-2600,-4968,-467,2776,-2144,2025-01-29 11:52:54,1
-10800,-2888,-4940,-368,3391,-2153,2025-01-29 11:52:54,1
-12104,-3152,-5028,-173,3125,-2065,2025-01-29 11:52:54,1
-13108,-2992,-5144,-67,2279,-1460,2025-01-29 11:52:54,1
-13228,-2888,-5360,-217,1007,-695,2025-01-29 11:52:54,1
-12724,-2492,-5288,-338,-125,-183,2025-01-29 11:52:54,1
-12184,-2188,-5288,-470,-844,66,2025-01-29 11:52:54,1
-11240,-1928,-5192,-767,-1035,155,2025-01-29 11:52:54,1
-10780,-1468,-4820,-1033,-604,55,2025-01-29 11:52:54,1
-10796,-1316,-4780,-1446,410,190,2025-01-29 11:52:54,1
-10588,-1620,-4520,-1771,1317,68,2025-01-29 11:52:54,1
-10620,-1944,-4928,-1972,1736,-280,2025-01-29 11:52:54,1
-11624,-1940,-4748,-2257,1732,-440,2025-01-29 11:52:54,1
-11548,-2448,-4996,-2303,1511,-373,2025-01-29 11:52:54,1
-11516,-2804,-5480,-2402,1285,-540,2025-01-29 11:52:54,1
-11676,-2528,-6568,-2596,1288,-678,2025-01-29 11:52:54,1
-12152,-2216,-7008,-2783,1709,-928,2025-01-29 11:52:54,1
-12476,-2064,-6740,-3137,1974,-1599,2025-01-29 11:52:54,1
-13296,-1936,-6200,-3500,1187,-2463,2025-01-29 11:52:54,1
-14296,-1600,-5620,-3915,-159,-2933,2025-01-29 11:52:54,1
-13532,-1300,-5828,-5345,-3518,-3456,2025-01-29 11:52:54,1
-12964,-2580,-6136,-5558,-3684,-4441,2025-01-29 11:52:54,1
-12488,-4664,-5520,-4961,-3003,-5209,2025-01-29 11:52:54,1
-12688,-6764,-5000,-3977,-2231,-5461,2025-01-29 11:52:54,1
-13924,-7552,-5852,-2881,-1227,-4627,2025-01-29 11:52:54,1
-15880,-6600,-6908,-1919,-443,-1972,2025-01-29 11:52:54,1
-14232,-5488,-7796,-900,-753,-250,2025-01-29 11:52:54,1
-13480,-4696,-8348,-81,-1508,-912,2025-01-29 11:52:54,1
-14088,-3828,-9004,-346,-2688,-982,2025-01-29 11:52:54,1
-12960,-2388,-8852,-741,-4662,83,2025-01-29 11:52:54,1
-11540,-920,-8988,-1364,-5482,1385,2025-01-29 11:52:54,1
