acceleration_x,acceleration_y,acceleration_z,gyroscope_x,gyroscope_y,gyroscope_z,timestamp,label
-10836,-440,-7984,-211,210,-176,2025-01-29 10:35:08,1
-10948,-508,-7980,-203,84,-238,2025-01-29 10:35:08,1
-10912,-616,-7916,-197,4,-195,2025-01-29 10:35:08,1
-10864,-684,-8000,-151,25,-170,2025-01-29 10:35:08,1
-10732,-656,-7800,-111,125,-108,2025-01-29 10:35:08,1
-10736,-612,-7820,-102,236,-107,2025-01-29 10:35:08,1
-10924,-360,-7888,-56,254,-134,2025-01-29 10:35:08,1
-10964,-436,-7964,-55,231,-159,2025-01-29 10:35:08,1
-10916,-432,-7992,-84,140,-146,2025-01-29 10:35:08,1
-11020,-636,-7904,-106,80,-142,2025-01-29 10:35:08,1
-11032,-524,-8112,-132,41,-145,2025-01-29 10:35:08,1
-10904,-396,-8044,-197,-9,-155,2025-01-29 10:35:08,1
-10772,-364,-7960,-299,-57,-185,2025-01-29 10:35:08,1
-10748,-376,-7876,-354,-4,-152,2025-01-29 10:35:08,1
-10796,-248,-7896,-453,128,-206,2025-01-29 10:35:08,1
-11008,-252,-7956,-478,162,-271,2025-01-29 10:35:08,1
-10968,-516,-7644,-492,88,-283,2025-01-29 10:35:08,1
-10928,-664,-7820,-450,102,-286,2025-01-29 10:35:08,1
-10888,-684,-7660,-348,155,-237,2025-01-29 10:35:08,1
-10896,-688,-7804,-259,236,-260,2025-01-29 10:35:08,1
-10808,-564,-7948,-202,286,-215,2025-01-29 10:35:08,1
-10800,-588,-7828,-217,321,-247,2025-01-29 10:35:08,1
-10864,-524,-7956,-239,349,-242,2025-01-29 10:35:08,1
-10848,-604,-8000,-197,310,-224,2025-01-29 10:35:08,1
-10864,-520,-8088,-181,349,-223,2025-01-29 10:35:08,1
-11004,-584,-8076,-170,282,-212,2025-01-29 10:35:08,1
-11024,-656,-7956,-125,149,-186,2025-01-29 10:35:08,1
-10900,-608,-8028,-130,48,-173,2025-01-29 10:35:08,1
-10860,-624,-8152,-136,8,-198,2025-01-29 10:35:08,1
-10768,-688,-7900,-158,122,-170,2025-01-29 10:35:08,1
-10780,-592,-7764,-109,263,-148,2025-01-29 10:35:08,1
-10792,-536,-8016,-120,269,-161,2025-01-29 10:35:08,1
-10900,-660,-8048,-145,200,-136,2025-01-29 10:35:08,1
-10980,-440,-7976,-145,110,-59,2025-01-29 10:35:08,1
-10832,-456,-7964,-157,173,-140,2025-01-29 10:35:08,1
-10864,-384,-7936,-180,254,-161,2025-01-29 10:35:08,1
-10936,-484,-7980,-179,251,-133,2025-01-29 10:35:08,1
-10936,-484,-8068,-170,194,-130,2025-01-29 10:35:08,1
-10936,-492,-8132,-180,211,-163,2025-01-29 10:35:08,1
-10960,-492,-7868,-172,198,-160,2025-01-29 10:35:08,1
-10900,-476,-8024,-161,92,-152,2025-01-29 10:35:08,1
-10868,-540,-7924,-122,-39,-95,2025-01-29 10:35:08,1
-10784,-468,-8000,-50,72,-122,2025-01-29 10:35:08,1
-10752,-500,-7964,-57,163,-127,2025-01-29 10:35:08,1
-10860,-496,-7968,-17,312,-114,2025-01-29 10:35:08,1
-10964,-508,-7876,-29,333,-106,2025-01-29 10:35:08,1
-10952,-384,-7876,-12,271,-73,2025-01-29 10:35:08,1
-10888,-324,-7836,-64,170,-98,2025-01-29 10:35:08,1
-10928,-392,-8096,-99,124,-116,2025-01-29 10:35:08,1
-10768,-396,-8032,-104,186,-116,2025-01-29 10:35:08,1
-10980,-544,-7868,-124,172,-91,2025-01-29 10:35:08,1
-10840,-556,-7892,-102,166,-87,2025-01-29 10:35:08,1
-10852,-408,-8012,-110,158,-132,2025-01-29 10:35:08,1
-10752,-376,-7972,-144,125,-130,2025-01-29 10:35:08,1
-10952,-444,-7988,-181,65,-148,2025-01-29 10:35:08,1
-10728,-388,-8040,-234,72,-201,2025-01-29 10:35:08,1
-10828,-476,-7820,-222,152,-180,2025-01-29 10:35:08,1
-10864,-500,-8200,-229,214,-184,2025-01-29 10:35:08,1
-10876,-484,-8088,-224,244,-156,2025-01-29 10:35:08,1
-10860,-644,-7864,-246,176,-147,2025-01-29 10:35:09,1
-10888,-552,-8132,-200,126,-92,2025-01-29 10:35:09,1
-10992,-688,-8036,-126,147,-18,2025-01-29 10:35:09,1
-10896,-680,-8016,-83,172,35,2025-01-29 10:35:09,1
-10832,-748,-7964,15,220,42,2025-01-29 10:35:09,1
-11068,-712,-7904,115,379,116,2025-01-29 10:35:09,1
-11072,-744,-8160,207,535,204,2025-01-29 10:35:09,1
-11252,-328,-8364,301,586,339,2025-01-29 10:35:09,1
-11452,-80,-7976,187,368,585,2025-01-29 10:35:09,1
-11232,-124,-7504,236,-3,685,2025-01-29 10:35:09,1
-11120,-188,-7520,351,-95,697,2025-01-29 10:35:09,1
-10988,-116,-7104,475,120,652,2025-01-29 10:35:09,1
-11072,92,-6908,733,649,620,2025-01-29 10:35:09,1
-10968,280,-7532,958,898,518,2025-01-29 10:35:09,1
-11264,556,-7644,929,533,303,2025-01-29 10:35:09,1
-11380,668,-7652,910,124,195,2025-01-29 10:35:09,1
-10712,568,-7624,848,-364,73,2025-01-29 10:35:09,1
-10352,476,-7796,859,-501,-97,2025-01-29 10:35:09,1
-10660,444,-7576,877,123,-152,2025-01-29 10:35:09,1
-10824,268,-7324,987,861,-127,2025-01-29 10:35:09,1
-11268,160,-7084,1165,900,-170,2025-01-29 10:35:09,1
-11780,92,-7360,1250,228,-87,2025-01-29 10:35:09,1
-11828,60,-7420,1329,-883,-83,2025-01-29 10:35:09,1
-11484,160,-7668,1404,-1445,-48,2025-01-29 10:35:09,1
-11260,84,-7436,1492,-1301,41,2025-01-29 10:35:09,1
-10688,12,-7364,1722,-971,103,2025-01-29 10:35:09,1
-10612,76,-7360,1924,-436,-40,2025-01-29 10:35:09,1
-10388,-124,-7508,1991,15,-274,2025-01-29 10:35:09,1
-10644,-400,-7932,2178,154,-459,2025-01-29 10:35:09,1
-10796,-576,-8504,2373,-29,-661,2025-01-29 10:35:09,1
-10988,-700,-8316,2319,-191,-841,2025-01-29 10:35:09,1
-11064,-572,-8264,2353,-305,-941,2025-01-29 10:35:09,1
-10664,-304,-8776,2174,-165,-1270,2025-01-29 10:35:09,1
-10584,-608,-8368,2052,-161,-1779,2025-01-29 10:35:09,1
-11084,-1112,-8180,1867,-217,-2135,2025-01-29 10:35:09,1
-11224,-1352,-7404,1907,81,-2152,2025-01-29 10:35:09,1
-11120,-1092,-7820,1777,171,-2248,2025-01-29 10:35:09,1
-11328,-1176,-8192,1307,-628,-2340,2025-01-29 10:35:09,1
-11548,-1700,-7368,913,-1695,-2400,2025-01-29 10:35:09,1
-11412,-2296,-6924,928,-2686,-2203,2025-01-29 10:35:09,1
-10900,-2580,-6616,834,-2794,-1946,2025-01-29 10:35:09,1
-10292,-3048,-5568,751,-1880,-1706,2025-01-29 10:35:09,1
-10304,-2980,-4888,698,-392,-1321,2025-01-29 10:35:09,1
-10360,-2672,-5300,433,1173,-1092,2025-01-29 10:35:09,1
-10856,-2476,-6196,147,2014,-1346,2025-01-29 10:35:09,1
-11824,-2532,-6600,43,2363,-1324,2025-01-29 10:35:09,1
-12048,-2712,-6740,-86,2066,-1287,2025-01-29 10:35:09,1
-12352,-2960,-6436,-110,1419,-1425,2025-01-29 10:35:09,1
-12592,-2828,-6480,-79,538,-1297,2025-01-29 10:35:09,1
-12004,-2372,-6520,-220,-260,-1139,2025-01-29 10:35:09,1
-11440,-2240,-6384,-517,-654,-1114,2025-01-29 10:35:09,1
-10792,-2448,-6368,-898,-652,-1197,2025-01-29 10:35:09,1
-11004,-2836,-5860,-1030,-298,-1283,2025-01-29 10:35:09,1
-11224,-3060,-5580,-1008,252,-1065,2025-01-29 10:35:09,1
-11180,-3392,-5472,-946,609,-890,2025-01-29 10:35:09,1
-11564,-3384,-5628,-942,668,-932,2025-01-29 10:35:09,1
-11808,-3024,-6076,-1180,563,-846,2025-01-29 10:35:09,1
-11460,-2176,-6356,-1602,312,-866,2025-01-29 10:35:09,1
-10792,-1652,-6860,-1954,651,-1259,2025-01-29 10:35:09,1
-10720,-1780,-6848,-2436,1080,-1623,2025-01-29 10:35:09,1
-10772,-2180,-6248,-2685,1558,-1698,2025-01-29 10:35:09,1
-10936,-2620,-6168,-3037,2116,-1959,2025-01-29 10:35:10,1
-11900,-3112,-6352,-3114,2139,-2257,2025-01-29 10:35:10,1
-12504,-3188,-6552,-3389,1045,-2403,2025-01-29 10:35:10,1
-12656,-2688,-6636,-3700,62,-2418,2025-01-29 10:35:10,1
-12308,-2268,-6356,-4135,-570,-2677,2025-01-29 10:35:10,1
-12196,-2192,-5768,-4499,-704,-2949,2025-01-29 10:35:10,1
-11548,-3044,-6208,-4966,-521,-3329,2025-01-29 10:35:10,1
-11292,-3852,-6752,-4992,81,-3733,2025-01-29 10:35:10,1
-11472,-4612,-6920,-4820,945,-4136,2025-01-29 10:35:10,1
-12376,-5040,-6656,-4148,1702,-4303,2025-01-29 10:35:10,1
-13404,-5776,-6168,-3059,1620,-4266,2025-01-29 10:35:10,1
-14420,-6384,-6536,-1946,647,-3611,2025-01-29 10:35:10,1
-14720,-6580,-8172,-1375,-364,-2249,2025-01-29 10:35:10,1
-14096,-5932,-8948,-1261,-1152,-429,2025-01-29 10:35:10,1
-12684,-4728,-8684,-923,-1733,413,2025-01-29 10:35:10,1
-12380,-4080,-8168,-794,-1702,747,2025-01-29 10:35:10,1
-12080,-3644,-8116,-691,-1572,1333,2025-01-29 10:35:10,1
-11492,-2924,-8272,-622,-1614,1784,2025-01-29 10:35:10,1
-11304,-2444,-8404,-781,-1752,1959,2025-01-29 10:35:10,1
-11364,-1772,-8840,-1139,-2082,2081,2025-01-29 10:35:10,1
-10924,-856,-9500,-1742,-2589,2164,2025-01-29 10:35:10,1
-10000,248,-9936,-2637,-3241,2033,2025-01-29 10:35:10,1
-8988,1476,-10248,-3722,-3488,1759,2025-01-29 10:35:10,1
-7880,1988,-9808,-4634,-2918,1152,2025-01-29 10:35:10,1
-7112,2340,-9208,-5091,-1727,227,2025-01-29 10:35:10,1
-7484,1376,-8644,-5348,368,-816,2025-01-29 10:35:10,1
-8868,-60,-8368,-5256,2156,-893,2025-01-29 10:35:10,1
-10776,-1608,-8008,-4714,3545,-214,2025-01-29 10:35:10,1
-12044,-2752,-7456,-4008,3874,460,2025-01-29 10:35:10,1
-13240,-3340,-7244,-2944,3435,1215,2025-01-29 10:35:10,1
-14156,-3216,-6896,-1962,2065,2227,2025-01-29 10:35:10,1
-14252,-2468,-6640,-1013,-175,3377,2025-01-29 10:35:10,1
-12896,-1520,-7064,-140,-2221,4181,2025-01-29 10:35:10,1
-11268,-920,-7456,519,-3117,4398,2025-01-29 10:35:10,1
-9908,-136,-7132,1055,-3270,4511,2025-01-29 10:35:10,1
-8688,708,-6532,1352,-2755,4430,2025-01-29 10:35:10,1
-7944,1444,-6540,1530,-1333,4272,2025-01-29 10:35:10,1
-7608,2384,-7044,1364,999,3874,2025-01-29 10:35:10,1
-7844,2960,-7328,1011,3001,3277,2025-01-29 10:35:10,1
-8984,3116,-7544,480,4214,2457,2025-01-29 10:35:10,1
-10684,2664,-7368,81,4250,2005,2025-01-29 10:35:10,1
-11272,2484,-7896,-307,3100,1694,2025-01-29 10:35:10,1
-11048,2052,-7588,-528,1458,1257,2025-01-29 10:35:10,1
-11144,1604,-7276,-684,101,796,2025-01-29 10:35:10,1
-10920,964,-6680,-810,-356,929,2025-01-29 10:35:10,1
-9964,168,-5952,-507,193,1065,2025-01-29 10:35:10,1
-9200,-700,-5860,88,1327,1036,2025-01-29 10:35:10,1
-9096,-1228,-6120,800,2598,767,2025-01-29 10:35:10,1
-9768,-996,-6236,1543,3450,352,2025-01-29 10:35:10,1
-11016,-64,-6236,2012,3491,122,2025-01-29 10:35:10,1
-12348,1052,-6492,1990,2478,21,2025-01-29 10:35:10,1
-12196,1908,-6520,1785,473,-233,2025-01-29 10:35:10,1
-11928,1856,-6636,1558,-1314,-840,2025-01-29 10:35:10,1
-12108,1196,-5964,1549,-2102,-1146,2025-01-29 10:35:10,1
-11924,780,-5656,1934,-2146,-1026,2025-01-29 10:35:10,1
-10940,368,-6828,2331,-2272,-941,2025-01-29 10:35:10,1
-11196,-632,-6784,2634,-1716,-716,2025-01-29 10:35:10,1
-12388,-1944,-5972,3214,-436,298,2025-01-29 10:35:10,1
-13148,-1796,-6612,3343,691,1441,2025-01-29 10:35:10,1
-13920,-2136,-6232,3363,1587,2722,2025-01-29 10:35:10,1
-14568,-2968,-5700,3853,1466,3847,2025-01-29 10:35:10,1
-15316,-3160,-6224,4585,1197,5142,2025-01-29 10:35:11,1
-14848,-1924,-6992,5360,969,6230,2025-01-29 10:35:11,1
-14288,2068,-9972,5628,1847,7071,2025-01-29 10:35:11,1
-12876,3680,-12176,5169,2729,6401,2025-01-29 10:35:11,1
-12928,4012,-12964,3977,2428,4954,2025-01-29 10:35:11,1
-13100,4324,-12192,2672,1177,3454,2025-01-29 10:35:11,1
-12520,3232,-11600,1796,-428,1901,2025-01-29 10:35:11,1
-11964,2340,-11048,1506,-1937,419,2025-01-29 10:35:11,1
-11052,2436,-9644,1538,-3404,-518,2025-01-29 10:35:11,1
-9300,2736,-8424,2015,-4461,-981,2025-01-29 10:35:11,1
-7480,1172,-7464,2515,-4424,-1530,2025-01-29 10:35:11,1
-6936,-392,-6852,2865,-3872,-1719,2025-01-29 10:35:11,1
-6944,-1012,-6992,3047,-2310,-1323,2025-01-29 10:35:11,1
-6576,-864,-8464,3159,178,-588,2025-01-29 10:35:11,1
-6828,-888,-9684,2673,2876,-601,2025-01-29 10:35:11,1
-7592,-980,-9764,2220,4450,-1141,2025-01-29 10:35:11,1
-9708,-596,-9296,1887,4243,-1575,2025-01-29 10:35:11,1
-10628,-512,-9712,1587,2330,-1743,2025-01-29 10:35:11,1
-11044,-848,-9056,1214,-496,-1743,2025-01-29 10:35:11,1
-10788,-1340,-8336,1139,-2299,-1684,2025-01-29 10:35:11,1
-10056,-1376,-8456,828,-2720,-1854,2025-01-29 10:35:11,1
-9508,-1380,-8992,441,-2240,-2081,2025-01-29 10:35:11,1
-9116,-1140,-9520,144,-1185,-2309,2025-01-29 10:35:11,1
-9168,-892,-9468,-304,-459,-2871,2025-01-29 10:35:11,1
-9596,-700,-8976,-741,-363,-3374,2025-01-29 10:35:11,1
-9696,-732,-8016,-1195,-789,-3753,2025-01-29 10:35:11,1
-9648,-1064,-7888,-1691,-930,-4265,2025-01-29 10:35:11,1
-9836,-1484,-7476,-2101,-460,-4864,2025-01-29 10:35:11,1
-10024,-1744,-7368,-2387,-125,-5298,2025-01-29 10:35:11,1
-10288,-1852,-7188,-2635,40,-5378,2025-01-29 10:35:11,1
-10236,-2188,-6988,-3035,25,-5250,2025-01-29 10:35:11,1
-10356,-2488,-6948,-3436,87,-5109,2025-01-29 10:35:11,1
-9976,-2792,-6788,-3759,218,-4957,2025-01-29 10:35:11,1
-10088,-2940,-6560,-3981,660,-4665,2025-01-29 10:35:11,1
-9796,-2528,-6584,-4069,1139,-4432,2025-01-29 10:35:11,1
-9828,-2268,-7224,-4275,1720,-4328,2025-01-29 10:35:11,1
-10268,-2028,-7476,-4653,2495,-4164,2025-01-29 10:35:11,1
-10940,-1936,-7204,-5268,2752,-3729,2025-01-29 10:35:11,1
-11252,-2212,-6532,-5657,2573,-3320,2025-01-29 10:35:11,1
-11484,-2848,-6420,-5696,2327,-3212,2025-01-29 10:35:11,1
-11540,-3332,-6580,-5270,1935,-3181,2025-01-29 10:35:11,1
-11440,-3660,-7668,-4881,1467,-3095,2025-01-29 10:35:11,1
-11468,-3296,-7640,-4587,1202,-2965,2025-01-29 10:35:11,1
-11652,-2624,-7220,-4442,1273,-2790,2025-01-29 10:35:11,1
-11844,-2752,-6712,-4224,1074,-2492,2025-01-29 10:35:11,1
-11812,-3332,-6920,-3958,959,-2376,2025-01-29 10:35:11,1
-11956,-3528,-7240,-3679,828,-2139,2025-01-29 10:35:11,1
-11748,-2948,-7832,-3538,443,-1773,2025-01-29 10:35:11,1
-11216,-1704,-7384,-3749,194,-1557,2025-01-29 10:35:11,1
-10392,-504,-7012,-4370,856,-2160,2025-01-29 10:35:11,1
-11096,-476,-6948,-5018,1907,-3027,2025-01-29 10:35:11,1
-11816,-1104,-6920,-5224,2822,-3575,2025-01-29 10:35:11,1
-12736,-2644,-9116,-5095,3786,-4188,2025-01-29 10:35:11,1
-13688,-4460,-10088,-4536,4151,-4530,2025-01-29 10:35:11,1
-14416,-5824,-10728,-2929,3589,-4433,2025-01-29 10:35:11,1
-15140,-6448,-10844,-1195,1561,-3747,2025-01-29 10:35:11,1
-15856,-5840,-11424,185,-2167,-1645,2025-01-29 10:35:11,1
-14124,-3528,-12436,-115,-4078,390,2025-01-29 10:35:11,1
-11636,-1908,-12228,-938,-4993,1223,2025-01-29 10:35:11,1
-9888,-1352,-11672,-2005,-5774,1722,2025-01-29 10:35:11,1
-7768,-1596,-10460,-2599,-6424,2199,2025-01-29 10:35:12,1
-5952,-1280,-9644,-2545,-6726,2375,2025-01-29 10:35:12,1
-4528,-620,-8472,-2143,-6215,2234,2025-01-29 10:35:12,1
-3648,-128,-7364,-1063,-3664,1475,2025-01-29 10:35:12,1
-3668,-48,-7144,100,292,145,2025-01-29 10:35:12,1
-6244,-172,-8600,838,4552,-1124,2025-01-29 10:35:12,1
-8928,-500,-10236,653,6090,-907,2025-01-29 10:35:12,1
-11116,-568,-11404,78,6067,-537,2025-01-29 10:35:12,1
-12824,-604,-11308,-490,5128,-201,2025-01-29 10:35:12,1
-14720,-960,-10680,-841,3331,559,2025-01-29 10:35:12,1
-15240,-1592,-9816,-823,752,1829,2025-01-29 10:35:12,1
-14172,-2072,-9344,-626,-2813,3313,2025-01-29 10:35:12,1
-11016,-2156,-8924,-361,-5265,3903,2025-01-29 10:35:12,1
-9652,-1952,-7840,117,-5826,4271,2025-01-29 10:35:12,1
-8392,-1380,-6396,960,-4767,4763,2025-01-29 10:35:12,1
-7052,-508,-6504,1574,-2554,4944,2025-01-29 10:35:12,1
-6852,456,-6828,1852,-359,4645,2025-01-29 10:35:12,1
-7324,864,-7356,1897,1909,4135,2025-01-29 10:35:12,1
-8780,860,-6932,1721,3586,3755,2025-01-29 10:35:12,1
-10308,736,-6984,1732,4228,3704,2025-01-29 10:35:12,1
-11108,424,-7332,1777,3831,3740,2025-01-29 10:35:12,1
-11464,-76,-7092,1952,2554,3534,2025-01-29 10:35:12,1
-10684,-124,-7312,2458,278,2883,2025-01-29 10:35:12,1
-9952,92,-7000,2696,-822,2260,2025-01-29 10:35:12,1
-9084,584,-7140,2783,-866,1801,2025-01-29 10:35:12,1
-8744,636,-6764,2840,-326,1455,2025-01-29 10:35:12,1
-9116,556,-6384,2840,235,1068,2025-01-29 10:35:12,1
-9948,464,-6384,2968,311,719,2025-01-29 10:35:12,1
-11164,364,-6524,2916,-165,305,2025-01-29 10:35:12,1
-12628,336,-6768,2848,-989,293,2025-01-29 10:35:12,1
-13140,604,-7232,2735,-1969,718,2025-01-29 10:35:12,1
-13236,628,-7024,2628,-2455,1356,2025-01-29 10:35:12,1
-12140,-224,-7112,2644,-2868,1797,2025-01-29 10:35:12,1
-11500,-1148,-5956,2963,-2903,2013,2025-01-29 10:35:12,1
-10656,-1712,-6092,3536,-1851,2185,2025-01-29 10:35:12,1
-11004,-984,-6296,4163,410,2513,2025-01-29 10:35:12,1
-12352,328,-6784,4308,3069,2851,2025-01-29 10:35:12,1
-13480,1752,-7644,4126,5087,3161,2025-01-29 10:35:12,1
-14540,2680,-7312,3797,4656,3099,2025-01-29 10:35:12,1
-14984,3232,-7500,3239,2326,2654,2025-01-29 10:35:12,1
-14940,1644,-10208,1908,1208,2286,2025-01-29 10:35:12,1
-14828,840,-11584,1280,1154,2236,2025-01-29 10:35:12,1
-14412,1480,-12948,603,993,2395,2025-01-29 10:35:12,1
-13852,2424,-13704,-711,666,2278,2025-01-29 10:35:12,1
-13168,3008,-11128,-1762,-997,1848,2025-01-29 10:35:12,1
-11768,2752,-9968,-2075,-2926,769,2025-01-29 10:35:12,1
-10840,1888,-10548,-2475,-3906,-250,2025-01-29 10:35:12,1
-10032,-208,-9668,-2425,-4383,15,2025-01-29 10:35:12,1
-8080,-1680,-8004,-1519,-4920,409,2025-01-29 10:35:12,1
-6548,-2324,-7468,-517,-4764,133,2025-01-29 10:35:12,1
-5848,-2512,-8248,471,-3724,-435,2025-01-29 10:35:12,1
-5984,-2440,-9516,973,-1672,-809,2025-01-29 10:35:12,1
-6292,-2232,-10236,717,431,-842,2025-01-29 10:35:12,1
-6908,-2244,-9792,544,2131,-545,2025-01-29 10:35:12,1
-7848,-1896,-9272,546,3171,-334,2025-01-29 10:35:12,1
-8544,-1560,-8284,534,3302,-792,2025-01-29 10:35:12,1
-9840,-1168,-8120,777,2969,-1826,2025-01-29 10:35:12,1
-10708,-1024,-9148,816,2384,-2587,2025-01-29 10:35:12,1
-11640,-836,-9024,897,1065,-2885,2025-01-29 10:35:12,1
-11536,-1000,-8920,682,-908,-2806,2025-01-29 10:35:13,1
-10776,-1644,-8768,395,-2371,-2877,2025-01-29 10:35:13,1
-9800,-2472,-8284,546,-2914,-2957,2025-01-29 10:35:13,1
-9176,-3224,-7972,707,-2482,-2922,2025-01-29 10:35:13,1
-8988,-3180,-7244,833,-1503,-2484,2025-01-29 10:35:13,1
-8656,-2944,-6852,891,-138,-1972,2025-01-29 10:35:13,1
-8668,-2268,-6664,1007,923,-1799,2025-01-29 10:35:13,1
-9208,-1384,-7028,837,1813,-1902,2025-01-29 10:35:13,1
-10156,-996,-7472,545,2511,-1873,2025-01-29 10:35:13,1
-11196,-1312,-7612,205,2698,-1628,2025-01-29 10:35:13,1
-11452,-1824,-7276,-83,2014,-1773,2025-01-29 10:35:13,1
-12052,-2292,-6940,-143,816,-1713,2025-01-29 10:35:13,1
-11804,-2640,-6580,-203,-635,-1219,2025-01-29 10:35:13,1
-10384,-1792,-6344,-377,-1505,-845,2025-01-29 10:35:13,1
-9076,-1196,-6060,-827,-998,-820,2025-01-29 10:35:13,1
-8540,-792,-6880,-1378,275,-754,2025-01-29 10:35:13,1
-8632,-876,-7036,-2213,2323,-795,2025-01-29 10:35:13,1
-9100,-1308,-6928,-2858,3874,-1063,2025-01-29 10:35:13,1
-10236,-1788,-6776,-3245,4537,-1302,2025-01-29 10:35:13,1
-11264,-2292,-6940,-3454,4335,-1521,2025-01-29 10:35:13,1
-12220,-2652,-7148,-3464,3585,-1695,2025-01-29 10:35:13,1
-13168,-2788,-7308,-3478,2695,-1757,2025-01-29 10:35:13,1
-13460,-2792,-7236,-3434,1826,-1548,2025-01-29 10:35:13,1
-13164,-3128,-7316,-3341,436,-1177,2025-01-29 10:35:13,1
-12340,-3596,-7448,-3390,-866,-745,2025-01-29 10:35:13,1
-11788,-3720,-7516,-3384,-777,-926,2025-01-29 10:35:13,1
-11952,-2512,-7952,-2925,184,-1512,2025-01-29 10:35:13,1
-12284,-392,-10324,-2442,1305,-2284,2025-01-29 10:35:13,1
-12684,-860,-11812,-1884,2451,-3339,2025-01-29 10:35:13,1
-13656,-3196,-10864,-765,3064,-4699,2025-01-29 10:35:13,1
-15132,-5548,-10956,764,2040,-5284,2025-01-29 10:35:13,1
-17352,-6100,-12536,1817,-516,-3685,2025-01-29 10:35:13,1
-17896,-5324,-13440,1866,-2831,-164,2025-01-29 10:35:13,1
-13632,-3700,-12844,1701,-4302,2262,2025-01-29 10:35:13,1
-10096,-2684,-12556,1264,-5753,2247,2025-01-29 10:35:13,1
-8212,-1120,-11808,1069,-6873,2287,2025-01-29 10:35:13,1
-6724,784,-10924,893,-7109,2861,2025-01-29 10:35:13,1
-5048,1620,-9732,264,-6230,3053,2025-01-29 10:35:13,1
-3552,1792,-9208,-601,-3175,2057,2025-01-29 10:35:13,1
-3892,1012,-8500,-1130,410,666,2025-01-29 10:35:13,1
-5640,236,-7504,-753,2892,45,2025-01-29 10:35:13,1
-7344,-120,-7520,-300,4248,64,2025-01-29 10:35:13,1
-8816,-96,-8512,-23,4747,135,2025-01-29 10:35:13,1
-11304,200,-10216,-286,4800,592,2025-01-29 10:35:13,1
-12528,92,-10500,-595,3230,1106,2025-01-29 10:35:13,1
-12420,-200,-9240,-719,-278,1465,2025-01-29 10:35:13,1
-11928,-428,-8112,-499,-3007,1490,2025-01-29 10:35:13,1
-11016,-332,-7940,-173,-4187,1550,2025-01-29 10:35:13,1
-9708,60,-8120,131,-4353,1767,2025-01-29 10:35:13,1
-8612,368,-8320,204,-3199,2019,2025-01-29 10:35:13,1
-8300,632,-7928,103,-1085,2023,2025-01-29 10:35:13,1
-8568,888,-7608,9,742,1916,2025-01-29 10:35:13,1
-9144,752,-7904,-128,2091,1746,2025-01-29 10:35:13,1
-10508,480,-7528,-226,2239,1551,2025-01-29 10:35:13,1
-11184,264,-7060,-119,1223,1223,2025-01-29 10:35:13,1
-11424,540,-6728,117,-465,821,2025-01-29 10:35:13,1
-10848,1096,-6456,173,-1845,391,2025-01-29 10:35:13,1
-10152,1464,-6608,256,-2530,-152,2025-01-29 10:35:13,1
-9388,1268,-6572,181,-2553,-563,2025-01-29 10:35:13,1
-8552,840,-6428,105,-2189,-1104,2025-01-29 10:35:13,1
-8452,388,-5792,126,-1365,-1730,2025-01-29 10:35:13,1
-9220,120,-5556,364,123,-2094,2025-01-29 10:35:13,1
-9984,268,-6136,537,1340,-2389,2025-01-29 10:35:14,1
-11416,148,-6212,415,1305,-2771,2025-01-29 10:35:14,1
-12920,-120,-5676,374,434,-2637,2025-01-29 10:35:14,1
-13940,-684,-5376,521,-852,-2015,2025-01-29 10:35:14,1
-13588,-904,-5376,778,-1978,-1352,2025-01-29 10:35:14,1
-12828,-1388,-5352,1091,-2917,-871,2025-01-29 10:35:14,1
-11852,-1532,-5028,1676,-3125,-448,2025-01-29 10:35:14,1
-11356,-1572,-4816,2377,-1717,75,2025-01-29 10:35:14,1
-11980,-1772,-4728,3101,1333,970,2025-01-29 10:35:14,1
-12940,-1516,-4968,3654,3161,2127,2025-01-29 10:35:14,1
-13600,-1064,-5528,3986,3546,2937,2025-01-29 10:35:14,1
-14612,-340,-6592,4083,3822,3654,2025-01-29 10:35:14,1
-14840,-424,-8692,4062,4205,4555,2025-01-29 10:35:14,1
-14216,-168,-11560,3481,3908,5000,2025-01-29 10:35:14,1
-14456,2268,-13316,2552,3883,5650,2025-01-29 10:35:14,1
-14308,4380,-14200,880,5164,5757,2025-01-29 10:35:14,1
-13748,5140,-14600,-600,5075,4921,2025-01-29 10:35:14,1
-12636,5344,-14360,-1773,2501,2886,2025-01-29 10:35:14,1
-11964,4528,-11632,-2203,-1715,-155,2025-01-29 10:35:14,1
-11612,2416,-10556,-1890,-5334,-2327,2025-01-29 10:35:14,1
-10388,592,-9932,-1392,-7791,-2701,2025-01-29 10:35:14,1
-8124,-1000,-9448,-853,-9861,-2777,2025-01-29 10:35:14,1
-6388,-2416,-8444,-539,-10819,-2918,2025-01-29 10:35:14,1
-4844,-4312,-5844,-211,-10207,-2536,2025-01-29 10:35:14,1
-4820,-4864,-5500,316,-6779,-1395,2025-01-29 10:35:14,1
-5444,-3432,-7412,813,453,-296,2025-01-29 10:35:14,1
-5868,-1884,-7900,810,7428,-658,2025-01-29 10:35:14,7
-8160,-380,-7720,634,11127,-1548,2025-01-29 10:35:14,7
-11108,248,-9004,-232,11137,-2217,2025-01-29 10:35:14,7
-12724,192,-10300,-1137,6977,-3018,2025-01-29 10:35:14,7
-13600,-568,-10676,-1523,1870,-4140,2025-01-29 10:35:14,7
-13672,-1620,-10740,-2338,-3611,-4247,2025-01-29 10:35:14,7
-11188,-1812,-10056,-2852,-5950,-3998,2025-01-29 10:35:14,7
-9380,-1532,-8948,-3501,-6469,-4132,2025-01-29 10:35:14,7
-7436,-1340,-8548,-4042,-5442,-4453,2025-01-29 10:35:14,7
-6416,-1412,-8408,-4749,-2453,-4872,2025-01-29 10:35:14,7
-6228,-1228,-8316,-5062,987,-5415,2025-01-29 10:35:14,7
-7260,-860,-8388,-5611,3698,-6212,2025-01-29 10:35:14,7
-9632,-632,-8620,-6316,4240,-6618,2025-01-29 10:35:14,7
-11652,-736,-8816,-7020,3246,-6332,2025-01-29 10:35:14,7
-12104,-1680,-8952,-7596,1376,-6251,2025-01-29 10:35:14,7
-11788,-2516,-8852,-7918,-667,-6355,2025-01-29 10:35:14,7
-11432,-2940,-8832,-7990,-2134,-6076,2025-01-29 10:35:14,7
-10064,-2908,-8720,-8075,-2568,-5632,2025-01-29 10:35:14,7
-8748,-2452,-8508,-8184,-1842,-5713,2025-01-29 10:35:14,7
-8460,-1752,-7968,-8208,-242,-5699,2025-01-29 10:35:14,7
-8580,-1384,-7300,-8285,1128,-5641,2025-01-29 10:35:14,7
-9004,-1548,-7652,-8454,2115,-5817,2025-01-29 10:35:14,7
-9676,-1796,-8256,-8705,2418,-6027,2025-01-29 10:35:14,7
-10580,-1696,-8916,-9205,2060,-6103,2025-01-29 10:35:14,7
-10860,-908,-9680,-9971,1453,-5950,2025-01-29 10:35:14,7
-10896,-228,-9932,-10904,1020,-5861,2025-01-29 10:35:14,7
-10224,-216,-9744,-11753,678,-6071,2025-01-29 10:35:14,7
-9640,-764,-9496,-12475,828,-6563,2025-01-29 10:35:14,7
-9940,-1204,-9028,-13055,933,-6994,2025-01-29 10:35:14,7
-10144,-1724,-8788,-13450,858,-7163,2025-01-29 10:35:14,7
-10456,-2048,-8804,-13764,791,-7586,2025-01-29 10:35:14,7
-10704,-2108,-9004,-13956,459,-8142,2025-01-29 10:35:14,7
-11036,-2224,-9036,-14187,-253,-8682,2025-01-29 10:35:14,7
-10736,-2516,-9308,-14581,-1099,-9431,2025-01-29 10:35:14,7
-10784,-2516,-9116,-15152,-2335,-10490,2025-01-29 10:35:14,7
-11024,-1740,-8816,-16128,-3280,-11200,2025-01-29 10:35:15,7
-10824,-1008,-8360,-17369,-4253,-11378,2025-01-29 10:35:15,7
-9696,-872,-8756,-18659,-5386,-11434,2025-01-29 10:35:15,7
-8328,-1308,-11052,-19411,-5429,-11583,2025-01-29 10:35:15,7
-6740,-2356,-13420,-19817,-4054,-12473,2025-01-29 10:35:15,7
-6648,-3864,-12020,-19208,-2538,-13477,2025-01-29 10:35:15,7
-7784,-4208,-10316,-18107,-1017,-13284,2025-01-29 10:35:15,7
-8376,-3476,-10696,-17294,1662,-12780,2025-01-29 10:35:15,7
-9144,-2452,-11044,-17234,3995,-12600,2025-01-29 10:35:15,7
-10352,-1828,-10536,-17395,4787,-12613,2025-01-29 10:35:15,7
-10896,-1452,-9940,-17454,4568,-12047,2025-01-29 10:35:15,7
-10600,-1148,-10084,-17561,4280,-11712,2025-01-29 10:35:15,7
-9628,-508,-10588,-17670,3927,-11879,2025-01-29 10:35:15,7
-9492,-144,-10920,-17722,3322,-12430,2025-01-29 10:35:15,7
-10204,-60,-11040,-17683,2292,-12636,2025-01-29 10:35:15,7
-10476,-332,-9240,-17611,1208,-12437,2025-01-29 10:35:15,7
-10360,-680,-8768,-17236,708,-12162,2025-01-29 10:35:15,7
-9796,-72,-9324,-16977,435,-12031,2025-01-29 10:35:15,7
-9068,104,-10376,-17006,194,-12034,2025-01-29 10:35:15,7
-9256,-4,-10772,-17173,413,-12059,2025-01-29 10:35:15,7
-9592,-728,-10612,-17389,369,-12135,2025-01-29 10:35:15,7
-9824,-1732,-9512,-17208,135,-12095,2025-01-29 10:35:15,7
-10344,-2060,-8608,-16274,-167,-11729,2025-01-29 10:35:15,7
-9860,-1732,-8668,-15278,-541,-11291,2025-01-29 10:35:15,7
-9092,-804,-8696,-14357,-349,-10934,2025-01-29 10:35:15,7
-7992,-76,-10184,-13833,111,-10850,2025-01-29 10:35:15,7
-8144,-864,-10796,-13879,1495,-10608,2025-01-29 10:35:15,7
-7924,-1456,-10492,-13616,2647,-10363,2025-01-29 10:35:15,7
-8088,-1984,-9840,-13438,2896,-10694,2025-01-29 10:35:15,7
-8968,-972,-9588,-13385,1856,-11363,2025-01-29 10:35:15,7
-10288,1284,-9208,-13540,662,-11697,2025-01-29 10:35:15,7
-10560,2204,-9652,-13924,-530,-11541,2025-01-29 10:35:15,7
-10128,1616,-10720,-14293,-1357,-11029,2025-01-29 10:35:15,7
-9092,-300,-10924,-14436,-1371,-10568,2025-01-29 10:35:15,7
-8584,-2560,-9692,-14030,-933,-10228,2025-01-29 10:35:15,7
-8416,-3996,-8212,-12695,360,-9900,2025-01-29 10:35:15,7
-9328,-4648,-7816,-11250,1582,-9400,2025-01-29 10:35:15,7
-10432,-4428,-6904,-9954,2088,-8655,2025-01-29 10:35:15,7
-11596,-2968,-7648,-8474,1700,-7969,2025-01-29 10:35:15,7
-12092,-880,-9056,-7864,780,-7493,2025-01-29 10:35:15,7
-12000,1196,-9692,-7593,-427,-7351,2025-01-29 10:35:15,7
-11420,2576,-9900,-7605,-1624,-7345,2025-01-29 10:35:15,7
-10344,3192,-10288,-7884,-2660,-7471,2025-01-29 10:35:15,7
-9036,2056,-9592,-8291,-2920,-7929,2025-01-29 10:35:15,7
-8236,896,-8132,-8323,-2420,-8416,2025-01-29 10:35:15,7
-7376,-680,-7848,-7994,-1447,-9055,2025-01-29 10:35:15,7
-7640,-3364,-7752,-6273,79,-9111,2025-01-29 10:35:15,7
-7596,-4036,-8484,-5148,1059,-8832,2025-01-29 10:35:15,7
-7764,-4024,-9740,-4440,1427,-8999,2025-01-29 10:35:15,7
-9284,-3228,-10592,-4007,1941,-8292,2025-01-29 10:35:15,7
-9972,-2596,-11400,-4043,1808,-6955,2025-01-29 10:35:15,7
-9752,-1724,-12580,-5118,915,-6142,2025-01-29 10:35:15,7
-10168,-1416,-12436,-6161,884,-5687,2025-01-29 10:35:15,7
-10456,-1748,-11708,-6672,1211,-5106,2025-01-29 10:35:15,7
-10172,-2968,-10684,-6276,1742,-4975,2025-01-29 10:35:15,7
-10204,-5280,-10144,-5356,2636,-5885,2025-01-29 10:35:15,7
-11668,-6472,-9604,-3796,2750,-6258,2025-01-29 10:35:15,7
-12740,-6244,-8796,-2242,1491,-5613,2025-01-29 10:35:15,7
-12172,-4876,-8684,-1278,102,-4878,2025-01-29 10:35:16,7
-10972,-3320,-8760,-892,-303,-4508,2025-01-29 10:35:16,7
-9448,-2444,-8928,-934,-265,-4638,2025-01-29 10:35:16,7
-9028,-1876,-8808,-1368,-96,-5093,2025-01-29 10:35:16,7
-8692,-1904,-8676,-2045,-30,-5395,2025-01-29 10:35:16,7
-8416,-2432,-8676,-2887,79,-5436,2025-01-29 10:35:16,7
-8344,-3468,-8580,-3744,629,-5265,2025-01-29 10:35:16,7
-8120,-3784,-8848,-4272,1366,-5192,2025-01-29 10:35:16,7
-8324,-3560,-8840,-4724,1720,-5216,2025-01-29 10:35:16,1
-8732,-3304,-8996,-5234,1511,-5154,2025-01-29 10:35:16,1
-8728,-3376,-9128,-5607,755,-4899,2025-01-29 10:35:16,1
-7972,-3832,-10004,-5859,270,-4630,2025-01-29 10:35:16,1
-7340,-4312,-10000,-5845,205,-4354,2025-01-29 10:35:16,1
-6704,-4724,-10180,-5704,848,-3937,2025-01-29 10:35:16,1
-7408,-4788,-9596,-5571,1390,-3431,2025-01-29 10:35:16,1
-7352,-4584,-10000,-5421,1592,-2648,2025-01-29 10:35:16,1
-8104,-4476,-9980,-5388,1265,-1761,2025-01-29 10:35:16,1
-8400,-4136,-10980,-5685,96,-690,2025-01-29 10:35:16,1
-8292,-4404,-10252,-6010,-1243,479,2025-01-29 10:35:16,1
-7088,-4972,-9320,-6107,-3026,1294,2025-01-29 10:35:16,1
-5948,-4892,-8636,-5882,-3585,1585,2025-01-29 10:35:16,1
-4952,-3996,-7904,-5360,-3027,1453,2025-01-29 10:35:16,1
-4232,-2300,-7048,-4643,-2324,940,2025-01-29 10:35:16,1
-3796,-1040,-6424,-3656,-996,-140,2025-01-29 10:35:16,1
-3668,-328,-6688,-2893,858,-1392,2025-01-29 10:35:16,1
-4432,80,-8232,-2453,2580,-2278,2025-01-29 10:35:16,1
-6008,-60,-8816,-2327,3377,-2463,2025-01-29 10:35:16,1
-7412,-732,-9620,-2303,3188,-1894,2025-01-29 10:35:16,1
-8212,-1312,-9368,-2289,2182,-946,2025-01-29 10:35:16,1
-8340,-1744,-9328,-2123,1396,-255,2025-01-29 10:35:16,1
-9408,-2044,-8588,-1908,1955,-49,2025-01-29 10:35:16,1
-10616,-1672,-7368,-1346,2691,-342,2025-01-29 10:35:16,1
-11748,-148,-7424,-520,2070,-687,2025-01-29 10:35:16,1
-10764,764,-9332,-119,857,-817,2025-01-29 10:35:16,1
-11080,1456,-11348,-772,-406,-255,2025-01-29 10:35:16,1
-11564,1592,-11996,-2387,-113,810,2025-01-29 10:35:16,1
-10980,3020,-9056,-2535,-2832,1375,2025-01-29 10:35:16,1
-10024,3044,-10488,-1728,-3781,704,2025-01-29 10:35:16,1
-11364,2440,-9976,-1514,-4468,31,2025-01-29 10:35:16,1
-11988,916,-10616,-1659,-6055,-209,2025-01-29 10:35:16,1
-12232,-288,-10496,-1894,-7751,380,2025-01-29 10:35:16,2
-11940,-372,-9588,-2046,-6924,1087,2025-01-29 10:35:16,2
-12316,-536,-11284,-2140,-8546,1189,2025-01-29 10:35:16,2
-9488,132,-10676,-2027,-11969,627,2025-01-29 10:35:16,2
-10232,1372,-9420,-1895,-15784,423,2025-01-29 10:35:16,2
-11624,1552,-7852,-1683,-14513,430,2025-01-29 10:35:16,2
-11236,1596,-7308,-1848,-7272,127,2025-01-29 10:35:16,2
-12308,1556,-7388,-2362,-3461,-27,2025-01-29 10:35:16,2
-13096,948,-7076,-2582,-3463,701,2025-01-29 10:35:16,2
-12456,-20,-6424,-2208,-4824,1034,2025-01-29 10:35:16,2
-10268,-872,-5108,-1693,-5461,726,2025-01-29 10:35:16,2
-9524,-408,-5632,-1281,-4479,-209,2025-01-29 10:35:16,2
-10748,592,-5312,-1009,-3548,-962,2025-01-29 10:35:16,2
-13436,884,-6120,-900,-3040,-983,2025-01-29 10:35:16,2
-14600,84,-6548,-1100,-4542,182,2025-01-29 10:35:16,2
-12960,-104,-5800,-930,-6176,710,2025-01-29 10:35:16,2
-11832,148,-5820,-637,-6084,395,2025-01-29 10:35:16,2
-11820,236,-5812,-805,-5390,-82,2025-01-29 10:35:16,2
-12380,260,-5764,-1022,-4563,-188,2025-01-29 10:35:16,2
-13028,128,-6188,-1293,-4158,-179,2025-01-29 10:35:16,2
-13052,-4,-5868,-1329,-4286,-280,2025-01-29 10:35:16,2
-12688,-332,-5752,-1336,-4818,-314,2025-01-29 10:35:16,2
-12252,-716,-5168,-1246,-4705,-791,2025-01-29 10:35:16,2
-11984,-384,-5004,-1273,-4204,-1664,2025-01-29 10:35:17,2
-12400,28,-5312,-1532,-3235,-2177,2025-01-29 10:35:17,2
-14080,-80,-4324,-1980,-2740,-1924,2025-01-29 10:35:17,2
-15176,-196,-4112,-2134,-3671,-1313,2025-01-29 10:35:17,2
-14560,-728,-4216,-1908,-5375,-897,2025-01-29 10:35:17,2
-13308,-684,-3656,-1278,-6171,-975,2025-01-29 10:35:17,2
-12272,8,-3020,-725,-6548,-1167,2025-01-29 10:35:17,2
-12232,396,-2784,-559,-6336,-1153,2025-01-29 10:35:17,2
-12764,404,-2852,-568,-5689,-930,2025-01-29 10:35:17,2
-13996,836,-3556,-800,-5513,-469,2025-01-29 10:35:17,2
-14012,624,-3236,-913,-6383,-82,2025-01-29 10:35:17,2
-13132,748,-3076,-848,-6895,-101,2025-01-29 10:35:17,2
-13020,208,-2044,-619,-6568,-415,2025-01-29 10:35:17,2
-13668,496,-1540,-220,-5757,-942,2025-01-29 10:35:17,2
-14340,676,-1748,-161,-5413,-1351,2025-01-29 10:35:17,2
-14484,292,-1540,-82,-5728,-1298,2025-01-29 10:35:17,2
-14544,496,-1208,27,-6038,-1361,2025-01-29 10:35:17,2
-14828,496,-508,-23,-5682,-779,2025-01-29 10:35:17,2
-14460,700,96,-52,-4906,342,2025-01-29 10:35:17,2
-13556,468,852,107,-3563,932,2025-01-29 10:35:17,2
-13992,652,1552,209,-2125,847,2025-01-29 10:35:17,2
-14588,328,1600,456,-242,426,2025-01-29 10:35:17,2
-16536,328,356,690,1599,-38,2025-01-29 10:35:17,2
-16896,-236,-2452,688,823,-531,2025-01-29 10:35:17,2
-16268,12,-4356,857,-1594,59,2025-01-29 10:35:17,2
-14856,544,-3252,781,-4676,533,2025-01-29 10:35:17,2
-12964,1084,-2700,588,-5147,-23,2025-01-29 10:35:17,2
-13288,768,-1700,168,-4480,-604,2025-01-29 10:35:17,2
-14236,364,-1596,-246,-3639,-1013,2025-01-29 10:35:17,2
-15784,-268,-616,-388,-3484,-851,2025-01-29 10:35:17,2
-15936,-200,-368,-255,-3833,-827,2025-01-29 10:35:17,2
-15028,8,568,50,-4644,-1159,2025-01-29 10:35:17,2
-14240,308,480,101,-4886,-1217,2025-01-29 10:35:17,2
-13256,492,1428,-122,-3991,-1497,2025-01-29 10:35:17,2
-13208,432,988,-272,-2377,-1590,2025-01-29 10:35:17,2
-12888,564,920,-193,-2049,-1588,2025-01-29 10:35:17,2
-14000,-216,316,-216,-721,-1780,2025-01-29 10:35:17,2
-15088,-800,480,-200,-685,-1346,2025-01-29 10:35:17,2
-14812,-836,112,-205,-1132,-733,2025-01-29 10:35:17,2
-14304,-312,52,-305,-1542,-439,2025-01-29 10:35:17,2
-14264,228,956,-238,-2434,-413,2025-01-29 10:35:17,2
-13532,264,12,-138,-3558,-613,2025-01-29 10:35:17,2
-12752,-204,-188,-343,-3869,-1059,2025-01-29 10:35:17,2
-12732,-848,-544,-310,-3777,-1009,2025-01-29 10:35:17,2
-14128,-1104,1048,-400,-2359,-828,2025-01-29 10:35:17,2
-15044,-1012,2432,-253,-2549,-460,2025-01-29 10:35:17,2
-14588,-1008,2800,-184,-2359,-411,2025-01-29 10:35:17,2
-13884,-1004,2216,-128,-2388,-603,2025-01-29 10:35:17,2
-13520,-1068,2128,-35,-2608,-625,2025-01-29 10:35:17,2
-13532,-1024,2208,119,-2148,-607,2025-01-29 10:35:17,2
-14136,-964,2496,67,-834,-340,2025-01-29 10:35:17,2
-15044,-448,2356,163,-327,-59,2025-01-29 10:35:17,2
-15332,-412,2276,189,-700,-111,2025-01-29 10:35:17,2
-14584,-816,1532,328,-1462,-207,2025-01-29 10:35:17,2
-13896,-1096,1764,289,-2921,-306,2025-01-29 10:35:17,2
-14052,-1004,2908,184,-3365,-346,2025-01-29 10:35:17,2
-13196,-952,3080,148,-2836,-105,2025-01-29 10:35:17,2
-13036,-916,3232,159,-2499,284,2025-01-29 10:35:17,2
-12908,-760,3164,-89,-1540,604,2025-01-29 10:35:17,2
-12976,-372,2680,-50,-764,497,2025-01-29 10:35:17,2
-13188,-384,2624,-57,-1147,253,2025-01-29 10:35:18,2
-13240,-100,3664,108,-937,-329,2025-01-29 10:35:18,2
-13236,-36,3524,347,-315,-796,2025-01-29 10:35:18,2
-13460,-140,2964,512,33,-919,2025-01-29 10:35:18,2
-13640,-280,2920,527,410,-763,2025-01-29 10:35:18,2
-13644,-388,2448,434,765,-585,2025-01-29 10:35:18,2
-14172,-512,1928,169,705,-278,2025-01-29 10:35:18,2
-14004,-460,1820,-80,132,-197,2025-01-29 10:35:18,2
-14064,-396,1940,-226,-135,-190,2025-01-29 10:35:18,2
-13872,-448,2232,-311,5,-129,2025-01-29 10:35:18,2
-13692,-480,2524,-298,121,-11,2025-01-29 10:35:18,2
-13632,-692,2416,-326,96,98,2025-01-29 10:35:18,2
-13724,-648,2552,-296,82,99,2025-01-29 10:35:18,2
-13772,-624,2492,-234,89,49,2025-01-29 10:35:18,2
-13608,-696,2452,-226,124,-35,2025-01-29 10:35:18,2
-13704,-528,2736,-193,185,-52,2025-01-29 10:35:18,2
-13772,-416,2624,-161,201,10,2025-01-29 10:35:18,2
-13824,-348,2564,-163,165,85,2025-01-29 10:35:18,2
-13964,-156,2580,-197,144,131,2025-01-29 10:35:18,2
-13888,-272,2520,-248,170,102,2025-01-29 10:35:18,2
-13744,-164,2660,-343,186,29,2025-01-29 10:35:18,2
-13688,-196,2604,-366,235,-66,2025-01-29 10:35:18,2
-13672,-180,2536,-385,286,-134,2025-01-29 10:35:18,2
-13780,-224,2528,-396,375,-217,2025-01-29 10:35:18,2
-13804,-392,2352,-389,314,-225,2025-01-29 10:35:18,2
-13960,-480,2284,-368,169,-147,2025-01-29 10:35:18,2
-13984,-484,2328,-361,90,-114,2025-01-29 10:35:18,2
-13988,-452,2424,-375,54,-107,2025-01-29 10:35:18,2
-13908,-508,2572,-349,21,-116,2025-01-29 10:35:18,2
-13824,-480,2468,-343,41,-170,2025-01-29 10:35:18,2
-13848,-592,2384,-356,70,-237,2025-01-29 10:35:18,2
-13704,-548,2452,-306,139,-276,2025-01-29 10:35:18,2
-13836,-416,2688,-288,140,-286,2025-01-29 10:35:18,2
-13884,-560,2588,-272,113,-276,2025-01-29 10:35:18,2
-13948,-572,2432,-264,84,-212,2025-01-29 10:35:18,2
-13896,-600,2472,-292,55,-204,2025-01-29 10:35:18,2
-13792,-548,2544,-267,36,-185,2025-01-29 10:35:18,2
-13852,-496,2548,-274,23,-164,2025-01-29 10:35:18,2
-13704,-588,2632,-298,49,-195,2025-01-29 10:35:18,2
-13720,-528,2592,-290,123,-243,2025-01-29 10:35:18,2
-13672,-528,2612,-261,190,-267,2025-01-29 10:35:18,2
-13880,-516,2620,-257,216,-297,2025-01-29 10:35:18,2
-13952,-560,2464,-261,175,-292,2025-01-29 10:35:18,2
-13936,-540,2436,-249,127,-228,2025-01-29 10:35:18,2
-13880,-424,2440,-256,75,-209,2025-01-29 10:35:18,2
-13632,-584,2512,-245,68,-215,2025-01-29 10:35:18,2
-13708,-480,2780,-227,64,-237,2025-01-29 10:35:18,2
-13656,-452,2832,-243,103,-208,2025-01-29 10:35:18,2
-13720,-480,2940,-203,196,-213,2025-01-29 10:35:18,2
-14004,-464,2896,-187,287,-226,2025-01-29 10:35:18,2
-14092,-436,2712,-159,356,-248,2025-01-29 10:35:18,2
-14104,-444,2476,-151,333,-228,2025-01-29 10:35:18,2
-13936,-368,2308,-135,202,-212,2025-01-29 10:35:18,2
-13780,-420,2244,-145,96,-192,2025-01-29 10:35:18,2
-13476,-460,2572,-145,63,-188,2025-01-29 10:35:18,2
-13512,-460,2528,-111,107,-211,2025-01-29 10:35:18,2
-13824,-496,2620,-124,179,-230,2025-01-29 10:35:18,2
-13924,-500,2460,-130,168,-200,2025-01-29 10:35:19,2
-14000,-536,2616,-118,152,-183,2025-01-29 10:35:19,2
-13836,-500,2416,-136,114,-179,2025-01-29 10:35:19,2
-13864,-576,2560,-121,90,-202,2025-01-29 10:35:19,2
-13808,-480,2536,-103,22,-213,2025-01-29 10:35:19,2
-13684,-488,2704,-99,-17,-205,2025-01-29 10:35:19,2
-13792,-544,2724,-107,35,-226,2025-01-29 10:35:19,2
-13732,-532,2652,-129,83,-208,2025-01-29 10:35:19,2
-13836,-516,2680,-126,147,-212,2025-01-29 10:35:19,2
-13880,-596,2648,-129,170,-236,2025-01-29 10:35:19,2
-13856,-556,2484,-137,129,-226,2025-01-29 10:35:19,2
-13840,-496,2488,-112,104,-196,2025-01-29 10:35:19,2
-13828,-456,2776,-130,167,-186,2025-01-29 10:35:19,2
-13784,-416,2724,-133,212,-239,2025-01-29 10:35:19,2
-13860,-480,2712,-124,257,-248,2025-01-29 10:35:19,2
-13952,-464,2592,-136,291,-211,2025-01-29 10:35:19,2
-13820,-440,2660,-139,256,-161,2025-01-29 10:35:19,2
-13832,-568,2452,-208,230,-152,2025-01-29 10:35:19,2
-13736,-576,2440,-182,254,-189,2025-01-29 10:35:19,2
-13892,-500,2376,-139,155,-208,2025-01-29 10:35:19,2
-14004,-504,2360,-123,128,-248,2025-01-29 10:35:19,2
-13888,-432,2596,-148,89,-237,2025-01-29 10:35:19,2
-13692,-488,2584,-142,54,-229,2025-01-29 10:35:19,2
-13812,-452,2712,-144,81,-195,2025-01-29 10:35:19,2
-13680,-396,2704,-171,164,-220,2025-01-29 10:35:19,2
-13772,-512,2648,-171,199,-195,2025-01-29 10:35:19,2
-13808,-424,2708,-180,211,-169,2025-01-29 10:35:19,2
-13780,-472,2644,-162,276,-205,2025-01-29 10:35:19,2
-13772,-484,2496,-172,249,-217,2025-01-29 10:35:19,2
-13868,-560,2588,-168,235,-242,2025-01-29 10:35:19,2
-13900,-592,2492,-167,198,-240,2025-01-29 10:35:19,2
-13940,-700,2620,-140,148,-195,2025-01-29 10:35:19,2
-13912,-532,2504,-162,176,-131,2025-01-29 10:35:19,2
-13728,-620,2492,-159,209,-158,2025-01-29 10:35:19,2
-13812,-564,2572,-168,244,-176,2025-01-29 10:35:19,2
-13788,-560,2584,-156,285,-192,2025-01-29 10:35:19,2
-13788,-504,2420,-133,262,-180,2025-01-29 10:35:19,2
-13868,-596,2500,-107,281,-208,2025-01-29 10:35:19,2
-13868,-464,2436,-116,203,-172,2025-01-29 10:35:19,2
-13832,-476,2616,-112,202,-207,2025-01-29 10:35:19,2
-13784,-408,2568,-105,242,-199,2025-01-29 10:35:19,2
-13756,-544,2628,-74,295,-220,2025-01-29 10:35:19,2
-13744,-560,2528,-90,303,-205,2025-01-29 10:35:19,2
-13768,-604,2504,-99,283,-224,2025-01-29 10:35:19,2
-13836,-520,2592,-58,274,-228,2025-01-29 10:35:19,2
-13864,-444,2572,-48,292,-241,2025-01-29 10:35:19,2
-13712,-588,2528,-34,327,-247,2025-01-29 10:35:19,2
-13768,-516,2400,-44,352,-221,2025-01-29 10:35:19,2
-13908,-644,2188,-54,275,-180,2025-01-29 10:35:19,2
-13872,-664,2356,-68,192,-116,2025-01-29 10:35:19,2
-13912,-568,2544,-34,176,-129,2025-01-29 10:35:19,2
-13712,-600,2512,-49,189,-179,2025-01-29 10:35:19,2
-13688,-508,2540,-40,217,-220,2025-01-29 10:35:19,2
-13860,-548,2500,-72,205,-226,2025-01-29 10:35:19,2
-13768,-480,2536,-60,175,-186,2025-01-29 10:35:19,2
-13812,-500,2476,-57,128,-197,2025-01-29 10:35:19,2
-13904,-504,2404,-54,171,-199,2025-01-29 10:35:19,2
-13940,-572,2464,-96,156,-172,2025-01-29 10:35:19,2
-13792,-524,2536,-98,183,-181,2025-01-29 10:35:19,2
-13772,-468,2560,-71,181,-201,2025-01-29 10:35:19,2
-13840,-460,2524,-94,202,-204,2025-01-29 10:35:19,2
-13780,-612,2528,-110,196,-211,2025-01-29 10:35:19,2
-13944,-560,2344,-107,247,-209,2025-01-29 10:35:19,2
-13840,-596,2520,-107,248,-161,2025-01-29 10:35:19,2
-13784,-524,2300,-122,196,-159,2025-01-29 10:35:19,2
-13952,-580,2636,-125,165,-188,2025-01-29 10:35:20,2
-13980,-504,2548,-111,214,-256,2025-01-29 10:35:20,2
-13944,-572,2404,-64,164,-215,2025-01-29 10:35:20,2
-13784,-572,2324,-74,139,-197,2025-01-29 10:35:20,2
-13808,-448,2444,-72,117,-186,2025-01-29 10:35:20,2
-13800,-460,2628,-117,121,-141,2025-01-29 10:35:20,2
-13784,-564,2532,-116,106,-155,2025-01-29 10:35:20,2
-13848,-572,2440,-130,167,-202,2025-01-29 10:35:20,2
-13856,-500,2596,-138,203,-231,2025-01-29 10:35:20,2
-13860,-628,2576,-139,213,-210,2025-01-29 10:35:20,2
-13808,-532,2396,-167,192,-164,2025-01-29 10:35:20,2
-13864,-500,2240,-154,159,-161,2025-01-29 10:35:20,2
-13840,-564,2532,-160,142,-155,2025-01-29 10:35:20,2
-13776,-488,2428,-132,105,-157,2025-01-29 10:35:20,2
-13808,-604,2644,-141,177,-157,2025-01-29 10:35:20,2
-13776,-540,2560,-153,216,-188,2025-01-29 10:35:20,2
-13828,-536,2396,-152,236,-174,2025-01-29 10:35:20,2
-13864,-604,2544,-143,221,-176,2025-01-29 10:35:20,2
-13912,-512,2372,-156,195,-163,2025-01-29 10:35:20,2
-13764,-548,2188,-180,169,-132,2025-01-29 10:35:20,2
-13740,-548,2448,-172,188,-152,2025-01-29 10:35:20,2
-13776,-572,2460,-146,183,-208,2025-01-29 10:35:20,2
-13860,-540,2528,-153,167,-182,2025-01-29 10:35:20,2
-13840,-556,2536,-175,157,-159,2025-01-29 10:35:20,2
-13888,-560,2528,-191,137,-152,2025-01-29 10:35:20,2
-13696,-504,2492,-176,106,-185,2025-01-29 10:35:20,2
-13724,-520,2472,-156,190,-167,2025-01-29 10:35:20,2
-13808,-564,2556,-156,210,-192,2025-01-29 10:35:20,2
-13856,-544,2444,-165,172,-193,2025-01-29 10:35:20,2
-13844,-628,2256,-157,128,-219,2025-01-29 10:35:20,2
-13764,-536,2480,-127,52,-191,2025-01-29 10:35:20,2
-13752,-528,2280,-149,30,-192,2025-01-29 10:35:20,2
-13888,-588,2508,-158,44,-216,2025-01-29 10:35:20,2
-13936,-524,2528,-145,45,-216,2025-01-29 10:35:20,2
-13740,-504,2544,-181,97,-259,2025-01-29 10:35:20,2
-13716,-568,2368,-161,140,-269,2025-01-29 10:35:20,2
-13664,-752,2468,-203,122,-255,2025-01-29 10:35:20,2
-13776,-576,2508,-174,201,-321,2025-01-29 10:35:20,2
-13600,-576,2288,-191,133,-412,2025-01-29 10:35:20,2
-13808,-476,2264,-218,148,-388,2025-01-29 10:35:20,2
-13924,-656,2164,-288,55,-300,2025-01-29 10:35:20,2
-13992,-636,2276,-341,-47,-348,2025-01-29 10:35:20,2
-14036,-632,2156,-297,-60,-457,2025-01-29 10:35:20,2
-14060,-800,1964,-268,-101,-476,2025-01-29 10:35:20,2
-13876,-832,2152,-176,-191,-415,2025-01-29 10:35:20,2
-13804,-568,2064,-42,-509,-338,2025-01-29 10:35:20,2
-13824,-420,2232,-143,-885,-254,2025-01-29 10:35:20,2
-13512,-392,2328,-187,-1014,-117,2025-01-29 10:35:20,2
-13724,-164,2988,-193,-877,143,2025-01-29 10:35:20,2
-13392,-132,3208,-322,-493,298,2025-01-29 10:35:20,2
-13348,292,3480,-422,-109,112,2025-01-29 10:35:20,2
-13596,-100,3832,-448,343,-6,2025-01-29 10:35:20,2
-13636,-280,3552,-494,518,-143,2025-01-29 10:35:20,2
-13924,-608,3444,-447,577,-179,2025-01-29 10:35:20,2
-13896,-864,2832,-428,537,-256,2025-01-29 10:35:20,2
-13660,-760,2840,-423,467,-255,2025-01-29 10:35:20,2
-13608,-712,2544,-431,476,-153,2025-01-29 10:35:20,2
-13452,-732,2188,-609,360,-43,2025-01-29 10:35:20,2
-13232,-448,2272,-840,284,-103,2025-01-29 10:35:20,2
-13372,-544,2472,-960,446,-173,2025-01-29 10:35:20,2
-13800,-896,2924,-877,630,-260,2025-01-29 10:35:21,2
-13920,-1340,2848,-733,650,-280,2025-01-29 10:35:21,2
-13280,-1324,2428,-729,538,-176,2025-01-29 10:35:21,2
-13120,-964,2140,-907,652,-4,2025-01-29 10:35:21,2
-13360,-464,2036,-1096,843,151,2025-01-29 10:35:21,2
-13632,-364,2024,-1248,1025,318,2025-01-29 10:35:21,2
-13812,-280,2320,-1355,1022,272,2025-01-29 10:35:21,2
-13672,-472,2832,-1368,1233,85,2025-01-29 10:35:21,2
-13312,-492,2976,-1240,1651,-119,2025-01-29 10:35:21,2
-13320,-672,2768,-1106,2425,-148,2025-01-29 10:35:21,2
-14376,-892,2368,-1099,3370,160,2025-01-29 10:35:21,2
-14236,-568,2028,-1222,3533,566,2025-01-29 10:35:21,2
-14568,-520,1472,-1362,3384,1006,2025-01-29 10:35:21,2
-14464,-308,2160,-1381,2851,1338,2025-01-29 10:35:21,2
-13788,-408,2616,-1126,2943,1552,2025-01-29 10:35:21,2
-13580,-496,2812,-797,3873,1404,2025-01-29 10:35:21,2
-13772,-640,3164,-257,4863,1020,2025-01-29 10:35:21,2
-14436,-788,2900,87,5183,585,2025-01-29 10:35:21,2
-14104,-732,1756,362,5345,454,2025-01-29 10:35:21,2
-13536,-1024,1108,425,5334,721,2025-01-29 10:35:21,2
-13824,-1212,568,191,5240,699,2025-01-29 10:35:21,2
-13728,-840,-396,-484,5900,845,2025-01-29 10:35:21,2
-13916,-704,-8,-673,6731,856,2025-01-29 10:35:21,2
-14128,-596,844,-568,6727,1058,2025-01-29 10:35:21,2
-14004,-360,200,-337,6607,1155,2025-01-29 10:35:21,2
-14436,-460,-32,-296,6706,1064,2025-01-29 10:35:21,2
-14732,-480,-384,-301,7260,1005,2025-01-29 10:35:21,2
-15288,-272,372,-423,7882,960,2025-01-29 10:35:21,2
-15552,-232,220,-554,8500,867,2025-01-29 10:35:21,2
-15532,132,316,-567,9160,664,2025-01-29 10:35:21,2
-15540,596,820,-301,9616,526,2025-01-29 10:35:21,2
-15088,424,-76,209,10220,166,2025-01-29 10:35:21,2
-16204,-268,-544,416,10758,244,2025-01-29 10:35:21,2
-20732,700,-836,701,10387,680,2025-01-29 10:35:21,2
-14100,716,-2552,652,12199,705,2025-01-29 10:35:21,2
-17152,1540,-3548,227,11039,358,2025-01-29 10:35:21,2
-16792,1060,-4108,-104,10327,888,2025-01-29 10:35:21,2
-16140,376,-3716,-103,9747,1263,2025-01-29 10:35:21,2
-15340,456,-4588,17,9098,1385,2025-01-29 10:35:21,2
-13652,372,-4732,231,7684,675,2025-01-29 10:35:21,2
-12908,756,-5364,177,7170,200,2025-01-29 10:35:21,2
-12220,1516,-6116,-167,6921,-3,2025-01-29 10:35:21,2
-11628,1836,-6504,-624,6644,-225,2025-01-29 10:35:21,2
-11836,1488,-6528,-887,6354,-405,2025-01-29 10:35:21,2
-12160,1064,-6168,-1133,6080,-438,2025-01-29 10:35:21,2
-12212,1112,-6480,-1231,5923,-581,2025-01-29 10:35:21,2
-12272,1008,-6572,-1222,5602,-805,2025-01-29 10:35:21,2
-11988,1160,-6716,-1213,5215,-1044,2025-01-29 10:35:21,2
-11924,1152,-6544,-1269,5219,-1008,2025-01-29 10:35:21,2
-11532,1392,-6708,-1176,5634,-1028,2025-01-29 10:35:21,2
-11228,1328,-7140,-1101,6400,-1286,2025-01-29 10:35:21,2
-11600,1832,-7816,-1129,6991,-1850,2025-01-29 10:35:21,2
-12180,2316,-8768,-1474,6950,-1991,2025-01-29 10:35:21,2
-12636,2152,-8588,-1775,6445,-1497,2025-01-29 10:35:21,2
-12736,820,-8344,-1671,5616,-876,2025-01-29 10:35:21,2
-12760,-252,-7976,-1130,5044,-464,2025-01-29 10:35:21,2
-12972,228,-7860,470,3639,235,2025-01-29 10:35:21,2
-12608,548,-8668,1093,2838,621,2025-01-29 10:35:21,2
-12300,704,-8932,1436,2361,844,2025-01-29 10:35:21,2
-11920,956,-9228,1651,1370,692,2025-01-29 10:35:21,2
-11356,1112,-9632,1657,1444,808,2025-01-29 10:35:22,2
-11852,1368,-9780,1533,389,106,2025-01-29 10:35:22,2
-11556,1036,-9448,1497,1740,604,2025-01-29 10:35:22,2
-11080,448,-9124,1383,1526,458,2025-01-29 10:35:22,2
-11588,716,-8724,1608,290,31,2025-01-29 10:35:22,2
-10912,444,-7676,1977,2002,117,2025-01-29 10:35:22,2
-10732,608,-8316,2287,2438,-278,2025-01-29 10:35:22,2
-10716,792,-8732,2337,2158,-506,2025-01-29 10:35:22,2
-10956,724,-8700,2292,722,-438,2025-01-29 10:35:22,2
-10704,836,-8604,1999,-1469,-54,2025-01-29 10:35:22,2
-10528,720,-8316,1885,-2662,85,2025-01-29 10:35:22,2
-10408,568,-8024,1968,-2463,-147,2025-01-29 10:35:22,2
-10548,476,-7712,1831,-1887,-293,2025-01-29 10:35:22,2
-8040,-220,-10528,1358,-3911,-804,2025-01-29 10:35:22,2
-10184,244,-7092,1261,-656,-24,2025-01-29 10:35:22,2
-9924,400,-7192,1352,-1019,-95,2025-01-29 10:35:22,2
-9928,536,-7204,1395,-1038,-21,2025-01-29 10:35:22,2
-10020,516,-7080,1407,-1245,167,2025-01-29 10:35:22,1
-10348,552,-6848,1195,-1343,270,2025-01-29 10:35:22,1
-10580,416,-6620,870,-699,195,2025-01-29 10:35:22,1
-10372,272,-6384,676,-1140,252,2025-01-29 10:35:22,1
-9776,116,-6728,461,-2731,478,2025-01-29 10:35:22,1
-9456,368,-6396,467,-3882,541,2025-01-29 10:35:22,1
-9132,104,-6284,525,-4934,457,2025-01-29 10:35:22,1
-8864,40,-5900,492,-5820,-18,2025-01-29 10:35:22,1
-8976,104,-5844,472,-5278,-692,2025-01-29 10:35:22,1
-9028,332,-6104,365,-4764,-1304,2025-01-29 10:35:22,1
-8528,340,-6760,210,-4448,-2023,2025-01-29 10:35:22,1
-9208,72,-6928,-51,-4196,-2081,2025-01-29 10:35:22,1
-8800,-656,-6884,-86,-2888,-2432,2025-01-29 10:35:22,1
-9152,-172,-6576,174,-1076,-3186,2025-01-29 10:35:22,1
-9588,-276,-7216,313,9,-3628,2025-01-29 10:35:22,1
-9916,-268,-7600,216,290,-3745,2025-01-29 10:35:22,1
-10312,-388,-8100,39,-671,-3309,2025-01-29 10:35:22,1
-10292,-128,-7812,-41,-2420,-2664,2025-01-29 10:35:22,1
-9972,268,-7396,-36,-3958,-2101,2025-01-29 10:35:22,1
-8968,168,-7352,-178,-4673,-2285,2025-01-29 10:35:22,1
-8912,-528,-7312,-259,-4267,-2972,2025-01-29 10:35:22,1
-9144,-1080,-6936,-140,-3666,-3531,2025-01-29 10:35:22,1
-9216,-1700,-7032,83,-2886,-3965,2025-01-29 10:35:22,1
-9308,-2404,-6864,291,-2184,-4067,2025-01-29 10:35:22,1
-9656,-2752,-5864,666,-1451,-3823,2025-01-29 10:35:22,1
-9588,-3460,-5320,1046,-761,-3348,2025-01-29 10:35:22,1
-9736,-3836,-5436,1367,707,-2968,2025-01-29 10:35:22,1
-10176,-3948,-4984,1665,2399,-2655,2025-01-29 10:35:22,1
-10476,-4104,-5008,2035,3910,-2256,2025-01-29 10:35:22,1
-10480,-4184,-4952,2387,4945,-2165,2025-01-29 10:35:22,1
-11104,-3504,-5132,2749,5502,-1881,2025-01-29 10:35:22,1
-11656,-2876,-5496,3039,5751,-1222,2025-01-29 10:35:22,1
-11536,-2600,-5688,2588,5946,-693,2025-01-29 10:35:22,1
-10960,-2440,-6156,2014,5879,-1029,2025-01-29 10:35:22,1
-11152,-2428,-6352,1487,5561,-1787,2025-01-29 10:35:22,1
-11768,-2468,-6232,1351,4954,-2409,2025-01-29 10:35:22,1
-13172,-5092,-4480,1171,581,-3552,2025-01-29 10:35:22,1
-13068,-4060,-5300,924,2790,-1405,2025-01-29 10:35:22,1
-11980,-3788,-5852,811,291,-693,2025-01-29 10:35:22,1
-11716,-3080,-6244,288,-343,57,2025-01-29 10:35:22,1
-11156,-2708,-5952,-536,-243,192,2025-01-29 10:35:22,1
-11116,-2600,-5572,-1325,-393,69,2025-01-29 10:35:22,1
-11496,-2816,-5316,-1950,-408,211,2025-01-29 10:35:23,1
-11760,-3276,-4896,-2349,-106,619,2025-01-29 10:35:23,1
-11612,-3812,-4588,-2426,269,925,2025-01-29 10:35:23,1
-11524,-4204,-4884,-2282,516,1069,2025-01-29 10:35:23,1
-11532,-4496,-5336,-2077,793,1102,2025-01-29 10:35:23,1
-11696,-4384,-5908,-1837,1483,928,2025-01-29 10:35:23,1
-11504,-3620,-6360,-1737,1880,434,2025-01-29 10:35:23,1
-11964,-2840,-5980,-1890,1812,-53,2025-01-29 10:35:23,1
-12796,-2788,-6176,-2247,1791,-179,2025-01-29 10:35:23,1
-12564,-3204,-6404,-2541,1764,-489,2025-01-29 10:35:23,1
-13152,-2648,-6408,-2817,1732,-1028,2025-01-29 10:35:23,1
-13616,-1848,-6588,-3420,1380,-1393,2025-01-29 10:35:23,1
-13804,-1084,-6576,-5241,-447,-1845,2025-01-29 10:35:23,1
-13984,-1608,-5224,-6248,-1892,-2042,2025-01-29 10:35:23,1
-13036,-3672,-5508,-6266,-2442,-2610,2025-01-29 10:35:23,1
-13912,-3740,-7552,-5646,-1609,-3004,2025-01-29 10:35:23,1
-13752,-5812,-6712,-4605,-423,-3199,2025-01-29 10:35:23,1
-13464,-8560,-5148,-1923,131,-3923,2025-01-29 10:35:23,1
-14532,-9768,-4824,1164,-632,-3973,2025-01-29 10:35:23,1
-16700,-8368,-7444,2662,-3087,-965,2025-01-29 10:35:23,1
-15344,-4172,-8956,2468,-3686,2773,2025-01-29 10:35:23,1
-11536,-1168,-10104,1723,-3292,3363,2025-01-29 10:35:23,1
-9908,280,-11068,309,-3586,2368,2025-01-29 10:35:23,1
-9780,204,-11292,-1354,-3699,2072,2025-01-29 10:35:23,1
-9532,56,-10220,-2281,-2709,2468,2025-01-29 10:35:23,1
-9084,184,-9984,-2543,-1189,2745,2025-01-29 10:35:23,1
-8644,412,-9648,-2981,286,2192,2025-01-29 10:35:23,1
-9120,820,-8976,-3165,1027,1125,2025-01-29 10:35:23,1
-10248,776,-8912,-3266,614,488,2025-01-29 10:35:23,1
-10808,48,-8684,-3426,139,546,2025-01-29 10:35:23,1
-10552,-836,-8424,-3587,42,685,2025-01-29 10:35:23,1
-10272,-1800,-7812,-3305,174,762,2025-01-29 10:35:23,1
-10244,-2292,-7104,-2769,282,911,2025-01-29 10:35:23,1
-10340,-2108,-6696,-2068,522,1314,2025-01-29 10:35:23,1
-10216,-1592,-6532,-1394,761,1760,2025-01-29 10:35:23,1
-10180,-1280,-6608,-1007,790,1877,2025-01-29 10:35:23,1
-10424,-548,-6788,-832,958,2073,2025-01-29 10:35:23,1
-10820,320,-7172,-765,980,2516,2025-01-29 10:35:23,1
-10620,788,-7600,-766,579,2808,2025-01-29 10:35:23,1
-10272,892,-7200,-740,101,2762,2025-01-29 10:35:23,1
-9680,816,-7060,-640,-279,2206,2025-01-29 10:35:23,1
-9760,604,-6308,-488,-456,1524,2025-01-29 10:35:23,1
-10300,440,-5472,-214,-792,1056,2025-01-29 10:35:23,1
-10264,168,-5896,-16,-779,891,2025-01-29 10:35:23,1
-10452,-176,-5676,110,-278,739,2025-01-29 10:35:23,1
-10668,-324,-5608,373,193,606,2025-01-29 10:35:23,1
-11464,-316,-5228,649,588,594,2025-01-29 10:35:23,1
-11812,-372,-5400,869,385,759,2025-01-29 10:35:23,1
-11648,-584,-5568,1182,-222,1022,2025-01-29 10:35:23,1
-10912,-540,-5680,1510,-817,1007,2025-01-29 10:35:23,1
-10340,-160,-4788,1884,-777,733,2025-01-29 10:35:23,1
-10084,460,-4428,2717,259,375,2025-01-29 10:35:23,1
-10348,972,-4792,3309,1667,330,2025-01-29 10:35:23,1
-11264,1028,-5172,3456,2937,569,2025-01-29 10:35:23,1
-11560,708,-5860,3532,3641,711,2025-01-29 10:35:23,1
-12272,532,-6560,3596,3883,740,2025-01-29 10:35:23,1
-12708,564,-6388,3617,3333,655,2025-01-29 10:35:23,1
-13212,708,-6480,3578,2007,613,2025-01-29 10:35:23,1
-13320,748,-6504,3182,174,890,2025-01-29 10:35:23,1
-12468,1788,-8520,2522,-637,1380,2025-01-29 10:35:23,1
-11216,2324,-9344,1747,-100,1473,2025-01-29 10:35:23,1
-10696,1956,-8116,953,465,820,2025-01-29 10:35:23,1
-11828,1432,-6348,1091,1149,84,2025-01-29 10:35:23,1
-13652,304,-4856,1629,1487,-171,2025-01-29 10:35:24,1
-15788,-596,-4456,1905,1415,46,2025-01-29 10:35:24,1
-16392,-2988,-5216,1988,768,728,2025-01-29 10:35:24,1
-15444,-2568,-7860,2287,-133,1166,2025-01-29 10:35:24,1
-15108,-156,-11348,2011,-110,1556,2025-01-29 10:35:24,1
-14536,1224,-11376,501,192,1995,2025-01-29 10:35:24,1
-13160,1868,-9892,-354,-744,1614,2025-01-29 10:35:24,1
-12556,2832,-10772,-934,-1532,1202,2025-01-29 10:35:24,1
-11192,2504,-10024,-1635,-1406,1013,2025-01-29 10:35:24,1
-9620,248,-7864,-1427,-1840,761,2025-01-29 10:35:24,1
-7892,-2448,-6788,39,-2567,334,2025-01-29 10:35:24,1
-6944,-4248,-7148,1831,-1378,-403,2025-01-29 10:35:24,1
-7496,-5296,-7836,3263,1053,-1212,2025-01-29 10:35:24,1
-9636,-4368,-9116,3765,2534,-982,2025-01-29 10:35:24,1
-10816,-2248,-9044,3740,3648,178,2025-01-29 10:35:24,1
-10652,-452,-8812,3413,3388,348,2025-01-29 10:35:24,1
-10624,1072,-8704,2667,2061,-208,2025-01-29 10:35:24,1
-10440,1868,-8564,1761,193,-1151,2025-01-29 10:35:24,1
-10840,1388,-8812,728,-1262,-2194,2025-01-29 10:35:24,1
-10436,272,-8860,-151,-2276,-2627,2025-01-29 10:35:24,1
-9588,-1336,-8796,-774,-3117,-2715,2025-01-29 10:35:24,1
-8848,-2076,-8232,-1051,-3022,-2974,2025-01-29 10:35:24,1
-8888,-2680,-7756,-1105,-2125,-3068,2025-01-29 10:35:24,1
-9100,-2644,-6752,-1113,-872,-2900,2025-01-29 10:35:24,1
-9560,-2520,-6452,-1083,71,-2520,2025-01-29 10:35:24,1
-9692,-2332,-7000,-1226,444,-2355,2025-01-29 10:35:24,1
-10016,-2264,-7268,-1322,464,-2359,2025-01-29 10:35:24,1
-10448,-2184,-7196,-1394,416,-2237,2025-01-29 10:35:24,1
-10740,-2088,-7140,-1626,342,-1963,2025-01-29 10:35:24,1
-10716,-1644,-6864,-1916,223,-1585,2025-01-29 10:35:24,1
-10512,-1472,-6648,-2251,166,-1407,2025-01-29 10:35:24,1
-10360,-1416,-6664,-2651,312,-1393,2025-01-29 10:35:24,1
-10256,-1460,-6424,-2932,625,-1367,2025-01-29 10:35:24,1
-9940,-1268,-7072,-3279,1160,-1146,2025-01-29 10:35:24,1
-10212,-1252,-6980,-3654,1612,-1333,2025-01-29 10:35:24,1
-10544,-1644,-7044,-3861,1975,-1604,2025-01-29 10:35:24,1
-11380,-1500,-6708,-3955,2371,-1616,2025-01-29 10:35:24,1
-11832,-1684,-6236,-4184,2273,-1604,2025-01-29 10:35:24,1
-11840,-2028,-5852,-4212,1246,-1636,2025-01-29 10:35:24,1
-11480,-2884,-6540,-4222,187,-1308,2025-01-29 10:35:24,1
-10648,-3352,-6680,-4091,186,-985,2025-01-29 10:35:24,1
-9800,-2092,-6880,-3616,1197,-1293,2025-01-29 10:35:24,1
-10480,-4,-7752,-4134,2257,-2254,2025-01-29 10:35:24,1
-11612,1240,-8172,-4767,2471,-2718,2025-01-29 10:35:24,1
-13116,1208,-8380,-5690,2062,-3101,2025-01-29 10:35:24,1
-13728,-708,-7332,-6206,1235,-3403,2025-01-29 10:35:24,1
-14300,-2804,-6164,-6206,-70,-3678,2025-01-29 10:35:24,1
-14420,-4040,-5348,-5938,-1339,-3770,2025-01-29 10:35:24,1
-14096,-4388,-4616,-5421,-2221,-3609,2025-01-29 10:35:24,1
-13232,-3408,-3940,-4945,-2430,-3437,2025-01-29 10:35:24,1
-12768,-2560,-4876,-4406,-1915,-3334,2025-01-29 10:35:24,1
-13052,-1956,-8504,-3857,-594,-3054,2025-01-29 10:35:24,1
-13088,-4844,-9416,-3553,2475,-3375,2025-01-29 10:35:24,1
-14628,-6388,-7592,-1471,3361,-4420,2025-01-29 10:35:24,1
-16216,-6320,-7080,928,699,-3722,2025-01-29 10:35:24,1
-16864,-6892,-9480,2088,-4645,-924,2025-01-29 10:35:24,1
-14420,-5516,-10472,3086,-7925,2588,2025-01-29 10:35:24,1
-9688,-2636,-11084,3737,-6991,3446,2025-01-29 10:35:24,1
-7356,228,-10592,3698,-4953,2207,2025-01-29 10:35:24,1
-6924,2832,-11112,2414,-3850,903,2025-01-29 10:35:24,1
-7432,3988,-11152,-349,-2215,206,2025-01-29 10:35:25,1
-7620,3800,-10336,-2030,-352,-13,2025-01-29 10:35:25,1
-7916,2864,-10608,-3051,956,-497,2025-01-29 10:35:25,1
-9744,1296,-9904,-3869,1577,-520,2025-01-29 10:35:25,1
-11560,296,-8744,-3713,1429,303,2025-01-29 10:35:25,1
-11160,-884,-9092,-3803,181,778,2025-01-29 10:35:25,1
-11360,-2100,-7424,-3441,-2090,1180,2025-01-29 10:35:25,1
-10896,-2692,-6568,-2312,-3491,1745,2025-01-29 10:35:25,1
-9616,-2536,-6600,-1166,-3005,2043,2025-01-29 10:35:25,1
-8924,-1760,-6060,-123,-1157,2140,2025-01-29 10:35:25,1
-8440,-764,-6848,538,574,2175,2025-01-29 10:35:25,1
-9524,56,-6776,845,1730,2237,2025-01-29 10:35:25,1
-11084,524,-6232,878,2386,2506,2025-01-29 10:35:25,1
-11728,756,-6464,783,2355,2779,2025-01-29 10:35:25,1
-11980,1088,-6572,794,1418,2918,2025-01-29 10:35:25,1
-11468,1028,-6920,870,-334,2903,2025-01-29 10:35:25,1
-10228,672,-6884,960,-1439,2580,2025-01-29 10:35:25,1
-9384,496,-6588,1205,-1310,1877,2025-01-29 10:35:25,1
-9252,684,-6636,1576,-555,1468,2025-01-29 10:35:25,1
-9336,980,-6764,1742,358,1263,2025-01-29 10:35:25,1
-9568,1180,-6028,1766,1056,999,2025-01-29 10:35:25,1
-10640,932,-5868,1650,1410,339,2025-01-29 10:35:25,1
-11408,700,-5612,1563,1327,213,2025-01-29 10:35:25,1
-11460,452,-5716,1563,1118,102,2025-01-29 10:35:25,1
-11964,224,-5936,1600,671,-95,2025-01-29 10:35:25,1
-11836,244,-6304,1538,292,-39,2025-01-29 10:35:25,1
-12012,456,-5676,1535,-196,127,2025-01-29 10:35:25,1
-11736,472,-5616,1610,-639,203,2025-01-29 10:35:25,1
-10960,36,-5536,1908,-780,14,2025-01-29 10:35:25,1
-12856,-336,-3644,2489,-606,-130,2025-01-29 10:35:25,1
-11896,-252,-5496,3095,-501,132,2025-01-29 10:35:25,1
-12624,-384,-5720,3426,28,584,2025-01-29 10:35:25,1
-12824,-1664,-5452,3631,634,1071,2025-01-29 10:35:25,1
-13408,-1468,-4656,4090,700,1684,2025-01-29 10:35:25,1
-13016,-208,-5288,4169,385,2297,2025-01-29 10:35:25,1
-11868,608,-4912,4255,29,2685,2025-01-29 10:35:25,1
-11360,460,-4384,4622,142,2085,2025-01-29 10:35:25,1
-12436,-684,-5496,5158,1559,1415,2025-01-29 10:35:25,1
-14372,-1180,-6700,5623,3921,1789,2025-01-29 10:35:25,1
-15756,604,-9064,5373,6444,2571,2025-01-29 10:35:25,1
-16888,3680,-11388,3300,6259,3745,2025-01-29 10:35:25,1
-16212,5468,-13036,677,3586,4240,2025-01-29 10:35:25,1
-14412,5748,-13052,-1650,165,3202,2025-01-29 10:35:25,1
-12016,4668,-12108,-3018,-2891,561,2025-01-29 10:35:25,1
-11612,2424,-10424,-3452,-4403,-1711,2025-01-29 10:35:25,1
-10772,920,-8612,-3024,-5357,-2064,2025-01-29 10:35:25,1
-8664,-376,-7684,-2151,-6323,-2162,2025-01-29 10:35:25,1
-6768,-1564,-6916,-1148,-6644,-2635,2025-01-29 10:35:25,1
-5720,-2972,-6412,-166,-6101,-2846,2025-01-29 10:35:25,1
-5808,-4456,-6056,735,-4371,-2225,2025-01-29 10:35:25,1
-6948,-4524,-6700,1534,-12,-685,2025-01-29 10:35:25,1
-7396,-3872,-7956,1830,5283,600,2025-01-29 10:35:25,1
-8228,-3028,-7708,1948,8766,753,2025-01-29 10:35:25,1
-10376,-1992,-7648,2044,9953,375,2025-01-29 10:35:25,1
-12656,-1076,-8404,1789,9053,137,2025-01-29 10:35:25,1
-13556,-412,-8964,1551,6443,-59,2025-01-29 10:35:25,1
-14068,-136,-9232,1244,3112,-611,2025-01-29 10:35:25,1
-13600,-468,-9424,844,-498,-1365,2025-01-29 10:35:25,1
-12184,-564,-10088,615,-2979,-1670,2025-01-29 10:35:25,1
-11040,-588,-9596,197,-4339,-1765,2025-01-29 10:35:25,1
-9144,-412,-8792,-544,-4389,-1903,2025-01-29 10:35:25,1
-8268,-340,-7972,-1252,-2922,-2507,2025-01-29 10:35:26,1
-8280,-684,-7136,-1772,-861,-3197,2025-01-29 10:35:26,1
-8704,-1164,-6936,-2221,919,-3624,2025-01-29 10:35:26,1
-9596,-1948,-6472,-2476,2006,-3807,2025-01-29 10:35:26,1
-10836,-2756,-5908,-2369,2378,-3961,2025-01-29 10:35:26,1
-11560,-3144,-6112,-2086,2086,-3800,2025-01-29 10:35:26,1
-12104,-2812,-6116,-1946,1540,-3296,2025-01-29 10:35:26,1
-11800,-2288,-6508,-1962,1007,-2780,2025-01-29 10:35:26,1
-11148,-2152,-6040,-2007,447,-2577,2025-01-29 10:35:26,1
-10676,-2192,-6092,-1961,477,-2439,2025-01-29 10:35:26,1
-9768,-2580,-6620,-1828,861,-2211,2025-01-29 10:35:26,1
-10152,-2448,-6280,-1725,1955,-1940,2025-01-29 10:35:26,1
-10920,-2132,-6064,-1773,2716,-1617,2025-01-29 10:35:26,1
-11492,-1584,-6320,-1850,2739,-1344,2025-01-29 10:35:26,1
-11532,-1408,-6976,-2047,2246,-979,2025-01-29 10:35:26,1
-12020,-1396,-6644,-2217,1602,-744,2025-01-29 10:35:26,1
-11756,-1952,-6964,-2429,1039,-375,2025-01-29 10:35:26,1
-11960,-2172,-6304,-2642,752,-48,2025-01-29 10:35:26,1
-11652,-2560,-6116,-2660,548,109,2025-01-29 10:35:26,1
-11192,-2800,-5984,-2541,401,-51,2025-01-29 10:35:26,1
-11368,-2504,-5972,-2542,403,-381,2025-01-29 10:35:26,1
-11104,-1444,-6632,-2627,559,-781,2025-01-29 10:35:26,1
-11268,180,-7072,-3154,519,-1245,2025-01-29 10:35:26,1
-11972,872,-7392,-3795,360,-1434,2025-01-29 10:35:26,1
-12492,-1612,-6420,-4144,755,-1488,2025-01-29 10:35:26,1
-12364,-4196,-6568,-3996,738,-1931,2025-01-29 10:35:26,1
-13384,-4984,-6192,-3506,899,-2506,2025-01-29 10:35:26,1
-14048,-4864,-6940,-2630,1487,-2970,2025-01-29 10:35:26,1
-14624,-3616,-8124,-1594,1650,-2985,2025-01-29 10:35:26,1
-14452,-3880,-9812,-593,1542,-2829,2025-01-29 10:35:26,1
-14100,-5076,-10152,-75,1320,-2874,2025-01-29 10:35:26,1
-14712,-5860,-9876,712,762,-2726,2025-01-29 10:35:26,1
-16080,-5744,-10280,1129,-744,-1206,2025-01-29 10:35:26,1
-15640,-4820,-9940,1440,-2781,1602,2025-01-29 10:35:26,1
-12312,-3368,-10424,1710,-5212,2931,2025-01-29 10:35:26,1
-9500,-1972,-9796,1539,-7364,2973,2025-01-29 10:35:26,1
-7460,-668,-8640,1568,-8569,2909,2025-01-29 10:35:26,1
-5932,748,-8872,1396,-8672,2786,2025-01-29 10:35:26,1
-5108,1692,-9204,769,-6686,2350,2025-01-29 10:35:26,1
-4564,2252,-8668,414,-2659,1332,2025-01-29 10:35:26,1
-5328,1876,-8268,351,2119,-113,2025-01-29 10:35:26,1
-7776,276,-7928,472,5149,-905,2025-01-29 10:35:26,1
-11512,-824,-8152,942,6899,-437,2025-01-29 10:35:26,1
-14240,-1492,-8952,666,6547,408,2025-01-29 10:35:26,1
-15816,-1804,-9064,481,3107,1484,2025-01-29 10:35:26,1
-16084,-1548,-9164,648,-1471,2870,2025-01-29 10:35:26,1
-14408,-1004,-9072,739,-5629,4121,2025-01-29 10:35:26,1
-12048,-708,-8232,790,-6816,4765,2025-01-29 10:35:26,1
-9244,-388,-6904,1266,-7003,5041,2025-01-29 10:35:26,1
-7616,-296,-6060,1804,-5894,4645,2025-01-29 10:35:26,1
-7056,-380,-5652,2273,-3379,4250,2025-01-29 10:35:26,1
-7348,-412,-5396,2744,64,3946,2025-01-29 10:35:26,1
-7948,-368,-6288,3235,2584,3844,2025-01-29 10:35:26,1
-9212,-436,-6832,3552,3593,3870,2025-01-29 10:35:26,1
-10736,-228,-7076,3978,3439,3746,2025-01-29 10:35:26,1
-12000,28,-7436,4361,1875,3713,2025-01-29 10:35:26,1
-12192,516,-7704,4576,-375,3583,2025-01-29 10:35:26,1
-11492,724,-8104,4428,-2431,3130,2025-01-29 10:35:26,1
-10808,648,-7504,4115,-3441,2801,2025-01-29 10:35:26,1
-9884,656,-7028,3806,-3563,2250,2025-01-29 10:35:26,1
-9608,476,-5984,3674,-2745,1734,2025-01-29 10:35:27,1
-9652,480,-6232,3706,-1514,1284,2025-01-29 10:35:27,1
-10032,376,-6220,3543,-631,892,2025-01-29 10:35:27,1
-10632,288,-6044,3522,-534,628,2025-01-29 10:35:27,1
-11296,420,-5760,3499,-938,554,2025-01-29 10:35:27,1
-11296,488,-5204,3544,-1218,622,2025-01-29 10:35:27,1
-11196,92,-4556,3782,-1097,590,2025-01-29 10:35:27,1
-10796,-348,-4676,4188,-242,479,2025-01-29 10:35:27,1
-10932,-544,-5572,4741,907,251,2025-01-29 10:35:27,1
-11576,-372,-6408,5074,1569,225,2025-01-29 10:35:27,1
-12436,256,-6680,5192,1557,427,2025-01-29 10:35:27,1
-13080,784,-7028,4879,1213,711,2025-01-29 10:35:27,1
-13384,652,-7076,4400,469,1002,2025-01-29 10:35:27,1
-13640,248,-6216,4103,-387,1264,2025-01-29 10:35:27,1
-13208,348,-5588,4104,-673,1286,2025-01-29 10:35:27,1
-12808,744,-5612,4261,-774,871,2025-01-29 10:35:27,1
-12604,1364,-5448,4282,-811,509,2025-01-29 10:35:27,1
-12632,1708,-5244,4189,-858,283,2025-01-29 10:35:27,1
-13304,776,-5856,3824,-148,313,2025-01-29 10:35:27,1
-13364,-1428,-6224,3589,1445,1001,2025-01-29 10:35:27,1
-13524,-1492,-7504,3373,2413,1421,2025-01-29 10:35:27,1
-13752,-432,-8264,2900,2805,1862,2025-01-29 10:35:27,1
-13664,460,-8720,2260,2675,1835,2025-01-29 10:35:27,1
-14012,924,-9004,1543,1975,1408,2025-01-29 10:35:27,1
-14376,1380,-9340,1061,1336,1210,2025-01-29 10:35:27,1
-13816,1148,-10032,535,174,1140,2025-01-29 10:35:27,1
-13020,644,-9472,-61,-957,872,2025-01-29 10:35:27,1
-11980,-412,-7860,-362,-2140,786,2025-01-29 10:35:27,1
-10184,-1332,-6660,-93,-3172,657,2025-01-29 10:35:27,1
-8624,-2164,-6252,396,-3626,440,2025-01-29 10:35:27,1
-7140,-2664,-5860,1021,-2699,166,2025-01-29 10:35:27,1
-7096,-2848,-6252,1418,225,84,2025-01-29 10:35:27,1
-7708,-2576,-7392,1634,3184,-79,2025-01-29 10:35:27,1
-8844,-2680,-8276,1606,5029,-129,2025-01-29 10:35:27,1
-10028,-2712,-8996,1660,5692,-32,2025-01-29 10:35:27,1
-11408,-2584,-8840,1698,4594,33,2025-01-29 10:35:27,1
-12092,-2296,-8468,1663,2595,89,2025-01-29 10:35:27,1
-12032,-2744,-8568,1432,663,-38,2025-01-29 10:35:27,1
-11692,-2924,-8388,1410,-544,-163,2025-01-29 10:35:27,1
-10920,-2860,-8064,1409,-966,-298,2025-01-29 10:35:27,1
-10148,-2612,-7928,1387,-697,-674,2025-01-29 10:35:27,1
-10328,-2192,-7792,1460,-181,-986,2025-01-29 10:35:27,1
-10312,-1596,-7752,1341,583,-1330,2025-01-29 10:35:27,1
-10684,-1356,-7748,981,1182,-1728,2025-01-29 10:35:27,1
-11096,-1500,-7556,543,1141,-1967,2025-01-29 10:35:27,1
-11628,-1776,-7156,219,852,-2013,2025-01-29 10:35:27,1
-10896,-2056,-7316,-7,542,-2179,2025-01-29 10:35:27,1
-10884,-2228,-7264,-110,186,-2290,2025-01-29 10:35:27,1
-10636,-2528,-7152,-242,13,-2201,2025-01-29 10:35:27,1
-10380,-3076,-6916,-241,388,-1989,2025-01-29 10:35:27,1
-10528,-3296,-6856,-181,885,-1778,2025-01-29 10:35:27,1
-10936,-3104,-6972,-34,1372,-1521,2025-01-29 10:35:27,1
-11020,-2584,-6864,6,1470,-1392,2025-01-29 10:35:27,1
-11260,-2252,-6920,-36,1355,-1265,2025-01-29 10:35:27,1
-11264,-1996,-7176,-305,989,-1082,2025-01-29 10:35:27,1
-11264,-2176,-7484,-516,738,-860,2025-01-29 10:35:27,1
-11084,-2696,-7992,-621,718,-543,2025-01-29 10:35:27,1
-10980,-3064,-7736,-651,883,-260,2025-01-29 10:35:27,1
-11256,-2908,-7592,-592,1036,-7,2025-01-29 10:35:27,1
-11552,-2624,-7312,-539,946,222,2025-01-29 10:35:27,1
-11700,-2372,-7448,-528,455,662,2025-01-29 10:35:28,1
-11868,-2616,-7540,-554,14,947,2025-01-29 10:35:28,1
-11684,-2680,-7632,-368,-379,809,2025-01-29 10:35:28,1
-11984,-1756,-7844,-32,-473,624,2025-01-29 10:35:28,1
-12000,-1228,-8068,-86,-738,653,2025-01-29 10:35:28,1
-11400,-1056,-7836,-200,-1305,528,2025-01-29 10:35:28,1
-10760,-868,-7860,-392,-1563,248,2025-01-29 10:35:28,1
-10476,-1480,-7168,-667,-1056,18,2025-01-29 10:35:28,1
-10172,-2380,-7516,-583,-321,-232,2025-01-29 10:35:28,1
-10356,-2928,-7276,-480,198,-411,2025-01-29 10:35:28,1
-10708,-2812,-7208,-239,384,-523,2025-01-29 10:35:28,1
-10860,-2404,-7468,-106,341,-568,2025-01-29 10:35:28,1
-11012,-1744,-7568,-152,354,-522,2025-01-29 10:35:28,1
-10892,-1240,-7912,-341,277,-556,2025-01-29 10:35:28,1
-11040,-984,-7944,-777,44,-629,2025-01-29 10:35:28,1
-10964,-1180,-7840,-1111,-14,-612,2025-01-29 10:35:28,1
-10704,-1368,-7720,-1251,351,-697,2025-01-29 10:35:28,1
-10764,-1420,-7676,-1239,667,-793,2025-01-29 10:35:28,1
-10960,-1744,-7540,-1298,832,-876,2025-01-29 10:35:28,1
-11200,-2076,-7644,-1197,856,-860,2025-01-29 10:35:28,1
-11564,-1860,-7700,-1204,566,-782,2025-01-29 10:35:28,1
-11428,-1756,-7496,-1331,159,-716,2025-01-29 10:35:28,1
-11328,-1836,-7308,-1283,-23,-695,2025-01-29 10:35:28,1
-11108,-1648,-7432,-1249,71,-680,2025-01-29 10:35:28,1
-11092,-1688,-7268,-1259,277,-653,2025-01-29 10:35:28,1
-11008,-1968,-7304,-1138,561,-601,2025-01-29 10:35:28,1
-11120,-1796,-7160,-998,730,-625,2025-01-29 10:35:28,1
-11188,-1868,-7320,-912,634,-549,2025-01-29 10:35:28,1
-11432,-1724,-7332,-838,480,-435,2025-01-29 10:35:28,1
-11372,-1888,-7548,-874,368,-257,2025-01-29 10:35:28,1
-11232,-1892,-7144,-772,348,-198,2025-01-29 10:35:28,1
-11164,-1864,-7468,-747,317,-300,2025-01-29 10:35:28,1
-11328,-1932,-7292,-709,264,-357,2025-01-29 10:35:28,1
-11240,-1804,-7380,-600,359,-290,2025-01-29 10:35:28,1
-11248,-1736,-7308,-483,501,-250,2025-01-29 10:35:28,1
-11216,-1704,-7416,-476,493,-240,2025-01-29 10:35:28,1
-11304,-1716,-7228,-474,322,-174,2025-01-29 10:35:28,1
-11232,-1640,-7328,-435,212,-170,2025-01-29 10:35:28,1
-11188,-1664,-7260,-423,196,-167,2025-01-29 10:35:28,1
-11204,-1580,-7192,-377,417,-206,2025-01-29 10:35:28,1
-11200,-1400,-7428,-391,565,-268,2025-01-29 10:35:28,1
-11432,-1352,-7492,-489,559,-335,2025-01-29 10:35:28,1
-11616,-1296,-7504,-500,352,-277,2025-01-29 10:35:28,1
-11376,-1364,-7520,-624,109,-274,2025-01-29 10:35:28,1
-11216,-1312,-7384,-642,-8,-292,2025-01-29 10:35:28,1
-11096,-1356,-7324,-664,87,-269,2025-01-29 10:35:28,1
-11096,-1564,-7436,-648,111,-301,2025-01-29 10:35:28,1
-11164,-1568,-7276,-607,136,-307,2025-01-29 10:35:28,1
-11256,-1620,-7152,-538,222,-334,2025-01-29 10:35:28,1
-11348,-1860,-7024,-485,190,-344,2025-01-29 10:35:28,1
-11296,-1644,-7080,-388,178,-330,2025-01-29 10:35:28,1
-11316,-1588,-7144,-322,207,-252,2025-01-29 10:35:28,1
-11320,-1512,-7212,-304,229,-203,2025-01-29 10:35:28,1
-11296,-1556,-7288,-265,338,-215,2025-01-29 10:35:28,1
-11284,-1560,-7140,-263,329,-204,2025-01-29 10:35:28,1
-11248,-1524,-7356,-170,301,-197,2025-01-29 10:35:28,1
-11480,-1740,-7140,-121,202,-188,2025-01-29 10:35:28,1
-11436,-1544,-7356,-9,149,-167,2025-01-29 10:35:28,1
-11380,-1492,-7172,-10,11,-151,2025-01-29 10:35:28,1
-11144,-1552,-7060,-34,-20,-63,2025-01-29 10:35:28,1
-11076,-1324,-7232,5,180,-82,2025-01-29 10:35:28,1
-11020,-1324,-7284,-46,307,-147,2025-01-29 10:35:29,1
-11336,-1428,-7236,-41,250,-140,2025-01-29 10:35:29,1
-11424,-1508,-7332,-8,170,-136,2025-01-29 10:35:29,1
-11468,-1520,-7288,32,110,-81,2025-01-29 10:35:29,1
-11380,-1352,-7264,-33,69,-101,2025-01-29 10:35:29,1
-11268,-1396,-7136,-94,106,-114,2025-01-29 10:35:29,1
-11264,-1516,-7328,-91,138,-109,2025-01-29 10:35:29,1
-11260,-1568,-7412,-35,140,-71,2025-01-29 10:35:29,1
-11220,-1548,-7256,-6,173,-64,2025-01-29 10:35:29,1
-11204,-1372,-7340,9,202,-107,2025-01-29 10:35:29,1
-11224,-1408,-7448,-15,219,-117,2025-01-29 10:35:29,1
-11408,-1460,-7368,-57,181,-68,2025-01-29 10:35:29,1
-11280,-1420,-7156,-16,162,-65,2025-01-29 10:35:29,1
-11392,-1384,-7280,-60,63,-59,2025-01-29 10:35:29,1
-11284,-1528,-7124,-4,-1,-59,2025-01-29 10:35:29,1
-11296,-1536,-7104,40,89,-50,2025-01-29 10:35:29,1
-11208,-1480,-7136,9,127,-118,2025-01-29 10:35:29,1
-11252,-1512,-7044,1,234,-148,2025-01-29 10:35:29,1
-11248,-1552,-7144,-7,323,-174,2025-01-29 10:35:29,1
-11364,-1512,-7268,-70,310,-185,2025-01-29 10:35:29,1
-11296,-1548,-7468,-134,219,-255,2025-01-29 10:35:29,1
-11280,-1412,-7408,-171,197,-288,2025-01-29 10:35:29,1
-11352,-1556,-7080,-222,211,-296,2025-01-29 10:35:29,1
-11156,-1596,-7308,-253,211,-337,2025-01-29 10:35:29,1
-11192,-1528,-7272,-234,239,-331,2025-01-29 10:35:29,1
-11188,-1532,-7420,-298,257,-341,2025-01-29 10:35:29,1
-11296,-1572,-7344,-374,270,-388,2025-01-29 10:35:29,1
-11216,-1464,-7328,-427,362,-397,2025-01-29 10:35:29,1
-11328,-1608,-7424,-438,324,-321,2025-01-29 10:35:29,1
-11260,-1752,-7384,-402,242,-306,2025-01-29 10:35:29,1
