acceleration_x,acceleration_y,acceleration_z,gyroscope_x,gyroscope_y,gyroscope_z,timestamp,label
56.0,-170.0,50.39999999999964,-2.799999999999997,42.1,17.900000000000006,2025-01-29 10:38:04,1
-20.0,138.0,-117.60000000000036,-3.799999999999997,36.1,20.90000000000001,2025-01-29 10:38:04,1
4.0,166.0,-145.60000000000036,-56.8,22.099999999999994,-19.099999999999994,2025-01-29 10:38:04,1
8.0,110.0,-113.60000000000036,-10.799999999999995,-27.90000000000001,-60.1,2025-01-29 10:38:04,1
-40.0,150.0,-157.60000000000036,-30.8,-94.9,-37.1,2025-01-29 10:38:05,1
-68.0,90.0,170.39999999999964,-35.8,-103.9,-29.099999999999994,2025-01-29 10:38:05,1
0.0,-102.0,166.39999999999964,-25.8,-49.900000000000006,-5.099999999999994,2025-01-29 10:38:05,1
112.0,-146.0,162.39999999999964,28.200000000000003,6.099999999999994,-5.099999999999994,2025-01-29 10:38:05,1
44.0,-94.0,26.39999999999964,52.2,87.1,37.900000000000006,2025-01-29 10:38:05,1
-96.0,-142.0,-41.60000000000037,86.2,83.1,78.9,2025-01-29 10:38:05,1
-220.0,78.0,-65.60000000000036,79.2,82.1,87.9,2025-01-29 10:38:05,1
-292.0,70.0,-97.60000000000036,65.2,-17.900000000000006,72.9,2025-01-29 10:38:05,1
-124.0,118.0,-109.60000000000036,86.2,-197.9,92.9,2025-01-29 10:38:05,1
-12.0,210.0,-89.60000000000036,54.2,-325.9,92.9,2025-01-29 10:38:05,1
116.0,74.0,102.39999999999964,88.2,-195.9,73.9,2025-01-29 10:38:05,1
240.0,-66.0,-109.60000000000036,88.2,78.1,57.900000000000006,2025-01-29 10:38:05,1
192.0,-142.0,-121.60000000000036,141.2,145.1,65.9,2025-01-29 10:38:05,1
-164.0,-26.0,-109.60000000000036,137.2,109.1,69.9,2025-01-29 10:38:05,1
-152.0,90.0,-189.6000000000004,150.2,-5.900000000000006,87.9,2025-01-29 10:38:05,1
-60.0,302.0,86.39999999999964,46.2,-144.9,98.9,2025-01-29 10:38:05,1
68.0,310.0,190.39999999999964,-12.799999999999995,-142.9,60.900000000000006,2025-01-29 10:38:05,1
140.0,222.0,2.399999999999636,-42.8,-52.900000000000006,7.900000000000006,2025-01-29 10:38:05,1
128.0,-14.0,70.39999999999964,-27.8,74.1,-49.1,2025-01-29 10:38:05,1
52.0,-158.0,-69.60000000000036,18.200000000000003,159.1,-35.099999999999994,2025-01-29 10:38:05,1
-40.0,-58.0,-21.600000000000364,21.200000000000003,251.1,-5.099999999999994,2025-01-29 10:38:05,1
-112.0,154.0,-189.6000000000004,17.200000000000003,185.1,22.90000000000001,2025-01-29 10:38:05,1
-4.0,238.0,-229.6000000000004,-91.8,120.1,-27.099999999999994,2025-01-29 10:38:05,1
4.0,238.0,66.39999999999964,-113.8,76.1,-16.099999999999994,2025-01-29 10:38:05,1
92.0,150.0,-185.6000000000004,-173.8,26.099999999999994,-87.1,2025-01-29 10:38:05,1
204.0,238.0,-233.6000000000004,-231.8,140.1,-131.1,2025-01-29 10:38:05,1
252.0,278.0,-205.6000000000004,-303.8,366.1,-247.1,2025-01-29 10:38:05,1
-4.0,162.0,-101.60000000000036,-365.8,486.1,-271.1,2025-01-29 10:38:05,1
-240.0,34.0,-53.60000000000037,-351.8,394.1,-216.1,2025-01-29 10:38:05,1
-156.0,294.0,-13.600000000000364,-410.8,227.1,-206.1,2025-01-29 10:38:05,1
-60.0,282.0,70.39999999999964,-489.8,-15.900000000000006,-204.1,2025-01-29 10:38:05,1
140.0,106.0,-109.60000000000036,-587.8,-88.9,-226.1,2025-01-29 10:38:05,1
160.0,90.0,-29.600000000000364,-561.8,47.1,-246.1,2025-01-29 10:38:05,1
112.0,-66.0,34.39999999999964,-474.8,273.1,-226.1,2025-01-29 10:38:05,1
32.0,-46.0,-105.60000000000036,-397.8,343.1,-197.1,2025-01-29 10:38:05,1
-192.0,-174.0,58.39999999999964,-333.8,306.1,-162.1,2025-01-29 10:38:05,1
-248.0,-114.0,54.39999999999964,-164.8,107.1,-99.1,2025-01-29 10:38:05,1
-144.0,-38.0,222.39999999999964,-93.8,-16.900000000000006,-43.1,2025-01-29 10:38:05,1
20.0,-90.0,106.39999999999964,-30.8,-57.900000000000006,-9.099999999999994,2025-01-29 10:38:05,1
12.0,-62.0,-13.600000000000364,66.2,48.1,45.900000000000006,2025-01-29 10:38:05,1
-60.0,-34.0,-105.60000000000036,135.2,154.1,54.900000000000006,2025-01-29 10:38:05,1
48.0,98.0,-61.60000000000037,197.2,118.1,106.9,2025-01-29 10:38:05,1
104.0,58.0,-185.6000000000004,189.2,95.1,104.9,2025-01-29 10:38:05,1
44.0,150.0,-33.600000000000364,226.2,123.1,75.9,2025-01-29 10:38:05,1
52.0,90.0,-65.60000000000036,224.2,107.1,77.9,2025-01-29 10:38:05,1
12.0,-14.0,162.39999999999964,271.2,173.1,48.900000000000006,2025-01-29 10:38:05,1
68.0,-50.0,82.39999999999964,301.2,167.1,98.9,2025-01-29 10:38:05,1
128.0,30.0,-213.6000000000004,339.2,252.1,194.9,2025-01-29 10:38:05,1
128.0,142.0,-377.6000000000004,370.2,287.1,215.9,2025-01-29 10:38:05,1
60.0,110.0,-509.6000000000004,297.2,351.1,212.9,2025-01-29 10:38:05,1
-44.0,-34.0,-481.6000000000004,292.2,363.1,167.9,2025-01-29 10:38:05,1
-144.0,-94.0,-453.6000000000004,311.2,260.1,243.9,2025-01-29 10:38:05,1
-112.0,-86.0,-393.6000000000004,286.2,53.1,243.9,2025-01-29 10:38:05,1
-40.0,82.0,-277.6000000000004,279.2,-173.9,280.9,2025-01-29 10:38:05,1
360.0,134.0,-305.6000000000004,319.2,-152.9,269.9,2025-01-29 10:38:05,1
328.0,198.0,-185.6000000000004,349.2,105.1,222.9,2025-01-29 10:38:05,1
520.0,186.0,-213.6000000000004,354.2,238.1,188.9,2025-01-29 10:38:05,1
488.0,218.0,-253.6000000000004,297.2,489.1,137.9,2025-01-29 10:38:05,1
284.0,218.0,-217.6000000000004,263.2,620.1,175.9,2025-01-29 10:38:05,1
352.0,450.0,-497.6000000000004,121.2,703.1,152.9,2025-01-29 10:38:05,1
288.0,658.0,-665.6000000000004,-50.8,725.1,104.9,2025-01-29 10:38:05,1
404.0,774.0,-529.6000000000004,-232.8,800.1,26.90000000000001,2025-01-29 10:38:05,1
300.0,590.0,-309.6000000000004,-323.8,981.1,-83.1,2025-01-29 10:38:05,1
148.0,594.0,-125.60000000000036,-321.8,1064.1,-79.1,2025-01-29 10:38:05,1
-104.0,322.0,-201.6000000000004,-307.8,1109.1,-66.1,2025-01-29 10:38:05,1
-484.0,358.0,-145.60000000000036,-260.8,1041.1,-1.0999999999999943,2025-01-29 10:38:05,1
-632.0,286.0,-117.60000000000036,-190.8,783.1,119.9,2025-01-29 10:38:05,1
-580.0,334.0,-29.600000000000364,-72.8,345.1,192.9,2025-01-29 10:38:06,1
-472.0,406.0,158.39999999999964,73.2,155.1,154.9,2025-01-29 10:38:06,1
-556.0,214.0,570.3999999999996,309.2,42.1,55.900000000000006,2025-01-29 10:38:06,1
-600.0,306.0,850.3999999999996,568.2,-144.9,168.9,2025-01-29 10:38:06,1
-632.0,322.0,838.3999999999996,811.2,-158.9,232.9,2025-01-29 10:38:06,1
-452.0,702.0,1242.3999999999996,1093.2,-256.9,225.9,2025-01-29 10:38:06,1
-236.0,714.0,830.3999999999996,1315.2,-406.9,336.9,2025-01-29 10:38:06,1
8.0,626.0,842.3999999999996,1671.2,-302.9,427.9,2025-01-29 10:38:06,1
416.0,638.0,486.3999999999997,2084.2,202.1,520.9,2025-01-29 10:38:06,1
372.0,482.0,186.39999999999964,2427.2,715.1,625.9,2025-01-29 10:38:06,1
32.0,546.0,206.39999999999964,2728.2,930.1,697.9,2025-01-29 10:38:06,1
-164.0,946.0,-17.600000000000364,2749.2,642.1,739.9,2025-01-29 10:38:06,1
-380.0,1386.0,-49.60000000000037,2704.2,258.1,817.9,2025-01-29 10:38:06,1
-260.0,1590.0,-113.60000000000036,2624.2,-152.9,807.9,2025-01-29 10:38:06,1
-152.0,1638.0,-497.6000000000004,2519.2,-452.9,725.9,2025-01-29 10:38:06,1
-60.0,1610.0,-513.6000000000004,2359.2,-722.9,674.9,2025-01-29 10:38:06,1
-8.0,1490.0,-461.6000000000004,2244.2,-934.9,421.9,2025-01-29 10:38:06,1
64.0,1686.0,-569.6000000000004,2099.2,-1057.9,27.90000000000001,2025-01-29 10:38:06,1
32.0,1870.0,-605.6000000000004,2020.2,-1124.9,-429.1,2025-01-29 10:38:06,1
-168.0,1806.0,-645.6000000000004,1835.2,-1187.9,-939.1,2025-01-29 10:38:06,1
-76.0,1554.0,-401.6000000000004,1589.2,-1570.9,-1448.1,2025-01-29 10:38:06,1
-4.0,1098.0,14.399999999999636,1290.2,-1810.9,-1878.1,2025-01-29 10:38:06,1
524.0,582.0,22.39999999999964,1193.2,-1862.9,-2075.1,2025-01-29 10:38:06,1
728.0,-418.0,-249.6000000000004,1240.2,-1575.9,-2164.1,2025-01-29 10:38:06,1
1140.0,-1026.0,-37.60000000000037,1307.2,-1070.9,-2259.1,2025-01-29 10:38:06,1
1448.0,-1410.0,106.39999999999964,1293.2,-482.9,-2489.1,2025-01-29 10:38:06,1
1220.0,-1846.0,370.3999999999997,1307.2,-29.90000000000001,-2716.1,2025-01-29 10:38:06,1
800.0,-2078.0,346.39999999999964,1380.2,419.1,-2762.1,2025-01-29 10:38:06,1
388.0,-2394.0,150.39999999999964,1305.2,703.1,-2606.1,2025-01-29 10:38:06,1
352.0,-2690.0,434.3999999999997,1057.2,677.1,-2362.1,2025-01-29 10:38:06,1
-24.0,-2682.0,834.3999999999996,766.2,727.1,-2177.1,2025-01-29 10:38:06,1
-224.0,-2550.0,994.3999999999996,477.2,1236.1,-2158.1,2025-01-29 10:38:06,1
-728.0,-1910.0,682.3999999999996,123.2,1723.1,-2218.1,2025-01-29 10:38:06,1
-1104.0,-1334.0,642.3999999999996,-355.8,1597.1,-2381.1,2025-01-29 10:38:06,1
-960.0,-2550.0,1074.3999999999996,-1109.8,-924.9,-2838.1,2025-01-29 10:38:06,1
-152.0,-3434.0,1470.3999999999996,-921.8,-1055.9,-2874.1,2025-01-29 10:38:06,1
328.0,-4050.0,1806.4,-555.8,-731.9,-2874.1,2025-01-29 10:38:06,1
224.0,-4102.0,1958.4,-184.8,-204.9,-2650.1,2025-01-29 10:38:06,1
176.0,-3526.0,1894.4,21.200000000000003,226.1,-2142.1,2025-01-29 10:38:06,1
500.0,-3110.0,1318.3999999999996,142.2,326.1,-1997.1,2025-01-29 10:38:06,1
708.0,-2586.0,882.3999999999996,42.2,496.1,-2126.1,2025-01-29 10:38:06,1
888.0,-2282.0,850.3999999999996,-282.8,614.1,-2208.1,2025-01-29 10:38:06,1
664.0,-1750.0,1294.3999999999996,-756.8,930.1,-2112.1,2025-01-29 10:38:06,1
572.0,-1634.0,1050.3999999999996,-1268.8,1382.1,-1867.1,2025-01-29 10:38:06,1
412.0,-1774.0,866.3999999999996,-1852.8,1817.1,-1742.1,2025-01-29 10:38:06,1
172.0,-2322.0,726.3999999999996,-2364.8,2046.1,-1540.1,2025-01-29 10:38:06,1
316.0,-2902.0,702.3999999999996,-2704.8,2144.1,-1346.1,2025-01-29 10:38:06,1
176.0,-3046.0,582.3999999999996,-2964.8,2152.1,-1226.1,2025-01-29 10:38:06,1
-232.0,-2798.0,794.3999999999996,-3137.8,2221.1,-1141.1,2025-01-29 10:38:06,1
-500.0,-2566.0,690.3999999999996,-3289.8,2264.1,-1138.1,2025-01-29 10:38:06,1
-1072.0,-2730.0,754.3999999999996,-3373.8,1960.1,-1165.1,2025-01-29 10:38:06,1
-1652.0,-3102.0,866.3999999999996,-3229.8,1261.1,-1064.1,2025-01-29 10:38:06,1
-1296.0,-3250.0,534.3999999999996,-2990.8,511.1,-1096.1,2025-01-29 10:38:06,1
-1084.0,-3006.0,182.39999999999964,-2965.8,-126.9,-1289.1,2025-01-29 10:38:06,1
-560.0,-2914.0,-137.60000000000036,-3126.8,-328.9,-1566.1,2025-01-29 10:38:06,1
-460.0,-2410.0,266.39999999999964,-3472.8,-228.9,-1903.1,2025-01-29 10:38:06,1
-920.0,-2118.0,710.3999999999996,-4019.8,-211.9,-1996.1,2025-01-29 10:38:06,1
-1164.0,-2026.0,818.3999999999996,-4633.8,-167.9,-2113.1,2025-01-29 10:38:06,1
-1580.0,-2070.0,1250.3999999999996,-5227.8,-116.9,-2260.1,2025-01-29 10:38:06,1
-1584.0,-2318.0,162.39999999999964,-5560.8,-136.9,-2306.1,2025-01-29 10:38:07,1
-1312.0,-2530.0,-1485.6000000000004,-5604.8,329.1,-2625.1,2025-01-29 10:38:07,1
-1852.0,-4210.0,-993.6000000000004,-5282.8,1152.1,-3024.1,2025-01-29 10:38:07,1
-2472.0,-6290.0,362.3999999999997,-3724.8,1189.1,-3064.1,2025-01-29 10:38:07,1
-3048.0,-6746.0,530.3999999999996,-1969.8,-112.9,-2203.1,2025-01-29 10:38:07,1
-2980.0,-6562.0,-185.6000000000004,-705.8,-1614.9,-740.1,2025-01-29 10:38:07,1
-2120.0,-5958.0,-709.6000000000004,255.2,-1939.9,219.9,2025-01-29 10:38:07,1
-1564.0,-4962.0,-1113.6000000000004,718.2,-2191.9,747.9,2025-01-29 10:38:07,1
-1336.0,-3466.0,-1321.6000000000004,625.2,-3324.9,1702.9,2025-01-29 10:38:07,1
-516.0,-2502.0,-1237.6000000000004,173.2,-3970.9,2550.9,2025-01-29 10:38:07,1
448.0,-1854.0,-1041.6000000000004,-57.8,-3909.9,3145.9,2025-01-29 10:38:07,1
932.0,-1542.0,-1777.6000000000004,-106.8,-3608.9,3553.9,2025-01-29 10:38:07,1
1772.0,-970.0,-2349.6000000000004,-202.8,-3101.9,3763.9,2025-01-29 10:38:07,1
2928.0,-350.0,-3177.6000000000004,-423.8,-2677.9,3562.9,2025-01-29 10:38:07,1
3464.0,398.0,-3213.6000000000004,-872.8,-2056.9,2888.9,2025-01-29 10:38:07,1
3656.0,1062.0,-2829.6000000000004,-1569.8,-1208.9,2111.9,2025-01-29 10:38:07,1
3552.0,1742.0,-2285.6000000000004,-2332.8,-318.9,1409.9,2025-01-29 10:38:07,1
3200.0,1846.0,-1797.6000000000004,-2983.8,716.1,616.9,2025-01-29 10:38:07,1
2624.0,1958.0,-1937.6000000000004,-3201.8,1193.1,17.900000000000006,2025-01-29 10:38:07,1
1572.0,1470.0,-2225.6000000000004,-3369.8,1520.1,-235.1,2025-01-29 10:38:07,1
440.0,642.0,-1721.6000000000004,-3420.8,1699.1,-41.1,2025-01-29 10:38:07,1
-160.0,-422.0,-969.6000000000004,-3185.8,1841.1,360.9,2025-01-29 10:38:07,1
-376.0,-1582.0,-221.6000000000004,-2618.8,1605.1,752.9,2025-01-29 10:38:07,1
-648.0,-2362.0,-225.6000000000004,-1963.8,971.1,1256.9,2025-01-29 10:38:07,1
-1080.0,-1866.0,654.3999999999996,-1141.8,419.1,1865.9,2025-01-29 10:38:07,1
-836.0,-1078.0,622.3999999999996,-687.8,-133.9,2474.9,2025-01-29 10:38:07,1
-256.0,-66.0,862.3999999999996,-247.8,-886.9,3058.9,2025-01-29 10:38:07,1
408.0,646.0,618.3999999999996,48.2,-1230.9,3217.9,2025-01-29 10:38:07,1
724.0,1206.0,750.3999999999996,287.2,-1058.9,3225.9,2025-01-29 10:38:07,1
1120.0,1162.0,558.3999999999996,352.2,-148.9,3055.9,2025-01-29 10:38:07,1
1236.0,1306.0,46.39999999999964,257.2,614.1,2843.9,2025-01-29 10:38:07,1
1368.0,1418.0,-505.6000000000004,74.2,639.1,2500.9,2025-01-29 10:38:07,1
1404.0,1438.0,-1349.6000000000004,-122.8,428.1,2107.9,2025-01-29 10:38:07,1
1560.0,1530.0,-1009.6000000000004,-342.8,-424.9,1585.9,2025-01-29 10:38:07,1
888.0,1466.0,30.39999999999964,-400.8,-1665.9,1104.9,2025-01-29 10:38:07,1
780.0,1542.0,354.39999999999964,-453.8,-2674.9,762.9,2025-01-29 10:38:07,1
1312.0,1798.0,602.3999999999996,-500.8,-2829.9,538.9,2025-01-29 10:38:07,1
1684.0,1738.0,698.3999999999996,-657.8,-2074.9,217.9,2025-01-29 10:38:07,1
1736.0,1374.0,1414.3999999999996,-773.8,-998.9,-153.1,2025-01-29 10:38:07,1
1280.0,902.0,1646.3999999999996,-688.8,-108.9,-503.1,2025-01-29 10:38:07,1
488.0,506.0,2118.4,-296.8,615.1,-657.1,2025-01-29 10:38:07,1
56.0,190.0,2158.4,206.2,691.1,-745.1,2025-01-29 10:38:07,1
-660.0,350.0,2002.4,695.2,-45.900000000000006,-748.1,2025-01-29 10:38:07,1
-704.0,698.0,2174.4,1143.2,-1012.9,-630.1,2025-01-29 10:38:07,1
-576.0,1246.0,2126.4,1489.2,-1806.9,-562.1,2025-01-29 10:38:07,1
-188.0,1358.0,1574.3999999999996,1679.2,-2107.9,-669.1,2025-01-29 10:38:07,1
-428.0,602.0,1846.4,1957.2,-1601.9,-768.1,2025-01-29 10:38:07,1
-372.0,90.0,1990.4,2455.2,-1039.9,-410.1,2025-01-29 10:38:07,1
256.0,406.0,1454.3999999999996,2664.2,-641.9,-281.1,2025-01-29 10:38:07,1
284.0,654.0,890.3999999999996,2715.2,-189.9,-582.1,2025-01-29 10:38:07,1
-744.0,386.0,974.3999999999996,3158.2,594.1,-640.1,2025-01-29 10:38:07,1
-2648.0,566.0,1310.3999999999996,4064.2,1258.1,160.9,2025-01-29 10:38:07,1
-3552.0,398.0,1118.3999999999996,3798.2,290.1,1423.9,2025-01-29 10:38:07,1
-3064.0,294.0,1850.4,3377.2,-1418.9,2241.9,2025-01-29 10:38:07,1
-2472.0,918.0,2882.4,3430.2,-1732.9,2677.9,2025-01-29 10:38:07,1
-1836.0,1842.0,2126.4,3566.2,-637.9,3007.9,2025-01-29 10:38:07,1
-1324.0,1602.0,334.39999999999964,3662.2,1942.1,2907.9,2025-01-29 10:38:07,1
-1992.0,1202.0,-1225.6000000000004,3291.2,4279.1,2406.9,2025-01-29 10:38:07,1
-3540.0,1838.0,-2769.6000000000004,2702.2,5118.1,2499.9,2025-01-29 10:38:07,1
-4052.0,2594.0,-4809.6,1318.2,4932.1,2792.9,2025-01-29 10:38:07,1
-3548.0,3454.0,-3989.6,-348.8,3164.1,2223.9,2025-01-29 10:38:07,1
-2576.0,3790.0,-2049.6000000000004,-1013.8,309.1,648.9,2025-01-29 10:38:08,1
-1480.0,2802.0,-2189.6000000000004,-1119.8,-1800.9,-868.1,2025-01-29 10:38:08,1
-288.0,1314.0,-2121.6000000000004,-1203.8,-2693.9,-1247.1,2025-01-29 10:38:08,1
1188.0,254.0,-1105.6000000000004,-860.8,-3468.9,-1173.1,2025-01-29 10:38:08,1
3148.0,-730.0,-133.60000000000036,-222.8,-4488.9,-1226.1,2025-01-29 10:38:08,1
3996.0,-1134.0,222.39999999999964,162.2,-3769.9,-1340.1,2025-01-29 10:38:08,1
4656.0,-846.0,-1053.6000000000004,113.2,-1505.9,-1088.1,2025-01-29 10:38:08,1
4920.0,-822.0,-1593.6000000000004,-298.8,1541.1,-1048.1,2025-01-29 10:38:08,1
3632.0,-1138.0,-1161.6000000000004,-676.8,3721.1,-1401.1,2025-01-29 10:38:08,1
1500.0,-1786.0,-249.6000000000004,-703.8,4672.1,-1340.1,2025-01-29 10:38:08,1
184.0,-2106.0,-441.6000000000004,-393.8,4329.1,-1110.1,2025-01-29 10:38:08,1
-568.0,-1938.0,-1517.6000000000004,-169.8,2547.1,-1219.1,2025-01-29 10:38:08,1
-868.0,-1402.0,-1725.6000000000004,-102.8,600.1,-1331.1,2025-01-29 10:38:08,1
-244.0,-782.0,-2077.6000000000004,3.200000000000003,-923.9,-1643.1,2025-01-29 10:38:08,1
356.0,-410.0,-2333.6000000000004,-204.8,-2020.9,-2209.1,2025-01-29 10:38:08,1
1208.0,-274.0,-2137.6000000000004,-628.8,-2569.9,-2648.1,2025-01-29 10:38:08,1
1832.0,-362.0,-2077.6000000000004,-966.8,-2032.9,-3032.1,2025-01-29 10:38:08,1
2332.0,-586.0,-1725.6000000000004,-1517.8,-966.9,-3379.1,2025-01-29 10:38:08,1
2408.0,-746.0,-921.6000000000004,-1912.8,-90.9,-3867.1,2025-01-29 10:38:08,1
1984.0,-1150.0,-201.6000000000004,-2099.8,715.1,-4262.1,2025-01-29 10:38:08,1
1692.0,-1790.0,398.3999999999997,-2114.8,1221.1,-4563.1,2025-01-29 10:38:08,1
948.0,-2390.0,506.3999999999997,-1895.8,1470.1,-4783.1,2025-01-29 10:38:08,1
156.0,-2362.0,334.39999999999964,-1742.8,1505.1,-4377.1,2025-01-29 10:38:08,1
-52.0,-2142.0,202.39999999999964,-1863.8,1348.1,-3747.1,2025-01-29 10:38:08,1
48.0,-2090.0,446.3999999999997,-1825.8,884.1,-3313.1,2025-01-29 10:38:08,1
308.0,-2102.0,722.3999999999996,-1743.8,177.1,-2920.1,2025-01-29 10:38:08,1
548.0,-2530.0,1154.3999999999996,-1595.8,-163.9,-2601.1,2025-01-29 10:38:08,1
616.0,-2562.0,946.3999999999996,-1357.8,150.1,-2147.1,2025-01-29 10:38:08,1
736.0,-1914.0,678.3999999999996,-1239.8,802.1,-1601.1,2025-01-29 10:38:08,1
1024.0,-1022.0,-461.6000000000004,-1423.8,1275.1,-1224.1,2025-01-29 10:38:08,1
1032.0,-774.0,-713.6000000000004,-1808.8,1433.1,-1129.1,2025-01-29 10:38:08,1
660.0,-662.0,-817.6000000000004,-2305.8,1454.1,-1098.1,2025-01-29 10:38:08,1
92.0,-926.0,-257.6000000000004,-2907.8,1302.1,-1056.1,2025-01-29 10:38:08,1
-592.0,-1018.0,466.3999999999997,-3141.8,827.1,-824.1,2025-01-29 10:38:08,1
-604.0,-1102.0,630.3999999999996,-3181.8,192.1,-541.1,2025-01-29 10:38:08,1
-216.0,-1338.0,1266.3999999999996,-3294.8,-311.9,-315.1,2025-01-29 10:38:08,1
788.0,-2262.0,1126.3999999999996,-3229.8,-288.9,-323.1,2025-01-29 10:38:08,1
940.0,-2638.0,1014.3999999999996,-3001.8,266.1,-342.1,2025-01-29 10:38:08,1
1016.0,-2246.0,514.3999999999996,-2806.8,1163.1,-316.1,2025-01-29 10:38:08,1
1116.0,-1334.0,114.39999999999964,-2850.8,1920.1,-615.1,2025-01-29 10:38:08,1
728.0,-574.0,-325.6000000000004,-3090.8,2665.1,-1148.1,2025-01-29 10:38:08,1
-348.0,6.0,-409.6000000000004,-3508.8,3122.1,-1554.1,2025-01-29 10:38:08,1
-1232.0,162.0,-197.6000000000004,-4060.8,2654.1,-1840.1,2025-01-29 10:38:08,1
-1416.0,-1038.0,578.3999999999996,-4238.8,1852.1,-2046.1,2025-01-29 10:38:08,1
-1776.0,-2114.0,414.3999999999997,-4228.8,1148.1,-2256.1,2025-01-29 10:38:08,1
-1720.0,-2278.0,482.3999999999997,-4220.8,900.1,-2158.1,2025-01-29 10:38:08,1
-1344.0,-1802.0,750.3999999999996,-4215.8,889.1,-2380.1,2025-01-29 10:38:08,1
-812.0,-1374.0,718.3999999999996,-4183.8,1050.1,-2970.1,2025-01-29 10:38:08,1
-228.0,-1926.0,-865.6000000000004,-3561.8,2004.1,-3894.1,2025-01-29 10:38:08,1
-852.0,-3230.0,-1845.6000000000004,-2855.8,3960.1,-4736.1,2025-01-29 10:38:08,1
-2472.0,-4506.0,-1693.6000000000004,-1771.8,4422.1,-4902.1,2025-01-29 10:38:08,1
-3820.0,-5278.0,-2061.6000000000004,-111.8,2986.1,-4271.1,2025-01-29 10:38:08,1
-4840.0,-5430.0,-2757.6000000000004,1089.2,-157.9,-3164.1,2025-01-29 10:38:08,1
-5696.0,-4038.0,-3949.6,1421.2,-3937.9,-1022.1,2025-01-29 10:38:08,1
-3452.0,-1634.0,-4725.6,1020.2,-6714.9,1278.9,2025-01-29 10:38:08,1
-964.0,-910.0,-3569.6000000000004,406.2,-7866.9,2115.9,2025-01-29 10:38:08,1
960.0,-1890.0,-1777.6000000000004,65.2,-8613.9,2213.9,2025-01-29 10:38:08,1
2240.0,-2666.0,-61.60000000000037,225.2,-9441.9,2432.9,2025-01-29 10:38:08,1
3236.0,-3134.0,1066.3999999999996,879.2,-9156.9,2785.9,2025-01-29 10:38:08,1
4624.0,-3174.0,730.3999999999996,1499.2,-6895.9,2902.9,2025-01-29 10:38:09,1
5208.0,-1438.0,-689.6000000000004,2005.2,-2891.9,2492.9,2025-01-29 10:38:09,1
4356.0,646.0,-1957.6000000000004,1958.2,840.1,2272.9,2025-01-29 10:38:09,1
3488.0,2650.0,-2685.6000000000004,1314.2,3362.1,2118.9,2025-01-29 10:38:09,1
2744.0,3498.0,-3113.6000000000004,387.2,4479.1,1693.9,2025-01-29 10:38:09,1
1556.0,3218.0,-3625.6,-739.8,3633.1,969.9,2025-01-29 10:38:09,1
128.0,1566.0,-2877.6000000000004,-1536.8,2159.1,756.9,2025-01-29 10:38:09,1
-732.0,22.0,-1557.6000000000004,-1767.8,985.1,1166.9,2025-01-29 10:38:09,1
-500.0,-766.0,-1001.6000000000004,-1647.8,-698.9,1660.9,2025-01-29 10:38:09,1
-256.0,-798.0,-1133.6000000000004,-1389.8,-2123.9,2063.9,2025-01-29 10:38:09,1
436.0,-918.0,-1457.6000000000004,-1244.8,-2648.9,2393.9,2025-01-29 10:38:09,1
1228.0,-794.0,-641.6000000000004,-917.8,-2712.9,2459.9,2025-01-29 10:38:09,1
1492.0,-562.0,2.399999999999636,-502.8,-2148.9,2452.9,2025-01-29 10:38:09,1
1376.0,-190.0,874.3999999999996,52.2,-697.9,2466.9,2025-01-29 10:38:09,1
1308.0,350.0,302.39999999999964,219.2,-27.90000000000001,2548.9,2025-01-29 10:38:09,1
864.0,870.0,-137.60000000000036,232.2,291.1,2720.9,2025-01-29 10:38:09,1
840.0,1034.0,-349.6000000000004,-47.8,332.1,2947.9,2025-01-29 10:38:09,1
772.0,942.0,154.39999999999964,-114.8,53.1,2781.9,2025-01-29 10:38:09,1
376.0,722.0,822.3999999999996,224.2,-754.9,2471.9,2025-01-29 10:38:09,1
320.0,510.0,694.3999999999996,627.2,-1677.9,2298.9,2025-01-29 10:38:09,1
280.0,494.0,950.3999999999996,920.2,-2067.9,2352.9,2025-01-29 10:38:09,1
832.0,890.0,1618.3999999999996,1257.2,-1812.9,2232.9,2025-01-29 10:38:09,1
1212.0,1006.0,1986.4,1412.2,-1102.9,1922.9,2025-01-29 10:38:09,1
1296.0,842.0,2018.4,1461.2,-241.9,1497.9,2025-01-29 10:38:09,1
1180.0,530.0,2294.4,1742.2,562.1,1252.9,2025-01-29 10:38:09,1
864.0,274.0,2226.4,2108.2,850.1,1056.9,2025-01-29 10:38:09,1
300.0,222.0,1926.4,2568.2,882.1,766.9,2025-01-29 10:38:09,1
-392.0,486.0,2278.4,3017.2,577.1,540.9,2025-01-29 10:38:09,1
-908.0,914.0,2174.4,3556.2,-216.9,396.9,2025-01-29 10:38:09,1
-1276.0,1190.0,2010.4,3737.2,-1000.9,439.9,2025-01-29 10:38:09,1
-1144.0,986.0,1898.4,3856.2,-1400.9,638.9,2025-01-29 10:38:09,1
-744.0,722.0,1818.4,4068.2,-1254.9,882.9,2025-01-29 10:38:09,1
-836.0,74.0,2146.4,4290.2,-1004.9,1107.9,2025-01-29 10:38:09,1
-908.0,-386.0,2282.4,4534.2,-515.9,1271.9,2025-01-29 10:38:09,1
-1680.0,-338.0,2874.4,4880.2,485.1,1753.9,2025-01-29 10:38:09,1
-1872.0,194.0,1826.4,5090.2,673.1,2358.9,2025-01-29 10:38:09,1
-1980.0,662.0,546.3999999999996,5019.2,-168.9,3013.9,2025-01-29 10:38:09,1
-1760.0,1046.0,842.3999999999996,5000.2,-816.9,3358.9,2025-01-29 10:38:09,1
-1484.0,694.0,2126.4,5222.2,-1518.9,3379.9,2025-01-29 10:38:09,1
-1552.0,374.0,2418.4,5720.2,-1923.9,3148.9,2025-01-29 10:38:09,1
-2116.0,-278.0,682.3999999999996,6133.2,-342.9,3306.9,2025-01-29 10:38:09,1
-2872.0,-58.0,-1441.6000000000004,5958.2,2500.1,3726.9,2025-01-29 10:38:09,1
-4560.0,1826.0,-3261.6000000000004,4941.2,4342.1,4569.9,2025-01-29 10:38:09,1
-5012.0,4002.0,-4149.6,3223.2,4606.1,5333.9,2025-01-29 10:38:09,1
-3980.0,5038.0,-4169.6,1370.2,2754.1,5010.9,2025-01-29 10:38:09,1
-1692.0,4754.0,-4185.6,7.200000000000003,-1390.9,2372.9,2025-01-29 10:38:09,1
-1696.0,3086.0,-3585.6000000000004,-574.8,-2779.9,602.9,2025-01-29 10:38:09,1
-844.0,2082.0,-1209.6000000000004,-616.8,-3344.9,302.9,2025-01-29 10:38:09,1
1244.0,1694.0,306.39999999999964,81.2,-4091.9,-107.1,2025-01-29 10:38:09,1
3068.0,1298.0,498.3999999999997,718.2,-4304.9,-843.1,2025-01-29 10:38:09,1
4344.0,414.0,218.39999999999964,1044.2,-4189.9,-1643.1,2025-01-29 10:38:09,1
5100.0,-830.0,-57.60000000000037,1318.2,-3628.9,-2264.1,2025-01-29 10:38:09,1
5104.0,-2034.0,-325.6000000000004,1495.2,-1646.9,-2281.1,2025-01-29 10:38:09,1
4312.0,-2638.0,-665.6000000000004,1675.2,2041.1,-1989.1,2025-01-29 10:38:09,1
3068.0,-3022.0,-749.6000000000004,1811.2,5392.1,-1264.1,2025-01-29 10:38:09,1
1664.0,-3702.0,-581.6000000000004,2075.2,7488.1,-825.1,2025-01-29 10:38:09,1
-664.0,-3462.0,-285.6000000000004,2734.2,7181.1,-583.1,2025-01-29 10:38:09,1
-2236.0,-2794.0,-1025.6000000000004,3209.2,4977.1,-395.1,2025-01-29 10:38:09,1
-3324.0,-1414.0,-1797.6000000000004,3319.2,1831.1,-565.1,2025-01-29 10:38:09,1
-2836.0,-250.0,-2225.6000000000004,2983.2,-2109.9,-1227.1,2025-01-29 10:38:09,1
-2188.0,286.0,-1781.6000000000004,2399.2,-5558.9,-1891.1,2025-01-29 10:38:09,1
-512.0,990.0,-1585.6000000000004,1691.2,-7602.9,-2253.1,2025-01-29 10:38:10,1
1060.0,1298.0,-1077.6000000000004,551.2,-7755.9,-2378.1,2025-01-29 10:38:10,1
2784.0,1110.0,-529.6000000000004,-733.8,-6204.9,-2617.1,2025-01-29 10:38:10,1
3764.0,650.0,378.3999999999997,-1705.8,-3942.9,-3146.1,2025-01-29 10:38:10,1
3748.0,-734.0,1414.3999999999996,-2449.8,-461.9,-4111.1,2025-01-29 10:38:10,1
1880.0,-2106.0,3010.4,-2581.8,1282.1,-4393.1,2025-01-29 10:38:10,1
956.0,-3118.0,2986.4,-2429.8,2131.1,-4356.1,2025-01-29 10:38:10,1
-504.0,-3510.0,3146.4,-2092.8,2352.1,-3922.1,2025-01-29 10:38:10,1
-1260.0,-3306.0,2522.4,-1723.8,1858.1,-3269.1,2025-01-29 10:38:10,1
-1216.0,-3074.0,1810.4,-1606.8,947.1,-2523.1,2025-01-29 10:38:10,1
-684.0,-2598.0,1594.3999999999996,-1563.8,76.1,-1804.1,2025-01-29 10:38:10,1
52.0,-2402.0,1386.3999999999996,-1631.8,14.099999999999994,-1386.1,2025-01-29 10:38:10,1
140.0,-2246.0,2286.4,-1700.8,439.1,-1086.1,2025-01-29 10:38:10,1
968.0,-1890.0,1490.3999999999996,-1971.8,1468.1,-1026.1,2025-01-29 10:38:10,1
972.0,-1422.0,974.3999999999996,-2298.8,2917.1,-1084.1,2025-01-29 10:38:10,1
244.0,-998.0,790.3999999999996,-2690.8,4014.1,-1094.1,2025-01-29 10:38:10,1
-724.0,-806.0,630.3999999999996,-3160.8,4430.1,-931.1,2025-01-29 10:38:10,1
-1304.0,-1014.0,382.3999999999997,-3598.8,3736.1,-823.1,2025-01-29 10:38:10,1
-1512.0,-1678.0,426.3999999999997,-3878.8,2341.1,-890.1,2025-01-29 10:38:10,1
-1692.0,-2342.0,1406.3999999999996,-3963.8,939.1,-809.1,2025-01-29 10:38:10,1
-1088.0,-2862.0,1786.3999999999996,-3929.8,197.1,-795.1,2025-01-29 10:38:10,1
-436.0,-2474.0,2294.4,-3708.8,46.1,-880.1,2025-01-29 10:38:10,1
-352.0,-1510.0,2218.4,-3443.8,306.1,-1001.1,2025-01-29 10:38:10,1
324.0,-814.0,734.3999999999996,-3575.8,925.1,-1301.1,2025-01-29 10:38:10,1
-208.0,-1146.0,278.39999999999964,-3918.8,1649.1,-1601.1,2025-01-29 10:38:10,1
-560.0,-1922.0,646.3999999999996,-4223.8,1944.1,-2223.1,2025-01-29 10:38:10,1
-1852.0,-2030.0,1530.3999999999996,-4216.8,1313.1,-2753.1,2025-01-29 10:38:10,1
-2504.0,-2430.0,1138.3999999999996,-4289.8,2.0999999999999943,-2704.1,2025-01-29 10:38:10,1
-2368.0,-2266.0,194.39999999999964,-4345.8,-900.9,-2786.1,2025-01-29 10:38:10,1
-1144.0,-1998.0,-1253.6000000000004,-4070.8,-1010.9,-3072.1,2025-01-29 10:38:10,1
-580.0,-2382.0,-1925.6000000000004,-3421.8,-348.9,-3939.1,2025-01-29 10:38:10,1
-928.0,-3286.0,-1565.6000000000004,-2287.8,436.1,-4542.1,2025-01-29 10:38:10,1
-2640.0,-4646.0,-1677.6000000000004,-1145.8,1578.1,-4543.1,2025-01-29 10:38:10,1
-5364.0,-5734.0,-3485.6000000000004,-337.8,690.1,-2651.1,2025-01-29 10:38:10,1
-6544.0,-5418.0,-3905.6,-269.8,-1624.9,352.9,2025-01-29 10:38:10,1
-3744.0,-3598.0,-2305.6000000000004,-77.8,-4698.9,2317.9,2025-01-29 10:38:10,1
-1032.0,-1746.0,-2357.6000000000004,43.2,-6635.9,2703.9,2025-01-29 10:38:10,1
1460.0,138.0,-2925.6000000000004,-619.8,-7233.9,3235.9,2025-01-29 10:38:10,1
3916.0,1474.0,-2921.6000000000004,-1628.8,-6815.9,3510.9,2025-01-29 10:38:10,1
6028.0,2318.0,-2465.6000000000004,-2531.8,-5432.9,3123.9,2025-01-29 10:38:10,1
7416.0,2538.0,-477.6000000000004,-2943.8,-2100.9,1694.9,2025-01-29 10:38:10,1
6464.0,1614.0,1394.3999999999996,-2742.8,2033.1,-97.1,2025-01-29 10:38:10,1
3604.0,726.0,1762.3999999999996,-2525.8,5023.1,-1222.1,2025-01-29 10:38:10,1
528.0,554.0,250.39999999999964,-2090.8,6550.1,-1256.1,2025-01-29 10:38:10,1
-1780.0,818.0,-1881.6000000000004,-2443.8,6718.1,-814.1,2025-01-29 10:38:10,1
-2684.0,410.0,-2405.6000000000004,-2896.8,4695.1,-443.1,2025-01-29 10:38:10,1
-3904.0,-318.0,-1545.6000000000004,-2990.8,155.1,189.9,2025-01-29 10:38:10,1
-3160.0,-542.0,-689.6000000000004,-2591.8,-3358.9,1187.9,2025-01-29 10:38:10,1
-296.0,-322.0,-281.6000000000004,-2284.8,-5260.9,1753.9,2025-01-29 10:38:10,1
1472.0,110.0,370.3999999999997,-1989.8,-5413.9,1934.9,2025-01-29 10:38:10,1
3188.0,430.0,450.3999999999997,-1672.8,-4662.9,1988.9,2025-01-29 10:38:10,1
4356.0,302.0,494.3999999999997,-1358.8,-2004.9,1618.9,2025-01-29 10:38:10,1
4188.0,42.0,866.3999999999996,-831.8,1809.1,789.9,2025-01-29 10:38:10,1
2416.0,30.0,1506.3999999999996,-261.8,4195.1,277.9,2025-01-29 10:38:10,1
60.0,502.0,1018.3999999999996,79.2,4797.1,273.9,2025-01-29 10:38:10,1
-1708.0,962.0,670.3999999999996,53.2,3626.1,610.9,2025-01-29 10:38:10,1
-2360.0,1246.0,386.3999999999997,-23.8,1372.1,874.9,2025-01-29 10:38:10,1
-1808.0,1198.0,794.3999999999996,71.2,-1482.9,600.9,2025-01-29 10:38:10,1
-844.0,1014.0,1250.3999999999996,151.2,-2805.9,406.9,2025-01-29 10:38:10,1
340.0,802.0,1182.3999999999996,224.2,-2849.9,479.9,2025-01-29 10:38:10,1
1440.0,686.0,1234.3999999999996,244.2,-1983.9,427.9,2025-01-29 10:38:10,1
1400.0,542.0,1070.3999999999996,380.2,-262.9,171.9,2025-01-29 10:38:11,1
540.0,314.0,1110.3999999999996,577.2,1264.1,94.9,2025-01-29 10:38:11,1
-732.0,278.0,1318.3999999999996,809.2,1670.1,142.9,2025-01-29 10:38:11,1
-1648.0,246.0,1382.3999999999996,1026.2,516.1,206.9,2025-01-29 10:38:11,1
-1872.0,410.0,1550.3999999999996,1259.2,-1096.9,224.9,2025-01-29 10:38:11,1
-1532.0,554.0,1282.3999999999996,1537.2,-2099.9,335.9,2025-01-29 10:38:11,1
-472.0,594.0,1554.3999999999996,1757.2,-2441.9,460.9,2025-01-29 10:38:11,1
120.0,510.0,1930.4,1953.2,-2185.9,531.9,2025-01-29 10:38:11,1
672.0,646.0,2018.4,2210.2,-1125.9,415.9,2025-01-29 10:38:11,1
452.0,826.0,1934.4,2464.2,186.1,354.9,2025-01-29 10:38:11,1
-40.0,706.0,1686.3999999999996,2711.2,1117.1,318.9,2025-01-29 10:38:11,1
-1028.0,558.0,1594.3999999999996,2957.2,1374.1,467.9,2025-01-29 10:38:11,1
-1592.0,594.0,1598.3999999999996,3219.2,1133.1,796.9,2025-01-29 10:38:11,1
-1828.0,490.0,1290.3999999999996,3397.2,562.1,1149.9,2025-01-29 10:38:11,1
-1864.0,482.0,1402.3999999999996,3564.2,-120.9,1408.9,2025-01-29 10:38:11,1
-1892.0,538.0,1578.3999999999996,3778.2,-551.9,1679.9,2025-01-29 10:38:11,1
-1592.0,630.0,1770.3999999999996,4093.2,-841.9,1918.9,2025-01-29 10:38:11,1
-1120.0,690.0,1106.3999999999996,4375.2,-767.9,2231.9,2025-01-29 10:38:11,1
-212.0,566.0,6.399999999999636,4401.2,-212.9,2291.9,2025-01-29 10:38:11,1
-72.0,602.0,-745.6000000000004,4419.2,776.1,2093.9,2025-01-29 10:38:11,1
-608.0,710.0,-2105.6000000000004,4252.2,1652.1,2027.9,2025-01-29 10:38:11,1
-1464.0,1018.0,-3145.6000000000004,3799.2,2221.1,2208.9,2025-01-29 10:38:11,1
-2356.0,1718.0,-4077.6,2778.2,2152.1,2331.9,2025-01-29 10:38:11,1
-2024.0,1338.0,-3785.6,2003.2,1101.1,1697.9,2025-01-29 10:38:11,1
-1476.0,1078.0,-2697.6000000000004,2363.2,-2409.9,117.9,2025-01-29 10:38:11,1
-784.0,894.0,-2049.6000000000004,2513.2,-5798.9,-368.1,2025-01-29 10:38:11,1
1912.0,598.0,-129.60000000000036,2614.2,-7187.9,-478.1,2025-01-29 10:38:11,1
4272.0,-530.0,1042.3999999999996,2884.2,-6618.9,-872.1,2025-01-29 10:38:11,1
5636.0,-2002.0,2258.4,3119.2,-4388.9,-1389.1,2025-01-29 10:38:11,1
5160.0,-3418.0,2362.4,3016.2,-243.9,-1474.1,2025-01-29 10:38:11,1
4076.0,-4230.0,1638.3999999999996,2780.2,4284.1,-1033.1,2025-01-29 10:38:11,1
2432.0,-3826.0,454.3999999999997,2511.2,7883.1,-735.1,2025-01-29 10:38:11,1
108.0,-2750.0,-441.6000000000004,2324.2,8876.1,-1616.1,2025-01-29 10:38:11,1
-2824.0,-1718.0,-1421.6000000000004,2306.2,7933.1,-2136.1,2025-01-29 10:38:11,1
-4324.0,-1326.0,-1641.6000000000004,2129.2,4442.1,-1979.1,2025-01-29 10:38:11,1
-4236.0,-1622.0,-1089.6000000000004,1944.2,-663.9,-1280.1,2025-01-29 10:38:11,1
-1836.0,-2118.0,-925.6000000000004,1676.2,-2975.9,-810.1,2025-01-29 10:38:11,1
852.0,-2686.0,-61.60000000000037,1335.2,-3386.9,-637.1,2025-01-29 10:38:11,1
2572.0,-3154.0,434.3999999999997,1295.2,-2083.9,-496.1,2025-01-29 10:38:11,1
3744.0,-3586.0,450.3999999999997,1470.2,326.1,-452.1,2025-01-29 10:38:11,1
4200.0,-3998.0,334.39999999999964,1628.2,3023.1,-581.1,2025-01-29 10:38:11,1
2848.0,-4002.0,518.3999999999996,1773.2,5449.1,-898.1,2025-01-29 10:38:11,1
772.0,-3542.0,770.3999999999996,1844.2,6325.1,-1095.1,2025-01-29 10:38:11,1
-1232.0,-2782.0,246.39999999999964,1862.2,5888.1,-1382.1,2025-01-29 10:38:11,1
-3028.0,-1958.0,-373.6000000000004,1783.2,4085.1,-1438.1,2025-01-29 10:38:11,1
-3924.0,-1378.0,-477.6000000000004,1404.2,1141.1,-959.1,2025-01-29 10:38:11,1
-3136.0,-1054.0,-489.6000000000004,888.2,-1557.9,-176.1,2025-01-29 10:38:11,1
-1192.0,-894.0,-285.6000000000004,159.2,-2895.9,180.9,2025-01-29 10:38:11,1
668.0,-1306.0,246.39999999999964,-755.8,-2920.9,485.9,2025-01-29 10:38:11,1
1896.0,-2350.0,818.3999999999996,-1117.8,-1699.9,712.9,2025-01-29 10:38:11,1
1312.0,-1314.0,-673.6000000000004,-770.8,1160.1,597.9,2025-01-29 10:38:12,1
564.0,-910.0,-861.6000000000004,-783.8,1328.1,477.9,2025-01-29 10:38:12,1
92.0,-478.0,-585.6000000000004,-723.8,982.1,456.9,2025-01-29 10:38:12,1
-204.0,-110.0,-969.6000000000004,-812.8,307.1,453.9,2025-01-29 10:38:12,1
188.0,138.0,-841.6000000000004,-908.8,-401.9,375.9,2025-01-29 10:38:12,1
684.0,-242.0,-985.6000000000004,-1096.8,-640.9,220.9,2025-01-29 10:38:12,1
1052.0,-730.0,-445.6000000000004,-1187.8,-360.9,68.9,2025-01-29 10:38:12,1
1172.0,-890.0,-453.6000000000004,-1104.8,248.1,-146.1,2025-01-29 10:38:12,1
1200.0,-954.0,-929.6000000000004,-1071.8,792.1,-244.1,2025-01-29 10:38:12,1
676.0,-742.0,-917.6000000000004,-1025.8,1014.1,-167.1,2025-01-29 10:38:12,1
500.0,-438.0,-1145.6000000000004,-1076.8,1034.1,-56.1,2025-01-29 10:38:12,1
272.0,-342.0,-1249.6000000000004,-1195.8,831.1,-29.099999999999994,2025-01-29 10:38:12,1
436.0,-630.0,-1417.6000000000004,-1193.8,558.1,-145.1,2025-01-29 10:38:12,1
328.0,-1050.0,-1217.6000000000004,-1080.8,287.1,-312.1,2025-01-29 10:38:12,1
344.0,-1034.0,-985.6000000000004,-908.8,59.1,-412.1,2025-01-29 10:38:12,1
412.0,-758.0,-693.6000000000004,-869.8,-213.9,-463.1,2025-01-29 10:38:12,1
484.0,-354.0,-597.6000000000004,-858.8,-240.9,-394.1,2025-01-29 10:38:12,1
980.0,-206.0,-401.6000000000004,-828.8,18.099999999999994,-422.1,2025-01-29 10:38:12,1
820.0,-606.0,-745.6000000000004,-863.8,329.1,-505.1,2025-01-29 10:38:12,1
560.0,-882.0,-357.6000000000004,-808.8,622.1,-475.1,2025-01-29 10:38:12,1
436.0,-1042.0,-197.6000000000004,-545.8,743.1,-459.1,2025-01-29 10:38:12,1
104.0,-850.0,-561.6000000000004,-464.8,800.1,-404.1,2025-01-29 10:38:12,1
12.0,-638.0,-441.6000000000004,-415.8,612.1,-354.1,2025-01-29 10:38:12,1
180.0,-406.0,-405.6000000000004,-290.8,373.1,-220.1,2025-01-29 10:38:12,1
444.0,-370.0,-473.6000000000004,-202.8,389.1,-143.1,2025-01-29 10:38:12,1
596.0,-630.0,-409.6000000000004,-111.8,532.1,-102.1,2025-01-29 10:38:12,1
568.0,-786.0,-693.6000000000004,-28.8,713.1,-92.1,2025-01-29 10:38:12,0.0
328.0,-666.0,-957.6000000000004,-47.8,819.1,-133.1,2025-01-29 10:38:12,0.0
48.0,-486.0,-797.6000000000004,-106.8,754.1,-129.1,2025-01-29 10:38:12,3
-212.0,-398.0,-557.6000000000004,-101.8,526.1,-77.1,2025-01-29 10:38:12,3
-160.0,-370.0,-441.6000000000004,-183.8,298.1,8.900000000000006,2025-01-29 10:38:12,3
-40.0,-262.0,-441.6000000000004,-248.8,164.1,82.9,2025-01-29 10:38:12,3
248.0,-310.0,-453.6000000000004,-412.8,243.1,10.900000000000006,2025-01-29 10:38:12,3
396.0,-642.0,-521.6000000000004,-403.8,476.1,-125.1,2025-01-29 10:38:12,3
124.0,-906.0,-201.6000000000004,-224.8,562.1,-118.1,2025-01-29 10:38:12,3
236.0,-970.0,-581.6000000000004,-94.8,480.1,-59.1,2025-01-29 10:38:12,3
284.0,-786.0,-333.6000000000004,42.2,463.1,-37.1,2025-01-29 10:38:12,3
472.0,-898.0,-397.6000000000004,172.2,496.1,20.90000000000001,2025-01-29 10:38:12,3
348.0,-918.0,-497.6000000000004,368.2,626.1,72.9,2025-01-29 10:38:12,3
212.0,-938.0,-537.6000000000004,396.2,681.1,60.900000000000006,2025-01-29 10:38:12,3
24.0,-978.0,-413.6000000000004,504.2,617.1,115.9,2025-01-29 10:38:12,3
32.0,-694.0,-629.6000000000004,556.2,339.1,193.9,2025-01-29 10:38:12,3
208.0,-410.0,-833.6000000000004,402.2,89.1,138.9,2025-01-29 10:38:12,3
252.0,-502.0,-317.6000000000004,326.2,-23.90000000000001,133.9,2025-01-29 10:38:12,3
368.0,-586.0,-393.6000000000004,376.2,75.1,74.9,2025-01-29 10:38:12,3
492.0,-798.0,-649.6000000000004,297.2,246.1,94.9,2025-01-29 10:38:12,3
584.0,-878.0,-681.6000000000004,284.2,408.1,46.900000000000006,2025-01-29 10:38:12,3
444.0,-1066.0,-697.6000000000004,234.2,540.1,8.900000000000006,2025-01-29 10:38:12,3
248.0,-950.0,-681.6000000000004,189.2,500.1,-19.099999999999994,2025-01-29 10:38:12,3
360.0,-854.0,-461.6000000000004,119.2,321.1,-57.1,2025-01-29 10:38:12,3
428.0,-758.0,-641.6000000000004,139.2,173.1,-163.1,2025-01-29 10:38:12,3
792.0,-742.0,-773.6000000000004,72.2,273.1,-270.1,2025-01-29 10:38:12,3
712.0,-810.0,-1081.6000000000004,20.200000000000003,535.1,-371.1,2025-01-29 10:38:12,3
796.0,-914.0,-1085.6000000000004,-102.8,781.1,-431.1,2025-01-29 10:38:12,3
580.0,-994.0,-1145.6000000000004,-210.8,799.1,-432.1,2025-01-29 10:38:12,3
436.0,-1114.0,-1625.6000000000004,-354.8,687.1,-385.1,2025-01-29 10:38:12,3
508.0,-1134.0,-1853.6000000000004,-595.8,524.1,-227.1,2025-01-29 10:38:12,3
808.0,-898.0,-1761.6000000000004,-741.8,484.1,-147.1,2025-01-29 10:38:12,3
992.0,-670.0,-1749.6000000000004,-748.8,582.1,-186.1,2025-01-29 10:38:12,3
1024.0,-510.0,-1997.6000000000004,-759.8,739.1,-274.1,2025-01-29 10:38:12,3
776.0,-786.0,-2641.6000000000004,-814.8,922.1,-213.1,2025-01-29 10:38:12,3
696.0,-1170.0,-3405.6000000000004,-1020.8,1021.1,126.9,2025-01-29 10:38:13,3
1184.0,-774.0,-2913.6000000000004,-1406.8,289.1,567.9,2025-01-29 10:38:13,3
2420.0,-598.0,-2425.6000000000004,-1618.8,-726.9,475.9,2025-01-29 10:38:13,3
2880.0,-890.0,-1701.6000000000004,-1927.8,-889.9,419.9,2025-01-29 10:38:13,3
3620.0,-910.0,-829.6000000000004,-2113.8,-684.9,452.9,2025-01-29 10:38:13,3
4820.0,-438.0,154.39999999999964,-2043.8,-936.9,491.9,2025-01-29 10:38:13,3
6060.0,-298.0,782.3999999999996,-1817.8,-1185.9,248.9,2025-01-29 10:38:13,3
7172.0,-374.0,1322.3999999999996,-1761.8,-1115.9,-164.1,2025-01-29 10:38:13,3
7692.0,-774.0,2466.4,-1557.8,-565.9,-424.1,2025-01-29 10:38:13,3
6564.0,-2074.0,7394.4,197.2,6134.1,-856.1,2025-01-29 10:38:13,3
5596.0,-1858.0,5014.4,1717.2,6068.1,-1697.1,2025-01-29 10:38:13,3
3708.0,-1362.0,3574.4,2171.2,5312.1,-930.1,2025-01-29 10:38:13,3
2740.0,-1102.0,2886.4,2532.2,4669.1,847.9,2025-01-29 10:38:13,3
2416.0,-1094.0,1926.4,1881.2,3829.1,2557.9,2025-01-29 10:38:13,3
3060.0,-1074.0,1910.4,1507.2,3091.1,2421.9,2025-01-29 10:38:13,3
3192.0,-846.0,1150.3999999999996,1571.2,2714.1,1756.9,2025-01-29 10:38:13,3
2780.0,170.0,606.3999999999996,1457.2,180.1,1444.9,2025-01-29 10:38:13,3
1552.0,1182.0,1038.3999999999996,1197.2,-3058.9,2800.9,2025-01-29 10:38:13,3
2556.0,1254.0,470.3999999999997,487.2,-3796.9,4061.9,2025-01-29 10:38:13,3
4344.0,658.0,926.3999999999996,-305.8,-3496.9,4228.9,2025-01-29 10:38:13,3
5648.0,-234.0,1782.3999999999996,-296.8,-2607.9,3010.9,2025-01-29 10:38:13,3
4480.0,-534.0,1802.4,-93.8,-1043.9,1377.9,2025-01-29 10:38:13,3
2024.0,-74.0,874.3999999999996,-57.8,-224.9,410.9,2025-01-29 10:38:13,3
-484.0,974.0,-401.6000000000004,-575.8,-1124.9,364.9,2025-01-29 10:38:13,3
-988.0,1330.0,-1897.6000000000004,-1111.8,-3649.9,709.9,2025-01-29 10:38:13,3
-1392.0,870.0,-2657.6000000000004,-1682.8,-6419.9,1106.9,2025-01-29 10:38:13,3
-760.0,-22.0,-2069.6000000000004,-2384.8,-8144.9,1469.9,2025-01-29 10:38:13,3
748.0,-338.0,-597.6000000000004,-1862.8,-9347.9,842.9,2025-01-29 10:38:13,3
848.0,-66.0,14.399999999999636,-1628.8,-8448.9,-69.1,2025-01-29 10:38:13,3
768.0,1354.0,1842.4,-1788.8,-7540.9,-776.1,2025-01-29 10:38:13,3
-912.0,1534.0,1246.3999999999996,-1643.8,-5653.9,-811.1,2025-01-29 10:38:13,3
-1328.0,1154.0,290.39999999999964,-2054.8,-2757.9,-57.1,2025-01-29 10:38:13,3
-412.0,166.0,-545.6000000000004,-2591.8,-1830.9,416.9,2025-01-29 10:38:13,3
-3092.0,-1310.0,-1261.6000000000004,-1853.8,-2208.9,22.90000000000001,2025-01-29 10:38:13,3
-4568.0,-746.0,-1789.6000000000004,-1552.8,-2417.9,-191.1,2025-01-29 10:38:13,3
-5784.0,-6.0,-1945.6000000000004,-1657.8,-3951.9,-71.1,2025-01-29 10:38:13,3
-4820.0,1214.0,-1041.6000000000004,-1037.8,-5777.9,-689.1,2025-01-29 10:38:13,3
-4348.0,374.0,-873.6000000000004,-796.8,-6888.9,-799.1,2025-01-29 10:38:13,3
-4728.0,326.0,-1357.6000000000004,-733.8,-6547.9,-1038.1,2025-01-29 10:38:13,3
-5648.0,1254.0,-1853.6000000000004,-1232.8,-5799.9,-949.1,2025-01-29 10:38:13,3
-6272.0,-778.0,170.39999999999964,-950.8,-10015.9,689.9,2025-01-29 10:38:13,3
-2328.0,1526.0,1034.3999999999996,-1115.8,-10680.9,-687.1,2025-01-29 10:38:13,3
-3224.0,2166.0,2514.4,-717.8,-11348.9,-1461.1,2025-01-29 10:38:13,3
-5012.0,1598.0,2042.4,-730.8,-8485.9,-863.1,2025-01-29 10:38:13,3
-4440.0,1558.0,1438.3999999999996,-1431.8,-6867.9,-732.1,2025-01-29 10:38:13,3
-7552.0,330.0,3114.4,-1353.8,-5126.9,-1026.1,2025-01-29 10:38:13,3
-6964.0,-1286.0,2030.4,-1074.8,-4404.9,-814.1,2025-01-29 10:38:13,3
-9104.0,-926.0,1306.3999999999996,-792.8,-2294.9,-29.099999999999994,2025-01-29 10:38:13,3
-9684.0,-138.0,1166.3999999999996,-625.8,-2730.9,282.9,2025-01-29 10:38:13,3
-8020.0,1146.0,62.39999999999964,-458.8,-4361.9,396.9,2025-01-29 10:38:13,3
-7516.0,2206.0,194.39999999999964,-633.8,-2842.9,789.9,2025-01-29 10:38:13,3
-5800.0,2554.0,1886.4,-979.8,-1595.9,845.9,2025-01-29 10:38:13,3
-4660.0,2086.0,3494.4,-1070.8,195.1,620.9,2025-01-29 10:38:13,3
-3236.0,1074.0,3762.4,-1175.8,2088.1,-24.099999999999994,2025-01-29 10:38:13,3
-3060.0,146.0,3678.4,-1083.8,3708.1,-599.1,2025-01-29 10:38:13,3
-2900.0,98.0,3354.4,-934.8,3655.1,-787.1,2025-01-29 10:38:13,3
-2928.0,522.0,2642.4,-935.8,2845.1,-534.1,2025-01-29 10:38:13,3
-1968.0,1114.0,2862.4,-1143.8,1716.1,-273.1,2025-01-29 10:38:13,3
-972.0,1098.0,3554.4,-1270.8,1306.1,-255.1,2025-01-29 10:38:14,3
-676.0,346.0,4126.4,-1326.8,1221.1,-97.1,2025-01-29 10:38:14,3
-568.0,-490.0,4302.4,-1061.8,906.1,440.9,2025-01-29 10:38:14,3
160.0,-334.0,4542.4,-688.8,886.1,643.9,2025-01-29 10:38:14,3
344.0,190.0,4258.4,-466.8,1015.1,443.9,2025-01-29 10:38:14,3
-48.0,146.0,4102.4,-317.8,952.1,208.9,2025-01-29 10:38:14,3
-172.0,146.0,4262.4,-265.8,329.1,-73.1,2025-01-29 10:38:14,3
-336.0,526.0,3762.4,-310.8,-342.9,-207.1,2025-01-29 10:38:14,3
-224.0,474.0,4278.4,-393.8,-637.9,-125.1,2025-01-29 10:38:14,3
128.0,-410.0,4234.4,-395.8,-1166.9,-215.1,2025-01-29 10:38:14,3
-52.0,50.0,4158.4,-384.8,-515.9,-158.1,2025-01-29 10:38:14,3
-72.0,98.0,4038.4,-288.8,-21.90000000000001,-218.1,2025-01-29 10:38:14,3
-316.0,230.0,3878.4,-293.8,-18.90000000000001,-343.1,2025-01-29 10:38:14,3
-468.0,542.0,3866.4,-318.8,-96.9,-481.1,2025-01-29 10:38:14,3
-852.0,94.0,4042.4,-293.8,71.1,-459.1,2025-01-29 10:38:14,3
-1312.0,-262.0,3934.4,-203.8,199.1,-240.1,2025-01-29 10:38:14,3
-1268.0,54.0,3542.4,-35.8,305.1,-91.1,2025-01-29 10:38:14,3
-1276.0,502.0,3082.4,-15.799999999999995,481.1,-83.1,2025-01-29 10:38:14,3
-1424.0,434.0,3154.4,-45.8,529.1,-276.1,2025-01-29 10:38:14,3
-1488.0,382.0,3550.4,-31.8,230.1,-559.1,2025-01-29 10:38:14,3
-1576.0,346.0,3418.4,-10.799999999999995,189.1,-865.1,2025-01-29 10:38:14,3
-2052.0,82.0,3726.4,-141.8,261.1,-1013.1,2025-01-29 10:38:14,3
-2264.0,-14.0,3574.4,-166.8,-13.900000000000006,-935.1,2025-01-29 10:38:14,3
-2640.0,-278.0,3930.4,-54.8,-688.9,-731.1,2025-01-29 10:38:14,3
-2712.0,-530.0,3938.4,199.2,-1069.9,-371.1,2025-01-29 10:38:14,3
-2556.0,-118.0,3438.4,377.2,-1466.9,44.900000000000006,2025-01-29 10:38:14,3
-2224.0,410.0,3386.4,407.2,-1375.9,371.9,2025-01-29 10:38:14,3
-1892.0,750.0,3738.4,334.2,-1020.9,434.9,2025-01-29 10:38:14,3
-1604.0,1118.0,3878.4,330.2,-569.9,140.9,2025-01-29 10:38:14,3
-1748.0,1330.0,3954.4,294.2,-315.9,-137.1,2025-01-29 10:38:14,3
-2152.0,1114.0,4622.4,312.2,-41.900000000000006,-326.1,2025-01-29 10:38:14,3
-2388.0,554.0,4438.4,424.2,176.1,-463.1,2025-01-29 10:38:14,3
-2692.0,-62.0,4410.4,561.2,-149.9,-520.1,2025-01-29 10:38:14,3
-2636.0,-114.0,4574.4,752.2,-412.9,-425.1,2025-01-29 10:38:14,3
-2540.0,-130.0,4450.4,976.2,-400.9,-186.1,2025-01-29 10:38:14,3
-2564.0,270.0,4422.4,1083.2,-345.9,57.900000000000006,2025-01-29 10:38:14,3
-2648.0,642.0,4370.4,1035.2,-420.9,359.9,2025-01-29 10:38:14,3
-1992.0,722.0,4310.4,929.2,-579.9,538.9,2025-01-29 10:38:14,3
-1564.0,486.0,4138.4,919.2,-422.9,578.9,2025-01-29 10:38:14,3
-1468.0,726.0,3966.4,869.2,-158.9,498.9,2025-01-29 10:38:14,3
-1428.0,938.0,3470.4,751.2,-213.9,297.9,2025-01-29 10:38:14,3
-1368.0,894.0,3158.4,561.2,-384.9,104.9,2025-01-29 10:38:14,3
-1504.0,498.0,3790.4,533.2,-424.9,-106.1,2025-01-29 10:38:14,3
-1692.0,-34.0,4018.4,634.2,-213.9,-128.1,2025-01-29 10:38:14,3
-2244.0,-426.0,4534.4,860.2,-21.90000000000001,-108.1,2025-01-29 10:38:14,3
-2096.0,-86.0,4150.4,975.2,86.1,-110.1,2025-01-29 10:38:14,3
-2004.0,394.0,3774.4,1022.2,-29.90000000000001,-118.1,2025-01-29 10:38:14,3
-2192.0,706.0,3778.4,924.2,-196.9,-198.1,2025-01-29 10:38:14,3
-2240.0,746.0,3570.4,839.2,-183.9,-210.1,2025-01-29 10:38:14,3
-2348.0,378.0,3754.4,678.2,-84.9,-108.1,2025-01-29 10:38:14,3
-2244.0,-30.0,3442.4,474.2,-40.900000000000006,-44.1,2025-01-29 10:38:14,3
-1960.0,-186.0,3854.4,573.2,-27.90000000000001,77.9,2025-01-29 10:38:14,3
-1976.0,-114.0,3678.4,551.2,-73.9,85.9,2025-01-29 10:38:14,3
-1988.0,186.0,3846.4,466.2,7.099999999999994,19.90000000000001,2025-01-29 10:38:14,3
-2044.0,398.0,3402.4,329.2,112.1,-46.1,2025-01-29 10:38:14,3
-2092.0,438.0,3438.4,121.2,111.1,-56.1,2025-01-29 10:38:14,3
-2160.0,238.0,3662.4,-62.8,-8.900000000000006,-82.1,2025-01-29 10:38:14,3
-2060.0,-54.0,3814.4,-151.8,-52.900000000000006,-124.1,2025-01-29 10:38:14,3
-1840.0,-418.0,3910.4,-104.8,59.1,-149.1,2025-01-29 10:38:14,3
-1808.0,-262.0,3978.4,-69.8,39.1,-150.1,2025-01-29 10:38:14,3
-1800.0,74.0,3886.4,-50.8,56.1,-177.1,2025-01-29 10:38:14,3
-1776.0,226.0,3654.4,-80.8,85.1,-190.1,2025-01-29 10:38:14,3
-1916.0,-102.0,3662.4,-103.8,20.099999999999994,-191.1,2025-01-29 10:38:15,3
-1772.0,-22.0,3706.4,-201.8,-21.90000000000001,-134.1,2025-01-29 10:38:15,3
-1548.0,358.0,3918.4,-334.8,231.1,-157.1,2025-01-29 10:38:15,3
-1556.0,466.0,3894.4,-502.8,434.1,-155.1,2025-01-29 10:38:15,3
-1756.0,102.0,3882.4,-523.8,590.1,-17.099999999999994,2025-01-29 10:38:15,3
-1824.0,-138.0,3770.4,-519.8,388.1,98.9,2025-01-29 10:38:15,3
-1760.0,90.0,3806.4,-517.8,19.099999999999994,108.9,2025-01-29 10:38:15,3
-1796.0,246.0,3866.4,-515.8,-92.9,69.9,2025-01-29 10:38:15,3
-1744.0,250.0,3730.4,-502.8,-201.9,38.900000000000006,2025-01-29 10:38:15,3
-1728.0,142.0,4186.4,-510.8,-268.9,3.9000000000000057,2025-01-29 10:38:15,3
-1692.0,58.0,4182.4,-448.8,-9.900000000000006,-62.1,2025-01-29 10:38:15,3
-1724.0,26.0,4114.4,-467.8,232.1,-145.1,2025-01-29 10:38:15,3
-1984.0,90.0,3898.4,-515.8,277.1,-190.1,2025-01-29 10:38:15,3
-2044.0,386.0,3926.4,-604.8,206.1,-206.1,2025-01-29 10:38:15,3
-2156.0,382.0,3846.4,-647.8,82.1,-170.1,2025-01-29 10:38:15,3
-2232.0,154.0,3926.4,-692.8,-121.9,-20.099999999999994,2025-01-29 10:38:15,3
-2092.0,214.0,3914.4,-643.8,-279.9,93.9,2025-01-29 10:38:15,3
-1920.0,386.0,3898.4,-599.8,-253.9,70.9,2025-01-29 10:38:15,3
-1712.0,354.0,3934.4,-595.8,-140.9,14.900000000000006,2025-01-29 10:38:15,3
-1660.0,454.0,3958.4,-608.8,58.1,-75.1,2025-01-29 10:38:15,3
-1676.0,458.0,4026.4,-588.8,198.1,-204.1,2025-01-29 10:38:15,3
-2000.0,438.0,4042.4,-608.8,299.1,-177.1,2025-01-29 10:38:15,3
-2012.0,274.0,3806.4,-621.8,359.1,-147.1,2025-01-29 10:38:15,3
-2120.0,-54.0,3842.4,-560.8,247.1,-86.1,2025-01-29 10:38:15,3
-2188.0,-70.0,3810.4,-420.8,18.099999999999994,-33.099999999999994,2025-01-29 10:38:15,3
-2200.0,14.0,3766.4,-313.8,-285.9,-6.099999999999994,2025-01-29 10:38:15,3
-2128.0,414.0,4070.4,-309.8,-391.9,-24.099999999999994,2025-01-29 10:38:15,3
-1980.0,366.0,4174.4,-233.8,-353.9,-80.1,2025-01-29 10:38:15,3
-1960.0,418.0,4174.4,-221.8,-158.9,-97.1,2025-01-29 10:38:15,3
-1808.0,386.0,4318.4,-163.8,19.099999999999994,-123.1,2025-01-29 10:38:15,3
-1784.0,306.0,3882.4,-160.8,114.1,-140.1,2025-01-29 10:38:15,3
-1700.0,498.0,3958.4,-150.8,261.1,-243.1,2025-01-29 10:38:15,3
-1768.0,430.0,3866.4,-180.8,162.1,-279.1,2025-01-29 10:38:15,3
-1844.0,242.0,3858.4,-138.8,-44.900000000000006,-208.1,2025-01-29 10:38:15,3
-2012.0,26.0,3974.4,-117.8,-0.9000000000000057,-43.1,2025-01-29 10:38:15,3
-2304.0,-150.0,4026.4,-17.799999999999997,31.099999999999994,171.9,2025-01-29 10:38:15,3
-2344.0,-198.0,4062.4,114.2,-111.9,311.9,2025-01-29 10:38:15,3
-2060.0,318.0,3930.4,96.2,-191.9,343.9,2025-01-29 10:38:15,3
-1784.0,942.0,3610.4,21.200000000000003,-140.9,219.9,2025-01-29 10:38:15,3
-1744.0,1122.0,3734.4,-144.8,-208.9,68.9,2025-01-29 10:38:15,3
-1796.0,682.0,3902.4,-301.8,-275.9,18.90000000000001,2025-01-29 10:38:15,3
-1732.0,50.0,4142.4,-276.8,-252.9,-9.099999999999994,2025-01-29 10:38:15,3
-1456.0,-130.0,4278.4,-118.8,-113.9,-38.1,2025-01-29 10:38:15,3
-1368.0,-22.0,4274.4,-55.8,44.1,-161.1,2025-01-29 10:38:15,3
-1428.0,234.0,4066.4,-83.8,144.1,-344.1,2025-01-29 10:38:15,3
-1888.0,150.0,4006.4,-140.8,86.1,-383.1,2025-01-29 10:38:15,3
-2080.0,18.0,4046.4,-109.8,-36.900000000000006,-252.1,2025-01-29 10:38:15,3
-1928.0,150.0,4174.4,-173.8,-150.9,-64.1,2025-01-29 10:38:15,3
-1920.0,270.0,3994.4,-170.8,-222.9,-8.099999999999994,2025-01-29 10:38:15,3
-1676.0,302.0,3826.4,-186.8,-313.9,48.900000000000006,2025-01-29 10:38:15,3
-1328.0,242.0,4138.4,-168.8,-338.9,-3.0999999999999943,2025-01-29 10:38:15,3
-1184.0,270.0,4018.4,-162.8,-202.9,-45.1,2025-01-29 10:38:15,3
-1396.0,458.0,3902.4,-174.8,73.1,-53.1,2025-01-29 10:38:15,3
-1480.0,410.0,3846.4,-226.8,243.1,-151.1,2025-01-29 10:38:15,3
-1972.0,134.0,3750.4,-199.8,247.1,-156.1,2025-01-29 10:38:15,3
-2444.0,142.0,3918.4,-196.8,37.1,-93.1,2025-01-29 10:38:15,3
-2660.0,230.0,3942.4,-189.8,-463.9,-32.099999999999994,2025-01-29 10:38:15,3
-2536.0,114.0,4154.4,-157.8,-803.9,66.9,2025-01-29 10:38:15,3
-2320.0,222.0,4466.4,-140.8,-625.9,68.9,2025-01-29 10:38:15,3
-2256.0,394.0,4726.4,-82.8,-191.9,-33.099999999999994,2025-01-29 10:38:16,3
-2400.0,346.0,4478.4,-62.8,552.1,-223.1,2025-01-29 10:38:16,3
-2960.0,514.0,4090.4,-122.8,1440.1,-259.1,2025-01-29 10:38:16,3
-3680.0,294.0,3718.4,-65.8,2073.1,-263.1,2025-01-29 10:38:16,3
-4304.0,142.0,3730.4,72.2,2441.1,-372.1,2025-01-29 10:38:16,3
-5484.0,42.0,3194.4,155.2,2514.1,-274.1,2025-01-29 10:38:16,3
-6376.0,126.0,2882.4,259.2,2740.1,-220.1,2025-01-29 10:38:16,3
-7588.0,-30.0,2278.4,283.2,3606.1,198.9,2025-01-29 10:38:16,3
-8236.0,82.0,2494.4,326.2,4261.1,334.9,2025-01-29 10:38:16,3
-8140.0,210.0,1614.3999999999996,486.2,4648.1,124.9,2025-01-29 10:38:16,3
-8268.0,542.0,718.3999999999996,660.2,5176.1,94.9,2025-01-29 10:38:16,3
-8840.0,630.0,590.3999999999996,668.2,5611.1,116.9,2025-01-29 10:38:16,3
-8340.0,726.0,130.39999999999964,594.2,5842.1,188.9,2025-01-29 10:38:16,3
-7644.0,570.0,186.39999999999964,616.2,5994.1,361.9,2025-01-29 10:38:16,3
-6856.0,426.0,150.39999999999964,601.2,6171.1,478.9,2025-01-29 10:38:16,3
-6180.0,682.0,-21.600000000000364,507.2,6450.1,376.9,2025-01-29 10:38:16,3
-5052.0,858.0,106.39999999999964,446.2,6712.1,506.9,2025-01-29 10:38:16,3
-4284.0,546.0,626.3999999999996,626.2,6921.1,481.9,2025-01-29 10:38:16,3
-3288.0,-78.0,782.3999999999996,808.2,7562.1,466.9,2025-01-29 10:38:16,3
-3120.0,146.0,750.3999999999996,885.2,8205.1,432.9,2025-01-29 10:38:16,3
-2384.0,178.0,382.3999999999997,986.2,7805.1,281.9,2025-01-29 10:38:16,3
-3344.0,86.0,602.3999999999996,959.2,7812.1,207.9,2025-01-29 10:38:16,3
-2660.0,370.0,426.3999999999997,792.2,7192.1,244.9,2025-01-29 10:38:16,3
-2436.0,598.0,258.39999999999964,593.2,6608.1,182.9,2025-01-29 10:38:16,3
-2224.0,654.0,-33.600000000000364,663.2,6844.1,-114.1,2025-01-29 10:38:16,3
-2260.0,634.0,-309.6000000000004,614.2,7037.1,-317.1,2025-01-29 10:38:16,3
-1848.0,474.0,-941.6000000000004,342.2,6565.1,-453.1,2025-01-29 10:38:16,3
-1804.0,478.0,-1165.6000000000004,184.2,6171.1,-540.1,2025-01-29 10:38:16,3
-1580.0,422.0,-1725.6000000000004,-92.8,5513.1,-298.1,2025-01-29 10:38:16,3
-1248.0,322.0,-1645.6000000000004,-538.8,5215.1,-241.1,2025-01-29 10:38:16,3
-944.0,294.0,-1189.6000000000004,-575.8,4754.1,-748.1,2025-01-29 10:38:16,3
-1292.0,678.0,-1405.6000000000004,-570.8,3006.1,-1024.1,2025-01-29 10:38:16,3
-1956.0,1174.0,-1657.6000000000004,-751.8,1439.1,-455.1,2025-01-29 10:38:16,3
-1208.0,1282.0,-1273.6000000000004,-1251.8,-674.9,185.9,2025-01-29 10:38:16,3
192.0,1046.0,-441.6000000000004,-1415.8,-2365.9,16.900000000000006,2025-01-29 10:38:16,3
1608.0,318.0,1294.3999999999996,-969.8,-4185.9,-587.1,2025-01-29 10:38:16,3
1944.0,-394.0,1746.3999999999996,-536.8,-5510.9,-689.1,2025-01-29 10:38:16,3
2408.0,-602.0,2602.4,-230.8,-6572.9,-455.1,2025-01-29 10:38:16,3
2904.0,-218.0,2902.4,-10.799999999999995,-7202.9,-147.1,2025-01-29 10:38:16,3
4184.0,78.0,2954.4,88.2,-6974.9,251.9,2025-01-29 10:38:16,3
5360.0,310.0,3102.4,-40.8,-7449.9,663.9,2025-01-29 10:38:16,3
6596.0,214.0,3422.4,-178.8,-8056.9,946.9,2025-01-29 10:38:16,3
7316.0,-646.0,4022.4,-215.8,-8592.9,1065.9,2025-01-29 10:38:16,3
7612.0,-1342.0,5430.4,190.2,-8462.9,851.9,2025-01-29 10:38:16,3
7280.0,-1706.0,6442.4,990.2,-6587.9,293.9,2025-01-29 10:38:16,3
7260.0,-1174.0,6270.4,1657.2,-3554.9,-625.1,2025-01-29 10:38:16,3
7368.0,474.0,5406.4,1646.2,-1232.9,-1430.1,2025-01-29 10:38:16,3
6916.0,1786.0,4462.4,1373.2,-1168.9,-1358.1,2025-01-29 10:38:16,3
6896.0,1874.0,3286.4,721.2,-1355.9,-984.1,2025-01-29 10:38:16,3
7180.0,1118.0,2414.4,-135.8,-1199.9,-740.1,2025-01-29 10:38:16,3
6768.0,238.0,2602.4,-869.8,453.1,-574.1,2025-01-29 10:38:16,3
5804.0,-430.0,3738.4,-562.8,3295.1,-539.1,2025-01-29 10:38:16,3
5068.0,-1246.0,3218.4,-427.8,5386.1,-709.1,2025-01-29 10:38:16,3
4144.0,-1978.0,2122.4,-461.8,5342.1,-1156.1,2025-01-29 10:38:16,3
2540.0,-2142.0,1294.3999999999996,214.2,5372.1,-1556.1,2025-01-29 10:38:16,3
616.0,-1386.0,54.39999999999964,1315.2,5926.1,-1632.1,2025-01-29 10:38:16,3
-1324.0,438.0,-2113.6000000000004,2051.2,6391.1,-1000.1,2025-01-29 10:38:16,3
-1764.0,1834.0,-4673.6,989.2,4538.1,-224.1,2025-01-29 10:38:16,3
-1184.0,2142.0,-5365.6,-721.8,1844.1,-321.1,2025-01-29 10:38:16,3
-1044.0,1930.0,-5253.6,-1859.8,401.1,-1396.1,2025-01-29 10:38:16,3
-1664.0,922.0,-4777.6,-2681.8,-165.9,-2559.1,2025-01-29 10:38:16,3
-2600.0,-302.0,-2845.6000000000004,-3180.8,-844.9,-2118.1,2025-01-29 10:38:16,3
-2040.0,-1926.0,626.3999999999996,-3007.8,-1850.9,-1182.1,2025-01-29 10:38:16,3
-912.0,-2538.0,2790.4,-2046.8,-2895.9,-685.1,2025-01-29 10:38:17,3
524.0,-2486.0,3014.4,-936.8,-3215.9,-525.1,2025-01-29 10:38:17,3
1284.0,-2042.0,2546.4,39.2,-2819.9,-257.1,2025-01-29 10:38:17,3
1760.0,-1042.0,1750.3999999999996,507.2,-1422.9,-10.099999999999994,2025-01-29 10:38:17,3
1956.0,-522.0,1078.3999999999996,371.2,902.1,-20.099999999999994,2025-01-29 10:38:17,3
848.0,-58.0,954.3999999999996,645.2,2841.1,72.9,2025-01-29 10:38:17,3
-316.0,198.0,314.39999999999964,597.2,3658.1,188.9,2025-01-29 10:38:17,3
-968.0,62.0,98.39999999999964,336.2,3476.1,123.9,2025-01-29 10:38:17,3
-1688.0,-258.0,-733.6000000000004,169.2,2073.1,-133.1,2025-01-29 10:38:17,3
-2312.0,-638.0,-861.6000000000004,140.2,-138.9,69.9,2025-01-29 10:38:17,3
-1836.0,-886.0,-305.6000000000004,271.2,-1491.9,563.9,2025-01-29 10:38:17,3
-596.0,-714.0,-5.600000000000364,606.2,-1672.9,616.9,2025-01-29 10:38:17,3
344.0,-614.0,-29.600000000000364,698.2,-1248.9,579.9,2025-01-29 10:38:17,3
584.0,-402.0,126.39999999999964,657.2,-345.9,681.9,2025-01-29 10:38:17,3
752.0,-218.0,738.3999999999996,771.2,603.1,572.9,2025-01-29 10:38:17,3
312.0,-50.0,518.3999999999996,839.2,980.1,319.9,2025-01-29 10:38:17,3
-256.0,118.0,530.3999999999996,854.2,568.1,226.9,2025-01-29 10:38:17,3
-532.0,374.0,614.3999999999996,808.2,-358.9,275.9,2025-01-29 10:38:17,3
-556.0,526.0,622.3999999999996,660.2,-828.9,404.9,2025-01-29 10:38:17,3
-116.0,258.0,710.3999999999996,533.2,-531.9,442.9,2025-01-29 10:38:17,3
-280.0,26.0,610.3999999999996,431.2,64.1,465.9,2025-01-29 10:38:17,3
-88.0,-42.0,-73.60000000000036,307.2,573.1,557.9,2025-01-29 10:38:17,3
180.0,-278.0,-265.6000000000004,152.2,838.1,442.9,2025-01-29 10:38:17,3
332.0,-182.0,58.39999999999964,220.2,593.1,223.9,2025-01-29 10:38:17,3
88.0,118.0,-157.60000000000036,181.2,211.1,76.9,2025-01-29 10:38:17,3
212.0,438.0,-149.60000000000036,56.2,189.1,21.90000000000001,2025-01-29 10:38:17,3
36.0,366.0,-37.60000000000037,-66.8,341.1,-21.099999999999994,2025-01-29 10:38:17,3
-260.0,182.0,-309.6000000000004,-171.8,635.1,-39.1,2025-01-29 10:38:17,3
-416.0,42.0,-241.6000000000004,-254.8,664.1,-61.1,2025-01-29 10:38:17,3
-716.0,46.0,-309.6000000000004,-413.8,325.1,-63.1,2025-01-29 10:38:17,3
-692.0,46.0,170.39999999999964,-572.8,-237.9,45.900000000000006,2025-01-29 10:38:17,3
-84.0,26.0,318.39999999999964,-635.8,-586.9,59.900000000000006,2025-01-29 10:38:17,3
328.0,-110.0,670.3999999999996,-577.8,-477.9,-67.1,2025-01-29 10:38:17,3
724.0,-190.0,766.3999999999996,-430.8,143.1,-161.1,2025-01-29 10:38:17,3
552.0,-338.0,542.3999999999996,-185.8,990.1,-250.1,2025-01-29 10:38:17,3
-76.0,-250.0,378.3999999999997,-6.799999999999997,1380.1,-309.1,2025-01-29 10:38:17,3
-444.0,-194.0,-5.600000000000364,-37.8,1213.1,-290.1,2025-01-29 10:38:17,3
-676.0,-230.0,-137.60000000000036,-49.8,747.1,-279.1,2025-01-29 10:38:17,3
-656.0,-350.0,-141.60000000000036,-150.8,67.1,-179.1,2025-01-29 10:38:17,3
-360.0,-402.0,150.39999999999964,-144.8,-154.9,-78.1,2025-01-29 10:38:17,3
-52.0,-302.0,66.39999999999964,-79.8,-5.900000000000006,-53.1,2025-01-29 10:38:17,3
112.0,-246.0,114.39999999999964,-64.8,364.1,-88.1,2025-01-29 10:38:17,3
-128.0,-10.0,114.39999999999964,-84.8,584.1,-113.1,2025-01-29 10:38:17,3
-272.0,-118.0,-21.600000000000364,-116.8,561.1,-164.1,2025-01-29 10:38:17,3
-580.0,-42.0,-145.60000000000036,-109.8,280.1,-125.1,2025-01-29 10:38:17,3
-612.0,-98.0,-121.60000000000036,-167.8,-133.9,-57.1,2025-01-29 10:38:17,3
-456.0,-238.0,94.39999999999964,-188.8,-415.9,-62.1,2025-01-29 10:38:17,3
-184.0,-290.0,242.39999999999964,-154.8,-508.9,-4.099999999999994,2025-01-29 10:38:17,3
48.0,-202.0,414.3999999999997,-73.8,-389.9,12.900000000000006,2025-01-29 10:38:17,3
176.0,-214.0,250.39999999999964,-18.8,-90.9,-15.099999999999994,2025-01-29 10:38:17,3
200.0,-118.0,258.39999999999964,-10.799999999999995,181.1,-4.099999999999994,2025-01-29 10:38:17,3
36.0,-34.0,210.39999999999964,4.200000000000003,440.1,-19.099999999999994,2025-01-29 10:38:17,3
-144.0,-50.0,218.39999999999964,-8.799999999999997,471.1,-24.099999999999994,2025-01-29 10:38:17,3
-384.0,58.0,314.39999999999964,15.200000000000005,338.1,-27.099999999999994,2025-01-29 10:38:17,3
-192.0,86.0,86.39999999999964,-39.8,101.1,-2.0999999999999943,2025-01-29 10:38:17,3
-176.0,282.0,-169.60000000000036,-126.8,-73.9,0.9000000000000057,2025-01-29 10:38:17,3
-188.0,506.0,-361.6000000000004,-300.8,-50.900000000000006,19.90000000000001,2025-01-29 10:38:17,3
96.0,410.0,10.399999999999636,-445.8,98.1,24.90000000000001,2025-01-29 10:38:17,3
-72.0,278.0,70.39999999999964,-526.8,190.1,-31.099999999999994,2025-01-29 10:38:17,3
-224.0,394.0,2.399999999999636,-480.8,302.1,24.90000000000001,2025-01-29 10:38:17,3
-112.0,414.0,-185.6000000000004,-485.8,187.1,-21.099999999999994,2025-01-29 10:38:17,3
-224.0,278.0,-209.6000000000004,-425.8,68.1,-47.1,2025-01-29 10:38:18,3
-116.0,394.0,82.39999999999964,-360.8,-5.900000000000006,-28.099999999999994,2025-01-29 10:38:18,3
-288.0,566.0,130.39999999999964,-396.8,-138.9,-28.099999999999994,2025-01-29 10:38:18,3
-196.0,634.0,126.39999999999964,-410.8,-237.9,-50.1,2025-01-29 10:38:18,7
-216.0,422.0,342.39999999999964,-471.8,-211.9,-31.099999999999994,2025-01-29 10:38:18,7
-104.0,526.0,418.3999999999997,-424.8,-278.9,-43.1,2025-01-29 10:38:18,7
76.0,842.0,446.3999999999997,-435.8,-247.9,-96.1,2025-01-29 10:38:18,7
-44.0,958.0,482.3999999999997,-493.8,-50.900000000000006,-168.1,2025-01-29 10:38:18,7
-116.0,942.0,298.39999999999964,-559.8,19.099999999999994,-299.1,2025-01-29 10:38:18,7
-172.0,1014.0,322.39999999999964,-672.8,47.1,-369.1,2025-01-29 10:38:18,7
-212.0,1102.0,274.39999999999964,-784.8,48.1,-400.1,2025-01-29 10:38:18,7
-180.0,1126.0,290.39999999999964,-945.8,2.0999999999999943,-482.1,2025-01-29 10:38:18,7
-180.0,1186.0,498.3999999999997,-1041.8,-6.900000000000006,-587.1,2025-01-29 10:38:18,7
-140.0,1314.0,278.39999999999964,-1207.8,-15.900000000000006,-681.1,2025-01-29 10:38:18,7
-48.0,1174.0,306.39999999999964,-1372.8,22.099999999999994,-842.1,2025-01-29 10:38:18,7
-52.0,1054.0,370.3999999999997,-1487.8,82.1,-977.1,2025-01-29 10:38:18,7
-120.0,934.0,538.3999999999996,-1558.8,126.1,-1094.1,2025-01-29 10:38:18,7
-284.0,710.0,406.3999999999997,-1550.8,100.1,-1161.1,2025-01-29 10:38:18,7
-360.0,666.0,586.3999999999996,-1546.8,-85.9,-1243.1,2025-01-29 10:38:18,7
-212.0,590.0,486.3999999999997,-1512.8,-418.9,-1417.1,2025-01-29 10:38:18,7
-64.0,754.0,78.39999999999964,-1586.8,-583.9,-1692.1,2025-01-29 10:38:18,7
44.0,1062.0,-349.6000000000004,-1711.8,-669.9,-1924.1,2025-01-29 10:38:18,7
256.0,1258.0,-809.6000000000004,-1966.8,-557.9,-2175.1,2025-01-29 10:38:18,7
364.0,1382.0,-1165.6000000000004,-2233.8,-516.9,-2461.1,2025-01-29 10:38:18,7
576.0,1374.0,-1793.6000000000004,-2582.8,-546.9,-2805.1,2025-01-29 10:38:18,7
696.0,1058.0,-1829.6000000000004,-3034.8,-510.9,-3157.1,2025-01-29 10:38:18,7
1144.0,-986.0,-685.6000000000004,-4009.8,1082.1,-4470.1,2025-01-29 10:38:18,7
516.0,-1778.0,-501.6000000000004,-3844.8,1474.1,-4570.1,2025-01-29 10:38:18,7
-36.0,-2254.0,-597.6000000000004,-3905.8,1139.1,-4425.1,2025-01-29 10:38:18,7
-432.0,-2370.0,-89.60000000000036,-4107.8,698.1,-4264.1,2025-01-29 10:38:18,7
-908.0,-2442.0,810.3999999999996,-4501.8,123.1,-4144.1,2025-01-29 10:38:18,7
-1128.0,-1998.0,1322.3999999999996,-4624.8,-297.9,-3944.1,2025-01-29 10:38:18,7
-744.0,-1606.0,1050.3999999999996,-4936.8,-552.9,-3788.1,2025-01-29 10:38:18,7
292.0,-1370.0,482.3999999999997,-5488.8,-515.9,-4053.1,2025-01-29 10:38:18,7
888.0,-1158.0,334.39999999999964,-6077.8,-58.900000000000006,-4854.1,2025-01-29 10:38:18,7
476.0,-1018.0,-53.60000000000037,-6617.8,766.1,-5483.1,2025-01-29 10:38:18,7
-20.0,-966.0,-689.6000000000004,-7195.8,1401.1,-5639.1,2025-01-29 10:38:18,7
-104.0,-1362.0,-833.6000000000004,-7701.8,1504.1,-5776.1,2025-01-29 10:38:18,7
-152.0,-1874.0,-937.6000000000004,-7958.8,1037.1,-5860.1,2025-01-29 10:38:18,7
-264.0,-2130.0,-449.6000000000004,-8064.8,511.1,-5864.1,2025-01-29 10:38:18,7
-40.0,-2350.0,-333.6000000000004,-8175.8,180.1,-5958.1,2025-01-29 10:38:18,7
344.0,-2414.0,-237.6000000000004,-8193.8,-47.900000000000006,-6024.1,2025-01-29 10:38:18,7
316.0,-2414.0,-197.6000000000004,-8177.8,-64.9,-5798.1,2025-01-29 10:38:18,7
324.0,-2670.0,122.39999999999964,-8098.8,346.1,-5721.1,2025-01-29 10:38:18,7
16.0,-2762.0,602.3999999999996,-7903.8,676.1,-5624.1,2025-01-29 10:38:18,7
-288.0,-2798.0,394.3999999999997,-7916.8,448.1,-5526.1,2025-01-29 10:38:18,7
-824.0,-2602.0,442.3999999999997,-8024.8,-27.90000000000001,-5329.1,2025-01-29 10:38:18,7
-1180.0,-2382.0,618.3999999999996,-8134.8,-681.9,-4946.1,2025-01-29 10:38:18,7
-1048.0,-1950.0,490.3999999999997,-8166.8,-1173.9,-4611.1,2025-01-29 10:38:18,7
-412.0,-1438.0,-157.60000000000036,-8277.8,-1340.9,-4520.1,2025-01-29 10:38:18,7
304.0,-1082.0,-493.6000000000004,-8918.8,-1402.9,-4714.1,2025-01-29 10:38:18,7
844.0,-1182.0,-885.6000000000004,-9723.8,-1447.9,-4914.1,2025-01-29 10:38:18,7
984.0,-1702.0,-1077.6000000000004,-10507.8,-934.9,-5079.1,2025-01-29 10:38:18,7
732.0,-2202.0,-1157.6000000000004,-11185.8,121.1,-5387.1,2025-01-29 10:38:18,7
64.0,-1946.0,-877.6000000000004,-11733.8,553.1,-5610.1,2025-01-29 10:38:18,7
-288.0,-2138.0,-633.6000000000004,-12294.8,116.1,-6005.1,2025-01-29 10:38:18,7
-776.0,-2022.0,-1.6000000000003638,-12612.8,-825.9,-6424.1,2025-01-29 10:38:18,7
-1088.0,-2162.0,318.39999999999964,-12850.8,-2182.9,-6698.1,2025-01-29 10:38:18,7
-848.0,-2102.0,422.3999999999997,-13253.8,-3448.9,-6555.1,2025-01-29 10:38:19,7
392.0,-1558.0,-133.60000000000036,-13635.8,-4330.9,-6431.1,2025-01-29 10:38:19,7
812.0,-678.0,-981.6000000000004,-14038.8,-4357.9,-6347.1,2025-01-29 10:38:19,7
1536.0,-314.0,-1413.6000000000004,-14368.8,-3744.9,-6247.1,2025-01-29 10:38:19,7
2480.0,-654.0,-1473.6000000000004,-14345.8,-2416.9,-6792.1,2025-01-29 10:38:19,7
2620.0,-1506.0,-1505.6000000000004,-14331.8,-1125.9,-7846.1,2025-01-29 10:38:19,7
1640.0,-1382.0,-1809.6000000000004,-14119.8,-143.9,-8447.1,2025-01-29 10:38:19,7
104.0,-798.0,-2341.6000000000004,-14054.8,727.1,-8457.1,2025-01-29 10:38:19,7
-16.0,-158.0,-2513.6000000000004,-14195.8,825.1,-8263.1,2025-01-29 10:38:19,7
-144.0,166.0,-2257.6000000000004,-14272.8,-175.9,-8202.1,2025-01-29 10:38:19,7
-4.0,-86.0,-1741.6000000000004,-14461.8,-753.9,-8212.1,2025-01-29 10:38:19,7
176.0,-846.0,-1669.6000000000004,-14454.8,-570.9,-8242.1,2025-01-29 10:38:19,7
204.0,-1206.0,-1285.6000000000004,-14215.8,-206.9,-8133.1,2025-01-29 10:38:19,7
1004.0,-966.0,-1509.6000000000004,-14301.8,-214.9,-8052.1,2025-01-29 10:38:19,7
1196.0,-62.0,-313.6000000000004,-14702.8,-589.9,-8203.1,2025-01-29 10:38:19,7
756.0,998.0,882.3999999999996,-14818.8,-889.9,-7971.1,2025-01-29 10:38:19,7
268.0,2182.0,874.3999999999996,-14854.8,-757.9,-7495.1,2025-01-29 10:38:19,7
220.0,3106.0,-141.60000000000036,-15151.8,-309.9,-6892.1,2025-01-29 10:38:19,7
1348.0,2958.0,-785.6000000000004,-15447.8,66.1,-7131.1,2025-01-29 10:38:19,7
1672.0,1926.0,-1137.6000000000004,-15702.8,802.1,-8218.1,2025-01-29 10:38:19,7
380.0,974.0,-409.6000000000004,-16087.8,1248.1,-8706.1,2025-01-29 10:38:19,7
-204.0,166.0,426.3999999999997,-15996.8,965.1,-8450.1,2025-01-29 10:38:19,7
-412.0,14.0,562.3999999999996,-15687.8,453.1,-8010.1,2025-01-29 10:38:19,7
-540.0,282.0,126.39999999999964,-15466.8,356.1,-7694.1,2025-01-29 10:38:19,7
-952.0,622.0,-73.60000000000036,-15183.8,546.1,-7428.1,2025-01-29 10:38:19,7
-1120.0,390.0,-629.6000000000004,-15015.8,568.1,-7221.1,2025-01-29 10:38:19,7
-1260.0,262.0,-13.600000000000364,-14742.8,93.1,-6950.1,2025-01-29 10:38:19,7
-1092.0,350.0,846.3999999999996,-14353.8,-503.9,-6594.1,2025-01-29 10:38:19,7
-168.0,430.0,274.39999999999964,-14040.8,-894.9,-6331.1,2025-01-29 10:38:19,7
304.0,270.0,274.39999999999964,-13727.8,-821.9,-6399.1,2025-01-29 10:38:19,7
188.0,74.0,942.3999999999996,-13297.8,-204.9,-6284.1,2025-01-29 10:38:19,7
-228.0,106.0,2002.4,-12751.8,634.1,-5910.1,2025-01-29 10:38:19,7
-152.0,-230.0,2014.4,-12185.8,1060.1,-5648.1,2025-01-29 10:38:19,7
-48.0,150.0,1574.3999999999996,-11701.8,1106.1,-5671.1,2025-01-29 10:38:19,7
148.0,814.0,578.3999999999996,-11428.8,681.1,-5857.1,2025-01-29 10:38:19,7
308.0,1378.0,-213.6000000000004,-11580.8,308.1,-6230.1,2025-01-29 10:38:19,7
508.0,1922.0,-181.6000000000004,-11783.8,257.1,-6542.1,2025-01-29 10:38:19,7
524.0,2382.0,-277.6000000000004,-12146.8,438.1,-6918.1,2025-01-29 10:38:19,7
148.0,2622.0,498.3999999999997,-12500.8,716.1,-7216.1,2025-01-29 10:38:19,7
-208.0,2350.0,830.3999999999996,-12701.8,1019.1,-7399.1,2025-01-29 10:38:19,7
-312.0,1874.0,1158.3999999999996,-12889.8,1024.1,-7543.1,2025-01-29 10:38:19,7
-472.0,1262.0,1230.3999999999996,-12892.8,771.1,-7546.1,2025-01-29 10:38:19,7
-380.0,934.0,1506.3999999999996,-12754.8,846.1,-7399.1,2025-01-29 10:38:19,7
76.0,710.0,1382.3999999999996,-12416.8,968.1,-7359.1,2025-01-29 10:38:19,7
292.0,818.0,1330.3999999999996,-11934.8,1079.1,-7470.1,2025-01-29 10:38:19,7
112.0,1022.0,1258.3999999999996,-11469.8,1454.1,-7445.1,2025-01-29 10:38:19,7
-228.0,1214.0,1406.3999999999996,-11262.8,1946.1,-7261.1,2025-01-29 10:38:19,7
-448.0,1190.0,1594.3999999999996,-10868.8,2400.1,-7067.1,2025-01-29 10:38:19,7
-796.0,1214.0,1362.3999999999996,-10427.8,2667.1,-6655.1,2025-01-29 10:38:19,7
-904.0,1150.0,1646.3999999999996,-9930.8,2720.1,-6258.1,2025-01-29 10:38:19,7
-812.0,1086.0,1210.3999999999996,-9364.8,2488.1,-6004.1,2025-01-29 10:38:19,7
-612.0,870.0,1186.3999999999996,-8606.8,2123.1,-5731.1,2025-01-29 10:38:19,7
-1068.0,586.0,1710.3999999999996,-7614.8,2269.1,-5295.1,2025-01-29 10:38:19,7
-1312.0,78.0,2346.4,-6533.8,2379.1,-4816.1,2025-01-29 10:38:19,7
-1500.0,-586.0,2606.4,-5401.8,2272.1,-4503.1,2025-01-29 10:38:19,7
-1756.0,-798.0,2790.4,-4020.8,1796.1,-4033.1,2025-01-29 10:38:19,7
-1444.0,-610.0,2974.4,-2769.8,1054.1,-3566.1,2025-01-29 10:38:19,7
-944.0,70.0,3102.4,-2009.8,238.1,-3376.1,2025-01-29 10:38:19,7
-844.0,794.0,3494.4,-1142.8,1.0999999999999943,-3284.1,2025-01-29 10:38:19,7
-1344.0,1750.0,3042.4,-492.8,575.1,-2995.1,2025-01-29 10:38:19,7
-1996.0,1994.0,1210.3999999999996,-290.8,1921.1,-2420.1,2025-01-29 10:38:19,7
-2900.0,1506.0,-169.60000000000036,-453.8,3454.1,-1616.1,2025-01-29 10:38:19,7
-3304.0,674.0,-501.6000000000004,-1375.8,3697.1,-843.1,2025-01-29 10:38:20,7
-3052.0,610.0,1018.3999999999996,-1394.8,1623.1,-247.1,2025-01-29 10:38:20,7
-1708.0,618.0,1094.3999999999996,-1125.8,-637.9,-17.099999999999994,2025-01-29 10:38:20,7
-276.0,1154.0,614.3999999999996,-916.8,-1376.9,64.9,2025-01-29 10:38:20,1
1116.0,1994.0,302.39999999999964,-960.8,-1154.9,-128.1,2025-01-29 10:38:20,1
1572.0,2854.0,222.39999999999964,-1110.8,-781.9,-199.1,2025-01-29 10:38:20,1
2116.0,3494.0,-817.6000000000004,-1242.8,-110.9,-265.1,2025-01-29 10:38:20,1
2656.0,3162.0,-1721.6000000000004,-1444.8,1685.1,-1435.1,2025-01-29 10:38:20,1
1608.0,2574.0,-2489.6000000000004,-1551.8,2924.1,-3098.1,2025-01-29 10:38:20,1
276.0,2026.0,-3473.6000000000004,-2051.8,2349.1,-4157.1,2025-01-29 10:38:20,1
-376.0,1882.0,-3453.6000000000004,-2922.8,913.1,-4919.1,2025-01-29 10:38:20,1
92.0,1898.0,-3373.6000000000004,-3576.8,-758.9,-5789.1,2025-01-29 10:38:20,1
824.0,1654.0,-3373.6000000000004,-4268.8,-1910.9,-6627.1,2025-01-29 10:38:20,1
1448.0,1022.0,-2989.6000000000004,-5185.8,-2100.9,-7103.1,2025-01-29 10:38:20,1
2156.0,2.0,-2237.6000000000004,-5878.8,-1707.9,-7221.1,2025-01-29 10:38:20,1
2216.0,-1706.0,-893.6000000000004,-6201.8,-1000.9,-7540.1,2025-01-29 10:38:20,1
1688.0,-3266.0,286.39999999999964,-6117.8,40.1,-7840.1,2025-01-29 10:38:20,1
1380.0,-4666.0,474.3999999999997,-5676.8,517.1,-8058.1,2025-01-29 10:38:20,1
564.0,-5378.0,410.3999999999997,-4712.8,1193.1,-8023.1,2025-01-29 10:38:20,1
-516.0,-5334.0,90.39999999999964,-3841.8,1290.1,-7425.1,2025-01-29 10:38:20,1
-1216.0,-4914.0,-1.6000000000003638,-3337.8,561.1,-6326.1,2025-01-29 10:38:20,1
-892.0,-3846.0,534.3999999999996,-2969.8,-469.9,-5267.1,2025-01-29 10:38:20,1
-156.0,-2782.0,602.3999999999996,-2736.8,-996.9,-4936.1,2025-01-29 10:38:20,1
176.0,-1614.0,558.3999999999996,-2794.8,-1052.9,-4893.1,2025-01-29 10:38:20,1
548.0,-798.0,290.39999999999964,-3069.8,-753.9,-4902.1,2025-01-29 10:38:20,1
684.0,-494.0,198.39999999999964,-3637.8,-435.9,-5003.1,2025-01-29 10:38:20,1
712.0,-698.0,-45.60000000000037,-4148.8,-424.9,-4844.1,2025-01-29 10:38:20,1
696.0,-1218.0,182.39999999999964,-4601.8,-298.9,-4485.1,2025-01-29 10:38:20,1
1056.0,-1906.0,470.3999999999997,-4849.8,145.1,-4339.1,2025-01-29 10:38:20,1
980.0,-2458.0,954.3999999999996,-4876.8,537.1,-4417.1,2025-01-29 10:38:20,1
164.0,-2786.0,1370.3999999999996,-4697.8,871.1,-4213.1,2025-01-29 10:38:20,1
-372.0,-2754.0,1606.3999999999996,-4523.8,1128.1,-3627.1,2025-01-29 10:38:20,1
-76.0,-2914.0,1186.3999999999996,-4309.8,1253.1,-3163.1,2025-01-29 10:38:20,1
-148.0,-3078.0,1822.4,-4024.8,1103.1,-2662.1,2025-01-29 10:38:20,1
420.0,-3370.0,1918.4,-3750.8,1038.1,-2195.1,2025-01-29 10:38:20,1
612.0,-3914.0,1366.3999999999996,-3511.8,1541.1,-1945.1,2025-01-29 10:38:20,1
588.0,-3650.0,702.3999999999996,-3294.8,2602.1,-1800.1,2025-01-29 10:38:20,1
120.0,-2526.0,926.3999999999996,-3326.8,3088.1,-1632.1,2025-01-29 10:38:20,1
-304.0,-1438.0,990.3999999999996,-3316.8,3046.1,-1764.1,2025-01-29 10:38:20,1
-820.0,-698.0,718.3999999999996,-3475.8,2634.1,-1652.1,2025-01-29 10:38:20,1
-136.0,-1362.0,314.39999999999964,-3728.8,2276.1,-1768.1,2025-01-29 10:38:20,1
-8.0,-2130.0,-581.6000000000004,-3908.8,2264.1,-2500.1,2025-01-29 10:38:20,1
-996.0,-2298.0,-537.6000000000004,-4161.8,1875.1,-2933.1,2025-01-29 10:38:20,1
-1244.0,-1642.0,-57.60000000000037,-4204.8,794.1,-3204.1,2025-01-29 10:38:20,1
-1364.0,-1058.0,114.39999999999964,-4371.8,-747.9,-3342.1,2025-01-29 10:38:20,1
-872.0,-1162.0,518.3999999999996,-4705.8,-1786.9,-3326.1,2025-01-29 10:38:20,1
-676.0,-1998.0,1154.3999999999996,-4958.8,-1681.9,-3302.1,2025-01-29 10:38:20,1
-1196.0,-2730.0,1526.3999999999996,-5175.8,-776.9,-3286.1,2025-01-29 10:38:20,1
-1904.0,-3362.0,2206.4,-5215.8,186.1,-3240.1,2025-01-29 10:38:20,1
-2212.0,-3434.0,194.39999999999964,-4903.8,700.1,-3575.1,2025-01-29 10:38:20,1
-2624.0,-2810.0,-2261.6000000000004,-4401.8,1359.1,-4100.1,2025-01-29 10:38:20,1
-2244.0,-3954.0,-3213.6000000000004,-3233.8,1069.1,-4506.1,2025-01-29 10:38:20,1
-2404.0,-5170.0,-4209.6,-1721.8,-774.9,-4540.1,2025-01-29 10:38:20,1
-3556.0,-5506.0,-4101.6,-514.8,-2436.9,-3337.1,2025-01-29 10:38:20,1
-3008.0,-5854.0,-3957.6,63.2,-3482.9,-1636.1,2025-01-29 10:38:20,1
-1300.0,-5046.0,-4089.6,306.2,-4360.9,-406.1,2025-01-29 10:38:20,1
460.0,-3426.0,-4065.6,-280.8,-5676.9,536.9,2025-01-29 10:38:20,1
2852.0,-2046.0,-3613.6,-1429.8,-7673.9,1364.9,2025-01-29 10:38:20,1
5620.0,354.0,-2649.6000000000004,-2412.8,-9135.9,1823.9,2025-01-29 10:38:20,1
6832.0,2454.0,-1905.6000000000004,-3481.8,-8463.9,1618.9,2025-01-29 10:38:20,1
7388.0,4014.0,-1205.6000000000004,-4179.8,-5420.9,895.9,2025-01-29 10:38:20,1
7612.0,3778.0,-1057.6000000000004,-4273.8,636.1,-1203.1,2025-01-29 10:38:21,1
5696.0,2258.0,-617.6000000000004,-4052.8,6078.1,-4350.1,2025-01-29 10:38:21,1
960.0,598.0,-1497.6000000000004,-4052.8,8293.1,-5604.1,2025-01-29 10:38:21,1
-1988.0,-1154.0,-2417.6000000000004,-4237.8,7780.1,-4996.1,2025-01-29 10:38:21,1
-4224.0,-2494.0,-1565.6000000000004,-4312.8,4882.1,-3173.1,2025-01-29 10:38:21,1
-5308.0,-4326.0,-185.6000000000004,-3444.8,459.1,225.9,2025-01-29 10:38:21,1
-2880.0,-4506.0,222.39999999999964,-1950.8,-3078.9,2581.9,2025-01-29 10:38:21,1
64.0,-3914.0,-525.6000000000004,-1046.8,-4773.9,3031.9,2025-01-29 10:38:21,1
1412.0,-3306.0,258.39999999999964,70.2,-4797.9,3441.9,2025-01-29 10:38:21,1
2224.0,-2570.0,542.3999999999996,1184.2,-3578.9,4074.9,2025-01-29 10:38:21,1
3020.0,-1290.0,262.39999999999964,1797.2,-1216.9,4515.9,2025-01-29 10:38:21,1
2548.0,542.0,966.3999999999996,2180.2,1483.1,4417.9,2025-01-29 10:38:21,1
1144.0,1946.0,538.3999999999996,1972.2,3051.1,4117.9,2025-01-29 10:38:21,1
-44.0,2782.0,-729.6000000000004,1072.2,2905.1,3875.9,2025-01-29 10:38:21,1
-728.0,2814.0,-537.6000000000004,334.2,1348.1,3643.9,2025-01-29 10:38:21,1
-340.0,2206.0,162.39999999999964,-131.8,-592.9,3175.9,2025-01-29 10:38:21,1
-160.0,1110.0,1466.3999999999996,-179.8,-2224.9,2786.9,2025-01-29 10:38:21,1
1132.0,254.0,1418.3999999999996,105.2,-2789.9,2357.9,2025-01-29 10:38:21,1
2212.0,-158.0,1650.3999999999996,424.2,-2429.9,1853.9,2025-01-29 10:38:21,1
2416.0,-298.0,1946.4,765.2,-1285.9,1305.9,2025-01-29 10:38:21,1
2432.0,-270.0,1766.3999999999996,1039.2,-47.900000000000006,872.9,2025-01-29 10:38:21,1
2080.0,226.0,1566.3999999999996,1237.2,1169.1,337.9,2025-01-29 10:38:21,1
1000.0,606.0,1386.3999999999996,1374.2,1841.1,-82.1,2025-01-29 10:38:21,1
-84.0,750.0,1462.3999999999996,1508.2,1896.1,-270.1,2025-01-29 10:38:21,1
-724.0,794.0,1458.3999999999996,1617.2,1579.1,-312.1,2025-01-29 10:38:21,1
-980.0,770.0,866.3999999999996,1761.2,639.1,-112.1,2025-01-29 10:38:21,1
-1636.0,910.0,1130.3999999999996,1993.2,-303.9,216.9,2025-01-29 10:38:21,1
-1456.0,858.0,1066.3999999999996,2259.2,-867.9,790.9,2025-01-29 10:38:21,1
-1472.0,206.0,758.3999999999996,2573.2,-999.9,1385.9,2025-01-29 10:38:21,1
-1632.0,-154.0,590.3999999999996,2954.2,-873.9,1997.9,2025-01-29 10:38:21,1
-1744.0,-606.0,1186.3999999999996,3352.2,-650.9,2597.9,2025-01-29 10:38:21,1
-2012.0,-1566.0,1690.3999999999996,3810.2,-471.9,3034.9,2025-01-29 10:38:21,1
-1772.0,-2178.0,2086.4,4671.2,-534.9,3600.9,2025-01-29 10:38:21,1
-1388.0,-1094.0,1346.3999999999996,5463.2,-534.9,3954.9,2025-01-29 10:38:21,1
-1484.0,274.0,874.3999999999996,5719.2,-235.9,4078.9,2025-01-29 10:38:21,1
-1960.0,942.0,370.3999999999997,5869.2,991.1,4086.9,2025-01-29 10:38:21,1
-2664.0,1462.0,-1373.6000000000004,5746.2,2425.1,3972.9,2025-01-29 10:38:21,1
-3740.0,2986.0,-4177.6,4664.2,3055.1,3854.9,2025-01-29 10:38:21,1
-4352.0,4918.0,-6601.6,2461.2,2814.1,4018.9,2025-01-29 10:38:21,1
-3820.0,5570.0,-6801.6,-45.8,692.1,3685.9,2025-01-29 10:38:21,1
-2724.0,5286.0,-6093.6,-1726.8,-2192.9,2626.9,2025-01-29 10:38:21,1
-968.0,3482.0,-4745.6,-2444.8,-4201.9,1221.9,2025-01-29 10:38:21,1
808.0,1214.0,-3365.6000000000004,-2431.8,-6184.9,139.9,2025-01-29 10:38:21,1
2980.0,-610.0,-1789.6000000000004,-1818.8,-7567.9,-497.1,2025-01-29 10:38:21,1
4684.0,-2206.0,-673.6000000000004,-866.8,-7867.9,-1152.1,2025-01-29 10:38:21,1
5224.0,-3634.0,922.3999999999996,472.2,-6537.9,-1537.1,2025-01-29 10:38:21,1
4992.0,-4566.0,1922.4,1881.2,-4005.9,-1241.1,2025-01-29 10:38:21,1
4692.0,-4858.0,1730.3999999999996,2899.2,-747.9,-456.1,2025-01-29 10:38:21,1
4028.0,-3138.0,1166.3999999999996,3504.2,2949.1,628.9,2025-01-29 10:38:21,1
3624.0,-934.0,-305.6000000000004,3487.2,5429.1,968.9,2025-01-29 10:38:21,1
2592.0,546.0,-1337.6000000000004,2677.2,6447.1,524.9,2025-01-29 10:38:21,1
1196.0,958.0,-1929.6000000000004,1786.2,6436.1,-226.1,2025-01-29 10:38:21,1
-232.0,730.0,-1765.6000000000004,1300.2,5337.1,-983.1,2025-01-29 10:38:21,1
-832.0,34.0,-2061.6000000000004,814.2,3076.1,-1553.1,2025-01-29 10:38:21,1
-856.0,-462.0,-2505.6000000000004,431.2,129.1,-1965.1,2025-01-29 10:38:21,1
-504.0,-434.0,-2545.6000000000004,69.2,-1961.9,-2127.1,2025-01-29 10:38:21,1
580.0,-606.0,-2165.6000000000004,-326.8,-2565.9,-2217.1,2025-01-29 10:38:21,1
1592.0,-630.0,-1437.6000000000004,-776.8,-2344.9,-2483.1,2025-01-29 10:38:21,1
2596.0,-730.0,-745.6000000000004,-1208.8,-1390.9,-2857.1,2025-01-29 10:38:21,1
3276.0,-1198.0,-625.6000000000004,-1599.8,-201.9,-3238.1,2025-01-29 10:38:21,1
2588.0,-1514.0,-213.6000000000004,-1862.8,1435.1,-3929.1,2025-01-29 10:38:22,1
1212.0,-1642.0,122.39999999999964,-1984.8,2666.1,-4174.1,2025-01-29 10:38:22,1
104.0,-1786.0,134.39999999999964,-2230.8,2687.1,-4096.1,2025-01-29 10:38:22,1
-576.0,-1850.0,106.39999999999964,-2343.8,1595.1,-3949.1,2025-01-29 10:38:22,1
-772.0,-2098.0,306.39999999999964,-2357.8,107.1,-3629.1,2025-01-29 10:38:22,1
-332.0,-2406.0,526.3999999999996,-2443.8,-1074.9,-3123.1,2025-01-29 10:38:22,1
412.0,-2622.0,630.3999999999996,-2540.8,-1505.9,-2493.1,2025-01-29 10:38:22,1
848.0,-2246.0,1518.3999999999996,-2668.8,-1061.9,-1806.1,2025-01-29 10:38:22,1
1168.0,-1746.0,1142.3999999999996,-2801.8,-411.9,-1363.1,2025-01-29 10:38:22,1
512.0,-1870.0,1862.4,-2908.8,395.1,-874.1,2025-01-29 10:38:22,1
676.0,-2174.0,1782.3999999999996,-2737.8,751.1,-518.1,2025-01-29 10:38:22,1
268.0,-2558.0,1974.4,-2482.8,808.1,-335.1,2025-01-29 10:38:22,1
44.0,-2346.0,1642.3999999999996,-2233.8,739.1,-445.1,2025-01-29 10:38:22,1
244.0,-1954.0,246.39999999999964,-2171.8,967.1,-794.1,2025-01-29 10:38:22,1
-292.0,-398.0,-293.6000000000004,-2566.8,1081.1,-1264.1,2025-01-29 10:38:22,1
-912.0,914.0,-569.6000000000004,-3278.8,858.1,-1684.1,2025-01-29 10:38:22,1
-1244.0,1050.0,-353.6000000000004,-4230.8,581.1,-1982.1,2025-01-29 10:38:22,1
-1164.0,-90.0,186.39999999999964,-4792.8,-99.9,-2404.1,2025-01-29 10:38:22,1
-1228.0,-1466.0,234.39999999999964,-5067.8,-832.9,-2841.1,2025-01-29 10:38:22,1
-1088.0,-2202.0,354.39999999999964,-5088.8,-1486.9,-3675.1,2025-01-29 10:38:22,1
-2072.0,-1758.0,1222.3999999999996,-5149.8,-2301.9,-4486.1,2025-01-29 10:38:22,1
-2808.0,-666.0,2362.4,-5440.8,-3198.9,-4797.1,2025-01-29 10:38:22,1
-2956.0,-122.0,2510.4,-5692.8,-3960.9,-4661.1,2025-01-29 10:38:22,1
-1732.0,-662.0,-701.6000000000004,-6039.8,-3450.9,-4163.1,2025-01-29 10:38:22,1
-1004.0,-3590.0,-2157.6000000000004,-6581.8,-630.9,-4754.1,2025-01-29 10:38:22,1
-1980.0,-6614.0,-1569.6000000000004,-5429.8,1727.1,-5485.1,2025-01-29 10:38:22,1
-4352.0,-7862.0,-1101.6000000000004,-2904.8,1522.1,-5243.1,2025-01-29 10:38:22,1
-6608.0,-7186.0,-1525.6000000000004,-1056.8,-1469.9,-3021.1,2025-01-29 10:38:22,1
-5656.0,-4774.0,-2661.6000000000004,-435.8,-4771.9,118.9,2025-01-29 10:38:22,1
-1168.0,-2674.0,-3297.6000000000004,-192.8,-7094.9,1097.9,2025-01-29 10:38:22,1
1396.0,-854.0,-2773.6000000000004,-392.8,-8256.9,1261.9,2025-01-29 10:38:22,1
3680.0,674.0,-1513.6000000000004,-970.8,-8057.9,1834.9,2025-01-29 10:38:22,1
5628.0,1658.0,-513.6000000000004,-2136.8,-6222.9,2149.9,2025-01-29 10:38:22,1
6624.0,1870.0,266.39999999999964,-2573.8,-2826.9,1629.9,2025-01-29 10:38:22,1
6388.0,1782.0,934.3999999999996,-1892.8,1705.1,72.9,2025-01-29 10:38:22,1
3892.0,1294.0,-89.60000000000036,-1236.8,5326.1,-1558.1,2025-01-29 10:38:22,1
-1040.0,346.0,-729.6000000000004,-1674.8,6629.1,-1395.1,2025-01-29 10:38:22,1
-3308.0,-418.0,-897.6000000000004,-2084.8,5853.1,-160.1,2025-01-29 10:38:22,1
-4244.0,-942.0,-753.6000000000004,-1969.8,3331.1,1128.9,2025-01-29 10:38:22,1
-4176.0,-1142.0,-537.6000000000004,-1394.8,-454.9,2258.9,2025-01-29 10:38:22,1
-2692.0,-1110.0,18.39999999999964,-553.8,-3531.9,2914.9,2025-01-29 10:38:22,1
-692.0,-526.0,362.3999999999997,-4.799999999999997,-4954.9,3362.9,2025-01-29 10:38:22,1
1520.0,222.0,326.39999999999964,398.2,-5056.9,3544.9,2025-01-29 10:38:22,1
3320.0,566.0,118.39999999999964,509.2,-3468.9,3360.9,2025-01-29 10:38:22,1
3712.0,778.0,1454.3999999999996,662.2,-885.9,2633.9,2025-01-29 10:38:22,1
2984.0,790.0,2002.4,994.2,1248.1,2114.9,2025-01-29 10:38:22,1
1844.0,1254.0,1826.4,1185.2,2558.1,1876.9,2025-01-29 10:38:22,1
404.0,1438.0,1582.3999999999996,1112.2,2905.1,1744.9,2025-01-29 10:38:22,1
-592.0,1882.0,1546.3999999999996,1113.2,2229.1,1597.9,2025-01-29 10:38:22,1
-900.0,2142.0,938.3999999999996,1057.2,865.1,1488.9,2025-01-29 10:38:22,1
-468.0,1934.0,798.3999999999996,789.2,-538.9,1233.9,2025-01-29 10:38:22,1
160.0,1666.0,826.3999999999996,441.2,-1223.9,818.9,2025-01-29 10:38:22,1
816.0,1302.0,1522.3999999999996,305.2,-785.9,454.9,2025-01-29 10:38:22,1
1076.0,874.0,1854.4,208.2,231.1,187.9,2025-01-29 10:38:22,1
704.0,582.0,1882.4,198.2,1457.1,-159.1,2025-01-29 10:38:22,1
-260.0,266.0,2190.4,249.2,2019.1,-316.1,2025-01-29 10:38:22,1
-1016.0,306.0,2794.4,520.2,1990.1,-151.1,2025-01-29 10:38:22,1
-1260.0,650.0,2658.4,989.2,1672.1,208.9,2025-01-29 10:38:22,1
-980.0,662.0,2190.4,1395.2,1710.1,305.9,2025-01-29 10:38:22,1
-1220.0,482.0,2466.4,1804.2,1853.1,358.9,2025-01-29 10:38:23,1
-1512.0,62.0,2498.4,2455.2,1741.1,484.9,2025-01-29 10:38:23,1
-1952.0,-338.0,2086.4,2942.2,1144.1,876.9,2025-01-29 10:38:23,1
-2116.0,-158.0,1538.3999999999996,3491.2,93.1,1502.9,2025-01-29 10:38:23,1
-1816.0,402.0,474.3999999999997,3909.2,-926.9,2264.9,2025-01-29 10:38:23,1
-1520.0,662.0,542.3999999999996,3790.2,-1196.9,2648.9,2025-01-29 10:38:23,1
-1004.0,798.0,1610.3999999999996,3933.2,-981.9,2992.9,2025-01-29 10:38:23,1
-676.0,1046.0,2282.4,4320.2,-522.9,3086.9,2025-01-29 10:38:23,1
-1344.0,442.0,2318.4,4544.2,502.1,3336.9,2025-01-29 10:38:23,1
-1560.0,-778.0,1502.3999999999996,4652.2,1779.1,3984.9,2025-01-29 10:38:23,1
-1860.0,-346.0,6.399999999999636,4618.2,2916.1,4381.9,2025-01-29 10:38:23,1
-2924.0,1558.0,-1689.6000000000004,4395.2,4389.1,4827.9,2025-01-29 10:38:23,1
-3788.0,3010.0,-3813.6,3388.2,5247.1,5269.9,2025-01-29 10:38:23,1
-4060.0,3654.0,-5233.6,1931.2,4433.1,5307.9,2025-01-29 10:38:23,1
-3312.0,3790.0,-6413.6,406.2,1382.1,4310.9,2025-01-29 10:38:23,1
-2384.0,2430.0,-4089.6,-318.8,-2476.9,2621.9,2025-01-29 10:38:23,1
-1860.0,842.0,-1713.6000000000004,-494.8,-5388.9,1760.9,2025-01-29 10:38:23,1
592.0,-234.0,506.3999999999997,-45.8,-7256.9,1314.9,2025-01-29 10:38:23,1
3336.0,-810.0,922.3999999999996,1052.2,-8056.9,588.9,2025-01-29 10:38:23,1
5052.0,-1458.0,1142.3999999999996,1999.2,-7462.9,-416.1,2025-01-29 10:38:23,1
5832.0,-2214.0,1074.3999999999996,2921.2,-5247.9,-1297.1,2025-01-29 10:38:23,1
5232.0,-2602.0,430.3999999999997,3540.2,-1447.9,-1396.1,2025-01-29 10:38:23,1
4320.0,-2990.0,-145.60000000000036,3729.2,2755.1,-858.1,2025-01-29 10:38:23,1
2980.0,-2742.0,-209.6000000000004,3722.2,5779.1,-149.1,2025-01-29 10:38:23,1
1472.0,-2050.0,-689.6000000000004,3589.2,6738.1,236.9,2025-01-29 10:38:23,1
-332.0,-1538.0,-1385.6000000000004,3591.2,5979.1,236.9,2025-01-29 10:38:23,1
-1916.0,-1594.0,-1601.6000000000004,3494.2,3644.1,220.9,2025-01-29 10:38:23,1
-2764.0,-2186.0,-841.6000000000004,3542.2,282.1,116.9,2025-01-29 10:38:23,1
-2252.0,-2654.0,-673.6000000000004,3843.2,-2157.9,163.9,2025-01-29 10:38:23,1
-604.0,-2246.0,-733.6000000000004,4250.2,-3155.9,-36.1,2025-01-29 10:38:23,1
1220.0,-1122.0,-873.6000000000004,4388.2,-3101.9,-643.1,2025-01-29 10:38:23,1
2076.0,-126.0,-673.6000000000004,4082.2,-2311.9,-1102.1,2025-01-29 10:38:23,1
2728.0,442.0,-765.6000000000004,3138.2,-830.9,-1333.1,2025-01-29 10:38:23,1
2948.0,646.0,-449.6000000000004,2264.2,898.1,-1624.1,2025-01-29 10:38:23,1
2272.0,318.0,-305.6000000000004,1500.2,2589.1,-2031.1,2025-01-29 10:38:23,1
1612.0,-534.0,174.39999999999964,884.2,3283.1,-2425.1,2025-01-29 10:38:23,1
616.0,-1546.0,710.3999999999996,697.2,3185.1,-2763.1,2025-01-29 10:38:23,1
-256.0,-2626.0,910.3999999999996,647.2,2658.1,-2800.1,2025-01-29 10:38:23,1
-1044.0,-2746.0,1242.3999999999996,692.2,1896.1,-2303.1,2025-01-29 10:38:23,1
-960.0,-2278.0,954.3999999999996,664.2,1442.1,-1560.1,2025-01-29 10:38:23,1
-332.0,-1842.0,1138.3999999999996,440.2,1385.1,-1297.1,2025-01-29 10:38:23,1
-272.0,-1450.0,1122.3999999999996,177.2,1411.1,-1263.1,2025-01-29 10:38:23,1
-680.0,-1214.0,1422.3999999999996,-104.8,1430.1,-1165.1,2025-01-29 10:38:23,1
-568.0,-1074.0,1666.3999999999996,-304.8,1220.1,-993.1,2025-01-29 10:38:23,1
-492.0,-1102.0,1454.3999999999996,-606.8,993.1,-826.1,2025-01-29 10:38:23,1
-308.0,-1114.0,1262.3999999999996,-1058.8,921.1,-603.1,2025-01-29 10:38:23,1
-148.0,-1162.0,1146.3999999999996,-1519.8,930.1,-493.1,2025-01-29 10:38:23,1
-328.0,-1138.0,1546.3999999999996,-2034.8,1045.1,-504.1,2025-01-29 10:38:23,1
28.0,-1478.0,1410.3999999999996,-2417.8,1230.1,-636.1,2025-01-29 10:38:23,1
-56.0,-1602.0,1074.3999999999996,-2646.8,1661.1,-928.1,2025-01-29 10:38:23,1
-700.0,-1474.0,1066.3999999999996,-2923.8,2020.1,-1362.1,2025-01-29 10:38:23,1
-1428.0,-858.0,1262.3999999999996,-3128.8,1570.1,-1531.1,2025-01-29 10:38:23,1
-1480.0,-1326.0,814.3999999999996,-3426.8,702.1,-1699.1,2025-01-29 10:38:23,1
-1232.0,-1998.0,686.3999999999996,-3515.8,-50.900000000000006,-2016.1,2025-01-29 10:38:23,1
-1568.0,-2306.0,338.39999999999964,-3672.8,-567.9,-2333.1,2025-01-29 10:38:23,1
-1356.0,-2398.0,894.3999999999996,-3962.8,-1056.9,-2565.1,2025-01-29 10:38:23,1
-1140.0,-2566.0,454.3999999999997,-4060.8,-1485.9,-3154.1,2025-01-29 10:38:23,1
-1144.0,-1754.0,394.3999999999997,-3836.8,-1503.9,-3850.1,2025-01-29 10:38:23,1
-724.0,-2098.0,-345.6000000000004,-3618.8,-1224.9,-4590.1,2025-01-29 10:38:23,1
-568.0,-3278.0,-173.60000000000036,-2957.8,-941.9,-4949.1,2025-01-29 10:38:23,1
-1180.0,-4294.0,-301.6000000000004,-1982.8,-1191.9,-4772.1,2025-01-29 10:38:23,1
-1708.0,-5158.0,-1133.6000000000004,-1463.8,-1709.9,-3851.1,2025-01-29 10:38:23,1
-2976.0,-5626.0,-1825.6000000000004,-924.8,-1425.9,-2019.1,2025-01-29 10:38:23,1
-3028.0,-5222.0,-2893.6000000000004,-491.8,-691.9,44.900000000000006,2025-01-29 10:38:23,1
-1772.0,-3874.0,-3101.6000000000004,-389.8,-1221.9,1089.9,2025-01-29 10:38:24,1
-1396.0,-2926.0,-2637.6000000000004,-419.8,-2851.9,1419.9,2025-01-29 10:38:24,1
-560.0,-1794.0,-2521.6000000000004,-230.8,-4366.9,1960.9,2025-01-29 10:38:24,1
1288.0,-974.0,-2265.6000000000004,-264.8,-5335.9,2542.9,2025-01-29 10:38:24,1
2868.0,-290.0,-1721.6000000000004,-364.8,-5106.9,2758.9,2025-01-29 10:38:24,1
4220.0,-186.0,-841.6000000000004,-575.8,-3972.9,2614.9,2025-01-29 10:38:24,1
4880.0,282.0,-81.60000000000036,-542.8,-1698.9,1905.9,2025-01-29 10:38:24,1
4164.0,1350.0,82.39999999999964,-550.8,1561.1,1057.9,2025-01-29 10:38:24,1
2636.0,1818.0,-505.6000000000004,-866.8,3383.1,501.9,2025-01-29 10:38:24,1
472.0,1894.0,-1425.6000000000004,-1561.8,4100.1,271.9,2025-01-29 10:38:24,1
-1464.0,1510.0,-1729.6000000000004,-2187.8,4014.1,261.9,2025-01-29 10:38:24,1
-2920.0,758.0,-2021.6000000000004,-2638.8,2422.1,445.9,2025-01-29 10:38:24,1
-3292.0,-302.0,-1225.6000000000004,-2784.8,-461.9,1092.9,2025-01-29 10:38:24,1
-2104.0,-746.0,-181.6000000000004,-2591.8,-2876.9,1696.9,2025-01-29 10:38:24,1
-64.0,-694.0,618.3999999999996,-2355.8,-3892.9,1848.9,2025-01-29 10:38:24,1
1572.0,-334.0,1086.3999999999996,-1946.8,-3619.9,1764.9,2025-01-29 10:38:24,1
2484.0,-162.0,1778.3999999999996,-1336.8,-2241.9,1789.9,2025-01-29 10:38:24,1
2632.0,-238.0,2018.4,-732.8,-177.9,1717.9,2025-01-29 10:38:24,1
2216.0,-106.0,1718.3999999999996,-176.8,1591.1,1563.9,2025-01-29 10:38:24,1
1228.0,62.0,1538.3999999999996,239.2,2604.1,1401.9,2025-01-29 10:38:24,1
-300.0,558.0,838.3999999999996,715.2,2724.1,1451.9,2025-01-29 10:38:24,1
-1040.0,874.0,394.3999999999997,924.2,1863.1,1458.9,2025-01-29 10:38:24,1
-1388.0,918.0,462.3999999999997,1038.2,542.1,1345.9,2025-01-29 10:38:24,1
-1084.0,994.0,494.3999999999997,1063.2,-957.9,1251.9,2025-01-29 10:38:24,1
-252.0,974.0,710.3999999999996,1138.2,-1648.9,1093.9,2025-01-29 10:38:24,1
420.0,822.0,910.3999999999996,1224.2,-1568.9,956.9,2025-01-29 10:38:24,1
796.0,862.0,938.3999999999996,1330.2,-988.9,772.9,2025-01-29 10:38:24,1
812.0,978.0,742.3999999999996,1354.2,-117.9,709.9,2025-01-29 10:38:24,1
664.0,1038.0,330.39999999999964,1231.2,891.1,748.9,2025-01-29 10:38:24,1
312.0,982.0,242.39999999999964,1149.2,1318.1,683.9,2025-01-29 10:38:24,1
60.0,710.0,326.39999999999964,1250.2,1310.1,489.9,2025-01-29 10:38:24,1
-532.0,846.0,634.3999999999996,1306.2,842.1,348.9,2025-01-29 10:38:24,1
-868.0,1082.0,898.3999999999996,1256.2,70.1,291.9,2025-01-29 10:38:24,1
-828.0,1126.0,1338.3999999999996,1153.2,-694.9,348.9,2025-01-29 10:38:24,1
-508.0,634.0,1390.3999999999996,1230.2,-1030.9,280.9,2025-01-29 10:38:24,1
-284.0,534.0,1634.3999999999996,1150.2,-1163.9,236.9,2025-01-29 10:38:24,1
-424.0,450.0,2354.4,1242.2,-1288.9,176.9,2025-01-29 10:38:24,1
-236.0,654.0,2686.4,1512.2,-1112.9,178.9,2025-01-29 10:38:24,1
-212.0,726.0,2370.4,1754.2,-802.9,241.9,2025-01-29 10:38:24,1
-424.0,258.0,2322.4,2231.2,-116.9,278.9,2025-01-29 10:38:24,1
-844.0,-482.0,2414.4,2950.2,700.1,510.9,2025-01-29 10:38:24,1
-1256.0,-1018.0,2654.4,3807.2,1324.1,1015.9,2025-01-29 10:38:24,1
-1472.0,-898.0,2674.4,4606.2,1714.1,1525.9,2025-01-29 10:38:24,1
-1840.0,62.0,2430.4,5184.2,1917.1,2073.9,2025-01-29 10:38:24,1
-2308.0,318.0,1174.3999999999996,5254.2,1870.1,2570.9,2025-01-29 10:38:24,1
-2200.0,78.0,-5.600000000000364,5304.2,1774.1,2954.9,2025-01-29 10:38:24,1
-2156.0,770.0,-1509.6000000000004,5080.2,1642.1,3364.9,2025-01-29 10:38:24,1
-1724.0,1598.0,-3065.6000000000004,4209.2,1522.1,3792.9,2025-01-29 10:38:24,1
-1216.0,1958.0,-3309.6000000000004,3002.2,1278.1,3600.9,2025-01-29 10:38:24,1
-1700.0,2442.0,-3405.6000000000004,2126.2,1308.1,3110.9,2025-01-29 10:38:24,1
-2276.0,2670.0,-3801.6,1428.2,1295.1,2633.9,2025-01-29 10:38:24,1
-2188.0,2510.0,-3385.6000000000004,732.2,387.1,2008.9,2025-01-29 10:38:24,1
-1404.0,1958.0,-2249.6000000000004,300.2,-1753.9,960.9,2025-01-29 10:38:24,1
-392.0,1426.0,-1345.6000000000004,165.2,-3455.9,-159.1,2025-01-29 10:38:24,1
728.0,942.0,-309.6000000000004,57.2,-3883.9,-857.1,2025-01-29 10:38:24,1
1736.0,498.0,398.3999999999997,8.200000000000003,-3851.9,-1441.1,2025-01-29 10:38:24,1
2876.0,-122.0,246.39999999999964,-99.8,-3405.9,-1841.1,2025-01-29 10:38:24,1
3728.0,-822.0,-373.6000000000004,-227.8,-2362.9,-2235.1,2025-01-29 10:38:24,1
3796.0,-1414.0,-465.6000000000004,-160.8,-692.9,-2556.1,2025-01-29 10:38:24,1
3076.0,-1754.0,-629.6000000000004,-180.8,1200.1,-2677.1,2025-01-29 10:38:24,1
2068.0,-2058.0,-565.6000000000004,-32.8,2367.1,-2421.1,2025-01-29 10:38:24,1
1216.0,-2606.0,-921.6000000000004,160.2,2840.1,-2049.1,2025-01-29 10:38:25,1
344.0,-3222.0,-737.6000000000004,230.2,2622.1,-1714.1,2025-01-29 10:38:25,1
-844.0,-3370.0,-225.6000000000004,450.2,1632.1,-1219.1,2025-01-29 10:38:25,1
-708.0,-3438.0,-581.6000000000004,873.2,331.1,-630.1,2025-01-29 10:38:25,1
-248.0,-3406.0,-357.6000000000004,1443.2,-608.9,-393.1,2025-01-29 10:38:25,1
268.0,-2846.0,118.39999999999964,1571.2,-778.9,-463.1,2025-01-29 10:38:25,1
764.0,-1938.0,-49.60000000000037,1645.2,-494.9,-573.1,2025-01-29 10:38:25,1
1100.0,-1554.0,-569.6000000000004,1568.2,88.1,-772.1,2025-01-29 10:38:25,1
1120.0,-1510.0,-901.6000000000004,1396.2,624.1,-1106.1,2025-01-29 10:38:25,1
848.0,-1402.0,-881.6000000000004,1227.2,1006.1,-1354.1,2025-01-29 10:38:25,1
776.0,-1158.0,-1025.6000000000004,794.2,1039.1,-1724.1,2025-01-29 10:38:25,1
512.0,-1318.0,-1025.6000000000004,307.2,782.1,-2007.1,2025-01-29 10:38:25,1
516.0,-1614.0,-565.6000000000004,-77.8,639.1,-2148.1,2025-01-29 10:38:25,1
492.0,-2314.0,-205.6000000000004,-285.8,703.1,-2195.1,2025-01-29 10:38:25,1
580.0,-2766.0,170.39999999999964,-277.8,803.1,-2079.1,2025-01-29 10:38:25,1
440.0,-3090.0,466.3999999999997,-326.8,839.1,-1883.1,2025-01-29 10:38:25,1
212.0,-3382.0,762.3999999999996,-252.8,927.1,-1668.1,2025-01-29 10:38:25,1
-76.0,-3362.0,586.3999999999996,-104.8,980.1,-1394.1,2025-01-29 10:38:25,1
-188.0,-3162.0,374.3999999999997,-46.8,963.1,-1170.1,2025-01-29 10:38:25,1
-372.0,-2794.0,42.39999999999964,-132.8,702.1,-910.1,2025-01-29 10:38:25,1
-632.0,-2326.0,42.39999999999964,-259.8,325.1,-478.1,2025-01-29 10:38:25,1
-312.0,-2270.0,326.39999999999964,-479.8,-113.9,-7.099999999999994,2025-01-29 10:38:25,1
-104.0,-2382.0,514.3999999999996,-753.8,-321.9,437.9,2025-01-29 10:38:25,1
-108.0,-2338.0,882.3999999999996,-891.8,-285.9,946.9,2025-01-29 10:38:25,1
64.0,-2174.0,602.3999999999996,-1117.8,-301.9,1632.9,2025-01-29 10:38:25,1
-116.0,-2242.0,1094.3999999999996,-1359.8,-492.9,2755.9,2025-01-29 10:38:25,1
192.0,-3050.0,882.3999999999996,-1696.8,-916.9,3763.9,2025-01-29 10:38:25,1
1004.0,-2034.0,-1033.6000000000004,-1781.8,-1239.9,3692.9,2025-01-29 10:38:25,1
32.0,-610.0,-2693.6000000000004,-2181.8,-126.9,2793.9,2025-01-29 10:38:25,1
-448.0,718.0,-2677.6000000000004,-1344.8,1127.1,1758.9,2025-01-29 10:38:25,1
492.0,866.0,-2301.6000000000004,-28.8,540.1,-165.1,2025-01-29 10:38:25,1
-1000.0,58.0,-1121.6000000000004,-91.8,-768.9,-1409.1,2025-01-29 10:38:25,1
-696.0,-430.0,-49.60000000000037,-469.8,-1620.9,-1184.1,2025-01-29 10:38:25,1
660.0,-658.0,290.39999999999964,-759.8,-1864.9,-870.1,2025-01-29 10:38:25,1
1896.0,-742.0,338.39999999999964,-1084.8,-1409.9,-729.1,2025-01-29 10:38:25,1
2756.0,-774.0,530.3999999999996,-1259.8,-144.9,-866.1,2025-01-29 10:38:25,1
2224.0,-718.0,346.39999999999964,-1335.8,1343.1,-1076.1,2025-01-29 10:38:25,1
712.0,-826.0,-125.60000000000036,-1244.8,2366.1,-1065.1,2025-01-29 10:38:25,1
-648.0,-998.0,-129.60000000000036,-1136.8,1920.1,-963.1,2025-01-29 10:38:25,1
-1376.0,-1474.0,-25.600000000000364,-914.8,657.1,-636.1,2025-01-29 10:38:25,1
-1068.0,-1470.0,54.39999999999964,-544.8,-312.9,-194.1,2025-01-29 10:38:25,1
60.0,-1330.0,-333.6000000000004,-177.8,-529.9,-45.1,2025-01-29 10:38:25,1
764.0,-1158.0,-613.6000000000004,96.2,-48.900000000000006,-85.1,2025-01-29 10:38:25,1
1168.0,-874.0,-1225.6000000000004,207.2,603.1,-95.1,2025-01-29 10:38:25,1
1220.0,-530.0,-1693.6000000000004,124.2,1133.1,-323.1,2025-01-29 10:38:25,1
568.0,-642.0,-1033.6000000000004,16.200000000000003,1288.1,-462.1,2025-01-29 10:38:25,1
40.0,-474.0,-537.6000000000004,10.200000000000005,1097.1,-471.1,2025-01-29 10:38:25,1
-196.0,-542.0,-593.6000000000004,-320.8,477.1,-437.1,2025-01-29 10:38:25,1
-204.0,-798.0,-341.6000000000004,-510.8,113.1,-333.1,2025-01-29 10:38:25,1
340.0,-910.0,-489.6000000000004,-596.8,170.1,-281.1,2025-01-29 10:38:25,1
536.0,-974.0,-397.6000000000004,-647.8,472.1,-344.1,2025-01-29 10:38:25,1
388.0,-734.0,-409.6000000000004,-682.8,721.1,-430.1,2025-01-29 10:38:25,1
-32.0,-670.0,-289.6000000000004,-679.8,764.1,-602.1,2025-01-29 10:38:25,1
-268.0,-670.0,-305.6000000000004,-839.8,445.1,-766.1,2025-01-29 10:38:25,1
-360.0,-858.0,-97.60000000000036,-915.8,-149.9,-825.1,2025-01-29 10:38:25,1
-84.0,-866.0,-341.6000000000004,-1000.8,-317.9,-711.1,2025-01-29 10:38:25,1
76.0,-1218.0,-441.6000000000004,-1038.8,-253.9,-609.1,2025-01-29 10:38:25,1
384.0,-1346.0,-233.6000000000004,-1018.8,9.099999999999994,-540.1,2025-01-29 10:38:25,1
264.0,-1434.0,-57.60000000000037,-926.8,220.1,-562.1,2025-01-29 10:38:25,1
-100.0,-1402.0,354.39999999999964,-695.8,300.1,-532.1,2025-01-29 10:38:25,1
-276.0,-1522.0,242.39999999999964,-472.8,227.1,-495.1,2025-01-29 10:38:26,1
-156.0,-1502.0,114.39999999999964,-315.8,31.099999999999994,-357.1,2025-01-29 10:38:26,1
-52.0,-1450.0,70.39999999999964,-174.8,-89.9,-260.1,2025-01-29 10:38:26,1
116.0,-1178.0,158.39999999999964,-70.8,-66.9,-182.1,2025-01-29 10:38:26,1
468.0,-974.0,-73.60000000000036,-46.8,10.099999999999994,-183.1,2025-01-29 10:38:26,1
492.0,-958.0,-269.6000000000004,-11.799999999999995,228.1,-210.1,2025-01-29 10:38:26,1
180.0,-858.0,-289.6000000000004,-38.8,436.1,-267.1,2025-01-29 10:38:26,1
-24.0,-662.0,-469.6000000000004,-32.8,404.1,-247.1,2025-01-29 10:38:26,1
-112.0,-626.0,-289.6000000000004,-63.8,354.1,-249.1,2025-01-29 10:38:26,1
-28.0,-634.0,-377.6000000000004,-141.8,169.1,-211.1,2025-01-29 10:38:26,1
60.0,-802.0,-169.60000000000036,-172.8,106.1,-222.1,2025-01-29 10:38:26,1
28.0,-1174.0,-49.60000000000037,-112.8,126.1,-203.1,2025-01-29 10:38:26,1
180.0,-1242.0,-133.60000000000036,-48.8,72.1,-113.1,2025-01-29 10:38:26,1
52.0,-1218.0,150.39999999999964,-26.8,111.1,-189.1,2025-01-29 10:38:26,1
-8.0,-1154.0,154.39999999999964,143.2,208.1,-48.1,2025-01-29 10:38:26,1
-40.0,-922.0,-37.60000000000037,199.2,139.1,-36.1,2025-01-29 10:38:26,1
-52.0,-950.0,-409.6000000000004,197.2,-4.900000000000006,-14.099999999999994,2025-01-29 10:38:26,1
-32.0,-918.0,-365.6000000000004,202.2,-76.9,28.90000000000001,2025-01-29 10:38:26,1
112.0,-1030.0,-153.60000000000036,129.2,-1.9000000000000057,38.900000000000006,2025-01-29 10:38:26,1
76.0,-902.0,-241.6000000000004,111.2,104.1,-7.099999999999994,2025-01-29 10:38:26,1
100.0,-998.0,-241.6000000000004,-3.799999999999997,152.1,-36.1,2025-01-29 10:38:26,1
92.0,-910.0,-85.60000000000036,-70.8,111.1,-26.099999999999994,2025-01-29 10:38:26,1
220.0,-962.0,-205.6000000000004,-95.8,28.099999999999994,-40.1,2025-01-29 10:38:26,1
240.0,-1042.0,-269.6000000000004,-142.8,53.1,-126.1,2025-01-29 10:38:26,1
124.0,-1106.0,90.39999999999964,-203.8,99.1,-192.1,2025-01-29 10:38:26,1
-64.0,-1234.0,102.39999999999964,-110.8,227.1,-202.1,2025-01-29 10:38:26,1
-132.0,-1158.0,-213.6000000000004,-53.8,220.1,-126.1,2025-01-29 10:38:26,1
-12.0,-1182.0,-233.6000000000004,-92.8,186.1,-42.1,2025-01-29 10:38:26,1
-128.0,-1070.0,66.39999999999964,-97.8,186.1,-51.1,2025-01-29 10:38:26,1
-160.0,-1106.0,102.39999999999964,8.200000000000003,176.1,-24.099999999999994,2025-01-29 10:38:26,1
-108.0,-1146.0,-57.60000000000037,82.2,-17.900000000000006,-35.099999999999994,2025-01-29 10:38:26,1
-64.0,-1190.0,-77.60000000000036,140.2,-87.9,14.900000000000006,2025-01-29 10:38:26,1
128.0,-1102.0,-121.60000000000036,132.2,-69.9,-2.0999999999999943,2025-01-29 10:38:26,1
-48.0,-1102.0,-117.60000000000036,135.2,-17.900000000000006,-3.0999999999999943,2025-01-29 10:38:26,1
-48.0,-1006.0,-137.60000000000036,76.2,-14.900000000000006,41.900000000000006,2025-01-29 10:38:26,1
32.0,-1042.0,-209.6000000000004,21.200000000000003,-76.9,-5.099999999999994,2025-01-29 10:38:26,1
-36.0,-998.0,110.39999999999964,31.200000000000003,-66.9,3.9000000000000057,2025-01-29 10:38:26,1
4.0,-1054.0,106.39999999999964,93.2,18.099999999999994,-16.099999999999994,2025-01-29 10:38:26,1
-60.0,-1054.0,226.39999999999964,104.2,-51.900000000000006,-55.1,2025-01-29 10:38:26,1
-64.0,-1194.0,-97.60000000000036,126.2,-86.9,2.9000000000000057,2025-01-29 10:38:26,1
44.0,-1358.0,110.39999999999964,191.2,-36.900000000000006,-10.099999999999994,2025-01-29 10:38:26,1
64.0,-1238.0,-9.600000000000364,244.2,42.1,2.9000000000000057,2025-01-29 10:38:26,1
20.0,-1090.0,34.39999999999964,286.2,115.1,-1.0999999999999943,2025-01-29 10:38:26,1
84.0,-990.0,114.39999999999964,326.2,234.1,-8.099999999999994,2025-01-29 10:38:26,1
144.0,-822.0,-277.6000000000004,277.2,251.1,-38.1,2025-01-29 10:38:26,1
-160.0,-838.0,-257.6000000000004,141.2,179.1,-40.1,2025-01-29 10:38:26,1
-68.0,-918.0,-201.6000000000004,73.2,6.099999999999994,29.90000000000001,2025-01-29 10:38:26,1
0.0,-974.0,-209.6000000000004,35.2,-50.900000000000006,18.90000000000001,2025-01-29 10:38:26,1
24.0,-1158.0,-29.600000000000364,16.200000000000003,-27.90000000000001,54.900000000000006,2025-01-29 10:38:26,1
20.0,-1254.0,-69.60000000000036,70.2,-184.9,119.9,2025-01-29 10:38:26,1
72.0,-1162.0,-225.6000000000004,70.2,-310.9,108.9,2025-01-29 10:38:26,1
320.0,-1190.0,-157.60000000000036,97.2,-140.9,98.9,2025-01-29 10:38:26,1
224.0,-1086.0,-121.60000000000036,79.2,123.1,32.900000000000006,2025-01-29 10:38:26,1
48.0,-1054.0,-45.60000000000037,36.2,288.1,-45.1,2025-01-29 10:38:26,1
-188.0,-1090.0,90.39999999999964,-33.8,262.1,-98.1,2025-01-29 10:38:26,1
-188.0,-1122.0,130.39999999999964,-78.8,59.1,-73.1,2025-01-29 10:38:26,1
8.0,-1222.0,2.399999999999636,-110.8,-199.9,-50.1,2025-01-29 10:38:26,1
208.0,-1234.0,166.39999999999964,-150.8,-112.9,-88.1,2025-01-29 10:38:26,1
300.0,-1174.0,-45.60000000000037,-148.8,131.1,-86.1,2025-01-29 10:38:26,1
276.0,-1274.0,-37.60000000000037,-168.8,269.1,-152.1,2025-01-29 10:38:26,1
-44.0,-1146.0,42.39999999999964,-106.8,331.1,-141.1,2025-01-29 10:38:26,1
-148.0,-1186.0,-133.60000000000036,-89.8,316.1,-105.1,2025-01-29 10:38:27,1
-104.0,-1254.0,-273.6000000000004,-44.8,211.1,-69.1,2025-01-29 10:38:27,1
-8.0,-1278.0,-65.60000000000036,-27.8,40.1,-82.1,2025-01-29 10:38:27,1
20.0,-1306.0,14.399999999999636,-8.799999999999997,-51.900000000000006,-28.099999999999994,2025-01-29 10:38:27,1
108.0,-1442.0,190.39999999999964,43.2,-9.900000000000006,11.900000000000006,2025-01-29 10:38:27,1
140.0,-1206.0,-41.60000000000037,125.2,186.1,64.9,2025-01-29 10:38:27,1
84.0,-1158.0,-141.60000000000036,139.2,328.1,39.900000000000006,2025-01-29 10:38:27,1
112.0,-1042.0,-93.60000000000036,152.2,379.1,35.900000000000006,2025-01-29 10:38:27,1
-4.0,-1134.0,-73.60000000000036,148.2,276.1,17.900000000000006,2025-01-29 10:38:27,1
0.0,-1066.0,-325.6000000000004,94.2,166.1,18.90000000000001,2025-01-29 10:38:27,1
-12.0,-1170.0,6.399999999999636,52.2,100.1,-12.099999999999994,2025-01-29 10:38:27,1
-40.0,-1174.0,-333.6000000000004,69.2,71.1,77.9,2025-01-29 10:38:27,1
-56.0,-1146.0,-345.6000000000004,22.200000000000003,-25.90000000000001,55.900000000000006,2025-01-29 10:38:27,1
-56.0,-1202.0,-221.6000000000004,4.200000000000003,-104.9,86.9,2025-01-29 10:38:27,1
216.0,-1206.0,-281.6000000000004,37.2,-101.9,58.900000000000006,2025-01-29 10:38:27,1
184.0,-1142.0,-201.6000000000004,76.2,-88.9,69.9,2025-01-29 10:38:27,1
268.0,-1114.0,-61.60000000000037,121.2,-33.900000000000006,50.900000000000006,2025-01-29 10:38:27,1
328.0,-1342.0,-109.60000000000036,119.2,76.1,18.90000000000001,2025-01-29 10:38:27,1
160.0,-1202.0,-249.6000000000004,118.2,140.1,15.900000000000006,2025-01-29 10:38:27,1
-4.0,-1186.0,-273.6000000000004,35.2,48.1,25.90000000000001,2025-01-29 10:38:27,1
-28.0,-914.0,-241.6000000000004,-40.8,-19.90000000000001,40.900000000000006,2025-01-29 10:38:27,1
-32.0,-982.0,-401.6000000000004,-119.8,-153.9,-10.099999999999994,2025-01-29 10:38:27,1
88.0,-1038.0,-421.6000000000004,-191.8,-309.9,13.900000000000006,2025-01-29 10:38:27,1
328.0,-922.0,-177.60000000000036,-277.8,-263.9,-35.099999999999994,2025-01-29 10:38:27,1
136.0,-1050.0,30.39999999999964,-309.8,-21.90000000000001,-70.1,2025-01-29 10:38:27,1
-12.0,-1050.0,358.39999999999964,-241.8,125.1,-45.1,2025-01-29 10:38:27,1
-84.0,-1326.0,102.39999999999964,-258.8,-30.90000000000001,-24.099999999999994,2025-01-29 10:38:27,1
-216.0,-1506.0,18.39999999999964,-132.8,-221.9,60.900000000000006,2025-01-29 10:38:27,1
68.0,-1426.0,-321.6000000000004,-22.8,-259.9,79.9,2025-01-29 10:38:27,1
276.0,-1186.0,-305.6000000000004,0.2000000000000028,-186.9,67.9,2025-01-29 10:38:27,1
332.0,-1014.0,10.399999999999636,-5.799999999999997,3.0999999999999943,15.900000000000006,2025-01-29 10:38:27,1
216.0,-794.0,-97.60000000000036,-27.8,127.1,-56.1,2025-01-29 10:38:27,1
56.0,-998.0,-221.6000000000004,-69.8,145.1,-104.1,2025-01-29 10:38:27,1
116.0,-1094.0,-193.6000000000004,-110.8,94.1,-109.1,2025-01-29 10:38:27,1
144.0,-1174.0,-273.6000000000004,-145.8,-32.900000000000006,-146.1,2025-01-29 10:38:27,1
24.0,-1106.0,-101.60000000000036,-193.8,-26.90000000000001,-157.1,2025-01-29 10:38:27,1
272.0,-1014.0,-449.6000000000004,-242.8,72.1,-218.1,2025-01-29 10:38:27,1
40.0,-966.0,-237.6000000000004,-292.8,166.1,-193.1,2025-01-29 10:38:27,1
12.0,-882.0,-77.60000000000036,-343.8,120.1,-237.1,2025-01-29 10:38:27,1
44.0,-1018.0,102.39999999999964,-379.8,50.1,-233.1,2025-01-29 10:38:27,1
-32.0,-1102.0,366.3999999999997,-306.8,40.1,-212.1,2025-01-29 10:38:27,1
8.0,-1242.0,342.39999999999964,-231.8,92.1,-182.1,2025-01-29 10:38:27,1
80.0,-1410.0,242.39999999999964,-56.8,227.1,-164.1,2025-01-29 10:38:27,1
-124.0,-1274.0,410.3999999999997,58.2,353.1,-99.1,2025-01-29 10:38:27,1
-256.0,-1278.0,114.39999999999964,151.2,318.1,-50.1,2025-01-29 10:38:27,1
-144.0,-1102.0,-93.60000000000036,213.2,202.1,-17.099999999999994,2025-01-29 10:38:27,1
-240.0,-946.0,-17.600000000000364,282.2,15.099999999999994,24.90000000000001,2025-01-29 10:38:27,1
-88.0,-870.0,106.39999999999964,318.2,-32.900000000000006,97.9,2025-01-29 10:38:27,1
4.0,-1066.0,126.39999999999964,325.2,-15.900000000000006,143.9,2025-01-29 10:38:27,1
-104.0,-1262.0,150.39999999999964,371.2,63.1,158.9,2025-01-29 10:38:27,1
-140.0,-1182.0,-17.600000000000364,403.2,-51.900000000000006,175.9,2025-01-29 10:38:27,1
-40.0,-1182.0,-121.60000000000036,352.2,-121.9,172.9,2025-01-29 10:38:27,1
68.0,-1174.0,-125.60000000000036,342.2,-239.9,171.9,2025-01-29 10:38:27,1
0.0,-1090.0,-277.6000000000004,212.2,-324.9,111.9,2025-01-29 10:38:27,1
36.0,-1034.0,-105.60000000000036,229.2,-332.9,64.9,2025-01-29 10:38:27,1
120.0,-1058.0,-257.6000000000004,152.2,-391.9,58.900000000000006,2025-01-29 10:38:27,1
204.0,-1334.0,110.39999999999964,126.2,-296.9,-1.0999999999999943,2025-01-29 10:38:27,1
196.0,-1390.0,90.39999999999964,194.2,-82.9,19.90000000000001,2025-01-29 10:38:27,1
200.0,-1218.0,-101.60000000000036,181.2,30.099999999999994,5.900000000000006,2025-01-29 10:38:27,1
132.0,-1146.0,-181.6000000000004,153.2,137.1,-81.1,2025-01-29 10:38:27,1
80.0,-1174.0,-29.600000000000364,190.2,116.1,-82.1,2025-01-29 10:38:27,1
-144.0,-1062.0,202.39999999999964,187.2,111.1,-71.1,2025-01-29 10:38:27,1
156.0,-1210.0,18.39999999999964,141.2,22.099999999999994,-101.1,2025-01-29 10:38:28,1
180.0,-1342.0,-133.60000000000036,138.2,17.099999999999994,-45.1,2025-01-29 10:38:28,1
188.0,-1282.0,-89.60000000000036,108.2,34.099999999999994,-31.099999999999994,2025-01-29 10:38:28,1
-28.0,-1194.0,166.39999999999964,146.2,207.1,-13.099999999999994,2025-01-29 10:38:28,1
-68.0,-1222.0,182.39999999999964,226.2,285.1,17.900000000000006,2025-01-29 10:38:28,1
-36.0,-1222.0,-237.6000000000004,226.2,96.1,24.90000000000001,2025-01-29 10:38:28,1
