acceleration_x,acceleration_y,acceleration_z,gyroscope_x,gyroscope_y,gyroscope_z,timestamp,label
-11656,-856,-924,-606,-1020,555,2025-02-17 11:22:34,0.0
-11536,-1068,-848,23,725,-388,2025-02-17 11:22:34,0.0
-12436,-488,-3060,-778,2493,-341,2025-02-17 11:22:34,0.0
-11860,-324,-3404,-3032,4824,-487,2025-02-17 11:22:34,0.0
-11700,-1012,-1608,-3639,7602,-1035,2025-02-17 11:22:34,0.0
-12700,-676,-3440,-4132,11098,-1012,2025-02-17 11:22:34,0.0
-12556,-1092,-2768,-5555,14432,-416,2025-02-17 11:22:34,0.0
-13504,-1420,-3300,-5542,15617,-90,2025-02-17 11:22:34,0.0
-13460,-1268,-3584,-5552,14081,-188,2025-02-17 11:22:34,0.0
-14432,-1484,-1816,-2756,8920,-1737,2025-02-17 11:22:34,0.0
-17704,-2096,-1568,-184,2897,-734,2025-02-17 11:22:34,0.0
-16284,-1628,-3432,1130,-2677,593,2025-02-17 11:22:34,0.0
-13276,-832,-4240,1025,-5737,142,2025-02-17 11:22:34,0.0
-12336,-692,-4996,45,-6071,-719,2025-02-17 11:22:34,0.0
-11832,-920,-4260,-964,-4178,-439,2025-02-17 11:22:34,0.0
-10816,-572,-4036,-2213,-1127,-569,2025-02-17 11:22:34,0.0
-11948,-1408,-2096,-1917,1794,-479,2025-02-17 11:22:34,0.0
-12604,-1876,-1876,61,2586,-252,2025-02-17 11:22:34,0.0
-13684,-1704,-3396,1335,1525,-147,2025-02-17 11:22:34,0.0
-13796,-1148,-3356,1696,75,-276,2025-02-17 11:22:34,0.0
-13480,-412,-5208,782,-1599,-317,2025-02-17 11:22:34,0.0
-12184,460,-5124,-2772,-392,-575,2025-02-17 11:22:34,0.0
-13160,-1488,-3084,-1633,191,-730,2025-02-17 11:22:34,0.0
-12676,-1764,-2380,-433,633,-87,2025-02-17 11:22:34,0.0
-12956,-1280,-2976,-100,722,39,2025-02-17 11:22:34,0.0
-13692,-1672,-2476,994,67,120,2025-02-17 11:22:34,0.0
-13436,-1368,-2952,1882,-1038,206,2025-02-17 11:22:34,0.0
-13444,-692,-3900,1152,-1715,31,2025-02-17 11:22:34,0.0
-13340,-868,-3884,340,-1565,222,2025-02-17 11:22:34,0.0
-12836,-1336,-2772,414,-1267,472,2025-02-17 11:22:34,0.0
-12776,-1436,-2668,1352,-1520,325,2025-02-17 11:22:34,0.0
-13176,-1200,-4124,1140,-1547,483,2025-02-17 11:22:34,0.0
-13064,-1008,-3472,696,-778,535,2025-02-17 11:22:34,0.0
-12852,-960,-2928,763,-193,451,2025-02-17 11:22:34,0.0
-13164,-896,-3960,584,225,654,2025-02-17 11:22:34,0.0
-13016,-668,-3736,-155,719,964,2025-02-17 11:22:34,0.0
-12840,-924,-3116,10,1165,810,2025-02-17 11:22:34,0.0
-13340,-996,-2924,322,1344,832,2025-02-17 11:22:34,0.0
-13616,-732,-3024,160,1248,1232,2025-02-17 11:22:34,0.0
-13452,-628,-2472,262,908,1351,2025-02-17 11:22:34,0.0
-13236,-576,-2596,515,402,1189,2025-02-17 11:22:34,0.0
-13236,-312,-3416,348,-56,1001,2025-02-17 11:22:34,0.0
-12624,-300,-3168,-177,-205,532,2025-02-17 11:22:34,0.0
-12596,-564,-2684,127,241,5,2025-02-17 11:22:34,0.0
-12728,-888,-3144,192,838,-28,2025-02-17 11:22:34,0.0
-13172,-908,-3040,204,1170,41,2025-02-17 11:22:34,0.0
-13728,-1108,-2608,438,1244,300,2025-02-17 11:22:34,0.0
-13688,-1136,-3368,548,1002,781,2025-02-17 11:22:34,0.0
-13424,-968,-3164,586,478,950,2025-02-17 11:22:35,0.0
-12924,-840,-2668,1056,219,686,2025-02-17 11:22:35,0.0
-13356,-880,-2960,1398,226,611,2025-02-17 11:22:35,0.0
-13044,-1040,-2528,1686,454,758,2025-02-17 11:22:35,0.0
-12956,-1184,-2852,2059,369,711,2025-02-17 11:22:35,0.0
-13496,-552,-5680,829,354,956,2025-02-17 11:22:35,0.0
-12836,80,-3444,-233,803,941,2025-02-17 11:22:35,0.0
-12328,-168,-2400,701,662,56,2025-02-17 11:22:35,0.0
-13628,208,-3360,575,401,191,2025-02-17 11:22:35,0.0
-13256,116,-2512,875,328,432,2025-02-17 11:22:35,0.0
-13268,-76,-2940,1300,419,764,2025-02-17 11:22:35,0.0
-12856,648,-2532,876,1741,116,2025-02-17 11:22:35,0.0
-13216,1372,-4064,347,2456,260,2025-02-17 11:22:35,0.0
-13540,1312,-4388,-279,3241,-34,2025-02-17 11:22:35,0.0
-13912,676,-4220,-542,3193,-127,2025-02-17 11:22:35,0.0
-14060,80,-2564,-271,1912,-294,2025-02-17 11:22:35,0.0
-13944,128,-2900,180,-287,-352,2025-02-17 11:22:35,0.0
-13712,896,-3332,-234,-1891,-342,2025-02-17 11:22:35,0.0
-13156,1328,-4424,-1058,-2582,-692,2025-02-17 11:22:35,0.0
-13008,1028,-3480,-1700,-2876,-1310,2025-02-17 11:22:35,0.0
-12968,368,-2348,-1156,-3212,-2127,2025-02-17 11:22:35,0.0
-13452,-964,-2144,-892,-3233,-2647,2025-02-17 11:22:35,0.0
-13696,-1528,-2872,-715,-3018,-3057,2025-02-17 11:22:35,0.0
-13544,-1148,-3724,-124,-3268,-3088,2025-02-17 11:22:35,0.0
-12888,-1008,-3328,838,-3501,-3059,2025-02-17 11:22:35,0.0
-12372,-1692,-2792,1359,-3234,-3159,2025-02-17 11:22:35,0.0
-13252,-2508,-2544,1076,-2391,-2997,2025-02-17 11:22:35,0.0
-14520,-2668,-2684,678,-2263,-2153,2025-02-17 11:22:35,0.0
-14036,-2112,-2716,660,-3467,-1809,2025-02-17 11:22:35,0.0
-13324,-1316,-1276,947,-4093,-2315,2025-02-17 11:22:35,0.0
-12012,-772,320,1123,-3789,-2579,2025-02-17 11:22:35,0.0
-11484,-1160,444,1179,-2338,-2743,2025-02-17 11:22:35,0.0
-11620,-2188,-1252,784,437,-2761,2025-02-17 11:22:35,0.0
-12244,-2892,-1984,-32,3307,-2703,2025-02-17 11:22:35,0.0
-12964,-2900,-1808,-188,4795,-2660,2025-02-17 11:22:35,0.0
-14340,-2312,-1904,-225,3473,-1986,2025-02-17 11:22:35,0.0
-14332,-1756,-1316,-326,1550,-1421,2025-02-17 11:22:35,0.0
-14596,-896,-1244,-679,-268,-1033,2025-02-17 11:22:35,0.0
-13140,-568,-1692,-1048,-1085,-881,2025-02-17 11:22:35,0.0
-12396,-708,-1552,-1345,-1488,-982,2025-02-17 11:22:35,0.0
-11536,-1268,-1248,-1727,-1084,-1395,2025-02-17 11:22:35,0.0
-11884,-2008,-816,-1678,153,-1872,2025-02-17 11:22:35,0.0
-12732,-2640,-380,-1407,1773,-1836,2025-02-17 11:22:35,0.0
-13772,-2280,24,-120,2666,-1724,2025-02-17 11:22:35,0.0
-15356,-1848,-1100,-1234,1478,-1591,2025-02-17 11:22:35,0.0
-15968,-2068,600,-1473,-479,-863,2025-02-17 11:22:35,0.0
-13948,-2380,864,-1045,-4396,-54,2025-02-17 11:22:35,0.0
-11932,-2496,936,-784,-6600,-657,2025-02-17 11:22:36,0.0
-11828,-2712,1576,-349,-6190,-1052,2025-02-17 11:22:36,0.0
-12492,-2356,116,-413,-3668,-816,2025-02-17 11:22:36,0.0
-12760,-1608,-1012,-1753,201,-359,2025-02-17 11:22:36,0.0
-12452,-1816,-632,-3229,2906,-389,2025-02-17 11:22:36,
-13164,-2028,464,-3707,3291,-746,2025-02-17 11:22:36,0.0
-14168,-2208,1044,-3736,1778,-972,2025-02-17 11:22:36,0.0
-14728,-2476,516,-3849,563,-704,2025-02-17 11:22:36,0.0
-13944,-2696,192,-4050,-255,-674,2025-02-17 11:22:36,0.0
-13884,-3188,160,-4280,-259,-722,2025-02-17 11:22:36,0.0
-13956,-4148,812,-4485,897,-615,2025-02-17 11:22:36,0.0
-14572,-4772,1048,-4530,2078,-363,2025-02-17 11:22:36,0.0
-14808,-5748,524,-4562,2503,-186,2025-02-17 11:22:36,0.0
-15672,-5044,-2764,-4800,3639,-1034,2025-02-17 11:22:36,0.0
-16908,-4124,-2360,-3781,7894,-2054,2025-02-17 11:22:36,0.0
-16956,-4680,-4488,-2629,9929,-3773,2025-02-17 11:22:36,0.0
-19808,-5644,-5200,-1864,6839,-3424,2025-02-17 11:22:36,0.0
-19332,-5668,-5484,25,2685,-1208,2025-02-17 11:22:36,0.0
-18736,-4516,-5768,1698,-719,388,2025-02-17 11:22:36,0.0
-17768,-3064,-6772,2186,-4223,2615,2025-02-17 11:22:36,0.0
-14948,-1912,-7332,2258,-7004,4822,2025-02-17 11:22:36,0.0
-11868,-632,-6492,2064,-8596,6037,2025-02-17 11:22:36,0.0
-9252,664,-5288,1877,-7966,5391,2025-02-17 11:22:36,0.0
-7996,2552,-4288,1685,-6193,3525,2025-02-17 11:22:36,0.0
-9072,2528,-5584,805,-3213,1792,2025-02-17 11:22:36,0.0
-11120,796,-5492,-600,781,1672,2025-02-17 11:22:36,0.0
-12508,-1904,-2372,-794,3481,2326,2025-02-17 11:22:36,0.0
-13860,-2872,-3372,-281,4336,2828,2025-02-17 11:22:36,0.0
-14828,-2204,-4324,-159,3833,3912,2025-02-17 11:22:36,0.0
-13664,-1100,-3144,138,1311,4414,2025-02-17 11:22:36,0.0
-12724,-792,-3784,391,-1136,4256,2025-02-17 11:22:36,0.0
-11832,-284,-3728,409,-2450,4199,2025-02-17 11:22:36,0.0
-10316,48,-3088,190,-2423,3978,2025-02-17 11:22:36,0.0
-9516,760,-2184,531,-2013,3497,2025-02-17 11:22:36,0.0
-9448,1408,-2340,1065,-940,2976,2025-02-17 11:22:36,0.0
-9584,1572,-2608,1195,592,2130,2025-02-17 11:22:36,0.0
-10084,1196,-2452,1119,1316,1224,2025-02-17 11:22:36,0.0
-11220,972,-2336,986,1700,530,2025-02-17 11:22:36,0.0
-12248,996,-2596,895,1842,257,2025-02-17 11:22:36,0.0
-11896,528,-3228,920,1686,-27,2025-02-17 11:22:36,0.0
-12764,100,-2572,1088,1236,-409,2025-02-17 11:22:36,0.0
-13088,-256,-2780,1140,906,-246,2025-02-17 11:22:36,0.0
-12948,-288,-2504,1067,1156,-99,2025-02-17 11:22:36,0.0
-13488,-520,-1764,1099,1575,75,2025-02-17 11:22:36,0.0
-14136,-376,-1464,1246,1402,235,2025-02-17 11:22:36,0.0
-15136,-260,-1132,1479,-39,419,2025-02-17 11:22:36,0.0
-14836,204,-1564,1840,-1808,567,2025-02-17 11:22:36,0.0
-14468,688,-2352,2203,-3254,452,2025-02-17 11:22:36,0.0
-14324,1148,-3064,2523,-3985,587,2025-02-17 11:22:36,0.0
-13080,708,-2988,2559,-4128,778,2025-02-17 11:22:36,0.0
-13164,-324,-1608,2801,-2452,660,2025-02-17 11:22:36,0.0
-14036,-832,-1380,3358,-66,1158,2025-02-17 11:22:36,0.0
-14400,-464,-1104,3763,516,1766,2025-02-17 11:22:36,0.0
-14740,516,-80,4375,-862,2627,2025-02-17 11:22:36,0.0
-12776,1096,320,5201,-3850,2392,2025-02-17 11:22:36,0.0
-12200,1280,292,5819,-5740,1223,2025-02-17 11:22:36,0.0
-12176,852,-1212,6510,-4955,393,2025-02-17 11:22:36,0.0
-13140,1568,-3648,6774,-2836,142,2025-02-17 11:22:36,0.0
-14700,2044,-4472,6852,-487,-172,2025-02-17 11:22:36,0.0
-18448,2152,-7000,6668,3339,-598,2025-02-17 11:22:36,0.0
-19228,1696,-9636,6577,5390,328,2025-02-17 11:22:36,0.0
-17196,1568,-7252,6093,3824,1314,2025-02-17 11:22:36,0.0
-13004,416,-3552,5751,-2306,378,2025-02-17 11:22:36,0.0
-9224,-1804,-2104,5731,-9666,-1762,2025-02-17 11:22:36,0.0
-9212,-3228,-2664,5285,-15998,-3191,2025-02-17 11:22:36,0.0
-8516,-4244,-3768,3500,-17385,-4094,2025-02-17 11:22:36,0.0
-10084,-3728,-3168,1650,-9881,-5406,2025-02-17 11:22:37,0.0
-11608,-3080,-72,1733,2442,-5326,2025-02-17 11:22:37,0.0
-12944,-2980,-4368,2642,9196,-4234,2025-02-17 11:22:37,0.0
-15132,-772,-6008,-968,11341,-2408,2025-02-17 11:22:37,0.0
-14844,192,-2724,-1657,10031,-1584,2025-02-17 11:22:37,0.0
-14480,-1632,-1608,-1139,5153,-2274,2025-02-17 11:22:37,0.0
-16028,-2196,-616,-184,1328,-1598,2025-02-17 11:22:37,0.0
-14396,-2208,-1176,641,-299,-483,2025-02-17 11:22:37,0.0
-12280,-2340,-1664,1043,-828,-656,2025-02-17 11:22:37,0.0
-11712,-3084,-1480,1634,1673,-1535,2025-02-17 11:22:37,0.0
-12532,-3560,-1000,1975,2489,-1673,2025-02-17 11:22:37,0.0
-14532,-3740,572,2616,2893,-1166,2025-02-17 11:22:37,0.0
-14076,-3600,-344,3174,2531,-525,2025-02-17 11:22:37,0.0
-13904,-3368,-624,3633,1639,131,2025-02-17 11:22:37,0.0
-13656,-3256,-304,4768,657,1196,2025-02-17 11:22:37,0.0
-13080,-2972,-456,5416,46,2306,2025-02-17 11:22:37,0.0
-12008,-2884,84,6209,-550,3500,2025-02-17 11:22:37,0.0
-10892,-3024,-592,6946,-800,4351,2025-02-17 11:22:37,0.0
-10812,-3064,-1240,7348,-332,5032,2025-02-17 11:22:37,0.0
-10988,-3492,-692,8266,1131,5498,2025-02-17 11:22:37,0.0
-12320,-4500,692,9518,3573,5995,2025-02-17 11:22:37,0.0
-13336,-5636,472,10053,6356,6640,2025-02-17 11:22:37,0.0
-13652,-6760,-1256,10577,6993,6294,2025-02-17 11:22:37,0.0
-15684,-5828,-4624,11716,9071,5183,2025-02-17 11:22:37,0.0
-17384,-4444,-6580,11867,12798,3412,2025-02-17 11:22:37,0.0
-11088,-5128,-2328,15860,-2968,3583,2025-02-17 11:22:37,0.0
-10780,-6784,-4568,16354,-1040,2680,2025-02-17 11:22:37,0.0
-11168,-5748,-5432,17234,1280,3787,2025-02-17 11:22:37,0.0
-10844,-4652,-6884,17805,3285,4485,2025-02-17 11:22:37,0.0
-11592,-3196,-6900,17726,5092,3997,2025-02-17 11:22:37,0.0
-14220,-320,-5852,18112,4565,3212,2025-02-17 11:22:37,0.0
-14844,660,-5688,19037,964,2618,2025-02-17 11:22:37,0.0
-14880,288,-6672,19018,-3078,2781,2025-02-17 11:22:37,0.0
-12616,-568,-6724,19070,-5563,3041,2025-02-17 11:22:37,0.0
-9280,-2948,-6864,19539,-6250,1551,2025-02-17 11:22:37,0.0
-9836,-4132,-6100,19739,-2919,109,2025-02-17 11:22:37,0.0
-10188,-3540,-5592,19323,2810,-652,2025-02-17 11:22:37,0.0
-11312,-2152,-5872,18627,5377,-1255,2025-02-17 11:22:37,0.0
-13572,-1484,-5112,18082,5866,-1532,2025-02-17 11:22:37,
-13896,-1952,-4444,18873,3790,-1621,2025-02-17 11:22:37,0.0
-15440,-2760,-4940,18473,1147,-1055,2025-02-17 11:22:37,0.0
-13416,-2916,-4812,18810,-253,-566,2025-02-17 11:22:37,0.0
-11972,-2664,-5988,18477,154,-1565,2025-02-17 11:22:37,0.0
-12112,-1616,-7172,16082,3016,-2696,2025-02-17 11:22:37,0.0
-12944,-2044,-6644,13058,5883,-3869,2025-02-17 11:22:37,5
-13764,-2368,-5272,11622,7358,-4539,2025-02-17 11:22:37,5
-14404,-3116,-5908,11103,6876,-4602,2025-02-17 11:22:37,5
-13252,-2972,-6016,10616,3580,-4657,2025-02-17 11:22:37,5
-12204,-1880,-5480,9014,-86,-5144,2025-02-17 11:22:37,5
-10736,-1060,-4452,7460,-2193,-7127,2025-02-17 11:22:37,5
-11968,260,-3432,3490,-4719,-13615,2025-02-17 11:22:37,5
-13088,888,-4636,1622,-6618,-17087,2025-02-17 11:22:37,5
-16512,708,-4148,237,-9573,-18435,2025-02-17 11:22:38,5
-15760,-1756,-5196,-386,-11539,-19179,2025-02-17 11:22:38,5
-20156,1152,-6568,-1117,-6819,-15925,2025-02-17 11:22:38,5
-16968,1120,-5932,-3532,-3665,-13986,2025-02-17 11:22:38,5
-13424,568,-3800,-6425,-2340,-15806,2025-02-17 11:22:38,5
-8992,844,-552,-6928,-2455,-19899,2025-02-17 11:22:38,5
-8868,1176,-492,-4802,2083,-23950,2025-02-17 11:22:38,5
-7948,540,1808,705,10065,-26512,2025-02-17 11:22:38,5
-6512,-1348,1916,7571,15662,-24932,2025-02-17 11:22:38,5
136,-3768,1596,17765,7439,-10934,2025-02-17 11:22:38,5
-1528,-2932,208,15562,944,-2427,2025-02-17 11:22:38,5
1024,-1360,312,12791,-372,1705,2025-02-17 11:22:38,5
1072,-908,1340,11822,-354,3309,2025-02-17 11:22:38,5
2640,-764,1232,11052,-129,3523,2025-02-17 11:22:38,5
2548,-456,1252,10632,-207,3515,2025-02-17 11:22:38,5
3812,-408,1084,9986,-422,2677,2025-02-17 11:22:38,5
4680,-1524,328,9052,-213,1020,2025-02-17 11:22:38,5
-24808,-7400,16096,-11238,13601,-24304,2025-02-17 11:22:38,5
2200,-2084,5588,-17867,21957,-32768,2025-02-17 11:22:38,5
2088,-2248,4108,-12930,23392,-32768,2025-02-17 11:22:38,5
464,-2096,2712,-10374,24580,-32768,2025-02-17 11:22:38,5
400,-2104,1948,-8646,25950,-30314,2025-02-17 11:22:38,5
-724,-1808,2060,-7751,27523,-26192,2025-02-17 11:22:38,5
-1836,-1752,2920,-6328,28706,-19758,2025-02-17 11:22:38,5
1960,-672,4936,-2937,29266,-16008,2025-02-17 11:22:38,5
2716,-468,3516,254,29884,-16154,2025-02-17 11:22:38,5
2504,-684,2840,2367,30084,-16312,2025-02-17 11:22:38,5
2552,-804,2516,3798,30402,-15831,2025-02-17 11:22:38,5
2776,-640,2776,5185,30545,-15877,2025-02-17 11:22:38,5
2916,-764,2600,6658,30682,-15701,2025-02-17 11:22:38,5
5276,-800,12400,12119,30495,-16063,2025-02-17 11:22:38,5
1936,-444,16712,26884,28565,-15949,2025-02-17 11:22:38,5
3712,-10736,25908,32767,25935,-12242,2025-02-17 11:22:38,5
32767,-32768,-8228,32767,32767,-25159,2025-02-17 11:22:38,5
32767,-32768,-21232,32767,32767,-29123,2025-02-17 11:22:38,5
32767,-32768,-3628,32767,32767,-22672,2025-02-17 11:22:38,5
-132,-6588,5188,-12192,3065,3892,2025-02-17 11:22:38,5
-4,-8348,8296,-15256,-5694,4873,2025-02-17 11:22:38,5
1460,-9260,12256,-17497,-15553,5070,2025-02-17 11:22:38,5
4500,-12248,14332,-17258,-22056,3833,2025-02-17 11:22:38,5
5560,-14004,16908,-15084,-25428,2791,2025-02-17 11:22:38,5
5600,-15480,18284,-11879,-28533,1652,2025-02-17 11:22:38,5
9024,-18764,16904,-8607,-30766,-103,2025-02-17 11:22:38,5
12420,-21952,-5324,-10078,-29486,-3389,2025-02-17 11:22:38,5
14740,-25120,12300,-14252,-24134,-8686,2025-02-17 11:22:38,5
16572,-24672,11652,-15309,-23118,-15685,2025-02-17 11:22:38,5
14796,-21412,6848,-14591,-18920,-18277,2025-02-17 11:22:38,5
12744,-15692,6332,-14080,-14885,-18707,2025-02-17 11:22:38,5
12724,-10284,8380,-11900,-18847,-14442,2025-02-17 11:22:38,5
11776,-6936,10396,-5734,-25713,-6520,2025-02-17 11:22:38,5
13060,-8796,4960,-760,-21826,-722,2025-02-17 11:22:38,5
12012,-12332,-1464,-1652,-10416,1065,2025-02-17 11:22:38,5
9828,-13752,120,-2510,-589,2540,2025-02-17 11:22:39,5
11768,-12812,5840,2731,3722,-283,2025-02-17 11:22:39,5
12412,-12672,5640,2676,3636,-445,2025-02-17 11:22:39,5
12600,-13056,6192,2332,2773,-268,2025-02-17 11:22:39,5
12504,-13176,6200,1064,2616,-154,2025-02-17 11:22:39,5
12292,-12740,6932,303,992,167,2025-02-17 11:22:39,5
12228,-12944,6248,-75,-95,162,2025-02-17 11:22:39,5
12080,-13092,6280,-325,-358,-240,2025-02-17 11:22:39,5
12156,-12732,5660,-246,-269,-312,2025-02-17 11:22:39,5
12360,-12728,5688,-138,29,-223,2025-02-17 11:22:39,5
12328,-12860,5820,-86,483,-90,2025-02-17 11:22:39,5
12204,-12992,6080,-98,386,-156,2025-02-17 11:22:39,5
12220,-12828,6008,-172,141,-190,2025-02-17 11:22:39,5
12256,-12920,6032,-171,95,-185,2025-02-17 11:22:39,5
12352,-12884,5980,-157,166,-134,2025-02-17 11:22:39,5
12300,-12904,5916,-167,196,-136,2025-02-17 11:22:39,5
12296,-12852,5872,-125,245,-205,2025-02-17 11:22:39,5
12156,-12896,5832,-109,231,-215,2025-02-17 11:22:39,5
12324,-12908,6060,-148,216,-178,2025-02-17 11:22:39,5
12236,-12852,5924,-188,180,-166,2025-02-17 11:22:39,5
12176,-12944,5964,-173,130,-167,2025-02-17 11:22:39,5
12220,-12892,5776,-168,182,-205,2025-02-17 11:22:39,5
12204,-12888,5916,-143,243,-179,2025-02-17 11:22:39,5
12256,-12868,5980,-138,251,-168,2025-02-17 11:22:39,5
12344,-12864,5996,-158,156,-174,2025-02-17 11:22:39,5
12280,-12864,6112,-172,126,-193,2025-02-17 11:22:39,5
12228,-12932,5852,-170,156,-175,2025-02-17 11:22:39,5
12312,-12936,5892,-147,223,-169,2025-02-17 11:22:39,5
12168,-12844,5816,-156,234,-173,2025-02-17 11:22:39,5
12252,-12916,6000,-137,186,-182,2025-02-17 11:22:39,5
12252,-12952,6008,-164,145,-177,2025-02-17 11:22:39,5
12316,-12884,5972,-166,188,-174,2025-02-17 11:22:39,5
12332,-12880,5688,-178,188,-140,2025-02-17 11:22:39,5
12188,-12800,5924,-152,201,-176,2025-02-17 11:22:39,5
12328,-12820,6080,-127,158,-153,2025-02-17 11:22:39,5
12204,-12836,6056,-174,153,-178,2025-02-17 11:22:39,5
12256,-12816,6032,-160,185,-168,2025-02-17 11:22:39,5
12204,-12892,5808,-159,187,-172,2025-02-17 11:22:39,5
12292,-12952,5880,-124,212,-151,2025-02-17 11:22:39,5
12268,-12916,5892,-153,167,-174,2025-02-17 11:22:39,5
12160,-12932,5924,-178,156,-178,2025-02-17 11:22:39,5
12272,-12848,5896,-155,181,-183,2025-02-17 11:22:39,5
12356,-12856,5752,-167,179,-168,2025-02-17 11:22:39,5
12196,-12856,5904,-149,187,-202,2025-02-17 11:22:39,5
12220,-12964,6120,-150,185,-183,2025-02-17 11:22:39,5
12256,-12864,5884,-187,166,-160,2025-02-17 11:22:39,5
12320,-12892,5940,-147,150,-184,2025-02-17 11:22:39,5
12256,-12884,6060,-130,169,-190,2025-02-17 11:22:39,5
12268,-12820,5984,-172,180,-183,2025-02-17 11:22:39,5
12264,-12832,6056,-183,167,-177,2025-02-17 11:22:39,5
12140,-12816,6024,-164,193,-173,2025-02-17 11:22:39,5
12212,-12832,6012,-150,186,-187,2025-02-17 11:22:39,5
12220,-12848,6012,-157,184,-190,2025-02-17 11:22:39,0.0
12124,-12836,5984,-140,190,-166,2025-02-17 11:22:39,0.0
12280,-12912,5924,-160,163,-172,2025-02-17 11:22:39,0.0
12236,-12864,5956,-153,180,-176,2025-02-17 11:22:39,0.0
12236,-12828,5936,-153,194,-184,2025-02-17 11:22:39,0.0
12268,-12900,5860,-169,167,-186,2025-02-17 11:22:39,0.0
12232,-12876,5956,-140,167,-172,2025-02-17 11:22:39,0.0
12280,-12900,5964,-164,182,-177,2025-02-17 11:22:39,0.0
12316,-12784,6012,-138,159,-184,2025-02-17 11:22:40,0.0
12316,-12788,6040,-170,212,-167,2025-02-17 11:22:40,0.0
12172,-12976,5956,-169,136,-173,2025-02-17 11:22:40,0.0
12140,-12748,5892,-129,277,-199,2025-02-17 11:22:40,0.0
12300,-12888,6104,-198,192,-154,2025-02-17 11:22:40,0.0
12264,-12828,5888,-171,131,-164,2025-02-17 11:22:40,0.0
12204,-12876,6000,-149,189,-185,2025-02-17 11:22:40,0.0
12184,-12784,5976,-132,229,-181,2025-02-17 11:22:40,0.0
12268,-12988,6100,-198,114,-155,2025-02-17 11:22:40,0.0
12236,-12880,6004,-152,153,-161,2025-02-17 11:22:40,0.0
12248,-12880,6060,-163,190,-204,2025-02-17 11:22:40,0.0
12256,-12884,6052,-130,185,-186,2025-02-17 11:22:40,0.0
12236,-12952,5972,-167,180,-190,2025-02-17 11:22:40,0.0
12352,-12876,5916,-173,192,-136,2025-02-17 11:22:40,0.0
12168,-12908,5960,-145,175,-185,2025-02-17 11:22:40,0.0
12316,-12792,5852,-141,185,-181,2025-02-17 11:22:40,0.0
12308,-12892,5944,-165,180,-147,2025-02-17 11:22:40,0.0
12292,-12840,5976,-177,185,-165,2025-02-17 11:22:40,0.0
12188,-12828,5916,-154,188,-160,2025-02-17 11:22:40,0.0
12240,-12856,5896,-127,179,-193,2025-02-17 11:22:40,0.0
12348,-12812,6160,-173,173,-176,2025-02-17 11:22:40,0.0
12188,-12920,5892,-128,164,-183,2025-02-17 11:22:40,0.0
12264,-12848,5964,-142,160,-179,2025-02-17 11:22:40,0.0
12236,-12888,5952,-152,170,-151,2025-02-17 11:22:40,0.0
12244,-12796,5940,-141,199,-179,2025-02-17 11:22:40,0.0
12212,-12920,5888,-140,178,-199,2025-02-17 11:22:40,0.0
12220,-12832,5976,-168,153,-199,2025-02-17 11:22:40,0.0
12156,-12924,5960,-141,168,-172,2025-02-17 11:22:40,0.0
12220,-12828,5828,-142,198,-180,2025-02-17 11:22:40,0.0
12248,-12928,6028,-156,172,-155,2025-02-17 11:22:40,0.0
12296,-12936,6068,-157,174,-180,2025-02-17 11:22:40,0.0
12160,-12820,5880,-165,173,-188,2025-02-17 11:22:40,0.0
12308,-12820,5928,-126,161,-168,2025-02-17 11:22:40,0.0
12256,-12892,5956,-147,157,-206,2025-02-17 11:22:40,0.0
12304,-12912,5972,-130,186,-179,2025-02-17 11:22:40,0.0
12204,-12792,5932,-143,137,-155,2025-02-17 11:22:40,0.0
12260,-12796,6036,-183,180,-186,2025-02-17 11:22:40,0.0
12196,-12852,5948,-175,183,-178,2025-02-17 11:22:40,0.0
12192,-12920,5920,-149,169,-200,2025-02-17 11:22:40,0.0
12212,-12712,5980,-9,129,-99,2025-02-17 11:22:40,0.0
11824,-11860,5052,1673,424,250,2025-02-17 11:22:40,0.0
11512,-13176,5744,1709,2298,-355,2025-02-17 11:22:40,0.0
12268,-14348,6156,1705,2429,84,2025-02-17 11:22:40,0.0
13272,-13492,7040,2,3120,561,2025-02-17 11:22:40,0.0
10656,-14108,7620,-1409,15,-930,2025-02-17 11:22:40,0.0
12704,-12220,7184,-2041,-3398,215,2025-02-17 11:22:40,0.0
11888,-12472,5148,-3119,-2663,218,2025-02-17 11:22:40,0.0
12416,-12684,5852,-2870,-1362,981,2025-02-17 11:22:40,0.0
12028,-13000,5636,-1197,-736,945,2025-02-17 11:22:40,0.0
11612,-12824,5452,80,253,693,2025-02-17 11:22:40,0.0
11912,-12732,4280,936,1360,-412,2025-02-17 11:22:40,0.0
13560,-13676,6320,1749,748,106,2025-02-17 11:22:40,0.0
13324,-13136,5852,1565,1036,986,2025-02-17 11:22:40,0.0
12356,-12440,6248,1425,1433,1860,2025-02-17 11:22:40,0.0
11560,-13072,6144,898,934,2273,2025-02-17 11:22:40,0.0
12176,-13408,6504,-168,969,1932,2025-02-17 11:22:40,0.0
11472,-13324,6584,-1281,456,1335,2025-02-17 11:22:40,0.0
11900,-13292,6404,-2512,-445,284,2025-02-17 11:22:40,0.0
11000,-13628,6384,-3740,-1403,-798,2025-02-17 11:22:41,0.0
11824,-13864,6172,-5550,-1783,-1762,2025-02-17 11:22:41,0.0
11784,-13480,6740,-7202,-1936,-2182,2025-02-17 11:22:41,0.0
12348,-12932,6188,-8263,-3531,-1546,2025-02-17 11:22:41,0.0
12544,-12516,5948,-8260,-4167,-526,2025-02-17 11:22:41,0.0
12352,-12716,5112,-7466,-5622,154,2025-02-17 11:22:41,0.0
12144,-13216,3140,-7167,-3030,381,2025-02-17 11:22:41,0.0
11744,-13164,4708,-5666,-3295,346,2025-02-17 11:22:41,0.0
11684,-13208,3664,-3708,-2195,3,2025-02-17 11:22:41,0.0
11692,-13728,3084,-1082,-469,-424,2025-02-17 11:22:41,0.0
12524,-13860,3376,147,922,-397,2025-02-17 11:22:41,0.0
12096,-13088,3756,356,1866,-35,2025-02-17 11:22:41,0.0
12016,-12880,4436,531,1279,208,2025-02-17 11:22:41,0.0
11992,-13356,4912,279,893,262,2025-02-17 11:22:41,0.0
11776,-13756,3764,-177,65,402,2025-02-17 11:22:41,0.0
12692,-13304,4844,-263,-290,255,2025-02-17 11:22:41,0.0
11672,-13380,3396,-317,146,398,2025-02-17 11:22:41,
12032,-13452,4004,-121,134,335,2025-02-17 11:22:41,0.0
12292,-12976,4096,194,152,1117,2025-02-17 11:22:41,0.0
11944,-13216,3832,187,122,1771,2025-02-17 11:22:41,0.0
12460,-13764,4060,-207,47,1961,2025-02-17 11:22:41,0.0
11752,-13776,4068,778,-927,1408,2025-02-17 11:22:41,0.0
11780,-13432,3408,1292,-624,1928,2025-02-17 11:22:41,0.0
12448,-13896,3840,1304,-642,3176,2025-02-17 11:22:41,0.0
12368,-13980,3784,1157,-1239,4555,2025-02-17 11:22:41,0.0
11928,-14240,4052,793,-2132,6095,2025-02-17 11:22:41,0.0
11376,-14312,3376,535,-3308,7303,2025-02-17 11:22:41,0.0
10720,-14660,3524,-2347,-5158,9234,2025-02-17 11:22:41,0.0
11300,-15428,5160,-7262,-4599,11131,2025-02-17 11:22:41,0.0
11624,-18080,8196,-8544,-5074,10517,2025-02-17 11:22:41,0.0
9916,-17276,4884,-6578,-7803,10580,2025-02-17 11:22:41,0.0
8192,-16364,1376,-5165,-11168,13144,2025-02-17 11:22:41,0.0
8340,-15660,884,-4454,-13614,16040,2025-02-17 11:22:41,0.0
7684,-15756,688,-3634,-15669,19444,2025-02-17 11:22:41,0.0
7876,-17316,204,-2411,-17883,24273,2025-02-17 11:22:41,0.0
11596,-19548,-228,-1963,-19044,25419,2025-02-17 11:22:41,0.0
11024,-21960,-584,-4075,-19112,22081,2025-02-17 11:22:41,0.0
7456,-24404,-96,-7737,-18626,17996,2025-02-17 11:22:41,0.0
3928,-26708,860,-9290,-20692,17560,2025-02-17 11:22:41,0.0
3172,-28548,2408,-6805,-25670,18137,2025-02-17 11:22:41,0.0
4476,-29396,1532,-3836,-31457,16572,2025-02-17 11:22:41,0.0
4900,-29560,-48,-1826,-32768,13311,2025-02-17 11:22:41,0.0
3020,-28264,-1008,-3083,-32768,11591,2025-02-17 11:22:41,0.0
992,-25832,260,-4438,-32768,12359,2025-02-17 11:22:41,0.0
4224,-23036,-504,-5527,-32768,12213,2025-02-17 11:22:41,0.0
5172,-20492,904,-5132,-32768,9767,2025-02-17 11:22:41,0.0
5248,-18712,2296,-3592,-32768,5137,2025-02-17 11:22:41,0.0
3032,-18860,3260,983,-32768,-2303,2025-02-17 11:22:41,0.0
1064,-20724,1576,2748,-32768,-3142,2025-02-17 11:22:41,0.0
-440,-22124,-168,1263,-32768,-1133,2025-02-17 11:22:41,0.0
-716,-22356,-324,-1131,-32768,2354,2025-02-17 11:22:41,0.0
536,-21828,784,-1515,-32768,4472,2025-02-17 11:22:41,0.0
2176,-21672,592,-691,-26747,3167,2025-02-17 11:22:41,0.0
2176,-22252,-540,-1152,-15717,-960,2025-02-17 11:22:41,0.0
1064,-22580,-1088,-3549,-6854,-2803,2025-02-17 11:22:41,0.0
172,-22212,-120,-5448,915,-2638,2025-02-17 11:22:41,0.0
1204,-21512,748,-5405,8215,-2614,2025-02-17 11:22:41,0.0
1408,-20548,2140,-3560,14354,-3347,2025-02-17 11:22:41,0.0
1976,-19372,1900,-1145,19761,-4061,2025-02-17 11:22:41,0.0
5980,-17192,5024,2336,26477,-5934,2025-02-17 11:22:41,0.0
5604,-15688,8216,7982,32767,-7710,2025-02-17 11:22:41,0.0
4192,-16988,2384,9226,32767,-6692,2025-02-17 11:22:41,0.0
3076,-17416,128,6855,32767,-5007,2025-02-17 11:22:41,0.0
3448,-14636,1944,6695,32767,-4605,2025-02-17 11:22:41,0.0
4108,-11540,4028,11227,29767,-5663,2025-02-17 11:22:41,0.0
3932,-11532,3892,15895,22962,-6433,2025-02-17 11:22:42,0.0
2352,-13596,1312,17521,15496,-5288,2025-02-17 11:22:42,0.0
2088,-14020,-276,16115,7462,-3774,2025-02-17 11:22:42,0.0
2636,-12316,-408,13712,-763,-3620,2025-02-17 11:22:42,0.0
2888,-10608,-200,11354,-10011,-4776,2025-02-17 11:22:42,0.0
2600,-11268,-76,9620,-17927,-5999,2025-02-17 11:22:42,0.0
2404,-11776,-480,6500,-25745,-7522,2025-02-17 11:22:42,0.0
2072,-11676,-360,3515,-30466,-8689,2025-02-17 11:22:42,0.0
1200,-11448,52,919,-32768,-9224,2025-02-17 11:22:42,0.0
636,-11460,80,-1807,-32768,-8511,2025-02-17 11:22:42,0.0
372,-11632,-112,-4438,-32768,-6914,2025-02-17 11:22:42,0.0
364,-12116,-160,-7393,-32768,-4959,2025-02-17 11:22:42,0.0
24,-12028,-268,-10189,-32768,-3151,2025-02-17 11:22:42,0.0
-432,-12160,-524,-12793,-31083,-1099,2025-02-17 11:22:42,0.0
-1096,-12392,-524,-15053,-28737,1842,2025-02-17 11:22:42,0.0
-972,-13068,-420,-16704,-26584,5399,2025-02-17 11:22:42,0.0
56,-13996,808,-16689,-24918,8461,2025-02-17 11:22:42,0.0
1504,-13840,1048,-15431,-23287,9571,2025-02-17 11:22:42,0.0
540,-13636,1000,-14863,-21656,10356,2025-02-17 11:22:42,0.0
-12,-13828,1688,-13549,-20150,12475,2025-02-17 11:22:42,0.0
388,-14444,2144,-11236,-18760,14200,2025-02-17 11:22:42,0.0
284,-14328,2124,-8224,-17004,15198,2025-02-17 11:22:42,0.0
-140,-14352,1836,-5578,-15244,16288,2025-02-17 11:22:42,0.0
348,-14468,1636,-3919,-13445,17306,2025-02-17 11:22:42,0.0
1936,-14024,3288,-1574,-11089,16715,2025-02-17 11:22:42,0.0
4988,-12976,3852,1888,-7943,14155,2025-02-17 11:22:42,0.0
5340,-14284,2664,6600,-3888,9413,2025-02-17 11:22:42,0.0
5472,-14200,1144,8697,-1796,6643,2025-02-17 11:22:42,0.0
4272,-14352,1176,9911,206,3337,2025-02-17 11:22:42,0.0
3468,-13848,916,10427,2125,920,2025-02-17 11:22:42,0.0
2356,-12860,1692,11025,4131,-133,2025-02-17 11:22:42,0.0
824,-12768,1156,11707,6689,479,2025-02-17 11:22:42,0.0
1892,-14080,96,11216,7772,790,2025-02-17 11:22:42,0.0
2496,-15032,-720,11378,7713,795,2025-02-17 11:22:42,0.0
1688,-20216,-4940,7343,8983,3071,2025-02-17 11:22:42,0.0
-912,-20228,4736,11450,8983,1794,2025-02-17 11:22:42,0.0
-5424,-20136,4132,13784,9103,4118,2025-02-17 11:22:42,0.0
-7200,-17632,4908,13555,10044,7736,2025-02-17 11:22:42,0.0
-5088,-15156,4852,13280,11133,10440,2025-02-17 11:22:42,0.0
-1684,-13020,5644,14594,10432,12701,2025-02-17 11:22:42,0.0
68,-12380,4164,16709,6486,15782,2025-02-17 11:22:42,0.0
-1296,-10956,4452,18895,1459,18457,2025-02-17 11:22:42,0.0
-2816,-10648,4920,21895,-3094,21491,2025-02-17 11:22:42,0.0
-4940,-11824,5712,27296,-6269,23438,2025-02-17 11:22:42,0.0
-7716,-12840,2500,30009,-5581,24476,2025-02-17 11:22:42,0.0
-6996,-13308,2896,31901,-1688,23630,2025-02-17 11:22:42,0.0
-7772,-13440,3856,32767,5006,22050,2025-02-17 11:22:42,0.0
-8176,-12760,5816,32767,15204,20097,2025-02-17 11:22:42,0.0
-9820,-11808,6152,32767,27659,20199,2025-02-17 11:22:42,0.0
-9380,-10888,7968,32072,32767,21145,2025-02-17 11:22:42,0.0
-10628,-9476,4936,28734,32767,21948,2025-02-17 11:22:42,0.0
-10988,-8472,1528,23007,32767,21568,2025-02-17 11:22:42,
-10420,-7996,1540,18523,32767,19660,2025-02-17 11:22:42,0.0
-13304,-6016,660,16706,32767,17410,2025-02-17 11:22:42,0.0
-15480,-3900,-4292,13877,32767,18255,2025-02-17 11:22:42,0.0
-12760,-3248,-5744,10271,32767,19119,2025-02-17 11:22:42,0.0
-8708,-3792,-5860,8964,32767,18167,2025-02-17 11:22:42,0.0
-6340,-4604,-7592,8093,32767,16144,2025-02-17 11:22:42,0.0
-5896,-4408,-7832,7144,32767,14347,2025-02-17 11:22:42,0.0
-28764,-7024,6744,2728,1713,13969,2025-02-17 11:22:42,0.0
-11660,-1844,-4300,-1881,2322,12174,2025-02-17 11:22:43,0.0
-7012,468,-4060,3379,-12295,13915,2025-02-17 11:22:43,0.0
-3380,-980,-11264,11429,-30379,14349,2025-02-17 11:22:43,0.0
-6696,-2272,-14164,11843,-32768,11270,2025-02-17 11:22:43,0.0
-8776,-4416,-9824,7637,-32768,6936,2025-02-17 11:22:43,0.0
-5808,-4268,-8664,8105,-32768,4945,2025-02-17 11:22:43,0.0
-11016,-2808,-7352,9609,-32768,3909,2025-02-17 11:22:43,0.0
-22296,568,14948,8552,-32768,3127,2025-02-17 11:22:43,0.0
-21248,2772,11664,9141,16550,2991,2025-02-17 11:22:43,0.0
-7924,-972,7424,11864,26539,4770,2025-02-17 11:22:43,0.0
-10772,-3108,-3848,10769,17516,5481,2025-02-17 11:22:43,0.0
-13952,-1100,-5656,6298,11666,3022,2025-02-17 11:22:43,0.0
-15956,-276,-1952,3475,3189,2971,2025-02-17 11:22:43,0.0
-15472,-1452,1512,3944,-6197,2529,2025-02-17 11:22:43,0.0
-16132,-620,1788,4306,-12095,1954,2025-02-17 11:22:43,0.0
-11716,-588,2760,4036,-4903,831,2025-02-17 11:22:43,0.0
-11028,-1208,680,3456,-942,583,2025-02-17 11:22:43,0.0
-11188,-1348,692,2450,1826,312,2025-02-17 11:22:43,0.0
-12440,-1664,1460,1520,3449,-46,2025-02-17 11:22:43,0.0
-13488,-2024,2540,1072,3896,-194,2025-02-17 11:22:43,0.0
-14416,-2248,2336,1063,3452,51,2025-02-17 11:22:43,0.0
-14960,-2460,2456,832,2768,778,2025-02-17 11:22:43,0.0
-14360,-2684,2596,538,1659,1040,2025-02-17 11:22:43,0.0
-13348,-3236,2704,219,516,559,2025-02-17 11:22:43,0.0
-14148,-4272,2132,-103,523,569,2025-02-17 11:22:43,0.0
-15068,-4488,1780,92,1306,865,2025-02-17 11:22:43,0.0
-15408,-4088,924,994,3492,67,2025-02-17 11:22:43,0.0
-16404,-4300,472,2188,5075,-419,2025-02-17 11:22:43,0.0
-16148,-4924,100,3189,4789,-806,2025-02-17 11:22:43,0.0
-17148,-4896,-1044,3412,3868,-438,2025-02-17 11:22:43,0.0
-15124,-4684,-2072,2867,2874,-716,2025-02-17 11:22:43,0.0
-16320,-4156,-2504,3442,1683,62,2025-02-17 11:22:43,0.0
-15724,-4080,-3356,3434,-205,1653,2025-02-17 11:22:43,0.0
-14976,-1444,-2500,4639,-1788,2947,2025-02-17 11:22:43,0.0
-14976,92,-2424,5786,-2044,3839,2025-02-17 11:22:43,0.0
-14528,-32,-2752,7038,681,4062,2025-02-17 11:22:43,0.0
-15180,-260,-2368,8142,2833,4584,2025-02-17 11:22:43,0.0
-14520,-708,-2520,9059,4374,5161,2025-02-17 11:22:43,0.0
-14132,-284,-2852,9337,4768,6064,2025-02-17 11:22:43,0.0
-12740,-140,-3008,9108,3762,6842,2025-02-17 11:22:43,0.0
-11712,-240,-3528,9166,3615,6455,2025-02-17 11:22:43,0.0
-11740,620,-2876,9178,3835,5572,2025-02-17 11:22:43,0.0
-11540,1512,-1896,9193,2936,4420,2025-02-17 11:22:43,0.0
-11592,1900,-2576,9413,309,3004,2025-02-17 11:22:43,0.0
-11776,1708,-3728,9151,-1723,1961,2025-02-17 11:22:43,0.0
-11820,1116,-4528,8703,-2681,1658,2025-02-17 11:22:43,0.0
-11464,608,-3584,8721,-2557,2067,2025-02-17 11:22:43,0.0
-10660,412,-2692,8845,-902,2310,2025-02-17 11:22:43,0.0
-9560,720,-1832,9892,2347,1481,2025-02-17 11:22:43,0.0
-10160,1280,-2284,9624,4446,458,2025-02-17 11:22:43,0.0
-10908,1812,-3744,7361,6197,741,2025-02-17 11:22:43,0.0
-11960,1352,-2524,6786,7400,971,2025-02-17 11:22:43,0.0
-12732,1328,-3384,6912,7356,764,2025-02-17 11:22:43,0.0
-12692,1604,-3508,5510,5039,381,2025-02-17 11:22:43,0.0
-12980,1244,-3584,4227,2533,-86,2025-02-17 11:22:43,0.0
-12532,732,-2476,4421,688,-471,2025-02-17 11:22:43,0.0
-12656,636,-2532,4842,-238,-491,2025-02-17 11:22:43,0.0
-12752,636,-1644,5363,-381,-365,2025-02-17 11:22:43,0.0
-12592,576,-2104,5718,-867,-261,2025-02-17 11:22:43,0.0
-12360,1316,-2244,5202,-1298,-350,2025-02-17 11:22:43,0.0
-12304,1972,-2148,4202,-1301,-676,2025-02-17 11:22:43,0.0
-11872,2484,-2980,2789,-710,-1009,2025-02-17 11:22:43,0.0
-12472,1572,-1920,2375,1222,-1042,2025-02-17 11:22:43,0.0
-12740,44,-1688,2872,2769,-810,2025-02-17 11:22:43,0.0
-13768,-652,-2420,3375,3116,-126,2025-02-17 11:22:43,0.0
-14380,-120,-3132,3275,3095,538,2025-02-17 11:22:44,0.0
-14600,496,-3148,2697,3480,577,2025-02-17 11:22:44,0.0
-14264,368,-4172,2286,3706,692,2025-02-17 11:22:44,0.0
-15128,-768,-2420,1935,3433,1033,2025-02-17 11:22:44,0.0
-16244,-2536,-104,2098,2706,1602,2025-02-17 11:22:44,0.0
-15684,-3120,732,2539,1212,1928,2025-02-17 11:22:44,0.0
-14984,-680,1064,4269,175,2141,2025-02-17 11:22:44,0.0
-14180,212,-2604,5459,1322,1747,2025-02-17 11:22:44,0.0
-14036,884,-7448,4290,4408,785,2025-02-17 11:22:44,0.0
-14336,1644,-9480,3042,7118,-370,2025-02-17 11:22:44,0.0
-15412,2560,-11156,2552,9427,-680,2025-02-17 11:22:44,0.0
-16296,3144,-9684,3096,10320,-580,2025-02-17 11:22:44,0.0
-13880,2304,-10012,3556,10612,-1580,2025-02-17 11:22:44,0.0
-10484,252,-10632,2923,8073,-2979,2025-02-17 11:22:44,0.0
-8764,-2660,-10440,1934,1675,-4003,2025-02-17 11:22:44,0.0
-9168,-3872,-8592,461,-6120,-4770,2025-02-17 11:22:44,0.0
-10808,-3372,-6580,-362,-11884,-4670,2025-02-17 11:22:44,0.0
-13328,-1932,2236,1080,-14251,-3024,2025-02-17 11:22:44,0.0
-12220,-936,-4916,2642,-5585,-1036,2025-02-17 11:22:44,0.0
-10536,824,-7708,1708,-103,-645,2025-02-17 11:22:44,0.0
-9620,276,-6476,2925,1523,-503,2025-02-17 11:22:44,0.0
-9932,-1620,-6156,4242,1857,-765,2025-02-17 11:22:44,0.0
-11584,-2656,-5856,4081,831,-879,2025-02-17 11:22:44,0.0
-12020,-2576,-5600,3345,-752,-542,2025-02-17 11:22:44,0.0
-11748,-2428,-5832,2769,-1527,-351,2025-02-17 11:22:44,0.0
-11536,-1832,-5764,2148,-1845,-228,2025-02-17 11:22:44,0.0
-11308,-2104,-5260,1486,-1826,-360,2025-02-17 11:22:44,
-11764,-1904,-4656,1061,-1477,-316,2025-02-17 11:22:44,0.0
-11684,-2312,-4648,385,-1430,-194,2025-02-17 11:22:44,0.0
-11512,-2284,-5000,-72,-1277,-62,2025-02-17 11:22:44,0.0
-11436,-2368,-5016,-372,-725,197,2025-02-17 11:22:44,0.0
-10704,-1888,-4788,-742,173,267,2025-02-17 11:22:44,0.0
-10500,-1540,-3996,-751,1498,-426,2025-02-17 11:22:44,0.0
-11832,-1624,-3464,-702,2999,-557,2025-02-17 11:22:44,0.0
-12796,-1744,-3128,-484,3353,237,2025-02-17 11:22:44,0.0
-13044,-2120,-3024,316,2970,1407,2025-02-17 11:22:44,0.0
-12696,-2096,-3324,1093,2383,2128,2025-02-17 11:22:44,0.0
-12916,-2132,-3668,1120,2002,2547,2025-02-17 11:22:44,0.0
-12872,-1452,-4460,408,2935,2498,2025-02-17 11:22:44,0.0
-13904,-984,-3756,236,5008,2504,2025-02-17 11:22:44,0.0
-14012,-360,-3196,140,7351,2395,2025-02-17 11:22:44,0.0
-12852,-348,-3792,209,8385,1706,2025-02-17 11:22:44,0.0
-12540,-788,-5132,181,7338,813,2025-02-17 11:22:44,0.0
-12276,-1136,-6632,-652,4397,-161,2025-02-17 11:22:44,0.0
-12452,-1684,-7036,-1737,-801,-1108,2025-02-17 11:22:44,0.0
-13520,-1976,-6756,-2490,-6917,-1376,2025-02-17 11:22:44,0.0
-14448,-2268,-5992,-2797,-12920,-978,2025-02-17 11:22:44,0.0
-15036,-2568,-5628,-2997,-17205,-183,2025-02-17 11:22:44,0.0
-14264,-2460,-3172,-3906,-17633,442,2025-02-17 11:22:44,0.0
-10160,-2228,-6908,-4301,296,-310,2025-02-17 11:22:44,0.0
-11360,-3340,-8140,-4692,2551,-1597,2025-02-17 11:22:44,0.0
-12728,-3364,-7524,-4871,5147,-1730,2025-02-17 11:22:44,0.0
-12272,-2996,-7916,-5534,6242,-1737,2025-02-17 11:22:44,0.0
-13024,-2568,-8088,-6080,4962,-940,2025-02-17 11:22:44,0.0
-12340,-2132,-7752,-6859,1969,723,2025-02-17 11:22:44,0.0
-11532,-864,-5800,-6231,-148,2052,2025-02-17 11:22:44,0.0
-10400,316,-5464,-5222,69,2134,2025-02-17 11:22:44,0.0
-10260,1088,-4836,-4131,1279,1718,2025-02-17 11:22:44,0.0
-10768,1208,-3684,-2295,3008,1307,2025-02-17 11:22:44,0.0
-12056,1384,-4564,-525,4501,1061,2025-02-17 11:22:45,0.0
-12796,1484,-5416,-110,4420,712,2025-02-17 11:22:45,0.0
-13132,524,-5796,341,3588,14,2025-02-17 11:22:45,0.0
-14292,-104,-5396,721,2055,-370,2025-02-17 11:22:45,0.0
-13820,-656,-4292,1314,-895,-50,2025-02-17 11:22:45,0.0
-12416,-568,-4340,2521,-3830,109,2025-02-17 11:22:45,0.0
-11072,404,-4212,3444,-4065,-56,2025-02-17 11:22:45,0.0
-9868,1072,-5184,3130,-2466,-661,2025-02-17 11:22:45,0.0
-9232,620,-3768,2839,-1138,-1909,2025-02-17 11:22:45,0.0
-9876,-24,-2504,3191,-597,-2893,2025-02-17 11:22:45,0.0
-11180,-264,-2036,4097,40,-3275,2025-02-17 11:22:45,0.0
-12316,-40,-3056,5150,607,-3045,2025-02-17 11:22:45,0.0
-12452,-144,-6892,5557,1592,-3014,2025-02-17 11:22:45,0.0
-13476,-320,-9948,4304,2973,-2986,2025-02-17 11:22:45,0.0
-15224,304,-8652,733,4621,-2033,2025-02-17 11:22:45,0.0
-15492,-432,-4920,-1208,5431,-1531,2025-02-17 11:22:45,0.0
-14992,-1900,-6732,-1172,2643,-576,2025-02-17 11:22:45,0.0
-13148,312,-8332,-1930,-2827,-140,2025-02-17 11:22:45,0.0
-11812,2324,-7884,-2841,-6762,-513,2025-02-17 11:22:45,0.0
-9736,2848,-6712,-2942,-7044,-1363,2025-02-17 11:22:45,0.0
-8856,2404,-7304,-3676,-5431,-2914,2025-02-17 11:22:45,0.0
-9472,1640,-6532,-4594,-2522,-4123,2025-02-17 11:22:45,0.0
-10448,1096,-5276,-5237,559,-4953,2025-02-17 11:22:45,0.0
-11828,736,-5312,-6016,2309,-4986,2025-02-17 11:22:45,0.0
-12532,596,-6044,-7135,2405,-4717,2025-02-17 11:22:45,0.0
-13392,608,-5924,-7759,1155,-4347,2025-02-17 11:22:45,0.0
-13580,340,-6296,-8351,17,-4027,2025-02-17 11:22:45,0.0
-12784,392,-6332,-10308,-2089,-4302,2025-02-17 11:22:45,0.0
-12872,-184,-5856,-11074,-1782,-4221,2025-02-17 11:22:45,0.0
-13016,-572,-5980,-11640,-1525,-3874,2025-02-17 11:22:45,0.0
-12680,-796,-5928,-12348,-1677,-3511,2025-02-17 11:22:45,0.0
-11764,-1280,-6676,-12888,-2579,-3222,2025-02-17 11:22:45,0.0
-10956,-2016,-7412,-14375,-3021,-2849,2025-02-17 11:22:45,0.0
-10188,-2704,-7244,-15608,-2839,-2515,2025-02-17 11:22:45,0.0
-10008,-3152,-6292,-15824,-2486,-2256,2025-02-17 11:22:45,0.0
-10840,-3168,-4300,-15133,-1085,-2083,2025-02-17 11:22:45,0.0
-12064,-3028,-5868,-15754,3653,-1760,2025-02-17 11:22:45,0.0
-12356,-2156,-6704,-16693,7123,-2196,2025-02-17 11:22:45,0.0
-11916,-1760,-6724,-17108,8120,-3856,2025-02-17 11:22:45,0.0
-12788,-744,-5936,-16848,6959,-6483,2025-02-17 11:22:45,0.0
-14368,-540,-5772,-16769,4988,-7808,2025-02-17 11:22:45,0.0
-14584,-704,-6228,-16878,1972,-8597,2025-02-17 11:22:45,0.0
-14212,-740,-6908,-17311,-1746,-9307,2025-02-17 11:22:45,0.0
-12808,-1228,-6392,-17822,-4143,-9757,2025-02-17 11:22:45,0.0
-11260,-1732,-6128,-18069,-6235,-10099,2025-02-17 11:22:45,0.0
-10360,-2160,-6384,-18354,-7024,-10257,2025-02-17 11:22:45,0.0
-9768,-2444,-5948,-18350,-7603,-10134,2025-02-17 11:22:45,0.0
-9528,-2548,-5480,-17722,-8774,-9724,2025-02-17 11:22:45,0.0
-9996,-3300,-5556,-17554,-9742,-9325,2025-02-17 11:22:45,0.0
-10912,-3240,-5308,-18047,-9030,-8957,2025-02-17 11:22:45,0.0
-12740,-3160,-4856,-18988,-5718,-7868,2025-02-17 11:22:45,0.0
-12600,-3212,-3976,-19127,-1515,-6734,2025-02-17 11:22:45,0.0
-12036,-4056,-4444,-19446,886,-6350,2025-02-17 11:22:45,0.0
-12112,-4512,-5448,-19899,822,-6420,2025-02-17 11:22:45,0.0
-12808,-4668,-6576,-21336,-52,-6612,2025-02-17 11:22:45,0.0
-13464,-4336,-5416,-22238,581,-6307,2025-02-17 11:22:45,0.0
-13388,-3436,-3552,-22328,1371,-5792,2025-02-17 11:22:45,0.0
-13252,-3020,-2584,-22250,241,-5250,2025-02-17 11:22:45,0.0
-12240,-3344,-3752,-22366,-1671,-4911,2025-02-17 11:22:45,0.0
-11712,-3824,-6384,-22787,-3151,-4871,2025-02-17 11:22:45,0.0
-11188,-3884,-9448,-24598,-2875,-5094,2025-02-17 11:22:46,0.0
-10540,-4216,-10284,-26601,329,-5642,2025-02-17 11:22:46,0.0
-10144,-4524,-5804,-26058,7021,-6794,2025-02-17 11:22:46,0.0
-10736,-4632,-5496,-25053,13445,-7699,2025-02-17 11:22:46,0.0
-11676,-2976,-5064,-24742,16407,-8027,2025-02-17 11:22:46,0.0
-12368,4,-4428,-22787,13765,-8984,2025-02-17 11:22:46,0.0
-14088,1620,-6972,-20057,5566,-10131,2025-02-17 11:22:46,0.0
-14420,1236,-8764,-19746,-2083,-10069,2025-02-17 11:22:46,
-14392,-28,-4756,-18540,-6057,-9851,2025-02-17 11:22:46,0.0
-13612,-760,-4852,-17341,-4480,-8771,2025-02-17 11:22:46,0.0
-12900,-960,-5528,-16574,-3011,-7290,2025-02-17 11:22:46,0.0
-12872,-1236,-5936,-16204,-1799,-5945,2025-02-17 11:22:46,0.0
-12984,-1400,-4860,-15791,-593,-5087,2025-02-17 11:22:46,0.0
-13008,-948,-4020,-15279,-75,-4577,2025-02-17 11:22:46,0.0
-12656,-420,-4304,-14875,64,-4836,2025-02-17 11:22:46,0.0
-12552,-608,-4940,-14851,-642,-5672,2025-02-17 11:22:46,0.0
-13104,-608,-4492,-14894,-2005,-6063,2025-02-17 11:22:46,0.0
-12956,-332,-3612,-14255,-2731,-6024,2025-02-17 11:22:46,0.0
-12292,16,-3072,-13105,-2664,-5738,2025-02-17 11:22:46,0.0
-11508,44,-3712,-11963,-2384,-5493,2025-02-17 11:22:46,0.0
-10832,284,-4012,-11298,-2087,-5446,2025-02-17 11:22:46,0.0
-9752,68,-4552,-10905,-1077,-6096,2025-02-17 11:22:46,0.0
-10416,472,-4716,-11166,631,-6523,2025-02-17 11:22:46,0.0
-11004,368,-3200,-10764,1496,-6626,2025-02-17 11:22:46,0.0
-11964,468,-4232,-10141,1448,-6471,2025-02-17 11:22:46,0.0
-12672,416,-4496,-9536,891,-6250,2025-02-17 11:22:46,0.0
-13152,392,-5648,-9298,98,-5885,2025-02-17 11:22:46,0.0
-13476,608,-7216,-9618,-612,-5540,2025-02-17 11:22:46,0.0
-12372,520,-7536,-10533,-1956,-5355,2025-02-17 11:22:46,0.0
-11204,184,-7224,-11042,-3752,-5788,2025-02-17 11:22:46,0.0
-10676,-156,-7288,-11186,-4594,-6359,2025-02-17 11:22:46,0.0
-11504,-44,-6624,-10962,-3543,-6368,2025-02-17 11:22:46,0.0
-12336,-1184,-6356,-10837,179,-6024,2025-02-17 11:22:46,0.0
-13808,-4008,-6940,-11673,4675,-5449,2025-02-17 11:22:46,0.0
-13696,-4864,-6788,-12284,8065,-4853,2025-02-17 11:22:46,0.0
-10048,-4208,-8248,-12591,7184,-5719,2025-02-17 11:22:46,0.0
-10484,-2640,-6576,-13143,4746,-6475,2025-02-17 11:22:46,0.0
-11356,-2840,-3172,-12030,2068,-6945,2025-02-17 11:22:46,0.0
-14260,-2408,-2224,-10579,1253,-6304,2025-02-17 11:22:46,0.0
-14860,-2044,-2292,-9135,1683,-4877,2025-02-17 11:22:46,0.0
-13876,-2812,-4160,-8427,522,-4589,2025-02-17 11:22:46,0.0
-13452,-2452,-3864,-7906,-1305,-4560,2025-02-17 11:22:46,0.0
-14136,-3124,-5592,-8739,-2550,-3731,2025-02-17 11:22:46,0.0
-14348,-2304,-2344,-8481,-4326,-2324,2025-02-17 11:22:46,0.0
-13316,-1812,-1824,-6629,-3687,-1684,2025-02-17 11:22:46,0.0
-12648,-1736,-3292,-5702,-2613,-1606,2025-02-17 11:22:46,0.0
-12028,-1628,-3824,-5673,-1615,-2381,2025-02-17 11:22:46,0.0
-13140,-2136,-3096,-5246,-1077,-3049,2025-02-17 11:22:46,0.0
-13788,-2292,-3136,-4738,-1601,-3047,2025-02-17 11:22:46,0.0
-13700,-2032,-2908,-4071,-2993,-2964,2025-02-17 11:22:46,0.0
-13024,-1732,-3052,-3372,-3020,-2910,2025-02-17 11:22:46,0.0
-12260,-1844,-3352,-3100,-2331,-3120,2025-02-17 11:22:46,0.0
-11976,-2264,-3716,-3129,-1349,-3445,2025-02-17 11:22:46,0.0
-11952,-2456,-3940,-3171,-325,-3623,2025-02-17 11:22:46,0.0
-12364,-2684,-4648,-3344,481,-3594,2025-02-17 11:22:46,0.0
-12696,-2688,-4160,-3250,593,-3651,2025-02-17 11:22:46,0.0
-13128,-2364,-3800,-3089,-59,-3665,2025-02-17 11:22:47,0.0
-12772,-2168,-3884,-3149,-903,-3768,2025-02-17 11:22:47,0.0
-12720,-2404,-3472,-3015,-1652,-3926,2025-02-17 11:22:47,0.0
-12468,-2568,-3996,-2824,-1992,-3768,2025-02-17 11:22:47,0.0
-12476,-2992,-4004,-2524,-2291,-3465,2025-02-17 11:22:47,0.0
-12380,-2844,-3772,-2196,-2376,-2954,2025-02-17 11:22:47,0.0
-12532,-2272,-3372,-2062,-1793,-2522,2025-02-17 11:22:47,0.0
-12340,-1904,-3008,-2387,-821,-2190,2025-02-17 11:22:47,0.0
-12272,-2064,-2784,-2527,-111,-2069,2025-02-17 11:22:47,0.0
-13008,-2788,-2336,-698,-1444,-1944,2025-02-17 11:22:47,0.0
-13176,-2492,-2736,-1006,-2111,-1566,2025-02-17 11:22:47,0.0
-12568,-2180,-2520,-1096,-2277,-1417,2025-02-17 11:22:47,0.0
-12548,-1856,-2620,-1380,-2422,-1620,2025-02-17 11:22:47,0.0
-12404,-1904,-2520,-1881,-2717,-1972,2025-02-17 11:22:47,0.0
-12460,-2552,-2488,-2318,-2157,-2126,2025-02-17 11:22:47,0.0
-12356,-2832,-1728,-2212,-1362,-2076,2025-02-17 11:22:47,0.0
-12572,-3044,-1616,-2057,-632,-2105,2025-02-17 11:22:47,0.0
-12716,-3216,-2256,-2143,352,-2050,2025-02-17 11:22:47,0.0
-13084,-3392,-2200,-2359,1237,-1932,2025-02-17 11:22:47,0.0
-13372,-3512,-2328,-2871,1416,-1581,2025-02-17 11:22:47,0.0
-13316,-3360,-2032,-3032,1380,-1178,2025-02-17 11:22:47,0.0
-13192,-3068,-1992,-3132,1129,-862,2025-02-17 11:22:47,0.0
-13068,-3000,-1976,-3208,793,-654,2025-02-17 11:22:47,0.0
-13172,-3000,-1660,-3150,429,-458,2025-02-17 11:22:47,0.0
-14396,-3776,-2080,-2835,2005,1132,2025-02-17 11:22:47,0.0
-15108,-3432,-2004,-2710,428,1219,2025-02-17 11:22:47,0.0
-15380,-4180,-1480,-2506,-973,1275,2025-02-17 11:22:47,0.0
-14864,-5324,-4460,-2419,665,446,2025-02-17 11:22:47,0.0
-16236,-4616,-4092,-2475,4111,-1022,2025-02-17 11:22:47,0.0
-17076,-5588,-2968,-1899,6989,-2351,2025-02-17 11:22:47,0.0
-18528,-6320,-5656,-1566,6065,-2483,2025-02-17 11:22:47,0.0
-19836,-5448,-5200,-526,3432,-1015,2025-02-17 11:22:47,0.0
-17424,-3764,-6852,-151,-829,355,2025-02-17 11:22:47,0.0
-15436,-2688,-7192,-408,-7031,903,2025-02-17 11:22:47,0.0
-13332,-2392,-6436,-214,-13424,2258,2025-02-17 11:22:47,0.0
-10116,-1444,-6292,179,-15410,4939,2025-02-17 11:22:47,0.0
-7736,156,-6452,115,-11920,6036,2025-02-17 11:22:47,0.0
-6872,848,-5456,74,-4255,5368,2025-02-17 11:22:47,0.0
-9036,736,-6040,-1,5904,4000,2025-02-17 11:22:47,0.0
-11208,-148,-6468,-876,12288,3528,2025-02-17 11:22:47,0.0
-12236,-424,-6020,-1889,14079,3362,2025-02-17 11:22:47,0.0
-12624,-1420,-6284,-2122,13080,3198,2025-02-17 11:22:47,0.0
-13424,-2008,-6844,-2577,11413,3956,2025-02-17 11:22:47,0.0
-14108,-1764,-7184,-3488,9299,5434,2025-02-17 11:22:47,0.0
-13616,-1408,-6836,-4283,6505,6506,2025-02-17 11:22:47,0.0
-12080,-448,-7144,-4489,2288,6869,2025-02-17 11:22:47,0.0
-9600,2104,-5048,-2073,-10622,5291,2025-02-17 11:22:47,0.0
-10572,2756,-2332,290,-7221,3848,2025-02-17 11:22:47,0.0
-8972,2456,-3248,1701,-2333,2493,2025-02-17 11:22:47,0.0
-9356,2044,-4016,1922,-1707,1844,2025-02-17 11:22:47,0.0
-10004,1368,-3812,2392,-1570,1232,2025-02-17 11:22:47,0.0
-10360,764,-3824,2862,-762,1405,2025-02-17 11:22:47,
-10152,796,-3836,3294,373,1357,2025-02-17 11:22:47,0.0
-10232,1252,-3848,3343,580,935,2025-02-17 11:22:47,0.0
-10588,1376,-3960,3134,683,370,2025-02-17 11:22:47,0.0
-11292,1676,-3872,2683,696,-201,2025-02-17 11:22:47,0.0
-12172,1400,-3492,2355,669,-572,2025-02-17 11:22:47,0.0
-12892,820,-3952,2007,388,-655,2025-02-17 11:22:47,0.0
-13532,872,-3588,1993,109,-341,2025-02-17 11:22:48,0.0
-13176,996,-3660,2141,30,57,2025-02-17 11:22:48,0.0
-12452,960,-3608,2211,-403,113,2025-02-17 11:22:48,0.0
-12260,864,-3812,2334,-1112,-93,2025-02-17 11:22:48,0.0
-12180,764,-2980,2335,-1623,-369,2025-02-17 11:22:48,0.0
-12600,768,-2860,2468,-1451,-437,2025-02-17 11:22:48,0.0
-12548,256,-3372,2458,-532,-350,2025-02-17 11:22:48,0.0
-12972,516,-3848,2573,60,12,2025-02-17 11:22:48,0.0
-13336,1040,-3624,2793,-362,431,2025-02-17 11:22:48,0.0
-14068,920,-4216,3078,-227,910,2025-02-17 11:22:48,0.0
-15032,372,-2808,3484,44,1126,2025-02-17 11:22:48,0.0
-15372,260,-2316,4013,556,1500,2025-02-17 11:22:48,0.0
-15404,596,-1836,4318,719,1832,2025-02-17 11:22:48,0.0
-14964,964,-1432,4741,-65,2309,2025-02-17 11:22:48,0.0
-14592,1144,-864,5532,-770,2502,2025-02-17 11:22:48,0.0
-14892,1544,-1392,6312,-1403,2706,2025-02-17 11:22:48,0.0
-14912,544,-5396,6247,-981,2589,2025-02-17 11:22:48,0.0
-16132,1876,-7744,5750,-88,2409,2025-02-17 11:22:48,0.0
-16492,2616,-8436,5323,16,2337,2025-02-17 11:22:48,0.0
-16256,2892,-8668,4987,-681,1810,2025-02-17 11:22:48,0.0
-15936,2660,-8848,4506,-1191,1036,2025-02-17 11:22:48,0.0
-14420,2368,-8276,3801,-2401,94,2025-02-17 11:22:48,0.0
-13252,1620,-7104,3533,-3607,-900,2025-02-17 11:22:48,0.0
-12408,-220,-5540,3125,-5262,-1053,2025-02-17 11:22:48,0.0
-11240,-2208,-5832,2261,-5868,-569,2025-02-17 11:22:48,0.0
-8728,-4360,-7220,189,-5257,-750,2025-02-17 11:22:48,0.0
-7976,-4960,-8140,-1482,-3524,-1267,2025-02-17 11:22:48,0.0
-8236,-3992,-6548,-2493,-175,-944,2025-02-17 11:22:48,0.0
-9032,-3564,-3652,-1337,2652,-33,2025-02-17 11:22:48,0.0
-11260,-1484,-6148,-842,5048,1188,2025-02-17 11:22:48,0.0
-12788,1128,-7540,-1673,9784,2466,2025-02-17 11:22:48,0.0
-11680,1656,-5888,-2216,10857,1989,2025-02-17 11:22:48,0.0
-13752,2448,-4724,-1393,7749,290,2025-02-17 11:22:48,0.0
-13344,2972,-5424,-102,2244,-1757,2025-02-17 11:22:48,0.0
-11756,1536,-6808,687,-3475,-3899,2025-02-17 11:22:48,0.0
-11240,860,-6592,1021,-4773,-4594,2025-02-17 11:22:48,0.0
-9420,-452,-4740,1436,-4564,-4612,2025-02-17 11:22:48,0.0
-9656,-636,-5236,1949,-3630,-4509,2025-02-17 11:22:48,0.0
-9632,-900,-5624,1847,-2364,-4062,2025-02-17 11:22:48,0.0
-10372,-1272,-5484,1115,-838,-3857,2025-02-17 11:22:48,0.0
-11232,-1332,-5044,40,513,-3415,2025-02-17 11:22:48,0.0
-11488,-1752,-6248,-1209,1479,-2661,2025-02-17 11:22:48,0.0
-11528,-1584,-4648,-1955,2135,-2196,2025-02-17 11:22:48,0.0
-11928,-1980,-5064,-2575,2557,-1889,2025-02-17 11:22:48,0.0
-11468,-2140,-5196,-3261,3101,-1923,2025-02-17 11:22:48,0.0
-12204,-2224,-4484,-3546,3826,-2087,2025-02-17 11:22:48,0.0
-12804,-1912,-4256,-3194,3839,-1842,2025-02-17 11:22:48,0.0
-14140,-1752,-3904,-2575,3401,-1395,2025-02-17 11:22:48,0.0
-15020,-1900,-3376,-2048,2070,-917,2025-02-17 11:22:48,0.0
-15448,-2208,-2584,-1202,-677,-493,2025-02-17 11:22:48,0.0
-15356,-2644,-2056,-377,-3393,-167,2025-02-17 11:22:48,0.0
-14792,-3704,-1640,492,-4976,493,2025-02-17 11:22:48,0.0
-14040,-4372,-1852,2060,-5674,1487,2025-02-17 11:22:48,0.0
-13416,-4516,-2532,3694,-6076,3038,2025-02-17 11:22:48,0.0
-12352,-4748,-2580,5288,-6898,4215,2025-02-17 11:22:48,0.0
-12636,-5280,-2068,6852,-7877,5223,2025-02-17 11:22:48,0.0
-11996,-6112,-3356,8599,-7831,6710,2025-02-17 11:22:48,0.0
-11460,-5976,-4400,9900,-6372,7584,2025-02-17 11:22:48,0.0
-10440,-3752,-4148,11384,-4445,6848,2025-02-17 11:22:48,0.0
-11620,-1716,-4132,12623,-2023,5069,2025-02-17 11:22:48,0.0
-11508,-1384,-4060,13406,-2524,3372,2025-02-17 11:22:48,0.0
-11940,-1800,-5780,14738,-3316,946,2025-02-17 11:22:49,0.0
-13240,-2080,-5168,15356,-811,-427,2025-02-17 11:22:49,0.0
-13524,-4012,-3172,16964,1896,-1135,2025-02-17 11:22:49,0.0
-15040,-5216,-3968,18440,2597,-688,2025-02-17 11:22:49,0.0
-17420,-5984,-5104,18848,1488,2439,2025-02-17 11:22:49,0.0
-17560,-5344,-5804,19207,-801,5501,2025-02-17 11:22:49,0.0
-15120,-2772,-6908,19419,-3795,6746,2025-02-17 11:22:49,0.0
-12244,-1180,-5040,19903,-5910,5551,2025-02-17 11:22:49,0.0
-11980,84,-6912,19651,-6018,4188,2025-02-17 11:22:49,0.0
-9188,840,-6388,18980,-5113,2229,2025-02-17 11:22:49,0.0
-9240,-644,-4748,19190,-4009,182,2025-02-17 11:22:49,0.0
-9156,-2776,-4728,20585,-3164,-1819,2025-02-17 11:22:49,0.0
-10612,-3928,-6148,21817,-2613,-2909,2025-02-17 11:22:49,0.0
-11412,-4500,-5740,22196,-875,-2965,2025-02-17 11:22:49,0.0
-11724,-5176,-6312,21894,1215,-2846,2025-02-17 11:22:49,0.0
-10912,-4148,-6304,20886,3665,-3938,2025-02-17 11:22:49,0.0
-11512,-2104,-6580,19366,4780,-5522,2025-02-17 11:22:49,0.0
-14572,-892,-8208,16144,6517,-5471,2025-02-17 11:22:49,0.0
-13072,-1584,-5800,15388,7883,-5740,2025-02-17 11:22:49,0.0
-12400,-2356,-5276,15141,8189,-7411,2025-02-17 11:22:49,0.0
-13476,-1948,-2940,14053,8297,-9977,2025-02-17 11:22:49,0.0
-14240,-3112,-632,13258,7981,-11807,2025-02-17 11:22:49,0.0
-13344,-2756,-1136,13848,5555,-14704,2025-02-17 11:22:49,0.0
-14428,-792,-9488,11000,1510,-15028,2025-02-17 11:22:49,0.0
-15776,1084,-11000,6742,-3869,-14703,2025-02-17 11:22:49,0.0
-16272,3412,-8680,3937,-6924,-13812,2025-02-17 11:22:49,0.0
-15940,4496,-5768,2022,-9184,-15767,2025-02-17 11:22:49,0.0
-14428,5364,-2752,1755,-6571,-19306,2025-02-17 11:22:49,0.0
-13496,3692,-196,3865,1410,-23682,2025-02-17 11:22:49,0.0
-12048,2176,-320,6213,8917,-26327,2025-02-17 11:22:49,0.0
-12604,340,1800,9713,18662,-27727,2025-02-17 11:22:49,5
-10844,-1360,-1184,13132,29413,-28049,2025-02-17 11:22:49,5
-5272,-2160,1692,16324,32767,-28290,2025-02-17 11:22:49,5
7404,-7376,268,23004,32767,-32768,2025-02-17 11:22:49,5
1896,-5328,-3204,15207,27770,-30592,2025-02-17 11:22:49,5
-308,-1856,-2140,10988,23975,-26115,2025-02-17 11:22:49,5
2796,-968,1444,11475,23757,-23364,2025-02-17 11:22:49,5
2400,-900,2016,12459,24256,-22586,2025-02-17 11:22:49,5
1616,-960,1528,13213,24682,-21126,2025-02-17 11:22:49,5
1380,-812,1716,13669,25201,-18004,2025-02-17 11:22:49,5
420,-148,3448,15263,26016,-15112,2025-02-17 11:22:49,5
644,-72,3736,17482,26547,-12126,2025-02-17 11:22:49,5
1024,-248,3808,19558,26818,-9380,2025-02-17 11:22:49,5
1508,-868,2572,20496,27102,-6990,2025-02-17 11:22:49,5
-664,-1800,1000,19162,28113,-2352,2025-02-17 11:22:49,5
-4384,-2296,1584,15683,29630,8448,2025-02-17 11:22:49,5
-4804,-3464,-1228,8956,32033,19984,2025-02-17 11:22:49,5
-368,-3376,1076,301,32767,28785,2025-02-17 11:22:49,5
2944,-3268,2008,-3119,32767,29541,2025-02-17 11:22:49,5
3348,-3864,840,-8454,32767,27634,2025-02-17 11:22:49,5
2972,-3588,1732,-12143,32155,25402,2025-02-17 11:22:49,5
2412,-4348,1296,-15927,32435,23098,2025-02-17 11:22:49,5
2952,-5004,1540,-20408,32767,19917,2025-02-17 11:22:49,5
2488,-3328,3128,-22029,32767,15673,2025-02-17 11:22:49,5
964,-2392,3636,-21769,32767,12817,2025-02-17 11:22:49,5
-996,-1724,8892,-14612,32767,14395,2025-02-17 11:22:49,5
-32768,-32756,-19236,-17214,32767,32767,2025-02-17 11:22:49,5
-32768,-32768,-32768,-32768,8061,32767,2025-02-17 11:22:49,5
-32768,-32768,-32768,-32768,-12903,32767,2025-02-17 11:22:49,5
-13172,-32768,-3072,-32768,32767,32767,2025-02-17 11:22:49,5
-19136,32767,-25468,32767,32767,-19273,2025-02-17 11:22:49,5
-4032,4724,-10356,24697,17576,-10061,2025-02-17 11:22:50,5
5928,1576,548,20139,5674,-10018,2025-02-17 11:22:50,5
3600,-464,-160,14335,-4472,-8216,2025-02-17 11:22:50,5
2260,856,-1760,8082,-15821,-4564,2025-02-17 11:22:50,5
1784,860,-2192,999,-24375,-957,2025-02-17 11:22:50,5
1776,2484,-684,-2923,-30669,3068,2025-02-17 11:22:50,5
792,2168,-5176,-4451,-24858,2373,2025-02-17 11:22:50,5
-4516,2644,-11600,-8059,-9612,2834,2025-02-17 11:22:50,5
-11412,3964,-14944,-9477,13835,4175,2025-02-17 11:22:50,5
-12016,4552,-16048,-2661,32767,1668,2025-02-17 11:22:50,5
-7780,3896,-22652,1113,32767,-1945,2025-02-17 11:22:50,5
-3740,2680,-19264,-1591,11318,-980,2025-02-17 11:22:50,5
1016,1224,-13296,-565,1330,-516,2025-02-17 11:22:50,5
-296,1108,-11164,-4,-2331,-37,2025-02-17 11:22:50,5
-2208,1812,-10912,-278,-4214,-937,2025-02-17 11:22:50,5
-6148,2400,-13384,435,-1783,-792,2025-02-17 11:22:50,5
-5932,1328,-15060,214,512,-169,2025-02-17 11:22:50,5
-3800,728,-14344,-366,923,-35,2025-02-17 11:22:50,5
-3028,1908,-13248,-479,340,-108,2025-02-17 11:22:50,5
-3668,2492,-13172,-53,-35,-232,2025-02-17 11:22:50,5
-3968,1476,-13700,19,5,-214,2025-02-17 11:22:50,5
-4092,1304,-13768,-208,155,-161,2025-02-17 11:22:50,5
-4004,1840,-13540,-201,284,-135,2025-02-17 11:22:50,5
-3748,1852,-13640,-159,249,-152,2025-02-17 11:22:50,5
-3732,1616,-13736,-148,62,-208,2025-02-17 11:22:50,5
-4084,1644,-13712,-113,95,-220,2025-02-17 11:22:50,5
-4060,1676,-13632,-163,281,-176,2025-02-17 11:22:50,5
-3836,1668,-13660,-182,250,-144,2025-02-17 11:22:50,5
-3712,1744,-13596,-155,197,-173,2025-02-17 11:22:50,5
-3884,1660,-13676,-106,115,-222,2025-02-17 11:22:50,5
-3860,1640,-13608,-132,133,-174,2025-02-17 11:22:50,5
-3908,1616,-13652,-163,198,-160,2025-02-17 11:22:50,5
-3796,1736,-13524,-161,208,-179,2025-02-17 11:22:50,5
-3868,1692,-13520,-145,163,-177,2025-02-17 11:22:50,5
-3908,1716,-13660,-154,158,-180,2025-02-17 11:22:50,5
-3868,1688,-13736,-176,183,-157,2025-02-17 11:22:50,5
-3884,1684,-13716,-169,178,-161,2025-02-17 11:22:50,5
-3852,1708,-13632,-140,180,-180,2025-02-17 11:22:50,5
-3924,1640,-13616,-169,212,-179,2025-02-17 11:22:50,5
-3852,1628,-13576,-175,177,-176,2025-02-17 11:22:50,5
-3784,1572,-13700,-147,168,-193,2025-02-17 11:22:50,5
-3856,1720,-13680,-143,172,-181,2025-02-17 11:22:50,5
-3916,1632,-13612,-167,159,-153,2025-02-17 11:22:50,5
-3824,1676,-13648,-148,178,-163,2025-02-17 11:22:50,5
-3876,1720,-13684,-155,171,-184,2025-02-17 11:22:50,5
-3860,1684,-13732,-158,163,-175,2025-02-17 11:22:50,5
-3912,1644,-13596,-148,175,-181,2025-02-17 11:22:50,5
-3824,1656,-13704,-151,186,-185,2025-02-17 11:22:50,5
-3800,1664,-13620,-154,215,-172,2025-02-17 11:22:50,5
-3928,1644,-13740,-180,166,-183,2025-02-17 11:22:50,5
-3816,1576,-13548,-155,161,-196,2025-02-17 11:22:50,5
-3832,1636,-13664,-140,178,-208,2025-02-17 11:22:50,5
-3840,1776,-13656,-160,157,-164,2025-02-17 11:22:50,5
-3856,1624,-13780,-171,162,-171,2025-02-17 11:22:50,5
-3948,1636,-13620,-171,177,-189,2025-02-17 11:22:50,5
-3840,1704,-13672,-162,180,-172,2025-02-17 11:22:50,5
-3864,1656,-13604,-148,200,-181,2025-02-17 11:22:50,5
-3928,1688,-13712,-173,180,-199,2025-02-17 11:22:50,5
-3892,1680,-13692,-183,166,-154,2025-02-17 11:22:50,5
-3748,1676,-13668,-132,161,-173,2025-02-17 11:22:50,5
-3848,1660,-13580,-127,181,-167,2025-02-17 11:22:51,5
-3752,1660,-13628,-159,174,-189,2025-02-17 11:22:51,5
-3784,1664,-13564,-150,163,-184,2025-02-17 11:22:51,0.0
-3908,1656,-13612,-158,162,-184,2025-02-17 11:22:51,0.0
-3812,1696,-13664,-179,173,-169,2025-02-17 11:22:51,0.0
-3872,1700,-13672,-136,200,-194,2025-02-17 11:22:51,0.0
-3908,1660,-13640,-167,187,-180,2025-02-17 11:22:51,0.0
-3816,1572,-13724,-160,162,-182,2025-02-17 11:22:51,0.0
-3812,1668,-13712,-146,166,-165,2025-02-17 11:22:51,0.0
-3880,1776,-13676,-151,169,-192,2025-02-17 11:22:51,0.0
-3824,1656,-13684,-168,173,-159,2025-02-17 11:22:51,0.0
-3828,1712,-13668,-176,187,-194,2025-02-17 11:22:51,
-3788,1680,-13648,-158,189,-175,2025-02-17 11:22:51,0.0
-3928,1748,-13688,-169,135,-173,2025-02-17 11:22:51,0.0
-3848,1744,-13532,-141,178,-162,2025-02-17 11:22:51,0.0
-3952,1624,-13712,-163,167,-185,2025-02-17 11:22:51,0.0
-3784,1612,-13568,-151,170,-168,2025-02-17 11:22:51,0.0
-3920,1712,-13716,-134,179,-165,2025-02-17 11:22:51,0.0
-3928,1632,-13644,-159,189,-186,2025-02-17 11:22:51,0.0
-3812,1664,-13564,-145,166,-154,2025-02-17 11:22:51,0.0
-3820,1704,-13740,-185,178,-178,2025-02-17 11:22:51,0.0
-3872,1708,-13772,-133,169,-177,2025-02-17 11:22:51,0.0
-3868,1672,-13568,-139,146,-181,2025-02-17 11:22:51,0.0
-3872,1740,-13572,-144,183,-151,2025-02-17 11:22:51,0.0
-3832,1616,-13580,-139,169,-181,2025-02-17 11:22:51,0.0
-3852,1740,-13648,-143,169,-185,2025-02-17 11:22:51,0.0
-3928,1720,-13668,-143,166,-158,2025-02-17 11:22:51,0.0
-3808,1636,-13700,-152,146,-162,2025-02-17 11:22:51,0.0
-3832,1628,-13720,-146,161,-167,2025-02-17 11:22:51,0.0
-3952,1608,-13756,-146,170,-183,2025-02-17 11:22:51,0.0
-3864,1672,-13664,-160,160,-186,2025-02-17 11:22:51,0.0
-3832,1600,-13616,-140,160,-173,2025-02-17 11:22:51,0.0
-3872,1676,-13616,-174,155,-186,2025-02-17 11:22:51,0.0
-3820,1720,-13512,-167,177,-184,2025-02-17 11:22:51,0.0
-3864,1660,-13572,-130,200,-176,2025-02-17 11:22:51,0.0
-3880,1628,-13676,-144,186,-189,2025-02-17 11:22:51,0.0
-3872,1764,-13496,-150,169,-151,2025-02-17 11:22:51,0.0
-3824,1740,-13776,-151,190,-139,2025-02-17 11:22:51,0.0
-3860,1688,-13628,-176,175,-177,2025-02-17 11:22:51,0.0
-3816,1664,-13620,-163,129,-175,2025-02-17 11:22:51,0.0
-3844,1728,-13488,-154,149,-190,2025-02-17 11:22:51,0.0
-3760,1580,-13520,-146,181,-180,2025-02-17 11:22:51,0.0
-3896,1564,-13488,-156,165,-170,2025-02-17 11:22:51,0.0
-3936,1668,-13592,-163,167,-161,2025-02-17 11:22:51,0.0
-3840,1668,-13592,-165,185,-157,2025-02-17 11:22:51,0.0
-3832,1684,-13612,-172,170,-164,2025-02-17 11:22:51,0.0
-3908,1656,-13560,-123,158,-177,2025-02-17 11:22:51,0.0
-3828,1716,-13768,-140,158,-202,2025-02-17 11:22:51,0.0
-3400,1500,-13116,-151,15,-160,2025-02-17 11:22:51,0.0
-4124,1768,-13656,-143,49,-198,2025-02-17 11:22:51,0.0
-4584,1744,-13488,-102,385,-109,2025-02-17 11:22:51,0.0
-3680,1820,-12920,153,611,-206,2025-02-17 11:22:51,0.0
-3124,1324,-12948,182,785,-352,2025-02-17 11:22:51,0.0
-3448,1900,-13160,555,1270,-569,2025-02-17 11:22:51,0.0
-3772,1860,-13228,802,768,-494,2025-02-17 11:22:51,0.0
-4104,872,-12852,1194,1060,-585,2025-02-17 11:22:51,0.0
-5356,1968,-12736,999,1604,-172,2025-02-17 11:22:51,0.0
-3416,1804,-15396,1053,53,-3,2025-02-17 11:22:51,0.0
-2940,648,-15372,-402,-1808,-263,2025-02-17 11:22:51,0.0
-4900,1076,-16556,-1349,-2418,120,2025-02-17 11:22:51,0.0
-3916,892,-14304,-1988,-1925,343,2025-02-17 11:22:51,0.0
-5924,780,-15760,-3278,2715,912,2025-02-17 11:22:51,0.0
-6600,956,-17688,-5453,7598,1736,2025-02-17 11:22:51,0.0
-3580,2168,-15292,-5900,6314,1924,2025-02-17 11:22:52,0.0
2252,2804,-18528,-6780,645,983,2025-02-17 11:22:52,0.0
-7532,468,-21556,-12164,5541,3009,2025-02-17 11:22:52,0.0
-7428,1504,-15356,-12747,10447,4594,2025-02-17 11:22:52,0.0
-2892,3180,-12536,-12365,8162,4475,2025-02-17 11:22:52,0.0
-984,2036,-11356,-11252,614,4732,2025-02-17 11:22:52,0.0
-3032,3516,-15180,-11892,1502,5571,2025-02-17 11:22:52,0.0
-1420,6128,-16580,-13086,3629,4949,2025-02-17 11:22:52,0.0
-3612,6144,-16320,-13563,5689,5203,2025-02-17 11:22:52,0.0
-2832,6092,-13388,-13676,5437,5568,2025-02-17 11:22:52,0.0
-1588,5704,-12524,-13537,2824,5719,2025-02-17 11:22:52,0.0
-4,5100,-13532,-13893,-956,5324,2025-02-17 11:22:52,0.0
1236,5788,-11992,-13505,-2694,4296,2025-02-17 11:22:52,0.0
1808,6052,-10608,-12519,-2339,2777,2025-02-17 11:22:52,0.0
12,6888,-8852,-11616,-502,1615,2025-02-17 11:22:52,0.0
-652,7624,-9496,-10478,624,1538,2025-02-17 11:22:52,0.0
1768,7224,-8720,-9485,-1593,345,2025-02-17 11:22:52,0.0
2868,7128,-8972,-7958,-3231,-1405,2025-02-17 11:22:52,0.0
412,7376,-11196,-7789,-1080,-2247,2025-02-17 11:22:52,0.0
-1452,8200,-10932,-7909,1525,-2509,2025-02-17 11:22:52,0.0
-216,10316,-8904,-7128,2053,-3518,2025-02-17 11:22:52,0.0
-1624,9776,-7236,-6295,-679,-2965,2025-02-17 11:22:52,0.0
-3132,11488,-9780,-5748,-1342,-2938,2025-02-17 11:22:52,0.0
-6688,11576,-12300,-6355,-2508,-684,2025-02-17 11:22:52,0.0
-3352,9344,-11224,-6347,-1693,-450,2025-02-17 11:22:52,0.0
-3320,8120,-9396,-6352,-384,331,2025-02-17 11:22:52,0.0
-4220,9748,-4708,-4737,443,1264,2025-02-17 11:22:52,0.0
-3908,10584,-6500,-2532,4030,1620,2025-02-17 11:22:52,0.0
808,10396,-8556,-2641,593,1503,2025-02-17 11:22:52,0.0
-796,12288,-10820,-1556,115,983,2025-02-17 11:22:52,0.0
-3184,11868,-12272,-2339,670,1035,2025-02-17 11:22:52,0.0
-2096,9576,-9980,-2924,-741,2264,2025-02-17 11:22:52,0.0
-1252,10200,-8684,-2217,-3312,1685,2025-02-17 11:22:52,0.0
-1724,12052,-7480,-1386,-1750,1921,2025-02-17 11:22:52,0.0
-2928,11272,-9920,-1100,-556,2446,2025-02-17 11:22:52,0.0
-4372,10836,-11120,-1529,-4398,3145,2025-02-17 11:22:52,0.0
-3600,11640,-13864,-2942,-2159,4203,2025-02-17 11:22:52,0.0
280,11184,-12636,-4381,602,4099,2025-02-17 11:22:52,0.0
-496,10400,-13076,-5983,408,3646,2025-02-17 11:22:52,0.0
-604,9716,-14616,-8536,-1727,3357,2025-02-17 11:22:52,0.0
-1572,11520,-15312,-10102,-1467,3298,2025-02-17 11:22:52,0.0
-3396,12032,-13568,-11773,2194,4309,2025-02-17 11:22:52,0.0
-1272,11852,-12128,-13370,2723,4816,2025-02-17 11:22:52,0.0
-4216,11336,-6544,-12945,349,5474,2025-02-17 11:22:52,0.0
-5200,12968,-14660,-16290,-41,7219,2025-02-17 11:22:52,0.0
-1792,14572,-15052,-26782,6156,12806,2025-02-17 11:22:52,0.0
844,15800,-14204,-32691,8558,13112,2025-02-17 11:22:52,0.0
4084,17824,-8076,-32768,10088,11329,2025-02-17 11:22:52,0.0
1300,20740,9672,-32768,2619,8047,2025-02-17 11:22:52,
7736,25300,12420,-20919,-15192,3922,2025-02-17 11:22:53,0.0
3392,27500,912,-12943,-17715,-386,2025-02-17 11:22:53,0.0
1296,25976,-2784,-12574,-15550,-1385,2025-02-17 11:22:53,0.0
448,24012,-708,-13788,-15111,-344,2025-02-17 11:22:53,0.0
2976,20380,220,-15976,-16816,-541,2025-02-17 11:22:53,0.0
2572,19116,272,-17829,-15897,-1688,2025-02-17 11:22:53,0.0
2600,20224,1012,-18997,-14306,-2099,2025-02-17 11:22:53,0.0
1852,21424,4364,-16845,-12896,-2233,2025-02-17 11:22:53,0.0
5204,25052,248,8044,2798,3232,2025-02-17 11:22:53,0.0
5272,22004,-1240,7511,2904,2083,2025-02-17 11:22:53,0.0
5572,21300,1324,7552,3684,-239,2025-02-17 11:22:53,0.0
-996,19320,1628,8498,7543,-120,2025-02-17 11:22:53,0.0
-6236,16960,-208,7472,13742,6005,2025-02-17 11:22:53,0.0
-2268,16192,-2552,3241,20596,11046,2025-02-17 11:22:53,0.0
1924,14784,-604,-2169,22413,11442,2025-02-17 11:22:53,0.0
3740,15364,4516,-4395,14093,7472,2025-02-17 11:22:53,0.0
1768,17304,4916,-4228,2566,3780,2025-02-17 11:22:53,0.0
1668,19624,2920,-3378,-3604,2649,2025-02-17 11:22:53,0.0
1308,18148,1860,-3042,-7107,3514,2025-02-17 11:22:53,0.0
712,15404,460,-3492,-8613,4746,2025-02-17 11:22:53,0.0
2600,13020,1408,-3922,-7066,4374,2025-02-17 11:22:53,0.0
2456,10056,1564,-3682,-2736,1618,2025-02-17 11:22:53,0.0
200,8988,1812,-5716,2023,1525,2025-02-17 11:22:53,0.0
1464,9440,5916,-4903,6048,2457,2025-02-17 11:22:53,0.0
552,8344,2276,4513,-4505,7667,2025-02-17 11:22:53,0.0
1024,8176,2152,5621,-6243,8801,2025-02-17 11:22:53,0.0
608,7664,1964,6121,-8279,9548,2025-02-17 11:22:53,0.0
-160,8296,676,6559,-12041,10763,2025-02-17 11:22:53,0.0
-744,8280,488,4176,-16364,13743,2025-02-17 11:22:53,0.0
980,10556,2516,3208,-21781,15733,2025-02-17 11:22:53,0.0
2252,13244,3040,4677,-27331,16098,2025-02-17 11:22:53,0.0
4176,14124,3636,8169,-31397,16314,2025-02-17 11:22:53,0.0
3776,12100,1356,11132,-32768,17749,2025-02-17 11:22:53,0.0
5908,8936,-940,10109,-32768,19409,2025-02-17 11:22:53,0.0
7024,6868,-256,9753,-31888,19400,2025-02-17 11:22:53,0.0
4584,6736,432,11464,-28620,20224,2025-02-17 11:22:53,0.0
2768,6900,4,14171,-22449,21876,2025-02-17 11:22:53,0.0
3932,6108,-2320,18415,3678,22587,2025-02-17 11:22:53,0.0
4228,5808,-5140,19106,12104,23051,2025-02-17 11:22:53,0.0
4276,5844,-5960,18261,19846,25999,2025-02-17 11:22:53,0.0
7468,5996,-6048,16547,25571,28726,2025-02-17 11:22:53,0.0
10756,5508,-8048,14314,28336,29633,2025-02-17 11:22:53,0.0
13944,3784,-10308,9551,27811,28494,2025-02-17 11:22:53,0.0
16212,2328,-10000,4637,24779,24978,2025-02-17 11:22:53,0.0
15740,2604,-7356,2585,20041,20910,2025-02-17 11:22:53,0.0
12756,3380,-5144,1178,13980,19895,2025-02-17 11:22:53,0.0
12764,3224,-3516,-266,12778,21176,2025-02-17 11:22:53,0.0
15540,1516,-2840,-1702,11482,20853,2025-02-17 11:22:53,0.0
19636,92,-3524,-3326,8380,17705,2025-02-17 11:22:53,0.0
20156,-628,-2492,-4471,3231,14069,2025-02-17 11:22:53,0.0
16676,112,-1124,-3589,-2431,14434,2025-02-17 11:22:53,0.0
17968,-532,-4540,-3138,-6920,18271,2025-02-17 11:22:53,0.0
21148,-2332,-4788,-4102,-10448,16914,2025-02-17 11:22:53,0.0
25184,-2204,-6256,-3598,-13610,8394,2025-02-17 11:22:53,0.0
22168,-132,-5948,-3815,-14804,3034,2025-02-17 11:22:53,0.0
26436,1184,3044,-2836,-8669,3706,2025-02-17 11:22:53,0.0
23720,1340,7156,1062,19703,3175,2025-02-17 11:22:53,0.0
18864,-1800,-10864,1550,29765,1207,2025-02-17 11:22:53,0.0
19084,-672,-11956,-2604,31623,-920,2025-02-17 11:22:54,0.0
16352,2216,-3324,-2848,32767,-1825,2025-02-17 11:22:54,0.0
20664,2148,6512,-1599,32767,-587,2025-02-17 11:22:54,0.0
24140,3472,9636,-1456,20998,-135,2025-02-17 11:22:54,0.0
19688,5104,6156,-2217,6781,-2034,2025-02-17 11:22:54,0.0
14780,3032,-136,-5117,-1364,-1786,2025-02-17 11:22:54,0.0
14464,2088,-156,-8409,-8459,-1017,2025-02-17 11:22:54,0.0
14412,1232,2176,-9651,-14853,-485,2025-02-17 11:22:54,0.0
15136,2260,1216,-10020,-18528,1091,2025-02-17 11:22:54,0.0
16632,3120,-664,-10158,-14522,245,2025-02-17 11:22:54,0.0
18852,3256,-2352,-10509,-9775,-1941,2025-02-17 11:22:54,0.0
18416,3436,-2080,-10820,-7970,-2502,2025-02-17 11:22:54,0.0
21560,2940,2520,-10216,-9889,-717,2025-02-17 11:22:54,0.0
18156,4004,-140,-7378,-4823,1776,2025-02-17 11:22:54,0.0
16236,5104,-5496,-6615,6654,1716,2025-02-17 11:22:54,0.0
20740,2352,-4436,-11679,1339,863,2025-02-17 11:22:54,0.0
18096,1328,3036,-13504,-8671,420,2025-02-17 11:22:54,0.0
18588,2328,440,-10342,-8220,128,2025-02-17 11:22:54,0.0
17660,2368,-3696,-10837,-9092,354,2025-02-17 11:22:54,0.0
19072,3184,-4712,-13967,-10061,1519,2025-02-17 11:22:54,0.0
20472,3284,-532,-13362,-8699,1129,2025-02-17 11:22:54,0.0
20676,2480,-2648,-11886,-7075,463,2025-02-17 11:22:54,0.0
19344,1256,-5432,-11694,-6428,557,2025-02-17 11:22:54,0.0
17556,656,-5600,-14040,-7640,2430,2025-02-17 11:22:54,0.0
17900,440,-4656,-14001,-6837,3372,2025-02-17 11:22:54,0.0
17960,1112,-4716,-14459,-5735,3171,2025-02-17 11:22:54,0.0
17676,1384,-5052,-15748,-4876,2572,2025-02-17 11:22:54,0.0
17432,256,-3972,-16241,-3696,2700,2025-02-17 11:22:54,0.0
17480,28,-2040,-15846,-2560,2901,2025-02-17 11:22:54,0.0
16992,-244,-1072,-15024,-2320,3355,2025-02-17 11:22:54,0.0
16548,256,-1236,-14158,-2582,4314,2025-02-17 11:22:54,0.0
17908,708,-2080,-13681,-2970,4667,2025-02-17 11:22:54,0.0
18464,376,-2700,-13581,-3619,4290,2025-02-17 11:22:54,0.0
19260,156,-3760,-14489,-4528,3498,2025-02-17 11:22:54,0.0
19596,-112,-3360,-15053,-4859,2792,2025-02-17 11:22:54,0.0
19392,-316,-2820,-14749,-4799,2264,2025-02-17 11:22:54,0.0
19780,-336,-2596,-13423,-5244,2335,2025-02-17 11:22:54,0.0
20244,-356,-3532,-12400,-5464,2221,2025-02-17 11:22:54,0.0
20120,-100,-3820,-11789,-4551,1838,2025-02-17 11:22:54,0.0
19748,-200,-3160,-11630,-3345,1640,2025-02-17 11:22:54,0.0
18844,212,-2576,-11582,-2103,1480,2025-02-17 11:22:54,0.0
17980,1032,-3184,-11787,-1201,1903,2025-02-17 11:22:54,
16020,2144,-1096,-11609,-850,3049,2025-02-17 11:22:54,0.0
16728,3032,-1860,-11821,-1130,3704,2025-02-17 11:22:54,0.0
19152,1296,-4,-2161,3556,1010,2025-02-17 11:22:54,0.0
17864,1532,-80,-1321,2451,425,2025-02-17 11:22:54,0.0
17792,2196,304,-106,1014,235,2025-02-17 11:22:54,0.0
18488,2512,336,825,-369,259,2025-02-17 11:22:54,0.0
19712,2472,-272,1740,-1362,29,2025-02-17 11:22:54,0.0
20384,2152,-2300,2890,-2329,-396,2025-02-17 11:22:54,0.0
21168,2424,-4172,2798,-1880,-886,2025-02-17 11:22:54,0.0
21428,3188,-5364,1677,-591,-1333,2025-02-17 11:22:54,0.0
20684,4056,-3968,787,-359,-1824,2025-02-17 11:22:55,0.0
19840,4932,-4736,81,-609,-1836,2025-02-17 11:22:55,0.0
19088,5392,-4900,-1007,585,-2097,2025-02-17 11:22:55,0.0
16588,6064,-3220,-1519,1817,-1578,2025-02-17 11:22:55,0.0
15412,6992,-3920,-2396,3253,46,2025-02-17 11:22:55,0.0
14540,7152,-3216,-3046,3296,1460,2025-02-17 11:22:55,0.0
14868,7240,-2804,-3527,1050,2583,2025-02-17 11:22:55,0.0
15644,6040,-3512,-3578,-2098,3115,2025-02-17 11:22:55,0.0
15840,4412,-5584,-3959,-4193,3570,2025-02-17 11:22:55,0.0
15992,3052,-7552,-4901,-4134,4663,2025-02-17 11:22:55,0.0
16356,1592,-8396,-5938,-2955,5433,2025-02-17 11:22:55,0.0
15948,756,-8752,-6352,-2024,6347,2025-02-17 11:22:55,0.0
15436,1128,-9100,-7760,-4495,7220,2025-02-17 11:22:55,0.0
15892,456,-7864,-8838,-7760,7827,2025-02-17 11:22:55,0.0
16932,-972,-5412,-8657,-11495,7434,2025-02-17 11:22:55,0.0
17580,-1696,-4156,-7770,-15230,6774,2025-02-17 11:22:55,0.0
17664,-1848,-4476,-6699,-17812,6053,2025-02-17 11:22:55,0.0
17592,-1892,-6968,-6354,-18096,5313,2025-02-17 11:22:55,0.0
17432,-1380,-8464,-6440,-14902,5176,2025-02-17 11:22:55,0.0
18320,-656,-8984,-6976,-9279,5012,2025-02-17 11:22:55,0.0
18220,132,-8396,-6986,-3453,5054,2025-02-17 11:22:55,0.0
18132,304,-7860,-7044,1933,5055,2025-02-17 11:22:55,0.0
17788,116,-7244,-7317,5257,3917,2025-02-17 11:22:55,0.0
15008,-440,-5756,-7425,6324,2930,2025-02-17 11:22:55,0.0
14344,-660,-4580,-7135,4708,3655,2025-02-17 11:22:55,0.0
14620,-492,-2340,-5808,853,4857,2025-02-17 11:22:55,0.0
14780,-352,-4044,-4833,-2483,5959,2025-02-17 11:22:55,0.0
15364,-128,-6524,-5048,-2808,6944,2025-02-17 11:22:55,0.0
17532,-624,-7704,-5752,-1394,7055,2025-02-17 11:22:55,0.0
18616,-1148,-6884,-6607,306,5129,2025-02-17 11:22:55,0.0
17200,-1440,-5492,-6805,1384,3755,2025-02-17 11:22:55,0.0
16548,-1604,-4836,-6843,1678,2938,2025-02-17 11:22:55,0.0
16056,-2036,-4216,-6591,1643,2356,2025-02-17 11:22:55,0.0
16392,-2388,-4984,-6606,1951,1975,2025-02-17 11:22:55,0.0
17324,-2472,-4592,-6848,3066,1306,2025-02-17 11:22:55,0.0
18376,-2772,-3012,-5950,5344,627,2025-02-17 11:22:55,0.0
18852,-2612,-4100,-5424,6319,358,2025-02-17 11:22:55,0.0
18604,-2312,-4708,-5522,7287,164,2025-02-17 11:22:55,0.0
17612,-936,-4988,-5673,8608,443,2025-02-17 11:22:55,0.0
17464,1236,-3588,-5117,8838,860,2025-02-17 11:22:55,0.0
16496,1856,-2416,-4428,7291,1610,2025-02-17 11:22:55,0.0
18180,1440,-2180,-3413,3027,2134,2025-02-17 11:22:55,0.0
19012,1052,-3648,-3095,-522,2181,2025-02-17 11:22:55,0.0
19300,1136,-3304,-3436,-1316,1957,2025-02-17 11:22:55,0.0
21624,1820,-4564,-4242,-946,1583,2025-02-17 11:22:55,0.0
19440,-140,-2800,-5115,-1111,1921,2025-02-17 11:22:55,0.0
18932,-568,-4192,-4899,-1622,2971,2025-02-17 11:22:55,0.0
19296,-1016,-6212,-4241,-3705,3679,2025-02-17 11:22:55,0.0
19728,-2088,-6976,-3247,-6190,4030,2025-02-17 11:22:55,0.0
21216,-3412,-8244,-2191,-7788,3775,2025-02-17 11:22:55,0.0
21276,-4508,-9660,-1641,-7784,3289,2025-02-17 11:22:55,0.0
21000,-4144,-10604,-1486,-6880,2328,2025-02-17 11:22:55,0.0
21248,-2216,-10624,-1963,-5196,18,2025-02-17 11:22:55,0.0
18424,396,-8432,-1023,-1303,-2592,2025-02-17 11:22:55,0.0
16496,2456,-7620,-693,3434,-4370,2025-02-17 11:22:55,0.0
15312,2212,-7144,-848,4152,-5615,2025-02-17 11:22:55,0.0
13600,1872,-6912,-1234,3759,-5734,2025-02-17 11:22:55,0.0
12508,1576,-6920,-1434,2113,-4331,2025-02-17 11:22:55,0.0
13080,924,-6896,-986,403,-2847,2025-02-17 11:22:55,0.0
13996,-36,-6540,-177,-2041,-1591,2025-02-17 11:22:55,0.0
16412,-268,-7192,53,-3049,-1569,2025-02-17 11:22:55,0.0
17552,720,-7316,-330,-2257,-2408,2025-02-17 11:22:56,0.0
17420,2000,-8460,-714,322,-2815,2025-02-17 11:22:56,0.0
17032,2268,-9436,-1379,2461,-3153,2025-02-17 11:22:56,0.0
15068,1336,-7388,-1669,4433,-2954,2025-02-17 11:22:56,0.0
14644,1412,-5728,-889,5472,-2310,2025-02-17 11:22:56,0.0
14480,1708,-6380,-540,4704,-1932,2025-02-17 11:22:56,0.0
14076,1908,-5940,-439,3974,-1164,2025-02-17 11:22:56,0.0
14500,2428,-6060,-778,4141,-414,2025-02-17 11:22:56,0.0
14956,2680,-5084,-1109,4313,-151,2025-02-17 11:22:56,0.0
15300,2700,-5144,-1078,3680,-468,2025-02-17 11:22:56,0.0
14936,2608,-5124,-1218,2862,-343,2025-02-17 11:22:56,0.0
15608,2180,-3908,-846,1987,-375,2025-02-17 11:22:56,0.0
15772,2052,-3368,227,457,-279,2025-02-17 11:22:56,0.0
15976,2068,-3804,1067,-367,-252,2025-02-17 11:22:56,0.0
15872,1960,-4524,1245,-591,-49,2025-02-17 11:22:56,0.0
16104,1552,-4308,1214,-633,582,2025-02-17 11:22:56,0.0
16928,1220,-4936,1069,-326,1077,2025-02-17 11:22:56,0.0
17148,1296,-5100,906,322,1237,2025-02-17 11:22:56,0.0
16556,1476,-5572,643,732,1677,2025-02-17 11:22:56,0.0
17488,1616,-4904,667,287,1758,2025-02-17 11:22:56,0.0
17672,1256,-5316,996,-669,1423,2025-02-17 11:22:56,0.0
18460,1228,-5628,910,-2059,1171,2025-02-17 11:22:56,0.0
19356,1020,-5348,762,-2720,819,2025-02-17 11:22:56,0.0
19836,1292,-5756,462,-2284,119,2025-02-17 11:22:56,0.0
19500,1324,-6220,-705,-1168,-590,2025-02-17 11:22:56,0.0
19432,952,-3728,264,869,-1705,2025-02-17 11:22:56,0.0
18532,1176,-3916,2269,2826,-2560,2025-02-17 11:22:56,0.0
18100,2332,-5288,2537,3259,-2006,2025-02-17 11:22:56,0.0
18524,2640,-4988,2350,783,-1215,2025-02-17 11:22:56,
18472,2908,-4712,3591,-987,-399,2025-02-17 11:22:56,0.0
18616,4048,-6996,4042,-3043,75,2025-02-17 11:22:56,0.0
17460,4300,-6696,5443,-3989,-62,2025-02-17 11:22:56,0.0
15668,4076,-7660,8417,-4217,146,2025-02-17 11:22:56,0.0
13572,-244,-8808,4000,1037,3187,2025-02-17 11:22:56,0.0
14324,-1468,-9024,2521,3245,4585,2025-02-17 11:22:56,0.0
15176,-2812,-8144,540,3634,4658,2025-02-17 11:22:56,0.0
15208,-3396,-6652,-245,1481,4435,2025-02-17 11:22:56,0.0
15332,-2104,-7180,-120,-2227,4266,2025-02-17 11:22:56,0.0
16564,-320,-8740,-300,-5455,3737,2025-02-17 11:22:56,0.0
17932,-368,-8280,-127,-6673,2921,2025-02-17 11:22:56,0.0
17628,-1104,-8172,203,-5899,2393,2025-02-17 11:22:56,0.0
18668,-932,-9844,372,-3783,1707,2025-02-17 11:22:56,0.0
17524,-752,-9884,64,-86,998,2025-02-17 11:22:56,0.0
16088,-84,-8060,-1030,2294,252,2025-02-17 11:22:56,0.0
15036,44,-6972,-1649,3120,-410,2025-02-17 11:22:56,0.0
14028,216,-7428,-3593,3090,-1108,2025-02-17 11:22:56,0.0
13840,-640,-4848,-3582,1652,-1636,2025-02-17 11:22:56,0.0
13916,-1412,-6184,-3358,-1056,-1692,2025-02-17 11:22:56,0.0
13596,-1592,-6768,-2755,-3242,-388,2025-02-17 11:22:56,0.0
15788,-2008,-7888,-2175,-2275,722,2025-02-17 11:22:56,0.0
16796,-1744,-9000,-2776,-676,-41,2025-02-17 11:22:56,0.0
16072,-1220,-8116,-2845,122,-64,2025-02-17 11:22:56,0.0
17272,-412,-7592,-2656,1382,-643,2025-02-17 11:22:56,0.0
17068,560,-7252,-2592,1485,-2015,2025-02-17 11:22:56,0.0
16388,1016,-6484,-2397,501,-1955,2025-02-17 11:22:56,0.0
17156,1328,-6652,-1852,-201,-1532,2025-02-17 11:22:56,0.0
17248,1052,-7700,-1629,177,-1190,2025-02-17 11:22:56,0.0
17484,488,-7448,-1186,928,-872,2025-02-17 11:22:57,0.0
17048,-136,-7816,-653,1552,-777,2025-02-17 11:22:57,0.0
16100,-736,-8168,-573,1527,-347,2025-02-17 11:22:57,0.0
15444,-1532,-8180,-658,900,435,2025-02-17 11:22:57,0.0
15864,-2464,-7620,-793,491,774,2025-02-17 11:22:57,0.0
16432,-2168,-7684,-626,392,140,2025-02-17 11:22:57,0.0
16904,-1640,-7376,-568,617,-960,2025-02-17 11:22:57,0.0
16504,-1628,-6540,87,507,-2152,2025-02-17 11:22:57,0.0
16268,-1632,-5912,888,-169,-2874,2025-02-17 11:22:57,0.0
15828,-1640,-5320,1938,-1055,-3079,2025-02-17 11:22:57,0.0
16368,-1528,-5400,2795,-1997,-3126,2025-02-17 11:22:57,0.0
16404,-1468,-5916,3731,-2480,-3253,2025-02-17 11:22:57,0.0
16892,-1836,-5792,4416,-2384,-3380,2025-02-17 11:22:57,0.0
16844,-2004,-5120,5459,-2108,-3847,2025-02-17 11:22:57,0.0
17648,-1936,-6348,6430,-2028,-4516,2025-02-17 11:22:57,0.0
17104,-1720,-6048,7163,-1699,-5130,2025-02-17 11:22:57,0.0
17196,-1688,-7188,7691,-1499,-5468,2025-02-17 11:22:57,0.0
17472,-1020,-6832,7982,-1058,-5784,2025-02-17 11:22:57,0.0
17860,-964,-6856,8506,-609,-6235,2025-02-17 11:22:57,0.0
17812,-640,-7124,9049,-46,-6487,2025-02-17 11:22:57,0.0
17944,-496,-7160,9412,796,-6613,2025-02-17 11:22:57,0.0
17852,-648,-7408,9770,1543,-6733,2025-02-17 11:22:57,0.0
17524,-904,-7276,9817,2429,-6723,2025-02-17 11:22:57,0.0
17016,-1512,-7080,9945,3139,-6766,2025-02-17 11:22:57,0.0
16580,-1792,-7088,10135,3359,-6921,2025-02-17 11:22:57,0.0
15952,-1856,-7096,9919,3053,-6786,2025-02-17 11:22:57,0.0
15580,-2068,-7752,9562,2790,-6657,2025-02-17 11:22:57,0.0
15280,-1720,-7188,9328,2782,-6496,2025-02-17 11:22:57,0.0
14868,-1308,-7304,9454,3308,-6287,2025-02-17 11:22:57,0.0
15156,-124,-7360,9666,3967,-6137,2025-02-17 11:22:57,0.0
15864,700,-6552,10030,4041,-6571,2025-02-17 11:22:57,0.0
16164,1076,-6740,11164,3111,-7448,2025-02-17 11:22:57,0.0
16552,2220,-7704,12515,502,-8353,2025-02-17 11:22:57,0.0
16320,1768,-8200,13311,-605,-8313,2025-02-17 11:22:57,0.0
17476,700,-7088,13878,-1361,-8406,2025-02-17 11:22:57,0.0
17888,100,-6572,14444,-2078,-7911,2025-02-17 11:22:57,0.0
18656,-696,-6592,15206,-1213,-7650,2025-02-17 11:22:57,0.0
19752,-1536,-8204,16047,750,-8643,2025-02-17 11:22:57,0.0
20120,-1060,-8752,16773,3245,-10659,2025-02-17 11:22:57,0.0
17220,-252,-8076,17761,4061,-11988,2025-02-17 11:22:57,0.0
14948,100,-8148,18303,3864,-12291,2025-02-17 11:22:57,0.0
13744,-264,-7408,18453,2655,-12114,2025-02-17 11:22:57,0.0
13956,372,-6324,18995,1431,-12127,2025-02-17 11:22:57,0.0
14092,1184,-6884,19367,307,-12564,2025-02-17 11:22:57,0.0
14236,1788,-7352,19676,-370,-12464,2025-02-17 11:22:57,0.0
15008,2088,-8024,20055,-491,-12270,2025-02-17 11:22:57,0.0
15260,2196,-8256,20242,55,-12089,2025-02-17 11:22:57,0.0
14972,2004,-8788,20265,564,-11822,2025-02-17 11:22:57,0.0
14532,1976,-8436,19904,484,-11258,2025-02-17 11:22:57,0.0
14744,1636,-7940,19512,-308,-10974,2025-02-17 11:22:57,0.0
15180,1132,-8060,19138,-1050,-10754,2025-02-17 11:22:57,0.0
15824,2344,-8608,18737,-993,-10465,2025-02-17 11:22:57,0.0
16016,3556,-8980,18365,423,-9881,2025-02-17 11:22:57,0.0
16004,2716,-9504,18476,2832,-9618,2025-02-17 11:22:57,0.0
15900,1476,-9948,18522,4673,-9360,2025-02-17 11:22:57,0.0
14628,796,-7608,18794,4461,-9213,2025-02-17 11:22:57,0.0
14088,1196,-6732,18793,3392,-9094,2025-02-17 11:22:57,0.0
13408,1744,-6788,18660,1628,-8659,2025-02-17 11:22:57,0.0
14868,2008,-8008,18701,-131,-8321,2025-02-17 11:22:57,0.0
16000,968,-9984,18475,-2544,-8451,2025-02-17 11:22:57,0.0
16532,-256,-10484,17980,-4139,-8510,2025-02-17 11:22:57,0.0
16296,-728,-10632,17141,-3162,-8697,2025-02-17 11:22:58,0.0
15580,-1948,-10436,16106,-1302,-8968,2025-02-17 11:22:58,0.0
14932,-2956,-9788,15315,-121,-9206,2025-02-17 11:22:58,0.0
14904,-2576,-9096,15094,-283,-9437,2025-02-17 11:22:58,0.0
14824,-1720,-8108,14671,-989,-9493,2025-02-17 11:22:58,0.0
15696,-1116,-6820,14730,-1782,-9389,2025-02-17 11:22:58,0.0
16064,-1008,-7464,14719,-2667,-9046,2025-02-17 11:22:58,0.0
16744,-912,-8648,14646,-3680,-7781,2025-02-17 11:22:58,0.0
17796,-268,-8884,14251,-3939,-6716,2025-02-17 11:22:58,0.0
18608,-568,-9836,14263,-2610,-6263,2025-02-17 11:22:58,0.0
17732,-1104,-9584,13553,-514,-6206,2025-02-17 11:22:58,
16920,-1520,-8356,12975,1113,-5864,2025-02-17 11:22:58,0.0
16912,-1696,-7768,12312,1297,-5863,2025-02-17 11:22:58,0.0
16704,-1892,-7836,11363,1272,-6478,2025-02-17 11:22:58,0.0
15852,-1892,-7612,10467,1828,-6981,2025-02-17 11:22:58,0.0
15368,-2480,-6972,9761,2087,-7431,2025-02-17 11:22:58,0.0
15300,-2548,-6608,9359,1661,-7865,2025-02-17 11:22:58,0.0
14764,-2492,-6476,9241,1162,-8221,2025-02-17 11:22:58,0.0
14504,-1744,-6572,9348,503,-8452,2025-02-17 11:22:58,0.0
14420,-1716,-6560,9477,-436,-8673,2025-02-17 11:22:58,0.0
14648,-1696,-6972,9538,-1937,-8833,2025-02-17 11:22:58,0.0
15416,-1788,-8000,9674,-2778,-9043,2025-02-17 11:22:58,0.0
16076,-1800,-8968,9712,-2846,-9309,2025-02-17 11:22:58,0.0
16712,-1964,-9112,9877,-2024,-9405,2025-02-17 11:22:58,0.0
16896,-1824,-9376,10204,-619,-9057,2025-02-17 11:22:58,0.0
16300,-1572,-9636,10541,531,-8791,2025-02-17 11:22:58,0.0
15376,-1132,-9912,10418,1179,-8492,2025-02-17 11:22:58,0.0
14632,-1024,-9880,10117,1394,-8100,2025-02-17 11:22:58,0.0
14044,-648,-8832,10025,808,-7657,2025-02-17 11:22:58,0.0
13788,-412,-8968,10077,-564,-7415,2025-02-17 11:22:58,0.0
13996,40,-9736,9716,-1780,-7280,2025-02-17 11:22:58,0.0
14588,364,-9888,8376,-1792,-7084,2025-02-17 11:22:58,0.0
14952,436,-9420,7255,-667,-6934,2025-02-17 11:22:58,0.0
15488,376,-9156,6419,449,-6977,2025-02-17 11:22:58,0.0
14524,56,-8688,5998,544,-6419,2025-02-17 11:22:58,0.0
16288,188,-8768,7113,-2230,-6025,2025-02-17 11:22:58,0.0
15460,-24,-12084,8251,-5458,-5868,2025-02-17 11:22:58,0.0
15476,116,-13412,6622,-4059,-4474,2025-02-17 11:22:58,0.0
16740,1356,-9328,4485,-1417,-3796,2025-02-17 11:22:58,0.0
18028,2116,-5732,3943,844,-4536,2025-02-17 11:22:58,0.0
17208,1788,-4772,4389,2235,-5093,2025-02-17 11:22:58,0.0
15396,1256,-6904,4549,2246,-4989,2025-02-17 11:22:58,0.0
13848,428,-8220,4143,1903,-3823,2025-02-17 11:22:58,0.0
13608,-480,-8040,3967,1306,-2839,2025-02-17 11:22:58,0.0
13004,-1060,-8044,3901,336,-1822,2025-02-17 11:22:58,0.0
13988,-464,-7120,3611,-766,-590,2025-02-17 11:22:58,0.0
15948,-716,-7432,3498,-1639,-683,2025-02-17 11:22:58,0.0
17680,4,-8400,3530,-2592,-2003,2025-02-17 11:22:58,0.0
17840,-232,-9080,3592,-2818,-3195,2025-02-17 11:22:58,0.0
17300,-624,-9592,2625,-1187,-2487,2025-02-17 11:22:58,0.0
18796,-1100,-9060,2169,450,-2391,2025-02-17 11:22:58,0.0
17544,-468,-8816,1762,2159,-3354,2025-02-17 11:22:58,0.0
15180,340,-7476,1577,2902,-2825,2025-02-17 11:22:58,0.0
14780,-148,-6924,1699,2095,-2367,2025-02-17 11:22:58,0.0
15408,-864,-7036,1973,1333,-1895,2025-02-17 11:22:58,0.0
15896,-972,-7160,1944,1122,-2012,2025-02-17 11:22:58,0.0
16372,-1296,-7364,2095,1584,-2013,2025-02-17 11:22:58,0.0
16636,-1376,-8140,1823,2404,-2088,2025-02-17 11:22:58,0.0
16360,-1300,-8380,1652,2834,-2388,2025-02-17 11:22:58,0.0
16016,-1304,-8428,1286,2789,-2565,2025-02-17 11:22:58,0.0
15904,-1464,-8484,908,2404,-2848,2025-02-17 11:22:58,0.0
15276,-492,-8240,373,1573,-2859,2025-02-17 11:22:58,0.0
15412,388,-7948,-5,75,-2470,2025-02-17 11:22:58,0.0
16000,476,-8820,-87,-101,-2595,2025-02-17 11:22:58,0.0
16116,296,-9772,-234,762,-2857,2025-02-17 11:22:59,0.0
16320,1316,-9316,-354,1884,-3658,2025-02-17 11:22:59,0.0
16140,1996,-7752,-464,2064,-4123,2025-02-17 11:22:59,0.0
16092,1640,-7308,78,1019,-4491,2025-02-17 11:22:59,0.0
15736,1824,-8020,504,-774,-4335,2025-02-17 11:22:59,0.0
15440,1860,-8108,174,-1558,-3674,2025-02-17 11:22:59,0.0
15784,1744,-7340,-291,-1724,-3027,2025-02-17 11:22:59,0.0
16796,1524,-6640,-475,-2001,-2889,2025-02-17 11:22:59,0.0
16744,1600,-7280,-480,-1696,-2706,2025-02-17 11:22:59,0.0
17172,1824,-7628,-366,-850,-2509,2025-02-17 11:22:59,0.0
17180,2360,-7000,-116,897,-2536,2025-02-17 11:22:59,0.0
16268,2692,-6296,283,1963,-2598,2025-02-17 11:22:59,0.0
15440,2608,-6384,464,2179,-2374,2025-02-17 11:22:59,0.0
15204,2156,-6412,534,1930,-2229,2025-02-17 11:22:59,0.0
15364,1732,-5772,694,1080,-2458,2025-02-17 11:22:59,0.0
15372,1304,-6476,977,-162,-2877,2025-02-17 11:22:59,0.0
15312,1424,-6440,936,-31,-2835,2025-02-17 11:22:59,0.0
15524,1336,-6548,764,13,-2546,2025-02-17 11:22:59,0.0
15824,1612,-6528,986,-52,-2168,2025-02-17 11:22:59,0.0
15740,1580,-6844,804,406,-1719,2025-02-17 11:22:59,0.0
16332,1520,-6312,484,871,-1291,2025-02-17 11:22:59,0.0
17156,1340,-5692,422,1553,-1456,2025-02-17 11:22:59,0.0
17444,1740,-5668,329,2337,-1689,2025-02-17 11:22:59,0.0
18120,1844,-5384,147,2848,-1829,2025-02-17 11:22:59,0.0
18584,1436,-5356,231,3560,-2147,2025-02-17 11:22:59,0.0
18812,1408,-5336,508,4612,-2627,2025-02-17 11:22:59,0.0
18180,1620,-5424,465,5741,-3193,2025-02-17 11:22:59,0.0
17388,2168,-4848,488,6530,-3419,2025-02-17 11:22:59,0.0
16348,2708,-4432,834,6121,-3651,2025-02-17 11:22:59,0.0
14968,2964,-4340,1359,4717,-3408,2025-02-17 11:22:59,0.0
14900,3324,-4128,2059,2710,-2844,2025-02-17 11:22:59,0.0
15984,3944,-4112,2927,-472,-2088,2025-02-17 11:22:59,0.0
17980,4872,-4236,3691,-2969,-1587,2025-02-17 11:22:59,0.0
19192,4760,-5480,4528,-3155,-1444,2025-02-17 11:22:59,0.0
18784,4804,-4964,4236,-1153,-980,2025-02-17 11:22:59,0.0
18700,5744,-6176,4563,-165,-697,2025-02-17 11:22:59,0.0
18400,4792,-8396,4796,-1787,-861,2025-02-17 11:22:59,0.0
18920,4480,-8544,3622,-4359,-774,2025-02-17 11:22:59,0.0
19208,5124,-7820,3390,-4486,-647,2025-02-17 11:22:59,0.0
18088,5168,-9884,3199,-1778,-336,2025-02-17 11:22:59,0.0
16884,4860,-11780,1853,749,565,2025-02-17 11:22:59,0.0
17268,4108,-11352,246,1672,1162,2025-02-17 11:22:59,0.0
16764,2656,-9416,-30,3262,1409,2025-02-17 11:22:59,0.0
15060,2324,-9356,89,6424,1805,2025-02-17 11:22:59,0.0
12752,1704,-8860,11,8260,2300,2025-02-17 11:22:59,0.0
12096,480,-8508,-4,7435,2674,2025-02-17 11:22:59,0.0
12084,-1444,-8264,58,4107,2839,2025-02-17 11:22:59,
14228,-2908,-8548,-19,71,2684,2025-02-17 11:22:59,0.0
16048,-3200,-9132,-674,-3109,1846,2025-02-17 11:22:59,0.0
17596,-1556,-8900,-1156,-3145,1164,2025-02-17 11:22:59,0.0
18016,1384,-8336,-676,-2306,388,2025-02-17 11:22:59,0.0
16724,2700,-8512,-18,-1750,286,2025-02-17 11:22:59,0.0
15284,3340,-8668,714,-412,1217,2025-02-17 11:22:59,0.0
15096,3104,-8252,942,1017,2019,2025-02-17 11:22:59,0.0
15292,2000,-7588,1067,1027,2503,2025-02-17 11:22:59,0.0
14852,808,-7448,639,996,2844,2025-02-17 11:22:59,0.0
14556,-804,-6872,51,1252,3387,2025-02-17 11:22:59,0.0
14620,-1536,-6236,-52,1451,3825,2025-02-17 11:22:59,0.0
14616,-1396,-6668,-381,1107,3872,2025-02-17 11:22:59,0.0
14868,-1176,-7232,-765,979,3605,2025-02-17 11:22:59,0.0
14912,-852,-7036,-1710,894,3267,2025-02-17 11:23:00,0.0
15236,-984,-5928,-2085,419,3006,2025-02-17 11:23:00,0.0
15484,-912,-5856,-2258,-78,2744,2025-02-17 11:23:00,0.0
15432,-744,-5672,-2394,-503,2445,2025-02-17 11:23:00,0.0
15176,-684,-5768,-2554,-831,2246,2025-02-17 11:23:00,0.0
15720,-808,-6024,-2883,-1131,2046,2025-02-17 11:23:00,0.0
16112,-984,-5356,-3240,-720,1440,2025-02-17 11:23:00,0.0
16908,-1100,-5416,-3170,69,964,2025-02-17 11:23:00,0.0
17356,-932,-5380,-2973,924,436,2025-02-17 11:23:00,0.0
17204,-752,-5048,-2791,1570,91,2025-02-17 11:23:00,0.0
16944,-760,-4872,-2476,1616,247,2025-02-17 11:23:00,0.0
16660,-884,-5736,-2371,1099,797,2025-02-17 11:23:00,0.0
16704,-164,-6360,-2645,1046,1292,2025-02-17 11:23:00,0.0
16600,560,-6880,-3207,1341,1793,2025-02-17 11:23:00,0.0
16432,1136,-6772,-3703,1537,2203,2025-02-17 11:23:00,0.0
16588,804,-6624,-3900,1751,2549,2025-02-17 11:23:00,0.0
16652,-236,-6136,-3873,1512,2914,2025-02-17 11:23:00,0.0
17716,-40,-6580,-4064,1281,3351,2025-02-17 11:23:00,0.0
18424,960,-6308,-4971,97,4088,2025-02-17 11:23:00,0.0
19948,588,-5492,-6025,-3,4928,2025-02-17 11:23:00,0.0
20160,-240,-5932,-5936,393,4776,2025-02-17 11:23:00,0.0
18924,-1576,-7764,-5278,259,4567,2025-02-17 11:23:00,0.0
19248,-3304,-8296,-5054,-2208,4576,2025-02-17 11:23:00,0.0
19940,-3808,-9092,-4730,-4451,4333,2025-02-17 11:23:00,0.0
21332,-4092,-10176,-4802,-5389,3564,2025-02-17 11:23:00,0.0
22452,-3624,-10812,-4484,-5416,1743,2025-02-17 11:23:00,0.0
19736,-2156,-12592,-4002,-3301,-7,2025-02-17 11:23:00,0.0
17496,-688,-12852,-3828,-208,-683,2025-02-17 11:23:00,0.0
15628,828,-11768,-3622,4195,-1167,2025-02-17 11:23:00,0.0
14900,1720,-7644,-3421,7734,-1457,2025-02-17 11:23:00,0.0
13100,2188,-6636,-3475,6381,-2129,2025-02-17 11:23:00,0.0
11120,3468,-5240,-2796,3665,-1557,2025-02-17 11:23:00,0.0
11828,3044,-6040,-1905,372,-632,2025-02-17 11:23:00,0.0
13020,2004,-7024,-1791,-2569,-356,2025-02-17 11:23:00,0.0
14408,1132,-7828,-1709,-4156,-253,2025-02-17 11:23:00,0.0
15884,384,-7796,-1652,-4160,-409,2025-02-17 11:23:00,0.0
17164,476,-8456,-1645,-3765,-908,2025-02-17 11:23:00,0.0
17364,24,-9228,-1938,-1947,-1647,2025-02-17 11:23:00,0.0
16640,152,-8808,-1573,1466,-2167,2025-02-17 11:23:00,0.0
15196,1044,-8792,-1092,4694,-2735,2025-02-17 11:23:00,0.0
14160,1832,-7760,-1514,4926,-2404,2025-02-17 11:23:00,0.0
13204,2380,-6636,-1594,2935,-1882,2025-02-17 11:23:00,0.0
13532,2216,-6676,-870,200,-3026,2025-02-17 11:23:00,0.0
13084,1716,-4680,460,-1694,-890,2025-02-17 11:23:00,0.0
15536,1732,-6916,1690,-3062,-1672,2025-02-17 11:23:00,0.0
14404,3140,-10376,371,-2799,-1232,2025-02-17 11:23:00,0.0
15208,3256,-8920,-815,-1915,34,2025-02-17 11:23:00,0.0
16248,2140,-3856,104,-926,857,2025-02-17 11:23:00,0.0
18860,1452,-8300,560,626,-596,2025-02-17 11:23:00,0.0
15780,1548,-6188,1376,1262,-866,2025-02-17 11:23:00,0.0
15200,1680,-7076,859,1038,-582,2025-02-17 11:23:00,0.0
15756,1536,-6704,540,790,-226,2025-02-17 11:23:00,0.0
16496,1196,-6108,692,410,-310,2025-02-17 11:23:00,0.0
16924,892,-5464,1224,60,-648,2025-02-17 11:23:00,0.0
17088,668,-5200,1907,124,-881,2025-02-17 11:23:00,0.0
15948,1056,-6924,1601,361,-578,2025-02-17 11:23:00,0.0
13924,1660,-8040,533,1618,911,2025-02-17 11:23:00,0.0
15964,1908,-7128,-1160,2708,2283,2025-02-17 11:23:00,0.0
16400,1948,-4604,-933,3457,2779,2025-02-17 11:23:00,0.0
16564,3064,-5380,-1932,5079,3927,2025-02-17 11:23:01,0.0
16460,2436,-5828,-2178,5017,4347,2025-02-17 11:23:01,0.0
16944,1784,-6336,-2487,4132,4097,2025-02-17 11:23:01,0.0
17108,2456,-6624,-1793,1718,3109,2025-02-17 11:23:01,0.0
16788,2896,-11500,-1230,-4519,813,2025-02-17 11:23:01,0.0
16124,2076,-12780,-1299,-10338,-1083,2025-02-17 11:23:01,0.0
16000,3236,-10252,-3153,-10045,-2475,2025-02-17 11:23:01,0.0
14232,4432,-8060,-6331,-4130,-554,2025-02-17 11:23:01,0.0
14868,2556,-7468,-6523,-386,2309,2025-02-17 11:23:01,0.0
17420,3344,-9968,-6898,-2408,4349,2025-02-17 11:23:01,0.0
19064,3796,-11532,-7600,-4615,5506,2025-02-17 11:23:01,0.0
19196,3852,-15140,-9861,-2043,5712,2025-02-17 11:23:01,0.0
17628,3852,-15684,-12197,2438,5278,2025-02-17 11:23:01,0.0
14704,1656,-14508,-15068,6428,5813,2025-02-17 11:23:01,0.0
13172,-36,-10004,-17076,8345,6407,2025-02-17 11:23:01,0.0
14040,-792,-10524,-18132,7409,5852,2025-02-17 11:23:01,0.0
14264,-8,-11864,-20775,5214,4360,2025-02-17 11:23:01,0.0
14756,1016,-9420,-22275,3669,3968,2025-02-17 11:23:01,0.0
15192,2176,-8372,-22021,2302,3657,2025-02-17 11:23:01,0.0
13792,3448,-9048,-21536,1861,4023,2025-02-17 11:23:01,0.0
12116,4328,-7724,-21652,2126,5725,2025-02-17 11:23:01,0.0
12244,3828,-6472,-20559,2386,7455,2025-02-17 11:23:01,0.0
14604,1532,-7240,-20501,642,7452,2025-02-17 11:23:01,0.0
17000,-80,-8520,-20653,-1651,5317,2025-02-17 11:23:01,0.0
17700,-564,-9400,-20980,-3033,2609,2025-02-17 11:23:01,0.0
16912,136,-8964,-20666,-3656,1489,2025-02-17 11:23:01,0.0
16436,1684,-8716,-19940,-3660,1913,2025-02-17 11:23:01,0.0
16688,3484,-8192,-19565,-3354,3299,2025-02-17 11:23:01,
17140,3480,-7000,-18140,-1503,4120,2025-02-17 11:23:01,0.0
18128,2184,-7392,-17261,73,3225,2025-02-17 11:23:01,0.0
19952,1104,-7756,-17276,-2373,627,2025-02-17 11:23:01,0.0
19648,-492,-8448,-17641,-6979,-2575,2025-02-17 11:23:01,0.0
18176,-992,-7532,-17737,-9576,-4762,2025-02-17 11:23:01,0.0
17864,-320,-5912,-17514,-10425,-6203,2025-02-17 11:23:01,0.0
17236,484,-4464,-16017,-9706,-6218,2025-02-17 11:23:01,0.0
18344,1096,-5004,-14246,-7936,-5936,2025-02-17 11:23:01,0.0
22160,1432,-6820,-13124,-6666,-7315,2025-02-17 11:23:01,5
23692,1576,-6620,-12839,-7053,-10654,2025-02-17 11:23:01,5
22800,1684,-6096,-13104,-8250,-14647,2025-02-17 11:23:01,5
21684,1580,-5204,-12857,-10447,-18314,2025-02-17 11:23:01,5
18524,428,-4520,-12483,-14585,-19576,2025-02-17 11:23:01,5
13864,-1104,-2196,-12943,-15276,-18800,2025-02-17 11:23:01,5
11528,-2080,28,-11287,-10820,-16922,2025-02-17 11:23:01,5
20064,-3504,-6564,-7807,-19987,-14849,2025-02-17 11:23:01,5
19736,-3788,-7776,-7330,-32768,-16328,2025-02-17 11:23:01,5
18048,-4216,-6632,-10706,-32768,-20216,2025-02-17 11:23:01,5
15416,-4360,-8748,-16685,-32768,-23842,2025-02-17 11:23:01,5
8116,44,-4768,-22338,-32768,-23782,2025-02-17 11:23:01,5
2112,1748,68,-22855,-32768,-19524,2025-02-17 11:23:01,5
1200,-468,1740,-25346,-32768,-15825,2025-02-17 11:23:01,5
-204,-844,4032,-26686,-32768,-10446,2025-02-17 11:23:01,5
3064,-1756,3292,-27107,-32768,-6513,2025-02-17 11:23:01,5
3452,-1308,2688,-27222,-32768,-3076,2025-02-17 11:23:01,5
2896,-1060,3460,-26500,-32768,1080,2025-02-17 11:23:01,5
2108,-840,4044,-25369,-32768,4459,2025-02-17 11:23:01,5
2164,-660,3864,-23675,-32768,7787,2025-02-17 11:23:01,5
2032,-468,3956,-21100,-32768,11439,2025-02-17 11:23:01,5
1880,-296,4244,-18021,-32768,14558,2025-02-17 11:23:01,5
2300,56,5144,-13681,-32768,17473,2025-02-17 11:23:01,5
8076,1004,12144,-3376,-32768,16178,2025-02-17 11:23:01,5
10688,460,11232,7661,-32768,8625,2025-02-17 11:23:01,5
5688,-44,6784,13915,-32768,3768,2025-02-17 11:23:02,5
3964,-500,4160,16632,-32768,1074,2025-02-17 11:23:02,5
3740,-580,3092,17651,-32768,-919,2025-02-17 11:23:02,5
2880,-936,2836,18201,-32768,-3155,2025-02-17 11:23:02,5
3196,-1084,2864,18518,-32768,-5527,2025-02-17 11:23:02,5
3448,-1156,3348,19833,-32768,-7960,2025-02-17 11:23:02,5
3968,-1292,2808,20422,-32768,-11045,2025-02-17 11:23:02,5
4284,-1564,2160,19626,-32768,-14650,2025-02-17 11:23:02,5
4892,-1444,5944,22901,-32768,-19341,2025-02-17 11:23:02,5
5036,6372,20532,32767,-32768,-21604,2025-02-17 11:23:02,5
32767,32767,32767,32767,-32768,-32768,2025-02-17 11:23:02,5
-11664,32767,17972,32767,-22937,-32768,2025-02-17 11:23:02,5
-7360,-32768,-3404,32767,-32768,-32768,2025-02-17 11:23:02,5
-16488,-32768,-19508,32767,-32768,-32768,2025-02-17 11:23:02,5
-32768,-32768,-32768,32767,1519,-32768,2025-02-17 11:23:02,5
-32768,-32768,-32768,32767,32767,-15939,2025-02-17 11:23:02,5
-8920,-32768,-3856,24147,14651,6582,2025-02-17 11:23:02,5
-2268,-28676,7876,24908,-12083,6233,2025-02-17 11:23:02,5
316,-11512,-1768,23674,-8228,7583,2025-02-17 11:23:02,5
2060,-8400,-1776,20481,-2214,8473,2025-02-17 11:23:02,5
-132,-3500,-2584,16730,1888,9206,2025-02-17 11:23:02,5
-2232,-2852,300,14743,9825,12282,2025-02-17 11:23:02,5
-3924,-2908,-2240,11823,17427,16634,2025-02-17 11:23:02,5
-7628,-4664,-3148,5482,24451,23797,2025-02-17 11:23:02,5
-10500,-8808,-5520,-909,28443,30553,2025-02-17 11:23:02,5
-11920,-12836,-7564,-9300,30581,32767,2025-02-17 11:23:02,5
-12832,-14544,-7960,-17340,32743,32767,2025-02-17 11:23:02,5
-14424,-13752,-6368,-21545,32767,32767,2025-02-17 11:23:02,5
-8224,-6344,-4144,-12271,32767,24337,2025-02-17 11:23:02,5
-10932,3220,-10460,3495,32767,-4062,2025-02-17 11:23:02,5
-8828,276,-15764,4946,31949,-9967,2025-02-17 11:23:02,5
-1636,-6408,-14348,941,25387,-8550,2025-02-17 11:23:02,5
-568,-8168,-12008,-2582,19722,-6410,2025-02-17 11:23:02,5
-840,-9348,-10932,-5258,12097,-3709,2025-02-17 11:23:02,5
-2668,-10012,-11184,-5304,7388,39,2025-02-17 11:23:02,5
-1996,-8940,-12632,-2718,2557,672,2025-02-17 11:23:02,5
-4256,-6108,-15952,-25,-1569,-123,2025-02-17 11:23:02,5
-3804,-6424,-11144,343,-1932,-502,2025-02-17 11:23:02,5
-4908,-7072,-10916,-426,-790,-32,2025-02-17 11:23:02,5
-6168,-6004,-11620,-951,1919,-736,2025-02-17 11:23:02,5
-4036,-7228,-12596,-1418,2633,-705,2025-02-17 11:23:02,5
-3140,-6356,-12008,-296,1793,-600,2025-02-17 11:23:02,5
-3056,-7016,-12440,341,-583,-20,2025-02-17 11:23:02,5
-3604,-7332,-12428,80,-1504,150,2025-02-17 11:23:02,5
-5228,-6864,-11984,-181,-298,-82,2025-02-17 11:23:02,5
-3980,-6592,-11940,-278,789,-296,2025-02-17 11:23:02,5
-3424,-6844,-12096,-47,553,-212,2025-02-17 11:23:02,5
-3564,-7208,-12824,-70,-194,-187,2025-02-17 11:23:02,5
-4160,-7120,-12084,-294,-7,-97,2025-02-17 11:23:02,5
-3896,-6600,-12256,-191,365,-257,2025-02-17 11:23:02,5
-3600,-6840,-12392,-112,227,-232,2025-02-17 11:23:02,5
-3932,-7060,-12572,-93,-92,-118,2025-02-17 11:23:02,5
-4164,-6944,-12328,-166,93,-159,2025-02-17 11:23:02,5
-3956,-6688,-12264,-227,378,-171,2025-02-17 11:23:02,5
-3848,-6792,-12252,-109,261,-224,2025-02-17 11:23:02,5
-3836,-7088,-12380,-163,61,-160,2025-02-17 11:23:02,5
-4052,-6736,-12132,-177,72,-135,2025-02-17 11:23:02,5
-4044,-6816,-12240,-150,251,-219,2025-02-17 11:23:02,5
-3976,-6724,-12192,-184,227,-162,2025-02-17 11:23:02,5
-3940,-6984,-12256,-104,153,-181,2025-02-17 11:23:02,5
-3996,-6900,-12412,-217,168,-153,2025-02-17 11:23:02,5
-3808,-6696,-12272,-139,170,-196,2025-02-17 11:23:02,5
-3932,-6816,-12288,-180,183,-183,2025-02-17 11:23:02,5
-3860,-6876,-12344,-151,195,-201,2025-02-17 11:23:02,5
-3812,-6884,-12340,-206,172,-163,2025-02-17 11:23:03,5
-3912,-6932,-12212,-186,209,-190,2025-02-17 11:23:03,5
-3868,-6860,-12172,-160,167,-169,2025-02-17 11:23:03,5
-3956,-6808,-12304,-177,168,-182,2025-02-17 11:23:03,5
-3952,-6876,-12244,-172,197,-166,2025-02-17 11:23:03,5
-3860,-6744,-12192,-153,176,-180,2025-02-17 11:23:03,5
-3972,-6804,-12416,-142,170,-163,2025-02-17 11:23:03,5
-3904,-6932,-12368,-184,156,-169,2025-02-17 11:23:03,5
-3888,-6916,-12300,-167,171,-168,2025-02-17 11:23:03,5
-3916,-6916,-12176,-150,185,-171,2025-02-17 11:23:03,5
-3856,-6752,-12376,-178,166,-158,2025-02-17 11:23:03,5
-3880,-6780,-12228,-207,164,-191,2025-02-17 11:23:03,5
-3876,-6904,-12248,-141,182,-159,2025-02-17 11:23:03,5
-3864,-6796,-12308,-117,196,-173,2025-02-17 11:23:03,5
-4028,-6932,-12356,-176,147,-177,2025-02-17 11:23:03,5
-3856,-6916,-12212,-166,175,-193,2025-02-17 11:23:03,5
-3844,-6884,-12340,-158,180,-161,2025-02-17 11:23:03,5
-3948,-6876,-12248,-183,186,-189,2025-02-17 11:23:03,5
-3864,-6848,-12264,-143,189,-184,2025-02-17 11:23:03,5
-3828,-6896,-12260,-166,194,-192,2025-02-17 11:23:03,5
-3896,-6804,-12180,-196,189,-156,2025-02-17 11:23:03,5
-3848,-6876,-12212,-145,178,-172,2025-02-17 11:23:03,5
-3912,-6884,-12216,-143,187,-191,2025-02-17 11:23:03,0.0
-3772,-6856,-12192,-162,176,-183,2025-02-17 11:23:03,0.0
-3888,-6820,-12304,-151,167,-179,2025-02-17 11:23:03,0.0
-3828,-6764,-12184,-157,202,-167,2025-02-17 11:23:03,0.0
-3848,-6936,-12220,-191,193,-174,2025-02-17 11:23:03,0.0
-4032,-6836,-12188,-178,171,-181,2025-02-17 11:23:03,0.0
-3896,-6816,-12208,-160,166,-182,2025-02-17 11:23:03,0.0
-3884,-6856,-12368,-179,185,-202,2025-02-17 11:23:03,0.0
-3908,-6900,-12284,-136,168,-184,2025-02-17 11:23:03,0.0
-3860,-6836,-12256,-159,175,-160,2025-02-17 11:23:03,0.0
-3964,-6888,-12212,-145,168,-166,2025-02-17 11:23:03,0.0
-3932,-6912,-12164,-140,163,-156,2025-02-17 11:23:03,0.0
-3864,-6816,-12228,-136,179,-175,2025-02-17 11:23:03,0.0
-3900,-6772,-12160,-158,176,-190,2025-02-17 11:23:03,0.0
-3944,-6820,-12344,-183,164,-190,2025-02-17 11:23:03,0.0
-3836,-6900,-12280,-155,163,-186,2025-02-17 11:23:03,0.0
-3936,-6880,-12232,-177,163,-175,2025-02-17 11:23:03,0.0
-3920,-6828,-12184,-168,173,-199,2025-02-17 11:23:03,0.0
-3896,-6800,-12360,-188,197,-155,2025-02-17 11:23:03,0.0
-3876,-6912,-12240,-165,189,-173,2025-02-17 11:23:03,0.0
-3848,-6844,-12248,-146,173,-162,2025-02-17 11:23:03,0.0
-3984,-6912,-12284,-165,169,-159,2025-02-17 11:23:03,0.0
-3808,-6868,-12156,-151,180,-173,2025-02-17 11:23:03,0.0
-3928,-6712,-12304,-140,169,-175,2025-02-17 11:23:03,0.0
-3904,-6752,-12228,-145,178,-165,2025-02-17 11:23:03,0.0
-3900,-6820,-12308,-171,180,-159,2025-02-17 11:23:03,0.0
-3800,-6876,-12348,-163,205,-156,2025-02-17 11:23:03,0.0
-3916,-6888,-12264,-151,178,-189,2025-02-17 11:23:03,0.0
-3844,-6840,-12300,-172,179,-188,2025-02-17 11:23:03,0.0
-3936,-6908,-12272,-145,184,-175,2025-02-17 11:23:03,0.0
-3784,-6880,-12156,-152,172,-199,2025-02-17 11:23:03,0.0
-3904,-6824,-12272,-175,182,-164,2025-02-17 11:23:03,0.0
-3952,-6924,-12312,-166,197,-203,2025-02-17 11:23:03,0.0
-3872,-6820,-12352,-157,176,-185,2025-02-17 11:23:03,0.0
-3852,-6864,-12180,-155,134,-186,2025-02-17 11:23:03,0.0
-3860,-6904,-12204,-140,169,-174,2025-02-17 11:23:03,0.0
-3996,-6868,-12360,-159,159,-181,2025-02-17 11:23:03,0.0
-3972,-6832,-12268,-166,175,-171,2025-02-17 11:23:03,0.0
-3904,-6720,-12328,-152,177,-188,2025-02-17 11:23:04,0.0
-3884,-6856,-12396,-187,179,-184,2025-02-17 11:23:04,0.0
-4020,-6876,-12324,-120,176,-177,2025-02-17 11:23:04,0.0
-4016,-6872,-12256,-170,157,-175,2025-02-17 11:23:04,0.0
-3888,-6820,-12140,-118,166,-168,2025-02-17 11:23:04,0.0
-3872,-6852,-12244,-137,161,-189,2025-02-17 11:23:04,0.0
-3968,-6884,-12296,-150,175,-191,2025-02-17 11:23:04,0.0
-3900,-6760,-12376,-152,170,-181,2025-02-17 11:23:04,0.0
-3944,-6912,-12144,-166,160,-164,2025-02-17 11:23:04,0.0
-3932,-6836,-12204,-158,188,-175,2025-02-17 11:23:04,0.0
-3996,-6908,-12288,-161,175,-192,2025-02-17 11:23:04,0.0
-4020,-6840,-12248,-165,160,-177,2025-02-17 11:23:04,0.0
-3932,-6832,-12376,-161,182,-186,2025-02-17 11:23:04,0.0
-3812,-6888,-12192,-173,172,-169,2025-02-17 11:23:04,0.0
-3876,-6816,-12364,-172,190,-168,2025-02-17 11:23:04,0.0
-3992,-6852,-12324,-156,195,-156,2025-02-17 11:23:04,0.0
-3880,-6696,-12404,-176,174,-189,2025-02-17 11:23:04,0.0
-3932,-6816,-12268,-185,177,-167,2025-02-17 11:23:04,0.0
-3900,-6944,-12320,-133,180,-169,2025-02-17 11:23:04,0.0
-3916,-6812,-12348,-142,155,-181,2025-02-17 11:23:04,0.0
-3876,-6892,-12456,-170,178,-194,2025-02-17 11:23:04,0.0
-3908,-6768,-12340,-171,169,-184,2025-02-17 11:23:04,0.0
-3936,-6760,-12200,-138,170,-190,2025-02-17 11:23:04,0.0
-3924,-6840,-12236,-164,194,-176,2025-02-17 11:23:04,0.0
-3896,-6924,-12320,-168,185,-186,2025-02-17 11:23:04,0.0
-3880,-6816,-12240,-159,173,-178,2025-02-17 11:23:04,0.0
-3912,-6836,-12332,-182,166,-158,2025-02-17 11:23:04,0.0
-3924,-6900,-12348,-161,195,-162,2025-02-17 11:23:04,0.0
-3824,-6872,-12412,-158,175,-179,2025-02-17 11:23:04,0.0
-3960,-6856,-12220,-171,183,-196,2025-02-17 11:23:04,0.0
-3920,-6908,-12308,-137,169,-180,2025-02-17 11:23:04,0.0
-3848,-6872,-12216,-169,159,-173,2025-02-17 11:23:04,0.0
-3876,-6828,-12312,-177,178,-186,2025-02-17 11:23:04,0.0
-3792,-6832,-12220,-161,190,-186,2025-02-17 11:23:04,0.0
-3896,-6868,-12344,-169,184,-172,2025-02-17 11:23:04,0.0
-3784,-6792,-12224,-174,192,-180,2025-02-17 11:23:04,0.0
-3948,-6844,-12220,-138,175,-184,2025-02-17 11:23:04,0.0
-3856,-6824,-12328,-157,196,-181,2025-02-17 11:23:04,0.0
-3916,-6832,-12276,-181,181,-189,2025-02-17 11:23:04,0.0
-3916,-6760,-12324,-126,177,-174,2025-02-17 11:23:04,0.0
-3872,-6912,-12244,-177,157,-171,2025-02-17 11:23:04,0.0
-3884,-6844,-12340,-163,148,-185,2025-02-17 11:23:04,0.0
-3928,-6932,-12272,-146,154,-182,2025-02-17 11:23:04,
-3816,-6984,-12232,-163,192,-200,2025-02-17 11:23:04,0.0
-3868,-6756,-12292,-150,169,-190,2025-02-17 11:23:04,0.0
-3880,-6832,-12252,-163,163,-187,2025-02-17 11:23:04,0.0
-3900,-6808,-12340,-155,182,-184,2025-02-17 11:23:04,0.0
-3864,-6872,-12328,-152,176,-168,2025-02-17 11:23:04,0.0
-3856,-6900,-12272,-179,157,-184,2025-02-17 11:23:04,0.0
-4024,-6904,-12316,-178,178,-189,2025-02-17 11:23:04,0.0
-3844,-6884,-12268,-171,143,-165,2025-02-17 11:23:04,0.0
-3840,-6888,-12184,-154,169,-179,2025-02-17 11:23:04,0.0
-3856,-6876,-12332,-133,186,-159,2025-02-17 11:23:04,0.0
-3840,-6808,-12264,-142,175,-160,2025-02-17 11:23:04,0.0
-3868,-6852,-12296,-188,163,-204,2025-02-17 11:23:04,0.0
-3848,-6708,-12260,-172,191,-153,2025-02-17 11:23:04,0.0
-3840,-6892,-12332,-165,182,-158,2025-02-17 11:23:04,0.0
-3904,-6860,-12340,-193,194,-183,2025-02-17 11:23:04,0.0
-3952,-6792,-12228,-146,173,-161,2025-02-17 11:23:04,0.0
-3908,-6876,-12352,-149,180,-153,2025-02-17 11:23:05,0.0
-3748,-6844,-12192,-172,158,-174,2025-02-17 11:23:05,0.0
-3928,-6896,-12304,-159,161,-165,2025-02-17 11:23:05,0.0
-3944,-6944,-12264,-134,168,-173,2025-02-17 11:23:05,0.0
-3908,-6828,-12316,-199,173,-175,2025-02-17 11:23:05,0.0
-3888,-6856,-12376,-164,166,-177,2025-02-17 11:23:05,0.0
-3764,-6856,-12280,-136,160,-176,2025-02-17 11:23:05,0.0
-4196,-6832,-12272,-199,221,-111,2025-02-17 11:23:05,0.0
-3444,-6916,-12008,-208,389,-257,2025-02-17 11:23:05,0.0
-4076,-6980,-12616,-129,125,-88,2025-02-17 11:23:05,0.0
-3928,-6860,-12048,-233,230,-194,2025-02-17 11:23:05,0.0
-3656,-6588,-12068,-126,335,-197,2025-02-17 11:23:05,0.0
-3868,-7044,-12524,-166,133,-166,2025-02-17 11:23:05,0.0
-3812,-6896,-12344,-274,37,-190,2025-02-17 11:23:05,0.0
-3928,-6636,-11768,-145,42,-169,2025-02-17 11:23:05,0.0
-3664,-6820,-12864,-706,458,-332,2025-02-17 11:23:05,0.0
-3384,-6568,-12036,-805,468,-357,2025-02-17 11:23:05,0.0
-3860,-6736,-11624,-534,504,-422,2025-02-17 11:23:05,0.0
-4428,-7292,-12048,-640,520,-216,2025-02-17 11:23:05,0.0
-4052,-6704,-12436,-266,532,154,2025-02-17 11:23:05,0.0
-3752,-6712,-12160,-508,852,-122,2025-02-17 11:23:05,0.0
-3444,-7000,-12912,-531,443,-43,2025-02-17 11:23:05,0.0
-3844,-6884,-13080,-749,-22,275,2025-02-17 11:23:05,0.0
-3196,-6572,-11824,-797,-322,243,2025-02-17 11:23:05,0.0
-1820,-4472,-5800,1282,-461,-590,2025-02-17 11:23:05,0.0
-4344,-5392,-11752,3117,-603,-1048,2025-02-17 11:23:05,0.0
-4344,-8092,-13472,1744,-414,234,2025-02-17 11:23:05,0.0
-2076,-6904,-15200,1854,-660,-463,2025-02-17 11:23:05,0.0
-4860,-7468,-12948,1333,-752,442,2025-02-17 11:23:05,0.0
-2748,-8816,-13408,364,-1232,315,2025-02-17 11:23:05,0.0
-3816,-7376,-13372,-922,-2276,-694,2025-02-17 11:23:05,0.0
-10836,-10412,-21236,-3856,1204,1024,2025-02-17 11:23:05,0.0
-2500,-5756,-8548,-3921,1883,-1269,2025-02-17 11:23:05,0.0
-3516,-5192,-12112,-2807,3288,-1846,2025-02-17 11:23:05,0.0
-3740,-6632,-12708,-3434,4867,-2881,2025-02-17 11:23:05,0.0
-5868,-5116,-11716,-1560,5956,-2942,2025-02-17 11:23:05,0.0
-4768,-6112,-10204,1970,4626,-686,2025-02-17 11:23:05,0.0
-3260,-8572,-16044,-1340,3205,-1063,2025-02-17 11:23:05,0.0
-3668,-8640,-14472,-3332,4340,-1945,2025-02-17 11:23:05,0.0
-3244,-8176,-13596,-2757,4693,-2598,2025-02-17 11:23:05,0.0
-2936,-9264,-15232,-2629,3804,-3418,2025-02-17 11:23:05,0.0
-1708,-10484,-16032,-3354,2407,-5230,2025-02-17 11:23:05,0.0
-2368,-11584,-17420,-5275,-1101,-6873,2025-02-17 11:23:05,0.0
-4280,-11460,-17408,-6843,-4141,-7029,2025-02-17 11:23:05,0.0
-6752,-11000,-17136,-7256,-5794,-6135,2025-02-17 11:23:05,0.0
-8212,-9232,-16484,-7898,-3101,-4628,2025-02-17 11:23:05,0.0
-4636,-5760,-15724,-4429,2497,-4269,2025-02-17 11:23:05,0.0
-3808,-4784,-14820,-3509,853,-3995,2025-02-17 11:23:05,0.0
-3564,-5196,-14272,-2490,-1825,-4912,2025-02-17 11:23:05,0.0
-4720,-6460,-14996,-1712,-3332,-5381,2025-02-17 11:23:05,0.0
-4836,-7784,-15152,-1205,-4918,-5233,2025-02-17 11:23:05,0.0
-5520,-9016,-15920,-670,-7175,-4587,2025-02-17 11:23:05,0.0
-5120,-9060,-16388,-405,-9335,-3387,2025-02-17 11:23:05,0.0
-4612,-8848,-15916,-393,-11741,-2796,2025-02-17 11:23:05,0.0
-4088,-8936,-15300,101,-13796,-2835,2025-02-17 11:23:05,0.0
-3888,-8724,-15540,322,-15912,-3158,2025-02-17 11:23:05,0.0
-3100,-8496,-16196,-405,-17623,-4403,2025-02-17 11:23:05,0.0
-3088,-8376,-16720,-2159,-19164,-6481,2025-02-17 11:23:05,0.0
-4588,-8204,-16108,-3680,-19199,-7327,2025-02-17 11:23:05,0.0
-4972,-7956,-13748,-5865,-19000,-7498,2025-02-17 11:23:05,0.0
-10268,-7960,-8372,-2908,-14820,-6400,2025-02-17 11:23:05,0.0
-17340,-10052,-8224,2920,-6442,-2466,2025-02-17 11:23:05,0.0
-19888,-10692,-15692,1541,5498,7256,2025-02-17 11:23:05,0.0
-10464,-10676,-16472,-2466,11017,10456,2025-02-17 11:23:06,0.0
-3236,-8948,-14476,-3590,7598,8559,2025-02-17 11:23:06,0.0
336,-6160,-15656,-5801,-1008,5326,2025-02-17 11:23:06,0.0
856,-3752,-14296,-8282,-10257,2517,2025-02-17 11:23:06,0.0
-2292,-2752,-11024,-7735,-16696,206,2025-02-17 11:23:06,0.0
-6544,-2316,-10060,-5631,-17412,-1063,2025-02-17 11:23:06,0.0
-11368,-3052,-9628,-3330,-13698,-80,2025-02-17 11:23:06,0.0
-13748,-4596,-10176,-1914,-6530,1129,2025-02-17 11:23:06,0.0
-14452,-6100,-10968,-739,2621,1693,2025-02-17 11:23:06,0.0
-14844,-6508,-12320,-508,8776,2549,2025-02-17 11:23:06,0.0
-12060,-6460,-15112,-455,11678,4670,2025-02-17 11:23:06,0.0
-8168,-6600,-16348,-1319,9152,3156,2025-02-17 11:23:06,0.0
-6500,-6416,-17908,-2844,2308,1665,2025-02-17 11:23:06,0.0
-4664,-6352,-17876,-5893,-6939,157,2025-02-17 11:23:06,0.0
-3764,-5488,-14892,-7975,-16029,-1762,2025-02-17 11:23:06,0.0
-4824,-3760,-11748,-8520,-22563,-2976,2025-02-17 11:23:06,0.0
-5716,-2324,-9396,-8108,-24032,-3423,2025-02-17 11:23:06,0.0
-7608,-1108,-7636,-6675,-21434,-3830,2025-02-17 11:23:06,0.0
-8780,-936,-6884,-4938,-14845,-3700,2025-02-17 11:23:06,0.0
-9236,-1328,-6468,-3480,-8345,-3756,2025-02-17 11:23:06,0.0
-9860,-1852,-8380,-2594,-2176,-2835,2025-02-17 11:23:06,
-10576,-2392,-11868,-4050,4525,-1545,2025-02-17 11:23:06,0.0
-9960,-2884,-11240,-5449,9919,-1019,2025-02-17 11:23:06,0.0
-8124,-2920,-8332,-5015,13026,-810,2025-02-17 11:23:06,0.0
-5252,-2664,-4640,-3842,12408,-1092,2025-02-17 11:23:06,0.0
-4084,-2216,-1940,-1872,9539,-1340,2025-02-17 11:23:06,0.0
-5748,-1444,-124,1732,5141,-156,2025-02-17 11:23:06,0.0
-7388,-1292,-1376,4366,2190,1789,2025-02-17 11:23:06,0.0
-8412,-2140,-3456,5683,-292,3889,2025-02-17 11:23:06,0.0
-7684,-3380,-5856,5685,-2954,5104,2025-02-17 11:23:06,0.0
-6168,-4304,-7996,4133,-6458,4962,2025-02-17 11:23:06,0.0
-5520,-4460,-8544,1769,-10435,4448,2025-02-17 11:23:06,0.0
-5572,-3736,-7568,-263,-13939,4377,2025-02-17 11:23:06,0.0
-5316,-3068,-6116,-1567,-16183,4589,2025-02-17 11:23:06,0.0
-5136,-2216,-5252,-2683,-16969,4376,2025-02-17 11:23:06,0.0
-5564,-1144,-4120,-3795,-16109,3302,2025-02-17 11:23:06,0.0
-6620,-456,-4008,-3531,-14637,2443,2025-02-17 11:23:06,0.0
-7416,376,-3220,-3035,-13198,2397,2025-02-17 11:23:06,0.0
-6848,916,-1972,-1848,-12556,2209,2025-02-17 11:23:06,0.0
-6448,1332,-1468,119,-12818,1560,2025-02-17 11:23:06,0.0
-5700,1000,-2244,1583,-13713,765,2025-02-17 11:23:06,0.0
-6224,240,-3404,2334,-14310,-258,2025-02-17 11:23:06,0.0
-8020,-452,-3924,2657,-13275,-994,2025-02-17 11:23:06,0.0
-10300,-780,-4284,2714,-10157,-1142,2025-02-17 11:23:06,0.0
-13296,-828,-4704,2303,-3659,342,2025-02-17 11:23:06,0.0
-13604,-1424,-4104,2271,3577,2220,2025-02-17 11:23:06,0.0
-12348,-2396,-4024,2272,9300,2942,2025-02-17 11:23:06,0.0
-10740,-2964,-4188,1790,12402,2935,2025-02-17 11:23:06,0.0
-8820,-3188,-3760,1459,13189,2385,2025-02-17 11:23:06,0.0
-8004,-2880,-3992,1209,11400,1521,2025-02-17 11:23:06,0.0
-8524,-2564,-4372,1013,8888,1041,2025-02-17 11:23:06,0.0
-17720,-1540,14404,-1475,-17331,2354,2025-02-17 11:23:06,0.0
-21984,-1612,3744,5977,-15816,4587,2025-02-17 11:23:06,0.0
-21292,-1276,-5136,6592,-388,4567,2025-02-17 11:23:06,0.0
-14052,-704,-9156,2262,1008,5677,2025-02-17 11:23:06,0.0
-9852,-1224,-9744,-421,-4460,4910,2025-02-17 11:23:06,0.0
-8632,-2828,-5852,-671,-11489,2321,2025-02-17 11:23:06,0.0
-10920,-4020,-3272,793,-18790,538,2025-02-17 11:23:06,0.0
-13140,-4164,-2916,1723,-22167,924,2025-02-17 11:23:06,0.0
-13236,-3664,-608,3357,-22343,1743,2025-02-17 11:23:06,0.0
-11680,-3460,-884,5140,-19952,1411,2025-02-17 11:23:06,0.0
-11324,-3676,-1680,5744,-16302,346,2025-02-17 11:23:07,0.0
-12916,-4032,1024,8223,-7497,-330,2025-02-17 11:23:07,0.0
-12828,-4768,-1620,9168,4498,181,2025-02-17 11:23:07,0.0
-12860,-4928,-1892,8336,10013,1425,2025-02-17 11:23:07,0.0
-14672,-5020,448,11189,12560,2154,2025-02-17 11:23:07,0.0
-15488,-4516,-2932,12472,9624,2008,2025-02-17 11:23:07,0.0
-16144,-2756,-2992,12394,4829,1846,2025-02-17 11:23:07,0.0
-15400,-2180,-1424,13925,-385,1486,2025-02-17 11:23:07,0.0
-14168,-2968,-1480,15477,-4804,975,2025-02-17 11:23:07,0.0
-13360,-3368,-1180,17540,-7357,2105,2025-02-17 11:23:07,0.0
-11700,-2476,28,18807,-5184,3002,2025-02-17 11:23:07,0.0
-9412,-1552,12,19142,-151,2195,2025-02-17 11:23:07,0.0
-8908,-1908,-576,19002,2277,657,2025-02-17 11:23:07,0.0
-11024,-2920,-652,18569,3889,-18,2025-02-17 11:23:07,0.0
-12920,-3304,-384,18474,5206,560,2025-02-17 11:23:07,0.0
-14164,-2120,-2452,17927,4741,1375,2025-02-17 11:23:07,0.0
-15124,88,-1804,16526,4189,1899,2025-02-17 11:23:07,0.0
-14304,756,-144,15829,5096,2024,2025-02-17 11:23:07,0.0
-14680,100,756,16820,4021,1906,2025-02-17 11:23:07,0.0
-14652,28,-864,17160,2350,1716,2025-02-17 11:23:07,0.0
-13828,-704,-1272,16793,1308,1745,2025-02-17 11:23:07,0.0
-13004,-1500,-2232,16279,1564,1250,2025-02-17 11:23:07,0.0
-12720,-2528,-2812,15476,2498,575,2025-02-17 11:23:07,0.0
-12576,-3348,-2388,14666,3543,-26,2025-02-17 11:23:07,0.0
-13736,-3156,-1284,13731,4705,56,2025-02-17 11:23:07,0.0
-14060,-2984,-1448,13069,5291,810,2025-02-17 11:23:07,0.0
-14652,-3012,-1176,12529,5001,1574,2025-02-17 11:23:07,0.0
-14004,-2476,-1240,12005,3872,1846,2025-02-17 11:23:07,0.0
-13632,-2404,-776,11959,2736,2584,2025-02-17 11:23:07,0.0
-12592,-2484,-1816,11752,2665,3179,2025-02-17 11:23:07,0.0
-11592,-2584,-1788,11345,3219,3010,2025-02-17 11:23:07,0.0
-11580,-2852,-1056,10946,4125,2874,2025-02-17 11:23:07,0.0
-11308,-3056,-680,10817,5114,2367,2025-02-17 11:23:07,0.0
-12148,-2908,-912,10598,5807,1760,2025-02-17 11:23:07,0.0
-12864,-2844,-1976,10318,6004,1678,2025-02-17 11:23:07,0.0
-13216,-2776,-2828,10066,5509,1650,2025-02-17 11:23:07,0.0
-14680,-3496,-1580,10331,5430,2414,2025-02-17 11:23:07,0.0
-14568,-3452,-840,10404,5241,3359,2025-02-17 11:23:07,0.0
-14516,-3612,0,10879,3901,3631,2025-02-17 11:23:07,0.0
-15656,-3676,-100,11148,2138,4285,2025-02-17 11:23:07,0.0
-14300,-3020,-304,11403,-1421,4323,2025-02-17 11:23:07,0.0
-13740,-2668,-336,11522,-4668,3723,2025-02-17 11:23:07,0.0
-13540,-1716,-1036,12046,-7092,3299,2025-02-17 11:23:07,0.0
-13608,-1200,-2480,11572,-4986,2823,2025-02-17 11:23:07,0.0
-12084,-904,-4016,10421,-189,1700,2025-02-17 11:23:07,0.0
-11980,-2192,-4876,9493,2584,-334,2025-02-17 11:23:07,0.0
-13648,-2420,-2428,9172,2675,-1886,2025-02-17 11:23:07,0.0
-15424,-2316,-468,9575,1016,-1798,2025-02-17 11:23:07,0.0
-15144,-2544,-1300,9672,-1432,-645,2025-02-17 11:23:07,0.0
-13732,-3232,-1652,8698,-3332,379,2025-02-17 11:23:07,0.0
-12380,-4476,-1928,7537,-4251,864,2025-02-17 11:23:07,0.0
-11920,-5704,-2464,6877,-3571,562,2025-02-17 11:23:07,0.0
-12824,-5096,-3464,6411,-1138,684,2025-02-17 11:23:07,0.0
-13752,-3372,-3528,6218,4301,1211,2025-02-17 11:23:07,0.0
-15564,-1820,-2580,6213,8401,1875,2025-02-17 11:23:07,0.0
-16392,-1756,-1732,6134,9529,3374,2025-02-17 11:23:07,0.0
-15324,-2116,-2024,6453,8948,4695,2025-02-17 11:23:07,0.0
-14720,-1976,-2712,7200,7884,5159,2025-02-17 11:23:07,0.0
-14412,-1088,-3788,7824,7259,5270,2025-02-17 11:23:07,0.0
-14524,-332,-4972,8179,6238,5317,2025-02-17 11:23:07,
-13388,-168,-5060,8468,3198,5074,2025-02-17 11:23:07,0.0
-12692,-360,-3512,9141,-820,4262,2025-02-17 11:23:08,0.0
-12608,-164,-2716,9222,-3726,3158,2025-02-17 11:23:08,0.0
-11884,-1040,-2752,10037,-5827,2591,2025-02-17 11:23:08,0.0
-11724,-1040,-3572,10070,-6440,2718,2025-02-17 11:23:08,0.0
-11032,-1668,-3400,9693,-4818,3560,2025-02-17 11:23:08,0.0
-10308,-1700,-2268,9618,-1385,4597,2025-02-17 11:23:08,0.0
-9772,-1080,-2524,9316,2211,4147,2025-02-17 11:23:08,0.0
-10900,-544,-2536,8506,4872,4184,2025-02-17 11:23:08,0.0
-11948,-68,-2912,7781,6973,4814,2025-02-17 11:23:08,0.0
-12800,-92,-2760,7056,8190,5293,2025-02-17 11:23:08,0.0
-13016,44,-3004,6185,8223,5200,2025-02-17 11:23:08,0.0
-13436,228,-2512,5679,6455,4628,2025-02-17 11:23:08,0.0
-13512,792,-2772,5445,3465,3851,2025-02-17 11:23:08,0.0
-13380,1268,-2960,5309,-339,2688,2025-02-17 11:23:08,0.0
-13556,1448,-2360,4812,-3486,1525,2025-02-17 11:23:08,0.0
-12720,948,-1892,4339,-4293,701,2025-02-17 11:23:08,0.0
-11960,164,-1380,4464,-4463,135,2025-02-17 11:23:08,0.0
-11492,24,-728,4980,-4497,-18,2025-02-17 11:23:08,0.0
-11464,576,-1248,4848,-4405,-159,2025-02-17 11:23:08,0.0
-11872,568,-980,4331,-2900,-173,2025-02-17 11:23:08,0.0
-12244,-180,-608,3895,-249,-165,2025-02-17 11:23:08,0.0
-12844,-1112,956,4118,1947,-224,2025-02-17 11:23:08,0.0
-13976,-1652,360,4606,3508,-415,2025-02-17 11:23:08,0.0
-15096,-1464,-384,4382,3986,-492,2025-02-17 11:23:08,0.0
-15104,-1064,-512,4000,2667,-386,2025-02-17 11:23:08,0.0
-14636,-1584,-300,4897,722,-231,2025-02-17 11:23:08,0.0
-14508,-2412,-732,5354,365,61,2025-02-17 11:23:08,0.0
-14392,-1932,-1068,5611,843,534,2025-02-17 11:23:08,0.0
-14228,-356,-1036,5494,1325,588,2025-02-17 11:23:08,0.0
-15212,816,-280,5444,1506,366,2025-02-17 11:23:08,0.0
-15760,1160,188,5819,929,308,2025-02-17 11:23:08,0.0
-15892,196,-1280,6061,-290,148,2025-02-17 11:23:08,0.0
-16772,108,-2480,6302,-976,171,2025-02-17 11:23:08,0.0
-17380,352,-3676,6066,-255,824,2025-02-17 11:23:08,0.0
-17860,916,-4644,5668,2010,1499,2025-02-17 11:23:08,0.0
-18020,884,-5556,5104,4642,1629,2025-02-17 11:23:08,0.0
-17836,420,-6108,3655,5099,1923,2025-02-17 11:23:08,0.0
-16252,140,-6232,2680,2354,2744,2025-02-17 11:23:08,0.0
-14220,-448,-5440,2242,-1182,3664,2025-02-17 11:23:08,0.0
-12868,-1560,-4860,2655,-4127,5062,2025-02-17 11:23:08,0.0
-10900,-2208,-4756,3398,-5814,6267,2025-02-17 11:23:08,0.0
-9024,-2000,-4632,3743,-6961,6695,2025-02-17 11:23:08,0.0
-6544,-1260,-4540,3541,-8182,4647,2025-02-17 11:23:08,0.0
-6616,-652,-5252,2177,-7595,576,2025-02-17 11:23:08,0.0
-9040,404,-5840,868,-3530,-2606,2025-02-17 11:23:08,0.0
-11568,516,-5924,-529,1804,-3197,2025-02-17 11:23:08,0.0
-12064,268,-5548,-1302,4767,-3177,2025-02-17 11:23:08,0.0
-13152,-76,-5176,-1802,5666,-3144,2025-02-17 11:23:08,0.0
-13688,-1192,-4452,-2348,4258,-2961,2025-02-17 11:23:08,0.0
-14268,-1216,-3852,-2407,3426,-2593,2025-02-17 11:23:08,0.0
-13860,-1484,-4944,-2406,2180,-2436,2025-02-17 11:23:08,0.0
-13600,-1416,-6584,-3683,899,-2817,2025-02-17 11:23:08,0.0
-13300,-1056,-5580,-5105,-583,-3564,2025-02-17 11:23:08,0.0
-13768,-796,-4104,-5367,-2143,-4213,2025-02-17 11:23:09,0.0
-13188,-1000,-4200,-6042,-3768,-4656,2025-02-17 11:23:09,0.0
-12504,-1164,-4476,-7045,-6136,-5189,2025-02-17 11:23:09,0.0
-12852,-1520,-4748,-8304,-8058,-4976,2025-02-17 11:23:09,0.0
-12460,-2044,-2816,-9201,-8418,-4464,2025-02-17 11:23:09,0.0
-12028,-2628,-860,-8898,-5577,-3844,2025-02-17 11:23:09,0.0
-10228,-3372,-992,-7981,-1520,-3249,2025-02-17 11:23:09,0.0
-9132,-3784,-996,-7011,497,-3302,2025-02-17 11:23:09,0.0
-10864,-3468,-1612,-6279,3506,-2879,2025-02-17 11:23:09,0.0
-14424,-2088,-1936,-1740,1156,999,2025-02-17 11:23:09,0.0
-14716,-1572,-1444,-1729,-75,1042,2025-02-17 11:23:09,0.0
-14072,-1596,-1164,-1773,-819,822,2025-02-17 11:23:09,0.0
-13552,-1608,-692,-1646,-1624,387,2025-02-17 11:23:09,0.0
-13364,-1532,-324,-1518,-1981,-163,2025-02-17 11:23:09,0.0
-13176,-1508,-1288,-1572,-3561,-480,2025-02-17 11:23:09,0.0
-13228,-2060,-1780,-2159,-3668,-767,2025-02-17 11:23:09,0.0
-13768,-2484,-2912,-2786,-1198,-1183,2025-02-17 11:23:09,0.0
-13756,-2776,-3632,-3764,1158,-1991,2025-02-17 11:23:09,0.0
-15032,-3596,-3132,-3981,2396,-2568,2025-02-17 11:23:09,0.0
-15276,-3680,-2896,-3599,3290,-2604,2025-02-17 11:23:09,0.0
-15804,-4124,-4268,-3654,5088,-2045,2025-02-17 11:23:09,0.0
-15760,-4548,-5284,-4211,6721,-594,2025-02-17 11:23:09,0.0
-14008,-4120,-5832,-4826,7018,931,2025-02-17 11:23:09,0.0
-13168,-3272,-4832,-4650,5885,1129,2025-02-17 11:23:09,0.0
-12928,-2208,-2936,-3044,5488,1265,2025-02-17 11:23:09,0.0
-13024,-364,-5060,-2058,4598,1689,2025-02-17 11:23:09,0.0
-12328,940,-4320,-1309,1952,1728,2025-02-17 11:23:09,0.0
-11704,1964,-3764,356,-2303,1594,2025-02-17 11:23:09,0.0
-11404,1452,-3440,1674,-5085,1469,2025-02-17 11:23:09,0.0
-11276,664,-4096,2334,-5206,1936,2025-02-17 11:23:09,0.0
-11084,-340,-3992,2683,-3116,2580,2025-02-17 11:23:09,0.0
-11164,-1904,-4672,2748,729,2497,2025-02-17 11:23:09,0.0
-12768,-2320,-4804,2246,3450,2577,2025-02-17 11:23:09,0.0
-14168,-1428,-4472,1994,3570,3447,2025-02-17 11:23:09,0.0
-14336,-432,-4232,1787,2326,4225,2025-02-17 11:23:09,0.0
-13428,140,-4648,1513,649,4851,2025-02-17 11:23:09,0.0
