acceleration_x,acceleration_y,acceleration_z,gyroscope_x,gyroscope_y,gyroscope_z,timestamp,label
-46.39999999999964,9.600000000000025,48.0,23.40000000000001,97.4,-94.0,2025-01-29 10:39:57,1
-134.39999999999964,-34.39999999999998,-80.0,11.400000000000006,45.400000000000006,-44.0,2025-01-29 10:39:57,1
-66.39999999999964,49.60000000000002,-180.0,28.40000000000001,-28.599999999999994,13.0,2025-01-29 10:39:57,1
69.60000000000036,-70.39999999999998,28.0,-12.599999999999994,-20.599999999999994,0.0,2025-01-29 10:39:57,1
-18.39999999999964,-86.39999999999998,52.0,-35.599999999999994,34.400000000000006,30.0,2025-01-29 10:39:57,1
81.60000000000036,77.60000000000002,20.0,12.400000000000006,67.4,56.0,2025-01-29 10:39:57,1
17.600000000000364,113.60000000000002,72.0,-6.599999999999994,26.40000000000001,8.0,2025-01-29 10:39:57,1
-82.39999999999964,25.600000000000023,16.0,-18.599999999999994,-53.6,26.0,2025-01-29 10:39:57,1
73.60000000000036,-22.399999999999977,40.0,20.40000000000001,-132.6,26.0,2025-01-29 10:39:57,1
105.60000000000036,-62.39999999999998,-16.0,-22.599999999999994,-35.599999999999994,-21.0,2025-01-29 10:39:57,1
133.60000000000036,-70.39999999999998,-128.0,10.400000000000006,77.4,-29.0,2025-01-29 10:39:57,1
249.6000000000004,9.600000000000025,-364.0,-62.6,176.4,-15.0,2025-01-29 10:39:57,1
149.60000000000036,-30.399999999999977,-344.0,-120.6,251.4,-27.0,2025-01-29 10:39:57,1
121.60000000000036,-126.39999999999998,-400.0,-153.6,176.4,-29.0,2025-01-29 10:39:57,1
-138.39999999999964,-46.39999999999998,-236.0,-136.6,42.400000000000006,76.0,2025-01-29 10:39:57,1
-38.39999999999964,-266.4,-200.0,-96.6,-54.6,193.0,2025-01-29 10:39:57,1
69.60000000000036,-78.39999999999998,-176.0,-32.599999999999994,-114.6,385.0,2025-01-29 10:39:57,1
117.60000000000036,-2.3999999999999773,56.0,-169.6,-82.6,374.0,2025-01-29 10:39:57,1
153.60000000000036,-10.399999999999975,184.0,-90.6,26.40000000000001,462.0,2025-01-29 10:39:57,1
221.6000000000004,-10.399999999999975,-56.0,-103.6,327.4,486.0,2025-01-29 10:39:57,1
269.6000000000004,89.60000000000002,168.0,-33.599999999999994,650.4,547.0,2025-01-29 10:39:57,1
173.60000000000036,305.6,220.0,72.4,861.4,564.0,2025-01-29 10:39:57,1
-82.39999999999964,485.6,336.0,139.4,1052.4,633.0,2025-01-29 10:39:57,1
-174.39999999999964,469.6,568.0,309.4,1271.4,704.0,2025-01-29 10:39:57,1
-314.39999999999964,773.6,216.0,395.4,1263.4,716.0,2025-01-29 10:39:57,1
-506.3999999999997,901.6,168.0,394.4,1006.4,673.0,2025-01-29 10:39:57,1
-650.3999999999996,945.6,216.0,458.4,559.4,647.0,2025-01-29 10:39:57,1
-462.3999999999997,1021.6,492.0,568.4,-53.6,517.0,2025-01-29 10:39:57,1
-606.3999999999996,1337.6,560.0,634.4,-423.6,354.0,2025-01-29 10:39:57,1
-582.3999999999996,1397.6,192.0,691.4,-825.6,128.0,2025-01-29 10:39:57,1
-606.3999999999996,1693.6,20.0,673.4,-1159.6,62.0,2025-01-29 10:39:57,1
-150.39999999999964,1797.6,172.0,557.4,-1252.6,23.0,2025-01-29 10:39:57,1
197.6000000000004,1641.6,312.0,377.4,-999.6,-155.0,2025-01-29 10:39:57,1
333.6000000000004,1329.6,660.0,427.4,-434.6,-216.0,2025-01-29 10:39:57,1
345.6000000000004,1409.6,608.0,481.4,111.4,-247.0,2025-01-29 10:39:57,1
241.6000000000004,1509.6,336.0,504.4,283.4,-262.0,2025-01-29 10:39:57,1
-82.39999999999964,1425.6,-88.0,472.4,233.4,-321.0,2025-01-29 10:39:57,1
-434.3999999999997,821.6,36.0,476.4,168.4,-319.0,2025-01-29 10:39:57,1
-230.39999999999964,661.6,56.0,655.4,-311.6,-223.0,2025-01-29 10:39:57,1
-66.39999999999964,673.6,104.0,754.4,-789.6,-234.0,2025-01-29 10:39:57,1
13.600000000000364,725.6,168.0,860.4,-690.6,-466.0,2025-01-29 10:39:57,1
169.60000000000036,465.6,-196.0,1109.4,-243.6,-687.0,2025-01-29 10:39:57,1
297.6000000000004,537.6,-300.0,1420.4,108.4,-987.0,2025-01-29 10:39:57,1
377.6000000000004,629.6,-956.0,1634.4,233.4,-1503.0,2025-01-29 10:39:57,1
413.6000000000004,325.6,-388.0,1852.4,355.4,-1938.0,2025-01-29 10:39:57,1
369.6000000000004,-14.399999999999975,-36.0,2074.4,578.4,-2074.0,2025-01-29 10:39:57,1
829.6000000000004,-562.4,-72.0,2245.4,923.4,-2159.0,2025-01-29 10:39:57,1
873.6000000000004,-1342.4,268.0,2299.4,1412.4,-2189.0,2025-01-29 10:39:57,1
925.6000000000004,-1858.4,1052.0,2284.4,1999.4,-2215.0,2025-01-29 10:39:57,1
213.6000000000004,-2298.4,1920.0,2245.4,2594.4,-2151.0,2025-01-29 10:39:57,1
-858.3999999999996,-1678.4,2140.0,2152.4,2811.4,-1803.0,2025-01-29 10:39:57,1
-1130.3999999999996,-1294.4,1220.0,1837.4,2367.4,-1565.0,2025-01-29 10:39:57,1
-1422.3999999999996,-1270.4,1664.0,1265.4,1570.4,-1644.0,2025-01-29 10:39:57,1
-1758.3999999999996,-1414.4,2260.0,924.4,774.4,-1954.0,2025-01-29 10:39:57,1
-1434.3999999999996,-1662.4,1340.0,651.4,96.4,-2024.0,2025-01-29 10:39:57,1
-1002.3999999999996,-1834.4,924.0,501.4,-79.6,-1974.0,2025-01-29 10:39:57,1
-570.3999999999996,-1714.4,1200.0,291.4,-326.6,-1623.0,2025-01-29 10:39:57,1
221.6000000000004,-1502.4,1492.0,3.4000000000000057,-375.6,-1581.0,2025-01-29 10:39:57,1
153.60000000000036,-1686.4,1764.0,-384.6,-168.6,-1693.0,2025-01-29 10:39:57,1
-186.39999999999964,-2098.4,2084.0,-669.6,-189.6,-1650.0,2025-01-29 10:39:58,1
-386.3999999999997,-2350.4,2140.0,-820.6,-234.6,-1397.0,2025-01-29 10:39:58,1
-422.3999999999997,-2134.4,2084.0,-1022.6,-40.6,-1230.0,2025-01-29 10:39:58,1
-694.3999999999996,-1762.4,2032.0,-1370.6,35.400000000000006,-1033.0,2025-01-29 10:39:58,1
-574.3999999999996,-1906.4,2084.0,-1665.6,-178.6,-840.0,2025-01-29 10:39:58,1
-306.39999999999964,-2186.4,2188.0,-1771.6,-324.6,-878.0,2025-01-29 10:39:58,1
17.600000000000364,-2466.4,1652.0,-1795.6,-323.6,-862.0,2025-01-29 10:39:58,1
461.6000000000004,-2670.4,1236.0,-1672.6,132.4,-863.0,2025-01-29 10:39:58,1
353.6000000000004,-2330.4,848.0,-1837.6,872.4,-946.0,2025-01-29 10:39:58,1
-194.39999999999964,-1354.4,360.0,-2064.6,1467.4,-1159.0,2025-01-29 10:39:58,1
-1386.3999999999996,-942.4,136.0,-2440.6,1641.4,-1198.0,2025-01-29 10:39:58,1
-1614.3999999999996,-1810.4,176.0,-2578.6,1293.4,-1132.0,2025-01-29 10:39:58,1
-1658.3999999999996,-2682.4,376.0,-2489.6,634.4,-1206.0,2025-01-29 10:39:58,1
-1854.4,-2714.4,692.0,-2425.6,-547.6,-1140.0,2025-01-29 10:39:58,1
-946.3999999999996,-2466.4,648.0,-2523.6,-977.6,-1543.0,2025-01-29 10:39:58,1
-1502.3999999999996,-2082.4,700.0,-2838.6,-753.6,-2169.0,2025-01-29 10:39:58,1
-1958.4,-1486.4,948.0,-3525.6,-746.6,-2348.0,2025-01-29 10:39:58,1
-2294.4,-1382.4,1488.0,-4519.6,-844.6,-2303.0,2025-01-29 10:39:58,1
-1886.4,-2646.4,768.0,-5022.6,-797.6,-2190.0,2025-01-29 10:39:58,1
-1930.4,-3254.4,-1564.0,-5048.6,-114.6,-2530.0,2025-01-29 10:39:58,1
-2626.4,-4350.4,-816.0,-4681.6,1073.4,-2783.0,2025-01-29 10:39:58,1
-3438.4,-5542.4,988.0,-3280.6,806.4,-3084.0,2025-01-29 10:39:58,1
-4314.4,-6066.4,1320.0,-1582.6,-1747.6,-2451.0,2025-01-29 10:39:58,1
-4602.4,-5950.4,-272.0,-452.6,-4182.6,-415.0,2025-01-29 10:39:58,1
-2770.4,-4338.4,-2428.0,172.4,-4549.6,1557.0,2025-01-29 10:39:58,1
-518.3999999999996,-2486.4,-2652.0,226.4,-3505.6,1540.0,2025-01-29 10:39:58,1
-366.3999999999997,-1922.4,-2356.0,5.400000000000006,-3460.6,1218.0,2025-01-29 10:39:58,1
569.6000000000004,-2350.4,-1816.0,-526.6,-4330.6,1985.0,2025-01-29 10:39:58,1
3141.6000000000004,-1402.4,-1264.0,-817.6,-5042.6,2620.0,2025-01-29 10:39:58,1
4017.6,129.60000000000002,-1644.0,-847.6,-4063.6,2805.0,2025-01-29 10:39:58,1
4661.6,1769.6,-2380.0,-1263.6,-2066.6,2693.0,2025-01-29 10:39:58,1
4849.6,2705.6,-1752.0,-1657.6,312.4,1974.0,2025-01-29 10:39:58,1
4121.6,2681.6,-1544.0,-1618.6,1998.4,876.0,2025-01-29 10:39:58,1
2393.6000000000004,1945.6,-1364.0,-1901.6,2558.4,279.0,2025-01-29 10:39:58,1
321.6000000000004,421.6,-316.0,-2368.6,2953.4,680.0,2025-01-29 10:39:58,1
-654.3999999999996,-638.4,232.0,-2119.6,2721.4,1321.0,2025-01-29 10:39:58,1
-1490.3999999999996,-1394.4,-568.0,-1550.6,2267.4,1981.0,2025-01-29 10:39:58,1
-1926.4,-1214.4,-1004.0,-926.6,1205.4,2731.0,2025-01-29 10:39:58,1
-2226.4,-814.4,-808.0,-476.6,-478.6,3621.0,2025-01-29 10:39:58,1
-938.3999999999996,-298.4,-272.0,-71.6,-2204.6,4175.0,2025-01-29 10:39:58,1
353.6000000000004,261.6,568.0,398.4,-3096.6,4167.0,2025-01-29 10:39:58,1
1425.6000000000004,913.6,724.0,825.4,-3070.6,4232.0,2025-01-29 10:39:58,1
2421.6000000000004,1381.6,916.0,1031.4,-2350.6,4362.0,2025-01-29 10:39:58,1
3085.6000000000004,2001.6,1124.0,1036.4,-1035.6,4109.0,2025-01-29 10:39:58,1
3149.6000000000004,2205.6,1256.0,904.4,521.4,3674.0,2025-01-29 10:39:58,1
2529.6000000000004,2425.6,852.0,675.4,2061.4,3157.0,2025-01-29 10:39:58,1
1637.6000000000004,2569.6,800.0,643.4,2571.4,2782.0,2025-01-29 10:39:58,1
461.6000000000004,2141.6,720.0,635.4,2114.4,2571.0,2025-01-29 10:39:58,1
181.6000000000004,1693.6,880.0,830.4,994.4,2342.0,2025-01-29 10:39:58,1
385.6000000000004,1497.6,624.0,1011.4,-102.6,2035.0,2025-01-29 10:39:58,1
921.6000000000004,1221.6,1528.0,1336.4,-994.6,1360.0,2025-01-29 10:39:58,1
1569.6000000000004,1053.6,1604.0,1679.4,-933.6,829.0,2025-01-29 10:39:58,1
1653.6000000000004,889.6,1596.0,1993.4,-470.6,469.0,2025-01-29 10:39:58,1
1073.6000000000004,953.6,1708.0,2252.4,115.4,294.0,2025-01-29 10:39:58,1
541.6000000000004,1029.6,1552.0,2397.4,66.4,194.0,2025-01-29 10:39:58,1
-54.39999999999964,1201.6,1648.0,2562.4,-340.6,72.0,2025-01-29 10:39:58,1
-574.3999999999996,1481.6,912.0,2484.4,-732.6,-142.0,2025-01-29 10:39:58,1
-1662.3999999999996,1981.6,1724.0,2390.4,-1136.6,-28.0,2025-01-29 10:39:58,1
-2102.4,2189.6,1500.0,2167.4,-2027.6,201.0,2025-01-29 10:39:58,1
-2246.4,2049.6,1460.0,1988.4,-3273.6,342.0,2025-01-29 10:39:58,1
-1178.3999999999996,2045.6,1292.0,2027.4,-4229.6,223.0,2025-01-29 10:39:58,1
-810.3999999999996,1689.6,1504.0,2150.4,-3701.6,-47.0,2025-01-29 10:39:59,1
-662.3999999999996,1641.6,1172.0,1959.4,-2309.6,173.0,2025-01-29 10:39:59,1
-770.3999999999996,1429.6,584.0,1354.4,-540.6,955.0,2025-01-29 10:39:59,1
-290.39999999999964,1473.6,396.0,822.4,930.4,1670.0,2025-01-29 10:39:59,1
-122.39999999999964,1661.6,948.0,1044.4,2292.4,1539.0,2025-01-29 10:39:59,1
-1894.4,785.6,1788.0,1896.4,3479.4,255.0,2025-01-29 10:39:59,1
-5178.4,-1710.4,1484.0,2558.4,3397.4,254.0,2025-01-29 10:39:59,1
-6118.4,-2026.4,-132.0,3430.4,2414.4,1338.0,2025-01-29 10:39:59,1
-5814.4,829.6,-2460.0,3852.4,895.4,2477.0,2025-01-29 10:39:59,1
-4298.4,3377.6,-3420.0,2571.4,-82.6,3104.0,2025-01-29 10:39:59,1
-2474.4,4401.6,-2264.0,956.4,-1147.6,2625.0,2025-01-29 10:39:59,1
-710.3999999999996,4905.6,-1944.0,71.4,-2414.6,1486.0,2025-01-29 10:39:59,1
653.6000000000004,4589.6,-2072.0,-564.6,-2684.6,269.0,2025-01-29 10:39:59,1
1149.6000000000004,3085.6,-1012.0,-1234.6,-1747.6,-1126.0,2025-01-29 10:39:59,1
605.6000000000004,1605.6,380.0,-1318.6,-1416.6,-1596.0,2025-01-29 10:39:59,1
1073.6000000000004,1089.6,1196.0,-1111.6,-2073.6,-1635.0,2025-01-29 10:39:59,1
2129.6000000000004,617.6,748.0,-939.6,-2678.6,-1887.0,2025-01-29 10:39:59,1
2617.6000000000004,-730.4,-36.0,-941.6,-2385.6,-2407.0,2025-01-29 10:39:59,1
2213.6000000000004,-1426.4,-620.0,-684.6,-912.6,-2520.0,2025-01-29 10:39:59,1
1981.6000000000004,-2518.4,-372.0,-293.6,933.4,-2136.0,2025-01-29 10:39:59,1
2005.6000000000004,-2906.4,380.0,215.4,1836.4,-1844.0,2025-01-29 10:39:59,1
1649.6000000000004,-2902.4,900.0,638.4,1520.4,-1877.0,2025-01-29 10:39:59,1
1109.6000000000004,-2118.4,544.0,996.4,1006.4,-2037.0,2025-01-29 10:39:59,1
793.6000000000004,-650.4,-828.0,965.4,739.4,-2275.0,2025-01-29 10:39:59,1
605.6000000000004,741.6,-1668.0,261.4,668.4,-2774.0,2025-01-29 10:39:59,1
-134.39999999999964,1069.6,-1500.0,-704.6,492.4,-3309.0,2025-01-29 10:39:59,1
-102.39999999999964,761.6,-1228.0,-1335.6,-273.6,-3726.0,2025-01-29 10:39:59,1
97.60000000000036,45.60000000000002,-1336.0,-1632.6,-1361.6,-3974.0,2025-01-29 10:39:59,1
337.6000000000004,-722.4,-700.0,-1906.6,-2307.6,-4031.0,2025-01-29 10:39:59,1
953.6000000000004,-1354.4,356.0,-2103.6,-2708.6,-3970.0,2025-01-29 10:39:59,1
1393.6000000000004,-2218.4,804.0,-2227.6,-1807.6,-4024.0,2025-01-29 10:39:59,1
2205.6000000000004,-2226.4,436.0,-2190.6,-483.6,-4098.0,2025-01-29 10:39:59,1
1825.6000000000004,-2298.4,1388.0,-2144.6,930.4,-4126.0,2025-01-29 10:39:59,1
1249.6000000000004,-2190.4,1464.0,-2132.6,1577.4,-4089.0,2025-01-29 10:39:59,1
733.6000000000004,-1942.4,1056.0,-2105.6,1637.4,-3850.0,2025-01-29 10:39:59,1
213.6000000000004,-2366.4,380.0,-2301.6,1311.4,-3624.0,2025-01-29 10:39:59,1
-690.3999999999996,-2298.4,224.0,-2498.6,647.4,-3210.0,2025-01-29 10:39:59,1
-910.3999999999996,-2126.4,692.0,-2574.6,-14.599999999999994,-2579.0,2025-01-29 10:39:59,1
-670.3999999999996,-2190.4,1152.0,-2685.6,-549.6,-2046.0,2025-01-29 10:39:59,1
-86.39999999999964,-2242.4,1580.0,-2568.6,-938.6,-1435.0,2025-01-29 10:39:59,1
917.6000000000004,-2474.4,1768.0,-2528.6,-429.6,-1117.0,2025-01-29 10:39:59,1
357.6000000000004,-2118.4,2476.0,-2544.6,388.4,-1043.0,2025-01-29 10:39:59,1
77.60000000000036,-1690.4,1948.0,-2542.6,1003.4,-866.0,2025-01-29 10:39:59,1
-818.3999999999996,-1334.4,1868.0,-2654.6,1172.4,-340.0,2025-01-29 10:39:59,1
-886.3999999999996,-1482.4,1844.0,-2757.6,904.4,214.0,2025-01-29 10:39:59,1
-582.3999999999996,-1914.4,1996.0,-2838.6,664.4,448.0,2025-01-29 10:39:59,1
-686.3999999999996,-2302.4,1960.0,-2827.6,514.4,466.0,2025-01-29 10:39:59,1
-1374.3999999999996,-2010.4,2356.0,-2762.6,823.4,699.0,2025-01-29 10:39:59,1
-1118.3999999999996,-1530.4,2008.0,-2735.6,1114.4,837.0,2025-01-29 10:39:59,1
-506.3999999999997,-1134.4,876.0,-2710.6,1149.4,588.0,2025-01-29 10:39:59,1
-774.3999999999996,-670.4,632.0,-2762.6,930.4,-597.0,2025-01-29 10:39:59,1
-2182.4,-222.4,872.0,-3356.6,682.4,-1002.0,2025-01-29 10:39:59,1
-2870.4,161.60000000000002,1336.0,-4014.6,651.4,-1040.0,2025-01-29 10:39:59,1
-3278.4,185.6,2008.0,-4950.6,67.4,-1065.0,2025-01-29 10:39:59,1
-2554.4,-410.4,628.0,-5140.6,-652.6,-1840.0,2025-01-29 10:39:59,1
-2522.4,-2094.4,-492.0,-4856.6,785.4,-3030.0,2025-01-29 10:39:59,1
-3106.4,-4322.4,336.0,-3192.6,2932.4,-4517.0,2025-01-29 10:39:59,1
-5154.4,-6650.4,292.0,-488.6,2481.4,-4912.0,2025-01-29 10:39:59,1
-7482.4,-7498.4,-1316.0,1691.4,-1557.6,-1924.0,2025-01-29 10:40:00,1
-7202.4,-7098.4,-1696.0,3159.4,-4223.6,2264.0,2025-01-29 10:40:00,1
-2258.4,-5110.4,-2588.0,4038.4,-5691.6,3908.0,2025-01-29 10:40:00,1
-378.3999999999997,-2394.4,-2132.0,4108.4,-7137.6,3910.0,2025-01-29 10:40:00,1
717.6000000000004,169.60000000000002,-1888.0,3821.4,-8525.6,4803.0,2025-01-29 10:40:00,1
2305.6000000000004,1753.6,-1716.0,2889.4,-8573.6,5919.0,2025-01-29 10:40:00,1
4489.6,2881.6,-1792.0,1879.4,-7267.6,6151.0,2025-01-29 10:40:00,1
6149.6,3533.6,-2152.0,837.4,-4464.6,5014.0,2025-01-29 10:40:00,1
6045.6,3957.6,-1332.0,289.4,174.4,2539.0,2025-01-29 10:40:00,1
3669.6,3069.6,-1288.0,-492.6,3264.4,606.0,2025-01-29 10:40:00,1
485.6000000000004,1361.6,-796.0,-1443.6,3865.4,994.0,2025-01-29 10:40:00,1
-238.39999999999964,-634.4,-452.0,-1508.6,2468.4,2237.0,2025-01-29 10:40:00,1
-94.39999999999964,-1218.4,392.0,-934.6,652.4,2848.0,2025-01-29 10:40:00,1
589.6000000000004,-1230.4,940.0,-181.6,-633.6,2827.0,2025-01-29 10:40:00,1
789.6000000000004,-562.4,964.0,512.4,-932.6,2875.0,2025-01-29 10:40:00,1
1605.6000000000004,-6.399999999999977,492.0,1046.4,-560.6,3127.0,2025-01-29 10:40:00,1
2065.6000000000004,597.6,408.0,1224.4,432.4,2938.0,2025-01-29 10:40:00,1
1097.6000000000004,1393.6,1556.0,1185.4,1991.4,2719.0,2025-01-29 10:40:00,1
57.60000000000037,989.6,1432.0,1144.4,2406.4,2608.0,2025-01-29 10:40:00,1
-1350.3999999999996,465.6,2056.0,1244.4,1465.4,2852.0,2025-01-29 10:40:00,1
-1302.3999999999996,773.6,1568.0,1372.4,442.4,3449.0,2025-01-29 10:40:00,1
-742.3999999999996,1273.6,1656.0,1546.4,-92.6,3899.0,2025-01-29 10:40:00,1
77.60000000000036,1737.6,1576.0,1875.4,-164.6,3807.0,2025-01-29 10:40:00,1
865.6000000000004,1749.6,1140.0,2171.4,204.4,3365.0,2025-01-29 10:40:00,1
805.6000000000004,1381.6,2136.0,2530.4,582.4,2886.0,2025-01-29 10:40:00,1
1061.6000000000004,1045.6,2588.0,2852.4,703.4,2487.0,2025-01-29 10:40:00,1
897.6000000000004,949.6,2492.0,3083.4,695.4,2158.0,2025-01-29 10:40:00,1
1121.6000000000004,1225.6,1768.0,3341.4,1139.4,1861.0,2025-01-29 10:40:00,1
477.6000000000004,2473.6,1448.0,3264.4,1526.4,1714.0,2025-01-29 10:40:00,1
9.600000000000364,3317.6,732.0,2727.4,1722.4,1493.0,2025-01-29 10:40:00,1
-570.3999999999996,3465.6,1184.0,2201.4,1357.4,1049.0,2025-01-29 10:40:00,1
-714.3999999999996,2713.6,1296.0,1962.4,195.4,304.0,2025-01-29 10:40:00,1
-614.3999999999996,1573.6,1900.0,2220.4,-1445.6,-247.0,2025-01-29 10:40:00,1
437.6000000000004,1153.6,2168.0,2585.4,-2409.6,-616.0,2025-01-29 10:40:00,1
1029.6000000000004,1281.6,2280.0,2919.4,-1857.6,-921.0,2025-01-29 10:40:00,1
405.6000000000004,1433.6,1748.0,2912.4,-565.6,-760.0,2025-01-29 10:40:00,1
-562.3999999999996,1709.6,1640.0,2533.4,1091.4,-36.0,2025-01-29 10:40:00,1
-1994.4,1721.6,1204.0,2156.4,1329.4,354.0,2025-01-29 10:40:00,1
-2878.4,1529.6,1708.0,2114.4,791.4,616.0,2025-01-29 10:40:00,1
-3106.4,1205.6,1796.0,2477.4,-872.6,677.0,2025-01-29 10:40:00,1
-2586.4,1709.6,2204.0,2723.4,-2440.6,649.0,2025-01-29 10:40:00,1
-2410.4,1157.6,1740.0,2662.4,-2479.6,609.0,2025-01-29 10:40:00,1
-2702.4,533.6,20.0,2597.4,-134.6,1118.0,2025-01-29 10:40:00,1
-3314.4,317.6,-1364.0,2383.4,3058.4,1766.0,2025-01-29 10:40:00,1
-4454.4,1349.6,-2384.0,1759.4,5001.4,2348.0,2025-01-29 10:40:00,1
-5722.4,2969.6,-2180.0,576.4,4984.4,3116.0,2025-01-29 10:40:00,1
-5302.4,4157.6,-1964.0,-729.6,2430.4,3328.0,2025-01-29 10:40:00,1
-4406.4,4637.6,-2832.0,-1344.6,-598.6,2576.0,2025-01-29 10:40:00,1
-3318.4,4633.6,-3568.0,-2216.6,-2564.6,1564.0,2025-01-29 10:40:00,1
-1118.3999999999996,3777.6,-1728.0,-3106.6,-4198.6,371.0,2025-01-29 10:40:00,1
1129.6000000000004,2401.6,-604.0,-2650.6,-5595.6,-930.0,2025-01-29 10:40:00,1
2997.6000000000004,889.6,-120.0,-1963.6,-6266.6,-1810.0,2025-01-29 10:40:00,1
4557.6,-790.4,892.0,-952.6,-5288.6,-2649.0,2025-01-29 10:40:00,1
5217.6,-1582.4,604.0,-16.599999999999994,-2999.6,-3084.0,2025-01-29 10:40:00,1
5217.6,-2246.4,-380.0,471.4,109.4,-3158.0,2025-01-29 10:40:00,1
4361.6,-2782.4,-676.0,817.4,3740.4,-2974.0,2025-01-29 10:40:00,1
2793.6000000000004,-2002.4,-1072.0,952.4,5891.4,-2385.0,2025-01-29 10:40:00,1
1373.6000000000004,-926.4,-780.0,812.4,6345.4,-2013.0,2025-01-29 10:40:00,1
-258.39999999999964,-102.39999999999998,-768.0,715.4,5312.4,-2141.0,2025-01-29 10:40:00,1
-1514.3999999999996,-34.39999999999998,-884.0,489.4,2807.4,-2288.0,2025-01-29 10:40:00,1
-2470.4,-382.4,-540.0,241.4,-32.599999999999994,-2226.0,2025-01-29 10:40:00,1
-2090.4,-694.4,-208.0,369.4,-1802.6,-2151.0,2025-01-29 10:40:00,1
-998.3999999999996,-846.4,-404.0,492.4,-3114.6,-2531.0,2025-01-29 10:40:01,1
145.60000000000036,-486.4,20.0,626.4,-4114.6,-2957.0,2025-01-29 10:40:01,1
1189.6000000000004,-130.39999999999998,540.0,583.4,-4159.6,-3040.0,2025-01-29 10:40:01,1
2241.6000000000004,185.6,1008.0,110.4,-3117.6,-3026.0,2025-01-29 10:40:01,1
2653.6000000000004,-242.4,1468.0,-480.6,-812.6,-3152.0,2025-01-29 10:40:01,1
2317.6000000000004,-746.4,1880.0,-702.6,1663.4,-3306.0,2025-01-29 10:40:01,1
1633.6000000000004,-1118.4,2052.0,-844.6,2833.4,-3460.0,2025-01-29 10:40:01,1
649.6000000000004,-1330.4,2380.0,-874.6,2848.4,-3643.0,2025-01-29 10:40:01,1
-590.3999999999996,-1458.4,2236.0,-858.6,2306.4,-3542.0,2025-01-29 10:40:01,1
-842.3999999999996,-1842.4,1716.0,-1044.6,1130.4,-2869.0,2025-01-29 10:40:01,1
-706.3999999999996,-2334.4,1512.0,-1202.6,433.4,-2283.0,2025-01-29 10:40:01,1
-634.3999999999996,-2598.4,1788.0,-1402.6,102.4,-1597.0,2025-01-29 10:40:01,1
-218.39999999999964,-2242.4,1856.0,-1618.6,31.40000000000001,-904.0,2025-01-29 10:40:01,1
241.6000000000004,-1510.4,1756.0,-1920.6,270.4,-500.0,2025-01-29 10:40:01,1
-66.39999999999964,-834.4,1360.0,-2336.6,671.4,-174.0,2025-01-29 10:40:01,1
-126.39999999999964,-1042.4,1272.0,-2739.6,999.4,121.0,2025-01-29 10:40:01,1
-570.3999999999996,-1038.4,1740.0,-2861.6,1155.4,177.0,2025-01-29 10:40:01,1
-898.3999999999996,-1190.4,2292.0,-2919.6,1104.4,184.0,2025-01-29 10:40:01,1
-1046.3999999999996,-1374.4,1856.0,-2875.6,678.4,188.0,2025-01-29 10:40:01,1
-866.3999999999996,-1338.4,1404.0,-2759.6,557.4,42.0,2025-01-29 10:40:01,1
-650.3999999999996,-934.4,1576.0,-2812.6,665.4,-288.0,2025-01-29 10:40:01,1
-458.3999999999997,-686.4,1968.0,-2817.6,674.4,-697.0,2025-01-29 10:40:01,1
-246.39999999999964,-618.4,1996.0,-2653.6,752.4,-1153.0,2025-01-29 10:40:01,1
-342.39999999999964,-674.4,1476.0,-2511.6,1047.4,-1677.0,2025-01-29 10:40:01,1
69.60000000000036,-706.4,912.0,-2451.6,1627.4,-2451.0,2025-01-29 10:40:01,1
-734.3999999999996,-474.4,1072.0,-3025.6,2398.4,-3421.0,2025-01-29 10:40:01,1
-1506.3999999999996,-94.39999999999998,948.0,-3441.6,2108.4,-4253.0,2025-01-29 10:40:01,1
-2394.4,-154.39999999999998,-936.0,-3260.6,1974.4,-4744.0,2025-01-29 10:40:01,1
-2726.4,-1538.4,-1952.0,-3139.6,3213.4,-5229.0,2025-01-29 10:40:01,1
-3190.4,-3782.4,-2808.0,-2624.6,3257.4,-6006.0,2025-01-29 10:40:01,1
-4570.4,-5806.4,-2128.0,-1539.6,2101.4,-5929.0,2025-01-29 10:40:01,1
-6054.4,-6842.4,-1724.0,-424.6,-592.6,-4333.0,2025-01-29 10:40:01,1
-5946.4,-6774.4,-1760.0,384.4,-3457.6,-1683.0,2025-01-29 10:40:01,1
-3406.4,-4590.4,-2156.0,709.4,-4826.6,404.0,2025-01-29 10:40:01,1
-478.3999999999997,-2354.4,-2880.0,112.4,-5465.6,1269.0,2025-01-29 10:40:01,1
1401.6000000000004,-902.4,-2952.0,-627.6,-5561.6,1631.0,2025-01-29 10:40:01,1
2921.6000000000004,533.6,-3136.0,-1468.6,-5305.6,1944.0,2025-01-29 10:40:01,1
4693.6,2069.6,-2348.0,-2353.6,-4779.6,2048.0,2025-01-29 10:40:01,1
5977.6,2677.6,-1204.0,-2880.6,-3568.6,1410.0,2025-01-29 10:40:01,1
6421.6,1805.6,-84.0,-3080.6,-1191.6,-74.0,2025-01-29 10:40:01,1
4649.6,573.6,476.0,-2580.6,2046.4,-1518.0,2025-01-29 10:40:01,1
1101.6000000000004,-650.4,-328.0,-1829.6,5214.4,-1568.0,2025-01-29 10:40:01,1
-1258.3999999999996,-818.4,-1444.0,-1522.6,6157.4,-998.0,2025-01-29 10:40:01,1
-3530.4,-1366.4,-1640.0,-1744.6,4435.4,-25.0,2025-01-29 10:40:01,1
-4918.4,-1338.4,-892.0,-1465.6,563.4,1580.0,2025-01-29 10:40:01,1
-3478.4,-1090.4,-1232.0,-982.6,-3548.6,3148.0,2025-01-29 10:40:01,1
-1258.3999999999996,-938.4,-904.0,-704.6,-5346.6,3780.0,2025-01-29 10:40:01,1
1209.6000000000004,-390.4,-208.0,-197.6,-5861.6,4216.0,2025-01-29 10:40:01,1
3333.6000000000004,-10.399999999999975,372.0,230.4,-5053.6,4237.0,2025-01-29 10:40:01,1
4409.6,173.60000000000002,1444.0,643.4,-2556.6,3980.0,2025-01-29 10:40:01,1
4361.6,569.6,1972.0,1109.4,657.4,3457.0,2025-01-29 10:40:01,1
3417.6000000000004,1049.6,1848.0,1386.4,3451.4,2817.0,2025-01-29 10:40:01,1
1509.6000000000004,1401.6,1180.0,1399.4,4566.4,2235.0,2025-01-29 10:40:01,1
-122.39999999999964,1729.6,468.0,1204.4,4199.4,2028.0,2025-01-29 10:40:01,1
-1422.3999999999996,2001.6,668.0,981.4,2196.4,1846.0,2025-01-29 10:40:01,1
-1338.3999999999996,1937.6,692.0,929.4,-329.6,1669.0,2025-01-29 10:40:01,1
-274.39999999999964,1797.6,896.0,990.4,-2049.6,1221.0,2025-01-29 10:40:01,1
1137.6000000000004,1237.6,1044.0,1080.4,-2467.6,685.0,2025-01-29 10:40:01,1
1641.6000000000004,673.6,1704.0,1192.4,-1658.6,378.0,2025-01-29 10:40:01,1
1249.6000000000004,273.6,2156.0,1512.4,-59.6,68.0,2025-01-29 10:40:01,1
385.6000000000004,29.600000000000023,2304.0,1780.4,1159.4,-190.0,2025-01-29 10:40:01,1
-1030.3999999999996,85.60000000000002,1948.0,2064.4,1178.4,-272.0,2025-01-29 10:40:02,1
-1974.4,541.6,1596.0,2158.4,346.4,-202.0,2025-01-29 10:40:02,1
-2126.4,985.6,1256.0,2107.4,-1282.6,-87.0,2025-01-29 10:40:02,1
-1586.3999999999996,957.6,1088.0,2130.4,-2776.6,-85.0,2025-01-29 10:40:02,1
-966.3999999999996,933.6,1740.0,2353.4,-3588.6,-69.0,2025-01-29 10:40:02,1
-234.39999999999964,997.6,1932.0,2498.4,-3821.6,102.0,2025-01-29 10:40:02,1
297.6000000000004,1153.6,2060.0,2821.4,-3118.6,280.0,2025-01-29 10:40:02,1
597.6000000000004,653.6,2928.0,3263.4,-1362.6,324.0,2025-01-29 10:40:02,1
317.6000000000004,49.60000000000002,3288.0,3773.4,424.4,487.0,2025-01-29 10:40:02,1
-386.3999999999997,73.60000000000002,2664.0,4251.4,1959.4,737.0,2025-01-29 10:40:02,1
-1354.3999999999996,349.6,1976.0,4479.4,2658.4,972.0,2025-01-29 10:40:02,1
-2298.4,429.6,1696.0,4594.4,2691.4,1312.0,2025-01-29 10:40:02,1
-2930.4,553.6,1252.0,4682.4,2191.4,1785.0,2025-01-29 10:40:02,1
-2930.4,677.6,1256.0,4728.4,1306.4,2414.0,2025-01-29 10:40:02,1
-2770.4,849.6,1448.0,4798.4,657.4,3009.0,2025-01-29 10:40:02,1
-2390.4,225.6,440.0,4772.4,725.4,3520.0,2025-01-29 10:40:02,1
-1938.4,-90.39999999999998,-648.0,4703.4,1539.4,3760.0,2025-01-29 10:40:02,1
-2074.4,989.6,-2032.0,4419.4,2765.4,3519.0,2025-01-29 10:40:02,1
-2822.4,2365.6,-3384.0,3507.4,2855.4,3180.0,2025-01-29 10:40:02,1
-3390.4,3241.6,-3388.0,2487.4,1526.4,2773.0,2025-01-29 10:40:02,1
-3206.4,3229.6,-3248.0,1588.4,-512.6,2167.0,2025-01-29 10:40:02,1
-2794.4,2521.6,-3460.0,580.4,-1889.6,1580.0,2025-01-29 10:40:02,1
-1526.3999999999996,957.6,-2064.0,102.4,-2668.6,1101.0,2025-01-29 10:40:02,1
237.6000000000004,-518.4,-660.0,233.4,-3428.6,396.0,2025-01-29 10:40:02,1
1781.6000000000004,-1146.4,492.0,1044.4,-3656.6,-375.0,2025-01-29 10:40:02,1
2893.6000000000004,-1818.4,888.0,1687.4,-3512.6,-735.0,2025-01-29 10:40:02,1
4005.6,-2942.4,1020.0,2291.4,-3053.6,-1005.0,2025-01-29 10:40:02,1
4205.6,-4138.4,1388.0,3236.4,-1123.6,-982.0,2025-01-29 10:40:02,1
3825.6,-4386.4,1000.0,3820.4,1116.4,-332.0,2025-01-29 10:40:02,1
2781.6000000000004,-3614.4,420.0,3819.4,3506.4,222.0,2025-01-29 10:40:02,1
1721.6000000000004,-2254.4,-1016.0,3154.4,4662.4,147.0,2025-01-29 10:40:02,1
-10.399999999999636,-1206.4,-1132.0,2489.4,4607.4,-265.0,2025-01-29 10:40:02,1
-1478.3999999999996,-694.4,-1440.0,2234.4,3852.4,-689.0,2025-01-29 10:40:02,1
-1938.4,-770.4,-1868.0,1895.4,1388.4,-1141.0,2025-01-29 10:40:02,1
-1918.4,-1498.4,-1388.0,1703.4,-1154.6,-1424.0,2025-01-29 10:40:02,1
-886.3999999999996,-2010.4,-1300.0,1664.4,-2484.6,-1376.0,2025-01-29 10:40:02,1
421.6000000000004,-2546.4,-476.0,1432.4,-2877.6,-1450.0,2025-01-29 10:40:02,1
1781.6000000000004,-2974.4,204.0,1403.4,-2239.6,-1524.0,2025-01-29 10:40:02,1
2517.6000000000004,-2990.4,140.0,1304.4,-975.6,-1446.0,2025-01-29 10:40:02,1
2785.6000000000004,-2666.4,596.0,1019.4,423.4,-1423.0,2025-01-29 10:40:02,1
2469.6000000000004,-2378.4,548.0,716.4,1629.4,-1610.0,2025-01-29 10:40:02,1
1369.6000000000004,-2070.4,760.0,427.4,2442.4,-1634.0,2025-01-29 10:40:02,1
285.6000000000004,-1854.4,836.0,120.4,2516.4,-1596.0,2025-01-29 10:40:02,1
-490.3999999999997,-1662.4,784.0,-301.6,1976.4,-1619.0,2025-01-29 10:40:02,1
-602.3999999999996,-1922.4,168.0,-667.6,891.4,-1352.0,2025-01-29 10:40:02,1
-974.3999999999996,-2374.4,904.0,-868.6,-49.6,-939.0,2025-01-29 10:40:02,1
77.60000000000036,-2610.4,412.0,-1118.6,-687.6,-715.0,2025-01-29 10:40:02,1
469.6000000000004,-2578.4,196.0,-1300.6,-621.6,-504.0,2025-01-29 10:40:02,1
1201.6000000000004,-2410.4,-116.0,-1426.6,106.4,-328.0,2025-01-29 10:40:02,1
1385.6000000000004,-2142.4,-72.0,-1541.6,1146.4,-412.0,2025-01-29 10:40:02,1
-1138.3999999999996,-2206.4,-352.0,-1924.6,350.4,-365.0,2025-01-29 10:40:02,1
-726.3999999999996,-2914.4,-288.0,-2002.6,-896.6,86.0,2025-01-29 10:40:02,1
-158.39999999999964,-2910.4,212.0,-2052.6,-1244.6,360.0,2025-01-29 10:40:02,1
601.6000000000004,-3026.4,588.0,-2086.6,-925.6,488.0,2025-01-29 10:40:02,1
929.6000000000004,-2706.4,728.0,-2051.6,-111.6,377.0,2025-01-29 10:40:02,1
385.6000000000004,-2082.4,700.0,-2247.6,380.4,202.0,2025-01-29 10:40:02,1
-130.39999999999964,-1278.4,68.0,-2510.6,427.4,180.0,2025-01-29 10:40:02,1
-490.3999999999997,-562.4,-1040.0,-3115.6,492.4,202.0,2025-01-29 10:40:03,1
-374.3999999999997,-1010.4,-1036.0,-3285.6,397.4,103.0,2025-01-29 10:40:03,1
-418.3999999999997,-1870.4,-1032.0,-3637.6,-39.6,210.0,2025-01-29 10:40:03,1
-194.39999999999964,-3078.4,-376.0,-3622.6,-477.6,708.0,2025-01-29 10:40:03,1
489.6000000000004,-3330.4,-404.0,-3217.6,-676.6,616.0,2025-01-29 10:40:03,1
189.6000000000004,-2386.4,-188.0,-2746.6,-375.6,391.0,2025-01-29 10:40:03,1
-334.39999999999964,-1458.4,-372.0,-2364.6,-130.6,617.0,2025-01-29 10:40:03,1
117.60000000000036,-790.4,-196.0,-2144.6,-261.6,757.0,2025-01-29 10:40:03,1
401.6000000000004,-574.4,-104.0,-1929.6,-570.6,641.0,2025-01-29 10:40:03,1
577.6000000000004,-990.4,28.0,-1819.6,-322.6,872.0,2025-01-29 10:40:03,1
1013.6000000000004,-1430.4,64.0,-1545.6,-76.6,1023.0,2025-01-29 10:40:03,1
1361.6000000000004,-1318.4,-240.0,-1279.6,173.4,877.0,2025-01-29 10:40:03,1
1285.6000000000004,-1022.4,-480.0,-1073.6,359.4,544.0,2025-01-29 10:40:03,1
1025.6000000000004,-790.4,-496.0,-843.6,319.4,274.0,2025-01-29 10:40:03,1
813.6000000000004,-178.39999999999998,-368.0,-595.6,249.4,83.0,2025-01-29 10:40:03,1
597.6000000000004,421.6,-652.0,-502.6,258.4,0.0,2025-01-29 10:40:03,1
413.6000000000004,777.6,-1056.0,-681.6,193.4,33.0,2025-01-29 10:40:03,1
253.6000000000004,481.6,-1084.0,-955.6,48.400000000000006,238.0,2025-01-29 10:40:03,1
349.6000000000004,-282.4,-700.0,-1018.6,69.4,352.0,2025-01-29 10:40:03,1
449.6000000000004,-650.4,-436.0,-846.6,261.4,251.0,2025-01-29 10:40:03,1
257.6000000000004,-390.4,-176.0,-426.6,556.4,14.0,2025-01-29 10:40:03,1
-174.39999999999964,-2.3999999999999773,-84.0,-44.6,630.4,-192.0,2025-01-29 10:40:03,1
-466.3999999999997,213.6,-356.0,323.4,350.4,-40.0,2025-01-29 10:40:03,1
-706.3999999999996,485.6,-60.0,529.4,272.4,214.0,2025-01-29 10:40:03,1
-678.3999999999996,449.6,-84.0,588.4,552.4,549.0,2025-01-29 10:40:03,1
-370.3999999999997,309.6,296.0,653.4,705.4,653.0,2025-01-29 10:40:03,1
65.60000000000036,633.6,592.0,805.4,265.4,532.0,2025-01-29 10:40:03,1
613.6000000000004,677.6,568.0,800.4,1.4000000000000057,400.0,2025-01-29 10:40:03,1
849.6000000000004,869.6,156.0,796.4,9.400000000000006,254.0,2025-01-29 10:40:03,1
825.6000000000004,1201.6,-152.0,579.4,332.4,249.0,2025-01-29 10:40:03,1
645.6000000000004,1381.6,-300.0,329.4,706.4,176.0,2025-01-29 10:40:03,1
277.6000000000004,1217.6,-120.0,126.4,894.4,44.0,2025-01-29 10:40:03,1
-198.39999999999964,1145.6,-144.0,-59.6,790.4,-41.0,2025-01-29 10:40:03,1
-466.3999999999997,1065.6,-116.0,-252.6,454.4,-172.0,2025-01-29 10:40:03,1
-486.3999999999997,1025.6,-308.0,-421.6,-123.6,-240.0,2025-01-29 10:40:03,1
-166.39999999999964,909.6,-244.0,-552.6,-607.6,-292.0,2025-01-29 10:40:03,1
81.60000000000036,533.6,-104.0,-665.6,-511.6,-350.0,2025-01-29 10:40:03,1
361.6000000000004,209.6,-112.0,-703.6,-59.6,-380.0,2025-01-29 10:40:03,1
313.6000000000004,-130.39999999999998,-208.0,-616.6,431.4,-435.0,2025-01-29 10:40:03,1
-78.39999999999964,-290.4,-140.0,-439.6,519.4,-451.0,2025-01-29 10:40:03,1
-466.3999999999997,-122.39999999999998,-16.0,-331.6,233.4,-434.0,2025-01-29 10:40:03,1
-470.3999999999997,-30.399999999999977,-12.0,-325.6,-139.6,-439.0,2025-01-29 10:40:03,1
-598.3999999999996,129.60000000000002,164.0,-381.6,-455.6,-335.0,2025-01-29 10:40:03,1
-86.39999999999964,185.6,-80.0,-418.6,-567.6,-246.0,2025-01-29 10:40:03,1
205.6000000000004,-74.39999999999998,316.0,-394.6,-165.6,-205.0,2025-01-29 10:40:03,1
193.6000000000004,-502.4,368.0,-238.6,228.4,-132.0,2025-01-29 10:40:03,1
85.60000000000036,-502.4,292.0,-84.6,488.4,-115.0,2025-01-29 10:40:03,1
-282.39999999999964,-334.4,128.0,-47.6,453.4,-70.0,2025-01-29 10:40:03,1
-378.3999999999997,-106.39999999999998,16.0,-19.599999999999994,226.4,-4.0,2025-01-29 10:40:03,1
-182.39999999999964,-94.39999999999998,-100.0,9.400000000000006,-123.6,57.0,2025-01-29 10:40:03,1
57.60000000000037,-102.39999999999998,200.0,92.4,-129.6,70.0,2025-01-29 10:40:03,1
257.6000000000004,-302.4,180.0,259.4,116.4,37.0,2025-01-29 10:40:03,1
233.6000000000004,-342.4,108.0,392.4,486.4,-19.0,2025-01-29 10:40:03,1
125.60000000000036,-374.4,292.0,489.4,656.4,-96.0,2025-01-29 10:40:03,1
-58.39999999999964,-246.4,-84.0,504.4,580.4,-103.0,2025-01-29 10:40:03,0.0
-210.39999999999964,-178.39999999999998,-108.0,451.4,403.4,-88.0,2025-01-29 10:40:03,0.0
-90.39999999999964,-210.4,124.0,392.4,213.4,-39.0,2025-01-29 10:40:03,0.0
193.6000000000004,-250.4,-28.0,358.4,204.4,-11.0,2025-01-29 10:40:03,0.0
245.6000000000004,-374.4,-132.0,343.4,250.4,38.0,2025-01-29 10:40:03,0.0
81.60000000000036,-486.4,-228.0,302.4,378.4,107.0,2025-01-29 10:40:03,0.0
137.60000000000036,-342.4,-96.0,293.4,579.4,100.0,2025-01-29 10:40:03,0.0
-186.39999999999964,-266.4,-100.0,234.4,602.4,73.0,2025-01-29 10:40:04,0.0
-406.3999999999997,-178.39999999999998,-184.0,210.4,320.4,80.0,2025-01-29 10:40:04,0.0
-378.3999999999997,-106.39999999999998,-236.0,166.4,-61.6,115.0,2025-01-29 10:40:04,0.0
-38.39999999999964,-178.39999999999998,-108.0,150.4,-283.6,156.0,2025-01-29 10:40:04,0.0
241.6000000000004,-254.4,-84.0,145.4,-267.6,113.0,2025-01-29 10:40:04,0.0
377.6000000000004,-362.4,-232.0,147.4,-73.6,60.0,2025-01-29 10:40:04,0.0
305.6000000000004,-338.4,-284.0,125.4,103.4,-3.0,2025-01-29 10:40:04,0.0
37.60000000000037,-154.39999999999998,-172.0,144.4,126.4,0.0,2025-01-29 10:40:04,0.0
-118.39999999999964,-190.4,-24.0,85.4,-11.599999999999994,8.0,2025-01-29 10:40:04,0.0
141.60000000000036,-278.4,-104.0,80.4,-81.6,16.0,2025-01-29 10:40:04,3
209.6000000000004,-338.4,-56.0,51.400000000000006,-66.6,-2.0,2025-01-29 10:40:04,3
197.6000000000004,-146.39999999999998,-168.0,-7.599999999999994,28.40000000000001,-1.0,2025-01-29 10:40:04,3
101.60000000000036,-114.39999999999998,-88.0,-94.6,111.4,-52.0,2025-01-29 10:40:04,3
233.6000000000004,-338.4,-188.0,-65.6,22.40000000000001,-81.0,2025-01-29 10:40:04,3
-38.39999999999964,-274.4,116.0,-65.6,-2.5999999999999943,-78.0,2025-01-29 10:40:04,3
49.60000000000037,-346.4,-152.0,-29.599999999999994,60.400000000000006,-61.0,2025-01-29 10:40:04,3
97.60000000000036,-382.4,-172.0,-32.599999999999994,127.4,-52.0,2025-01-29 10:40:04,3
53.60000000000037,-310.4,-52.0,3.4000000000000057,72.4,-12.0,2025-01-29 10:40:04,3
105.60000000000036,-362.4,-268.0,-22.599999999999994,42.400000000000006,-14.0,2025-01-29 10:40:04,3
161.60000000000036,-282.4,-56.0,31.40000000000001,88.4,-18.0,2025-01-29 10:40:04,3
97.60000000000036,-214.4,-132.0,9.400000000000006,69.4,-14.0,2025-01-29 10:40:04,3
-66.39999999999964,-346.4,-328.0,55.400000000000006,17.400000000000006,-15.0,2025-01-29 10:40:04,3
229.6000000000004,-266.4,-44.0,8.400000000000006,-55.6,35.0,2025-01-29 10:40:04,3
93.60000000000036,-394.4,-196.0,62.400000000000006,-12.599999999999994,42.0,2025-01-29 10:40:04,3
129.60000000000036,-322.4,-20.0,107.4,-10.599999999999994,57.0,2025-01-29 10:40:04,3
197.6000000000004,-302.4,-196.0,73.4,138.4,49.0,2025-01-29 10:40:04,3
133.60000000000036,-310.4,-172.0,56.400000000000006,200.4,31.0,2025-01-29 10:40:04,3
-10.399999999999636,-418.4,-76.0,73.4,193.4,78.0,2025-01-29 10:40:04,3
25.600000000000364,-362.4,-68.0,131.4,132.4,95.0,2025-01-29 10:40:04,3
93.60000000000036,-138.39999999999998,-164.0,118.4,107.4,89.0,2025-01-29 10:40:04,3
181.6000000000004,-262.4,12.0,90.4,129.4,24.0,2025-01-29 10:40:04,3
209.6000000000004,-150.39999999999998,-248.0,71.4,153.4,23.0,2025-01-29 10:40:04,3
157.60000000000036,-302.4,-180.0,40.400000000000006,148.4,-37.0,2025-01-29 10:40:04,3
-54.39999999999964,-406.4,-172.0,34.400000000000006,158.4,-32.0,2025-01-29 10:40:04,3
-26.39999999999964,-234.4,-228.0,27.40000000000001,77.4,5.0,2025-01-29 10:40:04,3
13.600000000000364,-270.4,-100.0,3.4000000000000057,11.400000000000006,28.0,2025-01-29 10:40:04,3
1.6000000000003638,-290.4,-128.0,-3.5999999999999943,50.400000000000006,29.0,2025-01-29 10:40:04,3
137.60000000000036,-510.4,-132.0,14.400000000000006,92.4,57.0,2025-01-29 10:40:04,3
117.60000000000036,-398.4,-112.0,67.4,121.4,58.0,2025-01-29 10:40:04,3
177.60000000000036,-358.4,-52.0,62.400000000000006,103.4,80.0,2025-01-29 10:40:04,3
277.6000000000004,-286.4,-228.0,73.4,123.4,35.0,2025-01-29 10:40:04,3
441.6000000000004,-342.4,-512.0,76.4,240.4,37.0,2025-01-29 10:40:04,3
513.6000000000004,-378.4,-736.0,87.4,287.4,79.0,2025-01-29 10:40:04,3
665.6000000000004,-502.4,-948.0,108.4,312.4,135.0,2025-01-29 10:40:04,3
901.6000000000004,-558.4,-1140.0,110.4,418.4,83.0,2025-01-29 10:40:04,3
909.6000000000004,-466.4,-1484.0,55.400000000000006,306.4,-158.0,2025-01-29 10:40:04,3
841.6000000000004,-670.4,-1844.0,99.4,127.4,-213.0,2025-01-29 10:40:04,3
805.6000000000004,-654.4,-2264.0,239.4,406.4,-357.0,2025-01-29 10:40:04,3
193.6000000000004,-466.4,-2484.0,262.4,947.4,-368.0,2025-01-29 10:40:04,3
-90.39999999999964,-358.4,-2596.0,29.40000000000001,1155.4,-284.0,2025-01-29 10:40:04,3
-282.39999999999964,-454.4,-2828.0,-293.6,545.4,-168.0,2025-01-29 10:40:04,3
-38.39999999999964,-146.39999999999998,-2856.0,-591.6,-1074.6,153.0,2025-01-29 10:40:04,3
1337.6000000000004,-162.39999999999998,-2692.0,-807.6,-2737.6,249.0,2025-01-29 10:40:04,3
3201.6000000000004,105.60000000000002,-2096.0,-1103.6,-4105.6,223.0,2025-01-29 10:40:04,3
5121.6,-406.4,-780.0,-1345.6,-5505.6,379.0,2025-01-29 10:40:04,3
7133.6,-178.39999999999998,1892.0,-1300.6,-6981.6,904.0,2025-01-29 10:40:05,3
10185.6,417.6,4472.0,-861.6,-8768.6,1665.0,2025-01-29 10:40:05,3
12305.6,193.6,5632.0,-739.6,-9635.6,2114.0,2025-01-29 10:40:05,3
12725.6,421.6,7532.0,-1243.6,-8273.6,2086.0,2025-01-29 10:40:05,3
12561.6,825.6,10536.0,-1387.6,-3818.6,1050.0,2025-01-29 10:40:05,3
10961.6,893.6,12896.0,-444.6,3449.4,-332.0,2025-01-29 10:40:05,3
9409.6,-902.4,11584.0,698.4,10326.4,-1246.0,2025-01-29 10:40:05,3
8325.6,-2150.4,8732.0,1193.4,14824.4,-2082.0,2025-01-29 10:40:05,3
4809.6,-1794.4,6084.0,2230.4,17690.4,-2721.0,2025-01-29 10:40:05,3
-3618.4,-1034.4,288.0,2162.4,17215.4,-896.0,2025-01-29 10:40:05,3
-2630.4,-206.4,1080.0,1185.4,8346.4,1704.0,2025-01-29 10:40:05,3
-2334.4,1093.6,164.0,945.4,-800.6,2412.0,2025-01-29 10:40:05,3
-298.39999999999964,1149.6,-332.0,-48.6,-7294.6,2640.0,2025-01-29 10:40:05,3
1869.6000000000004,929.6,444.0,-784.6,-9299.6,2475.0,2025-01-29 10:40:05,3
2985.6000000000004,1009.6,2084.0,-655.6,-7653.6,2166.0,2025-01-29 10:40:05,3
2785.6000000000004,1557.6,2396.0,-415.6,-5001.6,1626.0,2025-01-29 10:40:05,3
2197.6000000000004,1941.6,288.0,-816.6,-3274.6,1647.0,2025-01-29 10:40:05,3
1161.6000000000004,1945.6,248.0,-1591.6,-2697.6,2278.0,2025-01-29 10:40:05,3
837.6000000000004,785.6,2028.0,-1899.6,-2423.6,2208.0,2025-01-29 10:40:05,3
-490.3999999999997,-406.4,2496.0,-1397.6,-2490.6,578.0,2025-01-29 10:40:05,3
-4026.4,-250.4,624.0,-1491.6,-3315.6,-272.0,2025-01-29 10:40:05,3
-3838.4,433.6,-944.0,-1835.6,-5552.6,-170.0,2025-01-29 10:40:05,3
-3154.4,1485.6,-2292.0,-2788.6,-7278.6,753.0,2025-01-29 10:40:05,3
1581.6000000000004,1061.6,804.0,-3406.6,-5986.6,1061.0,2025-01-29 10:40:05,3
1533.6000000000004,-522.4,2348.0,-2821.6,-5130.6,333.0,2025-01-29 10:40:05,3
-98.39999999999964,-1798.4,2256.0,-2098.6,-3872.6,-851.0,2025-01-29 10:40:05,3
-2554.4,-962.4,608.0,-1783.6,-2459.6,-1952.0,2025-01-29 10:40:05,3
-3650.4,509.6,-1212.0,-1920.6,-1917.6,-2262.0,2025-01-29 10:40:05,3
-3834.4,829.6,-1988.0,-2433.6,-2985.6,-1822.0,2025-01-29 10:40:05,3
-4494.4,1185.6,-1528.0,-2587.6,-4224.6,-1602.0,2025-01-29 10:40:05,3
-6778.4,1365.6,-632.0,-3271.6,-4606.6,-1303.0,2025-01-29 10:40:05,3
-6678.4,641.6,172.0,-3521.6,-4205.6,-1890.0,2025-01-29 10:40:05,3
-6730.4,225.6,-932.0,-3602.6,-1382.6,-2517.0,2025-01-29 10:40:05,3
-8878.4,-942.4,-884.0,-3794.6,-3327.6,-2264.0,2025-01-29 10:40:05,3
-10890.4,-1470.4,-1272.0,-3300.6,-1810.6,-1312.0,2025-01-29 10:40:05,3
-13450.4,-2010.4,-16.0,-1830.6,-3295.6,54.0,2025-01-29 10:40:05,3
-14022.4,-1950.4,-1240.0,-911.6,-5631.6,1035.0,2025-01-29 10:40:05,3
-12862.4,-318.4,-2256.0,-1077.6,-6401.6,1934.0,2025-01-29 10:40:05,3
-10198.4,2745.6,-1588.0,-1470.6,-7095.6,2088.0,2025-01-29 10:40:05,3
-6694.4,4069.6,332.0,-1601.6,-7908.6,1688.0,2025-01-29 10:40:05,3
-6174.4,3753.6,2268.0,-1642.6,-6292.6,1071.0,2025-01-29 10:40:05,3
-3882.4,1721.6,3076.0,-1491.6,-4890.6,415.0,2025-01-29 10:40:05,3
-3450.4,-586.4,1976.0,-603.6,-1195.6,233.0,2025-01-29 10:40:05,3
-3678.4,-762.4,1364.0,-64.6,551.4,385.0,2025-01-29 10:40:05,3
-4030.4,465.6,1052.0,99.4,770.4,637.0,2025-01-29 10:40:05,3
-3490.4,2109.6,1324.0,-276.6,1104.4,712.0,2025-01-29 10:40:05,3
-2146.4,2329.6,1508.0,-685.6,1302.4,217.0,2025-01-29 10:40:05,3
-1882.4,1657.6,2144.0,-950.6,1124.4,192.0,2025-01-29 10:40:05,3
-2798.4,825.6,1616.0,-795.6,1305.4,527.0,2025-01-29 10:40:05,3
-1526.3999999999996,305.6,2424.0,-521.6,427.4,954.0,2025-01-29 10:40:05,3
-914.3999999999996,361.6,3528.0,-76.6,340.4,694.0,2025-01-29 10:40:05,3
-214.39999999999964,861.6,3652.0,190.4,306.4,474.0,2025-01-29 10:40:05,3
233.6000000000004,1829.6,3468.0,56.400000000000006,-102.6,281.0,2025-01-29 10:40:05,3
65.60000000000036,2181.6,3768.0,-218.6,330.4,394.0,2025-01-29 10:40:05,3
-378.3999999999997,1993.6,4028.0,-413.6,508.4,654.0,2025-01-29 10:40:05,3
-22.39999999999964,1737.6,4136.0,-406.6,762.4,787.0,2025-01-29 10:40:05,3
-86.39999999999964,1997.6,3868.0,-388.6,874.4,566.0,2025-01-29 10:40:05,3
437.6000000000004,2049.6,3880.0,-389.6,830.4,157.0,2025-01-29 10:40:05,3
-62.39999999999964,1773.6,3900.0,-454.6,427.4,-146.0,2025-01-29 10:40:05,3
-138.39999999999964,1421.6,4032.0,-370.6,378.4,-336.0,2025-01-29 10:40:05,3
-954.3999999999996,977.6,3508.0,-272.6,476.4,-245.0,2025-01-29 10:40:05,3
-1370.3999999999996,789.6,3076.0,-116.6,250.4,16.0,2025-01-29 10:40:05,3
-998.3999999999996,889.6,3228.0,130.4,136.4,25.0,2025-01-29 10:40:05,3
-1022.3999999999996,1673.6,2960.0,262.4,68.4,-217.0,2025-01-29 10:40:05,3
-1630.3999999999996,2237.6,2612.0,192.4,-191.6,-383.0,2025-01-29 10:40:05,3
-2102.4,2141.6,2764.0,80.4,-445.6,-428.0,2025-01-29 10:40:05,3
-1934.4,2005.6,3000.0,-38.6,-739.6,-383.0,2025-01-29 10:40:05,3
-1766.3999999999996,1677.6,3052.0,-104.6,-465.6,-402.0,2025-01-29 10:40:05,3
-1606.3999999999996,945.6,3004.0,-64.6,-332.6,-319.0,2025-01-29 10:40:06,3
-1214.3999999999996,737.6,3248.0,108.4,-338.6,-257.0,2025-01-29 10:40:06,3
-1350.3999999999996,549.6,3096.0,283.4,-210.6,-305.0,2025-01-29 10:40:06,3
-2098.4,437.6,3156.0,426.4,-230.6,-139.0,2025-01-29 10:40:06,3
-2346.4,929.6,2672.0,439.4,-228.6,-44.0,2025-01-29 10:40:06,3
-2266.4,1685.6,2476.0,211.4,-351.6,-90.0,2025-01-29 10:40:06,3
-2078.4,1205.6,3376.0,47.400000000000006,-918.6,-37.0,2025-01-29 10:40:06,3
-1846.4,1137.6,3392.0,1.4000000000000057,-1033.6,87.0,2025-01-29 10:40:07,3
-1930.4,1001.6,3332.0,-41.6,-917.6,221.0,2025-01-29 10:40:07,3
-2126.4,1045.6,3540.0,-91.6,-418.6,544.0,2025-01-29 10:40:07,3
-1998.4,925.6,3756.0,-93.6,-58.6,736.0,2025-01-29 10:40:07,3
-1918.4,973.6,3952.0,318.4,-662.6,-344.0,2025-01-29 10:40:07,3
-1962.4,1165.6,3964.0,293.4,-724.6,-416.0,2025-01-29 10:40:07,3
-2310.4,1289.6,4156.0,270.4,-749.6,-500.0,2025-01-29 10:40:07,3
-2394.4,1089.6,3768.0,215.4,-658.6,-397.0,2025-01-29 10:40:07,3
-2358.4,1045.6,3908.0,144.4,-721.6,-249.0,2025-01-29 10:40:07,3
-1834.4,909.6,4244.0,182.4,3.4000000000000057,-222.0,2025-01-29 10:40:07,3
-2098.4,673.6,4176.0,179.4,34.400000000000006,-217.0,2025-01-29 10:40:07,3
-2426.4,637.6,4320.0,194.4,93.4,-169.0,2025-01-29 10:40:07,3
-2426.4,757.6,4260.0,228.4,-24.599999999999994,-78.0,2025-01-29 10:40:07,3
-2342.4,973.6,4192.0,205.4,-165.6,-5.0,2025-01-29 10:40:07,3
-2142.4,1005.6,4312.0,150.4,-239.6,-21.0,2025-01-29 10:40:07,3
-1954.4,1165.6,4308.0,106.4,-270.6,-101.0,2025-01-29 10:40:07,3
-1958.4,1141.6,4316.0,46.400000000000006,-201.6,-195.0,2025-01-29 10:40:07,3
-1890.4,937.6,4120.0,-17.599999999999994,-109.6,-182.0,2025-01-29 10:40:07,3
-1958.4,813.6,4140.0,-47.6,-68.6,-135.0,2025-01-29 10:40:07,3
-2146.4,833.6,4296.0,-34.599999999999994,-120.6,-118.0,2025-01-29 10:40:07,3
-2106.4,733.6,4296.0,33.400000000000006,-143.6,-108.0,2025-01-29 10:40:07,3
-2122.4,673.6,4096.0,89.4,-209.6,-81.0,2025-01-29 10:40:07,3
-2086.4,1033.6,4072.0,107.4,-282.6,-62.0,2025-01-29 10:40:07,3
-2010.4,1093.6,4144.0,66.4,-297.6,-91.0,2025-01-29 10:40:07,3
-2010.4,833.6,4228.0,47.400000000000006,-281.6,-119.0,2025-01-29 10:40:07,3
-1986.4,801.6,4248.0,74.4,-238.6,-117.0,2025-01-29 10:40:07,3
-2198.4,889.6,4220.0,55.400000000000006,-199.6,-39.0,2025-01-29 10:40:07,3
-2030.4,889.6,4328.0,81.4,-187.6,9.0,2025-01-29 10:40:07,3
-2154.4,1077.6,4200.0,71.4,-155.6,54.0,2025-01-29 10:40:07,3
-2266.4,961.6,4152.0,58.400000000000006,-232.6,35.0,2025-01-29 10:40:07,3
-2194.4,1017.6,4156.0,75.4,-312.6,24.0,2025-01-29 10:40:07,3
-2366.4,809.6,4412.0,65.4,-402.6,35.0,2025-01-29 10:40:07,3
-2014.4,641.6,4528.0,145.4,-440.6,13.0,2025-01-29 10:40:07,3
-2018.4,693.6,4648.0,197.4,-371.6,-39.0,2025-01-29 10:40:07,3
-2002.4,785.6,4268.0,236.4,-296.6,-134.0,2025-01-29 10:40:07,3
-1894.4,853.6,4336.0,249.4,-281.6,-166.0,2025-01-29 10:40:07,3
-2110.4,709.6,4576.0,329.4,-175.6,-109.0,2025-01-29 10:40:07,3
-2214.4,541.6,4328.0,397.4,-186.6,-104.0,2025-01-29 10:40:07,3
-2214.4,649.6,4524.0,396.4,-234.6,-119.0,2025-01-29 10:40:07,3
-2066.4,997.6,4332.0,367.4,-222.6,-156.0,2025-01-29 10:40:07,3
-2082.4,1077.6,4312.0,309.4,-99.6,-223.0,2025-01-29 10:40:07,3
-2106.4,941.6,4320.0,177.4,-18.599999999999994,-181.0,2025-01-29 10:40:07,3
-2194.4,701.6,4208.0,120.4,-50.6,-70.0,2025-01-29 10:40:07,3
-2082.4,461.6,4324.0,149.4,-156.6,3.0,2025-01-29 10:40:07,3
-1978.4,521.6,4472.0,184.4,-184.6,-68.0,2025-01-29 10:40:07,3
-2154.4,769.6,4412.0,210.4,-179.6,-149.0,2025-01-29 10:40:07,3
-2110.4,873.6,4196.0,201.4,-235.6,-149.0,2025-01-29 10:40:07,3
-2078.4,769.6,4180.0,157.4,-252.6,-115.0,2025-01-29 10:40:07,3
-2122.4,805.6,4284.0,78.4,-185.6,-113.0,2025-01-29 10:40:07,3
-2014.4,757.6,4404.0,51.400000000000006,-171.6,-129.0,2025-01-29 10:40:07,3
-2094.4,565.6,4496.0,29.40000000000001,-166.6,-119.0,2025-01-29 10:40:07,3
-2214.4,613.6,4428.0,36.400000000000006,-193.6,-98.0,2025-01-29 10:40:07,3
-2250.4,585.6,4300.0,2.4000000000000057,-170.6,-63.0,2025-01-29 10:40:07,3
-2282.4,769.6,4248.0,-7.599999999999994,-214.6,-60.0,2025-01-29 10:40:07,3
-2178.4,789.6,4332.0,-67.6,-231.6,-84.0,2025-01-29 10:40:07,3
-1926.4,817.6,4320.0,-107.6,-242.6,-146.0,2025-01-29 10:40:08,3
-1986.4,613.6,4468.0,-60.6,-250.6,-210.0,2025-01-29 10:40:08,3
-1914.4,565.6,4504.0,-0.5999999999999943,-211.6,-129.0,2025-01-29 10:40:08,3
-2142.4,533.6,4520.0,97.4,-162.6,-60.0,2025-01-29 10:40:08,3
-2134.4,537.6,4292.0,95.4,-264.6,-36.0,2025-01-29 10:40:08,3
-2050.4,669.6,4424.0,57.400000000000006,-306.6,2.0,2025-01-29 10:40:08,3
-2218.4,893.6,4596.0,-3.5999999999999943,-297.6,-56.0,2025-01-29 10:40:08,3
-2014.4,1013.6,4472.0,-117.6,-211.6,-185.0,2025-01-29 10:40:08,3
-2362.4,689.6,4544.0,-151.6,-123.6,-124.0,2025-01-29 10:40:08,3
-2290.4,517.6,4684.0,-96.6,-56.6,-109.0,2025-01-29 10:40:08,3
-2258.4,445.6,4548.0,3.4000000000000057,-6.599999999999994,-58.0,2025-01-29 10:40:08,3
-2242.4,461.6,4544.0,76.4,-35.599999999999994,-12.0,2025-01-29 10:40:08,3
-2258.4,593.6,4588.0,82.4,-121.6,-3.0,2025-01-29 10:40:08,3
-2450.4,689.6,4604.0,43.400000000000006,-117.6,-19.0,2025-01-29 10:40:08,3
-2426.4,733.6,4728.0,56.400000000000006,-97.6,-8.0,2025-01-29 10:40:08,3
-2538.4,617.6,4800.0,177.4,188.4,17.0,2025-01-29 10:40:08,3
-2858.4,581.6,4668.0,199.4,616.4,140.0,2025-01-29 10:40:08,3
-3526.4,337.6,4488.0,313.4,1234.4,298.0,2025-01-29 10:40:08,3
-4606.4,477.6,4124.0,541.4,2029.4,310.0,2025-01-29 10:40:08,3
-5846.4,989.6,3068.0,477.4,2881.4,574.0,2025-01-29 10:40:08,3
-6954.4,1381.6,2220.0,344.4,3527.4,909.0,2025-01-29 10:40:08,3
-7530.4,1137.6,2136.0,386.4,3400.4,1183.0,2025-01-29 10:40:08,3
-7554.4,1009.6,2236.0,638.4,3477.4,935.0,2025-01-29 10:40:08,3
-8238.4,1009.6,1884.0,952.4,4034.4,500.0,2025-01-29 10:40:08,3
-9086.4,1257.6,1232.0,1313.4,4804.4,85.0,2025-01-29 10:40:08,3
-9686.4,1077.6,636.0,1555.4,5323.4,92.0,2025-01-29 10:40:08,3
-9402.4,1385.6,908.0,1469.4,5618.4,200.0,2025-01-29 10:40:08,3
-9018.4,1449.6,924.0,1313.4,6235.4,230.0,2025-01-29 10:40:08,3
-8202.4,865.6,780.0,1298.4,7100.4,329.0,2025-01-29 10:40:08,3
-7038.4,281.6,748.0,1378.4,7629.4,275.0,2025-01-29 10:40:08,3
-6194.4,281.6,696.0,1333.4,7723.4,315.0,2025-01-29 10:40:08,3
-5542.4,673.6,916.0,1066.4,7448.4,226.0,2025-01-29 10:40:08,3
-4762.4,593.6,1388.0,958.4,6994.4,21.0,2025-01-29 10:40:08,3
-4394.4,389.6,1740.0,1197.4,7117.4,-137.0,2025-01-29 10:40:08,3
-3562.4,321.6,1600.0,1225.4,6980.4,-66.0,2025-01-29 10:40:08,3
-2894.4,29.600000000000023,972.0,1273.4,6783.4,128.0,2025-01-29 10:40:08,3
-3130.4,-182.4,892.0,1057.4,6800.4,389.0,2025-01-29 10:40:08,3
-2438.4,-22.399999999999977,556.0,921.4,6903.4,666.0,2025-01-29 10:40:08,3
-2058.4,365.6,340.0,797.4,6641.4,817.0,2025-01-29 10:40:08,3
-1786.3999999999996,521.6,28.0,826.4,6447.4,566.0,2025-01-29 10:40:08,3
-910.3999999999996,501.6,-152.0,972.4,6335.4,-49.0,2025-01-29 10:40:08,3
-1590.3999999999996,677.6,-1536.0,824.4,5523.4,-97.0,2025-01-29 10:40:08,3
-998.3999999999996,609.6,-2440.0,190.4,5461.4,387.0,2025-01-29 10:40:08,3
-470.3999999999997,333.6,-2892.0,-477.6,5226.4,231.0,2025-01-29 10:40:08,3
-1450.3999999999996,717.6,-2516.0,-785.6,3752.4,50.0,2025-01-29 10:40:08,3
-1882.4,1169.6,-2596.0,-921.6,2156.4,535.0,2025-01-29 10:40:08,3
-1230.3999999999996,853.6,-1772.0,-1110.6,-240.6,1027.0,2025-01-29 10:40:08,3
-738.3999999999996,817.6,-1228.0,-1137.6,-2609.6,894.0,2025-01-29 10:40:08,3
1433.6000000000004,1193.6,-88.0,-940.6,-5946.6,401.0,2025-01-29 10:40:08,3
2205.6000000000004,1629.6,1516.0,-737.6,-8672.6,-47.0,2025-01-29 10:40:08,3
3869.6,1809.6,2624.0,-936.6,-11589.6,75.0,2025-01-29 10:40:08,3
4709.6,1745.6,3772.0,-974.6,-13091.6,307.0,2025-01-29 10:40:08,3
5865.6,1393.6,4508.0,-866.6,-12614.6,211.0,2025-01-29 10:40:08,3
5941.6,1285.6,5080.0,-667.6,-9655.6,-202.0,2025-01-29 10:40:08,3
6273.6,1217.6,5748.0,-269.6,-5310.6,-676.0,2025-01-29 10:40:08,3
7193.6,765.6,5344.0,15.400000000000006,-1718.6,-893.0,2025-01-29 10:40:08,3
8205.6,481.6,5312.0,-101.6,-1007.6,-813.0,2025-01-29 10:40:08,3
8285.6,589.6,6040.0,-119.6,-1284.6,-709.0,2025-01-29 10:40:08,3
7757.6,761.6,6836.0,197.4,-507.6,-660.0,2025-01-29 10:40:08,3
7201.6,549.6,7324.0,667.4,1338.4,-798.0,2025-01-29 10:40:08,3
7613.6,317.6,6760.0,1010.4,2341.4,-1114.0,2025-01-29 10:40:09,3
7529.6,-186.4,5556.0,1306.4,1664.4,-1327.0,2025-01-29 10:40:09,3
7369.6,-566.4,3616.0,1540.4,373.4,-1129.0,2025-01-29 10:40:09,3
6885.6,-398.4,2224.0,1802.4,42.400000000000006,-534.0,2025-01-29 10:40:09,3
5913.6,-230.4,2420.0,1975.4,1988.4,-41.0,2025-01-29 10:40:09,3
4641.6,-142.39999999999998,2796.0,2213.4,5994.4,51.0,2025-01-29 10:40:09,3
3153.6000000000004,-830.4,1724.0,1969.4,8967.4,-288.0,2025-01-29 10:40:09,3
1325.6000000000004,-1094.4,968.0,1769.4,10248.4,-720.0,2025-01-29 10:40:09,3
-814.3999999999996,-302.4,-588.0,2088.4,10036.4,-1072.0,2025-01-29 10:40:09,3
-3498.4,1133.6,-2976.0,2604.4,9352.4,-1263.0,2025-01-29 10:40:09,3
-5474.4,2325.6,-5072.0,2323.4,7630.4,-1318.0,2025-01-29 10:40:09,3
-5474.4,3449.6,-5700.0,699.4,1763.4,-835.0,2025-01-29 10:40:09,3
-3222.4,3045.6,-2764.0,-883.6,-7578.6,-202.0,2025-01-29 10:40:09,3
-322.39999999999964,1765.6,-364.0,-1285.6,-11512.6,-356.0,2025-01-29 10:40:09,3
3445.6000000000004,601.6,-1076.0,-2281.6,-11549.6,-862.0,2025-01-29 10:40:09,3
4353.6,-142.39999999999998,-1912.0,-3155.6,-7549.6,-1364.0,2025-01-29 10:40:09,3
3641.6,-1110.4,-1408.0,-3143.6,-607.6,-1505.0,2025-01-29 10:40:09,3
3357.6000000000004,-1850.4,-280.0,-2330.6,4705.4,-1696.0,2025-01-29 10:40:09,3
149.60000000000036,-2058.4,1052.0,-1331.6,7009.4,-2312.0,2025-01-29 10:40:09,3
-2554.4,-1610.4,1176.0,-852.6,6620.4,-2562.0,2025-01-29 10:40:09,3
-5286.4,-822.4,924.0,-653.6,3784.4,-1722.0,2025-01-29 10:40:09,3
-5086.4,89.60000000000002,72.0,-584.6,-885.6,-136.0,2025-01-29 10:40:09,3
-2558.4,553.6,408.0,-550.6,-4687.6,311.0,2025-01-29 10:40:09,3
117.60000000000036,81.60000000000002,1272.0,-805.6,-6237.6,-197.0,2025-01-29 10:40:09,3
2197.6000000000004,-270.4,1408.0,-757.6,-5263.6,-490.0,2025-01-29 10:40:09,3
2897.6000000000004,-418.4,640.0,-467.6,-1986.6,-580.0,2025-01-29 10:40:09,3
2565.6000000000004,-794.4,-124.0,-466.6,2905.4,-839.0,2025-01-29 10:40:09,3
581.6000000000004,-250.4,628.0,-354.6,5355.4,-696.0,2025-01-29 10:40:09,3
-898.3999999999996,9.600000000000025,536.0,-608.6,5395.4,-548.0,2025-01-29 10:40:09,3
-2282.4,-18.399999999999977,572.0,-631.6,3412.4,-502.0,2025-01-29 10:40:09,3
-2874.4,-502.4,800.0,-529.6,-142.6,-184.0,2025-01-29 10:40:09,3
-1906.4,-866.4,788.0,-204.6,-2436.6,415.0,2025-01-29 10:40:09,3
-206.39999999999964,-826.4,772.0,35.400000000000006,-2385.6,511.0,2025-01-29 10:40:09,3
605.6000000000004,-730.4,884.0,274.4,-1324.6,414.0,2025-01-29 10:40:09,3
1029.6000000000004,-554.4,704.0,647.4,203.4,281.0,2025-01-29 10:40:09,3
713.6000000000004,-122.39999999999998,416.0,735.4,1301.4,190.0,2025-01-29 10:40:09,3
321.6000000000004,97.60000000000002,104.0,619.4,1612.4,4.0,2025-01-29 10:40:09,3
-666.3999999999996,93.60000000000002,-64.0,391.4,1293.4,-27.0,2025-01-29 10:40:09,3
-1206.3999999999996,-70.39999999999998,192.0,276.4,684.4,28.0,2025-01-29 10:40:09,3
-1478.3999999999996,29.600000000000023,168.0,168.4,-378.6,202.0,2025-01-29 10:40:09,3
-958.3999999999996,273.6,556.0,-16.599999999999994,-1160.6,255.0,2025-01-29 10:40:09,3
-454.3999999999997,197.6,920.0,-99.6,-1414.6,198.0,2025-01-29 10:40:09,3
-126.39999999999964,113.60000000000002,920.0,-141.6,-1099.6,130.0,2025-01-29 10:40:09,3
-142.39999999999964,93.60000000000002,912.0,-214.6,-585.6,28.0,2025-01-29 10:40:09,3
-422.3999999999997,-62.39999999999998,920.0,-117.6,-269.6,178.0,2025-01-29 10:40:09,3
-462.3999999999997,-226.4,716.0,-38.6,-128.6,335.0,2025-01-29 10:40:09,3
-562.3999999999996,-270.4,952.0,48.400000000000006,-279.6,277.0,2025-01-29 10:40:09,3
-806.3999999999996,-254.4,1092.0,227.4,-528.6,333.0,2025-01-29 10:40:09,3
-398.3999999999997,-154.39999999999998,572.0,464.4,-854.6,444.0,2025-01-29 10:40:09,3
-82.39999999999964,37.60000000000002,324.0,593.4,-729.6,370.0,2025-01-29 10:40:09,3
-154.39999999999964,13.600000000000025,764.0,599.4,-299.6,268.0,2025-01-29 10:40:09,3
-494.3999999999997,-122.39999999999998,944.0,714.4,-131.6,323.0,2025-01-29 10:40:09,3
-406.3999999999997,-66.39999999999998,684.0,729.4,-237.6,402.0,2025-01-29 10:40:09,3
-370.3999999999997,101.60000000000002,476.0,741.4,-377.6,470.0,2025-01-29 10:40:09,3
-198.39999999999964,161.60000000000002,340.0,634.4,-441.6,354.0,2025-01-29 10:40:09,3
-122.39999999999964,349.6,468.0,548.4,-319.6,262.0,2025-01-29 10:40:09,3
-202.39999999999964,285.6,428.0,456.4,-179.6,162.0,2025-01-29 10:40:09,3
-298.39999999999964,261.6,452.0,387.4,-199.6,143.0,2025-01-29 10:40:09,3
-386.3999999999997,177.60000000000002,448.0,236.4,-174.6,88.0,2025-01-29 10:40:09,3
-486.3999999999997,89.60000000000002,640.0,190.4,-149.6,113.0,2025-01-29 10:40:09,3
-194.39999999999964,45.60000000000002,640.0,122.4,-122.6,131.0,2025-01-29 10:40:09,3
-338.39999999999964,-18.399999999999977,1220.0,26.40000000000001,25.40000000000001,118.0,2025-01-29 10:40:09,3
-302.39999999999964,-162.39999999999998,776.0,84.4,316.4,79.0,2025-01-29 10:40:10,3
-366.3999999999997,-6.399999999999977,564.0,187.4,558.4,71.0,2025-01-29 10:40:10,3
-590.3999999999996,-54.39999999999998,732.0,240.4,318.4,76.0,2025-01-29 10:40:10,3
-682.3999999999996,57.60000000000002,924.0,282.4,41.400000000000006,81.0,2025-01-29 10:40:10,3
-606.3999999999996,29.600000000000023,704.0,276.4,-222.6,83.0,2025-01-29 10:40:10,3
-358.39999999999964,-110.39999999999998,788.0,292.4,-194.6,122.0,2025-01-29 10:40:10,3
-218.39999999999964,-122.39999999999998,616.0,352.4,45.400000000000006,165.0,2025-01-29 10:40:10,3
-234.39999999999964,41.60000000000002,392.0,357.4,285.4,196.0,2025-01-29 10:40:10,3
-338.39999999999964,21.600000000000023,476.0,360.4,483.4,168.0,2025-01-29 10:40:10,3
-426.3999999999997,13.600000000000025,488.0,370.4,416.4,102.0,2025-01-29 10:40:10,3
-694.3999999999996,17.600000000000023,528.0,385.4,140.4,122.0,2025-01-29 10:40:10,3
-634.3999999999996,-22.399999999999977,744.0,403.4,-107.6,276.0,2025-01-29 10:40:10,3
-530.3999999999996,193.6,952.0,398.4,-145.6,370.0,2025-01-29 10:40:10,3
-302.39999999999964,425.6,648.0,337.4,-129.6,335.0,2025-01-29 10:40:10,3
-310.39999999999964,257.6,372.0,260.4,-159.6,320.0,2025-01-29 10:40:10,3
-282.39999999999964,289.6,528.0,324.4,-61.6,253.0,2025-01-29 10:40:10,3
-434.3999999999997,317.6,772.0,324.4,-14.599999999999994,268.0,2025-01-29 10:40:10,3
-382.3999999999997,217.6,864.0,387.4,-99.6,280.0,2025-01-29 10:40:10,3
-314.39999999999964,333.6,656.0,507.4,-103.6,277.0,2025-01-29 10:40:10,3
-330.39999999999964,333.6,656.0,468.4,39.400000000000006,206.0,2025-01-29 10:40:10,3
-322.39999999999964,517.6,812.0,453.4,259.4,213.0,2025-01-29 10:40:10,3
-170.39999999999964,489.6,844.0,399.4,456.4,215.0,2025-01-29 10:40:10,7
-162.39999999999964,609.6,792.0,340.4,527.4,61.0,2025-01-29 10:40:10,7
-266.39999999999964,777.6,412.0,169.4,451.4,-110.0,2025-01-29 10:40:10,7
-490.3999999999997,945.6,440.0,-141.6,293.4,-212.0,2025-01-29 10:40:10,7
-578.3999999999996,1025.6,760.0,-421.6,177.4,-219.0,2025-01-29 10:40:10,7
-274.39999999999964,1165.6,384.0,-624.6,164.4,-409.0,2025-01-29 10:40:10,7
-90.39999999999964,1001.6,80.0,-735.6,448.4,-747.0,2025-01-29 10:40:10,7
-270.39999999999964,605.6,312.0,-875.6,723.4,-1056.0,2025-01-29 10:40:10,7
-674.3999999999996,253.6,920.0,-795.6,802.4,-1187.0,2025-01-29 10:40:10,7
-746.3999999999996,449.6,1272.0,-627.6,794.4,-1185.0,2025-01-29 10:40:10,7
-918.3999999999996,749.6,844.0,-658.6,404.4,-1332.0,2025-01-29 10:40:10,7
-974.3999999999996,1313.6,-124.0,-830.6,-505.6,-1291.0,2025-01-29 10:40:10,7
-274.39999999999964,1765.6,-1152.0,-1208.6,-1224.6,-1462.0,2025-01-29 10:40:10,7
537.6000000000004,1901.6,-1464.0,-2057.6,-1595.6,-2156.0,2025-01-29 10:40:10,7
721.6000000000004,1185.6,-852.0,-2608.6,-1671.6,-2703.0,2025-01-29 10:40:10,7
697.6000000000004,749.6,-488.0,-2875.6,-1367.6,-2889.0,2025-01-29 10:40:10,7
997.6000000000004,253.6,-84.0,-3074.6,-1017.6,-2997.0,2025-01-29 10:40:10,7
1033.6000000000004,-286.4,100.0,-3254.6,-641.6,-2980.0,2025-01-29 10:40:10,7
1057.6000000000004,-626.4,112.0,-3573.6,-145.6,-2912.0,2025-01-29 10:40:10,7
729.6000000000004,-1078.4,400.0,-3957.6,250.4,-2709.0,2025-01-29 10:40:10,7
265.6000000000004,-1574.4,492.0,-4224.6,701.4,-2475.0,2025-01-29 10:40:10,7
65.60000000000036,-1362.4,296.0,-4239.6,1197.4,-2734.0,2025-01-29 10:40:10,7
-354.39999999999964,-998.4,-300.0,-4276.6,1555.4,-3362.0,2025-01-29 10:40:10,7
-850.3999999999996,-814.4,-552.0,-4402.6,1383.4,-3830.0,2025-01-29 10:40:10,7
-1098.3999999999996,-722.4,32.0,-4490.6,790.4,-4105.0,2025-01-29 10:40:10,7
-982.3999999999996,-262.4,120.0,-4729.6,20.40000000000001,-4363.0,2025-01-29 10:40:10,7
-242.39999999999964,-174.39999999999998,-260.0,-5262.6,-336.6,-4804.0,2025-01-29 10:40:10,7
353.6000000000004,-346.4,-328.0,-5836.6,-41.6,-5211.0,2025-01-29 10:40:10,7
393.6000000000004,-694.4,-260.0,-6298.6,418.4,-5578.0,2025-01-29 10:40:10,7
173.60000000000036,-1090.4,-184.0,-6670.6,722.4,-5892.0,2025-01-29 10:40:10,7
-118.39999999999964,-1402.4,28.0,-6988.6,621.4,-6178.0,2025-01-29 10:40:10,7
-286.39999999999964,-1458.4,440.0,-7153.6,299.4,-6229.0,2025-01-29 10:40:10,7
-282.39999999999964,-1382.4,428.0,-7385.6,-211.6,-6199.0,2025-01-29 10:40:10,7
-166.39999999999964,-1282.4,132.0,-7747.6,-615.6,-6071.0,2025-01-29 10:40:10,7
-62.39999999999964,-1110.4,-204.0,-8202.6,-747.6,-6008.0,2025-01-29 10:40:10,7
5.600000000000364,-1158.4,-144.0,-8671.6,-628.6,-5868.0,2025-01-29 10:40:10,7
413.6000000000004,-1098.4,-112.0,-9047.6,-356.6,-5848.0,2025-01-29 10:40:10,7
577.6000000000004,-1034.4,-160.0,-9385.6,-230.6,-5855.0,2025-01-29 10:40:11,7
541.6000000000004,-1082.4,100.0,-9620.6,-172.6,-5912.0,2025-01-29 10:40:11,7
489.6000000000004,-1002.4,-104.0,-9808.6,3.4000000000000057,-6088.0,2025-01-29 10:40:11,7
121.60000000000036,-1266.4,20.0,-9907.6,68.4,-6183.0,2025-01-29 10:40:11,7
-178.39999999999964,-1498.4,172.0,-10011.6,-50.6,-6116.0,2025-01-29 10:40:11,7
-106.39999999999964,-1630.4,316.0,-10067.6,-247.6,-6013.0,2025-01-29 10:40:11,7
-74.39999999999964,-1914.4,32.0,-10128.6,-389.6,-5862.0,2025-01-29 10:40:11,7
101.60000000000036,-2186.4,108.0,-10097.6,-306.6,-5760.0,2025-01-29 10:40:11,7
185.6000000000004,-2074.4,148.0,-10137.6,129.4,-5794.0,2025-01-29 10:40:11,7
189.6000000000004,-1490.4,352.0,-10270.6,442.4,-5808.0,2025-01-29 10:40:11,7
345.6000000000004,-1218.4,260.0,-10450.6,779.4,-5740.0,2025-01-29 10:40:11,7
281.6000000000004,-1218.4,-48.0,-10757.6,972.4,-5793.0,2025-01-29 10:40:11,7
169.60000000000036,-1350.4,132.0,-10917.6,1052.4,-6113.0,2025-01-29 10:40:11,7
-210.39999999999964,-1226.4,128.0,-11047.6,715.4,-6351.0,2025-01-29 10:40:11,7
-666.3999999999996,-918.4,-352.0,-11279.6,52.400000000000006,-6281.0,2025-01-29 10:40:11,7
-114.39999999999964,-662.4,-1316.0,-11668.6,-498.6,-6078.0,2025-01-29 10:40:11,7
153.60000000000036,-970.4,-1296.0,-12087.6,-537.6,-6100.0,2025-01-29 10:40:11,7
441.6000000000004,-1954.4,-1028.0,-12142.6,-117.6,-6443.0,2025-01-29 10:40:11,7
45.60000000000037,-2426.4,-396.0,-12045.6,99.4,-6720.0,2025-01-29 10:40:11,7
-234.39999999999964,-2926.4,228.0,-11991.6,-41.6,-6814.0,2025-01-29 10:40:11,7
-434.3999999999997,-3102.4,80.0,-11802.6,-619.6,-6857.0,2025-01-29 10:40:11,7
-210.39999999999964,-3126.4,-652.0,-11543.6,-1079.6,-6981.0,2025-01-29 10:40:11,7
-50.39999999999964,-2794.4,-1024.0,-11095.6,-1966.6,-7222.0,2025-01-29 10:40:11,7
153.60000000000036,-3026.4,-1772.0,-10844.6,-3060.6,-7076.0,2025-01-29 10:40:11,7
941.6000000000004,-2042.4,-1508.0,-10310.6,-3998.6,-6179.0,2025-01-29 10:40:11,7
2029.6000000000004,-942.4,-1908.0,-10147.6,-3702.6,-6043.0,2025-01-29 10:40:11,7
2525.6000000000004,133.60000000000002,-2064.0,-10527.6,-3262.6,-6050.0,2025-01-29 10:40:11,7
2729.6000000000004,729.6,-2136.0,-11186.6,-3072.6,-5931.0,2025-01-29 10:40:11,7
3405.6000000000004,793.6,-2056.0,-11744.6,-2689.6,-5964.0,2025-01-29 10:40:11,7
3709.6,737.6,-1868.0,-12219.6,-1846.6,-6303.0,2025-01-29 10:40:11,7
3293.6000000000004,669.6,-1208.0,-12443.6,-606.6,-6952.0,2025-01-29 10:40:11,7
2693.6000000000004,189.6,-816.0,-12460.6,636.4,-7812.0,2025-01-29 10:40:11,7
741.6000000000004,-126.39999999999998,-888.0,-12091.6,1646.4,-8566.0,2025-01-29 10:40:11,7
-1410.3999999999996,-154.39999999999998,-1100.0,-11655.6,1854.4,-8386.0,2025-01-29 10:40:11,7
-2546.4,-298.4,-1632.0,-11492.6,1140.4,-7294.0,2025-01-29 10:40:11,7
-2378.4,257.6,-1884.0,-11804.6,233.4,-6091.0,2025-01-29 10:40:11,7
-1702.3999999999996,1085.6,-1432.0,-12337.6,-164.6,-5260.0,2025-01-29 10:40:11,7
-834.3999999999996,2057.6,-1088.0,-12886.6,-127.6,-4633.0,2025-01-29 10:40:11,7
369.6000000000004,2677.6,-764.0,-13346.6,162.4,-4583.0,2025-01-29 10:40:11,7
1193.6000000000004,2733.6,144.0,-13479.6,737.4,-5373.0,2025-01-29 10:40:11,7
545.6000000000004,2021.6,788.0,-13273.6,1207.4,-6125.0,2025-01-29 10:40:11,7
-18.39999999999964,1597.6,1128.0,-12862.6,828.4,-6244.0,2025-01-29 10:40:11,7
-118.39999999999964,1201.6,1224.0,-12415.6,160.4,-6320.0,2025-01-29 10:40:11,7
-42.39999999999964,1029.6,1772.0,-11849.6,-394.6,-6484.0,2025-01-29 10:40:11,7
249.6000000000004,897.6,1964.0,-11274.6,-613.6,-6663.0,2025-01-29 10:40:11,7
705.6000000000004,1045.6,1176.0,-10773.6,-719.6,-6825.0,2025-01-29 10:40:11,7
881.6000000000004,1365.6,88.0,-10663.6,-294.6,-6924.0,2025-01-29 10:40:11,7
833.6000000000004,2057.6,-712.0,-10902.6,639.4,-6942.0,2025-01-29 10:40:11,7
693.6000000000004,2357.6,-556.0,-11303.6,1341.4,-7156.0,2025-01-29 10:40:11,7
101.60000000000036,2649.6,-200.0,-11489.6,1303.4,-7486.0,2025-01-29 10:40:11,7
129.60000000000036,2241.6,-168.0,-11614.6,562.4,-7853.0,2025-01-29 10:40:11,7
129.60000000000036,1925.6,0.0,-11621.6,-52.6,-8186.0,2025-01-29 10:40:11,7
213.6000000000004,1941.6,176.0,-11611.6,-308.6,-8326.0,2025-01-29 10:40:11,7
505.6000000000004,2181.6,304.0,-11705.6,-331.6,-8449.0,2025-01-29 10:40:11,7
605.6000000000004,2405.6,324.0,-11886.6,-17.599999999999994,-8620.0,2025-01-29 10:40:11,7
961.6000000000004,2421.6,32.0,-12066.6,88.4,-8854.0,2025-01-29 10:40:11,7
1109.6000000000004,1993.6,-624.0,-12303.6,358.4,-9186.0,2025-01-29 10:40:11,7
897.6000000000004,1745.6,-280.0,-12490.6,731.4,-9444.0,2025-01-29 10:40:11,7
761.6000000000004,1073.6,8.0,-12515.6,966.4,-9646.0,2025-01-29 10:40:11,7
309.6000000000004,577.6,640.0,-12210.6,1036.4,-9612.0,2025-01-29 10:40:11,7
97.60000000000036,685.6,968.0,-11705.6,1113.4,-9225.0,2025-01-29 10:40:11,7
425.6000000000004,1029.6,680.0,-11255.6,1175.4,-8910.0,2025-01-29 10:40:11,7
753.6000000000004,1109.6,60.0,-10950.6,1026.4,-8802.0,2025-01-29 10:40:11,7
757.6000000000004,957.6,-340.0,-10691.6,1303.4,-8821.0,2025-01-29 10:40:11,7
397.6000000000004,1125.6,-764.0,-10352.6,1973.4,-8696.0,2025-01-29 10:40:11,7
93.60000000000036,1401.6,-640.0,-10138.6,1948.4,-8674.0,2025-01-29 10:40:12,7
-406.3999999999997,1221.6,-912.0,-9941.6,1178.4,-8588.0,2025-01-29 10:40:12,7
-338.39999999999964,905.6,-392.0,-9661.6,340.4,-8478.0,2025-01-29 10:40:12,7
-134.39999999999964,-70.39999999999998,-260.0,-9297.6,-4.599999999999994,-8426.0,2025-01-29 10:40:12,7
-70.39999999999964,-362.4,28.0,-8814.6,112.4,-8188.0,2025-01-29 10:40:12,7
-266.39999999999964,-710.4,-132.0,-8403.6,649.4,-7705.0,2025-01-29 10:40:12,7
-438.3999999999997,-1270.4,20.0,-8034.6,1299.4,-7290.0,2025-01-29 10:40:12,7
-994.3999999999996,-1766.4,732.0,-7355.6,1283.4,-6984.0,2025-01-29 10:40:12,7
-1282.3999999999996,-2378.4,996.0,-6691.6,485.4,-6602.0,2025-01-29 10:40:12,7
-850.3999999999996,-1978.4,1192.0,-5742.6,-816.6,-6113.0,2025-01-29 10:40:12,7
429.6000000000004,-494.4,1376.0,-4891.6,-1851.6,-6127.0,2025-01-29 10:40:12,7
1101.6000000000004,697.6,968.0,-4020.6,-1295.6,-6286.0,2025-01-29 10:40:12,7
409.6000000000004,1377.6,-392.0,-3650.6,923.4,-6163.0,2025-01-29 10:40:12,7
-862.3999999999996,1377.6,-1972.0,-3978.6,2581.4,-5705.0,2025-01-29 10:40:12,7
-2282.4,577.6,-1468.0,-4597.6,2384.4,-5148.0,2025-01-29 10:40:12,1
-2254.4,-334.4,-252.0,-4854.6,-74.6,-4527.0,2025-01-29 10:40:12,1
-1582.3999999999996,-1470.4,1332.0,-4922.6,-3488.6,-3959.0,2025-01-29 10:40:12,1
-290.39999999999964,-2198.4,1764.0,-4932.6,-4574.6,-3331.0,2025-01-29 10:40:12,1
1333.6000000000004,-1430.4,1492.0,-4954.6,-2926.6,-2840.0,2025-01-29 10:40:12,1
2161.6000000000004,-470.4,840.0,-4917.6,-93.6,-3257.0,2025-01-29 10:40:12,1
1785.6000000000004,661.6,152.0,-4902.6,2028.4,-4282.0,2025-01-29 10:40:12,1
317.6000000000004,1101.6,-800.0,-5442.6,2976.4,-5497.0,2025-01-29 10:40:12,1
-1126.3999999999996,541.6,-348.0,-6085.6,3287.4,-6720.0,2025-01-29 10:40:12,1
-2354.4,-578.4,92.0,-6418.6,2331.4,-7688.0,2025-01-29 10:40:12,1
-2954.4,-1886.4,-112.0,-6450.6,155.4,-8017.0,2025-01-29 10:40:12,1
-2362.4,-2530.4,-356.0,-6314.6,-2179.6,-7740.0,2025-01-29 10:40:12,1
-242.39999999999964,-2158.4,48.0,-6199.6,-3308.6,-7242.0,2025-01-29 10:40:12,1
1737.6000000000004,-1654.4,456.0,-6392.6,-2926.6,-7235.0,2025-01-29 10:40:12,1
2561.6000000000004,-1438.4,936.0,-6591.6,-1340.6,-7413.0,2025-01-29 10:40:12,1
2053.6000000000004,-1330.4,1092.0,-6843.6,521.4,-7454.0,2025-01-29 10:40:12,1
1273.6000000000004,-1686.4,936.0,-6988.6,1558.4,-7521.0,2025-01-29 10:40:12,1
333.6000000000004,-2298.4,1028.0,-6787.6,1209.4,-7544.0,2025-01-29 10:40:12,1
-598.3999999999996,-2750.4,984.0,-6487.6,592.4,-7330.0,2025-01-29 10:40:12,1
-1022.3999999999996,-3078.4,888.0,-6176.6,32.400000000000006,-6853.0,2025-01-29 10:40:12,1
-1730.3999999999996,-2886.4,1276.0,-5861.6,-727.6,-5973.0,2025-01-29 10:40:12,1
-1222.3999999999996,-2550.4,1668.0,-5603.6,-1337.6,-5019.0,2025-01-29 10:40:12,1
-414.3999999999997,-2342.4,1936.0,-5426.6,-1672.6,-4627.0,2025-01-29 10:40:12,1
133.60000000000036,-2398.4,1864.0,-5202.6,-1686.6,-4426.0,2025-01-29 10:40:12,1
177.60000000000036,-2462.4,1836.0,-5032.6,-1321.6,-4081.0,2025-01-29 10:40:12,1
357.6000000000004,-2710.4,2072.0,-4795.6,-752.6,-3544.0,2025-01-29 10:40:12,1
477.6000000000004,-2998.4,1968.0,-4416.6,-168.6,-3014.0,2025-01-29 10:40:12,1
157.60000000000036,-3326.4,1696.0,-4013.6,410.4,-2611.0,2025-01-29 10:40:12,1
-62.39999999999964,-2922.4,1320.0,-3701.6,911.4,-2214.0,2025-01-29 10:40:12,1
-554.3999999999996,-2126.4,1648.0,-3646.6,1235.4,-2054.0,2025-01-29 10:40:12,1
-1158.3999999999996,-1182.4,1792.0,-3624.6,1065.4,-2088.0,2025-01-29 10:40:12,1
-1538.3999999999996,-906.4,1364.0,-3948.6,395.4,-2194.0,2025-01-29 10:40:12,1
-1762.3999999999996,-1506.4,1492.0,-4286.6,-635.6,-2221.0,2025-01-29 10:40:12,1
-1174.3999999999996,-2026.4,1068.0,-4338.6,-1532.6,-2218.0,2025-01-29 10:40:12,1
-338.39999999999964,-2586.4,1036.0,-4313.6,-1840.6,-2219.0,2025-01-29 10:40:12,1
541.6000000000004,-2702.4,1828.0,-4185.6,-1061.6,-2285.0,2025-01-29 10:40:12,1
881.6000000000004,-2542.4,1652.0,-4043.6,406.4,-2490.0,2025-01-29 10:40:12,1
317.6000000000004,-2526.4,1544.0,-4137.6,1707.4,-2692.0,2025-01-29 10:40:12,1
-850.3999999999996,-2590.4,1344.0,-4155.6,2245.4,-2706.0,2025-01-29 10:40:12,1
-1730.3999999999996,-2566.4,1396.0,-4140.6,1662.4,-2852.0,2025-01-29 10:40:12,1
-2590.4,-2774.4,1712.0,-4182.6,427.4,-3082.0,2025-01-29 10:40:12,1
-3130.4,-2942.4,2416.0,-4266.6,-886.6,-2709.0,2025-01-29 10:40:12,1
-2470.4,-2814.4,1816.0,-4283.6,-1734.6,-1964.0,2025-01-29 10:40:12,1
-1414.3999999999996,-2262.4,-980.0,-3999.6,-1533.6,-1739.0,2025-01-29 10:40:12,1
-1642.3999999999996,-2490.4,-2388.0,-3986.6,1633.4,-2419.0,2025-01-29 10:40:12,1
-1822.4,-4026.4,-620.0,-2785.6,2693.4,-3453.0,2025-01-29 10:40:12,1
-2710.4,-5442.4,-600.0,-1028.6,1199.4,-4584.0,2025-01-29 10:40:12,1
-5158.4,-6150.4,-1488.0,801.4,-2127.6,-3835.0,2025-01-29 10:40:13,1
-5834.4,-5626.4,-1964.0,1572.4,-3560.6,-1322.0,2025-01-29 10:40:13,1
-4394.4,-4442.4,-2120.0,1548.4,-3545.6,675.0,2025-01-29 10:40:13,1
-2246.4,-2262.4,-2896.0,552.4,-4287.6,1919.0,2025-01-29 10:40:13,1
-270.39999999999964,-1038.4,-3952.0,-1096.6,-5615.6,3072.0,2025-01-29 10:40:13,1
1809.6000000000004,-498.4,-2704.0,-2472.6,-5558.6,4248.0,2025-01-29 10:40:13,1
3341.6000000000004,157.60000000000002,-2336.0,-2528.6,-4717.6,4979.0,2025-01-29 10:40:13,1
4817.6,525.6,-1808.0,-2506.6,-3706.6,4874.0,2025-01-29 10:40:13,1
5849.6,629.6,-872.0,-2081.6,-2275.6,3961.0,2025-01-29 10:40:13,1
5513.6,733.6,512.0,-1284.6,-231.6,2417.0,2025-01-29 10:40:13,1
3965.6,625.6,392.0,-956.6,1941.4,1484.0,2025-01-29 10:40:13,1
1801.6000000000004,-86.39999999999998,408.0,-1481.6,3536.4,1736.0,2025-01-29 10:40:13,1
81.60000000000036,-590.4,380.0,-1503.6,3905.4,2459.0,2025-01-29 10:40:13,1
-958.3999999999996,-762.4,-304.0,-1159.6,3276.4,2892.0,2025-01-29 10:40:13,1
-1682.3999999999996,-566.4,-1388.0,-933.6,1741.4,3038.0,2025-01-29 10:40:13,1
-2390.4,153.60000000000002,-1452.0,-789.6,-422.6,3249.0,2025-01-29 10:40:13,1
-2386.4,833.6,-996.0,-329.6,-3038.6,3677.0,2025-01-29 10:40:13,1
-762.3999999999996,997.6,-516.0,-212.6,-4614.6,3943.0,2025-01-29 10:40:13,1
925.6000000000004,797.6,256.0,-163.6,-5054.6,4079.0,2025-01-29 10:40:13,1
2381.6000000000004,649.6,864.0,-70.6,-4182.6,4138.0,2025-01-29 10:40:13,1
3345.6000000000004,701.6,1840.0,98.4,-2470.6,4085.0,2025-01-29 10:40:13,1
3197.6000000000004,773.6,2288.0,324.4,-659.6,3937.0,2025-01-29 10:40:13,1
2557.6000000000004,1389.6,2072.0,454.4,869.4,3859.0,2025-01-29 10:40:13,1
1601.6000000000004,1965.6,1832.0,525.4,2005.4,3942.0,2025-01-29 10:40:13,1
837.6000000000004,2429.6,1572.0,927.4,2128.4,3898.0,2025-01-29 10:40:13,1
421.6000000000004,1993.6,1324.0,1542.4,1167.4,3348.0,2025-01-29 10:40:13,1
61.60000000000037,1445.6,1156.0,1939.4,81.4,2732.0,2025-01-29 10:40:13,1
-110.39999999999964,1121.6,2404.0,2478.4,-774.6,2227.0,2025-01-29 10:40:13,1
197.6000000000004,1025.6,3796.0,3182.4,-1791.6,1518.0,2025-01-29 10:40:13,1
277.6000000000004,1069.6,3528.0,3872.4,-3001.6,738.0,2025-01-29 10:40:13,1
397.6000000000004,881.6,3220.0,4600.4,-4084.6,54.0,2025-01-29 10:40:13,1
629.6000000000004,1221.6,2992.0,4985.4,-4564.6,-323.0,2025-01-29 10:40:13,1
1297.6000000000004,2541.6,2800.0,4912.4,-4124.6,-335.0,2025-01-29 10:40:13,1
1505.6000000000004,3421.6,1592.0,4451.4,-2537.6,-312.0,2025-01-29 10:40:13,1
901.6000000000004,3601.6,1140.0,3722.4,243.4,-139.0,2025-01-29 10:40:13,1
-34.39999999999964,2765.6,2380.0,3452.4,3320.4,-134.0,2025-01-29 10:40:13,1
-2182.4,997.6,3232.0,3767.4,4783.4,-325.0,2025-01-29 10:40:13,1
-3886.4,-38.39999999999998,2464.0,4273.4,4459.4,-400.0,2025-01-29 10:40:13,1
-4870.4,313.6,524.0,4570.4,2097.4,-72.0,2025-01-29 10:40:13,1
-3978.4,1625.6,-736.0,4349.4,-831.6,665.0,2025-01-29 10:40:13,1
-2738.4,2385.6,520.0,3798.4,-2407.6,623.0,2025-01-29 10:40:13,1
-3118.4,2049.6,2424.0,3414.4,-1612.6,616.0,2025-01-29 10:40:13,1
-4474.4,505.6,2640.0,3284.4,558.4,1502.0,2025-01-29 10:40:13,1
-4170.4,-1530.4,1648.0,3426.4,2544.4,2440.0,2025-01-29 10:40:13,1
-4098.4,-1206.4,-372.0,3750.4,3149.4,2704.0,2025-01-29 10:40:13,1
-4658.4,101.60000000000002,-3368.0,4065.4,3017.4,2912.0,2025-01-29 10:40:13,1
-5342.4,2801.6,-5972.0,2787.4,2753.4,3344.0,2025-01-29 10:40:13,1
-4574.4,4685.6,-6460.0,422.4,1161.4,3536.0,2025-01-29 10:40:13,1
-1954.4,5565.6,-5068.0,-1874.6,-1965.6,2731.0,2025-01-29 10:40:13,1
765.6000000000004,4565.6,-3192.0,-3248.6,-4179.6,1304.0,2025-01-29 10:40:13,1
3829.6,1761.6,-844.0,-3682.6,-5568.6,-413.0,2025-01-29 10:40:13,1
5489.6,-1246.4,1580.0,-2347.6,-5097.6,-1704.0,2025-01-29 10:40:13,1
5629.6,-3234.4,1936.0,-150.6,-2878.6,-2390.0,2025-01-29 10:40:13,1
5537.6,-4514.4,496.0,1180.4,325.4,-2643.0,2025-01-29 10:40:13,1
4469.6,-4278.4,-60.0,1618.4,2192.4,-2610.0,2025-01-29 10:40:13,1
2389.6000000000004,-2546.4,-860.0,1893.4,3645.4,-2274.0,2025-01-29 10:40:13,1
549.6000000000004,-622.4,-1980.0,1309.4,4970.4,-2044.0,2025-01-29 10:40:13,1
-394.3999999999997,193.6,-1716.0,282.4,4641.4,-2142.0,2025-01-29 10:40:13,1
-1458.3999999999996,149.60000000000002,-1020.0,-559.6,2114.4,-2336.0,2025-01-29 10:40:13,1
-1710.3999999999996,-294.4,-348.0,-990.6,-903.6,-2478.0,2025-01-29 10:40:13,1
-786.3999999999996,-814.4,-460.0,-852.6,-2835.6,-2560.0,2025-01-29 10:40:13,1
549.6000000000004,-718.4,-264.0,-679.6,-3472.6,-2759.0,2025-01-29 10:40:14,1
1989.6000000000004,-610.4,732.0,-735.6,-3510.6,-3052.0,2025-01-29 10:40:14,1
3337.6000000000004,-870.4,572.0,-971.6,-2924.6,-3233.0,2025-01-29 10:40:14,1
3489.6000000000004,-1022.4,1056.0,-1214.6,-1257.6,-3271.0,2025-01-29 10:40:14,1
3465.6000000000004,-1146.4,1172.0,-1415.6,1545.4,-3318.0,2025-01-29 10:40:14,1
2409.6000000000004,-1010.4,1372.0,-1754.6,3439.4,-3379.0,2025-01-29 10:40:14,1
1669.6000000000004,-522.4,508.0,-2010.6,3914.4,-3403.0,2025-01-29 10:40:14,1
421.6000000000004,-706.4,128.0,-2432.6,3713.4,-3431.0,2025-01-29 10:40:14,1
-230.39999999999964,-874.4,44.0,-2755.6,2968.4,-3270.0,2025-01-29 10:40:14,1
-714.3999999999996,-1394.4,-56.0,-2986.6,2373.4,-2992.0,2025-01-29 10:40:14,1
-1014.3999999999996,-1622.4,428.0,-3075.6,1840.4,-2556.0,2025-01-29 10:40:14,1
-1346.3999999999996,-1790.4,1204.0,-2973.6,957.4,-2111.0,2025-01-29 10:40:14,1
-910.3999999999996,-1886.4,1680.0,-2765.6,16.400000000000006,-1669.0,2025-01-29 10:40:14,1
-522.3999999999996,-1670.4,1992.0,-2628.6,-570.6,-1204.0,2025-01-29 10:40:14,1
253.6000000000004,-1642.4,1332.0,-2748.6,-923.6,-569.0,2025-01-29 10:40:14,1
693.6000000000004,-2086.4,444.0,-3124.6,-511.6,205.0,2025-01-29 10:40:14,1
573.6000000000004,-2210.4,1040.0,-3487.6,1153.4,563.0,2025-01-29 10:40:14,1
-554.3999999999996,-2074.4,1848.0,-3647.6,1650.4,510.0,2025-01-29 10:40:14,1
-1302.3999999999996,-1694.4,1744.0,-3472.6,990.4,388.0,2025-01-29 10:40:14,1
-1242.3999999999996,-1170.4,1524.0,-2953.6,-215.6,325.0,2025-01-29 10:40:14,1
-442.3999999999997,-874.4,932.0,-2658.6,-984.6,-67.0,2025-01-29 10:40:14,1
181.6000000000004,-970.4,1240.0,-2497.6,-1027.6,-852.0,2025-01-29 10:40:14,1
-34.39999999999964,-1250.4,1548.0,-2450.6,-496.6,-1767.0,2025-01-29 10:40:14,1
-1318.3999999999996,-1454.4,1748.0,-2737.6,230.4,-2631.0,2025-01-29 10:40:14,1
-3070.4,-1006.4,1248.0,-3441.6,870.4,-2510.0,2025-01-29 10:40:14,1
-3718.4,-906.4,160.0,-4078.6,1133.4,-2238.0,2025-01-29 10:40:14,1
-3750.4,-1642.4,-1652.0,-4086.6,1040.4,-2266.0,2025-01-29 10:40:14,1
-4050.4,-4158.4,-1364.0,-3323.6,729.4,-2572.0,2025-01-29 10:40:14,1
-5042.4,-6298.4,300.0,-1109.6,-983.6,-2893.0,2025-01-29 10:40:14,1
-6078.4,-6606.4,-324.0,1309.4,-3561.6,-1683.0,2025-01-29 10:40:14,1
-5650.4,-5034.4,-1308.0,2696.4,-6008.6,804.0,2025-01-29 10:40:14,1
-2342.4,-3450.4,-1468.0,3589.4,-7049.6,2106.0,2025-01-29 10:40:14,1
321.6000000000004,-2418.4,-2316.0,3757.4,-6658.6,2142.0,2025-01-29 10:40:14,1
2077.6000000000004,-862.4,-2692.0,3267.4,-5578.6,2064.0,2025-01-29 10:40:14,1
3661.6,1485.6,-3024.0,2016.4,-4382.6,2249.0,2025-01-29 10:40:14,1
4757.6,3073.6,-2876.0,648.4,-2683.6,2335.0,2025-01-29 10:40:14,1
5485.6,3725.6,-2176.0,-248.6,-261.6,1958.0,2025-01-29 10:40:14,1
4997.6,3421.6,-2004.0,-885.6,2467.4,1083.0,2025-01-29 10:40:14,1
2909.6000000000004,2013.6,-1424.0,-1544.6,4676.4,459.0,2025-01-29 10:40:14,1
369.6000000000004,777.6,-596.0,-1511.6,5504.4,514.0,2025-01-29 10:40:14,1
-1298.3999999999996,41.60000000000002,20.0,-1102.6,4620.4,1112.0,2025-01-29 10:40:14,1
-1590.3999999999996,-222.4,-760.0,-720.6,1914.4,1635.0,2025-01-29 10:40:14,1
-1538.3999999999996,-506.4,-968.0,-656.6,-306.6,2077.0,2025-01-29 10:40:14,1
-778.3999999999996,157.60000000000002,-568.0,-668.6,-1271.6,2459.0,2025-01-29 10:40:14,1
193.6000000000004,853.6,-172.0,-702.6,-1840.6,2515.0,2025-01-29 10:40:14,1
853.6000000000004,1297.6,440.0,-785.6,-2029.6,2403.0,2025-01-29 10:40:14,1
1493.6000000000004,1649.6,1120.0,-832.6,-1831.6,2419.0,2025-01-29 10:40:14,1
2365.6000000000004,1897.6,1164.0,-825.6,-1179.6,2121.0,2025-01-29 10:40:14,1
2421.6000000000004,2225.6,1492.0,-866.6,-84.6,1626.0,2025-01-29 10:40:14,1
2717.6000000000004,2209.6,1128.0,-927.6,891.4,1100.0,2025-01-29 10:40:14,1
1633.6000000000004,1937.6,1416.0,-872.6,1753.4,580.0,2025-01-29 10:40:14,1
1089.6000000000004,1489.6,1484.0,-883.6,1933.4,283.0,2025-01-29 10:40:14,1
733.6000000000004,1457.6,1668.0,-853.6,1735.4,134.0,2025-01-29 10:40:14,1
689.6000000000004,1657.6,1648.0,-700.6,1193.4,-117.0,2025-01-29 10:40:14,1
913.6000000000004,1869.6,1608.0,-559.6,616.4,-698.0,2025-01-29 10:40:14,1
877.6000000000004,1841.6,1448.0,-428.6,55.400000000000006,-1394.0,2025-01-29 10:40:14,1
409.6000000000004,1625.6,1824.0,-318.6,-279.6,-1775.0,2025-01-29 10:40:14,1
29.600000000000364,1445.6,1568.0,-204.6,-825.6,-1809.0,2025-01-29 10:40:14,1
-242.39999999999964,1477.6,1320.0,-10.599999999999994,-1466.6,-1665.0,2025-01-29 10:40:14,1
-866.3999999999996,1153.6,1064.0,68.4,-1227.6,-1366.0,2025-01-29 10:40:14,1
-1386.3999999999996,725.6,2160.0,154.4,-782.6,-875.0,2025-01-29 10:40:14,1
-1662.3999999999996,357.6,2848.0,486.4,-1057.6,-487.0,2025-01-29 10:40:14,1
-2018.4,-10.399999999999975,2668.0,1181.4,-1278.6,-147.0,2025-01-29 10:40:15,1
-2474.4,-26.399999999999977,2040.0,1877.4,-1517.6,510.0,2025-01-29 10:40:15,1
-2226.4,545.6,1256.0,2395.4,-1638.6,1431.0,2025-01-29 10:40:15,1
-2098.4,1445.6,644.0,2365.4,-1231.6,2236.0,2025-01-29 10:40:15,1
-2070.4,2037.6,912.0,2084.4,-560.6,2648.0,2025-01-29 10:40:15,1
-2582.4,1981.6,2496.0,2012.4,569.4,2712.0,2025-01-29 10:40:15,1
-2898.4,977.6,4504.0,2543.4,1125.4,2590.0,2025-01-29 10:40:15,1
-2630.4,-82.39999999999998,2580.0,3536.4,726.4,2717.0,2025-01-29 10:40:15,1
-2206.4,-354.4,620.0,3771.4,954.4,2805.0,2025-01-29 10:40:15,1
-3138.4,2049.6,-968.0,3022.4,1702.4,2838.0,2025-01-29 10:40:15,1
-4190.4,4541.6,-2512.0,1728.4,3272.4,3078.0,2025-01-29 10:40:15,1
-4106.4,5849.6,-4292.0,-87.6,3701.4,2992.0,2025-01-29 10:40:15,1
-2554.4,6113.6,-5996.0,-2153.6,1810.4,1934.0,2025-01-29 10:40:15,1
-1198.3999999999996,5217.6,-5148.0,-3222.6,-957.6,-141.0,2025-01-29 10:40:15,1
-1018.3999999999996,3185.6,-3796.0,-3659.6,-3097.6,-1696.0,2025-01-29 10:40:15,1
-6.399999999999636,1593.6,-2752.0,-3809.6,-4347.6,-1637.0,2025-01-29 10:40:15,1
2693.6000000000004,-422.4,-1532.0,-3361.6,-5385.6,-1571.0,2025-01-29 10:40:15,1
4253.6,-2142.4,-160.0,-2465.6,-5184.6,-1972.0,2025-01-29 10:40:15,1
4869.6,-4210.4,848.0,-1475.6,-3317.6,-2223.0,2025-01-29 10:40:15,1
4085.6,-5126.4,1196.0,26.40000000000001,-173.6,-2088.0,2025-01-29 10:40:15,1
2993.6000000000004,-4302.4,-36.0,1465.4,2884.4,-1461.0,2025-01-29 10:40:15,1
1969.6000000000004,-2806.4,-340.0,2389.4,4660.4,-943.0,2025-01-29 10:40:15,1
1245.6000000000004,-1218.4,-788.0,2611.4,4362.4,-946.0,2025-01-29 10:40:15,1
1.6000000000003638,-182.4,-952.0,2441.4,3231.4,-1124.0,2025-01-29 10:40:15,1
-978.3999999999996,33.60000000000002,-708.0,2147.4,1966.4,-1104.0,2025-01-29 10:40:15,1
-1114.3999999999996,-362.4,-556.0,2022.4,534.4,-998.0,2025-01-29 10:40:15,1
-586.3999999999996,-834.4,-436.0,2067.4,-818.6,-921.0,2025-01-29 10:40:15,1
925.6000000000004,-1122.4,-328.0,2021.4,-1940.6,-971.0,2025-01-29 10:40:15,1
2065.6000000000004,-918.4,332.0,1936.4,-2412.6,-1363.0,2025-01-29 10:40:15,1
2481.6000000000004,-650.4,432.0,1796.4,-1763.6,-1772.0,2025-01-29 10:40:15,1
2757.6000000000004,-134.39999999999998,4.0,1209.4,136.4,-2289.0,2025-01-29 10:40:15,1
1993.6000000000004,-250.4,292.0,516.4,1942.4,-2368.0,2025-01-29 10:40:15,1
1001.6000000000004,-674.4,692.0,154.4,2732.4,-2239.0,2025-01-29 10:40:15,1
173.60000000000036,-1222.4,856.0,-4.599999999999994,2712.4,-2228.0,2025-01-29 10:40:15,1
-906.3999999999996,-1930.4,856.0,34.400000000000006,2338.4,-2151.0,2025-01-29 10:40:15,1
-1666.3999999999996,-2158.4,1040.0,118.4,1304.4,-1594.0,2025-01-29 10:40:15,1
-1778.3999999999996,-2198.4,1240.0,227.4,-227.6,-782.0,2025-01-29 10:40:15,1
-346.39999999999964,-1942.4,1200.0,298.4,-1283.6,-221.0,2025-01-29 10:40:15,1
757.6000000000004,-1450.4,1496.0,115.4,-1585.6,-83.0,2025-01-29 10:40:15,1
1249.6000000000004,-678.4,1292.0,-132.6,-1160.6,-39.0,2025-01-29 10:40:15,1
1661.6000000000004,-6.399999999999977,996.0,-669.6,175.4,-109.0,2025-01-29 10:40:15,1
1421.6000000000004,33.60000000000002,800.0,-1451.6,1509.4,-249.0,2025-01-29 10:40:15,1
57.60000000000037,-578.4,1552.0,-2139.6,2308.4,-137.0,2025-01-29 10:40:15,1
-546.3999999999996,-1410.4,1704.0,-2370.6,2035.4,21.0,2025-01-29 10:40:15,1
-1642.3999999999996,-2026.4,1764.0,-2463.6,1306.4,46.0,2025-01-29 10:40:15,1
-994.3999999999996,-1998.4,1372.0,-2545.6,390.4,83.0,2025-01-29 10:40:15,1
-362.3999999999997,-1414.4,1072.0,-2436.6,-160.6,-3.0,2025-01-29 10:40:15,1
-22.39999999999964,-834.4,964.0,-2648.6,392.4,-303.0,2025-01-29 10:40:15,1
-18.39999999999964,161.60000000000002,1004.0,-2883.6,952.4,-811.0,2025-01-29 10:40:15,1
-718.3999999999996,449.6,988.0,-3342.6,1163.4,-1211.0,2025-01-29 10:40:15,1
-1250.3999999999996,-134.39999999999998,844.0,-3624.6,1193.4,-1459.0,2025-01-29 10:40:15,1
-1650.3999999999996,-1782.4,992.0,-3767.6,1354.4,-1965.0,2025-01-29 10:40:15,1
-2518.4,-2690.4,1636.0,-3736.6,1267.4,-2206.0,2025-01-29 10:40:15,1
-3198.4,-2742.4,1752.0,-3490.6,859.4,-1960.0,2025-01-29 10:40:15,1
-2886.4,-2482.4,-224.0,-2904.6,890.4,-2138.0,2025-01-29 10:40:15,1
-3034.4,-3606.4,-936.0,-2111.6,2266.4,-2857.0,2025-01-29 10:40:15,1
-2974.4,-4682.4,-1468.0,-811.6,1627.4,-3507.0,2025-01-29 10:40:15,1
-4458.4,-5674.4,-1912.0,576.4,42.400000000000006,-3147.0,2025-01-29 10:40:15,1
-5690.4,-5270.4,-2064.0,1409.4,-1943.6,-951.0,2025-01-29 10:40:15,1
-3802.4,-3614.4,-2900.0,1888.4,-3847.6,1517.0,2025-01-29 10:40:15,1
-1386.3999999999996,-2546.4,-3344.0,1838.4,-4689.6,2344.0,2025-01-29 10:40:15,1
457.6000000000004,-1738.4,-3804.0,1651.4,-5435.6,2479.0,2025-01-29 10:40:16,1
2181.6000000000004,-1022.4,-3388.0,1431.4,-6390.6,2565.0,2025-01-29 10:40:16,1
4285.6,741.6,-2428.0,847.4,-7267.6,2370.0,2025-01-29 10:40:16,1
5933.6,2573.6,-2044.0,-105.6,-6695.6,1876.0,2025-01-29 10:40:16,1
6213.6,4245.6,-1508.0,-1313.6,-3539.6,1137.0,2025-01-29 10:40:16,1
6441.6,4513.6,-1292.0,-2051.6,947.4,-192.0,2025-01-29 10:40:16,1
4693.6,2977.6,-1292.0,-2490.6,4607.4,-1829.0,2025-01-29 10:40:16,1
1029.6000000000004,993.6,-672.0,-2561.6,6652.4,-2306.0,2025-01-29 10:40:16,1
-1650.3999999999996,-290.4,-652.0,-2365.6,6886.4,-1783.0,2025-01-29 10:40:16,1
-3602.4,-1290.4,-272.0,-2175.6,4555.4,-760.0,2025-01-29 10:40:16,1
-4518.4,-1962.4,-36.0,-1646.6,867.4,839.0,2025-01-29 10:40:16,1
-3686.4,-2290.4,116.0,-625.6,-2790.6,2833.0,2025-01-29 10:40:16,1
-1054.3999999999996,-1758.4,-100.0,577.4,-4452.6,3896.0,2025-01-29 10:40:16,1
813.6000000000004,-674.4,-116.0,1445.4,-4326.6,4457.0,2025-01-29 10:40:16,1
1833.6000000000004,129.60000000000002,500.0,2114.4,-3213.6,4882.0,2025-01-29 10:40:16,1
2669.6000000000004,833.6,1040.0,2755.4,-1328.6,4808.0,2025-01-29 10:40:16,1
2537.6000000000004,1357.6,1120.0,3251.4,471.4,4359.0,2025-01-29 10:40:16,1
1473.6000000000004,1589.6,388.0,3681.4,1682.4,3921.0,2025-01-29 10:40:16,1
565.6000000000004,1449.6,-144.0,3661.4,1896.4,3790.0,2025-01-29 10:40:16,1
-354.39999999999964,1689.6,-192.0,3413.4,1016.4,3820.0,2025-01-29 10:40:16,1
-134.39999999999964,2165.6,-32.0,3214.4,-263.6,3684.0,2025-01-29 10:40:16,1
633.6000000000004,2493.6,-288.0,2954.4,-1303.6,3342.0,2025-01-29 10:40:16,1
1525.6000000000004,2265.6,-152.0,2636.4,-1960.6,2858.0,2025-01-29 10:40:16,1
2125.6000000000004,2025.6,164.0,2331.4,-1450.6,2368.0,2025-01-29 10:40:16,1
2553.6000000000004,1705.6,584.0,2041.4,-187.6,1918.0,2025-01-29 10:40:16,1
2281.6000000000004,1313.6,720.0,1956.4,1030.4,1247.0,2025-01-29 10:40:16,1
1049.6000000000004,977.6,804.0,1875.4,1451.4,714.0,2025-01-29 10:40:16,1
-42.39999999999964,1297.6,500.0,1743.4,923.4,461.0,2025-01-29 10:40:16,1
-654.3999999999996,1705.6,384.0,1587.4,167.4,241.0,2025-01-29 10:40:16,1
-770.3999999999996,1877.6,164.0,1420.4,-729.6,55.0,2025-01-29 10:40:16,1
-698.3999999999996,1473.6,912.0,1488.4,-1472.6,-322.0,2025-01-29 10:40:16,1
-434.3999999999997,1109.6,1500.0,1723.4,-2236.6,-642.0,2025-01-29 10:40:16,1
9.600000000000364,1037.6,1384.0,1901.4,-2291.6,-734.0,2025-01-29 10:40:16,1
389.6000000000004,1313.6,1176.0,2098.4,-1897.6,-739.0,2025-01-29 10:40:16,1
509.6000000000004,1521.6,1400.0,2015.4,-1221.6,-566.0,2025-01-29 10:40:16,1
329.6000000000004,1329.6,1636.0,1889.4,-470.6,-426.0,2025-01-29 10:40:16,1
145.60000000000036,501.6,2704.0,1858.4,248.4,-390.0,2025-01-29 10:40:16,1
-402.3999999999997,-98.39999999999998,3028.0,2383.4,572.4,-421.0,2025-01-29 10:40:16,1
-678.3999999999996,-82.39999999999998,1844.0,2902.4,704.4,-550.0,2025-01-29 10:40:16,1
-1438.3999999999996,-346.4,1748.0,3244.4,581.4,-574.0,2025-01-29 10:40:16,1
-1842.4,-98.39999999999998,1728.0,3564.4,143.4,-300.0,2025-01-29 10:40:16,1
-1818.4,549.6,1564.0,3731.4,-289.6,85.0,2025-01-29 10:40:16,1
-1814.4,625.6,1408.0,3733.4,-45.6,680.0,2025-01-29 10:40:16,1
-1846.4,-122.39999999999998,2280.0,3889.4,456.4,1101.0,2025-01-29 10:40:16,1
-2522.4,-734.4,2188.0,4316.4,1053.4,1611.0,2025-01-29 10:40:16,1
-2522.4,-1342.4,532.0,4684.4,1980.4,2270.0,2025-01-29 10:40:16,1
-2510.4,161.60000000000002,-1100.0,4745.4,3165.4,2528.0,2025-01-29 10:40:16,1
-3110.4,2473.6,-2312.0,4277.4,3529.4,2757.0,2025-01-29 10:40:16,1
-2674.4,3361.6,-3476.0,3232.4,2306.4,2510.0,2025-01-29 10:40:16,1
-2302.4,3221.6,-3084.0,1846.4,-58.6,1561.0,2025-01-29 10:40:16,1
-2274.4,2229.6,-2556.0,1201.4,-1752.6,1140.0,2025-01-29 10:40:16,1
-1378.3999999999996,1313.6,-1912.0,672.4,-2479.6,1107.0,2025-01-29 10:40:16,1
-586.3999999999996,853.6,-1036.0,402.4,-3034.6,580.0,2025-01-29 10:40:16,1
141.60000000000036,777.6,-864.0,327.4,-3186.6,-219.0,2025-01-29 10:40:16,1
525.6000000000004,545.6,456.0,548.4,-3022.6,-752.0,2025-01-29 10:40:16,1
917.6000000000004,-226.4,492.0,921.4,-3040.6,-1115.0,2025-01-29 10:40:16,1
1441.6000000000004,-722.4,-276.0,1088.4,-3397.6,-1238.0,2025-01-29 10:40:16,1
1985.6000000000004,-1134.4,-148.0,1192.4,-3337.6,-1038.0,2025-01-29 10:40:16,1
2689.6000000000004,-2294.4,232.0,1121.4,-2208.6,-522.0,2025-01-29 10:40:16,1
3293.6000000000004,-3210.4,612.0,1219.4,-396.6,-182.0,2025-01-29 10:40:16,1
3041.6000000000004,-3754.4,460.0,1568.4,1732.4,52.0,2025-01-29 10:40:16,1
1817.6000000000004,-2854.4,52.0,1686.4,3781.4,394.0,2025-01-29 10:40:17,1
813.6000000000004,-1450.4,-92.0,1795.4,4342.4,225.0,2025-01-29 10:40:17,1
-570.3999999999996,-282.4,-868.0,1633.4,4225.4,-219.0,2025-01-29 10:40:17,1
-1402.3999999999996,117.60000000000002,-1012.0,1069.4,2898.4,-553.0,2025-01-29 10:40:17,1
-1750.3999999999996,-46.39999999999998,-788.0,672.4,787.4,-1093.0,2025-01-29 10:40:17,1
-1514.3999999999996,-550.4,-700.0,578.4,-1003.6,-1510.0,2025-01-29 10:40:17,1
-514.3999999999996,-1166.4,-228.0,480.4,-2143.6,-1713.0,2025-01-29 10:40:17,1
997.6000000000004,-1450.4,564.0,493.4,-2215.6,-1747.0,2025-01-29 10:40:17,1
1709.6000000000004,-1334.4,824.0,412.4,-1557.6,-1813.0,2025-01-29 10:40:17,1
2229.6000000000004,-1518.4,624.0,89.4,-364.6,-1813.0,2025-01-29 10:40:17,1
1877.6000000000004,-1854.4,220.0,-252.6,1313.4,-1758.0,2025-01-29 10:40:17,1
1285.6000000000004,-1858.4,-28.0,-506.6,2451.4,-1771.0,2025-01-29 10:40:17,1
273.6000000000004,-1942.4,-44.0,-867.6,2881.4,-1848.0,2025-01-29 10:40:17,1
-850.3999999999996,-2390.4,308.0,-972.6,2394.4,-1928.0,2025-01-29 10:40:17,1
-1470.3999999999996,-2686.4,524.0,-761.6,1251.4,-1695.0,2025-01-29 10:40:17,1
-1290.3999999999996,-2366.4,364.0,-537.6,179.4,-1457.0,2025-01-29 10:40:17,1
-718.3999999999996,-1938.4,336.0,-479.6,-598.6,-1267.0,2025-01-29 10:40:17,1
13.600000000000364,-1506.4,228.0,-506.6,-950.6,-961.0,2025-01-29 10:40:17,1
1073.6000000000004,-1522.4,184.0,-768.6,-599.6,-620.0,2025-01-29 10:40:17,1
1261.6000000000004,-2206.4,308.0,-970.6,450.4,-490.0,2025-01-29 10:40:17,1
1025.6000000000004,-2630.4,256.0,-849.6,1300.4,-308.0,2025-01-29 10:40:17,1
633.6000000000004,-2798.4,-208.0,-784.6,1556.4,-194.0,2025-01-29 10:40:17,1
-406.3999999999997,-2406.4,-12.0,-716.6,1249.4,-97.0,2025-01-29 10:40:17,1
-494.3999999999997,-2126.4,-588.0,-664.6,553.4,200.0,2025-01-29 10:40:17,1
-614.3999999999996,-1758.4,-196.0,-699.6,-179.6,436.0,2025-01-29 10:40:17,1
-242.39999999999964,-1490.4,-556.0,-865.6,-695.6,537.0,2025-01-29 10:40:17,1
145.60000000000036,-1606.4,-376.0,-832.6,-837.6,587.0,2025-01-29 10:40:17,1
421.6000000000004,-1558.4,-256.0,-697.6,-669.6,496.0,2025-01-29 10:40:17,1
65.60000000000036,-1326.4,-80.0,-663.6,-488.6,436.0,2025-01-29 10:40:17,1
209.6000000000004,-1006.4,-372.0,-781.6,-365.6,420.0,2025-01-29 10:40:17,1
-142.39999999999964,-1014.4,-184.0,-963.6,-328.6,274.0,2025-01-29 10:40:17,1
-98.39999999999964,-1154.4,-276.0,-1052.6,-415.6,275.0,2025-01-29 10:40:17,1
101.60000000000036,-1402.4,-112.0,-1210.6,-554.6,192.0,2025-01-29 10:40:17,1
273.6000000000004,-1446.4,232.0,-1236.6,-629.6,60.0,2025-01-29 10:40:17,1
541.6000000000004,-1494.4,716.0,-1015.6,-359.6,-3.0,2025-01-29 10:40:17,1
477.6000000000004,-1462.4,616.0,-804.6,74.4,-187.0,2025-01-29 10:40:17,1
193.6000000000004,-1322.4,204.0,-693.6,240.4,-339.0,2025-01-29 10:40:17,1
-230.39999999999964,-1070.4,-80.0,-799.6,221.4,-399.0,2025-01-29 10:40:17,1
-150.39999999999964,-938.4,-268.0,-949.6,119.4,-454.0,2025-01-29 10:40:17,1
-314.39999999999964,-754.4,-440.0,-1030.6,-117.6,-432.0,2025-01-29 10:40:17,1
57.60000000000037,-738.4,-356.0,-1025.6,-237.6,-410.0,2025-01-29 10:40:17,1
185.6000000000004,-746.4,-128.0,-964.6,-133.6,-430.0,2025-01-29 10:40:17,1
493.6000000000004,-806.4,-200.0,-1005.6,91.4,-524.0,2025-01-29 10:40:17,1
85.60000000000036,-918.4,-340.0,-1119.6,310.4,-516.0,2025-01-29 10:40:17,1
-34.39999999999964,-1026.4,-56.0,-1179.6,155.4,-373.0,2025-01-29 10:40:17,1
