acceleration_x,acceleration_y,acceleration_z,gyroscope_x,gyroscope_y,gyroscope_z,timestamp,label
73.20000000000073,-54.39999999999998,-51.19999999999982,-18.90000000000001,-187.2,3.300000000000012,2025-01-29 10:39:16,1
113.20000000000071,-138.39999999999998,-179.19999999999982,17.099999999999994,-77.19999999999999,-10.699999999999989,2025-01-29 10:39:16,1
25.200000000000728,77.60000000000002,52.80000000000018,21.099999999999994,40.80000000000001,8.300000000000011,2025-01-29 10:39:16,1
-66.79999999999927,-38.39999999999998,-47.19999999999982,-7.900000000000006,39.80000000000001,-2.6999999999999886,2025-01-29 10:39:16,1
-158.79999999999927,109.60000000000002,248.80000000000015,8.099999999999994,38.80000000000001,2.300000000000012,2025-01-29 10:39:16,1
-146.79999999999927,69.60000000000002,132.80000000000018,1.0999999999999943,-1.1999999999999886,9.300000000000011,2025-01-29 10:39:16,1
69.20000000000073,25.600000000000023,-135.19999999999982,-0.9000000000000057,-26.19999999999999,13.300000000000011,2025-01-29 10:39:16,1
45.20000000000073,33.60000000000002,52.80000000000018,-9.900000000000006,70.80000000000001,-33.69999999999999,2025-01-29 10:39:16,1
37.20000000000073,-2.3999999999999773,76.80000000000018,-5.900000000000006,40.80000000000001,16.30000000000001,2025-01-29 10:39:16,1
9.200000000000728,-82.39999999999998,-151.19999999999982,-3.9000000000000057,60.80000000000001,-5.699999999999989,2025-01-29 10:39:16,1
13.200000000000728,-30.399999999999977,-215.19999999999985,-35.900000000000006,39.80000000000001,-12.699999999999989,2025-01-29 10:39:16,1
-62.79999999999927,21.600000000000023,-127.19999999999982,-30.90000000000001,12.800000000000011,6.300000000000011,2025-01-29 10:39:16,1
17.200000000000728,65.60000000000002,-103.19999999999982,-55.900000000000006,-19.19999999999999,-5.699999999999989,2025-01-29 10:39:16,1
-166.79999999999927,-54.39999999999998,-299.1999999999998,-63.900000000000006,-59.19999999999999,26.30000000000001,2025-01-29 10:39:16,1
1.2000000000007276,5.600000000000023,12.800000000000182,-82.9,-123.2,26.30000000000001,2025-01-29 10:39:16,1
153.20000000000073,-14.399999999999975,-7.199999999999818,-56.900000000000006,-110.2,8.300000000000011,2025-01-29 10:39:16,1
89.20000000000073,-18.399999999999977,-39.19999999999982,-59.900000000000006,-3.1999999999999886,-27.69999999999999,2025-01-29 10:39:16,1
93.20000000000071,-282.4,-55.19999999999982,-10.900000000000006,-10.199999999999989,2.300000000000012,2025-01-29 10:39:16,1
49.20000000000073,113.60000000000002,-187.19999999999985,9.099999999999994,-41.19999999999999,54.30000000000001,2025-01-29 10:39:16,1
-138.79999999999927,41.60000000000002,-183.19999999999985,-10.900000000000006,-45.19999999999999,36.30000000000001,2025-01-29 10:39:16,1
73.20000000000073,-22.399999999999977,28.800000000000185,-20.90000000000001,-90.2,32.30000000000001,2025-01-29 10:39:17,1
85.20000000000073,-34.39999999999998,-171.19999999999982,-65.9,-111.2,62.30000000000001,2025-01-29 10:39:17,1
9.200000000000728,85.60000000000002,-319.1999999999998,-102.9,-35.19999999999999,126.3,2025-01-29 10:39:17,1
45.20000000000073,285.6,-171.19999999999982,-143.9,14.800000000000011,118.3,2025-01-29 10:39:17,1
-74.79999999999927,337.6,64.80000000000018,-193.9,28.80000000000001,229.3,2025-01-29 10:39:17,1
17.200000000000728,253.6,156.80000000000018,-183.9,51.80000000000001,210.3,2025-01-29 10:39:17,1
-142.79999999999927,21.600000000000023,212.80000000000015,-61.900000000000006,85.80000000000001,234.3,2025-01-29 10:39:17,1
-134.79999999999927,25.600000000000023,264.8000000000002,80.1,28.80000000000001,311.3,2025-01-29 10:39:17,1
-70.79999999999927,-58.39999999999998,208.80000000000015,228.1,-23.19999999999999,380.3,2025-01-29 10:39:17,1
-178.79999999999927,-10.399999999999975,224.80000000000015,390.1,-24.19999999999999,436.3,2025-01-29 10:39:17,1
-306.7999999999993,57.60000000000002,316.8000000000002,526.1,-28.19999999999999,492.3,2025-01-29 10:39:17,1
-330.7999999999993,9.600000000000025,348.8000000000002,753.1,0.8000000000000114,510.3,2025-01-29 10:39:17,1
-318.7999999999993,-222.4,684.8000000000002,985.1,18.80000000000001,479.3,2025-01-29 10:39:17,1
-258.7999999999993,137.60000000000002,620.8000000000002,1299.1,-137.2,373.3,2025-01-29 10:39:17,1
-70.79999999999927,453.6,496.8000000000002,1495.1,-296.2,390.3,2025-01-29 10:39:17,1
-146.79999999999927,509.6,368.8000000000002,1526.1,-317.2,425.3,2025-01-29 10:39:17,1
61.20000000000073,593.6,204.80000000000015,1459.1,-73.19999999999999,478.3,2025-01-29 10:39:17,1
-142.79999999999927,565.6,120.80000000000018,1501.1,222.8,537.3,2025-01-29 10:39:17,1
-126.79999999999929,481.6,176.80000000000018,1416.1,379.8,603.3,2025-01-29 10:39:17,1
-138.79999999999927,341.6,-87.19999999999982,1313.1,363.8,572.3,2025-01-29 10:39:17,1
-318.7999999999993,273.6,132.80000000000018,1359.1,316.8,603.3,2025-01-29 10:39:17,1
-458.7999999999993,329.6,384.8000000000002,1441.1,304.8,658.3,2025-01-29 10:39:17,1
-442.7999999999993,349.6,216.80000000000015,1481.1,173.8,661.3,2025-01-29 10:39:17,1
-478.7999999999993,401.6,160.80000000000018,1542.1,-69.19999999999999,723.3,2025-01-29 10:39:17,1
-462.7999999999993,385.6,364.8000000000002,1576.1,-133.2,778.3,2025-01-29 10:39:17,1
-442.7999999999993,353.6,396.8000000000002,1649.1,-154.2,861.3,2025-01-29 10:39:17,1
-146.79999999999927,157.60000000000002,440.8000000000002,1788.1,-64.19999999999999,875.3,2025-01-29 10:39:17,1
9.200000000000728,173.60000000000002,544.8000000000002,1977.1,128.8,872.3,2025-01-29 10:39:17,1
-74.79999999999927,125.60000000000002,572.8000000000002,2271.1,348.8,885.3,2025-01-29 10:39:17,1
-62.79999999999927,245.6,376.8000000000002,2540.1,343.8,877.3,2025-01-29 10:39:17,1
-86.79999999999927,477.6,56.80000000000018,2604.1,199.8,783.3,2025-01-29 10:39:17,1
-658.7999999999993,541.6,-51.19999999999982,2605.1,13.800000000000011,773.3,2025-01-29 10:39:17,1
-718.7999999999993,741.6,-119.19999999999982,2648.1,-343.2,814.3,2025-01-29 10:39:17,1
-918.7999999999992,725.6,-211.19999999999985,2634.1,-1156.2,790.3,2025-01-29 10:39:17,1
-834.7999999999993,745.6,-235.19999999999985,2512.1,-2053.2,869.3,2025-01-29 10:39:17,1
-214.79999999999927,805.6,-47.19999999999982,2384.1,-2404.2,884.3,2025-01-29 10:39:17,1
433.2000000000007,1049.6,152.80000000000018,2212.1,-2399.2,747.3,2025-01-29 10:39:17,1
825.2000000000007,693.6,640.8000000000002,2114.1,-1553.2,265.3,2025-01-29 10:39:17,1
525.2000000000007,201.6,1008.8000000000002,2277.1,-528.2,-48.69999999999999,2025-01-29 10:39:17,1
345.2000000000007,-46.39999999999998,512.8000000000002,2459.1,20.80000000000001,-330.7,2025-01-29 10:39:17,1
337.2000000000007,-250.4,-315.1999999999998,2524.1,206.8,-819.7,2025-01-29 10:39:17,1
129.20000000000073,-210.4,-411.1999999999998,2479.1,252.8,-1275.7,2025-01-29 10:39:17,1
-102.79999999999929,-310.4,-439.1999999999998,2431.1,159.8,-1562.7,2025-01-29 10:39:17,1
-106.79999999999929,-642.4,-459.1999999999998,2250.1,192.8,-1538.7,2025-01-29 10:39:17,1
65.20000000000073,-1158.4,-43.19999999999982,1911.1,-9.199999999999989,-1400.7,2025-01-29 10:39:17,1
609.2000000000007,-1878.4,400.8000000000002,1694.1,-226.2,-1505.7,2025-01-29 10:39:17,1
313.2000000000007,-2086.4,888.8000000000002,1720.1,-84.19999999999999,-1466.7,2025-01-29 10:39:17,1
201.20000000000076,-1810.4,1136.8000000000002,1733.1,90.8,-1128.7,2025-01-29 10:39:17,1
141.20000000000073,-1670.4,1436.8000000000002,1665.1,427.8,-723.7,2025-01-29 10:39:17,1
765.2000000000007,-1690.4,1248.8000000000002,1439.1,1351.8,-482.7,2025-01-29 10:39:17,1
817.2000000000007,-1882.4,1792.8000000000002,1323.1,2543.8,-432.7,2025-01-29 10:39:17,1
401.2000000000007,-1806.4,2296.8,908.1,3404.8,-725.7,2025-01-29 10:39:17,1
-342.7999999999993,-1502.4,2256.8,600.1,3823.8,-1146.7,2025-01-29 10:39:17,1
-1134.7999999999993,-1514.4,1504.8000000000002,465.1,3795.8,-1481.7,2025-01-29 10:39:17,1
-1274.7999999999993,-1674.4,1016.8000000000002,471.1,3465.8,-1706.7,2025-01-29 10:39:17,1
-1414.7999999999993,-2558.4,1104.8000000000002,633.1,2474.8,-1685.7,2025-01-29 10:39:17,1
-1406.7999999999993,-2838.4,1396.8000000000002,856.1,1725.8,-1558.7,2025-01-29 10:39:17,1
-1478.7999999999993,-2926.4,1124.8000000000002,898.1,1112.8,-1306.7,2025-01-29 10:39:17,1
-910.7999999999992,-3186.4,1028.8000000000002,915.1,636.8,-1119.7,2025-01-29 10:39:17,1
-914.7999999999992,-3082.4,1140.8000000000002,923.1,394.8,-873.7,2025-01-29 10:39:17,1
-258.7999999999993,-2534.4,1144.8000000000002,913.1,291.8,-583.7,2025-01-29 10:39:17,1
281.2000000000007,-2202.4,1432.8000000000002,567.1,379.8,-631.7,2025-01-29 10:39:17,1
97.20000000000071,-2074.4,1464.8000000000002,304.1,657.8,-457.7,2025-01-29 10:39:17,1
121.20000000000071,-1958.4,860.8000000000002,-130.9,1051.8,-124.7,2025-01-29 10:39:18,1
253.20000000000076,-1994.4,416.8000000000002,-687.9,1379.8,-53.69999999999999,2025-01-29 10:39:18,1
-18.799999999999272,-2058.4,92.80000000000018,-1235.9,1507.8,-84.69999999999999,2025-01-29 10:39:18,1
-402.7999999999993,-2206.4,-43.19999999999982,-1706.9,1172.8,-220.7,2025-01-29 10:39:18,1
-594.7999999999993,-2354.4,16.800000000000182,-1969.9,900.8,-189.7,2025-01-29 10:39:18,1
-710.7999999999993,-2350.4,496.8000000000002,-2092.9,692.8,-111.7,2025-01-29 10:39:18,1
-434.7999999999993,-2374.4,400.8000000000002,-2170.9,387.8,-214.7,2025-01-29 10:39:18,1
-910.7999999999992,-2338.4,436.8000000000002,-2343.9,157.8,-415.7,2025-01-29 10:39:18,1
-1090.7999999999993,-2598.4,488.8000000000002,-2304.9,-76.19999999999999,-468.7,2025-01-29 10:39:18,1
-1218.7999999999993,-2670.4,528.8000000000002,-2275.9,-598.2,-521.7,2025-01-29 10:39:18,1
-1098.7999999999993,-2054.4,696.8000000000002,-2550.9,-1086.2,-537.7,2025-01-29 10:39:18,1
-1090.7999999999993,-1366.4,684.8000000000002,-3118.9,-1007.2,-662.7,2025-01-29 10:39:18,1
-1046.7999999999993,-1018.4,504.8000000000002,-3911.9,-619.2,-746.7,2025-01-29 10:39:18,1
-254.79999999999927,-1726.4,340.8000000000002,-4458.9,-16.19999999999999,-1224.7,2025-01-29 10:39:18,1
-702.7999999999993,-2658.4,-843.1999999999998,-4837.9,496.8,-2076.7,2025-01-29 10:39:18,1
-1782.7999999999993,-3546.4,-203.19999999999985,-4511.9,1043.8,-2448.7,2025-01-29 10:39:18,1
-2702.7999999999997,-4218.4,0.8000000000001819,-3751.9,603.8,-2497.7,2025-01-29 10:39:18,1
-3258.7999999999997,-4502.4,-327.1999999999998,-2998.9,-763.2,-2068.7,2025-01-29 10:39:18,1
-3430.7999999999997,-4426.4,-487.1999999999998,-2229.9,-2266.2,-1029.7,2025-01-29 10:39:18,1
-2610.7999999999997,-3910.4,-667.1999999999998,-1768.9,-2845.2,-3.6999999999999886,2025-01-29 10:39:18,1
-1526.7999999999993,-3666.4,-487.1999999999998,-1437.9,-2999.2,590.3,2025-01-29 10:39:18,1
-1254.7999999999993,-3474.4,-691.1999999999998,-1208.9,-3023.2,889.3,2025-01-29 10:39:18,1
-1578.7999999999993,-3214.4,-923.1999999999998,-1158.9,-3211.2,1865.3,2025-01-29 10:39:18,1
-942.7999999999992,-2674.4,-899.1999999999998,-1149.9,-3416.2,2867.3,2025-01-29 10:39:18,1
1.2000000000007276,-2274.4,-1287.1999999999998,-969.9,-4130.2,3401.3,2025-01-29 10:39:18,1
1561.2000000000007,-1570.4,-1943.2,-712.9,-5089.2,3566.3,2025-01-29 10:39:18,1
2285.2000000000007,-786.4,-1183.1999999999998,-629.9,-5202.2,2825.3,2025-01-29 10:39:18,1
3057.2000000000007,593.6,-271.1999999999998,-474.9,-4644.2,2059.3,2025-01-29 10:39:18,1
3469.2000000000007,1753.6,-155.19999999999982,-590.9,-3546.2,1333.3,2025-01-29 10:39:18,1
3737.2000000000007,2677.6,-459.1999999999998,-976.9,-2320.2,678.3,2025-01-29 10:39:18,1
3913.2000000000007,2949.6,-703.1999999999998,-1410.9,-910.2,52.30000000000001,2025-01-29 10:39:18,1
3373.2000000000007,2041.6,-1203.1999999999998,-1643.9,1033.8,-402.7,2025-01-29 10:39:18,1
1601.2000000000007,541.6,-1023.1999999999998,-1791.9,3185.8,-242.7,2025-01-29 10:39:18,1
-646.7999999999993,-1182.4,-899.1999999999998,-1353.9,4454.8,930.3,2025-01-29 10:39:18,1
-2210.7999999999997,-1534.4,-371.1999999999998,-984.9,3806.8,1768.3,2025-01-29 10:39:18,1
-3002.7999999999997,-1314.4,-363.1999999999998,-455.9,1787.8,2907.3,2025-01-29 10:39:18,1
-2942.7999999999997,-462.4,-511.1999999999998,199.1,-657.2,4108.3,2025-01-29 10:39:18,1
-1482.7999999999993,537.6,-823.1999999999998,539.1,-2408.2,4775.3,2025-01-29 10:39:18,1
-290.7999999999993,1101.6,-71.19999999999982,904.1,-3310.2,4989.3,2025-01-29 10:39:18,1
1209.2000000000007,1405.6,164.80000000000018,1133.1,-3645.2,5023.3,2025-01-29 10:39:18,1
2589.2000000000007,1521.6,288.8000000000002,1294.1,-3463.2,4898.3,2025-01-29 10:39:18,1
3193.2000000000007,1857.6,472.8000000000002,1244.1,-2433.2,4884.3,2025-01-29 10:39:18,1
3685.2000000000007,2733.6,1260.8000000000002,1064.1,-43.19999999999999,4595.3,2025-01-29 10:39:18,1
3257.2000000000007,3125.6,680.8000000000002,857.1,2425.8,3820.3,2025-01-29 10:39:18,1
1717.2000000000007,3109.6,404.8000000000002,600.1,3727.8,3107.3,2025-01-29 10:39:18,1
249.20000000000076,3097.6,-391.1999999999998,119.1,3607.8,2786.3,2025-01-29 10:39:18,1
-906.7999999999992,2761.6,484.8000000000002,-246.9,1841.8,2473.3,2025-01-29 10:39:18,1
-1046.7999999999993,2685.6,1040.8000000000002,-390.9,-1175.2,2044.3,2025-01-29 10:39:18,1
-474.7999999999993,2661.6,1304.8000000000002,-475.9,-3350.2,1614.3,2025-01-29 10:39:18,1
1509.2000000000007,2533.6,1728.8000000000002,-281.9,-3873.2,845.3,2025-01-29 10:39:18,1
2545.2000000000007,2209.6,2088.8,29.099999999999994,-2914.2,38.30000000000001,2025-01-29 10:39:18,1
2641.2000000000007,1449.6,2544.8,339.1,-1331.2,-412.7,2025-01-29 10:39:18,1
1901.2000000000007,1197.6,3160.8,722.1,352.8,-584.7,2025-01-29 10:39:18,1
1069.2000000000007,1201.6,3324.8,1169.1,1394.8,-973.7,2025-01-29 10:39:18,1
-394.7999999999993,1565.6,2856.8,1605.1,1073.8,-1493.7,2025-01-29 10:39:18,1
-1778.7999999999993,1841.6,2380.8,1952.1,-203.2,-1556.7,2025-01-29 10:39:18,1
-2414.7999999999997,1997.6,1804.8,2272.1,-1983.2,-1254.7,2025-01-29 10:39:18,1
-2246.7999999999997,1861.6,2344.8,2341.1,-3201.2,-1071.7,2025-01-29 10:39:18,1
-1574.7999999999993,1557.6,1872.8,2494.1,-3884.2,-875.7,2025-01-29 10:39:18,1
-666.7999999999993,769.6,1456.8000000000002,2627.1,-2992.2,-481.7,2025-01-29 10:39:18,1
101.20000000000071,625.6,724.8000000000002,2868.1,-1100.2,-74.69999999999999,2025-01-29 10:39:18,1
-274.7999999999993,1289.6,796.8000000000002,2946.1,1020.8,172.3,2025-01-29 10:39:19,1
-2182.7999999999997,2417.6,1684.8000000000002,2928.1,2889.8,831.3,2025-01-29 10:39:19,1
-4134.799999999999,2841.6,884.8000000000002,2798.1,3943.8,1609.3,2025-01-29 10:39:19,1
-5026.799999999999,1681.6,-287.1999999999998,2633.1,3776.8,1925.3,2025-01-29 10:39:19,1
-6050.799999999999,921.6,-875.1999999999998,2672.1,2777.8,2237.3,2025-01-29 10:39:19,1
-6298.799999999999,2453.6,-1975.2,2729.1,1250.8,2894.3,2025-01-29 10:39:19,1
-5446.799999999999,4505.6,-3707.2,1774.1,-266.2,3557.3,2025-01-29 10:39:19,1
-3146.7999999999997,5557.6,-3819.2,317.1,-1993.2,3603.3,2025-01-29 10:39:19,1
-18.799999999999272,4337.6,-1915.2,-589.9,-3168.2,1732.3,2025-01-29 10:39:19,1
641.2000000000007,3145.6,-1375.1999999999998,-784.9,-3262.2,-128.7,2025-01-29 10:39:19,1
1061.2000000000007,2137.6,-747.1999999999998,-785.9,-2955.2,-823.7,2025-01-29 10:39:19,1
1945.2000000000007,1209.6,-71.19999999999982,-468.9,-2912.2,-1277.7,2025-01-29 10:39:19,1
2617.2000000000007,189.6,116.80000000000018,74.1,-3158.2,-1648.7,2025-01-29 10:39:19,1
2981.2000000000007,-210.4,-443.1999999999998,481.1,-3485.2,-1864.7,2025-01-29 10:39:19,1
3313.2000000000007,-970.4,-439.1999999999998,590.1,-3272.2,-1996.7,2025-01-29 10:39:19,1
3393.2000000000007,-1570.4,-627.1999999999998,760.1,-1415.2,-2085.7,2025-01-29 10:39:19,1
2849.2000000000007,-2142.4,-567.1999999999998,721.1,675.8,-1892.7,2025-01-29 10:39:19,1
2253.2000000000007,-2670.4,-47.19999999999982,552.1,2110.8,-1622.7,2025-01-29 10:39:19,1
1213.2000000000007,-2526.4,180.80000000000015,585.1,2300.8,-1314.7,2025-01-29 10:39:19,1
577.2000000000007,-1550.4,-119.19999999999982,905.1,1793.8,-1293.7,2025-01-29 10:39:19,1
-6.799999999999272,-66.39999999999998,-407.1999999999998,1103.1,1530.8,-1680.7,2025-01-29 10:39:19,1
-94.79999999999929,677.6,-607.1999999999998,811.1,877.8,-2382.7,2025-01-29 10:39:19,1
-138.79999999999927,493.6,-927.1999999999998,342.1,-282.2,-3312.7,2025-01-29 10:39:19,1
81.20000000000073,-18.399999999999977,-1075.1999999999998,-2.9000000000000057,-1374.2,-3858.7,2025-01-29 10:39:19,1
557.2000000000007,-194.4,-1119.1999999999998,-310.9,-1590.2,-4018.7,2025-01-29 10:39:19,1
1189.2000000000007,17.600000000000023,-779.1999999999998,-815.9,-1224.2,-4147.7,2025-01-29 10:39:19,1
1637.2000000000007,-38.39999999999998,-655.1999999999998,-1507.9,-541.2,-4326.7,2025-01-29 10:39:19,1
1489.2000000000007,-390.4,44.80000000000018,-2064.9,394.8,-4397.7,2025-01-29 10:39:19,1
1585.2000000000007,-914.4,524.8000000000002,-2418.9,752.8,-4575.7,2025-01-29 10:39:19,1
1485.2000000000007,-1894.4,1348.8000000000002,-2340.9,1236.8,-4985.7,2025-01-29 10:39:19,1
849.2000000000007,-2678.4,1216.8000000000002,-2068.9,1688.8,-5237.7,2025-01-29 10:39:19,1
29.200000000000728,-2998.4,1156.8000000000002,-1787.9,1931.8,-4961.7,2025-01-29 10:39:19,1
-674.7999999999993,-2634.4,804.8000000000002,-1619.9,1809.8,-4231.7,2025-01-29 10:39:19,1
-978.7999999999992,-2082.4,1468.8000000000002,-1621.9,1198.8,-3371.7,2025-01-29 10:39:19,1
-614.7999999999993,-1822.4,1428.8000000000002,-1682.9,360.8,-2767.7,2025-01-29 10:39:19,1
-450.7999999999993,-1782.4,1504.8000000000002,-1714.9,-167.2,-2396.7,2025-01-29 10:39:19,1
-138.79999999999927,-1778.4,1664.8000000000002,-1681.9,-275.2,-1872.7,2025-01-29 10:39:19,1
301.2000000000007,-1690.4,1504.8000000000002,-1765.9,64.80000000000001,-1248.7,2025-01-29 10:39:19,1
853.2000000000007,-1446.4,1232.8000000000002,-1984.9,684.8,-884.7,2025-01-29 10:39:19,1
697.2000000000007,-1242.4,1196.8000000000002,-2334.9,1093.8,-642.7,2025-01-29 10:39:19,1
357.2000000000007,-1014.4,1372.8000000000002,-2607.9,1368.8,-333.7,2025-01-29 10:39:19,1
-146.79999999999927,-1002.4,1760.8000000000002,-2922.9,1511.8,-216.7,2025-01-29 10:39:19,1
-486.7999999999993,-942.4,1968.8,-3117.9,1490.8,-122.7,2025-01-29 10:39:19,1
-470.7999999999993,-1202.4,1328.8000000000002,-3223.9,1287.8,-350.7,2025-01-29 10:39:19,1
-674.7999999999993,-1318.4,1324.8000000000002,-3167.9,798.8,-672.7,2025-01-29 10:39:19,1
-350.7999999999993,-1290.4,1248.8000000000002,-3134.9,311.8,-998.7,2025-01-29 10:39:19,1
-306.7999999999993,-1374.4,1044.8000000000002,-3098.9,108.8,-1325.7,2025-01-29 10:39:19,1
-66.79999999999927,-590.4,632.8000000000002,-3158.9,398.8,-1532.7,2025-01-29 10:39:19,1
-418.7999999999993,-422.4,460.8000000000002,-3558.9,1165.8,-1715.7,2025-01-29 10:39:19,1
-846.7999999999993,-1858.4,992.8000000000002,-3947.9,2031.8,-2398.7,2025-01-29 10:39:19,1
-2150.7999999999997,-2426.4,1540.8000000000002,-3939.9,2194.8,-3119.7,2025-01-29 10:39:19,1
-3530.7999999999997,-2238.4,1564.8000000000002,-3779.9,1825.8,-3157.7,2025-01-29 10:39:19,1
-3514.7999999999997,-1154.4,80.80000000000018,-3510.9,914.8,-3288.7,2025-01-29 10:39:19,1
-2770.7999999999997,-722.4,-2059.2,-3620.9,-74.19999999999999,-3520.7,2025-01-29 10:39:19,1
-1922.7999999999995,-1702.4,-1955.2,-3462.9,237.8,-4140.7,2025-01-29 10:39:19,1
-1910.7999999999995,-4266.4,-2027.2,-2400.9,875.8,-4552.7,2025-01-29 10:39:19,1
-2970.7999999999997,-5742.4,-2059.2,-1033.9,1641.8,-4049.7,2025-01-29 10:39:19,1
-4554.799999999999,-5774.4,-2015.2,-49.900000000000006,1137.8,-2466.7,2025-01-29 10:39:19,1
-4874.799999999999,-4990.4,-2051.2,508.1,-580.2,24.30000000000001,2025-01-29 10:39:19,1
-3118.7999999999997,-3786.4,-2055.2,696.1,-2706.2,1760.3,2025-01-29 10:39:19,1
-1122.7999999999993,-2754.4,-1595.1999999999998,618.1,-4583.2,2786.3,2025-01-29 10:39:19,1
977.2000000000008,-1726.4,-1191.1999999999998,314.1,-5899.2,3474.3,2025-01-29 10:39:20,1
3117.2000000000007,-1414.4,-1039.1999999999998,-68.9,-5966.2,3625.3,2025-01-29 10:39:20,1
4661.200000000001,-478.4,-1379.1999999999998,-294.9,-6103.2,3553.3,2025-01-29 10:39:20,1
5589.200000000001,481.6,-1683.1999999999998,-205.9,-5265.2,3368.3,2025-01-29 10:39:20,1
6145.200000000001,1589.6,-627.1999999999998,276.1,-2738.2,2660.3,2025-01-29 10:39:20,1
6141.200000000001,2669.6,-1063.1999999999998,360.1,117.8,1393.3,2025-01-29 10:39:20,1
4797.200000000001,3249.6,-1323.1999999999998,-345.9,2527.8,-130.7,2025-01-29 10:39:20,1
2229.2000000000007,3089.6,-1787.1999999999998,-1423.9,3889.8,-848.7,2025-01-29 10:39:20,1
-146.79999999999927,2205.6,-2067.2,-2277.9,4209.8,-609.7,2025-01-29 10:39:20,1
-1386.7999999999993,1141.6,-2127.2,-2843.9,3290.8,-123.7,2025-01-29 10:39:20,1
-2086.7999999999997,109.60000000000002,-2011.2,-3014.9,682.8,367.3,2025-01-29 10:39:20,1
-2154.7999999999997,-1074.4,-1523.1999999999998,-2512.9,-2919.2,1367.3,2025-01-29 10:39:20,1
-1226.7999999999993,-1038.4,-571.1999999999998,-1985.9,-4364.2,1926.3,2025-01-29 10:39:20,1
-42.79999999999927,-950.4,100.80000000000018,-1545.9,-4817.2,2353.3,2025-01-29 10:39:20,1
781.2000000000007,-758.4,848.8000000000002,-887.9,-4830.2,2865.3,2025-01-29 10:39:20,1
1985.2000000000007,57.60000000000002,868.8000000000002,-214.9,-3776.2,3056.3,2025-01-29 10:39:20,1
2145.2000000000007,1033.6,1080.8000000000002,235.1,-1953.2,3173.3,2025-01-29 10:39:20,1
2033.2000000000007,1817.6,1156.8000000000002,345.1,-356.2,3037.3,2025-01-29 10:39:20,1
1081.2000000000007,1917.6,1520.8000000000002,494.1,341.8,2765.3,2025-01-29 10:39:20,1
-50.79999999999927,1925.6,1404.8000000000002,669.1,302.8,2834.3,2025-01-29 10:39:20,1
-666.7999999999993,1793.6,1292.8000000000002,701.1,-63.19999999999999,3121.3,2025-01-29 10:39:20,1
-354.7999999999993,1261.6,1820.8,842.1,-984.2,3100.3,2025-01-29 10:39:20,1
17.200000000000728,1081.6,2724.8,1145.1,-2069.2,2531.3,2025-01-29 10:39:20,1
1021.2000000000008,1245.6,3488.8,1530.1,-2318.2,1907.3,2025-01-29 10:39:20,1
1537.2000000000007,1425.6,3344.8,1792.1,-1461.2,1518.3,2025-01-29 10:39:20,1
1145.2000000000007,1281.6,3580.8,1988.1,274.8,1323.3,2025-01-29 10:39:20,1
1301.2000000000007,837.6,2980.8,2273.1,1654.8,909.3,2025-01-29 10:39:20,1
-90.79999999999929,805.6,2196.8,2616.1,2215.8,441.3,2025-01-29 10:39:20,1
-1638.7999999999993,981.6,1776.8000000000002,2780.1,1876.8,325.3,2025-01-29 10:39:20,1
-2570.7999999999997,1529.6,1296.8000000000002,2843.1,277.8,297.3,2025-01-29 10:39:20,1
-3278.7999999999997,2565.6,56.80000000000018,2563.1,-1476.2,898.3,2025-01-29 10:39:20,1
-2430.7999999999997,3053.6,-619.1999999999998,2111.1,-2737.2,1566.3,2025-01-29 10:39:20,1
-1302.7999999999993,2853.6,-315.1999999999998,1609.1,-3125.2,1885.3,2025-01-29 10:39:20,1
-322.7999999999993,1677.6,1324.8000000000002,1284.1,-2393.2,1992.3,2025-01-29 10:39:20,1
-722.7999999999993,1309.6,2464.8,1617.1,-1270.2,2057.3,2025-01-29 10:39:20,1
-1274.7999999999993,1089.6,3232.8,2374.1,-171.2,1942.3,2025-01-29 10:39:20,1
-2614.7999999999997,417.6,3652.8,3306.1,690.8,1381.3,2025-01-29 10:39:20,1
-4762.799999999999,-194.4,2584.8,4080.1,1776.8,1401.3,2025-01-29 10:39:20,1
-4902.799999999999,1053.6,296.8000000000002,4182.1,1445.8,2275.3,2025-01-29 10:39:20,1
-4562.799999999999,3017.6,-2659.2,3158.1,1084.8,3002.3,2025-01-29 10:39:20,1
-3054.7999999999997,4185.6,-3731.2,1644.1,1129.8,3024.3,2025-01-29 10:39:20,1
-1706.7999999999993,4161.6,-4135.2,148.1,1025.8,1767.3,2025-01-29 10:39:20,1
-1878.7999999999995,3893.6,-3835.2,-723.9,552.8,569.3,2025-01-29 10:39:20,1
-1690.7999999999993,3257.6,-2695.2,-1153.9,-519.2,-116.7,2025-01-29 10:39:20,1
-442.7999999999993,1657.6,-883.1999999999998,-856.9,-2319.2,-532.7,2025-01-29 10:39:20,1
1777.2000000000007,-26.399999999999977,396.8000000000002,-145.9,-3607.2,-670.7,2025-01-29 10:39:20,1
4077.2000000000007,-1534.4,1032.8000000000002,676.1,-4160.2,-986.7,2025-01-29 10:39:20,1
5693.200000000001,-3014.4,1496.8000000000002,1792.1,-3167.2,-1237.7,2025-01-29 10:39:20,1
5041.200000000001,-2874.4,688.8000000000002,2294.1,-650.2,-903.7,2025-01-29 10:39:20,1
3937.2000000000007,-1910.4,-183.19999999999985,2034.1,3606.8,-178.7,2025-01-29 10:39:20,1
1729.2000000000007,-806.4,-315.1999999999998,1665.1,6754.8,-59.69999999999999,2025-01-29 10:39:20,1
-782.7999999999993,-234.4,-1035.1999999999998,1549.1,7203.8,-100.7,2025-01-29 10:39:20,1
-2722.7999999999997,-118.39999999999998,-1511.1999999999998,1456.1,4513.8,46.30000000000001,2025-01-29 10:39:20,1
-3342.7999999999997,-318.4,-1187.1999999999998,1427.1,-550.2,51.30000000000001,2025-01-29 10:39:20,1
-2866.7999999999997,-466.4,-531.1999999999998,1223.1,-3639.2,57.30000000000001,2025-01-29 10:39:20,1
-1254.7999999999993,-862.4,-531.1999999999998,1230.1,-5231.2,200.3,2025-01-29 10:39:20,1
1369.2000000000007,-1002.4,-899.1999999999998,1318.1,-5294.2,-152.7,2025-01-29 10:39:20,1
2937.2000000000007,-1234.4,-223.19999999999985,1215.1,-3927.2,-822.7,2025-01-29 10:39:20,1
3505.2000000000007,-1302.4,212.80000000000015,1279.1,-1446.2,-1462.7,2025-01-29 10:39:20,1
2989.2000000000007,-1006.4,360.8000000000002,1214.1,850.8,-1753.7,2025-01-29 10:39:20,1
1457.2000000000007,-1002.4,1024.8000000000002,1053.1,2502.8,-2039.7,2025-01-29 10:39:21,1
269.2000000000007,-722.4,944.8000000000002,786.1,2715.8,-2378.7,2025-01-29 10:39:21,1
-766.7999999999993,-666.4,948.8000000000002,347.1,1852.8,-2529.7,2025-01-29 10:39:21,1
-1266.7999999999993,-562.4,740.8000000000002,-100.9,746.8,-2246.7,2025-01-29 10:39:21,1
-950.7999999999992,-546.4,660.8000000000002,-465.9,-281.2,-1939.7,2025-01-29 10:39:21,1
333.2000000000007,-622.4,628.8000000000002,-829.9,-900.2,-1782.7,2025-01-29 10:39:21,1
1305.2000000000007,-674.4,592.8000000000002,-1152.9,-751.2,-1754.7,2025-01-29 10:39:21,1
1505.2000000000007,-846.4,724.8000000000002,-1417.9,235.8,-1697.7,2025-01-29 10:39:21,1
1413.2000000000007,-1046.4,700.8000000000002,-1649.9,1576.8,-1613.7,2025-01-29 10:39:21,1
705.2000000000007,-878.4,676.8000000000002,-1896.9,2437.8,-1514.7,2025-01-29 10:39:21,1
-274.7999999999993,-1078.4,724.8000000000002,-2125.9,2462.8,-1429.7,2025-01-29 10:39:21,1
-1102.7999999999993,-1270.4,696.8000000000002,-2306.9,1871.8,-1219.7,2025-01-29 10:39:21,1
-1722.7999999999993,-850.4,832.8000000000002,-2626.9,645.8,-818.7,2025-01-29 10:39:21,1
-1190.7999999999993,-434.4,848.8000000000002,-3013.9,-524.2,-646.7,2025-01-29 10:39:21,1
-866.7999999999993,-310.4,1380.8000000000002,-3321.9,-1111.2,-597.7,2025-01-29 10:39:21,1
-222.79999999999927,-442.4,1752.8000000000002,-3562.9,-1051.2,-635.7,2025-01-29 10:39:21,1
329.2000000000007,-818.4,1624.8000000000002,-3691.9,-606.2,-978.7,2025-01-29 10:39:21,1
337.2000000000007,-1162.4,1200.8000000000002,-3772.9,150.8,-1444.7,2025-01-29 10:39:21,1
-374.7999999999993,-1262.4,1236.8000000000002,-3785.9,640.8,-1554.7,2025-01-29 10:39:21,1
-594.7999999999993,-1230.4,1508.8000000000002,-3674.9,732.8,-1593.7,2025-01-29 10:39:21,1
-818.7999999999993,-1350.4,1552.8000000000002,-3588.9,534.8,-2060.7,2025-01-29 10:39:21,1
-1210.7999999999993,-1458.4,1444.8000000000002,-3569.9,321.8,-2514.7,2025-01-29 10:39:21,1
-1278.7999999999993,-1266.4,2080.8,-3598.9,325.8,-2855.7,2025-01-29 10:39:21,1
-1382.7999999999993,-1162.4,2108.8,-3597.9,470.8,-3265.7,2025-01-29 10:39:21,1
-1678.7999999999993,-1282.4,860.8000000000002,-3411.9,514.8,-3864.7,2025-01-29 10:39:21,1
-2026.7999999999995,-2318.4,220.80000000000015,-2936.9,887.8,-4148.7,2025-01-29 10:39:21,1
-2022.7999999999995,-3894.4,412.8000000000002,-1949.9,1414.8,-4470.7,2025-01-29 10:39:21,1
-2714.7999999999997,-5598.4,-167.19999999999982,-735.9,1866.8,-4502.7,2025-01-29 10:39:21,1
-3974.7999999999993,-6186.4,-891.1999999999998,580.1,2477.8,-3484.7,2025-01-29 10:39:21,1
-4794.799999999999,-4910.4,-1895.2,1275.1,1967.8,-1476.7,2025-01-29 10:39:21,1
-4182.799999999999,-2034.4,-3047.2,1113.1,-289.2,1038.3,2025-01-29 10:39:21,1
-2802.7999999999997,-1398.4,-4067.2,516.1,-2012.2,2132.3,2025-01-29 10:39:21,1
-934.7999999999992,-914.4,-3595.2,124.1,-3570.2,2775.3,2025-01-29 10:39:21,1
269.2000000000007,-486.4,-2387.2,-56.900000000000006,-4688.2,3016.3,2025-01-29 10:39:21,1
2089.2000000000007,113.60000000000002,-1863.2,-111.9,-5220.2,3220.3,2025-01-29 10:39:21,1
3869.2000000000007,1025.6,-1059.1999999999998,-223.9,-5443.2,3155.3,2025-01-29 10:39:21,1
5541.200000000001,1601.6,-51.19999999999982,-323.9,-4967.2,2558.3,2025-01-29 10:39:21,1
6453.200000000001,1557.6,720.8000000000002,-104.9,-2230.2,1403.3,2025-01-29 10:39:21,1
5529.200000000001,1485.6,888.8000000000002,232.1,2091.8,381.3,2025-01-29 10:39:21,1
3241.2000000000007,1381.6,364.8000000000002,445.1,5913.8,38.30000000000001,2025-01-29 10:39:21,1
685.2000000000007,977.6,-1027.1999999999998,311.1,7774.8,230.3,2025-01-29 10:39:21,1
-1842.7999999999995,585.6,-1659.1999999999998,-131.9,7931.8,718.3,2025-01-29 10:39:21,1
-3490.7999999999997,317.6,-1631.1999999999998,-282.9,5849.8,1316.3,2025-01-29 10:39:21,1
-4490.799999999999,9.600000000000025,-1463.1999999999998,-85.9,1205.8,2163.3,2025-01-29 10:39:21,1
-3466.7999999999997,293.6,-1019.1999999999998,205.1,-3407.2,3136.3,2025-01-29 10:39:21,1
-614.7999999999993,589.6,-531.1999999999998,277.1,-5906.2,3401.3,2025-01-29 10:39:21,1
1745.2000000000007,917.6,548.8000000000002,549.1,-6085.2,3424.3,2025-01-29 10:39:21,1
3117.2000000000007,1309.6,1128.8000000000002,855.1,-4699.2,3109.3,2025-01-29 10:39:21,1
3869.2000000000007,1165.6,1212.8000000000002,975.1,-2143.2,2655.3,2025-01-29 10:39:21,1
3433.2000000000007,1161.6,1208.8000000000002,1026.1,840.8,2294.3,2025-01-29 10:39:21,1
2065.2000000000007,1157.6,1236.8000000000002,1143.1,2798.8,2097.3,2025-01-29 10:39:21,1
573.2000000000007,1265.6,1032.8000000000002,1213.1,3286.8,2064.3,2025-01-29 10:39:21,1
-834.7999999999993,1405.6,636.8000000000002,1189.1,2382.8,1964.3,2025-01-29 10:39:21,1
-1722.7999999999993,1501.6,588.8000000000002,1273.1,167.8,1854.3,2025-01-29 10:39:21,1
-1670.7999999999993,1605.6,996.8000000000002,1397.1,-1615.2,1878.3,2025-01-29 10:39:21,1
-258.7999999999993,1537.6,1196.8000000000002,1535.1,-2740.2,1632.3,2025-01-29 10:39:21,1
997.2000000000008,1209.6,1560.8000000000002,1724.1,-2869.2,1224.3,2025-01-29 10:39:21,1
1605.2000000000007,1065.6,1456.8000000000002,1828.1,-2304.2,834.3,2025-01-29 10:39:21,1
1917.2000000000007,1113.6,1696.8000000000002,1838.1,-1196.2,626.3,2025-01-29 10:39:21,1
2049.2000000000007,1405.6,1780.8000000000002,1730.1,-80.19999999999999,188.3,2025-01-29 10:39:21,1
1729.2000000000007,1933.6,1512.8000000000002,1526.1,579.8,-401.7,2025-01-29 10:39:21,1
969.2000000000008,2453.6,1120.8000000000002,1232.1,958.8,-1139.7,2025-01-29 10:39:22,1
137.20000000000073,2649.6,1024.8000000000002,838.1,801.8,-1773.7,2025-01-29 10:39:22,1
153.20000000000073,2721.6,140.80000000000018,515.1,313.8,-2100.7,2025-01-29 10:39:22,1
-274.7999999999993,2665.6,428.8000000000002,153.1,-127.2,-2360.7,2025-01-29 10:39:22,1
-478.7999999999993,2233.6,160.80000000000018,-147.9,-441.2,-2620.7,2025-01-29 10:39:22,1
-978.7999999999992,1501.6,620.8000000000002,-183.9,-156.2,-2545.7,2025-01-29 10:39:22,1
-1894.7999999999995,41.60000000000002,1896.8,236.1,483.8,-1976.7,2025-01-29 10:39:22,1
-2458.7999999999997,-1278.4,2072.8,990.1,175.8,-1214.7,2025-01-29 10:39:22,1
-2602.7999999999997,-1854.4,2188.8,1914.1,-778.2,-442.7,2025-01-29 10:39:22,1
-2038.7999999999995,-1710.4,2612.8,3036.1,-1489.2,201.3,2025-01-29 10:39:22,1
-1626.7999999999993,-1098.4,2312.8,3938.1,-1631.2,757.3,2025-01-29 10:39:22,1
-970.7999999999992,-90.39999999999998,2008.8,4416.1,-1140.2,1231.3,2025-01-29 10:39:22,1
-598.7999999999993,1009.6,1156.8000000000002,4625.1,-284.2,1461.3,2025-01-29 10:39:22,1
-1070.7999999999993,1841.6,492.8000000000002,4438.1,338.8,1733.3,2025-01-29 10:39:22,1
-2290.7999999999997,1553.6,408.8000000000002,4146.1,822.8,2463.3,2025-01-29 10:39:22,1
-2846.7999999999997,805.6,68.80000000000018,3818.1,1140.8,3060.3,2025-01-29 10:39:22,1
-3514.7999999999997,25.600000000000023,-335.1999999999998,3706.1,1410.8,3235.3,2025-01-29 10:39:22,1
-3638.7999999999993,-226.4,-1771.1999999999998,3623.1,1244.8,3286.3,2025-01-29 10:39:22,1
-3614.7999999999993,497.6,-3423.2,3097.1,357.8,3162.3,2025-01-29 10:39:22,1
-3366.7999999999997,2425.6,-4259.2,2084.1,-737.2,3164.3,2025-01-29 10:39:22,1
-1998.7999999999995,3401.6,-4947.2,505.1,-1642.2,2551.3,2025-01-29 10:39:22,1
-1190.7999999999993,3033.6,-3155.2,-704.9,-1763.2,1455.3,2025-01-29 10:39:22,1
-230.79999999999927,1881.6,-1779.1999999999998,-1019.9,-2373.2,717.3,2025-01-29 10:39:22,1
1161.2000000000007,161.60000000000002,-1243.1999999999998,-755.9,-2906.2,-4.699999999999989,2025-01-29 10:39:22,1
2385.2000000000007,-1838.4,340.8000000000002,425.1,-2596.2,-382.7,2025-01-29 10:39:22,1
3789.2000000000007,-3274.4,856.8000000000002,1683.1,-2105.2,-498.7,2025-01-29 10:39:22,1
4385.200000000001,-4194.4,1352.8000000000002,2648.1,-1104.2,-448.7,2025-01-29 10:39:22,1
4041.2000000000007,-4202.4,1524.8000000000002,3291.1,333.8,78.30000000000001,2025-01-29 10:39:22,1
3537.2000000000007,-3418.4,240.80000000000015,3408.1,2206.8,804.3,2025-01-29 10:39:22,1
2125.2000000000007,-1986.4,-967.1999999999998,3362.1,3886.8,546.3,2025-01-29 10:39:22,1
-118.79999999999929,-682.4,-1503.1999999999998,3221.1,4795.8,501.3,2025-01-29 10:39:22,1
-1242.7999999999993,-254.4,-1947.2,3096.1,4095.8,272.3,2025-01-29 10:39:22,1
-1974.7999999999995,-250.4,-1971.2,2753.1,1104.8,-490.7,2025-01-29 10:39:22,1
-2306.7999999999997,-874.4,-1203.1999999999998,2508.1,-1780.2,-788.7,2025-01-29 10:39:22,1
-1182.7999999999993,-954.4,-583.1999999999998,2433.1,-3540.2,-716.7,2025-01-29 10:39:22,1
593.2000000000007,-990.4,-547.1999999999998,2233.1,-4463.2,-620.7,2025-01-29 10:39:22,1
1897.2000000000007,-946.4,-83.19999999999982,2003.1,-4331.2,-633.7,2025-01-29 10:39:22,1
3085.2000000000007,-1118.4,92.80000000000018,1568.1,-3384.2,-718.7,2025-01-29 10:39:22,1
3585.2000000000007,-1222.4,276.8000000000002,1171.1,-1873.2,-1027.7,2025-01-29 10:39:22,1
381.2000000000007,-1842.4,44.80000000000018,310.1,2292.8,-1329.7,2025-01-29 10:39:22,1
-502.7999999999993,-1354.4,176.80000000000018,139.1,1787.8,-1078.7,2025-01-29 10:39:22,1
-554.7999999999993,-1362.4,-275.1999999999998,-90.9,1007.8,-839.7,2025-01-29 10:39:22,1
-162.79999999999927,-1430.4,-539.1999999999998,-288.9,191.8,-589.7,2025-01-29 10:39:22,1
-322.7999999999993,-1378.4,-59.19999999999982,-479.9,29.80000000000001,-375.7,2025-01-29 10:39:22,1
-158.79999999999927,-1734.4,116.80000000000018,-434.9,80.80000000000001,-380.7,2025-01-29 10:39:22,1
-390.7999999999993,-1938.4,-107.19999999999982,-249.9,-29.19999999999999,-412.7,2025-01-29 10:39:22,1
-586.7999999999993,-1966.4,-99.19999999999982,-74.9,-543.2,-380.7,2025-01-29 10:39:22,1
-6.799999999999272,-1982.4,-87.19999999999982,-53.900000000000006,-1347.2,-462.7,2025-01-29 10:39:22,1
653.2000000000007,-1398.4,-335.1999999999998,-240.9,-1159.2,-636.7,2025-01-29 10:39:22,1
113.20000000000071,-790.4,-7.199999999999818,-640.9,-167.2,-760.7,2025-01-29 10:39:22,1
273.2000000000007,-614.4,-239.19999999999985,-1108.9,324.8,-1056.7,2025-01-29 10:39:22,1
-586.7999999999993,-734.4,768.8000000000002,-1596.9,172.8,-1426.7,2025-01-29 10:39:22,1
-566.7999999999993,-926.4,760.8000000000002,-1890.9,-443.2,-1638.7,2025-01-29 10:39:22,1
-718.7999999999993,-1162.4,580.8000000000002,-2134.9,-956.2,-1877.7,2025-01-29 10:39:22,1
-606.7999999999993,-1362.4,736.8000000000002,-2427.9,-1266.2,-1938.7,2025-01-29 10:39:22,1
-202.79999999999927,-1606.4,552.8000000000002,-2805.9,-1430.2,-1884.7,2025-01-29 10:39:22,1
189.20000000000076,-1562.4,748.8000000000002,-3183.9,-1107.2,-1489.7,2025-01-29 10:39:22,1
325.2000000000007,-1334.4,996.8000000000002,-3441.9,-644.2,-889.7,2025-01-29 10:39:22,1
77.20000000000073,-1390.4,964.8000000000002,-3728.9,-357.2,-423.7,2025-01-29 10:39:23,1
229.20000000000076,-1814.4,804.8000000000002,-3827.9,-135.2,261.3,2025-01-29 10:39:23,1
309.2000000000007,-2254.4,604.8000000000002,-3764.9,25.80000000000001,834.3,2025-01-29 10:39:23,1
197.20000000000076,-2962.4,188.80000000000015,-3616.9,419.8,1248.3,2025-01-29 10:39:23,1
245.20000000000076,-3318.4,-199.19999999999985,-3126.9,896.8,1481.3,2025-01-29 10:39:23,1
-102.79999999999929,-2810.4,-947.1999999999998,-2313.9,1304.8,1366.3,2025-01-29 10:39:23,1
-490.7999999999993,-1826.4,-1259.1999999999998,-1615.9,1020.8,1147.3,2025-01-29 10:39:23,1
-878.7999999999993,-1002.4,-1167.1999999999998,-1051.9,362.8,1028.3,2025-01-29 10:39:23,1
97.20000000000071,-302.4,-943.1999999999998,-463.9,-670.2,891.3,2025-01-29 10:39:23,1
1597.2000000000007,-126.39999999999998,-979.1999999999998,-394.9,-1053.2,520.3,2025-01-29 10:39:23,1
2141.2000000000007,-594.4,-251.19999999999985,-544.9,-459.2,132.3,2025-01-29 10:39:23,1
2481.2000000000007,-914.4,468.8000000000002,-467.9,895.8,-14.699999999999989,2025-01-29 10:39:23,1
2381.2000000000007,-750.4,516.8000000000002,-364.9,2376.8,-198.7,2025-01-29 10:39:23,1
1697.2000000000007,-662.4,-7.199999999999818,-516.9,3398.8,-405.7,2025-01-29 10:39:23,1
553.2000000000007,-530.4,-183.19999999999985,-710.9,3630.8,-427.7,2025-01-29 10:39:23,1
-694.7999999999993,-358.4,-635.1999999999998,-835.9,3141.8,-121.7,2025-01-29 10:39:23,1
-958.7999999999992,-270.4,-783.1999999999998,-872.9,2086.8,65.30000000000001,2025-01-29 10:39:23,1
-850.7999999999993,-638.4,-871.1999999999998,-733.9,1007.8,103.3,2025-01-29 10:39:23,1
-654.7999999999993,-1042.4,-887.1999999999998,-440.9,22.80000000000001,114.3,2025-01-29 10:39:23,1
-146.79999999999927,-1202.4,-895.1999999999998,-30.90000000000001,-273.2,154.3,2025-01-29 10:39:23,1
-66.79999999999927,-1106.4,-615.1999999999998,407.1,400.8,226.3,2025-01-29 10:39:23,1
89.20000000000073,-1070.4,-823.1999999999998,620.1,1373.8,302.3,2025-01-29 10:39:23,1
181.20000000000076,-918.4,-875.1999999999998,807.1,1356.8,275.3,2025-01-29 10:39:23,1
-114.79999999999929,-334.4,-755.1999999999998,882.1,652.8,220.3,2025-01-29 10:39:23,1
-158.79999999999927,901.6,-1027.1999999999998,468.1,-24.19999999999999,135.3,2025-01-29 10:39:23,1
-50.79999999999927,1425.6,-711.1999999999998,-106.9,-463.2,44.30000000000001,2025-01-29 10:39:23,1
273.2000000000007,1501.6,-227.19999999999985,-461.9,-569.2,-52.69999999999999,2025-01-29 10:39:23,1
625.2000000000007,1265.6,80.80000000000018,-798.9,-344.2,-275.7,2025-01-29 10:39:23,1
781.2000000000007,805.6,304.8000000000002,-1010.9,94.8,-426.7,2025-01-29 10:39:23,1
765.2000000000007,209.6,364.8000000000002,-1054.9,564.8,-493.7,2025-01-29 10:39:23,1
461.2000000000007,-78.39999999999998,-11.199999999999818,-941.9,913.8,-474.7,2025-01-29 10:39:23,1
261.2000000000007,-122.39999999999998,-379.1999999999998,-927.9,962.8,-529.7,2025-01-29 10:39:23,1
-246.79999999999927,-186.4,-475.1999999999998,-864.9,699.8,-615.7,2025-01-29 10:39:23,1
-642.7999999999993,-150.39999999999998,-491.1999999999998,-776.9,293.8,-513.7,2025-01-29 10:39:23,1
-518.7999999999993,13.600000000000025,-399.1999999999998,-658.9,-218.2,-376.7,2025-01-29 10:39:23,0.0
5.200000000000728,181.6,-455.1999999999998,-551.9,-584.2,-385.7,2025-01-29 10:39:23,0.0
217.20000000000076,13.600000000000025,-487.1999999999998,-561.9,-649.2,-418.7,2025-01-29 10:39:23,0.0
437.2000000000007,-102.39999999999998,-367.1999999999998,-519.9,-442.2,-418.7,2025-01-29 10:39:23,0.0
497.2000000000007,-354.4,-295.1999999999998,-427.9,-178.2,-392.7,2025-01-29 10:39:23,0.0
417.2000000000007,-354.4,-91.19999999999982,-348.9,29.80000000000001,-379.7,2025-01-29 10:39:23,0.0
205.20000000000076,-338.4,-251.19999999999985,-297.9,135.8,-359.7,2025-01-29 10:39:23,3
-14.799999999999272,-134.39999999999998,-443.1999999999998,-295.9,71.80000000000001,-236.7,2025-01-29 10:39:23,3
49.20000000000073,-50.39999999999998,-251.19999999999985,-287.9,-225.2,-125.7,2025-01-29 10:39:23,3
149.20000000000073,37.60000000000002,-271.1999999999998,-261.9,-380.2,-109.7,2025-01-29 10:39:23,3
253.20000000000076,-58.39999999999998,-103.19999999999982,-263.9,-379.2,-178.7,2025-01-29 10:39:23,3
225.20000000000076,-182.4,-111.19999999999982,-270.9,-358.2,-200.7,2025-01-29 10:39:23,3
305.2000000000007,-290.4,-175.19999999999982,-262.9,-204.2,-211.7,2025-01-29 10:39:23,3
377.2000000000007,-378.4,-227.19999999999985,-187.9,-118.2,-194.7,2025-01-29 10:39:23,3
325.2000000000007,-458.4,-495.1999999999998,-138.9,-71.19999999999999,-166.7,2025-01-29 10:39:23,3
125.20000000000071,-634.4,-543.1999999999998,-20.90000000000001,-68.19999999999999,-185.7,2025-01-29 10:39:23,3
73.20000000000073,-346.4,-599.1999999999998,37.1,-207.2,-198.7,2025-01-29 10:39:23,3
109.20000000000071,-142.39999999999998,-315.1999999999998,-6.900000000000006,-314.2,-222.7,2025-01-29 10:39:23,3
225.20000000000076,-86.39999999999998,-595.1999999999998,-85.9,-265.2,-189.7,2025-01-29 10:39:23,3
237.20000000000076,-110.39999999999998,-463.1999999999998,-130.9,-114.2,-104.7,2025-01-29 10:39:23,3
229.20000000000076,-206.4,-407.1999999999998,-169.9,10.800000000000011,-63.69999999999999,2025-01-29 10:39:23,3
129.20000000000073,-294.4,-299.1999999999998,-194.9,40.80000000000001,-42.69999999999999,2025-01-29 10:39:23,3
65.20000000000073,-330.4,-263.1999999999998,-181.9,-53.19999999999999,-44.69999999999999,2025-01-29 10:39:23,3
165.20000000000073,-378.4,-119.19999999999982,-119.9,-103.2,-8.699999999999989,2025-01-29 10:39:24,3
253.20000000000076,-406.4,-191.19999999999985,-126.9,113.8,-31.69999999999999,2025-01-29 10:39:24,3
189.20000000000076,-286.4,-79.19999999999982,-151.9,137.8,-86.69999999999999,2025-01-29 10:39:24,3
121.20000000000071,-294.4,-347.1999999999998,-155.9,37.80000000000001,-69.69999999999999,2025-01-29 10:39:24,3
13.200000000000728,-474.4,-247.19999999999985,-88.9,-100.2,-64.69999999999999,2025-01-29 10:39:25,3
61.20000000000073,-334.4,-247.19999999999985,-55.900000000000006,-197.2,-76.69999999999999,2025-01-29 10:39:25,3
161.20000000000073,-534.4,-43.19999999999982,-51.900000000000006,-187.2,-75.69999999999999,2025-01-29 10:39:25,3
21.200000000000728,-550.4,-111.19999999999982,-47.900000000000006,-128.2,-88.69999999999999,2025-01-29 10:39:25,3
-58.79999999999927,-406.4,-3.199999999999818,-0.9000000000000057,-64.19999999999999,-54.69999999999999,2025-01-29 10:39:25,3
149.20000000000073,-374.4,-207.19999999999985,-44.900000000000006,-15.199999999999989,-6.699999999999989,2025-01-29 10:39:25,3
173.20000000000073,-470.4,-535.1999999999998,-36.900000000000006,59.80000000000001,1.3000000000000114,2025-01-29 10:39:26,3
93.20000000000071,-398.4,-399.1999999999998,-60.900000000000006,67.80000000000001,-37.69999999999999,2025-01-29 10:39:26,3
-66.79999999999927,-406.4,-119.19999999999982,-7.900000000000006,-72.19999999999999,4.300000000000011,2025-01-29 10:39:26,3
3329.2000000000007,-166.39999999999998,4580.8,661.1,6729.8,-1614.7,2025-01-29 10:39:26,3
2513.2000000000007,-218.4,3096.8,-93.9,5492.8,-1005.7,2025-01-29 10:39:26,3
1489.2000000000007,293.6,2000.8,-943.9,1892.8,-520.7,2025-01-29 10:39:26,3
1405.2000000000007,477.6,2708.8,-1137.9,-1336.2,168.3,2025-01-29 10:39:26,3
2405.2000000000007,625.6,3092.8,-1562.9,-2785.2,696.3,2025-01-29 10:39:26,3
3357.2000000000007,65.60000000000002,3712.8,-1507.9,-3591.2,551.3,2025-01-29 10:39:26,3
-2166.7999999999997,373.6,5420.8,163.1,-175.2,-232.7,2025-01-29 10:39:26,3
-2238.7999999999997,329.6,5572.8,264.1,-124.2,-249.7,2025-01-29 10:39:26,3
-2402.7999999999997,325.6,5596.8,354.1,-150.2,-198.7,2025-01-29 10:39:26,3
-2498.7999999999997,549.6,5548.8,380.1,-197.2,-191.7,2025-01-29 10:39:26,3
-2442.7999999999997,645.6,5192.8,403.1,-322.2,-225.7,2025-01-29 10:39:26,3
-2530.7999999999997,973.6,5112.8,299.1,-401.2,-177.7,2025-01-29 10:39:26,3
-2582.7999999999997,1065.6,5352.8,189.1,-560.2,-93.7,2025-01-29 10:39:26,3
-2378.7999999999997,1017.6,5456.8,49.1,-608.2,-11.699999999999989,2025-01-29 10:39:26,3
-2762.7999999999997,489.6,5276.8,121.1,-306.2,-85.69999999999999,2025-01-29 10:39:26,3
-2642.7999999999997,437.6,5224.8,115.1,-185.2,-78.69999999999999,2025-01-29 10:39:26,3
-2406.7999999999997,529.6,5088.8,100.1,-118.2,-77.69999999999999,2025-01-29 10:39:26,3
-2294.7999999999997,633.6,5208.8,-28.90000000000001,-187.2,-91.7,2025-01-29 10:39:27,3
-2182.7999999999997,637.6,5252.8,-339.9,-334.2,-208.7,2025-01-29 10:39:27,3
-2310.7999999999997,833.6,5112.8,-277.9,-111.2,-271.7,2025-01-29 10:39:27,3
-2582.7999999999997,785.6,5088.8,-278.9,-191.2,-354.7,2025-01-29 10:39:27,3
-2678.7999999999997,633.6,5160.8,-213.9,-536.2,-298.7,2025-01-29 10:39:27,3
-2406.7999999999997,365.6,5352.8,-44.900000000000006,-548.2,-145.7,2025-01-29 10:39:27,3
-2530.7999999999997,385.6,5444.8,74.1,-418.2,-12.699999999999989,2025-01-29 10:39:27,3
-2498.7999999999997,445.6,5372.8,160.1,-467.2,73.30000000000001,2025-01-29 10:39:27,3
-2606.7999999999997,425.6,5592.8,211.1,-509.2,98.3,2025-01-29 10:39:27,3
-2410.7999999999997,573.6,5448.8,227.1,-384.2,22.30000000000001,2025-01-29 10:39:27,3
-2490.7999999999997,945.6,5328.8,141.1,-341.2,-56.69999999999999,2025-01-29 10:39:27,3
-2502.7999999999997,653.6,5424.8,79.1,-302.2,-94.7,2025-01-29 10:39:27,3
-2570.7999999999997,301.6,5488.8,56.1,-442.2,-111.7,2025-01-29 10:39:27,3
-2430.7999999999997,33.60000000000002,5732.8,147.1,-474.2,-90.7,2025-01-29 10:39:27,3
-2318.7999999999997,357.6,5992.8,190.1,-395.2,-62.69999999999999,2025-01-29 10:39:27,3
-2354.7999999999997,553.6,5840.8,161.1,-337.2,-140.7,2025-01-29 10:39:27,3
-2546.7999999999997,605.6,5928.8,123.1,-248.2,-193.7,2025-01-29 10:39:27,3
-2694.7999999999997,521.6,6048.8,122.1,-124.2,-224.7,2025-01-29 10:39:27,3
-2942.7999999999997,305.6,5696.8,125.1,-227.2,-200.7,2025-01-29 10:39:27,3
-2682.7999999999997,453.6,5448.8,101.1,-421.2,-161.7,2025-01-29 10:39:27,3
-2598.7999999999997,549.6,5460.8,115.1,-442.2,-90.7,2025-01-29 10:39:27,3
-2546.7999999999997,665.6,5448.8,49.1,-449.2,14.300000000000011,2025-01-29 10:39:27,3
-2338.7999999999997,609.6,5472.8,-34.900000000000006,-466.2,102.3,2025-01-29 10:39:27,3
-2310.7999999999997,573.6,5384.8,-36.900000000000006,-422.2,90.3,2025-01-29 10:39:27,3
-2662.7999999999997,373.6,5476.8,246.1,-305.2,-71.69999999999999,2025-01-29 10:39:27,3
-2634.7999999999997,621.6,5564.8,166.1,-459.2,-56.69999999999999,2025-01-29 10:39:27,3
-2646.7999999999997,721.6,5548.8,56.1,-499.2,4.300000000000011,2025-01-29 10:39:27,3
-2482.7999999999997,657.6,5580.8,-59.900000000000006,-416.2,-1.6999999999999886,2025-01-29 10:39:27,3
-2334.7999999999997,525.6,5772.8,-111.9,-271.2,-1.6999999999999886,2025-01-29 10:39:27,3
-2394.7999999999997,353.6,5720.8,-106.9,-106.2,-57.69999999999999,2025-01-29 10:39:27,3
-2466.7999999999997,161.60000000000002,5792.8,-84.9,-28.19999999999999,-73.69999999999999,2025-01-29 10:39:27,3
-2274.7999999999997,273.6,5700.8,-76.9,-161.2,-62.69999999999999,2025-01-29 10:39:27,3
-2158.7999999999997,385.6,5536.8,-55.900000000000006,-136.2,-53.69999999999999,2025-01-29 10:39:27,3
-2346.7999999999997,313.6,5456.8,-155.9,-77.19999999999999,73.30000000000001,2025-01-29 10:39:28,3
-2402.7999999999997,393.6,5832.8,-131.9,-65.19999999999999,50.30000000000001,2025-01-29 10:39:28,3
-2766.7999999999997,569.6,5364.8,-163.9,1.8000000000000114,-114.7,2025-01-29 10:39:28,3
-2678.7999999999997,561.6,5732.8,-173.9,-188.2,-182.7,2025-01-29 10:39:28,3
-2410.7999999999997,381.6,5624.8,-155.9,-218.2,-168.7,2025-01-29 10:39:28,3
-2398.7999999999997,381.6,5720.8,-97.9,-75.19999999999999,-111.7,2025-01-29 10:39:28,3
-2614.7999999999997,469.6,5604.8,-52.900000000000006,-97.2,-96.7,2025-01-29 10:39:28,3
-2598.7999999999997,381.6,5484.8,24.099999999999994,-221.2,-38.69999999999999,2025-01-29 10:39:28,3
-2574.7999999999997,289.6,5616.8,66.1,-270.2,47.30000000000001,2025-01-29 10:39:28,3
-2614.7999999999997,425.6,5688.8,-38.900000000000006,-43.19999999999999,-2.6999999999999886,2025-01-29 10:39:28,3
-2606.7999999999997,517.6,5676.8,-46.900000000000006,-89.19999999999999,-9.699999999999989,2025-01-29 10:39:28,3
-2574.7999999999997,481.6,5688.8,-67.9,-152.2,-25.69999999999999,2025-01-29 10:39:28,3
-2546.7999999999997,621.6,5604.8,-131.9,-173.2,-65.69999999999999,2025-01-29 10:39:28,3
-2654.7999999999997,741.6,5580.8,-160.9,-133.2,-83.69999999999999,2025-01-29 10:39:28,3
-2606.7999999999997,505.6,5424.8,-208.9,-198.2,-50.69999999999999,2025-01-29 10:39:28,3
-2434.7999999999997,445.6,5452.8,-207.9,-252.2,-21.69999999999999,2025-01-29 10:39:28,3
-2426.7999999999997,265.6,5808.8,-153.9,-239.2,-22.69999999999999,2025-01-29 10:39:28,3
-2534.7999999999997,277.6,5772.8,-119.9,-267.2,-27.69999999999999,2025-01-29 10:39:28,3
-2530.7999999999997,233.6,5796.8,-79.9,-151.2,11.300000000000011,2025-01-29 10:39:28,3
-2582.7999999999997,353.6,5696.8,-68.9,-49.19999999999999,7.300000000000011,2025-01-29 10:39:28,3
-2634.7999999999997,593.6,5836.8,-103.9,-84.19999999999999,-17.69999999999999,2025-01-29 10:39:28,3
-2602.7999999999997,649.6,5804.8,-104.9,-157.2,-75.69999999999999,2025-01-29 10:39:28,3
-2554.7999999999997,493.6,5796.8,-135.9,-149.2,-15.699999999999989,2025-01-29 10:39:28,3
-2430.7999999999997,237.6,5792.8,-96.9,-108.2,-24.69999999999999,2025-01-29 10:39:28,3
-2350.7999999999997,317.6,5844.8,40.1,-115.2,-32.69999999999999,2025-01-29 10:39:28,3
-2542.7999999999997,333.6,5948.8,42.1,-113.2,-12.699999999999989,2025-01-29 10:39:28,3
-2426.7999999999997,381.6,5624.8,37.1,-132.2,-14.699999999999989,2025-01-29 10:39:28,3
-2490.7999999999997,517.6,5584.8,-27.90000000000001,-141.2,-9.699999999999989,2025-01-29 10:39:28,3
-2602.7999999999997,601.6,5576.8,-88.9,-187.2,-151.7,2025-01-29 10:39:28,3
-2470.7999999999997,629.6,5656.8,-170.9,-217.2,-102.7,2025-01-29 10:39:28,3
-2538.7999999999997,477.6,5616.8,-169.9,-143.2,-101.7,2025-01-29 10:39:28,3
-2546.7999999999997,313.6,5736.8,13.099999999999994,-303.2,49.30000000000001,2025-01-29 10:39:28,3
-2606.7999999999997,449.6,5756.8,25.099999999999994,-330.2,34.30000000000001,2025-01-29 10:39:28,3
-2362.7999999999997,517.6,5700.8,0.0999999999999943,-354.2,35.30000000000001,2025-01-29 10:39:28,3
-2378.7999999999997,609.6,5692.8,-31.90000000000001,-334.2,56.30000000000001,2025-01-29 10:39:28,3
-2574.7999999999997,269.6,6144.8,-116.9,-164.2,-55.69999999999999,2025-01-29 10:39:28,3
-2638.7999999999997,361.6,5912.8,-69.9,-161.2,-80.69999999999999,2025-01-29 10:39:28,3
-2498.7999999999997,409.6,5644.8,-75.9,-201.2,-0.6999999999999886,2025-01-29 10:39:28,3
-2514.7999999999997,477.6,5692.8,-69.9,-232.2,6.300000000000011,2025-01-29 10:39:29,3
-2542.7999999999997,613.6,5764.8,-94.9,-293.2,-25.69999999999999,2025-01-29 10:39:29,3
-2554.7999999999997,705.6,5804.8,-120.9,-281.2,-65.69999999999999,2025-01-29 10:39:29,3
-2710.7999999999997,365.6,5988.8,-107.9,-271.2,-67.69999999999999,2025-01-29 10:39:29,3
-2606.7999999999997,425.6,5796.8,-78.9,-372.2,-34.69999999999999,2025-01-29 10:39:29,3
-2666.7999999999997,445.6,5892.8,-74.9,-337.2,10.300000000000011,2025-01-29 10:39:29,3
-2510.7999999999997,373.6,5980.8,-64.9,-268.2,34.30000000000001,2025-01-29 10:39:29,3
-2526.7999999999997,445.6,5840.8,-43.900000000000006,-233.2,34.30000000000001,2025-01-29 10:39:29,3
-2482.7999999999997,505.6,5984.8,-37.900000000000006,-243.2,23.30000000000001,2025-01-29 10:39:29,3
-2510.7999999999997,429.6,5760.8,-47.900000000000006,-210.2,37.30000000000001,2025-01-29 10:39:29,3
-2578.7999999999997,489.6,5744.8,-47.900000000000006,-230.2,37.30000000000001,2025-01-29 10:39:29,3
-2558.7999999999997,421.6,5920.8,-28.90000000000001,-258.2,27.30000000000001,2025-01-29 10:39:29,3
-2698.7999999999997,417.6,6000.8,-33.900000000000006,-311.2,-7.699999999999989,2025-01-29 10:39:29,3
-2518.7999999999997,393.6,6032.8,-51.900000000000006,-281.2,-20.69999999999999,2025-01-29 10:39:29,3
-2294.7999999999997,329.6,6016.8,-61.900000000000006,-244.2,-56.69999999999999,2025-01-29 10:39:29,3
-2402.7999999999997,389.6,5876.8,-62.900000000000006,-218.2,-78.69999999999999,2025-01-29 10:39:29,3
-2478.7999999999997,365.6,5928.8,-66.9,-211.2,-64.69999999999999,2025-01-29 10:39:29,3
-2514.7999999999997,385.6,6016.8,-70.9,-149.2,-43.69999999999999,2025-01-29 10:39:29,3
-2530.7999999999997,401.6,5904.8,-66.9,-153.2,-56.69999999999999,2025-01-29 10:39:29,3
-2522.7999999999997,517.6,5940.8,-96.9,-193.2,-31.69999999999999,2025-01-29 10:39:29,3
-2678.7999999999997,497.6,5976.8,-86.9,-203.2,-0.6999999999999886,2025-01-29 10:39:29,3
-2646.7999999999997,329.6,5920.8,-74.9,-235.2,12.300000000000011,2025-01-29 10:39:29,3
-2462.7999999999997,289.6,6136.8,-5.900000000000006,-233.2,11.300000000000011,2025-01-29 10:39:29,3
-2374.7999999999997,225.6,5888.8,23.099999999999994,-156.2,-63.69999999999999,2025-01-29 10:39:29,3
-2514.7999999999997,349.6,5900.8,26.099999999999994,-158.2,-68.69999999999999,2025-01-29 10:39:29,3
-2642.7999999999997,457.6,5928.8,46.1,-176.2,-85.69999999999999,2025-01-29 10:39:29,3
-2558.7999999999997,509.6,6148.8,38.1,-149.2,-39.69999999999999,2025-01-29 10:39:29,3
-2494.7999999999997,457.6,6000.8,12.099999999999994,-117.2,13.300000000000011,2025-01-29 10:39:29,3
-2490.7999999999997,569.6,5780.8,-13.900000000000006,-126.2,5.300000000000011,2025-01-29 10:39:29,3
-2538.7999999999997,537.6,5996.8,-26.90000000000001,-130.2,-38.69999999999999,2025-01-29 10:39:29,3
-2562.7999999999997,381.6,5788.8,-33.900000000000006,-71.19999999999999,-40.69999999999999,2025-01-29 10:39:29,3
-2542.7999999999997,341.6,5832.8,10.099999999999994,42.80000000000001,-74.69999999999999,2025-01-29 10:39:29,3
-2554.7999999999997,281.6,5868.8,29.099999999999994,410.8,-30.69999999999999,2025-01-29 10:39:29,3
-2562.7999999999997,553.6,5764.8,41.1,674.8,-45.69999999999999,2025-01-29 10:39:29,3
-3050.7999999999997,453.6,5904.8,-13.900000000000006,1205.8,-105.7,2025-01-29 10:39:29,3
-4142.799999999999,233.6,5764.8,196.1,2113.8,-293.7,2025-01-29 10:39:29,3
-6142.799999999999,685.6,5124.8,186.1,3803.8,-583.7,2025-01-29 10:39:29,3
-8538.8,777.6,3100.8,76.1,5866.8,-517.7,2025-01-29 10:39:29,3
-11574.8,409.6,2956.8,-47.900000000000006,7214.8,-319.7,2025-01-29 10:39:29,3
-12150.8,-726.4,704.8000000000002,134.1,8393.8,36.30000000000001,2025-01-29 10:39:29,3
-12630.8,-862.4,-227.19999999999985,536.1,9101.8,-36.69999999999999,2025-01-29 10:39:29,3
-13202.8,-638.4,-107.19999999999982,530.1,8340.8,70.30000000000001,2025-01-29 10:39:29,3
-13166.8,-554.4,700.8000000000002,467.1,7498.8,383.3,2025-01-29 10:39:29,3
-11758.8,53.60000000000002,808.8000000000002,334.1,7705.8,694.3,2025-01-29 10:39:29,3
-9782.8,581.6,1132.8000000000002,442.1,8829.8,595.3,2025-01-29 10:39:29,3
-8402.8,245.6,2440.8,660.1,9003.8,408.3,2025-01-29 10:39:29,3
-6450.799999999999,445.6,3268.8,753.1,8765.8,492.3,2025-01-29 10:39:29,3
-4518.799999999999,453.6,3104.8,744.1,8908.8,739.3,2025-01-29 10:39:29,3
-2566.7999999999997,673.6,3260.8,728.1,9451.8,907.3,2025-01-29 10:39:29,3
-1558.7999999999993,509.6,2524.8,887.1,10428.8,835.3,2025-01-29 10:39:29,3
-1378.7999999999993,281.6,2840.8,1064.1,10410.8,943.3,2025-01-29 10:39:29,3
-1126.7999999999993,-410.4,2800.8,1424.1,8815.8,1216.3,2025-01-29 10:39:29,3
-1222.7999999999993,-138.39999999999998,2060.8,1374.1,8005.8,1560.3,2025-01-29 10:39:29,3
-1318.7999999999993,-58.39999999999998,2940.8,1475.1,8135.8,1520.3,2025-01-29 10:39:29,3
-754.7999999999993,-90.39999999999998,2452.8,1656.1,8673.8,1017.3,2025-01-29 10:39:29,3
321.2000000000007,253.6,1272.8000000000002,1763.1,8742.8,645.3,2025-01-29 10:39:29,3
293.2000000000007,1025.6,176.80000000000018,1806.1,8418.8,658.3,2025-01-29 10:39:29,3
161.20000000000073,1121.6,-1355.1999999999998,1323.1,8518.8,725.3,2025-01-29 10:39:29,3
153.20000000000073,1133.6,-1711.1999999999998,811.1,8266.8,46.30000000000001,2025-01-29 10:39:29,3
-866.7999999999993,1417.6,-2107.2,628.1,7376.8,-605.7,2025-01-29 10:39:29,3
-1330.7999999999993,1725.6,-2767.2,306.1,5472.8,-784.7,2025-01-29 10:39:29,3
-862.7999999999993,1649.6,-2623.2,-712.9,2350.8,-686.7,2025-01-29 10:39:29,3
-242.79999999999927,1261.6,-1647.1999999999998,-1258.9,-584.2,-798.7,2025-01-29 10:39:30,3
181.20000000000076,721.6,-207.19999999999985,-1021.9,-3350.2,-542.7,2025-01-29 10:39:30,3
697.2000000000007,657.6,-167.19999999999982,-868.9,-5617.2,-5.699999999999989,2025-01-29 10:39:30,3
2605.2000000000007,757.6,268.8000000000002,-1063.9,-6321.2,-178.7,2025-01-29 10:39:30,3
2929.2000000000007,561.6,2008.8,-1205.9,-7191.2,-319.7,2025-01-29 10:39:30,3
3721.2000000000007,641.6,2784.8,-1018.9,-8299.2,-301.7,2025-01-29 10:39:30,3
3729.2000000000007,909.6,2880.8,-746.9,-7915.2,-44.69999999999999,2025-01-29 10:39:30,3
4269.200000000001,753.6,2928.8,-793.9,-6389.2,323.3,2025-01-29 10:39:30,3
5581.200000000001,533.6,3368.8,-966.9,-5758.2,487.3,2025-01-29 10:39:30,3
7845.200000000001,173.60000000000002,4728.8,12.099999999999994,-6918.2,560.3,2025-01-29 10:39:30,3
7949.200000000001,333.6,5028.8,417.1,-6636.2,400.3,2025-01-29 10:39:30,3
7313.200000000001,453.6,4912.8,912.1,-4140.2,-35.69999999999999,2025-01-29 10:39:30,3
6933.200000000001,157.60000000000002,4408.8,1170.1,-384.2,-928.7,2025-01-29 10:39:30,3
6845.200000000001,-70.39999999999998,4796.8,1354.1,1042.8,-1998.7,2025-01-29 10:39:30,3
5665.200000000001,453.6,5028.8,1785.1,242.8,-1987.7,2025-01-29 10:39:30,3
4593.200000000001,953.6,4208.8,1859.1,-440.2,-1278.7,2025-01-29 10:39:30,3
4817.200000000001,1069.6,2828.8,1429.1,-215.2,-578.7,2025-01-29 10:39:30,3
4913.200000000001,421.6,2200.8,1002.1,1074.8,-417.7,2025-01-29 10:39:30,3
4449.200000000001,-574.4,1804.8,785.1,3055.8,-727.7,2025-01-29 10:39:30,3
2945.2000000000007,-870.4,2628.8,1139.1,5038.8,-699.7,2025-01-29 10:39:30,3
1837.2000000000007,-1230.4,2396.8,1482.1,5355.8,-387.7,2025-01-29 10:39:30,3
721.2000000000007,-1162.4,1376.8000000000002,1115.1,4048.8,-258.7,2025-01-29 10:39:30,3
-178.79999999999927,-254.4,-947.1999999999998,688.1,2438.8,21.30000000000001,2025-01-29 10:39:30,3
-718.7999999999993,965.6,-1783.1999999999998,700.1,847.8,707.3,2025-01-29 10:39:30,3
141.20000000000073,1741.6,-1399.1999999999998,835.1,-915.2,1259.3,2025-01-29 10:39:30,3
1701.2000000000007,1353.6,-1923.2,566.1,-1571.2,1210.3,2025-01-29 10:39:30,3
2589.2000000000007,809.6,-4459.2,-313.9,151.8,831.3,2025-01-29 10:39:30,3
1781.2000000000007,861.6,-4683.2,-1334.9,4004.8,119.3,2025-01-29 10:39:30,3
-122.79999999999929,985.6,-1999.2,-1695.9,6988.8,-825.7,2025-01-29 10:39:30,3
-2290.7999999999997,1297.6,-1295.1999999999998,-1718.9,7896.8,-1710.7,2025-01-29 10:39:30,3
-3422.7999999999997,897.6,-3307.2,-1106.9,6895.8,-2503.7,2025-01-29 10:39:30,3
-4322.799999999999,-118.39999999999998,-2147.2,-658.9,1945.8,-2307.7,2025-01-29 10:39:30,3
-4190.799999999999,-470.4,-619.1999999999998,-950.9,-2859.2,-615.7,2025-01-29 10:39:30,3
-1178.7999999999993,-1094.4,920.8000000000002,-1083.9,-5018.2,542.3,2025-01-29 10:39:30,3
1841.2000000000007,-1274.4,736.8000000000002,-703.9,-5322.2,451.3,2025-01-29 10:39:30,3
2625.2000000000007,-714.4,956.8000000000002,-785.9,-3652.2,-99.7,2025-01-29 10:39:30,3
2321.2000000000007,197.6,1372.8000000000002,-784.9,-920.2,-291.7,2025-01-29 10:39:30,3
1809.2000000000007,633.6,1700.8000000000002,-477.9,1757.8,-487.7,2025-01-29 10:39:30,3
441.2000000000007,609.6,1564.8000000000002,-146.9,2894.8,-1038.7,2025-01-29 10:39:30,3
-1390.7999999999993,841.6,840.8000000000002,-76.9,1884.8,-939.7,2025-01-29 10:39:30,3
-2042.7999999999995,581.6,-235.19999999999985,-445.9,-32.19999999999999,-407.7,2025-01-29 10:39:30,3
-1378.7999999999993,261.6,-1103.1999999999998,-851.9,-1228.2,22.30000000000001,2025-01-29 10:39:30,3
-430.7999999999993,-74.39999999999998,-1339.1999999999998,-1150.9,-1312.2,14.300000000000011,2025-01-29 10:39:30,3
485.2000000000007,-498.4,-467.1999999999998,-1070.9,-1201.2,-249.7,2025-01-29 10:39:30,3
573.2000000000007,-894.4,-131.19999999999982,-701.9,-621.2,-431.7,2025-01-29 10:39:30,3
-506.7999999999993,393.6,-19.199999999999815,-647.9,-680.2,-483.7,2025-01-29 10:39:30,3
-282.7999999999993,-22.399999999999977,820.8000000000002,-348.9,-1299.2,-577.7,2025-01-29 10:39:30,3
-62.79999999999927,-146.39999999999998,888.8000000000002,-60.900000000000006,-1454.2,-564.7,2025-01-29 10:39:30,3
89.20000000000073,165.60000000000002,564.8000000000002,26.099999999999994,-1005.2,-356.7,2025-01-29 10:39:30,3
345.2000000000007,501.6,400.8000000000002,-7.900000000000006,-481.2,-249.7,2025-01-29 10:39:30,3
-34.79999999999927,493.6,160.80000000000018,-59.900000000000006,-232.2,-216.7,2025-01-29 10:39:30,3
-162.79999999999927,133.60000000000002,192.80000000000015,116.1,-302.2,-214.7,2025-01-29 10:39:30,3
-370.7999999999993,-342.4,312.8000000000002,480.1,-470.2,-224.7,2025-01-29 10:39:30,3
-366.7999999999993,-618.4,620.8000000000002,1043.1,-531.2,-120.7,2025-01-29 10:39:31,3
-398.7999999999993,-678.4,520.8000000000002,1478.1,-319.2,-22.69999999999999,2025-01-29 10:39:31,3
-402.7999999999993,-390.4,248.80000000000015,1748.1,-312.2,151.3,2025-01-29 10:39:31,3
-258.7999999999993,177.60000000000002,-163.19999999999982,1762.1,-474.2,315.3,2025-01-29 10:39:31,3
-234.79999999999927,565.6,-335.1999999999998,1657.1,-646.2,351.3,2025-01-29 10:39:31,3
-98.79999999999929,801.6,-379.1999999999998,1458.1,-897.2,276.3,2025-01-29 10:39:31,3
65.20000000000073,833.6,-127.19999999999982,1316.1,-970.2,74.30000000000001,2025-01-29 10:39:31,0.0
37.20000000000073,933.6,-283.1999999999998,1194.1,-947.2,-52.69999999999999,2025-01-29 10:39:31,0.0
113.20000000000071,765.6,-375.1999999999998,971.1,-911.2,-286.7,2025-01-29 10:39:31,0.0
-82.79999999999927,533.6,-95.19999999999982,786.1,-641.2,-429.7,2025-01-29 10:39:31,0.0
-54.79999999999927,673.6,144.80000000000018,583.1,-624.2,-637.7,2025-01-29 10:39:31,7
-10.799999999999272,613.6,-135.19999999999982,301.1,-801.2,-757.7,2025-01-29 10:39:31,7
153.20000000000073,529.6,-435.1999999999998,84.1,-947.2,-915.7,2025-01-29 10:39:31,7
353.2000000000007,661.6,-423.1999999999998,-197.9,-881.2,-1190.7,2025-01-29 10:39:31,7
377.2000000000007,785.6,-387.1999999999998,-430.9,-797.2,-1622.7,2025-01-29 10:39:31,7
289.2000000000007,677.6,-439.1999999999998,-758.9,-807.2,-1993.7,2025-01-29 10:39:31,7
125.20000000000071,645.6,28.800000000000185,-952.9,-692.2,-2341.7,2025-01-29 10:39:31,7
357.2000000000007,585.6,-455.1999999999998,-1215.9,-634.2,-2808.7,2025-01-29 10:39:31,7
265.2000000000007,289.6,-751.1999999999998,-1649.9,-436.2,-3267.7,2025-01-29 10:39:31,7
89.20000000000073,277.6,-1079.1999999999998,-1997.9,-324.2,-3429.7,2025-01-29 10:39:31,7
-78.79999999999927,341.6,-1359.1999999999998,-2502.9,-485.2,-3484.7,2025-01-29 10:39:31,7
-162.79999999999927,157.60000000000002,-1127.1999999999998,-3003.9,-752.2,-3619.7,2025-01-29 10:39:31,7
-86.79999999999927,-210.4,-923.1999999999998,-3303.9,-1054.2,-3712.7,2025-01-29 10:39:31,7
25.200000000000728,-482.4,-1011.1999999999998,-3419.9,-1504.2,-3924.7,2025-01-29 10:39:31,7
33.20000000000073,-766.4,-739.1999999999998,-3447.9,-1928.2,-4051.7,2025-01-29 10:39:31,7
129.20000000000073,-830.4,-287.1999999999998,-3557.9,-2203.2,-3987.7,2025-01-29 10:39:31,7
317.2000000000007,-1010.4,140.80000000000018,-3680.9,-2309.2,-3776.7,2025-01-29 10:39:31,7
725.2000000000007,-1126.4,448.8000000000002,-3828.9,-2088.2,-3657.7,2025-01-29 10:39:31,7
821.2000000000007,-866.4,532.8000000000002,-4045.9,-1615.2,-3538.7,2025-01-29 10:39:31,7
1133.2000000000007,-1198.4,312.8000000000002,-4355.9,-900.2,-3369.7,2025-01-29 10:39:31,7
925.2000000000008,-1870.4,868.8000000000002,-4634.9,28.80000000000001,-3345.7,2025-01-29 10:39:31,7
181.20000000000076,-2250.4,1192.8000000000002,-4725.9,519.8,-3210.7,2025-01-29 10:39:31,7
-342.7999999999993,-2198.4,1052.8000000000002,-4885.9,606.8,-3073.7,2025-01-29 10:39:31,7
-710.7999999999993,-1830.4,852.8000000000002,-4970.9,428.8,-3136.7,2025-01-29 10:39:31,7
-878.7999999999993,-1562.4,776.8000000000002,-4995.9,158.8,-3415.7,2025-01-29 10:39:31,7
-862.7999999999993,-1358.4,856.8000000000002,-5173.9,-230.2,-3886.7,2025-01-29 10:39:31,7
-762.7999999999993,-1078.4,584.8000000000002,-5516.9,-616.2,-4268.7,2025-01-29 10:39:31,7
-610.7999999999993,-834.4,224.80000000000015,-5911.9,-846.2,-4672.7,2025-01-29 10:39:31,7
-338.7999999999993,-1182.4,164.80000000000018,-6396.9,-849.2,-5069.7,2025-01-29 10:39:31,7
-78.79999999999927,-1474.4,316.8000000000002,-6710.9,-895.2,-5332.7,2025-01-29 10:39:31,7
-18.799999999999272,-1754.4,480.8000000000002,-6938.9,-843.2,-5443.7,2025-01-29 10:39:31,7
-54.79999999999927,-1822.4,636.8000000000002,-7136.9,-574.2,-5521.7,2025-01-29 10:39:31,7
89.20000000000073,-2226.4,1284.8000000000002,-7178.9,-264.2,-5645.7,2025-01-29 10:39:31,7
25.200000000000728,-2586.4,1432.8000000000002,-7038.9,-98.2,-5707.7,2025-01-29 10:39:31,7
-330.7999999999993,-2722.4,1228.8000000000002,-6886.9,-103.2,-5652.7,2025-01-29 10:39:31,7
-606.7999999999993,-2562.4,1060.8000000000002,-6742.9,-153.2,-5412.7,2025-01-29 10:39:31,7
-626.7999999999993,-2362.4,892.8000000000002,-6738.9,-237.2,-5116.7,2025-01-29 10:39:31,7
-758.7999999999993,-2282.4,900.8000000000002,-6801.9,-393.2,-4905.7,2025-01-29 10:39:31,7
-726.7999999999993,-2058.4,916.8000000000002,-6881.9,-763.2,-4604.7,2025-01-29 10:39:31,7
-730.7999999999993,-1890.4,1028.8000000000002,-7025.9,-1162.2,-4150.7,2025-01-29 10:39:31,7
-382.7999999999993,-2006.4,620.8000000000002,-7155.9,-1377.2,-3909.7,2025-01-29 10:39:31,7
-142.79999999999927,-2338.4,572.8000000000002,-7288.9,-1423.2,-3765.7,2025-01-29 10:39:31,7
-14.799999999999272,-2310.4,808.8000000000002,-7289.9,-1224.2,-3760.7,2025-01-29 10:39:31,7
-206.79999999999927,-2274.4,656.8000000000002,-7287.9,-1028.2,-3738.7,2025-01-29 10:39:31,7
-386.7999999999993,-2154.4,772.8000000000002,-7319.9,-892.2,-3574.7,2025-01-29 10:39:31,7
-458.7999999999993,-1898.4,808.8000000000002,-7405.9,-832.2,-3268.7,2025-01-29 10:39:31,7
5.200000000000728,-1726.4,524.8000000000002,-7582.9,-913.2,-3063.7,2025-01-29 10:39:31,7
141.20000000000073,-1970.4,568.8000000000002,-7700.9,-670.2,-3015.7,2025-01-29 10:39:31,7
93.20000000000071,-2118.4,916.8000000000002,-7659.9,-135.2,-3103.7,2025-01-29 10:39:31,7
209.20000000000076,-1886.4,1068.8000000000002,-7640.9,359.8,-3240.7,2025-01-29 10:39:31,7
-62.79999999999927,-1450.4,852.8000000000002,-7793.9,685.8,-3355.7,2025-01-29 10:39:31,7
-362.7999999999993,-1386.4,84.80000000000018,-7984.9,629.8,-3449.7,2025-01-29 10:39:31,7
-510.7999999999993,-1714.4,60.80000000000018,-8070.9,430.8,-3569.7,2025-01-29 10:39:31,7
-598.7999999999993,-1826.4,84.80000000000018,-8125.9,154.8,-3825.7,2025-01-29 10:39:31,7
-614.7999999999993,-1806.4,968.8000000000002,-8268.9,-166.2,-4101.7,2025-01-29 10:39:32,7
-590.7999999999993,-1742.4,976.8000000000002,-8438.9,-572.2,-4221.7,2025-01-29 10:39:32,7
-186.79999999999927,-1570.4,1016.8000000000002,-8656.9,-726.2,-4285.7,2025-01-29 10:39:32,7
93.20000000000071,-1522.4,724.8000000000002,-8939.9,-509.2,-4306.7,2025-01-29 10:39:32,7
157.20000000000073,-1798.4,540.8000000000002,-9190.9,-241.2,-4261.7,2025-01-29 10:39:32,7
1.2000000000007276,-2182.4,8.800000000000182,-9217.9,14.800000000000011,-4418.7,2025-01-29 10:39:32,7
1.2000000000007276,-2422.4,-947.1999999999998,-9144.9,335.8,-4666.7,2025-01-29 10:39:32,7
-142.79999999999927,-2034.4,-1063.1999999999998,-8755.9,319.8,-4986.7,2025-01-29 10:39:32,7
-538.7999999999993,-2118.4,-731.1999999999998,-8217.9,-421.2,-5213.7,2025-01-29 10:39:32,7
-294.7999999999993,-2390.4,-567.1999999999998,-7501.9,-1528.2,-5036.7,2025-01-29 10:39:32,7
477.2000000000007,-2010.4,-1507.1999999999998,-7028.9,-1980.2,-4842.7,2025-01-29 10:39:32,7
697.2000000000007,-1450.4,-1687.1999999999998,-7007.9,-1776.2,-4524.7,2025-01-29 10:39:32,7
1013.2000000000008,-1150.4,-1011.1999999999998,-7007.9,-866.2,-4353.7,2025-01-29 10:39:32,7
813.2000000000007,-938.4,-623.1999999999998,-7086.9,-35.19999999999999,-4371.7,2025-01-29 10:39:32,7
173.20000000000073,-1058.4,-1127.1999999999998,-7387.9,161.8,-4029.7,2025-01-29 10:39:32,7
-38.79999999999927,-1118.4,-1323.1999999999998,-7567.9,-393.2,-3038.7,2025-01-29 10:39:32,7
697.2000000000007,-1194.4,-1447.1999999999998,-7674.9,-436.2,-2892.7,2025-01-29 10:39:32,7
557.2000000000007,-1014.4,-1499.1999999999998,-7780.9,75.80000000000001,-3066.7,2025-01-29 10:39:32,7
105.20000000000071,-298.4,-1515.1999999999998,-7623.9,514.8,-2743.7,2025-01-29 10:39:32,7
301.2000000000007,865.6,-1723.1999999999998,-7637.9,993.8,-2310.7,2025-01-29 10:39:32,7
817.2000000000007,1893.6,-1995.2,-8117.9,1611.8,-2208.7,2025-01-29 10:39:32,7
1509.2000000000007,2717.6,-2027.2,-8847.9,2047.8,-2640.7,2025-01-29 10:39:32,7
1825.2000000000007,2945.6,-1755.1999999999998,-9627.9,2023.8,-3404.7,2025-01-29 10:39:32,7
1933.2000000000007,2873.6,-1787.1999999999998,-10286.9,2072.8,-4203.7,2025-01-29 10:39:32,7
2201.2000000000007,2321.6,-1783.1999999999998,-10777.9,2043.8,-4968.7,2025-01-29 10:39:32,7
1901.2000000000007,2181.6,-1303.1999999999998,-11175.9,1785.8,-5576.7,2025-01-29 10:39:32,7
1757.2000000000007,2269.6,-519.1999999999998,-11380.9,1384.8,-5972.7,2025-01-29 10:39:32,7
1681.2000000000007,2049.6,24.800000000000185,-11272.9,1291.8,-6294.7,2025-01-29 10:39:32,7
1537.2000000000007,1837.6,-223.19999999999985,-11226.9,1548.8,-6774.7,2025-01-29 10:39:32,7
1065.2000000000007,2097.6,-811.1999999999998,-11420.9,1468.8,-6993.7,2025-01-29 10:39:32,7
541.2000000000007,2493.6,-1635.1999999999998,-11768.9,1030.8,-7009.7,2025-01-29 10:39:32,7
53.20000000000073,2649.6,-1539.1999999999998,-11952.9,1107.8,-6976.7,2025-01-29 10:39:32,7
101.20000000000071,2413.6,-1935.2,-12045.9,1322.8,-7056.7,2025-01-29 10:39:32,7
-398.7999999999993,1657.6,-2067.2,-12150.9,1402.8,-7212.7,2025-01-29 10:39:32,7
-654.7999999999993,1221.6,-1767.1999999999998,-12195.9,911.8,-7121.7,2025-01-29 10:39:32,7
-342.7999999999993,933.6,-1159.1999999999998,-12294.9,-260.2,-7000.7,2025-01-29 10:39:32,7
-206.79999999999927,1389.6,-463.1999999999998,-12322.9,-1176.2,-6901.7,2025-01-29 10:39:32,7
-50.79999999999927,2109.6,-531.1999999999998,-12329.9,-1230.2,-6758.7,2025-01-29 10:39:32,7
813.2000000000007,2397.6,-619.1999999999998,-12295.9,-1283.2,-6824.7,2025-01-29 10:39:32,7
1181.2000000000007,2405.6,-779.1999999999998,-12284.9,-1372.2,-7182.7,2025-01-29 10:39:32,7
1265.2000000000007,2113.6,-207.19999999999985,-12156.9,-1491.2,-7678.7,2025-01-29 10:39:32,7
1149.2000000000007,1597.6,-183.19999999999985,-11955.9,-1841.2,-8067.7,2025-01-29 10:39:32,7
1285.2000000000007,1337.6,68.80000000000018,-11743.9,-1920.2,-8193.7,2025-01-29 10:39:32,7
1257.2000000000007,1257.6,-51.19999999999982,-11404.9,-1785.2,-8068.7,2025-01-29 10:39:32,7
1681.2000000000007,1473.6,-287.1999999999998,-11152.9,-1480.2,-8033.7,2025-01-29 10:39:32,7
1757.2000000000007,1941.6,-595.1999999999998,-10993.9,-886.2,-8210.7,2025-01-29 10:39:32,7
1377.2000000000007,2477.6,-475.1999999999998,-10889.9,-163.2,-8443.7,2025-01-29 10:39:32,7
925.2000000000008,2737.6,-979.1999999999998,-10967.9,78.80000000000001,-8523.7,2025-01-29 10:39:32,7
1089.2000000000007,3113.6,-1411.1999999999998,-11016.9,-216.2,-8662.7,2025-01-29 10:39:32,7
1581.2000000000007,3289.6,-1943.2,-11129.9,-552.2,-8924.7,2025-01-29 10:39:32,7
1917.2000000000007,3313.6,-2275.2,-11388.9,-710.2,-9304.7,2025-01-29 10:39:32,7
1721.2000000000007,3113.6,-1951.2,-11653.9,-491.2,-9547.7,2025-01-29 10:39:32,7
1209.2000000000007,2817.6,-1307.1999999999998,-11852.9,83.80000000000001,-9568.7,2025-01-29 10:39:32,7
425.2000000000007,2185.6,-411.1999999999998,-11775.9,505.8,-9475.7,2025-01-29 10:39:32,7
117.20000000000071,1757.6,100.80000000000018,-11495.9,19.80000000000001,-9377.7,2025-01-29 10:39:32,7
-142.79999999999927,1585.6,236.80000000000015,-11067.9,-615.2,-9055.7,2025-01-29 10:39:32,7
261.2000000000007,1297.6,164.80000000000018,-10396.9,-758.2,-8601.7,2025-01-29 10:39:32,7
529.2000000000007,825.6,296.8000000000002,-9572.9,-471.2,-8382.7,2025-01-29 10:39:32,7
193.20000000000076,409.6,544.8000000000002,-8816.9,-6.199999999999989,-8297.7,2025-01-29 10:39:32,7
-642.7999999999993,-174.39999999999998,636.8000000000002,-8052.9,237.8,-7917.7,2025-01-29 10:39:32,7
-1398.7999999999993,-78.39999999999998,1192.8000000000002,-7068.9,-277.2,-7111.7,2025-01-29 10:39:32,7
-1314.7999999999993,113.60000000000002,1220.8000000000002,-6366.9,-1236.2,-6472.7,2025-01-29 10:39:33,7
-990.7999999999992,305.6,1404.8000000000002,-5665.9,-1872.2,-6065.7,2025-01-29 10:39:33,7
-518.7999999999993,257.6,1080.8000000000002,-4968.9,-1763.2,-5698.7,2025-01-29 10:39:33,7
-210.79999999999927,57.60000000000002,900.8000000000002,-4374.9,-999.2,-5272.7,2025-01-29 10:39:33,7
-538.7999999999993,405.6,848.8000000000002,-3926.9,163.8,-4870.7,2025-01-29 10:39:33,7
-1318.7999999999993,1157.6,860.8000000000002,-3501.9,851.8,-4254.7,2025-01-29 10:39:33,7
-1674.7999999999993,1225.6,140.80000000000018,-3311.9,689.8,-3455.7,2025-01-29 10:39:33,7
-1070.7999999999993,1445.6,-823.1999999999998,-3103.9,6.800000000000011,-3000.7,2025-01-29 10:39:33,7
-206.79999999999927,1757.6,-683.1999999999998,-3017.9,-1077.2,-2994.7,2025-01-29 10:39:33,7
441.2000000000007,1821.6,-159.19999999999982,-2992.9,-1785.2,-3412.7,2025-01-29 10:39:33,7
773.2000000000007,1649.6,312.8000000000002,-2943.9,-1537.2,-3589.7,2025-01-29 10:39:33,7
953.2000000000008,1537.6,212.80000000000015,-2986.9,-842.2,-3894.7,2025-01-29 10:39:33,7
573.2000000000007,1249.6,144.80000000000018,-2980.9,-211.2,-4157.7,2025-01-29 10:39:33,7
249.20000000000076,877.6,72.80000000000018,-3202.9,-131.2,-4380.7,2025-01-29 10:39:33,7
-50.79999999999927,981.6,248.80000000000015,-3342.9,-823.2,-4509.7,2025-01-29 10:39:33,7
389.2000000000007,1249.6,-651.1999999999998,-3835.9,-1577.2,-4804.7,2025-01-29 10:39:33,7
629.2000000000007,1477.6,-759.1999999999998,-4478.9,-1803.2,-4988.7,2025-01-29 10:39:33,7
865.2000000000007,1009.6,-467.1999999999998,-5129.9,-1527.2,-5106.7,2025-01-29 10:39:33,7
1121.2000000000007,233.6,-239.19999999999985,-5617.9,-952.2,-5572.7,2025-01-29 10:39:33,7
637.2000000000007,-758.4,-431.1999999999998,-6025.9,-505.2,-6177.7,2025-01-29 10:39:33,7
29.200000000000728,-1262.4,4.800000000000182,-6294.9,-468.2,-6407.7,2025-01-29 10:39:33,7
-166.79999999999927,-1510.4,-31.199999999999815,-6757.9,-747.2,-6396.7,2025-01-29 10:39:33,7
-126.79999999999929,-1242.4,-347.1999999999998,-7430.9,-900.2,-6143.7,2025-01-29 10:39:33,7
53.20000000000073,-1534.4,-831.1999999999998,-8056.9,-326.2,-6020.7,2025-01-29 10:39:33,7
-214.79999999999927,-1590.4,-815.1999999999998,-8345.9,523.8,-5875.7,2025-01-29 10:39:33,7
-662.7999999999993,-2018.4,-115.19999999999982,-8254.9,907.8,-5831.7,2025-01-29 10:39:33,7
-978.7999999999992,-2814.4,444.8000000000002,-7895.9,633.8,-6031.7,2025-01-29 10:39:33,7
-1542.7999999999993,-3310.4,1080.8000000000002,-7253.9,-18.19999999999999,-6344.7,2025-01-29 10:39:33,7
-2142.7999999999997,-3726.4,1076.8000000000002,-6539.9,-835.2,-6255.7,2025-01-29 10:39:33,7
-2126.7999999999997,-3390.4,1044.8000000000002,-5978.9,-1701.2,-5669.7,2025-01-29 10:39:33,7
-1238.7999999999993,-2762.4,1320.8000000000002,-5655.9,-2348.2,-5192.7,2025-01-29 10:39:33,7
-570.7999999999993,-2082.4,1344.8000000000002,-5431.9,-2566.2,-4998.7,2025-01-29 10:39:33,7
173.20000000000073,-2034.4,1636.8000000000002,-5434.9,-2315.2,-4752.7,2025-01-29 10:39:33,7
413.2000000000007,-2174.4,1828.8,-5330.9,-1614.2,-4445.7,2025-01-29 10:39:33,7
601.2000000000007,-2278.4,1672.8000000000002,-5191.9,-495.2,-4048.7,2025-01-29 10:39:33,7
733.2000000000007,-2194.4,1476.8000000000002,-4931.9,310.8,-3930.7,2025-01-29 10:39:33,7
225.20000000000076,-1978.4,1164.8000000000002,-4720.9,513.8,-3821.7,2025-01-29 10:39:33,7
-314.7999999999993,-1838.4,1060.8000000000002,-4568.9,694.8,-3616.7,2025-01-29 10:39:33,7
-514.7999999999993,-1810.4,1232.8000000000002,-4435.9,780.8,-3361.7,2025-01-29 10:39:33,7
-558.7999999999993,-1930.4,1356.8000000000002,-4327.9,638.8,-3336.7,2025-01-29 10:39:33,7
-966.7999999999992,-2258.4,884.8000000000002,-4197.9,425.8,-3068.7,2025-01-29 10:39:33,7
-650.7999999999993,-2314.4,740.8000000000002,-3840.9,456.8,-2943.7,2025-01-29 10:39:33,7
-598.7999999999993,-2074.4,1096.8000000000002,-3471.9,234.8,-2913.7,2025-01-29 10:39:33,7
-534.7999999999993,-1918.4,1328.8000000000002,-3152.9,48.80000000000001,-2883.7,2025-01-29 10:39:33,7
-490.7999999999993,-1714.4,1284.8000000000002,-2990.9,145.8,-2838.7,2025-01-29 10:39:33,7
-426.7999999999993,-1630.4,1356.8000000000002,-2932.9,315.8,-2608.7,2025-01-29 10:39:33,7
-402.7999999999993,-1622.4,1636.8000000000002,-2978.9,456.8,-2423.7,2025-01-29 10:39:33,7
-494.7999999999993,-2030.4,1624.8000000000002,-2915.9,465.8,-2209.7,2025-01-29 10:39:33,7
-286.7999999999993,-2338.4,1584.8000000000002,-2683.9,554.8,-2032.7,2025-01-29 10:39:33,7
-282.7999999999993,-2546.4,1720.8000000000002,-2341.9,699.8,-1966.7,2025-01-29 10:39:33,7
-406.7999999999993,-2374.4,1684.8000000000002,-2067.9,760.8,-1856.7,2025-01-29 10:39:33,7
-538.7999999999993,-2154.4,1316.8000000000002,-1840.9,650.8,-1618.7,2025-01-29 10:39:33,7
-502.7999999999993,-1802.4,1588.8000000000002,-1844.9,682.8,-1317.7,2025-01-29 10:39:33,7
-450.7999999999993,-1078.4,1412.8000000000002,-1960.9,622.8,-1108.7,2025-01-29 10:39:33,7
-730.7999999999993,-790.4,1372.8000000000002,-2262.9,570.8,-986.7,2025-01-29 10:39:33,7
-914.7999999999992,-1134.4,1492.8000000000002,-2462.9,479.8,-894.7,2025-01-29 10:39:33,7
-718.7999999999993,-1510.4,1632.8000000000002,-2361.9,224.8,-899.7,2025-01-29 10:39:33,7
-674.7999999999993,-1754.4,1824.8,-2246.9,62.80000000000001,-995.7,2025-01-29 10:39:33,7
-578.7999999999993,-1574.4,1784.8000000000002,-2131.9,-202.2,-830.7,2025-01-29 10:39:33,7
-242.79999999999927,-1210.4,1568.8000000000002,-2215.9,-18.19999999999999,-729.7,2025-01-29 10:39:33,7
-66.79999999999927,-910.4,1752.8000000000002,-2422.9,568.8,-859.7,2025-01-29 10:39:33,7
-262.7999999999993,-962.4,2024.8,-2615.9,1097.8,-979.7,2025-01-29 10:39:33,7
-610.7999999999993,-1134.4,2092.8,-2814.9,1181.8,-1175.7,2025-01-29 10:39:33,7
-1078.7999999999993,-1190.4,1636.8000000000002,-3077.9,985.8,-1332.7,2025-01-29 10:39:34,7
-1310.7999999999993,-1178.4,1472.8000000000002,-3150.9,392.8,-1351.7,2025-01-29 10:39:34,7
-1014.7999999999992,-1462.4,1412.8000000000002,-3249.9,-125.2,-1385.7,2025-01-29 10:39:34,7
-642.7999999999993,-1490.4,1408.8000000000002,-3437.9,-165.2,-1709.7,2025-01-29 10:39:34,7
-690.7999999999993,-1690.4,1444.8000000000002,-3728.9,-17.19999999999999,-2029.7,2025-01-29 10:39:34,7
-1286.7999999999993,-2142.4,1856.8,-3955.9,240.8,-2328.7,2025-01-29 10:39:34,7
-1826.7999999999995,-2318.4,2208.8,-4028.9,185.8,-2319.7,2025-01-29 10:39:34,7
-1638.7999999999993,-1690.4,1388.8000000000002,-3735.9,-198.2,-2346.7,2025-01-29 10:39:34,7
-1438.7999999999993,-2022.4,200.80000000000015,-3425.9,-150.2,-2621.7,2025-01-29 10:39:34,7
-1466.7999999999993,-3822.4,672.8000000000002,-2168.9,370.8,-2970.7,2025-01-29 10:39:34,7
-1806.7999999999995,-5142.4,432.8000000000002,-485.9,471.8,-3267.7,2025-01-29 10:39:34,7
-2462.7999999999997,-5738.4,-491.1999999999998,756.1,512.8,-3124.7,2025-01-29 10:39:34,7
-3682.7999999999993,-5626.4,-743.1999999999998,1446.1,38.80000000000001,-2267.7,2025-01-29 10:39:34,7
-4774.799999999999,-4138.4,-1275.1999999999998,1854.1,-997.2,-354.7,2025-01-29 10:39:34,1
-4206.799999999999,-1958.4,-1595.1999999999998,1392.1,-2367.2,1792.3,2025-01-29 10:39:34,1
-2250.7999999999997,-642.4,-1971.2,222.1,-3682.2,2817.3,2025-01-29 10:39:34,1
-1586.7999999999993,-674.4,-1371.1999999999998,-632.9,-4353.2,3540.3,2025-01-29 10:39:34,1
-322.7999999999993,-950.4,-1067.1999999999998,-900.9,-4401.2,4066.3,2025-01-29 10:39:34,1
1129.2000000000007,-934.4,-1155.1999999999998,-720.9,-3926.2,4264.3,2025-01-29 10:39:34,1
2385.2000000000007,-546.4,-1067.1999999999998,-357.9,-3460.2,3909.3,2025-01-29 10:39:34,1
3529.2000000000007,421.6,-1207.1999999999998,-201.9,-2755.2,3130.3,2025-01-29 10:39:34,1
4229.200000000001,1189.6,-1279.1999999999998,-466.9,-1787.2,2247.3,2025-01-29 10:39:34,1
3801.2000000000007,2569.6,-1163.1999999999998,-969.9,-469.2,1343.3,2025-01-29 10:39:34,1
2685.2000000000007,3081.6,-967.1999999999998,-1745.9,1304.8,632.3,2025-01-29 10:39:34,1
1273.2000000000007,2913.6,-1331.1999999999998,-2359.9,2541.8,336.3,2025-01-29 10:39:34,1
-418.7999999999993,1833.6,-1783.1999999999998,-2653.9,2942.8,529.3,2025-01-29 10:39:34,1
-1334.7999999999993,421.6,-1639.1999999999998,-2757.9,2352.8,912.3,2025-01-29 10:39:34,1
-1850.7999999999995,-970.4,-695.1999999999998,-2473.9,1105.8,1261.3,2025-01-29 10:39:34,1
-2066.7999999999997,-1650.4,-3.199999999999818,-2011.9,-277.2,1929.3,2025-01-29 10:39:34,1
-1674.7999999999993,-1294.4,688.8000000000002,-1589.9,-1421.2,2722.3,2025-01-29 10:39:34,1
-646.7999999999993,-394.4,660.8000000000002,-1263.9,-2278.2,3194.3,2025-01-29 10:39:34,1
345.2000000000007,689.6,928.8000000000002,-927.9,-2713.2,3360.3,2025-01-29 10:39:34,1
905.2000000000008,1629.6,1100.8000000000002,-570.9,-2578.2,3405.3,2025-01-29 10:39:34,1
1849.2000000000007,1973.6,1236.8000000000002,-213.9,-1737.2,3101.3,2025-01-29 10:39:34,1
2257.2000000000007,1957.6,1228.8000000000002,152.1,-651.2,2507.3,2025-01-29 10:39:34,1
1941.2000000000007,1633.6,1180.8000000000002,435.1,535.8,1954.3,2025-01-29 10:39:34,1
941.2000000000008,1649.6,1436.8000000000002,610.1,1381.8,1807.3,2025-01-29 10:39:34,1
-54.79999999999927,1881.6,1044.8000000000002,743.1,1476.8,2021.3,2025-01-29 10:39:34,1
-138.79999999999927,2245.6,620.8000000000002,712.1,974.8,2162.3,2025-01-29 10:39:34,1
-86.79999999999927,2573.6,444.8000000000002,569.1,-59.19999999999999,1971.3,2025-01-29 10:39:34,1
73.20000000000073,2477.6,324.8000000000002,555.1,-995.2,1592.3,2025-01-29 10:39:34,1
217.20000000000076,2321.6,520.8000000000002,600.1,-1666.2,1157.3,2025-01-29 10:39:34,1
553.2000000000007,1997.6,924.8000000000002,741.1,-1854.2,583.3,2025-01-29 10:39:34,1
797.2000000000007,1581.6,1520.8000000000002,845.1,-1764.2,76.30000000000001,2025-01-29 10:39:34,1
981.2000000000008,1357.6,1768.8000000000002,1030.1,-1477.2,-130.7,2025-01-29 10:39:34,1
1213.2000000000007,1673.6,1760.8000000000002,1087.1,-1105.2,-477.7,2025-01-29 10:39:34,1
701.2000000000007,1993.6,1380.8000000000002,1027.1,-997.2,-597.7,2025-01-29 10:39:34,1
645.2000000000007,2485.6,1336.8000000000002,937.1,-1006.2,-476.7,2025-01-29 10:39:34,1
817.2000000000007,2301.6,1744.8000000000002,839.1,-1113.2,-543.7,2025-01-29 10:39:34,1
729.2000000000007,1505.6,2288.8,912.1,-992.2,-811.7,2025-01-29 10:39:34,1
621.2000000000007,1157.6,2640.8,1097.1,-310.2,-1067.7,2025-01-29 10:39:34,1
117.20000000000071,1645.6,2256.8,1333.1,435.8,-1312.7,2025-01-29 10:39:34,1
-774.7999999999993,2033.6,1488.8000000000002,1362.1,1156.8,-1288.7,2025-01-29 10:39:34,1
-1586.7999999999993,2245.6,868.8000000000002,1279.1,1284.8,-1047.7,2025-01-29 10:39:34,1
-1914.7999999999995,1177.6,556.8000000000002,1266.1,910.8,-776.7,2025-01-29 10:39:34,1
-2318.7999999999997,-718.4,1200.8000000000002,1536.1,212.8,-295.7,2025-01-29 10:39:34,1
-2058.7999999999997,-1870.4,2092.8,2157.1,-98.2,266.3,2025-01-29 10:39:34,1
-1542.7999999999993,-1358.4,1912.8,2937.1,95.8,715.3,2025-01-29 10:39:34,1
-1302.7999999999993,109.60000000000002,1788.8000000000002,3432.1,674.8,958.3,2025-01-29 10:39:34,1
-2014.7999999999995,1333.6,1320.8000000000002,3884.1,1542.8,1201.3,2025-01-29 10:39:35,1
-2666.7999999999997,1513.6,96.80000000000018,3859.1,2941.8,1691.3,2025-01-29 10:39:35,1
-3254.7999999999997,1017.6,-1267.1999999999998,3561.1,3824.8,2037.3,2025-01-29 10:39:35,1
-4006.7999999999993,1053.6,-2311.2,2947.1,3961.8,2379.3,2025-01-29 10:39:35,1
-4314.799999999999,1701.6,-2731.2,2102.1,2895.8,2692.3,2025-01-29 10:39:35,1
-4406.799999999999,2945.6,-2991.2,1061.1,1317.8,2807.3,2025-01-29 10:39:35,1
-3802.7999999999993,3789.6,-2795.2,46.1,-732.2,2681.3,2025-01-29 10:39:35,1
-2218.7999999999997,3849.6,-1183.1999999999998,-541.9,-2997.2,1904.3,2025-01-29 10:39:35,1
-562.7999999999993,2889.6,-759.1999999999998,-618.9,-4720.2,414.3,2025-01-29 10:39:35,1
1193.2000000000007,2093.6,-675.1999999999998,-632.9,-5398.2,-849.7,2025-01-29 10:39:35,1
2485.2000000000007,1205.6,32.80000000000018,-434.9,-4616.2,-1674.7,2025-01-29 10:39:35,1
2937.2000000000007,237.6,1152.8000000000002,4.099999999999994,-3218.2,-2150.7,2025-01-29 10:39:35,1
3777.2000000000007,-238.4,724.8000000000002,140.1,-1790.2,-2254.7,2025-01-29 10:39:35,1
3629.2000000000007,-1030.4,612.8000000000002,-178.9,-525.2,-2270.7,2025-01-29 10:39:35,1
2769.2000000000007,-1218.4,-123.19999999999982,-115.9,1264.8,-1673.7,2025-01-29 10:39:35,1
2445.2000000000007,-1374.4,-1611.1999999999998,-187.9,3126.8,-1172.7,2025-01-29 10:39:35,1
1361.2000000000007,-1462.4,-1967.2,-328.9,4086.8,-1369.7,2025-01-29 10:39:35,1
-150.79999999999927,-1630.4,-1503.1999999999998,-50.900000000000006,3318.8,-1640.7,2025-01-29 10:39:35,1
-994.7999999999992,-1366.4,-1639.1999999999998,308.1,1942.8,-1694.7,2025-01-29 10:39:35,1
-1350.7999999999993,-1130.4,-1255.1999999999998,623.1,136.8,-1638.7,2025-01-29 10:39:35,1
-1146.7999999999993,-886.4,-1131.1999999999998,656.1,-1689.2,-1521.7,2025-01-29 10:39:35,1
-318.7999999999993,-518.4,-875.1999999999998,424.1,-2918.2,-1484.7,2025-01-29 10:39:35,1
909.2000000000008,-270.4,-575.1999999999998,251.1,-3182.2,-1615.7,2025-01-29 10:39:35,1
1541.2000000000007,-146.39999999999998,-291.1999999999998,94.1,-2671.2,-1981.7,2025-01-29 10:39:35,1
1733.2000000000007,-170.39999999999998,-107.19999999999982,-91.9,-1809.2,-2168.7,2025-01-29 10:39:35,1
1789.2000000000007,-158.39999999999998,240.80000000000015,-290.9,-693.2,-2328.7,2025-01-29 10:39:35,1
1609.2000000000007,-310.4,820.8000000000002,-555.9,237.8,-2745.7,2025-01-29 10:39:35,1
669.2000000000007,-818.4,816.8000000000002,-652.9,549.8,-3055.7,2025-01-29 10:39:35,1
-138.79999999999927,-1222.4,1040.8000000000002,-760.9,557.8,-3038.7,2025-01-29 10:39:35,1
-738.7999999999993,-1246.4,1068.8000000000002,-791.9,285.8,-2849.7,2025-01-29 10:39:35,1
-678.7999999999993,-1246.4,900.8000000000002,-931.9,-272.2,-2673.7,2025-01-29 10:39:35,1
-598.7999999999993,-1190.4,1108.8000000000002,-1035.9,-851.2,-2488.7,2025-01-29 10:39:35,1
9.200000000000728,-1418.4,1312.8000000000002,-1165.9,-1035.2,-2144.7,2025-01-29 10:39:35,1
565.2000000000007,-1818.4,1412.8000000000002,-1147.9,-621.2,-1908.7,2025-01-29 10:39:35,1
773.2000000000007,-2022.4,1472.8000000000002,-1059.9,147.8,-1729.7,2025-01-29 10:39:35,1
569.2000000000007,-2202.4,1720.8000000000002,-929.9,951.8,-1554.7,2025-01-29 10:39:35,1
305.2000000000007,-2186.4,1900.8,-797.9,1351.8,-1229.7,2025-01-29 10:39:35,1
-86.79999999999927,-1954.4,1784.8000000000002,-714.9,1482.8,-867.7,2025-01-29 10:39:35,1
-390.7999999999993,-1346.4,1264.8000000000002,-829.9,1278.8,-550.7,2025-01-29 10:39:35,1
-726.7999999999993,-990.4,1408.8000000000002,-1046.9,957.8,-242.7,2025-01-29 10:39:35,1
-410.7999999999993,-1074.4,756.8000000000002,-1438.9,717.8,37.30000000000001,2025-01-29 10:39:35,1
-450.7999999999993,-1142.4,1228.8000000000002,-1653.9,554.8,158.3,2025-01-29 10:39:35,1
-302.7999999999993,-1134.4,912.8000000000002,-1862.9,405.8,37.30000000000001,2025-01-29 10:39:35,1
-322.7999999999993,-862.4,1108.8000000000002,-2025.9,436.8,-20.69999999999999,2025-01-29 10:39:35,1
-254.79999999999927,-614.4,1200.8000000000002,-2161.9,477.8,135.3,2025-01-29 10:39:35,1
-22.799999999999272,-658.4,852.8000000000002,-2461.9,996.8,253.3,2025-01-29 10:39:35,1
-126.79999999999929,-1578.4,776.8000000000002,-2872.9,1627.8,129.3,2025-01-29 10:39:35,1
-202.79999999999927,-1990.4,1208.8000000000002,-2937.9,1630.8,-72.69999999999999,2025-01-29 10:39:35,1
-670.7999999999993,-2154.4,1352.8000000000002,-2774.9,1354.8,-245.7,2025-01-29 10:39:35,1
-726.7999999999993,-1486.4,1084.8000000000002,-2548.9,1081.8,-227.7,2025-01-29 10:39:35,1
29.200000000000728,-498.4,428.8000000000002,-2552.9,976.8,-544.7,2025-01-29 10:39:35,1
-10.799999999999272,-154.39999999999998,232.80000000000015,-2838.9,1265.8,-906.7,2025-01-29 10:39:35,1
-530.7999999999993,-938.4,-183.19999999999985,-3366.9,1400.8,-889.7,2025-01-29 10:39:35,1
-1358.7999999999993,-1662.4,288.8000000000002,-3898.9,1027.8,-819.7,2025-01-29 10:39:35,1
-2478.7999999999997,-1878.4,1416.8000000000002,-3964.9,742.8,-641.7,2025-01-29 10:39:35,1
-3374.7999999999997,-2094.4,1788.8000000000002,-4033.9,388.8,-227.7,2025-01-29 10:39:35,1
-2834.7999999999997,-2422.4,1496.8000000000002,-4135.9,-358.2,198.3,2025-01-29 10:39:36,1
-1390.7999999999993,-2326.4,216.80000000000015,-3645.9,-598.2,-214.7,2025-01-29 10:39:36,1
-1226.7999999999993,-1702.4,-1023.1999999999998,-3037.9,294.8,-926.7,2025-01-29 10:39:36,1
-1802.7999999999995,-1898.4,-1311.1999999999998,-2085.9,1241.8,-974.7,2025-01-29 10:39:36,1
-2630.7999999999997,-2074.4,-1375.1999999999998,-1104.9,1227.8,-710.7,2025-01-29 10:39:36,1
-3078.7999999999997,-2022.4,-1663.1999999999998,-415.9,372.8,-358.7,2025-01-29 10:39:36,1
-3538.7999999999997,-2238.4,-2011.2,-12.900000000000006,-1362.2,321.3,2025-01-29 10:39:36,1
-2670.7999999999997,-2854.4,-2023.2,611.1,-3027.2,881.3,2025-01-29 10:39:36,1
-1350.7999999999993,-2938.4,-1991.2,1238.1,-4111.2,984.3,2025-01-29 10:39:36,1
1849.2000000000007,-474.4,-1123.1999999999998,735.1,-5639.2,2246.3,2025-01-29 10:39:36,1
4137.200000000001,1233.6,-1311.1999999999998,-28.90000000000001,-4818.2,2342.3,2025-01-29 10:39:36,1
5193.200000000001,2641.6,-1631.1999999999998,-702.9,-2915.2,1891.3,2025-01-29 10:39:36,1
4661.200000000001,3561.6,-1727.1999999999998,-1196.9,99.8,1485.3,2025-01-29 10:39:36,1
3701.2000000000007,3397.6,-915.1999999999998,-1376.9,3000.8,872.3,2025-01-29 10:39:36,1
2121.2000000000007,2469.6,-963.1999999999998,-1083.9,4256.8,223.3,2025-01-29 10:39:36,1
569.2000000000007,1721.6,-1651.1999999999998,-960.9,4132.8,-76.69999999999999,2025-01-29 10:39:36,1
-258.7999999999993,1065.6,-1851.2,-1145.9,2653.8,-151.7,2025-01-29 10:39:36,1
-718.7999999999993,1021.6,-1207.1999999999998,-1245.9,828.8,84.30000000000001,2025-01-29 10:39:36,1
-598.7999999999993,1013.6,-1367.1999999999998,-1272.9,-355.2,375.3,2025-01-29 10:39:36,1
-198.79999999999927,789.6,-1727.1999999999998,-1425.9,-746.2,645.3,2025-01-29 10:39:36,1
-142.79999999999927,413.6,-915.1999999999998,-1370.9,-1089.2,763.3,2025-01-29 10:39:36,1
-42.79999999999927,201.6,-499.1999999999998,-1164.9,-1437.2,1110.3,2025-01-29 10:39:36,1
269.2000000000007,321.6,140.80000000000018,-868.9,-1647.2,1471.3,2025-01-29 10:39:36,1
929.2000000000008,489.6,644.8000000000002,-461.9,-1693.2,1530.3,2025-01-29 10:39:36,1
1309.2000000000007,857.6,1008.8000000000002,41.1,-1375.2,1412.3,2025-01-29 10:39:36,1
1349.2000000000007,1109.6,868.8000000000002,353.1,-931.2,1242.3,2025-01-29 10:39:36,1
969.2000000000008,1341.6,1004.8000000000002,505.1,-474.2,1127.3,2025-01-29 10:39:36,1
453.2000000000007,1525.6,912.8000000000002,572.1,-420.2,1154.3,2025-01-29 10:39:36,1
329.2000000000007,1521.6,692.8000000000002,619.1,-649.2,1250.3,2025-01-29 10:39:36,1
245.20000000000076,1625.6,392.8000000000002,657.1,-847.2,1244.3,2025-01-29 10:39:36,1
377.2000000000007,1661.6,624.8000000000002,716.1,-1055.2,1098.3,2025-01-29 10:39:36,1
577.2000000000007,1777.6,432.8000000000002,823.1,-1153.2,862.3,2025-01-29 10:39:36,1
777.2000000000007,2005.6,688.8000000000002,861.1,-1314.2,562.3,2025-01-29 10:39:36,1
917.2000000000008,1949.6,1076.8000000000002,897.1,-1246.2,240.3,2025-01-29 10:39:36,1
989.2000000000008,1545.6,1404.8000000000002,889.1,-810.2,19.30000000000001,2025-01-29 10:39:36,1
1157.2000000000007,1329.6,1728.8000000000002,959.1,-285.2,-129.7,2025-01-29 10:39:36,1
853.2000000000007,1149.6,1904.8,1220.1,410.8,-269.7,2025-01-29 10:39:36,1
221.20000000000076,1121.6,1932.8,1619.1,953.8,-203.7,2025-01-29 10:39:36,1
-190.79999999999927,1285.6,1404.8000000000002,1935.1,1069.8,-103.7,2025-01-29 10:39:36,1
-278.7999999999993,1677.6,268.8000000000002,1942.1,341.8,-220.7,2025-01-29 10:39:36,1
-518.7999999999993,2137.6,260.8000000000002,1808.1,-493.2,-562.7,2025-01-29 10:39:36,1
-642.7999999999993,1969.6,332.8000000000002,1630.1,-779.2,-586.7,2025-01-29 10:39:36,1
-494.7999999999993,1685.6,1216.8000000000002,1456.1,-840.2,-514.7,2025-01-29 10:39:36,1
-618.7999999999993,997.6,1716.8000000000002,1513.1,-339.2,-586.7,2025-01-29 10:39:36,1
-1390.7999999999993,381.6,2208.8,1698.1,160.8,-295.7,2025-01-29 10:39:36,1
-1894.7999999999995,213.6,1880.8,1993.1,321.8,238.3,2025-01-29 10:39:36,1
-1950.7999999999995,-74.39999999999998,1856.8,2174.1,66.80000000000001,667.3,2025-01-29 10:39:36,1
-2338.7999999999997,-334.4,2132.8,2381.1,-462.2,1019.3,2025-01-29 10:39:36,1
-2154.7999999999997,-498.4,2116.8,2808.1,-543.2,1497.3,2025-01-29 10:39:36,1
-1790.7999999999993,-226.4,2184.8,3450.1,-501.2,2067.3,2025-01-29 10:39:36,1
-1426.7999999999993,-26.399999999999977,2264.8,3773.1,-422.2,2625.3,2025-01-29 10:39:36,1
-1122.7999999999993,537.6,2048.8,4131.1,93.8,3402.3,2025-01-29 10:39:36,1
-1114.7999999999993,1109.6,1076.8000000000002,3865.1,1680.8,4060.3,2025-01-29 10:39:36,1
-722.7999999999993,809.6,76.80000000000018,3442.1,3311.8,4302.3,2025-01-29 10:39:36,1
-1682.7999999999993,1249.6,-1183.1999999999998,3156.1,4183.8,4278.3,2025-01-29 10:39:36,1
-2454.7999999999997,2621.6,-2595.2,2495.1,4402.8,4206.3,2025-01-29 10:39:36,1
-3090.7999999999997,4325.6,-4115.2,1367.1,3805.8,3965.3,2025-01-29 10:39:36,1
-3018.7999999999997,5261.6,-4287.2,124.1,2151.8,3263.3,2025-01-29 10:39:36,1
-2382.7999999999997,5281.6,-3131.2,-726.9,-183.2,1957.3,2025-01-29 10:39:36,1
-1430.7999999999993,4121.6,-2807.2,-1186.9,-2486.2,171.3,2025-01-29 10:39:36,1
-510.7999999999993,2061.6,-2303.2,-1385.9,-3706.2,-898.7,2025-01-29 10:39:36,1
705.2000000000007,901.6,-703.1999999999998,-946.9,-3986.2,-1317.7,2025-01-29 10:39:36,1
1821.2000000000007,277.6,360.8000000000002,-353.9,-3497.2,-1766.7,2025-01-29 10:39:36,1
2581.2000000000007,-130.39999999999998,-191.19999999999985,165.1,-3356.2,-1964.7,2025-01-29 10:39:36,1
3221.2000000000007,-446.4,-679.1999999999998,542.1,-3335.2,-1984.7,2025-01-29 10:39:36,1
3297.2000000000007,-1006.4,-1183.1999999999998,704.1,-2414.2,-1706.7,2025-01-29 10:39:36,1
2969.2000000000007,-1662.4,-259.1999999999998,800.1,-645.2,-1340.7,2025-01-29 10:39:36,1
3009.2000000000007,-2214.4,-639.1999999999998,1105.1,1308.8,-969.7,2025-01-29 10:39:37,1
1893.2000000000007,-2298.4,-467.1999999999998,1311.1,2788.8,-944.7,2025-01-29 10:39:37,1
605.2000000000007,-1450.4,-879.1999999999998,1473.1,2678.8,-882.7,2025-01-29 10:39:37,1
-278.7999999999993,-706.4,-875.1999999999998,1455.1,1778.8,-720.7,2025-01-29 10:39:37,1
-342.7999999999993,-70.39999999999998,-863.1999999999998,1345.1,547.8,-873.7,2025-01-29 10:39:37,1
-110.79999999999929,249.6,-1159.1999999999998,1155.1,-325.2,-1498.7,2025-01-29 10:39:37,1
-234.79999999999927,305.6,-1251.1999999999998,955.1,-971.2,-2135.7,2025-01-29 10:39:37,1
29.200000000000728,285.6,-1303.1999999999998,739.1,-1330.2,-2507.7,2025-01-29 10:39:37,1
333.2000000000007,297.6,-835.1999999999998,339.1,-1466.2,-2751.7,2025-01-29 10:39:37,1
689.2000000000007,113.60000000000002,-367.1999999999998,-383.9,-1295.2,-2667.7,2025-01-29 10:39:37,1
1405.2000000000007,-262.4,100.80000000000018,-819.9,-934.2,-2927.7,2025-01-29 10:39:37,1
1081.2000000000007,-842.4,892.8000000000002,-998.9,-435.2,-3173.7,2025-01-29 10:39:37,1
621.2000000000007,-1298.4,1320.8000000000002,-1008.9,179.8,-3135.7,2025-01-29 10:39:37,1
673.2000000000007,-1714.4,1696.8000000000002,-919.9,714.8,-3085.7,2025-01-29 10:39:37,1
73.20000000000073,-2002.4,1812.8,-723.9,1085.8,-3010.7,2025-01-29 10:39:37,1
-370.7999999999993,-2034.4,1424.8000000000002,-542.9,940.8,-2583.7,2025-01-29 10:39:37,1
-374.7999999999993,-2010.4,1440.8000000000002,-391.9,792.8,-1985.7,2025-01-29 10:39:37,1
37.20000000000073,-1674.4,1264.8000000000002,-408.9,844.8,-1636.7,2025-01-29 10:39:37,1
245.20000000000076,-1370.4,1108.8000000000002,-524.9,846.8,-1393.7,2025-01-29 10:39:37,1
249.20000000000076,-1118.4,852.8000000000002,-677.9,972.8,-1082.7,2025-01-29 10:39:37,1
157.20000000000073,-962.4,1020.8000000000002,-866.9,1210.8,-759.7,2025-01-29 10:39:37,1
-66.79999999999927,-498.4,936.8000000000002,-1116.9,1300.8,-503.7,2025-01-29 10:39:37,1
-2.7999999999992724,-306.4,952.8000000000002,-1490.9,1155.8,-238.7,2025-01-29 10:39:37,1
45.20000000000073,-294.4,776.8000000000002,-1898.9,949.8,-51.69999999999999,2025-01-29 10:39:37,1
-302.7999999999993,-590.4,848.8000000000002,-2235.9,796.8,60.30000000000001,2025-01-29 10:39:37,1
-262.7999999999993,-1002.4,1032.8000000000002,-2503.9,584.8,284.3,2025-01-29 10:39:37,1
-362.7999999999993,-1414.4,1412.8000000000002,-2583.9,512.8,399.3,2025-01-29 10:39:37,1
-606.7999999999993,-1330.4,1612.8000000000002,-2559.9,601.8,519.3,2025-01-29 10:39:37,1
-614.7999999999993,-1342.4,1580.8000000000002,-2508.9,789.8,498.3,2025-01-29 10:39:37,1
-426.7999999999993,-1274.4,1120.8000000000002,-2443.9,734.8,199.3,2025-01-29 10:39:37,1
-798.7999999999993,-962.4,1076.8000000000002,-2407.9,536.8,-4.699999999999989,2025-01-29 10:39:37,1
-858.7999999999993,-78.39999999999998,1096.8000000000002,-2504.9,275.8,-98.7,2025-01-29 10:39:37,1
-518.7999999999993,665.6,360.8000000000002,-2897.9,80.80000000000001,-439.7,2025-01-29 10:39:37,1
-614.7999999999993,-170.39999999999998,988.8000000000002,-3251.9,249.8,-967.7,2025-01-29 10:39:37,1
-994.7999999999992,-1314.4,984.8000000000002,-3298.9,233.8,-1910.7,2025-01-29 10:39:37,1
-1742.7999999999993,-1362.4,1172.8000000000002,-3533.9,-111.2,-2623.7,2025-01-29 10:39:37,1
-2274.7999999999997,-1058.4,1088.8000000000002,-3542.9,-520.2,-3146.7,2025-01-29 10:39:37,1
-2086.7999999999997,-610.4,156.80000000000018,-3377.9,-964.2,-3502.7,2025-01-29 10:39:37,1
-1294.7999999999993,-1170.4,-295.1999999999998,-2974.9,-809.2,-3885.7,2025-01-29 10:39:37,1
-558.7999999999993,-2302.4,-59.19999999999982,-2263.9,-886.2,-4543.7,2025-01-29 10:39:37,1
-610.7999999999993,-3386.4,116.80000000000018,-1277.9,-671.2,-4935.7,2025-01-29 10:39:37,1
-1614.7999999999993,-4614.4,-75.19999999999982,-126.9,45.80000000000001,-4639.7,2025-01-29 10:39:37,1
-2714.7999999999997,-5126.4,-1907.2,607.1,1053.8,-3420.7,2025-01-29 10:39:37,1
-4274.799999999999,-3838.4,-2795.2,605.1,846.8,-1192.7,2025-01-29 10:39:37,1
-3702.7999999999993,-2454.4,-2295.2,228.1,-618.2,1123.3,2025-01-29 10:39:37,1
-1314.7999999999993,-1722.4,-2375.2,32.099999999999994,-2287.2,2139.3,2025-01-29 10:39:37,1
-262.7999999999993,-1426.4,-1871.2,-14.900000000000006,-3446.2,2479.3,2025-01-29 10:39:37,1
1117.2000000000007,-1338.4,-1679.1999999999998,0.0999999999999943,-3829.2,2751.3,2025-01-29 10:39:37,1
2261.2000000000007,-1206.4,-1879.2,39.1,-3661.2,2832.3,2025-01-29 10:39:37,1
3185.2000000000007,-582.4,-1587.1999999999998,262.1,-3188.2,2875.3,2025-01-29 10:39:37,1
3805.2000000000007,121.60000000000002,-1471.1999999999998,302.1,-2173.2,2727.3,2025-01-29 10:39:37,1
3997.2000000000007,1241.6,-899.1999999999998,302.1,-781.2,2440.3,2025-01-29 10:39:37,1
3793.2000000000007,2705.6,-1127.1999999999998,230.1,373.8,1989.3,2025-01-29 10:39:37,1
3745.2000000000007,3437.6,-1687.1999999999998,-147.9,1255.8,1200.3,2025-01-29 10:39:37,1
1957.2000000000007,2853.6,-923.1999999999998,-602.9,1853.8,206.3,2025-01-29 10:39:37,1
-214.79999999999927,1605.6,-1151.1999999999998,-885.9,2423.8,-37.69999999999999,2025-01-29 10:39:37,1
-1806.7999999999995,441.6,-1175.1999999999998,-946.9,2234.8,379.3,2025-01-29 10:39:37,1
-2926.7999999999997,-34.39999999999998,-923.1999999999998,-904.9,1015.8,1027.3,2025-01-29 10:39:37,1
-3458.7999999999997,-138.39999999999998,-663.1999999999998,-821.9,-995.2,2078.3,2025-01-29 10:39:37,1
-2258.7999999999997,161.60000000000002,-999.1999999999998,-764.9,-3071.2,2953.3,2025-01-29 10:39:37,1
-390.7999999999993,241.6,-763.1999999999998,-683.9,-4012.2,3360.3,2025-01-29 10:39:37,1
1509.2000000000007,353.6,132.80000000000018,-195.9,-3766.2,3478.3,2025-01-29 10:39:38,1
2529.2000000000007,277.6,792.8000000000002,360.1,-2622.2,3364.3,2025-01-29 10:39:38,1
3085.2000000000007,289.6,1372.8000000000002,990.1,-861.2,3073.3,2025-01-29 10:39:38,1
2685.2000000000007,581.6,1092.8000000000002,1505.1,874.8,2794.3,2025-01-29 10:39:38,1
1577.2000000000007,1333.6,1096.8000000000002,1782.1,2180.8,2609.3,2025-01-29 10:39:38,1
385.2000000000007,2033.6,708.8000000000002,1833.1,2186.8,2514.3,2025-01-29 10:39:38,1
-338.7999999999993,2569.6,192.80000000000015,1676.1,1329.8,2258.3,2025-01-29 10:39:38,1
-262.7999999999993,2725.6,-167.19999999999982,1381.1,-45.19999999999999,1899.3,2025-01-29 10:39:38,1
-258.7999999999993,2533.6,136.80000000000018,1273.1,-988.2,1680.3,2025-01-29 10:39:38,1
397.2000000000007,2281.6,580.8000000000002,1256.1,-1283.2,1461.3,2025-01-29 10:39:38,1
773.2000000000007,1449.6,1196.8000000000002,1334.1,-1049.2,1219.3,2025-01-29 10:39:38,1
1181.2000000000007,765.6,960.8000000000002,1492.1,-126.2,905.3,2025-01-29 10:39:38,1
621.2000000000007,165.60000000000002,1044.8000000000002,1776.1,830.8,754.3,2025-01-29 10:39:38,1
-170.79999999999927,149.60000000000002,1228.8000000000002,2167.1,1211.8,847.3,2025-01-29 10:39:38,1
-1050.7999999999993,421.6,1204.8000000000002,2356.1,1110.8,971.3,2025-01-29 10:39:38,1
-1314.7999999999993,849.6,828.8000000000002,2520.1,412.8,1135.3,2025-01-29 10:39:38,1
-1882.7999999999995,1037.6,944.8000000000002,2504.1,-772.2,1322.3,2025-01-29 10:39:38,1
-1318.7999999999993,1097.6,792.8000000000002,2545.1,-1921.2,1488.3,2025-01-29 10:39:38,1
-962.7999999999992,1149.6,1376.8000000000002,2621.1,-2838.2,1432.3,2025-01-29 10:39:38,1
5.200000000000728,1505.6,972.8000000000002,2720.1,-3351.2,1363.3,2025-01-29 10:39:38,1
245.20000000000076,1513.6,1692.8000000000002,2862.1,-3096.2,1378.3,2025-01-29 10:39:38,1
609.2000000000007,1393.6,1416.8000000000002,2994.1,-2484.2,1294.3,2025-01-29 10:39:38,1
401.2000000000007,1201.6,1768.8000000000002,3171.1,-1835.2,995.3,2025-01-29 10:39:38,1
-106.79999999999929,1341.6,1644.8000000000002,3309.1,-1439.2,817.3,2025-01-29 10:39:38,1
-798.7999999999993,1673.6,1292.8000000000002,3287.1,-1121.2,1017.3,2025-01-29 10:39:38,1
-1210.7999999999993,1873.6,1108.8000000000002,3136.1,-1080.2,1294.3,2025-01-29 10:39:38,1
-1290.7999999999993,1977.6,1304.8000000000002,2943.1,-1084.2,1580.3,2025-01-29 10:39:38,1
-1298.7999999999993,1501.6,1780.8000000000002,2942.1,-1058.2,1715.3,2025-01-29 10:39:38,1
-1286.7999999999993,1229.6,2420.8,3276.1,-1043.2,1786.3,2025-01-29 10:39:38,1
-1514.7999999999993,1293.6,2068.8,3570.1,-1094.2,1786.3,2025-01-29 10:39:38,1
-1398.7999999999993,1165.6,2680.8,3793.1,-959.2,2056.3,2025-01-29 10:39:38,1
-710.7999999999993,1233.6,2880.8,4149.1,-431.2,2203.3,2025-01-29 10:39:38,1
237.20000000000076,1461.6,2492.8,4535.1,472.8,1625.3,2025-01-29 10:39:38,1
-414.7999999999993,1277.6,2580.8,4959.1,1857.8,952.3,2025-01-29 10:39:38,1
-1542.7999999999993,933.6,980.8000000000002,5144.1,3160.8,1122.3,2025-01-29 10:39:38,1
-2442.7999999999997,901.6,-571.1999999999998,4995.1,4331.8,1602.3,2025-01-29 10:39:38,1
-3242.7999999999997,1725.6,-2167.2,4305.1,4794.8,2133.3,2025-01-29 10:39:38,1
-3782.7999999999993,2573.6,-3463.2,3152.1,3821.8,2514.3,2025-01-29 10:39:38,1
-3746.7999999999993,3153.6,-3779.2,1836.1,1618.8,2578.3,2025-01-29 10:39:38,1
-2898.7999999999997,3397.6,-3395.2,808.1,-872.2,2246.3,2025-01-29 10:39:38,1
-1590.7999999999993,2937.6,-1839.2,54.1,-2490.2,1529.3,2025-01-29 10:39:38,1
333.2000000000007,2125.6,-399.1999999999998,115.1,-3001.2,609.3,2025-01-29 10:39:38,1
1361.2000000000007,1485.6,-279.1999999999998,451.1,-3115.2,-372.7,2025-01-29 10:39:38,1
1805.2000000000007,977.6,296.8000000000002,747.1,-2251.2,-1224.7,2025-01-29 10:39:38,1
2033.2000000000007,929.6,-179.19999999999982,757.1,-1050.2,-1851.7,2025-01-29 10:39:38,1
1929.2000000000007,529.6,-547.1999999999998,399.1,-408.2,-2138.7,2025-01-29 10:39:38,1
1525.2000000000007,-194.4,-467.1999999999998,-54.900000000000006,38.80000000000001,-2212.7,2025-01-29 10:39:38,1
857.2000000000007,-706.4,-155.19999999999982,-462.9,217.8,-2189.7,2025-01-29 10:39:38,1
689.2000000000007,-1318.4,-63.19999999999982,-409.9,-25.19999999999999,-1842.7,2025-01-29 10:39:38,1
1161.2000000000007,-2002.4,88.80000000000018,-159.9,-37.19999999999999,-1711.7,2025-01-29 10:39:38,1
1553.2000000000007,-2750.4,-67.19999999999982,260.1,192.8,-1866.7,2025-01-29 10:39:38,1
1281.2000000000007,-2854.4,-483.1999999999998,617.1,500.8,-1764.7,2025-01-29 10:39:38,1
929.2000000000008,-2978.4,-707.1999999999998,901.1,1196.8,-1519.7,2025-01-29 10:39:38,1
237.20000000000076,-2506.4,-1071.1999999999998,1132.1,1603.8,-1209.7,2025-01-29 10:39:38,1
-174.79999999999927,-2010.4,-1151.1999999999998,983.1,1011.8,-817.7,2025-01-29 10:39:38,1
-306.7999999999993,-1170.4,-435.1999999999998,797.1,-157.2,-550.7,2025-01-29 10:39:38,1
217.20000000000076,-858.4,-95.19999999999982,497.1,-988.2,-610.7,2025-01-29 10:39:38,1
441.2000000000007,-950.4,140.80000000000018,275.1,-1070.2,-836.7,2025-01-29 10:39:38,1
1081.2000000000007,-1626.4,-63.19999999999982,236.1,-952.2,-1333.7,2025-01-29 10:39:38,1
1189.2000000000007,-2134.4,-95.19999999999982,389.1,-866.2,-1905.7,2025-01-29 10:39:38,1
1049.2000000000007,-2410.4,40.80000000000018,595.1,-956.2,-1912.7,2025-01-29 10:39:38,1
1409.2000000000007,-2614.4,120.80000000000018,699.1,-550.2,-1558.7,2025-01-29 10:39:39,1
2013.2000000000007,-2686.4,-175.19999999999982,693.1,400.8,-1359.7,2025-01-29 10:39:39,1
1969.2000000000007,-2670.4,-583.1999999999998,723.1,1624.8,-1298.7,2025-01-29 10:39:39,1
1133.2000000000007,-2270.4,-519.1999999999998,905.1,2727.8,-1116.7,2025-01-29 10:39:39,1
193.20000000000076,-1810.4,-299.1999999999998,970.1,3229.8,-940.7,2025-01-29 10:39:39,1
-578.7999999999993,-1898.4,-651.1999999999998,769.1,2925.8,-912.7,2025-01-29 10:39:39,1
-1314.7999999999993,-2042.4,-575.1999999999998,806.1,1505.8,-977.7,2025-01-29 10:39:39,1
-1522.7999999999993,-2350.4,44.80000000000018,1066.1,91.8,-712.7,2025-01-29 10:39:39,1
-806.7999999999993,-2566.4,360.8000000000002,1305.1,-695.2,-537.7,2025-01-29 10:39:39,1
-194.79999999999927,-2666.4,732.8000000000002,1543.1,-1094.2,-512.7,2025-01-29 10:39:39,1
317.2000000000007,-2486.4,560.8000000000002,1651.1,-1059.2,-382.7,2025-01-29 10:39:39,1
829.2000000000007,-2082.4,364.8000000000002,1503.1,-651.2,-414.7,2025-01-29 10:39:39,1
625.2000000000007,-1506.4,152.80000000000018,1295.1,76.80000000000001,-323.7,2025-01-29 10:39:39,1
889.2000000000007,-1046.4,576.8000000000002,880.1,873.8,-5.699999999999989,2025-01-29 10:39:39,1
981.2000000000008,-1050.4,384.8000000000002,477.1,1698.8,139.3,2025-01-29 10:39:39,1
581.2000000000007,-1654.4,896.8000000000002,336.1,2501.8,321.3,2025-01-29 10:39:39,1
329.2000000000007,-1978.4,-119.19999999999982,213.1,2690.8,362.3,2025-01-29 10:39:39,1
-478.7999999999993,-1406.4,-439.1999999999998,-72.9,2486.8,839.3,2025-01-29 10:39:39,1
-646.7999999999993,-1214.4,-379.1999999999998,-431.9,1739.8,1619.3,2025-01-29 10:39:39,1
-398.7999999999993,-1430.4,-219.19999999999985,-1037.9,752.8,2073.3,2025-01-29 10:39:39,1
145.20000000000073,-1338.4,-763.1999999999998,-1579.9,-49.19999999999999,1905.3,2025-01-29 10:39:39,1
181.20000000000076,-1222.4,-1643.1999999999998,-2055.9,-153.2,1221.3,2025-01-29 10:39:39,1
197.20000000000076,145.60000000000002,-2203.2,-2264.9,-31.19999999999999,768.3,2025-01-29 10:39:39,1
197.20000000000076,621.6,-1655.1999999999998,-2457.9,84.80000000000001,500.3,2025-01-29 10:39:39,1
949.2000000000008,381.6,-1939.2,-2343.9,-373.2,100.3,2025-01-29 10:39:39,1
1089.2000000000007,277.6,-1215.1999999999998,-2428.9,-721.2,-184.7,2025-01-29 10:39:39,1
1849.2000000000007,-774.4,-427.1999999999998,-1985.9,-570.2,-278.7,2025-01-29 10:39:39,1
2629.2000000000007,-1906.4,-479.1999999999998,-1617.9,128.8,-491.7,2025-01-29 10:39:39,1
2649.2000000000007,-2050.4,-795.1999999999998,-1169.9,1379.8,-723.7,2025-01-29 10:39:39,1
2361.2000000000007,-1526.4,-1043.1999999999998,-797.9,2741.8,-1075.7,2025-01-29 10:39:39,1
1401.2000000000007,-774.4,-503.1999999999998,-651.9,3355.8,-1358.7,2025-01-29 10:39:39,1
365.2000000000007,-450.4,-323.1999999999998,-303.9,3243.8,-1365.7,2025-01-29 10:39:39,1
-522.7999999999993,-510.4,-679.1999999999998,-90.9,2468.8,-1122.7,2025-01-29 10:39:39,1
-786.7999999999993,-822.4,-731.1999999999998,74.1,1186.8,-797.7,2025-01-29 10:39:39,1
-414.7999999999993,-822.4,-931.1999999999998,144.1,272.8,-346.7,2025-01-29 10:39:39,1
-14.799999999999272,-582.4,-1299.1999999999998,22.099999999999994,3.8000000000000114,-30.69999999999999,2025-01-29 10:39:39,1
417.2000000000007,-38.39999999999998,-1399.1999999999998,-3.9000000000000057,-7.199999999999989,63.30000000000001,2025-01-29 10:39:39,1
829.2000000000007,493.6,-1383.1999999999998,-7.900000000000006,315.8,-121.7,2025-01-29 10:39:39,1
821.2000000000007,577.6,-315.1999999999998,22.099999999999994,650.8,-509.7,2025-01-29 10:39:39,1
625.2000000000007,-294.4,172.80000000000018,237.1,636.8,-754.7,2025-01-29 10:39:39,1
349.2000000000007,-966.4,-255.19999999999985,511.1,572.8,-635.7,2025-01-29 10:39:39,1
721.2000000000007,-1018.4,-1139.1999999999998,650.1,556.8,-369.7,2025-01-29 10:39:39,1
533.2000000000007,-362.4,-1315.1999999999998,499.1,667.8,-228.7,2025-01-29 10:39:39,1
545.2000000000007,273.6,-1383.1999999999998,312.1,973.8,-201.7,2025-01-29 10:39:39,1
277.2000000000007,849.6,-1383.1999999999998,-48.900000000000006,1007.8,-374.7,2025-01-29 10:39:39,1
-86.79999999999927,721.6,-1223.1999999999998,-404.9,405.8,-425.7,2025-01-29 10:39:39,1
-66.79999999999927,93.60000000000002,-1079.1999999999998,-621.9,-448.2,-383.7,2025-01-29 10:39:39,1
289.2000000000007,-670.4,-1135.1999999999998,-658.9,-1015.2,-466.7,2025-01-29 10:39:39,1
605.2000000000007,-1110.4,-1131.1999999999998,-567.9,-1193.2,-527.7,2025-01-29 10:39:39,1
681.2000000000007,-1250.4,-883.1999999999998,-465.9,-1135.2,-490.7,2025-01-29 10:39:39,1
1021.2000000000008,-958.4,-667.1999999999998,-441.9,-966.2,-294.7,2025-01-29 10:39:39,1
1441.2000000000007,-434.4,-791.1999999999998,-636.9,-605.2,-235.7,2025-01-29 10:39:39,1
1417.2000000000007,-498.4,-955.1999999999998,-860.9,-91.2,-291.7,2025-01-29 10:39:39,1
1005.2000000000008,-814.4,-923.1999999999998,-971.9,399.8,-333.7,2025-01-29 10:39:39,1
393.2000000000007,-1186.4,-1143.1999999999998,-910.9,504.8,-328.7,2025-01-29 10:39:39,1
261.2000000000007,-1198.4,-1399.1999999999998,-805.9,56.80000000000001,-405.7,2025-01-29 10:39:39,1
265.2000000000007,-1002.4,-1011.1999999999998,-772.9,-468.2,-517.7,2025-01-29 10:39:39,1
493.2000000000007,-902.4,-919.1999999999998,-743.9,-782.2,-522.7,2025-01-29 10:39:39,1
741.2000000000007,-918.4,-531.1999999999998,-716.9,-737.2,-418.7,2025-01-29 10:39:39,1
1029.2000000000007,-942.4,-483.1999999999998,-703.9,-387.2,-436.7,2025-01-29 10:39:39,1
905.2000000000008,-1158.4,-647.1999999999998,-662.9,158.8,-479.7,2025-01-29 10:39:39,1
609.2000000000007,-1278.4,-891.1999999999998,-461.9,586.8,-453.7,2025-01-29 10:39:40,1
453.2000000000007,-818.4,-983.1999999999998,-311.9,568.8,-422.7,2025-01-29 10:39:40,1
125.20000000000071,-610.4,-1215.1999999999998,-347.9,306.8,-372.7,2025-01-29 10:39:40,1
133.20000000000073,-710.4,-831.1999999999998,-356.9,-6.199999999999989,-275.7,2025-01-29 10:39:40,1
237.20000000000076,-710.4,-439.1999999999998,-288.9,-326.2,-188.7,2025-01-29 10:39:40,1
581.2000000000007,-758.4,-615.1999999999998,-183.9,-491.2,-179.7,2025-01-29 10:39:40,1
625.2000000000007,-982.4,-851.1999999999998,-145.9,-332.2,-171.7,2025-01-29 10:39:40,1
661.2000000000007,-998.4,-647.1999999999998,-61.900000000000006,-59.19999999999999,-139.7,2025-01-29 10:39:40,1
621.2000000000007,-1142.4,-591.1999999999998,22.099999999999994,80.80000000000001,-71.69999999999999,2025-01-29 10:39:40,1
505.2000000000007,-950.4,-511.1999999999998,67.1,18.80000000000001,-26.69999999999999,2025-01-29 10:39:40,1
549.2000000000007,-838.4,-851.1999999999998,39.1,-26.19999999999999,-29.69999999999999,2025-01-29 10:39:40,1
613.2000000000007,-562.4,-695.1999999999998,41.1,-95.2,-62.69999999999999,2025-01-29 10:39:40,1
573.2000000000007,-506.4,-691.1999999999998,-9.900000000000006,-126.2,-86.69999999999999,2025-01-29 10:39:40,1
589.2000000000007,-582.4,-763.1999999999998,-114.9,-146.2,-172.7,2025-01-29 10:39:40,1
541.2000000000007,-698.4,-899.1999999999998,-228.9,-142.2,-139.7,2025-01-29 10:39:40,1
713.2000000000007,-974.4,-767.1999999999998,-249.9,-152.2,-140.7,2025-01-29 10:39:40,1
513.2000000000007,-1158.4,-619.1999999999998,-237.9,5.800000000000011,-128.7,2025-01-29 10:39:40,1
461.2000000000007,-1050.4,-671.1999999999998,-142.9,116.8,-60.69999999999999,2025-01-29 10:39:40,1
517.2000000000007,-758.4,-939.1999999999998,-114.9,90.8,-37.69999999999999,2025-01-29 10:39:40,1
481.2000000000007,-826.4,-483.1999999999998,-147.9,-24.19999999999999,-77.69999999999999,2025-01-29 10:39:40,1
465.2000000000007,-934.4,-327.1999999999998,-51.900000000000006,-106.2,-38.69999999999999,2025-01-29 10:39:40,1
645.2000000000007,-1178.4,-411.1999999999998,77.1,-118.2,6.300000000000011,2025-01-29 10:39:40,1
817.2000000000007,-1002.4,-475.1999999999998,135.1,-20.19999999999999,47.30000000000001,2025-01-29 10:39:40,1
789.2000000000007,-822.4,-599.1999999999998,173.1,207.8,53.30000000000001,2025-01-29 10:39:40,1
549.2000000000007,-766.4,-695.1999999999998,225.1,472.8,8.300000000000011,2025-01-29 10:39:40,1
385.2000000000007,-834.4,-1171.1999999999998,272.1,459.8,49.30000000000001,2025-01-29 10:39:40,1
61.20000000000073,-966.4,-959.1999999999998,311.1,309.8,101.3,2025-01-29 10:39:40,1
13.200000000000728,-754.4,-955.1999999999998,301.1,-88.19999999999999,211.3,2025-01-29 10:39:40,1
273.2000000000007,-666.4,-815.1999999999998,211.1,-470.2,237.3,2025-01-29 10:39:40,1
461.2000000000007,-482.4,-1051.1999999999998,57.1,-723.2,216.3,2025-01-29 10:39:40,1
805.2000000000007,-442.4,-919.1999999999998,-68.9,-658.2,129.3,2025-01-29 10:39:40,1
917.2000000000008,-610.4,-571.1999999999998,-131.9,-289.2,25.30000000000001,2025-01-29 10:39:40,1
1029.2000000000007,-610.4,-771.1999999999998,-131.9,24.80000000000001,-126.7,2025-01-29 10:39:40,1
849.2000000000007,-850.4,-1119.1999999999998,-234.9,115.8,-210.7,2025-01-29 10:39:40,1
781.2000000000007,-730.4,-1003.1999999999998,-269.9,75.80000000000001,-268.7,2025-01-29 10:39:40,1
685.2000000000007,-702.4,-1159.1999999999998,-341.9,34.80000000000001,-341.7,2025-01-29 10:39:40,1
653.2000000000007,-814.4,-695.1999999999998,-416.9,43.80000000000001,-401.7,2025-01-29 10:39:40,1
481.2000000000007,-770.4,-671.1999999999998,-468.9,-64.19999999999999,-412.7,2025-01-29 10:39:40,1
609.2000000000007,-694.4,-887.1999999999998,-533.9,-235.2,-452.7,2025-01-29 10:39:40,1
493.2000000000007,-562.4,-783.1999999999998,-579.9,-285.2,-483.7,2025-01-29 10:39:40,1
553.2000000000007,-770.4,-731.1999999999998,-525.9,-225.2,-386.7,2025-01-29 10:39:40,1
437.2000000000007,-1022.4,-523.1999999999998,-444.9,-116.2,-336.7,2025-01-29 10:39:40,1
321.2000000000007,-1198.4,-491.1999999999998,-348.9,-55.19999999999999,-270.7,2025-01-29 10:39:40,1
449.2000000000007,-914.4,-895.1999999999998,-347.9,-87.19999999999999,-205.7,2025-01-29 10:39:40,1
425.2000000000007,-802.4,-895.1999999999998,-364.9,-221.2,-197.7,2025-01-29 10:39:40,1
577.2000000000007,-806.4,-619.1999999999998,-268.9,-349.2,-202.7,2025-01-29 10:39:40,1
521.2000000000007,-1006.4,-411.1999999999998,-175.9,-253.2,-150.7,2025-01-29 10:39:40,1
525.2000000000007,-906.4,-563.1999999999998,-82.9,-187.2,-135.7,2025-01-29 10:39:40,1
421.2000000000007,-1002.4,-527.1999999999998,-3.9000000000000057,-233.2,-62.69999999999999,2025-01-29 10:39:40,1
597.2000000000007,-862.4,-667.1999999999998,-18.90000000000001,-254.2,-46.69999999999999,2025-01-29 10:39:40,1
313.2000000000007,-834.4,-619.1999999999998,33.099999999999994,-218.2,7.300000000000011,2025-01-29 10:39:40,1
453.2000000000007,-882.4,-555.1999999999998,70.1,-213.2,47.30000000000001,2025-01-29 10:39:40,1
489.2000000000007,-918.4,-683.1999999999998,92.1,-215.2,48.30000000000001,2025-01-29 10:39:40,1
477.2000000000007,-1026.4,-823.1999999999998,169.1,-223.2,94.3,2025-01-29 10:39:40,1
469.2000000000007,-846.4,-1075.1999999999998,141.1,-313.2,131.3,2025-01-29 10:39:40,1
497.2000000000007,-930.4,-871.1999999999998,70.1,-362.2,81.30000000000001,2025-01-29 10:39:40,1
461.2000000000007,-870.4,-471.1999999999998,40.1,-471.2,157.3,2025-01-29 10:39:40,1
613.2000000000007,-834.4,-767.1999999999998,77.1,-433.2,151.3,2025-01-29 10:39:40,1
673.2000000000007,-902.4,-615.1999999999998,-15.900000000000006,-318.2,92.3,2025-01-29 10:39:40,1
725.2000000000007,-978.4,-503.1999999999998,7.099999999999994,-192.2,35.30000000000001,2025-01-29 10:39:40,1
629.2000000000007,-818.4,-611.1999999999998,28.099999999999994,-149.2,14.300000000000011,2025-01-29 10:39:40,1
769.2000000000007,-1018.4,-731.1999999999998,39.1,-122.2,-2.6999999999999886,2025-01-29 10:39:41,1
469.2000000000007,-1078.4,-671.1999999999998,114.1,-20.19999999999999,-18.69999999999999,2025-01-29 10:39:41,1
541.2000000000007,-1030.4,-755.1999999999998,194.1,-41.19999999999999,56.30000000000001,2025-01-29 10:39:41,1
357.2000000000007,-1006.4,-831.1999999999998,157.1,-155.2,81.30000000000001,2025-01-29 10:39:41,1
429.2000000000007,-914.4,-599.1999999999998,154.1,-204.2,81.30000000000001,2025-01-29 10:39:41,1
525.2000000000007,-738.4,-567.1999999999998,195.1,-179.2,106.3,2025-01-29 10:39:41,1
537.2000000000007,-842.4,-823.1999999999998,159.1,-209.2,116.3,2025-01-29 10:39:41,1
605.2000000000007,-842.4,-539.1999999999998,135.1,-222.2,131.3,2025-01-29 10:39:41,1
505.2000000000007,-866.4,-611.1999999999998,93.1,-260.2,135.3,2025-01-29 10:39:41,1
521.2000000000007,-998.4,-575.1999999999998,117.1,-226.2,85.30000000000001,2025-01-29 10:39:41,1
569.2000000000007,-1010.4,-575.1999999999998,149.1,-235.2,102.3,2025-01-29 10:39:41,1
669.2000000000007,-990.4,-695.1999999999998,169.1,-230.2,114.3,2025-01-29 10:39:41,1
549.2000000000007,-898.4,-887.1999999999998,131.1,-238.2,127.3,2025-01-29 10:39:41,1
605.2000000000007,-886.4,-771.1999999999998,40.1,-79.19999999999999,109.3,2025-01-29 10:39:41,1
409.2000000000007,-886.4,-575.1999999999998,46.1,24.80000000000001,105.3,2025-01-29 10:39:41,1
481.2000000000007,-850.4,-619.1999999999998,76.1,74.80000000000001,49.30000000000001,2025-01-29 10:39:41,1
437.2000000000007,-866.4,-531.1999999999998,123.1,-145.2,57.30000000000001,2025-01-29 10:39:41,1
341.2000000000007,-954.4,-655.1999999999998,145.1,-284.2,99.3,2025-01-29 10:39:41,1
353.2000000000007,-918.4,-711.1999999999998,128.1,-285.2,110.3,2025-01-29 10:39:41,1
565.2000000000007,-770.4,-707.1999999999998,68.1,-198.2,83.30000000000001,2025-01-29 10:39:41,1
457.2000000000007,-866.4,-715.1999999999998,22.099999999999994,-121.2,36.30000000000001,2025-01-29 10:39:41,1
429.2000000000007,-958.4,-675.1999999999998,7.099999999999994,-83.19999999999999,36.30000000000001,2025-01-29 10:39:41,1
441.2000000000007,-766.4,-679.1999999999998,18.099999999999994,-146.2,38.30000000000001,2025-01-29 10:39:41,1
449.2000000000007,-738.4,-663.1999999999998,-39.900000000000006,-247.2,11.300000000000011,2025-01-29 10:39:41,1
529.2000000000007,-766.4,-667.1999999999998,-91.9,-262.2,-11.699999999999989,2025-01-29 10:39:41,1
425.2000000000007,-782.4,-475.1999999999998,-92.9,-191.2,-84.69999999999999,2025-01-29 10:39:41,1
437.2000000000007,-958.4,-471.1999999999998,-61.900000000000006,-166.2,-74.69999999999999,2025-01-29 10:39:41,1
385.2000000000007,-1110.4,-663.1999999999998,-89.9,-132.2,-75.69999999999999,2025-01-29 10:39:41,1
261.2000000000007,-974.4,-451.1999999999998,-34.900000000000006,-121.2,-18.69999999999999,2025-01-29 10:39:41,1
