acceleration_x,acceleration_y,acceleration_z,gyroscope_x,gyroscope_y,gyroscope_z,timestamp,label
36.0,-47.200000000000045,-44.0,68.6,87.6,-22.19999999999999,2025-01-29 11:59:31,1
-88.0,-35.200000000000045,-56.0,116.6,77.6,16.80000000000001,2025-01-29 11:59:31,1
-24.0,-19.200000000000045,28.0,73.6,15.599999999999994,19.80000000000001,2025-01-29 11:59:31,1
-52.0,72.79999999999995,-24.0,24.599999999999994,-25.40000000000001,30.80000000000001,2025-01-29 11:59:31,1
-16.0,56.79999999999996,-104.0,-5.400000000000006,-34.400000000000006,16.80000000000001,2025-01-29 11:59:31,1
-8.0,60.79999999999996,-96.0,-36.400000000000006,-24.40000000000001,29.80000000000001,2025-01-29 11:59:31,1
48.0,16.799999999999955,4.0,-43.400000000000006,-71.4,10.800000000000011,2025-01-29 11:59:31,1
-24.0,-51.200000000000045,100.0,-65.4,-48.400000000000006,-23.19999999999999,2025-01-29 11:59:31,1
60.0,-47.200000000000045,92.0,-58.400000000000006,-3.4000000000000057,-42.19999999999999,2025-01-29 11:59:31,1
68.0,-7.2000000000000455,100.0,-74.4,26.599999999999994,-37.19999999999999,2025-01-29 11:59:31,1
-40.0,68.79999999999995,124.0,-90.4,42.6,-55.19999999999999,2025-01-29 11:59:32,1
60.0,-35.200000000000045,136.0,-54.400000000000006,-95.4,182.8,2025-01-29 11:59:32,1
104.0,-75.20000000000005,120.0,-131.4,-20.40000000000001,176.8,2025-01-29 11:59:32,1
204.0,152.79999999999995,-152.0,-252.4,-6.400000000000006,152.8,2025-01-29 11:59:32,1
280.0,404.8,-280.0,-500.4,97.6,151.8,2025-01-29 11:59:32,1
196.0,348.79999999999995,-180.0,-711.4,297.6,141.8,2025-01-29 11:59:32,1
124.0,232.79999999999995,-368.0,-845.4,564.6,234.8,2025-01-29 11:59:32,1
72.0,212.79999999999995,-632.0,-1045.4,745.6,158.8,2025-01-29 11:59:32,1
-228.0,452.8,-324.0,-1130.4,803.6,167.8,2025-01-29 11:59:32,1
-664.0,472.8,184.0,-1056.4,792.6,225.8,2025-01-29 11:59:32,1
-760.0,480.8,248.0,-945.4,459.6,261.8,2025-01-29 11:59:32,1
-952.0,672.8,64.0,-829.4,-259.4,204.8,2025-01-29 11:59:32,1
-832.0,932.8,300.0,-612.4,-1066.4,130.8,2025-01-29 11:59:32,1
-496.0,752.8,504.0,-378.4,-1864.4,39.80000000000001,2025-01-29 11:59:32,1
-388.0,800.8,692.0,1.5999999999999943,-2283.4,49.80000000000001,2025-01-29 11:59:32,1
152.0,888.8,1084.0,189.6,-2519.4,16.80000000000001,2025-01-29 11:59:32,1
580.0,884.8,1560.0,331.6,-2922.4,-263.2,2025-01-29 11:59:32,1
536.0,772.8,1336.0,699.6,-2491.4,-378.2,2025-01-29 11:59:32,1
308.0,1084.8,912.0,1010.6,-1123.4,-224.2,2025-01-29 11:59:32,1
212.0,1272.8,688.0,1223.6,-430.4,-257.2,2025-01-29 11:59:32,1
-116.0,1176.8,568.0,1300.6,-361.4,-317.2,2025-01-29 11:59:32,1
-340.0,772.8,404.0,1426.6,-729.4,-250.2,2025-01-29 11:59:32,1
-360.0,264.79999999999995,424.0,1669.6,-1375.4,-130.2,2025-01-29 11:59:32,1
52.0,-15.200000000000044,316.0,2084.6,-1751.4,16.80000000000001,2025-01-29 11:59:32,1
240.0,-515.2,476.0,2391.6,-1686.4,138.8,2025-01-29 11:59:32,1
336.0,-531.2,696.0,2834.6,-1163.4,343.8,2025-01-29 11:59:32,1
124.0,-591.2,488.0,3281.6,-268.4,539.8,2025-01-29 11:59:32,1
-168.0,-975.2,512.0,3636.6,220.6,561.8,2025-01-29 11:59:32,1
-500.0,-559.2,-12.0,4075.6,-145.4,295.8,2025-01-29 11:59:32,1
-708.0,-431.2000000000001,-712.0,4413.6,-607.4,-105.2,2025-01-29 11:59:32,1
-508.0,-519.2,-388.0,4618.6,-866.4,-542.2,2025-01-29 11:59:32,1
-560.0,-747.2,380.0,4611.6,-930.4,-773.2,2025-01-29 11:59:32,1
-392.0,-1107.2,1576.0,4378.6,-775.4,-677.2,2025-01-29 11:59:32,1
-288.0,-951.2,1932.0,3989.6,-226.4,-373.2,2025-01-29 11:59:32,1
116.0,-455.2000000000001,2428.0,3475.6,579.6,-334.2,2025-01-29 11:59:32,1
180.0,132.79999999999995,3048.0,2707.6,1153.6,-697.2,2025-01-29 11:59:32,1
400.0,80.79999999999995,2924.0,1709.6,1525.6,-1207.2,2025-01-29 11:59:32,1
28.0,-787.2,2760.0,757.6,2617.6,-2088.2,2025-01-29 11:59:32,1
-708.0,-1503.2,2544.0,444.6,3308.6,-2477.2,2025-01-29 11:59:32,1
-1320.0,-1879.2,2724.0,232.6,3165.6,-2427.2,2025-01-29 11:59:32,1
-1300.0,-2359.2,2972.0,394.6,2397.6,-2257.2,2025-01-29 11:59:32,1
-1308.0,-2283.2,2860.0,428.6,1422.6,-1917.2,2025-01-29 11:59:32,1
-1008.0,-2135.2,2372.0,164.6,727.6,-1480.2,2025-01-29 11:59:32,1
-512.0,-1655.2,2412.0,-318.4,400.6,-959.2,2025-01-29 11:59:32,1
24.0,-843.2,2384.0,-1008.4,530.6,-504.2,2025-01-29 11:59:32,1
176.0,-263.20000000000005,2312.0,-1706.4,889.6,-269.2,2025-01-29 11:59:32,1
-188.0,-199.20000000000005,2448.0,-2272.4,1233.6,-55.19999999999999,2025-01-29 11:59:32,1
-360.0,-451.2000000000001,2368.0,-2650.4,1322.6,196.8,2025-01-29 11:59:32,1
-580.0,-1115.2,2328.0,-2803.4,1406.6,424.8,2025-01-29 11:59:32,1
-292.0,-1927.2,2140.0,-2649.4,1686.6,258.8,2025-01-29 11:59:32,1
-688.0,-2055.2,2448.0,-2516.4,1991.6,-591.2,2025-01-29 11:59:32,1
-1300.0,-2127.2,2696.0,-2418.4,1762.6,-1245.2,2025-01-29 11:59:32,1
-1840.0,-1979.2,2576.0,-2460.4,1071.6,-1623.2,2025-01-29 11:59:32,1
-1804.0,-1771.2,2740.0,-2570.4,126.6,-1774.2,2025-01-29 11:59:32,1
-1432.0,-1271.2,2752.0,-2760.4,-731.4,-1905.2,2025-01-29 11:59:32,1
-828.0,-1011.2,3088.0,-3176.4,-1138.4,-2176.2,2025-01-29 11:59:32,1
-612.0,-887.2,3468.0,-3972.4,-1117.4,-2558.2,2025-01-29 11:59:32,1
-560.0,-1875.2,3288.0,-4646.4,-553.4,-3174.2,2025-01-29 11:59:32,1
-656.0,-2851.2,2400.0,-4807.4,-185.4,-4094.2,2025-01-29 11:59:32,1
-1552.0,-3555.2,1148.0,-4696.4,65.6,-4941.2,2025-01-29 11:59:32,1
-2344.0,-3991.2,824.0,-4112.4,-501.4,-5650.2,2025-01-29 11:59:32,1
-3164.0,-4391.2,1952.0,-2762.4,-1901.4,-5885.2,2025-01-29 11:59:32,1
-3032.0,-5515.2,3044.0,-884.4,-3757.4,-5719.2,2025-01-29 11:59:33,1
-2340.0,-6403.2,1912.0,740.6,-6015.4,-5496.2,2025-01-29 11:59:33,1
-2728.0,-5307.2,1268.0,1157.6,-7574.4,-4771.2,2025-01-29 11:59:33,1
-3808.0,-3491.2,192.0,876.6,-7429.4,-2623.2,2025-01-29 11:59:33,1
-3608.0,-3143.2,-1564.0,228.6,-5644.4,1385.8,2025-01-29 11:59:33,1
364.0,-3111.2,-4896.0,-918.4,-3245.4,2894.8,2025-01-29 11:59:33,1
620.0,-2611.2,-3380.0,-2258.4,-1173.4,2143.8,2025-01-29 11:59:33,1
-272.0,-1943.2,-1180.0,-1875.4,-149.4,1898.8,2025-01-29 11:59:33,1
-812.0,-467.2000000000001,-216.0,-1065.4,-802.4,2380.8,2025-01-29 11:59:33,1
-412.0,980.8,648.0,42.6,-1765.4,2621.8,2025-01-29 11:59:33,1
336.0,1864.8,-280.0,449.6,-2685.4,2267.8,2025-01-29 11:59:33,1
272.0,1512.8,-424.0,111.6,-2233.4,1864.8,2025-01-29 11:59:33,1
-228.0,452.8,-268.0,-169.4,-574.4,2234.8,2025-01-29 11:59:33,1
-476.0,-619.2,-252.0,-182.4,855.6,3211.8,2025-01-29 11:59:33,1
-96.0,-1451.2,104.0,-84.4,1460.6,3801.8,2025-01-29 11:59:33,1
-640.0,-1767.2,1128.0,266.6,1374.6,4251.8,2025-01-29 11:59:33,1
-424.0,-1583.2,1652.0,828.6,943.6,4566.8,2025-01-29 11:59:33,1
-188.0,-895.2,1296.0,1295.6,356.6,4526.8,2025-01-29 11:59:33,1
1260.0,1052.8,504.0,1325.6,-30.40000000000001,4587.8,2025-01-29 11:59:33,1
1940.0,1084.8,1180.0,1243.6,-145.4,4071.8,2025-01-29 11:59:33,1
2304.0,672.8,1688.0,1304.6,145.6,3334.8,2025-01-29 11:59:33,1
2128.0,372.8,2144.0,1561.6,1200.6,2635.8,2025-01-29 11:59:33,1
1304.0,660.8,1656.0,1517.6,2560.6,2350.8,2025-01-29 11:59:33,1
604.0,984.8,1132.0,1324.6,3195.6,2433.8,2025-01-29 11:59:33,1
-100.0,1956.8,868.0,920.6,3038.6,2423.8,2025-01-29 11:59:33,1
-564.0,2468.8,1000.0,563.6,2021.6,2154.8,2025-01-29 11:59:33,1
-752.0,2204.8,1352.0,394.6,696.6,1646.8,2025-01-29 11:59:33,1
-900.0,1860.8,1652.0,406.6,-416.4,1155.8,2025-01-29 11:59:33,1
-848.0,1260.8,1708.0,404.6,-1107.4,1017.8,2025-01-29 11:59:33,1
-160.0,928.8,2112.0,550.6,-1610.4,1252.8,2025-01-29 11:59:33,1
424.0,612.8,2508.0,761.6,-1544.4,1423.8,2025-01-29 11:59:33,1
872.0,308.79999999999995,2716.0,1016.6,-1213.4,1284.8,2025-01-29 11:59:33,1
872.0,148.79999999999995,2976.0,1225.6,-977.4,1118.8,2025-01-29 11:59:33,1
588.0,336.79999999999995,3472.0,1559.6,-1098.4,984.8,2025-01-29 11:59:33,1
124.0,720.8,3200.0,1964.6,-1299.4,910.8,2025-01-29 11:59:33,1
-120.0,1300.8,2728.0,2282.6,-1463.4,927.8,2025-01-29 11:59:33,1
232.0,1540.8,2388.0,2422.6,-1774.4,711.8,2025-01-29 11:59:33,1
104.0,1396.8,2892.0,2518.6,-1548.4,415.8,2025-01-29 11:59:33,1
40.0,1396.8,3272.0,2696.6,-1262.4,389.8,2025-01-29 11:59:33,1
220.0,1776.8,2944.0,2787.6,-1296.4,448.8,2025-01-29 11:59:33,1
-168.0,2572.8,2728.0,2827.6,-543.4,870.8,2025-01-29 11:59:33,1
-644.0,1916.8,2092.0,2889.6,883.6,897.8,2025-01-29 11:59:33,1
-1900.0,308.79999999999995,1788.0,2817.6,2125.6,983.8,2025-01-29 11:59:33,1
-2620.0,556.8,2412.0,2823.6,2395.6,1131.8,2025-01-29 11:59:33,1
-3020.0,860.8,3364.0,3302.6,1667.6,1289.8,2025-01-29 11:59:33,1
-2920.0,804.8,3864.0,3760.6,819.6,1357.8,2025-01-29 11:59:33,1
-2912.0,512.8,4464.0,4128.6,554.6,1426.8,2025-01-29 11:59:33,1
-2236.0,296.79999999999995,4632.0,4687.6,926.6,1560.8,2025-01-29 11:59:33,1
-2288.0,584.8,2660.0,4982.6,2220.6,1693.8,2025-01-29 11:59:33,1
-2596.0,844.8,1628.0,5283.6,4342.6,1869.8,2025-01-29 11:59:33,1
-3768.0,3036.8,-232.0,5176.6,5951.6,2036.8,2025-01-29 11:59:33,1
-5540.0,5560.8,-3104.0,2482.6,6322.6,2773.8,2025-01-29 11:59:33,1
-5620.0,6488.8,-3788.0,130.6,4628.6,2848.8,2025-01-29 11:59:33,1
-4888.0,5944.8,-3812.0,-1628.4,1896.6,2353.8,2025-01-29 11:59:33,1
-4064.0,3984.8,-2224.0,-2850.4,-1131.4,1455.8,2025-01-29 11:59:33,1
-2528.0,1528.8,-812.0,-3099.4,-3564.4,738.8,2025-01-29 11:59:33,1
624.0,-135.20000000000005,0.0,-2266.4,-5363.4,-174.2,2025-01-29 11:59:33,1
3376.0,-807.2,-356.0,-1131.4,-5619.4,-1471.2,2025-01-29 11:59:33,1
4480.0,-659.2,-1860.0,-177.4,-4653.4,-2432.2,2025-01-29 11:59:33,1
4124.0,-1343.2,-3136.0,-34.400000000000006,-1715.4,-2498.2,2025-01-29 11:59:34,1
3476.0,-1867.2,-2712.0,-312.4,1268.6,-2000.2,2025-01-29 11:59:34,1
2988.0,-1947.2,-2200.0,-469.4,2832.6,-1509.2,2025-01-29 11:59:34,1
1408.0,-1219.2,-1084.0,-557.4,3394.6,-1150.2,2025-01-29 11:59:34,1
636.0,-539.2,-996.0,-822.4,2601.6,-1248.2,2025-01-29 11:59:34,1
-304.0,24.799999999999955,-44.0,-1131.4,1173.6,-1476.2,2025-01-29 11:59:34,1
-632.0,316.79999999999995,208.0,-1352.4,-150.4,-1600.2,2025-01-29 11:59:34,1
-284.0,520.8,-248.0,-1490.4,-1203.4,-1921.2,2025-01-29 11:59:34,1
-124.0,420.8,-744.0,-1738.4,-1620.4,-2443.2,2025-01-29 11:59:34,1
368.0,208.79999999999995,-576.0,-2086.4,-1739.4,-2983.2,2025-01-29 11:59:34,1
920.0,-187.20000000000005,368.0,-2501.4,-2110.4,-3905.2,2025-01-29 11:59:34,1
860.0,-1127.2,1484.0,-2751.4,-2246.4,-4641.2,2025-01-29 11:59:34,1
1260.0,-1771.2,1340.0,-2613.4,-2081.4,-4771.2,2025-01-29 11:59:34,1
1480.0,-2219.2,1340.0,-2395.4,-1518.4,-4476.2,2025-01-29 11:59:34,1
948.0,-2547.2,1540.0,-2329.4,-563.4,-4145.2,2025-01-29 11:59:34,1
1004.0,-2547.2,1496.0,-2147.4,301.6,-4011.2,2025-01-29 11:59:34,1
676.0,-2215.2,1700.0,-1887.4,889.6,-3891.2,2025-01-29 11:59:34,1
424.0,-1643.2,1388.0,-1835.4,876.6,-3832.2,2025-01-29 11:59:34,1
-352.0,-967.2,1208.0,-1911.4,722.6,-3843.2,2025-01-29 11:59:34,1
84.0,-807.2,416.0,-2151.4,497.6,-3902.2,2025-01-29 11:59:34,1
-128.0,-855.2,928.0,-2460.4,34.599999999999994,-3916.2,2025-01-29 11:59:34,1
-368.0,-1215.2,1636.0,-2679.4,-627.4,-3606.2,2025-01-29 11:59:34,1
-316.0,-1151.2,1984.0,-2714.4,-1027.4,-3246.2,2025-01-29 11:59:34,1
404.0,-1391.2,2520.0,-2773.4,-1039.4,-3148.2,2025-01-29 11:59:34,1
644.0,-1471.2,2456.0,-2905.4,-675.4,-3334.2,2025-01-29 11:59:34,1
744.0,-1755.2,2664.0,-3031.4,-259.4,-3669.2,2025-01-29 11:59:34,1
176.0,-1959.2,2800.0,-3152.4,37.6,-3824.2,2025-01-29 11:59:34,1
644.0,-2387.2,2140.0,-3071.4,149.6,-3667.2,2025-01-29 11:59:34,1
584.0,-2659.2,2332.0,-3129.4,309.6,-3335.2,2025-01-29 11:59:34,1
336.0,-2735.2,2980.0,-3151.4,616.6,-3140.2,2025-01-29 11:59:34,1
188.0,-2767.2,3284.0,-3120.4,986.6,-3019.2,2025-01-29 11:59:34,1
-148.0,-2939.2,3452.0,-2964.4,977.6,-2562.2,2025-01-29 11:59:34,1
-64.0,-2927.2,3152.0,-2765.4,426.6,-1859.2,2025-01-29 11:59:34,1
672.0,-3007.2,2800.0,-2489.4,69.6,-1202.2,2025-01-29 11:59:34,1
1496.0,-3171.2,2904.0,-2268.4,396.6,-966.2,2025-01-29 11:59:34,1
1640.0,-3215.2,3716.0,-2182.4,1246.6,-1000.2,2025-01-29 11:59:34,1
1044.0,-2951.2,4712.0,-1988.4,2071.6,-1040.2,2025-01-29 11:59:34,1
652.0,-3091.2,4428.0,-2038.4,2873.6,-1055.2,2025-01-29 11:59:34,1
-24.0,-3479.2,4816.0,-1912.4,3163.6,-1002.2,2025-01-29 11:59:34,1
-12.0,-3911.2,4392.0,-1476.4,2686.6,-1329.2,2025-01-29 11:59:34,1
-116.0,-3791.2,3772.0,-900.4,1727.6,-1737.2,2025-01-29 11:59:34,1
-364.0,-2923.2,3056.0,-562.4,369.6,-1629.2,2025-01-29 11:59:34,1
-88.0,-1403.2,3020.0,-593.4,-383.4,-982.2,2025-01-29 11:59:34,1
1284.0,56.79999999999996,2568.0,-1143.4,-459.4,-727.2,2025-01-29 11:59:34,1
2168.0,164.79999999999995,2796.0,-1426.4,-720.4,-768.2,2025-01-29 11:59:34,1
2684.0,-1351.2,1244.0,-2399.4,-156.4,-464.2,2025-01-29 11:59:34,1
4128.0,-2215.2,1080.0,-2404.4,2052.6,11.800000000000011,2025-01-29 11:59:34,1
7508.0,-2947.2,-7604.0,-607.4,3893.6,130.8,2025-01-29 11:59:34,1
7380.0,-5067.2,-9400.0,771.6,7474.6,-1958.2,2025-01-29 11:59:34,1
3244.0,-5499.2,-4440.0,1658.6,13494.6,-4467.2,2025-01-29 11:59:34,1
-1200.0,-3411.2,-1140.0,2224.6,14410.6,-5302.2,2025-01-29 11:59:34,1
-4488.0,-191.20000000000005,-2132.0,3186.6,7298.6,-2734.2,2025-01-29 11:59:34,1
-336.0,3584.8,-6536.0,1592.6,-3457.4,2423.8,2025-01-29 11:59:34,1
3792.0,4932.8,-10264.0,-2655.4,-7129.4,1767.8,2025-01-29 11:59:34,1
2844.0,2712.8,-12788.0,-5858.4,-6010.4,-2330.2,2025-01-29 11:59:34,1
-1312.0,-1995.2,-13624.0,-6871.4,-6411.4,-7536.2,2025-01-29 11:59:34,1
-5068.0,-6459.2,-9752.0,-4864.4,-10654.4,-7728.2,2025-01-29 11:59:34,1
-2452.0,-11043.2,3032.0,2187.6,-15194.4,-257.2,2025-01-29 11:59:34,1
3924.0,-6683.2,2092.0,492.6,-12462.4,2916.8,2025-01-29 11:59:34,1
6284.0,-479.2000000000001,3380.0,-3549.4,-6271.4,1378.8,2025-01-29 11:59:35,1
3268.0,3276.8,2844.0,-5857.4,-1127.4,-1041.2,2025-01-29 11:59:35,1
520.0,2776.8,336.0,-4978.4,986.6,-2294.2,2025-01-29 11:59:35,1
-2296.0,-1083.2,-3268.0,-3212.4,783.6,-2987.2,2025-01-29 11:59:35,1
-3972.0,-5035.2,-4616.0,-1371.4,178.6,-3471.2,2025-01-29 11:59:35,1
-4312.0,-5883.2,-2332.0,571.6,-1357.4,-5073.2,2025-01-29 11:59:35,1
-6908.0,-1787.2,684.0,1032.6,-2730.4,-3740.2,2025-01-29 11:59:35,1
-1264.0,-115.20000000000005,-8104.0,-1445.4,-3735.4,-1114.2,2025-01-29 11:59:35,1
-2732.0,600.8,-11740.0,-4518.4,-4923.4,-479.2,2025-01-29 11:59:35,1
-4200.0,984.8,-10312.0,-5225.4,-5838.4,-801.2,2025-01-29 11:59:35,1
-1224.0,-1383.2,-3256.0,-3814.4,-5308.4,-397.2,2025-01-29 11:59:35,1
988.0,-4831.2,2440.0,-872.4,-1202.4,-113.2,2025-01-29 11:59:35,1
-308.0,-5543.2,3912.0,1920.6,3637.6,986.8,2025-01-29 11:59:35,1
-1728.0,-2819.2,3112.0,2752.6,5392.6,2750.8,2025-01-29 11:59:35,1
-2408.0,428.8,424.0,1952.6,5139.6,4034.8,2025-01-29 11:59:35,1
-2232.0,1376.8,1076.0,543.6,2893.6,4445.8,2025-01-29 11:59:35,1
-524.0,276.79999999999995,1616.0,201.6,1816.6,4125.8,2025-01-29 11:59:35,1
1428.0,-843.2,1468.0,442.6,637.6,3424.8,2025-01-29 11:59:35,1
3064.0,-1075.2,1272.0,531.6,-248.4,2740.8,2025-01-29 11:59:35,1
4044.0,-1099.2,1060.0,353.6,406.6,1852.8,2025-01-29 11:59:35,1
2556.0,-1787.2,1368.0,-1.4000000000000057,1999.6,766.8,2025-01-29 11:59:35,1
344.0,-3371.2,2004.0,90.6,2063.6,-124.2,2025-01-29 11:59:35,1
-1580.0,-4399.2,1200.0,384.6,1298.6,-340.2,2025-01-29 11:59:35,1
-1648.0,-3791.2,1420.0,-32.400000000000006,944.6,818.8,2025-01-29 11:59:35,1
92.0,-2919.2,3048.0,-115.4,607.6,1595.8,2025-01-29 11:59:35,1
1568.0,-3191.2,3848.0,161.6,50.6,1811.8,2025-01-29 11:59:35,1
2840.0,-4531.2,4240.0,600.6,268.6,1295.8,2025-01-29 11:59:35,1
3192.0,-5847.2,3128.0,1290.6,1364.6,731.8,2025-01-29 11:59:35,1
2908.0,-5787.2,-172.0,1205.6,3516.6,216.8,2025-01-29 11:59:35,1
920.0,-4183.2,-2036.0,193.6,5242.6,-307.2,2025-01-29 11:59:35,1
-2548.0,-3315.2,-456.0,-322.4,4195.6,-766.2,2025-01-29 11:59:35,1
-5692.0,-3227.2,112.0,-598.4,1806.6,205.8,2025-01-29 11:59:35,1
-3392.0,-2439.2,-1744.0,-1430.4,-616.4,1022.8,2025-01-29 11:59:35,1
-412.0,-1723.2,-2824.0,-2883.4,-3376.4,530.8,2025-01-29 11:59:35,1
1272.0,-3191.2,2048.0,-3370.4,-4047.4,-854.2,2025-01-29 11:59:35,1
552.0,-5039.2,6552.0,-2626.4,-609.4,-2088.2,2025-01-29 11:59:35,1
-2424.0,-5331.2,8308.0,-889.4,3655.6,-2718.2,2025-01-29 11:59:35,1
-5256.0,-3203.2,4304.0,386.6,5467.6,-3197.2,2025-01-29 11:59:35,1
-6652.0,-2371.2,2032.0,-136.4,5030.6,-2305.2,2025-01-29 11:59:35,1
-5380.0,-3663.2,1788.0,-976.4,4513.6,-1340.2,2025-01-29 11:59:35,1
-4464.0,-4455.2,1172.0,-747.4,4309.6,-1278.2,2025-01-29 11:59:35,1
-4960.0,-3767.2,376.0,-94.4,4509.6,-741.2,2025-01-29 11:59:35,1
-5064.0,-2803.2,-976.0,275.6,4959.6,-128.2,2025-01-29 11:59:35,1
-4288.0,-1495.2,-3364.0,380.6,4360.6,772.8,2025-01-29 11:59:35,1
-3724.0,-1139.2,-3840.0,-43.400000000000006,2903.6,1562.8,2025-01-29 11:59:35,1
-1580.0,-1843.2,-3888.0,-596.4,1555.6,1761.8,2025-01-29 11:59:35,1
-1020.0,-1803.2,-4312.0,-789.4,1138.6,1846.8,2025-01-29 11:59:35,1
-472.0,-791.2,-4436.0,-1004.4,767.6,2209.8,2025-01-29 11:59:35,1
-940.0,-255.20000000000005,-3604.0,-1285.4,457.6,2610.8,2025-01-29 11:59:35,1
-848.0,-415.2000000000001,-3096.0,-1454.4,-180.4,3202.8,2025-01-29 11:59:35,1
-1264.0,-527.2,-2908.0,-883.4,-1014.4,4371.8,2025-01-29 11:59:35,1
1004.0,-379.2000000000001,-3348.0,656.6,-3905.4,5402.8,2025-01-29 11:59:35,1
3468.0,-215.20000000000005,-640.0,3066.6,-8431.4,5241.8,2025-01-29 11:59:35,1
3856.0,-1819.2,1784.0,5768.6,-9011.4,3874.8,2025-01-29 11:59:35,1
3508.0,-3475.2,2024.0,5969.6,-6813.4,3646.8,2025-01-29 11:59:35,1
3416.0,-3271.2,2252.0,5711.6,-3877.4,4640.8,2025-01-29 11:59:35,1
3624.0,-1391.2,860.0,5810.6,-1325.4,5950.8,2025-01-29 11:59:35,1
2908.0,1064.8,-1208.0,4623.6,881.6,6920.8,2025-01-29 11:59:35,1
2524.0,2660.8,-1068.0,3329.6,1815.6,7370.8,2025-01-29 11:59:35,1
2836.0,3716.8,380.0,2607.6,2139.6,6711.8,2025-01-29 11:59:35,1
2920.0,3252.8,1028.0,2012.6,1860.6,5030.8,2025-01-29 11:59:35,1
2276.0,2940.8,916.0,997.6,577.6,3179.8,2025-01-29 11:59:36,1
1188.0,2812.8,1280.0,425.6,-872.4,2785.8,2025-01-29 11:59:36,1
996.0,1908.8,1116.0,61.6,-1756.4,2973.8,2025-01-29 11:59:36,1
1540.0,704.8,928.0,-317.4,-2058.4,3028.8,2025-01-29 11:59:36,1
1628.0,-59.200000000000045,1592.0,-245.4,-1678.4,2631.8,2025-01-29 11:59:36,1
676.0,-387.2000000000001,2384.0,200.6,-956.4,2365.8,2025-01-29 11:59:36,1
-380.0,-615.2,2360.0,989.6,-743.4,2626.8,2025-01-29 11:59:36,1
-508.0,-607.2,1648.0,1777.6,-1102.4,3144.8,2025-01-29 11:59:36,1
252.0,-419.2000000000001,840.0,2366.6,-1519.4,3548.8,2025-01-29 11:59:36,1
892.0,8.799999999999955,968.0,2737.6,-2187.4,3589.8,2025-01-29 11:59:36,1
1448.0,708.8,1544.0,3262.6,-2539.4,3357.8,2025-01-29 11:59:36,1
1416.0,1000.8,1952.0,3519.6,-2408.4,3089.8,2025-01-29 11:59:36,1
1192.0,1704.8,1700.0,3426.6,-2348.4,2863.8,2025-01-29 11:59:36,1
1044.0,2292.8,1316.0,3023.6,-2410.4,2658.8,2025-01-29 11:59:36,1
1592.0,2600.8,556.0,2556.6,-2450.4,2234.8,2025-01-29 11:59:36,1
1416.0,2552.8,1028.0,2237.6,-2829.4,1254.8,2025-01-29 11:59:36,1
884.0,2248.8,2076.0,2156.6,-3439.4,413.8,2025-01-29 11:59:36,1
504.0,1992.8,2756.0,1994.6,-4570.4,-356.2,2025-01-29 11:59:36,1
-304.0,1704.8,3336.0,1566.6,-6632.4,-1064.2,2025-01-29 11:59:36,1
-264.0,2048.8,4604.0,1506.6,-8470.4,-1557.2,2025-01-29 11:59:36,1
364.0,2320.8,4544.0,1547.6,-9782.4,-1821.2,2025-01-29 11:59:36,1
396.0,2556.8,5368.0,1420.6,-9039.4,-1825.2,2025-01-29 11:59:36,1
416.0,2756.8,5412.0,1064.6,-6494.4,-1280.2,2025-01-29 11:59:36,1
1204.0,1784.8,4508.0,226.6,-4140.4,-1295.2,2025-01-29 11:59:36,1
1196.0,468.8,4436.0,143.6,-2016.4,-1554.2,2025-01-29 11:59:36,1
912.0,-1691.2,4284.0,571.6,-169.4,-1940.2,2025-01-29 11:59:36,1
-220.0,-3563.2,4808.0,1112.6,923.6,-1903.2,2025-01-29 11:59:36,1
-3080.0,-3375.2,7268.0,2098.6,1478.6,223.8,2025-01-29 11:59:36,1
-2176.0,-1499.2,7320.0,3345.6,1206.6,2567.8,2025-01-29 11:59:36,1
-1564.0,792.8,5132.0,3772.6,875.6,3691.8,2025-01-29 11:59:36,1
-2500.0,1532.8,2756.0,3860.6,2598.6,4235.8,2025-01-29 11:59:36,1
-3964.0,736.8,-948.0,3165.6,6900.6,4901.8,2025-01-29 11:59:36,1
-5932.0,864.8,-1044.0,1981.6,9433.6,6386.8,2025-01-29 11:59:36,1
-6576.0,1956.8,-976.0,703.6,9226.6,8860.8,2025-01-29 11:59:36,1
-6288.0,3796.8,-1536.0,-533.4,7333.6,10573.8,2025-01-29 11:59:36,1
-3104.0,5280.8,-2256.0,-1165.4,5083.6,10067.8,2025-01-29 11:59:36,1
524.0,5632.8,-2392.0,-582.4,3418.6,5768.8,2025-01-29 11:59:36,1
2068.0,3428.8,-2460.0,1800.6,2284.6,-1947.2,2025-01-29 11:59:36,1
-2696.0,1080.8,-4960.0,3060.6,1220.6,-5607.2,2025-01-29 11:59:36,1
-3684.0,-815.2,-5268.0,3037.6,-847.4,-4404.2,2025-01-29 11:59:36,1
-2292.0,-1167.2,-4676.0,2606.6,-3944.4,-2368.2,2025-01-29 11:59:36,1
-500.0,-475.2000000000001,-1760.0,2386.6,-4910.4,-999.2,2025-01-29 11:59:36,1
2100.0,-195.20000000000005,52.0,2181.6,-3468.4,-506.2,2025-01-29 11:59:36,1
3392.0,-151.20000000000005,1032.0,1925.6,-977.4,-727.2,2025-01-29 11:59:36,1
4020.0,252.79999999999995,328.0,2110.6,2525.6,-1662.2,2025-01-29 11:59:36,1
3052.0,1216.8,-452.0,2520.6,5092.6,-2870.2,2025-01-29 11:59:36,1
1600.0,1928.8,-1028.0,2026.6,6265.6,-3947.2,2025-01-29 11:59:36,1
248.0,2272.8,-668.0,1085.6,5499.6,-4543.2,2025-01-29 11:59:36,1
-760.0,1312.8,-384.0,30.599999999999994,2681.6,-4376.2,2025-01-29 11:59:36,1
-664.0,-379.2000000000001,520.0,-641.4,-316.4,-3790.2,2025-01-29 11:59:36,1
288.0,-1703.2,1212.0,-707.4,-1683.4,-3481.2,2025-01-29 11:59:36,1
928.0,-2423.2,1644.0,-293.4,-1968.4,-3433.2,2025-01-29 11:59:36,1
1756.0,-2735.2,1248.0,266.6,-1687.4,-3522.2,2025-01-29 11:59:36,1
1940.0,-2239.2,1780.0,808.6,-1260.4,-3594.2,2025-01-29 11:59:36,1
1980.0,-1687.2,2064.0,1180.6,-526.4,-3445.2,2025-01-29 11:59:36,1
1564.0,-1631.2,2016.0,1372.6,599.6,-3236.2,2025-01-29 11:59:36,1
1156.0,-1887.2,2124.0,1405.6,1452.6,-3142.2,2025-01-29 11:59:36,1
-80.0,-2191.2,2292.0,1592.6,1677.6,-2970.2,2025-01-29 11:59:36,1
-836.0,-2323.2,1884.0,1763.6,1286.6,-2654.2,2025-01-29 11:59:36,1
-1888.0,-2367.2,1576.0,1702.6,646.6,-1936.2,2025-01-29 11:59:36,1
-1596.0,-1403.2,784.0,1847.6,-546.4,-1047.2,2025-01-29 11:59:36,1
-1244.0,168.79999999999995,1524.0,1696.6,-1696.4,-91.2,2025-01-29 11:59:36,1
-252.0,588.8,2080.0,1098.6,-2445.4,-35.19999999999999,2025-01-29 11:59:37,1
-60.0,156.79999999999995,2616.0,565.6,-2593.4,6.800000000000011,2025-01-29 11:59:37,1
340.0,-1243.2,2596.0,143.6,-2237.4,483.8,2025-01-29 11:59:37,1
584.0,-2131.2,2080.0,-310.4,-1566.4,1080.8,2025-01-29 11:59:37,1
528.0,-1927.2,2280.0,-713.4,-678.4,1373.8,2025-01-29 11:59:37,1
836.0,-1215.2,2008.0,-1137.4,373.6,1083.8,2025-01-29 11:59:37,1
52.0,-515.2,2824.0,-1546.4,602.6,709.8,2025-01-29 11:59:37,1
-136.0,-247.20000000000005,3028.0,-1879.4,340.6,475.8,2025-01-29 11:59:37,1
120.0,-367.2000000000001,2536.0,-2402.4,-138.4,332.8,2025-01-29 11:59:37,1
156.0,-475.2000000000001,2452.0,-3003.4,-12.400000000000006,268.8,2025-01-29 11:59:37,1
68.0,-627.2,2708.0,-3388.4,436.6,187.8,2025-01-29 11:59:37,1
84.0,-507.2000000000001,2056.0,-3752.4,329.6,114.8,2025-01-29 11:59:37,1
-652.0,-727.2,2180.0,-3965.4,120.6,250.8,2025-01-29 11:59:37,1
-548.0,-1659.2,1944.0,-4009.4,260.6,471.8,2025-01-29 11:59:37,1
-212.0,-2635.2,2256.0,-3886.4,425.6,194.8,2025-01-29 11:59:37,1
24.0,-3427.2,2252.0,-3790.4,1140.6,-805.2,2025-01-29 11:59:37,1
-472.0,-3535.2,2580.0,-3534.4,2429.6,-2670.2,2025-01-29 11:59:37,1
-2192.0,-903.2,-704.0,-1859.4,-505.4,-3750.2,2025-01-29 11:59:37,1
-2652.0,-1467.2,-44.0,-1615.4,253.6,-4634.2,2025-01-29 11:59:37,1
-3256.0,-3579.2,112.0,-678.4,1031.6,-5327.2,2025-01-29 11:59:37,1
-4672.0,-5295.2,208.0,38.6,858.6,-5139.2,2025-01-29 11:59:37,1
-5768.0,-6203.2,172.0,507.6,-1187.4,-3517.2,2025-01-29 11:59:37,1
-5876.0,-4903.2,-268.0,582.6,-4137.4,-1083.2,2025-01-29 11:59:37,1
-4204.0,-1191.2,-1192.0,632.6,-6257.4,1120.8,2025-01-29 11:59:37,1
-2040.0,768.8,-2940.0,18.599999999999994,-7173.4,2530.8,2025-01-29 11:59:37,1
1600.0,1756.8,-4452.0,-1221.4,-6879.4,2790.8,2025-01-29 11:59:37,1
2996.0,1960.8,-3840.0,-1858.4,-5545.4,1878.8,2025-01-29 11:59:37,1
3956.0,2188.8,-2784.0,-2353.4,-3749.4,920.8,2025-01-29 11:59:37,1
3860.0,1896.8,-1252.0,-2622.4,-1687.4,306.8,2025-01-29 11:59:37,1
4116.0,1060.8,-1712.0,-3035.4,359.6,-64.19999999999999,2025-01-29 11:59:37,1
3932.0,392.8,-2288.0,-3691.4,2328.6,-223.2,2025-01-29 11:59:37,1
2556.0,340.79999999999995,-1584.0,-4328.4,4624.6,-182.2,2025-01-29 11:59:37,1
648.0,1044.8,-628.0,-4899.4,6236.6,243.8,2025-01-29 11:59:37,1
-2748.0,1576.8,372.0,-4995.4,5334.6,1518.8,2025-01-29 11:59:37,1
-3572.0,1784.8,-84.0,-4680.4,2724.6,1918.8,2025-01-29 11:59:37,1
-2788.0,1508.8,-348.0,-4433.4,-407.4,2010.8,2025-01-29 11:59:37,1
-1140.0,748.8,-180.0,-4348.4,-2428.4,1886.8,2025-01-29 11:59:37,1
648.0,320.79999999999995,132.0,-4489.4,-2877.4,1742.8,2025-01-29 11:59:37,1
2640.0,156.79999999999995,1372.0,-4414.4,-2289.4,1253.8,2025-01-29 11:59:37,1
3520.0,-7.2000000000000455,1576.0,-4154.4,-1061.4,539.8,2025-01-29 11:59:37,1
3308.0,512.8,1700.0,-3875.4,1009.6,22.80000000000001,2025-01-29 11:59:37,1
2404.0,1420.8,1856.0,-3516.4,2890.6,-256.2,2025-01-29 11:59:37,1
2076.0,1652.8,992.0,-3451.4,3973.6,-536.2,2025-01-29 11:59:37,1
1112.0,2128.8,1092.0,-3707.4,4244.6,-892.2,2025-01-29 11:59:37,1
364.0,2004.8,1460.0,-3901.4,3713.6,-1428.2,2025-01-29 11:59:37,1
160.0,1956.8,460.0,-4109.4,2554.6,-2000.2,2025-01-29 11:59:37,1
204.0,2200.8,808.0,-4247.4,1193.6,-2871.2,2025-01-29 11:59:37,1
244.0,2480.8,1116.0,-4470.4,29.599999999999994,-3673.2,2025-01-29 11:59:37,1
-352.0,2988.8,1728.0,-4832.4,-675.4,-4052.2,2025-01-29 11:59:37,7
-936.0,3452.8,1980.0,-5235.4,-1116.4,-4000.2,2025-01-29 11:59:37,7
-1680.0,3872.8,1420.0,-5732.4,-1831.4,-3528.2,2025-01-29 11:59:37,7
-1020.0,3392.8,348.0,-6478.4,-3038.4,-3032.2,2025-01-29 11:59:37,7
-308.0,1740.8,1052.0,-6571.4,-3789.4,-2789.2,2025-01-29 11:59:37,7
564.0,-819.2,2196.0,-5551.4,-3553.4,-2474.2,2025-01-29 11:59:37,7
1260.0,-2659.2,2476.0,-4133.4,-2183.4,-2366.2,2025-01-29 11:59:37,7
1276.0,-2983.2,2284.0,-2374.4,193.6,-2129.2,2025-01-29 11:59:37,7
1132.0,-851.2,1772.0,-223.4,2147.6,-1669.2,2025-01-29 11:59:37,7
704.0,2112.8,340.0,200.6,2888.6,-1757.2,2025-01-29 11:59:37,7
-556.0,3488.8,-72.0,-760.4,3210.6,-1567.2,2025-01-29 11:59:37,7
-2056.0,2872.8,1060.0,-1396.4,3326.6,-1247.2,2025-01-29 11:59:37,7
-2732.0,1080.8,1496.0,-1508.4,2619.6,-800.2,2025-01-29 11:59:38,7
-2544.0,172.79999999999995,2088.0,-949.4,805.6,-619.2,2025-01-29 11:59:38,7
-1756.0,-175.20000000000005,2988.0,-182.4,-1331.4,-619.2,2025-01-29 11:59:38,7
-200.0,284.79999999999995,4168.0,352.6,-2689.4,-936.2,2025-01-29 11:59:38,7
872.0,1360.8,4584.0,997.6,-2536.4,-1430.2,2025-01-29 11:59:38,7
-28.0,3136.8,2348.0,1041.6,-883.4,-1591.2,2025-01-29 11:59:38,7
-1168.0,3908.8,-2592.0,-1.4000000000000057,3498.6,-1801.2,2025-01-29 11:59:38,7
-4648.0,5384.8,-8380.0,-2423.4,8440.6,-1292.2,2025-01-29 11:59:38,7
-7380.0,8044.8,-9216.0,-6482.4,10333.6,448.8,2025-01-29 11:59:38,7
-4152.0,8288.8,-6744.0,-9473.4,6177.6,885.8,2025-01-29 11:59:38,7
-1200.0,6908.8,-3356.0,-10965.4,-4232.4,-1105.2,2025-01-29 11:59:38,7
1436.0,4592.8,-3300.0,-11438.4,-16010.4,-3888.2,2025-01-29 11:59:38,7
3176.0,1752.8,-572.0,-9649.4,-16126.4,-6360.2,2025-01-29 11:59:38,7
6152.0,-379.2000000000001,-1372.0,-9491.4,-11789.4,-7481.2,2025-01-29 11:59:38,7
7308.0,-2575.2,-588.0,-8326.4,-6844.4,-7458.2,2025-01-29 11:59:38,7
7252.0,-5395.2,-1272.0,-7228.4,249.6,-7094.2,2025-01-29 11:59:38,7
4848.0,-5799.2,-2040.0,-7296.4,7283.6,-6459.2,2025-01-29 11:59:38,7
-140.0,-2731.2,-2812.0,-7315.4,13171.6,-5600.2,2025-01-29 11:59:38,7
-3616.0,-1039.2,-1988.0,-7408.4,13384.6,-5584.2,2025-01-29 11:59:38,7
-5320.0,-595.2,28.0,-7063.4,9241.6,-6314.2,2025-01-29 11:59:38,7
-4744.0,-855.2,-588.0,-6066.4,1182.6,-7593.2,2025-01-29 11:59:38,7
-2952.0,-587.2,-3532.0,-5980.4,-8483.4,-8000.2,2025-01-29 11:59:38,7
-1744.0,-71.20000000000005,408.0,-6154.4,-13940.4,-7419.2,2025-01-29 11:59:38,7
1108.0,488.8,-1688.0,-7573.4,-12446.4,-6570.2,2025-01-29 11:59:38,7
3592.0,1820.8,-980.0,-9404.4,-10225.4,-5699.2,2025-01-29 11:59:38,7
4600.0,2540.8,-120.0,-11023.4,-7192.4,-5250.2,2025-01-29 11:59:38,7
5544.0,2284.8,-928.0,-12836.4,-3745.4,-5168.2,2025-01-29 11:59:38,7
4396.0,1172.8,-276.0,-14436.4,-989.4,-5354.2,2025-01-29 11:59:38,7
3100.0,-799.2,-488.0,-15360.4,45.6,-6406.2,2025-01-29 11:59:38,7
808.0,-1935.2,-1000.0,-16002.4,-125.4,-7373.2,2025-01-29 11:59:38,7
-1204.0,-1975.2,-940.0,-16227.4,-719.4,-7536.2,2025-01-29 11:59:38,7
-2020.0,-1651.2,-396.0,-16405.4,-1945.4,-7138.2,2025-01-29 11:59:38,7
-1300.0,-1087.2,-1136.0,-16836.4,-3540.4,-6921.2,2025-01-29 11:59:38,7
-64.0,-831.2,-1752.0,-17508.4,-4236.4,-7140.2,2025-01-29 11:59:38,7
272.0,-1543.2,-900.0,-17838.4,-3983.4,-7712.2,2025-01-29 11:59:38,7
708.0,-1939.2,-652.0,-17952.4,-3758.4,-7921.2,2025-01-29 11:59:38,7
972.0,-1935.2,-292.0,-18104.4,-3166.4,-8051.2,2025-01-29 11:59:38,7
1024.0,-1567.2,-584.0,-18453.4,-2472.4,-8371.2,2025-01-29 11:59:38,7
880.0,-1163.2,-1432.0,-19113.4,-2067.4,-8523.2,2025-01-29 11:59:38,7
716.0,-515.2,-1120.0,-19696.4,-2289.4,-8380.2,2025-01-29 11:59:38,7
-64.0,-343.20000000000005,80.0,-20222.4,-2901.4,-7920.2,2025-01-29 11:59:38,7
-52.0,-947.2,-292.0,-20532.4,-4006.4,-6989.2,2025-01-29 11:59:38,7
920.0,-2591.2,-604.0,-20517.4,-4840.4,-6117.2,2025-01-29 11:59:38,7
1076.0,-3863.2,-196.0,-20177.4,-4682.4,-5364.2,2025-01-29 11:59:38,7
1756.0,-3239.2,100.0,-19956.4,-3867.4,-4489.2,2025-01-29 11:59:38,7
2100.0,-2527.2,1224.0,-19684.4,-2726.4,-4214.2,2025-01-29 11:59:38,7
2096.0,-2759.2,1424.0,-19179.4,-363.4,-4717.2,2025-01-29 11:59:38,7
572.0,-2963.2,1288.0,-19065.4,1214.6,-5564.2,2025-01-29 11:59:38,7
-1336.0,-1943.2,1576.0,-19108.4,1227.6,-6074.2,2025-01-29 11:59:38,7
-3172.0,-1275.2,624.0,-19310.4,420.6,-6149.2,2025-01-29 11:59:38,7
-2748.0,-799.2,-1360.0,-19865.4,-998.4,-6339.2,2025-01-29 11:59:38,7
-2128.0,-663.2,-716.0,-20399.4,-2498.4,-6734.2,2025-01-29 11:59:38,7
-608.0,-879.2,164.0,-20664.4,-3640.4,-7156.2,2025-01-29 11:59:38,7
928.0,-1227.2,500.0,-20745.4,-4133.4,-7654.2,2025-01-29 11:59:39,7
1540.0,-2127.2,-140.0,-20943.4,-3352.4,-7644.2,2025-01-29 11:59:39,7
1776.0,-3387.2,-376.0,-21494.4,-1525.4,-7778.2,2025-01-29 11:59:39,7
640.0,-4635.2,404.0,-21986.4,633.6,-7788.2,2025-01-29 11:59:39,7
-464.0,-3967.2,1028.0,-22299.4,1252.6,-7121.2,2025-01-29 11:59:39,7
-572.0,-2603.2,2380.0,-22603.4,186.6,-6832.2,2025-01-29 11:59:39,7
12.0,-2175.2,1532.0,-23088.4,-360.4,-6475.2,2025-01-29 11:59:39,7
1228.0,-1615.2,-1456.0,-22956.4,529.6,-6783.2,2025-01-29 11:59:39,7
2664.0,-1803.2,-5784.0,-22437.4,2590.6,-7902.2,2025-01-29 11:59:39,7
1748.0,1436.8,-4960.0,-21221.4,508.6,-8338.2,2025-01-29 11:59:39,7
4460.0,944.8,-5624.0,-23227.4,1748.6,-10342.2,2025-01-29 11:59:39,7
3524.0,-1051.2,-3576.0,-23917.4,4291.6,-12039.2,2025-01-29 11:59:39,7
1728.0,-1659.2,-2356.0,-23731.4,6066.6,-12582.2,2025-01-29 11:59:39,7
-120.0,-3047.2,-892.0,-23373.4,7098.6,-12951.2,2025-01-29 11:59:39,7
-1536.0,-3275.2,660.0,-22349.4,6100.6,-13173.2,2025-01-29 11:59:39,7
-2452.0,-3143.2,-1304.0,-20835.4,3148.6,-12673.2,2025-01-29 11:59:39,7
-2760.0,-2415.2,-2576.0,-20433.4,-273.4,-11807.2,2025-01-29 11:59:39,7
-1460.0,-1843.2,-2184.0,-20127.4,-2446.4,-11471.2,2025-01-29 11:59:39,7
-928.0,-1771.2,-908.0,-19892.4,-4054.4,-10568.2,2025-01-29 11:59:39,7
4068.0,-1735.2,-788.0,-18049.4,-4513.4,-9473.2,2025-01-29 11:59:39,7
4628.0,-1867.2,-1760.0,-17056.4,-2910.4,-8932.2,2025-01-29 11:59:39,7
5004.0,-2311.2,-2448.0,-16785.4,-684.4,-8685.2,2025-01-29 11:59:39,7
4732.0,-2827.2,-1512.0,-16672.4,1131.6,-8885.2,2025-01-29 11:59:39,7
3496.0,-3179.2,-100.0,-15682.4,2182.6,-9267.2,2025-01-29 11:59:39,7
2504.0,-3335.2,536.0,-14228.4,2216.6,-9367.2,2025-01-29 11:59:39,7
1916.0,-2943.2,84.0,-12646.4,1812.6,-9043.2,2025-01-29 11:59:39,7
2212.0,-2395.2,-972.0,-11370.4,1196.6,-8289.2,2025-01-29 11:59:39,7
2824.0,-1867.2,-1128.0,-10873.4,1271.6,-7556.2,2025-01-29 11:59:39,7
3288.0,-1959.2,-80.0,-10482.4,1924.6,-7123.2,2025-01-29 11:59:39,7
3916.0,-2159.2,408.0,-10070.4,2410.6,-7295.2,2025-01-29 11:59:39,7
3244.0,-1651.2,544.0,-9609.4,3152.6,-8388.2,2025-01-29 11:59:39,7
928.0,-303.20000000000005,-592.0,-8956.4,3803.6,-8778.2,2025-01-29 11:59:39,7
780.0,-851.2,-640.0,-8308.4,2218.6,-7542.2,2025-01-29 11:59:39,7
2720.0,-2355.2,-196.0,-7917.4,354.6,-6545.2,2025-01-29 11:59:39,7
4044.0,-3495.2,1492.0,-7418.4,-598.4,-6111.2,2025-01-29 11:59:39,7
5388.0,-3935.2,2432.0,-6857.4,-625.4,-6531.2,2025-01-29 11:59:39,7
5340.0,-3463.2,3052.0,-6593.4,888.6,-8283.2,2025-01-29 11:59:39,7
1912.0,-2347.2,2872.0,-5959.4,2085.6,-9275.2,2025-01-29 11:59:39,7
-1276.0,-1631.2,696.0,-5929.4,2363.6,-7993.2,2025-01-29 11:59:39,7
-1880.0,-2183.2,-1452.0,-6447.4,2155.6,-5186.2,2025-01-29 11:59:39,7
568.0,-2431.2,-1760.0,-6630.4,-598.4,-4731.2,2025-01-29 11:59:39,2
-584.0,-3255.2,64.0,-7729.4,-2981.4,-5067.2,2025-01-29 11:59:39,2
-1668.0,-3451.2,-156.0,-8145.4,-4011.4,-4776.2,2025-01-29 11:59:39,2
200.0,-3799.2,148.0,-7799.4,-6132.4,-4419.2,2025-01-29 11:59:39,2
-1772.0,-4359.2,-508.0,-7268.4,-4651.4,-3615.2,2025-01-29 11:59:39,2
3868.0,-4607.2,-1852.0,-7205.4,-4861.4,-2984.2,2025-01-29 11:59:39,2
844.0,-3863.2,596.0,-6982.4,-5289.4,-3336.2,2025-01-29 11:59:39,2
1500.0,-3859.2,-1104.0,-6385.4,-3406.4,-3576.2,2025-01-29 11:59:39,2
3336.0,-2859.2,-1048.0,-6000.4,-5809.4,-3968.2,2025-01-29 11:59:39,2
-2336.0,-3803.2,-2344.0,-5921.4,-4916.4,-3255.2,2025-01-29 11:59:39,2
-3732.0,-3395.2,-1972.0,-6192.4,-4574.4,-2247.2,2025-01-29 11:59:39,2
3212.0,-2175.2,-1936.0,-6134.4,-6322.4,-2629.2,2025-01-29 11:59:39,2
-2304.0,-1655.2,5564.0,-1723.4,-8833.4,566.8,2025-01-29 11:59:40,2
912.0,-703.2,4536.0,-2116.4,-9200.4,89.80000000000001,2025-01-29 11:59:40,2
324.0,236.79999999999995,4492.0,-2511.4,-8229.4,-357.2,2025-01-29 11:59:40,2
-3948.0,720.8,3748.0,-2974.4,-7453.4,202.8,2025-01-29 11:59:40,2
-7744.0,1148.8,3340.0,-2944.4,-7539.4,1087.8,2025-01-29 11:59:40,2
-6868.0,468.8,3252.0,-1967.4,-9994.4,2457.8,2025-01-29 11:59:40,2
-2948.0,-99.20000000000005,4704.0,-433.4,-11621.4,1950.8,2025-01-29 11:59:40,2
-2564.0,-615.2,4632.0,136.6,-9686.4,1281.8,2025-01-29 11:59:40,2
-4948.0,-199.20000000000005,4076.0,-261.4,-6270.4,1330.8,2025-01-29 11:59:40,2
-7624.0,212.79999999999995,3532.0,-1207.4,-4619.4,1962.8,2025-01-29 11:59:40,2
-7556.0,980.8,3108.0,-1488.4,-5213.4,2433.8,2025-01-29 11:59:40,2
-4132.0,1720.8,4804.0,-508.4,-8767.4,461.8,2025-01-29 11:59:40,2
-2652.0,1796.8,5268.0,-431.4,-7869.4,-210.2,2025-01-29 11:59:40,2
-2384.0,1472.8,5896.0,-803.4,-6547.4,-524.2,2025-01-29 11:59:40,2
-2564.0,1040.8,6852.0,-1237.4,-5202.4,-433.2,2025-01-29 11:59:40,2
-2924.0,676.8,7096.0,-1487.4,-4382.4,75.80000000000001,2025-01-29 11:59:40,2
-2268.0,-427.2000000000001,6928.0,-1744.4,-4566.4,540.8,2025-01-29 11:59:40,2
-2340.0,-1267.2,7372.0,-1832.4,-4880.4,849.8,2025-01-29 11:59:40,2
-1232.0,-1539.2,7260.0,-1628.4,-5303.4,473.8,2025-01-29 11:59:40,2
-900.0,-863.2,7224.0,-1386.4,-5468.4,-204.2,2025-01-29 11:59:40,2
-564.0,-803.2,7916.0,-876.4,-4882.4,-803.2,2025-01-29 11:59:40,2
-420.0,-251.20000000000005,8200.0,-445.4,-3669.4,-1322.2,2025-01-29 11:59:40,2
-580.0,-99.20000000000005,8060.0,-212.4,-2945.4,-1938.2,2025-01-29 11:59:40,2
-1624.0,-419.2000000000001,7820.0,-211.4,-3089.4,-2110.2,2025-01-29 11:59:40,2
-2112.0,-359.20000000000005,7384.0,-254.4,-3585.4,-1679.2,2025-01-29 11:59:40,2
-2764.0,-243.20000000000005,7352.0,-408.4,-4048.4,-1163.2,2025-01-29 11:59:40,2
-2972.0,-307.20000000000005,8044.0,-458.4,-4399.4,-810.2,2025-01-29 11:59:40,2
-2984.0,-255.20000000000005,8600.0,-430.4,-4922.4,-512.2,2025-01-29 11:59:40,2
-2076.0,-847.2,9056.0,-169.4,-5334.4,-270.2,2025-01-29 11:59:40,2
-1224.0,532.8,10400.0,1425.6,-627.4,487.8,2025-01-29 11:59:40,2
-1148.0,712.8,10564.0,1424.6,-140.4,338.8,2025-01-29 11:59:40,2
-1444.0,1044.8,10700.0,1293.6,64.6,479.8,2025-01-29 11:59:40,2
-1568.0,904.8,10816.0,1150.6,417.6,513.8,2025-01-29 11:59:40,2
-1596.0,596.8,10260.0,1084.6,545.6,519.8,2025-01-29 11:59:40,2
-1256.0,432.8,9964.0,1142.6,319.6,393.8,2025-01-29 11:59:40,2
-1296.0,536.8,9884.0,1232.6,115.6,1.8000000000000114,2025-01-29 11:59:40,2
-1376.0,388.8,9904.0,1246.6,-168.4,-119.2,2025-01-29 11:59:40,2
-1352.0,548.8,10016.0,1240.6,-573.4,-188.2,2025-01-29 11:59:40,2
-1656.0,652.8,10192.0,1135.6,-778.4,-188.2,2025-01-29 11:59:40,2
-1760.0,864.8,10108.0,1059.6,-701.4,-108.2,2025-01-29 11:59:40,2
-1740.0,840.8,9752.0,1041.6,-1134.4,-204.2,2025-01-29 11:59:40,2
-1652.0,576.8,9668.0,945.6,-2359.4,-365.2,2025-01-29 11:59:40,2
-1816.0,540.8,10164.0,1021.6,-3211.4,-402.2,2025-01-29 11:59:40,2
-1432.0,564.8,10584.0,928.6,-3552.4,-563.2,2025-01-29 11:59:40,2
-1764.0,608.8,11092.0,722.6,-3292.4,-713.2,2025-01-29 11:59:40,2
-1784.0,580.8,12008.0,740.6,-2703.4,-646.2,2025-01-29 11:59:41,2
-1976.0,656.8,11968.0,736.6,-1956.4,-382.2,2025-01-29 11:59:41,2
-1532.0,488.8,11956.0,907.6,-1259.4,-116.2,2025-01-29 11:59:41,2
-1216.0,596.8,11372.0,920.6,-537.4,154.8,2025-01-29 11:59:41,2
-876.0,436.8,11208.0,701.6,-168.4,191.8,2025-01-29 11:59:41,2
-936.0,68.79999999999995,11092.0,571.6,-41.400000000000006,155.8,2025-01-29 11:59:41,2
-1032.0,-91.20000000000005,11132.0,501.6,16.599999999999994,190.8,2025-01-29 11:59:41,2
-1184.0,-251.20000000000005,11320.0,464.6,-157.4,165.8,2025-01-29 11:59:41,2
-1284.0,-211.20000000000005,11216.0,410.6,-217.4,-2.1999999999999886,2025-01-29 11:59:41,2
-1452.0,124.79999999999995,11200.0,483.6,-213.4,-256.2,2025-01-29 11:59:41,2
-1256.0,164.79999999999995,11512.0,522.6,-255.4,-470.2,2025-01-29 11:59:41,2
-1380.0,208.79999999999995,11160.0,600.6,-175.4,-590.2,2025-01-29 11:59:41,2
-1512.0,260.79999999999995,10984.0,590.6,-161.4,-669.2,2025-01-29 11:59:41,2
-1628.0,372.8,10972.0,509.6,-242.4,-520.2,2025-01-29 11:59:41,2
-1544.0,556.8,10940.0,451.6,-133.4,-472.2,2025-01-29 11:59:41,2
-1520.0,412.8,10904.0,374.6,-52.400000000000006,-485.2,2025-01-29 11:59:41,2
-1444.0,480.8,10944.0,399.6,59.6,-476.2,2025-01-29 11:59:41,2
-1560.0,240.79999999999995,10640.0,394.6,111.6,-447.2,2025-01-29 11:59:41,2
-1664.0,12.799999999999956,10676.0,437.6,-8.400000000000006,-384.2,2025-01-29 11:59:41,2
-1636.0,-51.200000000000045,10508.0,414.6,-144.4,-347.2,2025-01-29 11:59:41,2
-1484.0,-203.20000000000005,10832.0,434.6,-295.4,-319.2,2025-01-29 11:59:41,2
-1560.0,-251.20000000000005,10792.0,440.6,-388.4,-294.2,2025-01-29 11:59:41,2
-976.0,-55.200000000000045,10804.0,305.6,-622.4,-310.2,2025-01-29 11:59:41,2
-1464.0,92.79999999999995,10936.0,331.6,-431.4,-294.2,2025-01-29 11:59:41,2
-1384.0,28.799999999999955,11196.0,338.6,-394.4,-274.2,2025-01-29 11:59:41,2
-1296.0,-35.200000000000045,11112.0,313.6,-270.4,-208.2,2025-01-29 11:59:41,2
-1332.0,-219.20000000000005,11484.0,374.6,-124.4,-162.2,2025-01-29 11:59:41,2
-1624.0,-239.20000000000005,11412.0,453.6,-26.40000000000001,-155.2,2025-01-29 11:59:41,2
-1784.0,-135.20000000000005,11424.0,469.6,-35.400000000000006,-132.2,2025-01-29 11:59:41,2
-1764.0,116.79999999999995,11328.0,425.6,-98.4,-139.2,2025-01-29 11:59:41,2
-1664.0,36.79999999999996,11080.0,374.6,-154.4,-54.19999999999999,2025-01-29 11:59:41,2
-1628.0,0.7999999999999545,11140.0,389.6,-174.4,17.80000000000001,2025-01-29 11:59:41,2
-1328.0,28.799999999999955,11020.0,366.6,-121.4,50.80000000000001,2025-01-29 11:59:41,2
-1336.0,-115.20000000000005,10976.0,322.6,-19.40000000000001,-33.19999999999999,2025-01-29 11:59:41,2
-1344.0,-15.200000000000044,11004.0,314.6,-60.400000000000006,-11.199999999999989,2025-01-29 11:59:41,2
-1416.0,120.79999999999995,10980.0,269.6,-69.4,15.800000000000011,2025-01-29 11:59:41,2
-1616.0,168.79999999999995,11132.0,246.6,-117.4,120.8,2025-01-29 11:59:41,2
-1336.0,212.79999999999995,11056.0,186.6,-32.400000000000006,86.80000000000001,2025-01-29 11:59:41,2
-1500.0,76.79999999999995,11096.0,172.6,50.6,108.8,2025-01-29 11:59:41,2
-1540.0,180.79999999999995,11020.0,202.6,-35.400000000000006,219.8,2025-01-29 11:59:41,2
-1532.0,100.79999999999995,11296.0,184.6,-67.4,213.8,2025-01-29 11:59:41,2
-1636.0,144.79999999999995,11228.0,126.6,-20.40000000000001,136.8,2025-01-29 11:59:41,2
-1340.0,148.79999999999995,11032.0,150.6,-57.400000000000006,-14.199999999999989,2025-01-29 11:59:41,2
-1396.0,216.79999999999995,11228.0,155.6,-110.4,-74.19999999999999,2025-01-29 11:59:41,2
-1416.0,168.79999999999995,11032.0,118.6,-83.4,-71.19999999999999,2025-01-29 11:59:41,2
-1520.0,336.79999999999995,11132.0,70.6,-120.4,-68.19999999999999,2025-01-29 11:59:41,2
-1532.0,172.79999999999995,11160.0,58.6,-166.4,-32.19999999999999,2025-01-29 11:59:41,2
-1444.0,268.79999999999995,11300.0,33.599999999999994,-120.4,-48.19999999999999,2025-01-29 11:59:41,2
-1304.0,108.79999999999995,11280.0,52.6,-29.40000000000001,-92.2,2025-01-29 11:59:41,2
-1284.0,108.79999999999995,11144.0,27.599999999999994,27.599999999999994,-99.2,2025-01-29 11:59:41,2
-1392.0,132.79999999999995,11096.0,24.599999999999994,105.6,-96.2,2025-01-29 11:59:41,2
-1296.0,144.79999999999995,11016.0,-36.400000000000006,107.6,-82.19999999999999,2025-01-29 11:59:41,2
-1448.0,140.79999999999995,11044.0,-28.40000000000001,51.6,-97.2,2025-01-29 11:59:41,2
-1504.0,36.79999999999996,11024.0,-24.40000000000001,30.599999999999994,-100.2,2025-01-29 11:59:41,2
-1460.0,24.799999999999955,11024.0,-3.4000000000000057,-27.40000000000001,-90.2,2025-01-29 11:59:41,2
-1496.0,72.79999999999995,11088.0,8.599999999999994,-70.4,0.8000000000000114,2025-01-29 11:59:41,2
-1360.0,80.79999999999995,10980.0,-5.400000000000006,2.5999999999999943,13.800000000000011,2025-01-29 11:59:41,2
-1284.0,116.79999999999995,11176.0,8.599999999999994,82.6,49.80000000000001,2025-01-29 11:59:41,2
-1300.0,36.79999999999996,11332.0,-3.4000000000000057,162.6,33.80000000000001,2025-01-29 11:59:41,2
-1432.0,68.79999999999995,11052.0,8.599999999999994,248.6,-1.1999999999999886,2025-01-29 11:59:41,2
-1540.0,28.799999999999955,11076.0,15.599999999999994,126.6,-36.19999999999999,2025-01-29 11:59:41,2
-1544.0,76.79999999999995,11148.0,-15.400000000000006,22.599999999999994,-41.19999999999999,2025-01-29 11:59:41,2
-1528.0,228.79999999999995,11164.0,-43.400000000000006,9.599999999999994,-75.19999999999999,2025-01-29 11:59:42,2
-1536.0,108.79999999999995,11184.0,-35.400000000000006,33.599999999999994,-75.19999999999999,2025-01-29 11:59:42,2
-1444.0,32.799999999999955,11120.0,-46.400000000000006,44.6,-27.19999999999999,2025-01-29 11:59:42,2
-1324.0,156.79999999999995,11160.0,-30.40000000000001,123.6,-33.19999999999999,2025-01-29 11:59:42,2
-1388.0,104.79999999999995,11204.0,-1.4000000000000057,169.6,-53.19999999999999,2025-01-29 11:59:42,2
-1460.0,176.79999999999995,11160.0,8.599999999999994,146.6,-82.19999999999999,2025-01-29 11:59:42,2
-1524.0,224.79999999999995,11112.0,-18.40000000000001,14.599999999999994,-57.19999999999999,2025-01-29 11:59:42,2
-1412.0,212.79999999999995,11000.0,-41.400000000000006,54.6,-56.19999999999999,2025-01-29 11:59:42,2
-1396.0,44.79999999999996,11044.0,-40.400000000000006,103.6,-77.19999999999999,2025-01-29 11:59:42,2
-1520.0,48.79999999999996,11156.0,-58.400000000000006,92.6,-61.19999999999999,2025-01-29 11:59:42,2
-1412.0,32.799999999999955,11180.0,-34.400000000000006,54.6,-53.19999999999999,2025-01-29 11:59:42,2
-1476.0,80.79999999999995,11208.0,-59.400000000000006,94.6,-74.19999999999999,2025-01-29 11:59:42,2
-1408.0,124.79999999999995,10936.0,-44.400000000000006,62.6,-37.19999999999999,2025-01-29 11:59:42,2
-1436.0,92.79999999999995,11040.0,-42.400000000000006,38.6,-40.19999999999999,2025-01-29 11:59:42,2
-1508.0,32.799999999999955,10992.0,-68.4,44.6,-9.199999999999989,2025-01-29 11:59:42,2
-1396.0,92.79999999999995,11084.0,-65.4,31.599999999999994,-20.19999999999999,2025-01-29 11:59:42,2
-1432.0,84.79999999999995,11124.0,-68.4,13.599999999999994,-52.19999999999999,2025-01-29 11:59:42,2
-1508.0,48.79999999999996,11032.0,-36.400000000000006,21.599999999999994,-94.2,2025-01-29 11:59:42,2
-1388.0,44.79999999999996,11048.0,-71.4,86.6,-122.2,2025-01-29 11:59:42,2
-1388.0,64.79999999999995,11012.0,-95.4,132.6,-153.2,2025-01-29 11:59:42,2
-1400.0,52.79999999999996,11080.0,-93.4,140.6,-160.2,2025-01-29 11:59:42,2
-1404.0,60.79999999999996,11044.0,-109.4,175.6,-175.2,2025-01-29 11:59:42,2
-1536.0,36.79999999999996,10948.0,-78.4,160.6,-131.2,2025-01-29 11:59:42,2
-1548.0,68.79999999999995,11048.0,-29.40000000000001,23.599999999999994,-49.19999999999999,2025-01-29 11:59:42,2
-1480.0,28.799999999999955,10916.0,-26.40000000000001,12.599999999999994,-10.199999999999989,2025-01-29 11:59:42,2
-1424.0,-39.200000000000045,10956.0,-6.400000000000006,50.6,-39.19999999999999,2025-01-29 11:59:42,2
-1448.0,-211.20000000000005,11012.0,6.599999999999994,-7.400000000000006,-26.19999999999999,2025-01-29 11:59:42,2
-1460.0,-115.20000000000005,11108.0,14.599999999999994,5.599999999999994,-10.199999999999989,2025-01-29 11:59:42,2
-1476.0,-31.200000000000045,11088.0,41.6,58.6,-59.19999999999999,2025-01-29 11:59:42,2
-1500.0,-143.20000000000005,10940.0,33.599999999999994,206.6,-54.19999999999999,2025-01-29 11:59:42,2
-1600.0,-183.20000000000005,10868.0,58.6,103.6,-14.199999999999989,2025-01-29 11:59:42,2
-1604.0,-15.200000000000044,10804.0,83.6,-50.400000000000006,44.80000000000001,2025-01-29 11:59:42,2
-1476.0,84.79999999999995,10848.0,81.6,-89.4,88.80000000000001,2025-01-29 11:59:42,2
-1416.0,176.79999999999995,10940.0,54.6,-144.4,46.80000000000001,2025-01-29 11:59:42,2
-1444.0,108.79999999999995,11120.0,53.6,-131.4,17.80000000000001,2025-01-29 11:59:42,2
-1424.0,104.79999999999995,11160.0,86.6,-65.4,-12.199999999999989,2025-01-29 11:59:42,2
-1392.0,36.79999999999996,11224.0,92.6,52.6,-16.19999999999999,2025-01-29 11:59:42,2
-1456.0,100.79999999999995,11112.0,43.6,-71.4,-22.19999999999999,2025-01-29 11:59:42,2
-1336.0,84.79999999999995,11096.0,72.6,-20.40000000000001,-36.19999999999999,2025-01-29 11:59:42,2
-1448.0,12.799999999999956,11124.0,91.6,19.599999999999994,-61.19999999999999,2025-01-29 11:59:42,2
-1428.0,40.79999999999996,10900.0,30.599999999999994,51.6,-64.19999999999999,2025-01-29 11:59:42,2
-1456.0,76.79999999999995,11052.0,59.6,52.6,-59.19999999999999,2025-01-29 11:59:42,2
-1488.0,124.79999999999995,10876.0,52.6,-3.4000000000000057,-66.19999999999999,2025-01-29 11:59:42,2
-1532.0,68.79999999999995,11128.0,59.6,5.599999999999994,-88.19999999999999,2025-01-29 11:59:42,2
-1424.0,-31.200000000000045,11032.0,68.6,21.599999999999994,-127.2,2025-01-29 11:59:42,2
-1516.0,112.79999999999995,11012.0,45.6,-10.400000000000006,-141.2,2025-01-29 11:59:42,2
-1528.0,-35.200000000000045,10968.0,29.599999999999994,-4.400000000000006,-154.2,2025-01-29 11:59:42,2
-1392.0,-23.200000000000045,10928.0,20.599999999999994,-32.400000000000006,-153.2,2025-01-29 11:59:42,2
-1476.0,0.7999999999999545,10972.0,-6.400000000000006,-24.40000000000001,-171.2,2025-01-29 11:59:42,2
-1528.0,32.799999999999955,11088.0,39.6,-32.400000000000006,-155.2,2025-01-29 11:59:42,2
-1616.0,-71.20000000000005,11224.0,103.6,-84.4,-128.2,2025-01-29 11:59:43,2
-1700.0,-255.20000000000005,11400.0,277.6,-56.400000000000006,-99.2,2025-01-29 11:59:43,2
-1436.0,-251.20000000000005,11020.0,372.6,68.6,-265.2,2025-01-29 11:59:43,2
-1784.0,128.79999999999995,11032.0,289.6,451.6,-679.2,2025-01-29 11:59:43,2
-2120.0,360.8,10904.0,-9.400000000000006,-147.4,-115.2,2025-01-29 11:59:43,2
-1756.0,192.79999999999995,11064.0,-50.400000000000006,-126.4,285.8,2025-01-29 11:59:43,2
-1920.0,216.79999999999995,11088.0,-155.4,-57.400000000000006,712.8,2025-01-29 11:59:43,2
-1576.0,-55.200000000000045,10716.0,-238.4,-393.4,814.8,2025-01-29 11:59:43,2
-1264.0,-475.2000000000001,9848.0,-226.4,-796.4,694.8,2025-01-29 11:59:43,2
-884.0,-819.2,10176.0,-143.4,-1367.4,756.8,2025-01-29 11:59:43,2
-756.0,-1255.2,10804.0,42.6,-1551.4,770.8,2025-01-29 11:59:43,2
-884.0,-1163.2,11176.0,445.6,-1224.4,912.8,2025-01-29 11:59:43,2
-968.0,-635.2,11312.0,487.6,-787.4,854.8,2025-01-29 11:59:43,2
-1160.0,-79.20000000000005,11284.0,687.6,-1028.4,776.8,2025-01-29 11:59:43,2
-1628.0,208.79999999999995,11888.0,859.6,-1713.4,637.8,2025-01-29 11:59:43,2
-1304.0,444.8,12152.0,754.6,-1835.4,698.8,2025-01-29 11:59:43,2
-716.0,652.8,12232.0,538.6,-872.4,716.8,2025-01-29 11:59:43,2
-524.0,992.8,11652.0,182.6,288.6,666.8,2025-01-29 11:59:43,2
-1380.0,1216.8,11648.0,-216.4,1083.6,878.8,2025-01-29 11:59:43,2
-1360.0,1456.8,11316.0,-685.4,1177.6,1115.8,2025-01-29 11:59:43,2
-1088.0,1348.8,11168.0,-1184.4,962.6,1012.8,2025-01-29 11:59:43,2
-584.0,1316.8,10988.0,-1444.4,989.6,774.8,2025-01-29 11:59:43,2
-744.0,1212.8,10944.0,-1537.4,829.6,368.8,2025-01-29 11:59:43,2
-984.0,764.8,11164.0,-1528.4,768.6,147.8,2025-01-29 11:59:43,2
-1328.0,708.8,11196.0,-1556.4,931.6,133.8,2025-01-29 11:59:43,2
-988.0,532.8,11004.0,-1651.4,1187.6,92.8,2025-01-29 11:59:43,2
-1020.0,616.8,10820.0,-1770.4,1358.6,-26.19999999999999,2025-01-29 11:59:43,2
-1232.0,776.8,10820.0,-1888.4,1295.6,-199.2,2025-01-29 11:59:43,2
-1324.0,1648.8,10672.0,-2121.4,1469.6,-359.2,2025-01-29 11:59:43,2
-1516.0,2288.8,10956.0,-2476.4,1706.6,-117.2,2025-01-29 11:59:43,2
-876.0,2556.8,10516.0,-3063.4,1723.6,87.80000000000001,2025-01-29 11:59:43,2
-124.0,1776.8,10964.0,-3519.4,2228.6,-132.2,2025-01-29 11:59:43,2
-308.0,992.8,11476.0,-3454.4,3164.6,-528.2,2025-01-29 11:59:43,2
-1592.0,404.8,11008.0,-3461.4,4330.6,-446.2,2025-01-29 11:59:43,2
-2404.0,-211.20000000000005,11000.0,-3347.4,5165.6,-488.2,2025-01-29 11:59:43,2
-3072.0,-1187.2,10888.0,-3054.4,5489.6,-822.2,2025-01-29 11:59:43,2
-3224.0,-1879.2,10700.0,-2558.4,4912.6,-1071.2,2025-01-29 11:59:43,2
-2740.0,-1835.2,10620.0,-2175.4,3843.6,-1284.2,2025-01-29 11:59:43,2
-1352.0,-1067.2,10064.0,-1588.4,2784.6,-1292.2,2025-01-29 11:59:43,2
-972.0,-991.2,9696.0,-1305.4,2727.6,-1164.2,2025-01-29 11:59:43,2
-320.0,-743.2,9740.0,-1258.4,3134.6,-900.2,2025-01-29 11:59:43,2
-704.0,-759.2,9792.0,-1231.4,4641.6,-664.2,2025-01-29 11:59:43,2
-1240.0,-723.2,9012.0,-1352.4,6430.6,-534.2,2025-01-29 11:59:43,2
-2128.0,-739.2,8608.0,-1325.4,7103.6,-477.2,2025-01-29 11:59:43,2
-3172.0,-475.2000000000001,7876.0,-1293.4,6943.6,-175.2,2025-01-29 11:59:43,2
-3232.0,-371.2000000000001,7820.0,-1287.4,6337.6,176.8,2025-01-29 11:59:43,2
-2860.0,488.8,9056.0,-1039.4,5307.6,476.8,2025-01-29 11:59:43,2
-2216.0,-223.20000000000005,7512.0,-1047.4,5506.6,812.8,2025-01-29 11:59:43,2
-1928.0,-239.20000000000005,7884.0,-1284.4,5874.6,1106.8,2025-01-29 11:59:43,2
-1528.0,-251.20000000000005,7756.0,-1150.4,5821.6,1337.8,2025-01-29 11:59:43,2
-72.0,-415.2000000000001,5652.0,-881.4,5719.6,1437.8,2025-01-29 11:59:43,2
-2356.0,256.79999999999995,7844.0,-921.4,6049.6,1677.8,2025-01-29 11:59:43,2
-1224.0,472.8,7164.0,-892.4,5768.6,1550.8,2025-01-29 11:59:43,2
-1168.0,676.8,8352.0,-781.4,5505.6,1422.8,2025-01-29 11:59:43,2
-1148.0,-247.20000000000005,8888.0,-199.4,5814.6,1455.8,2025-01-29 11:59:43,2
-1192.0,-811.2,8608.0,420.6,6667.6,886.8,2025-01-29 11:59:43,2
-4712.0,-1195.2,7796.0,366.6,9332.6,1589.8,2025-01-29 11:59:43,2
-1576.0,-679.2,6244.0,629.6,9572.6,916.8,2025-01-29 11:59:43,2
-3444.0,-455.2000000000001,6328.0,-312.4,11369.6,1000.8,2025-01-29 11:59:43,2
-4032.0,4.7999999999999545,4940.0,-745.4,11786.6,1086.8,2025-01-29 11:59:43,2
-3272.0,468.8,5676.0,-595.4,10913.6,858.8,2025-01-29 11:59:44,2
-2928.0,640.8,4660.0,-208.4,8427.6,103.8,2025-01-29 11:59:44,2
-3488.0,468.8,3480.0,-335.4,7474.6,-512.2,2025-01-29 11:59:44,2
-3240.0,12.799999999999956,2860.0,-801.4,7531.6,-299.2,2025-01-29 11:59:44,2
-5388.0,-99.20000000000005,5032.0,-394.4,5634.6,183.8,2025-01-29 11:59:44,2
-4004.0,460.8,4520.0,76.6,4193.6,594.8,2025-01-29 11:59:44,2
-4496.0,1420.8,4492.0,-52.400000000000006,6053.6,1087.8,2025-01-29 11:59:44,2
-2304.0,508.8,4116.0,-47.400000000000006,9283.6,1188.8,2025-01-29 11:59:44,2
-720.0,364.8,3444.0,734.6,9722.6,278.8,2025-01-29 11:59:44,2
-3456.0,804.8,2200.0,1597.6,9219.6,-358.2,2025-01-29 11:59:44,2
-3972.0,1412.8,1164.0,1488.6,7936.6,-169.2,2025-01-29 11:59:44,2
-3428.0,1856.8,1416.0,1134.6,7453.6,93.8,2025-01-29 11:59:44,2
-2420.0,1044.8,2032.0,971.6,7487.6,-110.2,2025-01-29 11:59:44,2
-2660.0,568.8,1948.0,1180.6,7639.6,-340.2,2025-01-29 11:59:44,2
-2208.0,964.8,1436.0,1300.6,7518.6,-444.2,2025-01-29 11:59:44,2
-2492.0,932.8,640.0,1354.6,6853.6,-396.2,2025-01-29 11:59:44,2
-1684.0,976.8,744.0,1560.6,6063.6,-324.2,2025-01-29 11:59:44,2
-1864.0,1232.8,220.0,1750.6,5650.6,-19.19999999999999,2025-01-29 11:59:44,2
-1152.0,1176.8,404.0,1972.6,5010.6,169.8,2025-01-29 11:59:44,2
-1244.0,712.8,-172.0,2195.6,5041.6,216.8,2025-01-29 11:59:44,2
-1356.0,356.79999999999995,-756.0,2165.6,5338.6,428.8,2025-01-29 11:59:44,2
-1084.0,-15.200000000000044,-1000.0,2184.6,5428.6,763.8,2025-01-29 11:59:44,2
-648.0,-251.20000000000005,-1084.0,2503.6,4953.6,836.8,2025-01-29 11:59:44,2
64.0,-143.20000000000005,-1400.0,3058.6,4071.6,681.8,2025-01-29 11:59:44,2
320.0,-823.2,-2008.0,3466.6,3508.6,222.8,2025-01-29 11:59:44,2
-1364.0,-1011.2,-664.0,4146.6,4705.6,456.8,2025-01-29 11:59:44,2
-712.0,264.79999999999995,-1240.0,4597.6,5891.6,574.8,2025-01-29 11:59:44,2
676.0,2036.8,-1680.0,4408.6,5319.6,-435.2,2025-01-29 11:59:44,2
588.0,2076.8,-2912.0,3804.6,4742.6,-916.2,2025-01-29 11:59:44,2
672.0,1280.8,-4612.0,3150.6,4675.6,-1081.2,2025-01-29 11:59:44,2
-872.0,856.8,-4904.0,2640.6,4188.6,-620.2,2025-01-29 11:59:44,2
508.0,312.79999999999995,-5880.0,1995.6,2493.6,-152.2,2025-01-29 11:59:44,2
2356.0,-379.2000000000001,-4588.0,1617.6,1504.6,375.8,2025-01-29 11:59:44,2
3692.0,-815.2,-3168.0,1866.6,2435.6,91.8,2025-01-29 11:59:44,2
3944.0,-807.2,-1760.0,2366.6,4255.6,-308.2,2025-01-29 11:59:44,2
2940.0,-727.2,-1056.0,3040.6,5258.6,-769.2,2025-01-29 11:59:44,2
-1584.0,-1395.2,-1248.0,3667.6,3506.6,-877.2,2025-01-29 11:59:44,2
984.0,-399.2000000000001,-1724.0,4003.6,4930.6,-644.2,2025-01-29 11:59:44,2
136.0,228.79999999999995,-1916.0,4115.6,3586.6,-469.2,2025-01-29 11:59:44,2
808.0,200.79999999999995,-2700.0,4226.6,2532.6,-183.2,2025-01-29 11:59:44,1
596.0,132.79999999999995,-2016.0,4108.6,1486.6,-16.19999999999999,2025-01-29 11:59:44,1
1404.0,328.79999999999995,-1920.0,3929.6,1116.6,240.8,2025-01-29 11:59:44,1
2264.0,-503.2000000000001,-952.0,3143.6,-4346.4,447.8,2025-01-29 11:59:44,1
1412.0,-1323.2,-508.0,2808.6,-5333.4,180.8,2025-01-29 11:59:44,1
-1828.0,-2119.2,408.0,2406.6,-6656.4,332.8,2025-01-29 11:59:44,1
596.0,-1219.2,708.0,2928.6,-5473.4,1359.8,2025-01-29 11:59:44,1
1340.0,-1403.2,-108.0,3223.6,-4995.4,1661.8,2025-01-29 11:59:44,1
1372.0,-1167.2,116.0,2946.6,-5269.4,1525.8,2025-01-29 11:59:44,1
952.0,-819.2,256.0,2442.6,-6441.4,1264.8,2025-01-29 11:59:44,1
-76.0,-387.2000000000001,980.0,1992.6,-7442.4,1376.8,2025-01-29 11:59:44,1
-520.0,-399.2000000000001,1676.0,1798.6,-7653.4,1676.8,2025-01-29 11:59:44,1
-596.0,-499.2000000000001,1772.0,1550.6,-7061.4,2044.8,2025-01-29 11:59:44,1
-512.0,-499.2000000000001,1792.0,1332.6,-6238.4,2575.8,2025-01-29 11:59:44,1
584.0,-807.2,1836.0,906.6,-5866.4,2757.8,2025-01-29 11:59:44,1
1804.0,-939.2,2028.0,753.6,-6253.4,2398.8,2025-01-29 11:59:44,1
2484.0,-1119.2,1208.0,565.6,-6522.4,1747.8,2025-01-29 11:59:44,1
3356.0,-1183.2,524.0,58.6,-6395.4,1058.8,2025-01-29 11:59:44,1
3456.0,-1127.2,772.0,-404.4,-6047.4,550.8,2025-01-29 11:59:44,1
3916.0,-1367.2,1096.0,-452.4,-5825.4,372.8,2025-01-29 11:59:44,1
4804.0,-2227.2,1472.0,-448.4,-4992.4,340.8,2025-01-29 11:59:45,1
4384.0,-2727.2,1520.0,-626.4,-2112.4,206.8,2025-01-29 11:59:45,1
5340.0,-2779.2,336.0,-952.4,1633.6,-388.2,2025-01-29 11:59:45,1
3920.0,-2383.2,12.0,-1166.4,5637.6,-1292.2,2025-01-29 11:59:45,1
2784.0,-1295.2,-824.0,-1408.4,8142.6,-1648.2,2025-01-29 11:59:45,1
1636.0,-603.2,-1276.0,-1649.4,9877.6,-1926.2,2025-01-29 11:59:45,1
680.0,-1155.2,-2116.0,-1872.4,10474.6,-2434.2,2025-01-29 11:59:45,1
5256.0,-1995.2,-5984.0,-1603.4,7453.6,-2673.2,2025-01-29 11:59:45,1
-1160.0,-3635.2,-1892.0,-1113.4,6994.6,-3939.2,2025-01-29 11:59:45,1
-1440.0,-4431.2,-2648.0,-17.400000000000006,1730.6,-4010.2,2025-01-29 11:59:45,1
-1516.0,-4371.2,-2284.0,991.6,-3484.4,-2681.2,2025-01-29 11:59:45,1
-544.0,-3355.2,-1848.0,1435.6,-5946.4,-1165.2,2025-01-29 11:59:45,1
1168.0,-2299.2,-1076.0,1592.6,-6529.4,-643.2,2025-01-29 11:59:45,1
1928.0,-1439.2,-756.0,1346.6,-6145.4,-649.2,2025-01-29 11:59:45,1
2552.0,-1459.2,-424.0,944.6,-4314.4,-761.2,2025-01-29 11:59:45,1
2608.0,-1855.2,-236.0,674.6,-1581.4,-660.2,2025-01-29 11:59:45,1
2000.0,-2571.2,56.0,541.6,713.6,-501.2,2025-01-29 11:59:45,1
1544.0,-2827.2,388.0,749.6,1909.6,-605.2,2025-01-29 11:59:45,1
884.0,-2607.2,464.0,1037.6,1913.6,-691.2,2025-01-29 11:59:45,1
300.0,-2399.2,612.0,1292.6,766.6,-505.2,2025-01-29 11:59:45,1
420.0,-2359.2,776.0,1450.6,-94.4,-221.2,2025-01-29 11:59:45,1
624.0,-2403.2,1268.0,1643.6,-399.4,25.80000000000001,2025-01-29 11:59:45,1
892.0,-2411.2,1512.0,1674.6,-463.4,208.8,2025-01-29 11:59:45,1
1164.0,-2659.2,1556.0,1851.6,-239.4,445.8,2025-01-29 11:59:45,1
1388.0,-2831.2,1244.0,1859.6,-121.4,683.8,2025-01-29 11:59:45,1
1268.0,-2823.2,1268.0,1782.6,37.6,897.8,2025-01-29 11:59:45,1
1032.0,-2751.2,2088.0,1725.6,145.6,1252.8,2025-01-29 11:59:45,1
620.0,-2527.2,2840.0,2145.6,348.6,1738.8,2025-01-29 11:59:45,1
724.0,-2487.2,2144.0,2150.6,265.6,2353.8,2025-01-29 11:59:45,1
956.0,-2391.2,1704.0,1802.6,341.6,2712.8,2025-01-29 11:59:45,1
676.0,-1635.2,524.0,1527.6,1475.6,2984.8,2025-01-29 11:59:45,1
528.0,-1763.2,352.0,944.6,3052.6,3336.8,2025-01-29 11:59:45,1
200.0,-2823.2,752.0,690.6,4044.6,3269.8,2025-01-29 11:59:45,1
-656.0,-3375.2,1316.0,788.6,4670.6,2950.8,2025-01-29 11:59:45,1
-1352.0,-3347.2,1560.0,1182.6,4820.6,2666.8,2025-01-29 11:59:45,1
-2044.0,-2783.2,1396.0,1403.6,4186.6,2418.8,2025-01-29 11:59:45,1
-2120.0,-2263.2,-636.0,1398.6,3059.6,2017.8,2025-01-29 11:59:45,1
-2384.0,-1499.2,-92.0,822.6,1232.6,1832.8,2025-01-29 11:59:45,1
-2084.0,-691.2,904.0,426.6,-1428.4,1504.8,2025-01-29 11:59:45,1
-1052.0,-167.20000000000005,1292.0,49.6,-3472.4,731.8,2025-01-29 11:59:45,1
580.0,-663.2,632.0,-536.4,-3471.4,197.8,2025-01-29 11:59:45,1
-160.0,-1783.2,900.0,-972.4,-733.4,-313.2,2025-01-29 11:59:45,1
-840.0,-2503.2,-420.0,-1122.4,2285.6,-469.2,2025-01-29 11:59:45,1
-980.0,-3695.2,-1164.0,-1015.4,4672.6,-996.2,2025-01-29 11:59:45,1
-1752.0,-5055.2,-1484.0,-488.4,7279.6,-2363.2,2025-01-29 11:59:45,1
-2692.0,-6035.2,-1984.0,438.6,6916.6,-3244.2,2025-01-29 11:59:45,1
-4724.0,-6591.2,-1556.0,1622.6,4022.6,-2497.2,2025-01-29 11:59:45,1
-5748.0,-6583.2,-1484.0,2846.6,-649.4,270.8,2025-01-29 11:59:45,1
-4932.0,-4995.2,-1788.0,3420.6,-4729.4,3895.8,2025-01-29 11:59:45,1
-2468.0,-2999.2,-1812.0,3045.6,-6966.4,5961.8,2025-01-29 11:59:45,1
1028.0,-2295.2,-1680.0,2247.6,-8100.4,6873.8,2025-01-29 11:59:45,1
3812.0,-1999.2,-1940.0,1828.6,-7979.4,6955.8,2025-01-29 11:59:45,1
5364.0,-1347.2,-2456.0,1588.6,-6509.4,6125.8,2025-01-29 11:59:45,1
5864.0,-891.2,-1592.0,1463.6,-4333.4,4883.8,2025-01-29 11:59:45,1
5728.0,-567.2,-444.0,1599.6,-1388.4,3387.8,2025-01-29 11:59:45,1
4316.0,-155.20000000000005,-260.0,1707.6,946.6,2345.8,2025-01-29 11:59:45,1
2264.0,-223.20000000000005,-336.0,1481.6,2393.6,2285.8,2025-01-29 11:59:45,1
500.0,-339.20000000000005,-36.0,1280.6,3429.6,2870.8,2025-01-29 11:59:45,1
-824.0,-659.2,-4.0,1657.6,3505.6,3636.8,2025-01-29 11:59:45,1
-1632.0,-1319.2,-632.0,2187.6,2653.6,4407.8,2025-01-29 11:59:45,1
-2116.0,-1791.2,-692.0,2865.6,854.6,4962.8,2025-01-29 11:59:46,1
-2016.0,-2195.2,-204.0,3768.6,-1853.4,5494.8,2025-01-29 11:59:46,1
-1156.0,-2403.2,240.0,5011.6,-4173.4,5813.8,2025-01-29 11:59:46,1
572.0,-2123.2,676.0,6376.6,-5220.4,5742.8,2025-01-29 11:59:46,1
1524.0,-1271.2,532.0,7358.6,-4891.4,5545.8,2025-01-29 11:59:46,1
2304.0,-243.20000000000005,420.0,8101.6,-3745.4,5573.8,2025-01-29 11:59:46,1
2360.0,256.79999999999995,432.0,8464.6,-1979.4,5836.8,2025-01-29 11:59:46,1
2516.0,548.8,-88.0,8548.6,139.6,6064.8,2025-01-29 11:59:46,1
2464.0,452.8,-4.0,8564.6,1586.6,6072.8,2025-01-29 11:59:46,1
2168.0,264.79999999999995,-368.0,8536.6,2386.6,5805.8,2025-01-29 11:59:46,1
1464.0,-71.20000000000005,-140.0,8505.6,2383.6,5465.8,2025-01-29 11:59:46,1
828.0,-283.20000000000005,-44.0,8569.6,1678.6,5099.8,2025-01-29 11:59:46,1
248.0,-31.200000000000045,16.0,8594.6,645.6,4864.8,2025-01-29 11:59:46,1
344.0,80.79999999999995,-340.0,8510.6,-166.4,4697.8,2025-01-29 11:59:46,1
756.0,340.79999999999995,-348.0,8475.6,-605.4,4371.8,2025-01-29 11:59:46,1
1200.0,532.8,-364.0,8346.6,-842.4,3784.8,2025-01-29 11:59:46,1
1228.0,688.8,44.0,8050.6,-559.4,3290.8,2025-01-29 11:59:46,1
1060.0,448.8,124.0,7612.6,235.6,3039.8,2025-01-29 11:59:46,1
996.0,232.79999999999995,408.0,7334.6,632.6,2818.8,2025-01-29 11:59:46,1
208.0,132.79999999999995,1184.0,7277.6,561.6,2413.8,2025-01-29 11:59:46,1
-776.0,412.8,1512.0,7141.6,147.6,2199.8,2025-01-29 11:59:46,1
-1376.0,1164.8,1112.0,6951.6,-819.4,2274.8,2025-01-29 11:59:46,1
-1536.0,2180.8,892.0,6663.6,-2459.4,2374.8,2025-01-29 11:59:46,1
-1168.0,2480.8,704.0,6322.6,-3682.4,2066.8,2025-01-29 11:59:46,1
-440.0,2068.8,840.0,6056.6,-3738.4,1463.8,2025-01-29 11:59:46,1
-836.0,768.8,1940.0,5731.6,-2799.4,1054.8,2025-01-29 11:59:46,1
-1536.0,-271.20000000000005,3832.0,5611.6,-1216.4,1542.8,2025-01-29 11:59:46,1
-1272.0,92.79999999999995,3768.0,5725.6,153.6,2108.8,2025-01-29 11:59:46,1
-1260.0,364.8,3468.0,5625.6,848.6,2138.8,2025-01-29 11:59:46,1
-1304.0,84.79999999999995,3884.0,5760.6,944.6,2077.8,2025-01-29 11:59:46,1
-1352.0,-363.2000000000001,3204.0,6055.6,1094.6,1920.8,2025-01-29 11:59:46,1
-1672.0,-1855.2,1920.0,6217.6,1946.6,1798.8,2025-01-29 11:59:46,1
-2104.0,-1635.2,764.0,6607.6,3066.6,1863.8,2025-01-29 11:59:46,1
-3540.0,556.8,-1384.0,6303.6,4209.6,2504.8,2025-01-29 11:59:46,1
-3672.0,2340.8,-3668.0,5367.6,5557.6,3748.8,2025-01-29 11:59:46,1
-3032.0,3348.8,-5480.0,3987.6,6624.6,4784.8,2025-01-29 11:59:46,1
1896.0,-823.2,-1100.0,1113.6,-2651.4,628.8,2025-01-29 11:59:46,1
2824.0,-4831.2,-1504.0,3034.6,-3154.4,-1909.2,2025-01-29 11:59:46,1
3032.0,-6339.2,-2700.0,4331.6,-2523.4,-2430.2,2025-01-29 11:59:46,1
2636.0,-6483.2,-2524.0,5381.6,-1067.4,-1561.2,2025-01-29 11:59:46,1
1916.0,-4811.2,-2112.0,6255.6,1583.6,321.8,2025-01-29 11:59:46,1
2608.0,-1199.2,-2004.0,6359.6,3529.6,1626.8,2025-01-29 11:59:46,1
1960.0,1712.8,-2180.0,5353.6,4537.6,1591.8,2025-01-29 11:59:46,1
1172.0,3412.8,-1628.0,3827.6,4731.6,1195.8,2025-01-29 11:59:46,1
932.0,2540.8,-832.0,2650.6,3810.6,57.80000000000001,2025-01-29 11:59:46,1
40.0,612.8,-252.0,2077.6,1906.6,-1106.2,2025-01-29 11:59:46,1
108.0,-2083.2,-1544.0,2131.6,-158.4,-2374.2,2025-01-29 11:59:46,1
596.0,-3723.2,-1184.0,2853.6,-1368.4,-2968.2,2025-01-29 11:59:46,1
964.0,-4107.2,-140.0,3699.6,-2244.4,-2723.2,2025-01-29 11:59:46,1
1600.0,-3767.2,-56.0,3909.6,-2069.4,-1843.2,2025-01-29 11:59:46,1
2248.0,-2655.2,432.0,3933.6,-688.4,-779.2,2025-01-29 11:59:46,1
2956.0,-1779.2,744.0,3947.6,1145.6,-381.2,2025-01-29 11:59:46,1
2820.0,-1599.2,992.0,3885.6,2273.6,-546.2,2025-01-29 11:59:46,1
2436.0,-1751.2,812.0,3652.6,2691.6,-805.2,2025-01-29 11:59:46,1
1540.0,-2003.2,1120.0,3427.6,2874.6,-953.2,2025-01-29 11:59:46,1
676.0,-1895.2,528.0,3192.6,2636.6,-723.2,2025-01-29 11:59:46,1
420.0,-1819.2,316.0,1554.6,142.6,953.8,2025-01-29 11:59:46,1
292.0,-1051.2,564.0,1090.6,-412.4,982.8,2025-01-29 11:59:47,1
764.0,-543.2,508.0,419.6,-906.4,1081.8,2025-01-29 11:59:47,1
948.0,-303.20000000000005,1088.0,-422.4,-888.4,971.8,2025-01-29 11:59:47,1
1220.0,-543.2,1120.0,-1250.4,-739.4,790.8,2025-01-29 11:59:47,1
1456.0,-1207.2,816.0,-1951.4,-399.4,596.8,2025-01-29 11:59:47,1
1328.0,-1907.2,600.0,-2611.4,181.6,315.8,2025-01-29 11:59:47,1
1484.0,-2303.2,156.0,-2887.4,768.6,-25.19999999999999,2025-01-29 11:59:47,1
1304.0,-2267.2,-280.0,-3150.4,1255.6,-550.2,2025-01-29 11:59:47,1
704.0,-2355.2,-204.0,-3089.4,1667.6,-784.2,2025-01-29 11:59:47,1
-204.0,-2523.2,580.0,-2948.4,2249.6,-861.2,2025-01-29 11:59:47,1
-1136.0,-3555.2,468.0,-2783.4,3192.6,-1127.2,2025-01-29 11:59:47,1
-2344.0,-4311.2,892.0,-3026.4,3253.6,-1939.2,2025-01-29 11:59:47,1
-3168.0,-4527.2,1416.0,-2918.4,1987.6,-2890.2,2025-01-29 11:59:47,1
-3484.0,-4331.2,1232.0,-2361.4,65.6,-3414.2,2025-01-29 11:59:47,1
-3372.0,-3291.2,508.0,-1812.4,-1698.4,-3292.2,2025-01-29 11:59:47,1
-2496.0,-1415.2,-1344.0,-1810.4,-2080.4,-3589.2,2025-01-29 11:59:47,1
-668.0,-1259.2,-2508.0,-2326.4,-1336.4,-4755.2,2025-01-29 11:59:47,1
-1392.0,-2407.2,-2164.0,-2466.4,287.6,-5778.2,2025-01-29 11:59:47,1
-2476.0,-4199.2,-3844.0,-2172.4,451.6,-6364.2,2025-01-29 11:59:47,1
-6056.0,-3511.2,-5220.0,-2034.4,-3370.4,-1747.2,2025-01-29 11:59:47,1
-3116.0,-3439.2,-6252.0,-1976.4,-7150.4,1132.8,2025-01-29 11:59:47,1
376.0,-2239.2,-4556.0,-1525.4,-11504.4,1502.8,2025-01-29 11:59:47,1
3512.0,-971.2,-3048.0,-530.4,-13427.4,1083.8,2025-01-29 11:59:47,1
5584.0,624.8,-2816.0,-617.4,-12458.4,482.8,2025-01-29 11:59:47,1
6564.0,1656.8,-1720.0,-1536.4,-9205.4,-150.2,2025-01-29 11:59:47,1
6048.0,1512.8,-1284.0,-1781.4,-3193.4,-698.2,2025-01-29 11:59:47,1
4224.0,-15.200000000000044,-1704.0,-2110.4,4445.6,-414.2,2025-01-29 11:59:47,1
2876.0,-1771.2,-252.0,-2151.4,9020.6,133.8,2025-01-29 11:59:47,1
716.0,-2739.2,620.0,-1343.4,10845.6,390.8,2025-01-29 11:59:47,1
-1988.0,-2671.2,-312.0,-675.4,9776.6,1241.8,2025-01-29 11:59:47,1
-3228.0,-2027.2,-2076.0,-301.4,2783.6,3947.8,2025-01-29 11:59:47,1
-2520.0,-839.2,-1416.0,-94.4,-2690.4,5177.8,2025-01-29 11:59:47,1
-640.0,536.8,-52.0,-3.4000000000000057,-5597.4,5169.8,2025-01-29 11:59:47,1
1440.0,1564.8,1100.0,183.6,-6745.4,4394.8,2025-01-29 11:59:47,1
3164.0,2044.8,2104.0,420.6,-6329.4,3342.8,2025-01-29 11:59:47,1
4224.0,1664.8,1652.0,749.6,-4349.4,2226.8,2025-01-29 11:59:47,1
4348.0,1020.8,728.0,995.6,-1371.4,1491.8,2025-01-29 11:59:47,1
3268.0,664.8,924.0,1230.6,1359.6,1253.8,2025-01-29 11:59:47,1
2316.0,404.8,612.0,1263.6,2502.6,1168.8,2025-01-29 11:59:47,1
1060.0,232.79999999999995,12.0,1088.6,2381.6,978.8,2025-01-29 11:59:47,1
292.0,336.79999999999995,-376.0,801.6,1527.6,898.8,2025-01-29 11:59:47,1
-108.0,-115.20000000000005,-216.0,764.6,-507.4,381.8,2025-01-29 11:59:47,1
-272.0,-575.2,-324.0,935.6,-1729.4,451.8,2025-01-29 11:59:47,1
380.0,-371.2000000000001,384.0,1145.6,-1877.4,894.8,2025-01-29 11:59:47,1
652.0,-307.20000000000005,1128.0,1159.6,-1108.4,1061.8,2025-01-29 11:59:47,1
608.0,-491.2000000000001,1528.0,1271.6,-525.4,1103.8,2025-01-29 11:59:47,1
404.0,-575.2,1696.0,1658.6,-400.4,1179.8,2025-01-29 11:59:47,1
268.0,-535.2,1704.0,2220.6,-620.4,1209.8,2025-01-29 11:59:47,1
676.0,-279.20000000000005,1428.0,2688.6,-990.4,975.8,2025-01-29 11:59:47,1
748.0,-43.200000000000045,1948.0,3041.6,-1130.4,836.8,2025-01-29 11:59:47,1
520.0,72.79999999999995,1948.0,3442.6,-841.4,879.8,2025-01-29 11:59:47,1
492.0,176.79999999999995,1280.0,3644.6,211.6,759.8,2025-01-29 11:59:47,1
-28.0,620.8,1260.0,3736.6,956.6,592.8,2025-01-29 11:59:47,1
-632.0,864.8,860.0,3748.6,1087.6,535.8,2025-01-29 11:59:47,1
-1036.0,792.8,1124.0,3714.6,937.6,801.8,2025-01-29 11:59:47,1
-1012.0,-299.20000000000005,888.0,3629.6,1082.6,1128.8,2025-01-29 11:59:47,1
-940.0,-1599.2,1320.0,3971.6,1486.6,1408.8,2025-01-29 11:59:47,1
-1320.0,-671.2,804.0,3901.6,1697.6,1833.8,2025-01-29 11:59:47,1
-2112.0,468.8,1876.0,3477.6,1850.6,2371.8,2025-01-29 11:59:47,1
-2604.0,936.8,2396.0,3411.6,1468.6,2705.8,2025-01-29 11:59:47,1
-3444.0,868.8,1372.0,3225.6,1177.6,2743.8,2025-01-29 11:59:47,1
-4108.0,712.8,460.0,3132.6,1455.6,2754.8,2025-01-29 11:59:47,1
-4884.0,1800.8,-1172.0,2211.6,1644.6,3449.8,2025-01-29 11:59:48,1
-4316.0,3132.8,-3124.0,993.6,1301.6,4462.8,2025-01-29 11:59:48,1
-2476.0,3632.8,-5168.0,-700.4,269.6,4476.8,2025-01-29 11:59:48,1
-936.0,4108.8,-5388.0,-2435.4,-1038.4,3384.8,2025-01-29 11:59:48,1
956.0,2632.8,-3616.0,-3263.4,-2442.4,1457.8,2025-01-29 11:59:48,1
1484.0,32.799999999999955,-2472.0,-2895.4,-3204.4,157.8,2025-01-29 11:59:48,1
2116.0,-2471.2,-888.0,-1573.4,-3284.4,-370.2,2025-01-29 11:59:48,1
3028.0,-4819.2,-564.0,503.6,-2264.4,-1040.2,2025-01-29 11:59:48,1
2836.0,-5631.2,-1280.0,1880.6,-685.4,-1590.2,2025-01-29 11:59:48,1
2384.0,-4799.2,-1896.0,2567.6,635.6,-1595.2,2025-01-29 11:59:48,1
1460.0,-3051.2,-1640.0,2969.6,1839.6,-1211.2,2025-01-29 11:59:48,1
1328.0,-591.2,-1640.0,2853.6,2288.6,-885.2,2025-01-29 11:59:48,1
968.0,904.8,-1588.0,2096.6,1958.6,-1126.2,2025-01-29 11:59:48,1
736.0,1368.8,-1416.0,1004.6,1105.6,-1570.2,2025-01-29 11:59:48,1
428.0,908.8,-1016.0,120.6,276.6,-2035.2,2025-01-29 11:59:48,1
-196.0,200.79999999999995,-64.0,50.6,-127.4,-2543.2,2025-01-29 11:59:48,1
-44.0,-791.2,-456.0,8.599999999999994,-1031.4,-3121.2,2025-01-29 11:59:48,1
268.0,-1331.2,-84.0,-180.4,-2166.4,-3325.2,2025-01-29 11:59:48,1
1076.0,-1791.2,168.0,-185.4,-2638.4,-3199.2,2025-01-29 11:59:48,1
1424.0,-2155.2,552.0,-335.4,-2285.4,-2821.2,2025-01-29 11:59:48,1
2356.0,-2387.2,400.0,-542.4,-1286.4,-2471.2,2025-01-29 11:59:48,1
2824.0,-2839.2,732.0,-601.4,111.6,-2349.2,2025-01-29 11:59:48,1
2912.0,-2939.2,944.0,-458.4,1164.6,-2359.2,2025-01-29 11:59:48,1
1276.0,-2071.2,784.0,8.599999999999994,2469.6,-1764.2,2025-01-29 11:59:48,1
860.0,-1471.2,344.0,56.6,2338.6,-1411.2,2025-01-29 11:59:48,1
344.0,-1475.2,372.0,-196.4,2184.6,-1182.2,2025-01-29 11:59:48,1
372.0,-1755.2,376.0,-374.4,1708.6,-1087.2,2025-01-29 11:59:48,1
-472.0,-1931.2,608.0,-433.4,1056.6,-651.2,2025-01-29 11:59:48,1
-64.0,-2035.2,1008.0,-425.4,-115.4,136.8,2025-01-29 11:59:48,1
428.0,-1747.2,1708.0,-464.4,-767.4,451.8,2025-01-29 11:59:48,1
408.0,-1107.2,1788.0,-733.4,-947.4,767.8,2025-01-29 11:59:48,1
800.0,-927.2,1676.0,-1195.4,-886.4,862.8,2025-01-29 11:59:48,1
912.0,-831.2,1456.0,-1679.4,-717.4,850.8,2025-01-29 11:59:48,1
864.0,-967.2,1424.0,-2189.4,-449.4,531.8,2025-01-29 11:59:48,1
500.0,-1931.2,1104.0,-2392.4,85.6,62.80000000000001,2025-01-29 11:59:48,1
-124.0,-2519.2,1148.0,-2334.4,789.6,-293.2,2025-01-29 11:59:48,1
-872.0,-1895.2,856.0,-2220.4,1067.6,-728.2,2025-01-29 11:59:48,1
-1744.0,-467.2000000000001,12.0,-2307.4,81.6,-883.2,2025-01-29 11:59:48,1
-1976.0,-831.2,848.0,-2549.4,-1109.4,-783.2,2025-01-29 11:59:48,1
-1916.0,-2343.2,2000.0,-2630.4,-1540.4,-1270.2,2025-01-29 11:59:48,1
-2284.0,-3027.2,2232.0,-2982.4,-1688.4,-1722.2,2025-01-29 11:59:48,1
-2648.0,-2299.2,1128.0,-3063.4,-1632.4,-1775.2,2025-01-29 11:59:48,1
-2304.0,-859.2,-452.0,-2689.4,-1111.4,-2335.2,2025-01-29 11:59:48,1
-2824.0,-2855.2,-176.0,-2424.4,886.6,-3652.2,2025-01-29 11:59:48,1
-3040.0,-6063.2,-68.0,-1272.4,2023.6,-5037.2,2025-01-29 11:59:48,1
-4656.0,-7543.2,-940.0,560.6,314.6,-4819.2,2025-01-29 11:59:48,1
-5888.0,-7851.2,-1636.0,2648.6,-2487.4,-2244.2,2025-01-29 11:59:48,1
-5660.0,-6587.2,-2180.0,4035.6,-5462.4,1592.8,2025-01-29 11:59:48,1
-1676.0,-3703.2,-2928.0,4239.6,-7355.4,3322.8,2025-01-29 11:59:48,1
2344.0,228.79999999999995,-4080.0,3265.6,-9248.4,3167.8,2025-01-29 11:59:48,1
4116.0,3008.8,-4312.0,1380.6,-10087.4,3122.8,2025-01-29 11:59:48,1
5392.0,4368.8,-3792.0,-1261.4,-7629.4,3201.8,2025-01-29 11:59:48,1
6632.0,4616.8,-2492.0,-2517.4,-3199.4,2559.8,2025-01-29 11:59:48,1
6796.0,2480.8,-2060.0,-2877.4,2905.6,469.8,2025-01-29 11:59:48,1
4000.0,-255.20000000000005,-1044.0,-3013.4,7166.6,-976.2,2025-01-29 11:59:48,1
1080.0,-2195.2,-164.0,-2412.4,9588.6,-1188.2,2025-01-29 11:59:48,1
-1100.0,-3567.2,-20.0,-1711.4,9486.6,-637.2,2025-01-29 11:59:49,1
-3216.0,-3591.2,276.0,-882.4,7451.6,753.8,2025-01-29 11:59:49,1
-4384.0,-2895.2,176.0,-8.400000000000006,4265.6,2732.8,2025-01-29 11:59:49,1
-3760.0,-1803.2,-392.0,573.6,184.6,4207.8,2025-01-29 11:59:49,1
-1980.0,-439.2000000000001,-496.0,981.6,-3593.4,4636.8,2025-01-29 11:59:49,1
-16.0,752.8,-316.0,1334.6,-5869.4,4274.8,2025-01-29 11:59:49,1
1748.0,1092.8,16.0,1383.6,-5751.4,3793.8,2025-01-29 11:59:49,1
3460.0,660.8,288.0,1315.6,-3784.4,3328.8,2025-01-29 11:59:49,1
3896.0,296.79999999999995,1044.0,1461.6,-628.4,2950.8,2025-01-29 11:59:49,1
3340.0,-11.200000000000044,1588.0,1781.6,2539.6,2468.8,2025-01-29 11:59:49,1
1800.0,168.79999999999995,1576.0,1849.6,3540.6,2276.8,2025-01-29 11:59:49,1
800.0,344.79999999999995,1800.0,1776.6,3230.6,2261.8,2025-01-29 11:59:49,1
244.0,784.8,1812.0,1906.6,2270.6,1989.8,2025-01-29 11:59:49,1
504.0,1180.8,1048.0,2094.6,728.6,1407.8,2025-01-29 11:59:49,1
984.0,1576.8,468.0,2032.6,-494.4,488.8,2025-01-29 11:59:49,1
1028.0,1484.8,772.0,1786.6,-705.4,-217.2,2025-01-29 11:59:49,1
848.0,1356.8,1096.0,1578.6,-365.4,-600.2,2025-01-29 11:59:49,1
880.0,1052.8,1204.0,1341.6,4.599999999999994,-991.2,2025-01-29 11:59:49,1
552.0,884.8,1372.0,1097.6,292.6,-1353.2,2025-01-29 11:59:49,1
-40.0,940.8,1512.0,925.6,224.6,-1598.2,2025-01-29 11:59:49,1
-336.0,944.8,1232.0,830.6,-232.4,-1560.2,2025-01-29 11:59:49,1
-212.0,508.8,1256.0,744.6,-780.4,-1477.2,2025-01-29 11:59:49,1
160.0,8.799999999999955,1576.0,868.6,-1056.4,-1324.2,2025-01-29 11:59:49,1
536.0,-451.2000000000001,1768.0,1101.6,-701.4,-1131.2,2025-01-29 11:59:49,1
300.0,-503.2000000000001,2076.0,1489.6,501.6,-1006.2,2025-01-29 11:59:49,1
324.0,-611.2,1400.0,1721.6,1261.6,-993.2,2025-01-29 11:59:49,1
-536.0,-903.2,1596.0,2125.6,1493.6,-804.2,2025-01-29 11:59:49,1
-788.0,-1111.2,2100.0,2636.6,1400.6,-350.2,2025-01-29 11:59:49,1
-692.0,-1531.2,2836.0,3322.6,1110.6,211.8,2025-01-29 11:59:49,1
-812.0,-2147.2,3220.0,3924.6,1292.6,464.8,2025-01-29 11:59:49,1
-1328.0,-1983.2,3860.0,4611.6,1769.6,761.8,2025-01-29 11:59:49,1
-2812.0,-947.2,2332.0,4820.6,3091.6,1536.8,2025-01-29 11:59:49,1
-4584.0,204.79999999999995,40.0,4517.6,4638.6,3015.8,2025-01-29 11:59:49,1
-5620.0,1140.8,-2144.0,3648.6,5274.6,4309.8,2025-01-29 11:59:49,1
-6384.0,2640.8,-4160.0,1886.6,4873.6,5540.8,2025-01-29 11:59:49,1
-5812.0,4184.8,-6136.0,-884.4,4075.6,7069.8,2025-01-29 11:59:49,1
-3172.0,3828.8,-6988.0,-3259.4,2640.6,6633.8,2025-01-29 11:59:49,1
-744.0,2452.8,-4412.0,-4368.4,-2365.4,4186.8,2025-01-29 11:59:49,1
260.0,1284.8,-1800.0,-3641.4,-8372.4,1069.8,2025-01-29 11:59:49,7
880.0,-871.2,-312.0,-2723.4,-8405.4,-1181.2,2025-01-29 11:59:49,7
2644.0,-2179.2,-644.0,-1271.4,-8029.4,-2452.2,2025-01-29 11:59:49,7
3316.0,-2715.2,-1096.0,863.6,-8401.4,-2924.2,2025-01-29 11:59:49,7
4008.0,-2155.2,-1408.0,1940.6,-7526.4,-2589.2,2025-01-29 11:59:49,7
4836.0,-2335.2,-792.0,2226.6,-5059.4,-2288.2,2025-01-29 11:59:49,7
4184.0,-2063.2,64.0,2723.6,-1176.4,-2129.2,2025-01-29 11:59:49,7
3504.0,-807.2,-324.0,2854.6,1974.6,-1942.2,2025-01-29 11:59:49,7
2072.0,568.8,-968.0,2111.6,3626.6,-2165.2,2025-01-29 11:59:49,7
296.0,1408.8,-648.0,1251.6,3943.6,-2581.2,2025-01-29 11:59:49,7
-524.0,1452.8,-480.0,636.6,2718.6,-3000.2,2025-01-29 11:59:49,7
-1136.0,932.8,-944.0,-96.4,744.6,-3315.2,2025-01-29 11:59:49,7
-860.0,136.79999999999995,-1928.0,-809.4,-715.4,-3449.2,2025-01-29 11:59:49,7
-600.0,-703.2,-1940.0,-1620.4,-1464.4,-3529.2,2025-01-29 11:59:49,7
-48.0,-1395.2,-1084.0,-2727.4,-2014.4,-3280.2,2025-01-29 11:59:49,7
716.0,-1599.2,-556.0,-3444.4,-1683.4,-3019.2,2025-01-29 11:59:49,7
1480.0,-1383.2,-800.0,-4114.4,-894.4,-3015.2,2025-01-29 11:59:49,7
1500.0,-1119.2,-72.0,-4704.4,266.6,-3215.2,2025-01-29 11:59:49,7
1616.0,-1063.2,-48.0,-5181.4,1176.6,-3650.2,2025-01-29 11:59:49,7
1140.0,-859.2,244.0,-5636.4,1494.6,-4149.2,2025-01-29 11:59:49,7
824.0,-831.2,-600.0,-6073.4,1085.6,-4359.2,2025-01-29 11:59:49,7
360.0,-607.2,-760.0,-6714.4,210.6,-4330.2,2025-01-29 11:59:49,7
356.0,-347.20000000000005,-688.0,-7583.4,-489.4,-4035.2,2025-01-29 11:59:49,7
1152.0,-535.2,-1148.0,-8534.4,-926.4,-3988.2,2025-01-29 11:59:49,7
1500.0,-599.2,-1220.0,-9374.4,-987.4,-3989.2,2025-01-29 11:59:49,7
1476.0,-323.20000000000005,-1016.0,-10548.4,-346.4,-4069.2,2025-01-29 11:59:49,7
1536.0,-163.20000000000005,-1076.0,-11353.4,69.6,-4255.2,2025-01-29 11:59:50,7
936.0,-155.20000000000005,-1096.0,-12104.4,-100.4,-4331.2,2025-01-29 11:59:50,7
852.0,216.79999999999995,-1404.0,-12793.4,-533.4,-4279.2,2025-01-29 11:59:50,7
536.0,84.79999999999995,-940.0,-13465.4,-890.4,-4615.2,2025-01-29 11:59:50,7
1004.0,-707.2,-1652.0,-14121.4,-1000.4,-5324.2,2025-01-29 11:59:50,7
468.0,-1751.2,-1292.0,-14967.4,-1131.4,-6188.2,2025-01-29 11:59:50,7
-32.0,-2559.2,-704.0,-15115.4,-900.4,-6427.2,2025-01-29 11:59:50,7
-364.0,-3139.2,-364.0,-14675.4,-640.4,-6189.2,2025-01-29 11:59:50,7
-28.0,-3207.2,-436.0,-14307.4,-214.4,-6118.2,2025-01-29 11:59:50,7
-36.0,-3203.2,-216.0,-13980.4,129.6,-6452.2,2025-01-29 11:59:50,7
-548.0,-3051.2,-492.0,-13714.4,78.6,-6756.2,2025-01-29 11:59:50,7
-1060.0,-2715.2,28.0,-13695.4,-429.4,-6630.2,2025-01-29 11:59:50,7
-1096.0,-2083.2,604.0,-13786.4,-1054.4,-6230.2,2025-01-29 11:59:50,7
-756.0,-1531.2,720.0,-14042.4,-1222.4,-6099.2,2025-01-29 11:59:50,7
-132.0,-1319.2,404.0,-14542.4,-998.4,-6290.2,2025-01-29 11:59:50,7
184.0,-1143.2,-64.0,-15213.4,-969.4,-6612.2,2025-01-29 11:59:50,7
40.0,-1411.2,-112.0,-16152.4,-1221.4,-6926.2,2025-01-29 11:59:50,7
192.0,-1543.2,-120.0,-16659.4,-1667.4,-7201.2,2025-01-29 11:59:50,7
36.0,-1647.2,-304.0,-16953.4,-2178.4,-7379.2,2025-01-29 11:59:50,7
-176.0,-1739.2,-1104.0,-17312.4,-2348.4,-7705.2,2025-01-29 11:59:50,7
-300.0,-1147.2,-1656.0,-17275.4,-2171.4,-8399.2,2025-01-29 11:59:50,7
-228.0,-1071.2,-2924.0,-17047.4,-2243.4,-8828.2,2025-01-29 11:59:50,7
-8.0,-1971.2,-2484.0,-16802.4,-3107.4,-9139.2,2025-01-29 11:59:50,7
-76.0,-2195.2,-1180.0,-16172.4,-4343.4,-8526.2,2025-01-29 11:59:50,7
888.0,-2219.2,-1668.0,-16391.4,-3254.4,-7280.2,2025-01-29 11:59:50,7
2348.0,-2623.2,-2456.0,-16635.4,-642.4,-6825.2,2025-01-29 11:59:50,7
2544.0,-2383.2,-2920.0,-16568.4,1438.6,-6906.2,2025-01-29 11:59:50,7
2280.0,-1799.2,-2192.0,-16495.4,2736.6,-6882.2,2025-01-29 11:59:50,7
1796.0,-2151.2,-1052.0,-16007.4,3267.6,-6958.2,2025-01-29 11:59:50,7
840.0,-1959.2,-1000.0,-15027.4,2973.6,-6973.2,2025-01-29 11:59:50,7
608.0,-1667.2,-1440.0,-14528.4,2152.6,-7018.2,2025-01-29 11:59:50,7
460.0,-1047.2,-1412.0,-14438.4,1039.6,-7095.2,2025-01-29 11:59:50,7
812.0,-755.2,-1200.0,-14427.4,-211.4,-7030.2,2025-01-29 11:59:50,7
1240.0,-615.2,-1112.0,-14497.4,-703.4,-6937.2,2025-01-29 11:59:50,7
1496.0,-343.20000000000005,-1204.0,-14809.4,-316.4,-6766.2,2025-01-29 11:59:50,7
1900.0,-279.20000000000005,-1052.0,-15289.4,204.6,-7114.2,2025-01-29 11:59:50,7
1416.0,196.79999999999995,-1128.0,-15459.4,501.6,-7623.2,2025-01-29 11:59:50,7
1040.0,616.8,-1160.0,-15812.4,561.6,-7575.2,2025-01-29 11:59:50,7
528.0,1248.8,-1616.0,-16147.4,666.6,-7479.2,2025-01-29 11:59:50,7
356.0,1204.8,-2120.0,-16656.4,706.6,-7363.2,2025-01-29 11:59:50,7
232.0,420.8,-2032.0,-17054.4,654.6,-7287.2,2025-01-29 11:59:50,7
112.0,-139.20000000000005,-1668.0,-17035.4,429.6,-7149.2,2025-01-29 11:59:50,7
84.0,-691.2,-1212.0,-16923.4,108.6,-7094.2,2025-01-29 11:59:50,7
-196.0,-547.2,-668.0,-16730.4,-488.4,-6875.2,2025-01-29 11:59:50,7
-20.0,-291.20000000000005,-444.0,-16423.4,-1368.4,-6571.2,2025-01-29 11:59:50,7
480.0,-139.20000000000005,-476.0,-15950.4,-1985.4,-6698.2,2025-01-29 11:59:50,7
448.0,64.79999999999995,228.0,-15595.4,-1972.4,-6913.2,2025-01-29 11:59:50,7
572.0,220.79999999999995,448.0,-15187.4,-2033.4,-7081.2,2025-01-29 11:59:50,7
488.0,632.8,260.0,-14783.4,-1997.4,-7071.2,2025-01-29 11:59:50,7
1116.0,1112.8,-832.0,-14658.4,-1812.4,-7097.2,2025-01-29 11:59:50,7
1400.0,1260.8,-1416.0,-15049.4,-1495.4,-7371.2,2025-01-29 11:59:50,7
1492.0,1428.8,-1000.0,-15282.4,-1315.4,-7826.2,2025-01-29 11:59:50,7
1132.0,776.8,-1012.0,-15155.4,-618.4,-7980.2,2025-01-29 11:59:50,7
908.0,408.8,-724.0,-15063.4,350.6,-8041.2,2025-01-29 11:59:50,7
1156.0,84.79999999999995,-1156.0,-15119.4,1141.6,-8148.2,2025-01-29 11:59:50,7
1128.0,276.79999999999995,-1592.0,-15357.4,1364.6,-8659.2,2025-01-29 11:59:50,7
628.0,388.8,-1280.0,-15311.4,897.6,-9168.2,2025-01-29 11:59:50,7
456.0,508.8,-1032.0,-15072.4,351.6,-9525.2,2025-01-29 11:59:51,7
-436.0,536.8,-220.0,-14949.4,79.6,-9690.2,2025-01-29 11:59:51,7
1428.0,28.799999999999955,-2092.0,-14936.4,-916.4,-9818.2,2025-01-29 11:59:51,7
856.0,-291.20000000000005,-1256.0,-14723.4,-1660.4,-9819.2,2025-01-29 11:59:51,7
1232.0,-727.2,-1216.0,-14346.4,-1806.4,-9908.2,2025-01-29 11:59:51,7
1564.0,-1035.2,-1224.0,-13880.4,-1241.4,-10152.2,2025-01-29 11:59:51,7
772.0,-1415.2,-428.0,-13359.4,-445.4,-10278.2,2025-01-29 11:59:51,7
-80.0,-2147.2,-1528.0,-13086.4,-132.4,-10256.2,2025-01-29 11:59:51,7
-1012.0,-3239.2,-1364.0,-12798.4,-474.4,-10252.2,2025-01-29 11:59:51,7
-1248.0,-4643.2,-44.0,-10504.4,-4101.4,-9463.2,2025-01-29 11:59:51,7
-1552.0,-4375.2,764.0,-8705.4,-5944.4,-7937.2,2025-01-29 11:59:51,7
-772.0,-3107.2,-96.0,-7598.4,-6237.4,-5880.2,2025-01-29 11:59:51,7
-160.0,-1607.2,-540.0,-7339.4,-5471.4,-4481.2,2025-01-29 11:59:51,7
-896.0,16.799999999999955,-680.0,-7589.4,-3399.4,-3804.2,2025-01-29 11:59:51,7
-2408.0,1400.8,-1236.0,-8437.4,-1068.4,-2859.2,2025-01-29 11:59:51,7
-2660.0,100.79999999999995,-756.0,-8992.4,194.6,-2308.2,2025-01-29 11:59:51,7
-820.0,-1651.2,2092.0,-7994.4,-2595.4,-2677.2,2025-01-29 11:59:51,7
1548.0,-2327.2,2772.0,-6245.4,-6942.4,-3777.2,2025-01-29 11:59:51,7
2676.0,-1839.2,3276.0,-4997.4,-6661.4,-4356.2,2025-01-29 11:59:51,7
2760.0,-983.2,2640.0,-4387.4,-1996.4,-4365.2,2025-01-29 11:59:51,7
2404.0,-59.200000000000045,844.0,-4765.4,3436.6,-4474.2,2025-01-29 11:59:51,7
508.0,484.8,580.0,-6049.4,6036.6,-5110.2,2025-01-29 11:59:51,7
-1804.0,1212.8,564.0,-7158.4,5861.6,-5218.2,2025-01-29 11:59:51,7
-2552.0,-135.20000000000005,696.0,-8295.4,2215.6,-4972.2,2025-01-29 11:59:51,7
-468.0,-3055.2,1468.0,-8289.4,-1331.4,-5042.2,2025-01-29 11:59:51,7
144.0,-5351.2,4056.0,-6907.4,-2294.4,-4884.2,2025-01-29 11:59:51,7
440.0,-5591.2,3724.0,-5329.4,31.599999999999994,-4118.2,2025-01-29 11:59:51,7
932.0,-4283.2,644.0,-4421.4,2752.6,-3893.2,2025-01-29 11:59:51,7
-168.0,-2263.2,-1840.0,-4221.4,3947.6,-4048.2,2025-01-29 11:59:51,7
-1476.0,-819.2,-1876.0,-4718.4,3115.6,-3964.2,2025-01-29 11:59:51,7
-1764.0,-499.2000000000001,-632.0,-5293.4,808.6,-3996.2,2025-01-29 11:59:51,7
-1456.0,-1463.2,100.0,-5556.4,-2240.4,-4097.2,2025-01-29 11:59:51,7
-820.0,-2683.2,584.0,-5534.4,-3874.4,-3842.2,2025-01-29 11:59:51,7
440.0,-3619.2,656.0,-5528.4,-3793.4,-3587.2,2025-01-29 11:59:51,7
1040.0,-3695.2,936.0,-5377.4,-2899.4,-3261.2,2025-01-29 11:59:51,7
1400.0,-3171.2,1524.0,-5177.4,-1614.4,-2937.2,2025-01-29 11:59:51,7
1168.0,-2407.2,1964.0,-5138.4,-52.400000000000006,-2491.2,2025-01-29 11:59:51,7
784.0,-2443.2,1676.0,-5015.4,707.6,-2354.2,2025-01-29 11:59:51,7
32.0,-2459.2,1112.0,-4982.4,1007.6,-2295.2,2025-01-29 11:59:51,7
-864.0,-2251.2,968.0,-4934.4,782.6,-2066.2,2025-01-29 11:59:51,7
-1380.0,-1851.2,628.0,-5024.4,-18.40000000000001,-1572.2,2025-01-29 11:59:51,7
-1332.0,-1523.2,884.0,-5229.4,-1319.4,-1038.2,2025-01-29 11:59:51,7
-988.0,-1447.2,804.0,-5371.4,-2282.4,-512.2,2025-01-29 11:59:51,7
-536.0,-1547.2,548.0,-5584.4,-2587.4,-43.19999999999999,2025-01-29 11:59:51,7
-192.0,-2127.2,1060.0,-5417.4,-2169.4,162.8,2025-01-29 11:59:51,7
-112.0,-2607.2,1768.0,-4971.4,-1763.4,96.8,2025-01-29 11:59:51,7
-376.0,-2635.2,1508.0,-4577.4,-1807.4,232.8,2025-01-29 11:59:51,7
-336.0,-2939.2,760.0,-4270.4,-1614.4,390.8,2025-01-29 11:59:51,7
-652.0,-2227.2,-124.0,-4145.4,-900.4,524.8,2025-01-29 11:59:51,7
-620.0,-1191.2,-168.0,-3821.4,89.6,503.8,2025-01-29 11:59:51,7
-108.0,-563.2,20.0,-3419.4,252.6,-65.19999999999999,2025-01-29 11:59:51,7
-424.0,-475.2000000000001,92.0,-3411.4,-660.4,-366.2,2025-01-29 11:59:51,7
-308.0,-555.2,548.0,-3332.4,-1440.4,128.8,2025-01-29 11:59:51,7
752.0,-1163.2,652.0,-3066.4,-1323.4,516.8,2025-01-29 11:59:51,7
920.0,-1647.2,292.0,-2859.4,-309.4,482.8,2025-01-29 11:59:51,7
668.0,-2239.2,-356.0,-2518.4,1195.6,606.8,2025-01-29 11:59:51,7
196.0,-2227.2,-568.0,-1905.4,2163.6,844.8,2025-01-29 11:59:51,7
-100.0,-1527.2,-384.0,-1401.4,2191.6,1003.8,2025-01-29 11:59:51,7
-516.0,-735.2,-180.0,-906.4,1319.6,1206.8,2025-01-29 11:59:51,7
-104.0,-299.20000000000005,124.0,-443.4,66.6,1295.8,2025-01-29 11:59:51,1
676.0,-127.20000000000005,616.0,195.6,-1111.4,760.8,2025-01-29 11:59:51,1
1120.0,-283.20000000000005,132.0,631.6,-1183.4,80.80000000000001,2025-01-29 11:59:51,1
1188.0,-207.20000000000005,-36.0,750.6,-706.4,-167.2,2025-01-29 11:59:51,1
1356.0,-231.20000000000005,-168.0,669.6,-78.4,-449.2,2025-01-29 11:59:51,1
1204.0,12.799999999999956,-292.0,418.6,469.6,-778.2,2025-01-29 11:59:51,1
652.0,168.79999999999995,68.0,196.6,927.6,-817.2,2025-01-29 11:59:51,1
-20.0,124.79999999999995,-360.0,-58.400000000000006,1801.6,-647.2,2025-01-29 11:59:52,1
-708.0,124.79999999999995,-660.0,-352.4,2638.6,-329.2,2025-01-29 11:59:52,1
-1356.0,16.799999999999955,-344.0,-562.4,2432.6,-146.2,2025-01-29 11:59:52,1
-1372.0,-363.2000000000001,660.0,-586.4,703.6,-235.2,2025-01-29 11:59:52,1
-780.0,-427.2000000000001,840.0,13.599999999999994,-1472.4,-504.2,2025-01-29 11:59:52,1
-164.0,-203.20000000000005,-64.0,475.6,-1792.4,-662.2,2025-01-29 11:59:52,1
296.0,132.79999999999995,-948.0,605.6,-1241.4,-612.2,2025-01-29 11:59:52,1
492.0,484.8,-1192.0,306.6,-370.4,-319.2,2025-01-29 11:59:52,1
752.0,536.8,-456.0,-87.4,316.6,-175.2,2025-01-29 11:59:52,1
200.0,216.79999999999995,-84.0,-308.4,1015.6,-154.2,2025-01-29 11:59:52,1
-308.0,-403.2000000000001,20.0,-544.4,1322.6,-87.19999999999999,2025-01-29 11:59:52,1
-404.0,-799.2,168.0,-439.4,793.6,-161.2,2025-01-29 11:59:52,1
-560.0,-763.2,16.0,-165.4,3.5999999999999943,-180.2,2025-01-29 11:59:52,1
-452.0,-455.2000000000001,12.0,5.599999999999994,-567.4,-258.2,2025-01-29 11:59:52,1
-36.0,-231.20000000000005,268.0,34.599999999999994,-982.4,-276.2,2025-01-29 11:59:52,1
64.0,-119.20000000000005,640.0,69.6,-951.4,-129.2,2025-01-29 11:59:52,1
528.0,-151.20000000000005,520.0,70.6,-620.4,-117.2,2025-01-29 11:59:52,1
940.0,-443.2000000000001,188.0,111.6,93.6,-295.2,2025-01-29 11:59:52,1
652.0,-883.2,320.0,142.6,792.6,-364.2,2025-01-29 11:59:52,1
356.0,-1019.2,-72.0,248.6,1303.6,-317.2,2025-01-29 11:59:52,1
-96.0,-711.2,-204.0,302.6,1228.6,-190.2,2025-01-29 11:59:52,1
-236.0,-351.20000000000005,-388.0,140.6,887.6,-124.2,2025-01-29 11:59:52,1
-244.0,-255.20000000000005,-604.0,-172.4,522.6,-60.19999999999999,2025-01-29 11:59:52,1
-304.0,-211.20000000000005,-324.0,-276.4,305.6,45.80000000000001,2025-01-29 11:59:52,1
-76.0,-407.2000000000001,-288.0,-261.4,194.6,98.8,2025-01-29 11:59:52,1
-56.0,-603.2,24.0,-172.4,79.6,40.80000000000001,2025-01-29 11:59:52,1
0.0,-879.2,96.0,22.599999999999994,-62.400000000000006,78.80000000000001,2025-01-29 11:59:52,1
-12.0,-811.2,136.0,202.6,-284.4,133.8,2025-01-29 11:59:52,1
164.0,-815.2,100.0,274.6,-361.4,126.8,2025-01-29 11:59:52,1
200.0,-723.2,196.0,373.6,-189.4,111.8,2025-01-29 11:59:52,1
308.0,-635.2,204.0,399.6,228.6,89.80000000000001,2025-01-29 11:59:52,1
96.0,-515.2,160.0,391.6,459.6,71.80000000000001,2025-01-29 11:59:52,1
56.0,-499.2000000000001,-228.0,329.6,563.6,66.80000000000001,2025-01-29 11:59:52,1
-192.0,-379.2000000000001,-172.0,238.6,354.6,103.8,2025-01-29 11:59:52,1
-216.0,-323.20000000000005,-132.0,198.6,-20.40000000000001,141.8,2025-01-29 11:59:52,1
-48.0,-399.2000000000001,-348.0,166.6,-328.4,183.8,2025-01-29 11:59:52,1
204.0,-455.2000000000001,-432.0,90.6,-343.4,194.8,2025-01-29 11:59:52,1
392.0,-623.2,-136.0,123.6,-160.4,188.8,2025-01-29 11:59:52,1
264.0,-695.2,-208.0,133.6,136.6,98.8,2025-01-29 11:59:52,1
284.0,-755.2,-404.0,153.6,275.6,50.80000000000001,2025-01-29 11:59:52,1
184.0,-683.2,-288.0,168.6,313.6,43.80000000000001,2025-01-29 11:59:52,1
160.0,-519.2,-88.0,116.6,235.6,59.80000000000001,2025-01-29 11:59:52,1
80.0,-435.2000000000001,88.0,111.6,43.6,29.80000000000001,2025-01-29 11:59:52,1
96.0,-295.20000000000005,16.0,93.6,-66.4,38.80000000000001,2025-01-29 11:59:52,1
268.0,-427.2000000000001,-64.0,17.599999999999994,-30.40000000000001,19.80000000000001,2025-01-29 11:59:52,1
268.0,-499.2000000000001,-128.0,-35.400000000000006,62.6,-1.1999999999999886,2025-01-29 11:59:52,1
160.0,-379.2000000000001,-232.0,-60.400000000000006,180.6,-42.19999999999999,2025-01-29 11:59:52,1
180.0,-499.2000000000001,-388.0,-109.4,183.6,-79.19999999999999,2025-01-29 11:59:52,1
136.0,-563.2,-464.0,-167.4,163.6,-118.2,2025-01-29 11:59:52,1
108.0,-411.2000000000001,-492.0,-150.4,138.6,-83.19999999999999,2025-01-29 11:59:52,1
160.0,-331.20000000000005,-252.0,-218.4,139.6,-82.19999999999999,2025-01-29 11:59:52,1
220.0,-419.2000000000001,-160.0,-248.4,147.6,-97.2,2025-01-29 11:59:52,1
304.0,-347.20000000000005,-268.0,-224.4,194.6,-130.2,2025-01-29 11:59:52,1
292.0,-523.2,-72.0,-250.4,207.6,-167.2,2025-01-29 11:59:52,1
204.0,-383.2000000000001,-236.0,-226.4,188.6,-155.2,2025-01-29 11:59:52,1
284.0,-327.20000000000005,-160.0,-199.4,262.6,-207.2,2025-01-29 11:59:52,1
124.0,-339.20000000000005,-268.0,-140.4,345.6,-269.2,2025-01-29 11:59:52,1
-12.0,-311.20000000000005,-204.0,-135.4,473.6,-210.2,2025-01-29 11:59:52,1
60.0,-535.2,-104.0,-53.400000000000006,637.6,-164.2,2025-01-29 11:59:52,1
20.0,-495.2000000000001,28.0,24.599999999999994,559.6,-43.19999999999999,2025-01-29 11:59:52,1
48.0,-595.2,-108.0,185.6,403.6,-66.19999999999999,2025-01-29 11:59:53,1
20.0,-411.2000000000001,-176.0,323.6,270.6,-50.19999999999999,2025-01-29 11:59:53,1
68.0,-439.2000000000001,-44.0,416.6,158.6,-41.19999999999999,2025-01-29 11:59:53,1
-16.0,-335.20000000000005,56.0,452.6,178.6,-53.19999999999999,2025-01-29 11:59:53,1
-20.0,-295.20000000000005,-44.0,524.6,214.6,-10.199999999999989,2025-01-29 11:59:53,1
-100.0,-199.20000000000005,-216.0,584.6,157.6,11.800000000000011,2025-01-29 11:59:53,1
-336.0,-91.20000000000005,-240.0,548.6,77.6,-4.199999999999989,2025-01-29 11:59:53,1
-340.0,-107.20000000000005,60.0,532.6,-77.4,-81.19999999999999,2025-01-29 11:59:53,1
-316.0,-231.20000000000005,12.0,561.6,-345.4,-120.2,2025-01-29 11:59:53,1
-388.0,-183.20000000000005,-92.0,684.6,-890.4,-149.2,2025-01-29 11:59:53,1
-108.0,-239.20000000000005,100.0,772.6,-1012.4,-143.2,2025-01-29 11:59:53,1
232.0,-387.2000000000001,312.0,874.6,-952.4,-127.2,2025-01-29 11:59:53,1
372.0,-227.20000000000005,252.0,916.6,-744.4,-69.19999999999999,2025-01-29 11:59:53,1
604.0,-75.20000000000005,196.0,1001.6,-364.4,-84.19999999999999,2025-01-29 11:59:53,1
640.0,-215.20000000000005,-20.0,896.6,-13.400000000000006,-183.2,2025-01-29 11:59:53,1
604.0,-367.2000000000001,200.0,988.6,367.6,-205.2,2025-01-29 11:59:53,1
584.0,-359.20000000000005,136.0,1096.6,744.6,-138.2,2025-01-29 11:59:53,1
432.0,-255.20000000000005,-88.0,1073.6,893.6,-75.19999999999999,2025-01-29 11:59:53,1
372.0,-319.20000000000005,-24.0,1046.6,983.6,-19.19999999999999,2025-01-29 11:59:53,1
308.0,-351.20000000000005,-164.0,995.6,1045.6,32.80000000000001,2025-01-29 11:59:53,1
56.0,-415.2000000000001,-512.0,1037.6,996.6,-42.19999999999999,2025-01-29 11:59:53,1
-296.0,-615.2,-416.0,1138.6,757.6,-115.2,2025-01-29 11:59:53,1
-664.0,-567.2,-628.0,1243.6,299.6,-143.2,2025-01-29 11:59:53,1
-640.0,-675.2,-680.0,1369.6,-485.4,-214.2,2025-01-29 11:59:53,1
-408.0,-759.2,-832.0,1497.6,-1313.4,-349.2,2025-01-29 11:59:53,1
-220.0,-839.2,-456.0,1719.6,-1992.4,-607.2,2025-01-29 11:59:53,1
132.0,-1283.2,-164.0,2052.6,-2418.4,-920.2,2025-01-29 11:59:53,1
480.0,-1583.2,36.0,2546.6,-2503.4,-1222.2,2025-01-29 11:59:53,1
860.0,-2111.2,164.0,3097.6,-2059.4,-1443.2,2025-01-29 11:59:53,1
1068.0,-2719.2,396.0,3185.6,-1150.4,-1629.2,2025-01-29 11:59:53,1
624.0,-2803.2,1176.0,3244.6,-371.4,-1544.2,2025-01-29 11:59:53,1
-272.0,-2247.2,1344.0,2877.6,346.6,-765.2,2025-01-29 11:59:53,1
-468.0,-1547.2,1400.0,2252.6,726.6,-170.2,2025-01-29 11:59:53,1
-160.0,-1067.2,1576.0,1688.6,548.6,-317.2,2025-01-29 11:59:53,1
-100.0,-1243.2,1392.0,1300.6,711.6,-811.2,2025-01-29 11:59:53,1
84.0,-1687.2,1400.0,1187.6,997.6,-1294.2,2025-01-29 11:59:53,1
-116.0,-2331.2,1412.0,1201.6,1051.6,-1470.2,2025-01-29 11:59:53,1
-4.0,-2751.2,1056.0,1394.6,981.6,-1486.2,2025-01-29 11:59:53,1
56.0,-2955.2,1104.0,1700.6,1044.6,-1520.2,2025-01-29 11:59:53,1
-44.0,-2795.2,1252.0,1804.6,1015.6,-1453.2,2025-01-29 11:59:53,1
-280.0,-2483.2,1156.0,1597.6,802.6,-982.2,2025-01-29 11:59:53,1
-40.0,-2511.2,1088.0,1344.6,727.6,-572.2,2025-01-29 11:59:53,1
344.0,-2483.2,1456.0,1068.6,829.6,-464.2,2025-01-29 11:59:53,1
232.0,-2291.2,1580.0,813.6,912.6,-416.2,2025-01-29 11:59:53,1
-100.0,-1911.2,1748.0,349.6,964.6,-185.2,2025-01-29 11:59:53,1
-244.0,-1643.2,1712.0,-87.4,815.6,205.8,2025-01-29 11:59:53,1
-300.0,-1531.2,1552.0,-584.4,564.6,485.8,2025-01-29 11:59:53,1
-192.0,-1847.2,1500.0,-1024.4,472.6,583.8,2025-01-29 11:59:53,1
-272.0,-1807.2,1232.0,-1322.4,554.6,571.8,2025-01-29 11:59:53,1
-736.0,-1647.2,904.0,-1709.4,671.6,581.8,2025-01-29 11:59:53,1
-1064.0,-1551.2,440.0,-2196.4,416.6,614.8,2025-01-29 11:59:53,1
-1052.0,-1815.2,232.0,-2467.4,-40.400000000000006,461.8,2025-01-29 11:59:53,1
-1100.0,-2019.2,548.0,-2554.4,-421.4,193.8,2025-01-29 11:59:53,1
-1300.0,-1419.2,1488.0,-2847.4,-1294.4,178.8,2025-01-29 11:59:53,1
-224.0,-2467.2,2356.0,-2902.4,-1404.4,-71.19999999999999,2025-01-29 11:59:53,1
-84.0,-3559.2,2424.0,-2531.4,-825.4,-594.2,2025-01-29 11:59:53,1
-656.0,-3155.2,2072.0,-2419.4,-137.4,-1000.2,2025-01-29 11:59:53,1
-1280.0,-2183.2,1944.0,-2779.4,-55.400000000000006,-1020.2,2025-01-29 11:59:53,1
-1728.0,-1375.2,1836.0,-3598.4,-530.4,-1246.2,2025-01-29 11:59:53,1
-1388.0,-1735.2,708.0,-4258.4,-969.4,-2096.2,2025-01-29 11:59:53,1
-892.0,-2679.2,-640.0,-4474.4,-1231.4,-2958.2,2025-01-29 11:59:54,1
-356.0,-3035.2,-60.0,-3887.4,-911.4,-3680.2,2025-01-29 11:59:54,1
-296.0,-3499.2,1064.0,-2993.4,-1011.4,-3979.2,2025-01-29 11:59:54,1
-460.0,-3475.2,484.0,-2362.4,-1636.4,-3317.2,2025-01-29 11:59:54,1
-436.0,-3635.2,-764.0,-2185.4,-1203.4,-2306.2,2025-01-29 11:59:54,1
-532.0,-4119.2,-1136.0,-2225.4,857.6,-1793.2,2025-01-29 11:59:54,1
-1216.0,-4571.2,-428.0,-2191.4,2432.6,-1570.2,2025-01-29 11:59:54,1
-2412.0,-4411.2,144.0,-1864.4,2206.6,-1210.2,2025-01-29 11:59:54,1
-3556.0,-4383.2,244.0,-1608.4,197.6,260.8,2025-01-29 11:59:54,1
-2808.0,-4143.2,-532.0,-1316.4,-2658.4,2894.8,2025-01-29 11:59:54,1
-1584.0,-3103.2,-940.0,-895.4,-4042.4,3887.8,2025-01-29 11:59:54,1
-644.0,-2047.2,-1080.0,-603.4,-4438.4,4476.8,2025-01-29 11:59:54,1
704.0,-1215.2,-1204.0,-279.4,-4312.4,4740.8,2025-01-29 11:59:54,1
1952.0,-531.2,-1584.0,-97.4,-3978.4,4659.8,2025-01-29 11:59:54,1
3048.0,-67.20000000000005,-1324.0,-116.4,-3316.4,4207.8,2025-01-29 11:59:54,1
4272.0,212.79999999999995,-808.0,-354.4,-2349.4,3304.8,2025-01-29 11:59:54,1
4696.0,260.79999999999995,-300.0,-534.4,-829.4,2291.8,2025-01-29 11:59:54,1
3884.0,616.8,-316.0,-679.4,1571.6,1499.8,2025-01-29 11:59:54,1
2356.0,568.8,-204.0,-771.4,3477.6,1183.8,2025-01-29 11:59:54,1
852.0,548.8,-556.0,-781.4,4486.6,1179.8,2025-01-29 11:59:54,1
-944.0,472.8,-748.0,-901.4,4785.6,1377.8,2025-01-29 11:59:54,1
-2408.0,100.79999999999995,-428.0,-904.4,3625.6,1639.8,2025-01-29 11:59:54,1
-3228.0,-363.2000000000001,-332.0,-567.4,1494.6,2043.8,2025-01-29 11:59:54,1
-2992.0,-959.2,-140.0,-271.4,-1307.4,2719.8,2025-01-29 11:59:54,1
-2140.0,-739.2,404.0,-102.4,-3230.4,3200.8,2025-01-29 11:59:54,1
-576.0,-151.20000000000005,616.0,75.6,-4417.4,3606.8,2025-01-29 11:59:54,1
1220.0,476.8,756.0,212.6,-4666.4,3752.8,2025-01-29 11:59:54,1
2720.0,1028.8,968.0,381.6,-3798.4,3460.8,2025-01-29 11:59:54,1
3448.0,1156.8,1220.0,501.6,-1769.4,2805.8,2025-01-29 11:59:54,1
3064.0,1184.8,1776.0,682.6,407.6,2137.8,2025-01-29 11:59:54,1
2076.0,792.8,2172.0,861.6,1923.6,1652.8,2025-01-29 11:59:54,1
684.0,776.8,2092.0,1076.6,2543.6,1488.8,2025-01-29 11:59:54,1
-44.0,924.8,1904.0,1348.6,2108.6,1485.8,2025-01-29 11:59:54,1
-128.0,1120.8,1584.0,1531.6,1305.6,1266.8,2025-01-29 11:59:54,1
192.0,1188.8,1732.0,1709.6,267.6,642.8,2025-01-29 11:59:54,1
476.0,1104.8,1460.0,1855.6,-519.4,-86.19999999999999,2025-01-29 11:59:54,1
652.0,1000.8,1764.0,1863.6,-871.4,-610.2,2025-01-29 11:59:54,1
648.0,916.8,2148.0,1542.6,-573.4,-1111.2,2025-01-29 11:59:54,1
96.0,1512.8,2092.0,1396.6,-435.4,-1554.2,2025-01-29 11:59:54,1
-512.0,1792.8,1264.0,1174.6,-507.4,-2003.2,2025-01-29 11:59:54,1
-968.0,1732.8,1152.0,749.6,-913.4,-2120.2,2025-01-29 11:59:54,1
-1092.0,1044.8,1848.0,412.6,-1766.4,-1728.2,2025-01-29 11:59:54,1
-936.0,512.8,2792.0,604.6,-1760.4,-1253.2,2025-01-29 11:59:54,1
-1004.0,-343.20000000000005,2792.0,711.6,-739.4,-1108.2,2025-01-29 11:59:54,1
-2328.0,-863.2,3044.0,803.6,965.6,-1026.2,2025-01-29 11:59:54,1
-4300.0,-1055.2,2608.0,1030.6,2062.6,-214.2,2025-01-29 11:59:54,1
-5172.0,-1071.2,2228.0,1358.6,1407.6,1381.8,2025-01-29 11:59:54,1
-4376.0,-843.2,1872.0,1933.6,-1577.4,3422.8,2025-01-29 11:59:54,1
-3396.0,-1063.2,1360.0,2318.6,-2700.4,4705.8,2025-01-29 11:59:54,1
-2236.0,-1147.2,1232.0,2484.6,-1793.4,5721.8,2025-01-29 11:59:54,1
-1336.0,-235.20000000000005,1312.0,3001.6,-759.4,6266.8,2025-01-29 11:59:54,1
-1224.0,1224.8,112.0,3479.6,348.6,6189.8,2025-01-29 11:59:54,1
-1616.0,3380.8,-2296.0,3426.6,2394.6,5890.8,2025-01-29 11:59:54,1
-1064.0,5892.8,-4636.0,2611.6,3604.6,4885.8,2025-01-29 11:59:54,1
1600.0,6044.8,-4500.0,1496.6,1205.6,2125.8,2025-01-29 11:59:54,1
2452.0,4128.8,-3248.0,915.6,-2490.4,-2053.2,2025-01-29 11:59:54,1
1808.0,2176.8,-2588.0,662.6,-3818.4,-4429.2,2025-01-29 11:59:54,1
1824.0,304.79999999999995,-1720.0,764.6,-4216.4,-4854.2,2025-01-29 11:59:54,1
2124.0,-1375.2,-1000.0,1078.6,-3690.4,-4058.2,2025-01-29 11:59:54,1
2604.0,-2099.2,-812.0,857.6,-1864.4,-2979.2,2025-01-29 11:59:54,1
2436.0,-1451.2,-300.0,418.6,768.6,-2327.2,2025-01-29 11:59:55,1
2068.0,-1167.2,-100.0,362.6,2429.6,-2366.2,2025-01-29 11:59:55,1
1232.0,-1371.2,428.0,273.6,2609.6,-2933.2,2025-01-29 11:59:55,1
-148.0,-1759.2,628.0,205.6,2154.6,-3265.2,2025-01-29 11:59:55,1
-1744.0,-2111.2,736.0,428.6,722.6,-3081.2,2025-01-29 11:59:55,1
-1848.0,-1927.2,104.0,803.6,-1104.4,-2506.2,2025-01-29 11:59:55,1
-576.0,-939.2,-508.0,865.6,-2281.4,-2280.2,2025-01-29 11:59:55,1
468.0,-275.20000000000005,-232.0,706.6,-2650.4,-2331.2,2025-01-29 11:59:55,1
1212.0,84.79999999999995,-152.0,214.6,-1926.4,-2301.2,2025-01-29 11:59:55,1
1800.0,76.79999999999995,620.0,-707.4,-545.4,-2301.2,2025-01-29 11:59:55,1
1752.0,-475.2000000000001,1260.0,-1246.4,509.6,-2249.2,2025-01-29 11:59:55,1
1388.0,-1175.2,2184.0,-1461.4,1368.6,-2476.2,2025-01-29 11:59:55,1
688.0,-1879.2,2496.0,-1397.4,1882.6,-2577.2,2025-01-29 11:59:55,1
128.0,-2511.2,2484.0,-1103.4,2142.6,-2442.2,2025-01-29 11:59:55,1
-596.0,-3135.2,2568.0,-687.4,2041.6,-2037.2,2025-01-29 11:59:55,1
-1080.0,-3063.2,2464.0,-337.4,1503.6,-1423.2,2025-01-29 11:59:55,1
-844.0,-2415.2,2296.0,-105.4,590.6,-430.2,2025-01-29 11:59:55,1
-508.0,-2043.2,2248.0,-145.4,227.6,-27.19999999999999,2025-01-29 11:59:55,1
-252.0,-1611.2,2016.0,-368.4,93.6,264.8,2025-01-29 11:59:55,1
36.0,-1283.2,2028.0,-619.4,115.6,593.8,2025-01-29 11:59:55,1
892.0,-999.2,1492.0,-826.4,255.6,945.8,2025-01-29 11:59:55,1
876.0,-999.2,1512.0,-1088.4,1042.6,1002.8,2025-01-29 11:59:55,1
624.0,-1179.2,1672.0,-1448.4,2208.6,654.8,2025-01-29 11:59:55,1
-152.0,-1927.2,1284.0,-1567.4,2802.6,244.8,2025-01-29 11:59:55,1
-724.0,-1971.2,624.0,-1485.4,2877.6,-84.19999999999999,2025-01-29 11:59:55,1
-1804.0,-1443.2,424.0,-1642.4,2031.6,-476.2,2025-01-29 11:59:55,1
-2160.0,-1571.2,1096.0,-1604.4,962.6,-786.2,2025-01-29 11:59:55,1
-1760.0,-1883.2,816.0,-1656.4,-403.4,-1294.2,2025-01-29 11:59:55,1
-1892.0,-1759.2,1364.0,-2125.4,-1697.4,-1425.2,2025-01-29 11:59:55,1
-1224.0,-1479.2,980.0,-2488.4,-2279.4,-1675.2,2025-01-29 11:59:55,1
-572.0,-395.2000000000001,-296.0,-2926.4,-2106.4,-2563.2,2025-01-29 11:59:55,1
-904.0,-411.2000000000001,-768.0,-3623.4,-1402.4,-3301.2,2025-01-29 11:59:55,1
-812.0,-1595.2,568.0,-3520.4,-924.4,-3595.2,2025-01-29 11:59:55,1
-1088.0,-3455.2,1352.0,-2923.4,-564.4,-3683.2,2025-01-29 11:59:55,1
-2020.0,-4731.2,872.0,-2539.4,5.599999999999994,-3011.2,2025-01-29 11:59:55,1
-3624.0,-5739.2,-308.0,-2341.4,1257.6,-1763.2,2025-01-29 11:59:55,1
-3060.0,-6375.2,-1592.0,-1270.4,1449.6,-322.2,2025-01-29 11:59:55,1
-3208.0,-5187.2,-1708.0,371.6,-603.4,496.8,2025-01-29 11:59:55,1
-3096.0,-2755.2,-2364.0,323.6,-3954.4,1933.8,2025-01-29 11:59:55,1
-1836.0,-1103.2,-1620.0,-543.4,-5978.4,3252.8,2025-01-29 11:59:55,1
32.0,140.79999999999995,-1388.0,-1147.4,-6983.4,4624.8,2025-01-29 11:59:55,1
2740.0,1556.8,-1748.0,-1932.4,-6441.4,5564.8,2025-01-29 11:59:55,1
5584.0,2472.8,-1152.0,-2758.4,-4476.4,4950.8,2025-01-29 11:59:55,1
7096.0,2284.8,556.0,-2776.4,-1018.4,2219.8,2025-01-29 11:59:55,1
5568.0,1204.8,828.0,-2354.4,2627.6,-303.2,2025-01-29 11:59:55,1
2568.0,400.8,952.0,-1900.4,5162.6,-874.2,2025-01-29 11:59:55,1
252.0,-99.20000000000005,220.0,-1405.4,6621.6,-1011.2,2025-01-29 11:59:55,1
-2532.0,-183.20000000000005,-248.0,-944.4,6478.6,-828.2,2025-01-29 11:59:55,1
-4572.0,60.79999999999996,-360.0,-622.4,4271.6,89.80000000000001,2025-01-29 11:59:55,1
-4688.0,280.79999999999995,-528.0,-497.4,72.6,1442.8,2025-01-29 11:59:55,1
-3072.0,640.8,-548.0,-475.4,-3325.4,2125.8,2025-01-29 11:59:55,1
-756.0,652.8,-172.0,-551.4,-4730.4,2349.8,2025-01-29 11:59:55,1
2220.0,-171.20000000000005,892.0,-526.4,-4481.4,2244.8,2025-01-29 11:59:55,1
3312.0,-603.2,1752.0,-69.4,-2588.4,2073.8,2025-01-29 11:59:55,1
3480.0,-615.2,2308.0,542.6,67.6,1893.8,2025-01-29 11:59:55,1
2908.0,-375.2000000000001,2208.0,1038.6,1805.6,1688.8,2025-01-29 11:59:55,1
1816.0,376.8,1996.0,1410.6,2693.6,1722.8,2025-01-29 11:59:55,1
364.0,1184.8,1572.0,1587.6,3051.6,2040.8,2025-01-29 11:59:55,1
-100.0,1888.8,1012.0,1660.6,2707.6,2149.8,2025-01-29 11:59:55,1
-84.0,2504.8,1180.0,1635.6,1557.6,1347.8,2025-01-29 11:59:56,1
4.0,2100.8,1012.0,1585.6,239.6,306.8,2025-01-29 11:59:56,1
-416.0,1488.8,1196.0,1529.6,-570.4,-117.2,2025-01-29 11:59:56,1
264.0,1060.8,1520.0,1555.6,-867.4,-266.2,2025-01-29 11:59:56,1
756.0,1036.8,1292.0,1342.6,-738.4,-591.2,2025-01-29 11:59:56,1
808.0,952.8,1892.0,1009.6,60.6,-907.2,2025-01-29 11:59:56,1
552.0,600.8,2276.0,807.6,663.6,-1050.2,2025-01-29 11:59:56,1
80.0,196.79999999999995,2684.0,1097.6,842.6,-1237.2,2025-01-29 11:59:56,1
-936.0,208.79999999999995,2392.0,1406.6,828.6,-1270.2,2025-01-29 11:59:56,1
-1700.0,528.8,2028.0,1458.6,520.6,-1003.2,2025-01-29 11:59:56,1
-2256.0,980.8,1576.0,1506.6,-725.4,-360.2,2025-01-29 11:59:56,1
-2372.0,880.8,1692.0,1797.6,-1574.4,463.8,2025-01-29 11:59:56,1
-1468.0,-247.20000000000005,2224.0,1880.6,-1335.4,972.8,2025-01-29 11:59:56,1
-1248.0,-1003.2,3148.0,2176.6,-849.4,1103.8,2025-01-29 11:59:56,1
-1444.0,-571.2,3432.0,2704.6,-220.4,1138.8,2025-01-29 11:59:56,1
-2008.0,176.79999999999995,2448.0,3139.6,560.6,1515.8,2025-01-29 11:59:56,1
-2856.0,344.79999999999995,1044.0,3378.6,1275.6,2371.8,2025-01-29 11:59:56,1
-2828.0,-287.20000000000005,-140.0,3260.6,1932.6,2868.8,2025-01-29 11:59:56,1
-3156.0,-191.20000000000005,-948.0,3191.6,2324.6,2760.8,2025-01-29 11:59:56,1
-3940.0,552.8,-1928.0,3342.6,2441.6,2669.8,2025-01-29 11:59:56,1
-4800.0,2148.8,-4920.0,3034.6,2121.6,3027.8,2025-01-29 11:59:56,1
-3676.0,3756.8,-5960.0,1837.6,349.6,3073.8,2025-01-29 11:59:56,1
-272.0,4236.8,-5484.0,780.6,-4362.4,1592.8,2025-01-29 11:59:56,1
2160.0,2788.8,-2548.0,521.6,-8785.4,-1364.2,2025-01-29 11:59:56,1
3888.0,608.8,-1488.0,521.6,-8695.4,-2975.2,2025-01-29 11:59:56,1
5444.0,-1847.2,904.0,1307.6,-7218.4,-3344.2,2025-01-29 11:59:56,1
5740.0,-3567.2,2012.0,2071.6,-4722.4,-2873.2,2025-01-29 11:59:56,1
4936.0,-3999.2,1180.0,2139.6,-753.4,-1783.2,2025-01-29 11:59:56,1
3392.0,-2575.2,256.0,1568.6,5053.6,-334.2,2025-01-29 11:59:56,1
2400.0,-1327.2,-220.0,1154.6,8256.6,-510.2,2025-01-29 11:59:56,1
-64.0,-679.2,164.0,822.6,9464.6,-1556.2,2025-01-29 11:59:56,1
-2744.0,-371.2000000000001,80.0,1017.6,7728.6,-2395.2,2025-01-29 11:59:56,1
-3968.0,-559.2,-732.0,1020.6,3117.6,-2571.2,2025-01-29 11:59:56,1
-3240.0,-911.2,-2084.0,649.6,-2768.4,-2425.2,2025-01-29 11:59:56,1
-1424.0,-1067.2,-1136.0,452.6,-5546.4,-2141.2,2025-01-29 11:59:56,1
648.0,-975.2,-664.0,180.6,-5048.4,-2074.2,2025-01-29 11:59:56,1
2392.0,-611.2,-520.0,-193.4,-3525.4,-2147.2,2025-01-29 11:59:56,1
3316.0,-527.2,-180.0,-736.4,-1286.4,-2463.2,2025-01-29 11:59:56,1
3224.0,-819.2,804.0,-1352.4,1419.6,-2787.2,2025-01-29 11:59:56,1
2212.0,-1783.2,1708.0,-1407.4,3362.6,-3266.2,2025-01-29 11:59:56,1
756.0,-2679.2,2068.0,-1178.4,3849.6,-3829.2,2025-01-29 11:59:56,1
-484.0,-3103.2,2028.0,-881.4,3505.6,-4019.2,2025-01-29 11:59:56,1
-1668.0,-3287.2,2084.0,-489.4,2536.6,-3592.2,2025-01-29 11:59:56,1
-2048.0,-3395.2,1984.0,-193.4,1229.6,-2803.2,2025-01-29 11:59:56,1
-1076.0,-2987.2,1348.0,31.599999999999994,-201.4,-1785.2,2025-01-29 11:59:56,1
8.0,-1983.2,1040.0,-190.4,-597.4,-1254.2,2025-01-29 11:59:56,1
660.0,-1415.2,1028.0,-567.4,-466.4,-1048.2,2025-01-29 11:59:56,1
1296.0,-1111.2,772.0,-977.4,326.6,-898.2,2025-01-29 11:59:56,1
1180.0,-923.2,1020.0,-1294.4,1451.6,-885.2,2025-01-29 11:59:56,1
816.0,-1239.2,1240.0,-1637.4,2176.6,-753.2,2025-01-29 11:59:56,1
140.0,-1547.2,1620.0,-1880.4,2706.6,-776.2,2025-01-29 11:59:56,1
-452.0,-1891.2,2224.0,-1888.4,2718.6,-848.2,2025-01-29 11:59:56,1
-1056.0,-2111.2,2024.0,-1835.4,2038.6,-744.2,2025-01-29 11:59:56,1
-1108.0,-2611.2,2032.0,-1716.4,1083.6,-415.2,2025-01-29 11:59:56,1
-1168.0,-2507.2,2284.0,-1788.4,222.6,-208.2,2025-01-29 11:59:56,1
-956.0,-2439.2,2644.0,-1782.4,-432.4,40.80000000000001,2025-01-29 11:59:56,1
-400.0,-2651.2,2792.0,-1828.4,-483.4,229.8,2025-01-29 11:59:56,1
16.0,-2287.2,2804.0,-1857.4,-73.4,370.8,2025-01-29 11:59:56,1
632.0,-2343.2,2304.0,-2053.4,559.6,394.8,2025-01-29 11:59:56,1
1212.0,-2279.2,2260.0,-2228.4,833.6,226.8,2025-01-29 11:59:56,1
1236.0,-2063.2,2876.0,-2298.4,1389.6,-69.19999999999999,2025-01-29 11:59:56,1
740.0,-1455.2,2628.0,-2206.4,2360.6,-389.2,2025-01-29 11:59:57,1
364.0,-715.2,1608.0,-2886.4,2644.6,-695.2,2025-01-29 11:59:57,1
-40.0,320.79999999999995,2148.0,-3519.4,883.6,-865.2,2025-01-29 11:59:57,1
388.0,592.8,1860.0,-3225.4,-1815.4,-701.2,2025-01-29 11:59:57,1
2868.0,1888.8,-548.0,-3943.4,-3150.4,-507.2,2025-01-29 11:59:57,1
5460.0,2524.8,-248.0,-4216.4,-1801.4,-1215.2,2025-01-29 11:59:57,1
8528.0,892.8,-6608.0,-4871.4,-416.4,-1694.2,2025-01-29 11:59:57,1
10788.0,-795.2,-10684.0,-4808.4,1260.6,-2513.2,2025-01-29 11:59:57,1
10468.0,-3343.2,-8952.0,-2805.4,7920.6,-4224.2,2025-01-29 11:59:57,1
7492.0,-2335.2,-3956.0,-1680.4,12682.6,-4926.2,2025-01-29 11:59:57,1
5820.0,-359.20000000000005,-4592.0,-3565.4,11669.6,-3585.2,2025-01-29 11:59:57,1
6200.0,2340.8,-4240.0,-5354.4,6718.6,-2539.2,2025-01-29 11:59:57,1
3872.0,3512.8,-2584.0,-6123.4,2585.6,-2929.2,2025-01-29 11:59:57,1
1424.0,3556.8,52.0,-6673.4,-2915.4,-3054.2,2025-01-29 11:59:57,1
328.0,1312.8,-136.0,-7701.4,-6163.4,-480.2,2025-01-29 11:59:57,1
-656.0,-3023.2,-116.0,-5444.4,-3246.4,-784.2,2025-01-29 11:59:57,1
-2328.0,-6351.2,1416.0,-173.4,1116.6,-4635.2,2025-01-29 11:59:57,1
-4428.0,-10531.2,-1796.0,4457.6,314.6,-7641.2,2025-01-29 11:59:57,1
-4148.0,-10523.2,-5004.0,3925.6,-3626.4,-6164.2,2025-01-29 11:59:57,1
-2248.0,-7375.2,-5184.0,3147.6,-5597.4,-3422.2,2025-01-29 11:59:57,1
216.0,-4007.2,-6596.0,1613.6,-2555.4,-2301.2,2025-01-29 11:59:57,1
972.0,-51.200000000000045,-6100.0,-1950.4,1724.6,-4563.2,2025-01-29 11:59:57,1
-3620.0,1348.8,-6016.0,-4252.4,1101.6,-6576.2,2025-01-29 11:59:57,1
-8288.0,-215.20000000000005,-3724.0,-6019.4,-1495.4,-4714.2,2025-01-29 11:59:57,1
-5384.0,-2843.2,-2048.0,-5913.4,-1467.4,-3122.2,2025-01-29 11:59:57,1
-4388.0,-5747.2,-2332.0,-5548.4,933.6,-3537.2,2025-01-29 11:59:57,1
-6796.0,-6791.2,-2060.0,-5222.4,4099.6,-4049.2,2025-01-29 11:59:57,1
-10324.0,-6983.2,-296.0,-3908.4,4373.6,-3114.2,2025-01-29 11:59:57,1
-9220.0,-6127.2,-620.0,-2559.4,1151.6,-511.2,2025-01-29 11:59:57,1
-6520.0,-4655.2,-428.0,-1453.4,-807.4,1152.8,2025-01-29 11:59:57,1
-4468.0,-3883.2,140.0,-396.4,-894.4,2681.8,2025-01-29 11:59:57,1
-2328.0,-3199.2,132.0,377.6,151.6,3624.8,2025-01-29 11:59:57,1
304.0,-2499.2,-1584.0,781.6,1366.6,3707.8,2025-01-29 11:59:57,1
1960.0,-1683.2,-3500.0,691.6,2080.6,2993.8,2025-01-29 11:59:57,1
1112.0,-1595.2,-4052.0,383.6,3138.6,2253.8,2025-01-29 11:59:57,1
-532.0,-2495.2,-4484.0,142.6,3800.6,2250.8,2025-01-29 11:59:57,1
-1784.0,-2983.2,-4824.0,-181.4,3228.6,3073.8,2025-01-29 11:59:57,1
-1412.0,-2715.2,-4448.0,-447.4,1253.6,4027.8,2025-01-29 11:59:57,1
-28.0,-1695.2,-3040.0,-402.4,-1472.4,4812.8,2025-01-29 11:59:57,1
2276.0,384.8,-2160.0,-305.4,-4561.4,5773.8,2025-01-29 11:59:57,1
3988.0,1268.8,-1880.0,-39.400000000000006,-5698.4,5934.8,2025-01-29 11:59:57,1
5472.0,1744.8,-1440.0,663.6,-5613.4,4684.8,2025-01-29 11:59:57,1
5656.0,1680.8,-2292.0,999.6,-4239.4,3170.8,2025-01-29 11:59:57,1
4140.0,1640.8,-3212.0,201.6,-1647.4,2533.8,2025-01-29 11:59:57,1
3344.0,1632.8,-3008.0,-512.4,352.6,2282.8,2025-01-29 11:59:57,1
1996.0,1608.8,-2232.0,-895.4,1734.6,2203.8,2025-01-29 11:59:57,1
528.0,1320.8,-1412.0,-1135.4,1931.6,2417.8,2025-01-29 11:59:57,1
-260.0,608.8,4.0,-1098.4,62.6,3237.8,2025-01-29 11:59:57,1
424.0,296.79999999999995,-136.0,-598.4,-1995.4,3638.8,2025-01-29 11:59:57,1
1472.0,572.8,-332.0,-210.4,-3295.4,3855.8,2025-01-29 11:59:57,1
2728.0,1076.8,84.0,428.6,-3632.4,3578.8,2025-01-29 11:59:57,1
3236.0,1828.8,1264.0,1430.6,-2899.4,2991.8,2025-01-29 11:59:57,1
3012.0,2052.8,2544.0,2237.6,-1493.4,2054.8,2025-01-29 11:59:57,1
2920.0,1776.8,3164.0,2608.6,-455.4,962.8,2025-01-29 11:59:57,1
1928.0,1444.8,4000.0,3091.6,27.599999999999994,-129.2,2025-01-29 11:59:57,1
848.0,864.8,3356.0,3961.6,554.6,-570.2,2025-01-29 11:59:57,1
388.0,548.8,2540.0,4901.6,998.6,-474.2,2025-01-29 11:59:57,1
44.0,-111.20000000000005,2364.0,5918.6,1391.6,-379.2,2025-01-29 11:59:57,1
396.0,-835.2,2204.0,7032.6,1236.6,-753.2,2025-01-29 11:59:57,1
520.0,-343.20000000000005,1336.0,8168.6,-333.4,-1393.2,2025-01-29 11:59:57,1
416.0,-139.20000000000005,-588.0,8910.6,-2606.4,-1586.2,2025-01-29 11:59:57,1
-500.0,-599.2,-1176.0,9689.6,-3968.4,-1135.2,2025-01-29 11:59:58,1
-132.0,-2131.2,-3988.0,9994.6,-4705.4,117.8,2025-01-29 11:59:58,1
484.0,-3899.2,-5168.0,9965.6,-4368.4,1717.8,2025-01-29 11:59:58,1
1364.0,-2931.2,-5176.0,8855.6,-3091.4,3658.8,2025-01-29 11:59:58,1
2540.0,32.799999999999955,-2672.0,6952.6,-1426.4,4969.8,2025-01-29 11:59:58,1
4048.0,1688.8,-2424.0,4787.6,623.6,4494.8,2025-01-29 11:59:58,1
3832.0,2608.8,-2768.0,2690.6,3371.6,2891.8,2025-01-29 11:59:58,1
2416.0,2040.8,-2436.0,1454.6,5655.6,1482.8,2025-01-29 11:59:58,1
932.0,716.8,-1312.0,1671.6,5677.6,518.8,2025-01-29 11:59:58,1
-108.0,-1123.2,-1156.0,2071.6,4226.6,101.8,2025-01-29 11:59:58,1
-276.0,-2163.2,-1820.0,1581.6,1575.6,-345.2,2025-01-29 11:59:58,1
-1228.0,-2283.2,-896.0,818.6,-987.4,-549.2,2025-01-29 11:59:58,1
-684.0,-2495.2,-84.0,373.6,-3281.4,-370.2,2025-01-29 11:59:58,1
752.0,-2739.2,384.0,733.6,-5187.4,-170.2,2025-01-29 11:59:58,1
2136.0,-3127.2,224.0,1301.6,-6008.4,-97.2,2025-01-29 11:59:58,1
2900.0,-2803.2,-116.0,1693.6,-4949.4,52.80000000000001,2025-01-29 11:59:58,1
3276.0,-1703.2,-512.0,1478.6,-2218.4,423.8,2025-01-29 11:59:58,1
3192.0,-1367.2,-776.0,664.6,332.6,350.8,2025-01-29 11:59:58,1
2692.0,-1367.2,-116.0,156.6,2386.6,-22.19999999999999,2025-01-29 11:59:58,1
1352.0,-807.2,-1012.0,159.6,3315.6,-32.19999999999999,2025-01-29 11:59:58,1
144.0,-479.2000000000001,-1224.0,-85.4,3319.6,248.8,2025-01-29 11:59:58,1
-404.0,-775.2,-1184.0,-440.4,2322.6,353.8,2025-01-29 11:59:58,1
-612.0,-1999.2,-108.0,-424.4,886.6,-61.19999999999999,2025-01-29 11:59:58,1
-636.0,-2827.2,420.0,-142.4,-279.4,-432.2,2025-01-29 11:59:58,1
-520.0,-2875.2,-88.0,-121.4,-1578.4,-264.2,2025-01-29 11:59:58,1
-36.0,-2423.2,-592.0,-76.4,-2194.4,536.8,2025-01-29 11:59:58,1
1180.0,-1595.2,-1088.0,18.599999999999994,-1691.4,1119.8,2025-01-29 11:59:58,1
1792.0,-1007.2,-1536.0,-273.4,-237.4,1124.8,2025-01-29 11:59:58,1
2124.0,-595.2,-2208.0,-613.4,1050.6,935.8,2025-01-29 11:59:58,1
1992.0,-1051.2,-2004.0,-788.4,1823.6,714.8,2025-01-29 11:59:58,1
1364.0,-1663.2,-1280.0,-615.4,2281.6,498.8,2025-01-29 11:59:58,1
648.0,-1751.2,-1148.0,-293.4,2298.6,368.8,2025-01-29 11:59:58,1
-200.0,-1819.2,-376.0,167.6,1986.6,203.8,2025-01-29 11:59:58,1
-272.0,-1991.2,-1484.0,490.6,1326.6,-31.19999999999999,2025-01-29 11:59:58,1
-152.0,-2031.2,-1868.0,506.6,633.6,-298.2,2025-01-29 11:59:58,1
-108.0,-2227.2,-1812.0,608.6,-60.400000000000006,-408.2,2025-01-29 11:59:58,1
248.0,-1635.2,-1336.0,820.6,-381.4,-346.2,2025-01-29 11:59:58,1
544.0,-1067.2,-984.0,980.6,-435.4,-472.2,2025-01-29 11:59:58,1
640.0,-735.2,-1168.0,922.6,-429.4,-550.2,2025-01-29 11:59:58,1
956.0,-615.2,-1192.0,640.6,-445.4,-548.2,2025-01-29 11:59:58,1
1104.0,-1183.2,-1312.0,482.6,-162.4,-621.2,2025-01-29 11:59:58,1
1268.0,-1667.2,-1540.0,352.6,307.6,-746.2,2025-01-29 11:59:58,1
364.0,-1819.2,-756.0,255.6,386.6,-785.2,2025-01-29 11:59:58,1
152.0,-1631.2,-420.0,164.6,-6.400000000000006,-545.2,2025-01-29 11:59:58,1
104.0,-1475.2,-40.0,-12.400000000000006,-438.4,-379.2,2025-01-29 11:59:58,1
404.0,-1571.2,-288.0,-155.4,-577.4,-570.2,2025-01-29 11:59:58,1
944.0,-1675.2,-624.0,-111.4,-813.4,-695.2,2025-01-29 11:59:58,1
1152.0,-2191.2,-1064.0,-3.4000000000000057,-562.4,-881.2,2025-01-29 11:59:58,1
916.0,-2323.2,-928.0,165.6,-524.4,-1023.2,2025-01-29 11:59:58,1
872.0,-2539.2,-800.0,97.6,-110.4,-1022.2,2025-01-29 11:59:58,1
720.0,-2479.2,-300.0,188.6,683.6,-1158.2,2025-01-29 11:59:58,1
264.0,-2267.2,-156.0,390.6,1043.6,-1417.2,2025-01-29 11:59:58,1
-196.0,-1951.2,-140.0,477.6,755.6,-1575.2,2025-01-29 11:59:58,1
-648.0,-1639.2,12.0,462.6,98.6,-1517.2,2025-01-29 11:59:58,1
-424.0,-1443.2,-104.0,293.6,-521.4,-1456.2,2025-01-29 11:59:58,1
-192.0,-1555.2,-296.0,24.599999999999994,-1057.4,-1632.2,2025-01-29 11:59:58,1
108.0,-1719.2,84.0,-57.400000000000006,-1752.4,-1936.2,2025-01-29 11:59:58,1
72.0,-2235.2,688.0,-101.4,-2038.4,-2260.2,2025-01-29 11:59:58,1
120.0,-2271.2,852.0,-184.4,-1902.4,-2120.2,2025-01-29 11:59:58,1
208.0,-2319.2,1260.0,-271.4,-1613.4,-1565.2,2025-01-29 11:59:58,1
664.0,-1999.2,904.0,-402.4,-1074.4,-1361.2,2025-01-29 11:59:58,1
932.0,-2003.2,596.0,-533.4,-339.4,-1450.2,2025-01-29 11:59:58,1
1000.0,-1967.2,572.0,-688.4,293.6,-1667.2,2025-01-29 11:59:58,1
536.0,-2251.2,872.0,-833.4,704.6,-1963.2,2025-01-29 11:59:58,1
-20.0,-2543.2,1092.0,-897.4,561.6,-1949.2,2025-01-29 11:59:59,1
-316.0,-2455.2,1084.0,-1017.4,135.6,-1436.2,2025-01-29 11:59:59,1
-556.0,-2203.2,1312.0,-1217.4,11.599999999999994,-687.2,2025-01-29 11:59:59,1
-200.0,-1971.2,1540.0,-1389.4,-134.4,-434.2,2025-01-29 11:59:59,1
-124.0,-2047.2,1688.0,-1521.4,-428.4,-275.2,2025-01-29 11:59:59,1
4.0,-2091.2,2000.0,-1689.4,-701.4,-33.19999999999999,2025-01-29 11:59:59,1
220.0,-2027.2,1712.0,-1794.4,-760.4,196.8,2025-01-29 11:59:59,1
244.0,-2095.2,1724.0,-1958.4,-470.4,350.8,2025-01-29 11:59:59,1
312.0,-2387.2,1416.0,-2096.4,-73.4,413.8,2025-01-29 11:59:59,1
-352.0,-1871.2,1272.0,-2335.4,233.6,561.8,2025-01-29 11:59:59,1
-860.0,-1835.2,952.0,-2634.4,-39.400000000000006,704.8,2025-01-29 11:59:59,1
-1020.0,-1719.2,716.0,-2902.4,-386.4,709.8,2025-01-29 11:59:59,1
-1044.0,-1775.2,452.0,-3043.4,-1035.4,512.8,2025-01-29 11:59:59,1
-1232.0,-1907.2,1068.0,-3019.4,-1905.4,224.8,2025-01-29 11:59:59,1
-984.0,-1751.2,1556.0,-3184.4,-2463.4,-253.2,2025-01-29 11:59:59,1
-1144.0,-1531.2,1604.0,-3473.4,-2565.4,-725.2,2025-01-29 11:59:59,1
-1096.0,-1607.2,1564.0,-3816.4,-2238.4,-878.2,2025-01-29 11:59:59,1
-672.0,-2115.2,1716.0,-4089.4,-1997.4,-1043.2,2025-01-29 11:59:59,1
-516.0,-2367.2,240.0,-3784.4,-1048.4,-1642.2,2025-01-29 11:59:59,1
-584.0,-2831.2,-1652.0,-3626.4,105.6,-2582.2,2025-01-29 11:59:59,1
344.0,-4847.2,-452.0,-2811.4,1210.6,-3637.2,2025-01-29 11:59:59,1
-2788.0,-6051.2,1880.0,-1335.4,1186.6,-3451.2,2025-01-29 11:59:59,1
-3180.0,-6175.2,348.0,-197.4,-68.4,-1851.2,2025-01-29 11:59:59,1
-2612.0,-5503.2,-684.0,619.6,-1237.4,232.8,2025-01-29 11:59:59,1
-1040.0,-3683.2,-628.0,1150.6,-1390.4,556.8,2025-01-29 11:59:59,1
-756.0,-1883.2,816.0,922.6,-2292.4,143.8,2025-01-29 11:59:59,1
-1944.0,-747.2,1984.0,554.6,-3545.4,852.8,2025-01-29 11:59:59,1
-328.0,-751.2,440.0,-2.4000000000000057,-4294.4,2041.8,2025-01-29 11:59:59,1
2272.0,-1239.2,-804.0,-431.4,-2786.4,2503.8,2025-01-29 11:59:59,1
2252.0,-1771.2,-1036.0,-472.4,-633.4,1880.8,2025-01-29 11:59:59,1
1200.0,-2383.2,-540.0,-276.4,950.6,1547.8,2025-01-29 11:59:59,1
400.0,-2259.2,-368.0,400.6,1335.6,1516.8,2025-01-29 11:59:59,1
204.0,-1559.2,-1524.0,502.6,543.6,1426.8,2025-01-29 11:59:59,1
572.0,-903.2,-2324.0,-111.4,-582.4,1375.8,2025-01-29 11:59:59,1
1912.0,-199.20000000000005,-4292.0,-848.4,-1383.4,1327.8,2025-01-29 11:59:59,1
596.0,988.8,-2604.0,-1502.4,-1419.4,1160.8,2025-01-29 11:59:59,1
1472.0,1472.8,-3040.0,-2111.4,-1068.4,1209.8,2025-01-29 11:59:59,1
2164.0,1280.8,-2376.0,-2531.4,-635.4,891.8,2025-01-29 11:59:59,1
2064.0,152.79999999999995,-1376.0,-2533.4,-395.4,333.8,2025-01-29 11:59:59,1
1704.0,-1283.2,-640.0,-2322.4,155.6,242.8,2025-01-29 11:59:59,1
1272.0,-2083.2,-72.0,-1808.4,1020.6,408.8,2025-01-29 11:59:59,1
888.0,-2235.2,248.0,-1235.4,1609.6,691.8,2025-01-29 11:59:59,1
92.0,-1819.2,-68.0,-711.4,1821.6,1043.8,2025-01-29 11:59:59,1
-600.0,-1247.2,452.0,-122.4,1567.6,1463.8,2025-01-29 11:59:59,1
-1144.0,-287.20000000000005,-68.0,376.6,817.6,2109.8,2025-01-29 11:59:59,1
-696.0,436.8,-1104.0,416.6,0.5999999999999943,2767.8,2025-01-29 11:59:59,1
-296.0,1004.8,-1292.0,228.6,-787.4,3031.8,2025-01-29 11:59:59,1
-24.0,1308.8,-704.0,50.6,-1160.4,3052.8,2025-01-29 11:59:59,1
492.0,1148.8,-472.0,-196.4,-1346.4,3028.8,2025-01-29 11:59:59,1
1084.0,1156.8,172.0,-252.4,-1304.4,2748.8,2025-01-29 11:59:59,1
1432.0,808.8,448.0,-125.4,-1028.4,2159.8,2025-01-29 11:59:59,1
1276.0,528.8,520.0,19.599999999999994,-530.4,1874.8,2025-01-29 11:59:59,1
1084.0,500.8,592.0,213.6,-85.4,1785.8,2025-01-29 11:59:59,1
852.0,496.8,688.0,240.6,34.599999999999994,1501.8,2025-01-29 11:59:59,1
780.0,672.8,768.0,434.6,-94.4,1155.8,2025-01-29 11:59:59,1
656.0,744.8,492.0,679.6,-323.4,832.8,2025-01-29 11:59:59,1
696.0,848.8,572.0,801.6,-525.4,485.8,2025-01-29 11:59:59,1
772.0,828.8,492.0,683.6,-414.4,182.8,2025-01-29 11:59:59,1
356.0,576.8,924.0,717.6,-186.4,-6.199999999999989,2025-01-29 11:59:59,1
152.0,208.79999999999995,568.0,749.6,-105.4,31.80000000000001,2025-01-29 12:00:00,1
-84.0,152.79999999999995,704.0,786.6,-33.400000000000006,-91.2,2025-01-29 12:00:00,1
-576.0,-143.20000000000005,568.0,1019.6,-173.4,-136.2,2025-01-29 12:00:00,1
-924.0,20.799999999999955,484.0,1230.6,-839.4,-130.2,2025-01-29 12:00:00,1
-952.0,88.79999999999995,764.0,1503.6,-1381.4,210.8,2025-01-29 12:00:00,1
-228.0,352.79999999999995,1404.0,1699.6,-1669.4,478.8,2025-01-29 12:00:00,1
196.0,868.8,1420.0,1756.6,-1405.4,512.8,2025-01-29 12:00:00,1
396.0,576.8,1196.0,1746.6,-842.4,444.8,2025-01-29 12:00:00,1
256.0,408.8,1756.0,1956.6,-172.4,401.8,2025-01-29 12:00:00,1
108.0,504.8,2256.0,2191.6,158.6,389.8,2025-01-29 12:00:00,1
-256.0,544.8,2056.0,2336.6,331.6,328.8,2025-01-29 12:00:00,1
-592.0,772.8,1976.0,2346.6,101.6,186.8,2025-01-29 12:00:00,1
-960.0,664.8,1636.0,2323.6,-258.4,80.80000000000001,2025-01-29 12:00:00,1
-780.0,548.8,1460.0,2333.6,-539.4,68.80000000000001,2025-01-29 12:00:00,1
-716.0,448.8,1692.0,2445.6,-690.4,48.80000000000001,2025-01-29 12:00:00,1
-560.0,356.79999999999995,1716.0,2582.6,-604.4,165.8,2025-01-29 12:00:00,1
-876.0,212.79999999999995,1696.0,2742.6,-76.4,348.8,2025-01-29 12:00:00,1
-1456.0,172.79999999999995,1112.0,2993.6,480.6,760.8,2025-01-29 12:00:00,1
-1936.0,136.79999999999995,536.0,2994.6,890.6,1248.8,2025-01-29 12:00:00,1
-1912.0,164.79999999999995,8.0,2853.6,902.6,1540.8,2025-01-29 12:00:00,1
-1644.0,288.79999999999995,-592.0,2449.6,727.6,1832.8,2025-01-29 12:00:00,1
-1232.0,856.8,-184.0,2143.6,646.6,2312.8,2025-01-29 12:00:00,1
-620.0,1800.8,-948.0,1669.6,720.6,2785.8,2025-01-29 12:00:00,1
512.0,2452.8,-1116.0,689.6,1214.6,2729.8,2025-01-29 12:00:00,1
1000.0,2936.8,-924.0,396.6,1939.6,1770.8,2025-01-29 12:00:00,1
980.0,2860.8,-864.0,479.6,2648.6,302.8,2025-01-29 12:00:00,1
508.0,1684.8,-472.0,759.6,2892.6,-1674.2,2025-01-29 12:00:00,1
-632.0,172.79999999999995,-888.0,787.6,2098.6,-2793.2,2025-01-29 12:00:00,1
-748.0,-1055.2,-1320.0,923.6,980.6,-3609.2,2025-01-29 12:00:00,1
-316.0,-2163.2,-1500.0,1404.6,269.6,-4882.2,2025-01-29 12:00:00,1
-412.0,-2019.2,-1684.0,2355.6,-1271.4,-5478.2,2025-01-29 12:00:00,1
-84.0,-2379.2,-2064.0,2659.6,-2489.4,-4927.2,2025-01-29 12:00:00,1
728.0,-2751.2,-1780.0,2144.6,-3067.4,-3811.2,2025-01-29 12:00:00,1
1788.0,-2707.2,-528.0,1838.6,-3272.4,-2746.2,2025-01-29 12:00:00,1
2752.0,-2731.2,272.0,1222.6,-2389.4,-2359.2,2025-01-29 12:00:00,1
2600.0,-2415.2,776.0,407.6,-474.4,-2172.2,2025-01-29 12:00:00,1
1936.0,-2279.2,452.0,-483.4,1367.6,-2107.2,2025-01-29 12:00:00,1
964.0,-2699.2,432.0,-892.4,2523.6,-2281.2,2025-01-29 12:00:00,1
-456.0,-3391.2,1012.0,-546.4,3012.6,-2775.2,2025-01-29 12:00:00,1
-1900.0,-3831.2,1568.0,226.6,2246.6,-2655.2,2025-01-29 12:00:00,1
-1920.0,-4075.2,700.0,924.6,-143.4,-1854.2,2025-01-29 12:00:00,1
-908.0,-4123.2,256.0,1567.6,-2450.4,-911.2,2025-01-29 12:00:00,1
832.0,-3731.2,228.0,1944.6,-2859.4,-463.2,2025-01-29 12:00:00,1
2540.0,-3271.2,108.0,1665.6,-2296.4,-486.2,2025-01-29 12:00:00,1
3320.0,-2939.2,124.0,1293.6,-711.4,-592.2,2025-01-29 12:00:00,1
3436.0,-2815.2,-60.0,1000.6,1486.6,-620.2,2025-01-29 12:00:00,1
3188.0,-2447.2,-256.0,735.6,3295.6,-556.2,2025-01-29 12:00:00,1
2724.0,-2211.2,-616.0,390.6,4531.6,-577.2,2025-01-29 12:00:00,1
1676.0,-1867.2,-572.0,-31.40000000000001,5224.6,-473.2,2025-01-29 12:00:00,1
284.0,-1119.2,-624.0,-852.4,5463.6,87.80000000000001,2025-01-29 12:00:00,1
-744.0,-771.2,-732.0,-1746.4,5409.6,720.8,2025-01-29 12:00:00,1
-1360.0,-1059.2,-1104.0,-2261.4,4898.6,1086.8,2025-01-29 12:00:00,1
-1748.0,-1639.2,-1040.0,-2633.4,3409.6,955.8,2025-01-29 12:00:00,1
