acceleration_x,acceleration_y,acceleration_z,gyroscope_x,gyroscope_y,gyroscope_z,timestamp,label
-12312,0,7752,153,1150,1023,2025-02-17 11:39:04,0.0
-11552,288,8104,-370,-63,491,2025-02-17 11:39:04,0.0
-11652,76,9292,-460,-414,92,2025-02-17 11:39:04,0.0
-11776,0,9696,-343,-329,-382,2025-02-17 11:39:04,0.0
-11668,-104,9608,-208,-190,-615,2025-02-17 11:39:04,0.0
-11704,-292,9312,-203,-69,-763,2025-02-17 11:39:04,0.0
-11852,-128,9296,-343,49,-773,2025-02-17 11:39:04,0.0
-11868,-256,9752,-337,108,-788,2025-02-17 11:39:04,0.0
-12216,-188,9868,-255,90,-661,2025-02-17 11:39:04,0.0
-12212,-208,9712,-197,79,-498,2025-02-17 11:39:04,0.0
-11972,-244,9608,-200,-29,-427,2025-02-17 11:39:04,0.0
-11824,-236,9620,-263,5,-450,2025-02-17 11:39:04,0.0
-11820,-384,9568,-330,52,-411,2025-02-17 11:39:04,0.0
-11848,-376,9684,-335,196,-380,2025-02-17 11:39:04,0.0
-11876,-368,9728,-307,414,-316,2025-02-17 11:39:04,0.0
-11776,-416,9648,-338,593,-378,2025-02-17 11:39:04,0.0
-11936,-500,9424,-334,636,-429,2025-02-17 11:39:04,0.0
-12104,-448,9392,-339,444,-469,2025-02-17 11:39:04,0.0
-12232,-528,9376,-258,274,-420,2025-02-17 11:39:04,0.0
-12184,-624,9440,-391,269,-343,2025-02-17 11:39:04,0.0
-12116,-688,9648,-298,291,-203,2025-02-17 11:39:04,0.0
-12160,-588,9172,-248,318,-145,2025-02-17 11:39:04,0.0
-12032,-472,9016,-297,285,-114,2025-02-17 11:39:04,0.0
-11840,-328,9244,-242,294,-214,2025-02-17 11:39:04,0.0
-12000,-292,9284,-198,159,-307,2025-02-17 11:39:04,0.0
-11908,-508,9564,-158,-103,-402,2025-02-17 11:39:04,0.0
-12068,-376,9348,-403,-123,-451,2025-02-17 11:39:04,0.0
-12368,-628,9584,-339,18,-238,2025-02-17 11:39:04,0.0
-11976,-532,9536,-266,40,-116,2025-02-17 11:39:04,0.0
-11988,-504,9536,-213,40,-161,2025-02-17 11:39:04,0.0
-11896,-452,9488,-202,18,-201,2025-02-17 11:39:04,0.0
-11964,-436,9452,-127,133,-244,2025-02-17 11:39:04,0.0
-12028,-584,9472,-128,136,-258,2025-02-17 11:39:04,0.0
-12064,-440,9168,-135,30,-276,2025-02-17 11:39:04,0.0
-12096,-612,9428,-191,18,-308,2025-02-17 11:39:04,0.0
-12240,-548,9640,-196,163,-207,2025-02-17 11:39:04,0.0
-12020,-476,9648,-117,97,-146,2025-02-17 11:39:04,0.0
-11868,-424,9800,-129,68,-133,2025-02-17 11:39:04,0.0
-11696,-444,9420,-72,126,-163,2025-02-17 11:39:04,0.0
-11728,-392,9304,-264,160,-303,2025-02-17 11:39:04,0.0
-11944,-404,9916,-175,182,-357,2025-02-17 11:39:04,0.0
-12024,-456,9612,32,231,-419,2025-02-17 11:39:04,0.0
-12496,-584,9424,18,379,-301,2025-02-17 11:39:04,0.0
-12416,-624,9508,-19,239,-88,2025-02-17 11:39:04,0.0
-11980,-376,9600,54,117,-34,2025-02-17 11:39:04,0.0
-11948,-504,9132,-56,305,-65,2025-02-17 11:39:04,0.0
-12012,-364,9528,-82,233,-57,2025-02-17 11:39:04,0.0
-11876,-424,9600,-94,147,-77,2025-02-17 11:39:04,0.0
-11924,-444,9736,-37,138,-218,2025-02-17 11:39:04,0.0
-12032,-472,9712,76,221,-244,2025-02-17 11:39:04,0.0
-11840,-284,9732,271,444,-305,2025-02-17 11:39:04,0.0
-11952,-292,9560,480,667,-365,2025-02-17 11:39:04,0.0
-12396,-516,9120,448,845,-255,2025-02-17 11:39:04,0.0
-12916,-540,9792,1188,1041,367,2025-02-17 11:39:04,0.0
-12028,-304,8000,86,1000,688,2025-02-17 11:39:04,0.0
-11772,204,8332,-296,-103,414,2025-02-17 11:39:04,0.0
-11776,32,9164,-184,-372,261,2025-02-17 11:39:04,0.0
-11744,188,9384,108,-210,-65,2025-02-17 11:39:04,0.0
-11828,72,9252,255,123,-492,2025-02-17 11:39:04,0.0
-11780,-476,9208,161,-156,-963,2025-02-17 11:39:05,0.0
-12096,-860,9428,11,-302,-980,2025-02-17 11:39:05,0.0
-11816,-1324,9060,-226,88,-808,2025-02-17 11:39:05,0.0
-12148,-952,9244,-172,387,-448,2025-02-17 11:39:05,0.0
-12560,-388,9704,-122,918,-143,2025-02-17 11:39:05,0.0
-12104,-200,9636,22,1286,-55,2025-02-17 11:39:05,0.0
-12000,16,9784,261,1483,-211,2025-02-17 11:39:05,0.0
-11784,-168,9080,549,1634,-438,2025-02-17 11:39:05,0.0
-11124,-340,9332,700,1552,-733,2025-02-17 11:39:05,0.0
-11564,-792,8972,757,1615,-973,2025-02-17 11:39:05,0.0
-12240,-892,10168,1503,1225,-1101,2025-02-17 11:39:05,0.0
-12956,-668,8288,1704,955,-800,2025-02-17 11:39:05,0.0
-13296,-96,8332,1348,162,-462,2025-02-17 11:39:05,0.0
-11824,292,9068,1476,173,-155,2025-02-17 11:39:05,0.0
-11720,-120,8408,711,997,-28,2025-02-17 11:39:05,0.0
-11608,-832,9256,203,1285,-94,2025-02-17 11:39:05,0.0
-11768,-1328,9328,100,2036,142,2025-02-17 11:39:05,0.0
-10640,-1660,8348,-52,2336,520,2025-02-17 11:39:05,0.0
-11332,-900,10424,-184,3611,878,2025-02-17 11:39:05,0.0
-4356,-2148,10268,208,8176,703,2025-02-17 11:39:05,0.0
-11468,-572,9152,135,5882,1457,2025-02-17 11:39:05,0.0
-11772,64,9608,119,5672,1413,2025-02-17 11:39:05,0.0
-11476,544,9700,284,5344,954,2025-02-17 11:39:05,0.0
-11364,504,8712,320,5517,503,2025-02-17 11:39:05,0.0
-11624,244,8632,75,6082,450,2025-02-17 11:39:05,0.0
-11992,24,8364,-5,6174,848,2025-02-17 11:39:05,0.0
-12128,424,7796,-397,6385,1265,2025-02-17 11:39:05,0.0
-12872,896,6712,-928,6292,1634,2025-02-17 11:39:05,0.0
-14796,720,8368,-1445,4993,2491,2025-02-17 11:39:05,0.0
-13436,396,8264,-1511,2170,3460,2025-02-17 11:39:05,0.0
-12420,100,9568,-1273,1694,4308,2025-02-17 11:39:05,0.0
-11036,-304,8852,-1222,5272,4003,2025-02-17 11:39:05,0.0
-9532,912,13644,-1059,10453,2604,2025-02-17 11:39:05,0.0
-15940,-372,11476,-1480,15324,2600,2025-02-17 11:39:05,0.0
-21216,-920,11976,-466,18985,2496,2025-02-17 11:39:05,0.0
-25624,880,13240,841,14746,776,2025-02-17 11:39:05,0.0
-24604,6872,8904,-406,14062,-284,2025-02-17 11:39:05,0.0
-22072,2372,4852,-2031,16508,-1526,2025-02-17 11:39:05,0.0
-20460,-228,6792,-2845,15037,-517,2025-02-17 11:39:05,0.0
-18996,-1344,8032,-465,11747,1382,2025-02-17 11:39:05,0.0
-17860,-1576,5172,956,9240,1681,2025-02-17 11:39:05,
-16952,-252,1884,1024,4108,180,2025-02-17 11:39:05,0.0
-16892,1240,-608,1186,-654,-2075,2025-02-17 11:39:05,0.0
-18920,1908,-1268,815,-4684,-2810,2025-02-17 11:39:05,0.0
-13632,3132,-3084,-547,-5827,-3538,2025-02-17 11:39:05,0.0
-15260,3152,-3088,-2675,-3772,-5170,2025-02-17 11:39:05,0.0
-15080,1680,1836,-3855,-1654,-6174,2025-02-17 11:39:05,0.0
-14264,300,4672,-3348,-1011,-6622,2025-02-17 11:39:05,0.0
-13368,-272,7056,-2202,-2264,-6873,2025-02-17 11:39:05,0.0
-13560,-256,5488,-220,1157,-7291,2025-02-17 11:39:05,0.0
-13788,-420,2772,1371,5361,-7010,2025-02-17 11:39:05,0.0
-15960,-900,888,2233,2798,-4855,2025-02-17 11:39:05,0.0
-18440,-2244,-3544,1647,-4898,-1599,2025-02-17 11:39:05,0.0
-17608,-1300,-1948,132,-945,-739,2025-02-17 11:39:05,0.0
-15412,-908,-1788,-1705,1617,-452,2025-02-17 11:39:05,0.0
-12596,-624,1184,-4355,784,-1122,2025-02-17 11:39:05,0.0
-12700,-904,980,-5147,-3960,-1031,2025-02-17 11:39:05,0.0
-11072,-400,-912,-6669,-5206,-1448,2025-02-17 11:39:05,0.0
-11156,-516,-468,-8285,-3977,-918,2025-02-17 11:39:05,0.0
-9252,476,2148,-9094,-3757,-3056,2025-02-17 11:39:05,0.0
-11328,-1200,1720,-8248,-4500,-4296,2025-02-17 11:39:05,0.0
-11276,-1920,1720,-7556,-5995,-4686,2025-02-17 11:39:05,0.0
-11596,-2904,3644,-6146,-6206,-4290,2025-02-17 11:39:06,0.0
-10144,-4220,4904,-3884,-7183,-4468,2025-02-17 11:39:06,0.0
-12048,-5616,7720,-993,-9101,-3186,2025-02-17 11:39:06,0.0
-12008,-7180,8844,2437,-9398,-794,2025-02-17 11:39:06,0.0
-11524,-8944,11884,5908,-9488,1369,2025-02-17 11:39:06,0.0
-8580,-9228,12368,10399,-10671,1797,2025-02-17 11:39:06,0.0
-9596,-6436,7580,15721,-8589,879,2025-02-17 11:39:06,0.0
-10340,-2352,-1104,16752,-4931,3006,2025-02-17 11:39:06,0.0
-7924,-3056,-4208,15705,-1096,3498,2025-02-17 11:39:06,0.0
-8952,-5888,-104,16418,-4306,3112,2025-02-17 11:39:06,0.0
-11392,-7564,1840,18477,-6166,4248,2025-02-17 11:39:06,0.0
-11040,-6184,-12,19407,-2434,3500,2025-02-17 11:39:06,0.0
-8420,-7588,1376,19494,2446,2219,2025-02-17 11:39:06,0.0
-6684,-10496,5196,19794,5582,350,2025-02-17 11:39:06,0.0
-12060,-11140,2944,20324,13272,-730,2025-02-17 11:39:06,0.0
-14212,-8528,140,18434,19107,1940,2025-02-17 11:39:06,0.0
-12544,-5420,-508,16686,13719,5373,2025-02-17 11:39:06,0.0
-12608,-3952,-2096,15259,5129,6202,2025-02-17 11:39:06,0.0
-15628,-2972,-1592,14712,-1076,7085,2025-02-17 11:39:06,0.0
-15920,-3036,-1724,14720,-3520,8253,2025-02-17 11:39:06,0.0
-14996,-2544,-1044,15345,-3810,9107,2025-02-17 11:39:06,0.0
-13644,-1948,-1192,16339,-1680,9042,2025-02-17 11:39:06,0.0
-12008,-732,-2144,17058,993,7740,2025-02-17 11:39:06,0.0
-12448,328,-3788,16309,2241,7671,2025-02-17 11:39:06,0.0
-13128,1908,-2616,15669,1773,8512,2025-02-17 11:39:06,0.0
-14368,3000,-356,16706,-743,10581,2025-02-17 11:39:06,5
-14396,2164,780,19702,-2696,14136,2025-02-17 11:39:06,5
-12688,1200,-1732,20982,-1301,16332,2025-02-17 11:39:06,5
-6408,380,-6472,19598,1478,14353,2025-02-17 11:39:06,5
-1440,184,-6684,16365,5958,9757,2025-02-17 11:39:06,5
-1608,-360,-3572,14648,10363,5508,2025-02-17 11:39:06,5
-1092,-1548,940,14765,14682,4131,2025-02-17 11:39:06,5
1656,-896,-24,15059,15134,4747,2025-02-17 11:39:06,5
2264,-680,3148,14818,14338,5430,2025-02-17 11:39:06,5
1824,-644,2192,15445,13884,6483,2025-02-17 11:39:06,5
1768,-872,1792,15636,13575,8517,2025-02-17 11:39:06,5
1768,-892,1308,15535,13689,10816,2025-02-17 11:39:06,5
2420,-548,460,14825,14113,12481,2025-02-17 11:39:06,5
2268,-548,1072,13902,14613,14346,2025-02-17 11:39:06,5
2888,-320,1256,12490,15168,15582,2025-02-17 11:39:06,5
2708,-148,1564,11557,16091,16511,2025-02-17 11:39:06,5
3536,-44,2036,10846,17294,17090,2025-02-17 11:39:06,5
4248,100,3116,11139,18696,16610,2025-02-17 11:39:06,5
3580,-216,3080,12073,20391,16258,2025-02-17 11:39:06,5
2724,-500,2844,12467,21429,16702,2025-02-17 11:39:06,5
2792,-388,3132,12919,22302,17715,2025-02-17 11:39:06,5
4600,-16,1708,16171,32767,21245,2025-02-17 11:39:06,5
6636,1056,400,15703,32767,18853,2025-02-17 11:39:06,5
5876,4904,-32768,12403,8394,18035,2025-02-17 11:39:06,5
32767,24728,-32768,32767,-32768,32767,2025-02-17 11:39:06,5
-32768,-32768,-32768,-11956,-32768,7958,2025-02-17 11:39:06,5
-20600,-22168,-32452,-32768,-6,17572,2025-02-17 11:39:06,5
2500,-4608,912,-32768,-2720,9764,2025-02-17 11:39:06,5
5640,328,8424,-32768,-4738,-4851,2025-02-17 11:39:07,5
2316,1564,8396,-32768,-6182,-8540,2025-02-17 11:39:07,5
3636,10224,19620,-30408,-8418,-8681,2025-02-17 11:39:07,5
512,8764,20324,-9721,-13297,-11132,2025-02-17 11:39:07,5
-1652,8688,16668,-519,-14041,-10294,2025-02-17 11:39:07,5
-4440,5468,6600,7501,-6995,-12555,2025-02-17 11:39:07,5
-3528,3216,3284,9959,5244,-14804,2025-02-17 11:39:07,5
-5480,4880,2676,14901,17104,-16689,2025-02-17 11:39:07,5
-8244,6252,-2960,19967,26752,-17397,2025-02-17 11:39:07,5
-15720,5116,-15104,21449,32767,-14021,2025-02-17 11:39:07,5
-18280,1340,-32768,9568,28621,-4299,2025-02-17 11:39:07,5
-5800,1220,-32768,-804,14680,-546,2025-02-17 11:39:07,5
-152,3516,-21700,-2275,-59,858,2025-02-17 11:39:07,5
-724,3780,-13164,-3676,-9485,923,2025-02-17 11:39:07,5
-5560,5096,-7696,-2737,-9604,513,2025-02-17 11:39:07,5
-6284,6360,-6728,-1024,-3685,-5,2025-02-17 11:39:07,5
-5924,5172,-7856,440,1899,-418,2025-02-17 11:39:07,5
-5564,4052,-12432,849,2926,-448,2025-02-17 11:39:07,5
-5460,4272,-15028,-3,1229,-188,2025-02-17 11:39:07,5
-4848,4856,-13740,-470,-599,-68,2025-02-17 11:39:07,5
-5292,4676,-11248,-475,-870,-82,2025-02-17 11:39:07,5
-5552,4720,-10756,-189,132,-203,2025-02-17 11:39:07,5
-5240,4584,-12408,-14,630,-218,2025-02-17 11:39:07,5
-5160,4556,-12708,-173,-9,-174,2025-02-17 11:39:07,5
-5476,4576,-12232,-234,-99,-134,2025-02-17 11:39:07,5
-5328,4788,-11764,-172,325,-147,2025-02-17 11:39:07,5
-5136,4652,-12160,-130,204,-220,2025-02-17 11:39:07,5
-5316,4680,-12308,-149,48,-201,2025-02-17 11:39:07,5
-5420,4752,-12044,-177,164,-166,2025-02-17 11:39:07,5
-5340,4668,-11944,-142,201,-166,2025-02-17 11:39:07,5
-5244,4772,-12168,-160,176,-170,2025-02-17 11:39:07,5
-5364,4704,-12168,-180,117,-170,2025-02-17 11:39:07,5
-5384,4596,-12000,-185,228,-168,2025-02-17 11:39:07,5
-5296,4700,-12188,-180,156,-188,2025-02-17 11:39:07,5
-5388,4660,-12140,-202,133,-198,2025-02-17 11:39:07,5
-5256,4676,-12084,-173,173,-197,2025-02-17 11:39:07,5
-5356,4708,-12112,-176,168,-182,2025-02-17 11:39:07,5
-5380,4672,-12128,-158,184,-187,2025-02-17 11:39:07,5
-5272,4724,-11900,-169,144,-185,2025-02-17 11:39:07,5
-5384,4724,-11988,-160,105,-148,2025-02-17 11:39:07,5
-5204,4388,-11988,-150,388,-137,2025-02-17 11:39:07,5
-5248,4828,-12116,-145,128,-119,2025-02-17 11:39:07,5
-5412,4436,-12032,-114,82,-198,2025-02-17 11:39:07,5
-5348,4724,-12152,-194,189,-166,2025-02-17 11:39:07,5
-5252,4652,-11976,-171,77,-170,2025-02-17 11:39:07,5
-5340,4632,-11916,-147,42,-230,2025-02-17 11:39:07,5
-5532,4708,-12204,-148,187,-169,2025-02-17 11:39:07,5
-5316,4652,-12048,-168,205,-164,2025-02-17 11:39:07,5
-5248,4596,-12196,-181,156,-144,2025-02-17 11:39:07,5
-5252,4644,-12064,-165,89,-193,2025-02-17 11:39:07,5
-5500,4596,-12044,-154,225,-185,2025-02-17 11:39:07,5
-5304,4672,-12204,-148,193,-171,2025-02-17 11:39:07,5
-5300,4656,-11976,-174,98,-194,2025-02-17 11:39:07,5
-5376,4720,-12120,-176,156,-188,2025-02-17 11:39:07,5
-5328,4668,-12112,-160,121,-184,2025-02-17 11:39:07,5
-5292,4744,-12124,-131,186,-200,2025-02-17 11:39:07,5
-5336,4684,-12096,-140,141,-174,2025-02-17 11:39:07,5
-5296,4696,-12200,-131,166,-165,2025-02-17 11:39:07,0.0
-5384,4636,-12260,-157,176,-156,2025-02-17 11:39:07,0.0
-5376,4680,-12060,-124,146,-163,2025-02-17 11:39:07,0.0
-5336,4672,-12076,-153,159,-201,2025-02-17 11:39:08,0.0
-5292,4652,-12024,-160,150,-175,2025-02-17 11:39:08,0.0
-5284,4708,-12128,-146,174,-167,2025-02-17 11:39:08,0.0
-5364,4712,-12072,-150,144,-165,2025-02-17 11:39:08,0.0
-5320,4740,-12092,-159,144,-176,2025-02-17 11:39:08,0.0
-5380,4600,-12072,-167,144,-175,2025-02-17 11:39:08,0.0
-5324,4768,-12180,-163,171,-139,2025-02-17 11:39:08,0.0
-5360,4720,-12080,-164,183,-174,2025-02-17 11:39:08,0.0
-5296,4700,-12020,-151,176,-185,2025-02-17 11:39:08,0.0
-5284,4736,-12128,-157,134,-159,2025-02-17 11:39:08,0.0
-5320,4668,-12112,-142,137,-189,2025-02-17 11:39:08,0.0
-5404,4648,-12188,-159,165,-204,2025-02-17 11:39:08,0.0
-5356,4688,-12052,-159,168,-179,2025-02-17 11:39:08,0.0
-5308,4704,-12100,-146,182,-170,2025-02-17 11:39:08,0.0
-5412,4700,-11996,-176,160,-178,2025-02-17 11:39:08,0.0
-5340,4664,-12000,-170,181,-179,2025-02-17 11:39:08,0.0
-5276,4612,-12084,-197,179,-194,2025-02-17 11:39:08,0.0
-5400,4632,-11932,-138,160,-186,2025-02-17 11:39:08,0.0
-5280,4744,-12084,-170,159,-162,2025-02-17 11:39:08,0.0
-5408,4676,-12172,-165,151,-175,2025-02-17 11:39:08,0.0
-5296,4728,-12128,-146,158,-181,2025-02-17 11:39:08,0.0
-5340,4748,-12108,-159,149,-177,2025-02-17 11:39:08,0.0
-5336,4700,-12100,-134,156,-192,2025-02-17 11:39:08,0.0
-5376,4668,-11944,-154,157,-159,2025-02-17 11:39:08,0.0
-5252,4648,-12076,-141,166,-187,2025-02-17 11:39:08,0.0
-5348,4764,-12044,-144,183,-187,2025-02-17 11:39:08,0.0
-5388,4684,-12100,-197,152,-170,2025-02-17 11:39:08,0.0
-5364,4652,-12152,-142,165,-162,2025-02-17 11:39:08,0.0
-5340,4680,-12036,-169,154,-147,2025-02-17 11:39:08,0.0
-5420,4688,-12212,-172,175,-172,2025-02-17 11:39:08,0.0
-5300,4616,-11996,-170,154,-144,2025-02-17 11:39:08,0.0
-5344,4668,-12124,-176,131,-166,2025-02-17 11:39:08,0.0
-5328,4612,-12052,-162,143,-171,2025-02-17 11:39:08,0.0
-5428,4676,-11980,-166,151,-153,2025-02-17 11:39:08,0.0
-5260,4672,-12128,-129,175,-166,2025-02-17 11:39:08,0.0
-5336,4672,-12048,-153,182,-178,2025-02-17 11:39:08,0.0
-5332,4676,-12196,-162,187,-187,2025-02-17 11:39:08,0.0
-5304,4644,-12196,-152,162,-203,2025-02-17 11:39:08,0.0
-5396,4672,-11916,-180,173,-166,2025-02-17 11:39:08,0.0
-5360,4800,-12068,-154,161,-164,2025-02-17 11:39:08,0.0
-5400,4644,-12052,-169,153,-197,2025-02-17 11:39:08,0.0
-5336,4624,-12136,-140,154,-179,2025-02-17 11:39:08,0.0
-5420,4740,-12156,-151,153,-190,2025-02-17 11:39:08,0.0
-5372,4744,-12068,-150,162,-168,2025-02-17 11:39:08,0.0
-5380,4708,-12088,-163,143,-184,2025-02-17 11:39:08,0.0
-5392,4716,-12124,-169,159,-184,2025-02-17 11:39:08,0.0
-5304,4624,-12144,-170,196,-173,2025-02-17 11:39:08,0.0
-5352,4624,-12216,-164,169,-165,2025-02-17 11:39:08,0.0
-5564,4580,-12016,-163,471,-98,2025-02-17 11:39:08,0.0
-5320,4924,-11508,164,338,-130,2025-02-17 11:39:08,0.0
-5432,4944,-9708,1316,2813,-289,2025-02-17 11:39:08,0.0
-4336,4472,-12852,1825,3841,-708,2025-02-17 11:39:08,0.0
-5308,3800,-14220,1126,2751,-592,2025-02-17 11:39:08,0.0
300,3564,-12624,-104,794,-96,2025-02-17 11:39:08,0.0
-6248,6156,-12232,1372,833,-1011,2025-02-17 11:39:08,0.0
-4740,2112,-11764,822,1398,-529,2025-02-17 11:39:08,0.0
-5092,4004,-8724,1834,1780,130,2025-02-17 11:39:08,0.0
-3428,3344,-14252,3086,2502,3398,2025-02-17 11:39:08,0.0
-1192,4100,-15168,147,2674,1303,2025-02-17 11:39:08,0.0
-5292,7344,-11900,371,334,-2467,2025-02-17 11:39:08,0.0
-4440,5564,-8200,3437,-1346,-2867,2025-02-17 11:39:08,0.0
-4732,3076,-6840,8876,-3054,-1762,2025-02-17 11:39:09,0.0
-616,2932,-14376,9737,-7393,-1993,2025-02-17 11:39:09,0.0
-4976,3628,-17048,9503,-15819,-1357,2025-02-17 11:39:09,0.0
-584,2516,-13024,11273,-20187,-1528,2025-02-17 11:39:09,0.0
-8380,1376,-12488,7693,-18227,-2069,2025-02-17 11:39:09,
-12944,2868,-10420,4444,-11295,-3365,2025-02-17 11:39:09,0.0
-12616,4616,-9580,2501,-1701,-2316,2025-02-17 11:39:09,0.0
-7564,4292,-12004,3534,-822,-3457,2025-02-17 11:39:09,0.0
-6784,4084,-13572,6062,-9500,-4117,2025-02-17 11:39:09,0.0
-11780,2128,-12500,11706,-14747,1041,2025-02-17 11:39:09,0.0
-7116,-860,-19076,8506,-11247,595,2025-02-17 11:39:09,0.0
-12904,2328,-7936,5853,-9073,-770,2025-02-17 11:39:09,0.0
-9560,1696,-7284,6463,-4409,-483,2025-02-17 11:39:09,0.0
-15796,1700,-9156,5732,-6496,-1690,2025-02-17 11:39:09,0.0
-8816,1164,-13520,3271,-6708,-3856,2025-02-17 11:39:09,0.0
-8564,1324,-11664,1547,-7091,-5244,2025-02-17 11:39:09,0.0
-8684,1976,-11652,4,-7987,-6409,2025-02-17 11:39:09,0.0
-11900,276,-13260,-3373,-8579,-7143,2025-02-17 11:39:09,0.0
-9048,-432,-7112,-3371,-2583,-8423,2025-02-17 11:39:09,0.0
-13780,1148,-8348,-4861,585,-6291,2025-02-17 11:39:09,0.0
-14492,-1564,-11660,-3147,-22,-5626,2025-02-17 11:39:09,0.0
-13636,-1044,-13744,-4361,-4382,-3454,2025-02-17 11:39:09,0.0
-16448,56,-14564,-3178,-7202,-4434,2025-02-17 11:39:09,0.0
-20128,-400,-17372,-959,553,760,2025-02-17 11:39:09,0.0
-17540,72,-10072,-1750,-4269,3857,2025-02-17 11:39:09,0.0
-19784,2724,-10468,-79,-8886,8373,2025-02-17 11:39:09,0.0
-11944,2876,-11384,-1748,-10841,8259,2025-02-17 11:39:09,0.0
-12184,1872,-13584,-1565,-13731,7880,2025-02-17 11:39:09,0.0
-9480,856,-14452,-2632,-11410,6674,2025-02-17 11:39:09,0.0
-14536,-384,-15136,-5056,-4806,7080,2025-02-17 11:39:09,0.0
-18736,2036,-9728,-6126,3747,8483,2025-02-17 11:39:09,0.0
-18680,3944,-8980,-5610,6152,9716,2025-02-17 11:39:09,0.0
-16028,4772,-10284,-6220,1822,7665,2025-02-17 11:39:09,0.0
-18164,6104,-10980,-5388,-5301,6608,2025-02-17 11:39:09,0.0
-17016,6056,-10436,-4427,-10520,6061,2025-02-17 11:39:09,0.0
-20964,6848,-11228,-2303,-16577,6948,2025-02-17 11:39:09,0.0
-30204,6968,-11256,-205,-18513,11895,2025-02-17 11:39:09,0.0
-31436,12248,-9372,3990,-21766,19717,2025-02-17 11:39:09,0.0
-17860,10136,-19004,4513,-28392,20029,2025-02-17 11:39:09,0.0
-12784,3656,-16708,2058,-26475,17231,2025-02-17 11:39:09,0.0
-9040,3124,-8860,4019,-20657,15774,2025-02-17 11:39:09,0.0
-3788,3808,-7924,6582,-16791,12147,2025-02-17 11:39:09,0.0
-7588,5876,-5904,7160,-9620,7271,2025-02-17 11:39:09,0.0
-8100,6512,-5056,5941,-313,4148,2025-02-17 11:39:09,0.0
-7228,5096,-3444,5339,2500,483,2025-02-17 11:39:09,0.0
-7568,3620,-3160,5049,2072,-1540,2025-02-17 11:39:09,0.0
-5772,4012,-3700,5101,-676,-3060,2025-02-17 11:39:09,0.0
-9516,5880,-3484,3853,-6849,-5747,2025-02-17 11:39:09,0.0
-11092,4312,-2500,3283,-8201,-6898,2025-02-17 11:39:09,0.0
-11972,3504,-3616,1976,-11292,-7625,2025-02-17 11:39:09,0.0
-11884,3984,-2536,1689,-12951,-6317,2025-02-17 11:39:09,0.0
-12704,4780,-2616,837,-10450,-4541,2025-02-17 11:39:09,0.0
-13012,5412,-1684,1395,-1483,-2909,2025-02-17 11:39:09,0.0
-10464,4296,-684,2614,10884,-2294,2025-02-17 11:39:09,0.0
-8188,2728,-952,3996,17709,-2827,2025-02-17 11:39:09,0.0
-5900,2248,-584,5121,18771,-4483,2025-02-17 11:39:09,0.0
-6756,2876,-2084,4381,13533,-4902,2025-02-17 11:39:09,0.0
-6432,-396,-1444,1941,4941,-3401,2025-02-17 11:39:09,0.0
-2180,-232,1492,733,-6375,-3266,2025-02-17 11:39:09,0.0
-1188,616,448,2921,-10416,-6176,2025-02-17 11:39:09,0.0
-2868,2484,916,3269,-9222,-6888,2025-02-17 11:39:10,0.0
-6932,3724,-76,5007,-3122,-4274,2025-02-17 11:39:10,0.0
-5976,2452,-5208,6084,3410,-79,2025-02-17 11:39:10,0.0
-6640,1708,-4456,3102,5554,3337,2025-02-17 11:39:10,0.0
1060,-2180,952,-2366,2621,6709,2025-02-17 11:39:10,0.0
-864,-3828,1092,-4704,-1885,3005,2025-02-17 11:39:10,0.0
-5508,-4012,-3156,-9703,-2638,-2746,2025-02-17 11:39:10,0.0
-6436,-1604,-3392,-10602,850,-9008,2025-02-17 11:39:10,0.0
-7796,1568,-3008,-10283,4140,-13554,2025-02-17 11:39:10,0.0
-10972,4496,-644,-8215,5053,-12626,2025-02-17 11:39:10,0.0
-5764,2488,-5180,-7928,3304,-10261,2025-02-17 11:39:10,0.0
-3544,-124,-3228,-6940,2993,-11049,2025-02-17 11:39:10,0.0
-3712,-1260,-2112,-7460,4537,-13270,2025-02-17 11:39:10,0.0
-6488,140,-1224,-7173,7116,-15210,2025-02-17 11:39:10,0.0
-8392,1396,-2012,-7930,10137,-17133,2025-02-17 11:39:10,0.0
-14720,2060,-4516,-8071,14180,-14948,2025-02-17 11:39:10,0.0
-16288,2532,-4100,-7592,17367,-9743,2025-02-17 11:39:10,0.0
-13024,1760,-2464,-5086,18059,-6755,2025-02-17 11:39:10,0.0
-13492,132,-4060,-2386,17449,-5618,2025-02-17 11:39:10,0.0
-14900,-544,-4932,-1452,16320,-4249,2025-02-17 11:39:10,0.0
-14712,76,-3724,-1013,14471,-3392,2025-02-17 11:39:10,0.0
-14896,1104,-2496,196,9573,-2050,2025-02-17 11:39:10,0.0
-14348,1600,-3400,1119,1186,-393,2025-02-17 11:39:10,0.0
-13388,48,-4376,1705,-8580,712,2025-02-17 11:39:10,0.0
-12736,-48,-5536,2133,-16936,1014,2025-02-17 11:39:10,0.0
-12520,-140,-4732,1930,-22660,1196,2025-02-17 11:39:10,0.0
-11676,-640,-4704,1834,-25257,752,2025-02-17 11:39:10,0.0
-11992,-1388,-4956,1301,-23533,381,2025-02-17 11:39:10,0.0
-12688,-1264,-4864,-450,-16157,-244,2025-02-17 11:39:10,0.0
-13244,-456,-4996,-1464,-8397,-821,2025-02-17 11:39:10,0.0
-12764,-152,-4372,-2597,-2568,-1510,2025-02-17 11:39:10,0.0
-12036,492,24968,-3692,-22921,-1818,2025-02-17 11:39:10,0.0
-17372,2372,4396,-2073,-32768,631,2025-02-17 11:39:10,0.0
-19408,1008,636,-1732,-31459,3797,2025-02-17 11:39:10,0.0
-16224,668,3756,-4990,-19058,4946,2025-02-17 11:39:10,0.0
-11556,1136,-2840,-8295,-3710,2319,2025-02-17 11:39:10,0.0
-9528,472,-824,-10343,7886,-2044,2025-02-17 11:39:10,0.0
-13212,828,2680,-1483,11850,-2926,2025-02-17 11:39:10,0.0
-13792,-632,3796,6328,10562,-685,2025-02-17 11:39:10,0.0
-13256,-2428,704,7466,8805,142,2025-02-17 11:39:10,0.0
-12424,1416,-2324,4396,7566,-885,2025-02-17 11:39:10,0.0
-12296,3624,-4764,-1219,6171,-3377,2025-02-17 11:39:10,0.0
-14560,3304,-600,-2398,6593,-3921,2025-02-17 11:39:10,0.0
-14668,2216,-796,-1436,4052,-2216,2025-02-17 11:39:10,0.0
-14104,2460,-1664,-1744,2365,-1998,2025-02-17 11:39:10,
-12740,2784,-2448,-3694,1397,-2983,2025-02-17 11:39:10,0.0
-10616,2508,-2056,-5868,1561,-5189,2025-02-17 11:39:10,0.0
-10788,1532,-1732,-6620,2460,-7664,2025-02-17 11:39:10,0.0
-14784,1024,-4388,-8362,3571,-7316,2025-02-17 11:39:10,0.0
-16144,604,-5848,-12617,3579,-4997,2025-02-17 11:39:10,0.0
-13864,1016,-2612,-14204,2669,-4283,2025-02-17 11:39:10,0.0
-12668,344,-2920,-14753,3293,-5122,2025-02-17 11:39:10,0.0
-10784,-1688,-4276,-15573,5320,-5845,2025-02-17 11:39:10,0.0
-13296,-1668,-60,-13690,8259,-6417,2025-02-17 11:39:10,0.0
-16152,-512,-1260,-13120,7267,-2611,2025-02-17 11:39:10,0.0
-13640,-392,2068,-11631,2392,-1948,2025-02-17 11:39:10,0.0
-13312,1368,-1996,-11073,-1603,-2709,2025-02-17 11:39:10,0.0
-14056,1848,-3132,-12813,-2646,-2122,2025-02-17 11:39:10,0.0
-12452,-36,-444,-12786,-1720,-2730,2025-02-17 11:39:10,0.0
-13028,-1812,-1300,-11692,692,-1801,2025-02-17 11:39:11,0.0
-13296,-3168,-2204,-11447,2431,-267,2025-02-17 11:39:11,0.0
-13308,-3648,-568,-10624,3385,328,2025-02-17 11:39:11,0.0
-13672,-2976,-360,-10724,4004,377,2025-02-17 11:39:11,0.0
-13852,-1848,472,-11204,4466,-190,2025-02-17 11:39:11,0.0
-14180,-1200,352,-11250,4816,-1179,2025-02-17 11:39:11,0.0
-14608,-808,484,-10702,5234,-1546,2025-02-17 11:39:11,0.0
-13720,-780,344,-9549,5024,-1798,2025-02-17 11:39:11,0.0
-13200,-240,592,-8415,4238,-2523,2025-02-17 11:39:11,0.0
-13228,436,676,-7448,2782,-3113,2025-02-17 11:39:11,0.0
-13236,760,208,-6329,1797,-3433,2025-02-17 11:39:11,0.0
-13660,1128,92,-5122,1593,-3547,2025-02-17 11:39:11,0.0
-14132,1660,272,-3762,517,-3570,2025-02-17 11:39:11,0.0
-14600,1504,264,-2816,-1893,-3380,2025-02-17 11:39:11,0.0
-14836,1364,-8,-2177,-4066,-3083,2025-02-17 11:39:11,0.0
-13580,1460,-784,-2461,-5600,-3379,2025-02-17 11:39:11,0.0
-11920,596,-652,-3082,-6727,-4193,2025-02-17 11:39:11,0.0
-12580,944,644,-3758,-6188,-4728,2025-02-17 11:39:11,0.0
-13516,1888,2172,-3673,-5045,-4401,2025-02-17 11:39:11,0.0
-14708,3320,4600,-3187,-4031,-4254,2025-02-17 11:39:11,0.0
-15728,4016,3784,-2860,-4508,-3728,2025-02-17 11:39:11,0.0
-16956,4544,2676,-3226,-5656,-3477,2025-02-17 11:39:11,0.0
-19036,2352,-2844,-3221,-6458,-2141,2025-02-17 11:39:11,0.0
-19168,1680,-4108,-3528,-3343,-1065,2025-02-17 11:39:11,0.0
-18720,1552,-5264,-3865,-85,-1059,2025-02-17 11:39:11,0.0
-18852,352,-4196,-5002,1927,-736,2025-02-17 11:39:11,0.0
-18676,-1272,-4460,-6743,3167,-225,2025-02-17 11:39:11,0.0
-16324,-1168,-6384,-8399,2788,-332,2025-02-17 11:39:11,0.0
-13472,-220,-7744,-10511,174,-1799,2025-02-17 11:39:11,0.0
-11260,456,-5716,-11584,-2375,-3152,2025-02-17 11:39:11,0.0
-10240,528,-4472,-11531,-4150,-4269,2025-02-17 11:39:11,0.0
-10068,-572,-4180,-10895,-3895,-4500,2025-02-17 11:39:11,0.0
-9936,-700,-4152,-10045,-2760,-4730,2025-02-17 11:39:11,0.0
-10160,-864,-4796,-9583,-1015,-4675,2025-02-17 11:39:11,0.0
-10404,-1416,-4780,-9200,1610,-4964,2025-02-17 11:39:11,0.0
-11156,-2040,-4600,-8933,4521,-5575,2025-02-17 11:39:11,0.0
-12356,-2328,-4288,-8593,4608,-5978,2025-02-17 11:39:11,0.0
-13268,-2568,-5356,-9446,2111,-6152,2025-02-17 11:39:11,0.0
-13980,-2976,-3468,-10295,-972,-6134,2025-02-17 11:39:11,0.0
-13132,-3596,-2536,-9548,-10068,-3610,2025-02-17 11:39:11,0.0
-11060,-2900,-2620,-8723,-13439,-3747,2025-02-17 11:39:11,0.0
-10752,-2216,-2788,-8685,-12785,-3510,2025-02-17 11:39:11,0.0
-10300,-1880,-2792,-8159,-9129,-3404,2025-02-17 11:39:11,0.0
-11040,-548,-2516,-7905,-5103,-3015,2025-02-17 11:39:11,0.0
-13908,200,-2144,-7301,-2674,-1729,2025-02-17 11:39:11,0.0
-12016,-836,-2684,-7408,-1293,-1222,2025-02-17 11:39:11,0.0
-11192,-2856,-2176,-9313,-1025,-2925,2025-02-17 11:39:11,0.0
-10624,-5300,204,-10242,-1588,-4473,2025-02-17 11:39:11,0.0
-9868,-7020,400,-10841,-1160,-6141,2025-02-17 11:39:11,0.0
-10996,-5764,1164,-11179,528,-6940,2025-02-17 11:39:11,0.0
-13724,-3016,-860,-11969,1511,-5492,2025-02-17 11:39:11,0.0
-13672,-2832,-1040,-12691,2312,-3856,2025-02-17 11:39:11,0.0
-13232,-3428,2028,-12253,650,-1493,2025-02-17 11:39:11,0.0
-13300,-4608,2180,-11165,-916,-35,2025-02-17 11:39:11,0.0
-13448,-4924,2464,-10223,-1143,1776,2025-02-17 11:39:11,0.0
-12712,-4848,1692,-8810,-1578,3449,2025-02-17 11:39:11,0.0
-12308,-3948,648,-7847,-517,4333,2025-02-17 11:39:11,0.0
-11636,-1952,-552,-7147,1316,4270,2025-02-17 11:39:11,0.0
-11228,-848,-1068,-7353,3579,2941,2025-02-17 11:39:11,0.0
-12416,-552,-856,-7395,6108,1204,2025-02-17 11:39:11,0.0
-14940,-956,-1148,-7787,8512,294,2025-02-17 11:39:11,0.0
-14932,-1960,-664,-9125,10002,-669,2025-02-17 11:39:11,0.0
-15296,-1348,280,-10475,10091,-2747,2025-02-17 11:39:11,0.0
-16948,1788,2288,-11211,8598,-4832,2025-02-17 11:39:11,0.0
-15788,3720,2128,-11492,4075,-6395,2025-02-17 11:39:11,0.0
-17172,-2292,288,-11409,-1838,-8201,2025-02-17 11:39:11,0.0
-19908,-4680,-4848,-10441,-4899,-8187,2025-02-17 11:39:12,0.0
-22796,-4148,-7452,-9627,-2097,-5438,2025-02-17 11:39:12,0.0
-21440,-5664,-9132,-10135,-92,-4083,2025-02-17 11:39:12,0.0
-19472,-7160,-10484,-9325,-88,-2795,2025-02-17 11:39:12,0.0
-15820,-7448,-10000,-8589,-2674,-773,2025-02-17 11:39:12,0.0
-11076,-5724,-8760,-7693,-7413,1566,2025-02-17 11:39:12,0.0
-8952,-2080,-5088,-5886,-9406,3394,2025-02-17 11:39:12,0.0
-8900,56,-2316,-2965,-7640,5362,2025-02-17 11:39:12,0.0
-8496,-676,-3420,-659,-3381,5975,2025-02-17 11:39:12,0.0
-10692,-948,-4920,-1564,2006,4955,2025-02-17 11:39:12,0.0
-12320,-432,-5596,-3047,6968,3084,2025-02-17 11:39:12,0.0
-15592,-864,-1748,-2632,7533,2655,2025-02-17 11:39:12,0.0
-15576,-680,-3120,54,4284,3577,2025-02-17 11:39:12,0.0
-14364,-688,-5016,600,989,3968,2025-02-17 11:39:12,0.0
-12036,-1660,-5832,189,-1682,3928,2025-02-17 11:39:12,0.0
-11296,-2340,-4844,-247,-2145,3781,2025-02-17 11:39:12,0.0
-11132,-1920,-2860,-553,-1686,3705,2025-02-17 11:39:12,0.0
-9872,-1056,-2488,-744,-2004,3212,2025-02-17 11:39:12,0.0
-9884,56,-1704,-1303,-2258,2721,2025-02-17 11:39:12,0.0
-9472,600,-1488,-1572,-2555,2007,2025-02-17 11:39:12,
-9736,1684,-612,-1542,-2575,1717,2025-02-17 11:39:12,0.0
-9464,2192,-492,-1430,-1591,1410,2025-02-17 11:39:12,0.0
-9748,2548,-356,-1847,525,389,2025-02-17 11:39:12,0.0
-10092,2584,-440,-2472,810,-505,2025-02-17 11:39:12,0.0
-10496,2732,20,-3145,314,-1604,2025-02-17 11:39:12,0.0
-11116,2340,-604,-3168,-963,-2281,2025-02-17 11:39:12,0.0
-11504,1992,-744,-3496,-1875,-2901,2025-02-17 11:39:12,0.0
-12052,1288,-804,-3715,-2294,-3488,2025-02-17 11:39:12,0.0
-12880,820,-2052,-3942,-2401,-3932,2025-02-17 11:39:12,0.0
-12768,952,-3436,-4248,-2286,-4248,2025-02-17 11:39:12,0.0
-13416,808,-3116,-4649,-1334,-4365,2025-02-17 11:39:12,0.0
-14504,232,-1180,-4569,490,-3995,2025-02-17 11:39:12,0.0
-14036,-1088,-348,-4190,1830,-3273,2025-02-17 11:39:12,0.0
-14608,-2300,848,-3802,2695,-2612,2025-02-17 11:39:12,0.0
-14860,-2804,768,-3495,3107,-1961,2025-02-17 11:39:12,0.0
-15724,-2184,-1100,-3681,3155,-841,2025-02-17 11:39:12,0.0
-16204,-76,204,-2666,3073,644,2025-02-17 11:39:12,0.0
-17588,1484,-40,-1291,3365,1833,2025-02-17 11:39:12,0.0
-17160,1912,-2512,-1199,3755,2061,2025-02-17 11:39:12,0.0
-17512,1068,-3828,-1819,4499,1457,2025-02-17 11:39:12,0.0
-17616,2628,-6800,-3726,6403,-184,2025-02-17 11:39:12,0.0
-18412,3536,-8624,-2358,8880,-616,2025-02-17 11:39:12,0.0
-17596,4680,-13348,-2640,10244,-596,2025-02-17 11:39:12,0.0
-18600,4892,-11604,-3656,8485,-721,2025-02-17 11:39:12,0.0
-16484,3364,-11392,-4634,2368,-1000,2025-02-17 11:39:12,0.0
-12096,1572,-7928,-4693,-8669,-2095,2025-02-17 11:39:12,0.0
-8040,372,-8280,-4920,-14404,-3493,2025-02-17 11:39:12,0.0
-6100,-1884,-6652,-5912,-15872,-4218,2025-02-17 11:39:12,0.0
-5132,-3780,-4132,-6675,-13129,-4263,2025-02-17 11:39:12,0.0
-5660,-4080,-2160,-6760,-9000,-3875,2025-02-17 11:39:12,0.0
-8788,-1796,-3700,-6972,774,-1854,2025-02-17 11:39:12,0.0
-10256,-412,-4308,-8074,8935,-638,2025-02-17 11:39:12,0.0
-10840,1752,-5060,-9011,11688,-612,2025-02-17 11:39:12,0.0
-12648,1432,-5400,-9758,10236,-1387,2025-02-17 11:39:12,0.0
-13756,-180,-6704,-10421,7284,-2769,2025-02-17 11:39:12,0.0
-14116,-436,-7620,-10382,3675,-4251,2025-02-17 11:39:12,0.0
-14532,-364,-6248,-9865,-1813,-4712,2025-02-17 11:39:12,0.0
-12676,-548,-6892,-9764,-3726,-4812,2025-02-17 11:39:12,0.0
-11720,-860,-6216,-10359,-4416,-5047,2025-02-17 11:39:12,0.0
-12084,-388,-5736,-11088,-4116,-4864,2025-02-17 11:39:12,0.0
-10772,148,-6564,-11846,-3892,-4658,2025-02-17 11:39:12,0.0
-10612,-4,-5552,-12591,-3304,-5014,2025-02-17 11:39:13,0.0
-10184,-644,-5776,-13555,-2021,-5154,2025-02-17 11:39:13,0.0
-10508,-1068,-5392,-14806,19,-5261,2025-02-17 11:39:13,0.0
-11440,-1324,-4860,-15682,1737,-5221,2025-02-17 11:39:13,0.0
-12136,-1536,-4912,-16359,2699,-4807,2025-02-17 11:39:13,0.0
-12712,-1876,-5160,-16947,2541,-4410,2025-02-17 11:39:13,0.0
-13056,-1872,-5148,-16954,1941,-3795,2025-02-17 11:39:13,0.0
-12968,-1804,-4668,-16936,1040,-3518,2025-02-17 11:39:13,0.0
-12980,-1796,-4144,-16844,570,-3208,2025-02-17 11:39:13,0.0
-13376,-1736,-4028,-16881,275,-3097,2025-02-17 11:39:13,0.0
-13684,-1940,-3384,-16895,233,-3480,2025-02-17 11:39:13,0.0
-14096,-1444,-2584,-16703,302,-3744,2025-02-17 11:39:13,0.0
-14564,-1116,-2488,-16435,-131,-4120,2025-02-17 11:39:13,0.0
-14612,-1224,-2852,-15934,-840,-4294,2025-02-17 11:39:13,0.0
-14988,-1620,-2624,-16059,-1744,-4380,2025-02-17 11:39:13,0.0
-13616,-2384,-2812,-16073,-2274,-4701,2025-02-17 11:39:13,0.0
-13732,-2248,-2600,-16002,-2429,-4769,2025-02-17 11:39:13,0.0
-13736,-1680,-2912,-16071,-2740,-4404,2025-02-17 11:39:13,0.0
-13692,-1120,-4972,-16356,-2768,-4206,2025-02-17 11:39:13,0.0
-12340,-472,-6168,-17281,-1949,-4986,2025-02-17 11:39:13,0.0
-12572,1956,-7220,-18213,-1661,-6117,2025-02-17 11:39:13,0.0
-13260,2852,-6252,-18890,-2274,-7054,2025-02-17 11:39:13,0.0
-12732,1636,-5820,-17999,-3222,-7006,2025-02-17 11:39:13,0.0
-10640,-1288,-7568,-17113,-2389,-7004,2025-02-17 11:39:13,0.0
-9888,-2340,-8032,-17289,1033,-7469,2025-02-17 11:39:13,0.0
-10628,-2160,-7064,-18048,4016,-7764,2025-02-17 11:39:13,0.0
-11868,-1560,-6260,-18778,4820,-7676,2025-02-17 11:39:13,0.0
-13408,-728,-5296,-18878,3714,-6988,2025-02-17 11:39:13,0.0
-13976,-164,-4448,-18225,1656,-5182,2025-02-17 11:39:13,0.0
-13564,524,-4748,-17574,559,-3763,2025-02-17 11:39:13,0.0
-12424,540,-6332,-17641,1216,-3014,2025-02-17 11:39:13,0.0
-11316,644,-7156,-18135,2400,-2520,2025-02-17 11:39:13,0.0
-11196,512,-5932,-18211,3490,-2676,2025-02-17 11:39:13,0.0
-11148,312,-5740,-18137,3450,-2975,2025-02-17 11:39:13,0.0
-11084,708,-5584,-18104,2505,-3417,2025-02-17 11:39:13,0.0
-10676,1076,-5468,-18184,1272,-4436,2025-02-17 11:39:13,0.0
-11600,1504,-5860,-18496,765,-5558,2025-02-17 11:39:13,0.0
-11964,1308,-6044,-18979,535,-6010,2025-02-17 11:39:13,0.0
-12172,472,-5972,-18971,159,-6244,2025-02-17 11:39:13,0.0
-12148,-176,-5604,-18451,130,-6366,2025-02-17 11:39:13,0.0
-12376,-588,-5540,-17948,369,-6251,2025-02-17 11:39:13,0.0
-12060,-1040,-5856,-17716,645,-5951,2025-02-17 11:39:13,0.0
-12176,-1280,-5792,-17506,1081,-5609,2025-02-17 11:39:13,0.0
-12156,-1148,-4956,-17140,1789,-5257,2025-02-17 11:39:13,0.0
-12536,-1144,-4536,-16795,2292,-5296,2025-02-17 11:39:13,0.0
-13024,-824,-3948,-16580,1968,-5313,2025-02-17 11:39:13,0.0
-13068,-252,-4160,-16652,792,-5418,2025-02-17 11:39:13,0.0
-12964,288,-4240,-16496,-526,-5377,2025-02-17 11:39:13,0.0
-12544,664,-4420,-16761,-679,-5390,2025-02-17 11:39:13,0.0
-11712,532,-5188,-17582,-256,-5795,2025-02-17 11:39:13,0.0
-11840,4,-4440,-18274,849,-6113,2025-02-17 11:39:13,0.0
-12312,-744,-3292,-17792,2016,-6137,2025-02-17 11:39:13,0.0
-13024,-836,-3020,-17027,2139,-5990,2025-02-17 11:39:13,0.0
-13860,-1080,-3164,-16102,2159,-5504,2025-02-17 11:39:13,0.0
-14400,-1504,-3716,-15526,1903,-4850,2025-02-17 11:39:13,0.0
-14292,-1596,-4096,-15028,970,-4260,2025-02-17 11:39:13,0.0
-13172,-824,-4156,-14226,-610,-3504,2025-02-17 11:39:13,0.0
-12856,440,-3576,-13436,-674,-3255,2025-02-17 11:39:13,0.0
-12660,1232,-3156,-12692,-20,-2974,2025-02-17 11:39:13,
-12844,1604,-2412,-11813,476,-2990,2025-02-17 11:39:13,0.0
-12636,1100,-3444,-11309,627,-3178,2025-02-17 11:39:13,0.0
-12132,228,-4572,-11193,947,-3869,2025-02-17 11:39:14,0.0
-12308,-452,-4308,-10660,2150,-4224,2025-02-17 11:39:14,0.0
-12848,-804,-3408,-9986,4493,-4100,2025-02-17 11:39:14,0.0
-13592,-780,-3188,-9444,6606,-3696,2025-02-17 11:39:14,0.0
-14724,-448,-4768,-9049,7148,-2731,2025-02-17 11:39:14,0.0
-16168,100,-4476,-9150,5429,-1384,2025-02-17 11:39:14,0.0
-14568,872,-3964,-8503,1956,-563,2025-02-17 11:39:14,0.0
-13480,516,-3976,-7585,-1189,-257,2025-02-17 11:39:14,0.0
-12096,484,-3776,-6659,-1617,-183,2025-02-17 11:39:14,0.0
-11076,448,-3072,-5456,-73,-558,2025-02-17 11:39:14,0.0
-10604,436,-2784,-3784,1404,-946,2025-02-17 11:39:14,0.0
-11808,1012,-2624,-2352,1565,-871,2025-02-17 11:39:14,0.0
-12192,1708,-2672,-1907,958,-563,2025-02-17 11:39:14,0.0
-11508,2176,-2796,-1968,107,-750,2025-02-17 11:39:14,0.0
-11404,2144,-3076,-1905,-285,-1183,2025-02-17 11:39:14,0.0
-12064,1892,-2436,-1738,315,-1232,2025-02-17 11:39:14,0.0
-12320,1468,-2248,-1260,1025,-1074,2025-02-17 11:39:14,0.0
-12604,2032,-2600,-816,1183,-1075,2025-02-17 11:39:14,0.0
-13344,1512,-2476,-487,1109,-823,2025-02-17 11:39:14,0.0
-12824,912,-1740,-268,502,-879,2025-02-17 11:39:14,0.0
-11664,1220,-2016,-15,117,-1013,2025-02-17 11:39:14,0.0
-11852,1524,-1084,509,1135,-1244,2025-02-17 11:39:14,0.0
-12688,1416,-460,1167,2454,-1333,2025-02-17 11:39:14,0.0
-13888,1548,-584,1916,2463,-1315,2025-02-17 11:39:14,0.0
-14852,2052,-1132,2406,1766,-1355,2025-02-17 11:39:14,0.0
-15324,2284,-2004,2399,648,-1267,2025-02-17 11:39:14,0.0
-15732,2496,-1424,2531,-304,-932,2025-02-17 11:39:14,0.0
-15856,2716,-1276,2883,-676,-463,2025-02-17 11:39:14,0.0
-16512,2732,-1832,3533,-494,-240,2025-02-17 11:39:14,0.0
-17356,2076,-4324,3961,336,282,2025-02-17 11:39:14,0.0
-18240,2820,-6152,4032,1994,1121,2025-02-17 11:39:14,0.0
-18732,4440,-7240,3801,3996,2052,2025-02-17 11:39:14,0.0
-18864,6236,-7652,3341,5474,2791,2025-02-17 11:39:14,0.0
-16668,7056,-8700,2759,4988,2890,2025-02-17 11:39:14,0.0
-13732,6448,-8820,1930,1296,1620,2025-02-17 11:39:14,0.0
-10164,5084,-7936,1239,-3694,-1325,2025-02-17 11:39:14,0.0
-9532,2160,-6536,1162,-6902,-3841,2025-02-17 11:39:14,0.0
-10060,-3120,-5732,-2538,-6686,-7932,2025-02-17 11:39:14,0.0
-11292,-2840,-5668,-2937,-3425,-6818,2025-02-17 11:39:14,0.0
-12232,-2668,-5792,-3599,10,-5209,2025-02-17 11:39:14,0.0
-12496,-1560,-4724,-3809,1857,-3907,2025-02-17 11:39:14,0.0
-11560,-1276,-4488,-2996,1553,-4173,2025-02-17 11:39:14,0.0
-11348,-1400,-4396,-2314,436,-4637,2025-02-17 11:39:14,0.0
-10552,-1888,-4216,-1578,-301,-5034,2025-02-17 11:39:14,0.0
-11688,-2212,-2644,-291,190,-4870,2025-02-17 11:39:14,0.0
-10928,-3024,-1172,1984,501,-4565,2025-02-17 11:39:14,0.0
-10520,-3332,-2720,4683,-27,-5566,2025-02-17 11:39:14,0.0
-13248,-2824,-9560,2550,-169,-4627,2025-02-17 11:39:14,0.0
-12776,-2688,-9956,-2151,-1513,-3039,2025-02-17 11:39:14,0.0
-10848,-2836,-5492,-4539,-2404,-3252,2025-02-17 11:39:14,0.0
-11308,-2772,-2132,-4589,-2239,-3292,2025-02-17 11:39:14,0.0
-11412,-2844,-1220,-3941,-1171,-3035,2025-02-17 11:39:14,0.0
-11484,-2788,-2740,-3946,730,-2954,2025-02-17 11:39:14,0.0
-12340,-2792,-3380,-4617,1392,-3108,2025-02-17 11:39:14,0.0
-12060,-2468,-3668,-5289,408,-3193,2025-02-17 11:39:14,0.0
-11780,-2492,-3192,-5775,-126,-2944,2025-02-17 11:39:15,0.0
-11940,-2776,-1656,-5691,25,-2499,2025-02-17 11:39:15,0.0
-12120,-2564,-944,-5187,245,-1733,2025-02-17 11:39:15,0.0
-12640,-2372,-988,-4670,95,-793,2025-02-17 11:39:15,0.0
-12460,-2492,-1432,-4547,-142,-163,2025-02-17 11:39:15,0.0
-12748,-3064,-1988,-4358,-143,6,2025-02-17 11:39:15,0.0
-13052,-3184,-3004,-4464,-307,-63,2025-02-17 11:39:15,0.0
-13464,-2376,-3432,-4980,-548,-756,2025-02-17 11:39:15,0.0
-14172,-1104,-2728,-4262,-974,-1760,2025-02-17 11:39:15,0.0
-14940,-1640,-2812,-3798,-1793,-2459,2025-02-17 11:39:15,0.0
-14600,-3452,-1356,-3215,-2982,-3960,2025-02-17 11:39:15,0.0
-16264,-4832,988,-2313,-4120,-4657,2025-02-17 11:39:15,0.0
-17216,-4736,1692,-533,-5888,-3790,2025-02-17 11:39:15,0.0
-16680,-3168,1000,487,-7264,-1885,2025-02-17 11:39:15,0.0
-15108,-4928,-2648,750,-6948,-1334,2025-02-17 11:39:15,0.0
-16524,-6132,-7448,-1171,-3935,-1745,2025-02-17 11:39:15,0.0
-18764,-7492,-9032,-3169,1289,-1698,2025-02-17 11:39:15,0.0
-19956,-8032,-6684,-3762,3592,-1434,2025-02-17 11:39:15,0.0
-20896,-8112,-7144,-2369,-8,264,2025-02-17 11:39:15,0.0
-16996,-7060,-8036,-1094,-6004,1859,2025-02-17 11:39:15,0.0
-13040,-4972,-8016,-497,-10482,2120,2025-02-17 11:39:15,0.0
-9760,-2752,-6532,-983,-11780,2559,2025-02-17 11:39:15,0.0
-7612,-1304,-4304,-1126,-12190,2536,2025-02-17 11:39:15,0.0
-8168,-556,-2724,-303,-7480,2390,2025-02-17 11:39:15,0.0
-8868,-840,-2564,493,-271,2289,2025-02-17 11:39:15,0.0
-11432,-1824,-2968,631,5197,2118,2025-02-17 11:39:15,0.0
-13516,-2816,-2076,992,7271,2604,2025-02-17 11:39:15,0.0
-15328,-3136,-2016,1921,7305,3796,2025-02-17 11:39:15,0.0
-14908,-3188,-3844,2271,5918,5288,2025-02-17 11:39:15,0.0
-13692,-2008,-4172,2014,3058,6532,2025-02-17 11:39:15,0.0
-11848,-1448,-3836,1830,258,7037,2025-02-17 11:39:15,0.0
-9420,-1100,-3296,1684,-1172,6903,2025-02-17 11:39:15,0.0
-7480,-520,-2052,2005,-1228,4932,2025-02-17 11:39:15,0.0
-6984,-28,-1760,2522,-637,2469,2025-02-17 11:39:15,0.0
-8852,288,-2284,2469,546,803,2025-02-17 11:39:15,0.0
-10832,12,-2284,1860,1918,464,2025-02-17 11:39:15,0.0
-11860,-304,-1040,1675,1942,432,2025-02-17 11:39:15,0.0
-12056,-96,-564,1855,922,819,2025-02-17 11:39:15,0.0
-11860,-136,216,2396,702,906,2025-02-17 11:39:15,0.0
-11156,-184,-692,2781,896,783,2025-02-17 11:39:15,0.0
-10900,256,-776,2484,104,522,2025-02-17 11:39:15,0.0
-11416,540,-456,2260,-1373,147,2025-02-17 11:39:15,0.0
-12212,144,436,2447,-2541,121,2025-02-17 11:39:15,
-12352,-416,-416,2286,-3472,-105,2025-02-17 11:39:15,0.0
-12052,-792,-1132,1736,-4530,-793,2025-02-17 11:39:15,0.0
-12780,-456,-2036,1070,-4308,-1331,2025-02-17 11:39:15,0.0
-13776,-896,-2580,796,-2412,-939,2025-02-17 11:39:15,0.0
-13568,-644,-2572,1067,135,-311,2025-02-17 11:39:15,0.0
-14308,-540,-1616,1456,1699,83,2025-02-17 11:39:15,0.0
-14944,-1100,-1076,1544,2040,644,2025-02-17 11:39:15,0.0
-17020,-2144,1904,2059,2186,1559,2025-02-17 11:39:15,0.0
-18416,-2140,3620,3504,2823,2310,2025-02-17 11:39:15,0.0
-19588,-1496,1724,5044,1898,2623,2025-02-17 11:39:15,0.0
-20712,-732,-1632,6398,455,3742,2025-02-17 11:39:15,0.0
-20184,1708,-4000,6753,-613,3950,2025-02-17 11:39:15,0.0
-20972,3652,-8320,6286,1819,3980,2025-02-17 11:39:15,0.0
-20256,5200,-10368,4755,6649,4000,2025-02-17 11:39:15,0.0
-17436,4608,-8640,3702,9248,3429,2025-02-17 11:39:15,0.0
-11208,1512,-8120,3488,3089,801,2025-02-17 11:39:15,0.0
-10664,-2060,-6436,3926,-7114,-1520,2025-02-17 11:39:15,0.0
-9812,-3320,-4620,4037,-12615,-2510,2025-02-17 11:39:15,0.0
-9016,-4216,-5304,2206,-15054,-3269,2025-02-17 11:39:15,0.0
-8716,-3100,-4904,-275,-14143,-4685,2025-02-17 11:39:15,0.0
-10716,-1032,-4508,-2171,-9387,-5148,2025-02-17 11:39:15,0.0
-11944,792,-3996,-3402,-588,-2904,2025-02-17 11:39:16,0.0
-9252,1052,-3932,-3872,4951,-1776,2025-02-17 11:39:16,0.0
-8168,-292,-3200,-4641,7496,-3675,2025-02-17 11:39:16,0.0
-11552,-1720,-2096,-5267,8648,-5342,2025-02-17 11:39:16,0.0
-13196,-2144,-2084,-5110,7339,-4905,2025-02-17 11:39:16,0.0
-13552,-1856,-2248,-4650,3874,-4437,2025-02-17 11:39:16,0.0
-13808,-1688,-2412,-4168,-1119,-3878,2025-02-17 11:39:16,0.0
-13612,-2024,-2448,-4013,-4355,-2904,2025-02-17 11:39:16,0.0
-12076,-2612,-1584,-3898,-5975,-2208,2025-02-17 11:39:16,0.0
-10592,-3960,616,-3249,-3527,-610,2025-02-17 11:39:16,0.0
-10792,-3528,580,-2806,-1145,-69,2025-02-17 11:39:16,0.0
-11072,-3096,-1288,-2823,988,235,2025-02-17 11:39:16,0.0
-11804,-2304,-1248,-3228,767,148,2025-02-17 11:39:16,0.0
-12560,-2052,-1664,-3899,846,27,2025-02-17 11:39:16,0.0
-13104,-1652,-1192,-4770,1089,-418,2025-02-17 11:39:16,0.0
-12764,-976,480,-5194,-195,-859,2025-02-17 11:39:16,0.0
-13644,-436,2316,-5030,-1755,-979,2025-02-17 11:39:16,0.0
-14384,-200,2452,-4608,-3596,-816,2025-02-17 11:39:16,0.0
-13828,-1308,388,-4444,-5296,-182,2025-02-17 11:39:16,0.0
-12576,-2852,-584,-3947,-6088,7,2025-02-17 11:39:16,0.0
-11740,-3760,-800,-3853,-5762,-383,2025-02-17 11:39:16,0.0
-11400,-3880,268,-4262,-2767,-1234,2025-02-17 11:39:16,0.0
-12868,-3620,1704,-4652,1044,-2545,2025-02-17 11:39:16,0.0
-16068,-3820,2592,-4490,4179,-3399,2025-02-17 11:39:16,0.0
-19904,-3044,2832,-4254,1217,-2003,2025-02-17 11:39:16,0.0
-19008,-2788,2956,-3618,-2565,-609,2025-02-17 11:39:16,0.0
-17992,-3000,-1644,-3649,-3524,-139,2025-02-17 11:39:16,0.0
-17216,-5060,-2508,-3670,-1262,-947,2025-02-17 11:39:16,0.0
-17484,-6372,-3424,-2684,46,-1954,2025-02-17 11:39:16,0.0
-17708,-4876,-4644,-1331,19,-2038,2025-02-17 11:39:16,0.0
-16304,-2920,-4664,-151,-661,-1708,2025-02-17 11:39:16,0.0
-14384,-1460,-3636,66,-957,-1690,2025-02-17 11:39:16,0.0
-14432,-544,-3324,65,-2394,-859,2025-02-17 11:39:16,0.0
-13720,676,-3012,576,-4292,132,2025-02-17 11:39:16,0.0
-12888,1356,-3964,1537,-4604,1007,2025-02-17 11:39:16,0.0
-13824,-244,-4992,1779,-874,1684,2025-02-17 11:39:16,0.0
-14288,-2728,-5656,2059,4354,2587,2025-02-17 11:39:16,0.0
-13616,-3060,-4360,2227,7228,3515,2025-02-17 11:39:16,0.0
-12468,-2672,-3720,2325,6511,3621,2025-02-17 11:39:16,0.0
-13220,-1776,-3524,1946,5014,3931,2025-02-17 11:39:16,0.0
-13164,-1748,-3300,1065,4861,4090,2025-02-17 11:39:16,0.0
-13128,-708,-2564,287,4052,2986,2025-02-17 11:39:16,0.0
-13696,152,-1692,-202,1512,2364,2025-02-17 11:39:16,0.0
-13004,-64,-1084,159,-2851,2439,2025-02-17 11:39:16,0.0
-12272,-796,-1868,701,-4052,3122,2025-02-17 11:39:16,0.0
-10436,-1060,-1640,1321,-3066,3733,2025-02-17 11:39:16,0.0
-8432,-1636,-1404,2267,-312,3672,2025-02-17 11:39:16,0.0
-8176,-1980,-936,3357,4393,3228,2025-02-17 11:39:16,0.0
-9092,-1980,-1504,3832,8341,2549,2025-02-17 11:39:16,0.0
-10976,-1564,-2104,4209,10003,2178,2025-02-17 11:39:16,0.0
-12324,-1400,-3488,4707,9647,2232,2025-02-17 11:39:16,0.0
-12604,-1120,-5320,4647,7727,1833,2025-02-17 11:39:16,0.0
-11244,500,-5116,4373,3635,5,2025-02-17 11:39:16,0.0
-11200,1100,-3504,4774,438,-2357,2025-02-17 11:39:16,0.0
-11568,1148,-2760,4832,-1141,-3585,2025-02-17 11:39:16,0.0
-11868,1460,-2760,4304,-2376,-4663,2025-02-17 11:39:16,0.0
-12364,2304,-2832,3037,-4592,-5369,2025-02-17 11:39:16,0.0
-11688,4816,-3788,1600,-8369,-5672,2025-02-17 11:39:16,0.0
-11092,5924,-8056,-786,-9926,-6366,2025-02-17 11:39:16,0.0
-14052,2736,-8664,-3995,518,-7378,2025-02-17 11:39:17,0.0
-17488,1948,-3444,-6270,7781,-6313,2025-02-17 11:39:17,0.0
-19284,1772,-2916,-8561,5804,-3326,2025-02-17 11:39:17,0.0
-16640,-260,-1912,-9585,-1803,-1160,2025-02-17 11:39:17,0.0
-13528,-2556,-2884,-10918,-10571,-3086,2025-02-17 11:39:17,0.0
-13280,-1700,-1944,-12146,-11013,-5193,2025-02-17 11:39:17,0.0
-12628,-88,-4668,-14023,-8009,-6075,2025-02-17 11:39:17,0.0
-12468,2580,-4416,-16413,-5204,-5902,2025-02-17 11:39:17,0.0
-12492,3236,-4028,-18563,-5297,-5335,2025-02-17 11:39:17,0.0
-12236,2136,-3584,-20294,-6188,-4953,2025-02-17 11:39:17,0.0
-12792,880,-4036,-20592,-6446,-4858,2025-02-17 11:39:17,0.0
-14404,-472,-7088,-21480,-7299,-4104,2025-02-17 11:39:17,0.0
-15320,-1160,-7032,-24019,-5944,-3141,2025-02-17 11:39:17,0.0
-14792,-2236,-6108,-25583,-3929,-2727,2025-02-17 11:39:17,0.0
-14640,-2560,-6296,-26251,-2774,-2711,2025-02-17 11:39:17,0.0
-15080,-2764,-6548,-27188,-1574,-2962,2025-02-17 11:39:17,0.0
-15132,-2420,-6408,-27095,-1380,-3187,2025-02-17 11:39:17,0.0
-15264,-2088,-7764,-26950,-1934,-2991,2025-02-17 11:39:17,0.0
-15228,-2396,-6640,-26587,-2325,-2538,2025-02-17 11:39:17,0.0
-14796,-3084,-5948,-25934,-2449,-2447,2025-02-17 11:39:17,
-15696,-3148,-5352,-25707,-3399,-1847,2025-02-17 11:39:17,0.0
-14184,-3120,-6968,-26244,-5996,-539,2025-02-17 11:39:17,0.0
-12620,-3020,-6156,-26584,-8419,482,2025-02-17 11:39:17,0.0
-11292,-3460,-5568,-26605,-8347,1432,2025-02-17 11:39:17,0.0
-10732,-3548,-6016,-25855,-5614,1753,2025-02-17 11:39:17,0.0
-9856,-3512,-8012,-25624,-998,1256,2025-02-17 11:39:17,0.0
-10544,-1340,-8700,-27396,2153,-1027,2025-02-17 11:39:17,0.0
-12404,84,-8824,-28909,4312,-2406,2025-02-17 11:39:17,0.0
-13516,388,-7640,-29738,4341,-3088,2025-02-17 11:39:17,0.0
-15080,28,-7660,-30054,3224,-3064,2025-02-17 11:39:17,0.0
-15672,-696,-7396,-30575,3467,-3064,2025-02-17 11:39:17,0.0
-14776,-2080,-7700,-30247,3275,-3247,2025-02-17 11:39:17,0.0
-14544,-4596,-6240,-27764,3043,-3610,2025-02-17 11:39:17,0.0
-15132,-5108,-6408,-27142,1296,-1891,2025-02-17 11:39:17,0.0
-10252,-3116,-6164,-27743,-1972,-911,2025-02-17 11:39:17,0.0
-11504,-908,844,-27584,-4759,-1747,2025-02-17 11:39:17,0.0
-9132,-3168,-5588,-28735,-5029,-2158,2025-02-17 11:39:17,5
-11472,-4012,-7184,-30055,342,-3030,2025-02-17 11:39:17,5
-11308,-3484,-9408,-31908,8622,-3519,2025-02-17 11:39:17,5
-12560,-2504,-7260,-32768,15833,-4289,2025-02-17 11:39:17,5
-11328,-1316,-3032,-32768,17332,-6028,2025-02-17 11:39:17,5
-12224,-664,2184,-32768,14365,-8027,2025-02-17 11:39:17,5
-13496,-308,5092,-29907,7792,-8477,2025-02-17 11:39:17,5
-12984,68,2864,-26301,197,-7691,2025-02-17 11:39:17,5
-11292,-464,1276,-24348,-5670,-7544,2025-02-17 11:39:17,5
-10600,-344,904,-21923,-8917,-7643,2025-02-17 11:39:17,5
-10608,144,-172,-20130,-9485,-7085,2025-02-17 11:39:17,5
-9936,716,-376,-18606,-7503,-5471,2025-02-17 11:39:17,5
-5416,480,-792,-18462,-5924,-4010,2025-02-17 11:39:17,5
-1120,-352,-580,-18993,-5070,-1009,2025-02-17 11:39:17,5
1648,-952,792,-19733,-8571,1603,2025-02-17 11:39:17,5
2060,-1400,2628,-18664,-13082,4903,2025-02-17 11:39:17,5
2288,-1172,2260,-17849,-15559,6719,2025-02-17 11:39:17,5
3116,-972,1524,-17474,-16092,7215,2025-02-17 11:39:17,5
2696,-1068,1636,-17361,-15925,7391,2025-02-17 11:39:17,5
2828,-972,1564,-17226,-15717,7718,2025-02-17 11:39:17,5
2528,-1056,1668,-17100,-15476,7903,2025-02-17 11:39:17,5
2704,-988,1676,-16934,-15291,8074,2025-02-17 11:39:17,5
2868,-1028,1672,-16663,-15185,8097,2025-02-17 11:39:17,5
2860,-872,1984,-16182,-14967,8085,2025-02-17 11:39:17,5
2860,-912,1792,-15648,-14736,7910,2025-02-17 11:39:17,5
3064,-1040,1480,-15166,-14489,7640,2025-02-17 11:39:18,5
3080,-988,1572,-14916,-14096,7322,2025-02-17 11:39:18,5
2928,-1140,1596,-14911,-13670,6899,2025-02-17 11:39:18,5
3284,-1172,1508,-15107,-13175,6168,2025-02-17 11:39:18,5
3488,-1328,1432,-15553,-12854,5240,2025-02-17 11:39:18,5
2924,-1348,1368,-16186,-12541,4199,2025-02-17 11:39:18,5
3896,-1372,1332,-16912,-12191,2784,2025-02-17 11:39:18,5
4340,-1232,1128,-17882,-12018,833,2025-02-17 11:39:18,5
3932,-956,2088,-18358,-12015,-1013,2025-02-17 11:39:18,5
3676,-924,2104,-18480,-12188,-2448,2025-02-17 11:39:18,5
2792,-1160,3052,-18593,-12405,-3581,2025-02-17 11:39:18,5
-15276,-6096,13784,-15052,32767,-23686,2025-02-17 11:39:18,5
-32768,-13068,-1600,-13675,32767,-32768,2025-02-17 11:39:18,5
-32768,-29964,21104,-3706,19477,-32768,2025-02-17 11:39:18,5
-32768,-12316,3828,3094,21519,13897,2025-02-17 11:39:18,5
-9560,-6864,-784,2427,30608,19232,2025-02-17 11:39:18,5
5128,-7232,344,904,32767,15609,2025-02-17 11:39:18,5
7920,-5348,1600,-848,30614,9608,2025-02-17 11:39:18,5
8344,-3384,3268,-1271,26790,3909,2025-02-17 11:39:18,5
7416,-2564,3496,-773,21761,-874,2025-02-17 11:39:18,5
4932,-1668,4920,1272,18160,-3972,2025-02-17 11:39:18,5
-228,-1064,5232,4352,15239,-3709,2025-02-17 11:39:18,5
-7208,-1588,3372,6173,13605,495,2025-02-17 11:39:18,5
-11332,-3600,-184,5171,11151,4988,2025-02-17 11:39:18,5
-14244,-5400,-2916,2189,6226,4174,2025-02-17 11:39:18,5
-20512,-3512,-2912,-620,293,-2219,2025-02-17 11:39:18,5
-28512,1220,-3384,-24,2088,-2442,2025-02-17 11:39:18,5
-21020,-1280,-4136,-148,4927,-191,2025-02-17 11:39:18,5
-12140,-3164,-2308,-208,5329,-913,2025-02-17 11:39:18,5
-9212,-3684,-1696,-139,3577,-1132,2025-02-17 11:39:18,5
-9960,-3512,-1524,-203,471,-401,2025-02-17 11:39:18,5
-12404,-3000,-2112,-249,-1309,383,2025-02-17 11:39:18,5
-14240,-2456,-1916,-253,-1131,265,2025-02-17 11:39:18,5
-14496,-2468,-2236,-164,-16,-289,2025-02-17 11:39:18,5
-13720,-2568,-1736,-67,707,-318,2025-02-17 11:39:18,5
-12604,-2936,-1804,-161,342,-188,2025-02-17 11:39:18,5
-12772,-2936,-1948,-227,203,-143,2025-02-17 11:39:18,5
-13412,-2400,-2032,-116,38,-107,2025-02-17 11:39:18,5
-13548,-2784,-1884,-144,199,-263,2025-02-17 11:39:18,5
-13496,-2720,-1940,-162,273,-147,2025-02-17 11:39:18,5
-12952,-2664,-2040,-231,254,-146,2025-02-17 11:39:18,5
-13436,-2824,-1856,-136,-4,-82,2025-02-17 11:39:18,5
-13252,-2612,-1852,-173,159,-120,2025-02-17 11:39:18,5
-13192,-2596,-1752,-120,242,-216,2025-02-17 11:39:18,5
-13300,-2892,-1952,-119,217,-229,2025-02-17 11:39:18,5
-13244,-2644,-1976,-197,264,-126,2025-02-17 11:39:18,5
-13136,-2644,-2008,-130,134,-171,2025-02-17 11:39:18,5
-13368,-2708,-1800,-171,116,-202,2025-02-17 11:39:18,5
-13288,-2728,-1968,-197,148,-160,2025-02-17 11:39:18,5
-13220,-2692,-1888,-159,169,-138,2025-02-17 11:39:18,5
-13356,-2880,-1792,-161,191,-199,2025-02-17 11:39:18,5
-13320,-2576,-1972,-164,216,-149,2025-02-17 11:39:18,5
-13248,-2696,-2108,-164,158,-203,2025-02-17 11:39:18,5
-13264,-2752,-1916,-175,152,-177,2025-02-17 11:39:18,5
-13172,-2712,-1924,-144,159,-160,2025-02-17 11:39:18,5
-13296,-2812,-1888,-154,139,-166,2025-02-17 11:39:18,5
-13296,-2728,-1988,-156,193,-177,2025-02-17 11:39:18,5
-13216,-2640,-2028,-144,180,-171,2025-02-17 11:39:18,5
-13280,-2804,-1988,-190,177,-167,2025-02-17 11:39:18,5
-13304,-2656,-1896,-151,169,-159,2025-02-17 11:39:18,5
-13308,-2748,-1688,-178,181,-178,2025-02-17 11:39:19,5
-13280,-2704,-1932,-151,169,-165,2025-02-17 11:39:19,5
-13412,-2768,-1920,-176,158,-186,2025-02-17 11:39:19,5
-13284,-2728,-1788,-170,186,-156,2025-02-17 11:39:19,5
-13284,-2712,-1936,-169,156,-173,2025-02-17 11:39:19,5
-13264,-2768,-2024,-156,150,-176,2025-02-17 11:39:19,5
-13388,-2720,-1860,-142,156,-148,2025-02-17 11:39:19,5
-13392,-2784,-1940,-122,154,-184,2025-02-17 11:39:19,5
-13280,-2712,-1948,-166,177,-158,2025-02-17 11:39:19,0.0
-13292,-2664,-2000,-165,186,-181,2025-02-17 11:39:19,0.0
-13364,-2724,-2032,-176,164,-179,2025-02-17 11:39:19,0.0
-13292,-2760,-1956,-151,183,-192,2025-02-17 11:39:19,0.0
-13296,-2716,-2136,-150,157,-200,2025-02-17 11:39:19,0.0
-13284,-2704,-1964,-152,188,-182,2025-02-17 11:39:19,0.0
-13248,-2692,-1948,-157,165,-189,2025-02-17 11:39:19,0.0
-13232,-2732,-1944,-167,178,-201,2025-02-17 11:39:19,0.0
-13324,-2780,-2052,-158,150,-191,2025-02-17 11:39:19,0.0
-13252,-2704,-1860,-176,150,-177,2025-02-17 11:39:19,0.0
-13248,-2732,-1928,-148,162,-180,2025-02-17 11:39:19,0.0
-13364,-2684,-1884,-168,167,-165,2025-02-17 11:39:19,0.0
-13348,-2756,-1904,-170,155,-203,2025-02-17 11:39:19,0.0
-13312,-2692,-1936,-169,154,-186,2025-02-17 11:39:19,0.0
-13280,-2680,-1860,-166,180,-174,2025-02-17 11:39:19,0.0
-13280,-2696,-2084,-161,179,-179,2025-02-17 11:39:19,0.0
-13256,-2676,-1856,-157,146,-190,2025-02-17 11:39:19,0.0
-13312,-2768,-2032,-153,180,-163,2025-02-17 11:39:19,0.0
-13208,-2744,-2004,-151,170,-186,2025-02-17 11:39:19,0.0
-13220,-2780,-1868,-148,176,-176,2025-02-17 11:39:19,0.0
-13216,-2680,-1924,-144,189,-189,2025-02-17 11:39:19,0.0
-13320,-2740,-2000,-166,177,-191,2025-02-17 11:39:19,0.0
-13288,-2740,-1904,-163,164,-163,2025-02-17 11:39:19,0.0
-13324,-2760,-1864,-136,173,-170,2025-02-17 11:39:19,0.0
-13236,-2812,-1944,-151,184,-205,2025-02-17 11:39:19,0.0
-13248,-2648,-1824,-133,183,-148,2025-02-17 11:39:19,0.0
-13188,-2768,-1976,-162,157,-176,2025-02-17 11:39:19,0.0
-13284,-2692,-1876,-143,163,-187,2025-02-17 11:39:19,0.0
-13288,-2768,-1880,-165,164,-189,2025-02-17 11:39:19,0.0
-13292,-2828,-1848,-149,179,-168,2025-02-17 11:39:19,0.0
-13292,-2752,-1852,-152,185,-186,2025-02-17 11:39:19,0.0
-13260,-2668,-1992,-176,173,-172,2025-02-17 11:39:19,0.0
-13296,-2692,-1860,-108,161,-153,2025-02-17 11:39:19,0.0
-13284,-2784,-2036,-173,157,-187,2025-02-17 11:39:19,0.0
-13344,-2764,-2012,-139,155,-176,2025-02-17 11:39:19,0.0
-13280,-2728,-1908,-119,154,-148,2025-02-17 11:39:19,0.0
-13260,-2692,-1912,-141,190,-158,2025-02-17 11:39:19,0.0
-13292,-2736,-1916,-153,173,-172,2025-02-17 11:39:19,0.0
-13268,-2740,-1928,-129,174,-187,2025-02-17 11:39:19,0.0
-13324,-2748,-2044,-152,182,-182,2025-02-17 11:39:19,0.0
-13384,-2712,-1996,-159,151,-175,2025-02-17 11:39:19,0.0
-13192,-2732,-1988,-151,179,-168,2025-02-17 11:39:19,0.0
-13264,-2828,-1812,-156,155,-204,2025-02-17 11:39:19,0.0
-13232,-2772,-2060,-151,166,-178,2025-02-17 11:39:19,0.0
-13252,-2788,-1944,-155,149,-167,2025-02-17 11:39:19,0.0
-13304,-2744,-1856,-165,182,-167,2025-02-17 11:39:19,0.0
-13320,-2700,-1864,-135,169,-193,2025-02-17 11:39:19,0.0
-13208,-2760,-2004,-135,172,-154,2025-02-17 11:39:19,0.0
-13280,-2812,-1916,-137,165,-186,2025-02-17 11:39:19,0.0
-13356,-2780,-1988,-149,170,-175,2025-02-17 11:39:19,0.0
-13240,-2696,-1848,-165,150,-192,2025-02-17 11:39:19,0.0
-13276,-2712,-1856,-145,183,-182,2025-02-17 11:39:19,0.0
-13264,-2736,-1908,-163,173,-159,2025-02-17 11:39:19,0.0
-13248,-2708,-1940,-173,188,-180,2025-02-17 11:39:19,0.0
-13248,-2728,-1908,-153,152,-181,2025-02-17 11:39:20,0.0
-13264,-2668,-1988,-150,170,-170,2025-02-17 11:39:20,0.0
-13240,-2708,-1876,-128,192,-194,2025-02-17 11:39:20,0.0
-13248,-2860,-2108,-146,102,-148,2025-02-17 11:39:20,0.0
-13316,-2868,-1988,-101,-250,105,2025-02-17 11:39:20,0.0
-13152,-2800,-2716,-250,-656,13,2025-02-17 11:39:20,0.0
-12792,-2308,-1412,-136,-955,-372,2025-02-17 11:39:20,0.0
-9304,-3048,-3500,-23,-2749,-522,2025-02-17 11:39:20,0.0
-15908,-2228,-3440,1238,-5365,-1416,2025-02-17 11:39:20,0.0
-15656,-3652,-2036,477,-7700,-252,2025-02-17 11:39:20,0.0
-17844,-3368,-848,356,-5303,661,2025-02-17 11:39:20,0.0
-14412,-3108,-324,137,-2466,1360,2025-02-17 11:39:20,0.0
-12364,-1920,352,-296,1113,-275,2025-02-17 11:39:20,0.0
-13280,-2660,-632,-153,2605,-684,2025-02-17 11:39:20,0.0
-14084,-3364,-892,-282,3856,-297,2025-02-17 11:39:20,0.0
-14060,-2676,-1236,-312,4084,52,2025-02-17 11:39:20,0.0
-12408,-2844,-2228,-642,3087,-116,2025-02-17 11:39:20,0.0
-12476,-2320,-1804,76,337,-22,2025-02-17 11:39:20,0.0
-13336,-2836,-2340,322,-720,367,2025-02-17 11:39:20,0.0
-13184,-2860,-836,853,-1467,419,2025-02-17 11:39:20,0.0
-12280,-2444,-2088,949,-1501,-229,2025-02-17 11:39:20,0.0
-15788,-2160,-568,1319,-30,-482,2025-02-17 11:39:20,0.0
-15568,-4084,372,2275,4415,201,2025-02-17 11:39:20,0.0
-15860,-4200,-3312,-641,8912,-18,2025-02-17 11:39:20,0.0
-13720,-3260,-980,-2260,14331,-1724,2025-02-17 11:39:20,0.0
-11828,-4840,-2592,-1867,22251,-6043,2025-02-17 11:39:20,0.0
-13836,-4812,-2724,-50,32458,-10992,2025-02-17 11:39:20,0.0
-16604,-5728,-6356,1023,32767,-12919,2025-02-17 11:39:20,0.0
-16760,-6764,-8500,2789,32767,-10425,2025-02-17 11:39:20,0.0
-12520,-8148,-13208,5268,32767,-7408,2025-02-17 11:39:20,0.0
-9260,-9292,-15556,6201,32767,-5243,2025-02-17 11:39:20,0.0
-6260,-10120,-18480,6160,32767,-3754,2025-02-17 11:39:20,0.0
-3972,-10284,-21988,3793,32767,-3471,2025-02-17 11:39:20,0.0
-1756,-9816,-23948,33,30437,-5002,2025-02-17 11:39:20,0.0
-3096,-8876,-22980,-4212,16150,-7557,2025-02-17 11:39:20,0.0
-4480,-6796,-20748,-6153,6303,-8604,2025-02-17 11:39:20,0.0
-7636,-4784,-19528,-7434,547,-7564,2025-02-17 11:39:20,
-10372,-2768,-16652,-7183,-592,-3139,2025-02-17 11:39:20,0.0
-9944,-1680,-14560,-5777,763,749,2025-02-17 11:39:20,0.0
-5564,-1300,-11944,-2933,1358,2765,2025-02-17 11:39:20,0.0
-3208,-1776,-11804,-119,-310,3007,2025-02-17 11:39:20,0.0
-3544,-3232,-12652,2620,-4067,2604,2025-02-17 11:39:20,0.0
-3960,-4612,-15084,3625,-7729,2874,2025-02-17 11:39:20,0.0
-3596,-6016,-16340,3567,-12192,3492,2025-02-17 11:39:20,0.0
-1996,-6672,-17452,2532,-17328,3293,2025-02-17 11:39:20,0.0
-1604,-7044,-19224,1086,-22155,1603,2025-02-17 11:39:20,0.0
-5308,-6260,-20396,-2305,-23466,-120,2025-02-17 11:39:20,0.0
-10436,-4368,-19204,-3747,-18225,2184,2025-02-17 11:39:20,0.0
-11000,-3052,-17548,-4087,-10243,4974,2025-02-17 11:39:20,0.0
-10184,-2100,-16900,-4101,-2844,6174,2025-02-17 11:39:20,0.0
-6704,-1972,-13820,-4069,4720,5643,2025-02-17 11:39:20,0.0
-5292,-2152,-12164,-3014,9673,3224,2025-02-17 11:39:20,0.0
-5128,-2188,-11268,-2077,12564,1226,2025-02-17 11:39:20,0.0
-4492,-2292,-11296,-1092,12955,-332,2025-02-17 11:39:20,0.0
-5344,-2152,-11888,-178,11101,-425,2025-02-17 11:39:20,0.0
-6164,-2040,-12856,694,7050,1126,2025-02-17 11:39:20,0.0
-6872,-2092,-14784,997,1365,3975,2025-02-17 11:39:20,0.0
-6176,-2852,-16048,704,-4051,5833,2025-02-17 11:39:20,0.0
-5024,-3908,-15616,-83,-7766,5811,2025-02-17 11:39:20,0.0
-4116,-4776,-14344,-1761,-10290,4470,2025-02-17 11:39:20,0.0
-3892,-4296,-12408,-2526,-11349,3357,2025-02-17 11:39:20,0.0
-4496,-3472,-10520,-2124,-11140,2762,2025-02-17 11:39:21,0.0
-4896,-2536,-10204,-1491,-8983,2721,2025-02-17 11:39:21,0.0
-4620,-1644,-9988,-724,-6336,2213,2025-02-17 11:39:21,0.0
-3240,-1508,-10524,-1178,-3993,834,2025-02-17 11:39:21,0.0
-2352,-1856,-10760,-2566,-2673,-1236,2025-02-17 11:39:21,0.0
-3584,-1808,-10476,-3801,-1154,-3086,2025-02-17 11:39:21,0.0
-4384,-1604,-9640,-4297,567,-4082,2025-02-17 11:39:21,0.0
-5320,-1152,-9432,-4379,2746,-4998,2025-02-17 11:39:21,0.0
-6340,-844,-9124,-4461,4968,-5140,2025-02-17 11:39:21,0.0
-6436,-576,-8448,-4011,7022,-5494,2025-02-17 11:39:21,0.0
-6312,-436,-8592,-3710,8602,-6175,2025-02-17 11:39:21,0.0
-6580,-260,-8724,-4003,9640,-6742,2025-02-17 11:39:21,0.0
-5724,-344,-8144,-3075,8725,-7519,2025-02-17 11:39:21,0.0
-5660,-628,-8528,-2257,7082,-8184,2025-02-17 11:39:21,0.0
-6408,-1028,-8828,-1941,5624,-8459,2025-02-17 11:39:21,0.0
-6812,-1536,-8988,-2085,4376,-8068,2025-02-17 11:39:21,0.0
-6368,-1992,-8736,-1975,3065,-7997,2025-02-17 11:39:21,0.0
-6356,-1596,-9376,-1461,1179,-8103,2025-02-17 11:39:21,0.0
-6132,-1608,-10848,-2621,-1072,-8730,2025-02-17 11:39:21,0.0
-3656,-4756,-12116,-6232,-3641,-10870,2025-02-17 11:39:21,0.0
-7548,-2412,-8184,-6339,-4386,-11030,2025-02-17 11:39:21,0.0
-6952,-2896,-8928,-6562,-3819,-10199,2025-02-17 11:39:21,0.0
-5468,-2412,-9012,-7808,-4634,-9851,2025-02-17 11:39:21,0.0
-4308,-2156,-9176,-9802,-9495,-9464,2025-02-17 11:39:21,0.0
-4124,-1068,-8644,-11086,-15956,-8091,2025-02-17 11:39:21,0.0
-3120,136,-7672,-10474,-22687,-7355,2025-02-17 11:39:21,0.0
-3192,964,-8200,-10271,-27109,-6960,2025-02-17 11:39:21,0.0
-2908,584,-7220,-9772,-30152,-6807,2025-02-17 11:39:21,0.0
-2496,-692,-7908,-9488,-31440,-6647,2025-02-17 11:39:21,0.0
-3928,-1640,-8780,-10252,-30552,-6079,2025-02-17 11:39:21,0.0
-5800,-2564,-9512,-10953,-26616,-5386,2025-02-17 11:39:21,0.0
-6964,-3140,-10276,-11798,-20459,-4469,2025-02-17 11:39:21,0.0
-6640,-3768,-10452,-12927,-13456,-3749,2025-02-17 11:39:21,0.0
-6172,-4076,-10944,-14562,-6298,-3788,2025-02-17 11:39:21,0.0
-6748,-4324,-10720,-15796,-602,-4440,2025-02-17 11:39:21,0.0
-7244,-4404,-10048,-16682,4621,-5679,2025-02-17 11:39:21,0.0
-14280,-4976,4604,-24865,-21459,-10269,2025-02-17 11:39:21,0.0
-11304,-4276,-1996,-20010,-31037,-4997,2025-02-17 11:39:21,0.0
-8728,-4652,-5136,-16317,-32597,-4623,2025-02-17 11:39:21,0.0
-12932,-2900,-8220,-20418,-29289,-5517,2025-02-17 11:39:21,0.0
-16972,-1296,-1044,-22867,-19913,-5064,2025-02-17 11:39:21,0.0
-14844,128,1552,-21417,2937,-4202,2025-02-17 11:39:21,0.0
-12596,-1748,-900,-17990,2017,-3830,2025-02-17 11:39:21,0.0
-14576,-1364,-4316,-15820,-2003,-3189,2025-02-17 11:39:21,0.0
-14768,-500,-4156,-15557,-3983,-1961,2025-02-17 11:39:21,0.0
-13456,-88,-2588,-14872,-4580,-1570,2025-02-17 11:39:21,0.0
-12956,-296,1104,-11919,-4137,-1560,2025-02-17 11:39:21,0.0
-12932,-796,2156,-7360,-2854,-1296,2025-02-17 11:39:21,0.0
-13020,-1828,-884,-4807,-1511,-754,2025-02-17 11:39:21,0.0
-12160,-2204,-5240,-4866,-1109,-522,2025-02-17 11:39:21,0.0
-9200,-2084,-868,-4702,-2154,-1832,2025-02-17 11:39:21,0.0
-9232,-1776,-11136,-5859,-6975,-4225,2025-02-17 11:39:21,0.0
-13564,-1412,-10808,-12671,-4546,-4350,2025-02-17 11:39:21,0.0
-15448,-152,-4196,-14380,2140,-3906,2025-02-17 11:39:21,0.0
-14840,-720,-824,-13756,1312,-3996,2025-02-17 11:39:21,0.0
-15608,-2104,-2552,-12583,-2720,-4119,2025-02-17 11:39:21,0.0
-16128,-3056,-2832,-12598,-4172,-3664,2025-02-17 11:39:21,0.0
-15244,-3248,-1036,-12322,-3118,-3502,2025-02-17 11:39:21,0.0
-15124,-3656,392,-11196,-2761,-2710,2025-02-17 11:39:21,0.0
-13848,-3916,788,-10136,-2993,-2263,2025-02-17 11:39:21,0.0
-13068,-3388,296,-9171,-3004,-1931,2025-02-17 11:39:21,0.0
-12056,-3024,-232,-7978,-2620,-2069,2025-02-17 11:39:22,0.0
-11832,-3264,324,-6520,-1614,-2402,2025-02-17 11:39:22,0.0
-12276,-3220,-1292,-5493,-176,-2473,2025-02-17 11:39:22,0.0
-12232,-2868,-1888,-5232,609,-2965,2025-02-17 11:39:22,0.0
-13480,-2568,-2892,-5487,915,-2684,2025-02-17 11:39:22,0.0
-13856,-3348,-1376,-5175,505,-2263,2025-02-17 11:39:22,0.0
-14392,-3080,-460,-4078,-301,-881,2025-02-17 11:39:22,0.0
-13172,-3224,-320,-3075,-1249,-178,2025-02-17 11:39:22,0.0
-12032,-4192,748,-2100,-1495,-485,2025-02-17 11:39:22,0.0
-12128,-3848,48,-1171,-53,-355,2025-02-17 11:39:22,0.0
-12944,-2908,-476,-596,1599,289,2025-02-17 11:39:22,0.0
-13376,-1708,-1104,-529,2056,810,2025-02-17 11:39:22,0.0
-13688,-1112,-2224,-638,1967,1326,2025-02-17 11:39:22,0.0
-13868,-1852,-3168,-926,2049,1154,2025-02-17 11:39:22,0.0
-13816,-1912,-4296,-637,2852,564,2025-02-17 11:39:22,
-14716,-1200,-5088,-1507,3869,-141,2025-02-17 11:39:22,0.0
-14832,728,-1876,-2022,1483,-412,2025-02-17 11:39:22,0.0
-14492,864,-76,-944,-2108,-58,2025-02-17 11:39:22,0.0
-13176,-692,-1840,-303,-3788,109,2025-02-17 11:39:22,0.0
-12384,-2216,-2292,411,-1619,-267,2025-02-17 11:39:22,0.0
-12160,-2492,-4816,-49,1687,-891,2025-02-17 11:39:22,0.0
-11272,-2304,-4668,-1377,4391,-2066,2025-02-17 11:39:22,0.0
-11648,-1368,-3488,-2055,3771,-3591,2025-02-17 11:39:22,0.0
-14772,-1664,-1824,-2367,3603,-3533,2025-02-17 11:39:22,0.0
-15016,-1916,-1372,-1424,1962,-2100,2025-02-17 11:39:22,0.0
-14652,-1300,-1164,-389,181,-651,2025-02-17 11:39:22,0.0
-12560,-652,-2336,446,-742,-237,2025-02-17 11:39:22,0.0
-12020,-776,-2364,269,647,-356,2025-02-17 11:39:22,0.0
-12980,-1556,-2156,454,1387,-509,2025-02-17 11:39:22,0.0
-14400,-1168,-1844,1220,1187,161,2025-02-17 11:39:22,0.0
-14872,-936,-1648,2073,-26,583,2025-02-17 11:39:22,0.0
-14220,-1060,-2120,2604,-953,875,2025-02-17 11:39:22,0.0
-13564,-1204,-2812,2751,-1630,1081,2025-02-17 11:39:22,0.0
-11964,-1556,-3680,2233,-995,705,2025-02-17 11:39:22,0.0
-11776,-1688,-3820,1433,407,-41,2025-02-17 11:39:22,0.0
-12124,-1864,-2460,1280,2081,-400,2025-02-17 11:39:22,0.0
-13264,-1828,-1560,1526,3746,-348,2025-02-17 11:39:22,0.0
-13488,-1688,-644,2101,5818,-36,2025-02-17 11:39:22,0.0
-14024,-2152,-652,2843,8255,623,2025-02-17 11:39:22,0.0
-14812,-2540,-632,3781,10591,1935,2025-02-17 11:39:22,0.0
-14596,-2780,-872,4772,13945,3598,2025-02-17 11:39:22,0.0
-13432,-2680,-2188,5674,17633,5029,2025-02-17 11:39:22,0.0
-12664,-1860,-4664,5258,21049,6103,2025-02-17 11:39:22,0.0
-11712,-2256,-5820,4454,24404,7717,2025-02-17 11:39:22,0.0
-12460,-3360,-6900,4037,25686,9340,2025-02-17 11:39:22,0.0
-12572,-3848,-8128,3439,25538,10968,2025-02-17 11:39:22,0.0
-11172,-4828,-9340,2319,24093,11787,2025-02-17 11:39:22,0.0
-11744,-5280,-9812,895,20841,12305,2025-02-17 11:39:22,0.0
-11688,-5320,-11024,-983,16130,13778,2025-02-17 11:39:22,0.0
-12888,-4656,-10636,-2714,9566,16880,2025-02-17 11:39:22,0.0
-13948,-3792,-9788,-3151,6981,20268,2025-02-17 11:39:22,5
-12908,-3904,-9728,-3307,7006,22603,2025-02-17 11:39:22,5
-11272,-4804,-9588,-4293,4177,24381,2025-02-17 11:39:22,5
-8960,-7672,-10800,-5700,-3330,26625,2025-02-17 11:39:22,5
-8252,-7716,-13124,-7893,-9382,28160,2025-02-17 11:39:22,5
-7552,-5976,-13936,-13377,-16729,32767,2025-02-17 11:39:22,5
-6572,-4480,-9632,-18569,-21770,32767,2025-02-17 11:39:22,5
-3972,-3644,-7260,-23752,-24446,32767,2025-02-17 11:39:22,5
3928,-4392,-804,-24758,-25065,32767,2025-02-17 11:39:22,5
3800,-4636,1240,-22870,-25273,32767,2025-02-17 11:39:22,5
3204,-4412,1440,-20685,-25171,32767,2025-02-17 11:39:22,5
2980,-4448,2048,-17890,-25038,32767,2025-02-17 11:39:23,5
3304,-4108,1636,-15388,-25050,32767,2025-02-17 11:39:23,5
3588,-4020,1500,-12843,-25086,32767,2025-02-17 11:39:23,5
3304,-3924,1788,-10399,-25162,32767,2025-02-17 11:39:23,5
3064,-3752,1908,-7633,-25311,32767,2025-02-17 11:39:23,5
3060,-3816,1988,-5110,-25334,32767,2025-02-17 11:39:23,5
3180,-3780,2224,-2557,-25092,32767,2025-02-17 11:39:23,5
3348,-3760,1960,317,-24499,32767,2025-02-17 11:39:23,5
3580,-3724,1584,2403,-23876,32767,2025-02-17 11:39:23,5
3684,-3768,1152,4027,-23216,32767,2025-02-17 11:39:23,5
3780,-3512,944,5116,-22642,32767,2025-02-17 11:39:23,5
3524,-3080,1084,6353,-22241,32767,2025-02-17 11:39:23,5
3724,-2944,756,7423,-22046,32767,2025-02-17 11:39:23,5
3720,-2728,992,8443,-21727,32767,2025-02-17 11:39:23,5
3788,-2976,728,9423,-21330,32264,2025-02-17 11:39:23,5
3884,-2992,556,10115,-20743,30583,2025-02-17 11:39:23,5
3436,-1896,804,11076,-19628,28219,2025-02-17 11:39:23,5
3784,-2876,232,12478,-19262,27468,2025-02-17 11:39:23,5
7548,32767,17584,32767,-32768,32767,2025-02-17 11:39:23,5
-15108,-32768,2940,32767,-32768,32767,2025-02-17 11:39:23,5
27692,-32768,-32768,32767,32767,-4493,2025-02-17 11:39:23,5
32767,-32768,-32768,32767,32767,-32768,2025-02-17 11:39:23,5
19840,-29376,-26412,22365,32767,-32768,2025-02-17 11:39:23,5
7712,-16764,-5908,17886,32767,-32768,2025-02-17 11:39:23,5
3844,-11372,1256,17443,32767,-32768,2025-02-17 11:39:23,5
13512,-6196,8972,16396,32767,-32768,2025-02-17 11:39:23,5
11404,-2308,7628,19944,32767,-32768,2025-02-17 11:39:23,5
11272,668,4972,21093,32767,-32768,2025-02-17 11:39:23,5
9088,8324,4768,15411,32767,-23894,2025-02-17 11:39:23,5
6692,8500,6280,6184,30299,-8474,2025-02-17 11:39:23,5
8540,8160,10008,-44,19134,4785,2025-02-17 11:39:23,5
11496,5508,6720,-4283,7480,11381,2025-02-17 11:39:23,5
13616,3764,7048,-5268,-4303,12930,2025-02-17 11:39:23,5
19920,3244,7548,-3342,-22793,8902,2025-02-17 11:39:23,5
24460,2816,7596,-1316,-32768,2594,2025-02-17 11:39:23,5
19372,-944,4440,-1775,-32768,208,2025-02-17 11:39:23,5
20636,-1884,1972,-3364,-32768,102,2025-02-17 11:39:23,5
21392,-2388,-1276,-5386,-32768,-1122,2025-02-17 11:39:23,5
21336,-3620,-5356,-8610,-32768,-2641,2025-02-17 11:39:23,5
20340,-3492,-7820,-12189,-32768,-3966,2025-02-17 11:39:23,5
14884,-760,-6444,-12565,-32768,-1737,2025-02-17 11:39:23,5
12784,1612,-8932,-10092,-32768,2203,2025-02-17 11:39:23,5
11636,1832,-12876,-9120,-32768,4534,2025-02-17 11:39:23,5
9100,1652,-14684,-9959,-32768,5391,2025-02-17 11:39:23,5
6072,2136,-14984,-8051,-32768,3758,2025-02-17 11:39:23,5
2164,3528,-15664,-4034,-32768,1607,2025-02-17 11:39:23,5
-976,4892,-17124,931,-11607,-179,2025-02-17 11:39:23,5
-1740,5092,-18676,1187,3370,-348,2025-02-17 11:39:23,5
2476,1800,-13736,1278,10675,-237,2025-02-17 11:39:23,5
6204,468,-12888,2397,11972,-184,2025-02-17 11:39:23,5
8732,300,-14288,2155,9952,-180,2025-02-17 11:39:23,5
9900,360,-14928,1131,6028,-110,2025-02-17 11:39:23,5
10556,560,-14856,-37,1463,-81,2025-02-17 11:39:23,5
9504,768,-13824,-628,-1830,-297,2025-02-17 11:39:23,5
5708,1248,-14504,-109,-465,-235,2025-02-17 11:39:23,5
6492,1168,-14952,109,1256,-123,2025-02-17 11:39:23,5
7608,852,-14284,-18,1054,-135,2025-02-17 11:39:23,5
7884,888,-14044,-250,-36,-196,2025-02-17 11:39:23,5
6852,1132,-14420,-243,-305,-222,2025-02-17 11:39:23,5
6748,1136,-14368,-100,301,-188,2025-02-17 11:39:23,5
7160,996,-14352,-68,489,-159,2025-02-17 11:39:24,5
7532,972,-14288,-134,109,-163,2025-02-17 11:39:24,5
7156,984,-14492,-188,-49,-188,2025-02-17 11:39:24,5
7020,1060,-14372,-145,189,-171,2025-02-17 11:39:24,5
7276,1060,-14456,-129,291,-161,2025-02-17 11:39:24,5
7392,888,-14412,-127,149,-173,2025-02-17 11:39:24,5
7212,904,-14392,-152,80,-181,2025-02-17 11:39:24,5
7024,940,-14332,-157,134,-175,2025-02-17 11:39:24,5
7164,984,-14244,-154,213,-154,2025-02-17 11:39:24,5
7212,924,-14240,-129,194,-166,2025-02-17 11:39:24,5
7232,1032,-14376,-136,141,-180,2025-02-17 11:39:24,5
7124,996,-14320,-151,168,-177,2025-02-17 11:39:24,5
7180,1008,-14368,-154,176,-165,2025-02-17 11:39:24,5
7156,992,-14408,-130,183,-173,2025-02-17 11:39:24,5
7136,1020,-14348,-165,141,-164,2025-02-17 11:39:24,5
7156,920,-14264,-171,144,-179,2025-02-17 11:39:24,5
7220,1060,-14320,-144,166,-185,2025-02-17 11:39:24,5
7188,924,-14420,-150,135,-173,2025-02-17 11:39:24,5
7132,1036,-14420,-187,176,-180,2025-02-17 11:39:24,5
7112,948,-14420,-165,177,-174,2025-02-17 11:39:24,5
7064,984,-14532,-130,131,-197,2025-02-17 11:39:24,5
7200,984,-14212,-120,154,-174,2025-02-17 11:39:24,5
7340,984,-14580,-154,231,-192,2025-02-17 11:39:24,5
7184,892,-14360,-161,137,-179,2025-02-17 11:39:24,5
7136,948,-14328,-123,146,-167,2025-02-17 11:39:24,5
7172,988,-14352,-141,173,-189,2025-02-17 11:39:24,5
7212,1048,-14500,-159,158,-179,2025-02-17 11:39:24,5
7196,940,-14316,-148,164,-168,2025-02-17 11:39:24,5
7076,1020,-14480,-140,160,-155,2025-02-17 11:39:24,5
7172,984,-14360,-144,178,-168,2025-02-17 11:39:24,5
7140,984,-14216,-146,163,-175,2025-02-17 11:39:24,5
7292,968,-14420,-189,163,-158,2025-02-17 11:39:24,5
7204,940,-14452,-164,177,-181,2025-02-17 11:39:24,5
7188,944,-14300,-158,151,-191,2025-02-17 11:39:24,5
7224,992,-14500,-151,170,-192,2025-02-17 11:39:24,5
7168,904,-14484,-182,195,-194,2025-02-17 11:39:24,5
7312,1148,-14468,-183,100,-181,2025-02-17 11:39:24,5
7028,828,-14280,-113,152,-161,2025-02-17 11:39:24,5
7216,1044,-14472,-120,183,-159,2025-02-17 11:39:24,5
7284,1012,-14328,-185,149,-194,2025-02-17 11:39:24,5
7120,948,-14304,-191,130,-160,2025-02-17 11:39:24,5
7156,1036,-14360,-109,197,-167,2025-02-17 11:39:24,5
7276,964,-14368,-125,173,-168,2025-02-17 11:39:24,0.0
7240,928,-14412,-143,173,-188,2025-02-17 11:39:24,0.0
7040,924,-14284,-147,136,-168,2025-02-17 11:39:24,0.0
7148,1008,-14452,-165,199,-169,2025-02-17 11:39:24,0.0
7128,1024,-14400,-157,178,-166,2025-02-17 11:39:24,0.0
7260,976,-14348,-147,161,-196,2025-02-17 11:39:24,0.0
7152,1000,-14380,-176,152,-183,2025-02-17 11:39:24,0.0
7132,1012,-14452,-149,137,-186,2025-02-17 11:39:24,0.0
7236,900,-14312,-164,181,-176,2025-02-17 11:39:24,0.0
7284,948,-14428,-132,155,-187,2025-02-17 11:39:24,0.0
7184,964,-14332,-162,144,-173,2025-02-17 11:39:24,0.0
7184,932,-14464,-140,172,-198,2025-02-17 11:39:24,0.0
7168,984,-14428,-159,177,-186,2025-02-17 11:39:24,0.0
7076,924,-14316,-173,159,-176,2025-02-17 11:39:24,0.0
7164,1060,-14292,-145,158,-184,2025-02-17 11:39:24,0.0
7180,1012,-14304,-140,180,-184,2025-02-17 11:39:24,0.0
7112,1052,-14388,-141,170,-184,2025-02-17 11:39:24,0.0
7092,1060,-14244,-145,170,-180,2025-02-17 11:39:25,0.0
7124,1044,-14284,-174,178,-178,2025-02-17 11:39:25,0.0
7180,1052,-14344,-135,166,-158,2025-02-17 11:39:25,0.0
7208,964,-14380,-137,165,-193,2025-02-17 11:39:25,0.0
7276,924,-14356,-126,182,-180,2025-02-17 11:39:25,0.0
7044,956,-14212,-145,165,-153,2025-02-17 11:39:25,0.0
7116,980,-14496,-160,187,-185,2025-02-17 11:39:25,0.0
7180,956,-14496,-154,165,-156,2025-02-17 11:39:25,0.0
7144,968,-14324,-168,193,-176,2025-02-17 11:39:25,0.0
7132,1004,-14384,-172,178,-180,2025-02-17 11:39:25,0.0
7232,1044,-14364,-163,174,-184,2025-02-17 11:39:25,0.0
7196,948,-14452,-143,180,-156,2025-02-17 11:39:25,0.0
7152,1032,-14416,-160,169,-183,2025-02-17 11:39:25,0.0
7196,1008,-14320,-163,168,-201,2025-02-17 11:39:25,0.0
7096,884,-14288,-127,170,-198,2025-02-17 11:39:25,0.0
7156,996,-14424,-142,175,-185,2025-02-17 11:39:25,0.0
7140,996,-14400,-140,163,-167,2025-02-17 11:39:25,0.0
7224,968,-14348,-155,163,-194,2025-02-17 11:39:25,0.0
7084,1000,-14424,-157,168,-180,2025-02-17 11:39:25,0.0
7200,1032,-14324,-161,171,-187,2025-02-17 11:39:25,0.0
7032,916,-14380,-210,256,-242,2025-02-17 11:39:25,0.0
7068,968,-14356,-442,443,-343,2025-02-17 11:39:25,0.0
6468,4148,-6648,5716,3679,-1926,2025-02-17 11:39:25,0.0
4712,-1020,-23060,-442,-343,429,2025-02-17 11:39:25,0.0
9524,-968,-15220,-2875,-399,-228,2025-02-17 11:39:25,0.0
7220,1596,-13184,-438,-1018,-513,2025-02-17 11:39:25,0.0
7764,1332,-11556,718,-834,-832,2025-02-17 11:39:25,0.0
6752,1792,-14824,1683,-513,-513,2025-02-17 11:39:25,0.0
6432,68,-15540,-45,2231,-2363,2025-02-17 11:39:25,0.0
5108,328,-14076,1424,3135,-1152,2025-02-17 11:39:25,0.0
5116,992,-14540,1283,2517,176,2025-02-17 11:39:25,0.0
4000,2100,-13716,1632,1075,2124,2025-02-17 11:39:25,0.0
5244,1112,-14912,1597,2401,3773,2025-02-17 11:39:25,0.0
6516,356,-15880,1508,3452,3941,2025-02-17 11:39:25,0.0
8792,1244,-16064,2328,1444,7089,2025-02-17 11:39:25,
11956,-1236,-16324,-327,2355,4897,2025-02-17 11:39:25,0.0
14264,-3276,-15268,-639,4277,-1333,2025-02-17 11:39:25,0.0
8824,-852,-15352,-1992,2316,-3760,2025-02-17 11:39:25,0.0
9152,2488,-12880,-1624,-2675,-1749,2025-02-17 11:39:25,0.0
9320,1756,-12244,-311,-5225,-993,2025-02-17 11:39:25,0.0
7416,308,-14924,-827,-4432,-1621,2025-02-17 11:39:25,0.0
7324,-1056,-17820,-3436,-2758,-2587,2025-02-17 11:39:25,0.0
8140,-460,-17324,-4500,-1040,-3474,2025-02-17 11:39:25,0.0
8820,200,-16484,-5436,-1220,-3957,2025-02-17 11:39:25,0.0
9532,56,-14872,-4548,-2882,-3800,2025-02-17 11:39:25,0.0
8416,-1888,-14948,-3286,-803,-5235,2025-02-17 11:39:25,0.0
8080,-3496,-15720,-1144,-21,-5421,2025-02-17 11:39:25,0.0
9252,-2028,-13872,3584,-4014,-5389,2025-02-17 11:39:25,0.0
8504,-892,-23196,6454,-8985,-7089,2025-02-17 11:39:25,0.0
4240,112,-28240,2506,-8941,-9007,2025-02-17 11:39:25,0.0
-148,5244,-23912,-4031,-4882,-7825,2025-02-17 11:39:25,0.0
-724,9484,-23176,-9623,-1060,-874,2025-02-17 11:39:25,0.0
6396,7028,-16784,-17869,2710,6772,2025-02-17 11:39:25,0.0
11384,3392,-13252,-16565,-2908,4711,2025-02-17 11:39:25,0.0
10596,1356,-15084,-12610,-14547,3246,2025-02-17 11:39:25,0.0
8316,552,-16872,-9180,-18562,561,2025-02-17 11:39:25,0.0
9920,-16,-21508,-9215,-17193,-2992,2025-02-17 11:39:25,0.0
5128,2584,-16232,-9037,-13304,-5915,2025-02-17 11:39:25,0.0
3664,7736,-13516,1532,-1636,-6441,2025-02-17 11:39:25,0.0
1204,8328,-21424,4457,18152,-3121,2025-02-17 11:39:26,0.0
9776,8420,-17748,7057,32767,-4827,2025-02-17 11:39:26,0.0
17148,6892,-16832,10797,32767,-11863,2025-02-17 11:39:26,0.0
24532,4160,-16188,15316,32767,-23409,2025-02-17 11:39:26,0.0
16492,76,-21316,14994,27629,-32369,2025-02-17 11:39:26,0.0
3804,-1284,-14292,11770,8035,-28725,2025-02-17 11:39:26,0.0
-2600,-1896,-12516,11525,-6859,-16713,2025-02-17 11:39:26,0.0
5200,720,-16936,3125,-17006,-7418,2025-02-17 11:39:26,0.0
6912,3592,-13276,248,-21417,-4912,2025-02-17 11:39:26,0.0
6120,5752,-13584,3059,-22537,-2424,2025-02-17 11:39:26,0.0
4620,5436,-19608,5089,-19729,-689,2025-02-17 11:39:26,0.0
3800,4140,-22900,2041,-11935,-6,2025-02-17 11:39:26,0.0
5064,2784,-22572,-841,-3139,350,2025-02-17 11:39:26,0.0
6368,2664,-17728,-2554,508,-395,2025-02-17 11:39:26,0.0
8060,2788,-14088,-2349,-1172,-1366,2025-02-17 11:39:26,0.0
9160,3092,-12216,-175,-5799,-4376,2025-02-17 11:39:26,0.0
8264,3788,-10436,3844,-8727,-7710,2025-02-17 11:39:26,0.0
4340,2196,-13976,4535,-11473,-10074,2025-02-17 11:39:26,0.0
1600,508,-17324,4228,-12055,-9114,2025-02-17 11:39:26,0.0
692,344,-19392,2474,-12860,-6891,2025-02-17 11:39:26,0.0
3080,1472,-19688,549,-15177,-6161,2025-02-17 11:39:26,0.0
3972,1744,-19748,-2720,-17150,-6781,2025-02-17 11:39:26,0.0
2164,2012,-14940,-4777,-19090,-7701,2025-02-17 11:39:26,0.0
2776,1860,-12596,-4420,-18981,-7277,2025-02-17 11:39:26,0.0
1444,2372,-11336,-4966,-19296,-6675,2025-02-17 11:39:26,0.0
-240,3092,-12636,-7170,-18110,-4440,2025-02-17 11:39:26,0.0
-740,3700,-14464,-10586,-14549,-966,2025-02-17 11:39:26,0.0
528,3776,-15748,-13287,-8914,462,2025-02-17 11:39:26,0.0
252,4292,-14640,-13383,-1588,-711,2025-02-17 11:39:26,0.0
436,4588,-11740,-8849,6013,-3797,2025-02-17 11:39:26,0.0
636,3876,-12240,-447,12792,-7265,2025-02-17 11:39:26,0.0
-528,3556,-17784,4534,19571,-9272,2025-02-17 11:39:26,0.0
-64,3684,-19356,1635,26338,-10736,2025-02-17 11:39:26,0.0
-256,4072,-14336,-415,32675,-12455,2025-02-17 11:39:26,0.0
-2036,4664,-8852,1045,32767,-12085,2025-02-17 11:39:26,0.0
-1568,5032,-5624,4577,32767,-10123,2025-02-17 11:39:26,0.0
992,4692,-4004,8182,30652,-9011,2025-02-17 11:39:26,0.0
1332,4820,-7180,11028,20327,-8474,2025-02-17 11:39:26,0.0
1312,5156,-9620,10428,6651,-8847,2025-02-17 11:39:26,0.0
-20,4652,-10176,9576,-8008,-7941,2025-02-17 11:39:26,0.0
-1512,3928,-10552,9954,-17987,-6410,2025-02-17 11:39:26,0.0
-2792,3656,-10316,9946,-22056,-4506,2025-02-17 11:39:26,0.0
-1240,2752,-9852,10599,-20976,-3320,2025-02-17 11:39:26,0.0
1272,1168,-13172,8334,-16951,-5214,2025-02-17 11:39:26,0.0
220,-2668,-9796,-1608,-24585,-1226,2025-02-17 11:39:26,0.0
4392,-4248,-7340,-7669,-32768,1484,2025-02-17 11:39:26,0.0
7824,-3796,-3488,-7310,-32768,-1954,2025-02-17 11:39:26,0.0
3784,2128,-3012,566,-32768,-6032,2025-02-17 11:39:26,0.0
-920,5148,-10676,4161,-32768,-8543,2025-02-17 11:39:26,0.0
-6640,6224,-13656,1334,-32768,-8106,2025-02-17 11:39:26,0.0
-8708,4216,-10636,-1896,-24625,-7361,2025-02-17 11:39:26,0.0
-11136,2304,-6852,-2626,-12770,-6547,2025-02-17 11:39:26,0.0
-11896,1168,-4816,-1897,-3234,-4751,2025-02-17 11:39:26,0.0
-7012,1068,-4204,-747,4618,-4783,2025-02-17 11:39:26,0.0
-5604,4296,-4484,1135,8481,-6026,2025-02-17 11:39:26,0.0
-3152,5204,-7032,2381,8296,-7821,2025-02-17 11:39:26,0.0
-7900,3432,-15248,-1755,2727,-5960,2025-02-17 11:39:26,0.0
-2508,2092,-5768,-5750,-6732,-5324,2025-02-17 11:39:26,0.0
-5520,2344,-5348,-1343,-15759,-5507,2025-02-17 11:39:26,0.0
-10100,2928,-9448,1041,-23651,-2366,2025-02-17 11:39:26,0.0
-10824,1460,-10128,2695,-25093,567,2025-02-17 11:39:26,0.0
-10620,-896,-10412,6634,-25413,3122,2025-02-17 11:39:27,0.0
-10984,-4128,-15996,8707,-24716,1781,2025-02-17 11:39:27,0.0
-13128,-5744,-18508,4973,-22097,-613,2025-02-17 11:39:27,0.0
-12400,-5336,-14276,2288,-19917,-1763,2025-02-17 11:39:27,0.0
-10720,-3280,-9804,2542,-19251,-2194,2025-02-17 11:39:27,0.0
-8968,-812,-8872,1118,-19563,-4778,2025-02-17 11:39:27,0.0
-10168,1992,-172,-522,-22177,-6568,2025-02-17 11:39:27,0.0
-11468,5676,26916,2626,-32478,-7459,2025-02-17 11:39:27,0.0
-14732,-1628,7096,10180,-29482,-8140,2025-02-17 11:39:27,0.0
-16448,-156,-5456,5348,-22505,-4962,2025-02-17 11:39:27,0.0
-12960,708,-1632,2987,-18965,-2606,2025-02-17 11:39:27,0.0
-11756,-1636,840,4986,-17275,-2167,2025-02-17 11:39:27,0.0
-13264,-1776,468,4362,-14429,-1461,2025-02-17 11:39:27,0.0
-10460,-1676,-1088,583,-4696,-2366,2025-02-17 11:39:27,0.0
-8768,-1656,-600,-2847,5205,-5782,2025-02-17 11:39:27,
-12872,-3604,456,-3390,9157,-6951,2025-02-17 11:39:27,0.0
-14136,-3200,-1284,-3272,8174,-6686,2025-02-17 11:39:27,0.0
-14020,-3176,-1200,-3462,6768,-5866,2025-02-17 11:39:27,0.0
-12732,-3652,-1076,-3609,6366,-5854,2025-02-17 11:39:27,0.0
-13304,-4068,-292,-3771,6449,-6254,2025-02-17 11:39:27,0.0
-14984,-4380,412,-3918,5895,-5565,2025-02-17 11:39:27,0.0
-14700,-4828,584,-3238,3096,-4321,2025-02-17 11:39:27,0.0
-14488,-4940,452,-2803,-578,-3527,2025-02-17 11:39:27,0.0
-13948,-4152,860,-2708,-2924,-3854,2025-02-17 11:39:27,0.0
-13860,-4080,1648,-2645,-4470,-3865,2025-02-17 11:39:27,0.0
-12612,-4380,2752,-1811,-6642,-3530,2025-02-17 11:39:27,0.0
-11792,-4956,2960,-802,-8437,-3142,2025-02-17 11:39:27,0.0
-11416,-4256,2452,-404,-7446,-2378,2025-02-17 11:39:27,0.0
-11360,-3816,2708,-144,-3463,-1354,2025-02-17 11:39:27,0.0
-11032,-4284,2464,105,-475,-860,2025-02-17 11:39:27,0.0
-10432,-3524,656,-111,709,-1030,2025-02-17 11:39:27,0.0
-11180,-2208,540,-1158,876,-1213,2025-02-17 11:39:27,0.0
-11360,-1704,2648,-1507,1145,-1397,2025-02-17 11:39:27,0.0
-12452,-1548,3572,-1825,1279,-973,2025-02-17 11:39:27,0.0
-12432,-2436,2648,-2188,1509,-238,2025-02-17 11:39:27,0.0
-12888,-3640,1748,-2398,1579,203,2025-02-17 11:39:27,0.0
-12828,-5160,1048,-2631,1675,393,2025-02-17 11:39:27,0.0
-12476,-5460,624,-3606,2308,881,2025-02-17 11:39:27,0.0
-11760,-5236,708,-4573,3698,789,2025-02-17 11:39:27,0.0
-12848,-3988,700,-5676,5722,554,2025-02-17 11:39:27,0.0
-14372,-4096,1132,-5827,7823,913,2025-02-17 11:39:27,0.0
-15652,-4428,-228,-5989,9916,1709,2025-02-17 11:39:27,0.0
-17168,-4624,-1972,-6332,11231,2953,2025-02-17 11:39:27,0.0
-17204,-4924,-12,-6287,9782,3004,2025-02-17 11:39:27,0.0
-18300,-4492,2656,-5582,6714,2504,2025-02-17 11:39:27,0.0
-20316,-4276,2828,-2946,3056,2595,2025-02-17 11:39:27,0.0
-19136,-6400,-11100,-583,6712,2489,2025-02-17 11:39:27,0.0
-20420,-3604,-3200,-4521,9330,-1466,2025-02-17 11:39:27,0.0
-23684,-2892,-216,-3467,9766,-3436,2025-02-17 11:39:27,0.0
-24544,-4188,-9344,-3738,8133,-2272,2025-02-17 11:39:27,0.0
-20800,-7820,-12324,-4217,-376,2643,2025-02-17 11:39:27,0.0
-13676,-7108,-11356,-1962,-11387,5948,2025-02-17 11:39:27,0.0
-9344,-2632,-7880,-367,-20368,4950,2025-02-17 11:39:27,0.0
-8024,-544,-6764,-50,-25930,1450,2025-02-17 11:39:27,0.0
-12368,-1548,-6760,-1725,-22384,377,2025-02-17 11:39:27,0.0
-15384,-2628,-4512,-2992,-10553,1996,2025-02-17 11:39:27,0.0
-16024,-2792,-2304,-2711,-848,4566,2025-02-17 11:39:27,0.0
-14900,-3092,-744,-1353,2038,5828,2025-02-17 11:39:27,0.0
-11044,1648,-3516,3051,-6674,7268,2025-02-17 11:39:27,0.0
-9648,1316,-4032,3337,-5139,6159,2025-02-17 11:39:27,0.0
-9868,280,-4452,2703,-834,5474,2025-02-17 11:39:28,0.0
-9872,-840,-2944,2295,2167,5186,2025-02-17 11:39:28,0.0
-9868,-920,-3184,1528,2774,4174,2025-02-17 11:39:28,0.0
-12340,-244,-1860,1225,1993,4318,2025-02-17 11:39:28,0.0
-12272,556,-396,1286,681,5294,2025-02-17 11:39:28,0.0
-11824,884,-904,1795,-554,5701,2025-02-17 11:39:28,0.0
-12208,788,-660,2693,-1422,6781,2025-02-17 11:39:28,0.0
-13024,452,-752,3342,-1489,8468,2025-02-17 11:39:28,0.0
-9844,1020,-816,3181,-2554,9828,2025-02-17 11:39:28,0.0
-6536,1856,-2900,2506,-2879,8362,2025-02-17 11:39:28,0.0
-5592,2436,-1000,1590,-670,5789,2025-02-17 11:39:28,0.0
-5548,3264,-1060,868,2708,3657,2025-02-17 11:39:28,0.0
-7072,3944,-768,91,5661,2422,2025-02-17 11:39:28,0.0
-8388,4540,336,-19,7923,2070,2025-02-17 11:39:28,0.0
-9280,4692,1280,2142,6921,1527,2025-02-17 11:39:28,0.0
-9412,4560,-2476,2310,4252,468,2025-02-17 11:39:28,0.0
-11236,3784,388,1796,1580,-1128,2025-02-17 11:39:28,0.0
-11928,2772,384,1910,-3112,-3502,2025-02-17 11:39:28,0.0
-13672,1636,1264,1732,-8218,-4804,2025-02-17 11:39:28,0.0
-16212,2208,1876,1622,-11732,-5061,2025-02-17 11:39:28,0.0
-13520,640,-140,1029,-10319,-4309,2025-02-17 11:39:28,0.0
-11372,820,-2844,-99,-6131,-4919,2025-02-17 11:39:28,0.0
-12748,80,-264,228,1240,-4988,2025-02-17 11:39:28,0.0
-16324,-1628,1508,2597,11584,-4231,2025-02-17 11:39:28,0.0
-22156,2464,-1336,2548,23160,-934,2025-02-17 11:39:28,0.0
-25084,4084,-6832,1874,32393,2738,2025-02-17 11:39:28,0.0
-25880,3356,-9452,915,32767,5528,2025-02-17 11:39:28,0.0
-25520,5032,-11824,2025,25849,8063,2025-02-17 11:39:28,0.0
-19712,6704,-14256,1986,8758,8656,2025-02-17 11:39:28,0.0
-9576,5732,-11868,1185,-12065,4205,2025-02-17 11:39:28,0.0
-7340,184,-6360,928,-27593,-1012,2025-02-17 11:39:28,0.0
-11232,-2636,-6248,1323,-25394,-1491,2025-02-17 11:39:28,0.0
-12380,-4780,-7560,538,-13387,-1448,2025-02-17 11:39:28,0.0
-12420,-3396,-6492,-1204,-2036,-1571,2025-02-17 11:39:28,0.0
-11940,560,-5292,-1477,2417,-1293,2025-02-17 11:39:28,0.0
-9968,3472,-7124,-1998,3393,-2085,2025-02-17 11:39:28,0.0
-9156,4696,-5176,-3114,3827,-5146,2025-02-17 11:39:28,0.0
-9876,2736,-2520,-2734,3107,-7337,2025-02-17 11:39:28,0.0
-11424,1488,-2884,-2159,1915,-7443,2025-02-17 11:39:28,0.0
-12220,536,-4112,-2205,132,-5897,2025-02-17 11:39:28,0.0
-10956,696,-3336,-1971,-3157,-4084,2025-02-17 11:39:28,0.0
-9776,-788,-3376,-1898,-5464,-3320,2025-02-17 11:39:28,0.0
-9240,-1860,-1912,-2759,-6375,-3400,2025-02-17 11:39:28,0.0
-7768,-2928,-1156,-2984,-4942,-3824,2025-02-17 11:39:28,0.0
-8184,-2148,-576,-1967,-3069,-3460,2025-02-17 11:39:28,0.0
-9468,-904,-1720,-1205,-325,-2243,2025-02-17 11:39:28,0.0
-10004,-444,-1724,-1751,3155,-879,2025-02-17 11:39:28,0.0
-9084,-900,-480,-2201,6971,-750,2025-02-17 11:39:28,0.0
-10012,-1152,-1176,-2567,7984,-851,2025-02-17 11:39:28,0.0
-11708,-872,-176,-2515,7437,-345,2025-02-17 11:39:28,0.0
-13264,-220,284,-1944,5093,356,2025-02-17 11:39:28,0.0
-13796,104,-460,-1485,2484,1018,2025-02-17 11:39:28,0.0
-13552,-504,-2488,-434,-1239,1447,2025-02-17 11:39:28,0.0
-12536,-908,-3828,-544,-4876,1072,2025-02-17 11:39:28,0.0
-12660,-872,-3464,1293,-6098,226,2025-02-17 11:39:28,
-12424,-148,-4132,916,-3743,-1122,2025-02-17 11:39:28,0.0
-12124,-396,-3164,-366,106,-4222,2025-02-17 11:39:28,0.0
-14372,-352,-956,-1407,1203,-7161,2025-02-17 11:39:28,0.0
-17420,-164,-24,-1939,-1352,-8402,2025-02-17 11:39:28,0.0
-18832,-36,1040,-2227,-4917,-8474,2025-02-17 11:39:28,0.0
-19816,-1900,-196,-2308,-8979,-8402,2025-02-17 11:39:28,0.0
-20252,-3252,-3980,-2494,-10639,-7849,2025-02-17 11:39:28,0.0
-20640,-4816,-5540,-3339,-8616,-7189,2025-02-17 11:39:28,0.0
-19780,-7752,-7592,-3826,-1654,-6294,2025-02-17 11:39:29,0.0
-19052,-6732,-8596,-4484,2983,-4153,2025-02-17 11:39:29,0.0
-18396,-3892,-8404,-6376,5813,-1303,2025-02-17 11:39:29,0.0
-17372,-2348,-6768,-6242,3784,1792,2025-02-17 11:39:29,0.0
-14564,-880,-7632,-4737,-1729,4756,2025-02-17 11:39:29,0.0
-12668,2272,-5024,-4166,-6062,5798,2025-02-17 11:39:29,0.0
-11180,3936,-3268,-2785,-7425,5730,2025-02-17 11:39:29,0.0
-10044,3512,-3516,-1158,-6665,4923,2025-02-17 11:39:29,0.0
-10548,1940,-5396,-573,-3229,4035,2025-02-17 11:39:29,0.0
-9856,-212,-5116,-992,1224,2642,2025-02-17 11:39:29,0.0
-11136,-1132,-4380,-1599,4442,1540,2025-02-17 11:39:29,0.0
-12252,-656,-2572,-2319,7663,2189,2025-02-17 11:39:29,0.0
-12040,-312,-3096,-1849,6703,2762,2025-02-17 11:39:29,0.0
-11536,452,-4004,-2111,4574,2321,2025-02-17 11:39:29,0.0
-11676,1784,-3392,-2589,1555,1307,2025-02-17 11:39:29,0.0
-12296,1816,-2568,-1820,-1439,409,2025-02-17 11:39:29,0.0
-12744,1904,-4188,-1350,-3038,657,2025-02-17 11:39:29,0.0
-10676,1952,-2312,-1554,-3345,422,2025-02-17 11:39:29,0.0
-9160,1672,-1036,-1220,-3138,-504,2025-02-17 11:39:29,0.0
-8812,2060,-1272,-893,-1878,-1192,2025-02-17 11:39:29,0.0
-9028,2612,-1636,-537,523,-1852,2025-02-17 11:39:29,0.0
-10272,2752,-1936,-235,3017,-2212,2025-02-17 11:39:29,0.0
-11292,2212,-2244,610,4032,-1547,2025-02-17 11:39:29,0.0
-11312,1704,-3124,1185,3640,-758,2025-02-17 11:39:29,0.0
-11732,1612,-2792,1260,2816,-679,2025-02-17 11:39:29,0.0
-11932,1644,-1768,1640,1202,-921,2025-02-17 11:39:29,0.0
-11912,860,-1992,1984,-1976,-1025,2025-02-17 11:39:29,0.0
-10268,-708,-4544,2453,-7193,-586,2025-02-17 11:39:29,0.0
-8096,-536,-8196,35,-15064,127,2025-02-17 11:39:29,0.0
-1992,-304,-5180,-3591,-24822,-1312,2025-02-17 11:39:29,0.0
-1080,-3380,14288,-1035,-31609,-5514,2025-02-17 11:39:29,0.0
-9264,-4192,11384,7912,-20450,-4866,2025-02-17 11:39:29,0.0
-13756,-448,-2840,12768,-5865,173,2025-02-17 11:39:29,0.0
-21820,-14572,-21416,17223,26358,3183,2025-02-17 11:39:29,0.0
-32264,-22864,-10896,19884,32767,8914,2025-02-17 11:39:29,0.0
-29512,-8332,-4480,16171,22933,17320,2025-02-17 11:39:29,0.0
-17952,1280,-824,21478,2895,20984,2025-02-17 11:39:29,0.0
-11788,6672,-7420,25975,-3662,17608,2025-02-17 11:39:29,0.0
-9952,3120,-12488,25673,262,5696,2025-02-17 11:39:29,0.0
-16420,-3804,-18064,20392,4700,-318,2025-02-17 11:39:29,0.0
-18348,-5324,-14332,17659,3686,-3792,2025-02-17 11:39:29,0.0
-20492,-9756,-7916,18856,1663,-2308,2025-02-17 11:39:29,0.0
-18720,-10392,520,23023,-291,1839,2025-02-17 11:39:29,0.0
-12936,-10436,-3316,28246,258,4327,2025-02-17 11:39:29,0.0
-10048,-8676,-7588,32023,1847,5105,2025-02-17 11:39:29,0.0
-8656,-6448,-10432,32767,4734,5873,2025-02-17 11:39:29,0.0
-8336,-5868,-10208,32767,5448,6105,2025-02-17 11:39:29,0.0
-8196,-7180,-7840,32767,3170,6491,2025-02-17 11:39:29,0.0
-8240,-6664,-6132,32767,-453,6624,2025-02-17 11:39:29,0.0
-8288,-5904,-7396,32767,-4686,6447,2025-02-17 11:39:29,0.0
-9036,-4140,-9196,32767,-9109,7232,2025-02-17 11:39:29,0.0
-8504,-3396,-9408,32767,-12414,8059,2025-02-17 11:39:29,0.0
-6852,-3588,-10004,32767,-13922,6974,2025-02-17 11:39:29,0.0
-7296,-4108,-8228,32767,-11554,4968,2025-02-17 11:39:29,0.0
-6628,-5648,-6308,32767,-6196,2384,2025-02-17 11:39:29,0.0
-9840,-6060,-8724,32767,5255,971,2025-02-17 11:39:29,0.0
-10076,-5104,-9916,30922,9943,2394,2025-02-17 11:39:29,0.0
-9120,-2516,-4656,29684,6490,3613,2025-02-17 11:39:29,0.0
-10248,-2420,-2640,30333,4820,4143,2025-02-17 11:39:29,0.0
-10892,-7492,-3128,29235,6996,4992,2025-02-17 11:39:29,0.0
-10904,-6388,-2992,28652,11226,5814,2025-02-17 11:39:30,0.0
-10832,-3292,-3684,28205,13668,7057,2025-02-17 11:39:30,0.0
-10632,-1580,-5232,26931,15691,7526,2025-02-17 11:39:30,0.0
-10856,-872,-5264,25217,16366,7458,2025-02-17 11:39:30,0.0
-10348,-312,-4692,23593,15487,5921,2025-02-17 11:39:30,0.0
-11632,-1104,-3368,22178,12262,4090,2025-02-17 11:39:30,0.0
-13408,-3928,-2196,21037,5334,3737,2025-02-17 11:39:30,0.0
-11048,-5192,-1464,20832,-2075,3688,2025-02-17 11:39:30,0.0
-9648,-5968,-596,20932,-6699,2424,2025-02-17 11:39:30,0.0
-10224,-5848,-816,20292,-8000,1216,2025-02-17 11:39:30,0.0
-11704,-4576,-756,19034,-5079,666,2025-02-17 11:39:30,0.0
-13508,-3892,-3052,15469,3062,351,2025-02-17 11:39:30,0.0
-15484,-4820,-2672,11614,10525,109,2025-02-17 11:39:30,0.0
-15444,-8624,-1784,10045,12040,162,2025-02-17 11:39:30,0.0
-15548,-10508,-3108,10870,11365,-475,2025-02-17 11:39:30,0.0
-15928,-10604,-3588,11952,11007,-796,2025-02-17 11:39:30,0.0
-15616,-9372,-3212,12824,11712,-1078,2025-02-17 11:39:30,0.0
-17316,-9116,-5780,12776,12870,-723,2025-02-17 11:39:30,0.0
-20404,-7440,-6956,11002,10783,2124,2025-02-17 11:39:30,0.0
-20136,-5992,-9196,8257,5531,5267,2025-02-17 11:39:30,0.0
-18072,-5024,-9356,6997,-210,6582,2025-02-17 11:39:30,0.0
-15684,-3792,-8480,7237,-4609,6846,2025-02-17 11:39:30,0.0
-12772,-1764,-6896,9311,-6877,6491,2025-02-17 11:39:30,0.0
-12096,-660,-7248,10974,-6947,6071,2025-02-17 11:39:30,0.0
-11728,-1220,-7772,10753,-5105,5501,2025-02-17 11:39:30,0.0
-13204,-2576,-7712,9173,-30,5460,2025-02-17 11:39:30,0.0
-13660,-2108,-6580,8437,4438,6704,2025-02-17 11:39:30,0.0
-13184,-1540,-7896,7955,7446,8160,2025-02-17 11:39:30,0.0
-14248,940,-4688,8177,4573,10649,2025-02-17 11:39:30,0.0
-13660,1900,-5024,8534,61,10970,2025-02-17 11:39:30,0.0
-10972,2424,-4800,7743,-3643,9926,2025-02-17 11:39:30,0.0
-8264,1620,-6136,6155,-3876,7998,2025-02-17 11:39:30,
-6660,1080,-6896,3188,-2193,5447,2025-02-17 11:39:30,0.0
-6392,-504,-6248,651,-2035,3591,2025-02-17 11:39:30,0.0
-6976,-2252,-3960,271,-2924,2793,2025-02-17 11:39:30,0.0
-7984,-2936,-896,1884,-3186,2506,2025-02-17 11:39:30,0.0
-9408,-2272,-948,2678,-1673,2830,2025-02-17 11:39:30,0.0
-10276,-1316,-716,2260,350,3209,2025-02-17 11:39:30,0.0
-10904,-240,348,2293,1426,3535,2025-02-17 11:39:30,0.0
-10680,-600,308,4791,1028,4540,2025-02-17 11:39:30,0.0
-10216,-508,328,8021,1101,4447,2025-02-17 11:39:30,0.0
-10308,-252,-672,9385,1249,4318,2025-02-17 11:39:30,0.0
-9628,-648,-1024,8735,269,3302,2025-02-17 11:39:30,0.0
-9392,-1260,184,7396,-523,542,2025-02-17 11:39:30,0.0
-11068,-1292,1056,8578,-2331,-2563,2025-02-17 11:39:30,0.0
-13504,-1468,-1500,11205,-3367,-3333,2025-02-17 11:39:30,0.0
-16144,-2960,-6288,10953,-2780,-2551,2025-02-17 11:39:30,0.0
-18164,-2268,-6276,8580,-2396,-1488,2025-02-17 11:39:30,0.0
-20932,2508,-3408,8417,1605,857,2025-02-17 11:39:30,0.0
-21096,2640,-152,7863,4147,4211,2025-02-17 11:39:30,0.0
-21780,1268,-1308,7813,4041,5887,2025-02-17 11:39:30,0.0
-20568,-1284,-4252,7724,5237,6546,2025-02-17 11:39:30,0.0
-21224,-644,-5756,7777,5262,7649,2025-02-17 11:39:30,0.0
-21892,1680,-6680,8959,4704,10251,2025-02-17 11:39:30,0.0
-17820,756,-11968,8243,3514,10181,2025-02-17 11:39:30,0.0
-14212,1416,-9920,5170,-1218,8194,2025-02-17 11:39:30,0.0
-11416,-436,-9088,3889,-8525,5810,2025-02-17 11:39:30,0.0
-7608,-2764,-7856,1672,-15366,3015,2025-02-17 11:39:30,0.0
-7244,-2488,-5332,957,-16952,-172,2025-02-17 11:39:30,0.0
-8028,-952,-6296,899,-14062,-1728,2025-02-17 11:39:30,0.0
-10224,56,-6732,-42,-5169,-1452,2025-02-17 11:39:31,0.0
-9352,1696,-4968,-708,3574,-872,2025-02-17 11:39:31,0.0
-8024,1784,-5560,-1769,8769,-2793,2025-02-17 11:39:31,0.0
-10108,1732,-5752,-2975,10964,-4435,2025-02-17 11:39:31,0.0
-10956,1292,-5412,-3623,11977,-6134,2025-02-17 11:39:31,0.0
-12008,284,-5212,-3824,10218,-7212,2025-02-17 11:39:31,0.0
-13156,-604,-5808,-4870,4584,-7657,2025-02-17 11:39:31,0.0
-10420,-2660,-6916,-7010,-7708,-5208,2025-02-17 11:39:31,0.0
-9108,-4792,-4296,-7808,-15647,-8004,2025-02-17 11:39:31,0.0
-10812,-4252,-1568,-7766,-16434,-5975,2025-02-17 11:39:31,0.0
-11020,-2976,-1620,-7267,-13573,-4380,2025-02-17 11:39:31,0.0
-11268,-508,-2384,-7344,-8372,-1538,2025-02-17 11:39:31,0.0
-8280,-96,-1984,-8127,-5391,-2007,2025-02-17 11:39:31,0.0
-8840,-340,-1592,-8869,-2395,-3269,2025-02-17 11:39:31,0.0
-10104,-944,-1568,-9709,892,-4035,2025-02-17 11:39:31,0.0
-11736,-1428,-1920,-10694,3778,-4484,2025-02-17 11:39:31,0.0
-12168,-1736,-2692,-11531,4314,-4776,2025-02-17 11:39:31,0.0
-12872,-1648,-2600,-12175,3353,-5222,2025-02-17 11:39:31,0.0
-13948,-988,-1768,-12372,1615,-4908,2025-02-17 11:39:31,0.0
-13456,-1268,-1412,-12195,744,-4266,2025-02-17 11:39:31,0.0
-13824,-1648,-960,-11624,-264,-3822,2025-02-17 11:39:31,0.0
-14576,-2200,-1736,-11271,-1460,-3547,2025-02-17 11:39:31,0.0
-15024,-3120,-1816,-11030,-2483,-2755,2025-02-17 11:39:31,0.0
-13732,-4836,0,-10215,-2040,-2999,2025-02-17 11:39:31,0.0
-15672,-5644,-500,-9225,-515,-2779,2025-02-17 11:39:31,0.0
-15576,-4800,-1216,-8743,-583,-1891,2025-02-17 11:39:31,0.0
-14340,-3420,-1620,-8654,-4427,-727,2025-02-17 11:39:31,0.0
-11352,-4044,-2884,-8639,-8587,-640,2025-02-17 11:39:31,0.0
-8456,-3984,-2580,-8432,-11711,-1746,2025-02-17 11:39:31,0.0
-9876,-2652,-6932,-8063,-10339,-2796,2025-02-17 11:39:31,0.0
-14044,2444,-10232,-6473,5208,-2677,2025-02-17 11:39:31,0.0
-14076,3320,-7972,-6457,23411,-3506,2025-02-17 11:39:31,0.0
-14200,456,-7680,-6816,32767,-7911,2025-02-17 11:39:31,0.0
-17676,-2768,-8656,-7927,32767,-8667,2025-02-17 11:39:31,0.0
-24760,-7464,-8828,-7230,32767,-3571,2025-02-17 11:39:31,0.0
-26392,-9952,-8756,-5388,32767,6129,2025-02-17 11:39:31,0.0
-23140,-11672,-12384,-4247,32767,14769,2025-02-17 11:39:31,0.0
-17732,-10948,-15824,-6281,32767,17014,2025-02-17 11:39:31,0.0
-7044,-4056,-9708,-17273,1324,19521,2025-02-17 11:39:31,0.0
-8636,-4548,-8200,-18298,-7089,22927,2025-02-17 11:39:31,0.0
-10856,-5632,-8332,-19282,-8319,27060,2025-02-17 11:39:31,0.0
-9036,-6144,-8492,-19153,-8730,30611,2025-02-17 11:39:31,0.0
-5848,-5656,-9876,-18156,-12528,32368,2025-02-17 11:39:31,5
-3100,-3984,-10328,-16770,-19091,32401,2025-02-17 11:39:31,5
-2428,-2128,-10268,-15888,-25414,32270,2025-02-17 11:39:31,5
-2784,-1080,-9972,-15757,-29768,32767,2025-02-17 11:39:31,5
-2076,-748,-8236,-15465,-31699,32767,2025-02-17 11:39:31,5
-2796,-944,-8308,-16124,-31405,32767,2025-02-17 11:39:31,5
-1672,-1652,-5600,-17414,-30396,32767,2025-02-17 11:39:31,5
2536,-2884,-196,-17730,-30692,32767,2025-02-17 11:39:31,5
2196,-2608,1692,-15769,-30245,32767,2025-02-17 11:39:31,5
2932,-2540,1640,-13638,-30069,32767,2025-02-17 11:39:31,5
2688,-2528,1620,-11490,-30204,32767,2025-02-17 11:39:31,5
2724,-2564,1680,-9339,-30413,32767,2025-02-17 11:39:31,5
2864,-2652,1564,-7217,-30701,32767,2025-02-17 11:39:31,5
2812,-2716,1532,-5087,-31126,32767,2025-02-17 11:39:31,5
2696,-2744,1300,-2225,-31643,32767,2025-02-17 11:39:31,5
2724,-2900,1528,24,-31827,32767,2025-02-17 11:39:31,5
3008,-3168,984,1929,-31916,32767,2025-02-17 11:39:31,5
3144,-2972,716,3174,-31864,32767,2025-02-17 11:39:31,5
3276,-2624,656,4243,-31556,32767,2025-02-17 11:39:32,5
3348,-2336,552,5101,-31029,32767,2025-02-17 11:39:32,5
3968,-2476,472,6173,-30592,32767,2025-02-17 11:39:32,5
4324,-2540,-24,6870,-30174,31715,2025-02-17 11:39:32,5
4364,-1556,-160,7102,-29416,29614,2025-02-17 11:39:32,5
3948,-1820,-456,7252,-28561,27824,2025-02-17 11:39:32,5
3236,-2016,32,7330,-27587,26432,2025-02-17 11:39:32,5
2536,-1708,228,7592,-26115,25542,2025-02-17 11:39:32,5
2704,-1728,12,7724,-25095,25385,2025-02-17 11:39:32,5
2900,-1892,96,7901,-24660,25380,2025-02-17 11:39:32,5
3320,-2260,1512,8761,-25423,25470,2025-02-17 11:39:32,5
2956,-1004,2664,10766,-26170,24657,2025-02-17 11:39:32,5
-7980,17040,32767,32767,-32768,32767,2025-02-17 11:39:32,5
4208,-28664,32767,32767,-32768,32767,2025-02-17 11:39:32,5
-32768,-32768,-32768,32767,-32768,30087,2025-02-17 11:39:32,5
32767,-12436,1756,16636,-32768,24211,2025-02-17 11:39:32,5
32767,-19576,-11264,17495,-17036,2398,2025-02-17 11:39:32,5
8340,-9504,956,5605,-26215,-3557,2025-02-17 11:39:32,5
12392,-4072,-1928,-19231,-32768,-4943,2025-02-17 11:39:32,5
-2920,-11848,7008,-17304,-22706,-1159,2025-02-17 11:39:32,5
-2340,-9780,-496,-11115,-11435,1671,2025-02-17 11:39:32,5
2952,-5244,-14088,-6740,-13807,1469,2025-02-17 11:39:32,5
2524,-752,-23408,-3830,-11457,500,2025-02-17 11:39:32,5
1612,2420,-25540,-986,1157,-491,2025-02-17 11:39:32,5
3964,-3964,-11968,2896,3530,-355,2025-02-17 11:39:32,5
4700,-6072,-12696,2455,1179,-314,2025-02-17 11:39:32,5
4260,-5644,-14228,-1115,-325,-199,2025-02-17 11:39:32,5
3868,-4100,-14604,-1222,-505,-249,2025-02-17 11:39:32,5
3796,-4204,-15272,-54,151,-159,2025-02-17 11:39:32,5
2072,-4100,-13784,15,-914,471,2025-02-17 11:39:32,5
2092,-4004,-13316,-500,450,-493,2025-02-17 11:39:32,5
5108,-4380,-14632,139,1119,-303,2025-02-17 11:39:32,5
4912,-4252,-15924,-169,-1142,111,2025-02-17 11:39:32,5
2304,-3544,-13616,-111,557,-206,2025-02-17 11:39:32,5
3764,-4760,-14892,-18,328,-182,2025-02-17 11:39:32,5
4028,-4436,-14904,-395,-111,-242,2025-02-17 11:39:32,5
3812,-4216,-14332,-99,60,-157,2025-02-17 11:39:32,5
3844,-4532,-14492,-214,11,-190,2025-02-17 11:39:32,5
3740,-4408,-14708,-262,106,-178,2025-02-17 11:39:32,5
3804,-4376,-14484,-159,300,-192,2025-02-17 11:39:32,5
3836,-4396,-14580,-227,107,-175,2025-02-17 11:39:32,5
3624,-4356,-14688,-88,109,-133,2025-02-17 11:39:32,5
3612,-4552,-14348,-132,255,-180,2025-02-17 11:39:32,5
3944,-4316,-14484,-179,-12,-218,2025-02-17 11:39:32,5
3884,-4448,-14524,-218,218,-218,2025-02-17 11:39:32,5
3736,-4412,-14676,-153,87,-139,2025-02-17 11:39:32,5
3656,-4320,-14368,-168,184,-210,2025-02-17 11:39:32,5
3844,-4468,-14768,-128,227,-182,2025-02-17 11:39:32,5
3852,-4440,-14536,-176,148,-158,2025-02-17 11:39:32,5
3696,-4276,-14644,-154,169,-187,2025-02-17 11:39:32,5
3864,-4268,-14520,-159,154,-189,2025-02-17 11:39:32,5
3784,-4368,-14416,-171,200,-200,2025-02-17 11:39:32,5
3756,-4364,-14492,-182,135,-198,2025-02-17 11:39:32,5
3696,-4256,-14476,-166,171,-160,2025-02-17 11:39:32,5
3852,-4428,-14608,-136,156,-161,2025-02-17 11:39:32,5
3692,-4356,-14480,-152,159,-168,2025-02-17 11:39:32,5
3792,-4364,-14592,-141,148,-180,2025-02-17 11:39:32,5
3732,-4408,-14440,-136,154,-177,2025-02-17 11:39:33,5
3732,-4392,-14484,-139,172,-170,2025-02-17 11:39:33,5
3784,-4352,-14580,-173,194,-188,2025-02-17 11:39:33,5
3732,-4360,-14592,-175,155,-193,2025-02-17 11:39:33,5
3644,-4328,-14612,-147,182,-163,2025-02-17 11:39:33,5
3704,-4316,-14500,-159,136,-181,2025-02-17 11:39:33,5
3828,-4284,-14452,-143,155,-167,2025-02-17 11:39:33,5
3728,-4344,-14440,-145,191,-195,2025-02-17 11:39:33,5
3768,-4364,-14616,-163,166,-178,2025-02-17 11:39:33,5
3700,-4308,-14636,-138,164,-171,2025-02-17 11:39:33,5
3724,-4276,-14676,-196,155,-182,2025-02-17 11:39:33,5
3636,-4440,-14488,-153,159,-158,2025-02-17 11:39:33,5
3772,-4332,-14664,-145,142,-182,2025-02-17 11:39:33,5
3692,-4356,-14532,-152,176,-175,2025-02-17 11:39:33,5
3712,-4316,-14464,-165,160,-176,2025-02-17 11:39:33,5
3588,-4272,-14528,-164,177,-164,2025-02-17 11:39:33,5
3720,-4372,-14592,-158,158,-192,2025-02-17 11:39:33,5
3708,-4424,-14624,-182,162,-160,2025-02-17 11:39:33,5
3740,-4248,-14648,-184,160,-183,2025-02-17 11:39:33,5
3720,-4284,-14588,-143,158,-192,2025-02-17 11:39:33,5
3676,-4364,-14488,-164,175,-182,2025-02-17 11:39:33,5
3752,-4344,-14540,-123,190,-184,2025-02-17 11:39:33,5
3720,-4368,-14452,-140,185,-167,2025-02-17 11:39:33,5
3764,-4300,-14528,-170,149,-180,2025-02-17 11:39:33,5
3744,-4308,-14624,-128,156,-197,2025-02-17 11:39:33,5
3856,-4400,-14540,-138,184,-162,2025-02-17 11:39:33,0.0
3680,-4376,-14560,-154,160,-193,2025-02-17 11:39:33,0.0
3760,-4364,-14544,-153,151,-174,2025-02-17 11:39:33,0.0
3744,-4352,-14664,-180,180,-156,2025-02-17 11:39:33,0.0
3788,-4404,-14588,-137,162,-185,2025-02-17 11:39:33,0.0
3796,-4412,-14536,-169,160,-183,2025-02-17 11:39:33,0.0
3752,-4456,-14488,-143,179,-179,2025-02-17 11:39:33,0.0
3776,-4420,-14564,-179,162,-177,2025-02-17 11:39:33,0.0
3668,-4296,-14428,-176,155,-197,2025-02-17 11:39:33,0.0
3780,-4424,-14592,-133,167,-190,2025-02-17 11:39:33,0.0
3724,-4400,-14756,-150,160,-200,2025-02-17 11:39:33,0.0
3728,-4448,-14504,-159,160,-172,2025-02-17 11:39:33,0.0
3704,-4320,-14628,-177,157,-167,2025-02-17 11:39:33,0.0
3728,-4392,-14536,-127,188,-187,2025-02-17 11:39:33,0.0
3764,-4316,-14636,-155,172,-164,2025-02-17 11:39:33,0.0
3716,-4324,-14600,-158,147,-172,2025-02-17 11:39:33,0.0
3748,-4380,-14552,-155,175,-164,2025-02-17 11:39:33,0.0
3648,-4376,-14632,-153,178,-181,2025-02-17 11:39:33,0.0
3664,-4288,-14560,-157,186,-187,2025-02-17 11:39:33,0.0
3760,-4384,-14528,-153,158,-177,2025-02-17 11:39:33,0.0
3720,-4392,-14680,-128,183,-204,2025-02-17 11:39:33,0.0
3872,-4292,-14556,-175,95,-145,2025-02-17 11:39:33,0.0
3856,-4528,-14356,-75,136,-178,2025-02-17 11:39:33,0.0
3716,-4432,-14744,-235,211,-176,2025-02-17 11:39:33,0.0
3716,-4120,-14452,-148,40,-148,2025-02-17 11:39:33,0.0
3568,-4520,-14584,-171,251,-189,2025-02-17 11:39:33,0.0
3808,-4296,-14536,-149,183,-194,2025-02-17 11:39:33,0.0
3772,-4476,-14552,-130,165,-158,2025-02-17 11:39:33,0.0
3608,-4248,-14508,-191,137,-186,2025-02-17 11:39:33,0.0
3864,-4308,-14640,-114,81,-186,2025-02-17 11:39:33,
4412,-4452,-14128,-50,-156,-90,2025-02-17 11:39:33,0.0
3220,-4308,-14764,-386,260,-133,2025-02-17 11:39:33,0.0
3868,-4140,-14704,-171,-113,-154,2025-02-17 11:39:33,0.0
3460,-4216,-14464,-117,202,-232,2025-02-17 11:39:33,0.0
3776,-4208,-14280,-112,380,-247,2025-02-17 11:39:33,0.0
4144,-4464,-14808,-156,162,-175,2025-02-17 11:39:33,0.0
3620,-4364,-14488,-149,51,-193,2025-02-17 11:39:33,0.0
3528,-4308,-14544,-171,203,-204,2025-02-17 11:39:33,0.0
3592,-4376,-14688,-225,196,-209,2025-02-17 11:39:33,0.0
3740,-4328,-14612,-132,177,-173,2025-02-17 11:39:34,0.0
3796,-4356,-14700,-195,140,-173,2025-02-17 11:39:34,0.0
3636,-4256,-14600,-154,168,-200,2025-02-17 11:39:34,0.0
3684,-4444,-14604,-153,168,-160,2025-02-17 11:39:34,0.0
3760,-4340,-14444,-139,151,-166,2025-02-17 11:39:34,0.0
3704,-4416,-14632,-150,181,-188,2025-02-17 11:39:34,0.0
3804,-4308,-14460,-144,182,-173,2025-02-17 11:39:34,0.0
3664,-4332,-14492,-144,169,-173,2025-02-17 11:39:34,0.0
3676,-4380,-14592,-180,156,-168,2025-02-17 11:39:34,0.0
3700,-4384,-14464,-159,185,-203,2025-02-17 11:39:34,0.0
3784,-4308,-14500,-141,161,-166,2025-02-17 11:39:34,0.0
3708,-4320,-14712,-136,179,-186,2025-02-17 11:39:34,0.0
3656,-4288,-14552,-170,184,-174,2025-02-17 11:39:34,0.0
3700,-4364,-14544,-157,165,-176,2025-02-17 11:39:34,0.0
3820,-4408,-14464,-166,171,-169,2025-02-17 11:39:34,0.0
3716,-4368,-14528,-121,174,-182,2025-02-17 11:39:34,0.0
3772,-4348,-14628,-180,152,-170,2025-02-17 11:39:34,0.0
3804,-4308,-14580,-153,163,-175,2025-02-17 11:39:34,0.0
3680,-4296,-14684,-143,170,-171,2025-02-17 11:39:34,0.0
3764,-4376,-14616,-142,179,-181,2025-02-17 11:39:34,0.0
3748,-4244,-14540,-160,177,-200,2025-02-17 11:39:34,0.0
3844,-4248,-14456,-169,160,-187,2025-02-17 11:39:34,0.0
3704,-4332,-14484,-187,191,-166,2025-02-17 11:39:34,0.0
3680,-4360,-14600,-167,175,-205,2025-02-17 11:39:34,0.0
3672,-4324,-14512,-174,174,-174,2025-02-17 11:39:34,0.0
3636,-4332,-14552,-147,168,-178,2025-02-17 11:39:34,0.0
3776,-4328,-14624,-156,168,-158,2025-02-17 11:39:34,0.0
3768,-4280,-14612,-145,166,-159,2025-02-17 11:39:34,0.0
3784,-4296,-14620,-140,165,-189,2025-02-17 11:39:34,0.0
3752,-4368,-14616,-160,156,-162,2025-02-17 11:39:34,0.0
3708,-4380,-14512,-163,184,-171,2025-02-17 11:39:34,0.0
3812,-4320,-14664,-154,141,-180,2025-02-17 11:39:34,0.0
3712,-4348,-14724,-156,178,-171,2025-02-17 11:39:34,0.0
3768,-4336,-14528,-127,156,-175,2025-02-17 11:39:34,0.0
3812,-4400,-14508,-161,173,-166,2025-02-17 11:39:34,0.0
3840,-4284,-14576,-161,157,-178,2025-02-17 11:39:34,0.0
3684,-4428,-14488,-172,190,-192,2025-02-17 11:39:34,0.0
3788,-4356,-14520,-157,150,-147,2025-02-17 11:39:34,0.0
3724,-4340,-14532,-168,173,-190,2025-02-17 11:39:34,0.0
3768,-4364,-14504,-143,160,-160,2025-02-17 11:39:34,0.0
3672,-4432,-14588,-143,194,-149,2025-02-17 11:39:34,0.0
3748,-4336,-14592,-153,175,-192,2025-02-17 11:39:34,0.0
3688,-4348,-14496,-158,153,-173,2025-02-17 11:39:34,0.0
3692,-4300,-14536,-167,159,-183,2025-02-17 11:39:34,0.0
3740,-4312,-14496,-171,187,-167,2025-02-17 11:39:34,0.0
3836,-4300,-14520,-134,134,-200,2025-02-17 11:39:34,0.0
3844,-4484,-14144,-28,-63,-299,2025-02-17 11:39:34,0.0
3976,-4508,-16060,-98,534,-50,2025-02-17 11:39:34,0.0
6080,-1836,2376,2870,-236,-330,2025-02-17 11:39:34,0.0
2748,-3536,-22216,16779,-3296,-571,2025-02-17 11:39:34,0.0
1260,-11448,-31696,6839,-1165,-511,2025-02-17 11:39:34,0.0
1460,-11896,-17404,-246,2028,-1163,2025-02-17 11:39:34,0.0
416,-3628,-14332,2714,4634,-1244,2025-02-17 11:39:34,0.0
4316,-5952,-17648,968,5270,-937,2025-02-17 11:39:34,0.0
5048,-7764,-18000,-2351,3034,-1177,2025-02-17 11:39:34,0.0
5716,-5036,-14712,-3401,543,-536,2025-02-17 11:39:34,0.0
4672,-4712,-13652,-2509,-1602,-372,2025-02-17 11:39:34,0.0
3860,-5908,-15256,-3305,-1665,-350,2025-02-17 11:39:34,0.0
3812,-3432,-7692,-955,358,-1033,2025-02-17 11:39:34,0.0
3804,-4416,-14724,760,387,-346,2025-02-17 11:39:34,0.0
3880,-6172,-14764,519,249,-529,2025-02-17 11:39:34,0.0
3620,-5796,-14376,-291,781,-446,2025-02-17 11:39:35,0.0
3776,-4996,-14932,-650,1069,-114,2025-02-17 11:39:35,0.0
3064,-5012,-14112,-770,1757,-177,2025-02-17 11:39:35,0.0
3984,-5804,-15684,-1442,1373,-543,2025-02-17 11:39:35,0.0
4908,-4788,-12584,-602,1842,672,2025-02-17 11:39:35,0.0
5532,-4680,-14404,-1778,-1349,-737,2025-02-17 11:39:35,0.0
4328,-6596,-15084,-1675,-1527,90,2025-02-17 11:39:35,0.0
-1372,-8024,-18340,-4639,2256,930,2025-02-17 11:39:35,0.0
5944,-8080,-17400,-8117,1237,-852,2025-02-17 11:39:35,0.0
4784,-6460,-17108,-9721,-1053,-1213,2025-02-17 11:39:35,0.0
3116,-4740,-17152,-10381,-1070,408,2025-02-17 11:39:35,0.0
5480,-6732,-20056,-12411,821,-374,2025-02-17 11:39:35,0.0
4832,-5300,-17176,-14058,1592,-1196,2025-02-17 11:39:35,0.0
1428,-2016,-15064,-12471,3201,204,2025-02-17 11:39:35,0.0
816,-680,-18192,-12831,10742,1435,2025-02-17 11:39:35,0.0
4388,-280,-12104,-11474,11221,-675,2025-02-17 11:39:35,0.0
5348,-2276,-15456,-11309,11353,-757,2025-02-17 11:39:35,0.0
7296,-5080,-18932,-14316,9355,-1790,2025-02-17 11:39:35,0.0
7960,-6208,-21260,-18722,6635,-3048,2025-02-17 11:39:35,0.0
6180,92,-9244,-19257,1933,-2209,2025-02-17 11:39:35,0.0
676,2208,-8736,-9442,-5877,2719,2025-02-17 11:39:35,0.0
7096,1184,-17304,-12955,-4877,1670,2025-02-17 11:39:35,0.0
5784,1704,-12424,-13197,-3431,727,2025-02-17 11:39:35,0.0
4320,1100,-14464,-11939,-2480,1375,2025-02-17 11:39:35,0.0
5672,1648,-19544,-13932,131,1388,2025-02-17 11:39:35,0.0
3100,1824,-13192,-13388,1258,1798,2025-02-17 11:39:35,0.0
4000,1284,-13488,-12014,2083,3026,2025-02-17 11:39:35,0.0
11748,2492,-14544,-11637,3360,1124,2025-02-17 11:39:35,0.0
5504,6436,-6796,-11439,3260,57,2025-02-17 11:39:35,0.0
5428,5980,-13716,-10930,2386,962,2025-02-17 11:39:35,
5752,5444,-11240,-10424,23,1683,2025-02-17 11:39:35,0.0
6816,7276,-11368,-10752,-1052,1134,2025-02-17 11:39:35,0.0
11288,10572,-8960,-7799,-1823,-713,2025-02-17 11:39:35,0.0
11812,5564,-12124,-7794,-3584,-2852,2025-02-17 11:39:35,0.0
8508,4384,-10912,-7705,-4939,-3955,2025-02-17 11:39:35,0.0
6384,3768,-10432,-5825,-5553,-5241,2025-02-17 11:39:35,0.0
2972,4648,-11340,-3743,-4090,-5299,2025-02-17 11:39:35,0.0
1464,5852,-11564,-2954,-1413,-3113,2025-02-17 11:39:35,0.0
2496,7248,-10984,-2303,-941,-2078,2025-02-17 11:39:35,0.0
4100,7908,-11680,-1573,-1463,-1950,2025-02-17 11:39:35,0.0
4688,7764,-15064,-1769,-1663,-1792,2025-02-17 11:39:35,0.0
4108,6312,-15496,-2699,-1987,-1272,2025-02-17 11:39:35,0.0
2936,5644,-14796,-3474,-1853,-478,2025-02-17 11:39:35,0.0
2052,6768,-14736,-4472,-2232,653,2025-02-17 11:39:35,0.0
5136,8464,-11120,-4802,-2964,770,2025-02-17 11:39:35,0.0
7676,8360,-11940,-2852,43,-869,2025-02-17 11:39:35,0.0
8372,6764,-14216,-3285,-3203,-2553,2025-02-17 11:39:35,0.0
5804,5908,-19076,-6216,-7529,-3039,2025-02-17 11:39:35,0.0
3368,7016,-18880,-8537,-8641,-2735,2025-02-17 11:39:35,0.0
3192,8892,-17400,-9872,-7050,-2728,2025-02-17 11:39:35,0.0
3804,9948,-14296,-10498,-5334,-3114,2025-02-17 11:39:35,0.0
3752,8724,-12920,-11332,-4785,-3420,2025-02-17 11:39:35,0.0
3012,7592,-13588,-12725,-4873,-3127,2025-02-17 11:39:35,0.0
1260,7024,-14668,-15033,-5389,-2218,2025-02-17 11:39:35,0.0
60,7892,-13824,-16045,-5489,-558,2025-02-17 11:39:35,0.0
408,9112,-13924,-16747,-4996,176,2025-02-17 11:39:35,0.0
2784,10032,-14528,-18276,-5798,138,2025-02-17 11:39:35,0.0
2364,10968,-12320,-19952,-8398,434,2025-02-17 11:39:35,0.0
1412,11256,-11772,-22100,-9986,1763,2025-02-17 11:39:35,0.0
-112,13516,-9048,-22766,-9090,2802,2025-02-17 11:39:35,0.0
608,14548,-7368,-22601,-6422,3360,2025-02-17 11:39:36,0.0
1444,14996,-6100,-22783,-3952,2936,2025-02-17 11:39:36,0.0
3100,16248,-6052,-23286,-2649,1299,2025-02-17 11:39:36,0.0
4004,17816,-6464,-24313,-2735,-635,2025-02-17 11:39:36,0.0
1580,18880,-5864,-25858,-3556,-1332,2025-02-17 11:39:36,0.0
-1672,16888,-4480,-27531,-3297,1812,2025-02-17 11:39:36,0.0
1148,18248,580,-25611,-3964,2263,2025-02-17 11:39:36,0.0
3756,20520,2516,-21143,-4170,386,2025-02-17 11:39:36,0.0
636,23456,2788,-17239,-4020,-663,2025-02-17 11:39:36,0.0
-2328,25196,616,-13466,-1850,1935,2025-02-17 11:39:36,0.0
212,24476,-1640,-12878,-117,3852,2025-02-17 11:39:36,0.0
3584,23216,-776,-12955,1065,2639,2025-02-17 11:39:36,0.0
16,22628,776,-11420,2416,2004,2025-02-17 11:39:36,0.0
-1004,22056,72,-9295,4474,3272,2025-02-17 11:39:36,0.0
1404,21268,-1824,-7936,6850,3143,2025-02-17 11:39:36,0.0
2464,20576,-1468,-6699,10107,984,2025-02-17 11:39:36,0.0
-524,21380,128,-3267,12340,527,2025-02-17 11:39:36,0.0
-548,22124,-1636,-832,12590,2001,2025-02-17 11:39:36,0.0
1668,21716,-2292,188,11944,2202,2025-02-17 11:39:36,0.0
2576,21536,36,1990,10467,1360,2025-02-17 11:39:36,0.0
3448,21092,612,4731,8389,35,2025-02-17 11:39:36,0.0
1868,20664,780,7247,5955,-539,2025-02-17 11:39:36,0.0
1520,19676,-832,8938,3736,-136,2025-02-17 11:39:36,0.0
3140,18940,-1824,9665,1548,-557,2025-02-17 11:39:36,0.0
3880,18860,-604,10444,-745,-1907,2025-02-17 11:39:36,0.0
2332,18636,-560,11500,-2887,-2811,2025-02-17 11:39:36,0.0
1852,18916,-568,11312,-4585,-2712,2025-02-17 11:39:36,0.0
3356,19708,-1244,10800,-5481,-3587,2025-02-17 11:39:36,0.0
256,18540,-1520,9256,-5032,-3297,2025-02-17 11:39:36,0.0
-3968,16392,-3568,6553,-2746,186,2025-02-17 11:39:36,0.0
-2840,14856,-4684,2504,-11,4157,2025-02-17 11:39:36,0.0
460,13404,-4788,-2426,2778,6086,2025-02-17 11:39:36,0.0
4636,12852,-1952,-6356,5587,4182,2025-02-17 11:39:36,0.0
2608,12080,468,-6973,8008,1599,2025-02-17 11:39:36,0.0
1144,11020,-24,-7574,11149,1295,2025-02-17 11:39:36,0.0
2920,10656,-736,-8502,13659,270,2025-02-17 11:39:36,0.0
2820,9724,-1340,-10127,15242,-1477,2025-02-17 11:39:36,0.0
1972,9112,-1664,-11855,15676,-2396,2025-02-17 11:39:36,0.0
2536,9276,-1424,-13890,14991,-3356,2025-02-17 11:39:36,0.0
4468,9744,812,-14560,12717,-5665,2025-02-17 11:39:36,0.0
5104,9412,3624,-12943,9143,-8606,2025-02-17 11:39:36,0.0
5048,9412,4744,-10181,5065,-11075,2025-02-17 11:39:36,0.0
5208,9724,4800,-7102,792,-13392,2025-02-17 11:39:36,0.0
4176,9864,3692,-4704,-2990,-15171,2025-02-17 11:39:36,0.0
3004,9872,2196,-3593,-5940,-16026,2025-02-17 11:39:36,0.0
1732,10176,1420,-3573,-7777,-15723,2025-02-17 11:39:36,0.0
2984,10580,1272,-3264,-4514,-11836,2025-02-17 11:39:36,0.0
2188,9788,1436,-2655,-3859,-10170,2025-02-17 11:39:36,0.0
2400,7036,-2216,-5211,-6238,-6670,2025-02-17 11:39:36,0.0
6736,9812,8836,-14313,-25283,1577,2025-02-17 11:39:36,0.0
1828,7384,6276,-5117,-13400,-2597,2025-02-17 11:39:36,0.0
-3076,7016,3272,-5832,-433,-3003,2025-02-17 11:39:36,0.0
-204,9148,2040,-5280,9395,-2336,2025-02-17 11:39:36,0.0
2052,10692,1956,-6548,15699,-5178,2025-02-17 11:39:36,0.0
2876,11136,2444,-5785,13196,-8043,2025-02-17 11:39:36,0.0
2648,9728,2836,-5365,7956,-11821,2025-02-17 11:39:36,0.0
1008,10096,4024,-4951,3013,-15320,2025-02-17 11:39:36,0.0
760,10576,4016,-4084,682,-17674,2025-02-17 11:39:36,0.0
2204,10064,3100,-4644,-872,-21374,2025-02-17 11:39:36,0.0
-1180,10388,4256,-4979,-645,-24696,2025-02-17 11:39:36,0.0
-2980,10400,4688,-4638,781,-26693,2025-02-17 11:39:36,0.0
-4152,10088,4944,-4344,1038,-27808,2025-02-17 11:39:37,0.0
-4728,8652,5236,-3732,314,-28505,2025-02-17 11:39:37,0.0
-4652,8628,4988,-2540,-590,-29354,2025-02-17 11:39:37,0.0
-6512,9372,2860,-2622,-2472,-29119,2025-02-17 11:39:37,0.0
-8276,10216,1144,-4229,-1114,-28386,2025-02-17 11:39:37,0.0
-8220,9964,1536,-6582,-353,-27146,2025-02-17 11:39:37,0.0
-7344,9024,4696,-5941,2454,-28337,2025-02-17 11:39:37,0.0
-8472,6404,5336,-4018,2668,-28683,2025-02-17 11:39:37,0.0
-9944,3908,5012,-1142,2513,-29079,2025-02-17 11:39:37,
-12752,3184,3216,-895,1916,-26684,2025-02-17 11:39:37,0.0
-14152,3196,2776,-1303,5031,-23555,2025-02-17 11:39:37,0.0
-14156,3376,2080,-2633,11402,-21913,2025-02-17 11:39:37,0.0
-16228,3032,2740,-3111,14982,-20441,2025-02-17 11:39:37,0.0
-17996,3216,4880,-1339,15403,-17578,2025-02-17 11:39:37,0.0
-17952,2428,4256,-368,12502,-14154,2025-02-17 11:39:37,0.0
-17508,1620,4732,648,9389,-11773,2025-02-17 11:39:37,0.0
-15904,352,2984,405,6606,-9879,2025-02-17 11:39:37,0.0
-14244,-196,3288,-578,4597,-9458,2025-02-17 11:39:37,0.0
-15764,304,4264,-578,3470,-9518,2025-02-17 11:39:37,0.0
-17480,808,4256,-124,2323,-8059,2025-02-17 11:39:37,0.0
-18536,848,4220,385,2002,-5661,2025-02-17 11:39:37,0.0
-17508,576,4560,543,3523,-4006,2025-02-17 11:39:37,0.0
-16248,132,4716,1470,6544,-3588,2025-02-17 11:39:37,0.0
-15264,-420,3716,1603,8892,-3767,2025-02-17 11:39:37,0.0
-14368,-1212,2796,514,8583,-3911,2025-02-17 11:39:37,0.0
-14352,-2032,2880,-617,6862,-3526,2025-02-17 11:39:37,0.0
-13600,-2228,2100,-892,5852,-2905,2025-02-17 11:39:37,0.0
-12844,-1960,1268,-1122,5883,-2443,2025-02-17 11:39:37,0.0
-11532,604,12104,6441,-18694,-2491,2025-02-17 11:39:37,0.0
-17540,-652,-416,3177,-14848,-1503,2025-02-17 11:39:37,0.0
-15868,1092,3056,332,-3463,-643,2025-02-17 11:39:37,0.0
-12112,-524,1616,490,4914,-1509,2025-02-17 11:39:37,0.0
-11988,-3164,276,203,6781,-2606,2025-02-17 11:39:37,0.0
-13044,-2948,800,283,4015,-1928,2025-02-17 11:39:37,0.0
-13636,-1876,2320,1035,1203,-811,2025-02-17 11:39:37,0.0
-12664,-1644,5112,2544,3383,170,2025-02-17 11:39:37,0.0
-11628,-2044,2376,3785,6251,-882,2025-02-17 11:39:37,0.0
-12716,-2060,1976,2778,8509,-759,2025-02-17 11:39:37,0.0
-13460,-1940,3788,2594,7669,-404,2025-02-17 11:39:37,0.0
-12196,-1564,1460,2797,5515,-515,2025-02-17 11:39:37,0.0
-11964,-924,1460,2141,4286,-657,2025-02-17 11:39:37,0.0
-13048,-1688,3132,1750,7112,-1868,2025-02-17 11:39:37,0.0
-14240,-2152,3876,3960,11569,-2855,2025-02-17 11:39:37,0.0
-14528,-3016,2572,5852,12423,-3596,2025-02-17 11:39:37,0.0
-14276,-4016,-696,4451,10236,-4311,2025-02-17 11:39:37,0.0
-14840,-4340,-1116,2110,8206,-4317,2025-02-17 11:39:37,0.0
-15504,-4060,184,1485,7152,-3596,2025-02-17 11:39:37,0.0
-16520,-3836,1208,1556,6452,-1621,2025-02-17 11:39:37,0.0
-16404,-3564,-248,701,4675,1429,2025-02-17 11:39:37,0.0
-14272,-3076,244,-1051,2816,2862,2025-02-17 11:39:37,0.0
-11896,-3424,-724,-2093,2297,1297,2025-02-17 11:39:37,0.0
-11856,-4976,24,-2066,1811,-308,2025-02-17 11:39:37,0.0
-11780,-4848,1092,-959,2344,-1558,2025-02-17 11:39:37,0.0
-12156,-5384,1696,844,4222,-2308,2025-02-17 11:39:37,0.0
-11632,-5420,544,1923,6098,-2646,2025-02-17 11:39:37,0.0
-11064,-4936,-2084,1618,7804,-3340,2025-02-17 11:39:37,0.0
-12888,-3332,-4744,-1061,10263,-3662,2025-02-17 11:39:37,0.0
-11716,-956,-6756,-3795,11258,-5255,2025-02-17 11:39:37,0.0
-14560,1016,-5568,-4251,10464,-7522,2025-02-17 11:39:37,0.0
-16032,128,-6336,-3263,9748,-7419,2025-02-17 11:39:37,0.0
-16016,-152,-6196,-3443,9080,-7161,2025-02-17 11:39:37,0.0
-18108,696,-4900,-4839,7461,-5869,2025-02-17 11:39:38,0.0
-20148,380,-4124,-4533,6276,-2797,2025-02-17 11:39:38,0.0
-19876,-596,-5296,-4118,4054,-103,2025-02-17 11:39:38,0.0
-19120,-1412,-5608,-4360,1174,1260,2025-02-17 11:39:38,0.0
-17696,-2444,-5220,-4501,-1974,2058,2025-02-17 11:39:38,0.0
-16144,-1272,-3208,-3697,-5780,2601,2025-02-17 11:39:38,0.0
-15352,1352,-4132,-3171,-7266,4776,2025-02-17 11:39:38,0.0
-12348,2640,-1568,-1648,-6986,5966,2025-02-17 11:39:38,0.0
-12132,2316,-1692,1948,-6001,6722,2025-02-17 11:39:38,0.0
-12572,2480,-2456,4093,-4973,7354,2025-02-17 11:39:38,0.0
-10960,1584,-3756,4161,-4825,6348,2025-02-17 11:39:38,0.0
-10680,2036,-4196,3126,-4903,5219,2025-02-17 11:39:38,0.0
-11964,2824,-4228,1582,-4280,4605,2025-02-17 11:39:38,0.0
-11468,3000,-5416,877,-4100,4639,2025-02-17 11:39:38,0.0
-10484,3192,-3832,156,-4450,4164,2025-02-17 11:39:38,0.0
-10000,2884,-4204,-660,-3951,3007,2025-02-17 11:39:38,0.0
-11276,1940,-3704,-1594,-2738,2563,2025-02-17 11:39:38,0.0
-12416,888,-3508,-2212,-1393,2269,2025-02-17 11:39:38,0.0
-12688,1236,-4488,-3440,-1057,2130,2025-02-17 11:39:38,0.0
-12852,2068,-3800,-4286,-792,2446,2025-02-17 11:39:38,0.0
-14052,1868,-1336,-4063,661,3201,2025-02-17 11:39:38,0.0
-15072,1592,-2172,-3861,2591,4522,2025-02-17 11:39:38,0.0
-19436,-440,-2012,-4077,4859,7202,2025-02-17 11:39:38,0.0
-17060,-1196,240,-3434,3185,9394,2025-02-17 11:39:38,0.0
-11840,564,-1368,-3261,-3198,9214,2025-02-17 11:39:38,0.0
-9416,2516,-392,-2548,-6541,7962,2025-02-17 11:39:38,0.0
-8388,2952,-4,-2135,-4715,6023,2025-02-17 11:39:38,0.0
-8136,3328,544,-1981,-1934,3329,2025-02-17 11:39:38,0.0
-8188,3384,1108,-1973,-1474,408,2025-02-17 11:39:38,0.0
-9504,3668,2104,-1677,-2515,-1360,2025-02-17 11:39:38,0.0
-10344,4044,1336,-1636,-3569,-2725,2025-02-17 11:39:38,0.0
-11272,3976,1236,-1507,-3609,-3439,2025-02-17 11:39:38,0.0
-12328,3880,1516,-1181,-2728,-3752,2025-02-17 11:39:38,0.0
-13292,4696,896,-1220,-2701,-3320,2025-02-17 11:39:38,0.0
-12504,5248,132,-1553,-4404,-3480,2025-02-17 11:39:38,0.0
-11100,4572,-24,-2181,-6622,-4651,2025-02-17 11:39:38,0.0
