acceleration_x,acceleration_y,acceleration_z,gyroscope_x,gyroscope_y,gyroscope_z,timestamp,label
58.0,-96.39999999999998,-4.800000000000182,31.90000000000001,49.80000000000001,-7.099999999999994,2025-01-29 10:38:40,1
-18.0,131.60000000000002,83.19999999999982,28.90000000000001,66.80000000000001,-14.099999999999994,2025-01-29 10:38:40,1
-82.0,-56.39999999999998,-104.80000000000018,-30.099999999999994,0.8000000000000114,-23.099999999999994,2025-01-29 10:38:40,1
-22.0,79.60000000000002,47.19999999999982,-25.099999999999994,-17.19999999999999,22.90000000000001,2025-01-29 10:38:40,1
22.0,-60.39999999999998,-80.80000000000018,0.9000000000000057,-37.19999999999999,16.900000000000006,2025-01-29 10:38:40,1
94.0,-76.39999999999998,-68.80000000000018,21.90000000000001,-8.199999999999989,17.900000000000006,2025-01-29 10:38:40,1
-102.0,75.60000000000002,59.19999999999982,-8.099999999999994,-4.199999999999989,-17.099999999999994,2025-01-29 10:38:40,1
-10.0,35.60000000000002,-8.800000000000182,31.90000000000001,-9.199999999999989,6.900000000000006,2025-01-29 10:38:40,1
-46.0,-60.39999999999998,67.19999999999982,-23.099999999999994,-23.19999999999999,-6.099999999999994,2025-01-29 10:38:40,1
106.0,27.600000000000023,11.199999999999818,-29.099999999999994,-18.19999999999999,2.9000000000000057,2025-01-29 10:38:40,1
-22.0,83.60000000000002,87.19999999999982,-36.1,-1.1999999999999886,10.900000000000006,2025-01-29 10:38:40,1
58.0,35.60000000000002,19.199999999999815,-33.099999999999994,31.80000000000001,-2.0999999999999943,2025-01-29 10:38:40,1
106.0,-112.39999999999998,-40.80000000000018,-1.0999999999999943,58.80000000000001,15.900000000000006,2025-01-29 10:38:40,1
22.0,-28.399999999999977,-104.80000000000018,-16.099999999999994,40.80000000000001,1.9000000000000057,2025-01-29 10:38:40,1
10.0,-52.39999999999998,-112.80000000000018,-18.099999999999994,75.80000000000001,15.900000000000006,2025-01-29 10:38:40,1
-58.0,7.600000000000023,55.19999999999982,27.90000000000001,67.80000000000001,17.900000000000006,2025-01-29 10:38:40,1
-66.0,35.60000000000002,-136.80000000000018,-0.0999999999999943,70.80000000000001,20.90000000000001,2025-01-29 10:38:40,1
6.0,3.6000000000000227,-68.80000000000018,-21.099999999999994,41.80000000000001,7.900000000000006,2025-01-29 10:38:40,1
-50.0,3.6000000000000227,7.199999999999818,-49.1,-41.19999999999999,15.900000000000006,2025-01-29 10:38:40,1
-118.0,-20.399999999999977,-200.80000000000015,-77.1,-62.19999999999999,21.90000000000001,2025-01-29 10:38:40,1
94.0,15.600000000000025,35.19999999999982,-74.1,-26.19999999999999,17.900000000000006,2025-01-29 10:38:40,1
-18.0,-4.399999999999977,55.19999999999982,-52.1,72.80000000000001,-0.0999999999999943,2025-01-29 10:38:40,1
-22.0,-140.39999999999998,-52.80000000000018,-9.099999999999994,17.80000000000001,0.9000000000000057,2025-01-29 10:38:40,1
-54.0,-124.39999999999998,-76.80000000000018,3.9000000000000057,-58.19999999999999,34.900000000000006,2025-01-29 10:38:40,1
-14.0,-112.39999999999998,-56.80000000000018,-0.0999999999999943,-101.2,18.90000000000001,2025-01-29 10:38:40,1
10.0,-84.39999999999998,-32.80000000000018,14.900000000000006,-88.19999999999999,29.90000000000001,2025-01-29 10:38:40,1
38.0,123.60000000000002,91.19999999999982,64.9,-85.19999999999999,61.900000000000006,2025-01-29 10:38:40,1
10.0,107.60000000000002,87.19999999999982,70.9,-51.19999999999999,68.9,2025-01-29 10:38:40,1
-14.0,-88.39999999999998,243.19999999999985,75.9,-20.19999999999999,80.9,2025-01-29 10:38:40,1
-2.0,-132.39999999999998,191.19999999999985,128.9,26.80000000000001,72.9,2025-01-29 10:38:40,1
-94.0,-204.4,-0.8000000000001819,144.9,35.80000000000001,81.9,2025-01-29 10:38:40,1
-22.0,23.600000000000023,167.19999999999982,201.9,1.8000000000000114,60.900000000000006,2025-01-29 10:38:40,1
-82.0,75.60000000000002,31.199999999999815,156.9,-60.19999999999999,90.9,2025-01-29 10:38:40,1
-22.0,-8.399999999999977,87.19999999999982,183.9,-72.19999999999999,111.9,2025-01-29 10:38:40,1
-22.0,-16.399999999999977,243.19999999999985,132.9,30.80000000000001,96.9,2025-01-29 10:38:41,1
94.0,-16.399999999999977,47.19999999999982,127.9,110.8,73.9,2025-01-29 10:38:41,1
-22.0,-8.399999999999977,3.199999999999818,136.9,113.8,56.900000000000006,2025-01-29 10:38:41,1
-10.0,-28.399999999999977,-88.80000000000018,90.9,82.80000000000001,49.900000000000006,2025-01-29 10:38:41,1
-62.0,-16.399999999999977,-156.80000000000018,88.9,59.80000000000001,55.900000000000006,2025-01-29 10:38:41,1
-110.0,-52.39999999999998,-80.80000000000018,62.900000000000006,48.80000000000001,48.900000000000006,2025-01-29 10:38:41,1
10.0,-8.399999999999977,79.19999999999982,70.9,24.80000000000001,41.900000000000006,2025-01-29 10:38:41,1
-74.0,-68.39999999999998,87.19999999999982,47.900000000000006,-2.1999999999999886,37.900000000000006,2025-01-29 10:38:41,1
22.0,-64.39999999999998,3.199999999999818,40.900000000000006,6.800000000000011,37.900000000000006,2025-01-29 10:38:41,1
2.0,-120.39999999999998,-24.800000000000185,47.900000000000006,32.80000000000001,29.90000000000001,2025-01-29 10:38:41,1
-90.0,-48.39999999999998,75.19999999999982,111.9,57.80000000000001,76.9,2025-01-29 10:38:41,1
-6.0,-120.39999999999998,-20.800000000000185,106.9,109.8,102.9,2025-01-29 10:38:41,1
-30.0,-108.39999999999998,67.19999999999982,124.9,179.8,80.9,2025-01-29 10:38:41,1
-66.0,-140.39999999999998,-12.800000000000182,159.9,157.8,106.9,2025-01-29 10:38:41,1
6.0,-28.399999999999977,-112.80000000000018,146.9,150.8,96.9,2025-01-29 10:38:41,1
-126.0,51.60000000000002,67.19999999999982,139.9,149.8,108.9,2025-01-29 10:38:41,1
-66.0,59.60000000000002,-68.80000000000018,162.9,141.8,175.9,2025-01-29 10:38:41,1
2.0,23.600000000000023,-344.8000000000002,222.9,156.8,218.9,2025-01-29 10:38:41,1
-102.0,71.60000000000002,-108.80000000000018,198.9,168.8,215.9,2025-01-29 10:38:41,1
-182.0,171.60000000000002,-124.80000000000018,209.9,194.8,307.9,2025-01-29 10:38:41,1
142.0,235.6,-84.80000000000018,173.9,256.8,337.9,2025-01-29 10:38:41,1
158.0,243.6,-432.8000000000002,77.9,354.8,365.9,2025-01-29 10:38:41,1
266.0,567.6,-604.8000000000002,121.9,604.8,442.9,2025-01-29 10:38:41,1
222.0,959.6,-288.8000000000002,92.9,855.8,421.9,2025-01-29 10:38:41,1
-138.0,1103.6,-20.800000000000185,-41.1,1020.8,469.9,2025-01-29 10:38:41,1
-562.0,695.6,423.1999999999998,-137.1,1080.8,500.9,2025-01-29 10:38:41,1
-994.0,419.6,959.1999999999998,113.9,664.8,614.9,2025-01-29 10:38:41,1
-862.0,383.6,547.1999999999998,352.9,-261.2,650.9,2025-01-29 10:38:41,1
-402.0,459.6,427.1999999999998,523.9,-1067.2,584.9,2025-01-29 10:38:41,1
-146.0,683.6,631.1999999999998,844.9,-1443.2,478.9,2025-01-29 10:38:41,1
370.0,923.6,731.1999999999998,1167.9,-1369.2,444.9,2025-01-29 10:38:41,1
694.0,999.6,775.1999999999998,1336.9,-916.2,258.9,2025-01-29 10:38:41,1
486.0,1051.6,647.1999999999998,1330.9,-404.2,82.9,2025-01-29 10:38:41,1
394.0,963.6,211.19999999999985,1283.9,121.8,-66.1,2025-01-29 10:38:41,1
134.0,791.6,211.19999999999985,1250.9,478.8,-203.1,2025-01-29 10:38:41,1
-14.0,591.6,11.199999999999818,1280.9,601.8,-228.1,2025-01-29 10:38:41,1
-150.0,759.6,-92.80000000000018,1377.9,452.8,-298.1,2025-01-29 10:38:41,1
-362.0,635.6,-404.8000000000002,1269.9,261.8,-409.1,2025-01-29 10:38:41,1
-614.0,459.6,-492.8000000000002,1219.9,-22.19999999999999,-370.1,2025-01-29 10:38:41,1
-598.0,191.6,-220.80000000000015,1226.9,-379.2,-319.1,2025-01-29 10:38:41,1
-566.0,63.60000000000002,-160.80000000000018,1208.9,-732.2,-316.1,2025-01-29 10:38:41,1
-678.0,-140.39999999999998,403.1999999999998,1346.9,-940.2,-254.1,2025-01-29 10:38:41,1
-478.0,-268.4,231.19999999999985,1630.9,-1283.2,-250.1,2025-01-29 10:38:41,1
-290.0,-384.4,195.19999999999985,1846.9,-1504.2,-222.1,2025-01-29 10:38:41,1
-142.0,-416.4,323.1999999999998,2030.9,-1355.2,-234.1,2025-01-29 10:38:41,1
-138.0,-140.39999999999998,483.1999999999998,2133.9,-1087.2,-280.1,2025-01-29 10:38:41,1
-78.0,107.60000000000002,-48.80000000000018,2027.9,-1119.2,-518.1,2025-01-29 10:38:41,1
-78.0,343.6,-264.8000000000002,1803.9,-1244.2,-885.1,2025-01-29 10:38:41,1
-182.0,243.6,-436.8000000000002,1606.9,-1361.2,-1068.1,2025-01-29 10:38:41,1
-250.0,3.6000000000000227,-440.8000000000002,1400.9,-1317.2,-1224.1,2025-01-29 10:38:41,1
-146.0,-456.4,55.19999999999982,1213.9,-1309.2,-1376.1,2025-01-29 10:38:41,1
-126.0,-508.4,467.1999999999998,1216.9,-1499.2,-1571.1,2025-01-29 10:38:41,1
-106.0,-588.4,583.1999999999998,1274.9,-1571.2,-1586.1,2025-01-29 10:38:41,1
10.0,-764.4,1107.1999999999998,1383.9,-1328.2,-1645.1,2025-01-29 10:38:41,1
98.0,-1120.4,1375.1999999999998,1530.9,-974.2,-1687.1,2025-01-29 10:38:41,1
38.0,-1408.4,1587.1999999999998,1670.9,-483.2,-1719.1,2025-01-29 10:38:41,1
82.0,-1820.4,1687.1999999999998,1685.9,-121.2,-1645.1,2025-01-29 10:38:41,1
-286.0,-2324.4,1267.1999999999998,1809.9,153.8,-1371.1,2025-01-29 10:38:41,1
-450.0,-2708.4,1503.1999999999998,1872.9,602.8,-933.1,2025-01-29 10:38:41,1
-494.0,-2708.4,1627.1999999999998,1902.9,828.8,-591.1,2025-01-29 10:38:41,1
-838.0,-2760.4,1651.1999999999998,1875.9,581.8,-397.1,2025-01-29 10:38:41,1
-1158.0,-2560.4,1643.1999999999998,1850.9,284.8,-125.1,2025-01-29 10:38:41,1
-962.0,-2512.4,1423.1999999999998,1604.9,-49.19999999999999,-36.1,2025-01-29 10:38:41,1
-814.0,-2340.4,1663.1999999999998,1402.9,-346.2,-160.1,2025-01-29 10:38:41,1
-794.0,-1876.4,1895.2,1241.9,-217.2,-347.1,2025-01-29 10:38:41,1
-586.0,-2188.4,1823.2,1150.9,100.8,-533.1,2025-01-29 10:38:42,1
-602.0,-2648.4,2019.2,1203.9,393.8,-643.1,2025-01-29 10:38:42,1
-562.0,-3384.4,2191.2,1309.9,811.8,-569.1,2025-01-29 10:38:42,1
-554.0,-3560.4,2259.2,1455.9,1036.8,-442.1,2025-01-29 10:38:42,1
-670.0,-3412.4,1875.2,1599.9,913.8,-240.1,2025-01-29 10:38:42,1
-610.0,-2984.4,1907.2,1492.9,644.8,-5.099999999999994,2025-01-29 10:38:42,1
-342.0,-2572.4,1615.1999999999998,1297.9,593.8,101.9,2025-01-29 10:38:42,1
-170.0,-2212.4,1687.1999999999998,1078.9,815.8,115.9,2025-01-29 10:38:42,1
-130.0,-2144.4,1619.1999999999998,761.9,1001.8,134.9,2025-01-29 10:38:42,1
-86.0,-2124.4,1307.1999999999998,437.9,1230.8,175.9,2025-01-29 10:38:42,1
-126.0,-2340.4,1151.1999999999998,173.9,1351.8,223.9,2025-01-29 10:38:42,1
-222.0,-2348.4,1111.1999999999998,-86.1,1461.8,137.9,2025-01-29 10:38:42,1
-562.0,-1932.4,1219.1999999999998,-379.1,1399.8,90.9,2025-01-29 10:38:42,1
-702.0,-1732.4,1315.1999999999998,-728.1,1185.8,-104.1,2025-01-29 10:38:42,1
-954.0,-1500.4,1227.1999999999998,-1057.1,907.8,-319.1,2025-01-29 10:38:42,1
-886.0,-1652.4,1007.1999999999998,-1355.1,863.8,-633.1,2025-01-29 10:38:42,1
-974.0,-1664.4,915.1999999999998,-1622.1,729.8,-912.1,2025-01-29 10:38:42,1
-870.0,-1672.4,1107.1999999999998,-1918.1,459.8,-1258.1,2025-01-29 10:38:42,1
-878.0,-1656.4,1495.1999999999998,-2350.1,237.8,-1506.1,2025-01-29 10:38:42,1
-862.0,-1648.4,1659.1999999999998,-2651.1,130.8,-1621.1,2025-01-29 10:38:42,1
-650.0,-1752.4,1871.2,-2905.1,125.8,-1863.1,2025-01-29 10:38:42,1
-718.0,-1648.4,1903.2,-3159.1,154.8,-2089.1,2025-01-29 10:38:42,1
-962.0,-1940.4,1883.2,-3385.1,-17.19999999999999,-2138.1,2025-01-29 10:38:42,1
-998.0,-2268.4,1679.1999999999998,-3604.1,9.800000000000011,-2141.1,2025-01-29 10:38:42,1
-1210.0,-2760.4,1491.1999999999998,-3959.1,205.8,-2195.1,2025-01-29 10:38:42,1
-1302.0,-3240.4,1343.1999999999998,-4128.1,440.8,-2372.1,2025-01-29 10:38:42,1
-1218.0,-3456.4,903.1999999999998,-4124.1,494.8,-2690.1,2025-01-29 10:38:42,1
-1374.0,-3252.4,663.1999999999998,-3770.1,388.8,-3064.1,2025-01-29 10:38:42,1
-1774.0,-3444.4,579.1999999999998,-3448.1,234.8,-3108.1,2025-01-29 10:38:42,1
-1822.0,-3908.4,615.1999999999998,-3183.1,-185.2,-2926.1,2025-01-29 10:38:42,1
-1822.0,-4568.4,351.1999999999998,-2752.1,-544.2,-2581.1,2025-01-29 10:38:42,1
-2098.0,-5068.4,27.199999999999815,-2620.1,-473.2,-1788.1,2025-01-29 10:38:42,1
-2166.0,-4960.4,15.199999999999818,-2625.1,-389.2,-776.1,2025-01-29 10:38:42,1
-1966.0,-4736.4,551.1999999999998,-2359.1,-717.2,122.9,2025-01-29 10:38:42,1
-1918.0,-4312.4,915.1999999999998,-1878.1,-943.2,827.9,2025-01-29 10:38:42,1
-1998.0,-3572.4,603.1999999999998,-1383.1,-749.2,1452.9,2025-01-29 10:38:42,1
-2086.0,-3228.4,171.19999999999982,-980.1,-1052.2,2263.9,2025-01-29 10:38:42,1
-1858.0,-3024.4,495.1999999999998,-667.1,-2117.2,3073.9,2025-01-29 10:38:42,1
-1274.0,-3008.4,1295.1999999999998,-367.1,-2916.2,3684.9,2025-01-29 10:38:42,1
-222.0,-3344.4,2131.2,127.9,-3105.2,4019.9,2025-01-29 10:38:42,1
746.0,-3216.4,1843.2,612.9,-2958.2,4137.9,2025-01-29 10:38:42,1
1750.0,-1992.4,971.1999999999998,996.9,-2292.2,4142.9,2025-01-29 10:38:42,1
2286.0,-532.4,-332.8000000000002,1114.9,-1080.2,4274.9,2025-01-29 10:38:42,1
2434.0,1247.6,-1716.8000000000002,709.9,666.8,4269.9,2025-01-29 10:38:42,1
2282.0,2303.6,-1604.8000000000002,287.9,2132.8,3918.9,2025-01-29 10:38:42,1
1118.0,2523.6,-880.8000000000002,193.9,2823.8,3413.9,2025-01-29 10:38:42,1
14.0,2007.6,-276.8000000000002,298.9,2841.8,3379.9,2025-01-29 10:38:42,1
-294.0,635.6,-28.800000000000185,257.9,2764.8,3494.9,2025-01-29 10:38:42,1
-778.0,-1008.4,1355.1999999999998,566.9,3088.8,3657.9,2025-01-29 10:38:42,1
-1110.0,-2348.4,2171.2,1110.9,3121.8,3915.9,2025-01-29 10:38:42,1
-1686.0,-2432.4,1695.1999999999998,1986.9,2770.8,4435.9,2025-01-29 10:38:42,1
-1590.0,-1252.4,547.1999999999998,2753.9,1934.8,5121.9,2025-01-29 10:38:42,1
-1126.0,303.6,-712.8000000000002,2985.9,1053.8,5408.9,2025-01-29 10:38:42,1
-1002.0,1963.6,-964.8000000000002,3126.9,294.8,5490.9,2025-01-29 10:38:42,1
-146.0,3263.6,-1624.8000000000002,2917.9,-642.2,5355.9,2025-01-29 10:38:42,1
1034.0,3699.6,-1348.8000000000002,2103.9,-1434.2,4785.9,2025-01-29 10:38:42,1
1894.0,3359.6,-820.8000000000002,1324.9,-1799.2,4175.9,2025-01-29 10:38:42,1
2898.0,2943.6,11.199999999999818,646.9,-1960.2,3552.9,2025-01-29 10:38:42,1
3370.0,2727.6,-76.80000000000018,128.9,-1676.2,2934.9,2025-01-29 10:38:42,1
3202.0,2535.6,15.199999999999818,-177.1,-852.2,2381.9,2025-01-29 10:38:42,1
2258.0,2175.6,251.19999999999985,-307.1,76.80000000000001,1883.9,2025-01-29 10:38:43,1
1018.0,1195.6,743.1999999999998,-200.1,174.8,1447.9,2025-01-29 10:38:43,1
-126.0,31.600000000000023,1567.1999999999998,27.90000000000001,-789.2,1347.9,2025-01-29 10:38:43,1
-158.0,207.6,1447.1999999999998,396.9,-1381.2,1354.9,2025-01-29 10:38:43,1
-94.0,1139.6,1407.1999999999998,448.9,-1446.2,1196.9,2025-01-29 10:38:43,1
-486.0,1935.6,951.1999999999998,289.9,-1182.2,1256.9,2025-01-29 10:38:43,1
-302.0,1703.6,1179.1999999999998,221.9,-1012.2,964.9,2025-01-29 10:38:43,1
-870.0,1687.6,1135.1999999999998,233.9,-1434.2,268.9,2025-01-29 10:38:43,1
-1202.0,2235.6,1115.1999999999998,277.9,-2812.2,-428.1,2025-01-29 10:38:43,1
-1390.0,2631.6,1803.2,343.9,-4161.2,-854.1,2025-01-29 10:38:43,1
-1198.0,2471.6,2323.2,408.9,-5528.2,-964.1,2025-01-29 10:38:43,1
-574.0,1967.6,3179.2,587.9,-6218.2,-854.1,2025-01-29 10:38:43,1
342.0,1551.6,3479.2,1151.9,-5557.2,-697.1,2025-01-29 10:38:43,1
1206.0,1219.6,3139.2,1820.9,-3335.2,-727.1,2025-01-29 10:38:43,1
1278.0,987.6,2415.2,2211.9,150.8,-832.1,2025-01-29 10:38:43,1
570.0,595.6,1303.1999999999998,2546.9,3549.8,-902.1,2025-01-29 10:38:43,1
-1722.0,1411.6,87.19999999999982,2806.9,4950.8,-952.1,2025-01-29 10:38:43,1
-4978.0,2747.6,471.1999999999998,2355.9,3632.8,-108.1,2025-01-29 10:38:43,1
-6994.0,2567.6,2043.2,2088.9,614.8,1034.9,2025-01-29 10:38:43,1
-6746.0,1095.6,2699.2,2346.9,-1856.2,1828.9,2025-01-29 10:38:43,1
-5150.0,-1816.4,3951.2,3326.9,-3073.2,1965.9,2025-01-29 10:38:43,1
-2886.0,-1632.4,3267.2,5081.9,-3588.2,1931.9,2025-01-29 10:38:43,1
-954.0,399.6,707.1999999999998,5647.9,-2558.2,1668.9,2025-01-29 10:38:43,1
-230.0,2375.6,-772.8000000000002,5211.9,-623.2,1171.9,2025-01-29 10:38:43,1
-322.0,3619.6,-2900.8,4013.9,934.8,877.9,2025-01-29 10:38:43,1
-782.0,4579.6,-3928.8,1689.9,1430.8,716.9,2025-01-29 10:38:43,1
-850.0,4203.6,-2728.8,-273.1,1292.8,649.9,2025-01-29 10:38:43,1
-62.0,2151.6,-356.8000000000002,-865.1,228.8,268.9,2025-01-29 10:38:43,1
790.0,87.60000000000002,1155.1999999999998,-14.099999999999994,-1308.2,-398.1,2025-01-29 10:38:43,1
1754.0,-1412.4,715.1999999999998,869.9,-2423.2,-908.1,2025-01-29 10:38:43,1
2602.0,-2684.4,395.1999999999998,1454.9,-2899.2,-1164.1,2025-01-29 10:38:43,1
2318.0,-3252.4,259.1999999999998,1982.9,-1367.2,-737.1,2025-01-29 10:38:43,1
1666.0,-2956.4,607.1999999999998,2354.9,1529.8,96.9,2025-01-29 10:38:43,1
1574.0,-1960.4,279.1999999999998,2646.9,3009.8,447.9,2025-01-29 10:38:43,1
686.0,-768.4,283.1999999999998,2549.9,2591.8,136.9,2025-01-29 10:38:43,1
-426.0,-152.39999999999998,-160.80000000000018,2318.9,1877.8,-189.1,2025-01-29 10:38:43,1
-1038.0,355.6,19.199999999999815,2008.9,997.8,-320.1,2025-01-29 10:38:43,1
-794.0,267.6,-12.800000000000182,1660.9,-288.2,-597.1,2025-01-29 10:38:43,1
-226.0,-176.39999999999998,-472.8000000000002,1272.9,-1106.2,-1245.1,2025-01-29 10:38:43,1
62.0,-904.4,-156.80000000000018,1038.9,-1190.2,-1647.1,2025-01-29 10:38:43,1
454.0,-1044.4,287.1999999999998,989.9,-764.2,-1741.1,2025-01-29 10:38:43,1
850.0,-692.4,863.1999999999998,729.9,-183.2,-1862.1,2025-01-29 10:38:43,1
898.0,-936.4,835.1999999999998,373.9,510.8,-2061.1,2025-01-29 10:38:43,1
698.0,-1108.4,1491.1999999999998,32.900000000000006,853.8,-2492.1,2025-01-29 10:38:43,1
566.0,-1440.4,1571.1999999999998,-162.1,1291.8,-3109.1,2025-01-29 10:38:43,1
14.0,-1640.4,1167.1999999999998,-303.1,1418.8,-3230.1,2025-01-29 10:38:43,1
-110.0,-1748.4,1175.1999999999998,-518.1,1448.8,-3373.1,2025-01-29 10:38:43,1
-210.0,-1676.4,1275.1999999999998,-635.1,1107.8,-3439.1,2025-01-29 10:38:43,1
-490.0,-1348.4,1387.1999999999998,-863.1,927.8,-3349.1,2025-01-29 10:38:43,1
-322.0,-1052.4,1211.1999999999998,-1225.1,665.8,-3204.1,2025-01-29 10:38:43,1
-222.0,-668.4,1215.1999999999998,-1814.1,610.8,-2961.1,2025-01-29 10:38:43,1
30.0,-896.4,1239.1999999999998,-2509.1,781.8,-2773.1,2025-01-29 10:38:43,1
138.0,-1176.4,1403.1999999999998,-2958.1,940.8,-2604.1,2025-01-29 10:38:43,1
182.0,-1516.4,1135.1999999999998,-3339.1,1101.8,-2313.1,2025-01-29 10:38:43,1
298.0,-1420.4,1111.1999999999998,-3635.1,1346.8,-1993.1,2025-01-29 10:38:43,1
226.0,-1056.4,1311.1999999999998,-3922.1,1601.8,-1907.1,2025-01-29 10:38:43,1
-182.0,-964.4,1355.1999999999998,-4165.1,1972.8,-2038.1,2025-01-29 10:38:43,1
-694.0,-1580.4,1683.1999999999998,-4192.1,2239.8,-2099.1,2025-01-29 10:38:43,1
-762.0,-2364.4,1935.2,-3927.1,2146.8,-2240.1,2025-01-29 10:38:43,1
-1102.0,-2988.4,1591.1999999999998,-3676.1,1719.8,-2445.1,2025-01-29 10:38:43,1
-1170.0,-3088.4,1087.1999999999998,-3405.1,1014.8,-2411.1,2025-01-29 10:38:43,1
-1046.0,-2484.4,927.1999999999998,-3167.1,528.8,-2342.1,2025-01-29 10:38:43,1
-694.0,-1336.4,851.1999999999998,-3337.1,445.8,-2533.1,2025-01-29 10:38:44,1
-570.0,-616.4,571.1999999999998,-3847.1,536.8,-2713.1,2025-01-29 10:38:44,1
-42.0,-1416.4,1251.1999999999998,-4052.1,1062.8,-2882.1,2025-01-29 10:38:44,1
-154.0,-2620.4,1399.1999999999998,-4101.1,1053.8,-3350.1,2025-01-29 10:38:44,1
-434.0,-3376.4,1367.1999999999998,-3957.1,1009.8,-3264.1,2025-01-29 10:38:44,1
-518.0,-3136.4,1483.1999999999998,-3737.1,1056.8,-3111.1,2025-01-29 10:38:44,1
-406.0,-2336.4,1531.1999999999998,-3815.1,1442.8,-3322.1,2025-01-29 10:38:44,1
-514.0,-2332.4,1075.1999999999998,-3680.1,2056.8,-4031.1,2025-01-29 10:38:44,1
-1354.0,-2940.4,-712.8000000000002,-3458.1,3130.8,-4746.1,2025-01-29 10:38:44,1
-2546.0,-4268.4,-1200.8000000000002,-2964.1,3960.8,-5303.1,2025-01-29 10:38:44,1
-4490.0,-5728.4,-784.8000000000002,-2038.1,3561.8,-5359.1,2025-01-29 10:38:44,1
-5978.0,-5948.4,-148.80000000000018,-598.1,483.8,-4187.1,2025-01-29 10:38:44,1
-6118.0,-5040.4,-1016.8000000000002,72.9,-3055.2,-2063.1,2025-01-29 10:38:44,1
-4198.0,-3412.4,-1716.8000000000002,-19.099999999999994,-4752.2,-66.1,2025-01-29 10:38:44,1
-1754.0,-2084.4,-1796.8000000000002,-382.1,-4803.2,674.9,2025-01-29 10:38:44,1
-398.0,-752.4,-1732.8000000000002,-1156.1,-4262.2,1313.9,2025-01-29 10:38:44,1
1110.0,-724.4,-1288.8000000000002,-2512.1,-3038.2,2493.9,2025-01-29 10:38:44,1
2430.0,-1492.4,-248.80000000000015,-3123.1,-1928.2,2689.9,2025-01-29 10:38:44,1
2086.0,-2248.4,-4.800000000000182,-2775.1,-1612.2,2745.9,2025-01-29 10:38:44,1
2138.0,-2152.4,-740.8000000000002,-1931.1,-1785.2,2681.9,2025-01-29 10:38:44,1
2050.0,-644.4,-744.8000000000002,-831.1,-2918.2,2506.9,2025-01-29 10:38:44,1
2546.0,959.6,-1892.8,-524.1,-3918.2,2539.9,2025-01-29 10:38:44,1
3402.0,1971.6,-3236.8,-1349.1,-3672.2,2650.9,2025-01-29 10:38:44,1
3446.0,2763.6,-2780.8,-2449.1,-2250.2,2855.9,2025-01-29 10:38:44,1
2962.0,2559.6,-1512.8000000000002,-3548.1,-70.19999999999999,2815.9,2025-01-29 10:38:44,1
1570.0,1839.6,-84.80000000000018,-4374.1,1497.8,2674.9,2025-01-29 10:38:44,1
298.0,735.6,535.1999999999998,-4572.1,1038.8,2569.9,2025-01-29 10:38:44,1
-842.0,-16.399999999999977,883.1999999999998,-4262.1,82.80000000000001,2264.9,2025-01-29 10:38:44,1
-1834.0,-708.4,1295.1999999999998,-3281.1,-783.2,1866.9,2025-01-29 10:38:44,1
-2278.0,-780.4,1347.1999999999998,-2209.1,-1461.2,1611.9,2025-01-29 10:38:44,1
-1934.0,-656.4,567.1999999999998,-1087.1,-2384.2,1347.9,2025-01-29 10:38:44,1
-2058.0,259.6,671.1999999999998,-192.1,-3219.2,1340.9,2025-01-29 10:38:44,1
-1538.0,1167.6,1051.1999999999998,125.9,-3874.2,1499.9,2025-01-29 10:38:44,1
-442.0,1819.6,1271.1999999999998,133.9,-3842.2,1838.9,2025-01-29 10:38:44,1
410.0,1635.6,1431.1999999999998,-125.1,-3039.2,2238.9,2025-01-29 10:38:44,1
1166.0,1195.6,1531.1999999999998,-390.1,-1656.2,2482.9,2025-01-29 10:38:44,1
1174.0,779.6,1915.2,-345.1,-159.2,2362.9,2025-01-29 10:38:44,1
150.0,543.6,1751.1999999999998,221.9,587.8,2073.9,2025-01-29 10:38:44,1
-610.0,663.6,1827.2,694.9,92.8,2001.9,2025-01-29 10:38:44,1
-1090.0,859.6,1947.2,1043.9,-749.2,1956.9,2025-01-29 10:38:44,1
-1050.0,1107.6,2067.2,1426.9,-1933.2,1824.9,2025-01-29 10:38:44,1
-686.0,1135.6,2379.2,1868.9,-3025.2,1702.9,2025-01-29 10:38:44,1
82.0,939.6,2979.2,2335.9,-3475.2,1563.9,2025-01-29 10:38:44,1
702.0,835.6,3719.2,2818.9,-3255.2,1508.9,2025-01-29 10:38:44,1
1358.0,439.6,3819.2,3394.9,-2228.2,1284.9,2025-01-29 10:38:44,1
1422.0,1079.6,3883.2,3817.9,-1012.2,735.9,2025-01-29 10:38:44,1
630.0,1907.6,3827.2,4132.9,-312.2,149.9,2025-01-29 10:38:44,1
178.0,2691.6,3207.2,4221.9,-230.2,-271.1,2025-01-29 10:38:44,1
-126.0,3203.6,2843.2,4101.9,-299.2,-518.1,2025-01-29 10:38:44,1
-434.0,2975.6,2891.2,3733.9,93.8,-609.1,2025-01-29 10:38:44,1
-918.0,1983.6,2987.2,3488.9,736.8,-537.1,2025-01-29 10:38:44,1
-1822.0,667.6,2919.2,3464.9,1688.8,-198.1,2025-01-29 10:38:44,1
-2858.0,179.60000000000002,2703.2,3606.9,2462.8,112.9,2025-01-29 10:38:44,1
-3982.0,587.6,1343.1999999999998,3967.9,2708.8,822.9,2025-01-29 10:38:44,1
-4194.0,1663.6,1187.1999999999998,3821.9,2294.8,1392.9,2025-01-29 10:38:44,1
-3638.0,2615.6,2427.2,3415.9,641.8,1443.9,2025-01-29 10:38:44,1
-3454.0,2831.6,2283.2,3088.9,33.80000000000001,1304.9,2025-01-29 10:38:44,1
-3546.0,1359.6,1163.1999999999998,2417.9,2081.8,1294.9,2025-01-29 10:38:44,1
-4050.0,571.6,739.1999999999998,2051.9,3433.8,1366.9,2025-01-29 10:38:44,1
-4582.0,419.6,-672.8000000000002,1612.9,2833.8,1499.9,2025-01-29 10:38:44,1
-4458.0,1487.6,-1612.8000000000002,728.9,1525.8,1964.9,2025-01-29 10:38:45,1
-2778.0,2603.6,-944.8000000000002,-41.1,137.8,1831.9,2025-01-29 10:38:45,1
-1610.0,2747.6,-1320.8000000000002,-458.1,-628.2,1076.9,2025-01-29 10:38:45,1
-566.0,1375.6,-2760.8,-895.1,-369.2,105.9,2025-01-29 10:38:45,1
-450.0,591.6,-2448.8,-1071.1,135.8,-41.1,2025-01-29 10:38:45,1
974.0,-44.39999999999998,-2156.8,-1078.1,-373.2,9.900000000000006,2025-01-29 10:38:45,1
2398.0,-460.4,-792.8000000000002,-667.1,-1092.2,-260.1,2025-01-29 10:38:45,1
3818.0,-972.4,-28.800000000000185,-119.1,-1000.2,-810.1,2025-01-29 10:38:45,1
4182.0,-1496.4,-80.80000000000018,242.9,268.8,-1405.1,2025-01-29 10:38:45,1
3558.0,-1896.4,-668.8000000000002,426.9,2446.8,-1740.1,2025-01-29 10:38:45,1
2566.0,-1656.4,-972.8000000000002,609.9,4111.8,-1877.1,2025-01-29 10:38:45,1
1318.0,-932.4,-856.8000000000002,618.9,4496.8,-2083.1,2025-01-29 10:38:45,1
358.0,-588.4,-800.8000000000002,461.9,3572.8,-2320.1,2025-01-29 10:38:45,1
-518.0,-408.4,-320.8000000000002,311.9,2278.8,-2609.1,2025-01-29 10:38:45,1
-1062.0,-876.4,-304.8000000000002,148.9,1018.8,-2599.1,2025-01-29 10:38:45,1
-950.0,-1200.4,115.19999999999982,293.9,63.80000000000001,-2274.1,2025-01-29 10:38:45,1
398.0,-1672.4,-208.80000000000015,491.9,-743.2,-2211.1,2025-01-29 10:38:45,1
566.0,-1796.4,167.19999999999982,719.9,-745.2,-2269.1,2025-01-29 10:38:45,1
866.0,-1604.4,351.1999999999998,819.9,-514.2,-2128.1,2025-01-29 10:38:45,1
590.0,-1440.4,803.1999999999998,721.9,-80.19999999999999,-1876.1,2025-01-29 10:38:45,1
470.0,-1348.4,1039.1999999999998,555.9,622.8,-1702.1,2025-01-29 10:38:45,1
-10.0,-1284.4,939.1999999999998,455.9,1098.8,-1532.1,2025-01-29 10:38:45,1
-242.0,-1340.4,1115.1999999999998,513.9,914.8,-1468.1,2025-01-29 10:38:45,1
-398.0,-1304.4,1127.1999999999998,699.9,373.8,-1445.1,2025-01-29 10:38:45,1
-426.0,-1296.4,1235.1999999999998,812.9,93.8,-1297.1,2025-01-29 10:38:45,1
-170.0,-1324.4,1315.1999999999998,851.9,39.80000000000001,-1037.1,2025-01-29 10:38:45,1
242.0,-1032.4,1303.1999999999998,806.9,40.80000000000001,-818.1,2025-01-29 10:38:45,1
414.0,-1188.4,1455.1999999999998,655.9,344.8,-685.1,2025-01-29 10:38:45,1
398.0,-1428.4,1247.1999999999998,414.9,921.8,-551.1,2025-01-29 10:38:45,1
-222.0,-1356.4,1339.1999999999998,188.9,1146.8,-307.1,2025-01-29 10:38:45,1
-326.0,-1124.4,1103.1999999999998,-73.1,1090.8,-23.099999999999994,2025-01-29 10:38:45,1
-586.0,-896.4,1271.1999999999998,-390.1,756.8,280.9,2025-01-29 10:38:45,1
-642.0,-1048.4,1271.1999999999998,-669.1,236.8,654.9,2025-01-29 10:38:45,1
-462.0,-1240.4,1475.1999999999998,-890.1,168.8,812.9,2025-01-29 10:38:45,1
-606.0,-1336.4,1819.2,-1043.1,277.8,902.9,2025-01-29 10:38:45,1
-646.0,-1328.4,1483.1999999999998,-1239.1,398.8,1020.9,2025-01-29 10:38:45,1
-798.0,-1260.4,1283.1999999999998,-1377.1,253.8,1081.9,2025-01-29 10:38:45,1
-874.0,-1264.4,1307.1999999999998,-1525.1,-50.19999999999999,1093.9,2025-01-29 10:38:45,1
-590.0,-1440.4,1251.1999999999998,-1505.1,-284.2,992.9,2025-01-29 10:38:45,1
-350.0,-1600.4,1019.1999999999998,-1569.1,-397.2,703.9,2025-01-29 10:38:45,1
-274.0,-700.4,1287.1999999999998,-1824.1,-134.2,473.9,2025-01-29 10:38:45,1
-82.0,275.6,1423.1999999999998,-2192.1,321.8,-68.1,2025-01-29 10:38:45,1
106.0,1255.6,967.1999999999998,-2678.1,646.8,-856.1,2025-01-29 10:38:45,1
46.0,1647.6,319.1999999999998,-3362.1,712.8,-1709.1,2025-01-29 10:38:45,1
-406.0,231.6,1003.1999999999998,-4054.1,1029.8,-2680.1,2025-01-29 10:38:45,1
-598.0,-760.4,1243.1999999999998,-4169.1,1038.8,-3485.1,2025-01-29 10:38:45,1
-1978.0,-900.4,1639.1999999999998,-4434.1,865.8,-3875.1,2025-01-29 10:38:45,1
-1890.0,-1432.4,1307.1999999999998,-4281.1,667.8,-3972.1,2025-01-29 10:38:45,1
-1406.0,-2072.4,535.1999999999998,-3842.1,691.8,-4359.1,2025-01-29 10:38:45,1
-1098.0,-3088.4,403.1999999999998,-2742.1,1096.8,-4855.1,2025-01-29 10:38:45,1
-1494.0,-4216.4,151.19999999999982,-1464.1,1197.8,-5024.1,2025-01-29 10:38:45,1
-2618.0,-5152.4,-0.8000000000001819,-391.1,1492.8,-4470.1,2025-01-29 10:38:45,1
-3566.0,-5512.4,359.1999999999998,650.9,856.8,-3284.1,2025-01-29 10:38:45,1
-4286.0,-5276.4,467.1999999999998,1834.9,-706.2,-1105.1,2025-01-29 10:38:45,1
-3766.0,-4796.4,-356.8000000000002,2444.9,-1596.2,956.9,2025-01-29 10:38:45,1
-2686.0,-4412.4,-964.8000000000002,2745.9,-1810.2,2215.9,2025-01-29 10:38:45,1
-2002.0,-3848.4,-1428.8000000000002,2965.9,-1720.2,3130.9,2025-01-29 10:38:45,1
-806.0,-2716.4,-1692.8000000000002,2899.9,-2105.2,3956.9,2025-01-29 10:38:45,1
-110.0,-1572.4,-2088.8,2615.9,-2374.2,4398.9,2025-01-29 10:38:45,1
1074.0,-936.4,-2332.8,2202.9,-2346.2,4769.9,2025-01-29 10:38:45,1
2578.0,127.60000000000002,-2520.8,1754.9,-2223.2,4973.9,2025-01-29 10:38:46,1
4438.0,1151.6,-2800.8,1137.9,-1939.2,4876.9,2025-01-29 10:38:46,1
5422.0,2111.6,-1636.8000000000002,519.9,-994.2,4160.9,2025-01-29 10:38:46,1
5722.0,2551.6,-744.8000000000002,51.900000000000006,640.8,2812.9,2025-01-29 10:38:46,1
4634.0,2495.6,-504.8000000000002,-445.1,2777.8,1329.9,2025-01-29 10:38:46,1
2030.0,1731.6,-652.8000000000002,-785.1,4490.8,391.9,2025-01-29 10:38:46,1
-390.0,1011.6,-1040.8000000000002,-950.1,5059.8,346.9,2025-01-29 10:38:46,1
-2150.0,171.60000000000002,-1644.8000000000002,-1373.1,4164.8,495.9,2025-01-29 10:38:46,1
-3646.0,-172.39999999999998,-1140.8000000000002,-1611.1,1823.8,1028.9,2025-01-29 10:38:46,1
-3922.0,-552.4,-856.8000000000002,-1706.1,-1457.2,2035.9,2025-01-29 10:38:46,1
-2322.0,-528.4,-1020.8000000000002,-1401.1,-3870.2,2724.9,2025-01-29 10:38:46,1
-494.0,-304.4,-4.800000000000182,-1221.1,-4955.2,2830.9,2025-01-29 10:38:46,1
1150.0,-92.39999999999998,543.1999999999998,-794.1,-5014.2,2702.9,2025-01-29 10:38:46,1
2426.0,-80.39999999999998,1819.2,-440.1,-4118.2,2279.9,2025-01-29 10:38:46,1
2738.0,-72.39999999999998,2711.2,-29.099999999999994,-2516.2,1752.9,2025-01-29 10:38:46,1
2322.0,291.6,2659.2,371.9,-395.2,1774.9,2025-01-29 10:38:46,1
1822.0,979.6,1763.1999999999998,523.9,1468.8,1729.9,2025-01-29 10:38:46,1
798.0,1467.6,1483.1999999999998,513.9,2186.8,1472.9,2025-01-29 10:38:46,1
-270.0,1743.6,1567.1999999999998,435.9,1845.8,1269.9,2025-01-29 10:38:46,1
-494.0,1835.6,1423.1999999999998,507.9,783.8,1039.9,2025-01-29 10:38:46,1
-166.0,1827.6,1851.2,644.9,-535.2,637.9,2025-01-29 10:38:46,1
606.0,1599.6,2587.2,892.9,-1458.2,-13.099999999999994,2025-01-29 10:38:46,1
1902.0,1115.6,2855.2,1261.9,-1445.2,-796.1,2025-01-29 10:38:46,1
2634.0,1259.6,2495.2,1576.9,-663.2,-1358.1,2025-01-29 10:38:46,1
2538.0,1531.6,1815.2,1777.9,1165.8,-1943.1,2025-01-29 10:38:46,1
1110.0,1539.6,783.1999999999998,1664.9,2693.8,-2258.1,2025-01-29 10:38:46,1
-1246.0,599.6,999.1999999999998,1471.9,3216.8,-2099.1,2025-01-29 10:38:46,1
-2010.0,-308.4,535.1999999999998,1794.9,2361.8,-1691.1,2025-01-29 10:38:46,1
-2890.0,-624.4,247.19999999999985,2317.9,1417.8,-1247.1,2025-01-29 10:38:46,1
-3770.0,-720.4,987.1999999999998,2902.9,446.8,-591.1,2025-01-29 10:38:46,1
-4234.0,-1104.4,2143.2,3145.9,-813.2,235.9,2025-01-29 10:38:46,1
-3642.0,-1208.4,2267.2,3459.9,-1673.2,1003.9,2025-01-29 10:38:46,1
-2350.0,-872.4,1443.1999999999998,3594.9,-1977.2,1546.9,2025-01-29 10:38:46,1
-1286.0,-364.4,1675.1999999999998,3747.9,-1536.2,1877.9,2025-01-29 10:38:46,1
-1170.0,319.6,2571.2,4159.9,-388.2,2235.9,2025-01-29 10:38:46,1
-2182.0,75.60000000000002,1863.2,4327.9,1119.8,2682.9,2025-01-29 10:38:46,1
-2922.0,-1008.4,667.1999999999998,4523.9,1913.8,3613.9,2025-01-29 10:38:46,1
-2798.0,-928.4,-72.80000000000018,4463.9,1419.8,3852.9,2025-01-29 10:38:46,1
-2514.0,375.6,-1408.8000000000002,4274.9,450.8,4091.9,2025-01-29 10:38:46,1
-1926.0,2275.6,-2128.8,3804.9,409.8,3906.9,2025-01-29 10:38:46,1
-1570.0,3307.6,-2644.8,3206.9,671.8,3137.9,2025-01-29 10:38:46,1
-1426.0,3163.6,-3592.8,2468.9,396.8,2096.9,2025-01-29 10:38:46,1
-2102.0,1655.6,-2928.8,1579.9,300.8,1214.9,2025-01-29 10:38:46,1
-1758.0,999.6,-1668.8000000000002,1290.9,-417.2,1036.9,2025-01-29 10:38:46,1
-802.0,875.6,-668.8000000000002,1391.9,-1847.2,330.9,2025-01-29 10:38:46,1
-198.0,915.6,-276.8000000000002,1689.9,-3451.2,-496.1,2025-01-29 10:38:46,1
526.0,775.6,27.199999999999815,1832.9,-4516.2,-752.1,2025-01-29 10:38:46,1
2058.0,55.60000000000002,-16.800000000000182,1698.9,-5511.2,-1062.1,2025-01-29 10:38:46,1
2814.0,-792.4,755.1999999999998,1482.9,-5537.2,-1292.1,2025-01-29 10:38:46,1
3522.0,-2240.4,1519.1999999999998,1511.9,-4056.2,-1023.1,2025-01-29 10:38:46,1
3818.0,-3204.4,1219.1999999999998,1678.9,-1109.2,-738.1,2025-01-29 10:38:46,1
3338.0,-3432.4,175.19999999999982,1733.9,1450.8,-535.1,2025-01-29 10:38:46,1
2666.0,-2796.4,-632.8000000000002,1821.9,2669.8,-529.1,2025-01-29 10:38:46,1
1390.0,-2148.4,-776.8000000000002,1917.9,3654.8,-568.1,2025-01-29 10:38:46,1
158.0,-1300.4,-268.8000000000002,2039.9,3874.8,-818.1,2025-01-29 10:38:46,1
-974.0,-780.4,-960.8000000000002,1767.9,2674.8,-1330.1,2025-01-29 10:38:46,1
-1786.0,-676.4,-960.8000000000002,1426.9,500.8,-1767.1,2025-01-29 10:38:46,1
-1478.0,-1120.4,-808.8000000000002,1315.9,-1094.2,-1981.1,2025-01-29 10:38:46,1
-234.0,-1624.4,-632.8000000000002,1114.9,-2091.2,-2293.1,2025-01-29 10:38:46,1
750.0,-1744.4,-280.8000000000002,918.9,-2600.2,-2578.1,2025-01-29 10:38:46,1
1482.0,-1520.4,279.1999999999998,546.9,-2381.2,-2427.1,2025-01-29 10:38:46,1
2282.0,-1368.4,363.1999999999998,-47.1,-1226.2,-2490.1,2025-01-29 10:38:47,1
2158.0,-1604.4,463.1999999999998,-585.1,228.8,-2559.1,2025-01-29 10:38:47,1
1638.0,-1964.4,631.1999999999998,-926.1,1475.8,-2547.1,2025-01-29 10:38:47,1
694.0,-2644.4,1039.1999999999998,-1242.1,2096.8,-2631.1,2025-01-29 10:38:47,1
-598.0,-3584.4,1219.1999999999998,-1153.1,1585.8,-2433.1,2025-01-29 10:38:47,1
-1390.0,-4172.4,1167.1999999999998,-975.1,671.8,-1723.1,2025-01-29 10:38:47,1
-1398.0,-4104.4,1275.1999999999998,-835.1,-270.2,-938.1,2025-01-29 10:38:47,1
-834.0,-3628.4,955.1999999999998,-785.1,-794.2,-458.1,2025-01-29 10:38:47,1
-186.0,-2716.4,675.1999999999998,-854.1,-940.2,-276.1,2025-01-29 10:38:47,1
186.0,-1792.4,495.1999999999998,-1021.1,-781.2,-63.1,2025-01-29 10:38:47,1
606.0,-1356.4,735.1999999999998,-1393.1,-134.2,-60.1,2025-01-29 10:38:47,1
458.0,-1256.4,1139.1999999999998,-1708.1,589.8,-302.1,2025-01-29 10:38:47,1
-282.0,-1584.4,1259.1999999999998,-1880.1,1057.8,-427.1,2025-01-29 10:38:47,1
-942.0,-2108.4,815.1999999999998,-2036.1,915.8,-355.1,2025-01-29 10:38:47,1
-1294.0,-2432.4,1003.1999999999998,-2126.1,273.8,-444.1,2025-01-29 10:38:47,1
-1378.0,-2632.4,731.1999999999998,-2190.1,-390.2,-440.1,2025-01-29 10:38:47,1
-1322.0,-2296.4,1171.1999999999998,-2289.1,-1030.2,-357.1,2025-01-29 10:38:47,1
-770.0,-2220.4,1315.1999999999998,-2311.1,-1538.2,-175.1,2025-01-29 10:38:47,1
62.0,-2468.4,1439.1999999999998,-2428.1,-1388.2,-156.1,2025-01-29 10:38:47,1
362.0,-2704.4,1811.2,-2294.1,-642.2,-195.1,2025-01-29 10:38:47,1
238.0,-2520.4,1771.1999999999998,-2098.1,190.8,-70.1,2025-01-29 10:38:47,1
-310.0,-2532.4,1499.1999999999998,-2100.1,824.8,-106.1,2025-01-29 10:38:47,1
-854.0,-2368.4,1171.1999999999998,-2041.1,769.8,-30.099999999999994,2025-01-29 10:38:47,1
-1254.0,-2348.4,1191.1999999999998,-2047.1,287.8,36.900000000000006,2025-01-29 10:38:47,1
-1594.0,-2480.4,1395.1999999999998,-2004.1,-338.2,187.9,2025-01-29 10:38:47,1
-1234.0,-2672.4,1507.1999999999998,-2129.1,-799.2,367.9,2025-01-29 10:38:47,1
-1198.0,-2716.4,1279.1999999999998,-2284.1,-768.2,407.9,2025-01-29 10:38:47,1
-1138.0,-2016.4,1151.1999999999998,-2323.1,-510.2,489.9,2025-01-29 10:38:47,1
-834.0,-1788.4,699.1999999999998,-2296.1,-317.2,416.9,2025-01-29 10:38:47,1
-798.0,-2088.4,503.1999999999998,-2372.1,-228.2,375.9,2025-01-29 10:38:47,1
-794.0,-2772.4,635.1999999999998,-2267.1,-332.2,769.9,2025-01-29 10:38:47,1
-406.0,-2892.4,-160.80000000000018,-2100.1,-254.2,1114.9,2025-01-29 10:38:47,1
-510.0,-2820.4,-524.8000000000002,-1725.1,483.8,1120.9,2025-01-29 10:38:47,1
-2434.0,-2036.4,-984.8000000000002,-711.1,1362.8,1304.9,2025-01-29 10:38:47,1
-2486.0,-2008.4,-1748.8000000000002,-851.1,-604.2,1933.9,2025-01-29 10:38:47,1
-1306.0,-1732.4,-1240.8000000000002,-723.1,-2596.2,2463.9,2025-01-29 10:38:47,1
594.0,-856.4,-640.8000000000002,-602.1,-3384.2,2623.9,2025-01-29 10:38:47,1
2222.0,471.6,-24.800000000000185,-706.1,-2723.2,2318.9,2025-01-29 10:38:47,1
2778.0,1567.6,71.19999999999982,-971.1,-1067.2,1884.9,2025-01-29 10:38:47,1
2710.0,2435.6,31.199999999999815,-1331.1,618.8,1455.9,2025-01-29 10:38:47,1
1938.0,2855.6,-164.80000000000018,-1730.1,2135.8,785.9,2025-01-29 10:38:47,1
662.0,2535.6,339.1999999999998,-1975.1,2295.8,194.9,2025-01-29 10:38:47,1
-478.0,1943.6,707.1999999999998,-2005.1,1784.8,-26.099999999999994,2025-01-29 10:38:47,1
-1546.0,1451.6,567.1999999999998,-1921.1,1222.8,263.9,2025-01-29 10:38:47,1
-1342.0,1507.6,-192.80000000000015,-1855.1,947.8,538.9,2025-01-29 10:38:47,1
-1298.0,1735.6,-868.8000000000002,-2076.1,968.8,552.9,2025-01-29 10:38:47,1
-638.0,1627.6,-808.8000000000002,-2652.1,181.8,396.9,2025-01-29 10:38:47,1
-230.0,1675.6,-316.8000000000002,-2960.1,-689.2,144.9,2025-01-29 10:38:47,1
622.0,1691.6,179.19999999999982,-3016.1,-1062.2,22.90000000000001,2025-01-29 10:38:47,1
1342.0,1671.6,427.1999999999998,-2871.1,-761.2,-202.1,2025-01-29 10:38:47,1
1578.0,1487.6,599.1999999999998,-2642.1,293.8,-436.1,2025-01-29 10:38:47,1
1546.0,1359.6,491.1999999999998,-2401.1,1145.8,-594.1,2025-01-29 10:38:47,1
1046.0,1531.6,735.1999999999998,-2136.1,1894.8,-590.1,2025-01-29 10:38:47,1
62.0,1819.6,419.1999999999998,-1951.1,2172.8,-632.1,2025-01-29 10:38:47,1
-870.0,1775.6,463.1999999999998,-1840.1,1996.8,-535.1,2025-01-29 10:38:47,1
-1546.0,1627.6,283.1999999999998,-1757.1,1401.8,-460.1,2025-01-29 10:38:47,1
-2162.0,971.6,447.1999999999998,-1558.1,130.8,-377.1,2025-01-29 10:38:47,1
-2414.0,115.60000000000002,895.1999999999998,-1165.1,-947.2,-52.1,2025-01-29 10:38:47,1
-1414.0,-0.3999999999999772,1447.1999999999998,-636.1,-1756.2,176.9,2025-01-29 10:38:47,1
-134.0,259.6,2139.2,116.9,-2291.2,158.9,2025-01-29 10:38:47,1
866.0,415.6,2767.2,1005.9,-2280.2,27.90000000000001,2025-01-29 10:38:47,1
1822.0,343.6,3251.2,1927.9,-1316.2,-249.1,2025-01-29 10:38:48,1
2406.0,447.6,3155.2,2873.9,334.8,-718.1,2025-01-29 10:38:48,1
1822.0,995.6,2691.2,3488.9,2065.8,-1122.1,2025-01-29 10:38:48,1
846.0,939.6,1651.1999999999998,3594.9,3371.8,-1615.1,2025-01-29 10:38:48,1
-898.0,571.6,751.1999999999998,3384.9,3947.8,-1887.1,2025-01-29 10:38:48,1
-2290.0,823.6,-892.8000000000002,2996.9,3181.8,-1773.1,2025-01-29 10:38:48,1
-2810.0,1035.6,-1756.8000000000002,2478.9,1511.8,-1086.1,2025-01-29 10:38:48,1
-1998.0,1183.6,-2568.8,1669.9,-282.2,-354.1,2025-01-29 10:38:48,1
-1026.0,695.6,-2224.8,966.9,-1025.2,-79.1,2025-01-29 10:38:48,1
130.0,-244.4,-1196.8000000000002,664.9,-1434.2,301.9,2025-01-29 10:38:48,1
1130.0,-416.4,15.199999999999818,953.9,-1035.2,477.9,2025-01-29 10:38:48,1
1666.0,-180.4,-152.80000000000018,1225.9,324.8,280.9,2025-01-29 10:38:48,1
1390.0,-132.39999999999998,-688.8000000000002,1206.9,1548.8,53.900000000000006,2025-01-29 10:38:48,1
258.0,-284.4,-740.8000000000002,891.9,1888.8,-152.1,2025-01-29 10:38:48,1
-610.0,-284.4,-508.8000000000002,603.9,1101.8,-100.1,2025-01-29 10:38:48,1
-878.0,-404.4,-208.80000000000015,325.9,-178.2,18.90000000000001,2025-01-29 10:38:48,1
-542.0,-868.4,423.1999999999998,295.9,-1088.2,62.900000000000006,2025-01-29 10:38:48,1
142.0,-980.4,723.1999999999998,569.9,-1014.2,206.9,2025-01-29 10:38:48,1
838.0,-1096.4,367.1999999999998,739.9,-290.2,220.9,2025-01-29 10:38:48,1
782.0,-948.4,299.1999999999998,917.9,772.8,157.9,2025-01-29 10:38:48,1
618.0,-732.4,135.19999999999982,1116.9,1678.8,179.9,2025-01-29 10:38:48,1
122.0,-644.4,-356.8000000000002,998.9,2068.8,79.9,2025-01-29 10:38:48,1
-662.0,-840.4,-892.8000000000002,795.9,2001.8,232.9,2025-01-29 10:38:48,1
-910.0,-580.4,-1056.8000000000002,539.9,1393.8,481.9,2025-01-29 10:38:48,1
-702.0,-232.4,-680.8000000000002,324.9,303.8,540.9,2025-01-29 10:38:48,0.0
-366.0,-372.4,35.19999999999982,62.900000000000006,-518.2,390.9,2025-01-29 10:38:48,0.0
-258.0,-776.4,823.1999999999998,29.90000000000001,-678.2,221.9,2025-01-29 10:38:48,3
54.0,-808.4,303.1999999999998,239.9,-580.2,65.9,2025-01-29 10:38:48,3
466.0,-956.4,59.19999999999982,310.9,-150.2,-132.1,2025-01-29 10:38:48,3
166.0,-980.4,-20.800000000000185,354.9,363.8,-140.1,2025-01-29 10:38:48,3
-162.0,-652.4,-232.80000000000015,300.9,600.8,84.9,2025-01-29 10:38:48,3
-222.0,-172.39999999999998,27.199999999999815,75.9,415.8,204.9,2025-01-29 10:38:48,3
-286.0,-332.4,331.1999999999998,-39.1,83.80000000000001,197.9,2025-01-29 10:38:48,3
-126.0,-740.4,207.19999999999985,16.900000000000006,-57.19999999999999,179.9,2025-01-29 10:38:48,3
-34.0,-848.4,-8.800000000000182,128.9,136.8,140.9,2025-01-29 10:38:48,3
94.0,-736.4,-84.80000000000018,138.9,367.8,63.900000000000006,2025-01-29 10:38:48,3
-94.0,-540.4,-44.80000000000018,31.90000000000001,408.8,-33.099999999999994,2025-01-29 10:38:48,3
-498.0,-192.4,131.19999999999982,-59.1,373.8,20.90000000000001,2025-01-29 10:38:48,3
-494.0,-28.399999999999977,-0.8000000000001819,-168.1,-9.199999999999989,109.9,2025-01-29 10:38:48,3
-330.0,-112.39999999999998,111.19999999999982,-249.1,-297.2,59.900000000000006,2025-01-29 10:38:48,3
-146.0,-392.4,163.19999999999982,-231.1,-255.2,44.900000000000006,2025-01-29 10:38:48,3
-142.0,-584.4,299.1999999999998,-91.1,-180.2,70.9,2025-01-29 10:38:48,3
-354.0,-444.4,579.1999999999998,-66.1,-116.2,45.900000000000006,2025-01-29 10:38:48,3
-354.0,-132.39999999999998,479.1999999999998,-185.1,-114.2,41.900000000000006,2025-01-29 10:38:48,3
-346.0,-12.399999999999975,423.1999999999998,-272.1,-247.2,-32.099999999999994,2025-01-29 10:38:48,3
-302.0,-408.4,503.1999999999998,-313.1,-327.2,-9.099999999999994,2025-01-29 10:38:48,3
-146.0,-540.4,431.1999999999998,-308.1,-279.2,47.900000000000006,2025-01-29 10:38:48,3
-154.0,-644.4,343.1999999999998,-246.1,-68.19999999999999,47.900000000000006,2025-01-29 10:38:48,3
-270.0,-648.4,411.1999999999998,-108.1,31.80000000000001,99.9,2025-01-29 10:38:48,3
-358.0,-508.4,371.1999999999998,-39.1,-39.19999999999999,49.900000000000006,2025-01-29 10:38:48,3
-406.0,-440.4,303.1999999999998,5.900000000000006,-254.2,55.900000000000006,2025-01-29 10:38:48,3
-86.0,-520.4,383.1999999999998,7.900000000000006,-294.2,102.9,2025-01-29 10:38:48,3
118.0,-336.4,643.1999999999998,30.90000000000001,-29.19999999999999,68.9,2025-01-29 10:38:48,3
-46.0,-336.4,283.1999999999998,21.90000000000001,246.8,44.900000000000006,2025-01-29 10:38:48,3
-14.0,-156.39999999999998,147.19999999999982,15.900000000000006,448.8,42.900000000000006,2025-01-29 10:38:48,3
-246.0,-160.39999999999998,147.19999999999982,-24.099999999999994,433.8,-50.1,2025-01-29 10:38:48,3
-450.0,-84.39999999999998,99.19999999999982,-65.1,208.8,-72.1,2025-01-29 10:38:48,3
-510.0,-144.39999999999998,-52.80000000000018,-181.1,-150.2,-50.1,2025-01-29 10:38:48,3
-190.0,-100.39999999999998,431.1999999999998,-243.1,-257.2,-8.099999999999994,2025-01-29 10:38:48,3
2.0,-220.4,307.1999999999998,-254.1,-147.2,-35.099999999999994,2025-01-29 10:38:48,3
42.0,-268.4,439.1999999999998,-240.1,75.80000000000001,-63.1,2025-01-29 10:38:48,3
-58.0,-540.4,235.19999999999985,-199.1,238.8,-87.1,2025-01-29 10:38:49,3
-110.0,-484.4,175.19999999999982,-89.1,276.8,-48.1,2025-01-29 10:38:49,3
-178.0,-400.4,7.199999999999818,-80.1,293.8,-48.1,2025-01-29 10:38:49,3
-174.0,-296.4,123.19999999999982,-83.1,211.8,-25.099999999999994,2025-01-29 10:38:49,3
-214.0,-384.4,163.19999999999982,-63.1,144.8,41.900000000000006,2025-01-29 10:38:49,3
-34.0,-232.4,203.19999999999985,-35.099999999999994,197.8,6.900000000000006,2025-01-29 10:38:49,3
-58.0,-228.4,279.1999999999998,-36.1,332.8,8.900000000000006,2025-01-29 10:38:49,3
-182.0,-344.4,135.19999999999982,-38.1,405.8,-6.099999999999994,2025-01-29 10:38:49,3
-258.0,-296.4,35.19999999999982,43.900000000000006,399.8,39.900000000000006,2025-01-29 10:38:49,3
-282.0,-316.4,199.19999999999985,36.900000000000006,295.8,52.900000000000006,2025-01-29 10:38:49,3
-138.0,-256.4,143.19999999999982,2.9000000000000057,175.8,72.9,2025-01-29 10:38:49,3
-102.0,-408.4,139.19999999999982,21.90000000000001,153.8,99.9,2025-01-29 10:38:49,3
-122.0,-288.4,231.19999999999985,47.900000000000006,142.8,128.9,2025-01-29 10:38:49,3
58.0,-212.4,283.1999999999998,77.9,304.8,98.9,2025-01-29 10:38:49,3
42.0,-204.4,311.1999999999998,132.9,457.8,80.9,2025-01-29 10:38:49,3
-98.0,-312.4,235.19999999999985,121.9,585.8,54.900000000000006,2025-01-29 10:38:49,3
-250.0,-236.4,195.19999999999985,158.9,625.8,41.900000000000006,2025-01-29 10:38:49,3
-346.0,-204.4,271.1999999999998,110.9,534.8,57.900000000000006,2025-01-29 10:38:49,3
-194.0,-256.4,147.19999999999982,97.9,297.8,77.9,2025-01-29 10:38:49,3
-78.0,-212.4,-40.80000000000018,50.900000000000006,150.8,95.9,2025-01-29 10:38:49,3
-2.0,-280.4,31.199999999999815,-9.099999999999994,268.8,33.900000000000006,2025-01-29 10:38:49,3
-2.0,-112.39999999999998,351.1999999999998,-39.1,429.8,-44.1,2025-01-29 10:38:49,3
-178.0,-232.4,-0.8000000000001819,-25.099999999999994,378.8,-76.1,2025-01-29 10:38:49,3
-334.0,-220.4,-36.80000000000018,-44.1,263.8,-75.1,2025-01-29 10:38:49,3
-146.0,-316.4,191.19999999999985,-133.1,90.8,-71.1,2025-01-29 10:38:49,3
-274.0,-264.4,355.1999999999998,-140.1,-1.1999999999999886,-94.1,2025-01-29 10:38:49,3
-166.0,-408.4,215.19999999999985,-112.1,82.80000000000001,-148.1,2025-01-29 10:38:49,3
-262.0,-344.4,419.1999999999998,-46.1,105.8,-195.1,2025-01-29 10:38:49,3
-346.0,-340.4,259.1999999999998,-3.0999999999999943,164.8,-165.1,2025-01-29 10:38:49,3
-182.0,-444.4,-20.800000000000185,-21.099999999999994,204.8,-178.1,2025-01-29 10:38:49,3
-390.0,-496.4,15.199999999999818,-58.1,97.8,-121.1,2025-01-29 10:38:49,3
-230.0,-688.4,99.19999999999982,82.9,140.8,-28.099999999999994,2025-01-29 10:38:49,3
-170.0,-688.4,-24.800000000000185,345.9,239.8,-112.1,2025-01-29 10:38:49,3
-686.0,-504.4,-236.80000000000015,425.9,215.8,80.9,2025-01-29 10:38:49,3
-890.0,-184.4,-188.80000000000015,360.9,-500.2,660.9,2025-01-29 10:38:49,3
-422.0,-64.39999999999998,-136.80000000000018,152.9,-1253.2,1348.9,2025-01-29 10:38:49,3
1254.0,-128.39999999999998,11.199999999999818,26.90000000000001,-1171.2,1112.9,2025-01-29 10:38:49,3
1298.0,-108.39999999999998,411.1999999999998,34.900000000000006,-228.2,349.9,2025-01-29 10:38:49,3
590.0,-612.4,567.1999999999998,150.9,641.8,134.9,2025-01-29 10:38:49,3
-102.0,-948.4,659.1999999999998,601.9,1300.8,370.9,2025-01-29 10:38:49,3
-614.0,-632.4,327.1999999999998,949.9,1167.8,606.9,2025-01-29 10:38:49,3
-674.0,-240.4,-112.80000000000018,913.9,587.8,482.9,2025-01-29 10:38:49,3
-838.0,-64.39999999999998,-428.8000000000002,790.9,88.80000000000001,492.9,2025-01-29 10:38:49,3
-198.0,-232.4,-552.8000000000002,695.9,-326.2,629.9,2025-01-29 10:38:49,3
742.0,-592.4,-436.8000000000002,686.9,-416.2,639.9,2025-01-29 10:38:49,3
1142.0,-752.4,-376.8000000000002,757.9,39.80000000000001,644.9,2025-01-29 10:38:49,3
1494.0,-556.4,-608.8000000000002,802.9,880.8,794.9,2025-01-29 10:38:49,3
1734.0,-212.4,-972.8000000000002,764.9,1237.8,921.9,2025-01-29 10:38:49,3
1858.0,115.60000000000002,-952.8000000000002,590.9,1301.8,1053.9,2025-01-29 10:38:49,3
2154.0,351.6,-884.8000000000002,278.9,1015.8,1241.9,2025-01-29 10:38:49,3
2694.0,563.6,-724.8000000000002,-119.1,570.8,1262.9,2025-01-29 10:38:49,3
3546.0,803.6,-684.8000000000002,-662.1,137.8,1107.9,2025-01-29 10:38:49,3
4190.0,1131.6,-132.80000000000018,-1051.1,-300.2,1071.9,2025-01-29 10:38:49,3
5146.0,1067.6,699.1999999999998,-1414.1,-864.2,933.9,2025-01-29 10:38:49,3
5282.0,87.60000000000002,4179.2,-2086.1,-30.19999999999999,627.9,2025-01-29 10:38:49,3
6198.0,-224.4,5183.2,-1982.1,514.8,411.9,2025-01-29 10:38:49,3
7230.0,-320.4,5543.2,-1607.1,773.8,84.9,2025-01-29 10:38:49,3
7754.0,235.6,6331.2,-747.1,852.8,-361.1,2025-01-29 10:38:49,3
7662.0,519.6,6475.2,-257.1,1420.8,-615.1,2025-01-29 10:38:49,3
7046.0,-52.39999999999998,6971.2,-620.1,3744.8,-728.1,2025-01-29 10:38:50,3
5970.0,-372.4,6767.2,-177.1,6058.8,-1426.1,2025-01-29 10:38:50,3
3262.0,-20.399999999999977,4943.2,250.9,6969.8,-1510.1,2025-01-29 10:38:50,3
1322.0,395.6,3135.2,298.9,5494.8,-1170.1,2025-01-29 10:38:50,3
782.0,971.6,1583.1999999999998,-1005.1,1458.8,249.9,2025-01-29 10:38:50,3
1994.0,855.6,1943.2,-1608.1,-1225.2,1042.9,2025-01-29 10:38:50,3
2918.0,71.60000000000002,2183.2,-1563.1,-2158.2,1116.9,2025-01-29 10:38:50,3
3362.0,-664.4,2707.2,-1636.1,-3060.2,319.9,2025-01-29 10:38:50,3
2714.0,-792.4,3615.2,-1370.1,-3784.2,-587.1,2025-01-29 10:38:50,3
2486.0,-68.39999999999998,2831.2,-1112.1,-3596.2,-819.1,2025-01-29 10:38:50,3
2926.0,707.6,1323.1999999999998,-1328.1,-2868.2,-325.1,2025-01-29 10:38:50,3
2794.0,927.6,1227.1999999999998,-1706.1,-2137.2,-280.1,2025-01-29 10:38:50,3
78.0,607.6,2859.2,-1495.1,-2632.2,-1267.1,2025-01-29 10:38:50,3
-5854.0,371.6,2287.2,-1164.1,-3872.2,-1842.1,2025-01-29 10:38:50,3
-5854.0,591.6,-280.8000000000002,-1435.1,-6589.2,-1338.1,2025-01-29 10:38:50,3
-2850.0,583.6,-2680.8,-1517.1,-9792.2,47.900000000000006,2025-01-29 10:38:50,3
-62.0,955.6,-1740.8000000000002,-2125.1,-10668.2,1050.9,2025-01-29 10:38:50,3
1078.0,-536.4,491.1999999999998,-2247.1,-9085.2,532.9,2025-01-29 10:38:50,3
-458.0,-400.4,1143.1999999999998,-1436.1,-6268.2,-740.1,2025-01-29 10:38:50,3
-330.0,799.6,1479.1999999999998,-1151.1,-6362.2,-1452.1,2025-01-29 10:38:50,3
-3394.0,2139.6,427.1999999999998,-1462.1,-6288.2,-1218.1,2025-01-29 10:38:50,3
-5054.0,2687.6,803.1999999999998,-1835.1,-4478.2,-522.1,2025-01-29 10:38:50,3
-6770.0,875.6,735.1999999999998,-1583.1,-4792.2,-8.099999999999994,2025-01-29 10:38:50,3
-3254.0,-2248.4,1807.2,-1148.1,-5015.2,405.9,2025-01-29 10:38:50,3
-4082.0,-640.4,-2268.8,-540.1,-4618.2,-1118.1,2025-01-29 10:38:50,3
-6342.0,-184.4,-1920.8,-487.1,-4455.2,-1091.1,2025-01-29 10:38:50,3
-10030.0,315.6,-28.800000000000185,-517.1,-5999.2,-845.1,2025-01-29 10:38:50,3
-10566.0,703.6,-904.8000000000002,-719.1,-8128.2,327.9,2025-01-29 10:38:50,3
-9818.0,-56.39999999999998,523.1999999999998,-1250.1,-8320.2,2536.9,2025-01-29 10:38:50,3
-9606.0,419.6,283.1999999999998,-1025.1,-4785.2,2782.9,2025-01-29 10:38:50,3
-8926.0,1219.6,-60.80000000000018,-1109.1,-4903.2,1825.9,2025-01-29 10:38:50,3
-10114.0,2331.6,1055.1999999999998,-1133.1,-4217.2,1981.9,2025-01-29 10:38:50,3
-9514.0,2279.6,707.1999999999998,-1098.1,-5796.2,1556.9,2025-01-29 10:38:50,3
-7946.0,1071.6,2247.2,-719.1,-6095.2,922.9,2025-01-29 10:38:50,3
-7346.0,1563.6,1091.1999999999998,-747.1,-3886.2,157.9,2025-01-29 10:38:50,3
-4666.0,2151.6,1155.1999999999998,-894.1,-5399.2,-488.1,2025-01-29 10:38:50,3
-4786.0,1227.6,1195.1999999999998,-669.1,-3658.2,-738.1,2025-01-29 10:38:50,3
-4634.0,-480.4,2375.2,-406.1,-1699.2,-844.1,2025-01-29 10:38:50,3
-4658.0,-956.4,3395.2,46.900000000000006,-725.2,-806.1,2025-01-29 10:38:50,3
-4134.0,-472.4,3451.2,605.9,-348.2,-847.1,2025-01-29 10:38:50,3
-3922.0,1051.6,3667.2,1047.9,193.8,-649.1,2025-01-29 10:38:50,3
-3226.0,2975.6,2891.2,730.9,-64.19999999999999,-394.1,2025-01-29 10:38:50,3
-2782.0,2927.6,3355.2,99.9,-598.2,124.9,2025-01-29 10:38:50,3
-1662.0,1523.6,4491.2,-139.1,-188.2,663.9,2025-01-29 10:38:50,3
-878.0,483.6,5699.2,-78.1,395.8,1072.9,2025-01-29 10:38:50,3
-338.0,-160.39999999999998,6363.2,324.9,1465.8,982.9,2025-01-29 10:38:50,3
902.0,91.60000000000002,5875.2,787.9,2205.8,363.9,2025-01-29 10:38:50,3
274.0,971.6,5511.2,835.9,2331.8,26.90000000000001,2025-01-29 10:38:50,3
-998.0,1843.6,4991.2,583.9,1911.8,-66.1,2025-01-29 10:38:50,3
-1570.0,1319.6,4743.2,355.9,1226.8,-343.1,2025-01-29 10:38:50,3
-2078.0,611.6,4739.2,276.9,469.8,-358.1,2025-01-29 10:38:50,3
-1950.0,431.6,5123.2,79.9,-47.19999999999999,-238.1,2025-01-29 10:38:50,3
-1562.0,687.6,5167.2,-53.1,-155.2,-397.1,2025-01-29 10:38:50,3
-1438.0,671.6,4983.2,31.90000000000001,398.8,-710.1,2025-01-29 10:38:50,3
-1862.0,511.6,4791.2,78.9,730.8,-749.1,2025-01-29 10:38:50,3
-2910.0,203.6,4455.2,93.9,343.8,-419.1,2025-01-29 10:38:50,3
-3098.0,283.6,4239.2,168.9,-262.2,-88.1,2025-01-29 10:38:50,3
-3258.0,271.6,4415.2,329.9,-694.2,163.9,2025-01-29 10:38:50,3
-3090.0,195.6,4507.2,432.9,-978.2,376.9,2025-01-29 10:38:50,3
-2790.0,299.6,4683.2,535.9,-1329.2,407.9,2025-01-29 10:38:50,3
-2294.0,799.6,4375.2,439.9,-1421.2,334.9,2025-01-29 10:38:50,3
-1882.0,1291.6,4471.2,341.9,-1154.2,74.9,2025-01-29 10:38:50,3
-1810.0,1231.6,4363.2,138.9,-797.2,-152.1,2025-01-29 10:38:51,3
-1826.0,795.6,4551.2,32.900000000000006,-607.2,-333.1,2025-01-29 10:38:51,3
-2234.0,415.6,4127.2,37.900000000000006,-382.2,-414.1,2025-01-29 10:38:51,3
-2358.0,-44.39999999999998,4171.2,159.9,-500.2,-316.1,2025-01-29 10:38:51,3
-2530.0,-180.4,4271.2,344.9,-460.2,-174.1,2025-01-29 10:38:51,3
-2518.0,-156.39999999999998,4243.2,573.9,-246.2,-127.1,2025-01-29 10:38:51,3
-2222.0,295.6,4415.2,759.9,-140.2,-170.1,2025-01-29 10:38:51,3
-2462.0,911.6,4275.2,716.9,-97.2,-229.1,2025-01-29 10:38:51,3
-2478.0,1579.6,4059.2,419.9,-214.2,-247.1,2025-01-29 10:38:51,3
-2446.0,1727.6,3963.2,85.9,-351.2,-201.1,2025-01-29 10:38:51,3
-2350.0,1279.6,4303.2,-105.1,-379.2,-112.1,2025-01-29 10:38:51,3
-2386.0,511.6,4611.2,-97.1,-305.2,-42.1,2025-01-29 10:38:51,3
-2302.0,-100.39999999999998,5003.2,172.9,-224.2,62.900000000000006,2025-01-29 10:38:51,3
-2214.0,-284.4,5099.2,491.9,112.8,118.9,2025-01-29 10:38:51,3
-2286.0,75.60000000000002,4799.2,710.9,379.8,159.9,2025-01-29 10:38:51,3
-2202.0,615.6,4151.2,696.9,351.8,190.9,2025-01-29 10:38:51,3
-2298.0,1215.6,3739.2,468.9,234.8,165.9,2025-01-29 10:38:51,3
-2514.0,1607.6,3783.2,130.9,-117.2,117.9,2025-01-29 10:38:51,3
-2606.0,1255.6,4271.2,-100.1,-502.2,153.9,2025-01-29 10:38:51,3
-2210.0,407.6,4783.2,-153.1,-417.2,166.9,2025-01-29 10:38:51,3
-2410.0,739.6,4291.2,334.9,-216.2,92.9,2025-01-29 10:38:51,3
-2354.0,803.6,4235.2,287.9,-342.2,137.9,2025-01-29 10:38:51,3
-2538.0,867.6,4415.2,153.9,-268.2,161.9,2025-01-29 10:38:51,3
-2386.0,923.6,4599.2,108.9,-222.2,169.9,2025-01-29 10:38:51,3
-2558.0,775.6,4775.2,101.9,-170.2,153.9,2025-01-29 10:38:51,3
-2782.0,799.6,5043.2,114.9,-169.2,186.9,2025-01-29 10:38:51,3
-2618.0,979.6,4975.2,69.9,-223.2,265.9,2025-01-29 10:38:51,3
-2698.0,1051.6,4699.2,-1.0999999999999943,-200.2,295.9,2025-01-29 10:38:51,3
-2114.0,619.6,4911.2,10.900000000000006,-90.2,76.9,2025-01-29 10:38:51,3
-2078.0,635.6,4883.2,55.900000000000006,-8.199999999999989,-104.1,2025-01-29 10:38:51,3
-2254.0,847.6,4759.2,10.900000000000006,-47.19999999999999,-258.1,2025-01-29 10:38:51,3
-2330.0,759.6,4747.2,-101.1,-217.2,-367.1,2025-01-29 10:38:51,3
-2330.0,623.6,4927.2,-181.1,-330.2,-390.1,2025-01-29 10:38:51,3
-2210.0,211.6,5231.2,-107.1,-144.2,-411.1,2025-01-29 10:38:51,3
-2538.0,51.60000000000002,5159.2,36.900000000000006,35.80000000000001,-339.1,2025-01-29 10:38:51,3
-2566.0,395.6,4959.2,93.9,291.8,-138.1,2025-01-29 10:38:51,3
-2478.0,695.6,4803.2,25.90000000000001,363.8,-44.1,2025-01-29 10:38:51,3
-2442.0,695.6,4735.2,-44.1,216.8,-40.1,2025-01-29 10:38:51,3
-2318.0,859.6,4683.2,-98.1,-20.19999999999999,-138.1,2025-01-29 10:38:51,3
-2402.0,747.6,4847.2,-141.1,-268.2,-252.1,2025-01-29 10:38:51,3
-2450.0,619.6,4727.2,-112.1,-506.2,-327.1,2025-01-29 10:38:51,3
-2286.0,223.6,4919.2,-4.099999999999994,-375.2,-296.1,2025-01-29 10:38:51,3
-2118.0,-32.39999999999998,5103.2,181.9,104.8,-231.1,2025-01-29 10:38:51,3
-2118.0,235.6,4975.2,302.9,249.8,-233.1,2025-01-29 10:38:51,3
-2234.0,455.6,4623.2,299.9,162.8,-284.1,2025-01-29 10:38:51,3
-2550.0,907.6,4347.2,184.9,-61.19999999999999,-284.1,2025-01-29 10:38:51,3
-2646.0,1311.6,4343.2,-94.1,-314.2,-262.1,2025-01-29 10:38:52,3
-2514.0,1099.6,4611.2,-275.1,-557.2,-218.1,2025-01-29 10:38:52,3
-2422.0,143.60000000000002,4919.2,-247.1,-364.2,-66.1,2025-01-29 10:38:52,3
-2430.0,-412.4,5199.2,-41.1,-3.1999999999999886,150.9,2025-01-29 10:38:52,3
-2614.0,-144.39999999999998,5219.2,182.9,153.8,277.9,2025-01-29 10:38:52,3
-2418.0,563.6,4931.2,314.9,55.80000000000001,155.9,2025-01-29 10:38:52,3
-2394.0,827.6,4547.2,255.9,-42.19999999999999,29.90000000000001,2025-01-29 10:38:52,3
-2294.0,783.6,4431.2,175.9,-227.2,-14.099999999999994,2025-01-29 10:38:52,3
-2382.0,591.6,4511.2,125.9,-215.2,-32.099999999999994,2025-01-29 10:38:52,3
-2386.0,331.6,4959.2,136.9,-167.2,-21.099999999999994,2025-01-29 10:38:52,3
-2298.0,51.60000000000002,5263.2,180.9,-8.199999999999989,-92.1,2025-01-29 10:38:52,3
-2314.0,59.60000000000002,5319.2,283.9,138.8,-148.1,2025-01-29 10:38:52,3
-2266.0,155.60000000000002,5095.2,324.9,186.8,-221.1,2025-01-29 10:38:52,3
-2494.0,443.6,4655.2,237.9,78.80000000000001,-198.1,2025-01-29 10:38:52,3
-2554.0,495.6,4787.2,95.9,-242.2,-191.1,2025-01-29 10:38:52,3
-2514.0,607.6,4827.2,-1.0999999999999943,-385.2,-180.1,2025-01-29 10:38:52,3
-2166.0,375.6,4919.2,-70.1,-252.2,-170.1,2025-01-29 10:38:52,3
-2222.0,35.60000000000002,5095.2,22.90000000000001,-108.2,-108.1,2025-01-29 10:38:52,3
-2294.0,111.60000000000002,4947.2,134.9,66.80000000000001,-92.1,2025-01-29 10:38:52,3
-2338.0,363.6,4759.2,179.9,-52.19999999999999,-92.1,2025-01-29 10:38:52,3
-2406.0,647.6,4943.2,133.9,-141.2,-89.1,2025-01-29 10:38:52,3
-2478.0,731.6,4655.2,-8.099999999999994,-265.2,-60.1,2025-01-29 10:38:52,3
-2458.0,575.6,4743.2,-42.1,-346.2,-27.099999999999994,2025-01-29 10:38:52,3
-2366.0,323.6,4919.2,-68.1,-301.2,-11.099999999999994,2025-01-29 10:38:52,3
-2314.0,87.60000000000002,5051.2,-1.0999999999999943,-155.2,1.9000000000000057,2025-01-29 10:38:52,3
-2238.0,31.600000000000023,4999.2,68.9,-81.19999999999999,16.900000000000006,2025-01-29 10:38:52,3
-2370.0,283.6,4931.2,121.9,-35.19999999999999,-47.1,2025-01-29 10:38:52,3
-2222.0,499.6,5039.2,55.900000000000006,21.80000000000001,-165.1,2025-01-29 10:38:52,3
-2778.0,563.6,5047.2,3.9000000000000057,-18.19999999999999,-117.1,2025-01-29 10:38:52,3
-2818.0,407.6,5163.2,-120.1,-203.2,-30.099999999999994,2025-01-29 10:38:52,3
-2598.0,267.6,5247.2,-132.1,-304.2,-3.0999999999999943,2025-01-29 10:38:52,3
-2438.0,435.6,5247.2,-167.1,-171.2,-113.1,2025-01-29 10:38:52,3
-2290.0,615.6,5363.2,-196.1,25.80000000000001,-167.1,2025-01-29 10:38:52,3
-2498.0,443.6,5147.2,-238.1,183.8,-180.1,2025-01-29 10:38:52,3
-2610.0,335.6,5263.2,-269.1,140.8,-189.1,2025-01-29 10:38:52,3
-2550.0,327.6,5179.2,-223.1,-202.2,-134.1,2025-01-29 10:38:52,3
-2374.0,375.6,5283.2,-206.1,-460.2,-28.099999999999994,2025-01-29 10:38:52,3
-2198.0,311.6,5239.2,-197.1,-292.2,-35.099999999999994,2025-01-29 10:38:52,3
-2342.0,163.60000000000002,5303.2,-152.1,-107.2,-43.1,2025-01-29 10:38:52,3
-2354.0,183.6,5143.2,-63.1,-60.19999999999999,-23.099999999999994,2025-01-29 10:38:52,3
-2390.0,123.60000000000002,5063.2,-34.099999999999994,-120.2,35.900000000000006,2025-01-29 10:38:52,3
-2246.0,311.6,5115.2,-23.099999999999994,-227.2,75.9,2025-01-29 10:38:52,3
-2166.0,323.6,4779.2,18.90000000000001,-259.2,83.9,2025-01-29 10:38:52,3
-2426.0,587.6,5035.2,-20.099999999999994,-178.2,57.900000000000006,2025-01-29 10:38:52,3
-2398.0,579.6,4895.2,-57.1,-86.19999999999999,53.900000000000006,2025-01-29 10:38:52,3
-2558.0,571.6,4823.2,-97.1,78.80000000000001,49.900000000000006,2025-01-29 10:38:52,3
-2450.0,427.6,5139.2,-83.1,49.80000000000001,0.9000000000000057,2025-01-29 10:38:52,3
-2474.0,363.6,4867.2,-65.1,-80.19999999999999,-56.1,2025-01-29 10:38:52,3
-2430.0,487.6,5003.2,-45.1,-226.2,-37.1,2025-01-29 10:38:52,3
-2478.0,543.6,5155.2,-77.1,-250.2,-37.1,2025-01-29 10:38:52,3
-2598.0,191.6,5167.2,-5.099999999999994,-54.19999999999999,-2.0999999999999943,2025-01-29 10:38:52,3
-2586.0,43.60000000000002,5111.2,77.9,91.8,14.900000000000006,2025-01-29 10:38:52,3
-2534.0,351.6,4935.2,147.9,109.8,54.900000000000006,2025-01-29 10:38:52,3
-2666.0,655.6,4987.2,122.9,33.80000000000001,112.9,2025-01-29 10:38:52,3
-2686.0,535.6,5163.2,52.900000000000006,-35.19999999999999,126.9,2025-01-29 10:38:52,3
-2714.0,619.6,5279.2,45.900000000000006,-147.2,128.9,2025-01-29 10:38:52,3
-2526.0,503.6,5331.2,79.9,-190.2,63.900000000000006,2025-01-29 10:38:52,3
-2314.0,367.6,5199.2,103.9,-161.2,48.900000000000006,2025-01-29 10:38:52,3
-2458.0,219.6,5255.2,140.9,39.80000000000001,44.900000000000006,2025-01-29 10:38:52,3
-2318.0,255.6,5223.2,204.9,-14.199999999999989,72.9,2025-01-29 10:38:52,3
-2326.0,347.6,5183.2,220.9,-19.19999999999999,83.9,2025-01-29 10:38:52,3
-2478.0,475.6,5067.2,186.9,-37.19999999999999,136.9,2025-01-29 10:38:52,3
-2526.0,435.6,5035.2,66.9,-78.19999999999999,207.9,2025-01-29 10:38:53,3
-2550.0,759.6,4867.2,-40.1,108.8,263.9,2025-01-29 10:38:53,3
-2490.0,611.6,4859.2,-181.1,435.8,428.9,2025-01-29 10:38:53,3
-2402.0,555.6,5443.2,-207.1,170.8,262.9,2025-01-29 10:38:53,3
-2462.0,235.6,5379.2,-136.1,111.8,124.9,2025-01-29 10:38:53,3
-2590.0,271.6,5135.2,-91.1,125.8,238.9,2025-01-29 10:38:53,3
-2674.0,495.6,5023.2,-89.1,141.8,322.9,2025-01-29 10:38:53,3
-2566.0,559.6,4955.2,-134.1,64.80000000000001,347.9,2025-01-29 10:38:53,3
-2278.0,515.6,5283.2,-115.1,-22.19999999999999,243.9,2025-01-29 10:38:53,3
-2078.0,275.6,5247.2,-34.099999999999994,-112.2,87.9,2025-01-29 10:38:53,3
-2286.0,315.6,5387.2,51.900000000000006,-82.19999999999999,-51.1,2025-01-29 10:38:53,3
-2426.0,487.6,5119.2,99.9,-184.2,-198.1,2025-01-29 10:38:53,3
-2474.0,443.6,5155.2,95.9,-221.2,-236.1,2025-01-29 10:38:53,3
-2438.0,507.6,4995.2,86.9,-342.2,-281.1,2025-01-29 10:38:53,3
-2618.0,395.6,5263.2,54.900000000000006,-352.2,-262.1,2025-01-29 10:38:53,3
-2398.0,235.6,5115.2,54.900000000000006,-197.2,-195.1,2025-01-29 10:38:53,3
-2630.0,351.6,5167.2,94.9,-182.2,-164.1,2025-01-29 10:38:53,3
-2542.0,299.6,5187.2,109.9,-238.2,-150.1,2025-01-29 10:38:53,3
-2662.0,359.6,5139.2,96.9,-196.2,-73.1,2025-01-29 10:38:53,3
-2542.0,495.6,4987.2,57.900000000000006,-241.2,4.900000000000006,2025-01-29 10:38:53,3
-2518.0,543.6,5271.2,47.900000000000006,-263.2,46.900000000000006,2025-01-29 10:38:53,3
-2446.0,443.6,5155.2,27.90000000000001,-244.2,62.900000000000006,2025-01-29 10:38:53,3
-2494.0,443.6,5115.2,18.90000000000001,-233.2,69.9,2025-01-29 10:38:53,3
-2378.0,467.6,5283.2,49.900000000000006,-109.2,34.900000000000006,2025-01-29 10:38:53,3
-2450.0,371.6,5311.2,81.9,49.80000000000001,10.900000000000006,2025-01-29 10:38:53,3
-2450.0,287.6,5291.2,107.9,125.8,16.900000000000006,2025-01-29 10:38:53,3
-2678.0,327.6,5211.2,109.9,58.80000000000001,53.900000000000006,2025-01-29 10:38:53,3
-2666.0,563.6,5159.2,71.9,-108.2,103.9,2025-01-29 10:38:53,3
-2582.0,567.6,5043.2,57.900000000000006,-219.2,120.9,2025-01-29 10:38:53,3
-2442.0,315.6,5087.2,11.900000000000006,-279.2,76.9,2025-01-29 10:38:53,3
-2450.0,495.6,5375.2,1.9000000000000057,-146.2,67.9,2025-01-29 10:38:53,3
-2306.0,591.6,5191.2,-22.099999999999994,50.80000000000001,59.900000000000006,2025-01-29 10:38:53,3
-2386.0,607.6,5439.2,-65.1,273.8,64.9,2025-01-29 10:38:53,3
-2566.0,511.6,5323.2,-67.1,322.8,15.900000000000006,2025-01-29 10:38:53,3
-2922.0,299.6,5275.2,-43.1,170.8,-19.099999999999994,2025-01-29 10:38:53,3
-3138.0,399.6,5007.2,-97.1,203.8,181.9,2025-01-29 10:38:53,3
-3342.0,507.6,4687.2,-274.1,382.8,538.9,2025-01-29 10:38:53,3
-3486.0,595.6,4883.2,-508.1,946.8,1004.9,2025-01-29 10:38:53,3
-2546.0,339.6,5387.2,-528.1,782.8,927.9,2025-01-29 10:38:53,3
-2078.0,295.6,5599.2,-448.1,485.8,613.9,2025-01-29 10:38:53,3
-2294.0,675.6,5019.2,-455.1,537.8,421.9,2025-01-29 10:38:53,3
-2870.0,623.6,5291.2,-418.1,620.8,362.9,2025-01-29 10:38:53,3
-2738.0,419.6,5551.2,-245.1,-57.19999999999999,248.9,2025-01-29 10:38:53,3
-2762.0,443.6,5331.2,-213.1,-139.2,172.9,2025-01-29 10:38:53,3
-2394.0,467.6,5139.2,-262.1,285.8,57.900000000000006,2025-01-29 10:38:53,3
-2202.0,631.6,5323.2,-245.1,395.8,-147.1,2025-01-29 10:38:53,3
-2370.0,483.6,5027.2,-203.1,450.8,-173.1,2025-01-29 10:38:53,3
-2534.0,363.6,4879.2,-165.1,702.8,-107.1,2025-01-29 10:38:53,3
-3178.0,639.6,4767.2,-60.1,981.8,-163.1,2025-01-29 10:38:53,3
-3602.0,1119.6,4511.2,-155.1,1054.8,-198.1,2025-01-29 10:38:53,3
-4250.0,1207.6,4419.2,-271.1,1311.8,-162.1,2025-01-29 10:38:53,3
-4654.0,691.6,4623.2,-130.1,1365.8,-159.1,2025-01-29 10:38:53,3
-5062.0,-8.399999999999977,4551.2,159.9,1315.8,10.900000000000006,2025-01-29 10:38:53,3
-5914.0,-456.4,4087.2,367.9,1912.8,500.9,2025-01-29 10:38:53,3
-5778.0,-428.4,4007.2,578.9,2298.8,924.9,2025-01-29 10:38:53,3
-4810.0,-72.39999999999998,4931.2,693.9,1891.8,653.9,2025-01-29 10:38:53,3
-5102.0,1275.6,4887.2,690.9,2990.8,-142.1,2025-01-29 10:38:53,3
-6614.0,2003.6,3911.2,374.9,4795.8,-879.1,2025-01-29 10:38:53,3
-7510.0,1327.6,3343.2,474.9,5506.8,-1010.1,2025-01-29 10:38:53,3
-7006.0,463.6,2543.2,622.9,5885.8,-856.1,2025-01-29 10:38:54,3
-6726.0,-356.4,2047.2,632.9,6226.8,-643.1,2025-01-29 10:38:54,3
-6022.0,-688.4,1467.1999999999998,777.9,6704.8,-782.1,2025-01-29 10:38:55,3
-5806.0,-248.4,919.1999999999998,1055.9,7759.8,-1111.1,2025-01-29 10:38:55,3
-6438.0,563.6,-52.80000000000018,1127.9,8903.8,-1405.1,2025-01-29 10:38:55,3
-6694.0,915.6,-648.8000000000002,1079.9,9272.8,-1249.1,2025-01-29 10:38:55,3
-6458.0,1067.6,-524.8000000000002,1136.9,8600.8,-1022.1,2025-01-29 10:38:55,3
-5998.0,951.6,-316.8000000000002,1052.9,8271.8,-727.1,2025-01-29 10:38:55,3
-3278.0,-380.4,239.19999999999985,864.9,7902.8,10.900000000000006,2025-01-29 10:38:55,3
-2794.0,-244.4,883.1999999999998,800.9,7785.8,208.9,2025-01-29 10:38:55,3
-1930.0,911.6,-2340.8,-505.1,5365.8,48.900000000000006,2025-01-29 10:38:55,3
-450.0,143.60000000000002,439.1999999999998,244.9,-132.2,249.9,2025-01-29 10:38:55,3
-502.0,219.6,431.1999999999998,193.9,-114.2,273.9,2025-01-29 10:38:55,3
-326.0,95.60000000000002,599.1999999999998,218.9,-3.1999999999999886,263.9,2025-01-29 10:38:55,3
-378.0,339.6,639.1999999999998,266.9,35.80000000000001,251.9,2025-01-29 10:38:55,3
-286.0,359.6,415.1999999999998,200.9,76.80000000000001,254.9,2025-01-29 10:38:55,3
-370.0,419.6,407.1999999999998,143.9,73.80000000000001,243.9,2025-01-29 10:38:55,3
-406.0,367.6,487.1999999999998,95.9,96.8,238.9,2025-01-29 10:38:55,3
-406.0,475.6,479.1999999999998,-1.0999999999999943,16.80000000000001,213.9,2025-01-29 10:38:55,3
-422.0,571.6,491.1999999999998,-123.1,-72.19999999999999,223.9,2025-01-29 10:38:55,3
-258.0,803.6,499.1999999999998,-229.1,-138.2,172.9,2025-01-29 10:38:55,7
18.0,859.6,523.1999999999998,-310.1,-39.19999999999999,71.9,2025-01-29 10:38:55,7
138.0,759.6,655.1999999999998,-310.1,201.8,-40.1,2025-01-29 10:38:55,7
102.0,627.6,939.1999999999998,-245.1,547.8,-207.1,2025-01-29 10:38:55,7
-42.0,907.6,799.1999999999998,-262.1,797.8,-305.1,2025-01-29 10:38:55,7
70.0,1071.6,387.1999999999998,-432.1,985.8,-404.1,2025-01-29 10:38:55,7
-26.0,1183.6,403.1999999999998,-650.1,1292.8,-467.1,2025-01-29 10:38:55,7
-154.0,1503.6,-8.800000000000182,-926.1,1451.8,-526.1,2025-01-29 10:38:55,7
-446.0,1715.6,171.19999999999982,-1270.1,1432.8,-598.1,2025-01-29 10:38:55,7
-402.0,1819.6,11.199999999999818,-1620.1,1078.8,-798.1,2025-01-29 10:38:55,7
-586.0,1651.6,79.19999999999982,-1829.1,549.8,-1133.1,2025-01-29 10:38:55,7
-678.0,1843.6,331.1999999999998,-2002.1,69.80000000000001,-1247.1,2025-01-29 10:38:55,7
-686.0,1987.6,251.19999999999985,-2277.1,-291.2,-1304.1,2025-01-29 10:38:55,7
-414.0,2375.6,51.19999999999982,-2718.1,-542.2,-1467.1,2025-01-29 10:38:55,7
-30.0,2239.6,-84.80000000000018,-3130.1,-811.2,-1779.1,2025-01-29 10:38:55,7
46.0,1819.6,-224.80000000000015,-3426.1,-876.2,-2321.1,2025-01-29 10:38:56,7
-82.0,1699.6,-400.8000000000002,-3822.1,-860.2,-2787.1,2025-01-29 10:38:56,7
-458.0,1423.6,307.1999999999998,-4090.1,-841.2,-3074.1,2025-01-29 10:38:56,7
-566.0,1475.6,-140.80000000000018,-4426.1,-1029.2,-3169.1,2025-01-29 10:38:56,7
-294.0,1699.6,-280.8000000000002,-4871.1,-1317.2,-3325.1,2025-01-29 10:38:56,7
58.0,1703.6,-12.800000000000182,-5233.1,-1646.2,-3671.1,2025-01-29 10:38:56,7
878.0,1311.6,-324.8000000000002,-5519.1,-1878.2,-4188.1,2025-01-29 10:38:56,7
1706.0,619.6,-476.8000000000002,-5623.1,-1583.2,-4789.1,2025-01-29 10:38:56,7
2842.0,363.6,-1440.8000000000002,-5960.1,-802.2,-5240.1,2025-01-29 10:38:56,7
3426.0,143.60000000000002,-1868.8,-6573.1,363.8,-5501.1,2025-01-29 10:38:56,7
3366.0,-548.4,-1052.8000000000002,-6971.1,1929.8,-5881.1,2025-01-29 10:38:56,7
2382.0,-1188.4,-460.8000000000002,-7298.1,3084.8,-6070.1,2025-01-29 10:38:56,7
830.0,-1560.4,39.19999999999982,-7677.1,4108.8,-5892.1,2025-01-29 10:38:56,7
-186.0,-1936.4,-576.8000000000002,-7788.1,4302.8,-5704.1,2025-01-29 10:38:56,7
-754.0,-1844.4,-824.8000000000002,-7858.1,3572.8,-5984.1,2025-01-29 10:38:56,7
-1730.0,-1656.4,-492.8000000000002,-7814.1,2767.8,-6793.1,2025-01-29 10:38:56,7
-2766.0,-1296.4,115.19999999999982,-7695.1,1706.8,-7459.1,2025-01-29 10:38:56,7
-2962.0,-1104.4,143.19999999999982,-7658.1,575.8,-7682.1,2025-01-29 10:38:56,7
-2378.0,-1416.4,-0.8000000000001819,-7885.1,-460.2,-7846.1,2025-01-29 10:38:56,7
-1470.0,-2096.4,-232.80000000000015,-8379.1,-972.2,-8009.1,2025-01-29 10:38:56,7
-550.0,-2524.4,155.19999999999982,-8773.1,-1130.2,-8100.1,2025-01-29 10:38:56,7
354.0,-2528.4,339.1999999999998,-8881.1,-616.2,-8246.1,2025-01-29 10:38:56,7
682.0,-2536.4,259.1999999999998,-8874.1,8.800000000000011,-8251.1,2025-01-29 10:38:56,7
954.0,-2236.4,127.19999999999982,-8859.1,485.8,-8128.1,2025-01-29 10:38:56,7
1034.0,-1840.4,535.1999999999998,-8825.1,799.8,-8120.1,2025-01-29 10:38:56,7
698.0,-1664.4,699.1999999999998,-8880.1,867.8,-8147.1,2025-01-29 10:38:56,7
362.0,-1924.4,663.1999999999998,-8981.1,486.8,-8030.1,2025-01-29 10:38:56,7
346.0,-2348.4,143.19999999999982,-8927.1,-57.19999999999999,-7851.1,2025-01-29 10:38:56,7
414.0,-2812.4,-652.8000000000002,-9025.1,-693.2,-7586.1,2025-01-29 10:38:56,7
650.0,-3180.4,-1060.8000000000002,-9173.1,-1164.2,-7066.1,2025-01-29 10:38:56,7
510.0,-3676.4,-932.8000000000002,-9244.1,-656.2,-6556.1,2025-01-29 10:38:56,7
6.0,-4092.4,79.19999999999982,-9161.1,-151.2,-6100.1,2025-01-29 10:38:56,7
-554.0,-3576.4,1231.1999999999998,-8940.1,-124.2,-5730.1,2025-01-29 10:38:56,7
-570.0,-2872.4,907.1999999999998,-8769.1,-710.2,-5209.1,2025-01-29 10:38:56,7
-462.0,-2216.4,3.199999999999818,-8863.1,-1303.2,-4406.1,2025-01-29 10:38:56,7
974.0,-2316.4,-520.8000000000002,-9237.1,-993.2,-4356.1,2025-01-29 10:38:56,7
1646.0,-2356.4,67.19999999999982,-9635.1,228.8,-5325.1,2025-01-29 10:38:56,7
618.0,-2428.4,423.1999999999998,-10014.1,1058.8,-6161.1,2025-01-29 10:38:56,7
-758.0,-2376.4,435.1999999999998,-10247.1,823.8,-6178.1,2025-01-29 10:38:56,7
-1606.0,-2656.4,395.1999999999998,-10370.1,60.80000000000001,-5971.1,2025-01-29 10:38:56,7
-2374.0,-2632.4,495.1999999999998,-10404.1,-1329.2,-5775.1,2025-01-29 10:38:56,7
-2210.0,-2636.4,-188.80000000000015,-10349.1,-3112.2,-5522.1,2025-01-29 10:38:56,7
-1498.0,-2116.4,-1760.8000000000002,-10058.1,-4728.2,-5090.1,2025-01-29 10:38:56,7
-386.0,-1632.4,-1944.8,-10008.1,-5766.2,-4433.1,2025-01-29 10:38:56,7
1166.0,-1032.4,-608.8000000000002,-9505.1,-5675.2,-3883.1,2025-01-29 10:38:56,7
2294.0,-424.4,-96.80000000000018,-9080.1,-4430.2,-4153.1,2025-01-29 10:38:56,7
2594.0,335.6,-388.8000000000002,-8964.1,-2059.2,-4788.1,2025-01-29 10:38:56,7
1714.0,679.6,-208.80000000000015,-9158.1,352.8,-5264.1,2025-01-29 10:38:56,7
1170.0,883.6,399.1999999999998,-9018.1,1245.8,-5219.1,2025-01-29 10:38:56,7
1002.0,1303.6,-252.80000000000015,-9022.1,1341.8,-5087.1,2025-01-29 10:38:56,7
798.0,1691.6,-1052.8000000000002,-9381.1,1344.8,-5079.1,2025-01-29 10:38:56,7
418.0,2011.6,-1248.8000000000002,-9856.1,1430.8,-5306.1,2025-01-29 10:38:56,7
-474.0,2563.6,-1060.8000000000002,-10385.1,972.8,-5298.1,2025-01-29 10:38:56,7
-878.0,2571.6,-144.80000000000018,-10789.1,233.8,-5161.1,2025-01-29 10:38:56,7
-1086.0,2923.6,55.19999999999982,-11127.1,-528.2,-5106.1,2025-01-29 10:38:56,7
-1134.0,3375.6,-956.8000000000002,-11765.1,-748.2,-5127.1,2025-01-29 10:38:56,7
-942.0,3263.6,-1744.8000000000002,-12621.1,-437.2,-5257.1,2025-01-29 10:38:56,7
-866.0,1887.6,-1396.8000000000002,-13299.1,-214.2,-5457.1,2025-01-29 10:38:56,7
-1026.0,19.600000000000023,243.19999999999985,-13232.1,-223.2,-5519.1,2025-01-29 10:38:56,7
-1134.0,-952.4,1271.1999999999998,-12524.1,-543.2,-5338.1,2025-01-29 10:38:56,7
-806.0,-1072.4,1987.2,-11726.1,-954.2,-4970.1,2025-01-29 10:38:56,7
-298.0,-820.4,2243.2,-10839.1,-1156.2,-4644.1,2025-01-29 10:38:57,7
94.0,107.60000000000002,2099.2,-9944.1,-1058.2,-4377.1,2025-01-29 10:38:57,7
170.0,1031.6,1811.2,-9404.1,-672.2,-4149.1,2025-01-29 10:38:57,7
198.0,1763.6,1611.1999999999998,-8979.1,-116.2,-4075.1,2025-01-29 10:38:57,7
-90.0,2283.6,1323.1999999999998,-8604.1,280.8,-4025.1,2025-01-29 10:38:57,7
-154.0,2399.6,763.1999999999998,-8298.1,356.8,-3965.1,2025-01-29 10:38:57,7
-234.0,2291.6,479.1999999999998,-8288.1,78.80000000000001,-4154.1,2025-01-29 10:38:57,7
-222.0,1923.6,1099.1999999999998,-8170.1,-478.2,-4225.1,2025-01-29 10:38:57,7
-90.0,1879.6,1219.1999999999998,-7854.1,-640.2,-4029.1,2025-01-29 10:38:57,7
474.0,2059.6,1187.1999999999998,-7710.1,-64.19999999999999,-3839.1,2025-01-29 10:38:57,7
694.0,2315.6,1115.1999999999998,-7481.1,780.8,-3897.1,2025-01-29 10:38:57,7
682.0,2555.6,503.1999999999998,-7409.1,1526.8,-4034.1,2025-01-29 10:38:57,7
430.0,2715.6,-64.80000000000018,-7461.1,1862.8,-4286.1,2025-01-29 10:38:57,7
82.0,2671.6,-140.80000000000018,-7654.1,1877.8,-4523.1,2025-01-29 10:38:57,7
-198.0,2691.6,119.19999999999982,-7794.1,1457.8,-4716.1,2025-01-29 10:38:57,7
-430.0,2595.6,179.19999999999982,-7951.1,477.8,-4899.1,2025-01-29 10:38:57,7
38.0,2435.6,-76.80000000000018,-8082.1,-215.2,-5034.1,2025-01-29 10:38:57,7
326.0,2459.6,-36.80000000000018,-8256.1,-683.2,-5231.1,2025-01-29 10:38:57,7
414.0,2603.6,-136.80000000000018,-8440.1,-529.2,-5300.1,2025-01-29 10:38:57,7
774.0,3023.6,-320.8000000000002,-8610.1,-199.2,-5328.1,2025-01-29 10:38:57,7
818.0,3327.6,131.19999999999982,-8972.1,-104.2,-5737.1,2025-01-29 10:38:57,7
602.0,3383.6,127.19999999999982,-9085.1,-38.19999999999999,-6111.1,2025-01-29 10:38:57,7
514.0,3007.6,123.19999999999982,-8999.1,-108.2,-6316.1,2025-01-29 10:38:57,7
510.0,2371.6,-436.8000000000002,-8937.1,-97.2,-6501.1,2025-01-29 10:38:57,7
-142.0,2091.6,91.19999999999982,-8844.1,-45.19999999999999,-6550.1,2025-01-29 10:38:57,7
-518.0,1999.6,467.1999999999998,-8571.1,114.8,-6391.1,2025-01-29 10:38:57,7
-402.0,1743.6,371.1999999999998,-8489.1,77.80000000000001,-6332.1,2025-01-29 10:38:57,7
-382.0,1739.6,535.1999999999998,-8428.1,-68.19999999999999,-6229.1,2025-01-29 10:38:57,7
-198.0,1855.6,687.1999999999998,-8162.1,-156.2,-6105.1,2025-01-29 10:38:57,7
30.0,1715.6,991.1999999999998,-7907.1,74.80000000000001,-6144.1,2025-01-29 10:38:57,7
-230.0,1367.6,1223.1999999999998,-7631.1,335.8,-6187.1,2025-01-29 10:38:57,7
-586.0,1203.6,1507.1999999999998,-7175.1,290.8,-6132.1,2025-01-29 10:38:57,7
-774.0,931.6,1907.2,-6771.1,209.8,-6012.1,2025-01-29 10:38:57,7
-758.0,935.6,2395.2,-6306.1,25.80000000000001,-5813.1,2025-01-29 10:38:57,7
-514.0,727.6,2211.2,-5586.1,-45.19999999999999,-5546.1,2025-01-29 10:38:57,7
106.0,611.6,1931.2,-4845.1,126.8,-5426.1,2025-01-29 10:38:57,7
462.0,523.6,1947.2,-4188.1,376.8,-5527.1,2025-01-29 10:38:57,7
450.0,295.6,2259.2,-3696.1,607.8,-5665.1,2025-01-29 10:38:57,7
410.0,71.60000000000002,2611.2,-2958.1,1157.8,-5734.1,2025-01-29 10:38:57,7
366.0,-156.39999999999998,2023.2,-1966.1,2524.8,-5551.1,2025-01-29 10:38:57,7
62.0,-1084.4,539.1999999999998,-1274.1,4481.8,-5415.1,2025-01-29 10:38:57,7
-1694.0,-928.4,-644.8000000000002,-689.1,6358.8,-4681.1,2025-01-29 10:38:57,7
-3006.0,207.6,-2708.8,-613.1,7886.8,-3276.1,2025-01-29 10:38:57,7
-3854.0,1351.6,-2924.8,-1320.1,7671.8,-2437.1,2025-01-29 10:38:57,7
-4258.0,2223.6,-1360.8000000000002,-1677.1,4407.8,-1905.1,2025-01-29 10:38:57,7
-2706.0,2191.6,-256.8000000000002,-1715.1,-1509.2,-2271.1,2025-01-29 10:38:57,7
-1154.0,391.6,1127.1999999999998,-1849.1,-6737.2,-2957.1,2025-01-29 10:38:57,7
966.0,-1032.4,1523.1999999999998,-1544.1,-7395.2,-2944.1,2025-01-29 10:38:57,7
1918.0,-1844.4,1799.1999999999998,-1135.1,-5300.2,-2930.1,2025-01-29 10:38:57,1
1818.0,-1628.4,1903.2,-883.1,-1781.2,-2436.1,2025-01-29 10:38:57,1
1918.0,-472.4,1659.1999999999998,-960.1,557.8,-1900.1,2025-01-29 10:38:57,1
1478.0,787.6,1251.1999999999998,-1418.1,1129.8,-1672.1,2025-01-29 10:38:57,1
858.0,1735.6,367.1999999999998,-2357.1,1177.8,-1730.1,2025-01-29 10:38:57,1
514.0,1843.6,-644.8000000000002,-3510.1,1315.8,-2235.1,2025-01-29 10:38:57,1
98.0,967.6,-1436.8000000000002,-4604.1,1587.8,-3295.1,2025-01-29 10:38:57,1
-962.0,-284.4,-1668.8000000000002,-5451.1,1494.8,-4416.1,2025-01-29 10:38:57,1
-1998.0,-1832.4,-1992.8,-5748.1,861.8,-5019.1,2025-01-29 10:38:57,1
-2582.0,-2792.4,-1432.8000000000002,-5554.1,10.800000000000011,-5253.1,2025-01-29 10:38:57,1
-2394.0,-2656.4,-132.80000000000018,-5117.1,-1079.2,-5375.1,2025-01-29 10:38:57,1
-1854.0,-1984.4,579.1999999999998,-4952.1,-1546.2,-5348.1,2025-01-29 10:38:57,1
-950.0,-1504.4,991.1999999999998,-4837.1,-1676.2,-5311.1,2025-01-29 10:38:57,1
198.0,-1180.4,1267.1999999999998,-4967.1,-1642.2,-5472.1,2025-01-29 10:38:57,1
634.0,-1064.4,1615.1999999999998,-5298.1,-1306.2,-5759.1,2025-01-29 10:38:58,1
666.0,-1088.4,1611.1999999999998,-5771.1,-777.2,-6127.1,2025-01-29 10:38:58,1
498.0,-1128.4,1583.1999999999998,-6265.1,-344.2,-6444.1,2025-01-29 10:38:58,1
122.0,-876.4,1135.1999999999998,-6689.1,-187.2,-6735.1,2025-01-29 10:38:58,1
-430.0,-324.4,899.1999999999998,-7100.1,-361.2,-6802.1,2025-01-29 10:38:58,1
-646.0,-92.39999999999998,863.1999999999998,-7531.1,-825.2,-6606.1,2025-01-29 10:38:58,1
-686.0,-352.4,1119.1999999999998,-7904.1,-1118.2,-6352.1,2025-01-29 10:38:58,1
-450.0,-840.4,1351.1999999999998,-8173.1,-1402.2,-6229.1,2025-01-29 10:38:58,1
-366.0,-1568.4,1447.1999999999998,-8246.1,-1620.2,-6208.1,2025-01-29 10:38:58,1
-266.0,-2064.4,1487.1999999999998,-8087.1,-1408.2,-6041.1,2025-01-29 10:38:58,1
-106.0,-2100.4,1547.1999999999998,-7856.1,-376.2,-5898.1,2025-01-29 10:38:58,1
-402.0,-1968.4,1535.1999999999998,-7598.1,503.8,-5561.1,2025-01-29 10:38:58,1
-702.0,-2140.4,1447.1999999999998,-7331.1,752.8,-5070.1,2025-01-29 10:38:58,1
-1318.0,-2508.4,1655.1999999999998,-7074.1,683.8,-4775.1,2025-01-29 10:38:58,1
-1854.0,-2640.4,1519.1999999999998,-6898.1,268.8,-4428.1,2025-01-29 10:38:58,1
-1862.0,-2284.4,1991.2,-6500.1,-644.2,-3994.1,2025-01-29 10:38:58,1
-1498.0,-1988.4,2475.2,-6029.1,-1167.2,-3879.1,2025-01-29 10:38:58,1
-1230.0,-1848.4,3107.2,-5460.1,-1545.2,-3606.1,2025-01-29 10:38:58,1
-598.0,-2100.4,3099.2,-4876.1,-1505.2,-3240.1,2025-01-29 10:38:58,1
-102.0,-2968.4,2395.2,-4474.1,-736.2,-3148.1,2025-01-29 10:38:58,1
-342.0,-3220.4,1891.2,-4236.1,233.8,-3035.1,2025-01-29 10:38:58,1
-734.0,-3008.4,1819.2,-4076.1,514.8,-2884.1,2025-01-29 10:38:58,1
-1158.0,-2116.4,1883.2,-3980.1,324.8,-2552.1,2025-01-29 10:38:58,1
-970.0,-968.4,1275.1999999999998,-4040.1,204.8,-2314.1,2025-01-29 10:38:58,1
-918.0,-956.4,1419.1999999999998,-4199.1,87.80000000000001,-2178.1,2025-01-29 10:38:58,1
-466.0,-1056.4,1663.1999999999998,-4278.1,171.8,-2184.1,2025-01-29 10:38:58,1
-310.0,-1552.4,1687.1999999999998,-4260.1,470.8,-2383.1,2025-01-29 10:38:58,1
-562.0,-1860.4,1971.2,-4334.1,521.8,-2554.1,2025-01-29 10:38:58,1
-878.0,-1860.4,2011.2,-4215.1,159.8,-2594.1,2025-01-29 10:38:58,1
-618.0,-1244.4,2299.2,-4234.1,14.800000000000011,-2620.1,2025-01-29 10:38:58,1
-498.0,-700.4,1983.2,-4414.1,-59.19999999999999,-2522.1,2025-01-29 10:38:58,1
-306.0,-700.4,1803.2,-4758.1,366.8,-2598.1,2025-01-29 10:38:58,1
-274.0,-1344.4,1919.2,-5020.1,937.8,-2776.1,2025-01-29 10:38:58,1
-522.0,-2220.4,2151.2,-4973.1,1317.8,-2890.1,2025-01-29 10:38:58,1
-558.0,-2700.4,2291.2,-4787.1,1485.8,-2923.1,2025-01-29 10:38:58,1
-766.0,-2448.4,1835.2,-4790.1,1888.8,-3080.1,2025-01-29 10:38:58,1
-1198.0,-1816.4,1563.1999999999998,-4894.1,2164.8,-3235.1,2025-01-29 10:38:58,1
-1750.0,-1560.4,1359.1999999999998,-5146.1,1991.8,-3187.1,2025-01-29 10:38:58,1
-1602.0,-992.4,247.19999999999985,-4990.1,1597.8,-3322.1,2025-01-29 10:38:58,1
-1506.0,-1004.4,-960.8000000000002,-4679.1,1409.8,-3716.1,2025-01-29 10:38:58,1
-1954.0,-3352.4,479.1999999999998,-3446.1,2077.8,-4523.1,2025-01-29 10:38:58,1
-2534.0,-5000.4,267.1999999999998,-1999.1,1984.8,-5127.1,2025-01-29 10:38:58,1
-3770.0,-5816.4,143.19999999999982,-898.1,1100.8,-4713.1,2025-01-29 10:38:58,1
-4602.0,-5660.4,-400.8000000000002,-89.1,-355.2,-3211.1,2025-01-29 10:38:58,1
-4282.0,-4088.4,-1220.8000000000002,65.9,-1479.2,-835.1,2025-01-29 10:38:58,1
-2842.0,-2448.4,-952.8000000000002,-272.1,-1926.2,583.9,2025-01-29 10:38:58,1
-2170.0,-1928.4,-980.8000000000002,-690.1,-2660.2,1555.9,2025-01-29 10:38:58,1
-1222.0,-1960.4,-516.8000000000002,-1005.1,-2760.2,2362.9,2025-01-29 10:38:58,1
-894.0,-1872.4,-532.8000000000002,-972.1,-2395.2,2740.9,2025-01-29 10:38:58,1
-226.0,-1444.4,-1344.8000000000002,-1037.1,-2623.2,3063.9,2025-01-29 10:38:58,1
726.0,-1440.4,-1384.8000000000002,-1199.1,-2872.2,3134.9,2025-01-29 10:38:58,1
1658.0,-772.4,-1380.8000000000002,-1346.1,-3251.2,2987.9,2025-01-29 10:38:58,1
2810.0,959.6,-696.8000000000002,-1804.1,-3486.2,2586.9,2025-01-29 10:38:58,1
3890.0,2275.6,-1052.8000000000002,-2356.1,-3158.2,2015.9,2025-01-29 10:38:58,1
4790.0,3191.6,-1336.8000000000002,-3166.1,-1732.2,1110.9,2025-01-29 10:38:58,1
4202.0,2391.6,-864.8000000000002,-3674.1,751.8,81.9,2025-01-29 10:38:58,1
2258.0,795.6,-124.80000000000018,-3579.1,2897.8,-128.1,2025-01-29 10:38:58,1
686.0,-640.4,87.19999999999982,-3060.1,4554.8,70.9,2025-01-29 10:38:58,1
-554.0,-1624.4,-268.8000000000002,-2515.1,5075.8,311.9,2025-01-29 10:38:58,1
-2026.0,-2184.4,-632.8000000000002,-1942.1,3978.8,887.9,2025-01-29 10:38:59,1
-2886.0,-1908.4,-28.800000000000185,-1369.1,1853.8,1772.9,2025-01-29 10:38:59,1
-2838.0,-656.4,7.199999999999818,-959.1,-487.2,2544.9,2025-01-29 10:38:59,1
-2258.0,259.6,-16.800000000000182,-882.1,-2371.2,3244.9,2025-01-29 10:38:59,1
-854.0,1387.6,-72.80000000000018,-768.1,-3852.2,3754.9,2025-01-29 10:38:59,1
914.0,1923.6,531.1999999999998,-573.1,-4165.2,3904.9,2025-01-29 10:38:59,1
2258.0,1935.6,1343.1999999999998,-427.1,-2952.2,3345.9,2025-01-29 10:38:59,1
2446.0,1631.6,1931.2,-193.1,-1110.2,2615.9,2025-01-29 10:38:59,1
1878.0,1399.6,1835.2,78.9,549.8,2257.9,2025-01-29 10:38:59,1
806.0,1339.6,1415.1999999999998,192.9,1424.8,2253.9,2025-01-29 10:38:59,1
126.0,1355.6,1403.1999999999998,340.9,1379.8,2250.9,2025-01-29 10:38:59,1
-222.0,1339.6,1443.1999999999998,470.9,626.8,1941.9,2025-01-29 10:38:59,1
-326.0,1647.6,1415.1999999999998,619.9,-931.2,1649.9,2025-01-29 10:38:59,1
178.0,1987.6,1847.2,680.9,-1989.2,1399.9,2025-01-29 10:38:59,1
978.0,2223.6,1935.2,807.9,-2480.2,838.9,2025-01-29 10:38:59,1
1098.0,2519.6,1975.2,1023.9,-2634.2,173.9,2025-01-29 10:38:59,1
1274.0,2415.6,1835.2,1241.9,-2804.2,-573.1,2025-01-29 10:38:59,1
786.0,2299.6,2319.2,1532.9,-2812.2,-1123.1,2025-01-29 10:38:59,1
810.0,2083.6,1903.2,1825.9,-3040.2,-1642.1,2025-01-29 10:38:59,1
642.0,1799.6,1935.2,1934.9,-3207.2,-2191.1,2025-01-29 10:38:59,1
-310.0,1655.6,2411.2,2071.9,-3015.2,-2239.1,2025-01-29 10:38:59,1
-1086.0,1499.6,3223.2,2155.9,-1895.2,-1317.1,2025-01-29 10:38:59,1
-1258.0,1043.6,3711.2,1954.9,-314.2,-339.1,2025-01-29 10:38:59,1
-1322.0,451.6,3943.2,2001.9,1422.8,261.9,2025-01-29 10:38:59,1
-1946.0,-36.39999999999998,3439.2,2416.9,3027.8,625.9,2025-01-29 10:38:59,1
-2618.0,-236.4,2647.2,3077.9,3850.8,971.9,2025-01-29 10:38:59,1
-3494.0,-1076.4,2015.2,3799.9,3572.8,1214.9,2025-01-29 10:38:59,1
-4682.0,-832.4,2307.2,4625.9,1812.8,1576.9,2025-01-29 10:38:59,1
-5334.0,1631.6,2211.2,4720.9,50.80000000000001,2218.9,2025-01-29 10:38:59,1
-3818.0,2427.6,3275.2,4642.9,-1320.2,2370.9,2025-01-29 10:38:59,1
-2686.0,1947.6,2791.2,4548.9,-1346.2,2084.9,2025-01-29 10:38:59,1
-2054.0,135.60000000000002,1239.1999999999998,4335.9,427.8,2127.9,2025-01-29 10:38:59,1
-3118.0,259.6,215.19999999999985,4021.9,3044.8,2152.9,2025-01-29 10:38:59,1
-4254.0,2263.6,-1080.8000000000002,3143.9,4518.8,2680.9,2025-01-29 10:38:59,1
-5530.0,4115.6,-3352.8,1663.9,4705.8,3532.9,2025-01-29 10:38:59,1
-5038.0,5327.6,-5544.8,-282.1,3653.8,3738.9,2025-01-29 10:38:59,1
-3626.0,5431.6,-5716.8,-2688.1,1603.8,2781.9,2025-01-29 10:38:59,1
-434.0,2967.6,-2460.8,-4104.1,-3038.2,317.9,2025-01-29 10:38:59,1
1186.0,239.6,-232.80000000000015,-3752.1,-5652.2,-968.1,2025-01-29 10:38:59,1
3490.0,-1300.4,1615.1999999999998,-2632.1,-6565.2,-1516.1,2025-01-29 10:38:59,1
4894.0,-2564.4,2795.2,-1097.1,-5926.2,-1917.1,2025-01-29 10:38:59,1
5450.0,-3452.4,2363.2,334.9,-4004.2,-1939.1,2025-01-29 10:38:59,1
5570.0,-4060.4,355.1999999999998,1445.9,-441.2,-1968.1,2025-01-29 10:38:59,1
4230.0,-3456.4,-1396.8000000000002,1966.9,4495.8,-2284.1,2025-01-29 10:38:59,1
2346.0,-1932.4,-2436.8,1798.9,6827.8,-2456.1,2025-01-29 10:38:59,1
282.0,-508.4,-2612.8,1158.9,6967.8,-2462.1,2025-01-29 10:38:59,1
-1722.0,203.6,-1808.8,386.9,5117.8,-2381.1,2025-01-29 10:38:59,1
-2478.0,575.6,-896.8000000000002,-114.1,1872.8,-2364.1,2025-01-29 10:38:59,1
-2310.0,67.60000000000002,-688.8000000000002,-374.1,-1721.2,-2572.1,2025-01-29 10:38:59,1
-1358.0,-552.4,-832.8000000000002,-384.1,-3854.2,-2807.1,2025-01-29 10:38:59,1
782.0,-1144.4,-1464.8000000000002,-258.1,-5252.2,-2795.1,2025-01-29 10:38:59,1
1742.0,-1336.4,-476.8000000000002,-211.1,-5164.2,-2726.1,2025-01-29 10:38:59,1
2842.0,-1084.4,403.1999999999998,-208.1,-3671.2,-2660.1,2025-01-29 10:38:59,1
3518.0,-736.4,859.1999999999998,-549.1,-1007.2,-2808.1,2025-01-29 10:38:59,1
3038.0,-744.4,1347.1999999999998,-840.1,1453.8,-3157.1,2025-01-29 10:38:59,1
1674.0,-928.4,1295.1999999999998,-1029.1,3047.8,-3504.1,2025-01-29 10:38:59,1
542.0,-980.4,1167.1999999999998,-1174.1,3282.8,-3684.1,2025-01-29 10:38:59,1
-602.0,-1616.4,859.1999999999998,-1342.1,2788.8,-3700.1,2025-01-29 10:38:59,1
-1146.0,-2272.4,1083.1999999999998,-1318.1,1844.8,-3286.1,2025-01-29 10:38:59,1
-1242.0,-2468.4,1355.1999999999998,-1067.1,804.8,-2707.1,2025-01-29 10:38:59,1
-558.0,-2172.4,1227.1999999999998,-876.1,108.8,-2085.1,2025-01-29 10:38:59,1
-34.0,-1768.4,1155.1999999999998,-990.1,-33.19999999999999,-1927.1,2025-01-29 10:38:59,1
94.0,-784.4,1383.1999999999998,-1331.1,239.8,-1846.1,2025-01-29 10:39:00,1
-38.0,-268.4,1379.1999999999998,-1715.1,458.8,-1679.1,2025-01-29 10:39:00,1
-346.0,-204.4,1347.1999999999998,-2207.1,758.8,-1447.1,2025-01-29 10:39:00,1
-746.0,-768.4,1679.1999999999998,-2551.1,825.8,-1218.1,2025-01-29 10:39:00,1
-994.0,-1492.4,2043.2,-2690.1,483.8,-1006.1,2025-01-29 10:39:00,1
-930.0,-2240.4,2147.2,-2645.1,-65.19999999999999,-787.1,2025-01-29 10:39:00,1
-842.0,-2332.4,2727.2,-2490.1,-786.2,-676.1,2025-01-29 10:39:00,1
-342.0,-2364.4,2507.2,-2346.1,-1030.2,-229.1,2025-01-29 10:39:00,1
1026.0,-2396.4,1863.2,-2221.1,-277.2,-159.1,2025-01-29 10:39:00,1
870.0,-1788.4,1759.1999999999998,-2229.1,1344.8,-469.1,2025-01-29 10:39:00,1
194.0,-1312.4,1715.1999999999998,-2307.1,2613.8,-581.1,2025-01-29 10:39:00,1
-562.0,-1016.4,1415.1999999999998,-2423.1,2818.8,-830.1,2025-01-29 10:39:00,1
-898.0,-1444.4,1071.1999999999998,-2619.1,2212.8,-1318.1,2025-01-29 10:39:00,1
-1230.0,-1684.4,1131.1999999999998,-2828.1,1410.8,-1751.1,2025-01-29 10:39:00,1
-1782.0,-1252.4,1087.1999999999998,-2978.1,799.8,-2425.1,2025-01-29 10:39:00,1
-2414.0,-948.4,1575.1999999999998,-3236.1,86.80000000000001,-3093.1,2025-01-29 10:39:00,1
-3282.0,-1320.4,2123.2,-3540.1,-842.2,-3450.1,2025-01-29 10:39:00,1
-3486.0,-2420.4,1295.1999999999998,-3537.1,-1517.2,-3641.1,2025-01-29 10:39:00,1
-3190.0,-3928.4,51.19999999999982,-3059.1,-1013.2,-3702.1,2025-01-29 10:39:00,1
-3114.0,-5376.4,47.19999999999982,-1607.1,28.80000000000001,-3747.1,2025-01-29 10:39:00,1
-3538.0,-6340.4,-856.8000000000002,168.9,368.8,-3628.1,2025-01-29 10:39:00,1
-5030.0,-6072.4,-972.8000000000002,1566.9,-160.2,-2706.1,2025-01-29 10:39:00,1
-6298.0,-4540.4,-1896.8,2011.9,-2355.2,-443.1,2025-01-29 10:39:00,1
-5158.0,-2892.4,-2436.8,1312.9,-4291.2,1835.9,2025-01-29 10:39:00,1
-2306.0,-1360.4,-1788.8000000000002,658.9,-5793.2,2661.9,2025-01-29 10:39:00,1
138.0,-964.4,-1580.8000000000002,-156.1,-7206.2,3178.9,2025-01-29 10:39:00,1
3062.0,-636.4,-1464.8000000000002,-653.1,-7388.2,3389.9,2025-01-29 10:39:00,1
5122.0,571.6,-1292.8000000000002,-936.1,-5700.2,3089.9,2025-01-29 10:39:00,1
5554.0,1487.6,-1076.8000000000002,-969.1,-2486.2,2438.9,2025-01-29 10:39:00,1
5330.0,1707.6,-644.8000000000002,-823.1,1950.8,1455.9,2025-01-29 10:39:00,1
4154.0,1579.6,-708.8000000000002,-536.1,5626.8,559.9,2025-01-29 10:39:00,1
1726.0,555.6,-572.8000000000002,-422.1,7045.8,352.9,2025-01-29 10:39:00,1
-362.0,-256.4,-844.8000000000002,-526.1,6963.8,754.9,2025-01-29 10:39:00,1
-1398.0,-760.4,-1084.8000000000002,-667.1,5320.8,1406.9,2025-01-29 10:39:00,1
-1950.0,-1032.4,-1172.8000000000002,-423.1,2416.8,1901.9,2025-01-29 10:39:00,1
-2646.0,-996.4,-1072.8000000000002,-273.1,118.8,2494.9,2025-01-29 10:39:00,1
-1962.0,-224.4,-828.8000000000002,-126.1,-1804.2,3374.9,2025-01-29 10:39:00,1
-358.0,435.6,-776.8000000000002,-129.1,-3071.2,4058.9,2025-01-29 10:39:00,1
866.0,987.6,175.19999999999982,4.900000000000006,-3700.2,4241.9,2025-01-29 10:39:00,1
2542.0,1235.6,755.1999999999998,59.900000000000006,-3110.2,3888.9,2025-01-29 10:39:00,1
3078.0,1071.6,1187.1999999999998,179.9,-1713.2,3214.9,2025-01-29 10:39:00,1
3266.0,987.6,1587.1999999999998,308.9,257.8,2512.9,2025-01-29 10:39:00,1
1818.0,835.6,1815.2,467.9,1852.8,1974.9,2025-01-29 10:39:00,1
742.0,959.6,1235.1999999999998,459.9,2495.8,1902.9,2025-01-29 10:39:00,1
-142.0,1203.6,1167.1999999999998,488.9,2171.8,2042.9,2025-01-29 10:39:00,1
-1026.0,1479.6,1891.2,484.9,1176.8,1898.9,2025-01-29 10:39:00,1
-498.0,1507.6,771.1999999999998,707.9,-588.2,1378.9,2025-01-29 10:39:00,1
-238.0,1163.6,731.1999999999998,687.9,-1735.2,902.9,2025-01-29 10:39:00,1
258.0,1019.6,1515.1999999999998,722.9,-2438.2,644.9,2025-01-29 10:39:00,1
706.0,931.6,2159.2,768.9,-2522.2,340.9,2025-01-29 10:39:00,1
846.0,667.6,2531.2,872.9,-2068.2,86.9,2025-01-29 10:39:00,1
798.0,527.6,2631.2,1055.9,-1323.2,-242.1,2025-01-29 10:39:00,1
158.0,683.6,2963.2,1329.9,-753.2,-498.1,2025-01-29 10:39:00,1
-522.0,791.6,2875.2,1524.9,-641.2,-665.1,2025-01-29 10:39:00,1
-1566.0,1027.6,2315.2,1658.9,-965.2,-632.1,2025-01-29 10:39:00,1
-2194.0,1375.6,1879.2,1735.9,-1672.2,-236.1,2025-01-29 10:39:00,1
-2510.0,1127.6,2511.2,1929.9,-2919.2,240.9,2025-01-29 10:39:00,1
-2086.0,659.6,2723.2,2334.9,-4175.2,642.9,2025-01-29 10:39:00,1
-1138.0,419.6,2727.2,2676.9,-4785.2,998.9,2025-01-29 10:39:00,1
-138.0,419.6,3203.2,3014.9,-4401.2,1113.9,2025-01-29 10:39:00,1
350.0,-468.4,3431.2,3177.9,-2727.2,1025.9,2025-01-29 10:39:00,1
-146.0,-396.4,3835.2,3724.9,210.8,1223.9,2025-01-29 10:39:01,1
-1734.0,1055.6,2947.2,3908.9,2773.8,1932.9,2025-01-29 10:39:01,1
-2478.0,1575.6,2531.2,3866.9,3506.8,2560.9,2025-01-29 10:39:01,1
-3066.0,1267.6,3027.2,3882.9,3527.8,2488.9,2025-01-29 10:39:01,1
-4186.0,-496.4,2483.2,4093.9,3451.8,2287.9,2025-01-29 10:39:01,1
-4898.0,-896.4,1503.1999999999998,4592.9,3353.8,2439.9,2025-01-29 10:39:01,1
-5226.0,1543.6,-908.8000000000002,4441.9,3431.8,3168.9,2025-01-29 10:39:01,1
-4658.0,4119.6,-4016.8,2467.9,3386.8,3827.9,2025-01-29 10:39:01,1
-3866.0,5627.6,-4904.8,80.9,2990.8,3750.9,2025-01-29 10:39:01,1
-2366.0,5623.6,-4212.8,-1759.1,1449.8,2490.9,2025-01-29 10:39:01,1
-1578.0,4287.6,-2676.8,-2781.1,-450.2,417.9,2025-01-29 10:39:01,1
-1558.0,2963.6,-1804.8,-3164.1,-1614.2,-622.1,2025-01-29 10:39:01,1
-306.0,959.6,-680.8000000000002,-2864.1,-2555.2,-877.1,2025-01-29 10:39:01,1
1586.0,-660.4,903.1999999999998,-1814.1,-3540.2,-1320.1,2025-01-29 10:39:01,1
3478.0,-2264.4,1995.2,-353.1,-4318.2,-2181.1,2025-01-29 10:39:01,1
3618.0,-3112.4,2683.2,1149.9,-4050.2,-2073.1,2025-01-29 10:39:01,1
3618.0,-4024.4,2207.2,2122.9,-2021.2,-1223.1,2025-01-29 10:39:01,1
3418.0,-4540.4,291.1999999999998,2562.9,2059.8,-376.1,2025-01-29 10:39:01,1
2582.0,-3844.4,-464.8000000000002,2535.9,5867.8,32.900000000000006,2025-01-29 10:39:01,1
814.0,-2336.4,-752.8000000000002,2770.9,7471.8,157.9,2025-01-29 10:39:01,1
-570.0,-816.4,-1800.8000000000002,2722.9,6656.8,79.9,2025-01-29 10:39:01,1
-1558.0,323.6,-1624.8000000000002,2334.9,3533.8,-336.1,2025-01-29 10:39:01,1
-2246.0,459.6,-1144.8000000000002,1867.9,120.8,-776.1,2025-01-29 10:39:01,1
-2138.0,151.60000000000002,-484.8000000000002,1321.9,-2119.2,-1057.1,2025-01-29 10:39:01,1
-842.0,-256.4,-796.8000000000002,1230.9,-3305.2,-1331.1,2025-01-29 10:39:01,1
502.0,-448.4,-1196.8000000000002,1050.9,-3979.2,-1471.1,2025-01-29 10:39:01,1
1274.0,-716.4,-304.8000000000002,804.9,-3972.2,-1485.1,2025-01-29 10:39:01,1
2074.0,-668.4,507.1999999999998,375.9,-3002.2,-1703.1,2025-01-29 10:39:01,1
1762.0,-648.4,1903.2,-131.1,-1657.2,-1977.1,2025-01-29 10:39:01,1
1718.0,-904.4,1795.1999999999998,-628.1,-300.2,-2173.1,2025-01-29 10:39:01,1
730.0,-1184.4,2455.2,-945.1,690.8,-2387.1,2025-01-29 10:39:01,1
-230.0,-1232.4,2507.2,-1074.1,838.8,-2513.1,2025-01-29 10:39:01,1
-1042.0,-1040.4,2703.2,-1183.1,613.8,-2435.1,2025-01-29 10:39:01,1
-1326.0,-1196.4,2739.2,-1237.1,106.8,-2349.1,2025-01-29 10:39:01,1
-906.0,-1460.4,2371.2,-1345.1,-252.2,-2185.1,2025-01-29 10:39:01,1
-274.0,-1948.4,2191.2,-1502.1,-569.2,-2101.1,2025-01-29 10:39:01,1
-298.0,-1964.4,3043.2,-1647.1,-259.2,-1793.1,2025-01-29 10:39:01,1
-234.0,-1488.4,2963.2,-1829.1,269.8,-1461.1,2025-01-29 10:39:01,1
-302.0,-808.4,2779.2,-2119.1,668.8,-1255.1,2025-01-29 10:39:01,1
-534.0,-280.4,2911.2,-2675.1,836.8,-981.1,2025-01-29 10:39:01,1
-826.0,-248.4,2943.2,-3166.1,572.8,-717.1,2025-01-29 10:39:01,1
-778.0,-876.4,3039.2,-3351.1,34.80000000000001,-553.1,2025-01-29 10:39:01,1
-514.0,-1756.4,2567.2,-3594.1,133.8,-737.1,2025-01-29 10:39:01,1
-674.0,-2056.4,2583.2,-3585.1,315.8,-1096.1,2025-01-29 10:39:01,1
-1222.0,-2052.4,1767.1999999999998,-3320.1,180.8,-1229.1,2025-01-29 10:39:01,1
-1290.0,-1724.4,1563.1999999999998,-3061.1,266.8,-1216.1,2025-01-29 10:39:01,1
-1454.0,-1568.4,1931.2,-3028.1,273.8,-1230.1,2025-01-29 10:39:01,1
-1466.0,-1648.4,2327.2,-3011.1,184.8,-1687.1,2025-01-29 10:39:01,1
-1946.0,-2048.4,2519.2,-3178.1,-34.19999999999999,-2325.1,2025-01-29 10:39:01,1
-2266.0,-2220.4,2963.2,-3314.1,-965.2,-2852.1,2025-01-29 10:39:01,1
-2258.0,-2208.4,2235.2,-2997.1,-1050.2,-3208.1,2025-01-29 10:39:01,1
-2150.0,-1740.4,887.1999999999998,-2828.1,18.80000000000001,-3430.1,2025-01-29 10:39:01,1
-2094.0,-3032.4,1151.1999999999998,-2617.1,1514.8,-3694.1,2025-01-29 10:39:01,1
-2670.0,-5376.4,471.1999999999998,-1954.1,2789.8,-4054.1,2025-01-29 10:39:01,1
-4370.0,-6964.4,-284.8000000000002,-890.1,3237.8,-3296.1,2025-01-29 10:39:01,1
-6198.0,-6360.4,-1196.8000000000002,539.9,1889.8,-672.1,2025-01-29 10:39:01,1
-5158.0,-4492.4,-2108.8,1494.9,264.8,1132.9,2025-01-29 10:39:01,1
-3770.0,-2544.4,-3416.8,1669.9,-2254.2,1293.9,2025-01-29 10:39:01,1
-3110.0,-788.4,-3700.8,1083.9,-4845.2,1737.9,2025-01-29 10:39:01,1
-1442.0,275.6,-3776.8,19.90000000000001,-6730.2,2717.9,2025-01-29 10:39:01,1
1042.0,819.6,-3224.8,-1071.1,-7312.2,3669.9,2025-01-29 10:39:01,1
3382.0,1523.6,-2296.8,-1609.1,-6819.2,4075.9,2025-01-29 10:39:01,1
5506.0,2211.6,-1408.8000000000002,-2132.1,-4844.2,3661.9,2025-01-29 10:39:02,1
6646.0,2459.6,-416.8000000000002,-2609.1,-1775.2,2356.9,2025-01-29 10:39:02,1
6238.0,1991.6,1027.1999999999998,-2347.1,2121.8,303.9,2025-01-29 10:39:02,1
3538.0,875.6,1043.1999999999998,-1894.1,4934.8,-750.1,2025-01-29 10:39:02,1
762.0,15.600000000000025,591.1999999999998,-1544.1,6566.8,-555.1,2025-01-29 10:39:02,1
-1170.0,-236.4,-296.8000000000002,-1470.1,7132.8,-107.1,2025-01-29 10:39:02,1
-3018.0,-276.4,-740.8000000000002,-1393.1,5783.8,417.9,2025-01-29 10:39:02,1
-4350.0,-512.4,-656.8000000000002,-1125.1,2750.8,1243.9,2025-01-29 10:39:02,1
-4102.0,-92.39999999999998,-120.80000000000018,-740.1,-1396.2,2644.9,2025-01-29 10:39:02,1
-1722.0,359.6,-356.8000000000002,-626.1,-4307.2,3297.9,2025-01-29 10:39:02,1
466.0,587.6,911.1999999999998,-525.1,-5184.2,3380.9,2025-01-29 10:39:02,1
2162.0,583.6,1979.2,-69.1,-4303.2,3040.9,2025-01-29 10:39:02,1
3234.0,883.6,2919.2,374.9,-2129.2,2565.9,2025-01-29 10:39:02,1
3506.0,915.6,2455.2,722.9,598.8,2078.9,2025-01-29 10:39:02,1
2138.0,1039.6,2203.2,1060.9,3156.8,1641.9,2025-01-29 10:39:02,1
542.0,1055.6,1543.1999999999998,1270.9,4002.8,1654.9,2025-01-29 10:39:02,1
-498.0,1347.6,987.1999999999998,1258.9,3443.8,1727.9,2025-01-29 10:39:02,1
-1142.0,1671.6,1051.1999999999998,1341.9,1739.8,1543.9,2025-01-29 10:39:02,1
-1354.0,1743.6,955.1999999999998,1475.9,-159.2,1321.9,2025-01-29 10:39:02,1
-378.0,1871.6,1291.1999999999998,1483.9,-1632.2,1008.9,2025-01-29 10:39:02,1
158.0,1543.6,2043.2,1485.9,-2119.2,527.9,2025-01-29 10:39:02,1
398.0,855.6,2511.2,1689.9,-1794.2,197.9,2025-01-29 10:39:02,1
462.0,551.6,2447.2,1902.9,-1013.2,30.90000000000001,2025-01-29 10:39:02,1
270.0,527.6,2331.2,2114.9,-28.19999999999999,-102.1,2025-01-29 10:39:02,1
-482.0,1115.6,1723.1999999999998,2244.9,557.8,-145.1,2025-01-29 10:39:02,1
-1242.0,1379.6,1619.1999999999998,2241.9,595.8,-232.1,2025-01-29 10:39:02,1
-1954.0,1499.6,1747.1999999999998,2334.9,-236.2,-99.1,2025-01-29 10:39:02,1
-1942.0,1275.6,2103.2,2632.9,-1850.2,-21.099999999999994,2025-01-29 10:39:02,1
-1138.0,999.6,2283.2,3095.9,-3046.2,-45.1,2025-01-29 10:39:02,1
-706.0,275.6,2227.2,3481.9,-2934.2,-27.099999999999994,2025-01-29 10:39:02,1
-322.0,471.6,2035.2,3593.9,-2069.2,119.9,2025-01-29 10:39:02,1
-250.0,739.6,1963.2,3351.9,-1217.2,430.9,2025-01-29 10:39:02,1
-406.0,859.6,2155.2,3085.9,-264.2,664.9,2025-01-29 10:39:02,1
-970.0,1019.6,1731.1999999999998,2854.9,700.8,953.9,2025-01-29 10:39:02,1
-1806.0,1131.6,2055.2,2724.9,1476.8,1075.9,2025-01-29 10:39:02,1
-3118.0,1327.6,2419.2,2761.9,1075.8,1254.9,2025-01-29 10:39:02,1
-3558.0,1267.6,2635.2,2950.9,-446.2,1343.9,2025-01-29 10:39:02,1
-3646.0,1203.6,2955.2,3312.9,-1493.2,1413.9,2025-01-29 10:39:02,1
-3094.0,-436.4,1759.1999999999998,3647.9,-1114.2,1608.9,2025-01-29 10:39:02,1
-2386.0,-992.4,1163.1999999999998,3850.9,190.8,1872.9,2025-01-29 10:39:02,1
-2094.0,-272.4,-404.8000000000002,3800.9,1670.8,2069.9,2025-01-29 10:39:02,1
-2278.0,851.6,-1596.8000000000002,3398.9,3028.8,2120.9,2025-01-29 10:39:02,1
-3070.0,1911.6,-2020.8,2493.9,3347.8,2107.9,2025-01-29 10:39:02,1
-2950.0,1935.6,-1688.8000000000002,1670.9,1828.8,1433.9,2025-01-29 10:39:02,1
-2766.0,1547.6,-1964.8,1308.9,9.800000000000011,669.9,2025-01-29 10:39:02,1
-2810.0,603.6,-1776.8000000000002,1106.9,-979.2,800.9,2025-01-29 10:39:02,1
-890.0,-84.39999999999998,-324.8000000000002,1144.9,-1427.2,936.9,2025-01-29 10:39:02,1
1082.0,-340.4,735.1999999999998,1541.9,-2067.2,395.9,2025-01-29 10:39:02,1
2102.0,-964.4,759.1999999999998,2112.9,-2062.2,83.9,2025-01-29 10:39:02,1
3074.0,-1940.4,623.1999999999998,2465.9,-1117.2,-288.1,2025-01-29 10:39:02,1
3350.0,-3000.4,567.1999999999998,3041.9,110.8,-661.1,2025-01-29 10:39:02,1
2346.0,-3360.4,-164.80000000000018,3456.9,1311.8,-586.1,2025-01-29 10:39:02,1
1422.0,-3248.4,-976.8000000000002,3475.9,2455.8,-12.099999999999994,2025-01-29 10:39:02,1
598.0,-2360.4,-672.8000000000002,3664.9,2415.8,560.9,2025-01-29 10:39:02,1
38.0,-1220.4,-764.8000000000002,3554.9,1999.8,816.9,2025-01-29 10:39:02,1
-426.0,-92.39999999999998,-1344.8000000000002,2989.9,1810.8,549.9,2025-01-29 10:39:02,1
-938.0,663.6,-1996.8,2239.9,1007.8,96.9,2025-01-29 10:39:02,1
-1170.0,419.6,-2296.8,1452.9,-922.2,-529.1,2025-01-29 10:39:02,1
-894.0,-692.4,-1872.8,556.9,-3651.2,-859.1,2025-01-29 10:39:02,1
-2.0,-1516.4,-388.8000000000002,70.9,-5392.2,-659.1,2025-01-29 10:39:02,1
2098.0,-2132.4,1303.1999999999998,13.900000000000006,-5111.2,-690.1,2025-01-29 10:39:03,1
3426.0,-2352.4,2259.2,133.9,-3106.2,-1037.1,2025-01-29 10:39:03,1
3870.0,-2576.4,2203.2,252.9,-107.2,-1378.1,2025-01-29 10:39:03,1
3306.0,-2656.4,1691.1999999999998,245.9,2875.8,-1717.1,2025-01-29 10:39:03,1
1478.0,-2672.4,835.1999999999998,1.9000000000000057,4888.8,-1861.1,2025-01-29 10:39:03,1
-678.0,-2064.4,383.1999999999998,-298.1,4990.8,-1699.1,2025-01-29 10:39:03,1
-2246.0,-1928.4,571.1999999999998,-505.1,3163.8,-1541.1,2025-01-29 10:39:03,1
-2634.0,-2224.4,1019.1999999999998,-451.1,367.8,-1244.1,2025-01-29 10:39:03,1
-1482.0,-2244.4,651.1999999999998,-430.1,-1363.2,-1004.1,2025-01-29 10:39:03,1
-74.0,-1820.4,511.1999999999998,-553.1,-1404.2,-1109.1,2025-01-29 10:39:03,1
566.0,-1460.4,359.1999999999998,-785.1,-659.2,-1080.1,2025-01-29 10:39:03,1
858.0,-1352.4,435.1999999999998,-1071.1,314.8,-963.1,2025-01-29 10:39:03,1
1062.0,-1604.4,455.1999999999998,-1352.1,1031.8,-903.1,2025-01-29 10:39:03,1
134.0,-1788.4,575.1999999999998,-1507.1,1327.8,-793.1,2025-01-29 10:39:03,1
-626.0,-2008.4,283.1999999999998,-1587.1,1117.8,-562.1,2025-01-29 10:39:03,1
-1046.0,-1796.4,-148.80000000000018,-1694.1,465.8,-252.1,2025-01-29 10:39:03,1
-1382.0,-1796.4,-56.80000000000018,-1900.1,-488.2,205.9,2025-01-29 10:39:03,1
-1342.0,-2336.4,663.1999999999998,-2100.1,-1502.2,790.9,2025-01-29 10:39:03,1
-494.0,-2164.4,1015.1999999999998,-2126.1,-2065.2,1451.9,2025-01-29 10:39:03,1
314.0,-2032.4,803.1999999999998,-1986.1,-1682.2,1516.9,2025-01-29 10:39:03,1
282.0,-1500.4,911.1999999999998,-1470.1,-332.2,1113.9,2025-01-29 10:39:03,1
-190.0,-688.4,623.1999999999998,-806.1,924.8,553.9,2025-01-29 10:39:03,1
-1038.0,43.60000000000002,491.1999999999998,-590.1,828.8,47.900000000000006,2025-01-29 10:39:03,1
-1414.0,-232.4,603.1999999999998,-932.1,-449.2,-160.1,2025-01-29 10:39:03,1
-1102.0,-1124.4,887.1999999999998,-1146.1,-1337.2,-147.1,2025-01-29 10:39:03,1
-582.0,-1472.4,1243.1999999999998,-1369.1,-1455.2,-192.1,2025-01-29 10:39:03,1
