acceleration_x,acceleration_y,acceleration_z,gyroscope_x,gyroscope_y,gyroscope_z,timestamp,label
-12292,-984,-5824,-85,318,-213,2025-01-29 10:47:00,0
-12216,-1008,-5940,-18,219,-206,2025-01-29 10:47:00,0
-12104,-1016,-5664,32,263,-169,2025-01-29 10:47:00,0
-11848,-1012,-5688,45,363,-208,2025-01-29 10:47:00,0
-11860,-1124,-5796,65,521,-208,2025-01-29 10:47:00,0
-12168,-1024,-5800,149,580,-200,2025-01-29 10:47:00,0
-12112,-816,-5932,160,509,-194,2025-01-29 10:47:00,0
-12172,-700,-5832,114,357,-216,2025-01-29 10:47:00,0
-12132,-808,-5860,156,209,-239,2025-01-29 10:47:01,0
-12076,-952,-5876,153,204,-190,2025-01-29 10:47:01,0
-12032,-1092,-5860,221,292,-148,2025-01-29 10:47:01,0
-12048,-1088,-5828,265,354,-74,2025-01-29 10:47:01,0
-12184,-960,-5940,294,299,-35,2025-01-29 10:47:01,0
-12252,-860,-6032,286,230,-4,2025-01-29 10:47:01,0
-12476,-600,-6020,258,-27,24,2025-01-29 10:47:01,0
-12260,-760,-6228,138,-235,58,2025-01-29 10:47:01,0
-12168,-808,-5952,194,-329,81,2025-01-29 10:47:01,0
-11860,-844,-5856,396,-165,83,2025-01-29 10:47:01,0
-11632,-728,-5468,502,275,-57,2025-01-29 10:47:01,0
-11864,-796,-5572,658,512,-101,2025-01-29 10:47:01,0
-12148,-1188,-5332,1035,737,-27,2025-01-29 10:47:01,0
-12552,-1360,-5180,1570,793,91,2025-01-29 10:47:01,0
-12592,-960,-5276,1889,407,164,2025-01-29 10:47:01,0
-12668,-976,-5136,2070,-147,151,2025-01-29 10:47:01,0
-12580,-952,-5120,2349,-493,110,2025-01-29 10:47:01,0
-12244,-800,-5188,2537,-554,39,2025-01-29 10:47:01,1
-12100,-668,-5308,2650,-402,24,2025-01-29 10:47:01,1
-12092,-532,-5516,2823,-171,11,2025-01-29 10:47:01,1
-12284,-552,-5808,2857,-270,-2,2025-01-29 10:47:01,1
-12236,-576,-5868,2529,-436,-118,2025-01-29 10:47:01,1
-12364,-628,-5516,2388,-813,-210,2025-01-29 10:47:01,1
-12144,-568,-5316,2422,-1052,-406,2025-01-29 10:47:01,1
-12032,-404,-5752,2253,-659,-561,2025-01-29 10:47:01,1
-11804,-564,-5608,1979,-222,-1015,2025-01-29 10:47:01,1
-12380,-732,-5688,1716,109,-1519,2025-01-29 10:47:01,1
-12732,-820,-5728,1617,24,-1771,2025-01-29 10:47:01,1
-12524,-800,-5564,1461,-392,-1911,2025-01-29 10:47:01,1
-12144,-904,-5692,1042,-735,-2040,2025-01-29 10:47:01,1
-11816,-1224,-5348,718,-809,-2022,2025-01-29 10:47:01,1
-11588,-1604,-5212,565,-483,-1846,2025-01-29 10:47:01,1
-11268,-1976,-4788,545,6,-1661,2025-01-29 10:47:01,1
-11156,-2688,-4824,599,576,-1637,2025-01-29 10:47:01,1
-11744,-3480,-4552,919,1411,-1839,2025-01-29 10:47:01,1
-15644,-5388,-4256,1394,1215,-1293,2025-01-29 10:47:01,1
-13572,-4744,-3552,2919,-420,-1420,2025-01-29 10:47:01,1
-13344,-3400,-5476,2574,-1135,-1833,2025-01-29 10:47:01,1
-12088,-2552,-4856,2194,-1070,-2530,2025-01-29 10:47:01,1
-12308,-2196,-4736,1839,-238,-3141,2025-01-29 10:47:01,1
-12900,-2076,-3764,1259,228,-2746,2025-01-29 10:47:01,1
-13136,-2556,-3828,916,-403,-1828,2025-01-29 10:47:01,1
-9676,-3624,-4028,332,-739,-2836,2025-01-29 10:47:01,1
-11988,-3932,-3816,902,522,-2302,2025-01-29 10:47:01,1
-12116,-3856,-4872,989,823,-2458,2025-01-29 10:47:01,1
-12528,-4152,-5536,937,670,-3347,2025-01-29 10:47:01,1
-12808,-3628,-3800,405,419,-2137,2025-01-29 10:47:01,1
-12588,-3760,-3752,987,454,-970,2025-01-29 10:47:01,1
-12124,-4036,-4040,884,646,-271,2025-01-29 10:47:01,1
-11564,-4436,-3856,874,897,-114,2025-01-29 10:47:01,1
-11720,-4328,-4028,779,777,-203,2025-01-29 10:47:01,1
-11692,-4116,-4236,668,607,-254,2025-01-29 10:47:01,1
-11724,-3628,-4312,384,836,83,2025-01-29 10:47:01,1
-10992,-3564,-4236,77,1388,-100,2025-01-29 10:47:01,1
-12540,-3272,-3992,152,1195,-178,2025-01-29 10:47:01,1
-12544,-3248,-3672,194,957,283,2025-01-29 10:47:01,1
-12280,-3428,-4352,-44,665,590,2025-01-29 10:47:01,1
-12140,-3472,-4504,-560,603,754,2025-01-29 10:47:01,1
-11900,-3024,-4192,-1175,669,679,2025-01-29 10:47:01,1
-12676,-3000,-3596,-1485,297,804,2025-01-29 10:47:01,1
-12548,-2828,-3472,-1949,-202,452,2025-01-29 10:47:01,1
-13260,-3376,-3552,-2461,-744,2,2025-01-29 10:47:01,1
-13648,-3472,-3836,-3356,-1680,-246,2025-01-29 10:47:01,1
-13848,-2988,-3492,-4051,-2588,-209,2025-01-29 10:47:01,1
-14004,-3004,-3200,-4078,-2938,230,2025-01-29 10:47:02,1
-14104,-3240,-3132,-4338,-2571,675,2025-01-29 10:47:02,1
-13428,-3596,-3760,-4590,-2750,563,2025-01-29 10:47:02,1
-12400,-3996,-3412,-4715,-3421,-215,2025-01-29 10:47:02,1
-12808,-4436,-4024,-4756,-3925,-903,2025-01-29 10:47:02,1
-15364,-4864,-4220,-4643,-3732,-1421,2025-01-29 10:47:02,1
-16724,-5344,-5228,-3873,-2024,-1230,2025-01-29 10:47:02,1
-16928,-5688,-4600,-2940,-1326,-633,2025-01-29 10:47:02,1
-16916,-5836,-4332,-2187,-2282,220,2025-01-29 10:47:02,1
-15600,-5284,-4164,-1222,-3295,965,2025-01-29 10:47:02,1
-14620,-5124,-3848,-134,-4252,1101,2025-01-29 10:47:02,1
-13036,-3712,-4272,231,-4665,1406,2025-01-29 10:47:02,1
-11712,-3224,-4584,642,-4166,1514,2025-01-29 10:47:02,1
-11040,-2632,-5300,1037,-3598,1545,2025-01-29 10:47:02,1
-10808,-1976,-5800,593,-3096,1179,2025-01-29 10:47:02,1
-10468,96,-5952,578,-2935,837,2025-01-29 10:47:02,1
-10504,328,-6680,227,-2493,237,2025-01-29 10:47:02,1
-11796,820,-6244,-84,-1799,-420,2025-01-29 10:47:02,1
-13644,1096,-5560,-423,-606,677,2025-01-29 10:47:02,1
-13140,608,-5340,-390,-11,1577,2025-01-29 10:47:02,1
-12312,-596,-5428,-495,80,1822,2025-01-29 10:47:02,1
-12392,-1160,-5908,-905,623,1961,2025-01-29 10:47:02,1
-12468,-1792,-4960,-1549,1023,2184,2025-01-29 10:47:02,1
-13396,-1696,-3588,-1246,692,2724,2025-01-29 10:47:02,1
-13668,-1164,-4012,-1412,-240,3332,2025-01-29 10:47:02,1
-13200,-1064,-3736,-1694,-1212,3504,2025-01-29 10:47:02,1
-12100,-660,-3284,-2037,-1502,3289,2025-01-29 10:47:02,1
-12236,-200,-2132,-2029,-615,3847,2025-01-29 10:47:02,1
-10704,-28,-2872,-1214,-511,3947,2025-01-29 10:47:02,1
-10004,-184,-2160,-508,5,3406,2025-01-29 10:47:02,1
-9984,-716,-1772,187,118,2421,2025-01-29 10:47:02,1
-10592,-884,-1880,678,-46,1415,2025-01-29 10:47:02,1
-11396,-468,-2484,603,620,707,2025-01-29 10:47:02,1
-11940,-76,-2244,695,1466,292,2025-01-29 10:47:02,1
-12228,244,-1972,1015,1952,139,2025-01-29 10:47:02,1
-12264,488,-1980,1149,1871,74,2025-01-29 10:47:02,1
-12588,352,-2004,951,1365,2,2025-01-29 10:47:02,1
-12932,336,-1652,1016,889,33,2025-01-29 10:47:02,1
-12684,500,-2060,1046,64,276,2025-01-29 10:47:02,1
-12788,580,-1764,1111,-257,297,2025-01-29 10:47:02,1
-12608,688,-1952,1197,-358,161,2025-01-29 10:47:02,1
-13456,232,-1368,1154,-483,136,2025-01-29 10:47:02,1
-13768,448,-1564,1340,-631,346,2025-01-29 10:47:02,1
-14148,468,-1380,1402,-1451,422,2025-01-29 10:47:02,1
-14760,980,-1556,1527,-2320,704,2025-01-29 10:47:02,1
-15068,1008,-2144,1916,-3042,1286,2025-01-29 10:47:02,1
-15324,908,-2476,1949,-3468,2304,2025-01-29 10:47:02,1
-14716,740,-1864,1655,-3450,3207,2025-01-29 10:47:02,1
-14100,796,-1284,1729,-3272,3551,2025-01-29 10:47:02,1
-13640,776,-376,1877,-3439,3391,2025-01-29 10:47:02,1
-14056,712,-480,2273,-3133,3520,2025-01-29 10:47:02,1
-14516,508,-1972,3024,-1706,3875,2025-01-29 10:47:02,1
-15012,1196,-2620,3419,-227,3603,2025-01-29 10:47:02,1
-14884,1824,-4572,3324,1743,2410,2025-01-29 10:47:02,1
-16060,2280,-5420,2947,1928,1604,2025-01-29 10:47:02,1
-16396,2220,-5420,2310,531,1295,2025-01-29 10:47:02,1
-15788,2144,-4928,1676,-877,612,2025-01-29 10:47:02,1
-14044,2024,-5324,857,-1734,-105,2025-01-29 10:47:02,1
-12208,1344,-5476,483,-1812,-1008,2025-01-29 10:47:02,1
-11640,988,-5628,402,-1276,-1922,2025-01-29 10:47:02,1
-10736,-472,-5780,-243,-360,-2363,2025-01-29 10:47:02,1
-10556,-1068,-5896,-864,862,-2858,2025-01-29 10:47:03,1
-11204,-1680,-4800,-1176,2354,-3126,2025-01-29 10:47:03,1
-12316,-2468,-3984,-1321,3193,-3139,2025-01-29 10:47:03,1
-12812,-2612,-3280,-1406,3182,-2961,2025-01-29 10:47:03,1
-13100,-2476,-3100,-1327,2727,-2887,2025-01-29 10:47:03,1
-13492,-2436,-3424,-1125,2080,-2876,2025-01-29 10:47:03,1
-13516,-2044,-3340,-1100,1774,-2870,2025-01-29 10:47:03,1
-12940,-2048,-3076,-969,1695,-2855,2025-01-29 10:47:03,1
-12788,-1756,-3508,-923,1651,-2959,2025-01-29 10:47:03,1
-12760,-1364,-3592,-1205,1265,-3120,2025-01-29 10:47:03,1
-12612,-1556,-852,-752,-72,-3149,2025-01-29 10:47:03,1
-12120,-1156,-2700,-769,-430,-2554,2025-01-29 10:47:03,1
-11660,-1436,-2752,-849,97,-2145,2025-01-29 10:47:03,1
-11712,-1888,-2924,-801,606,-1585,2025-01-29 10:47:03,1
-11296,-2216,-2736,-1077,648,-1516,2025-01-29 10:47:03,1
-10980,-2248,-3304,-1502,803,-1724,2025-01-29 10:47:03,1
-11256,-2092,-3420,-1675,1042,-1929,2025-01-29 10:47:03,1
-11324,-2088,-3296,-1896,1206,-1861,2025-01-29 10:47:03,1
-11476,-2020,-3352,-2205,1241,-1663,2025-01-29 10:47:03,1
-11684,-2132,-2988,-2372,1232,-1550,2025-01-29 10:47:03,1
-11720,-2240,-3064,-2394,1265,-1507,2025-01-29 10:47:03,1
-12576,-1948,-2792,-2196,1335,-1512,2025-01-29 10:47:03,1
-12928,-1936,-2624,-2180,1103,-1370,2025-01-29 10:47:03,1
-13452,-2248,-2284,-2202,695,-1092,2025-01-29 10:47:03,1
-13404,-2164,-2300,-2239,230,-517,2025-01-29 10:47:03,1
-13136,-2288,-2048,-2243,-56,-174,2025-01-29 10:47:03,1
-12720,-2308,-1152,-2090,-345,-43,2025-01-29 10:47:03,1
-12304,-2356,-1832,-2041,-522,-139,2025-01-29 10:47:03,1
-12156,-2116,-2988,-2580,-262,-451,2025-01-29 10:47:03,1
-12576,-2244,-2232,-2656,259,-727,2025-01-29 10:47:03,1
-13176,-2036,-2324,-2886,468,-910,2025-01-29 10:47:03,1
-13828,-1816,-2412,-3116,837,-1037,2025-01-29 10:47:03,1
-14024,-1552,-3428,-3344,833,-1308,2025-01-29 10:47:03,1
-14332,-1800,-3128,-3795,477,-1812,2025-01-29 10:47:03,1
-15184,-2304,-2616,-3985,39,-1943,2025-01-29 10:47:03,1
-15428,-2732,-1772,-4114,-514,-2009,2025-01-29 10:47:03,1
-15952,-2616,-1820,-4006,-876,-2324,2025-01-29 10:47:03,1
-16340,-2824,-1776,-3962,-1122,-2588,2025-01-29 10:47:03,1
-16544,-3768,-2772,-3926,-1199,-2972,2025-01-29 10:47:03,1
-17280,-3876,-4084,-3658,-1114,-2955,2025-01-29 10:47:03,1
-16996,-4188,-3556,-3095,-921,-2184,2025-01-29 10:47:03,1
-15864,-4288,-3568,-2458,-1051,-1258,2025-01-29 10:47:03,1
-14672,-3780,-2988,-1750,-1211,-653,2025-01-29 10:47:03,1
-14920,-3416,-3168,-875,-1420,-31,2025-01-29 10:47:03,1
-13524,-2616,-4484,-260,-2405,739,2025-01-29 10:47:03,1
-11032,-1732,-6232,-166,-3382,634,2025-01-29 10:47:03,1
-10372,-1272,-6876,-424,-3245,186,2025-01-29 10:47:03,1
-10360,-28,-7564,-991,-2630,-175,2025-01-29 10:47:03,1
-11380,372,-6996,-1369,-1042,-434,2025-01-29 10:47:03,1
-12720,996,-5304,-857,341,238,2025-01-29 10:47:03,1
-13548,572,-5136,-347,1079,1393,2025-01-29 10:47:03,1
-13188,-1060,-4200,-358,2018,2041,2025-01-29 10:47:03,1
-12696,-2420,-3016,187,1331,2482,2025-01-29 10:47:03,1
-12732,-2312,-3892,407,908,2871,2025-01-29 10:47:03,1
-13020,-1948,-4440,89,276,3124,2025-01-29 10:47:03,1
-13392,-1500,-3132,283,-871,3439,2025-01-29 10:47:03,1
-12392,-808,-2168,1048,-1933,3361,2025-01-29 10:47:03,1
-11936,-652,-2572,1693,-2414,3233,2025-01-29 10:47:03,1
-11160,388,-2916,2047,-2251,2917,2025-01-29 10:47:03,1
-10860,752,-2524,2501,-1185,2942,2025-01-29 10:47:03,1
-10736,800,-1992,2815,-202,2736,2025-01-29 10:47:04,1
-10784,468,-1808,3002,265,2592,2025-01-29 10:47:04,1
-11408,216,-2288,2946,373,2386,2025-01-29 10:47:04,1
-11992,276,-2304,2850,245,2185,2025-01-29 10:47:04,1
-12164,388,-2572,2762,316,1768,2025-01-29 10:47:04,1
-12136,156,-2636,2385,779,1154,2025-01-29 10:47:04,1
-12320,272,-1980,2332,997,694,2025-01-29 10:47:04,1
-12480,236,-1392,2370,1013,520,2025-01-29 10:47:04,1
-12548,-56,-1400,2432,632,472,2025-01-29 10:47:04,1
-12152,88,-1096,2532,400,298,2025-01-29 10:47:04,1
-11844,284,-852,2766,518,105,2025-01-29 10:47:04,1
-12088,8,-620,3119,897,-282,2025-01-29 10:47:04,1
-12424,352,-880,3455,1107,-650,2025-01-29 10:47:04,1
-13592,1000,-2104,3728,845,-547,2025-01-29 10:47:04,1
-13664,796,-2588,3607,1140,-378,2025-01-29 10:47:04,1
-14332,916,-1936,3703,810,-51,2025-01-29 10:47:04,1
-14520,812,-1924,3782,345,455,2025-01-29 10:47:04,1
-14508,652,-2556,3857,175,837,2025-01-29 10:47:04,1
-14192,688,-3200,3700,88,908,2025-01-29 10:47:04,1
-14672,828,-2424,3625,-112,926,2025-01-29 10:47:04,1
-15304,1232,-1444,3727,-314,879,2025-01-29 10:47:04,1
-15852,1060,-1120,3961,-376,902,2025-01-29 10:47:04,1
-16284,1016,-2064,4147,-487,1188,2025-01-29 10:47:04,1
-16332,1056,-3260,3798,-258,1471,2025-01-29 10:47:04,1
-11628,-2288,-3172,-2333,1574,-2672,2025-01-29 10:47:04,1
-11988,-2188,-2508,-1594,969,-2997,2025-01-29 10:47:04,1
-12188,-1984,-2320,-892,777,-3053,2025-01-29 10:47:04,1
-11996,-2120,-2664,-326,960,-2840,2025-01-29 10:47:04,1
-11908,-2180,-3076,46,1453,-2443,2025-01-29 10:47:04,1
-11184,-2128,-3292,-62,2231,-1958,2025-01-29 10:47:04,1
-11832,-1704,-2788,-253,2342,-1491,2025-01-29 10:47:04,1
-12276,-1616,-2076,-302,1637,-884,2025-01-29 10:47:04,1
-13108,-2288,-1796,-1015,1129,-367,2025-01-29 10:47:04,1
-13092,-2344,-2096,-906,786,-136,2025-01-29 10:47:04,1
-13144,-2208,-1580,-927,235,-65,2025-01-29 10:47:04,1
-12756,-2280,-2276,-1100,-241,-114,2025-01-29 10:47:04,1
-12120,-2244,-2632,-1570,-529,-516,2025-01-29 10:47:04,1
-12300,-1964,-2840,-2116,-312,-1251,2025-01-29 10:47:04,1
-13264,-1480,-2688,-2572,31,-1866,2025-01-29 10:47:04,1
-14704,-1564,-1684,-2717,98,-1883,2025-01-29 10:47:05,1
-15516,-2160,-1512,-2638,-61,-1137,2025-01-29 10:47:05,1
-14968,-2444,-1512,-2692,-471,-508,2025-01-29 10:47:05,1
-14496,-2616,-1620,-3117,-496,-626,2025-01-29 10:47:05,1
-14760,-2712,-908,-3198,-415,-804,2025-01-29 10:47:05,1
-15204,-2916,-600,-3194,-746,-843,2025-01-29 10:47:05,1
-16040,-3232,-1572,-2960,-1133,-531,2025-01-29 10:47:05,1
-16248,-3236,-2348,-2632,-626,-228,2025-01-29 10:47:05,1
-16404,-3452,-2792,-2302,-285,220,2025-01-29 10:47:05,1
-16060,-3816,-3768,-1936,-788,491,2025-01-29 10:47:05,1
-15380,-3052,-5124,-1731,-1266,578,2025-01-29 10:47:05,1
-14460,-1884,-5068,-1258,-1866,-398,2025-01-29 10:47:05,1
-15452,-2360,-4756,-966,-1461,-1057,2025-01-29 10:47:05,1
-14432,-900,-4064,-1099,-2325,-864,2025-01-29 10:47:05,1
-12676,444,-4324,-810,-3609,-798,2025-01-29 10:47:05,1
-10840,920,-6188,-1337,-1117,-195,2025-01-29 10:47:05,1
-11080,844,-5876,-1775,979,-115,2025-01-29 10:47:05,1
-12268,876,-4800,-1948,2995,394,2025-01-29 10:47:05,1
-13820,188,-3500,-1939,3698,1184,2025-01-29 10:47:05,1
-14732,-572,-2936,-1850,2875,1869,2025-01-29 10:47:05,1
-13228,-1304,-2936,-1288,252,3870,2025-01-29 10:47:05,1
-11364,-260,-2652,-859,-593,3325,2025-01-29 10:47:05,1
-10988,392,-1744,28,-1329,2545,2025-01-29 10:47:05,1
-11200,704,-2300,728,-1676,1820,2025-01-29 10:47:05,1
-11296,820,-2516,960,-1692,1300,2025-01-29 10:47:05,1
-10456,672,-2284,1060,-1577,608,2025-01-29 10:47:05,1
-9640,516,-2024,990,-751,-553,2025-01-29 10:47:05,1
-11284,792,-2304,976,489,-756,2025-01-29 10:47:05,1
-12260,1068,-3056,589,746,-713,2025-01-29 10:47:05,1
-12968,1336,-2540,156,1116,-496,2025-01-29 10:47:05,1
-13380,840,-1384,283,424,-205,2025-01-29 10:47:05,1
-12604,480,-2264,62,457,-310,2025-01-29 10:47:05,1
-13368,396,-1292,185,593,-265,2025-01-29 10:47:05,1
-13500,68,-1200,489,20,45,2025-01-29 10:47:05,1
-13056,-256,-1816,364,-105,-49,2025-01-29 10:47:05,1
-12916,-20,-1260,240,31,-104,2025-01-29 10:47:05,1
-13556,548,-948,414,-90,187,2025-01-29 10:47:05,1
-14376,1052,-700,688,-659,565,2025-01-29 10:47:05,1
-13984,-2000,-2556,-1494,2630,-1582,2025-01-29 10:47:06,1
-14832,-1836,-2820,-450,1162,-1774,2025-01-29 10:47:06,1
-14664,-1708,-2744,332,-272,-1620,2025-01-29 10:47:06,1
-13732,-2648,-3176,822,-1105,-1808,2025-01-29 10:47:06,1
-12648,-3084,-3732,822,-1419,-2120,2025-01-29 10:47:06,1
-12404,-3252,-3684,762,-2162,-2116,2025-01-29 10:47:06,1
-12176,-3136,-3840,731,-2772,-1858,2025-01-29 10:47:06,1
-11924,-3028,-3708,948,-3001,-1331,2025-01-29 10:47:06,1
-13488,-692,-3796,-1447,1639,1956,2025-01-29 10:47:06,1
-14352,260,-3556,-1296,1943,1715,2025-01-29 10:47:06,1
-14960,416,-3124,-995,1759,1417,2025-01-29 10:47:06,1
-15276,-76,-3176,-720,743,1080,2025-01-29 10:47:06,1
-14092,-544,-3040,-740,-646,871,2025-01-29 10:47:06,1
-12852,-544,-3704,-846,-1137,690,2025-01-29 10:47:06,1
-11668,-272,-3872,-1088,-953,453,2025-01-29 10:47:06,1
-11080,-72,-3844,-1290,126,368,2025-01-29 10:47:06,1
-11340,296,-3232,-1252,1434,438,2025-01-29 10:47:06,1
-12280,736,-2640,-1027,2114,485,2025-01-29 10:47:06,1
-13032,1152,-2152,-619,1571,627,2025-01-29 10:47:06,1
-12552,1176,-2608,-455,842,346,2025-01-29 10:47:06,1
-12852,916,-2848,-481,851,20,2025-01-29 10:47:06,1
-12916,392,-3264,-576,1117,-313,2025-01-29 10:47:06,1
-13496,316,-3260,-703,1532,-472,2025-01-29 10:47:06,1
-14100,300,-2552,-600,1071,-218,2025-01-29 10:47:06,1
-13896,176,-2920,-436,31,-86,2025-01-29 10:47:06,1
-13780,-76,-3084,-504,-696,-212,2025-01-29 10:47:06,1
-13636,-88,-3084,-505,-661,-313,2025-01-29 10:47:06,1
-13320,-212,-2800,-443,-571,-447,2025-01-29 10:47:06,4
-13396,-80,-2816,-461,-32,-511,2025-01-29 10:47:06,4
-13644,160,-2672,-400,388,-552,2025-01-29 10:47:07,4
-14576,-436,-844,303,-356,947,2025-01-29 10:47:07,4
-20176,-468,-5124,-990,-4225,902,2025-01-29 10:47:07,4
-23488,-624,-4344,-1486,-6574,1656,2025-01-29 10:47:07,4
-25096,3648,-9892,-1426,-10643,517,2025-01-29 10:47:08,4
-10712,2192,-8684,1132,-11114,-1785,2025-01-29 10:47:08,4
-10424,752,-11020,2338,1107,47,2025-01-29 10:47:08,4
-4492,1308,-13600,2284,7915,5227,2025-01-29 10:47:08,4
4384,-592,-16184,2418,8170,7156,2025-01-29 10:47:08,4
13440,-552,-16536,-934,4271,4962,2025-01-29 10:47:08,4
16496,388,-11052,-3375,1310,1562,2025-01-29 10:47:08,4
12708,-1300,-7184,-4915,3258,-1130,2025-01-29 10:47:08,4
5672,-2516,-2152,-6960,5702,-2919,2025-01-29 10:47:08,4
-5300,-216,16492,-6885,9478,-4542,2025-01-29 10:47:08,4
-10172,-1208,13416,-1734,-6861,-2271,2025-01-29 10:47:08,4
-5520,-5104,9464,-2033,-9251,-1694,2025-01-29 10:47:08,4
1556,-4960,6504,-1951,-9094,-787,2025-01-29 10:47:08,4
5052,-2388,3436,-1514,-8648,-289,2025-01-29 10:47:08,4
4020,-60,28,1726,-4328,-174,2025-01-29 10:47:08,4
2308,-588,1044,1396,-4552,-173,2025-01-29 10:47:08,4
2280,-872,1192,784,-2968,-727,2025-01-29 10:47:08,4
2252,48,2108,284,-1183,-1294,2025-01-29 10:47:08,4
2708,712,2260,211,-1121,-1487,2025-01-29 10:47:08,4
2980,44,1268,191,-2059,-1545,2025-01-29 10:47:08,4
2848,40,1152,323,-2039,-1300,2025-01-29 10:47:08,4
2288,156,564,709,-2128,-1304,2025-01-29 10:47:08,4
808,272,-1156,705,-1449,-984,2025-01-29 10:47:08,4
-212,-20,-2056,72,-1283,-162,2025-01-29 10:47:08,4
-1156,-128,-2816,-832,-379,818,2025-01-29 10:47:08,4
-3584,-904,-1752,-1808,-871,997,2025-01-29 10:47:08,4
-8532,400,-196,-2804,-2126,1579,2025-01-29 10:47:08,4
-12312,3104,2128,-2076,-2956,2904,2025-01-29 10:47:08,4
-21016,4780,-13560,-1873,-7694,4151,2025-01-29 10:47:08,4
-25080,-3120,-92,-1102,-2167,1696,2025-01-29 10:47:08,4
-32768,-5064,-1560,-1899,5826,-340,2025-01-29 10:47:08,4
-32768,-3644,-6656,-3470,10798,-1272,2025-01-29 10:47:08,4
-13432,24,-3888,3949,6977,134,2025-01-29 10:47:08,4
-13840,-1068,-3020,4595,5682,990,2025-01-29 10:47:08,4
-13688,-1864,-1256,4564,4043,2008,2025-01-29 10:47:08,4
-9944,-588,1660,5536,3341,2676,2025-01-29 10:47:08,4
-6828,396,2992,6278,1879,2783,2025-01-29 10:47:08,4
-4468,260,2072,6488,-317,2553,2025-01-29 10:47:08,4
-3424,-960,92,5093,-2665,1510,2025-01-29 10:47:08,4
-3292,-1124,-1984,3253,-3599,118,2025-01-29 10:47:09,4
-5228,296,-2792,1779,-3904,-470,2025-01-29 10:47:09,4
-4844,-208,-3472,513,-2337,-1043,2025-01-29 10:47:09,4
-6424,908,284,347,-2078,-1028,2025-01-29 10:47:09,4
-9696,-60,-200,1149,-503,119,2025-01-29 10:47:09,4
-14796,-404,-1876,2016,5845,1142,2025-01-29 10:47:09,4
-15244,-84,-3416,2212,4477,1484,2025-01-29 10:47:09,4
-17176,-32,-3020,3131,3720,1248,2025-01-29 10:47:09,4
-20212,-1088,-3032,3676,4863,613,2025-01-29 10:47:09,4
-22004,-2216,-3784,2621,5762,-256,2025-01-29 10:47:09,4
-19904,-880,-212,1200,-69,-195,2025-01-29 10:47:09,4
-16168,-520,-100,644,-5278,684,2025-01-29 10:47:09,4
-12060,-156,-272,53,-4558,955,2025-01-29 10:47:09,4
-8716,336,76,-354,-3679,1107,2025-01-29 10:47:09,4
-7092,192,184,-550,-2145,812,2025-01-29 10:47:09,4
-7984,-372,256,-428,378,102,2025-01-29 10:47:09,4
-10568,-436,464,-225,3807,-523,2025-01-29 10:47:09,4
-12944,-788,432,-1,4250,-985,2025-01-29 10:47:09,4
-14736,-1104,-1672,10,1565,-900,2025-01-29 10:47:09,4
-16832,-1044,-2404,-357,1553,-696,2025-01-29 10:47:09,4
-17276,-1016,-2324,-831,846,-521,2025-01-29 10:47:09,4
-16728,-468,-2156,-1103,-868,-483,2025-01-29 10:47:09,4
-14748,-148,-1612,-1282,-2468,-503,2025-01-29 10:47:09,4
-13164,-432,-1292,-1403,-2058,-631,2025-01-29 10:47:09,4
-11700,-520,-1316,-1604,-932,-939,2025-01-29 10:47:09,4
-11840,-788,-348,-1499,-81,-825,2025-01-29 10:47:09,4
-12932,-968,-68,-1246,1576,-459,2025-01-29 10:47:09,4
-13712,-1116,304,-791,1408,30,2025-01-29 10:47:09,4
-13948,-1320,-696,-549,881,148,2025-01-29 10:47:09,4
-14084,-1092,-1112,-346,302,133,2025-01-29 10:47:09,4
-14232,-876,-956,-292,-302,-102,2025-01-29 10:47:09,4
-14128,-732,-1036,-260,-833,-224,2025-01-29 10:47:09,4
-13472,-580,-1284,-307,-888,-323,2025-01-29 10:47:09,4
-13404,-664,-1392,-530,-663,-370,2025-01-29 10:47:09,0
-13388,-664,-1436,-734,-248,-343,2025-01-29 10:47:09,0
-13520,-640,-1240,-765,97,-145,2025-01-29 10:47:09,0
-13680,-932,-1064,-689,234,42,2025-01-29 10:47:09,0
-13668,-1080,-724,-582,139,-17,2025-01-29 10:47:09,0
-13672,-1028,-992,-496,-122,-177,2025-01-29 10:47:09,0
-13768,-1024,-1216,-421,-217,-255,2025-01-29 10:47:09,0
-13320,-912,-1076,-393,-264,-279,2025-01-29 10:47:09,0
-13420,-692,-932,-345,0,-273,2025-01-29 10:47:09,0
-13348,-768,-924,-297,279,-168,2025-01-29 10:47:09,0
-13440,-892,-1260,-289,444,-214,2025-01-29 10:47:09,0
-13644,-932,-1160,-280,485,-373,2025-01-29 10:47:09,0
-13860,-872,-812,-180,295,-369,2025-01-29 10:47:09,0
-13956,-892,-708,-53,38,-315,2025-01-29 10:47:09,0
-13920,-968,-920,56,-230,-274,2025-01-29 10:47:09,0
-13612,-928,-1140,65,0,-217,2025-01-29 10:47:09,0
-13500,-656,-972,55,334,-127,2025-01-29 10:47:09,0
-13632,-580,-1112,89,515,95,2025-01-29 10:47:09,0
-13468,-476,-1116,61,539,169,2025-01-29 10:47:09,0
-13260,-568,-1280,-97,441,-64,2025-01-29 10:47:09,0
-13436,-464,-1080,-282,122,-301,2025-01-29 10:47:09,0
-13388,-516,-1180,-417,-60,-510,2025-01-29 10:47:09,0
-13308,-588,-1452,-511,-122,-604,2025-01-29 10:47:09,0
-13380,-624,-1396,-504,45,-506,2025-01-29 10:47:09,0
-13748,-716,-1068,-460,215,-282,2025-01-29 10:47:09,0
-13748,-872,-924,-308,441,-29,2025-01-29 10:47:09,0
-13836,-812,-904,-180,699,109,2025-01-29 10:47:09,0
-13992,-840,-744,-71,691,124,2025-01-29 10:47:09,0
-13584,-856,-956,-62,257,-79,2025-01-29 10:47:09,0
-13704,-848,-780,-164,44,-241,2025-01-29 10:47:10,0
-13472,-604,-1112,-129,97,-272,2025-01-29 10:47:10,0
-13632,-492,-1016,-129,262,-147,2025-01-29 10:47:10,0
-13700,-512,-996,-137,339,-67,2025-01-29 10:47:10,0
-13724,-556,-908,-154,194,24,2025-01-29 10:47:10,0
-13680,-616,-976,-213,250,-27,2025-01-29 10:47:10,0
-13592,-644,-1072,-282,157,-133,2025-01-29 10:47:10,0
-13656,-624,-1064,-295,45,-207,2025-01-29 10:47:10,0
-13776,-592,-1196,-335,-7,-265,2025-01-29 10:47:10,0
-13976,-512,-1184,-441,-179,-182,2025-01-29 10:47:10,0
-13740,-412,-1264,-583,-278,-77,2025-01-29 10:47:10,0
-13808,92,-1380,-687,-187,30,2025-01-29 10:47:10,0
-13484,172,-1744,-848,-101,38,2025-01-29 10:47:10,7
-13284,480,-2088,-971,117,-222,2025-01-29 10:47:10,7
-13556,388,-2408,-1245,354,-509,2025-01-29 10:47:10,7
-13200,468,-2564,-1609,-271,-638,2025-01-29 10:47:10,7
-13696,484,-2064,-1905,112,-646,2025-01-29 10:47:10,7
-13804,972,-1468,-2072,229,-371,2025-01-29 10:47:10,7
-13700,592,-2064,-2481,451,-772,2025-01-29 10:47:10,7
-13688,832,-976,-2590,212,-260,2025-01-29 10:47:10,7
-12896,1084,-1504,-2818,219,-153,2025-01-29 10:47:10,7
-12896,1292,-1196,-3236,398,-788,2025-01-29 10:47:10,7
-13152,1160,-960,-3562,254,-1264,2025-01-29 10:47:10,7
-13096,1140,-884,-3774,154,-1587,2025-01-29 10:47:10,7
-12976,956,-756,-4012,379,-1856,2025-01-29 10:47:10,7
-13224,796,-1096,-4146,708,-1988,2025-01-29 10:47:10,7
-13584,776,-1320,-4302,1113,-1931,2025-01-29 10:47:10,7
-14760,864,-1208,-4402,1117,-1670,2025-01-29 10:47:10,7
-15396,864,-816,-4214,113,-1171,2025-01-29 10:47:10,7
-14428,452,-1716,-4661,-465,-979,2025-01-29 10:47:10,7
-14064,316,-1220,-5178,-578,-1400,2025-01-29 10:47:10,7
-14292,380,-1512,-5323,-1093,-1236,2025-01-29 10:47:10,7
-13872,388,-1976,-5700,-574,-1654,2025-01-29 10:47:10,7
-13780,408,-1508,-5778,-397,-1889,2025-01-29 10:47:10,7
-13112,272,-1476,-5770,-456,-2088,2025-01-29 10:47:10,7
-13140,248,-2520,-6089,-340,-2300,2025-01-29 10:47:10,7
-13408,-728,-2064,-6644,56,-2363,2025-01-29 10:47:10,7
-13392,-1592,-1820,-7498,286,-2768,2025-01-29 10:47:10,7
-14244,-1892,-992,-7804,14,-2691,2025-01-29 10:47:10,7
-13276,-2652,-976,-8011,-117,-2357,2025-01-29 10:47:10,7
-13036,-2764,-696,-8174,-543,-2128,2025-01-29 10:47:10,7
-13364,-1972,-476,-8116,32,-1694,2025-01-29 10:47:10,7
-13644,-1996,-616,-7775,1331,-1367,2025-01-29 10:47:10,7
-13704,-2264,-628,-7296,1676,-1161,2025-01-29 10:47:10,7
-14284,-2680,-1284,-7273,1432,-847,2025-01-29 10:47:10,7
-14436,-2752,-1032,-7418,1413,-910,2025-01-29 10:47:10,7
-13488,-2032,-1264,-9852,-3013,-4446,2025-01-29 10:47:10,7
-12916,-2360,-2076,-10125,-2803,-3755,2025-01-29 10:47:10,7
-12340,-2228,-1360,-10332,-2623,-3226,2025-01-29 10:47:10,7
-12540,-2480,-1316,-10594,-989,-2178,2025-01-29 10:47:10,7
-12976,-2352,-1572,-10833,-320,-1412,2025-01-29 10:47:10,7
-13272,-2804,-1468,-11008,396,-807,2025-01-29 10:47:10,7
-13484,-2756,-1304,-11194,1168,-364,2025-01-29 10:47:10,7
-13696,-2848,-644,-11137,1738,-226,2025-01-29 10:47:10,7
-14052,-2808,-652,-11154,1482,-262,2025-01-29 10:47:10,7
-14136,-2844,-928,-11312,868,-567,2025-01-29 10:47:10,7
-13912,-2532,-1304,-11434,38,-1052,2025-01-29 10:47:11,7
-13792,-2404,-1572,-11838,-555,-1704,2025-01-29 10:47:11,7
-13932,-2192,-1164,-12053,-894,-2229,2025-01-29 10:47:11,7
-13524,-1856,-796,-12028,-1822,-2642,2025-01-29 10:47:11,7
-14192,-2300,-1068,-12583,-2296,-3044,2025-01-29 10:47:11,7
-14128,-2432,-1756,-12841,-1927,-2803,2025-01-29 10:47:11,7
-13420,-2228,-996,-13082,-1454,-2911,2025-01-29 10:47:11,7
-14276,-2312,-920,-13370,-1676,-2478,2025-01-29 10:47:11,7
-14880,-2232,-1132,-13478,-1581,-1570,2025-01-29 10:47:11,7
-14132,-2348,-2052,-13704,-1451,-790,2025-01-29 10:47:11,7
-13428,-2664,-2064,-14179,-1522,-970,2025-01-29 10:47:11,7
-13340,-2856,-2284,-14364,-1915,-1176,2025-01-29 10:47:11,7
-13264,-2608,-3416,-14374,-2322,-1060,2025-01-29 10:47:11,7
-13104,-2368,-4156,-14410,-1551,-667,2025-01-29 10:47:11,7
-13060,-2620,-4452,-14545,239,-345,2025-01-29 10:47:11,7
-13412,-2108,-4972,-14916,1776,193,2025-01-29 10:47:11,7
-13452,-1564,-3652,-15005,3741,561,2025-01-29 10:47:11,7
-12140,12,-2424,-14344,3800,-76,2025-01-29 10:47:11,7
-11900,1396,-2152,-13499,2680,-871,2025-01-29 10:47:11,7
-12024,1916,-2632,-13125,2543,-1146,2025-01-29 10:47:11,7
-12012,1332,-3256,-13007,2831,-1545,2025-01-29 10:47:11,7
-12520,564,-3756,-13646,3085,-1835,2025-01-29 10:47:11,7
-12620,12,-4172,-14709,3038,-2407,2025-01-29 10:47:11,7
-13380,-256,-4348,-15951,1903,-2904,2025-01-29 10:47:11,7
-14364,-408,-3944,-16730,210,-2626,2025-01-29 10:47:11,7
-14912,84,-3800,-17352,-486,-1924,2025-01-29 10:47:11,7
-14660,-104,-3184,-17779,-395,-1197,2025-01-29 10:47:11,7
-14080,-104,-2540,-17595,52,-987,2025-01-29 10:47:11,7
-13564,-508,-2276,-17197,-57,-1140,2025-01-29 10:47:11,7
-13316,-848,-2220,-17132,-34,-1281,2025-01-29 10:47:11,7
-13204,-1060,-1184,-16635,739,-1689,2025-01-29 10:47:11,7
-13672,-700,-372,-15814,1591,-1992,2025-01-29 10:47:11,7
-14528,-696,284,-14800,2657,-1927,2025-01-29 10:47:11,7
-14504,-184,-16,-13965,2238,-1734,2025-01-29 10:47:11,7
-13428,964,-464,-13321,598,-2053,2025-01-29 10:47:11,7
-13524,1544,-796,-12932,-22,-2342,2025-01-29 10:47:11,7
-13132,1188,-1020,-12819,-479,-2748,2025-01-29 10:47:11,7
-13216,932,-1204,-12989,-679,-3167,2025-01-29 10:47:11,7
-13236,944,-1320,-13295,-763,-3552,2025-01-29 10:47:11,7
-13540,800,-1564,-13784,-1030,-3559,2025-01-29 10:47:11,7
-13340,968,-1400,-14045,-1075,-3410,2025-01-29 10:47:11,7
-12652,1280,-1256,-14140,-856,-3251,2025-01-29 10:47:11,7
-12212,1476,-1464,-14079,-281,-3200,2025-01-29 10:47:11,7
-12456,1368,-1716,-14076,609,-3089,2025-01-29 10:47:11,7
-12864,1184,-2136,-14146,1297,-3179,2025-01-29 10:47:11,7
-13456,1268,-1724,-14181,1272,-3346,2025-01-29 10:47:11,7
-13800,1152,-1400,-14095,828,-3419,2025-01-29 10:47:11,7
-13540,1200,-1724,-13925,224,-3575,2025-01-29 10:47:11,7
-13284,1196,-2288,-13934,-211,-3863,2025-01-29 10:47:11,7
-13016,964,-2196,-13989,-287,-4164,2025-01-29 10:47:11,7
-13068,600,-2412,-14027,-226,-4282,2025-01-29 10:47:11,7
-13236,380,-2416,-14104,-33,-4170,2025-01-29 10:47:11,7
-13472,96,-2444,-14100,358,-4018,2025-01-29 10:47:11,7
-13860,252,-2008,-13901,310,-3678,2025-01-29 10:47:11,7
-13944,352,-1736,-13508,106,-3414,2025-01-29 10:47:11,7
-13660,384,-1412,-13022,-42,-3152,2025-01-29 10:47:11,7
-13224,316,-1388,-12471,291,-2993,2025-01-29 10:47:11,7
-13084,348,-1492,-12124,480,-3039,2025-01-29 10:47:11,7
-13108,608,-1516,-11878,236,-3062,2025-01-29 10:47:11,7
-13352,568,-1440,-11704,-100,-3068,2025-01-29 10:47:11,7
-13176,580,-1448,-11670,-266,-3153,2025-01-29 10:47:11,7
-13248,396,-1860,-11824,-453,-3546,2025-01-29 10:47:12,7
-13684,-256,-1392,-11813,-662,-3448,2025-01-29 10:47:12,7
-13392,-768,-1684,-11540,-328,-3158,2025-01-29 10:47:12,7
-13316,-1772,-1636,-11570,-177,-3031,2025-01-29 10:47:12,7
-13276,-1992,-1060,-11694,-133,-2852,2025-01-29 10:47:12,7
-13448,-1908,-880,-11426,70,-2444,2025-01-29 10:47:12,7
-14032,-1580,-688,-10895,306,-1808,2025-01-29 10:47:12,7
-14368,-1440,52,-10026,568,-1156,2025-01-29 10:47:12,7
-14112,-412,216,-8862,649,-819,2025-01-29 10:47:12,7
-13544,1064,-52,-7399,194,-1056,2025-01-29 10:47:12,7
-13320,1392,-988,-6446,-169,-1325,2025-01-29 10:47:12,7
-13604,1104,-1156,-5540,-216,-1573,2025-01-29 10:47:12,7
-13632,1156,-1300,-4998,-239,-2054,2025-01-29 10:47:12,7
-13628,1288,-1532,-4786,-368,-2300,2025-01-29 10:47:12,7
-13944,840,-1992,-4640,620,-2336,2025-01-29 10:47:12,7
-13520,4,-3532,-5313,1689,-2256,2025-01-29 10:47:12,7
-13236,-620,-3952,-6462,1753,-2339,2025-01-29 10:47:12,7
-12964,-1020,-3524,-7167,2268,-2460,2025-01-29 10:47:12,7
-13368,-712,-2884,-7128,3398,-2466,2025-01-29 10:47:12,7
-13452,-888,-2352,-6951,4311,-1961,2025-01-29 10:47:12,7
-12900,-1004,-1480,-6473,4250,-1781,2025-01-29 10:47:12,7
-13500,-1776,-3028,-5779,4104,-1828,2025-01-29 10:47:12,7
-12592,-2148,-1752,-5229,3798,-2111,2025-01-29 10:47:12,7
-11532,-2792,-2580,-4533,3834,-2946,2025-01-29 10:47:12,7
-11376,-2840,-3100,-4698,4347,-3758,2025-01-29 10:47:12,7
-12192,-2488,-2720,-4658,5419,-3933,2025-01-29 10:47:12,7
-12868,-2400,-3192,-4526,6240,-3770,2025-01-29 10:47:12,7
-13928,-2452,-3052,-4499,6316,-3503,2025-01-29 10:47:12,7
-13700,-3284,-2736,-4285,5798,-2861,2025-01-29 10:47:12,7
-13732,-2876,-2032,-3432,4670,-2498,2025-01-29 10:47:12,7
-13096,-2764,-3096,-2999,4302,-2166,2025-01-29 10:47:12,7
-12992,-2780,-2852,-2546,4829,-1631,2025-01-29 10:47:12,7
-11404,-3280,-1924,-1407,5398,-2340,2025-01-29 10:47:12,7
-11376,-2680,-2780,-747,6306,-3012,2025-01-29 10:47:12,7
-11256,-2652,-4424,-230,7583,-3375,2025-01-29 10:47:12,1
-12536,-2592,-3960,-726,8087,-3667,2025-01-29 10:47:12,1
-12856,-2596,-4504,-537,8176,-3677,2025-01-29 10:47:12,1
-13844,-2416,-4356,-942,6966,-3648,2025-01-29 10:47:12,1
-13888,-2420,-3952,-1115,4528,-3544,2025-01-29 10:47:12,1
-14492,-2324,-3564,-1284,1612,-3356,2025-01-29 10:47:12,1
-14532,-2252,-3736,-1256,-457,-2651,2025-01-29 10:47:12,1
-14196,-2092,-4088,-1421,-999,-1752,2025-01-29 10:47:12,1
-12572,-1836,-3992,-1670,-1361,-1157,2025-01-29 10:47:12,1
-10376,-2048,-3704,-1963,-1312,-1529,2025-01-29 10:47:12,1
-9868,-2512,-3676,-2175,-110,-2432,2025-01-29 10:47:12,1
-10912,-2644,-3588,-2330,1700,-2272,2025-01-29 10:47:12,1
-12260,-2656,-3228,-2356,3241,-1523,2025-01-29 10:47:12,1
-12704,-2828,-3092,-2321,3574,-873,2025-01-29 10:47:12,1
-13320,-2904,-3164,-2173,3023,-1012,2025-01-29 10:47:12,1
-13892,-3016,-3172,-2113,2114,-1115,2025-01-29 10:47:12,1
-14084,-2800,-3816,-2007,1013,-817,2025-01-29 10:47:12,1
-13388,-2360,-3688,-1974,-111,-549,2025-01-29 10:47:12,1
-12552,-1980,-4216,-2104,-562,-646,2025-01-29 10:47:12,1
-11744,-1948,-4996,-2415,-660,-938,2025-01-29 10:47:12,1
-11716,-2172,-4952,-2795,114,-1150,2025-01-29 10:47:12,1
-11744,-2340,-4728,-3149,988,-1355,2025-01-29 10:47:12,1
-12156,-2224,-4288,-3407,1352,-1628,2025-01-29 10:47:12,1
-12652,-2448,-4564,-3596,1494,-2162,2025-01-29 10:47:12,1
-13556,-2512,-4420,-3807,1306,-2498,2025-01-29 10:47:12,1
-13968,-2856,-4344,-4109,572,-2478,2025-01-29 10:47:12,1
-14052,-3236,-4368,-4332,-18,-2324,2025-01-29 10:47:12,1
-14056,-3648,-4136,-4625,-125,-1918,2025-01-29 10:47:12,1
-13932,-3776,-3908,-4891,202,-1461,2025-01-29 10:47:13,1
-13196,-4020,-3864,-4971,658,-1427,2025-01-29 10:47:13,1
-13088,-4412,-4756,-4769,1334,-1979,2025-01-29 10:47:13,1
-13720,-4912,-5344,-4133,2357,-2857,2025-01-29 10:47:13,1
-15088,-5236,-5644,-2696,2640,-3690,2025-01-29 10:47:13,1
-16816,-5200,-5716,-1508,1644,-3415,2025-01-29 10:47:13,1
-17612,-4824,-5500,-802,-739,-2077,2025-01-29 10:47:13,1
-17680,-4152,-5680,-855,-3055,-224,2025-01-29 10:47:13,1
-15384,-2556,-6236,-1324,-4480,1995,2025-01-29 10:47:13,1
-11816,-1896,-7516,-2111,-4666,2824,2025-01-29 10:47:13,1
-9868,-1876,-8664,-2729,-3391,2635,2025-01-29 10:47:13,1
-8996,-1924,-8644,-2842,-1742,2297,2025-01-29 10:47:13,1
-8604,-1916,-7656,-2251,-140,1787,2025-01-29 10:47:13,1
-9580,-1180,-6936,-1523,1215,1463,2025-01-29 10:47:13,1
-10736,132,-6652,-1084,2046,1677,2025-01-29 10:47:13,1
-11740,1688,-6892,-1193,1989,2170,2025-01-29 10:47:13,1
-12080,2216,-7512,-1924,1305,2343,2025-01-29 10:47:13,1
-12340,1380,-7492,-2662,791,2217,2025-01-29 10:47:13,1
-12760,324,-7268,-2941,548,2322,2025-01-29 10:47:13,1
-12700,-44,-6940,-2893,152,2705,2025-01-29 10:47:13,1
-12068,-548,-6264,-2747,-475,2973,2025-01-29 10:47:13,1
-10892,-1464,-4996,-1939,-1289,3103,2025-01-29 10:47:13,1
-10096,-1964,-4252,-808,-1565,2875,2025-01-29 10:47:13,1
-9688,-1820,-4032,298,-1081,2605,2025-01-29 10:47:13,1
-10272,-1248,-4432,1181,-145,3116,2025-01-29 10:47:13,1
-10304,-504,-4832,1802,649,4055,2025-01-29 10:47:13,1
-10016,328,-5452,2213,1701,4647,2025-01-29 10:47:13,1
-10128,1304,-5612,2365,3099,4682,2025-01-29 10:47:13,1
-10680,1604,-5948,2350,3691,4494,2025-01-29 10:47:13,1
-11364,1432,-6224,2357,3038,4134,2025-01-29 10:47:13,1
-12112,1224,-6308,2239,1818,3936,2025-01-29 10:47:13,1
-12276,1228,-5704,2228,618,3691,2025-01-29 10:47:13,1
-12048,1348,-5436,2348,-392,3323,2025-01-29 10:47:13,1
-11620,1728,-5444,2262,-977,2957,2025-01-29 10:47:13,1
-11004,2088,-5376,2150,-1168,2542,2025-01-29 10:47:13,1
-10544,1892,-5348,1888,-874,2086,2025-01-29 10:47:13,1
-10264,1704,-5204,1690,-463,1606,2025-01-29 10:47:13,1
-10128,1428,-5032,1670,-187,993,2025-01-29 10:47:13,1
-10364,1488,-5184,1664,41,383,2025-01-29 10:47:13,1
-10996,2132,-4820,1665,253,-6,2025-01-29 10:47:13,1
-11276,2392,-5148,1439,-119,-334,2025-01-29 10:47:13,1
-11628,2208,-5116,939,-884,-393,2025-01-29 10:47:13,1
-11908,2024,-5036,473,-1335,-135,2025-01-29 10:47:13,1
-11848,2056,-4772,174,-971,69,2025-01-29 10:47:13,1
-11900,1880,-4784,100,70,-351,2025-01-29 10:47:13,1
-12644,1556,-5424,2,1001,-883,2025-01-29 10:47:13,1
-13748,668,-5424,350,1302,-1177,2025-01-29 10:47:13,1
-14088,-32,-5020,610,808,-1149,2025-01-29 10:47:13,1
-14192,-328,-4024,1041,-151,-983,2025-01-29 10:47:13,1
-14084,-208,-4068,1442,-776,-511,2025-01-29 10:47:13,1
-13276,-132,-4268,1889,-382,-45,2025-01-29 10:47:13,1
-13064,-340,-3712,2698,1264,6,2025-01-29 10:47:13,1
-14620,-168,-3404,3439,2851,382,2025-01-29 10:47:13,1
-16004,416,-5160,3694,3632,1162,2025-01-29 10:47:13,1
-16556,808,-6528,3048,3338,1520,2025-01-29 10:47:13,1
-16364,1372,-7472,2229,1396,1637,2025-01-29 10:47:13,1
-15552,2640,-9176,1205,-1895,1764,2025-01-29 10:47:13,1
-14252,4160,-10160,190,-4140,1848,2025-01-29 10:47:13,1
-12032,4076,-10360,-757,-4585,1166,2025-01-29 10:47:13,1
-10348,1360,-9440,-1459,-3978,-337,2025-01-29 10:47:13,1
-10260,-1488,-7236,-1227,-3356,-1409,2025-01-29 10:47:13,1
-10208,-3584,-6700,468,-2569,-2231,2025-01-29 10:47:14,1
-10688,-3156,-8888,1764,-658,-3159,2025-01-29 10:47:14,1
-10680,-1912,-8852,2060,154,-3829,2025-01-29 10:47:14,1
-11128,-1108,-7592,2280,79,-4045,2025-01-29 10:47:14,1
-11272,-788,-6688,2470,-791,-3655,2025-01-29 10:47:14,1
-10716,-1348,-6640,2261,-1445,-2894,2025-01-29 10:47:14,1
-10012,-2032,-6068,2000,-1283,-2349,2025-01-29 10:47:14,1
-9540,-2044,-5708,2189,-446,-2105,2025-01-29 10:47:14,1
-9168,-1772,-6008,2405,845,-2113,2025-01-29 10:47:14,1
-9476,-1152,-6272,2470,2122,-2205,2025-01-29 10:47:14,1
-9792,-1068,-6040,2459,2573,-2332,2025-01-29 10:47:14,1
-10208,-1280,-6592,2298,2192,-2461,2025-01-29 10:47:14,1
-10600,-1472,-6772,2066,1552,-2488,2025-01-29 10:47:14,1
-10816,-1932,-7024,1872,1115,-2343,2025-01-29 10:47:14,1
-10836,-2052,-6536,1675,1079,-2131,2025-01-29 10:47:14,1
-10616,-2200,-5976,1491,901,-1963,2025-01-29 10:47:14,1
-10684,-1820,-5908,1329,679,-1673,2025-01-29 10:47:14,1
-10616,-816,-6184,789,1040,-1345,2025-01-29 10:47:14,1
-10736,-452,-6004,234,1443,-1406,2025-01-29 10:47:14,1
-10996,-560,-5868,-277,1492,-1612,2025-01-29 10:47:14,1
-11284,-776,-6384,-874,1135,-1707,2025-01-29 10:47:14,1
-11716,-548,-6364,-1699,385,-1758,2025-01-29 10:47:14,1
-11792,-216,-6016,-2535,-417,-1817,2025-01-29 10:47:14,1
-11856,40,-5832,-3462,-762,-1896,2025-01-29 10:47:14,1
-12312,-404,-5300,-4215,-682,-1873,2025-01-29 10:47:14,1
-12356,-1248,-5192,-4998,-692,-2064,2025-01-29 10:47:14,1
-12544,-1760,-5468,-5645,-1101,-2369,2025-01-29 10:47:14,1
-12584,-1884,-5572,-5994,-1638,-2470,2025-01-29 10:47:14,1
-12140,-1764,-5344,-5988,-1867,-2347,2025-01-29 10:47:14,1
-11720,-2096,-4836,-5911,-1247,-2164,2025-01-29 10:47:14,1
-11364,-2840,-4380,-5709,265,-2249,2025-01-29 10:47:14,1
-12160,-3660,-4280,-5363,1726,-2828,2025-01-29 10:47:14,1
-13696,-3700,-4120,-5156,2377,-3179,2025-01-29 10:47:14,1
-15384,-3280,-3648,-4966,2165,-2904,2025-01-29 10:47:14,1
-16196,-2752,-3236,-4962,1211,-2207,2025-01-29 10:47:14,1
-15436,-3564,-2912,-5197,-665,-1318,2025-01-29 10:47:14,1
-14440,-4308,-4748,-4686,-1212,-1028,2025-01-29 10:47:14,1
-13908,-3820,-6880,-3795,588,-941,2025-01-29 10:47:14,1
-14484,-4100,-6588,-2496,2273,-975,2025-01-29 10:47:14,1
-15328,-5216,-7104,-890,1034,-698,2025-01-29 10:47:14,1
-15748,-5688,-8956,503,-966,-115,2025-01-29 10:47:14,1
-15864,-4912,-9576,1141,-2184,970,2025-01-29 10:47:14,1
-13116,-2968,-10144,1780,-3340,1411,2025-01-29 10:47:14,1
-11200,-792,-11244,1144,-4723,685,2025-01-29 10:47:14,1
-10704,1572,-9928,-494,-5426,1018,2025-01-29 10:47:14,1
-9224,2916,-9848,-1688,-4504,2060,2025-01-29 10:47:14,1
-8128,3936,-10068,-2900,-1907,2348,2025-01-29 10:47:14,1
-7508,3908,-9664,-3912,1418,1598,2025-01-29 10:47:14,1
-8548,1736,-8256,-4695,3758,183,2025-01-29 10:47:14,1
-11144,-968,-5772,-4454,4203,-74,2025-01-29 10:47:14,1
-12432,-2572,-4812,-3186,3394,531,2025-01-29 10:47:14,1
-12988,-2900,-5088,-2063,1378,1450,2025-01-29 10:47:14,1
-12688,-2428,-5708,-1249,-73,2133,2025-01-29 10:47:14,1
-11496,-1660,-6024,-587,-1140,2540,2025-01-29 10:47:14,1
-10856,-720,-5916,-81,-1418,2922,2025-01-29 10:47:14,1
-10152,268,-5672,274,-1359,3243,2025-01-29 10:47:14,1
-9316,1272,-5808,387,-1006,3104,2025-01-29 10:47:14,1
-9360,1780,-5636,345,1,2545,2025-01-29 10:47:14,1
-9640,1864,-5620,198,689,1883,2025-01-29 10:47:14,1
-10216,1848,-5476,-26,1106,1398,2025-01-29 10:47:14,1
-10940,1312,-5300,-149,1104,1143,2025-01-29 10:47:14,1
-11564,832,-4960,-151,920,1163,2025-01-29 10:47:15,1
-11720,524,-4752,95,456,1192,2025-01-29 10:47:15,1
-11588,720,-4744,457,24,1066,2025-01-29 10:47:15,1
-11392,924,-4852,660,-364,743,2025-01-29 10:47:15,1
-11492,1164,-4492,851,-714,351,2025-01-29 10:47:15,1
-11328,1352,-4712,1007,-1018,-16,2025-01-29 10:47:15,1
-11132,1136,-4712,1238,-1093,-427,2025-01-29 10:47:15,1
-10936,532,-4836,1486,-963,-748,2025-01-29 10:47:15,1
-11480,148,-4036,1871,-687,-895,2025-01-29 10:47:15,1
-11624,164,-3788,2322,-354,-913,2025-01-29 10:47:15,1
-11796,508,-4380,2410,-543,-817,2025-01-29 10:47:15,1
-11952,680,-4784,2651,-729,-704,2025-01-29 10:47:15,1
-12004,688,-5044,2846,-471,-343,2025-01-29 10:47:15,1
-12056,676,-5244,3044,175,-14,2025-01-29 10:47:15,1
-12552,312,-6028,2855,354,217,2025-01-29 10:47:15,1
-13492,964,-6232,2667,1027,734,2025-01-29 10:47:15,1
-14068,1292,-5496,2293,1520,1124,2025-01-29 10:47:15,1
-14392,1452,-4700,1843,869,1107,2025-01-29 10:47:15,1
-15300,596,-2736,1633,129,796,2025-01-29 10:47:15,1
-15448,-224,-2488,1872,-899,990,2025-01-29 10:47:15,1
-14972,-244,-4212,1925,-802,1779,2025-01-29 10:47:15,1
-13824,-220,-5408,1788,204,2064,2025-01-29 10:47:15,1
-13260,916,-7232,1350,1585,1588,2025-01-29 10:47:15,1
-14364,2524,-9980,177,3414,1284,2025-01-29 10:47:15,1
-15716,3408,-12588,-1492,4473,1776,2025-01-29 10:47:15,1
-16208,2832,-14332,-3515,3983,2387,2025-01-29 10:47:15,1
-15548,1656,-11868,-4844,1813,2449,2025-01-29 10:47:15,1
-12152,52,-7884,-4405,-2423,1198,2025-01-29 10:47:15,1
-8816,-1384,-6272,-2903,-6009,-819,2025-01-29 10:47:15,1
-7228,-2916,-6088,-721,-6970,-2370,2025-01-29 10:47:15,1
-7188,-4688,-6624,987,-4917,-2689,2025-01-29 10:47:15,1
-8124,-5568,-7564,2268,442,-1659,2025-01-29 10:47:15,1
-8700,-3680,-7652,3160,5387,-641,2025-01-29 10:47:15,1
-9832,-1656,-8096,3325,7732,-1083,2025-01-29 10:47:15,1
-12180,256,-8688,2861,8054,-1429,2025-01-29 10:47:15,1
-13152,1304,-8376,2210,5692,-1730,2025-01-29 10:47:15,1
-13348,988,-7472,1516,978,-2429,2025-01-29 10:47:15,1
-12940,-128,-6676,1050,-1938,-2674,2025-01-29 10:47:15,1
-11812,-1264,-6492,979,-3109,-2633,2025-01-29 10:47:15,1
-10188,-1880,-6516,758,-3172,-2537,2025-01-29 10:47:15,1
-8764,-1796,-6392,566,-2016,-2608,2025-01-29 10:47:15,1
-8064,-1388,-6756,314,-103,-2702,2025-01-29 10:47:15,1
-8628,-912,-6696,-123,2132,-2597,2025-01-29 10:47:15,1
-9576,-660,-6268,-421,3532,-2480,2025-01-29 10:47:15,1
-10636,-500,-6176,-533,3761,-2534,2025-01-29 10:47:15,1
-11936,-1384,-6148,-544,3211,-2589,2025-01-29 10:47:15,1
-12768,-2088,-5712,-460,2246,-2432,2025-01-29 10:47:15,1
-13260,-2632,-5364,-270,1143,-2095,2025-01-29 10:47:15,1
-13128,-2736,-5412,26,28,-1639,2025-01-29 10:47:15,1
-12672,-2496,-5504,264,-637,-1034,2025-01-29 10:47:15,1
-11880,-2372,-5524,441,-829,-521,2025-01-29 10:47:15,1
-11320,-2176,-5420,498,-667,-323,2025-01-29 10:47:15,1
-11244,-1976,-5096,461,-407,-201,2025-01-29 10:47:15,1
-11276,-1440,-4996,370,-340,25,2025-01-29 10:47:15,1
-11372,-1116,-4596,205,-244,168,2025-01-29 10:47:15,1
-11208,-1240,-5000,-177,-52,278,2025-01-29 10:47:15,1
-11148,-1384,-4836,-532,364,239,2025-01-29 10:47:15,1
-11056,-1860,-5136,-802,692,154,2025-01-29 10:47:15,1
-11548,-2200,-5652,-985,815,87,2025-01-29 10:47:15,1
-11644,-2224,-6088,-1215,837,140,2025-01-29 10:47:15,1
-11796,-1728,-6196,-1389,979,133,2025-01-29 10:47:16,1
-11756,-1008,-6980,-1836,1140,-155,2025-01-29 10:47:16,1
-11644,-864,-6868,-2383,1347,-597,2025-01-29 10:47:16,1
-12056,-1084,-6696,-2838,1266,-976,2025-01-29 10:47:16,1
-12552,-1756,-6252,-3282,1052,-1405,2025-01-29 10:47:16,1
-13504,-2148,-5672,-3544,535,-1568,2025-01-29 10:47:16,1
-13836,-2396,-4616,-3636,210,-1669,2025-01-29 10:47:16,1
-13576,-3060,-4280,-3646,-417,-2080,2025-01-29 10:47:16,1
-13520,-3532,-4908,-3314,-896,-2561,2025-01-29 10:47:16,1
-14060,-3820,-5952,-3153,-727,-2566,2025-01-29 10:47:16,1
-14276,-4196,-6360,-2646,-377,-2347,2025-01-29 10:47:16,1
-14732,-4156,-6320,-1722,-618,-2150,2025-01-29 10:47:16,1
-15444,-4132,-6960,-686,-2033,-1487,2025-01-29 10:47:16,1
-15668,-3332,-7756,-270,-3643,-240,2025-01-29 10:47:16,1
-14324,-2468,-8708,21,-4490,741,2025-01-29 10:47:16,1
-12396,-1996,-8884,-22,-4917,777,2025-01-29 10:47:16,1
-11008,-1464,-9168,-473,-5163,889,2025-01-29 10:47:16,1
-9624,-184,-8952,-1026,-4336,1134,2025-01-29 10:47:16,1
-9096,1044,-8404,-1487,-2263,1284,2025-01-29 10:47:16,1
-8868,1824,-8380,-1955,-526,1200,2025-01-29 10:47:16,1
-9252,2056,-8408,-2140,673,914,2025-01-29 10:47:16,1
-9932,1664,-8040,-2142,1910,296,2025-01-29 10:47:16,1
-11080,432,-7580,-2199,2431,-136,2025-01-29 10:47:16,1
-12336,-580,-6624,-2171,2026,167,2025-01-29 10:47:16,1
-12880,-1456,-6628,-1894,1299,800,2025-01-29 10:47:16,1
-13108,-1764,-6576,-1446,802,1713,2025-01-29 10:47:16,1
-12720,-1492,-6512,-1149,-177,2373,2025-01-29 10:47:16,1
-12368,-1036,-6400,-964,-1398,2603,2025-01-29 10:47:16,1
-12096,-616,-5856,-721,-2314,2819,2025-01-29 10:47:16,1
-11304,112,-5968,-484,-2887,3078,2025-01-29 10:47:16,1
-10112,776,-5848,-322,-3078,2971,2025-01-29 10:47:16,1
-9360,1108,-5628,-108,-2372,2514,2025-01-29 10:47:16,1
-8932,1220,-5068,131,-1000,1803,2025-01-29 10:47:16,1
-9872,1060,-4696,265,432,1101,2025-01-29 10:47:16,1
-10520,876,-4740,283,994,908,2025-01-29 10:47:16,1
-11344,608,-4780,440,1235,1046,2025-01-29 10:47:16,1
-11564,724,-5216,613,1292,1146,2025-01-29 10:47:16,1
-11300,700,-5524,844,1108,936,2025-01-29 10:47:16,1
-11436,248,-5428,1145,910,476,2025-01-29 10:47:16,1
-11312,-280,-5112,1559,640,174,2025-01-29 10:47:16,1
-11208,-652,-4924,2095,371,-87,2025-01-29 10:47:16,1
-11288,-788,-4980,2600,735,-224,2025-01-29 10:47:16,1
-11788,-780,-5180,3022,1365,-63,2025-01-29 10:47:16,1
-12652,-512,-5180,3433,1762,335,2025-01-29 10:47:16,1
-13272,-228,-5332,3743,1692,793,2025-01-29 10:47:16,1
-13704,-68,-5204,4062,763,1016,2025-01-29 10:47:16,1
-14032,128,-4868,4380,-401,1167,2025-01-29 10:47:16,1
-13568,436,-5092,4627,-1588,1324,2025-01-29 10:47:16,1
-12796,600,-5380,4644,-2138,1457,2025-01-29 10:47:16,1
-11748,556,-5280,4682,-1836,1550,2025-01-29 10:47:16,1
-11416,444,-4708,4796,-683,1575,2025-01-29 10:47:16,1
-12024,-356,-3936,4968,797,1729,2025-01-29 10:47:16,1
-12764,-1008,-2916,5617,1768,2115,2025-01-29 10:47:16,1
-13368,-1108,-3464,6216,1714,2434,2025-01-29 10:47:16,1
-14000,-772,-4200,6499,1373,2810,2025-01-29 10:47:16,1
-13960,-316,-5752,6744,796,3046,2025-01-29 10:47:16,1
-13716,92,-7100,6651,245,3112,2025-01-29 10:47:16,1
-12976,216,-7372,6312,-550,2685,2025-01-29 10:47:16,1
-12424,476,-7524,6199,-850,1972,2025-01-29 10:47:16,1
-12272,484,-8828,5972,-290,1612,2025-01-29 10:47:16,1
-12512,1636,-11408,5476,719,1793,2025-01-29 10:47:16,1
-12632,2224,-12076,3957,2050,1836,2025-01-29 10:47:16,1
-12256,2320,-9568,2764,2313,968,2025-01-29 10:47:17,1
-11456,1652,-7900,2521,361,-632,2025-01-29 10:47:17,1
-11232,1168,-7308,2164,-1940,-2105,2025-01-29 10:47:17,1
-10632,492,-6980,1534,-3078,-2264,2025-01-29 10:47:17,1
-9332,-956,-6688,1242,-3143,-2115,2025-01-29 10:47:17,1
-8488,-2332,-6124,1113,-2205,-2232,2025-01-29 10:47:17,1
-8716,-3212,-5372,1126,-205,-2089,2025-01-29 10:47:17,1
-9492,-3432,-5524,1202,2004,-1610,2025-01-29 10:47:17,1
-10476,-3104,-6432,1327,3291,-1332,2025-01-29 10:47:17,1
-11840,-2132,-6376,1530,4407,-1440,2025-01-29 10:47:17,1
-13412,-1504,-6844,1396,4399,-1505,2025-01-29 10:47:17,1
-13504,-1488,-8012,770,1632,-1455,2025-01-29 10:47:17,1
-13268,-2084,-7492,320,-641,-1105,2025-01-29 10:47:17,1
-11628,-2248,-7352,121,-1641,-943,2025-01-29 10:47:17,1
-9904,-2456,-7500,-23,-1634,-1166,2025-01-29 10:47:17,1
-9056,-2784,-6908,-13,-559,-1306,2025-01-29 10:47:17,1
-8888,-3032,-6720,58,1227,-1374,2025-01-29 10:47:17,1
-9412,-2544,-6492,81,2903,-1371,2025-01-29 10:47:17,1
-10152,-2520,-7164,-85,3519,-1487,2025-01-29 10:47:17,1
-12056,-2524,-6952,-204,3179,-1294,2025-01-29 10:47:17,1
-12660,-2456,-6908,-326,2127,-999,2025-01-29 10:47:17,1
-12700,-2204,-6668,-528,1258,-783,2025-01-29 10:47:17,1
-12296,-2364,-6344,-741,644,-555,2025-01-29 10:47:17,1
-11948,-2404,-6064,-783,321,-284,2025-01-29 10:47:17,1
-11420,-2428,-6332,-882,333,-51,2025-01-29 10:47:17,1
-11172,-2464,-6660,-1007,673,69,2025-01-29 10:47:17,1
-11580,-2060,-6520,-1127,970,340,2025-01-29 10:47:17,1
-12120,-1808,-6984,-1347,717,579,2025-01-29 10:47:17,1
-12244,-1732,-7096,-1507,345,363,2025-01-29 10:47:17,1
-12520,-1440,-6964,-1315,-50,133,2025-01-29 10:47:17,1
-12608,-1396,-6732,-1133,-495,-29,2025-01-29 10:47:17,1
-12204,-1168,-6040,-1175,-725,-142,2025-01-29 10:47:17,1
-11748,-1300,-5832,-1245,-489,-332,2025-01-29 10:47:17,1
-11260,-1928,-6376,-1379,-201,-579,2025-01-29 10:47:17,1
-11068,-2240,-6320,-1202,102,-547,2025-01-29 10:47:17,1
-11156,-2296,-6676,-1095,327,-162,2025-01-29 10:47:17,1
-11036,-2172,-6632,-1074,600,133,2025-01-29 10:47:17,1
-11156,-1888,-6716,-872,904,144,2025-01-29 10:47:17,1
-11756,-1484,-6912,-797,899,2,2025-01-29 10:47:17,0
-12084,-1304,-6652,-902,601,-90,2025-01-29 10:47:17,0
-12368,-1120,-6384,-966,86,-140,2025-01-29 10:47:17,0
-12132,-944,-6352,-1065,-290,-60,2025-01-29 10:47:17,0
-11744,-956,-6664,-1063,-383,-182,2025-01-29 10:47:17,0
-11548,-1180,-6992,-990,-221,-215,2025-01-29 10:47:17,0
-11360,-1212,-7040,-932,143,-53,2025-01-29 10:47:17,0
-11304,-1080,-6700,-1024,503,-93,2025-01-29 10:47:17,0
-11664,-1104,-6420,-1072,375,-210,2025-01-29 10:47:17,0
-11980,-1304,-6320,-1016,128,-283,2025-01-29 10:47:17,0
-11908,-1208,-6308,-923,-62,-298,2025-01-29 10:47:17,0
-11944,-1204,-6280,-960,-185,-383,2025-01-29 10:47:17,0
-11668,-1040,-6496,-975,-152,-359,2025-01-29 10:47:17,0
-11520,-996,-6704,-1092,-95,-302,2025-01-29 10:47:17,0
-11432,-1024,-6332,-1096,199,-352,2025-01-29 10:47:17,0
-11472,-1036,-6448,-1087,438,-364,2025-01-29 10:47:17,0
-11896,-992,-6168,-967,594,-382,2025-01-29 10:47:17,0
-12024,-1188,-6200,-902,525,-356,2025-01-29 10:47:17,0
-11964,-1276,-6156,-805,323,-275,2025-01-29 10:47:17,0
-12060,-1348,-6028,-688,201,-172,2025-01-29 10:47:17,0
-11780,-1552,-6252,-486,209,-48,2025-01-29 10:47:18,0
-11600,-1576,-6256,-329,410,-32,2025-01-29 10:47:18,0
-11780,-1356,-6372,-239,475,16,2025-01-29 10:47:18,0
-11748,-1292,-6704,-83,584,9,2025-01-29 10:47:18,0
-11760,-1148,-6812,-53,597,-53,2025-01-29 10:47:18,0
-11772,-1088,-6860,-60,533,-85,2025-01-29 10:47:18,0
-11788,-1156,-6972,-167,376,-147,2025-01-29 10:47:18,0
-11852,-1336,-6592,-276,202,-178,2025-01-29 10:47:18,0
-11784,-1268,-6576,-325,150,-111,2025-01-29 10:47:18,0
-11544,-1036,-6512,-453,148,-119,2025-01-29 10:47:18,0
-11484,-892,-6416,-584,213,-267,2025-01-29 10:47:18,0
-11608,-916,-6328,-627,412,-395,2025-01-29 10:47:18,0
-11728,-900,-6208,-591,496,-455,2025-01-29 10:47:18,0
-11804,-904,-6484,-577,440,-551,2025-01-29 10:47:18,0
-11952,-820,-6536,-650,381,-595,2025-01-29 10:47:18,0
-12000,-796,-6176,-650,267,-581,2025-01-29 10:47:18,0
-11896,-704,-5976,-694,210,-604,2025-01-29 10:47:18,0
-11780,-964,-6004,-712,213,-599,2025-01-29 10:47:18,0
-11820,-1036,-6128,-586,335,-540,2025-01-29 10:47:18,0
-11812,-972,-6232,-494,531,-544,2025-01-29 10:47:18,0
-11940,-988,-6348,-438,579,-501,2025-01-29 10:47:18,0
-11824,-1104,-6744,-375,412,-463,2025-01-29 10:47:18,0
-11708,-1072,-6496,-308,402,-385,2025-01-29 10:47:18,0
-11692,-884,-6528,-264,459,-332,2025-01-29 10:47:18,0
-11836,-836,-6352,-160,485,-182,2025-01-29 10:47:18,0
-11684,-964,-6668,-137,468,-195,2025-01-29 10:47:18,0
-11844,-1220,-6492,-139,547,-176,2025-01-29 10:47:18,0
-11808,-1168,-6572,-34,532,-88,2025-01-29 10:47:18,0
-11908,-1000,-6500,-1,401,34,2025-01-29 10:47:18,0
-11952,-948,-6420,20,273,54,2025-01-29 10:47:18,0
-11864,-952,-6460,40,161,83,2025-01-29 10:47:18,0
-11768,-1052,-6624,39,173,78,2025-01-29 10:47:18,0
-11712,-1204,-6524,68,132,53,2025-01-29 10:47:18,0
-11816,-1300,-6388,174,48,146,2025-01-29 10:47:18,0
-11568,-1220,-6364,234,125,124,2025-01-29 10:47:18,0
-11496,-1036,-6544,160,196,34,2025-01-29 10:47:18,0
-11684,-940,-6384,191,308,15,2025-01-29 10:47:18,0
-11656,-832,-6664,188,329,11,2025-01-29 10:47:18,0
-11724,-912,-6556,156,363,18,2025-01-29 10:47:18,0
-11844,-916,-6688,122,288,-17,2025-01-29 10:47:18,0
-11728,-916,-6504,17,110,-60,2025-01-29 10:47:18,0
-11676,-944,-6564,-36,128,-105,2025-01-29 10:47:18,0
-11732,-960,-6636,-52,179,-55,2025-01-29 10:47:18,0
-11552,-888,-6536,-101,279,-96,2025-01-29 10:47:18,0
-11732,-980,-6508,-187,284,-160,2025-01-29 10:47:18,0
-11740,-1084,-6480,-143,283,-147,2025-01-29 10:47:18,0
-11696,-1036,-6624,-125,262,-142,2025-01-29 10:47:18,0
-11764,-996,-6588,-190,188,-119,2025-01-29 10:47:18,0
-11860,-1032,-6588,-166,57,-82,2025-01-29 10:47:18,0
-11816,-936,-6388,-160,65,-72,2025-01-29 10:47:18,0
-11640,-940,-6372,-134,118,-98,2025-01-29 10:47:18,0
-11748,-996,-6400,-199,73,-58,2025-01-29 10:47:18,0
-11828,-1164,-6408,-138,41,-119,2025-01-29 10:47:18,0
-11764,-992,-6544,-103,55,-86,2025-01-29 10:47:18,0
-11864,-1056,-6432,-63,81,-47,2025-01-29 10:47:18,0
-11720,-972,-6608,-113,68,-34,2025-01-29 10:47:18,0
-11664,-864,-6432,-148,149,-72,2025-01-29 10:47:18,0
-11684,-836,-6472,-160,181,-88,2025-01-29 10:47:18,0
-11736,-1208,-6568,-137,159,-57,2025-01-29 10:47:18,0
-11752,-1064,-6516,-60,170,-93,2025-01-29 10:47:18,0
-11740,-1032,-6476,-93,204,-119,2025-01-29 10:47:18,0
-11796,-1060,-6448,-88,265,-74,2025-01-29 10:47:18,0
-11756,-972,-6720,-45,78,-80,2025-01-29 10:47:18,0
-11668,-1056,-6592,-38,103,-68,2025-01-29 10:47:18,0
-11600,-964,-6640,-15,218,-59,2025-01-29 10:47:19,0
-11688,-796,-6544,-68,227,-93,2025-01-29 10:47:19,0
-11788,-812,-6420,-96,206,-85,2025-01-29 10:47:19,0
-11864,-796,-6484,-100,132,-122,2025-01-29 10:47:19,0
-11728,-836,-6632,-197,71,-165,2025-01-29 10:47:19,0
-11752,-948,-6516,-214,-6,-159,2025-01-29 10:47:19,0
-11740,-976,-6460,-154,57,-107,2025-01-29 10:47:19,0
-11660,-1060,-6452,-127,109,-86,2025-01-29 10:47:19,0
-11572,-1172,-6560,-40,117,-54,2025-01-29 10:47:19,0
-11556,-1088,-6312,15,368,-74,2025-01-29 10:47:19,0
-11676,-1024,-6288,13,482,-137,2025-01-29 10:47:19,0
-11528,-916,-6672,20,459,-204,2025-01-29 10:47:19,0
-11992,-968,-6492,-46,342,-206,2025-01-29 10:47:19,0
-11848,-972,-6740,-59,209,-164,2025-01-29 10:47:19,0
-11800,-1012,-6796,-99,198,-115,2025-01-29 10:47:19,0
-11516,-1012,-6648,-159,229,-133,2025-01-29 10:47:19,0
-11484,-1060,-6528,-223,401,-253,2025-01-29 10:47:19,0
-11804,-1108,-6452,-278,444,-270,2025-01-29 10:47:19,0
-11848,-1060,-6272,-219,417,-312,2025-01-29 10:47:19,0
-11948,-1124,-6308,-180,378,-276,2025-01-29 10:47:19,0
-11856,-1168,-6300,-149,275,-244,2025-01-29 10:47:19,0
-11752,-1148,-6364,-23,266,-232,2025-01-29 10:47:19,0
-11720,-1128,-6164,47,301,-240,2025-01-29 10:47:19,0
-11792,-1008,-6312,164,379,-264,2025-01-29 10:47:19,0
-11940,-1012,-6408,205,292,-205,2025-01-29 10:47:19,0
-12032,-876,-6680,244,169,-103,2025-01-29 10:47:19,0
-11900,-900,-6600,230,45,-60,2025-01-29 10:47:19,0
-11800,-808,-6692,196,-18,-38,2025-01-29 10:47:19,0
-11720,-796,-6784,126,-37,-114,2025-01-29 10:47:19,0
-11756,-1004,-6368,68,37,-95,2025-01-29 10:47:19,0
-11868,-1076,-6592,74,38,7,2025-01-29 10:47:19,0
-11720,-1008,-6636,11,-44,18,2025-01-29 10:47:19,0
-11536,-1020,-6520,-22,-37,-13,2025-01-29 10:47:19,0
-11716,-1064,-6460,-20,43,-57,2025-01-29 10:47:19,0
-11616,-1180,-6420,41,58,-35,2025-01-29 10:47:19,0
-11732,-1208,-6352,54,23,-92,2025-01-29 10:47:19,0
-11704,-1412,-6332,80,26,-60,2025-01-29 10:47:19,0
-11692,-1240,-6256,156,110,-2,2025-01-29 10:47:19,0
-11572,-1104,-6456,152,248,-44,2025-01-29 10:47:19,0
-11836,-976,-6480,181,263,-45,2025-01-29 10:47:19,0
-11844,-1184,-6488,236,268,-37,2025-01-29 10:47:19,0
-11944,-1292,-6404,294,146,-49,2025-01-29 10:47:19,0
-11848,-1308,-6496,354,43,-23,2025-01-29 10:47:19,0
-11732,-1188,-6440,438,-11,26,2025-01-29 10:47:19,0
-11568,-948,-6572,424,27,34,2025-01-29 10:47:19,0
-11504,-764,-6684,337,207,-25,2025-01-29 10:47:19,0
-11616,-696,-6528,232,388,-80,2025-01-29 10:47:19,0
-11756,-680,-6848,167,365,-55,2025-01-29 10:47:19,0
-11796,-976,-6732,82,208,-69,2025-01-29 10:47:19,0
-11824,-980,-6756,42,90,-111,2025-01-29 10:47:19,0
-11580,-840,-6860,-99,16,-153,2025-01-29 10:47:19,0
