acceleration_x,acceleration_y,acceleration_z,gyroscope_x,gyroscope_y,gyroscope_z,timestamp,label
-12192,-1100,-5136,138,503,-191,2025-02-17 10:30:14,0.0
-12284,-1000,-5512,90,648,-175,2025-02-17 10:30:14,0.0
-12352,-980,-5256,-95,806,-178,2025-02-17 10:30:14,0.0
-12516,-952,-5044,-60,850,-169,2025-02-17 10:30:14,0.0
-12592,-848,-5024,56,709,-148,2025-02-17 10:30:14,0.0
-12572,-1068,-5584,115,559,-215,2025-02-17 10:30:14,0.0
-12476,-912,-5432,65,324,-165,2025-02-17 10:30:14,0.0
-12400,-984,-5304,39,415,-207,2025-02-17 10:30:14,0.0
-12432,-1072,-5028,161,384,-246,2025-02-17 10:30:14,0.0
-12628,-1044,-5084,302,190,-242,2025-02-17 10:30:14,0.0
-12612,-992,-5164,251,137,-109,2025-02-17 10:30:14,0.0
-12376,-1028,-5344,307,22,-85,2025-02-17 10:30:14,0.0
-12376,-992,-5328,126,149,-47,2025-02-17 10:30:14,0.0
-12192,-1148,-5200,122,351,-34,2025-02-17 10:30:14,0.0
-12492,-1152,-5004,206,417,-4,2025-02-17 10:30:14,0.0
-12564,-1080,-5236,168,197,17,2025-02-17 10:30:14,0.0
-12440,-1020,-5424,44,204,-40,2025-02-17 10:30:14,0.0
-12452,-980,-5188,91,200,-32,2025-02-17 10:30:14,0.0
-12468,-996,-5196,75,189,-28,2025-02-17 10:30:14,0.0
-12296,-988,-5508,0,117,-74,2025-02-17 10:30:14,0.0
-12596,-1004,-4928,17,141,-76,2025-02-17 10:30:14,0.0
-12448,-888,-5552,8,10,-28,2025-02-17 10:30:14,0.0
-12252,-852,-5384,-272,17,-127,2025-02-17 10:30:14,0.0
-12476,-1096,-5012,-216,19,-158,2025-02-17 10:30:14,0.0
-12424,-1100,-5076,-131,140,-13,2025-02-17 10:30:14,0.0
-12348,-936,-5396,-268,160,-59,2025-02-17 10:30:14,0.0
-12436,-928,-5128,-231,118,-10,2025-02-17 10:30:14,0.0
-12448,-828,-5200,-218,104,26,2025-02-17 10:30:14,0.0
-12284,-740,-5232,-266,55,-75,2025-02-17 10:30:14,0.0
-12408,-796,-5196,-218,-51,-123,2025-02-17 10:30:14,0.0
-12352,-796,-5136,-172,-16,-89,2025-02-17 10:30:14,0.0
-12284,-680,-5140,-228,66,-82,2025-02-17 10:30:14,0.0
-12108,-716,-4940,-228,207,-136,2025-02-17 10:30:14,0.0
-12256,-864,-5516,-96,237,-178,2025-02-17 10:30:14,0.0
-12360,-828,-5432,-297,410,-168,2025-02-17 10:30:14,0.0
-12236,-880,-5288,-256,403,-259,2025-02-17 10:30:14,0.0
-12660,-644,-5140,-307,406,-198,2025-02-17 10:30:14,0.0
-12532,-648,-5028,-430,342,-189,2025-02-17 10:30:14,0.0
-12488,-560,-5236,-471,234,-223,2025-02-17 10:30:14,0.0
-12240,-896,-5192,-435,45,-316,2025-02-17 10:30:14,0.0
-12500,-980,-5200,-416,160,-343,2025-02-17 10:30:14,0.0
-12464,-748,-5212,-598,296,-343,2025-02-17 10:30:14,0.0
-12504,-612,-5328,-753,208,-387,2025-02-17 10:30:14,0.0
-12496,-664,-5232,-708,-2,-470,2025-02-17 10:30:14,0.0
-12424,-752,-5264,-676,-86,-432,2025-02-17 10:30:14,0.0
-12372,-884,-5132,-544,-139,-444,2025-02-17 10:30:14,0.0
-12512,-896,-4836,-269,-107,-425,2025-02-17 10:30:14,0.0
-12476,-1000,-5108,-247,-304,-480,2025-02-17 10:30:14,0.0
-12284,-732,-5284,-486,-297,-672,2025-02-17 10:30:14,0.0
-12732,-992,-4884,-587,-273,-723,2025-02-17 10:30:14,0.0
-12568,-1168,-4840,-470,-154,-547,2025-02-17 10:30:14,0.0
-12516,-1132,-5060,-323,-170,-607,2025-02-17 10:30:14,0.0
-12712,-1020,-5136,-422,-183,-613,2025-02-17 10:30:14,0.0
-12596,-1016,-5096,-451,-271,-677,2025-02-17 10:30:14,0.0
-12600,-1020,-4748,-385,-244,-773,2025-02-17 10:30:14,0.0
-12556,-1140,-4660,-182,-251,-741,2025-02-17 10:30:14,0.0
-12260,-1036,-4808,75,-171,-709,2025-02-17 10:30:14,0.0
-12128,-908,-5484,171,-9,-735,2025-02-17 10:30:15,0.0
-12292,-1016,-5200,70,250,-743,2025-02-17 10:30:15,0.0
-12556,-1196,-4844,111,310,-744,2025-02-17 10:30:15,0.0
-12808,-1228,-4520,221,274,-737,2025-02-17 10:30:15,0.0
-12884,-1236,-4116,463,160,-711,2025-02-17 10:30:15,0.0
-13160,-1052,-4324,685,-196,-708,2025-02-17 10:30:15,0.0
-12848,-788,-4716,807,-788,-744,2025-02-17 10:30:15,0.0
-12704,-668,-4612,748,-1101,-787,2025-02-17 10:30:15,0.0
-12428,-592,-4844,703,-1183,-952,2025-02-17 10:30:15,0.0
-12236,-764,-4656,822,-1096,-1044,2025-02-17 10:30:15,0.0
-14052,-2396,-4124,-362,-2015,-2585,2025-02-17 10:30:15,0.0
-14088,-2560,-3356,-603,-3361,-2419,2025-02-17 10:30:15,0.0
-13792,-2968,-2204,-593,-3916,-2163,2025-02-17 10:30:15,0.0
-12728,-3388,-2060,-527,-4273,-2343,2025-02-17 10:30:15,0.0
-12368,-3932,-2072,-658,-4225,-2633,2025-02-17 10:30:15,0.0
-12104,-3784,-2120,-652,-3256,-2595,2025-02-17 10:30:15,0.0
-12380,-3156,-2172,-500,-1895,-2212,2025-02-17 10:30:15,0.0
-11816,-2964,-3728,-586,-599,-1984,2025-02-17 10:30:15,0.0
-11728,-2668,-4272,-948,1015,-1890,2025-02-17 10:30:15,0.0
-11988,-2580,-4044,-1298,2487,-1934,2025-02-17 10:30:15,0.0
-12580,-2872,-3776,-1527,3138,-2018,2025-02-17 10:30:15,0.0
-13392,-3216,-3388,-1427,2659,-1675,2025-02-17 10:30:15,0.0
-13104,-3464,-3204,-923,654,-1313,2025-02-17 10:30:15,0.0
-12940,-3628,-3112,-416,-1000,-972,2025-02-17 10:30:15,0.0
-12448,-3372,-3188,-148,-1677,-455,2025-02-17 10:30:15,0.0
-12020,-3428,-2992,38,-1415,-9,2025-02-17 10:30:15,0.0
-11540,-3252,-3232,102,-640,368,2025-02-17 10:30:15,0.0
-11248,-2880,-3152,-45,293,541,2025-02-17 10:30:15,0.0
-11448,-3024,-2920,-96,1527,743,2025-02-17 10:30:15,0.0
-11680,-3204,-3032,32,2352,999,2025-02-17 10:30:15,0.0
-12064,-2852,-3784,239,3167,1346,2025-02-17 10:30:15,0.0
-12372,-1404,-4116,343,4144,937,2025-02-17 10:30:15,0.0
-13320,-476,-4716,-644,4498,-105,2025-02-17 10:30:15,0.0
-13776,-1204,-4464,-1345,3956,-936,2025-02-17 10:30:15,0.0
-14040,-2484,-3868,-1517,2913,-1445,2025-02-17 10:30:15,0.0
-13852,-2612,-3876,-1552,1277,-1967,2025-02-17 10:30:15,0.0
-13884,-2388,-3312,-1571,-607,-2232,2025-02-17 10:30:15,0.0
-13080,-2516,-4216,-1805,-1928,-2299,2025-02-17 10:30:15,0.0
-12848,-2964,-3560,-2318,-2027,-2253,2025-02-17 10:30:15,0.0
-13028,-3456,-3584,-2994,-1007,-2008,2025-02-17 10:30:15,0.0
-13140,-3968,-3520,-3941,425,-1592,2025-02-17 10:30:15,0.0
-13708,-4412,-3000,-4499,1385,-1076,2025-02-17 10:30:15,0.0
-13844,-4316,-2700,-4666,1446,-578,2025-02-17 10:30:15,
-14504,-4020,-1564,-4635,1275,-195,2025-02-17 10:30:15,0.0
-13912,-3828,-1256,-4232,775,-42,2025-02-17 10:30:15,0.0
-13756,-3620,-1000,-3571,14,101,2025-02-17 10:30:15,0.0
-13460,-3236,-1496,-3142,-441,383,2025-02-17 10:30:15,0.0
-12920,-3728,-2852,-3437,-219,302,2025-02-17 10:30:15,0.0
-12688,-4364,-4584,-3866,387,-236,2025-02-17 10:30:15,0.0
-14448,-4264,-4344,-3454,2145,-902,2025-02-17 10:30:15,0.0
-16076,-4096,-3772,-2720,2899,-1144,2025-02-17 10:30:15,0.0
-16688,-4316,-4076,-2114,761,-1358,2025-02-17 10:30:16,0.0
-17388,-4972,-4848,-1437,-2762,-1326,2025-02-17 10:30:16,0.0
-17572,-5144,-5768,-902,-5518,-644,2025-02-17 10:30:16,0.0
-15492,-4588,-6492,-279,-6248,-206,2025-02-17 10:30:16,0.0
-13780,-3400,-7036,82,-6577,99,2025-02-17 10:30:16,0.0
-12472,-2872,-6848,-173,-7150,655,2025-02-17 10:30:16,0.0
-11164,-1932,-6496,-834,-7248,1269,2025-02-17 10:30:16,0.0
-10396,-276,-6232,-1142,-5877,1867,2025-02-17 10:30:16,0.0
-10356,1012,-5736,-1575,-3580,2304,2025-02-17 10:30:16,0.0
-10696,1656,-3836,-1021,-1940,2520,2025-02-17 10:30:16,0.0
-12092,972,-3064,-387,-814,2640,2025-02-17 10:30:16,0.0
-12676,388,-3084,-265,-359,3111,2025-02-17 10:30:16,0.0
-13148,-772,-3300,-64,-954,3310,2025-02-17 10:30:16,0.0
-13180,-1648,-3592,484,-1765,3045,2025-02-17 10:30:16,0.0
-13252,-2008,-4580,690,-2609,3135,2025-02-17 10:30:16,0.0
-12988,-1684,-4596,182,-2616,3577,2025-02-17 10:30:16,0.0
-11596,-1068,-4336,-504,-2108,3872,2025-02-17 10:30:16,0.0
-10676,-184,-3148,-508,-1834,3879,2025-02-17 10:30:16,0.0
-10704,396,-2892,-679,-1051,3828,2025-02-17 10:30:16,0.0
-10868,508,-2028,-837,271,3502,2025-02-17 10:30:16,0.0
-11312,552,-1404,-718,916,3173,2025-02-17 10:30:16,0.0
-11292,244,-1836,-297,881,3160,2025-02-17 10:30:16,0.0
-11912,260,-1604,132,841,3338,2025-02-17 10:30:16,0.0
-11912,632,-1404,511,854,3267,2025-02-17 10:30:16,0.0
-10944,884,-1488,691,403,2711,2025-02-17 10:30:16,0.0
-10636,988,-1436,695,101,1876,2025-02-17 10:30:16,0.0
-11056,1008,-1064,498,315,1120,2025-02-17 10:30:16,0.0
-11740,724,-888,393,770,586,2025-02-17 10:30:16,0.0
-12320,248,-376,713,163,333,2025-02-17 10:30:16,0.0
-12384,244,-1172,1413,-420,212,2025-02-17 10:30:16,0.0
-12836,444,-1788,1994,-719,283,2025-02-17 10:30:16,0.0
-12928,752,-2452,2281,-291,551,2025-02-17 10:30:16,0.0
-13436,252,-2488,2024,1092,447,2025-02-17 10:30:16,0.0
-14488,-1316,-2632,946,2781,684,2025-02-17 10:30:16,0.0
-15228,-904,-2144,789,3587,1508,2025-02-17 10:30:16,0.0
-15976,768,-1876,1814,2922,2474,2025-02-17 10:30:16,0.0
-15564,1612,-1404,2396,1041,3156,2025-02-17 10:30:16,0.0
-15996,1568,-784,2227,-208,3219,2025-02-17 10:30:16,0.0
-17272,1100,-1804,2322,730,3317,2025-02-17 10:30:16,0.0
-17860,1124,-4064,2283,2258,2977,2025-02-17 10:30:16,0.0
-16148,2940,-5632,2166,1745,1978,2025-02-17 10:30:16,0.0
-14732,6156,-8484,1686,-649,941,2025-02-17 10:30:16,0.0
-15380,6880,-8916,777,-583,-206,2025-02-17 10:30:16,0.0
-14760,6416,-7848,-351,1075,-1800,2025-02-17 10:30:16,0.0
-14600,3312,-6664,-918,-533,-3661,2025-02-17 10:30:16,0.0
-12728,-380,-5812,79,-4763,-4610,2025-02-17 10:30:16,0.0
-11016,-2992,-4180,1558,-8541,-5235,2025-02-17 10:30:16,0.0
-10076,-4976,-4084,2606,-8786,-4443,2025-02-17 10:30:16,0.0
-10248,-5352,-4888,2688,-6138,-2532,2025-02-17 10:30:16,0.0
-10084,-2980,-5244,2244,-577,-671,2025-02-17 10:30:16,0.0
-9560,-244,-5412,1425,5063,-1068,2025-02-17 10:30:16,0.0
-10184,1364,-5520,643,7911,-2666,2025-02-17 10:30:16,0.0
-12468,1740,-4868,-89,7829,-3449,2025-02-17 10:30:16,0.0
-13388,1336,-3612,-303,5728,-3505,2025-02-17 10:30:16,0.0
-13232,440,-2288,244,1268,-3405,2025-02-17 10:30:16,0.0
-13104,-580,-2428,1401,-2460,-3008,2025-02-17 10:30:16,0.0
-11600,-1380,-3912,2132,-5658,-2139,2025-02-17 10:30:16,0.0
-10020,-1484,-4532,1832,-6400,-1972,2025-02-17 10:30:16,0.0
-10140,-1984,-4484,583,-4176,-1837,2025-02-17 10:30:16,0.0
-9880,-2028,-4420,-931,126,-1842,2025-02-17 10:30:16,0.0
-10268,-2148,-3292,-2032,3935,-2066,2025-02-17 10:30:17,0.0
-10972,-2472,-2740,-2233,4804,-2273,2025-02-17 10:30:17,0.0
-12444,-2372,-2640,-2098,4689,-2108,2025-02-17 10:30:17,0.0
-12988,-2472,-2676,-1875,4422,-1881,2025-02-17 10:30:17,0.0
-13212,-2272,-3236,-1775,3417,-1674,2025-02-17 10:30:17,0.0
-13188,-2020,-3260,-1922,2144,-1109,2025-02-17 10:30:17,0.0
-13244,-1548,-2304,-1967,539,-110,2025-02-17 10:30:17,0.0
-12384,-924,-1012,-2044,-283,285,2025-02-17 10:30:17,0.0
-12900,-824,-1004,-2206,-73,282,2025-02-17 10:30:17,0.0
-12148,-760,-912,-2318,-581,342,2025-02-17 10:30:17,0.0
-12280,-1132,-1988,-1998,-160,639,2025-02-17 10:30:17,0.0
-12528,-1712,-3140,-1965,583,869,2025-02-17 10:30:17,0.0
-12856,-2096,-3388,-2039,1400,629,2025-02-17 10:30:17,0.0
-13660,-1728,-4244,-2100,1202,-128,2025-02-17 10:30:17,0.0
-14372,-512,-4420,-1438,445,-777,2025-02-17 10:30:17,0.0
-14656,-372,-3368,-617,-1016,-1762,2025-02-17 10:30:17,0.0
-14680,-1544,-3044,-912,-2733,-3110,2025-02-17 10:30:17,0.0
-15708,-1944,-1376,-1979,-4056,-4271,2025-02-17 10:30:17,0.0
-16444,-1704,-12,-2274,-5112,-4647,2025-02-17 10:30:17,0.0
-16760,-2364,-520,-1564,-5995,-4335,2025-02-17 10:30:17,0.0
-16672,-4360,-3688,-1497,-5264,-4255,2025-02-17 10:30:17,0.0
-16084,-6068,-5512,-2933,-3989,-4298,2025-02-17 10:30:17,0.0
-16900,-5572,-1324,-3093,-1460,-2168,2025-02-17 10:30:17,0.0
-17520,-4156,-3432,-2428,-3028,-517,2025-02-17 10:30:17,0.0
-15732,-2324,-4736,-2149,-4625,1381,2025-02-17 10:30:17,0.0
-13220,-1680,-5292,-1986,-6161,2642,2025-02-17 10:30:17,0.0
-11184,-1796,-6052,-1937,-6414,3865,2025-02-17 10:30:17,0.0
-10232,-1400,-5632,-1963,-4100,4806,2025-02-17 10:30:17,0.0
-9540,-28,-3312,-1757,166,4999,2025-02-17 10:30:17,0.0
-10084,1872,-2164,-407,2998,4531,2025-02-17 10:30:17,0.0
-11384,1912,-3488,-476,3493,3695,2025-02-17 10:30:17,0.0
-11900,1840,-3836,-691,3435,2324,2025-02-17 10:30:17,
-13452,680,-3988,-994,2385,1179,2025-02-17 10:30:17,0.0
-14536,-552,-3684,-1049,454,1200,2025-02-17 10:30:17,0.0
-14316,-1240,-3276,-1245,-549,1915,2025-02-17 10:30:17,0.0
-13060,-1292,-3388,-1422,-561,2227,2025-02-17 10:30:17,0.0
-12100,-916,-2672,-1672,-693,1684,2025-02-17 10:30:17,0.0
-11148,-408,-3432,-1739,-468,1258,2025-02-17 10:30:17,0.0
-11896,256,-2540,-1760,379,1217,2025-02-17 10:30:17,0.0
-11828,896,-1888,-1613,894,1413,2025-02-17 10:30:17,0.0
-11476,1148,-1604,-1311,986,1688,2025-02-17 10:30:17,0.0
-11044,876,-1300,-1028,1359,1596,2025-02-17 10:30:17,0.0
-11144,556,-948,-667,2164,1435,2025-02-17 10:30:17,0.0
-11080,588,-932,-490,2989,1154,2025-02-17 10:30:17,0.0
-11448,916,-776,-170,2923,679,2025-02-17 10:30:17,0.0
-11996,1428,-696,263,2068,408,2025-02-17 10:30:17,0.0
-12140,1280,-724,640,1381,-17,2025-02-17 10:30:17,0.0
-12660,640,-708,949,575,-393,2025-02-17 10:30:17,0.0
-12952,28,-684,923,-122,-560,2025-02-17 10:30:17,0.0
-12924,-232,-1076,774,-722,-478,2025-02-17 10:30:17,0.0
-13232,-140,-1108,534,-466,-262,2025-02-17 10:30:17,0.0
-13192,12,-1544,622,186,-29,2025-02-17 10:30:17,0.0
-13348,416,-1564,1023,389,118,2025-02-17 10:30:17,0.0
-13856,592,-2328,1005,992,319,2025-02-17 10:30:17,0.0
-14400,1132,-2576,487,2613,635,2025-02-17 10:30:17,0.0
-15000,1664,-1504,342,3561,1051,2025-02-17 10:30:17,0.0
-14880,1404,-932,919,3201,1305,2025-02-17 10:30:18,0.0
-16116,-24,-656,1877,2460,1419,2025-02-17 10:30:18,0.0
-17136,-1196,-2008,2603,2738,1637,2025-02-17 10:30:18,0.0
-18368,-1056,-3888,3106,3238,2591,2025-02-17 10:30:18,0.0
-18464,380,-4848,3337,2458,3837,2025-02-17 10:30:18,0.0
-17760,2400,-4956,4111,776,4623,2025-02-17 10:30:18,0.0
-15656,3300,-6684,4813,-1617,4053,2025-02-17 10:30:18,0.0
-14448,3444,-8080,4542,-4087,1887,2025-02-17 10:30:18,0.0
-13452,3156,-7548,4376,-5672,661,2025-02-17 10:30:18,0.0
-11952,1500,-6684,4282,-6520,355,2025-02-17 10:30:18,0.0
-10288,-1488,-5264,3564,-5977,556,2025-02-17 10:30:18,0.0
-9404,-2840,-4328,3076,-3528,607,2025-02-17 10:30:18,0.0
-10040,-2496,-5408,2170,1441,48,2025-02-17 10:30:18,0.0
-10636,-1188,-5296,993,5004,-1146,2025-02-17 10:30:18,0.0
-12204,-264,-4308,429,6300,-2307,2025-02-17 10:30:18,0.0
-13848,788,-3272,1031,5818,-2843,2025-02-17 10:30:18,0.0
-14644,432,-3584,1627,3515,-2915,2025-02-17 10:30:18,0.0
-14648,224,-3420,2253,9,-2722,2025-02-17 10:30:18,0.0
-14324,24,-3244,2616,-3404,-2262,2025-02-17 10:30:18,0.0
-12840,-128,-3644,2722,-5329,-1957,2025-02-17 10:30:18,0.0
-11480,-412,-3548,2194,-6520,-2023,2025-02-17 10:30:18,0.0
-10596,-900,-2812,1299,-7626,-2516,2025-02-17 10:30:18,0.0
-11176,-1384,-2912,653,-6133,-2401,2025-02-17 10:30:18,0.0
-11632,-1608,-3220,-43,-2371,-1429,2025-02-17 10:30:18,0.0
-11076,-1876,-2672,-885,782,-976,2025-02-17 10:30:18,0.0
-11064,-1924,-1744,-1137,2265,-1289,2025-02-17 10:30:18,0.0
-12284,-2076,-1668,-979,3089,-1234,2025-02-17 10:30:18,0.0
-13144,-2172,-1716,-627,3302,-872,2025-02-17 10:30:18,0.0
-13328,-1716,-2516,-38,2609,-600,2025-02-17 10:30:18,0.0
-13152,-1208,-3192,315,721,-654,2025-02-17 10:30:18,0.0
-13160,-880,-2976,20,-244,-888,2025-02-17 10:30:18,0.0
-12936,-816,-1524,-366,-719,-729,2025-02-17 10:30:18,0.0
-12572,-1076,-660,-251,-1674,-754,2025-02-17 10:30:18,0.0
-12552,-1284,-1204,-161,-1778,-394,2025-02-17 10:30:18,0.0
-12456,-876,-900,-263,-843,12,2025-02-17 10:30:18,0.0
-12260,-712,-480,-458,-807,94,2025-02-17 10:30:18,0.0
-12184,-848,-1152,-388,-984,223,2025-02-17 10:30:18,0.0
-12408,-1472,-2648,-402,-828,740,2025-02-17 10:30:18,0.0
-12304,-1604,-3316,-890,392,645,2025-02-17 10:30:18,0.0
-13276,-848,-2976,-1439,1614,-43,2025-02-17 10:30:18,0.0
-14308,-400,-2508,-1662,1944,-554,2025-02-17 10:30:18,0.0
-14728,-796,-2236,-1723,1159,-1253,2025-02-17 10:30:18,0.0
-15156,-1092,-1996,-1991,-805,-1642,2025-02-17 10:30:18,0.0
-14856,-1112,-1564,-2543,-2703,-1785,2025-02-17 10:30:18,0.0
-14572,-896,-436,-2904,-4075,-1580,2025-02-17 10:30:18,0.0
-14492,-1576,296,-3098,-4247,-1040,2025-02-17 10:30:18,0.0
-13932,-2792,-1376,-3644,-2819,-372,2025-02-17 10:30:18,0.0
-13944,-3500,-2336,-4250,-367,-259,2025-02-17 10:30:18,0.0
-14496,-4112,-1728,-4245,2506,-722,2025-02-17 10:30:18,0.0
-15324,-4060,-1444,-3313,2498,-1553,2025-02-17 10:30:18,0.0
-16396,-4088,-2100,-2465,1303,-1822,2025-02-17 10:30:18,0.0
-17672,-3500,-2640,-1572,5,-1047,2025-02-17 10:30:18,0.0
-17468,-2412,-3380,-969,-953,18,2025-02-17 10:30:18,0.0
-16516,-928,-4104,-675,-2283,791,2025-02-17 10:30:18,0.0
-15076,-400,-4676,-698,-3981,1584,2025-02-17 10:30:18,0.0
-12528,-512,-4248,-414,-5146,2020,2025-02-17 10:30:18,0.0
-11188,4,-4100,6,-4643,2207,2025-02-17 10:30:18,0.0
-10780,924,-3792,-107,-1849,2653,2025-02-17 10:30:18,0.0
-10472,1732,-3352,-280,1248,2881,2025-02-17 10:30:18,0.0
-10288,2140,-2876,-253,3350,2529,2025-02-17 10:30:18,0.0
-11296,1632,-4196,-271,5576,1546,2025-02-17 10:30:18,0.0
-13516,664,-3664,-815,5970,919,2025-02-17 10:30:18,0.0
-15456,-168,-2988,-793,5956,1501,2025-02-17 10:30:18,0.0
-15456,-664,-3476,-696,5278,1925,2025-02-17 10:30:18,0.0
-15472,-424,-3212,-911,3217,1950,2025-02-17 10:30:18,0.0
-15140,260,-2356,-1203,634,2179,2025-02-17 10:30:18,0.0
-13356,848,-2216,-1130,-2064,2122,2025-02-17 10:30:19,0.0
-12012,1296,-1988,-1097,-3000,2088,2025-02-17 10:30:19,0.0
-11108,1144,-1892,-1087,-2442,2269,2025-02-17 10:30:19,0.0
-10504,812,-1716,-1092,-1152,2508,2025-02-17 10:30:19,0.0
-10040,1040,-1732,-845,511,2730,2025-02-17 10:30:19,0.0
-10640,1416,-1612,-361,2507,2638,2025-02-17 10:30:19,0.0
-11520,1588,-2220,-421,4256,2409,2025-02-17 10:30:19,0.0
-11808,1492,-1036,-246,5006,1706,2025-02-17 10:30:19,0.0
-11916,1500,-584,512,3832,568,2025-02-17 10:30:19,0.0
-12376,1564,-816,1663,1772,-244,2025-02-17 10:30:19,
-13544,1568,-1424,2193,453,-186,2025-02-17 10:30:19,0.0
-13476,1620,-2688,1300,593,-201,2025-02-17 10:30:19,0.0
-13632,1808,-2852,-201,1202,-507,2025-02-17 10:30:19,0.0
-13772,2020,-2532,-1948,2370,-577,2025-02-17 10:30:19,0.0
-13712,1888,-1992,-2964,3236,-547,2025-02-17 10:30:19,0.0
-13564,1504,-300,-1694,2683,-651,2025-02-17 10:30:19,0.0
-14384,1352,-1040,411,53,-373,2025-02-17 10:30:19,0.0
-14956,2028,-2172,296,-1422,638,2025-02-17 10:30:19,0.0
-13648,2688,-3752,-1249,-1785,506,2025-02-17 10:30:19,0.0
-13184,2552,-4828,-3732,-832,-73,2025-02-17 10:30:19,0.0
-12540,1584,-2600,-3966,310,-395,2025-02-17 10:30:19,0.0
-12756,-476,-376,754,-1102,-203,2025-02-17 10:30:19,0.0
-13816,-816,-2688,3209,-2223,1253,2025-02-17 10:30:19,0.0
-12432,584,-5304,1307,-1155,809,2025-02-17 10:30:19,0.0
-12932,2744,-6228,-1323,978,-358,2025-02-17 10:30:19,0.0
-13720,3624,-5892,-1573,4046,-672,2025-02-17 10:30:19,0.0
-13792,3300,-4524,1142,5171,-499,2025-02-17 10:30:19,0.0
-13640,1860,-4100,4069,2571,-543,2025-02-17 10:30:19,0.0
-13320,1172,-3360,5360,-568,-756,2025-02-17 10:30:19,0.0
-12924,732,-3652,4801,-3506,-1161,2025-02-17 10:30:19,0.0
-12516,628,-4492,2849,-5123,-1610,2025-02-17 10:30:19,0.0
-12412,64,-5068,1084,-4372,-1804,2025-02-17 10:30:19,0.0
-12348,-452,-5340,110,-2230,-1393,2025-02-17 10:30:19,0.0
-11864,-1128,-5132,-87,813,-995,2025-02-17 10:30:19,0.0
-12452,-1528,-4340,-212,3082,-1026,2025-02-17 10:30:19,0.0
-13424,-1232,-3652,-569,4188,-1254,2025-02-17 10:30:19,0.0
-14024,-700,-3176,-1057,3938,-1543,2025-02-17 10:30:19,0.0
-14228,-828,-3364,-1398,2654,-1696,2025-02-17 10:30:19,0.0
-14032,-968,-4172,-1696,1500,-1577,2025-02-17 10:30:19,0.0
-13500,-744,-4552,-1801,742,-1215,2025-02-17 10:30:19,0.0
-12656,-600,-4408,-1618,341,-865,2025-02-17 10:30:19,0.0
-12416,-112,-3976,-1139,358,-704,2025-02-17 10:30:19,0.0
-11632,-256,-4348,-615,135,-667,2025-02-17 10:30:19,0.0
-11684,-280,-4812,-32,621,-596,2025-02-17 10:30:19,0.0
-13340,-192,-3420,-888,3086,-337,2025-02-17 10:30:19,0.0
-13760,-996,-2348,-712,2531,197,2025-02-17 10:30:19,0.0
-13472,-1716,-2176,70,870,994,2025-02-17 10:30:19,0.0
-12788,-2104,-3184,629,-835,1523,2025-02-17 10:30:19,5
-11924,-1528,-4284,424,-1599,1727,2025-02-17 10:30:19,5
-11636,-292,-4256,-2,-432,1897,2025-02-17 10:30:19,5
-11624,940,-4216,-410,1614,2072,2025-02-17 10:30:19,5
-12220,1132,-4420,-991,3853,2036,2025-02-17 10:30:19,5
-12772,672,-5132,-1558,5319,1702,2025-02-17 10:30:19,5
-13216,652,-5192,-1490,5528,928,2025-02-17 10:30:19,5
-13948,892,-4572,-517,4832,88,2025-02-17 10:30:19,5
-14532,696,-4504,712,2752,-501,2025-02-17 10:30:19,5
-13868,716,-4576,907,-1516,-224,2025-02-17 10:30:19,5
-12760,1060,-4768,525,-4313,400,2025-02-17 10:30:19,5
-11640,1104,-4160,-57,-4605,691,2025-02-17 10:30:19,5
-11248,436,-3820,-332,-2248,497,2025-02-17 10:30:19,5
-11740,188,-3916,-459,932,582,2025-02-17 10:30:19,5
-12772,600,-4120,-227,3318,1119,2025-02-17 10:30:20,5
-13228,960,-3876,131,3898,1355,2025-02-17 10:30:20,5
-13540,1108,-4168,-85,2815,1019,2025-02-17 10:30:20,5
-13876,1104,-3740,-759,1495,775,2025-02-17 10:30:20,5
-13624,776,-4732,-1888,33,945,2025-02-17 10:30:20,5
-13288,424,-4840,-3106,-685,1436,2025-02-17 10:30:20,5
-12616,240,-5044,-3787,-1382,1889,2025-02-17 10:30:20,5
-12448,292,-4536,-3506,-1635,2209,2025-02-17 10:30:20,5
-12960,220,-4000,-2357,-974,2749,2025-02-17 10:30:20,5
-13544,124,-3872,-983,1387,3725,2025-02-17 10:30:20,5
-14192,316,-4388,-242,5370,5693,2025-02-17 10:30:20,5
-14096,228,-4908,-184,10579,8122,2025-02-17 10:30:20,5
-13684,40,-4548,4,16214,10102,2025-02-17 10:30:20,5
-12720,-276,-4576,366,20850,11593,2025-02-17 10:30:20,5
-11840,-1136,-5444,260,24373,12493,2025-02-17 10:30:20,5
-12540,-2216,-8160,-1355,28392,12865,2025-02-17 10:30:20,5
-13436,-2324,-10872,-5100,32767,13348,2025-02-17 10:30:20,5
-12920,-2252,-11876,-9788,32767,13202,2025-02-17 10:30:20,5
-11628,-1940,-11972,-13917,32767,12078,2025-02-17 10:30:20,5
-3872,604,-9076,-16383,32767,6195,2025-02-17 10:30:20,5
-1796,1184,-8720,-14711,30765,5647,2025-02-17 10:30:20,5
376,1040,-6808,-11709,20526,4738,2025-02-17 10:30:20,5
2040,-12,-2008,-5722,11593,2713,2025-02-17 10:30:20,5
1408,-344,-1156,1601,5412,610,2025-02-17 10:30:20,5
-728,-24,-5012,5780,852,85,2025-02-17 10:30:20,5
-2664,588,-9308,2813,-2432,2873,2025-02-17 10:30:20,5
-4124,1060,-9788,-8929,-1576,8539,2025-02-17 10:30:20,5
-1420,432,-6852,-18343,-1813,13200,2025-02-17 10:30:20,5
264,40,-5824,-25100,-3155,16868,2025-02-17 10:30:20,5
700,-484,-2744,-30026,-4056,18396,2025-02-17 10:30:20,5
2576,-1208,-532,-32768,-4812,19045,2025-02-17 10:30:20,5
1768,-2392,3680,-32768,-4591,18917,2025-02-17 10:30:20,5
4016,-2236,1248,-32768,-5394,18028,2025-02-17 10:30:20,5
4500,-1696,1220,-32768,-6691,16761,2025-02-17 10:30:20,5
7484,148,1500,-32768,-9005,13996,2025-02-17 10:30:20,5
11268,816,4600,-31763,-10009,7140,2025-02-17 10:30:20,5
3212,-1604,2388,-31247,-9669,4686,2025-02-17 10:30:20,5
2500,-1696,2332,-30808,-9903,5037,2025-02-17 10:30:20,5
2576,-1620,2056,-30332,-10526,5701,2025-02-17 10:30:20,5
2664,-1680,1916,-30174,-11012,6263,2025-02-17 10:30:20,5
2812,-1568,2880,-29646,-11375,6496,2025-02-17 10:30:20,5
3180,-1088,3628,-28350,-11600,6613,2025-02-17 10:30:20,5
3428,-1064,2272,-26673,-11298,6290,2025-02-17 10:30:20,5
3352,-852,2912,-25558,-11996,6297,2025-02-17 10:30:20,5
3844,-508,3792,-24096,-12233,5859,2025-02-17 10:30:20,5
3708,-312,4112,-22084,-12453,5385,2025-02-17 10:30:20,5
6660,1208,7940,-18072,-11553,2686,2025-02-17 10:30:20,5
-32768,32767,-25392,-32768,-11633,32767,2025-02-17 10:30:20,5
18992,32767,-6744,-32768,-29889,32767,2025-02-17 10:30:20,5
32767,-32768,32767,-32768,32767,32767,2025-02-17 10:30:20,5
32767,-29928,32767,-32768,-12164,22732,2025-02-17 10:30:20,5
32767,-32768,32767,-32768,-32768,-3142,2025-02-17 10:30:20,5
15520,-32768,32767,-8301,-21826,-11380,2025-02-17 10:30:20,5
11492,-13424,5084,-372,-7581,-8996,2025-02-17 10:30:20,5
18952,7596,1844,3856,-11616,-7151,2025-02-17 10:30:20,5
7752,9264,16540,7541,-2907,-3843,2025-02-17 10:30:20,5
12124,14344,8608,4589,2569,32,2025-02-17 10:30:20,5
14956,15456,12028,1395,4729,2802,2025-02-17 10:30:20,5
12796,10680,13376,-1057,4190,950,2025-02-17 10:30:20,5
12860,1924,12872,-687,-1817,698,2025-02-17 10:30:21,5
13976,2004,13780,-215,-713,-645,2025-02-17 10:30:21,5
12756,4976,14288,285,1239,-316,2025-02-17 10:30:21,5
12160,5208,14612,-319,493,-139,2025-02-17 10:30:21,5
12968,4168,14232,-203,-878,-115,2025-02-17 10:30:21,5
13676,4472,12844,-94,-34,-201,2025-02-17 10:30:21,5
12880,4600,13384,-209,607,-199,2025-02-17 10:30:21,5
12688,4336,14356,-171,375,-210,2025-02-17 10:30:21,5
12660,4404,14168,-130,-69,-142,2025-02-17 10:30:21,5
12996,4452,13640,-162,30,-168,2025-02-17 10:30:21,5
12940,4484,13744,-158,235,-162,2025-02-17 10:30:21,5
12784,4504,13796,-165,127,-201,2025-02-17 10:30:21,5
12884,4360,13756,-202,205,-199,2025-02-17 10:30:21,5
12844,4336,13996,-157,204,-191,2025-02-17 10:30:21,5
12868,4532,13760,-176,142,-196,2025-02-17 10:30:21,5
12884,4496,13832,-151,85,-181,2025-02-17 10:30:21,5
12964,4404,13780,-170,188,-179,2025-02-17 10:30:21,5
12904,4468,13900,-173,230,-175,2025-02-17 10:30:21,5
12940,4436,14040,-159,174,-158,2025-02-17 10:30:21,5
12940,4364,13944,-141,134,-195,2025-02-17 10:30:21,5
12980,4488,13880,-161,161,-196,2025-02-17 10:30:21,5
12912,4472,13856,-163,160,-198,2025-02-17 10:30:21,5
12940,4496,14004,-165,173,-163,2025-02-17 10:30:21,5
12888,4432,13996,-160,187,-196,2025-02-17 10:30:21,5
12900,4356,13852,-152,174,-196,2025-02-17 10:30:21,5
12776,4424,13912,-161,152,-166,2025-02-17 10:30:21,5
12872,4392,13872,-153,167,-164,2025-02-17 10:30:21,5
12944,4440,13788,-180,158,-177,2025-02-17 10:30:21,5
12872,4484,13828,-176,161,-166,2025-02-17 10:30:21,5
12924,4416,13864,-177,154,-170,2025-02-17 10:30:21,5
12860,4416,13916,-165,181,-176,2025-02-17 10:30:21,5
12940,4480,13768,-168,173,-173,2025-02-17 10:30:21,5
12892,4420,13980,-165,156,-174,2025-02-17 10:30:21,5
12972,4516,13808,-167,189,-168,2025-02-17 10:30:21,5
12936,4464,13984,-176,165,-162,2025-02-17 10:30:21,5
12884,4420,13856,-156,167,-164,2025-02-17 10:30:21,5
12876,4372,13840,-152,141,-174,2025-02-17 10:30:21,5
12968,4360,13972,-142,163,-175,2025-02-17 10:30:21,5
12888,4456,13932,-151,179,-168,2025-02-17 10:30:21,5
12940,4456,13820,-138,154,-173,2025-02-17 10:30:21,5
12876,4484,13872,-150,164,-188,2025-02-17 10:30:21,5
12856,4332,13796,-153,150,-172,2025-02-17 10:30:21,5
13000,4356,13780,-169,171,-171,2025-02-17 10:30:21,5
12856,4416,13844,-163,157,-181,2025-02-17 10:30:21,5
12956,4388,13864,-156,160,-191,2025-02-17 10:30:21,5
12968,4388,13792,-169,196,-169,2025-02-17 10:30:21,5
12816,4460,13960,-163,174,-175,2025-02-17 10:30:21,5
12988,4432,13724,-171,181,-173,2025-02-17 10:30:21,5
12980,4420,13820,-154,191,-154,2025-02-17 10:30:21,5
12856,4356,13868,-165,182,-195,2025-02-17 10:30:21,5
12880,4444,13944,-180,172,-187,2025-02-17 10:30:21,5
12944,4328,13912,-171,162,-180,2025-02-17 10:30:21,5
12892,4340,13840,-168,170,-186,2025-02-17 10:30:21,5
12856,4432,14016,-153,193,-164,2025-02-17 10:30:21,5
12892,4484,13756,-139,140,-184,2025-02-17 10:30:21,5
12932,4460,13876,-159,160,-194,2025-02-17 10:30:21,5
12988,4432,13748,-173,219,-164,2025-02-17 10:30:21,5
12840,4416,13856,-175,171,-172,2025-02-17 10:30:21,5
12908,4436,13984,-160,139,-171,2025-02-17 10:30:21,5
12884,4348,13916,-161,152,-181,2025-02-17 10:30:21,5
12960,4428,13804,-173,202,-173,2025-02-17 10:30:21,5
12936,4468,13808,-154,189,-179,2025-02-17 10:30:22,5
13024,4400,13856,-165,162,-180,2025-02-17 10:30:22,5
12896,4424,13924,-144,172,-162,2025-02-17 10:30:22,5
12936,4424,13948,-184,179,-162,2025-02-17 10:30:22,5
12980,4448,13992,-164,175,-190,2025-02-17 10:30:22,5
12816,4424,14076,-168,166,-177,2025-02-17 10:30:22,5
13012,4408,13872,-175,139,-167,2025-02-17 10:30:22,5
12908,4368,13744,-151,172,-161,2025-02-17 10:30:22,5
12948,4456,13856,-162,177,-162,2025-02-17 10:30:22,5
12984,4380,13760,-171,180,-189,2025-02-17 10:30:22,5
12936,4392,13836,-157,176,-182,2025-02-17 10:30:22,5
12912,4412,14000,-154,168,-171,2025-02-17 10:30:22,5
12848,4376,13700,-169,156,-172,2025-02-17 10:30:22,5
12912,4336,13776,-163,175,-167,2025-02-17 10:30:22,5
12936,4436,13840,-161,179,-189,2025-02-17 10:30:22,5
12820,4404,13712,-171,162,-182,2025-02-17 10:30:22,5
12960,4408,13848,-176,168,-182,2025-02-17 10:30:22,5
12940,4520,13864,-167,153,-170,2025-02-17 10:30:22,5
12996,4496,13964,-139,160,-176,2025-02-17 10:30:22,5
12900,4272,13864,-142,163,-185,2025-02-17 10:30:22,5
12956,4392,13888,-186,157,-170,2025-02-17 10:30:22,5
12992,4448,13812,-166,174,-181,2025-02-17 10:30:22,5
12972,4480,13892,-152,159,-185,2025-02-17 10:30:22,5
12944,4376,13716,-148,179,-181,2025-02-17 10:30:22,0.0
12888,4360,13852,-169,183,-171,2025-02-17 10:30:22,0.0
12928,4428,13900,-149,168,-160,2025-02-17 10:30:22,0.0
12860,4372,13916,-153,142,-197,2025-02-17 10:30:22,0.0
12904,4504,13888,-160,174,-176,2025-02-17 10:30:22,0.0
12936,4392,13828,-151,192,-176,2025-02-17 10:30:22,
12864,4376,13904,-166,186,-175,2025-02-17 10:30:22,0.0
12920,4440,13924,-136,183,-163,2025-02-17 10:30:22,0.0
12900,4448,13684,-163,171,-175,2025-02-17 10:30:22,0.0
12928,4420,13776,-162,182,-175,2025-02-17 10:30:22,0.0
12972,4476,13896,-136,168,-181,2025-02-17 10:30:22,0.0
12928,4468,13904,-160,173,-179,2025-02-17 10:30:22,0.0
12936,4420,13788,-158,174,-174,2025-02-17 10:30:22,0.0
12980,4416,13764,-156,171,-187,2025-02-17 10:30:22,0.0
12936,4436,13864,-167,168,-177,2025-02-17 10:30:22,0.0
12848,4408,13852,-184,160,-176,2025-02-17 10:30:22,0.0
12940,4384,13884,-155,171,-155,2025-02-17 10:30:22,0.0
13000,4436,13768,-186,175,-182,2025-02-17 10:30:22,0.0
12812,4476,13936,-168,184,-163,2025-02-17 10:30:22,0.0
12888,4424,13968,-180,165,-172,2025-02-17 10:30:22,0.0
12920,4404,13832,-161,168,-164,2025-02-17 10:30:22,0.0
12928,4432,13784,-169,180,-193,2025-02-17 10:30:22,0.0
13028,4348,13700,-158,158,-180,2025-02-17 10:30:22,0.0
12916,4360,13880,-147,165,-175,2025-02-17 10:30:22,0.0
13072,4324,13820,-168,175,-204,2025-02-17 10:30:22,0.0
12996,4372,13824,-160,176,-180,2025-02-17 10:30:22,0.0
12892,4412,14016,-144,183,-191,2025-02-17 10:30:22,0.0
12952,4416,13828,-180,180,-177,2025-02-17 10:30:22,0.0
12984,4408,13916,-165,165,-173,2025-02-17 10:30:22,0.0
12876,4412,13832,-156,171,-181,2025-02-17 10:30:22,0.0
12952,4324,13824,-141,168,-185,2025-02-17 10:30:22,0.0
13036,4440,13820,-154,197,-184,2025-02-17 10:30:22,0.0
12920,4408,13860,-158,158,-184,2025-02-17 10:30:22,0.0
12952,4456,13928,-167,171,-169,2025-02-17 10:30:22,0.0
12868,4464,13896,-152,163,-170,2025-02-17 10:30:22,0.0
12972,4360,13884,-158,152,-181,2025-02-17 10:30:22,0.0
12980,4472,13960,-164,179,-170,2025-02-17 10:30:22,0.0
12908,4472,13772,-162,175,-179,2025-02-17 10:30:23,0.0
12908,4364,13892,-153,178,-176,2025-02-17 10:30:23,0.0
12908,4468,13800,-173,178,-183,2025-02-17 10:30:23,0.0
12916,4380,13880,-173,163,-179,2025-02-17 10:30:23,0.0
12952,4360,13820,-163,170,-187,2025-02-17 10:30:23,0.0
13012,4364,13776,-160,169,-180,2025-02-17 10:30:23,0.0
12936,4384,13640,-177,169,-183,2025-02-17 10:30:23,0.0
12916,4420,13796,-158,172,-160,2025-02-17 10:30:23,0.0
13020,4448,13848,-158,176,-165,2025-02-17 10:30:23,0.0
12860,4400,13956,-160,167,-168,2025-02-17 10:30:23,0.0
12868,4412,13944,-149,196,-166,2025-02-17 10:30:23,0.0
12900,4444,13908,-141,162,-161,2025-02-17 10:30:23,0.0
12960,4372,13912,-170,190,-187,2025-02-17 10:30:23,0.0
12912,4364,13920,-150,171,-181,2025-02-17 10:30:23,0.0
12880,4460,13844,-178,184,-159,2025-02-17 10:30:23,0.0
12900,4456,13956,-149,171,-183,2025-02-17 10:30:23,0.0
12924,4424,13852,-140,187,-161,2025-02-17 10:30:23,0.0
12996,4352,13876,-156,169,-185,2025-02-17 10:30:23,0.0
13056,4404,13844,-163,158,-180,2025-02-17 10:30:23,0.0
12908,4368,13952,-176,186,-180,2025-02-17 10:30:23,0.0
12920,4400,13744,-151,170,-186,2025-02-17 10:30:23,0.0
13000,4448,13832,-160,177,-172,2025-02-17 10:30:23,0.0
12952,4432,13760,-170,176,-176,2025-02-17 10:30:23,0.0
12972,4392,13800,-161,173,-184,2025-02-17 10:30:23,0.0
12908,4480,13940,-181,178,-161,2025-02-17 10:30:23,0.0
12992,4428,13776,-154,167,-174,2025-02-17 10:30:23,0.0
12904,4436,13716,-166,179,-161,2025-02-17 10:30:23,0.0
12924,4392,13876,-155,177,-186,2025-02-17 10:30:23,0.0
12860,4372,13908,-135,169,-159,2025-02-17 10:30:23,0.0
12972,4372,13964,-158,169,-170,2025-02-17 10:30:23,0.0
12896,4364,13864,-152,172,-181,2025-02-17 10:30:23,0.0
12796,4392,13836,-187,107,-192,2025-02-17 10:30:23,0.0
12852,4400,13832,-140,13,-174,2025-02-17 10:30:23,0.0
13288,4456,14092,-177,164,-131,2025-02-17 10:30:23,0.0
12700,4268,13832,-166,155,-173,2025-02-17 10:30:23,0.0
12720,4468,13740,-197,123,-153,2025-02-17 10:30:23,0.0
12908,4376,13856,-161,162,-103,2025-02-17 10:30:23,0.0
12876,4436,14216,-58,-48,-79,2025-02-17 10:30:23,0.0
13084,4380,13468,-160,312,-267,2025-02-17 10:30:23,0.0
13044,4424,13828,-164,129,-127,2025-02-17 10:30:23,0.0
12760,4544,14128,-174,207,-166,2025-02-17 10:30:23,0.0
13156,4448,13808,-149,95,-128,2025-02-17 10:30:23,0.0
12908,4436,13948,-135,120,-122,2025-02-17 10:30:23,0.0
13424,4160,13368,-202,222,-274,2025-02-17 10:30:23,0.0
12984,4480,13648,-176,363,-208,2025-02-17 10:30:23,0.0
12852,4360,14000,-186,189,-151,2025-02-17 10:30:23,0.0
13328,4008,13784,-169,104,-220,2025-02-17 10:30:23,0.0
12424,5412,14104,-147,335,-142,2025-02-17 10:30:23,0.0
12124,4388,13304,-387,-281,229,2025-02-17 10:30:23,0.0
13136,4104,13688,-525,-409,183,2025-02-17 10:30:23,0.0
12960,4588,12668,-1090,-453,79,2025-02-17 10:30:23,0.0
12736,4608,13488,-1297,-438,223,2025-02-17 10:30:23,0.0
13044,4380,14876,-1150,-825,257,2025-02-17 10:30:23,0.0
13168,3928,15284,-684,-1010,154,2025-02-17 10:30:23,0.0
14052,4068,14060,-361,-673,-28,2025-02-17 10:30:23,0.0
13480,4436,13576,-238,64,46,2025-02-17 10:30:23,0.0
12984,4172,14128,-39,609,-45,2025-02-17 10:30:23,0.0
12500,4684,12608,-404,537,41,2025-02-17 10:30:23,0.0
12584,4544,13120,-645,321,157,2025-02-17 10:30:23,0.0
12804,4412,13596,-1068,16,350,2025-02-17 10:30:23,0.0
13672,3404,14708,-581,74,73,2025-02-17 10:30:23,0.0
13784,3388,15592,319,394,-305,2025-02-17 10:30:24,0.0
11736,5988,10624,-893,975,336,2025-02-17 10:30:24,0.0
13176,4364,14164,-1018,1626,579,2025-02-17 10:30:24,0.0
12976,3224,15288,-710,256,400,2025-02-17 10:30:24,0.0
13848,3416,14492,-240,37,-49,2025-02-17 10:30:24,0.0
12756,4616,13372,-172,364,145,2025-02-17 10:30:24,0.0
12140,4304,13660,-263,396,454,2025-02-17 10:30:24,0.0
13268,3540,13764,-326,254,383,2025-02-17 10:30:24,
13836,3168,14732,60,225,-42,2025-02-17 10:30:24,0.0
13236,3860,13380,132,977,-292,2025-02-17 10:30:24,0.0
12852,5064,14048,106,595,54,2025-02-17 10:30:24,0.0
10896,3516,13348,-131,-705,294,2025-02-17 10:30:24,0.0
11800,3744,14148,131,-1029,697,2025-02-17 10:30:24,0.0
13748,4052,14340,244,-1055,956,2025-02-17 10:30:24,0.0
15432,4296,14360,392,-339,427,2025-02-17 10:30:26,0.0
15344,4248,13600,378,942,-192,2025-02-17 10:30:26,0.0
13736,3560,12944,229,1002,-449,2025-02-17 10:30:26,0.0
12228,4408,13292,-153,267,-363,2025-02-17 10:30:26,0.0
12384,4288,14428,-237,-411,-49,2025-02-17 10:30:26,0.0
13208,4772,13544,-540,-588,140,2025-02-17 10:30:26,0.0
13624,4080,13992,-254,-545,-7,2025-02-17 10:30:26,0.0
14268,3584,13696,118,235,-277,2025-02-17 10:30:26,0.0
15012,3676,13764,333,1833,-915,2025-02-17 10:30:26,0.0
1204,13780,3240,4888,23467,79,2025-02-17 10:30:26,0.0
796,13396,2436,5743,26026,1399,2025-02-17 10:30:26,0.0
1304,13140,1148,5424,27946,2703,2025-02-17 10:30:26,0.0
1312,13000,196,3916,29082,3187,2025-02-17 10:30:26,0.0
3748,12616,-84,1861,29040,2771,2025-02-17 10:30:26,0.0
4248,12404,508,9,28414,1386,2025-02-17 10:30:26,0.0
4020,12276,2136,-949,27366,-35,2025-02-17 10:30:26,0.0
2948,12432,3460,-507,26632,-686,2025-02-17 10:30:27,0.0
2032,12564,3612,423,25604,-550,2025-02-17 10:30:27,0.0
3428,13344,4572,2010,25386,-1163,2025-02-17 10:30:27,0.0
4408,13888,2808,3560,24857,-1697,2025-02-17 10:30:27,0.0
2208,16580,2388,5943,24745,-1526,2025-02-17 10:30:27,0.0
4784,14372,1268,5631,23779,-3104,2025-02-17 10:30:27,0.0
6856,11996,-3124,-1559,11458,-2279,2025-02-17 10:30:27,0.0
9400,11344,-1156,-10701,-6581,-817,2025-02-17 10:30:27,0.0
11656,11572,5440,-13973,-16028,-6380,2025-02-17 10:30:27,0.0
8472,13124,10924,-10952,-23328,-11948,2025-02-17 10:30:27,0.0
2448,14512,13960,-5038,-29883,-12108,2025-02-17 10:30:27,0.0
972,15820,11480,1064,-32768,-8263,2025-02-17 10:30:27,0.0
1260,15844,7620,6184,-32768,-5023,2025-02-17 10:30:27,0.0
4616,13852,516,5230,-32768,-6322,2025-02-17 10:30:27,0.0
3760,14232,-2160,594,-32768,-10127,2025-02-17 10:30:27,0.0
2012,13992,-2784,-2844,-30107,-12642,2025-02-17 10:30:27,0.0
92,13684,-2996,-5332,-22544,-14345,2025-02-17 10:30:27,0.0
-1420,14308,-1684,-8214,-14828,-13981,2025-02-17 10:30:27,0.0
-320,14644,1780,-8142,-5385,-13282,2025-02-17 10:30:27,0.0
1032,14680,3368,-6104,2555,-14262,2025-02-17 10:30:27,0.0
1392,14016,3476,-3864,8736,-14895,2025-02-17 10:30:27,0.0
2244,13236,3048,-3875,13544,-16804,2025-02-17 10:30:27,0.0
1888,12128,3348,-5038,17497,-19930,2025-02-17 10:30:27,0.0
516,11112,3120,-6742,19429,-21289,2025-02-17 10:30:27,0.0
-1468,11416,6032,-6410,21108,-21689,2025-02-17 10:30:27,0.0
-2332,11272,8336,-1349,23911,-22214,2025-02-17 10:30:27,0.0
-2004,10492,4288,2103,27036,-23761,2025-02-17 10:30:27,0.0
-2464,9628,532,2585,30872,-26529,2025-02-17 10:30:27,0.0
-4408,8540,-1556,1979,32767,-29619,2025-02-17 10:30:27,0.0
-7236,7632,-2348,1770,32767,-30895,2025-02-17 10:30:27,0.0
-8480,6932,-2440,2891,32767,-29597,2025-02-17 10:30:27,0.0
-8832,6440,-1500,5683,32767,-27157,2025-02-17 10:30:27,0.0
-6692,5564,-2052,8561,28261,-25773,2025-02-17 10:30:27,0.0
-5840,6048,-2848,10910,21210,-26267,2025-02-17 10:30:27,0.0
-7372,7504,-5068,11850,13254,-26156,2025-02-17 10:30:27,0.0
-7856,8144,-6840,11613,5598,-24913,2025-02-17 10:30:27,0.0
-8972,7132,-8232,9873,-421,-24150,2025-02-17 10:30:27,0.0
-10480,5456,-9416,6861,-5136,-23095,2025-02-17 10:30:27,0.0
-14460,2996,-6244,4083,-9439,-19433,2025-02-17 10:30:27,0.0
-13460,2848,-6908,1388,-12608,-15710,2025-02-17 10:30:27,0.0
-14580,4872,-3832,691,-12904,-14097,2025-02-17 10:30:27,0.0
-15092,7224,-3508,23,-11961,-12934,2025-02-17 10:30:27,0.0
-14064,7220,-1624,-199,-10875,-11585,2025-02-17 10:30:27,0.0
-12716,5144,-468,1099,-9961,-10508,2025-02-17 10:30:27,0.0
-12444,2596,-800,696,-9762,-9731,2025-02-17 10:30:27,0.0
-13068,1424,-4,121,-9514,-8495,2025-02-17 10:30:27,0.0
-15088,1524,896,678,-8041,-7159,2025-02-17 10:30:27,0.0
-15540,1872,-72,965,-6055,-5809,2025-02-17 10:30:27,0.0
-16936,1240,996,227,-3595,-5313,2025-02-17 10:30:27,0.0
-14624,392,8,248,-1300,-5560,2025-02-17 10:30:27,0.0
-15116,-876,-208,-85,551,-5707,2025-02-17 10:30:27,0.0
-16340,-2400,-72,-1559,1693,-4747,2025-02-17 10:30:27,0.0
-14836,-3312,-608,-2379,1790,-4239,2025-02-17 10:30:27,0.0
-13984,-2908,-1620,-3263,1603,-4560,2025-02-17 10:30:27,0.0
-14524,-1848,-936,-3967,1285,-4308,2025-02-17 10:30:27,0.0
-14720,-1656,-848,-4086,881,-3968,2025-02-17 10:30:27,0.0
-14148,-1716,-1664,-4073,101,-3061,2025-02-17 10:30:27,0.0
-14700,-1320,-1588,-4175,-556,-2345,2025-02-17 10:30:27,0.0
-14976,-96,-1480,-3839,-682,-1782,2025-02-17 10:30:27,0.0
-16168,788,-1736,-3607,-105,-1294,2025-02-17 10:30:27,0.0
-15956,1324,-2332,-3526,797,-844,2025-02-17 10:30:27,0.0
-15952,1788,-2360,-3267,1852,-817,2025-02-17 10:30:28,0.0
-15752,2764,-2028,-2534,2862,-652,2025-02-17 10:30:28,0.0
-15604,4952,19756,4596,-15298,-960,2025-02-17 10:30:28,0.0
-15868,1384,4276,9150,-21656,-1671,2025-02-17 10:30:28,0.0
-15324,604,-6248,5895,-19780,-2653,2025-02-17 10:30:28,0.0
-17344,808,-752,1644,-8841,-2853,2025-02-17 10:30:28,0.0
-11884,92,2632,787,-3821,-3154,2025-02-17 10:30:28,0.0
-12836,100,1608,652,-2404,-3251,2025-02-17 10:30:28,0.0
-13008,1128,-632,-272,-1566,-2997,2025-02-17 10:30:28,0.0
-14428,1816,-1684,-2006,-1302,-2580,2025-02-17 10:30:28,0.0
-14568,740,780,-2877,-813,-1406,2025-02-17 10:30:28,0.0
-14644,108,2680,-2510,381,96,2025-02-17 10:30:28,0.0
-13304,652,2508,-2202,1555,376,2025-02-17 10:30:28,0.0
-11560,28,1160,-1933,1848,-150,2025-02-17 10:30:28,0.0
-13512,76,2336,-640,1761,-858,2025-02-17 10:30:28,0.0
-14160,352,1228,-699,1028,-784,2025-02-17 10:30:28,0.0
-13596,920,264,-2369,384,-978,2025-02-17 10:30:28,
-13896,1496,196,-3765,1090,-831,2025-02-17 10:30:28,0.0
-13616,1332,128,-4707,2507,-182,2025-02-17 10:30:28,0.0
-13792,956,-88,-5477,4315,280,2025-02-17 10:30:28,0.0
-13580,-704,-48,-5177,5137,-145,2025-02-17 10:30:28,0.0
-14180,-1036,-696,-5154,4566,-945,2025-02-17 10:30:28,0.0
-15112,-1084,-1524,-6008,2661,-1592,2025-02-17 10:30:28,0.0
-15880,-700,-2736,-7762,1180,-1387,2025-02-17 10:30:28,0.0
-14332,-1064,-932,-8757,276,-1009,2025-02-17 10:30:28,0.0
-14112,-304,-256,-9344,454,-332,2025-02-17 10:30:28,0.0
-12296,-1372,-572,-9989,1063,-780,2025-02-17 10:30:28,0.0
-12884,-2512,-1624,-11105,1735,-1897,2025-02-17 10:30:28,0.0
-13876,-3192,-1220,-11893,2614,-1432,2025-02-17 10:30:28,0.0
-13624,-2540,-1928,-12897,3719,-1233,2025-02-17 10:30:28,0.0
-14688,-2420,-756,-13462,4283,-1454,2025-02-17 10:30:28,0.0
-14288,-2156,-496,-13403,4200,-1357,2025-02-17 10:30:28,0.0
-13860,-2352,-976,-13210,3494,-1951,2025-02-17 10:30:28,0.0
-14768,-2308,-948,-13054,1570,-2605,2025-02-17 10:30:28,0.0
-15040,-2168,-2232,-13671,-460,-2167,2025-02-17 10:30:28,0.0
-13920,-1716,-2368,-14440,-2202,-2052,2025-02-17 10:30:28,0.0
-12784,-1688,-2544,-14397,-3992,-2985,2025-02-17 10:30:28,0.0
-12712,-2080,-3684,-15164,-4659,-3111,2025-02-17 10:30:28,0.0
-12868,-2000,-4476,-16895,-3388,-2421,2025-02-17 10:30:28,0.0
-12380,-2468,-2272,-17765,-1788,-1891,2025-02-17 10:30:28,0.0
-11768,-3884,-2360,-17689,-1281,-1258,2025-02-17 10:30:28,0.0
-11504,-4752,-2672,-17627,-1361,-969,2025-02-17 10:30:28,0.0
-11876,-4984,-2148,-17807,-1272,-842,2025-02-17 10:30:28,0.0
-12200,-4744,-2180,-18514,-660,-844,2025-02-17 10:30:28,0.0
-12788,-4228,-1044,-19095,1275,-835,2025-02-17 10:30:28,0.0
-13684,-3628,-768,-19078,4445,-671,2025-02-17 10:30:28,0.0
-14468,-2320,300,-18676,5617,-753,2025-02-17 10:30:28,0.0
-15384,-452,-184,-17297,5269,-947,2025-02-17 10:30:28,0.0
-15660,1400,-1276,-16218,5459,-1563,2025-02-17 10:30:28,0.0
-15228,1128,-996,-15267,4424,-2620,2025-02-17 10:30:28,0.0
-15604,-416,-360,-14660,2748,-2532,2025-02-17 10:30:28,0.0
-14892,-2088,384,-14557,1312,-1894,2025-02-17 10:30:28,0.0
-14456,-2416,596,-14585,-530,-1331,2025-02-17 10:30:28,0.0
-14120,-2708,4,-15308,-2141,-735,2025-02-17 10:30:28,0.0
-14280,-1900,620,-15531,-2104,-419,2025-02-17 10:30:28,0.0
-15540,264,740,-15061,-1150,-5,2025-02-17 10:30:28,0.0
-15580,1620,-144,-14838,-1475,467,2025-02-17 10:30:28,0.0
-14832,1516,-176,-14884,-3058,921,2025-02-17 10:30:28,0.0
-13012,380,388,-14908,-4712,642,2025-02-17 10:30:28,0.0
-11960,-300,344,-14514,-4552,-238,2025-02-17 10:30:28,0.0
-11640,-348,244,-14153,-2542,-953,2025-02-17 10:30:28,0.0
-11800,-316,-140,-14005,-263,-1610,2025-02-17 10:30:28,0.0
-12424,-8,-40,-14581,311,-2132,2025-02-17 10:30:29,0.0
-13336,284,1004,-14570,-406,-2531,2025-02-17 10:30:29,0.0
-14216,632,1160,-14137,-1376,-2511,2025-02-17 10:30:29,0.0
-14928,964,852,-13888,-1940,-1882,2025-02-17 10:30:29,0.0
-14356,984,904,-13417,-2241,-1325,2025-02-17 10:30:29,0.0
-13616,800,-8,-13220,-2390,-1383,2025-02-17 10:30:29,0.0
-13272,272,-516,-13639,-2010,-1313,2025-02-17 10:30:29,0.0
-12836,-432,-92,-13728,-1218,-1473,2025-02-17 10:30:29,0.0
-12800,-12,-148,-13888,-176,-1603,2025-02-17 10:30:29,0.0
-12748,452,-264,-14549,1296,-1699,2025-02-17 10:30:29,0.0
-13068,764,-728,-14841,2008,-1816,2025-02-17 10:30:29,0.0
-13008,456,-424,-14976,2107,-2092,2025-02-17 10:30:29,0.0
-13800,360,-420,-14881,2063,-1886,2025-02-17 10:30:29,0.0
-13716,-104,-688,-15024,1519,-1965,2025-02-17 10:30:29,0.0
-13652,-436,-56,-15040,888,-2025,2025-02-17 10:30:29,0.0
-13804,-588,188,-14966,659,-1791,2025-02-17 10:30:29,0.0
-13304,-740,280,-14908,345,-1782,2025-02-17 10:30:29,0.0
-13460,-732,392,-14779,211,-1920,2025-02-17 10:30:29,0.0
-13172,-1040,180,-14687,309,-2135,2025-02-17 10:30:29,0.0
-12908,-744,-268,-14626,109,-2215,2025-02-17 10:30:29,0.0
-12928,-320,-1004,-14730,-147,-2321,2025-02-17 10:30:29,0.0
-13344,-60,-1112,-14246,1726,-2369,2025-02-17 10:30:29,0.0
-14376,-928,-2860,-13850,4935,-1889,2025-02-17 10:30:29,0.0
-15792,-2832,-4384,-14715,8640,-1172,2025-02-17 10:30:29,0.0
-15164,-3164,-3112,-15263,8459,-688,2025-02-17 10:30:29,0.0
-13584,-2964,-1480,-14705,4438,-1023,2025-02-17 10:30:29,0.0
-12660,-3692,-760,-13997,2343,-2639,2025-02-17 10:30:29,0.0
-12848,-4016,928,-13955,1502,-3370,2025-02-17 10:30:29,0.0
-14760,-2624,1360,-13246,1514,-2251,2025-02-17 10:30:29,0.0
-14376,-1272,-96,-12337,1997,-1016,2025-02-17 10:30:29,0.0
-14140,-332,-1552,-11292,3120,-1199,2025-02-17 10:30:29,0.0
-13624,-168,-3112,-11163,3169,-2539,2025-02-17 10:30:29,0.0
-14056,-608,-2792,-11478,2288,-3724,2025-02-17 10:30:29,0.0
-14452,-1980,-2284,-11622,489,-4350,2025-02-17 10:30:29,0.0
-14208,-3760,-1888,-11821,-1763,-4144,2025-02-17 10:30:29,0.0
-13760,-4088,-2408,-12010,-2618,-3444,2025-02-17 10:30:29,0.0
-12992,-3472,-2968,-12540,-1972,-3048,2025-02-17 10:30:29,0.0
-12528,-2996,-3348,-13377,-338,-3372,2025-02-17 10:30:29,0.0
-13064,-3092,-2712,-13721,989,-3175,2025-02-17 10:30:29,0.0
-13340,-2628,-2688,-13549,1429,-2760,2025-02-17 10:30:29,0.0
-13592,-1896,-2996,-13388,890,-2463,2025-02-17 10:30:29,0.0
-13628,-1612,-2332,-13004,139,-2149,2025-02-17 10:30:29,0.0
-13424,-2060,-1836,-12497,-579,-1906,2025-02-17 10:30:29,0.0
-13472,-3008,-2268,-12191,-647,-1743,2025-02-17 10:30:29,0.0
-13320,-2980,-3228,-12169,152,-1777,2025-02-17 10:30:29,0.0
-13588,-2852,-3344,-12532,1159,-2028,2025-02-17 10:30:29,0.0
-14376,-2468,-2392,-12820,608,-1828,2025-02-17 10:30:29,0.0
-13924,-1988,-1844,-12685,-1612,-1079,2025-02-17 10:30:29,0.0
-13596,-1840,-1520,-12600,-3685,-376,2025-02-17 10:30:29,0.0
-13092,-1836,-1572,-12377,-4402,408,2025-02-17 10:30:29,0.0
-12416,-1688,-2240,-11862,-3065,727,2025-02-17 10:30:29,0.0
-12040,-612,-3180,-11871,330,386,2025-02-17 10:30:29,0.0
-11940,140,-3132,-11651,4296,-571,2025-02-17 10:30:29,0.0
-12944,660,-2036,-11601,6323,-1588,2025-02-17 10:30:29,0.0
-14020,476,-512,-11134,5468,-1668,2025-02-17 10:30:29,
-14392,-188,-652,-10394,3718,-1410,2025-02-17 10:30:29,0.0
-14208,-564,-1276,-9833,2506,-1166,2025-02-17 10:30:29,0.0
-14052,-328,-1868,-9546,1908,-985,2025-02-17 10:30:29,0.0
-13896,-144,-1788,-9344,1615,-1035,2025-02-17 10:30:29,0.0
-14032,440,-1072,-9073,1204,-1098,2025-02-17 10:30:29,0.0
-14348,880,-296,-8290,280,-947,2025-02-17 10:30:29,0.0
-14492,1188,-704,-7720,-637,-643,2025-02-17 10:30:29,0.0
-13784,988,-564,-7145,-1488,-405,2025-02-17 10:30:30,0.0
-13068,384,-592,-6744,-2035,-681,2025-02-17 10:30:30,0.0
-12556,-108,-812,-6557,-1758,-1005,2025-02-17 10:30:30,0.0
-12680,-192,-768,-6440,-603,-1201,2025-02-17 10:30:30,0.0
-12652,-196,-264,-6321,635,-1253,2025-02-17 10:30:30,0.0
-12944,-20,0,-6126,1361,-1412,2025-02-17 10:30:30,0.0
-13600,124,36,-5795,1164,-1499,2025-02-17 10:30:30,0.0
-13548,568,-32,-5375,372,-1691,2025-02-17 10:30:30,0.0
-13704,760,-324,-5199,-131,-1831,2025-02-17 10:30:30,0.0
-13632,244,-312,-4980,-188,-1737,2025-02-17 10:30:30,0.0
-13412,-220,-180,-4461,139,-1596,2025-02-17 10:30:30,0.0
-13248,-480,-1064,-4113,1231,-1279,2025-02-17 10:30:30,0.0
-13472,-300,-1596,-4023,2885,-1183,2025-02-17 10:30:30,0.0
-13948,-112,-1968,-4052,4285,-978,2025-02-17 10:30:30,0.0
-13416,420,-2428,-4170,4744,-1368,2025-02-17 10:30:30,0.0
-12992,840,-1948,-4074,4541,-2104,2025-02-17 10:30:30,0.0
-12972,904,-1196,-3491,3533,-2901,2025-02-17 10:30:30,0.0
-13468,752,-456,-2666,2221,-3251,2025-02-17 10:30:30,0.0
-13712,360,-132,-1539,1461,-3070,2025-02-17 10:30:30,0.0
-14300,76,-372,-702,1015,-2474,2025-02-17 10:30:30,0.0
-14588,-92,-908,-388,765,-1606,2025-02-17 10:30:30,0.0
-14568,144,-1320,-116,438,-983,2025-02-17 10:30:30,0.0
-14312,204,-2044,-48,-87,-389,2025-02-17 10:30:30,0.0
-14036,192,-1484,-56,-187,71,2025-02-17 10:30:30,0.0
-13672,324,-1180,105,67,398,2025-02-17 10:30:30,0.0
-13560,508,-1656,378,-115,760,2025-02-17 10:30:30,0.0
-13516,1056,-1832,603,-393,1044,2025-02-17 10:30:30,0.0
-12896,1260,-2240,662,-438,946,2025-02-17 10:30:30,0.0
-12436,1488,-2080,574,-547,239,2025-02-17 10:30:30,0.0
-13616,1796,-1280,511,-705,-551,2025-02-17 10:30:30,0.0
-12888,1532,-2000,514,-1362,-1163,2025-02-17 10:30:30,0.0
-14060,-496,-2756,297,849,-1308,2025-02-17 10:30:30,0.0
-14140,-548,-3436,131,1679,-575,2025-02-17 10:30:30,0.0
-13632,-376,-3608,-442,2143,80,2025-02-17 10:30:30,0.0
-12428,-568,-2392,-696,2295,-364,2025-02-17 10:30:30,0.0
-11896,-1228,-1940,-961,2142,-1823,2025-02-17 10:30:30,0.0
-12964,-1976,-1868,-1349,2241,-2344,2025-02-17 10:30:30,0.0
-13620,-2564,-1636,-1895,2648,-1899,2025-02-17 10:30:30,0.0
-13440,-2632,-1328,-2328,3263,-1675,2025-02-17 10:30:30,0.0
-13304,-1988,-928,-2431,3391,-1726,2025-02-17 10:30:31,0.0
-16116,-3452,-1792,-2796,1229,-821,2025-02-17 10:30:31,0.0
-15868,-3628,-1820,-2780,86,-637,2025-02-17 10:30:31,0.0
-15324,-3232,-1076,-2444,-1154,-366,2025-02-17 10:30:31,0.0
-14972,-3516,-2116,-2138,-1293,-316,2025-02-17 10:30:31,0.0
-15288,-2956,-3408,-2150,151,-430,2025-02-17 10:30:31,0.0
-16572,-3104,-3496,-1963,2308,-285,2025-02-17 10:30:31,0.0
-17148,-4188,-3592,-2119,2323,-53,2025-02-17 10:30:31,0.0
-17492,-4724,-3844,-1965,-465,515,2025-02-17 10:30:31,0.0
-16736,-4248,-5488,-2246,-3150,1673,2025-02-17 10:30:31,0.0
-14900,-2884,-5704,-2065,-4169,2239,2025-02-17 10:30:31,0.0
-12792,-1680,-5744,-1116,-4896,2326,2025-02-17 10:30:31,0.0
-11336,-1672,-6288,-682,-5746,2449,2025-02-17 10:30:31,0.0
-10048,-1224,-6320,-517,-6106,2689,2025-02-17 10:30:31,0.0
-9324,-80,-5104,483,-4303,2657,2025-02-17 10:30:31,0.0
-9736,1320,-4292,1263,215,2208,2025-02-17 10:30:31,0.0
-11428,1532,-4360,1131,4034,1871,2025-02-17 10:30:31,0.0
-12784,560,-4584,1038,5960,2484,2025-02-17 10:30:31,0.0
-12536,-492,-5724,1056,6136,2965,2025-02-17 10:30:31,0.0
-12288,-564,-6328,627,5508,3084,2025-02-17 10:30:31,0.0
-14220,-1020,-5256,548,4904,3459,2025-02-17 10:30:31,0.0
-13332,-944,-5944,153,4311,3707,2025-02-17 10:30:31,0.0
-11972,-912,-6520,-245,3567,3139,2025-02-17 10:30:31,0.0
-11816,-400,-5056,-279,2020,2567,2025-02-17 10:30:31,0.0
-11460,428,-4380,-440,-272,2376,2025-02-17 10:30:31,0.0
-11080,1076,-4024,-266,-1979,2656,2025-02-17 10:30:31,0.0
-10548,1256,-4048,357,-2185,2852,2025-02-17 10:30:31,0.0
-10656,1600,-3392,1124,-1790,3090,2025-02-17 10:30:31,0.0
-10416,1856,-2880,1940,-1126,3104,2025-02-17 10:30:31,0.0
-10424,1688,-2696,2534,-990,2881,2025-02-17 10:30:31,0.0
-10336,1416,-2972,2941,-920,2716,2025-02-17 10:30:31,0.0
-10140,1384,-3220,3264,-799,2180,2025-02-17 10:30:31,0.0
-9744,1364,-3508,3190,-1023,1185,2025-02-17 10:30:31,0.0
-14088,724,-2556,1373,-510,-383,2025-02-17 10:30:31,0.0
-14172,636,-2216,977,-1467,-415,2025-02-17 10:30:31,0.0
-14144,600,-2252,1189,-2629,-158,2025-02-17 10:30:31,0.0
-13968,496,-3504,1410,-3190,403,2025-02-17 10:30:31,0.0
-12244,-272,-5536,1342,-2784,477,2025-02-17 10:30:31,0.0
-13352,1204,-4988,529,-883,533,2025-02-17 10:30:31,0.0
-13924,1656,-2688,168,2353,577,2025-02-17 10:30:31,0.0
-14176,524,-792,96,3772,138,2025-02-17 10:30:31,0.0
-15132,-1100,-420,-104,3956,-455,2025-02-17 10:30:31,0.0
-17256,-1396,-68,748,4585,-238,2025-02-17 10:30:31,0.0
-18472,448,-1924,2623,4148,1040,2025-02-17 10:30:31,0.0
-18852,3732,-5072,3951,1645,2220,2025-02-17 10:30:31,0.0
-17448,5320,-7488,3478,-904,2037,2025-02-17 10:30:31,0.0
-16116,4892,-7016,2557,-2844,692,2025-02-17 10:30:31,0.0
-14676,3944,-5968,3477,-3288,-443,2025-02-17 10:30:32,0.0
-14124,2680,-9192,2956,-2494,-1383,2025-02-17 10:30:32,0.0
-13052,1340,-9484,1332,-1147,-1541,2025-02-17 10:30:32,0.0
-11156,-804,-6184,918,-930,-1169,2025-02-17 10:30:32,0.0
-9416,-2368,-4336,1498,-1252,-994,2025-02-17 10:30:32,0.0
-8476,-2552,-5500,1326,-653,-1249,2025-02-17 10:30:32,0.0
-9008,-2628,-6472,275,1692,-1595,2025-02-17 10:30:32,
-10252,-1940,-6148,-434,4755,-1355,2025-02-17 10:30:32,0.0
-11084,-1252,-5252,-463,6398,-1027,2025-02-17 10:30:32,0.0
-12236,-1044,-3148,305,574,-10,2025-02-17 10:30:32,0.0
-13332,-1020,-3048,866,-389,179,2025-02-17 10:30:32,0.0
-13340,-788,-3300,1191,-1915,465,2025-02-17 10:30:32,0.0
-12888,-352,-2744,1445,-5153,467,2025-02-17 10:30:32,0.0
-12324,-576,-3304,1675,-7042,405,2025-02-17 10:30:32,0.0
-12228,-744,-3988,1332,-6534,399,2025-02-17 10:30:32,0.0
-11732,-1440,-4752,104,-4005,384,2025-02-17 10:30:32,0.0
-11112,-1592,-4808,-744,-1401,308,2025-02-17 10:30:32,0.0
-15236,-396,-3932,-3288,3049,-2652,2025-02-17 10:30:32,0.0
-17612,-428,-3412,-2850,-1655,-2933,2025-02-17 10:30:32,0.0
-17600,-2796,-4304,-2588,-5062,-2996,2025-02-17 10:30:32,0.0
-16536,-4396,-4420,-1861,-5802,-2978,2025-02-17 10:30:32,0.0
-16056,-5364,-6676,-2045,-3865,-3169,2025-02-17 10:30:32,0.0
-15084,-4768,-9332,-3266,-1117,-2962,2025-02-17 10:30:32,0.0
-14812,-3584,-8760,-4120,378,-2435,2025-02-17 10:30:32,0.0
-13380,-1764,-7852,-4252,351,-1763,2025-02-17 10:30:32,0.0
-11956,-640,-7212,-3765,-1950,-1052,2025-02-17 10:30:32,0.0
-10508,196,-5752,-2528,-5073,300,2025-02-17 10:30:32,0.0
-10516,1028,-6160,-691,-5390,1513,2025-02-17 10:30:32,0.0
-10652,1752,-6136,119,-2453,1973,2025-02-17 10:30:32,0.0
-11848,2344,-6416,-821,1226,1356,2025-02-17 10:30:32,0.0
-13096,1340,-5924,-1225,3828,885,2025-02-17 10:30:32,0.0
-14348,-208,-6456,-1545,4271,1217,2025-02-17 10:30:33,0.0
-13812,-1240,-6540,-2322,3053,1633,2025-02-17 10:30:33,0.0
-13020,-976,-5908,-2679,1738,1840,2025-02-17 10:30:33,0.0
-12864,-760,-5636,-2338,1020,2403,2025-02-17 10:30:33,0.0
-11988,-632,-5332,-2143,555,3001,2025-02-17 10:30:33,0.0
-11096,-28,-4824,-2287,-279,2834,2025-02-17 10:30:33,0.0
-10216,820,-4180,-2193,-1606,2312,2025-02-17 10:30:33,0.0
-10196,1488,-4188,-2289,-2407,1652,2025-02-17 10:30:33,0.0
-10284,1748,-4032,-2322,-1606,1369,2025-02-17 10:30:33,0.0
-13352,424,-3544,-718,1241,-695,2025-02-17 10:30:33,0.0
-13888,1000,-3140,-760,952,-536,2025-02-17 10:30:33,0.0
-14224,1140,-2476,-468,-481,-413,2025-02-17 10:30:33,0.0
-14412,816,-1728,-39,-2665,-269,2025-02-17 10:30:33,0.0
-14240,428,-2200,697,-3739,-63,2025-02-17 10:30:33,0.0
-13608,852,-3176,1192,-3350,4,2025-02-17 10:30:33,0.0
-13656,1668,-3012,1654,-1960,-13,2025-02-17 10:30:33,0.0
-14276,1844,-2328,2208,-1000,217,2025-02-17 10:30:33,0.0
-14644,1100,-1532,2694,-1045,362,2025-02-17 10:30:33,0.0
-14896,88,-928,2952,-1552,279,2025-02-17 10:30:33,0.0
-15136,-108,96,3598,-1851,329,2025-02-17 10:30:33,0.0
-16664,1148,-12,4920,-1199,1362,2025-02-17 10:30:33,0.0
-15720,1188,-3712,5635,-949,1781,2025-02-17 10:30:33,0.0
-16432,1704,-6332,5326,-796,1554,2025-02-17 10:30:33,0.0
-16408,2600,-8904,4619,-1036,1318,2025-02-17 10:30:33,0.0
-15776,2852,-10184,3987,-1651,981,2025-02-17 10:30:33,0.0
-14148,2856,-9948,3231,-3266,866,2025-02-17 10:30:33,0.0
-12004,1632,-6940,2810,-4575,939,2025-02-17 10:30:33,0.0
-9884,316,-4432,3307,-4257,1083,2025-02-17 10:30:33,0.0
-7952,-924,-4148,3414,-2316,615,2025-02-17 10:30:33,0.0
-7896,-844,-5196,2917,3,-1151,2025-02-17 10:30:33,0.0
-12032,-648,-6972,1689,3886,-2899,2025-02-17 10:30:33,0.0
-13868,-272,-6884,1157,5559,-3129,2025-02-17 10:30:33,0.0
-14768,24,-5788,935,4088,-2397,2025-02-17 10:30:33,0.0
-13952,404,-4768,1158,858,-1628,2025-02-17 10:30:33,0.0
-13096,436,-4000,1499,-1419,-1579,2025-02-17 10:30:33,0.0
-12008,256,-4616,1773,-2165,-1869,2025-02-17 10:30:33,0.0
-11280,72,-5444,1658,-1814,-2117,2025-02-17 10:30:33,0.0
-10800,-144,-5740,1383,-1014,-1989,2025-02-17 10:30:33,0.0
-10416,-736,-5216,723,130,-1897,2025-02-17 10:30:33,0.0
-10832,-1332,-4204,244,1372,-1859,2025-02-17 10:30:33,0.0
-11060,-1572,-4208,-86,2265,-1704,2025-02-17 10:30:33,0.0
-11716,-1260,-4292,-548,2236,-1475,2025-02-17 10:30:33,0.0
-11804,-1248,-4004,-928,1224,-1235,2025-02-17 10:30:33,0.0
-11580,-1408,-4040,-1101,722,-1004,2025-02-17 10:30:33,0.0
-11144,-1356,-4104,-1152,1190,-890,2025-02-17 10:30:33,0.0
-11092,-1260,-4244,-1172,2039,-703,2025-02-17 10:30:33,0.0
-11388,-1220,-4368,-1259,3189,-417,2025-02-17 10:30:33,0.0
-11508,-1192,-4124,-1503,3856,-482,2025-02-17 10:30:33,0.0
-12376,-844,-3648,-1498,2942,-628,2025-02-17 10:30:33,0.0
-13208,-628,-3332,-1134,1404,-385,2025-02-17 10:30:33,0.0
-13440,-316,-3068,-683,-919,-35,2025-02-17 10:30:33,0.0
-13284,-596,-3400,-241,-2466,99,2025-02-17 10:30:33,0.0
-13232,-928,-3652,-316,-2735,22,2025-02-17 10:30:33,0.0
-13308,-1048,-4336,-621,-2208,-160,2025-02-17 10:30:33,0.0
-13612,-800,-4052,-1260,-1586,-468,2025-02-17 10:30:33,0.0
-13716,-820,-3188,-1465,-1246,-778,2025-02-17 10:30:33,0.0
-14096,-968,-2988,-1726,-1513,-746,2025-02-17 10:30:33,0.0
-13872,-1128,-2508,-1761,-2232,-488,2025-02-17 10:30:33,0.0
-14428,-1328,-2836,-1531,-2344,41,2025-02-17 10:30:33,0.0
-14316,-1024,-4124,-1806,-2213,699,2025-02-17 10:30:33,0.0
-13492,-1008,-5476,-2293,-1987,593,2025-02-17 10:30:33,0.0
-13728,-1176,-5620,-2523,-969,81,2025-02-17 10:30:33,0.0
-12272,-884,-7252,-2693,1638,-404,2025-02-17 10:30:33,0.0
-11656,68,-6476,-2751,870,-397,2025-02-17 10:30:33,0.0
-11396,1060,-5416,-2777,-112,-427,2025-02-17 10:30:34,0.0
-11420,1924,-4160,-2378,-326,-422,2025-02-17 10:30:34,0.0
-11740,2200,-4120,-1812,-108,-183,2025-02-17 10:30:34,0.0
-12188,1396,-5560,-1255,924,101,2025-02-17 10:30:34,0.0
-12924,880,-6536,-1667,3078,267,2025-02-17 10:30:34,0.0
-13536,332,-6552,-2287,4496,592,2025-02-17 10:30:34,0.0
-14136,52,-6808,-2626,5600,1109,2025-02-17 10:30:34,0.0
-14116,324,-6856,-3004,5967,1639,2025-02-17 10:30:34,0.0
-13348,688,-6108,-2927,3917,1687,2025-02-17 10:30:34,0.0
-13496,1192,-5324,-2585,1412,1623,2025-02-17 10:30:34,0.0
-12984,1360,-5008,-2027,-768,1862,2025-02-17 10:30:34,0.0
-11868,1416,-5656,-1470,-1783,2114,2025-02-17 10:30:34,
-10852,1244,-5160,-1121,-1690,2056,2025-02-17 10:30:34,0.0
-10156,1152,-4372,-501,-1405,1838,2025-02-17 10:30:34,0.0
-10724,1392,-4244,1041,2416,1584,2025-02-17 10:30:34,0.0
-11956,1188,-4588,1548,2736,1442,2025-02-17 10:30:34,0.0
-12872,1408,-5772,1561,1884,1310,2025-02-17 10:30:34,0.0
-13036,1756,-5416,1633,-728,1030,2025-02-17 10:30:34,0.0
-12720,1948,-4756,1604,-3373,376,2025-02-17 10:30:34,0.0
-11984,1448,-4352,1229,-4490,-250,2025-02-17 10:30:34,0.0
-11384,1020,-4332,900,-4285,-897,2025-02-17 10:30:34,0.0
-11232,1084,-4528,389,-3563,-1328,2025-02-17 10:30:34,0.0
-10920,1436,-4268,52,-2677,-1470,2025-02-17 10:30:34,0.0
-10696,2436,-3056,406,-1854,-1652,2025-02-17 10:30:34,0.0
-10456,2112,-4040,447,-871,-2374,2025-02-17 10:30:34,0.0
-11152,1504,-4528,164,384,-2944,2025-02-17 10:30:34,0.0
-11836,1064,-3736,310,1139,-2991,2025-02-17 10:30:34,0.0
-12844,620,-4584,455,1984,-2816,2025-02-17 10:30:34,0.0
-14164,-156,-5412,-197,3402,-2114,2025-02-17 10:30:34,0.0
-14920,-676,-6776,-928,4246,-1194,2025-02-17 10:30:34,0.0
-14576,-472,-7852,-1611,4474,-632,2025-02-17 10:30:34,0.0
-13688,92,-8348,-2277,3760,-457,2025-02-17 10:30:34,0.0
-12776,516,-6872,-2665,2195,-380,2025-02-17 10:30:34,0.0
-11832,1020,-4704,-2272,503,-203,2025-02-17 10:30:34,0.0
-11244,1200,-4300,-1698,198,-64,2025-02-17 10:30:34,0.0
-10760,1320,-5168,-1433,1815,-222,2025-02-17 10:30:34,0.0
-11108,1572,-5992,-1381,3000,-762,2025-02-17 10:30:34,0.0
-12380,1560,-5644,-1366,2892,-804,2025-02-17 10:30:35,0.0
-12032,1892,-7880,-10004,1241,-5905,2025-02-17 10:30:35,0.0
-12080,804,-8020,-10363,10,-7021,2025-02-17 10:30:35,0.0
-13188,-588,-8628,-11694,-1532,-8199,2025-02-17 10:30:35,0.0
-13000,-1376,-8716,-12789,-3207,-8686,2025-02-17 10:30:35,0.0
-13096,-1656,-8296,-13658,-4258,-8412,2025-02-17 10:30:35,0.0
-12264,-1848,-7868,-14451,-4321,-7728,2025-02-17 10:30:35,0.0
-10696,-1608,-6968,-15272,-3703,-7756,2025-02-17 10:30:35,0.0
-10668,-1284,-7252,-16492,-2267,-8006,2025-02-17 10:30:35,0.0
-11040,-1284,-7240,-17516,-393,-7977,2025-02-17 10:30:35,0.0
-11476,-1820,-7012,-18020,703,-7871,2025-02-17 10:30:35,0.0
-11716,-2400,-7236,-18176,750,-7703,2025-02-17 10:30:35,0.0
-11624,-2232,-7588,-18425,407,-7619,2025-02-17 10:30:35,0.0
-11148,-2096,-8096,-18728,-343,-7630,2025-02-17 10:30:35,0.0
-10516,-1948,-8228,-19102,-907,-7761,2025-02-17 10:30:35,0.0
-10248,-2208,-7680,-19454,-1244,-7949,2025-02-17 10:30:35,0.0
-10540,-2072,-7684,-19587,-408,-7999,2025-02-17 10:30:35,0.0
-10784,-2020,-7724,-19608,574,-7975,2025-02-17 10:30:35,0.0
-12272,-2812,-6204,-19075,-1891,-7856,2025-02-17 10:30:35,0.0
-12080,-3176,-6648,-19266,-2578,-7876,2025-02-17 10:30:35,0.0
-11992,-2864,-5876,-19290,-3106,-7718,2025-02-17 10:30:35,0.0
-11736,-1508,-4996,-19231,-3546,-7821,2025-02-17 10:30:35,0.0
-12012,-980,-4636,-20005,-3933,-8004,2025-02-17 10:30:35,0.0
-11932,-756,-4444,-20724,-4651,-7943,2025-02-17 10:30:35,0.0
-11208,-1440,-4512,-20681,-6309,-8303,2025-02-17 10:30:35,0.0
-11392,-1536,-4900,-19468,-10123,-8423,2025-02-17 10:30:35,0.0
-11932,-4720,-6848,-19251,-10697,-8440,2025-02-17 10:30:35,0.0
-12784,-8256,-10160,-20116,-5460,-8502,2025-02-17 10:30:35,0.0
-14272,-8016,-10752,-22759,4544,-7465,2025-02-17 10:30:35,0.0
-12952,-4708,-5328,-23842,8259,-4633,2025-02-17 10:30:35,0.0
-11652,-3312,-2964,-23732,4454,-2507,2025-02-17 10:30:35,0.0
-12296,-1448,-3420,-23017,2524,-631,2025-02-17 10:30:35,0.0
-12036,-1000,-4980,-21438,3383,91,2025-02-17 10:30:35,0.0
-11632,-216,-6060,-19678,5909,-1393,2025-02-17 10:30:35,0.0
-11540,944,-6056,-18371,6869,-3360,2025-02-17 10:30:35,0.0
-11684,1696,-4152,-17079,4415,-4632,2025-02-17 10:30:35,0.0
-12016,1372,-3464,-15668,282,-5135,2025-02-17 10:30:35,0.0
-11492,972,-3992,-14779,-156,-5435,2025-02-17 10:30:35,0.0
-11408,1132,-5240,-14018,134,-6158,2025-02-17 10:30:35,0.0
-13532,1292,-6004,-13849,1453,-6337,2025-02-17 10:30:35,0.0
-14368,1760,-4952,-13658,2586,-5929,2025-02-17 10:30:35,0.0
-14260,1696,-4992,-13171,2389,-6090,2025-02-17 10:30:35,0.0
-13388,780,-5800,-14398,265,-6940,2025-02-17 10:30:35,0.0
-12988,336,-5596,-14880,-2205,-7399,2025-02-17 10:30:35,0.0
-13492,-328,-6364,-15477,-3070,-7113,2025-02-17 10:30:35,0.0
-13052,-708,-5092,-16541,-1174,-5801,2025-02-17 10:30:35,0.0
-12044,-968,-3264,-16300,842,-5085,2025-02-17 10:30:35,0.0
-12252,-164,-3112,-15538,1695,-5182,2025-02-17 10:30:35,0.0
-12956,428,-3396,-14899,1645,-4955,2025-02-17 10:30:35,0.0
-12856,728,-3376,-14335,1017,-4920,2025-02-17 10:30:35,0.0
-12680,948,-3584,-13633,369,-4825,2025-02-17 10:30:35,0.0
-12608,788,-3980,-13111,287,-4560,2025-02-17 10:30:35,0.0
-12112,740,-3748,-12855,763,-4345,2025-02-17 10:30:36,0.0
-12048,704,-3108,-12057,1174,-4306,2025-02-17 10:30:36,0.0
-11956,512,-3852,-11392,1071,-4236,2025-02-17 10:30:36,0.0
-12068,764,-4160,-11097,1079,-4310,2025-02-17 10:30:36,0.0
-12032,1064,-4000,-10845,1293,-4515,2025-02-17 10:30:36,0.0
-11748,1132,-4064,-10523,1328,-4687,2025-02-17 10:30:36,0.0
-11440,976,-4032,-9941,1137,-5042,2025-02-17 10:30:36,0.0
-11740,600,-3820,-9404,1025,-5230,2025-02-17 10:30:36,0.0
-11932,172,-3768,-9062,1417,-5242,2025-02-17 10:30:36,0.0
-12504,-640,-3304,-8675,1912,-5067,2025-02-17 10:30:36,0.0
-12096,-1168,-3304,-7982,1582,-5146,2025-02-17 10:30:36,0.0
-12272,-1588,-3336,-7179,804,-5080,2025-02-17 10:30:36,0.0
-12104,-1536,-3828,-6326,506,-4726,2025-02-17 10:30:36,0.0
-12944,-548,-5284,-5067,1804,-3896,2025-02-17 10:30:36,0.0
-13872,256,-7980,-3984,5306,-2543,2025-02-17 10:30:36,0.0
-15316,-664,-10432,-4046,11821,-2200,2025-02-17 10:30:36,0.0
-14388,88,-7940,-3419,10472,-2117,2025-02-17 10:30:36,0.0
-15544,-444,-2312,-1977,3739,-2111,2025-02-17 10:30:36,0.0
-15212,-1180,-608,-407,-2784,-1923,2025-02-17 10:30:36,0.0
-13648,-1512,-1388,309,-6693,-1775,2025-02-17 10:30:36,0.0
-11572,-1380,-3216,979,-8142,-1631,2025-02-17 10:30:36,0.0
-11396,-752,-4652,1558,-6941,-793,2025-02-17 10:30:36,0.0
-11348,540,-6776,998,-2508,447,2025-02-17 10:30:36,
-10616,1488,-6952,-704,1980,461,2025-02-17 10:30:36,0.0
-11980,1332,-5440,-1684,3879,7,2025-02-17 10:30:36,0.0
-13404,572,-4688,-2209,3826,120,2025-02-17 10:30:36,0.0
-13880,96,-3888,-2119,1432,234,2025-02-17 10:30:36,0.0
-13184,304,-3868,-1901,-1054,-638,2025-02-17 10:30:36,0.0
-12872,528,-4204,-2151,-1935,-1940,2025-02-17 10:30:36,0.0
-13072,48,-3768,-2126,-958,-2539,2025-02-17 10:30:36,0.0
-12892,-184,-3928,-1738,-235,-2449,2025-02-17 10:30:36,0.0
-12940,-400,-4312,-1329,307,-2248,2025-02-17 10:30:36,0.0
-13116,-764,-3916,-880,341,-1937,2025-02-17 10:30:36,0.0
-13260,-924,-3724,-376,-303,-1820,2025-02-17 10:30:36,0.0
-13196,-948,-4336,-6,-1156,-1821,2025-02-17 10:30:36,0.0
-13152,-1380,-5376,227,-2066,-1582,2025-02-17 10:30:36,0.0
-12636,-1672,-6060,172,-2616,-1169,2025-02-17 10:30:36,0.0
-11840,-1812,-5264,-271,-2718,-919,2025-02-17 10:30:36,0.0
-12132,-1436,-3464,-1110,-1637,-441,2025-02-17 10:30:36,0.0
-12404,-148,-3460,-2102,461,-49,2025-02-17 10:30:36,0.0
-12436,672,-4808,-3311,1226,4,2025-02-17 10:30:36,0.0
-12904,1064,-5332,-4379,1075,199,2025-02-17 10:30:36,0.0
-12504,384,-4416,-3538,2851,437,2025-02-17 10:30:36,0.0
-10580,728,-4548,-3118,4067,-1986,2025-02-17 10:30:36,0.0
-12692,612,-3612,-2872,3515,-3245,2025-02-17 10:30:36,0.0
-13468,-676,-2856,-1871,2632,-3166,2025-02-17 10:30:36,0.0
-13152,-1524,-3968,-1029,1342,-3542,2025-02-17 10:30:36,0.0
-13396,-1448,-4528,-1501,199,-3835,2025-02-17 10:30:36,0.0
-13156,-1496,-4500,-2033,-445,-4030,2025-02-17 10:30:36,0.0
-13360,-1632,-4140,-2421,-1041,-3657,2025-02-17 10:30:36,0.0
-12612,-1568,-4332,-2536,-1507,-2998,2025-02-17 10:30:36,0.0
-11776,-1356,-4172,-2636,-1255,-2460,2025-02-17 10:30:36,0.0
-11800,-700,-3440,-2438,-602,-2001,2025-02-17 10:30:36,0.0
-11912,-600,-3256,-1911,829,-1460,2025-02-17 10:30:36,0.0
-12112,-636,-3420,-1574,1626,-1318,2025-02-17 10:30:36,0.0
-12464,-752,-3388,-1164,1746,-1504,2025-02-17 10:30:36,0.0
-13280,-668,-3252,-822,1342,-1778,2025-02-17 10:30:36,0.0
-13356,-1064,-3628,-800,789,-1929,2025-02-17 10:30:36,0.0
-13592,-1344,-3284,-651,267,-1976,2025-02-17 10:30:36,0.0
-13316,-1420,-3432,-567,-284,-2084,2025-02-17 10:30:36,0.0
-13200,-1284,-3208,-675,-1138,-2040,2025-02-17 10:30:36,0.0
-13104,-1108,-3216,-790,-1731,-1901,2025-02-17 10:30:36,0.0
-12836,-912,-3100,-810,-1765,-1995,2025-02-17 10:30:36,0.0
-12964,-476,-3344,-987,-2216,-2161,2025-02-17 10:30:37,0.0
-13236,-436,-3220,-1297,-2706,-2271,2025-02-17 10:30:37,0.0
-13248,-592,-2220,-1469,-3642,-2379,2025-02-17 10:30:37,0.0
-12920,-844,-1672,-1450,-4955,-2322,2025-02-17 10:30:37,0.0
-12420,-1132,-1868,-1457,-5769,-2381,2025-02-17 10:30:37,0.0
-12328,-1680,-2240,-1674,-5178,-2334,2025-02-17 10:30:37,0.0
-12552,-2144,-3128,-2443,-3283,-1972,2025-02-17 10:30:37,0.0
-12608,-2488,-3240,-3224,-1263,-1631,2025-02-17 10:30:37,0.0
-12840,-2596,-2636,-3888,43,-1655,2025-02-17 10:30:37,0.0
-13024,-2776,-2068,-3993,26,-1784,2025-02-17 10:30:37,0.0
-14376,-2820,-1588,-3834,-113,-1472,2025-02-17 10:30:37,0.0
-14224,-3100,-1944,-3964,-709,-896,2025-02-17 10:30:37,0.0
-14104,-3344,-1864,-4084,-538,-582,2025-02-17 10:30:37,0.0
-14644,-3392,-1136,-4156,167,-360,2025-02-17 10:30:37,0.0
-14316,-3188,-964,-3818,-246,-495,2025-02-17 10:30:37,0.0
-14656,-3600,-1328,-3285,-1272,-822,2025-02-17 10:30:37,0.0
-14948,-3272,-4148,-2958,-1461,-1173,2025-02-17 10:30:37,0.0
-16352,-2544,-4280,-2321,-17,-1443,2025-02-17 10:30:37,0.0
-16700,-3140,-4140,-1744,1704,-1786,2025-02-17 10:30:37,0.0
-16640,-4324,-4552,-1366,1200,-2214,2025-02-17 10:30:37,0.0
-17700,-4852,-4772,-336,437,-1571,2025-02-17 10:30:37,0.0
-16628,-4128,-5732,-195,114,20,2025-02-17 10:30:37,0.0
-14308,-2864,-5608,-247,-755,63,2025-02-17 10:30:37,0.0
-14212,-1684,-4964,-165,-2671,735,2025-02-17 10:30:37,0.0
-12908,-1492,-4532,319,-5359,2164,2025-02-17 10:30:37,0.0
-11644,-1272,-5832,736,-6876,2891,2025-02-17 10:30:37,0.0
-11988,-80,-5992,347,-6234,3801,2025-02-17 10:30:37,0.0
-11612,612,-5180,-97,-3187,4854,2025-02-17 10:30:37,0.0
-10684,752,-5116,-625,110,5285,2025-02-17 10:30:37,0.0
-9504,824,-4724,-1109,1621,4247,2025-02-17 10:30:37,0.0
-9216,296,-5100,-1691,1828,2241,2025-02-17 10:30:37,0.0
-11344,-988,-4784,-2715,3823,992,2025-02-17 10:30:37,0.0
-12656,-1328,-4856,-3580,6704,1403,2025-02-17 10:30:37,0.0
-12824,-712,-4888,-4366,9457,1777,2025-02-17 10:30:37,0.0
-12840,372,-4000,-3885,8889,1101,2025-02-17 10:30:37,0.0
-13808,688,-3912,-2766,6284,728,2025-02-17 10:30:37,0.0
-14208,1144,-3296,-1950,2315,1062,2025-02-17 10:30:37,0.0
-13500,1172,-3004,-1150,-1243,1387,2025-02-17 10:30:37,0.0
-12340,1120,-3116,-746,-3519,1297,2025-02-17 10:30:37,0.0
-11364,1060,-3352,-817,-4079,1178,2025-02-17 10:30:37,0.0
-10180,872,-3268,-1027,-3675,957,2025-02-17 10:30:37,0.0
-9888,392,-3048,-772,-2358,1185,2025-02-17 10:30:37,0.0
-9932,492,-2760,-215,-188,1510,2025-02-17 10:30:37,0.0
-9716,892,-3052,256,2207,1272,2025-02-17 10:30:37,0.0
-10612,1252,-2784,196,3518,589,2025-02-17 10:30:37,0.0
-11800,1420,-2888,-191,3848,269,2025-02-17 10:30:37,0.0
-12032,856,-2728,-921,3800,-35,2025-02-17 10:30:37,0.0
-12456,228,-2480,-1124,3618,-205,2025-02-17 10:30:37,0.0
-13292,340,-2092,-832,3316,-188,2025-02-17 10:30:37,0.0
-13932,832,-2492,-860,3379,-220,2025-02-17 10:30:37,0.0
-14384,940,-2584,-960,2863,-72,2025-02-17 10:30:37,0.0
-15028,444,-1956,-682,1534,236,2025-02-17 10:30:37,0.0
-15076,244,-1952,21,-491,671,2025-02-17 10:30:37,0.0
-14932,260,-2088,606,-2178,1084,2025-02-17 10:30:37,0.0
-14108,744,-3360,911,-3341,1243,2025-02-17 10:30:37,0.0
-13664,1820,-3812,1035,-3962,1121,2025-02-17 10:30:37,0.0
-13672,2016,-3184,1226,-3909,1295,2025-02-17 10:30:37,0.0
-13872,544,-2084,2068,-2264,2118,2025-02-17 10:30:37,0.0
-13516,-520,-1812,2468,-823,2738,2025-02-17 10:30:37,0.0
-13228,-900,-740,2563,-267,2890,2025-02-17 10:30:37,
-13964,-212,-1240,2982,778,2956,2025-02-17 10:30:37,0.0
-14476,952,-3324,3596,1331,3400,2025-02-17 10:30:37,0.0
-15472,3960,-5804,4441,1221,3606,2025-02-17 10:30:38,0.0
-16872,5904,-6824,4362,-342,3787,2025-02-17 10:30:38,0.0
-16012,6028,-5444,4565,-1927,3782,2025-02-17 10:30:38,0.0
-14404,4076,-4084,4924,-2101,2256,2025-02-17 10:30:38,0.0
-14964,3224,-4880,4892,-1382,1092,2025-02-17 10:30:38,0.0
-14524,3068,-5600,4820,-1561,733,2025-02-17 10:30:38,0.0
-12668,1928,-5988,5278,-4391,-888,2025-02-17 10:30:38,0.0
-11964,-416,-7340,4571,-7423,-2260,2025-02-17 10:30:38,0.0
-11860,-1420,-7040,3387,-7831,-1786,2025-02-17 10:30:38,0.0
-10440,-2332,-5872,2202,-6222,-761,2025-02-17 10:30:38,0.0
-9124,-1740,-6296,862,-3732,-244,2025-02-17 10:30:38,0.0
-9128,-216,-6124,-387,118,-495,2025-02-17 10:30:38,0.0
-10256,848,-4368,-746,4945,-1058,2025-02-17 10:30:38,0.0
-11660,1176,-3192,-671,7445,-1790,2025-02-17 10:30:38,0.0
-12616,1372,-2796,-115,7219,-2794,2025-02-17 10:30:38,0.0
-13240,872,-3916,648,4131,-3740,2025-02-17 10:30:38,0.0
-13952,-260,-4756,1120,1494,-4010,2025-02-17 10:30:38,0.0
-13016,-1808,-5092,1162,-1001,-3505,2025-02-17 10:30:38,0.0
-11660,-1636,-4236,889,-1397,-3214,2025-02-17 10:30:38,0.0
-10440,-684,-3468,710,-1802,-3281,2025-02-17 10:30:38,0.0
-10312,-712,-3200,323,-1533,-3375,2025-02-17 10:30:38,0.0
-10708,-1240,-3988,-416,369,-3133,2025-02-17 10:30:38,0.0
-11080,-1500,-3920,-1316,2599,-2540,2025-02-17 10:30:38,0.0
-11488,-1736,-3424,-1764,3930,-2081,2025-02-17 10:30:38,0.0
-11764,-1612,-3500,-2129,4138,-1664,2025-02-17 10:30:38,0.0
-12324,-1192,-3640,-2118,4095,-1210,2025-02-17 10:30:38,0.0
-12616,-916,-3276,-1853,4200,-710,2025-02-17 10:30:38,0.0
-12756,-560,-3212,-1440,3505,-215,2025-02-17 10:30:38,0.0
-12728,-156,-2960,-1317,1945,9,2025-02-17 10:30:38,0.0
-13288,4,-1900,-988,-150,344,2025-02-17 10:30:38,0.0
-13048,-268,-1924,-408,-1690,657,2025-02-17 10:30:38,0.0
-12744,-664,-2140,133,-2872,667,2025-02-17 10:30:38,0.0
-12648,-1224,-3392,154,-3159,508,2025-02-17 10:30:38,0.0
-13076,-1268,-3696,-375,-2130,323,2025-02-17 10:30:38,0.0
-12928,-1084,-3752,-1178,-964,-237,2025-02-17 10:30:38,0.0
-13312,-684,-3340,-1684,-832,-561,2025-02-17 10:30:38,0.0
-13784,264,-3068,-1846,-724,-917,2025-02-17 10:30:38,0.0
-14652,336,-3716,-2115,-216,-1164,2025-02-17 10:30:38,0.0
-15340,-1156,-3464,-2773,682,-1467,2025-02-17 10:30:38,0.0
-15476,-2204,-2528,-3303,151,-2187,2025-02-17 10:30:38,0.0
-16088,-3116,-2284,-3437,-1001,-2667,2025-02-17 10:30:38,0.0
-16924,-3112,-3248,-3365,-2150,-2546,2025-02-17 10:30:38,0.0
-16636,-2616,-5096,-3115,-794,-2350,2025-02-17 10:30:38,0.0
-15848,-2920,-6536,-3617,854,-2626,2025-02-17 10:30:38,0.0
-15820,-3164,-6656,-4047,741,-3031,2025-02-17 10:30:38,0.0
-16500,-3312,-6132,-3698,239,-2340,2025-02-17 10:30:38,0.0
-15420,-3116,-6344,-3075,-1197,-166,2025-02-17 10:30:38,0.0
-11732,-1832,-6236,-1988,-3297,1424,2025-02-17 10:30:38,0.0
-9572,256,-5724,-692,-4449,1257,2025-02-17 10:30:38,0.0
-10288,1988,-5472,-213,-3784,1303,2025-02-17 10:30:38,0.0
-11496,3580,-3656,112,-1810,1875,2025-02-17 10:30:38,0.0
-11836,3440,-3592,863,-715,1958,2025-02-17 10:30:38,0.0
-12548,1372,-5016,1312,-60,926,2025-02-17 10:30:38,0.0
-14088,-1228,-4568,1034,-725,819,2025-02-17 10:30:38,0.0
-13932,-2268,-4084,1060,-1151,1524,2025-02-17 10:30:38,0.0
-12764,-2792,-5016,583,-944,2119,2025-02-17 10:30:38,0.0
-12164,-2724,-5132,155,1223,2620,2025-02-17 10:30:38,0.0
-11408,-1780,-4972,-126,2754,2998,2025-02-17 10:30:38,0.0
-11232,-240,-3972,-78,2835,3382,2025-02-17 10:30:38,0.0
-10604,892,-3688,360,2414,3275,2025-02-17 10:30:38,0.0
-10856,1584,-3344,968,1721,3129,2025-02-17 10:30:38,0.0
-11700,2184,-2504,1948,1298,3331,2025-02-17 10:30:39,0.0
-11684,2068,-2488,2451,872,3503,2025-02-17 10:30:39,0.0
-11312,1696,-2472,2748,139,3166,2025-02-17 10:30:39,0.0
-11056,1552,-2420,3062,-854,2639,2025-02-17 10:30:39,0.0
-10708,1708,-2728,3134,-804,2173,2025-02-17 10:30:39,0.0
-10264,1844,-2776,3121,-183,1559,2025-02-17 10:30:39,0.0
-9892,1848,-2884,3041,221,841,2025-02-17 10:30:39,0.0
-10356,1692,-2964,2939,940,-62,2025-02-17 10:30:39,0.0
-11148,1264,-2768,2589,1120,-949,2025-02-17 10:30:39,0.0
-11768,684,-2612,2044,635,-1367,2025-02-17 10:30:39,0.0
-12112,480,-2664,1630,660,-1683,2025-02-17 10:30:39,0.0
-12688,1088,-3024,1433,660,-1571,2025-02-17 10:30:39,0.0
-13288,1292,-3480,1404,1396,-844,2025-02-17 10:30:39,0.0
-13524,784,-3344,1120,2514,-50,2025-02-17 10:30:39,0.0
-13556,-128,-2844,977,3581,202,2025-02-17 10:30:39,0.0
-14760,-188,-2324,1077,3706,664,2025-02-17 10:30:39,0.0
-15172,-12,-2400,1236,3251,1044,2025-02-17 10:30:39,0.0
-14772,140,-2732,1671,1870,1179,2025-02-17 10:30:39,0.0
-14344,816,-2892,2232,1048,1199,2025-02-17 10:30:39,0.0
-14484,1000,-2864,2576,487,1377,2025-02-17 10:30:39,0.0
-14672,728,-2024,2907,-74,1758,2025-02-17 10:30:39,0.0
-14548,700,-1456,3257,-74,2008,2025-02-17 10:30:39,0.0
-17276,4528,-7372,3008,1738,3382,2025-02-17 10:30:39,0.0
-17560,5248,-7188,2656,719,3801,2025-02-17 10:30:39,0.0
-16816,5032,-7076,2345,-686,3507,2025-02-17 10:30:39,0.0
-15560,4736,-7132,904,-1706,2247,2025-02-17 10:30:39,0.0
-12772,3844,-6708,-204,-2236,92,2025-02-17 10:30:39,0.0
-11524,2896,-5240,-208,-3964,-1924,2025-02-17 10:30:39,0.0
-9952,1584,-4664,46,-6751,-3400,2025-02-17 10:30:39,0.0
-9996,580,-4468,732,-8268,-3572,2025-02-17 10:30:39,0.0
-9692,-964,-5744,1032,-7562,-2632,2025-02-17 10:30:39,0.0
-9100,-2216,-7196,123,-3203,-1510,2025-02-17 10:30:39,0.0
-9524,-2148,-6828,-1663,2912,-1266,2025-02-17 10:30:39,0.0
-10744,-1368,-5108,-2836,6644,-1329,2025-02-17 10:30:39,0.0
-12488,8,-4900,-3059,7113,-1335,2025-02-17 10:30:39,0.0
-13720,524,-4964,-3103,5256,-1027,2025-02-17 10:30:39,0.0
-13640,1032,-5316,-2843,3944,-1057,2025-02-17 10:30:39,
-12780,1956,-5184,-2400,2755,-1572,2025-02-17 10:30:39,0.0
-12628,1648,-5444,-2033,1993,-2256,2025-02-17 10:30:39,0.0
-12540,1496,-6276,-2140,1512,-2413,2025-02-17 10:30:39,0.0
-11460,748,-5980,-2318,1112,-2628,2025-02-17 10:30:39,0.0
-10888,344,-5008,-2287,333,-3270,2025-02-17 10:30:39,0.0
-11112,-48,-4388,-2151,-379,-3682,2025-02-17 10:30:39,0.0
-11304,-440,-3740,-2056,-1237,-3513,2025-02-17 10:30:39,0.0
-11188,-464,-3544,-2133,-1222,-3332,2025-02-17 10:30:39,0.0
-10964,-640,-3312,-2476,-1750,-3011,2025-02-17 10:30:39,0.0
-10916,-1148,-3124,-2612,-1542,-2635,2025-02-17 10:30:39,0.0
-11312,-1008,-3996,-2864,61,-2107,2025-02-17 10:30:39,0.0
-11300,-208,-4496,-3540,1868,-1586,2025-02-17 10:30:39,0.0
-11860,-108,-3852,-4202,2674,-1440,2025-02-17 10:30:39,0.0
-12620,-440,-3068,-4512,2933,-964,2025-02-17 10:30:39,0.0
-13100,-216,-1968,-4227,2090,-487,2025-02-17 10:30:39,0.0
-13048,-88,-1012,-3936,-197,-567,2025-02-17 10:30:39,0.0
-13112,-220,-1148,-3377,-1810,-504,2025-02-17 10:30:39,0.0
-12664,-228,-1648,-2656,-3349,-252,2025-02-17 10:30:39,0.0
-12496,-332,-2772,-2625,-3346,-591,2025-02-17 10:30:39,0.0
-13616,356,-3040,-3244,-2645,-940,2025-02-17 10:30:39,0.0
-13140,252,-2784,-3773,-2147,-1331,2025-02-17 10:30:39,0.0
-12792,-852,-2484,-3560,-2214,-1842,2025-02-17 10:30:39,0.0
-13432,-604,-3116,-3118,-1335,-2734,2025-02-17 10:30:40,0.0
-13676,548,-2356,-3808,-886,-3592,2025-02-17 10:30:40,0.0
-13912,1376,-1624,-4149,-1148,-4375,2025-02-17 10:30:40,0.0
-14856,1700,-2732,-4576,-1251,-5048,2025-02-17 10:30:40,0.0
-14488,856,-5228,-4996,-1195,-5866,2025-02-17 10:30:40,0.0
-14828,-2000,-5588,-5664,-1406,-6689,2025-02-17 10:30:40,0.0
-15560,-4912,-3284,-5141,-965,-6533,2025-02-17 10:30:40,0.0
-17080,-6184,-4276,-4560,1542,-5341,2025-02-17 10:30:40,0.0
-18416,-5108,-6428,-5103,5228,-2941,2025-02-17 10:30:40,0.0
-15128,-384,-6092,-6327,2435,1275,2025-02-17 10:30:40,0.0
-12548,436,-6100,-3648,-2153,1586,2025-02-17 10:30:40,0.0
-11464,1148,-6456,-2240,-4814,1543,2025-02-17 10:30:40,0.0
-10812,1816,-5196,-1663,-4873,2021,2025-02-17 10:30:40,0.0
-9760,2268,-4032,-949,-4486,2274,2025-02-17 10:30:40,0.0
-9304,2608,-3340,-383,-4487,1951,2025-02-17 10:30:40,0.0
-10028,2324,-3200,74,-3664,1312,2025-02-17 10:30:40,0.0
-11608,1168,-4352,-199,-1863,776,2025-02-17 10:30:40,0.0
-13380,-340,-6168,-1984,792,848,2025-02-17 10:30:40,0.0
-12884,-4,-5156,-2944,1972,2149,2025-02-17 10:30:40,0.0
-12076,428,-4616,-3053,1692,2052,2025-02-17 10:30:40,0.0
-11516,752,-3968,-2983,928,1895,2025-02-17 10:30:40,0.0
-11044,1468,-3744,-2867,335,1758,2025-02-17 10:30:40,0.0
-10732,2516,-3508,-2877,272,1411,2025-02-17 10:30:40,0.0
-10980,3220,-2976,-2968,336,1196,2025-02-17 10:30:40,0.0
-11052,3252,-2544,-2372,33,1178,2025-02-17 10:30:40,0.0
-11988,3020,-2504,-1433,-148,1225,2025-02-17 10:30:40,0.0
-11692,1904,-2360,-94,-736,1399,2025-02-17 10:30:40,0.0
-11120,1420,-2760,747,-1659,826,2025-02-17 10:30:40,0.0
-11372,1152,-3292,1002,-1979,344,2025-02-17 10:30:40,0.0
-11368,908,-3028,607,-1632,54,2025-02-17 10:30:40,0.0
-11344,800,-2832,-81,-318,-34,2025-02-17 10:30:40,0.0
-11508,576,-2072,-428,917,-231,2025-02-17 10:30:40,0.0
-12096,616,-2164,-414,1380,-426,2025-02-17 10:30:40,0.0
-13004,1080,-2252,-521,1512,-620,2025-02-17 10:30:40,0.0
-13876,1200,-1824,-632,1042,-800,2025-02-17 10:30:40,0.0
-14472,1436,-1628,-381,-132,-600,2025-02-17 10:30:40,0.0
-14456,1392,-2116,143,-1747,-172,2025-02-17 10:30:40,0.0
-13648,1384,-2892,292,-2578,177,2025-02-17 10:30:40,0.0
-12488,1520,-3712,-160,-2139,236,2025-02-17 10:30:40,0.0
-11796,1904,-3708,-958,241,182,2025-02-17 10:30:40,0.0
-11404,2052,-3360,-1708,3287,82,2025-02-17 10:30:40,0.0
-12224,1816,-2408,-2367,5371,-144,2025-02-17 10:30:40,0.0
-13624,1388,-936,-2390,6273,-38,2025-02-17 10:30:40,0.0
-14940,1572,236,-1127,6032,217,2025-02-17 10:30:40,0.0
-16648,1972,-808,889,5585,738,2025-02-17 10:30:40,0.0
-16752,2452,-4088,2276,4884,1790,2025-02-17 10:30:40,0.0
-14824,4804,-6656,4352,-763,3443,2025-02-17 10:30:40,0.0
-14416,3896,-5876,4691,-2543,2935,2025-02-17 10:30:40,0.0
-14112,3088,-5820,4723,-3313,1996,2025-02-17 10:30:40,0.0
-13832,2760,-5156,4764,-3888,1277,2025-02-17 10:30:40,0.0
-11868,1444,-4312,4919,-5795,80,2025-02-17 10:30:40,0.0
-11556,616,-4656,5107,-6761,-903,2025-02-17 10:30:40,0.0
-11416,-16,-6060,4865,-6121,-807,2025-02-17 10:30:40,0.0
-11080,-680,-6756,3903,-3674,-177,2025-02-17 10:30:40,0.0
-10080,-1572,-6876,2895,-836,370,2025-02-17 10:30:40,0.0
-9692,-2324,-7212,1858,2236,630,2025-02-17 10:30:40,0.0
-10192,-2132,-7688,-630,7081,812,2025-02-17 10:30:41,0.0
-10584,-1000,-6496,-1713,9424,639,2025-02-17 10:30:41,0.0
-11516,348,-5340,-1573,9701,-26,2025-02-17 10:30:41,0.0
-12912,1644,-4476,-1032,7677,-849,2025-02-17 10:30:41,0.0
-13708,1900,-4236,84,4219,-1491,2025-02-17 10:30:41,0.0
-13600,1700,-4768,1537,791,-2225,2025-02-17 10:30:41,0.0
-13312,540,-5316,2551,-2585,-2352,2025-02-17 10:30:41,0.0
-12060,-132,-5252,3630,-4904,-2447,2025-02-17 10:30:41,0.0
-11196,-748,-4980,4630,-6888,-2598,2025-02-17 10:30:41,0.0
-11024,-888,-5040,4644,-7587,-2689,2025-02-17 10:30:41,0.0
-11352,-812,-5412,3696,-6412,-2600,2025-02-17 10:30:41,0.0
-11620,-880,-4344,3110,-4347,-2192,2025-02-17 10:30:41,0.0
-12436,-1076,-4116,2864,-3178,-1109,2025-02-17 10:30:41,0.0
-12864,-812,-4512,1562,-2856,444,2025-02-17 10:30:41,0.0
-11908,-896,-3840,1360,-1784,1186,2025-02-17 10:30:41,0.0
-11080,-1156,-4724,1026,-612,615,2025-02-17 10:30:41,0.0
-11204,-1184,-4872,-144,1068,-294,2025-02-17 10:30:41,0.0
-12852,-1560,-3692,-1032,3257,-420,2025-02-17 10:30:41,0.0
-12956,-1424,-2504,-1343,4334,45,2025-02-17 10:30:41,0.0
-13504,-644,-1920,-1158,3627,-43,2025-02-17 10:30:41,0.0
-14128,444,-2296,-1013,2483,-195,2025-02-17 10:30:41,0.0
-14644,744,-2168,-963,972,-333,2025-02-17 10:30:41,
-14200,-692,-2684,-62,-2071,386,2025-02-17 10:30:41,0.0
-13144,-756,-2932,78,-2287,630,2025-02-17 10:30:41,0.0
-13064,-488,-2328,-123,-2285,756,2025-02-17 10:30:41,0.0
-13336,316,-1068,-15,-2945,1325,2025-02-17 10:30:41,0.0
-12992,32,-2216,370,-4453,2091,2025-02-17 10:30:41,0.0
-12816,-1608,-4476,150,-5252,2627,2025-02-17 10:30:41,0.0
-12652,-3144,-5820,78,-4316,2717,2025-02-17 10:30:41,0.0
-12512,-2420,-8176,404,-1591,2703,2025-02-17 10:30:41,0.0
-12456,-676,-9408,113,2759,1744,2025-02-17 10:30:41,0.0
-14000,680,-7452,-662,6371,154,2025-02-17 10:30:41,0.0
-12908,1012,-5556,-80,958,1737,2025-02-17 10:30:41,0.0
-12784,1020,-6004,-88,2748,1653,2025-02-17 10:30:41,0.0
-12504,1080,-5764,0,3974,992,2025-02-17 10:30:41,0.0
-13204,1632,-5648,-127,4056,585,2025-02-17 10:30:41,0.0
-13308,2264,-5160,-337,3385,548,2025-02-17 10:30:41,0.0
-13004,2036,-4160,7,1849,622,2025-02-17 10:30:41,5
-12540,1140,-4292,601,-177,621,2025-02-17 10:30:41,5
-11920,564,-4384,1209,-1977,617,2025-02-17 10:30:41,5
-10672,1912,-4504,-579,256,-275,2025-02-17 10:30:41,5
-11360,1964,-3720,-275,841,-527,2025-02-17 10:30:42,5
-11928,1788,-3936,451,752,-392,2025-02-17 10:30:42,5
-12280,1636,-4140,1034,390,-318,2025-02-17 10:30:42,5
-12660,1660,-5572,1335,206,-298,2025-02-17 10:30:42,5
-13216,760,-7748,616,1121,-16,2025-02-17 10:30:42,5
-13456,-68,-7580,-767,3483,373,2025-02-17 10:30:42,5
-12616,-40,-4852,-1741,4418,221,2025-02-17 10:30:42,5
-11812,224,-2708,-1448,3240,-371,2025-02-17 10:30:42,5
-11836,716,-2436,-510,1504,-777,2025-02-17 10:30:42,5
-9864,1840,-8192,-518,32767,8067,2025-02-17 10:30:42,5
-9468,1792,-9244,-909,32767,8541,2025-02-17 10:30:42,5
-8872,1372,-10256,-1962,32767,8002,2025-02-17 10:30:42,5
-9460,1892,-12120,-3518,28397,7736,2025-02-17 10:30:42,5
-9112,1656,-13764,-4711,23551,8292,2025-02-17 10:30:42,5
-6844,460,-15400,-5834,20689,7861,2025-02-17 10:30:42,5
-4912,-44,-17328,-8291,18784,7240,2025-02-17 10:30:42,5
-3764,-252,-17628,-11769,16990,6432,2025-02-17 10:30:42,5
-6304,3840,-14780,-19160,4860,5258,2025-02-17 10:30:42,5
-6048,5036,-14700,-20036,4744,5232,2025-02-17 10:30:42,5
-5468,5632,-13660,-20798,4417,4799,2025-02-17 10:30:42,5
-4360,5800,-12068,-20815,2591,4151,2025-02-17 10:30:42,5
-3708,5248,-8224,-19526,-808,3649,2025-02-17 10:30:42,5
-3796,4936,-8336,-17061,-4255,4104,2025-02-17 10:30:42,5
-3680,3300,-5796,-15191,-8024,6080,2025-02-17 10:30:42,5
-2176,1516,-3728,-13743,-11305,9068,2025-02-17 10:30:42,5
-1860,1532,-1496,-14128,-13163,12240,2025-02-17 10:30:42,5
1680,-468,708,-16211,-13470,13596,2025-02-17 10:30:42,5
3292,-728,984,-16686,-14034,13893,2025-02-17 10:30:42,5
2820,-832,1784,-16664,-14917,14147,2025-02-17 10:30:42,5
3552,-812,1836,-16188,-15708,13957,2025-02-17 10:30:42,5
3700,-828,2184,-15600,-16665,13545,2025-02-17 10:30:42,5
3132,-884,2440,-14689,-16958,13373,2025-02-17 10:30:42,5
3004,-800,2096,-13714,-16862,13230,2025-02-17 10:30:42,5
3260,-820,1160,-13247,-16765,13041,2025-02-17 10:30:42,5
2312,-780,1552,-13133,-16300,13177,2025-02-17 10:30:42,5
2588,-808,1636,-12950,-15854,13436,2025-02-17 10:30:42,5
2644,-824,1604,-12696,-15524,13584,2025-02-17 10:30:42,5
2724,-832,1400,-12447,-15336,13771,2025-02-17 10:30:42,5
2680,-692,1712,-11933,-15007,14152,2025-02-17 10:30:42,5
2972,-640,1976,-11471,-14662,14070,2025-02-17 10:30:42,5
2732,-712,1848,-10928,-14086,14038,2025-02-17 10:30:42,5
2988,-752,1880,-10524,-13284,13767,2025-02-17 10:30:42,5
2800,-632,1876,-10186,-12436,13535,2025-02-17 10:30:42,5
2976,-640,1528,-9861,-11648,13479,2025-02-17 10:30:42,5
2868,-756,1296,-9914,-10782,13309,2025-02-17 10:30:42,5
2580,-620,1972,-9762,-9989,13606,2025-02-17 10:30:42,5
3008,-8,1928,-9142,-8788,13505,2025-02-17 10:30:42,5
3284,308,2240,-8023,-8615,13530,2025-02-17 10:30:43,5
-2624,10056,7296,-5123,-6663,12626,2025-02-17 10:30:43,5
-32768,32767,32767,32767,-12576,32767,2025-02-17 10:30:43,5
32767,32767,-32768,32767,-32768,32767,2025-02-17 10:30:43,5
32767,32767,-12760,-5540,-8152,32767,2025-02-17 10:30:43,5
32767,576,-6740,-3092,6988,10317,2025-02-17 10:30:43,5
32767,-11932,-868,-540,12351,-10909,2025-02-17 10:30:43,5
20820,-13244,-812,-2650,2292,-14664,2025-02-17 10:30:43,5
14456,-940,-2360,-2689,-7133,-17576,2025-02-17 10:30:43,5
8948,14312,-2628,-201,229,-180,2025-02-17 10:30:43,5
8956,14232,-2408,-169,177,-191,2025-02-17 10:30:43,5
8720,14120,-2484,-128,157,-175,2025-02-17 10:30:43,5
8812,14164,-2600,-128,162,-172,2025-02-17 10:30:43,5
8832,14148,-2576,-154,175,-188,2025-02-17 10:30:43,5
8756,14160,-2684,-184,183,-190,2025-02-17 10:30:43,5
8760,14180,-2500,-201,202,-177,2025-02-17 10:30:43,5
8852,14152,-2360,-138,175,-166,2025-02-17 10:30:43,5
8876,14156,-2576,-140,155,-181,2025-02-17 10:30:43,5
8772,14128,-2500,-159,172,-176,2025-02-17 10:30:43,5
8816,14136,-2712,-165,192,-185,2025-02-17 10:30:43,5
8768,14132,-2668,-173,168,-197,2025-02-17 10:30:43,5
8844,14256,-2620,-151,192,-181,2025-02-17 10:30:43,5
8824,14120,-2620,-175,162,-180,2025-02-17 10:30:43,5
8816,14240,-2528,-165,171,-166,2025-02-17 10:30:43,5
8876,14256,-2640,-145,189,-179,2025-02-17 10:30:43,5
8816,14260,-2648,-166,174,-164,2025-02-17 10:30:43,5
8796,14192,-2548,-138,195,-177,2025-02-17 10:30:43,5
8756,14208,-2632,-158,165,-179,2025-02-17 10:30:43,5
8868,14148,-2480,-162,173,-183,2025-02-17 10:30:43,5
8732,14116,-2648,-168,151,-177,2025-02-17 10:30:43,5
8800,14196,-2500,-158,181,-191,2025-02-17 10:30:43,5
8904,14188,-2580,-165,172,-170,2025-02-17 10:30:43,5
8756,14272,-2544,-154,171,-167,2025-02-17 10:30:43,5
8828,14260,-2672,-159,197,-140,2025-02-17 10:30:43,5
8816,14160,-2616,-160,172,-180,2025-02-17 10:30:43,5
8868,14140,-2548,-168,176,-164,2025-02-17 10:30:43,5
8888,14208,-2652,-155,186,-168,2025-02-17 10:30:43,5
8836,14244,-2692,-152,176,-170,2025-02-17 10:30:43,5
8760,14080,-2620,-153,172,-173,2025-02-17 10:30:43,5
8808,14176,-2476,-153,182,-192,2025-02-17 10:30:43,5
8876,14260,-2576,-167,182,-168,2025-02-17 10:30:43,5
8868,14148,-2676,-139,179,-177,2025-02-17 10:30:43,5
8772,14204,-2652,-159,179,-187,2025-02-17 10:30:43,5
8732,14156,-2580,-165,179,-172,2025-02-17 10:30:43,5
8896,14292,-2544,-162,185,-171,2025-02-17 10:30:43,5
8892,14108,-2480,-180,154,-169,2025-02-17 10:30:43,5
8928,14212,-2468,-135,188,-174,2025-02-17 10:30:43,5
8812,14144,-2604,-152,179,-162,2025-02-17 10:30:44,5
8836,14140,-2584,-151,184,-167,2025-02-17 10:30:44,5
8812,14192,-2604,-157,195,-159,2025-02-17 10:30:44,5
8780,14152,-2536,-168,176,-169,2025-02-17 10:30:44,5
8896,14228,-2600,-166,155,-163,2025-02-17 10:30:44,5
8756,14116,-2492,-134,169,-185,2025-02-17 10:30:44,5
8784,14164,-2500,-157,185,-161,2025-02-17 10:30:44,5
8824,14032,-2504,-148,187,-167,2025-02-17 10:30:44,5
8876,14148,-2636,-169,178,-172,2025-02-17 10:30:44,5
8720,14192,-2652,-139,166,-186,2025-02-17 10:30:44,5
8796,14192,-2676,-158,185,-173,2025-02-17 10:30:44,5
8840,14240,-2536,-164,179,-176,2025-02-17 10:30:44,5
8844,14180,-2376,-179,197,-182,2025-02-17 10:30:44,5
8828,14248,-2524,-174,209,-161,2025-02-17 10:30:44,5
8780,14288,-2500,-159,172,-156,2025-02-17 10:30:44,5
8888,14100,-2684,-165,153,-173,2025-02-17 10:30:44,5
8816,14184,-2644,-179,181,-171,2025-02-17 10:30:44,5
8760,14204,-2596,-178,168,-150,2025-02-17 10:30:44,5
8844,14188,-2732,-184,153,-167,2025-02-17 10:30:44,5
8868,14184,-2560,-136,143,-184,2025-02-17 10:30:44,5
8776,14208,-2424,-143,181,-167,2025-02-17 10:30:44,5
8892,14264,-2528,-165,180,-195,2025-02-17 10:30:44,5
8828,14220,-2476,-190,194,-155,2025-02-17 10:30:44,5
8820,14212,-2536,-144,171,-189,2025-02-17 10:30:44,5
8748,14192,-2512,-149,177,-177,2025-02-17 10:30:44,5
8756,14140,-2540,-147,182,-168,2025-02-17 10:30:44,5
8852,14100,-2672,-187,194,-179,2025-02-17 10:30:44,5
8848,14248,-2576,-158,182,-180,2025-02-17 10:30:44,5
8764,14228,-2588,-164,198,-190,2025-02-17 10:30:44,5
8896,14200,-2620,-186,178,-199,2025-02-17 10:30:44,5
8792,14168,-2680,-164,159,-186,2025-02-17 10:30:44,5
8896,14192,-2548,-136,187,-173,2025-02-17 10:30:44,5
8708,14152,-2632,-152,185,-189,2025-02-17 10:30:44,5
8912,14260,-2556,-153,183,-180,2025-02-17 10:30:44,5
8724,14244,-2716,-161,185,-174,2025-02-17 10:30:44,5
8800,14140,-2544,-142,182,-185,2025-02-17 10:30:44,5
8728,14020,-2488,-152,167,-197,2025-02-17 10:30:44,5
8956,14188,-2656,-140,175,-183,2025-02-17 10:30:44,5
8792,14280,-2628,-160,185,-176,2025-02-17 10:30:44,5
8880,14128,-2556,-138,156,-181,2025-02-17 10:30:44,5
8768,14212,-2500,-162,188,-164,2025-02-17 10:30:44,5
8852,14204,-2656,-135,182,-184,2025-02-17 10:30:44,5
8752,14208,-2468,-169,173,-183,2025-02-17 10:30:44,5
8784,14164,-2592,-161,183,-175,2025-02-17 10:30:44,5
8772,14168,-2492,-183,176,-181,2025-02-17 10:30:44,5
8760,14180,-2596,-143,162,-167,2025-02-17 10:30:44,5
8780,14212,-2776,-169,178,-183,2025-02-17 10:30:44,5
8744,14168,-2696,-158,183,-155,2025-02-17 10:30:44,5
8896,14204,-2604,-139,184,-184,2025-02-17 10:30:44,5
8800,14180,-2576,-140,184,-170,2025-02-17 10:30:44,5
8852,14124,-2564,-150,166,-146,2025-02-17 10:30:44,5
8764,14188,-2532,-145,187,-164,2025-02-17 10:30:44,5
8796,14172,-2612,-144,171,-181,2025-02-17 10:30:44,5
8808,14172,-2516,-172,171,-171,2025-02-17 10:30:44,5
8904,14160,-2544,-164,188,-170,2025-02-17 10:30:44,5
8836,14276,-2756,-181,172,-185,2025-02-17 10:30:44,5
8828,14328,-2528,-172,179,-160,2025-02-17 10:30:44,5
8776,14172,-2504,-180,192,-181,2025-02-17 10:30:44,5
8832,14184,-2480,-129,169,-162,2025-02-17 10:30:44,5
8816,14184,-2496,-150,194,-183,2025-02-17 10:30:44,5
8844,14132,-2640,-156,183,-159,2025-02-17 10:30:44,5
8760,14172,-2460,-180,164,-181,2025-02-17 10:30:45,5
8940,14148,-2540,-164,178,-191,2025-02-17 10:30:45,5
8840,14200,-2664,-152,200,-177,2025-02-17 10:30:45,5
8872,14204,-2576,-142,194,-165,2025-02-17 10:30:45,5
8904,14200,-2480,-144,177,-175,2025-02-17 10:30:45,5
8884,14140,-2636,-174,184,-176,2025-02-17 10:30:45,5
8888,14212,-2532,-166,183,-179,2025-02-17 10:30:45,5
8772,14236,-2432,-159,169,-158,2025-02-17 10:30:45,5
8820,14212,-2516,-185,190,-170,2025-02-17 10:30:45,5
8836,14152,-2516,-184,159,-168,2025-02-17 10:30:45,5
8812,14192,-2720,-167,172,-177,2025-02-17 10:30:45,5
8848,14120,-2584,-164,176,-171,2025-02-17 10:30:45,5
8808,14228,-2540,-165,176,-177,2025-02-17 10:30:45,5
8720,14196,-2532,-153,178,-162,2025-02-17 10:30:45,0.0
8828,14268,-2560,-161,191,-161,2025-02-17 10:30:45,0.0
8892,14188,-2656,-169,160,-191,2025-02-17 10:30:45,0.0
8744,14272,-2664,-151,180,-184,2025-02-17 10:30:45,0.0
8820,14248,-2604,-144,177,-167,2025-02-17 10:30:45,0.0
8812,14128,-2644,-160,165,-196,2025-02-17 10:30:45,0.0
8852,14152,-2460,-173,180,-152,2025-02-17 10:30:45,0.0
8896,14176,-2584,-163,194,-148,2025-02-17 10:30:45,0.0
8784,14176,-2500,-146,196,-177,2025-02-17 10:30:45,0.0
8820,14192,-2640,-182,163,-183,2025-02-17 10:30:45,0.0
8892,14248,-2604,-160,195,-173,2025-02-17 10:30:45,0.0
8876,14156,-2596,-144,162,-176,2025-02-17 10:30:45,0.0
8800,14180,-2584,-164,164,-159,2025-02-17 10:30:45,
8812,14184,-2680,-151,168,-173,2025-02-17 10:30:45,0.0
8880,14224,-2580,-158,186,-176,2025-02-17 10:30:45,0.0
8840,14168,-2604,-193,164,-200,2025-02-17 10:30:45,0.0
8832,14212,-2492,-147,182,-187,2025-02-17 10:30:45,0.0
8900,14168,-2676,-156,185,-175,2025-02-17 10:30:45,0.0
8816,14264,-2568,-141,192,-179,2025-02-17 10:30:45,0.0
8856,14212,-2612,-197,180,-159,2025-02-17 10:30:45,0.0
8808,14240,-2648,-178,171,-168,2025-02-17 10:30:45,0.0
8840,14204,-2536,-157,201,-178,2025-02-17 10:30:45,0.0
8848,14232,-2444,-145,174,-179,2025-02-17 10:30:45,0.0
8808,14208,-2652,-164,183,-160,2025-02-17 10:30:45,0.0
8892,14156,-2568,-168,188,-197,2025-02-17 10:30:45,0.0
8796,14208,-2728,-160,187,-179,2025-02-17 10:30:45,0.0
8744,14176,-2616,-151,175,-184,2025-02-17 10:30:45,0.0
8808,14132,-2552,-153,193,-170,2025-02-17 10:30:45,0.0
8772,14156,-2396,-169,183,-152,2025-02-17 10:30:45,0.0
8900,14048,-2512,-170,174,-178,2025-02-17 10:30:45,0.0
8844,14244,-2656,-164,185,-179,2025-02-17 10:30:45,0.0
8880,14148,-2696,-158,180,-157,2025-02-17 10:30:45,0.0
8956,14148,-2564,-146,184,-185,2025-02-17 10:30:45,0.0
8848,14140,-2532,-148,192,-182,2025-02-17 10:30:45,0.0
8796,14112,-2644,-177,168,-187,2025-02-17 10:30:45,0.0
8916,14196,-2556,-167,172,-160,2025-02-17 10:30:45,0.0
8816,14200,-2652,-181,171,-187,2025-02-17 10:30:45,0.0
8912,14216,-2600,-183,195,-175,2025-02-17 10:30:45,0.0
8816,14188,-2420,-163,184,-168,2025-02-17 10:30:45,0.0
8864,14188,-2472,-168,193,-180,2025-02-17 10:30:45,0.0
8868,14240,-2700,-159,169,-152,2025-02-17 10:30:45,0.0
8856,14160,-2588,-171,147,-171,2025-02-17 10:30:45,0.0
8792,14200,-2540,-162,174,-164,2025-02-17 10:30:45,0.0
8800,14132,-2672,-140,169,-163,2025-02-17 10:30:45,0.0
8916,14116,-2576,-150,166,-174,2025-02-17 10:30:45,0.0
8816,14224,-2672,-162,179,-167,2025-02-17 10:30:45,0.0
8956,14212,-2488,-162,184,-175,2025-02-17 10:30:45,0.0
8800,14212,-2588,-152,177,-146,2025-02-17 10:30:45,0.0
8816,14112,-2560,-157,189,-172,2025-02-17 10:30:46,0.0
8868,14252,-2540,-169,188,-182,2025-02-17 10:30:46,0.0
8816,14236,-2500,-164,174,-176,2025-02-17 10:30:46,0.0
8804,14208,-2680,-169,171,-196,2025-02-17 10:30:46,0.0
8792,14156,-2624,-180,170,-160,2025-02-17 10:30:46,0.0
8812,14176,-2608,-159,193,-177,2025-02-17 10:30:46,0.0
8816,14144,-2552,-163,196,-171,2025-02-17 10:30:46,0.0
8884,14176,-2668,-126,206,-166,2025-02-17 10:30:46,0.0
8764,14212,-2716,-157,181,-190,2025-02-17 10:30:46,0.0
8816,14236,-2644,-140,188,-190,2025-02-17 10:30:46,0.0
8816,14216,-2532,-168,177,-159,2025-02-17 10:30:46,0.0
8856,14272,-2664,-167,182,-191,2025-02-17 10:30:46,0.0
8788,14092,-2572,-147,165,-181,2025-02-17 10:30:46,0.0
8824,14192,-2500,-156,179,-171,2025-02-17 10:30:46,0.0
8836,14192,-2600,-181,173,-171,2025-02-17 10:30:46,0.0
8788,14156,-2500,-145,178,-160,2025-02-17 10:30:46,0.0
8880,14184,-2528,-153,176,-185,2025-02-17 10:30:46,0.0
8772,14076,-2648,-162,166,-166,2025-02-17 10:30:46,0.0
8872,14212,-2656,-171,174,-167,2025-02-17 10:30:46,0.0
8924,14188,-2484,-170,186,-170,2025-02-17 10:30:46,0.0
8856,14092,-2396,-135,166,-171,2025-02-17 10:30:46,0.0
8880,14204,-2532,-190,173,-167,2025-02-17 10:30:46,0.0
8760,14160,-2580,-152,173,-175,2025-02-17 10:30:46,0.0
8788,14120,-2564,-139,170,-167,2025-02-17 10:30:46,0.0
8824,14228,-2540,-147,155,-176,2025-02-17 10:30:46,0.0
8952,14168,-2552,-174,170,-175,2025-02-17 10:30:46,0.0
8812,14268,-2448,-175,186,-181,2025-02-17 10:30:46,0.0
8800,14164,-2544,-179,192,-170,2025-02-17 10:30:46,0.0
9784,13624,-3104,-314,16,-366,2025-02-17 10:30:46,0.0
8800,14540,-3008,-527,236,-615,2025-02-17 10:30:46,0.0
8460,14184,-2176,-500,133,-520,2025-02-17 10:30:46,0.0
8340,14480,-1564,-159,167,-331,2025-02-17 10:30:46,0.0
8472,14376,-2480,-25,78,-137,2025-02-17 10:30:46,0.0
9004,14036,-2504,4,179,-86,2025-02-17 10:30:46,0.0
7988,14428,-2516,117,188,233,2025-02-17 10:30:46,0.0
9436,13856,-3140,22,243,294,2025-02-17 10:30:46,0.0
9904,14064,-3048,-224,176,-300,2025-02-17 10:30:46,0.0
8436,14284,-2316,-240,214,-351,2025-02-17 10:30:46,0.0
8328,14188,-2224,-79,148,-91,2025-02-17 10:30:46,0.0
9324,14276,-2784,-118,220,-132,2025-02-17 10:30:46,0.0
9488,13920,-2828,-211,169,-446,2025-02-17 10:30:46,0.0
7928,14424,-2544,-243,187,-297,2025-02-17 10:30:46,0.0
8168,14236,-2132,-97,264,71,2025-02-17 10:30:46,0.0
9572,14096,-2888,-78,131,-151,2025-02-17 10:30:46,0.0
8996,14220,-2664,-216,117,-358,2025-02-17 10:30:46,0.0
8352,14224,-2520,-160,190,-210,2025-02-17 10:30:46,0.0
8868,14224,-2656,-151,211,-161,2025-02-17 10:30:46,0.0
9260,13940,-2720,-195,292,-300,2025-02-17 10:30:46,0.0
7992,14280,-2408,-251,58,-152,2025-02-17 10:30:46,0.0
7976,14428,-2504,-150,392,207,2025-02-17 10:30:46,0.0
9344,14140,-2020,-117,77,175,2025-02-17 10:30:46,0.0
9240,14104,-2536,-120,129,-54,2025-02-17 10:30:46,0.0
9072,14116,-3280,-316,278,-206,2025-02-17 10:30:46,0.0
9020,14748,-1872,-193,280,-290,2025-02-17 10:30:46,0.0
9156,14052,-2204,28,227,-398,2025-02-17 10:30:46,0.0
8540,14132,-3248,-130,192,-354,2025-02-17 10:30:46,0.0
8588,13928,-2928,-332,307,-212,2025-02-17 10:30:46,0.0
9328,14412,-1892,-116,46,-299,2025-02-17 10:30:46,0.0
9220,14360,-2216,61,14,-476,2025-02-17 10:30:46,0.0
8720,14140,-2384,178,-70,-548,2025-02-17 10:30:46,0.0
8920,14176,-2348,268,-144,-530,2025-02-17 10:30:47,0.0
8972,13888,-2432,326,-31,-597,2025-02-17 10:30:47,0.0
8812,14296,-3020,267,-103,-612,2025-02-17 10:30:47,0.0
9000,14076,-3268,180,-32,-676,2025-02-17 10:30:47,0.0
8424,14144,-4136,-71,143,-608,2025-02-17 10:30:47,
8164,14276,-2952,-437,244,-437,2025-02-17 10:30:47,0.0
8204,14140,-2432,-418,410,-203,2025-02-17 10:30:47,0.0
8016,14160,-2436,-310,425,124,2025-02-17 10:30:47,0.0
8912,14264,-2820,-323,280,222,2025-02-17 10:30:47,0.0
9096,13720,-2992,-393,418,-62,2025-02-17 10:30:47,0.0
8092,14176,-4256,-1273,1502,446,2025-02-17 10:30:47,0.0
8244,14832,-4312,-2411,1016,813,2025-02-17 10:30:47,0.0
9408,14124,-2888,-2850,1231,785,2025-02-17 10:30:47,0.0
8932,14528,-1416,-2722,1144,719,2025-02-17 10:30:47,0.0
9492,14912,-28,-1914,365,554,2025-02-17 10:30:47,0.0
10548,14260,1844,-423,-18,-65,2025-02-17 10:30:47,0.0
10368,14004,-964,608,-1084,-877,2025-02-17 10:30:47,0.0
9252,14296,-2632,873,-320,-1290,2025-02-17 10:30:47,0.0
9256,14096,-3036,534,-486,-1460,2025-02-17 10:30:47,0.0
9536,14272,-3140,217,-189,-1706,2025-02-17 10:30:47,0.0
9768,14376,-3232,-103,-171,-2085,2025-02-17 10:30:47,0.0
8324,14428,-2932,-461,-19,-2238,2025-02-17 10:30:47,0.0
8436,14652,-2924,-819,12,-2234,2025-02-17 10:30:47,0.0
8328,14736,-2828,-1054,-126,-2162,2025-02-17 10:30:47,0.0
9196,14976,-3052,-1312,-218,-2317,2025-02-17 10:30:47,0.0
10304,15388,-4208,-1945,-780,-3005,2025-02-17 10:30:47,0.0
10992,15972,-5656,-3510,-1717,-4545,2025-02-17 10:30:47,0.0
9628,16892,-5804,-5189,-3165,-6221,2025-02-17 10:30:47,0.0
7856,16056,-5048,-7019,-4245,-5938,2025-02-17 10:30:47,0.0
8256,16908,-2356,-8926,-4691,-8623,2025-02-17 10:30:47,0.0
11260,17344,-2472,-10132,-6010,-11908,2025-02-17 10:30:47,0.0
11356,17420,-320,-11066,-9744,-15626,2025-02-17 10:30:47,0.0
9640,17340,-1052,-12541,-12296,-16777,2025-02-17 10:30:47,0.0
7120,17364,1252,-13181,-13735,-16916,2025-02-17 10:30:47,0.0
3956,17328,1252,-13411,-13511,-15412,2025-02-17 10:30:47,0.0
960,17968,1324,-13608,-9831,-13270,2025-02-17 10:30:47,0.0
944,19064,1832,-14026,-4522,-11102,2025-02-17 10:30:47,0.0
2092,19368,120,-14005,2401,-11235,2025-02-17 10:30:47,0.0
652,19612,2568,-13686,8022,-10968,2025-02-17 10:30:47,0.0
1052,19548,3272,-9685,12778,-8784,2025-02-17 10:30:47,0.0
2196,19260,2008,-7432,15450,-7299,2025-02-17 10:30:47,0.0
3940,19364,352,-7609,18694,-7813,2025-02-17 10:30:47,0.0
1348,19232,1388,-7419,22359,-8250,2025-02-17 10:30:47,0.0
-1276,19500,2992,-5957,26388,-5856,2025-02-17 10:30:47,0.0
-2072,19604,4384,-3525,30051,-2117,2025-02-17 10:30:47,0.0
-228,19084,4096,-1010,32767,735,2025-02-17 10:30:47,0.0
1352,18708,3228,787,32767,2345,2025-02-17 10:30:47,0.0
1744,18792,1968,1214,32767,2946,2025-02-17 10:30:47,0.0
1436,19488,1680,832,32767,3448,2025-02-17 10:30:47,0.0
-116,19824,1928,508,32767,4512,2025-02-17 10:30:47,0.0
280,19944,3300,901,32767,6818,2025-02-17 10:30:47,0.0
1572,19392,3520,1803,32767,8650,2025-02-17 10:30:47,0.0
2792,19004,3564,2445,32767,8803,2025-02-17 10:30:47,0.0
2552,18812,2856,2726,32486,9404,2025-02-17 10:30:47,0.0
4360,19484,3244,3219,27558,8822,2025-02-17 10:30:47,0.0
4532,18832,2536,3469,19504,8654,2025-02-17 10:30:47,0.0
5428,18744,2516,3798,12885,6176,2025-02-17 10:30:47,0.0
4772,19812,1620,2765,5809,4160,2025-02-17 10:30:47,0.0
3864,19760,1940,2284,-1364,3662,2025-02-17 10:30:47,0.0
5424,18748,2872,2825,-7523,1542,2025-02-17 10:30:47,0.0
4332,18408,2204,2646,-12989,-2152,2025-02-17 10:30:47,0.0
2012,16148,616,1499,-17201,-2592,2025-02-17 10:30:48,0.0
2268,16980,1376,-1077,-20737,-590,2025-02-17 10:30:48,0.0
4608,17372,2892,-666,-24404,-1300,2025-02-17 10:30:48,0.0
4908,16128,2032,-639,-28212,-3105,2025-02-17 10:30:48,0.0
3584,15680,1408,-1190,-32036,-4329,2025-02-17 10:30:48,0.0
2484,14320,380,-2825,-32768,-4483,2025-02-17 10:30:48,0.0
1500,12932,-1548,-6970,-32768,-4114,2025-02-17 10:30:48,0.0
1620,15052,-2036,-8196,-32768,-2472,2025-02-17 10:30:48,0.0
736,16672,3580,-7483,-32768,-359,2025-02-17 10:30:48,0.0
3564,16868,2792,-7110,-32768,136,2025-02-17 10:30:48,0.0
4548,17048,2192,-7105,-32768,-608,2025-02-17 10:30:48,0.0
2748,16400,2124,-7089,-32768,-1108,2025-02-17 10:30:48,0.0
696,15764,2276,-7342,-32419,-335,2025-02-17 10:30:48,0.0
404,13808,1948,-6838,-28969,1074,2025-02-17 10:30:48,0.0
1396,12904,2416,-6624,-25839,1441,2025-02-17 10:30:48,0.0
72,14108,3732,-3626,-20460,1853,2025-02-17 10:30:48,0.0
348,13928,2624,-1454,-16599,3233,2025-02-17 10:30:48,0.0
1588,12888,1696,-499,-12816,3811,2025-02-17 10:30:48,0.0
3220,12636,996,-136,-9080,2964,2025-02-17 10:30:48,0.0
4160,13192,1632,350,-4958,887,2025-02-17 10:30:48,0.0
4808,14140,3364,1861,-441,-2423,2025-02-17 10:30:48,0.0
4196,14084,5020,4840,3347,-4804,2025-02-17 10:30:48,0.0
4260,13484,4688,8185,7087,-6889,2025-02-17 10:30:48,0.0
4068,12968,2952,10128,10468,-8707,2025-02-17 10:30:48,0.0
2944,12544,792,10259,13335,-9778,2025-02-17 10:30:48,0.0
2084,12120,48,9416,16081,-9922,2025-02-17 10:30:48,0.0
1180,11652,-16,8161,19273,-8950,2025-02-17 10:30:48,0.0
1316,11752,656,7261,21994,-7875,2025-02-17 10:30:48,0.0
2648,12160,1492,7004,24658,-7536,2025-02-17 10:30:48,0.0
4064,12952,2476,7539,26816,-8283,2025-02-17 10:30:48,0.0
3836,13432,2664,8556,28719,-9308,2025-02-17 10:30:48,0.0
2736,13220,20,7090,28746,-9219,2025-02-17 10:30:48,0.0
268,13492,2404,5801,28601,-7633,2025-02-17 10:30:48,0.0
372,11400,-4328,-1708,22961,-4651,2025-02-17 10:30:48,0.0
2172,10940,1532,-13726,12350,-1799,2025-02-17 10:30:48,0.0
5300,16052,19804,3751,6844,-1399,2025-02-17 10:30:48,0.0
6604,12676,7372,13989,1983,-5200,2025-02-17 10:30:48,0.0
5272,10316,2648,13396,-6710,-9536,2025-02-17 10:30:48,0.0
2236,10340,2156,15839,-10414,-14698,2025-02-17 10:30:48,0.0
-1508,9744,-2676,16508,-11095,-17873,2025-02-17 10:30:48,0.0
-5040,8428,-2216,14404,-9864,-20341,2025-02-17 10:30:48,0.0
-4724,6136,-1712,15268,-7979,-19937,2025-02-17 10:30:48,0.0
-2648,5192,-3640,13116,-8490,-22246,2025-02-17 10:30:48,0.0
-3952,7372,-5632,7758,-10028,-23520,2025-02-17 10:30:48,
-5104,9472,-4748,2877,-8593,-24381,2025-02-17 10:30:48,0.0
-4648,10232,-1404,2157,-5079,-24473,2025-02-17 10:30:48,0.0
-2480,9636,-280,4373,-1282,-26424,2025-02-17 10:30:48,0.0
-3388,8200,-1216,7297,2751,-29017,2025-02-17 10:30:48,0.0
-4756,6692,-5656,8313,6326,-28436,2025-02-17 10:30:48,0.0
-5596,5784,-8552,4838,8625,-26665,2025-02-17 10:30:48,0.0
-6044,6232,-7908,1750,11719,-25507,2025-02-17 10:30:48,0.0
-6960,6888,-6376,3799,17379,-26731,2025-02-17 10:30:48,0.0
-9684,6300,-9988,5740,23047,-27391,2025-02-17 10:30:48,0.0
-14056,5804,-13276,3377,27265,-24272,2025-02-17 10:30:48,0.0
-12972,5512,-11828,54,30049,-18672,2025-02-17 10:30:48,0.0
-9292,5132,-9176,-302,30907,-17095,2025-02-17 10:30:48,0.0
-7148,4952,-7860,1015,28978,-17542,2025-02-17 10:30:48,0.0
-7724,5092,-8960,2948,23383,-16858,2025-02-17 10:30:48,0.0
-9280,5236,-8036,5066,16854,-14363,2025-02-17 10:30:48,0.0
-8320,4508,-8788,9696,10286,-12419,2025-02-17 10:30:48,0.0
-7188,1140,-12916,10948,3311,-15815,2025-02-17 10:30:48,0.0
-25516,776,-14812,1948,-2165,-22169,2025-02-17 10:30:49,0.0
-30508,-268,-8264,-1837,-2305,-13614,2025-02-17 10:30:49,0.0
-19100,-3012,-2044,5304,-7413,-5898,2025-02-17 10:30:49,0.0
-7148,-1004,-12136,9983,-17122,-3830,2025-02-17 10:30:49,0.0
-5140,3684,-21188,2801,-23474,-5542,2025-02-17 10:30:49,0.0
-5340,5304,-16868,-3151,-22874,-7489,2025-02-17 10:30:49,0.0
-7156,2056,-8020,-3954,-25375,-10671,2025-02-17 10:30:49,0.0
-12164,368,-4044,-1635,-28148,-11125,2025-02-17 10:30:49,0.0
-14724,-16,-4932,-213,-28839,-8800,2025-02-17 10:30:49,0.0
-12140,480,-7536,-1045,-27621,-6197,2025-02-17 10:30:49,0.0
-7792,1560,-628,-2072,-26571,-7284,2025-02-17 10:30:49,0.0
-8292,1584,-2380,-911,-22245,-8341,2025-02-17 10:30:49,0.0
-9716,-108,-2992,-1029,-16009,-8935,2025-02-17 10:30:49,0.0
-12944,-1596,-2456,-1104,-8039,-8807,2025-02-17 10:30:49,0.0
-15800,-788,-2476,-1823,-867,-7379,2025-02-17 10:30:49,0.0
-14412,-28,-3960,-2612,378,-5378,2025-02-17 10:30:49,0.0
-12620,-144,-5060,-3811,-3681,-5331,2025-02-17 10:30:49,0.0
-13948,-736,-3076,-4739,-6770,-5164,2025-02-17 10:30:49,0.0
-13524,-1208,-1716,-4666,-8947,-4970,2025-02-17 10:30:49,0.0
-12808,-1932,-2340,-4445,-10690,-5186,2025-02-17 10:30:49,0.0
-14268,-2144,-2548,-4639,-11811,-5143,2025-02-17 10:30:49,0.0
-15720,-2760,-1564,-5031,-11061,-3820,2025-02-17 10:30:49,0.0
-15560,-3420,-2576,-5455,-8215,-1811,2025-02-17 10:30:49,0.0
-15088,-3684,-5400,-7484,-4663,386,2025-02-17 10:30:49,0.0
-14888,-2344,-5352,-10704,813,3237,2025-02-17 10:30:49,0.0
-11596,-1692,-3204,-12062,6458,3463,2025-02-17 10:30:49,0.0
-11504,-368,-1104,-10858,9056,1101,2025-02-17 10:30:49,0.0
-13564,-408,-3748,-11276,7730,144,2025-02-17 10:30:49,0.0
-14380,-1616,-3192,-12682,4334,-507,2025-02-17 10:30:49,0.0
-14640,-1912,-2700,-13104,-587,-1499,2025-02-17 10:30:49,0.0
-15048,-1592,-3760,-13770,-5618,-2297,2025-02-17 10:30:49,0.0
-14836,-2520,-3736,-14625,-9990,-1881,2025-02-17 10:30:49,0.0
-13648,-2352,-3272,-15729,-12678,-925,2025-02-17 10:30:49,0.0
-11772,-320,-1084,-14390,-12342,542,2025-02-17 10:30:49,0.0
-9700,-648,-2624,-13032,-9971,2371,2025-02-17 10:30:49,0.0
-9060,-3280,-4980,-14103,-4325,1807,2025-02-17 10:30:49,0.0
-10924,-4092,-1456,-15238,2644,828,2025-02-17 10:30:49,0.0
-13396,-3856,-168,-15264,9907,1080,2025-02-17 10:30:49,0.0
-14568,-2680,-424,-14728,12697,1439,2025-02-17 10:30:49,0.0
-15080,-2112,-1248,-14404,11711,1696,2025-02-17 10:30:49,0.0
-15252,-1792,-2532,-13930,8144,928,2025-02-17 10:30:49,0.0
-15672,-676,-4516,-14207,4228,431,2025-02-17 10:30:49,0.0
-16336,376,-4768,-15794,1512,540,2025-02-17 10:30:49,0.0
-14644,1532,-2260,-15396,854,575,2025-02-17 10:30:49,0.0
-12816,2768,-760,-13482,1395,-433,2025-02-17 10:30:49,0.0
-12964,2296,-1896,-12411,1224,-1634,2025-02-17 10:30:49,0.0
-12436,768,-1152,-12963,-71,-2219,2025-02-17 10:30:49,0.0
-12952,32,-224,-13230,-862,-2936,2025-02-17 10:30:49,0.0
-14156,-676,444,-13738,290,-2882,2025-02-17 10:30:49,0.0
-13504,-1204,-132,-14723,940,-2301,2025-02-17 10:30:49,0.0
-14080,-1560,1028,-15336,1112,-1876,2025-02-17 10:30:49,0.0
-13760,-2148,1600,-15183,874,-1816,2025-02-17 10:30:49,0.0
-14428,-2600,2160,-14793,388,-1714,2025-02-17 10:30:49,0.0
-14548,-1648,2684,-14291,-320,-1567,2025-02-17 10:30:49,0.0
-14284,-336,1636,-14284,-223,-1863,2025-02-17 10:30:49,0.0
-14816,884,920,-13993,-339,-1838,2025-02-17 10:30:50,0.0
-14032,1576,656,-13676,-907,-1193,2025-02-17 10:30:50,0.0
-12812,1620,664,-12567,-1522,-1203,2025-02-17 10:30:50,0.0
-11964,2072,-476,-12253,-933,-1500,2025-02-17 10:30:50,0.0
-11320,1764,-1508,-12749,817,-2377,2025-02-17 10:30:50,0.0
-11764,1132,-1556,-13245,2148,-3229,2025-02-17 10:30:50,0.0
-12600,636,-1244,-13257,2809,-3643,2025-02-17 10:30:50,0.0
-13196,140,-984,-13149,2684,-3849,2025-02-17 10:30:50,0.0
-14248,76,-348,-12940,2383,-3963,2025-02-17 10:30:50,0.0
-12112,-716,-2908,-13681,-839,-3945,2025-02-17 10:30:50,0.0
-10380,456,-3276,-13141,147,-3572,2025-02-17 10:30:50,0.0
-9784,1280,-1700,-12979,2379,-3632,2025-02-17 10:30:50,0.0
-10172,2132,612,-12698,5181,-4515,2025-02-17 10:30:50,0.0
-12976,2000,2100,-11076,7398,-5253,2025-02-17 10:30:50,0.0
-16292,1060,-2256,-10295,7602,-4855,2025-02-17 10:30:50,0.0
-16616,308,-3924,-10160,6006,-5236,2025-02-17 10:30:50,0.0
-17704,376,-6152,-10148,2733,-5105,2025-02-17 10:30:50,0.0
-17576,-1000,-6184,-11225,534,-4318,2025-02-17 10:30:50,0.0
-16516,-1692,-4232,-12251,-614,-3804,2025-02-17 10:30:50,0.0
-15252,-752,-3224,-11712,-2700,-2926,2025-02-17 10:30:50,0.0
-12440,-1148,-2628,-10964,-3770,-2561,2025-02-17 10:30:50,0.0
-11148,-2668,-2488,-10691,-2957,-3275,2025-02-17 10:30:50,0.0
-11008,-3708,-1468,-10138,328,-3381,2025-02-17 10:30:50,0.0
-11060,-2900,-2576,-9668,3025,-3695,2025-02-17 10:30:50,0.0
-12156,-1504,-4404,-10140,4237,-4062,2025-02-17 10:30:50,0.0
-13380,-1012,-5560,-10649,5233,-4376,2025-02-17 10:30:50,0.0
-14588,-1276,-3832,-11009,5789,-4515,2025-02-17 10:30:50,0.0
-15184,-2144,-1828,-10210,4037,-4847,2025-02-17 10:30:50,
-14992,-2464,-1672,-9851,575,-4976,2025-02-17 10:30:50,0.0
-14092,-2624,-3168,-10005,-2369,-5753,2025-02-17 10:30:50,0.0
-13784,-2760,-4148,-11104,-2989,-6015,2025-02-17 10:30:50,0.0
-12756,-2672,-3956,-12189,-1844,-5620,2025-02-17 10:30:50,0.0
-10856,-3060,-2812,-12205,-1098,-6289,2025-02-17 10:30:50,0.0
-10840,-2720,-2696,-11812,-2204,-8500,2025-02-17 10:30:50,0.0
-13188,-1868,-2452,-11910,-4054,-8918,2025-02-17 10:30:50,0.0
-15348,-1484,-1336,-11359,-5578,-5299,2025-02-17 10:30:50,0.0
-11792,-2120,-1896,-11114,-4408,-2811,2025-02-17 10:30:50,0.0
-10684,-2268,-3480,-12442,-1799,-3112,2025-02-17 10:30:50,0.0
-11036,-2692,-3748,-14302,2167,-2879,2025-02-17 10:30:50,0.0
-10736,-3248,-3192,-15022,4235,-3695,2025-02-17 10:30:50,0.0
-12452,-3544,-2460,-14920,4842,-4227,2025-02-17 10:30:50,0.0
-15136,-4152,-1816,-13334,4084,-3271,2025-02-17 10:30:50,0.0
-15520,-3660,-2744,-11943,1999,-1642,2025-02-17 10:30:50,0.0
-14872,-3232,-3444,-10970,-400,-881,2025-02-17 10:30:50,0.0
-13900,-3208,-4840,-10667,-1658,-918,2025-02-17 10:30:50,0.0
-12896,-3592,-4428,-10643,-2454,-1036,2025-02-17 10:30:50,0.0
-11776,-2720,-4288,-11016,-2883,-1185,2025-02-17 10:30:50,0.0
-11236,-1308,-4316,-11201,-1970,-1243,2025-02-17 10:30:50,0.0
-11464,-12,-4988,-10877,572,-1367,2025-02-17 10:30:50,0.0
-11504,616,-4948,-11286,3059,-1803,2025-02-17 10:30:50,0.0
-11924,508,-2188,-11059,4958,-2687,2025-02-17 10:30:50,0.0
-13632,-272,-932,-10211,6628,-3057,2025-02-17 10:30:50,0.0
-14680,-2848,-1572,-9124,6526,-1979,2025-02-17 10:30:50,0.0
-15232,-3524,-3192,-8472,6166,-911,2025-02-17 10:30:50,0.0
-14760,-2228,-4392,-8153,5260,368,2025-02-17 10:30:50,0.0
-13724,-128,-4076,-7677,3903,774,2025-02-17 10:30:50,0.0
-13272,1268,-3348,-7277,2358,32,2025-02-17 10:30:50,0.0
-13260,1384,-2536,-7180,751,-1802,2025-02-17 10:30:50,0.0
-13768,472,-2280,-6801,-810,-2582,2025-02-17 10:30:50,0.0
-12948,-444,-1652,-6513,-1301,-2802,2025-02-17 10:30:50,0.0
-11980,-1336,-2644,-6029,-607,-2805,2025-02-17 10:30:50,0.0
-11880,-1504,-2348,-5714,836,-2741,2025-02-17 10:30:50,0.0
-11964,-588,-2988,-6153,3310,-2637,2025-02-17 10:30:50,0.0
-12880,256,-3020,-6262,4432,-2871,2025-02-17 10:30:50,0.0
-13828,468,-2512,-5940,3078,-3002,2025-02-17 10:30:50,0.0
-14204,352,-2416,-5488,551,-3091,2025-02-17 10:30:50,0.0
-14112,-168,-2680,-5272,-1419,-3125,2025-02-17 10:30:50,0.0
-13424,-528,-2792,-5210,-2260,-3302,2025-02-17 10:30:50,0.0
-13764,-664,-3472,-5235,-1201,-3111,2025-02-17 10:30:51,0.0
-15296,-820,-4028,-5210,696,-2146,2025-02-17 10:30:51,0.0
-14888,-800,-3444,-5267,1901,-1113,2025-02-17 10:30:51,0.0
-13744,-832,-1792,-5623,316,-1333,2025-02-17 10:30:51,0.0
-13588,-936,-1448,-5290,-2285,-1972,2025-02-17 10:30:51,0.0
-12956,-352,-4072,-4882,-4358,-1730,2025-02-17 10:30:51,0.0
-11832,-608,-5248,-4196,-5693,-1397,2025-02-17 10:30:51,0.0
-11980,-748,-4540,-3829,-3982,-1348,2025-02-17 10:30:51,0.0
-11264,-1472,-4260,-2647,552,-941,2025-02-17 10:30:51,0.0
-11788,-812,-4716,-1859,4382,-894,2025-02-17 10:30:51,0.0
-11992,-40,-4344,-1557,5231,-1554,2025-02-17 10:30:51,0.0
-13628,-392,-3196,-963,2672,-2398,2025-02-17 10:30:51,0.0
-14044,-756,-3788,-751,-503,-2417,2025-02-17 10:30:51,0.0
-13212,-1044,-4172,-360,-1552,-2828,2025-02-17 10:30:51,0.0
-12624,-1268,-5780,-296,-1536,-3660,2025-02-17 10:30:51,0.0
-12732,-1724,-5140,-671,-1158,-3761,2025-02-17 10:30:51,0.0
-12720,-2164,-4152,-902,-532,-3282,2025-02-17 10:30:51,0.0
-12204,-2204,-3312,-1219,636,-3274,2025-02-17 10:30:51,0.0
-12316,-2524,-2660,-1329,2097,-3303,2025-02-17 10:30:51,0.0
-12940,-2724,-3272,-1722,2958,-3406,2025-02-17 10:30:51,0.0
-13172,-2804,-3336,-2003,2986,-3471,2025-02-17 10:30:51,0.0
-13368,-3280,-3388,-2029,2128,-3469,2025-02-17 10:30:51,0.0
-13172,-3356,-3336,-2092,864,-3427,2025-02-17 10:30:51,0.0
-12428,-3480,-3188,-2183,-43,-3278,2025-02-17 10:30:51,0.0
-11584,-3344,-2616,-1967,-92,-3016,2025-02-17 10:30:51,0.0
-11332,-3320,-2316,-1549,776,-2588,2025-02-17 10:30:51,0.0
-11248,-2792,-2436,-1092,2177,-2021,2025-02-17 10:30:51,0.0
-11284,-2324,-2380,-693,3198,-1620,2025-02-17 10:30:51,0.0
-11968,-2244,-2596,-124,3753,-1510,2025-02-17 10:30:51,0.0
-12596,-2024,-2384,400,3298,-1264,2025-02-17 10:30:51,0.0
-12832,-2296,-2084,780,2517,-1452,2025-02-17 10:30:51,0.0
-13096,-2500,-1860,1004,1259,-1465,2025-02-17 10:30:51,0.0
-12872,-2428,-2260,1298,-157,-1285,2025-02-17 10:30:52,0.0
-11344,376,-5628,414,719,1722,2025-02-17 10:30:52,0.0
-12888,-584,-5004,205,744,2081,2025-02-17 10:30:52,0.0
-13284,-1732,-5512,34,504,2672,2025-02-17 10:30:52,0.0
-13476,-2380,-5700,-169,495,3414,2025-02-17 10:30:52,0.0
-13544,-2584,-5536,-706,658,3793,2025-02-17 10:30:52,0.0
-13356,-1960,-4988,-1158,-446,3346,2025-02-17 10:30:52,0.0
-13880,-1940,-4172,-1327,-1953,3075,2025-02-17 10:30:52,0.0
-13632,-1600,-3520,-1266,-2690,3536,2025-02-17 10:30:52,0.0
-12476,-900,-2860,-971,-2942,3869,2025-02-17 10:30:52,0.0
-11624,-108,-2412,-326,-2977,3783,2025-02-17 10:30:52,0.0
-10836,368,-2260,264,-2877,3597,2025-02-17 10:30:52,0.0
-9296,568,-2456,557,-2533,3099,2025-02-17 10:30:52,0.0
-8936,528,-1768,825,-1625,2323,2025-02-17 10:30:52,0.0
-9012,292,-1852,1039,-124,1513,2025-02-17 10:30:52,0.0
-9964,300,-1896,1159,980,868,2025-02-17 10:30:52,0.0
-10664,196,-2492,1159,1557,471,2025-02-17 10:30:52,0.0
-11524,-72,-2364,986,1542,47,2025-02-17 10:30:52,0.0
-12392,-676,-1720,891,732,-205,2025-02-17 10:30:52,0.0
-13008,-916,-1240,925,-215,-257,2025-02-17 10:30:52,0.0
-12756,-976,-2404,1201,-1402,158,2025-02-17 10:30:52,0.0
-13696,-824,-2296,1168,-1518,378,2025-02-17 10:30:52,0.0
-14900,-948,-1904,966,-1494,733,2025-02-17 10:30:52,0.0
-14868,-492,-2504,867,-2335,1126,2025-02-17 10:30:52,0.0
-14288,520,-3504,1092,-3403,1811,2025-02-17 10:30:52,0.0
-13100,960,-4264,1329,-4079,2340,2025-02-17 10:30:52,0.0
-12036,856,-4128,1565,-2683,2585,2025-02-17 10:30:52,0.0
-12460,436,-2240,1584,456,2885,2025-02-17 10:30:52,
-13184,-836,-172,2122,3371,3064,2025-02-17 10:30:52,0.0
-15388,-1624,980,2958,5061,3473,2025-02-17 10:30:52,0.0
-17604,-908,1228,4313,5545,4066,2025-02-17 10:30:52,0.0
-18360,1168,-2296,5883,4443,4655,2025-02-17 10:30:52,0.0
-18048,3628,-5396,4971,1630,4475,2025-02-17 10:30:52,0.0
-16064,4696,-7368,3756,-1350,2978,2025-02-17 10:30:52,0.0
-15040,3636,-8476,1932,-2673,657,2025-02-17 10:30:52,0.0
-15204,2804,-8680,762,-1405,-366,2025-02-17 10:30:52,0.0
-14868,2024,-7540,321,-1237,-1220,2025-02-17 10:30:52,0.0
-14256,1096,-6300,490,-2693,-2206,2025-02-17 10:30:52,0.0
-12488,-168,-5308,817,-5409,-3254,2025-02-17 10:30:52,0.0
-10756,-1076,-4268,1051,-6590,-4375,2025-02-17 10:30:52,0.0
-9672,-1560,-4376,928,-5361,-5139,2025-02-17 10:30:52,0.0
-9448,-2240,-5000,183,-2259,-5470,2025-02-17 10:30:52,0.0
-11004,-2196,-5048,-1049,3803,-3968,2025-02-17 10:30:52,0.0
-11332,-1228,-4236,-910,4633,-2395,2025-02-17 10:30:52,0.0
-11420,-244,-2780,-455,4531,-1668,2025-02-17 10:30:52,0.0
-11540,-212,-3124,-220,3192,-1596,2025-02-17 10:30:52,0.0
-11556,-884,-4372,-410,2753,-1982,2025-02-17 10:30:52,0.0
-11768,-1452,-5112,-1102,3232,-2412,2025-02-17 10:30:52,0.0
-11928,-2200,-4880,-1288,3593,-2718,2025-02-17 10:30:52,0.0
-12104,-2460,-3784,-677,3486,-2751,2025-02-17 10:30:52,0.0
-12236,-2804,-3456,45,2436,-2785,2025-02-17 10:30:52,0.0
-12956,-2492,-3172,314,1343,-2475,2025-02-17 10:30:52,0.0
-12332,-2540,-3532,-149,188,-2217,2025-02-17 10:30:52,0.0
-11688,-2948,-3080,-718,-1288,-2289,2025-02-17 10:30:52,0.0
-10860,-3408,-3116,-871,-1982,-1922,2025-02-17 10:30:52,0.0
-10372,-3524,-2844,-671,-1262,-1058,2025-02-17 10:30:52,0.0
-10036,-3536,-2736,-301,707,-147,2025-02-17 10:30:52,0.0
-9776,-2388,-2116,409,1861,341,2025-02-17 10:30:52,0.0
-10216,-1908,-3204,594,2357,345,2025-02-17 10:30:52,0.0
-11336,-1532,-2728,734,2519,218,2025-02-17 10:30:52,0.0
-12488,-1496,-2144,1006,2323,232,2025-02-17 10:30:52,0.0
-12920,-1784,-1868,1404,1047,315,2025-02-17 10:30:52,0.0
-12392,-2184,-2216,1813,-876,-176,2025-02-17 10:30:52,0.0
-12416,-2704,-3012,2054,-2217,-827,2025-02-17 10:30:52,0.0
-13300,-2728,-4700,1787,-1824,-778,2025-02-17 10:30:53,0.0
-13316,-2068,-5184,680,794,-774,2025-02-17 10:30:53,0.0
-13660,-2204,-4884,-661,3557,-1580,2025-02-17 10:30:53,0.0
-15284,-3348,-3552,-1693,4173,-2085,2025-02-17 10:30:53,0.0
-16940,-3784,-2280,-1643,2422,-1986,2025-02-17 10:30:53,0.0
-17856,-3580,-2052,-1703,-103,-1301,2025-02-17 10:30:53,0.0
-16552,-1892,-1144,-1745,-2231,-1097,2025-02-17 10:30:53,0.0
-16180,-1488,-2636,-2402,-3862,-1615,2025-02-17 10:30:53,0.0
-14928,-2824,-4788,-3326,-5387,-2435,2025-02-17 10:30:53,0.0
-15480,-3800,-4292,-3206,-5265,-3023,2025-02-17 10:30:53,0.0
-16324,-4864,-4440,-2426,-3746,-2679,2025-02-17 10:30:53,0.0
-16980,-5800,-6116,-2175,-2822,-1154,2025-02-17 10:30:53,0.0
-14164,-5348,-7964,-2306,-1742,374,2025-02-17 10:30:53,0.0
-12036,-3204,-6628,-1421,-1218,719,2025-02-17 10:30:53,0.0
-10992,-1332,-5172,-1160,-837,1068,2025-02-17 10:30:53,0.0
-10872,-368,-4248,-1167,-245,1369,2025-02-17 10:30:53,0.0
-11556,224,-4148,-326,1657,1544,2025-02-17 10:30:53,0.0
-12668,464,-4344,162,2759,1275,2025-02-17 10:30:53,0.0
-14636,-436,-5208,364,3534,1290,2025-02-17 10:30:53,0.0
-15536,-816,-5836,590,3526,2201,2025-02-17 10:30:53,0.0
-14976,-1088,-5992,363,2297,3097,2025-02-17 10:30:53,0.0
-12192,-1412,-4600,-983,-2874,3990,2025-02-17 10:30:53,0.0
-10788,-868,-3688,-700,-3408,3669,2025-02-17 10:30:53,0.0
-10004,44,-3688,-741,-4170,3580,2025-02-17 10:30:53,0.0
-9104,600,-3236,-635,-4408,3260,2025-02-17 10:30:53,0.0
-8744,956,-2948,-757,-3695,2575,2025-02-17 10:30:53,0.0
-8608,744,-2672,-872,-1436,1773,2025-02-17 10:30:53,0.0
-8544,444,-2600,-952,681,1018,2025-02-17 10:30:53,0.0
-9116,-32,-2092,-890,2186,332,2025-02-17 10:30:53,0.0
-10212,-32,-2148,-459,2743,36,2025-02-17 10:30:53,0.0
-10516,296,-2400,-326,2729,-160,2025-02-17 10:30:53,0.0
-10484,392,-2548,-175,2166,-858,2025-02-17 10:30:53,0.0
-11316,672,-2556,-343,1668,-1529,2025-02-17 10:30:53,0.0
-11648,388,-2004,-471,1339,-2324,2025-02-17 10:30:53,0.0
-12528,-400,-1880,-385,598,-2567,2025-02-17 10:30:53,0.0
-12860,-440,-2816,-493,197,-2629,2025-02-17 10:30:53,0.0
-13544,-548,-3168,-627,329,-2437,2025-02-17 10:30:53,0.0
-14124,-1176,-2972,23,952,-1833,2025-02-17 10:30:53,0.0
-14356,-1476,-2544,455,1327,-1097,2025-02-17 10:30:53,0.0
-14732,-2536,-1860,842,1674,-566,2025-02-17 10:30:53,0.0
-15752,-2836,-2144,1575,2031,315,2025-02-17 10:30:53,0.0
-16456,-1264,-2152,2598,1867,1600,2025-02-17 10:30:53,0.0
-16048,-168,-2912,3394,695,2418,2025-02-17 10:30:53,0.0
-15056,-600,-2568,3262,-1307,2155,2025-02-17 10:30:53,0.0
-15648,-1356,-1828,3322,-1829,1918,2025-02-17 10:30:53,0.0
-15844,-1908,-1452,4047,-643,2207,2025-02-17 10:30:53,0.0
-17164,-72,-2372,5031,816,2918,2025-02-17 10:30:53,0.0
-17204,3076,-5280,5420,996,3873,2025-02-17 10:30:53,0.0
-15340,4424,-8480,4030,99,3039,2025-02-17 10:30:53,0.0
-13976,4140,-10436,1837,-309,801,2025-02-17 10:30:53,0.0
-13172,3132,-9600,381,-723,-1063,2025-02-17 10:30:53,0.0
-12340,1580,-7196,210,-1163,-1733,2025-02-17 10:30:53,0.0
-10320,-896,-5204,743,-2339,-2344,2025-02-17 10:30:53,0.0
-8384,-2444,-4952,1160,-2877,-3161,2025-02-17 10:30:53,0.0
-8112,-3952,-5792,927,-1526,-4151,2025-02-17 10:30:54,0.0
-9600,-4444,-7168,-86,2048,-4242,2025-02-17 10:30:54,0.0
-11736,-3204,-6728,-1366,5672,-3406,2025-02-17 10:30:54,0.0
-12988,-1008,-4580,-1595,7331,-2805,2025-02-17 10:30:54,0.0
-13616,-332,-4688,-1561,6784,-2497,2025-02-17 10:30:54,0.0
-14496,-524,-4232,-1067,5579,-2743,2025-02-17 10:30:54,0.0
-14668,-1876,-5920,-894,2647,-2910,2025-02-17 10:30:54,0.0
-14044,-2936,-6484,-732,-24,-3040,2025-02-17 10:30:54,0.0
-12920,-2740,-5748,-427,-719,-3029,2025-02-17 10:30:54,0.0
-11544,-2816,-4640,59,-1608,-3170,2025-02-17 10:30:54,
-10800,-2472,-3784,708,-2327,-2802,2025-02-17 10:30:54,0.0
-10196,-2496,-3336,986,-1979,-2229,2025-02-17 10:30:54,0.0
-10188,-2780,-3480,1088,-952,-1619,2025-02-17 10:30:54,0.0
-10544,-3328,-3568,1132,-80,-782,2025-02-17 10:30:54,0.0
-10520,-3584,-4388,805,300,69,2025-02-17 10:30:54,0.0
-10864,-3416,-4768,18,663,843,2025-02-17 10:30:54,0.0
-10692,-3468,-4932,-836,1676,1734,2025-02-17 10:30:54,0.0
