acceleration_x,acceleration_y,acceleration_z,gyroscope_x,gyroscope_y,gyroscope_z,timestamp,label
-12552,-1076,-5216,-196,174,-168,2025-02-17 10:28:37,0.0
-12572,-1152,-5320,-220,-13,-149,2025-02-17 10:28:37,0.0
-12516,-1036,-5212,-203,-102,-157,2025-02-17 10:28:37,0.0
-12412,-1160,-4816,-181,-107,-163,2025-02-17 10:28:37,0.0
-12508,-1044,-4908,-137,-50,-166,2025-02-17 10:28:37,0.0
-12528,-1088,-4772,-99,33,-129,2025-02-17 10:28:37,0.0
-12400,-1072,-4996,-110,38,-135,2025-02-17 10:28:37,0.0
-12376,-1152,-5120,-121,56,-137,2025-02-17 10:28:37,0.0
-12520,-1120,-5004,-62,34,-102,2025-02-17 10:28:37,0.0
-12404,-1052,-5312,-90,-11,-113,2025-02-17 10:28:37,0.0
-12412,-1008,-5240,-180,55,-139,2025-02-17 10:28:37,0.0
-12440,-1012,-5096,-168,147,-135,2025-02-17 10:28:37,0.0
-12320,-1064,-5236,-255,160,-175,2025-02-17 10:28:37,0.0
-12472,-1044,-4972,-244,125,-202,2025-02-17 10:28:37,0.0
-12504,-1056,-5296,-285,169,-134,2025-02-17 10:28:37,0.0
-12288,-1080,-5136,-428,118,-219,2025-02-17 10:28:37,0.0
-12356,-1092,-5108,-369,157,-240,2025-02-17 10:28:37,0.0
-12444,-1168,-4772,-322,248,-192,2025-02-17 10:28:37,0.0
-12508,-1136,-4792,-177,171,-197,2025-02-17 10:28:37,0.0
-12492,-1044,-5156,-136,208,-128,2025-02-17 10:28:37,0.0
-12468,-1088,-5100,-192,89,-209,2025-02-17 10:28:37,0.0
-12372,-1088,-5184,-306,38,-217,2025-02-17 10:28:38,0.0
-12532,-1072,-5008,-215,65,-206,2025-02-17 10:28:38,0.0
-12512,-1124,-5264,-152,111,-147,2025-02-17 10:28:38,0.0
-12380,-1060,-5208,-241,82,-159,2025-02-17 10:28:38,0.0
-12392,-1004,-5040,-252,141,-203,2025-02-17 10:28:38,0.0
-12480,-1180,-5012,-156,238,-192,2025-02-17 10:28:38,0.0
-12532,-1152,-5160,-38,149,-113,2025-02-17 10:28:38,0.0
-12452,-1052,-5156,-158,135,-137,2025-02-17 10:28:38,0.0
-12284,-1044,-5192,-293,100,-198,2025-02-17 10:28:38,0.0
-12396,-1088,-4908,-66,272,-171,2025-02-17 10:28:38,0.0
-12348,-1048,-5216,-22,196,-123,2025-02-17 10:28:38,0.0
-12424,-1072,-5316,-96,46,-162,2025-02-17 10:28:38,0.0
-12360,-1052,-5252,-177,74,-215,2025-02-17 10:28:38,0.0
-12392,-1148,-5236,-197,231,-210,2025-02-17 10:28:38,0.0
-12484,-1116,-4832,-16,207,-220,2025-02-17 10:28:38,0.0
-12700,-1032,-4944,81,232,-70,2025-02-17 10:28:38,0.0
-12384,-936,-5108,6,142,-124,2025-02-17 10:28:38,0.0
-12420,-1072,-5116,-47,21,-223,2025-02-17 10:28:38,0.0
-12516,-1144,-5136,9,88,-150,2025-02-17 10:28:38,0.0
-12468,-1128,-5320,-52,144,-159,2025-02-17 10:28:38,0.0
-12276,-956,-5140,-220,182,-244,2025-02-17 10:28:38,0.0
-12520,-1044,-4812,-65,292,-274,2025-02-17 10:28:38,0.0
-12544,-1044,-5064,25,382,-144,2025-02-17 10:28:38,0.0
-12376,-1028,-5364,-214,358,-168,2025-02-17 10:28:38,0.0
-12408,-1180,-4920,-134,207,-324,2025-02-17 10:28:38,0.0
-12632,-1200,-5052,-45,171,-222,2025-02-17 10:28:38,0.0
-12464,-1144,-5272,-104,232,-176,2025-02-17 10:28:38,0.0
-12268,-1036,-4976,-174,177,-279,2025-02-17 10:28:38,0.0
-12576,-1016,-4876,-55,217,-263,2025-02-17 10:28:38,0.0
-12612,-968,-4804,90,264,-136,2025-02-17 10:28:38,0.0
-12500,-948,-5128,41,275,-120,2025-02-17 10:28:38,0.0
-12396,-864,-4992,-43,260,-282,2025-02-17 10:28:38,0.0
-12536,-1048,-5236,-9,353,-225,2025-02-17 10:28:38,0.0
-12440,-956,-5040,-31,397,-217,2025-02-17 10:28:38,0.0
-12468,-1080,-5008,-98,326,-273,2025-02-17 10:28:38,0.0
-12428,-1068,-4780,21,370,-241,2025-02-17 10:28:38,0.0
-12528,-1072,-5120,92,440,-190,2025-02-17 10:28:38,0.0
-12460,-1016,-5228,22,453,-218,2025-02-17 10:28:38,0.0
-12392,-1172,-5272,45,417,-243,2025-02-17 10:28:38,0.0
-12568,-1036,-5144,-19,359,-188,2025-02-17 10:28:38,0.0
-12336,-1196,-4952,32,397,-179,2025-02-17 10:28:38,0.0
-12440,-1108,-4948,95,448,-149,2025-02-17 10:28:38,0.0
-12296,-908,-5140,59,630,-146,2025-02-17 10:28:38,0.0
-12400,-972,-5176,153,627,-163,2025-02-17 10:28:38,0.0
-12284,-956,-5348,115,643,-127,2025-02-17 10:28:38,0.0
-12180,-884,-5268,100,660,-167,2025-02-17 10:28:38,0.0
-12288,-768,-5292,68,831,-224,2025-02-17 10:28:38,0.0
-12196,-940,-5116,81,1014,-292,2025-02-17 10:28:38,0.0
-12324,-960,-5024,178,1145,-294,2025-02-17 10:28:38,0.0
-12356,-876,-5056,204,1023,-363,2025-02-17 10:28:38,0.0
-12580,-908,-5076,152,898,-415,2025-02-17 10:28:38,0.0
-12508,-916,-5344,117,717,-425,2025-02-17 10:28:38,0.0
-12640,-1000,-5304,13,539,-401,2025-02-17 10:28:38,0.0
-12676,-884,-5224,-139,374,-401,2025-02-17 10:28:38,0.0
-12452,-900,-4816,-193,152,-524,2025-02-17 10:28:38,0.0
-12528,-1016,-4940,-86,-152,-644,2025-02-17 10:28:38,0.0
-12516,-1160,-5164,-141,-182,-578,2025-02-17 10:28:38,0.0
-12376,-1340,-5324,-247,-23,-631,2025-02-17 10:28:38,0.0
-12424,-1316,-4788,-279,164,-698,2025-02-17 10:28:38,0.0
-12648,-1356,-4768,-284,206,-750,2025-02-17 10:28:38,0.0
-12816,-1408,-5028,-337,76,-789,2025-02-17 10:28:39,0.0
-12692,-1536,-5036,-378,-255,-918,2025-02-17 10:28:39,0.0
-12708,-1608,-4996,-380,-314,-994,2025-02-17 10:28:39,0.0
-12740,-1628,-5108,-327,-97,-982,2025-02-17 10:28:39,0.0
-12528,-1980,-5092,-296,172,-1067,2025-02-17 10:28:39,0.0
-12640,-1832,-5192,-112,462,-1271,2025-02-17 10:28:39,0.0
-12748,-1940,-5636,23,387,-1353,2025-02-17 10:28:39,0.0
-12952,-1968,-5708,7,88,-1198,2025-02-17 10:28:39,0.0
-12608,-1972,-5448,87,-82,-893,2025-02-17 10:28:39,0.0
-11660,-1892,-5496,835,-212,-509,2025-02-17 10:28:39,0.0
-11376,-2092,-5452,1058,-532,-804,2025-02-17 10:28:39,0.0
-11444,-2252,-5084,1128,-1125,-1012,2025-02-17 10:28:39,0.0
-12128,-2440,-4464,958,-1613,-1171,2025-02-17 10:28:39,0.0
-13216,-2408,-2932,902,-404,-688,2025-02-17 10:28:39,0.0
-12908,-1884,-2788,1574,582,70,2025-02-17 10:28:39,0.0
-12624,-980,-3952,1664,1169,337,2025-02-17 10:28:39,0.0
-12444,0,-4324,773,1879,117,2025-02-17 10:28:39,0.0
-11608,-188,-3784,-123,2401,-1141,2025-02-17 10:28:39,0.0
-11788,-920,-4296,-719,2036,-2742,2025-02-17 10:28:39,
-13324,-1748,-4568,-1335,1342,-3330,2025-02-17 10:28:39,0.0
-13764,-2668,-4084,-1510,580,-2843,2025-02-17 10:28:39,0.0
-13836,-2824,-3596,-1343,-314,-1978,2025-02-17 10:28:39,0.0
-13408,-2492,-3240,-1207,-1235,-1184,2025-02-17 10:28:39,0.0
-12692,-2260,-3456,-1257,-2168,-809,2025-02-17 10:28:39,0.0
-12288,-2028,-3684,-1427,-2416,-552,2025-02-17 10:28:39,0.0
-11700,-2168,-3872,-1711,-1130,-582,2025-02-17 10:28:39,0.0
-11596,-2360,-3744,-1930,724,-1068,2025-02-17 10:28:39,0.0
-12128,-2424,-2600,-1973,1102,-1323,2025-02-17 10:28:39,0.0
-12640,-2828,-2436,-1640,1134,-1398,2025-02-17 10:28:39,0.0
-13368,-2728,-1996,-1562,924,-1082,2025-02-17 10:28:39,0.0
-13320,-2464,-1672,-1484,557,-694,2025-02-17 10:28:39,0.0
-13036,-2260,-2384,-1345,-24,-813,2025-02-17 10:28:39,0.0
-13144,-1480,-2660,-1475,-924,-989,2025-02-17 10:28:39,0.0
-12912,-1628,-3036,-1524,-1242,-1107,2025-02-17 10:28:39,0.0
-13040,-1384,-2776,-1340,-1127,-1226,2025-02-17 10:28:39,0.0
-12348,-2364,-2596,-1152,-748,-1525,2025-02-17 10:28:39,0.0
-12388,-2956,-3104,-1483,-606,-2076,2025-02-17 10:28:39,0.0
-12736,-3484,-3368,-1827,275,-2438,2025-02-17 10:28:39,0.0
-13588,-3468,-3392,-2502,1627,-2736,2025-02-17 10:28:39,0.0
-14076,-3196,-3364,-3130,1650,-2781,2025-02-17 10:28:39,0.0
-14896,-3168,-2908,-3645,182,-2587,2025-02-17 10:28:39,0.0
-14972,-3836,-2644,-3906,-1522,-2019,2025-02-17 10:28:39,0.0
-14504,-4372,-3008,-3182,-2586,-1790,2025-02-17 10:28:39,0.0
-14144,-4564,-3228,-2353,-2232,-1929,2025-02-17 10:28:39,0.0
-14596,-5280,-3876,-1694,-1250,-2256,2025-02-17 10:28:39,0.0
-14976,-6072,-5080,-1109,-811,-2469,2025-02-17 10:28:39,0.0
-16520,-6620,-5828,-493,-445,-2055,2025-02-17 10:28:39,0.0
-17964,-5832,-6244,258,633,-290,2025-02-17 10:28:39,0.0
-17216,-4192,-5820,1019,694,2099,2025-02-17 10:28:39,0.0
-15080,-3232,-6356,1522,-2696,3197,2025-02-17 10:28:39,0.0
-13600,-3360,-7512,1162,-6740,3515,2025-02-17 10:28:39,0.0
-12644,-3024,-7444,1216,-9581,3891,2025-02-17 10:28:39,0.0
-12540,-1424,-5744,2039,-10056,4658,2025-02-17 10:28:39,0.0
-10920,-460,-5564,2569,-6290,5601,2025-02-17 10:28:39,0.0
-9056,264,-6116,2445,-3368,6068,2025-02-17 10:28:39,0.0
-7256,968,-6456,1704,-1877,5158,2025-02-17 10:28:39,0.0
-6516,1128,-6076,424,-761,2941,2025-02-17 10:28:39,0.0
-7124,792,-5732,-682,936,750,2025-02-17 10:28:39,0.0
-9808,-832,-5312,-1883,5048,-697,2025-02-17 10:28:39,0.0
-11408,-1748,-4376,-1944,9190,-901,2025-02-17 10:28:39,0.0
-12784,-2404,-4108,-1417,11825,-849,2025-02-17 10:28:39,0.0
-15136,-2268,-4436,-1193,11705,52,2025-02-17 10:28:39,0.0
-17120,-2400,-4020,-1277,11400,2124,2025-02-17 10:28:39,0.0
-16328,-1980,-2940,290,6697,4379,2025-02-17 10:28:39,0.0
-14652,-1068,-4824,1374,477,5100,2025-02-17 10:28:40,0.0
-11840,-280,-6696,1005,-5451,5022,2025-02-17 10:28:40,0.0
-9896,480,-5896,382,-9946,4198,2025-02-17 10:28:40,0.0
-9368,796,-4576,328,-12724,2876,2025-02-17 10:28:40,0.0
-10672,632,-1336,-1349,-8439,2129,2025-02-17 10:28:40,0.0
-9104,144,-436,1136,-369,2506,2025-02-17 10:28:40,0.0
-8692,-24,-3160,1836,2947,1994,2025-02-17 10:28:40,0.0
-9360,680,-3872,1464,4647,1046,2025-02-17 10:28:40,0.0
-10788,644,-3628,1156,4852,-201,2025-02-17 10:28:40,0.0
-11912,192,-3040,918,3898,-1017,2025-02-17 10:28:40,0.0
-12816,-84,-2952,748,2153,-1558,2025-02-17 10:28:40,0.0
-13680,-188,-2840,611,584,-1619,2025-02-17 10:28:40,0.0
-14080,152,-3044,573,-219,-1211,2025-02-17 10:28:40,0.0
-13608,560,-3248,742,-480,-811,2025-02-17 10:28:40,0.0
-13208,820,-2928,819,-844,-733,2025-02-17 10:28:40,0.0
-13144,724,-3040,722,-1306,-750,2025-02-17 10:28:40,0.0
-13252,272,-2884,504,-1525,-799,2025-02-17 10:28:40,0.0
-13788,-988,-2332,715,-1116,-463,2025-02-17 10:28:40,0.0
-14132,-1824,-3084,1311,-504,357,2025-02-17 10:28:40,0.0
-14340,-1420,-3236,1704,401,1438,2025-02-17 10:28:40,0.0
-14200,-372,-2468,1817,1234,2144,2025-02-17 10:28:40,0.0
-14184,-480,-2620,1921,1487,2450,2025-02-17 10:28:40,0.0
-14444,-1392,-2412,2033,852,2670,2025-02-17 10:28:40,0.0
-14340,-2032,-1688,2095,-638,3011,2025-02-17 10:28:40,0.0
-14600,-620,-632,2901,-37,3663,2025-02-17 10:28:40,0.0
-14084,1440,-1988,4236,3484,4109,2025-02-17 10:28:40,0.0
-14460,3384,-4816,4916,6883,3576,2025-02-17 10:28:40,0.0
-15356,5080,-9100,3803,10125,3386,2025-02-17 10:28:40,0.0
-15784,5420,-9348,1976,13139,2832,2025-02-17 10:28:40,0.0
-16080,4484,-10492,515,14876,1700,2025-02-17 10:28:40,0.0
-14880,3084,-11156,-333,11273,110,2025-02-17 10:28:40,0.0
-12580,1936,-11216,-243,4249,-1572,2025-02-17 10:28:40,0.0
-10336,540,-11188,-250,-6091,-3187,2025-02-17 10:28:40,0.0
-7996,-1412,-10028,-1009,-13948,-4588,2025-02-17 10:28:40,0.0
-7120,-2552,-8204,-1617,-18888,-5844,2025-02-17 10:28:40,0.0
-8372,-3712,-7464,-1875,-19737,-6132,2025-02-17 10:28:40,0.0
-11912,-3392,-3544,-4622,-10464,-4288,2025-02-17 10:28:40,0.0
-10600,-3268,-1020,-1684,1511,-1929,2025-02-17 10:28:40,0.0
-7912,-2176,-3564,901,6327,-2025,2025-02-17 10:28:40,0.0
-9404,-352,-6120,864,8288,-3559,2025-02-17 10:28:40,0.0
-10904,528,-6872,-792,10643,-4962,2025-02-17 10:28:40,0.0
-12204,184,-5616,-947,11474,-5742,2025-02-17 10:28:40,0.0
-13048,-856,-6264,-386,9097,-5824,2025-02-17 10:28:40,0.0
-12884,-1820,-8088,-228,4286,-4887,2025-02-17 10:28:40,0.0
-11704,-2552,-8032,-436,-1421,-3841,2025-02-17 10:28:40,0.0
-10760,-2968,-7060,-586,-6537,-3807,2025-02-17 10:28:40,0.0
-10164,-2928,-6200,-1184,-9434,-4183,2025-02-17 10:28:40,0.0
-10564,-2696,-5716,-1960,-10332,-4315,2025-02-17 10:28:40,0.0
-10616,-2780,-5376,-2777,-9987,-4160,2025-02-17 10:28:40,0.0
-11128,-2856,-3772,-3254,-8620,-3516,2025-02-17 10:28:40,0.0
-12216,-2744,-2528,-3925,-5669,-2691,2025-02-17 10:28:40,0.0
-11136,-2948,-1676,-3045,666,-1124,2025-02-17 10:28:40,0.0
-10184,-2776,-3616,-2194,3767,-1025,2025-02-17 10:28:40,0.0
-10892,-1884,-4716,-2632,4672,-1318,2025-02-17 10:28:40,0.0
-11820,-1788,-3968,-3424,3993,-1814,2025-02-17 10:28:40,
-12692,-2052,-2800,-3569,1541,-2235,2025-02-17 10:28:40,0.0
-13388,-2608,-2532,-3448,-1125,-1975,2025-02-17 10:28:40,0.0
-14280,-2680,-1960,-3475,-3338,-897,2025-02-17 10:28:40,0.0
-13636,-3092,-1764,-3466,-3220,162,2025-02-17 10:28:40,0.0
-12392,-3216,-2420,-3016,-3336,500,2025-02-17 10:28:40,0.0
-11876,-3024,-3240,-2796,-3744,319,2025-02-17 10:28:41,0.0
-11472,-2540,-4028,-2804,-3583,151,2025-02-17 10:28:41,0.0
-11340,-1668,-4676,-2947,-679,-270,2025-02-17 10:28:41,0.0
-10432,-1792,-5040,-3461,3211,-1829,2025-02-17 10:28:41,0.0
-11600,-2224,-4704,-4212,5443,-4192,2025-02-17 10:28:41,0.0
-13504,-2148,-3388,-4738,5960,-5879,2025-02-17 10:28:41,0.0
-15200,-1768,-2120,-4882,4968,-6250,2025-02-17 10:28:41,0.0
-16264,-2064,-2060,-4968,3248,-5504,2025-02-17 10:28:41,0.0
-15996,-4072,-3040,-5394,2480,-5231,2025-02-17 10:28:41,0.0
-15464,-5592,-4128,-4913,3916,-5457,2025-02-17 10:28:41,0.0
-14396,-7068,-5268,-3538,6226,-5843,2025-02-17 10:28:41,0.0
-15700,-7780,-7984,-2188,10422,-5904,2025-02-17 10:28:41,0.0
-17220,-6696,-8404,-1858,10816,-3455,2025-02-17 10:28:41,0.0
-17504,-5048,-9000,-626,6875,-686,2025-02-17 10:28:41,0.0
-15760,-3408,-11512,-551,147,2132,2025-02-17 10:28:41,0.0
-12404,-2868,-12380,-1550,-7509,3998,2025-02-17 10:28:41,0.0
-9424,-2916,-11620,-2378,-12272,4187,2025-02-17 10:28:41,0.0
-8324,-1588,-10732,-2365,-13803,4195,2025-02-17 10:28:41,0.0
-8008,412,-8576,-2044,-13539,3597,2025-02-17 10:28:41,0.0
-7832,2004,-6480,-1757,-12644,1911,2025-02-17 10:28:41,0.0
-8208,1952,-5736,-2042,-11014,-206,2025-02-17 10:28:41,0.0
-8776,544,-5092,-2661,-9178,-1796,2025-02-17 10:28:41,0.0
-9452,-1428,-4700,-2311,-6527,-2269,2025-02-17 10:28:41,0.0
-10856,-3552,-5732,-2074,-1319,-1589,2025-02-17 10:28:41,0.0
-12248,-3788,-5896,-2738,4016,246,2025-02-17 10:28:41,0.0
-13396,-3584,-4152,-3218,7710,2576,2025-02-17 10:28:41,0.0
-12328,-3060,-3484,-2620,8302,3605,2025-02-17 10:28:41,0.0
-12468,-1468,-3888,-1775,6874,3410,2025-02-17 10:28:41,0.0
-12800,-688,-4724,-1543,5354,3071,2025-02-17 10:28:41,0.0
-12148,-492,-5476,-1263,2864,2301,2025-02-17 10:28:41,0.0
-12624,-324,-5188,-778,-1310,2374,2025-02-17 10:28:41,0.0
-12488,-388,-5632,-589,-4623,3088,2025-02-17 10:28:41,0.0
-10604,-480,-4932,-958,-7105,3107,2025-02-17 10:28:41,0.0
-9204,-132,-4052,-1018,-8356,2056,2025-02-17 10:28:41,0.0
-9820,-424,-2952,-981,-8457,1028,2025-02-17 10:28:41,0.0
-10668,-728,-2196,-1615,-6048,330,2025-02-17 10:28:41,0.0
-10600,-540,44,-643,164,545,2025-02-17 10:28:41,0.0
-9544,-520,-2424,356,2952,145,2025-02-17 10:28:41,0.0
-10132,-80,-3556,110,2924,-545,2025-02-17 10:28:41,0.0
-10916,-108,-3480,-390,2254,-1261,2025-02-17 10:28:41,0.0
-12068,-692,-2040,-447,1531,-1842,2025-02-17 10:28:41,0.0
-13148,-1248,-1260,100,970,-1993,2025-02-17 10:28:41,0.0
-14528,-1204,-1408,715,1101,-1324,2025-02-17 10:28:41,0.0
-14716,-1040,-1652,1376,1102,-490,2025-02-17 10:28:41,0.0
-14668,-752,-2768,1954,873,186,2025-02-17 10:28:41,0.0
-14008,-772,-4248,1972,705,814,2025-02-17 10:28:41,0.0
-13724,-812,-5800,1695,1228,1334,2025-02-17 10:28:41,0.0
-14320,-524,-5476,1382,2501,2084,2025-02-17 10:28:41,0.0
-14724,-708,-3752,1139,2750,2580,2025-02-17 10:28:41,0.0
-14944,-1484,-1720,1275,1197,2465,2025-02-17 10:28:41,0.0
-16244,-1924,-336,2469,-537,2390,2025-02-17 10:28:41,0.0
-17108,-2072,-2416,3940,393,3024,2025-02-17 10:28:41,0.0
-16292,356,-5016,4502,3570,3949,2025-02-17 10:28:41,0.0
-15288,2476,-7640,3819,6495,4257,2025-02-17 10:28:41,0.0
-12696,3156,-9988,1796,9084,3289,2025-02-17 10:28:41,0.0
-12200,3156,-10636,636,10933,1187,2025-02-17 10:28:41,0.0
-14228,2616,-10992,-505,11285,-353,2025-02-17 10:28:41,0.0
-14020,988,-9444,-258,7904,-1007,2025-02-17 10:28:41,0.0
-12196,-268,-9420,434,389,-1568,2025-02-17 10:28:41,0.0
-9760,-1692,-10300,69,-8629,-2312,2025-02-17 10:28:42,0.0
-8140,-3188,-9972,-945,-13734,-3110,2025-02-17 10:28:42,0.0
-8188,-4160,-8780,-1906,-15424,-3467,2025-02-17 10:28:42,0.0
-9580,-4504,-7608,-2657,-14377,-3211,2025-02-17 10:28:42,0.0
-11348,-2680,-4832,-2582,-10022,-2272,2025-02-17 10:28:42,0.0
-12336,-744,-2292,-2762,-1401,-1135,2025-02-17 10:28:42,0.0
-9740,-892,-1440,-413,4716,-1118,2025-02-17 10:28:42,0.0
-10268,-820,-4284,418,6878,-2329,2025-02-17 10:28:42,0.0
-10560,-720,-6504,-387,9350,-3407,2025-02-17 10:28:42,0.0
-11252,-1444,-6624,-1043,11662,-4097,2025-02-17 10:28:42,0.0
-11384,-2516,-7400,-1607,11372,-4404,2025-02-17 10:28:42,0.0
-12016,-3044,-7160,-1702,8352,-4167,2025-02-17 10:28:42,0.0
-12432,-3064,-7056,-1527,3973,-3536,2025-02-17 10:28:42,0.0
-12072,-3028,-6928,-1593,-612,-2985,2025-02-17 10:28:42,0.0
-11172,-2896,-5884,-1773,-3847,-2859,2025-02-17 10:28:42,0.0
-10624,-2692,-5348,-1888,-5616,-3159,2025-02-17 10:28:42,0.0
-10204,-2920,-4396,-1836,-6530,-3686,2025-02-17 10:28:42,0.0
-10200,-2888,-4612,-1705,-6990,-3887,2025-02-17 10:28:42,0.0
-10788,-3080,-4804,-1628,-6388,-3356,2025-02-17 10:28:42,0.0
-11092,-2980,-4624,-2019,-4779,-2564,2025-02-17 10:28:42,0.0
-11676,-3072,-3940,-2586,-2665,-1691,2025-02-17 10:28:42,0.0
-12068,-3080,-2684,-2483,47,-770,2025-02-17 10:28:42,0.0
-12276,-3008,-2452,-2313,2647,112,2025-02-17 10:28:42,0.0
-11924,-2532,-2224,-2199,4208,616,2025-02-17 10:28:42,0.0
-11432,-2372,-2828,-2085,4636,715,2025-02-17 10:28:42,0.0
-11136,-2352,-3652,-2093,4303,770,2025-02-17 10:28:42,0.0
-11280,-2544,-4368,-2348,4046,677,2025-02-17 10:28:42,0.0
-11788,-2552,-4088,-2743,4290,282,2025-02-17 10:28:42,0.0
-12080,-2588,-3924,-2878,4827,-167,2025-02-17 10:28:42,0.0
-12796,-2488,-3348,-2196,5324,-808,2025-02-17 10:28:42,0.0
-14192,-2256,-4064,-1291,5803,-554,2025-02-17 10:28:42,0.0
-14464,-1808,-4964,-806,6314,508,2025-02-17 10:28:42,0.0
-13436,-1372,-5480,-997,5352,915,2025-02-17 10:28:42,0.0
-12332,-1008,-6004,-864,2399,388,2025-02-17 10:28:42,0.0
-11584,-1104,-7152,-974,-689,-601,2025-02-17 10:28:42,0.0
-11196,-1164,-6960,-1696,-3334,-1949,2025-02-17 10:28:42,
-12296,-752,-5044,-2728,-5462,-3589,2025-02-17 10:28:42,0.0
-13200,-1704,-4824,-3588,-5759,-4421,2025-02-17 10:28:42,0.0
-13136,-4372,-5084,-4073,-4200,-5201,2025-02-17 10:28:42,0.0
-13340,-6572,-6428,-4033,-658,-5826,2025-02-17 10:28:42,0.0
-14232,-8536,-7148,-3902,4305,-5872,2025-02-17 10:28:42,0.0
-14668,-8932,-8228,-3729,9616,-5276,2025-02-17 10:28:42,0.0
-15820,-7308,-8248,-3642,13148,-3523,2025-02-17 10:28:42,0.0
-16216,-5628,-9068,-2298,11516,-1695,2025-02-17 10:28:42,0.0
-15356,-4488,-11704,-1360,6314,663,2025-02-17 10:28:42,0.0
-13540,-3680,-12768,-1852,-1328,2939,2025-02-17 10:28:42,0.0
-10496,-3004,-13084,-2831,-9175,4496,2025-02-17 10:28:42,0.0
-8436,-2004,-11748,-3570,-13886,4885,2025-02-17 10:28:42,0.0
-7176,-692,-9696,-3999,-14989,4158,2025-02-17 10:28:42,0.0
-7200,748,-6064,-3041,-13327,1998,2025-02-17 10:28:42,0.0
-8180,1312,-4696,-1268,-11691,380,2025-02-17 10:28:42,0.0
-9472,-120,-5356,-404,-8503,-517,2025-02-17 10:28:42,0.0
-11464,-1216,-5372,-467,-2974,-244,2025-02-17 10:28:42,0.0
-12400,-2192,-5076,76,4025,1210,2025-02-17 10:28:42,0.0
-12104,-2548,-6044,396,9921,3102,2025-02-17 10:28:42,0.0
-10804,-2604,-7516,-459,13418,4275,2025-02-17 10:28:42,0.0
-10336,-2160,-6428,-436,12603,4186,2025-02-17 10:28:42,0.0
-10640,-1868,-7276,237,9242,3424,2025-02-17 10:28:42,0.0
-11848,-1540,-8196,218,5291,2915,2025-02-17 10:28:42,0.0
-12124,-804,-8408,-124,1398,2969,2025-02-17 10:28:42,0.0
-12200,-216,-7476,-135,-1957,3097,2025-02-17 10:28:42,0.0
-11356,124,-6072,383,-5277,3181,2025-02-17 10:28:42,0.0
-10516,300,-5260,922,-6339,2915,2025-02-17 10:28:42,0.0
-10028,300,-4980,1371,-6199,2401,2025-02-17 10:28:42,0.0
-9816,508,-5384,1368,-4861,2012,2025-02-17 10:28:42,0.0
-9676,584,-5260,1130,-2801,1648,2025-02-17 10:28:42,0.0
-9840,488,-4748,839,101,1085,2025-02-17 10:28:43,0.0
-10212,-408,-4324,830,3661,431,2025-02-17 10:28:43,0.0
-11632,-1240,-4376,1111,6992,188,2025-02-17 10:28:43,0.0
-12212,-1528,-4988,1170,8585,520,2025-02-17 10:28:43,0.0
-12828,-1392,-4872,1203,7791,595,2025-02-17 10:28:43,0.0
-12456,-1204,-6252,1407,5212,497,2025-02-17 10:28:43,0.0
-12912,-500,-5900,1456,1416,376,2025-02-17 10:28:43,0.0
-12316,396,-6300,1291,-845,428,2025-02-17 10:28:43,0.0
-12104,1120,-6324,1123,-2157,672,2025-02-17 10:28:43,0.0
-11620,1388,-5440,800,-2791,646,2025-02-17 10:28:43,0.0
-11356,776,-4644,969,-2888,79,2025-02-17 10:28:43,0.0
-11720,-176,-5296,1354,-2507,-264,2025-02-17 10:28:43,0.0
-12368,-640,-5432,1569,-1404,-79,2025-02-17 10:28:43,0.0
-13060,-828,-5080,1886,-362,413,2025-02-17 10:28:43,0.0
-13392,-588,-4884,2178,177,917,2025-02-17 10:28:43,0.0
-13916,-528,-4580,2424,-205,1306,2025-02-17 10:28:43,0.0
-13956,-624,-4176,2895,-1812,1612,2025-02-17 10:28:43,0.0
-14560,-564,-4128,3702,-4107,2177,2025-02-17 10:28:43,0.0
-12200,-840,-8132,4731,-7443,3491,2025-02-17 10:28:43,0.0
-12032,180,-8632,4715,-7415,3318,2025-02-17 10:28:43,0.0
-12344,696,-9196,4396,-4479,2471,2025-02-17 10:28:43,0.0
-11992,1028,-9668,3490,673,1224,2025-02-17 10:28:43,0.0
-11388,884,-8812,2848,5264,-117,2025-02-17 10:28:43,0.0
-10740,188,-8136,2577,7001,-839,2025-02-17 10:28:43,0.0
-9604,-648,-7612,2803,5532,-1475,2025-02-17 10:28:43,0.0
-9372,-1760,-8144,2814,2357,-2131,2025-02-17 10:28:43,0.0
-10304,-2576,-8324,2153,-495,-2443,2025-02-17 10:28:43,0.0
-11236,-3212,-7416,867,-2235,-2556,2025-02-17 10:28:43,0.0
-12920,-2708,-5232,293,-1655,-2388,2025-02-17 10:28:43,0.0
-13492,-1596,-3904,1050,1287,-1564,2025-02-17 10:28:43,0.0
-13532,-1312,-3808,1983,4025,-1076,2025-02-17 10:28:43,0.0
-12264,-1180,-5548,2404,5477,-1115,2025-02-17 10:28:43,0.0
-11180,-1612,-7716,2390,5611,-1232,2025-02-17 10:28:43,0.0
-10548,-2636,-9364,1582,3949,-1649,2025-02-17 10:28:43,0.0
-10436,-3564,-9520,628,1665,-2069,2025-02-17 10:28:43,0.0
-11408,-4012,-8588,-301,-849,-2035,2025-02-17 10:28:43,0.0
-11936,-3340,-7084,-783,-1739,-1121,2025-02-17 10:28:43,0.0
-11484,-2756,-6288,-887,-1643,-224,2025-02-17 10:28:43,0.0
-10644,-2188,-5860,-683,-727,283,2025-02-17 10:28:43,0.0
-10416,-1876,-5364,-379,256,185,2025-02-17 10:28:43,0.0
-10064,-1504,-5636,-327,1238,-294,2025-02-17 10:28:43,0.0
-9872,-1392,-5704,-518,2527,-987,2025-02-17 10:28:43,0.0
-10552,-1756,-5588,-623,4275,-1673,2025-02-17 10:28:43,0.0
-11040,-2364,-6012,-294,5369,-1883,2025-02-17 10:28:43,0.0
-11936,-2880,-7116,-84,5870,-1374,2025-02-17 10:28:43,0.0
-11724,-2988,-7792,-328,5569,-650,2025-02-17 10:28:43,0.0
-11340,-2968,-7436,-546,3962,-353,2025-02-17 10:28:43,0.0
-11764,-2692,-7176,-645,2757,-490,2025-02-17 10:28:43,0.0
-12276,-2536,-7100,-661,2644,-606,2025-02-17 10:28:43,0.0
-12900,-2088,-6668,-586,2725,-615,2025-02-17 10:28:43,0.0
-13220,-1508,-6528,-518,1802,-296,2025-02-17 10:28:43,0.0
-13288,-1424,-6308,-390,-528,359,2025-02-17 10:28:43,0.0
-12404,-1536,-6244,-42,-3322,1444,2025-02-17 10:28:43,0.0
-11340,-1392,-6160,151,-5824,2495,2025-02-17 10:28:43,0.0
-10856,-1128,-5992,363,-8248,3035,2025-02-17 10:28:43,0.0
-10620,-1216,-5800,733,-11179,3158,2025-02-17 10:28:43,0.0
-10816,-2032,-5700,852,-14033,2912,2025-02-17 10:28:43,0.0
-11024,-3636,-6500,381,-15167,1996,2025-02-17 10:28:43,0.0
-12120,-4600,-7364,-897,-12392,384,2025-02-17 10:28:43,0.0
-14684,-2696,-6736,-895,-2456,-13,2025-02-17 10:28:44,0.0
-14348,-268,-5264,-352,4346,1294,2025-02-17 10:28:44,0.0
-12644,1268,-4248,-48,5838,2896,2025-02-17 10:28:44,0.0
-9728,668,-5140,200,4998,3313,2025-02-17 10:28:44,0.0
-8700,-332,-5940,625,4350,2078,2025-02-17 10:28:44,0.0
-8640,-1248,-8148,579,4910,124,2025-02-17 10:28:44,0.0
-9940,-1772,-9108,-543,6770,-1148,2025-02-17 10:28:44,0.0
-11540,-1780,-7084,-2059,8477,-1397,2025-02-17 10:28:44,0.0
-13172,-1692,-4040,-2442,9136,-1228,2025-02-17 10:28:44,0.0
-14000,-1456,-3748,-1186,9076,-212,2025-02-17 10:28:44,5
-13244,-1492,-5764,11,8777,1071,2025-02-17 10:28:44,5
-11784,-1372,-8272,39,8245,1770,2025-02-17 10:28:44,5
-10816,-988,-9048,-851,7823,1373,2025-02-17 10:28:44,5
-9820,-1036,-8568,-1350,6285,72,2025-02-17 10:28:44,5
-10432,-1292,-8488,-1322,2980,-1379,2025-02-17 10:28:44,5
-11652,-1168,-9172,-1767,64,-1341,2025-02-17 10:28:44,5
-12052,-1168,-8576,-2369,-1171,-204,2025-02-17 10:28:44,5
-11488,-1088,-7384,-2398,-601,781,2025-02-17 10:28:44,5
-11324,-996,-6584,-1823,890,1181,2025-02-17 10:28:44,5
-11212,-768,-6344,-1128,2448,1272,2025-02-17 10:28:44,5
-10920,-788,-6664,-480,3905,1368,2025-02-17 10:28:44,5
-11220,-948,-7252,-178,5600,1780,2025-02-17 10:28:44,5
-10984,-1156,-8548,-559,7312,2313,2025-02-17 10:28:44,5
-10616,-1248,-8596,-1472,8946,2600,2025-02-17 10:28:44,5
-10080,-1256,-9080,-2632,10710,2676,2025-02-17 10:28:44,5
-10356,-956,-9468,-3699,12205,3108,2025-02-17 10:28:44,5
-10516,-676,-8940,-4101,14009,3837,2025-02-17 10:28:44,5
-11096,-612,-8096,-3793,16603,4764,2025-02-17 10:28:44,5
-11468,-440,-8060,-3089,19631,5824,2025-02-17 10:28:44,5
-11092,-780,-7972,-2434,22269,6994,2025-02-17 10:28:44,5
-8908,-2304,-8484,-1927,24243,7678,2025-02-17 10:28:44,5
-7740,-3768,-10748,-2826,25857,8008,2025-02-17 10:28:44,5
-6392,-4264,-13216,-5541,26530,8855,2025-02-17 10:28:44,5
-4788,-4672,-14484,-9094,26239,9395,2025-02-17 10:28:44,5
-3224,-4536,-15300,-12238,24917,8773,2025-02-17 10:28:44,5
-2508,-3632,-15880,-14664,22075,7837,2025-02-17 10:28:44,5
-1968,-2292,-16380,-17438,15971,7001,2025-02-17 10:28:44,5
-1872,-768,-17004,-19708,9618,6978,2025-02-17 10:28:44,5
-1556,816,-16580,-22290,2421,7353,2025-02-17 10:28:44,5
-984,2016,-15900,-23339,-2317,7123,2025-02-17 10:28:44,5
-944,3244,-14672,-23156,-5221,6157,2025-02-17 10:28:44,5
-880,4312,-14100,-22630,-6986,4539,2025-02-17 10:28:44,5
708,4280,-11392,-22114,-9201,2300,2025-02-17 10:28:44,5
996,4188,-10476,-21073,-12069,27,2025-02-17 10:28:44,5
-40,3992,-9368,-20855,-15413,-910,2025-02-17 10:28:44,5
-1108,3684,-8096,-20579,-18075,-290,2025-02-17 10:28:44,5
-2324,3184,-5508,-19157,-20198,1534,2025-02-17 10:28:44,5
-2548,2256,-5288,-17917,-22999,6404,2025-02-17 10:28:44,5
-1452,516,-3260,-25441,-24677,12965,2025-02-17 10:28:44,5
-920,228,-2364,-28430,-25408,17558,2025-02-17 10:28:44,5
-648,-12,-2052,-30629,-24992,21593,2025-02-17 10:28:44,5
240,-336,-824,-31925,-24377,24956,2025-02-17 10:28:44,5
1936,-1252,896,-31685,-23829,27515,2025-02-17 10:28:44,5
3484,-2316,1880,-30307,-23609,28340,2025-02-17 10:28:44,5
2676,-2536,2304,-28320,-23268,28593,2025-02-17 10:28:44,5
3396,-2596,1920,-26758,-22972,28830,2025-02-17 10:28:44,5
3808,-2284,1520,-25463,-22485,28974,2025-02-17 10:28:44,5
3908,-2268,1492,-24156,-21890,28636,2025-02-17 10:28:44,5
3848,-2152,2056,-22827,-21101,28190,2025-02-17 10:28:44,5
3548,-1996,2140,-21380,-19982,27711,2025-02-17 10:28:44,5
3344,-1884,2332,-19882,-18736,27223,2025-02-17 10:28:45,5
3376,-1668,2000,-18584,-17641,26852,2025-02-17 10:28:45,5
3308,-1784,2376,-17351,-16802,26513,2025-02-17 10:28:45,5
3392,-1516,2064,-16150,-15811,26211,2025-02-17 10:28:45,5
3188,-1504,2388,-15029,-15022,25966,2025-02-17 10:28:45,5
3304,-1464,2160,-13939,-14304,25701,2025-02-17 10:28:45,5
3404,-1456,1968,-13131,-13675,25392,2025-02-17 10:28:45,5
3520,-1388,2104,-12082,-12162,24508,2025-02-17 10:28:45,5
3740,-1336,2100,-11599,-11128,23762,2025-02-17 10:28:45,5
-23216,32767,-23716,-11103,-6667,32767,2025-02-17 10:28:45,5
-32768,16824,-5560,-32768,-32768,32767,2025-02-17 10:28:45,5
32767,-32768,32767,-32768,-91,32767,2025-02-17 10:28:45,5
32767,-32768,32767,-25562,-14711,32767,2025-02-17 10:28:45,5
32767,-32768,27452,10506,-11343,6772,2025-02-17 10:28:45,5
3260,-21072,-4712,5163,-671,-2956,2025-02-17 10:28:45,5
-7288,-8460,-3672,523,10152,1584,2025-02-17 10:28:45,5
-4164,-3676,-212,-2823,20868,8433,2025-02-17 10:28:45,5
2108,-1796,1904,-4444,23858,9860,2025-02-17 10:28:45,5
5612,-744,5764,-3229,20763,8511,2025-02-17 10:28:45,5
8048,-592,5284,-35,13584,4530,2025-02-17 10:28:45,5
8120,-188,6568,2924,8380,360,2025-02-17 10:28:45,5
15940,-1672,7732,6173,4544,-6016,2025-02-17 10:28:45,5
27368,-4492,14408,10279,-4885,-17023,2025-02-17 10:28:45,5
25720,-9864,13476,13041,-15339,-23739,2025-02-17 10:28:45,5
18796,-12784,13056,9168,-10243,-16284,2025-02-17 10:28:45,5
27036,-8580,11144,1548,-1616,-1950,2025-02-17 10:28:45,5
17900,-2672,8412,-2973,4874,2385,2025-02-17 10:28:45,5
10532,-4524,6912,-3867,2404,5275,2025-02-17 10:28:45,5
13396,-5736,10944,-993,-2283,4812,2025-02-17 10:28:45,5
14112,-8952,9116,1679,-2906,1587,2025-02-17 10:28:45,5
16260,-10140,6164,63,-1079,-1312,2025-02-17 10:28:45,5
16372,-6940,10540,313,886,-2178,2025-02-17 10:28:45,5
15820,-5284,8928,367,-450,-388,2025-02-17 10:28:45,5
15628,-5812,8272,-789,409,224,2025-02-17 10:28:45,5
15952,-7308,9236,-399,319,490,2025-02-17 10:28:45,5
16072,-7712,8988,-53,223,-327,2025-02-17 10:28:45,5
15792,-6420,8864,-40,311,-376,2025-02-17 10:28:45,5
15576,-6504,9272,-222,131,-82,2025-02-17 10:28:45,5
16364,-7084,8804,-242,-184,-177,2025-02-17 10:28:45,5
15756,-6600,8664,-31,330,-180,2025-02-17 10:28:45,5
15860,-6636,8988,-216,579,-127,2025-02-17 10:28:45,5
15824,-7072,9408,-176,33,-179,2025-02-17 10:28:45,5
15776,-6664,8688,-164,-71,-206,2025-02-17 10:28:45,5
15888,-6688,8716,-177,246,-135,2025-02-17 10:28:45,5
15912,-7016,9184,-122,354,-170,2025-02-17 10:28:45,5
15764,-6668,9172,-129,181,-187,2025-02-17 10:28:45,5
15812,-6760,9068,-184,81,-156,2025-02-17 10:28:45,5
15840,-6756,8964,-184,173,-169,2025-02-17 10:28:45,5
15748,-6756,8908,-147,188,-201,2025-02-17 10:28:45,5
15848,-6592,8840,-152,213,-177,2025-02-17 10:28:45,5
15848,-6664,8964,-179,174,-157,2025-02-17 10:28:45,5
15868,-6808,8944,-172,184,-177,2025-02-17 10:28:45,5
15872,-6784,9040,-138,184,-173,2025-02-17 10:28:45,5
15928,-6776,9176,-161,203,-162,2025-02-17 10:28:45,5
15812,-6752,9084,-163,185,-166,2025-02-17 10:28:45,5
15860,-6760,9064,-162,154,-188,2025-02-17 10:28:45,5
15888,-6772,8924,-166,189,-176,2025-02-17 10:28:45,5
15840,-6656,9048,-156,187,-158,2025-02-17 10:28:45,5
15876,-6776,9016,-145,196,-160,2025-02-17 10:28:46,5
15896,-6768,9080,-165,169,-159,2025-02-17 10:28:46,5
15908,-6796,8964,-137,185,-185,2025-02-17 10:28:46,5
15828,-6796,8980,-157,175,-183,2025-02-17 10:28:46,5
15908,-6736,9064,-142,195,-155,2025-02-17 10:28:46,5
15892,-6804,8856,-191,148,-193,2025-02-17 10:28:46,5
15832,-6800,8928,-159,182,-206,2025-02-17 10:28:46,5
15920,-6752,8900,-134,192,-185,2025-02-17 10:28:46,5
15828,-6848,8860,-152,184,-167,2025-02-17 10:28:46,5
15876,-6820,8944,-160,157,-168,2025-02-17 10:28:46,5
15764,-6736,8828,-142,167,-157,2025-02-17 10:28:46,5
15828,-6788,8984,-145,168,-169,2025-02-17 10:28:46,5
15928,-6820,8900,-161,187,-183,2025-02-17 10:28:46,5
15820,-6672,9104,-164,201,-155,2025-02-17 10:28:46,5
15836,-6776,8944,-173,169,-164,2025-02-17 10:28:46,5
15892,-6752,8964,-158,202,-177,2025-02-17 10:28:46,5
16008,-6736,9160,-163,197,-168,2025-02-17 10:28:46,5
15720,-6672,8900,-142,179,-193,2025-02-17 10:28:46,5
15824,-6864,9144,-153,170,-191,2025-02-17 10:28:46,5
15904,-6760,9120,-146,168,-157,2025-02-17 10:28:46,5
15960,-6708,8900,-142,169,-176,2025-02-17 10:28:46,5
15852,-6792,9000,-155,190,-187,2025-02-17 10:28:46,5
15984,-6828,9052,-166,189,-164,2025-02-17 10:28:46,5
15940,-6756,9008,-180,171,-178,2025-02-17 10:28:46,5
15824,-6820,8908,-153,164,-186,2025-02-17 10:28:46,5
15856,-6780,8960,-169,172,-162,2025-02-17 10:28:46,5
15868,-6800,8952,-171,174,-188,2025-02-17 10:28:46,5
15832,-6780,8900,-163,176,-177,2025-02-17 10:28:46,5
15928,-6744,8960,-138,160,-174,2025-02-17 10:28:46,5
15924,-6876,8944,-164,173,-196,2025-02-17 10:28:46,5
15944,-6744,9004,-172,182,-173,2025-02-17 10:28:46,5
15892,-6676,9012,-145,166,-183,2025-02-17 10:28:46,5
15848,-6780,9044,-167,177,-179,2025-02-17 10:28:46,5
15860,-6800,8896,-165,163,-176,2025-02-17 10:28:46,5
15756,-6736,8980,-146,169,-178,2025-02-17 10:28:46,5
15772,-6716,9052,-164,185,-161,2025-02-17 10:28:46,5
15836,-6804,8868,-171,158,-177,2025-02-17 10:28:46,5
15860,-6760,8888,-181,180,-167,2025-02-17 10:28:46,5
15936,-6784,8888,-161,167,-190,2025-02-17 10:28:46,5
15852,-6784,8940,-171,199,-156,2025-02-17 10:28:46,5
15840,-6732,8952,-171,180,-192,2025-02-17 10:28:46,5
15876,-6760,9020,-161,178,-180,2025-02-17 10:28:46,5
15860,-6808,8964,-155,166,-190,2025-02-17 10:28:46,0.0
15884,-6788,9104,-160,160,-160,2025-02-17 10:28:46,0.0
15792,-6840,9028,-156,192,-177,2025-02-17 10:28:46,0.0
15748,-6784,8976,-164,190,-164,2025-02-17 10:28:46,0.0
15964,-6720,9048,-158,169,-186,2025-02-17 10:28:46,0.0
15832,-6848,9104,-164,182,-163,2025-02-17 10:28:46,0.0
15872,-6868,8912,-160,176,-178,2025-02-17 10:28:46,0.0
15788,-6784,8928,-158,182,-181,2025-02-17 10:28:46,0.0
15880,-6816,9084,-160,168,-156,2025-02-17 10:28:46,0.0
15808,-6760,9004,-167,175,-160,2025-02-17 10:28:46,0.0
15928,-6788,8868,-150,187,-174,2025-02-17 10:28:46,0.0
15848,-6752,8860,-139,177,-192,2025-02-17 10:28:46,0.0
15848,-6776,9132,-143,169,-153,2025-02-17 10:28:46,0.0
15824,-6832,9008,-154,181,-179,2025-02-17 10:28:46,0.0
15800,-6820,8936,-158,164,-191,2025-02-17 10:28:46,0.0
15852,-6792,8984,-169,184,-169,2025-02-17 10:28:46,0.0
15868,-6868,9004,-168,174,-175,2025-02-17 10:28:46,0.0
15864,-6776,8816,-186,158,-189,2025-02-17 10:28:46,0.0
15944,-6836,8976,-137,177,-177,2025-02-17 10:28:46,0.0
15748,-6724,8904,-169,183,-160,2025-02-17 10:28:46,0.0
15908,-6760,8936,-151,176,-179,2025-02-17 10:28:47,0.0
15756,-6784,9000,-162,190,-169,2025-02-17 10:28:47,0.0
15896,-6772,8964,-163,176,-179,2025-02-17 10:28:47,0.0
15912,-6772,8948,-186,183,-168,2025-02-17 10:28:47,0.0
15836,-6756,9020,-189,163,-167,2025-02-17 10:28:47,0.0
15896,-6764,9000,-162,180,-184,2025-02-17 10:28:47,0.0
15896,-6780,9032,-168,169,-167,2025-02-17 10:28:47,0.0
15844,-6720,9000,-158,190,-177,2025-02-17 10:28:47,0.0
15924,-6760,9004,-142,160,-173,2025-02-17 10:28:47,0.0
15792,-6784,8968,-179,186,-158,2025-02-17 10:28:47,0.0
15856,-6764,8972,-168,175,-172,2025-02-17 10:28:47,0.0
15864,-6844,8928,-169,179,-166,2025-02-17 10:28:47,0.0
15904,-6716,8972,-169,180,-154,2025-02-17 10:28:47,0.0
15904,-6804,9084,-152,163,-175,2025-02-17 10:28:47,0.0
15888,-6752,9100,-157,179,-181,2025-02-17 10:28:47,0.0
15944,-6796,8944,-177,182,-182,2025-02-17 10:28:47,0.0
15812,-6708,8972,-153,162,-188,2025-02-17 10:28:47,0.0
15880,-6700,9052,-158,159,-184,2025-02-17 10:28:47,0.0
15884,-6756,9048,-166,165,-170,2025-02-17 10:28:47,0.0
15840,-6752,9032,-129,171,-175,2025-02-17 10:28:47,0.0
15856,-6800,8972,-151,165,-169,2025-02-17 10:28:47,0.0
15912,-6744,8988,-157,190,-176,2025-02-17 10:28:47,0.0
15836,-6828,9076,-158,189,-198,2025-02-17 10:28:47,0.0
15908,-6716,8940,-179,176,-192,2025-02-17 10:28:47,0.0
15828,-6808,9008,-152,164,-166,2025-02-17 10:28:47,0.0
15880,-6772,8980,-153,160,-182,2025-02-17 10:28:47,0.0
15916,-6764,9024,-146,180,-168,2025-02-17 10:28:47,0.0
15836,-6740,8924,-162,184,-177,2025-02-17 10:28:47,0.0
15836,-6872,8960,-151,185,-198,2025-02-17 10:28:47,0.0
15972,-6768,8968,-147,162,-176,2025-02-17 10:28:47,0.0
15860,-6844,9056,-172,163,-198,2025-02-17 10:28:47,
15828,-6824,8956,-166,164,-164,2025-02-17 10:28:47,0.0
15940,-6644,9148,-170,157,-179,2025-02-17 10:28:47,0.0
15780,-6724,8800,-165,201,-158,2025-02-17 10:28:47,0.0
15868,-6784,8960,-140,191,-179,2025-02-17 10:28:47,0.0
15912,-6752,9004,-138,171,-166,2025-02-17 10:28:47,0.0
15804,-6780,9088,-169,158,-167,2025-02-17 10:28:47,0.0
15892,-6740,8960,-162,179,-184,2025-02-17 10:28:47,0.0
15916,-6720,8996,-166,199,-188,2025-02-17 10:28:47,0.0
15900,-6804,8988,-178,195,-184,2025-02-17 10:28:47,0.0
15816,-6760,9056,-151,154,-166,2025-02-17 10:28:47,0.0
15880,-6840,8924,-147,165,-187,2025-02-17 10:28:47,0.0
15824,-6796,9052,-157,165,-181,2025-02-17 10:28:47,0.0
15788,-6784,9024,-145,185,-197,2025-02-17 10:28:47,0.0
15760,-6816,9052,-162,176,-181,2025-02-17 10:28:47,0.0
15928,-6772,8992,-179,181,-183,2025-02-17 10:28:47,0.0
15880,-6772,9076,-170,175,-184,2025-02-17 10:28:47,0.0
15884,-6840,8972,-140,183,-174,2025-02-17 10:28:47,0.0
15820,-6652,8964,-173,178,-184,2025-02-17 10:28:47,0.0
15804,-6848,8896,-161,172,-181,2025-02-17 10:28:47,0.0
15900,-6776,8980,-160,180,-182,2025-02-17 10:28:47,0.0
15908,-6864,8912,-154,181,-169,2025-02-17 10:28:47,0.0
15896,-6800,8844,-168,185,-183,2025-02-17 10:28:47,0.0
15832,-6728,8832,-151,178,-154,2025-02-17 10:28:47,0.0
15920,-6776,9008,-164,180,-157,2025-02-17 10:28:47,0.0
15828,-6692,9108,-177,169,-181,2025-02-17 10:28:47,0.0
15856,-6852,9032,-157,151,-173,2025-02-17 10:28:47,0.0
15904,-6760,8924,-150,174,-165,2025-02-17 10:28:47,0.0
15860,-6796,9052,-141,194,-148,2025-02-17 10:28:47,0.0
15808,-6764,9004,-146,181,-175,2025-02-17 10:28:47,0.0
15928,-6800,8924,-154,175,-169,2025-02-17 10:28:47,0.0
15852,-6800,8920,-163,184,-169,2025-02-17 10:28:47,0.0
15904,-6700,9032,-169,182,-186,2025-02-17 10:28:48,0.0
15776,-6888,8876,-171,182,-172,2025-02-17 10:28:48,0.0
15780,-6768,8964,-168,141,-170,2025-02-17 10:28:48,0.0
15836,-6808,9044,-154,181,-182,2025-02-17 10:28:48,0.0
15876,-6824,8968,-147,171,-193,2025-02-17 10:28:48,0.0
15844,-6752,8988,-159,199,-173,2025-02-17 10:28:48,0.0
15920,-6684,8992,-137,164,-165,2025-02-17 10:28:48,0.0
15804,-6668,9036,-184,167,-154,2025-02-17 10:28:48,0.0
15940,-6796,9088,-120,273,-182,2025-02-17 10:28:48,0.0
15904,-6744,9052,-143,193,-163,2025-02-17 10:28:48,0.0
15836,-6788,8964,-179,204,-174,2025-02-17 10:28:48,0.0
15916,-6840,9040,-157,190,-176,2025-02-17 10:28:48,0.0
15912,-6720,9044,-170,107,-212,2025-02-17 10:28:48,0.0
15980,-6752,8964,-186,196,-165,2025-02-17 10:28:48,0.0
15764,-6772,9084,-172,201,-174,2025-02-17 10:28:48,0.0
15884,-6744,8972,-173,156,-175,2025-02-17 10:28:48,0.0
15796,-6816,8988,-173,207,-163,2025-02-17 10:28:48,0.0
15840,-6788,9092,-162,135,-175,2025-02-17 10:28:48,0.0
15792,-6804,9012,-158,183,-158,2025-02-17 10:28:48,0.0
15860,-6764,8904,-125,209,-209,2025-02-17 10:28:48,0.0
15968,-6756,9040,-154,137,-195,2025-02-17 10:28:48,0.0
15836,-6696,8880,-180,116,-163,2025-02-17 10:28:48,0.0
16012,-6808,8972,-131,183,-164,2025-02-17 10:28:48,0.0
15564,-6816,8948,-104,233,-127,2025-02-17 10:28:48,0.0
15972,-6708,9136,-220,376,-161,2025-02-17 10:28:48,0.0
15612,-6800,9224,-218,27,-180,2025-02-17 10:28:48,0.0
16088,-6900,8820,-197,19,-155,2025-02-17 10:28:48,0.0
15660,-6672,8920,-162,210,-194,2025-02-17 10:28:48,0.0
15964,-6716,8984,-104,332,-138,2025-02-17 10:28:48,0.0
15820,-6868,9088,-165,301,-178,2025-02-17 10:28:48,0.0
15608,-6748,9076,-196,109,-225,2025-02-17 10:28:48,0.0
15864,-6696,9248,-173,180,-164,2025-02-17 10:28:48,0.0
15896,-6816,9052,-265,-136,-232,2025-02-17 10:28:48,0.0
15988,-6812,8784,-52,184,-173,2025-02-17 10:28:48,0.0
15768,-6868,8952,6,315,-248,2025-02-17 10:28:48,0.0
15776,-6924,9624,-56,-9,-269,2025-02-17 10:28:48,0.0
16092,-7092,9124,205,-127,-385,2025-02-17 10:28:48,0.0
15768,-6628,8404,235,120,-520,2025-02-17 10:28:48,0.0
16064,-6640,8892,171,321,-452,2025-02-17 10:28:48,0.0
15992,-6800,9296,378,288,-475,2025-02-17 10:28:48,0.0
16208,-7008,9564,724,272,-700,2025-02-17 10:28:48,0.0
16348,-7016,9744,1436,420,-1044,2025-02-17 10:28:48,0.0
16468,-7168,10456,2291,712,-1565,2025-02-17 10:28:48,0.0
16540,-7108,10668,3211,1021,-2039,2025-02-17 10:28:48,0.0
17472,-6728,11292,4882,2228,-3122,2025-02-17 10:28:48,0.0
17368,-6508,12364,6759,3280,-3991,2025-02-17 10:28:48,0.0
17392,-6524,12592,8774,4193,-4975,2025-02-17 10:28:48,0.0
18084,-6424,13140,10261,3880,-6316,2025-02-17 10:28:48,0.0
19068,-6576,12960,11646,3802,-8113,2025-02-17 10:28:48,0.0
19996,-6544,12668,12776,3471,-10422,2025-02-17 10:28:48,0.0
19204,-6184,12772,13298,3622,-12335,2025-02-17 10:28:48,0.0
17836,-5236,12916,13703,4494,-13387,2025-02-17 10:28:48,0.0
18700,-4556,11980,14077,4509,-14506,2025-02-17 10:28:48,0.0
20748,-3924,13768,14505,2649,-16260,2025-02-17 10:28:48,0.0
19500,-2272,13732,15911,-716,-18048,2025-02-17 10:28:48,0.0
17816,-2184,11708,15092,-3053,-19324,2025-02-17 10:28:48,0.0
17012,-1724,9416,14093,-4568,-19833,2025-02-17 10:28:48,0.0
14840,-1452,8964,12620,-5334,-19774,2025-02-17 10:28:48,0.0
14708,-856,7080,11055,-5724,-19237,2025-02-17 10:28:48,0.0
14024,-612,6384,9255,-5799,-18669,2025-02-17 10:28:48,0.0
14432,-248,5112,6587,-6386,-17306,2025-02-17 10:28:48,0.0
15084,1108,6792,4129,-8462,-16280,2025-02-17 10:28:49,0.0
18388,3520,8512,3390,-10818,-16933,2025-02-17 10:28:49,0.0
19880,6432,11324,3879,-11509,-19234,2025-02-17 10:28:49,0.0
20012,7444,10688,3827,-11789,-20678,2025-02-17 10:28:49,0.0
19440,6828,10656,3767,-12756,-21968,2025-02-17 10:28:49,0.0
18552,6144,10164,4774,-14342,-24336,2025-02-17 10:28:49,0.0
16348,5728,8812,5260,-16026,-25853,2025-02-17 10:28:49,0.0
15656,4844,7560,4533,-17939,-26572,2025-02-17 10:28:49,
14344,5972,6544,3715,-20618,-26591,2025-02-17 10:28:49,0.0
13708,6600,6580,2720,-22550,-25548,2025-02-17 10:28:49,0.0
14116,7224,6024,1715,-24218,-25075,2025-02-17 10:28:49,0.0
14344,7992,6416,1463,-25518,-24762,2025-02-17 10:28:49,0.0
13604,9120,5868,2027,-25117,-25565,2025-02-17 10:28:49,0.0
12728,9776,4980,1846,-23113,-26720,2025-02-17 10:28:49,0.0
11212,10572,4568,1559,-20229,-27802,2025-02-17 10:28:49,0.0
10216,11532,4376,1311,-17436,-28443,2025-02-17 10:28:49,0.0
8172,12604,3580,1175,-14615,-28238,2025-02-17 10:28:49,0.0
6660,13368,3020,1720,-12362,-26990,2025-02-17 10:28:49,0.0
4320,14072,1724,2217,-8623,-24819,2025-02-17 10:28:49,0.0
2700,14384,772,1902,-4738,-22822,2025-02-17 10:28:49,0.0
1052,14536,824,1690,-1190,-20811,2025-02-17 10:28:49,0.0
-228,14704,-1088,734,2687,-18459,2025-02-17 10:28:49,0.0
-1308,15048,-1528,-428,6405,-15620,2025-02-17 10:28:49,0.0
-2172,15484,-2220,-1944,9823,-12544,2025-02-17 10:28:49,0.0
-3248,16308,-2724,-4096,13434,-8570,2025-02-17 10:28:49,0.0
-2992,16560,-3368,-7017,17143,-4864,2025-02-17 10:28:49,0.0
-2676,17408,-3060,-10322,20424,-1827,2025-02-17 10:28:49,0.0
-1600,18524,-2060,-13016,22437,646,2025-02-17 10:28:49,0.0
-292,20108,572,-15075,24234,2943,2025-02-17 10:28:49,0.0
1424,21716,3696,-14226,25089,3795,2025-02-17 10:28:49,0.0
3172,23040,6332,-11024,25456,3241,2025-02-17 10:28:49,0.0
5808,24152,11972,-4578,26068,936,2025-02-17 10:28:49,0.0
4724,26024,10944,2442,26839,-1484,2025-02-17 10:28:49,0.0
5644,26748,11652,11124,26590,-3754,2025-02-17 10:28:49,0.0
4588,26964,5356,16273,25215,-4857,2025-02-17 10:28:49,0.0
3552,26608,-844,14926,23856,-5100,2025-02-17 10:28:49,0.0
3740,26264,-3188,10979,22322,-5262,2025-02-17 10:28:49,0.0
3120,25668,-5616,5323,20831,-5347,2025-02-17 10:28:49,0.0
2208,24860,-4964,-1039,18926,-4857,2025-02-17 10:28:49,0.0
1948,24096,-3300,-6246,16211,-3782,2025-02-17 10:28:49,0.0
1860,23224,64,-8416,12303,-2206,2025-02-17 10:28:49,0.0
2364,21796,1916,-7871,9739,-1093,2025-02-17 10:28:49,0.0
2796,20700,4840,-5537,8089,-941,2025-02-17 10:28:49,0.0
2560,20032,5836,-1360,7233,-2089,2025-02-17 10:28:49,0.0
2392,18772,5872,2930,6362,-2095,2025-02-17 10:28:49,0.0
1116,17992,5596,6316,5894,-877,2025-02-17 10:28:49,0.0
1624,18016,4776,9313,5254,763,2025-02-17 10:28:49,0.0
2596,17024,3976,11273,4607,1753,2025-02-17 10:28:49,0.0
4176,15624,2748,12615,4260,674,2025-02-17 10:28:49,0.0
5728,12632,-3076,9934,4376,-4409,2025-02-17 10:28:49,0.0
2596,11912,-1660,5709,4109,-6224,2025-02-17 10:28:49,0.0
-1664,11060,-3240,-241,4885,-3046,2025-02-17 10:28:49,0.0
1268,16292,312,-4091,5058,1191,2025-02-17 10:28:49,0.0
2444,16516,3352,-3302,4743,1240,2025-02-17 10:28:49,0.0
1960,15844,3452,-2486,4203,776,2025-02-17 10:28:49,0.0
2984,15956,4820,-1104,3678,528,2025-02-17 10:28:49,0.0
1800,15904,5996,1915,3227,634,2025-02-17 10:28:49,0.0
1976,15456,5236,4410,3194,1270,2025-02-17 10:28:49,0.0
2156,15400,5124,6622,3173,2064,2025-02-17 10:28:49,0.0
2344,15196,4908,9040,2890,2645,2025-02-17 10:28:49,0.0
2348,14452,3848,10883,2440,3085,2025-02-17 10:28:49,0.0
2540,13908,2824,11587,1880,3289,2025-02-17 10:28:50,0.0
2512,13424,2232,11693,1179,3461,2025-02-17 10:28:50,0.0
3156,12672,708,10763,277,3424,2025-02-17 10:28:50,0.0
3220,11736,-144,8575,-591,2961,2025-02-17 10:28:50,0.0
3628,10660,-580,5648,-1485,2422,2025-02-17 10:28:50,0.0
4200,9852,-496,2424,-2436,1173,2025-02-17 10:28:50,0.0
4160,9208,800,143,-3249,-889,2025-02-17 10:28:50,0.0
4176,10104,1668,-818,-4495,-2702,2025-02-17 10:28:50,0.0
4280,10296,2880,-113,-5617,-4216,2025-02-17 10:28:50,0.0
4348,10016,3432,1114,-6517,-5649,2025-02-17 10:28:50,0.0
3624,9328,3304,2000,-7810,-6637,2025-02-17 10:28:50,0.0
3368,8900,3576,2858,-8914,-7273,2025-02-17 10:28:50,0.0
3528,8176,2820,3892,-10431,-6730,2025-02-17 10:28:50,0.0
3932,8300,2936,4920,-11800,-6944,2025-02-17 10:28:50,0.0
2956,8460,3784,6730,-13225,-6609,2025-02-17 10:28:50,0.0
3228,8780,2908,7474,-14585,-7031,2025-02-17 10:28:50,0.0
3748,8324,2248,7800,-16665,-8126,2025-02-17 10:28:50,0.0
4756,8160,1224,7125,-17935,-10568,2025-02-17 10:28:50,0.0
5092,7748,756,5344,-17984,-14994,2025-02-17 10:28:50,0.0
4872,7904,660,3670,-16290,-20334,2025-02-17 10:28:50,0.0
1964,8192,3020,5536,-11916,-24802,2025-02-17 10:28:50,0.0
-460,8200,3208,12055,-6439,-26782,2025-02-17 10:28:50,0.0
-2476,9140,2612,19101,-1110,-26755,2025-02-17 10:28:50,0.0
-2844,9032,-1856,24503,5620,-27698,2025-02-17 10:28:50,0.0
-4376,7424,-5832,25573,11995,-30074,2025-02-17 10:28:50,0.0
-7112,5096,-10736,22899,18116,-30391,2025-02-17 10:28:50,0.0
-9860,3140,-14500,16619,25295,-27573,2025-02-17 10:28:50,0.0
-11344,1972,-15096,11158,31835,-23320,2025-02-17 10:28:50,0.0
-10616,1948,-13756,8069,32767,-20213,2025-02-17 10:28:50,0.0
-7216,1492,-14616,7966,32767,-19461,2025-02-17 10:28:50,0.0
-5836,2232,-14232,9643,32767,-17849,2025-02-17 10:28:50,0.0
-3476,3356,-15040,10515,32767,-16877,2025-02-17 10:28:50,0.0
-1304,4944,-16348,10825,25499,-19058,2025-02-17 10:28:50,0.0
-1864,6016,-16340,9332,16923,-20833,2025-02-17 10:28:50,0.0
-3812,5792,-14704,8325,6156,-20376,2025-02-17 10:28:50,0.0
-5716,3248,-14292,6095,-4426,-19204,2025-02-17 10:28:50,0.0
-7168,2696,-12288,4726,-12351,-16570,2025-02-17 10:28:50,0.0
-8880,3424,-9844,3654,-18665,-14471,2025-02-17 10:28:50,0.0
-10176,4404,-8396,4781,-23046,-11314,2025-02-17 10:28:50,0.0
-10256,4936,-7824,6293,-24335,-9276,2025-02-17 10:28:50,0.0
-10052,4700,-7880,6897,-23848,-8760,2025-02-17 10:28:50,0.0
-9720,4264,-7608,7640,-22242,-8837,2025-02-17 10:28:50,0.0
-9784,3488,-7752,8185,-20750,-9324,2025-02-17 10:28:50,0.0
-10208,2500,-8036,8180,-19105,-9209,2025-02-17 10:28:50,0.0
-9780,1656,-8544,8320,-17048,-9926,2025-02-17 10:28:50,0.0
-9868,704,-9616,7096,-15616,-11621,2025-02-17 10:28:50,0.0
-10512,172,-9888,5981,-14294,-13122,2025-02-17 10:28:50,
-11936,-312,-10232,5113,-12330,-14024,2025-02-17 10:28:50,0.0
-13880,-976,-10580,4233,-10221,-12921,2025-02-17 10:28:50,0.0
-15088,-1416,-11180,3291,-8317,-10431,2025-02-17 10:28:50,0.0
-14772,-2076,-12120,1586,-6009,-8369,2025-02-17 10:28:50,0.0
-14896,-3148,-12440,-1025,-4736,-7026,2025-02-17 10:28:50,0.0
-14240,-3512,-10948,-3286,-5096,-5970,2025-02-17 10:28:50,0.0
-14060,-3256,-10288,-4612,-6641,-5188,2025-02-17 10:28:50,0.0
-14084,-3232,-9272,-6117,-9230,-3452,2025-02-17 10:28:50,0.0
-13348,-3904,-8084,-7078,-12255,-1574,2025-02-17 10:28:50,0.0
-12720,-3976,-6812,-7567,-15557,-88,2025-02-17 10:28:50,0.0
-11548,-3736,-4724,-7383,-18676,63,2025-02-17 10:28:50,0.0
-11168,-3964,-4000,-7221,-21242,-729,2025-02-17 10:28:50,0.0
-11196,-4416,-2380,-7005,-22913,-1356,2025-02-17 10:28:50,0.0
-11292,-4572,-1460,-6518,-23604,-1644,2025-02-17 10:28:50,0.0
-11164,-4132,88,-5601,-22649,-2182,2025-02-17 10:28:51,0.0
-12028,-3352,948,-4242,-20101,-2555,2025-02-17 10:28:51,0.0
-12500,-3336,1624,-3073,-16206,-2881,2025-02-17 10:28:51,0.0
-13220,-3404,1900,-1975,-11616,-2365,2025-02-17 10:28:51,0.0
-13680,-3104,2704,-886,-6542,-2107,2025-02-17 10:28:51,0.0
-15328,-1176,6640,2014,-2993,-1566,2025-02-17 10:28:51,0.0
-15760,-232,7736,5397,-2425,-756,2025-02-17 10:28:51,0.0
-15672,-92,7792,8508,-3868,126,2025-02-17 10:28:51,0.0
-15216,-1536,5868,10199,-6584,628,2025-02-17 10:28:51,0.0
-14036,-2936,7596,11518,-4484,346,2025-02-17 10:28:51,0.0
-13576,-3460,872,11471,-4356,326,2025-02-17 10:28:51,0.0
-14620,-2596,-424,9990,-4978,1397,2025-02-17 10:28:51,0.0
-14172,-1884,-1724,7503,-1027,2101,2025-02-17 10:28:51,0.0
-13012,-1996,-3380,3566,5762,2143,2025-02-17 10:28:51,0.0
-11388,-1496,-2508,920,8326,1241,2025-02-17 10:28:51,0.0
-10104,-544,48,-715,8644,-765,2025-02-17 10:28:51,0.0
-12108,2300,-1196,-3987,5416,-1045,2025-02-17 10:28:51,0.0
-14172,-272,-196,-6956,6073,-442,2025-02-17 10:28:51,0.0
-13216,-2312,1448,-6433,7557,-573,2025-02-17 10:28:51,0.0
-13472,-2988,2560,-3857,7100,-1005,2025-02-17 10:28:51,0.0
-14572,-3968,3028,155,6232,-1288,2025-02-17 10:28:51,0.0
-16388,-2552,836,3755,953,528,2025-02-17 10:28:51,0.0
-14460,-2420,60,3538,-2006,519,2025-02-17 10:28:51,0.0
-13352,-2692,-1788,2753,-4475,-307,2025-02-17 10:28:51,0.0
-12336,-3408,-5288,-946,-4440,-967,2025-02-17 10:28:51,0.0
-13668,-1020,-4996,-6186,-1317,525,2025-02-17 10:28:51,0.0
-13116,2548,3588,-5034,5464,2969,2025-02-17 10:28:51,0.0
-9892,-1216,-336,-1931,6628,2594,2025-02-17 10:28:51,0.0
-12392,-1096,-1240,-2821,6381,460,2025-02-17 10:28:51,0.0
-14940,-1484,-684,-3721,5792,667,2025-02-17 10:28:51,0.0
-14848,-1660,452,-3451,4950,1320,2025-02-17 10:28:51,0.0
-14864,-2312,356,-2430,3420,1589,2025-02-17 10:28:51,0.0
-14304,-2500,-280,-1297,1801,1773,2025-02-17 10:28:51,0.0
-13488,-2228,88,528,302,1278,2025-02-17 10:28:51,0.0
-13620,-1804,-764,1385,-833,460,2025-02-17 10:28:51,0.0
-12884,-1344,-1860,255,-671,218,2025-02-17 10:28:51,0.0
-12456,-1408,-1520,-311,-47,-134,2025-02-17 10:28:51,0.0
-12748,-1732,-1448,-524,861,-258,2025-02-17 10:28:51,0.0
-12896,-1444,-1904,-894,1445,-158,2025-02-17 10:28:51,0.0
-13568,-2284,184,609,1952,-416,2025-02-17 10:28:51,0.0
-15092,-2304,-936,1952,2011,362,2025-02-17 10:28:51,0.0
-14640,-1444,-1068,1413,1482,710,2025-02-17 10:28:51,0.0
-14236,-1220,-1380,595,306,97,2025-02-17 10:28:51,0.0
-13596,-1108,-2104,-87,-1529,24,2025-02-17 10:28:51,0.0
-12488,-576,-2172,-920,-1647,-224,2025-02-17 10:28:51,0.0
-12316,-256,-1804,-1783,-322,-602,2025-02-17 10:28:51,0.0
-12412,-504,-988,-2503,1210,-951,2025-02-17 10:28:51,0.0
-13080,-1276,-1236,-2900,2019,-979,2025-02-17 10:28:51,0.0
-13652,-1832,-1604,-3161,2226,-999,2025-02-17 10:28:51,0.0
-14416,-1740,-2428,-3601,2076,-1091,2025-02-17 10:28:51,0.0
-14856,-1268,-2912,-3978,1522,-1165,2025-02-17 10:28:51,0.0
-14844,-736,-3680,-4816,785,-1196,2025-02-17 10:28:51,0.0
-14204,-952,-4068,-5951,-89,-1447,2025-02-17 10:28:51,0.0
-13680,-1272,-3484,-6843,-736,-1634,2025-02-17 10:28:51,0.0
-12824,-1192,-3596,-7890,-544,-1874,2025-02-17 10:28:51,0.0
-13456,-824,-3292,-8997,-354,-1903,2025-02-17 10:28:51,0.0
-13280,-848,-2908,-10073,-694,-2179,2025-02-17 10:28:52,0.0
-13524,-1564,-2624,-10817,-835,-2462,2025-02-17 10:28:52,0.0
-13608,-1004,-1968,-11064,-894,-2358,2025-02-17 10:28:52,0.0
-13556,-1456,-2636,-11595,-1403,-2280,2025-02-17 10:28:52,0.0
-13696,-2148,-3420,-11781,-1764,-2227,2025-02-17 10:28:52,0.0
-12860,-2276,-3268,-12561,-1925,-2025,2025-02-17 10:28:52,0.0
-12368,-2272,-2816,-13031,-1498,-2123,2025-02-17 10:28:52,0.0
-12752,-2364,-2852,-13253,-1363,-1950,2025-02-17 10:28:52,0.0
-12652,-2296,-2672,-13222,-721,-1886,2025-02-17 10:28:52,0.0
-13128,-2388,-3032,-13518,-553,-1766,2025-02-17 10:28:52,0.0
-14172,-2324,-2092,-13556,-1199,-1548,2025-02-17 10:28:52,0.0
-13272,-2156,-2800,-13868,-993,-1269,2025-02-17 10:28:52,0.0
-12888,-2200,-3056,-14380,-725,-1167,2025-02-17 10:28:52,0.0
-13152,-2280,-3272,-14902,-978,-939,2025-02-17 10:28:52,0.0
-13016,-2724,-3428,-15701,-1818,-486,2025-02-17 10:28:52,0.0
-13792,-2736,-2232,-15962,-1568,90,2025-02-17 10:28:52,0.0
-13752,-2640,-1380,-15651,-851,217,2025-02-17 10:28:52,0.0
-14300,-2836,-1316,-14980,-925,218,2025-02-17 10:28:52,0.0
-14072,-2376,-1284,-14192,-2538,707,2025-02-17 10:28:52,0.0
-12884,-2628,-1768,-13799,-3684,566,2025-02-17 10:28:52,0.0
-12680,-2984,-3048,-13733,-2943,-58,2025-02-17 10:28:52,0.0
-13588,-3032,-4556,-13538,826,-940,2025-02-17 10:28:52,0.0
-13576,-1980,-3016,-13755,3537,-2344,2025-02-17 10:28:52,0.0
-13556,-1224,828,-13453,3002,-2257,2025-02-17 10:28:52,0.0
-12704,-36,2228,-12831,2009,-1295,2025-02-17 10:28:52,0.0
-11928,988,1120,-13437,1579,-951,2025-02-17 10:28:52,0.0
-12336,1544,-248,-14687,1872,-1106,2025-02-17 10:28:52,0.0
-12988,1628,-880,-14986,2916,-1775,2025-02-17 10:28:52,0.0
-13944,1632,-2336,-14770,3673,-2435,2025-02-17 10:28:52,0.0
-16568,1892,-1664,-15022,3548,-2237,2025-02-17 10:28:52,
-16356,1212,-872,-15470,2178,-2313,2025-02-17 10:28:52,0.0
-14984,436,-912,-15845,-2054,-2371,2025-02-17 10:28:52,0.0
-13292,-280,-1260,-15963,-2810,-2405,2025-02-17 10:28:52,0.0
-12632,-812,-1144,-15960,-1913,-2512,2025-02-17 10:28:52,0.0
-11736,-1188,-960,-15416,-540,-2571,2025-02-17 10:28:52,0.0
-11724,-924,-448,-14751,268,-2654,2025-02-17 10:28:52,0.0
-12340,-292,128,-14300,337,-2896,2025-02-17 10:28:52,0.0
-12624,476,-356,-13985,431,-3346,2025-02-17 10:28:52,0.0
-12836,744,-840,-13949,446,-3841,2025-02-17 10:28:52,0.0
-12784,688,-1580,-13643,883,-4156,2025-02-17 10:28:52,0.0
-12680,172,-2128,-13200,1050,-4311,2025-02-17 10:28:52,0.0
-12824,-292,-1924,-12909,1237,-4349,2025-02-17 10:28:52,0.0
-13044,-292,-1228,-12508,1750,-4238,2025-02-17 10:28:52,0.0
-13572,-440,-1108,-12228,2296,-4133,2025-02-17 10:28:52,0.0
-13844,-656,-980,-12094,2814,-4013,2025-02-17 10:28:52,0.0
-14264,-600,-1672,-12037,2937,-4145,2025-02-17 10:28:52,0.0
-14564,-276,-2908,-12402,1961,-4410,2025-02-17 10:28:52,0.0
-14716,-32,-4144,-12632,754,-4529,2025-02-17 10:28:52,0.0
-14356,-236,-4440,-12617,-327,-4576,2025-02-17 10:28:52,0.0
-14140,-776,-4480,-12800,-592,-4382,2025-02-17 10:28:52,0.0
-13864,-1208,-3576,-12684,-221,-3892,2025-02-17 10:28:52,0.0
-13196,-1256,-3668,-12407,-328,-3611,2025-02-17 10:28:53,0.0
-13712,-3036,-3220,-15402,1505,-4547,2025-02-17 10:28:53,0.0
-13688,-2372,-2976,-15010,628,-4139,2025-02-17 10:28:53,0.0
-13300,-2060,-3064,-14717,116,-4036,2025-02-17 10:28:53,0.0
-12856,-2664,-2232,-14387,77,-3929,2025-02-17 10:28:53,0.0
-12716,-3568,-2496,-13875,264,-3966,2025-02-17 10:28:53,0.0
-13300,-4064,-3116,-13514,111,-4054,2025-02-17 10:28:53,0.0
-14000,-4100,-2880,-13064,-543,-3953,2025-02-17 10:28:53,0.0
-13800,-3668,-3104,-12867,-1408,-3597,2025-02-17 10:28:53,0.0
-13660,-1344,-608,-7160,1969,-1640,2025-02-17 10:28:53,0.0
-13976,-968,-364,-6499,1483,-1277,2025-02-17 10:28:53,0.0
-13664,-920,-1316,-6335,854,-1024,2025-02-17 10:28:53,0.0
-13140,-1056,-1764,-6162,-114,-1185,2025-02-17 10:28:53,0.0
-13076,-780,-1860,-6032,33,-1542,2025-02-17 10:28:53,0.0
-13604,-536,-1540,-5831,835,-1590,2025-02-17 10:28:53,0.0
-13644,-344,-1376,-5671,1133,-1616,2025-02-17 10:28:53,0.0
-13580,-212,-1756,-5537,918,-1590,2025-02-17 10:28:53,0.0
-13640,236,-2008,-5385,939,-1499,2025-02-17 10:28:53,0.0
-13416,408,-2168,-5322,1569,-1421,2025-02-17 10:28:53,0.0
-13892,264,-1604,-5271,1905,-1403,2025-02-17 10:28:53,0.0
-13944,-332,-1584,-5071,1521,-1486,2025-02-17 10:28:53,0.0
-14224,-888,-936,-4403,377,-1503,2025-02-17 10:28:53,0.0
-13960,-1452,-820,-3418,-688,-1373,2025-02-17 10:28:53,0.0
-13652,-1316,-1316,-2664,-845,-1239,2025-02-17 10:28:53,0.0
-13312,-1224,-1904,-2224,-419,-1041,2025-02-17 10:28:53,0.0
-13016,-956,-1856,-1891,-173,-925,2025-02-17 10:28:53,0.0
-12548,-324,-2636,-1803,-506,-902,2025-02-17 10:28:53,0.0
-12512,604,-3064,-1728,-148,-781,2025-02-17 10:28:53,0.0
-12832,812,-3008,-1577,1211,-818,2025-02-17 10:28:53,0.0
-13624,556,-2652,-1457,1894,-1017,2025-02-17 10:28:53,0.0
-14316,120,-2032,-1423,1030,-1323,2025-02-17 10:28:53,0.0
-14748,-448,-1568,-1365,-721,-1507,2025-02-17 10:28:53,0.0
-14108,-440,-2056,-1131,-2404,-1391,2025-02-17 10:28:53,0.0
-13416,-368,-2932,-1014,-2513,-1211,2025-02-17 10:28:53,0.0
-12940,72,-3064,-1092,-1151,-929,2025-02-17 10:28:53,0.0
-12688,108,-3240,-1502,102,-858,2025-02-17 10:28:53,0.0
-13056,-116,-2832,-1809,361,-1110,2025-02-17 10:28:53,0.0
-12712,-264,-3164,-1957,327,-1826,2025-02-17 10:28:53,0.0
-13036,-776,-3040,-1787,370,-2739,2025-02-17 10:28:53,0.0
-13172,-1724,-3252,-1577,543,-3459,2025-02-17 10:28:53,0.0
-13520,-2820,-2100,-1226,852,-3673,2025-02-17 10:28:53,0.0
-13828,-3560,-1260,-894,895,-3338,2025-02-17 10:28:53,0.0
-13804,-3928,-1332,-752,458,-2864,2025-02-17 10:28:53,0.0
-13732,-3832,-1432,-778,43,-2676,2025-02-17 10:28:53,0.0
-13508,-3120,-1028,-871,-11,-2687,2025-02-17 10:28:53,0.0
-13572,-2940,-532,-722,-24,-2665,2025-02-17 10:28:53,0.0
-13532,-2412,-1136,-445,242,-2699,2025-02-17 10:28:53,0.0
-13228,-1752,-1820,-229,878,-3138,2025-02-17 10:28:53,0.0
-13508,-2196,-1480,-143,823,-3424,2025-02-17 10:28:53,0.0
-13124,-2664,-1920,-341,265,-3085,2025-02-17 10:28:54,0.0
-12096,-2876,-2088,-381,111,-2855,2025-02-17 10:28:54,0.0
-11592,-2940,-2076,-350,165,-2711,2025-02-17 10:28:54,0.0
-11588,-2964,-1616,-380,1214,-2487,2025-02-17 10:28:54,0.0
-12136,-3056,-1392,-521,2269,-2271,2025-02-17 10:28:54,0.0
-12764,-3412,-724,-469,2189,-2111,2025-02-17 10:28:54,0.0
-13928,-3348,-548,-439,1436,-1558,2025-02-17 10:28:54,0.0
-13468,-3040,-924,-313,466,-1073,2025-02-17 10:28:54,0.0
-13256,-2500,-1076,-200,-314,-363,2025-02-17 10:28:54,0.0
-12364,-2516,-2044,-549,-351,93,2025-02-17 10:28:54,0.0
-11852,-2380,-2748,-1035,756,100,2025-02-17 10:28:54,0.0
-12488,-2732,-2280,-1613,1899,100,2025-02-17 10:28:54,0.0
-12840,-2952,-2116,-1634,2218,-98,2025-02-17 10:28:54,0.0
-13948,-2672,-1816,-1695,1871,-158,2025-02-17 10:28:54,0.0
-14280,-2604,-1840,-1680,1246,-488,2025-02-17 10:28:54,0.0
-14720,-2988,-2172,-1638,43,-1056,2025-02-17 10:28:54,0.0
-15208,-2972,-1424,-1798,-1458,-1315,2025-02-17 10:28:54,0.0
-14164,-2868,-1984,-1835,-2264,-1264,2025-02-17 10:28:54,0.0
-15460,-3120,-1148,-2359,-2435,-1179,2025-02-17 10:28:54,0.0
-14708,-3316,-392,-2642,-2281,-1086,2025-02-17 10:28:54,0.0
-13748,-4236,-588,-2650,-2212,-1553,2025-02-17 10:28:54,0.0
-14060,-4684,-2104,-2626,-2085,-2257,2025-02-17 10:28:54,0.0
-15104,-4616,-2424,-2573,-364,-2529,2025-02-17 10:28:54,0.0
-15692,-4584,-2344,-2454,1041,-2745,2025-02-17 10:28:54,0.0
-16452,-5156,-2120,-1878,1312,-2891,2025-02-17 10:28:54,0.0
-18236,-6352,-2312,-593,-452,-1425,2025-02-17 10:28:54,0.0
-17516,-5736,-2604,182,-3385,690,2025-02-17 10:28:54,0.0
-14220,-4792,-4196,1019,-5547,1498,2025-02-17 10:28:54,0.0
-13244,-3792,-4968,704,-5518,2274,2025-02-17 10:28:54,0.0
-11096,-3120,-5692,254,-4340,3245,2025-02-17 10:28:54,
-9604,-2160,-5652,-145,-2161,3427,2025-02-17 10:28:54,0.0
-9196,-976,-4912,-745,157,2732,2025-02-17 10:28:54,0.0
-10072,-372,-4048,-879,2398,1301,2025-02-17 10:28:54,0.0
-12420,-80,-3472,-815,3426,671,2025-02-17 10:28:54,0.0
-14664,-100,-3004,-860,3559,1166,2025-02-17 10:28:54,0.0
-17052,-1072,-1152,-429,2758,2155,2025-02-17 10:28:54,0.0
-16480,-2784,-3412,248,534,3544,2025-02-17 10:28:54,0.0
-15104,-3060,-4540,325,-783,4370,2025-02-17 10:28:54,0.0
-13804,-3180,-3264,429,-1951,4575,2025-02-17 10:28:54,0.0
-12964,-3312,-2616,1037,-2883,4625,2025-02-17 10:28:54,0.0
-11956,-2936,-2320,1679,-3413,4989,2025-02-17 10:28:54,0.0
-11088,-2392,-2244,2174,-3620,5414,2025-02-17 10:28:54,0.0
-10600,-1112,-2108,2427,-3373,5610,2025-02-17 10:28:54,0.0
-10396,396,-1840,2481,-2404,5412,2025-02-17 10:28:54,0.0
-10780,1540,-1612,2275,-1125,5022,2025-02-17 10:28:54,0.0
-10600,2060,-1332,2149,-294,4082,2025-02-17 10:28:54,0.0
-11068,1596,-1480,2080,-213,2895,2025-02-17 10:28:54,0.0
-11600,616,-1588,1662,-645,2150,2025-02-17 10:28:54,0.0
-11484,588,-1296,1415,-749,1692,2025-02-17 10:28:54,0.0
-11600,656,-1380,1164,-294,1076,2025-02-17 10:28:54,0.0
-11632,728,-1532,663,133,338,2025-02-17 10:28:54,0.0
-12220,296,-1496,283,340,-97,2025-02-17 10:28:54,0.0
-12808,80,-848,59,347,-265,2025-02-17 10:28:54,0.0
-12872,-212,-544,51,134,-352,2025-02-17 10:28:54,0.0
-13124,-228,-204,201,-324,-271,2025-02-17 10:28:54,0.0
-12764,148,272,464,-599,-231,2025-02-17 10:28:54,0.0
-12380,180,544,838,-634,-364,2025-02-17 10:28:54,0.0
-13184,592,1048,1214,-431,-542,2025-02-17 10:28:54,0.0
-12968,868,-332,1670,318,-561,2025-02-17 10:28:54,0.0
-13624,476,-940,2065,1516,-474,2025-02-17 10:28:54,0.0
-14200,-420,-2012,2390,2248,-189,2025-02-17 10:28:55,0.0
-15592,-928,-1312,2691,2443,564,2025-02-17 10:28:55,0.0
-15276,-464,-1280,2842,2261,1271,2025-02-17 10:28:55,0.0
-16212,240,220,2542,1360,1722,2025-02-17 10:28:55,0.0
-16584,620,1616,2432,209,2309,2025-02-17 10:28:55,0.0
-16388,452,2336,2872,-649,2840,2025-02-17 10:28:55,0.0
-15540,1276,1608,3594,-863,2928,2025-02-17 10:28:55,0.0
-14692,1680,-832,3860,261,2511,2025-02-17 10:28:55,0.0
-15688,1372,-3208,3366,1510,1836,2025-02-17 10:28:55,0.0
-17036,556,-3728,2134,2468,500,2025-02-17 10:28:55,0.0
-17736,1076,-6168,1387,1061,-236,2025-02-17 10:28:55,0.0
-16500,2404,-8764,196,-1173,-896,2025-02-17 10:28:55,0.0
-16004,2340,-8572,-1272,-2725,-649,2025-02-17 10:28:55,0.0
-12188,272,-6984,-1994,-3562,-545,2025-02-17 10:28:55,0.0
-9380,-404,-5092,-1859,-2951,-832,2025-02-17 10:28:55,0.0
-8084,-1244,-3944,-1494,306,-1255,2025-02-17 10:28:55,0.0
-9144,-1884,-2456,-858,4553,-2655,2025-02-17 10:28:55,0.0
-12296,-1948,-3160,-323,6708,-3847,2025-02-17 10:28:55,0.0
-14272,-1540,-3628,-338,5934,-3906,2025-02-17 10:28:55,0.0
-15072,-1084,-4660,-454,3213,-3489,2025-02-17 10:28:55,0.0
-15516,-612,-3616,-530,-127,-3146,2025-02-17 10:28:55,0.0
-13964,-704,-3184,-550,-2104,-3106,2025-02-17 10:28:55,0.0
-12128,-1164,-2860,-442,-2925,-3506,2025-02-17 10:28:55,0.0
-10852,-1320,-3380,70,-2736,-3985,2025-02-17 10:28:55,0.0
-10152,-920,-4140,80,-1899,-4309,2025-02-17 10:28:55,0.0
-9788,-840,-3940,-355,-662,-4396,2025-02-17 10:28:55,0.0
-10532,-1348,-3004,-695,1301,-4449,2025-02-17 10:28:55,0.0
-11040,-1636,-2868,-1071,3077,-4304,2025-02-17 10:28:55,0.0
-12216,-2036,-2516,-1594,3499,-3825,2025-02-17 10:28:55,0.0
-12724,-2608,-1972,-1574,2540,-3315,2025-02-17 10:28:55,0.0
-12960,-2728,-2332,-1258,1267,-2726,2025-02-17 10:28:55,0.0
-12660,-2720,-2612,-1159,796,-1858,2025-02-17 10:28:55,0.0
-12192,-2124,-2720,-1237,1117,-1219,2025-02-17 10:28:55,0.0
-11952,-1928,-2892,-1421,1459,-955,2025-02-17 10:28:55,0.0
-11884,-1980,-3064,-1640,1644,-764,2025-02-17 10:28:55,0.0
-12624,-2244,-2100,-1697,1551,-369,2025-02-17 10:28:55,0.0
-12816,-2136,-1468,-1579,1021,251,2025-02-17 10:28:55,0.0
-12376,-1972,-1252,-1386,-64,762,2025-02-17 10:28:55,0.0
-12188,-2028,-1240,-1187,-322,1088,2025-02-17 10:28:55,0.0
-12148,-2152,-1536,-1121,-223,1276,2025-02-17 10:28:55,0.0
-12640,-1908,-2096,-1471,-114,1285,2025-02-17 10:28:55,0.0
-12856,-1620,-2204,-1964,50,1252,2025-02-17 10:28:55,0.0
-12964,-1576,-2308,-2284,-208,1042,2025-02-17 10:28:55,0.0
-13036,-1660,-2460,-2372,-244,739,2025-02-17 10:28:55,0.0
-13436,-1400,-2328,-2466,278,237,2025-02-17 10:28:55,0.0
-14392,-660,-1976,-2854,675,-152,2025-02-17 10:28:55,0.0
-15360,-320,-1660,-3281,806,-636,2025-02-17 10:28:55,0.0
-16136,-524,-1224,-3579,73,-1258,2025-02-17 10:28:55,0.0
-16276,-1972,-404,-3761,-940,-1737,2025-02-17 10:28:55,0.0
-16100,-3040,256,-3624,-2161,-1913,2025-02-17 10:28:55,0.0
-15288,-3824,680,-3391,-2664,-1691,2025-02-17 10:28:55,0.0
-13984,-5128,-936,-3529,-1770,-1985,2025-02-17 10:28:55,0.0
-14184,-4876,-2048,-3359,-133,-2379,2025-02-17 10:28:55,0.0
-15124,-4172,-3008,-2723,1377,-3175,2025-02-17 10:28:55,0.0
-17504,-3656,-4008,-1885,745,-3254,2025-02-17 10:28:55,0.0
-18812,-4028,-4616,-1055,-1290,-1996,2025-02-17 10:28:55,0.0
-17976,-4444,-4692,-65,-3740,375,2025-02-17 10:28:55,0.0
-14232,-3960,-4516,830,-4748,1646,2025-02-17 10:28:55,0.0
-10668,-3264,-4788,1142,-5021,1993,2025-02-17 10:28:55,0.0
-8752,-2460,-5240,964,-3161,2257,2025-02-17 10:28:55,0.0
-9284,-900,-5420,545,636,2031,2025-02-17 10:28:55,0.0
-12008,984,-6148,-22,4397,1734,2025-02-17 10:28:56,0.0
-14324,1260,-5552,-681,6231,1356,2025-02-17 10:28:56,0.0
-17440,-120,-3668,-722,5946,1444,2025-02-17 10:28:56,0.0
-17192,-1952,-3960,357,58,2474,2025-02-17 10:28:56,0.0
-16064,-2744,-3120,1212,-4798,3207,2025-02-17 10:28:56,0.0
-13852,-2756,-3656,1599,-6618,3846,2025-02-17 10:28:56,0.0
-11500,-2492,-3956,1718,-6360,4122,2025-02-17 10:28:56,0.0
-10072,-1968,-2804,1911,-4925,4146,2025-02-17 10:28:56,0.0
-9032,-1384,-2396,2222,-3299,3928,2025-02-17 10:28:56,
-9016,-340,-2392,2414,-1244,3581,2025-02-17 10:28:56,0.0
-9832,496,-2204,2369,983,3162,2025-02-17 10:28:56,0.0
-11116,760,-2104,2145,2390,2604,2025-02-17 10:28:56,0.0
-11924,1044,-2436,2049,2306,2120,2025-02-17 10:28:56,0.0
-12720,924,-2052,1998,857,1893,2025-02-17 10:28:56,0.0
-12792,728,-2592,1689,-566,1741,2025-02-17 10:28:56,0.0
-11780,488,-2056,1321,-766,1304,2025-02-17 10:28:56,0.0
-10928,232,-1992,1221,-349,457,2025-02-17 10:28:56,0.0
-10796,388,-1960,1033,366,-364,2025-02-17 10:28:56,0.0
-10972,336,-1984,779,1230,-976,2025-02-17 10:28:56,0.0
-11788,376,-1672,615,1774,-1254,2025-02-17 10:28:56,0.0
-13264,-96,-1176,696,1976,-1199,2025-02-17 10:28:56,0.0
-13764,-152,-1588,633,1796,-1061,2025-02-17 10:28:56,0.0
-14576,-420,-1260,401,1381,-857,2025-02-17 10:28:56,0.0
-14820,-748,-696,608,714,-517,2025-02-17 10:28:56,0.0
-14148,-876,-332,1179,-396,-266,2025-02-17 10:28:56,0.0
-13180,-560,-72,1519,-1029,-120,2025-02-17 10:28:56,0.0
-12600,-300,-24,1748,-984,-221,2025-02-17 10:28:56,0.0
-12204,-284,-728,2043,-171,-243,2025-02-17 10:28:56,0.0
-12196,-520,-1392,2321,960,-326,2025-02-17 10:28:56,0.0
-12664,-796,-2004,2508,2341,-510,2025-02-17 10:28:56,0.0
-13864,-920,-2244,2664,3163,-668,2025-02-17 10:28:56,0.0
-15980,-792,-1528,3095,3131,-341,2025-02-17 10:28:56,0.0
-16216,-736,-544,3249,1383,188,2025-02-17 10:28:56,0.0
-15408,-944,772,3451,-476,387,2025-02-17 10:28:56,0.0
-15000,-948,572,3892,-1117,645,2025-02-17 10:28:56,0.0
-14592,-136,-720,4471,-75,1409,2025-02-17 10:28:56,0.0
-15604,160,-2880,4910,1278,1964,2025-02-17 10:28:56,0.0
-17228,780,-4224,4199,2401,2176,2025-02-17 10:28:56,0.0
-18276,704,-4584,2782,1712,2283,2025-02-17 10:28:56,0.0
-17720,516,-5764,1950,-199,1586,2025-02-17 10:28:56,0.0
-16684,568,-7836,1610,-2305,116,2025-02-17 10:28:56,0.0
-15068,664,-7836,657,-3785,-1252,2025-02-17 10:28:56,0.0
-12196,608,-5276,84,-3632,-1910,2025-02-17 10:28:56,0.0
-9816,76,-4000,539,-2723,-1959,2025-02-17 10:28:56,0.0
-8464,-1168,-3908,648,-903,-1997,2025-02-17 10:28:56,0.0
-8148,-2176,-4132,217,1964,-2355,2025-02-17 10:28:56,0.0
-9464,-2128,-4276,253,4776,-3133,2025-02-17 10:28:56,0.0
-12536,-920,-4908,180,6774,-3708,2025-02-17 10:28:56,0.0
-15392,-712,-4632,-404,6191,-2853,2025-02-17 10:28:56,0.0
-15460,-1288,-3552,-744,2974,-1944,2025-02-17 10:28:56,0.0
-14264,-2032,-2740,-846,-501,-2244,2025-02-17 10:28:56,0.0
-13428,-2700,-2608,-779,-2556,-2870,2025-02-17 10:28:56,0.0
-12492,-3380,-3224,-478,-3405,-3002,2025-02-17 10:28:56,0.0
-11772,-3764,-3932,-282,-3282,-2842,2025-02-17 10:28:56,0.0
-11060,-3548,-4412,-58,-2259,-2639,2025-02-17 10:28:56,0.0
-10676,-3144,-4404,-198,-225,-2315,2025-02-17 10:28:56,0.0
-10824,-2944,-4412,-635,1064,-1913,2025-02-17 10:28:56,0.0
-11188,-2652,-4040,-975,1956,-1555,2025-02-17 10:28:56,0.0
-11288,-2300,-3312,-1188,2449,-1660,2025-02-17 10:28:56,0.0
-11644,-1700,-3620,-1320,2445,-2021,2025-02-17 10:28:56,0.0
-11788,-2032,-4076,-1458,2626,-2336,2025-02-17 10:28:57,0.0
-12264,-2256,-4508,-1752,3092,-2259,2025-02-17 10:28:57,0.0
-12900,-2468,-4048,-2126,3486,-1890,2025-02-17 10:28:57,0.0
-13228,-2444,-3728,-2354,3245,-1492,2025-02-17 10:28:57,0.0
-13408,-2268,-3756,-2484,2379,-1048,2025-02-17 10:28:57,0.0
-13228,-2380,-3312,-2671,1434,-583,2025-02-17 10:28:57,0.0
-12884,-2512,-2808,-2619,1161,-304,2025-02-17 10:28:57,0.0
-12664,-2448,-3408,-2619,965,-221,2025-02-17 10:28:57,0.0
-13004,-2404,-3416,-2624,1129,-182,2025-02-17 10:28:57,0.0
-13424,-2284,-2304,-2155,1215,-191,2025-02-17 10:28:57,0.0
-13808,-2384,-2624,-2010,359,-283,2025-02-17 10:28:57,0.0
-13800,-2464,-2704,-1753,-366,-198,2025-02-17 10:28:57,0.0
-13676,-2400,-3056,-1699,-658,-32,2025-02-17 10:28:57,0.0
-13392,-2192,-3292,-1905,-642,107,2025-02-17 10:28:57,0.0
-13436,-1744,-2836,-2043,-843,342,2025-02-17 10:28:57,0.0
-13412,-1404,-2608,-2394,-1382,679,2025-02-17 10:28:57,0.0
-13128,-1984,-2448,-2498,-2119,925,2025-02-17 10:28:57,0.0
-12740,-2764,-3388,-2852,-2852,1033,2025-02-17 10:28:57,0.0
-12308,-3096,-4344,-3372,-2929,893,2025-02-17 10:28:57,0.0
-11688,-3236,-5068,-3540,-2285,301,2025-02-17 10:28:57,0.0
-11636,-3640,-5804,-3468,-1670,-701,2025-02-17 10:28:57,0.0
-11868,-3076,-5076,-2779,-1277,-1731,2025-02-17 10:28:57,0.0
-12300,-2420,-4972,-2608,-214,-2587,2025-02-17 10:28:57,0.0
-13172,-2784,-5116,-2643,95,-2214,2025-02-17 10:28:57,0.0
-13932,-2756,-5372,-2300,-28,-1258,2025-02-17 10:28:57,0.0
-14236,-2280,-5056,-1976,-1074,666,2025-02-17 10:28:57,0.0
-13208,-1636,-3312,-1789,-2214,1738,2025-02-17 10:28:57,0.0
-12432,-1420,-2088,-1505,-2621,1472,2025-02-17 10:28:57,0.0
-13048,-1656,-1884,-622,-1612,996,2025-02-17 10:28:57,0.0
-14100,-1032,-2060,373,240,1327,2025-02-17 10:28:57,0.0
-14688,-264,-2496,1053,1919,1824,2025-02-17 10:28:57,0.0
-15156,256,-3232,1233,2673,2274,2025-02-17 10:28:57,0.0
-15048,-120,-4108,1126,2163,2354,2025-02-17 10:28:57,0.0
-14864,-200,-4252,824,976,2409,2025-02-17 10:28:57,0.0
-14176,-292,-4268,517,87,2421,2025-02-17 10:28:57,0.0
-12728,120,-3920,201,-363,2197,2025-02-17 10:28:57,0.0
-11320,776,-3620,-180,-281,1279,2025-02-17 10:28:57,0.0
-10656,1160,-3644,-590,339,640,2025-02-17 10:28:57,0.0
-10532,548,-3800,-929,1545,-21,2025-02-17 10:28:57,0.0
-11160,284,-3676,-1239,2558,-735,2025-02-17 10:28:57,0.0
-11992,-108,-3072,-1252,2594,-1139,2025-02-17 10:28:57,0.0
-12700,-724,-2876,-1049,2069,-1569,2025-02-17 10:28:57,0.0
-13312,-880,-2456,-771,1332,-1729,2025-02-17 10:28:57,0.0
-13320,-1200,-3324,-560,617,-1586,2025-02-17 10:28:57,0.0
-13136,-1544,-3564,-425,455,-1527,2025-02-17 10:28:57,0.0
-12564,-1660,-3292,-590,595,-1687,2025-02-17 10:28:57,0.0
-12076,-1316,-2812,-908,890,-1859,2025-02-17 10:28:57,0.0
-11660,-788,-2396,-899,1507,-2146,2025-02-17 10:28:57,0.0
-11832,-440,-2896,-524,2214,-2421,2025-02-17 10:28:57,
-12084,-460,-4368,-421,3536,-2691,2025-02-17 10:28:57,0.0
-12812,-604,-5448,-507,4397,-2823,2025-02-17 10:28:57,0.0
-14124,-348,-6552,-909,4536,-2526,2025-02-17 10:28:57,0.0
-15276,-16,-7008,-1791,3617,-1775,2025-02-17 10:28:57,0.0
-15032,796,-6344,-2561,1952,-988,2025-02-17 10:28:57,0.0
-13892,1448,-6044,-2932,63,-974,2025-02-17 10:28:57,0.0
-12556,1672,-4828,-3605,-1935,-1675,2025-02-17 10:28:57,0.0
-11816,1300,-4464,-4273,-1742,-1903,2025-02-17 10:28:57,0.0
-11016,360,-4484,-4670,-418,-2051,2025-02-17 10:28:57,0.0
-11380,-324,-4880,-5147,627,-2476,2025-02-17 10:28:57,0.0
-12784,-448,-4768,-5491,972,-2644,2025-02-17 10:28:57,0.0
-13640,-460,-5124,-5996,780,-2651,2025-02-17 10:28:57,0.0
-14260,-44,-5396,-6732,-161,-2667,2025-02-17 10:28:57,0.0
-14172,188,-4976,-7421,-1373,-2881,2025-02-17 10:28:57,0.0
-13424,-44,-4536,-8210,-3633,-3551,2025-02-17 10:28:58,0.0
-12704,-488,-4196,-8462,-4894,-3787,2025-02-17 10:28:58,0.0
-11468,-984,-4020,-8400,-4848,-3928,2025-02-17 10:28:58,0.0
-10684,-1408,-3764,-8227,-3609,-4144,2025-02-17 10:28:58,0.0
-11000,-1756,-4600,-8040,-1898,-4268,2025-02-17 10:28:58,0.0
-11628,-2076,-5048,-8024,-355,-4370,2025-02-17 10:28:58,0.0
-12356,-2012,-4772,-8311,-147,-4310,2025-02-17 10:28:58,0.0
-12992,-1756,-4328,-9001,-275,-4160,2025-02-17 10:28:58,0.0
-12868,-1312,-4236,-9772,-512,-4140,2025-02-17 10:28:58,0.0
-12360,-1684,-4924,-10313,-619,-4448,2025-02-17 10:28:58,0.0
-12268,-2324,-5432,-10992,2,-4699,2025-02-17 10:28:58,0.0
-12844,-3100,-5384,-11598,916,-4976,2025-02-17 10:28:58,0.0
-13468,-3408,-4868,-12035,988,-5252,2025-02-17 10:28:58,0.0
-14480,-3224,-4124,-12528,229,-5254,2025-02-17 10:28:58,0.0
-14412,-2628,-3804,-12943,-1045,-5120,2025-02-17 10:28:58,0.0
-14116,-2304,-4288,-13446,-2287,-5334,2025-02-17 10:28:58,0.0
-13712,-2040,-4756,-14068,-3436,-5396,2025-02-17 10:28:58,0.0
-13060,-2092,-5520,-14704,-3866,-5184,2025-02-17 10:28:58,0.0
-12000,-2348,-5628,-15301,-3634,-5059,2025-02-17 10:28:58,0.0
-11652,-2756,-5328,-15806,-3086,-5003,2025-02-17 10:28:58,0.0
-11412,-3256,-5052,-16032,-2550,-4969,2025-02-17 10:28:58,0.0
-11496,-3672,-4684,-16174,-2065,-4951,2025-02-17 10:28:58,0.0
-11884,-4100,-4672,-16414,-1784,-4940,2025-02-17 10:28:58,0.0
-12104,-4224,-4996,-16485,-1509,-4915,2025-02-17 10:28:58,0.0
-12412,-3908,-4952,-16522,-1351,-4599,2025-02-17 10:28:58,0.0
-12544,-4096,-4640,-16659,-1527,-4528,2025-02-17 10:28:58,0.0
-12444,-4432,-4680,-16835,-1763,-4585,2025-02-17 10:28:58,0.0
-12620,-4404,-4080,-16677,-1380,-4565,2025-02-17 10:28:58,0.0
-12804,-4148,-4060,-16504,-1429,-4510,2025-02-17 10:28:58,0.0
-12692,-3944,-4040,-16104,-2021,-4320,2025-02-17 10:28:58,0.0
-12384,-3864,-4144,-16151,-2360,-4487,2025-02-17 10:28:58,0.0
-12188,-4108,-3556,-16032,-2356,-4569,2025-02-17 10:28:58,0.0
-12000,-4708,-3216,-15759,-2370,-4483,2025-02-17 10:28:58,0.0
-11960,-5048,-3560,-15604,-2542,-4347,2025-02-17 10:28:58,0.0
-12348,-4348,-4192,-15881,-2428,-4119,2025-02-17 10:28:58,0.0
-12948,-3604,-3244,-16282,-2801,-3949,2025-02-17 10:28:58,0.0
-12972,-3000,-3016,-16283,-3282,-3343,2025-02-17 10:28:58,0.0
-12304,-3176,-3168,-15972,-3279,-2856,2025-02-17 10:28:58,0.0
-11468,-3860,-3880,-16123,-2975,-2494,2025-02-17 10:28:58,0.0
-11376,-3744,-4488,-16173,-2238,-2228,2025-02-17 10:28:58,0.0
-11800,-4124,-4300,-16216,-890,-2197,2025-02-17 10:28:58,0.0
-13188,-5212,-4508,-16040,-130,-2333,2025-02-17 10:28:58,0.0
-14200,-5280,-4648,-15469,-345,-2400,2025-02-17 10:28:58,0.0
-14860,-3952,-4452,-14751,-1113,-2471,2025-02-17 10:28:58,0.0
-14288,-2160,-3600,-14369,-2168,-2794,2025-02-17 10:28:58,0.0
-13792,-244,-3492,-14108,-3404,-2626,2025-02-17 10:28:58,0.0
-12700,892,-4052,-14092,-3526,-1848,2025-02-17 10:28:58,0.0
-11164,1060,-5084,-14132,-2123,-1266,2025-02-17 10:28:58,0.0
-9760,1008,-6124,-14915,906,-1716,2025-02-17 10:28:58,0.0
-10904,256,-5436,-15920,4386,-2667,2025-02-17 10:28:58,0.0
-12208,-780,-3380,-16240,5919,-3128,2025-02-17 10:28:58,0.0
-14196,-432,-1572,-15866,5699,-3511,2025-02-17 10:28:58,0.0
-15524,-144,-1732,-15620,4161,-3531,2025-02-17 10:28:58,0.0
-16004,-192,-2396,-15195,1736,-3243,2025-02-17 10:28:58,0.0
-15104,-4,-2292,-14703,-418,-3002,2025-02-17 10:28:58,0.0
-13348,-152,-3576,-14517,-1111,-3209,2025-02-17 10:28:58,0.0
-12376,-444,-4028,-14337,-574,-3562,2025-02-17 10:28:58,0.0
-12656,-592,-3772,-13958,633,-3772,2025-02-17 10:28:58,0.0
-13300,-716,-3112,-13430,1771,-3730,2025-02-17 10:28:58,0.0
-13692,-840,-2544,-13016,2243,-3862,2025-02-17 10:28:58,0.0
-13788,-980,-2144,-12506,1630,-4004,2025-02-17 10:28:58,0.0
-13072,-592,-2116,-11921,-105,-4077,2025-02-17 10:28:59,0.0
-12596,-112,-2424,-11566,-1005,-4129,2025-02-17 10:28:59,0.0
-11976,340,-3892,-11561,-1114,-4267,2025-02-17 10:28:59,0.0
-11700,580,-4044,-11724,-558,-4547,2025-02-17 10:28:59,0.0
-11816,912,-4220,-11874,952,-4801,2025-02-17 10:28:59,0.0
-11700,712,-4336,-12286,2838,-5098,2025-02-17 10:28:59,0.0
-11528,384,-4676,-12405,4105,-5563,2025-02-17 10:28:59,0.0
-11996,36,-5732,-12104,3173,-5814,2025-02-17 10:28:59,0.0
-12696,-144,-6204,-12266,1460,-5836,2025-02-17 10:28:59,0.0
-12888,304,-4872,-12694,739,-5863,2025-02-17 10:28:59,0.0
-12716,440,-3980,-12682,689,-5883,2025-02-17 10:28:59,0.0
-12920,520,-4924,-12450,582,-5812,2025-02-17 10:28:59,0.0
-12636,744,-5800,-12432,39,-5702,2025-02-17 10:28:59,0.0
-12464,-12,-5800,-12660,723,-5829,2025-02-17 10:28:59,0.0
-12348,-812,-5636,-12571,1384,-6367,2025-02-17 10:28:59,0.0
-12840,-1196,-4956,-12101,840,-6729,2025-02-17 10:28:59,0.0
-13268,-1552,-4768,-11474,-186,-6483,2025-02-17 10:28:59,0.0
-13216,-2100,-4608,-10846,-443,-6135,2025-02-17 10:28:59,0.0
-12880,-2264,-4672,-10326,-729,-6089,2025-02-17 10:28:59,0.0
-12680,-2176,-4548,-10040,-1762,-5916,2025-02-17 10:28:59,0.0
-12396,-1908,-5004,-9446,-2234,-5486,2025-02-17 10:28:59,0.0
-12008,-2288,-6296,-9027,-2180,-5316,2025-02-17 10:28:59,0.0
-12336,-3076,-5288,-9013,-1448,-5245,2025-02-17 10:28:59,0.0
-12416,-2840,-3960,-7887,-696,-4792,2025-02-17 10:28:59,0.0
-12772,-2156,-4616,-7004,-1454,-4560,2025-02-17 10:28:59,
-12980,-1740,-4804,-6878,-2264,-3900,2025-02-17 10:28:59,0.0
-12028,-1996,-3324,-6638,-1829,-3803,2025-02-17 10:28:59,0.0
-12516,-2280,-2948,-6095,-238,-3766,2025-02-17 10:28:59,0.0
-12980,-1624,-3648,-5732,939,-3401,2025-02-17 10:28:59,0.0
-13408,-1236,-4524,-5947,480,-3307,2025-02-17 10:28:59,0.0
-13344,-1644,-4672,-6434,342,-3167,2025-02-17 10:28:59,0.0
-13464,-2112,-4180,-6524,820,-2979,2025-02-17 10:28:59,0.0
-12944,-2544,-3756,-6559,900,-2926,2025-02-17 10:28:59,0.0
-12896,-2920,-3280,-6571,716,-3282,2025-02-17 10:28:59,0.0
-12824,-3468,-3352,-6425,534,-3702,2025-02-17 10:28:59,0.0
-13216,-3664,-3888,-6022,129,-3930,2025-02-17 10:28:59,0.0
-13792,-3476,-4148,-5951,-692,-3525,2025-02-17 10:28:59,0.0
-13140,-3628,-3620,-5791,-1327,-3057,2025-02-17 10:28:59,0.0
-12800,-3504,-3648,-5547,-1562,-2549,2025-02-17 10:28:59,0.0
-12572,-2932,-3308,-5229,-985,-2181,2025-02-17 10:28:59,0.0
-12224,-2488,-2768,-5176,-349,-1991,2025-02-17 10:28:59,0.0
-12284,-2360,-2344,-5136,-88,-1673,2025-02-17 10:28:59,0.0
-12064,-2536,-2492,-5066,-165,-1176,2025-02-17 10:28:59,0.0
-11484,-2992,-2480,-4745,-220,-753,2025-02-17 10:28:59,0.0
-11436,-4632,-3052,-4323,-174,-580,2025-02-17 10:28:59,0.0
-11032,-5016,-4528,-3572,201,-662,2025-02-17 10:28:59,0.0
-11628,-3852,-5004,-2486,1359,-1342,2025-02-17 10:28:59,0.0
-13144,-2336,-5124,-2076,2271,-1620,2025-02-17 10:28:59,0.0
-14328,-820,-5504,-2127,2277,-1165,2025-02-17 10:28:59,0.0
-14816,-528,-6192,-2458,1582,-491,2025-02-17 10:28:59,0.0
-14924,-1540,-6384,-2751,402,270,2025-02-17 10:28:59,0.0
-14284,-3204,-5196,-2292,68,789,2025-02-17 10:28:59,0.0
-13300,-4052,-4228,-1614,114,807,2025-02-17 10:28:59,0.0
-12748,-3880,-3156,-852,-290,493,2025-02-17 10:28:59,0.0
-12924,-3116,-3304,-127,-607,257,2025-02-17 10:28:59,0.0
-13280,-1932,-4392,-51,-1054,614,2025-02-17 10:28:59,0.0
-12904,-1064,-4280,-177,-1611,895,2025-02-17 10:28:59,0.0
-11892,-364,-4180,-476,-1961,546,2025-02-17 10:28:59,0.0
-11736,-364,-3616,-630,-1745,278,2025-02-17 10:28:59,0.0
-11652,-1020,-3892,-560,-1133,164,2025-02-17 10:28:59,0.0
-11500,-1500,-4236,-293,-117,272,2025-02-17 10:28:59,0.0
-11632,-1400,-4236,-175,1096,181,2025-02-17 10:29:00,0.0
-12244,-968,-4760,-320,2072,-52,2025-02-17 10:29:00,0.0
-13044,-524,-5240,-610,1715,-265,2025-02-17 10:29:00,0.0
-13408,-396,-4672,-946,461,-383,2025-02-17 10:29:00,0.0
-13040,-620,-4320,-1140,-277,-483,2025-02-17 10:29:00,0.0
-12648,-1140,-4604,-1245,-533,-504,2025-02-17 10:29:00,0.0
-12228,-1336,-4628,-1184,-318,-468,2025-02-17 10:29:00,0.0
-11960,-1560,-5044,-1074,164,-486,2025-02-17 10:29:00,0.0
-12160,-1564,-4636,-976,763,-459,2025-02-17 10:29:00,0.0
-12688,-1428,-4424,-851,1294,-392,2025-02-17 10:29:00,0.0
-13140,-1264,-4140,-878,1109,-343,2025-02-17 10:29:00,0.0
-13420,-1284,-3912,-748,385,-239,2025-02-17 10:29:00,0.0
-13336,-1412,-4048,-508,-522,-32,2025-02-17 10:29:00,0.0
-12720,-1540,-4024,-113,-564,32,2025-02-17 10:29:00,0.0
-12376,-1528,-4188,-50,-47,88,2025-02-17 10:29:00,0.0
-12248,-1332,-4340,68,452,89,2025-02-17 10:29:00,0.0
-12236,-996,-4484,61,711,104,2025-02-17 10:29:00,0.0
-12440,-924,-4172,-50,833,47,2025-02-17 10:29:00,0.0
-12772,-816,-4184,-67,1014,-25,2025-02-17 10:29:00,0.0
-12972,-552,-4388,-68,1049,-89,2025-02-17 10:29:00,0.0
-13024,-640,-4816,-105,777,-246,2025-02-17 10:29:00,0.0
-13016,-648,-4508,-217,507,-242,2025-02-17 10:29:00,0.0
-12628,-768,-4168,200,632,-350,2025-02-17 10:29:00,0.0
-12652,-904,-4500,439,383,-183,2025-02-17 10:29:00,0.0
-12396,-688,-4724,299,316,-232,2025-02-17 10:29:00,0.0
-12324,-668,-4920,200,317,-456,2025-02-17 10:29:00,0.0
-12616,-488,-4996,-15,478,-736,2025-02-17 10:29:00,0.0
-12876,-396,-5132,-417,435,-932,2025-02-17 10:29:00,0.0
-13304,-304,-4988,-852,94,-878,2025-02-17 10:29:00,0.0
-13340,-400,-4372,-1091,-485,-730,2025-02-17 10:29:00,0.0
-13160,-672,-4264,-1085,-933,-637,2025-02-17 10:29:00,0.0
-12828,-952,-4052,-1070,-824,-676,2025-02-17 10:29:00,0.0
-12800,-1292,-4184,-1024,-739,-819,2025-02-17 10:29:00,0.0
-12992,-1472,-4148,-844,-772,-930,2025-02-17 10:29:00,0.0
-12948,-1528,-4344,-703,-1205,-1059,2025-02-17 10:29:00,0.0
-12596,-1536,-4164,-593,-1232,-1130,2025-02-17 10:29:00,0.0
-12664,-1708,-3912,-457,-890,-1126,2025-02-17 10:29:00,0.0
-12448,-1676,-3952,-205,-409,-1084,2025-02-17 10:29:00,0.0
-12580,-1348,-4160,-92,-144,-1195,2025-02-17 10:29:00,0.0
-12920,-1232,-4588,-67,-342,-1379,2025-02-17 10:29:00,0.0
-13268,-1160,-4748,-71,-1145,-1673,2025-02-17 10:29:00,0.0
-13052,-1284,-4508,-42,-1784,-1843,2025-02-17 10:29:00,0.0
-12772,-1312,-4152,151,-2306,-2013,2025-02-17 10:29:00,0.0
-12612,-1356,-3904,343,-2397,-2098,2025-02-17 10:29:00,0.0
-12316,-1416,-3624,565,-2307,-1967,2025-02-17 10:29:00,0.0
-12332,-1612,-3428,776,-1973,-1901,2025-02-17 10:29:00,0.0
-12432,-1704,-2972,897,-1309,-1843,2025-02-17 10:29:00,0.0
-12704,-1656,-2488,1100,-979,-1844,2025-02-17 10:29:00,0.0
-12900,-2068,-2248,1155,-750,-1590,2025-02-17 10:29:00,0.0
-12308,-2724,-1940,973,221,-1384,2025-02-17 10:29:00,0.0
-12024,-2604,-1948,744,1739,-1097,2025-02-17 10:29:00,0.0
-11624,-3216,-2668,376,2534,-588,2025-02-17 10:29:00,0.0
-11640,-4212,-2460,100,3450,-483,2025-02-17 10:29:00,0.0
-12600,-4652,-1708,383,5351,-674,2025-02-17 10:29:00,0.0
-13632,-4468,-1820,1037,6207,-1440,2025-02-17 10:29:00,0.0
-15324,-4368,-1884,1634,4271,-2946,2025-02-17 10:29:00,0.0
-16240,-3964,-2004,2082,356,-3461,2025-02-17 10:29:00,0.0
-15988,-3852,-2648,2135,-3034,-2823,2025-02-17 10:29:00,0.0
-13816,-3484,-2732,1935,-4430,-2198,2025-02-17 10:29:00,0.0
-11492,-3020,-3108,1637,-4389,-2155,2025-02-17 10:29:00,0.0
-10476,-2656,-3556,936,-2744,-2014,2025-02-17 10:29:00,0.0
-10476,-2792,-3168,130,95,-1548,2025-02-17 10:29:01,0.0
-11188,-2892,-2248,-300,2081,-1043,2025-02-17 10:29:01,0.0
-12076,-3056,-1860,-524,2179,-953,2025-02-17 10:29:01,
-13320,-3352,-1792,-600,1319,-766,2025-02-17 10:29:01,0.0
-13720,-3360,-1784,-458,516,25,2025-02-17 10:29:01,0.0
-13192,-3016,-1924,-635,81,628,2025-02-17 10:29:01,0.0
-12616,-2784,-2252,-1035,-91,597,2025-02-17 10:29:01,0.0
-12904,-2832,-1492,-1138,26,617,2025-02-17 10:29:01,0.0
-12424,-2980,-1820,-1009,38,727,2025-02-17 10:29:01,0.0
-12080,-2888,-2080,-1050,245,772,2025-02-17 10:29:01,0.0
-12108,-2736,-2192,-1345,1158,633,2025-02-17 10:29:01,0.0
-12836,-3092,-2144,-1648,2442,639,2025-02-17 10:29:01,0.0
-13732,-3348,-2304,-1628,3093,632,2025-02-17 10:29:01,0.0
-14660,-3148,-2868,-1913,2994,218,2025-02-17 10:29:01,0.0
-15432,-2956,-2124,-1981,1843,-349,2025-02-17 10:29:01,0.0
-15832,-2816,-2228,-1974,227,-810,2025-02-17 10:29:01,0.0
-15368,-3000,-2064,-2159,-817,-750,2025-02-17 10:29:01,0.0
-13964,-3588,-2160,-2377,-1032,-859,2025-02-17 10:29:01,0.0
-13528,-4356,-3564,-2831,-101,-1456,2025-02-17 10:29:01,0.0
-14220,-4532,-4176,-3325,1668,-2115,2025-02-17 10:29:01,0.0
-14868,-5040,-3480,-3389,3227,-2990,2025-02-17 10:29:01,0.0
-15756,-5524,-2700,-3026,3007,-3806,2025-02-17 10:29:01,0.0
-16860,-5784,-1944,-2067,1150,-3613,2025-02-17 10:29:01,0.0
-17924,-5896,-2064,-927,-2067,-1450,2025-02-17 10:29:01,0.0
-16492,-4816,-2664,-447,-3869,-96,2025-02-17 10:29:01,0.0
-15432,-3640,-3804,-569,-4944,166,2025-02-17 10:29:01,0.0
-15224,-3180,-4644,-1111,-5385,737,2025-02-17 10:29:01,0.0
-13316,-3544,-4740,-1647,-5792,1803,2025-02-17 10:29:01,0.0
-10584,-4792,-5592,-1800,-6411,1953,2025-02-17 10:29:01,0.0
-10308,-4052,-6184,-1042,-6156,1833,2025-02-17 10:29:01,0.0
-9728,-2140,-6720,-773,-4140,2136,2025-02-17 10:29:01,0.0
-8944,-156,-6340,-978,-1718,1619,2025-02-17 10:29:01,0.0
-9392,960,-6120,-1653,355,617,2025-02-17 10:29:01,0.0
-10940,476,-6140,-2812,2883,-241,2025-02-17 10:29:01,0.0
-13540,-1048,-4880,-3423,4736,62,2025-02-17 10:29:01,0.0
-14912,-2676,-3384,-2698,5010,1434,2025-02-17 10:29:01,0.0
-15260,-3984,-2376,-1217,2573,2397,2025-02-17 10:29:01,0.0
-15116,-4276,-2384,40,-448,3018,2025-02-17 10:29:01,0.0
-14960,-4140,-2940,845,-2363,3601,2025-02-17 10:29:01,0.0
-14128,-2952,-4200,977,-3457,4779,2025-02-17 10:29:01,0.0
-12772,-1776,-3728,1164,-3803,5859,2025-02-17 10:29:01,0.0
-11128,-908,-3768,1075,-3534,6262,2025-02-17 10:29:01,0.0
-10244,148,-3200,966,-2680,6061,2025-02-17 10:29:01,0.0
-10000,400,-3032,953,-1745,5669,2025-02-17 10:29:01,0.0
-10052,264,-2572,970,-629,5003,2025-02-17 10:29:01,0.0
-10492,84,-2092,1231,-58,4312,2025-02-17 10:29:01,0.0
-10920,-248,-1856,1336,91,3695,2025-02-17 10:29:01,0.0
-11532,-268,-1892,1333,-30,3281,2025-02-17 10:29:01,0.0
-11288,324,-2056,1135,-74,2890,2025-02-17 10:29:01,0.0
-10252,1224,-2016,876,-241,1355,2025-02-17 10:29:01,0.0
-10296,1468,-1976,496,-146,66,2025-02-17 10:29:01,0.0
-10216,1100,-2180,239,-1,-726,2025-02-17 10:29:01,0.0
-11288,216,-1352,273,2,-1341,2025-02-17 10:29:01,0.0
-11948,-500,-1520,443,-82,-1882,2025-02-17 10:29:01,0.0
-13184,-628,-1468,596,-124,-2212,2025-02-17 10:29:01,0.0
-14952,-64,-2316,600,-280,-1746,2025-02-17 10:29:01,0.0
-15840,260,-2340,714,-680,-847,2025-02-17 10:29:01,0.0
-16000,-700,-1776,941,-1815,89,2025-02-17 10:29:01,0.0
-15340,-2044,-720,1714,-3268,909,2025-02-17 10:29:01,0.0
-14568,-3080,-412,2483,-3452,1708,2025-02-17 10:29:01,0.0
-13376,-2760,-424,3243,-1915,2137,2025-02-17 10:29:01,0.0
-12864,-2000,-1028,3821,589,1925,2025-02-17 10:29:01,0.0
-14832,-1592,-656,4689,2614,1699,2025-02-17 10:29:02,0.0
-15552,-1516,-32,5416,2294,1541,2025-02-17 10:29:02,0.0
-16060,-564,808,5850,46,1262,2025-02-17 10:29:02,0.0
-15420,1748,-988,5947,-1467,1451,2025-02-17 10:29:02,0.0
-15588,2192,-2628,5805,-1212,1446,2025-02-17 10:29:02,0.0
-16284,2444,-4480,4994,-288,1518,2025-02-17 10:29:02,0.0
-16428,3088,-5692,3110,343,1105,2025-02-17 10:29:02,0.0
-16576,2648,-6800,1216,-490,423,2025-02-17 10:29:02,0.0
-16888,2240,-7376,-266,-65,191,2025-02-17 10:29:02,0.0
-15168,1700,-5636,-907,518,400,2025-02-17 10:29:02,0.0
-11940,860,-4064,-577,-1350,-1079,2025-02-17 10:29:02,0.0
-10460,-180,-3280,-510,-3921,-2897,2025-02-17 10:29:02,0.0
-9048,-2116,-3804,-213,-4092,-3829,2025-02-17 10:29:02,0.0
-9584,-3712,-4488,124,-2084,-4304,2025-02-17 10:29:02,0.0
-10536,-4548,-4360,671,1433,-4299,2025-02-17 10:29:02,0.0
-12368,-4360,-4264,1068,4352,-3492,2025-02-17 10:29:02,0.0
-13632,-3364,-3936,1257,5402,-2304,2025-02-17 10:29:02,0.0
-13584,-1844,-3456,1289,4282,-1462,2025-02-17 10:29:02,0.0
-13264,-448,-3332,1302,2074,-1159,2025-02-17 10:29:02,0.0
-11372,-20,-4072,167,-664,-2328,2025-02-17 10:29:02,0.0
-10892,-328,-4448,12,-704,-3820,2025-02-17 10:29:02,0.0
-11092,-732,-4864,-421,-438,-4848,2025-02-17 10:29:02,0.0
-11876,-1480,-4012,-1196,-191,-5134,2025-02-17 10:29:02,0.0
-12068,-2108,-3092,-1454,-132,-4644,2025-02-17 10:29:02,0.0
-12108,-2876,-2424,-1592,-55,-4006,2025-02-17 10:29:02,0.0
-11996,-3052,-2516,-1814,-115,-3504,2025-02-17 10:29:02,0.0
-11716,-2848,-2116,-1827,-364,-3146,2025-02-17 10:29:02,0.0
-11448,-2412,-2732,-2027,-464,-2776,2025-02-17 10:29:02,0.0
-11364,-2292,-2452,-2207,-102,-2532,2025-02-17 10:29:02,0.0
-11248,-2748,-3144,-2478,281,-2279,2025-02-17 10:29:02,0.0
-12832,-3096,-2532,-2734,1219,-1114,2025-02-17 10:29:02,0.0
-12820,-2776,-2780,-2799,826,6,2025-02-17 10:29:02,0.0
-12808,-2164,-1404,-2719,495,871,2025-02-17 10:29:02,0.0
-12060,-2268,-988,-2879,450,1377,2025-02-17 10:29:02,0.0
-11972,-2564,-1172,-3154,365,1584,2025-02-17 10:29:02,0.0
-11956,-2696,-1356,-3236,301,1398,2025-02-17 10:29:02,0.0
-12824,-2848,-1592,-3127,681,786,2025-02-17 10:29:02,0.0
-13816,-2524,-1748,-3187,967,217,2025-02-17 10:29:02,0.0
-14228,-1896,-1848,-3505,817,-309,2025-02-17 10:29:02,0.0
-14852,-1512,-1688,-3874,332,-916,2025-02-17 10:29:02,0.0
-15388,-1804,-2064,-4137,-456,-1157,2025-02-17 10:29:02,
-14884,-2756,-1672,-4155,-1926,-1244,2025-02-17 10:29:02,0.0
-13256,-3512,-1688,-3892,-2482,-2579,2025-02-17 10:29:02,0.0
-13416,-3248,-1044,-4107,-2719,-3986,2025-02-17 10:29:02,0.0
-13840,-2792,-808,-4335,-2424,-4364,2025-02-17 10:29:02,0.0
-14392,-2244,-1840,-4704,-1139,-3618,2025-02-17 10:29:02,0.0
-14900,-2352,-3564,-5744,1484,-3177,2025-02-17 10:29:02,0.0
-14832,-3332,-3284,-6528,3672,-3947,2025-02-17 10:29:02,0.0
-15828,-6052,-2072,-5986,3493,-5481,2025-02-17 10:29:02,0.0
-17976,-7988,-1336,-4203,985,-5511,2025-02-17 10:29:02,0.0
-19916,-8012,-1604,-2093,-1887,-3285,2025-02-17 10:29:02,0.0
-18700,-5464,-2980,-1145,-3566,-229,2025-02-17 10:29:03,0.0
-15932,-3124,-2928,-2973,-2888,2081,2025-02-17 10:29:03,0.0
-15048,-2816,-3044,-2684,-4608,3110,2025-02-17 10:29:03,0.0
-13344,-1928,-2924,-2346,-5478,4120,2025-02-17 10:29:03,0.0
-11556,-1172,-2736,-2048,-5392,4829,2025-02-17 10:29:03,0.0
-9876,-264,-2000,-1789,-4113,4875,2025-02-17 10:29:03,0.0
-9456,20,-2000,-1464,-1899,4146,2025-02-17 10:29:03,0.0
-9232,240,-1760,-1239,-191,3315,2025-02-17 10:29:03,0.0
-9816,316,-1644,-1121,857,2574,2025-02-17 10:29:03,0.0
-10048,224,-1872,-1184,1793,2009,2025-02-17 10:29:03,0.0
-11136,276,-1604,-1398,2697,1626,2025-02-17 10:29:03,0.0
-11480,368,-1752,-1436,2856,1379,2025-02-17 10:29:03,0.0
-11240,544,-2068,-1525,1815,30,2025-02-17 10:29:03,0.0
-11576,392,-1444,-1681,1326,-752,2025-02-17 10:29:03,0.0
-11588,184,-936,-1525,1222,-1109,2025-02-17 10:29:03,0.0
-11752,-236,-888,-1351,1243,-1562,2025-02-17 10:29:03,0.0
-12400,-816,-916,-1238,1482,-2051,2025-02-17 10:29:03,0.0
-13616,-960,-984,-892,1437,-2096,2025-02-17 10:29:03,0.0
-14776,-588,-1300,-496,929,-1534,2025-02-17 10:29:03,0.0
-15280,-112,-1668,-100,-129,-603,2025-02-17 10:29:03,0.0
-15064,-4,-1380,240,-1078,122,2025-02-17 10:29:03,0.0
-15032,-456,-1532,560,-1303,720,2025-02-17 10:29:03,0.0
-14764,-1268,-1644,1116,-815,1580,2025-02-17 10:29:03,0.0
-14536,-744,-1824,1713,119,2105,2025-02-17 10:29:03,0.0
-14532,-44,-1284,2211,964,2942,2025-02-17 10:29:03,0.0
-14268,-716,-1068,2651,949,2930,2025-02-17 10:29:03,0.0
-14156,-1288,352,3502,206,2168,2025-02-17 10:29:03,0.0
-16136,-876,-264,4804,693,2057,2025-02-17 10:29:03,0.0
-16440,-284,-2728,5428,1659,2688,2025-02-17 10:29:03,0.0
-17416,2492,-3444,5318,1560,3445,2025-02-17 10:29:03,0.0
-16848,5000,-5564,3871,607,3626,2025-02-17 10:29:03,0.0
-15888,5416,-7392,1512,-759,2480,2025-02-17 10:29:03,0.0
-15800,4540,-7212,-694,-1307,507,2025-02-17 10:29:03,0.0
-16444,2304,-7048,-1667,-1344,-263,2025-02-17 10:29:03,0.0
-13948,1176,-4372,-1263,-2882,-1096,2025-02-17 10:29:03,0.0
-11144,844,-4452,-1471,-5465,-2419,2025-02-17 10:29:03,0.0
-8880,-928,-4248,-1733,-6637,-3888,2025-02-17 10:29:03,0.0
-9000,-2744,-4252,-1977,-4021,-4098,2025-02-17 10:29:03,0.0
-9396,-3940,-4024,-1866,-70,-3709,2025-02-17 10:29:03,0.0
-10816,-4480,-3712,-1298,5600,-3049,2025-02-17 10:29:03,0.0
-13084,-2956,-3552,-640,8294,-2005,2025-02-17 10:29:03,0.0
-14636,-1204,-3540,-377,8173,-1249,2025-02-17 10:29:03,0.0
-14976,-296,-3332,-316,4983,-1383,2025-02-17 10:29:03,0.0
-14748,-256,-3800,-614,-147,-2025,2025-02-17 10:29:03,0.0
-14264,-552,-3756,-756,-2500,-2569,2025-02-17 10:29:03,0.0
-12712,-1496,-4232,-966,-3613,-3288,2025-02-17 10:29:03,0.0
-11436,-1980,-4528,-1030,-3864,-3933,2025-02-17 10:29:03,0.0
-10796,-2068,-3736,-1198,-3128,-4121,2025-02-17 10:29:03,0.0
-10704,-1700,-3196,-1257,-1488,-3868,2025-02-17 10:29:03,0.0
-11084,-1444,-2608,-1533,52,-3451,2025-02-17 10:29:03,0.0
-11036,-1880,-2500,-2078,523,-3272,2025-02-17 10:29:03,0.0
-11004,-2720,-2212,-2193,455,-3504,2025-02-17 10:29:03,0.0
-11460,-3668,-2292,-2096,687,-3448,2025-02-17 10:29:03,0.0
-11760,-4232,-2452,-1732,474,-2899,2025-02-17 10:29:03,0.0
-12496,-3840,-2164,-1415,1038,-1891,2025-02-17 10:29:03,0.0
-12580,-3412,-2260,-1310,1970,-934,2025-02-17 10:29:03,0.0
-12932,-2968,-1656,-1202,1997,-504,2025-02-17 10:29:04,0.0
-13088,-2604,-2036,-1107,1644,-324,2025-02-17 10:29:04,0.0
-13408,-2248,-1376,-944,1244,167,2025-02-17 10:29:04,0.0
-13132,-1904,-1420,-840,476,372,2025-02-17 10:29:04,0.0
-12824,-1592,-1456,-967,78,376,2025-02-17 10:29:04,0.0
-12596,-1216,-1428,-1312,-71,199,2025-02-17 10:29:04,0.0
-12312,-1212,-1708,-1605,-131,23,2025-02-17 10:29:04,0.0
-12460,-1400,-2384,-2045,218,-248,2025-02-17 10:29:04,0.0
-13032,-1720,-2444,-2484,537,-628,2025-02-17 10:29:04,0.0
-13820,-2508,-2468,-2882,314,-718,2025-02-17 10:29:04,0.0
-13944,-2948,-2424,-2960,-279,-976,2025-02-17 10:29:04,0.0
-14532,-2792,-2216,-2810,-1624,-1113,2025-02-17 10:29:04,0.0
-14056,-3192,-1868,-2704,-1900,-1601,2025-02-17 10:29:04,0.0
-13420,-3476,-1508,-2823,-2136,-2676,2025-02-17 10:29:04,0.0
-14532,-2980,404,-2937,-2854,-3321,2025-02-17 10:29:04,0.0
-14304,-2608,-672,-2981,-3159,-3090,2025-02-17 10:29:04,0.0
-14728,-2480,-1672,-3410,-1646,-2676,2025-02-17 10:29:04,0.0
-16360,-7464,-1880,-2759,2434,-4256,2025-02-17 10:29:04,0.0
-18976,-8280,-1924,-946,903,-3187,2025-02-17 10:29:04,0.0
-20124,-6700,-2680,454,-911,-382,2025-02-17 10:29:04,0.0
-18012,-4520,-3868,1213,-2696,1678,2025-02-17 10:29:04,0.0
-15948,-3032,-5440,1072,-4138,2423,2025-02-17 10:29:04,0.0
-13468,-2508,-6012,667,-5371,3329,2025-02-17 10:29:04,0.0
-10780,-2048,-5584,754,-4887,3789,2025-02-17 10:29:04,0.0
-8400,-1344,-5000,727,-2376,3291,2025-02-17 10:29:04,0.0
-7100,-328,-4608,605,617,1987,2025-02-17 10:29:04,0.0
-7480,668,-4484,441,3372,670,2025-02-17 10:29:04,0.0
-9064,560,-4908,230,5584,-142,2025-02-17 10:29:04,0.0
-11704,52,-5044,-192,7509,-301,2025-02-17 10:29:04,0.0
-14720,-1328,-4700,-760,8097,186,2025-02-17 10:29:04,0.0
-16608,-2540,-4432,-779,7271,1366,2025-02-17 10:29:04,0.0
-16964,-2352,-4232,-349,3882,2659,2025-02-17 10:29:04,0.0
-15816,-2092,-3836,172,-794,3404,2025-02-17 10:29:04,0.0
-14268,-1892,-3824,518,-3803,3703,2025-02-17 10:29:04,
-12088,-1820,-3484,797,-4572,3831,2025-02-17 10:29:04,0.0
-10348,-1392,-3308,1158,-3857,3583,2025-02-17 10:29:04,0.0
-9688,-888,-3516,1234,-1877,3205,2025-02-17 10:29:04,0.0
-9628,-612,-3520,1256,509,2778,2025-02-17 10:29:04,0.0
-10772,-448,-2928,1538,3039,2106,2025-02-17 10:29:04,0.0
-12356,-564,-2644,1721,3730,1985,2025-02-17 10:29:04,0.0
-13120,-620,-2340,1853,3222,2048,2025-02-17 10:29:04,0.0
-13212,-384,-2232,2007,1956,1966,2025-02-17 10:29:04,0.0
-12948,-412,-2656,1985,810,1667,2025-02-17 10:29:04,0.0
-12472,-292,-2556,1916,-45,1374,2025-02-17 10:29:04,0.0
-11708,-196,-2928,1891,-399,795,2025-02-17 10:29:04,0.0
-11380,40,-2988,1744,-132,155,2025-02-17 10:29:04,0.0
-11864,48,-2772,1526,738,-195,2025-02-17 10:29:04,0.0
-12436,-420,-2200,1556,1564,-362,2025-02-17 10:29:04,0.0
-13744,-760,-1592,2024,1473,83,2025-02-17 10:29:05,0.0
-11252,-2136,-4536,2713,815,-1120,2025-02-17 10:29:05,0.0
-11476,-2668,-4312,2890,2058,-758,2025-02-17 10:29:05,0.0
-11420,-2696,-4680,2973,2921,-191,2025-02-17 10:29:05,0.0
-11444,-2256,-5548,2357,3665,-84,2025-02-17 10:29:05,0.0
-12364,-1500,-5176,1348,4714,-528,2025-02-17 10:29:05,0.0
-13804,-1468,-4340,728,5247,-754,2025-02-17 10:29:05,0.0
-14360,-2416,-4472,804,4423,-1098,2025-02-17 10:29:05,0.0
-14760,-2912,-4864,1188,1647,-1400,2025-02-17 10:29:05,0.0
-14376,-3188,-4712,1308,-859,-1126,2025-02-17 10:29:05,0.0
-12860,-3104,-4572,1219,-1896,-1055,2025-02-17 10:29:05,0.0
-11932,-2672,-4516,1060,-1791,-1160,2025-02-17 10:29:05,0.0
-11396,-2200,-4520,931,-1294,-1053,2025-02-17 10:29:05,0.0
-10968,-2724,-4132,1159,-554,-1194,2025-02-17 10:29:05,0.0
-11292,-2820,-4544,1265,671,-1254,2025-02-17 10:29:05,0.0
-12000,-2820,-4548,870,1687,-946,2025-02-17 10:29:05,5
-12780,-2700,-4204,387,2038,-562,2025-02-17 10:29:05,5
-13144,-2680,-3772,352,1595,-430,2025-02-17 10:29:05,5
-13292,-2812,-4000,532,1191,-256,2025-02-17 10:29:05,5
-13232,-2620,-4424,695,877,-114,2025-02-17 10:29:05,5
-12972,-2480,-4556,677,699,-88,2025-02-17 10:29:05,5
-12760,-2128,-4076,523,378,235,2025-02-17 10:29:05,5
-12264,-1768,-3636,364,63,683,2025-02-17 10:29:05,5
-11900,-1576,-4008,19,99,1011,2025-02-17 10:29:05,5
-12096,-1560,-4588,-516,130,1311,2025-02-17 10:29:05,5
-12420,-1544,-4388,-646,252,1615,2025-02-17 10:29:05,5
-12532,-1852,-3800,-285,303,1942,2025-02-17 10:29:05,5
-12732,-2352,-4264,165,771,1998,2025-02-17 10:29:05,5
-13340,-3072,-5636,174,1070,1971,2025-02-17 10:29:05,5
-13396,-3336,-6208,135,1456,1482,2025-02-17 10:29:05,5
-14048,-2712,-5744,475,1379,751,2025-02-17 10:29:05,5
-13976,-1688,-4712,711,560,615,2025-02-17 10:29:05,5
-13216,-1008,-4500,-901,1228,312,2025-02-17 10:29:05,5
-13408,-1104,-4300,-1242,1203,681,2025-02-17 10:29:05,5
-13320,-1196,-4220,-1519,1202,1085,2025-02-17 10:29:05,5
-13468,-1544,-3768,-1388,1310,1668,2025-02-17 10:29:05,5
-13500,-1504,-3764,-907,1440,2314,2025-02-17 10:29:05,5
-13200,-1452,-3920,-151,1325,2740,2025-02-17 10:29:05,5
-13384,-1076,-3940,149,922,2919,2025-02-17 10:29:05,5
-13788,-792,-3864,-255,969,3282,2025-02-17 10:29:05,5
-13872,-804,-3976,-736,1250,3902,2025-02-17 10:29:05,5
-14068,-556,-3864,-1366,1695,4920,2025-02-17 10:29:06,5
-13864,-464,-4052,-2056,2408,5969,2025-02-17 10:29:06,5
-13488,-340,-3520,-2204,3106,6459,2025-02-17 10:29:06,5
-12284,-36,-3228,-1458,2704,6084,2025-02-17 10:29:06,5
-12596,392,-4152,-726,1576,5321,2025-02-17 10:29:06,5
-13136,252,-4424,-776,827,5161,2025-02-17 10:29:06,5
-13652,240,-4592,-1221,1137,5748,2025-02-17 10:29:06,5
-13820,140,-4816,-1667,2172,6915,2025-02-17 10:29:06,5
-14924,272,-5660,-2770,3370,9043,2025-02-17 10:29:06,5
-15156,80,-5276,-3567,4650,10989,2025-02-17 10:29:06,5
-13704,208,-4576,-3323,4855,12473,2025-02-17 10:29:06,5
-10344,648,-4824,-2171,4790,11682,2025-02-17 10:29:06,5
-11324,1600,-4888,-599,6795,9625,2025-02-17 10:29:06,5
-10688,1732,-5108,344,10998,8683,2025-02-17 10:29:06,5
-10568,1860,-5852,-342,15994,8088,2025-02-17 10:29:06,5
-11172,324,-8320,-2428,22300,8884,2025-02-17 10:29:06,5
-10524,-1436,-10276,-5685,30219,9188,2025-02-17 10:29:06,5
-8952,-3084,-11576,-9576,32767,8642,2025-02-17 10:29:06,5
-7896,-3100,-11412,-12814,32767,6522,2025-02-17 10:29:06,5
2344,6856,30920,-3540,32767,2944,2025-02-17 10:29:06,5
-7936,1052,-9980,-3751,31256,3809,2025-02-17 10:29:06,5
-8964,-32,-16256,-7704,28292,5385,2025-02-17 10:29:06,5
-7108,84,-15516,-10268,23215,6461,2025-02-17 10:29:06,5
-4588,-1836,-13408,-17512,27118,5882,2025-02-17 10:29:06,5
-1092,-2288,-7060,-19100,29222,2770,2025-02-17 10:29:06,5
1168,-2060,-2796,-16016,28862,-1517,2025-02-17 10:29:06,5
300,-1416,-2788,-12486,26851,-3646,2025-02-17 10:29:06,5
1536,-904,-932,-9672,22904,-4684,2025-02-17 10:29:06,5
1824,-364,-860,-9266,18538,-4654,2025-02-17 10:29:06,5
1636,-276,-460,-12325,16665,-4095,2025-02-17 10:29:06,5
896,80,-3572,-15819,14869,-3391,2025-02-17 10:29:06,5
-1196,-72,-6376,-21954,12639,-759,2025-02-17 10:29:06,5
-1712,340,-8372,-30212,11025,2790,2025-02-17 10:29:06,5
1076,-328,-7932,-32768,8136,4834,2025-02-17 10:29:06,5
2156,-1688,-4276,-32768,4557,4503,2025-02-17 10:29:06,5
1268,-1808,-3080,-32768,2949,4927,2025-02-17 10:29:06,5
1704,-2488,840,-32768,2498,5361,2025-02-17 10:29:06,5
2628,-4576,2864,-32768,2727,4926,2025-02-17 10:29:06,5
2008,-5364,3180,-32768,3537,4078,2025-02-17 10:29:06,5
2408,-4804,3384,-32768,4476,3455,2025-02-17 10:29:06,5
2372,-4528,3548,-32768,5294,2831,2025-02-17 10:29:06,5
2444,-4508,3148,-32768,5786,1993,2025-02-17 10:29:06,5
2392,-4468,3488,-32768,6084,1399,2025-02-17 10:29:06,5
2064,-3672,5016,-32768,6208,971,2025-02-17 10:29:06,5
2976,-820,9572,-32768,6384,617,2025-02-17 10:29:06,5
2204,-384,7992,-32768,7124,79,2025-02-17 10:29:06,5
696,368,10664,-31749,6251,1015,2025-02-17 10:29:06,5
6416,6604,-11912,-32768,-1293,-2107,2025-02-17 10:29:06,5
1924,20584,-32768,-32768,-32768,7583,2025-02-17 10:29:06,5
29996,-32768,32767,-32768,-32768,32767,2025-02-17 10:29:06,5
32767,-32768,32767,-32768,-32768,32767,2025-02-17 10:29:06,5
32767,-32768,32767,18,-32768,-16132,2025-02-17 10:29:06,5
27616,-32768,7124,10378,-32768,-25395,2025-02-17 10:29:06,5
7764,-9100,5208,8586,-32768,-24792,2025-02-17 10:29:06,5
4908,-5128,-96,5697,-32768,-22749,2025-02-17 10:29:06,5
3216,-1196,1656,3221,-32768,-21071,2025-02-17 10:29:06,5
3680,460,1780,2443,-32768,-18955,2025-02-17 10:29:06,5
4056,2460,1216,2044,-32768,-14989,2025-02-17 10:29:06,5
5064,4824,-1336,1990,-30713,-7390,2025-02-17 10:29:06,5
7376,7300,-1388,2403,-17105,1533,2025-02-17 10:29:06,5
12312,8020,-3000,2655,-3841,8535,2025-02-17 10:29:06,5
14468,5864,-1452,2522,9364,12593,2025-02-17 10:29:06,5
16232,2232,732,2034,21595,13660,2025-02-17 10:29:07,5
20364,-2604,1892,1402,27815,12190,2025-02-17 10:29:07,5
21348,-5712,4544,811,32767,8645,2025-02-17 10:29:07,5
22500,-7084,8392,1583,32767,4754,2025-02-17 10:29:07,5
17632,-5224,13028,2700,32767,2668,2025-02-17 10:29:07,5
16548,-2688,14820,1798,32767,2540,2025-02-17 10:29:07,5
14348,-1216,17032,1759,32767,1775,2025-02-17 10:29:07,5
12808,-1156,16776,787,30870,1008,2025-02-17 10:29:07,5
10560,-1680,18152,-783,24246,584,2025-02-17 10:29:07,5
9472,-2176,18904,-1062,16311,60,2025-02-17 10:29:07,5
8244,-2636,20044,-602,5904,-372,2025-02-17 10:29:07,5
8520,-2492,19232,-165,-1981,-97,2025-02-17 10:29:07,5
10360,-2356,17128,-430,-6378,-149,2025-02-17 10:29:07,5
11540,-2624,15772,-472,-8359,-311,2025-02-17 10:29:07,5
12572,-2456,14828,-377,-7713,-355,2025-02-17 10:29:07,5
12968,-2468,14440,-307,-5659,-386,2025-02-17 10:29:07,5
13280,-2580,13636,-201,-2766,-308,2025-02-17 10:29:07,5
13160,-2292,14104,-264,586,-114,2025-02-17 10:29:07,5
12716,-2604,14496,-105,2337,-120,2025-02-17 10:29:07,5
12168,-2420,15360,-100,2718,-97,2025-02-17 10:29:07,5
11804,-2384,15680,-160,2031,-92,2025-02-17 10:29:07,5
11608,-2456,16120,-177,523,-164,2025-02-17 10:29:07,5
11856,-2512,15564,-211,-717,-189,2025-02-17 10:29:07,5
12004,-2512,15040,-242,-1040,-167,2025-02-17 10:29:07,5
12344,-2464,14920,-236,-530,-130,2025-02-17 10:29:07,5
12384,-2468,15000,-221,90,-158,2025-02-17 10:29:07,5
12408,-2564,15084,-173,595,-136,2025-02-17 10:29:07,5
12180,-2520,15192,-147,581,-170,2025-02-17 10:29:07,5
12080,-2504,15352,-172,166,-191,2025-02-17 10:29:07,5
12104,-2508,15240,-201,-88,-184,2025-02-17 10:29:07,5
12260,-2468,15296,-176,-44,-164,2025-02-17 10:29:07,5
12208,-2460,15064,-155,174,-156,2025-02-17 10:29:07,5
12148,-2508,15264,-142,340,-180,2025-02-17 10:29:07,5
12104,-2492,15240,-159,283,-177,2025-02-17 10:29:07,5
12040,-2576,15236,-172,96,-184,2025-02-17 10:29:07,5
12100,-2476,15264,-129,66,-176,2025-02-17 10:29:07,5
12176,-2504,15088,-195,95,-157,2025-02-17 10:29:07,5
12148,-2460,15164,-149,201,-193,2025-02-17 10:29:07,5
12056,-2464,15200,-190,252,-157,2025-02-17 10:29:07,5
11984,-2536,15044,-203,210,-161,2025-02-17 10:29:07,5
12052,-2440,15248,-184,102,-185,2025-02-17 10:29:07,5
12240,-2460,15144,-191,113,-150,2025-02-17 10:29:07,5
12108,-2412,15136,-179,110,-175,2025-02-17 10:29:07,5
12200,-2544,15328,-143,174,-193,2025-02-17 10:29:07,5
12088,-2448,15228,-150,216,-179,2025-02-17 10:29:07,5
12212,-2484,15276,-170,191,-171,2025-02-17 10:29:07,5
12052,-2488,15308,-147,153,-159,2025-02-17 10:29:07,5
12168,-2500,15152,-168,133,-170,2025-02-17 10:29:07,5
12152,-2580,15264,-164,168,-175,2025-02-17 10:29:07,5
12140,-2464,15092,-155,196,-162,2025-02-17 10:29:07,5
12036,-2524,15184,-167,206,-164,2025-02-17 10:29:07,5
12200,-2520,15220,-187,183,-181,2025-02-17 10:29:07,5
12128,-2456,15188,-151,160,-195,2025-02-17 10:29:07,5
12072,-2488,15248,-174,151,-184,2025-02-17 10:29:07,5
12196,-2428,15028,-166,154,-173,2025-02-17 10:29:07,5
12228,-2476,15108,-152,186,-177,2025-02-17 10:29:07,5
12144,-2412,15312,-185,167,-165,2025-02-17 10:29:07,5
12280,-2488,15204,-163,179,-170,2025-02-17 10:29:07,5
12112,-2532,15128,-170,173,-191,2025-02-17 10:29:07,5
12152,-2452,15200,-157,167,-164,2025-02-17 10:29:07,5
12104,-2508,15236,-166,175,-162,2025-02-17 10:29:07,5
12280,-2576,15164,-177,139,-184,2025-02-17 10:29:07,5
12096,-2472,15324,-169,173,-180,2025-02-17 10:29:07,5
12196,-2460,15232,-166,198,-191,2025-02-17 10:29:07,5
12064,-2428,15064,-165,174,-177,2025-02-17 10:29:08,5
12100,-2524,15104,-152,140,-165,2025-02-17 10:29:08,5
12184,-2468,15164,-168,170,-169,2025-02-17 10:29:08,5
12052,-2440,15176,-192,173,-153,2025-02-17 10:29:08,5
12112,-2476,15092,-178,184,-171,2025-02-17 10:29:08,5
12136,-2424,15144,-162,176,-162,2025-02-17 10:29:08,5
12064,-2440,15352,-152,174,-187,2025-02-17 10:29:08,5
12156,-2492,15208,-156,169,-189,2025-02-17 10:29:08,5
12204,-2528,15120,-170,159,-182,2025-02-17 10:29:08,5
12212,-2480,15296,-130,174,-174,2025-02-17 10:29:08,5
12180,-2456,15172,-144,163,-187,2025-02-17 10:29:08,5
12188,-2500,15168,-152,184,-195,2025-02-17 10:29:08,5
12084,-2456,15124,-172,168,-177,2025-02-17 10:29:08,5
12120,-2476,15244,-170,192,-172,2025-02-17 10:29:08,5
12128,-2464,15172,-169,169,-180,2025-02-17 10:29:08,5
12248,-2488,15168,-163,176,-164,2025-02-17 10:29:08,5
12180,-2472,15240,-167,184,-152,2025-02-17 10:29:08,5
12080,-2460,15132,-157,192,-181,2025-02-17 10:29:08,5
12168,-2492,15152,-151,180,-170,2025-02-17 10:29:08,5
12132,-2556,15264,-164,172,-195,2025-02-17 10:29:08,5
12100,-2488,15216,-181,170,-165,2025-02-17 10:29:08,5
12244,-2528,15188,-176,166,-170,2025-02-17 10:29:08,5
12148,-2472,15132,-149,182,-162,2025-02-17 10:29:08,5
12140,-2488,15172,-169,182,-175,2025-02-17 10:29:08,5
12152,-2492,15220,-155,189,-177,2025-02-17 10:29:08,5
12112,-2488,15232,-179,180,-174,2025-02-17 10:29:08,5
12200,-2492,15372,-144,171,-165,2025-02-17 10:29:08,5
12156,-2564,15200,-168,150,-190,2025-02-17 10:29:08,5
12216,-2488,15252,-136,176,-156,2025-02-17 10:29:08,5
12124,-2456,15216,-141,179,-166,2025-02-17 10:29:08,5
12020,-2556,15144,-159,179,-150,2025-02-17 10:29:08,5
12092,-2568,15208,-167,178,-176,2025-02-17 10:29:08,5
12224,-2564,15016,-187,183,-174,2025-02-17 10:29:08,5
12208,-2416,15088,-177,184,-196,2025-02-17 10:29:08,5
12136,-2508,15220,-156,173,-168,2025-02-17 10:29:08,5
12176,-2428,15356,-193,160,-186,2025-02-17 10:29:08,5
12144,-2468,15236,-173,181,-190,2025-02-17 10:29:08,5
12152,-2572,15216,-177,168,-185,2025-02-17 10:29:08,5
12104,-2484,15268,-165,183,-184,2025-02-17 10:29:08,5
12092,-2516,15256,-152,170,-191,2025-02-17 10:29:08,5
12120,-2464,15240,-135,142,-198,2025-02-17 10:29:08,5
12160,-2464,15252,-228,108,-168,2025-02-17 10:29:08,0.0
12224,-2484,15192,-143,173,-184,2025-02-17 10:29:08,0.0
12168,-2448,15180,-185,189,-176,2025-02-17 10:29:08,0.0
12132,-2516,15248,-154,225,-195,2025-02-17 10:29:08,0.0
12096,-2520,15416,-171,145,-160,2025-02-17 10:29:08,0.0
12188,-2480,15228,-161,110,-185,2025-02-17 10:29:08,0.0
12196,-2400,15076,-145,154,-161,2025-02-17 10:29:08,0.0
12292,-2440,15224,-158,209,-160,2025-02-17 10:29:08,0.0
12128,-2388,15260,-185,180,-180,2025-02-17 10:29:08,0.0
12168,-2424,15252,-158,172,-179,2025-02-17 10:29:08,0.0
12264,-2572,15104,-151,144,-173,2025-02-17 10:29:08,0.0
12124,-2460,14980,-169,157,-179,2025-02-17 10:29:08,0.0
12068,-2464,15064,-165,184,-170,2025-02-17 10:29:08,0.0
12136,-2480,15092,-165,204,-196,2025-02-17 10:29:08,0.0
12044,-2488,15080,-152,173,-163,2025-02-17 10:29:08,0.0
12132,-2496,15180,-159,166,-189,2025-02-17 10:29:08,0.0
12144,-2528,15148,-138,159,-173,2025-02-17 10:29:08,0.0
12184,-2484,15228,-190,170,-173,2025-02-17 10:29:08,0.0
12088,-2560,15256,-172,164,-189,2025-02-17 10:29:08,0.0
12092,-2520,15132,-157,187,-177,2025-02-17 10:29:09,0.0
12216,-2500,15248,-163,174,-165,2025-02-17 10:29:09,0.0
12208,-2476,15124,-178,148,-169,2025-02-17 10:29:09,0.0
12180,-2468,15204,-164,145,-179,2025-02-17 10:29:09,0.0
12128,-2492,15308,-181,176,-171,2025-02-17 10:29:09,0.0
12076,-2532,15184,-166,202,-158,2025-02-17 10:29:09,0.0
12184,-2520,15296,-180,175,-192,2025-02-17 10:29:09,0.0
12088,-2564,15112,-149,154,-170,2025-02-17 10:29:09,0.0
12228,-2508,15180,-131,160,-167,2025-02-17 10:29:09,0.0
12156,-2528,15288,-165,168,-192,2025-02-17 10:29:09,0.0
12196,-2484,15172,-165,144,-183,2025-02-17 10:29:09,0.0
12132,-2436,15256,-168,167,-171,2025-02-17 10:29:09,0.0
12188,-2492,15188,-154,176,-191,2025-02-17 10:29:09,0.0
12148,-2448,15056,-174,177,-181,2025-02-17 10:29:09,0.0
12148,-2532,15196,-175,188,-159,2025-02-17 10:29:09,0.0
12080,-2468,15252,-165,181,-166,2025-02-17 10:29:09,0.0
12168,-2384,15220,-184,149,-172,2025-02-17 10:29:09,0.0
12160,-2528,15216,-169,168,-162,2025-02-17 10:29:09,0.0
12236,-2476,15212,-175,183,-190,2025-02-17 10:29:09,0.0
12064,-2612,15276,-153,183,-187,2025-02-17 10:29:09,0.0
12140,-2516,15100,-152,158,-158,2025-02-17 10:29:09,0.0
12184,-2428,15200,-168,173,-168,2025-02-17 10:29:09,0.0
12136,-2480,15196,-156,178,-177,2025-02-17 10:29:09,0.0
12112,-2564,15208,-180,185,-164,2025-02-17 10:29:09,0.0
12120,-2532,15164,-151,185,-173,2025-02-17 10:29:09,0.0
12176,-2548,15216,-170,154,-169,2025-02-17 10:29:09,0.0
12300,-2512,15296,-121,175,-179,2025-02-17 10:29:09,0.0
12100,-2488,15224,-152,182,-173,2025-02-17 10:29:09,0.0
12140,-2516,15060,-154,186,-169,2025-02-17 10:29:09,0.0
12216,-2492,15168,-169,184,-184,2025-02-17 10:29:09,0.0
12124,-2536,15124,-152,195,-159,2025-02-17 10:29:09,0.0
12188,-2424,15188,-164,159,-180,2025-02-17 10:29:09,0.0
12180,-2456,15164,-171,176,-179,2025-02-17 10:29:09,0.0
12216,-2496,15184,-162,165,-188,2025-02-17 10:29:09,0.0
12084,-2404,15256,-189,175,-193,2025-02-17 10:29:09,0.0
12140,-2508,15172,-182,172,-168,2025-02-17 10:29:09,0.0
12180,-2520,15220,-148,186,-168,2025-02-17 10:29:09,0.0
12104,-2568,15112,-174,179,-172,2025-02-17 10:29:09,0.0
12156,-2460,15196,-151,180,-175,2025-02-17 10:29:09,0.0
12156,-2504,15200,-169,151,-176,2025-02-17 10:29:09,0.0
12120,-2484,15248,-184,185,-163,2025-02-17 10:29:09,0.0
12140,-2488,15248,-171,148,-171,2025-02-17 10:29:09,0.0
12296,-2492,15044,-176,177,-167,2025-02-17 10:29:09,0.0
12124,-2468,15088,-175,179,-171,2025-02-17 10:29:09,0.0
12376,-2560,15052,-85,30,-221,2025-02-17 10:29:09,0.0
12108,-2492,15008,-182,493,-171,2025-02-17 10:29:09,0.0
12100,-2608,15260,-172,363,-147,2025-02-17 10:29:10,0.0
12068,-2428,15308,-145,58,-192,2025-02-17 10:29:10,0.0
12180,-2492,14956,-196,48,-177,2025-02-17 10:29:10,0.0
12304,-2608,15316,-155,206,-168,2025-02-17 10:29:10,0.0
12140,-2444,15372,-107,241,-202,2025-02-17 10:29:10,0.0
12172,-2480,15132,-179,197,-183,2025-02-17 10:29:10,0.0
12172,-2532,15268,-183,195,-177,2025-02-17 10:29:10,0.0
12188,-2532,15252,-159,125,-188,2025-02-17 10:29:10,0.0
12040,-2436,14940,-163,152,-182,2025-02-17 10:29:10,0.0
12200,-2536,15240,-190,170,-188,2025-02-17 10:29:10,0.0
12232,-2444,15372,-133,210,-184,2025-02-17 10:29:10,0.0
12172,-2452,15100,-157,207,-169,2025-02-17 10:29:10,0.0
12068,-2540,15248,-168,155,-180,2025-02-17 10:29:10,
12052,-2584,15112,-159,132,-168,2025-02-17 10:29:10,0.0
12116,-2480,15128,-146,175,-188,2025-02-17 10:29:10,0.0
12144,-2424,15236,-162,196,-176,2025-02-17 10:29:10,0.0
12076,-2552,15132,-173,150,-169,2025-02-17 10:29:10,0.0
12120,-2448,15228,-148,167,-204,2025-02-17 10:29:10,0.0
12176,-2444,15116,-158,159,-174,2025-02-17 10:29:10,0.0
12192,-2556,15204,-154,192,-171,2025-02-17 10:29:10,0.0
12152,-2476,15016,-140,198,-183,2025-02-17 10:29:10,0.0
12168,-2460,15132,-155,150,-139,2025-02-17 10:29:10,0.0
12204,-2468,15268,-148,135,-185,2025-02-17 10:29:10,0.0
12156,-2388,15172,-191,156,-187,2025-02-17 10:29:10,0.0
12064,-2480,15080,-159,207,-183,2025-02-17 10:29:10,0.0
12196,-2420,15104,-174,206,-170,2025-02-17 10:29:10,0.0
12116,-2488,15288,-176,198,-185,2025-02-17 10:29:10,0.0
12076,-2440,15144,-179,223,-155,2025-02-17 10:29:10,0.0
12240,-2636,15308,-158,120,-187,2025-02-17 10:29:10,0.0
12124,-2484,15252,-139,141,-171,2025-02-17 10:29:10,0.0
12108,-2484,15032,-189,96,-169,2025-02-17 10:29:10,0.0
12376,-2480,15172,-165,232,-162,2025-02-17 10:29:10,0.0
12188,-2512,15136,-185,286,-180,2025-02-17 10:29:10,0.0
12124,-2540,15084,-192,199,-162,2025-02-17 10:29:10,0.0
12144,-2416,15168,-167,213,-169,2025-02-17 10:29:10,0.0
12084,-2544,15224,-191,180,-159,2025-02-17 10:29:10,0.0
12160,-2464,15128,-166,140,-165,2025-02-17 10:29:10,0.0
12124,-2444,15228,-164,168,-173,2025-02-17 10:29:10,0.0
12088,-2500,15216,-193,149,-165,2025-02-17 10:29:10,0.0
12212,-2532,15232,-122,197,-204,2025-02-17 10:29:10,0.0
12056,-2468,15124,-160,267,-146,2025-02-17 10:29:10,0.0
12104,-2572,15288,-149,170,-163,2025-02-17 10:29:10,0.0
12076,-2392,15188,-178,78,-206,2025-02-17 10:29:10,0.0
12268,-2536,15136,-148,66,-184,2025-02-17 10:29:10,0.0
12260,-2488,15132,-152,229,-195,2025-02-17 10:29:10,0.0
12220,-2528,15224,-189,331,-240,2025-02-17 10:29:10,0.0
12164,-2568,15464,-27,553,-247,2025-02-17 10:29:10,0.0
12160,-2636,15620,190,721,-234,2025-02-17 10:29:10,0.0
12112,-2644,15280,247,601,-307,2025-02-17 10:29:10,0.0
12076,-2316,15432,167,343,-530,2025-02-17 10:29:10,0.0
12156,-2228,14840,159,393,-371,2025-02-17 10:29:10,0.0
12040,-2360,14936,-3,798,-208,2025-02-17 10:29:10,0.0
12424,-2640,15392,13,1307,-353,2025-02-17 10:29:10,0.0
12492,-2716,15732,427,1615,-689,2025-02-17 10:29:10,0.0
13364,-2684,15944,762,1755,-1366,2025-02-17 10:29:10,0.0
13568,-2728,16396,1454,2451,-1988,2025-02-17 10:29:10,0.0
14168,-3092,17272,2617,3490,-3094,2025-02-17 10:29:10,0.0
13848,-2940,16736,3492,4179,-3931,2025-02-17 10:29:10,0.0
15260,-2944,18084,4763,4579,-5439,2025-02-17 10:29:10,0.0
14016,-2228,20152,7330,4959,-7341,2025-02-17 10:29:10,0.0
15216,-2428,20884,10072,5691,-9470,2025-02-17 10:29:10,0.0
15424,-2416,22980,12684,5378,-11382,2025-02-17 10:29:10,0.0
17008,-2052,22160,15701,4191,-13526,2025-02-17 10:29:10,0.0
17836,-1432,24244,18594,1511,-15968,2025-02-17 10:29:10,0.0
19596,-2676,22640,21227,-3697,-20265,2025-02-17 10:29:10,0.0
15148,-136,19028,22711,-8227,-24179,2025-02-17 10:29:11,0.0
12108,-256,15688,22460,-9390,-25663,2025-02-17 10:29:11,0.0
11168,212,12700,21643,-7931,-26842,2025-02-17 10:29:11,0.0
9668,1464,12656,20680,-7327,-26726,2025-02-17 10:29:11,0.0
9120,2996,12640,20040,-7076,-26255,2025-02-17 10:29:11,0.0
9292,3868,12380,19723,-7121,-26031,2025-02-17 10:29:11,0.0
9040,4920,13500,19876,-8219,-26131,2025-02-17 10:29:11,0.0
9944,5740,13228,20289,-10678,-26996,2025-02-17 10:29:11,0.0
9008,6668,13888,20479,-13243,-28088,2025-02-17 10:29:11,0.0
8560,7576,13776,20771,-16328,-28787,2025-02-17 10:29:11,0.0
2912,10880,9412,21606,-28961,-27889,2025-02-17 10:29:11,0.0
1480,12064,7572,19554,-31222,-25719,2025-02-17 10:29:11,0.0
-628,13300,5760,17045,-32358,-22535,2025-02-17 10:29:11,0.0
-2464,14392,3764,14400,-32029,-18563,2025-02-17 10:29:11,0.0
-4604,15508,1756,10598,-29969,-13178,2025-02-17 10:29:11,0.0
-5280,16532,-52,6051,-26286,-6913,2025-02-17 10:29:11,0.0
-5080,17424,-512,2279,-21393,-661,2025-02-17 10:29:11,0.0
-3280,17644,-920,-8,-15770,4208,2025-02-17 10:29:11,0.0
-1104,17672,-872,-1838,-9631,7042,2025-02-17 10:29:11,0.0
2860,17560,-1180,-3650,-4592,7318,2025-02-17 10:29:11,0.0
4996,17876,-460,-5245,-226,4968,2025-02-17 10:29:11,0.0
7340,18244,488,-6425,3497,901,2025-02-17 10:29:11,0.0
8732,18984,1552,-6756,6504,-4355,2025-02-17 10:29:11,0.0
9268,19596,2828,-5939,8992,-9989,2025-02-17 10:29:11,0.0
3568,21472,5268,3010,16509,-20262,2025-02-17 10:29:11,0.0
68,22136,4608,7044,20459,-18949,2025-02-17 10:29:11,0.0
-2548,22556,2996,9927,24953,-14827,2025-02-17 10:29:11,0.0
-3568,22680,1024,11048,29520,-9301,2025-02-17 10:29:11,0.0
-3576,22592,-584,10218,32767,-3753,2025-02-17 10:29:11,0.0
-2164,22240,-2164,7679,32767,712,2025-02-17 10:29:11,0.0
-268,21852,-2184,4050,32767,3552,2025-02-17 10:29:11,0.0
1656,21640,-1868,245,32767,4527,2025-02-17 10:29:11,0.0
5212,22216,3576,-4137,32767,-3235,2025-02-17 10:29:11,0.0
3564,22120,5432,-1225,32767,-6046,2025-02-17 10:29:11,0.0
1584,22512,6340,2707,32767,-7126,2025-02-17 10:29:11,0.0
-412,22504,6156,6689,32767,-5883,2025-02-17 10:29:11,0.0
-1592,21480,4060,8988,32767,-2699,2025-02-17 10:29:11,0.0
-2372,19384,2668,9727,32767,2315,2025-02-17 10:29:11,0.0
-720,20312,172,8956,32767,7017,2025-02-17 10:29:11,0.0
2632,19596,-1508,5187,32767,8294,2025-02-17 10:29:11,0.0
5840,16744,-2280,376,32767,5326,2025-02-17 10:29:11,0.0
6060,16096,-2280,-6348,32767,-825,2025-02-17 10:29:11,0.0
3848,17824,2060,-8505,32767,-5169,2025-02-17 10:29:11,0.0
1188,17036,3212,-7688,32767,-6169,2025-02-17 10:29:11,0.0
-860,18444,5104,-4797,32767,-4709,2025-02-17 10:29:11,0.0
-1752,17740,4532,-3095,32767,-2220,2025-02-17 10:29:11,0.0
-2744,17704,4280,-1507,32767,1553,2025-02-17 10:29:11,0.0
-1960,16644,3388,-1133,32767,4500,2025-02-17 10:29:11,
-1048,15088,2268,-1751,32767,6584,2025-02-17 10:29:11,0.0
444,13828,2140,-2529,32767,7541,2025-02-17 10:29:11,0.0
2072,12980,1980,-3154,32767,7115,2025-02-17 10:29:11,0.0
3292,12412,1528,-4444,32767,5191,2025-02-17 10:29:11,0.0
4408,11596,1016,-5587,32767,3355,2025-02-17 10:29:11,0.0
5376,10520,728,-6909,32767,674,2025-02-17 10:29:11,0.0
6020,10148,1260,-8343,32767,-3424,2025-02-17 10:29:11,0.0
6032,9608,2020,-8256,32767,-6776,2025-02-17 10:29:11,0.0
5776,9456,2776,-7063,32316,-9985,2025-02-17 10:29:12,0.0
5440,9928,2836,-5432,27909,-13008,2025-02-17 10:29:12,0.0
4492,10296,3232,-3667,24221,-14832,2025-02-17 10:29:12,0.0
3520,10480,3140,-2025,21075,-15539,2025-02-17 10:29:12,0.0
2528,10564,3208,-687,18403,-15374,2025-02-17 10:29:12,0.0
1912,10412,2940,620,15821,-14488,2025-02-17 10:29:12,0.0
840,10276,2792,1739,13276,-12894,2025-02-17 10:29:12,0.0
328,9968,2308,2566,10449,-10646,2025-02-17 10:29:12,0.0
-28,9816,1068,2760,7776,-7959,2025-02-17 10:29:12,0.0
276,10208,-292,1613,4686,-4183,2025-02-17 10:29:12,0.0
808,10912,-1260,-679,2521,-1897,2025-02-17 10:29:12,0.0
1120,11836,-408,-2994,212,-155,2025-02-17 10:29:12,0.0
964,12228,-296,-4813,-2225,1216,2025-02-17 10:29:12,0.0
860,11852,-184,-6533,-4426,2661,2025-02-17 10:29:12,0.0
1208,11564,212,-8314,-6058,3979,2025-02-17 10:29:12,0.0
572,11040,88,-10387,-6600,4110,2025-02-17 10:29:12,0.0
-208,10972,812,-13022,-6542,5770,2025-02-17 10:29:12,0.0
1656,11584,1988,-15160,-5657,5330,2025-02-17 10:29:12,0.0
2524,11732,2724,-16746,-3799,1664,2025-02-17 10:29:12,0.0
-6184,11540,7104,-18341,6379,-1462,2025-02-17 10:29:12,0.0
-7800,10188,7640,-18443,10697,5132,2025-02-17 10:29:12,0.0
-7428,8720,8024,-19672,14558,10447,2025-02-17 10:29:12,0.0
-5168,7760,8412,-21627,17585,12480,2025-02-17 10:29:12,0.0
-3688,7932,9868,-23769,18203,12167,2025-02-17 10:29:12,0.0
-3840,8956,12256,-23872,16705,11044,2025-02-17 10:29:12,0.0
-2412,10108,14744,-21179,10251,13857,2025-02-17 10:29:12,0.0
-592,8296,14112,-19307,3166,13908,2025-02-17 10:29:12,0.0
932,6556,13160,-19459,-2994,11356,2025-02-17 10:29:12,0.0
400,6392,14008,-19277,-7544,9547,2025-02-17 10:29:12,0.0
372,6652,14936,-17571,-10073,9146,2025-02-17 10:29:12,0.0
1116,6988,14852,-15260,-12074,8719,2025-02-17 10:29:12,0.0
1500,7940,14512,-14950,-12586,8742,2025-02-17 10:29:12,0.0
1548,8340,15204,-14974,-10666,9190,2025-02-17 10:29:12,0.0
2176,8132,15184,-14597,-7186,10075,2025-02-17 10:29:12,0.0
3584,7632,15120,-14056,-3899,10203,2025-02-17 10:29:12,0.0
3492,7004,14468,-14319,-719,9971,2025-02-17 10:29:12,0.0
2780,6352,14404,-15513,3011,10986,2025-02-17 10:29:12,0.0
4036,6176,14964,-16597,6830,12266,2025-02-17 10:29:12,0.0
5824,6124,16072,-16762,9714,11290,2025-02-17 10:29:12,0.0
6596,5576,15772,-16902,11875,8589,2025-02-17 10:29:12,0.0
6712,5772,17112,-16137,14637,4099,2025-02-17 10:29:12,0.0
3940,5364,17344,-15739,16416,1877,2025-02-17 10:29:12,0.0
2376,4988,16268,-16285,18739,1068,2025-02-17 10:29:12,0.0
232,4484,18308,-17433,21074,1728,2025-02-17 10:29:12,0.0
-736,4860,18920,-16637,22510,2196,2025-02-17 10:29:12,0.0
-1008,3940,19292,-15793,23925,786,2025-02-17 10:29:12,0.0
-1220,2220,16896,-17225,25243,-2792,2025-02-17 10:29:12,0.0
-5276,3316,20572,-16349,25472,-4166,2025-02-17 10:29:12,0.0
-8212,3156,21024,-13420,23651,-928,2025-02-17 10:29:12,0.0
-9256,2016,19780,-11904,20327,3379,2025-02-17 10:29:12,0.0
-8640,1892,18792,-12677,15380,7117,2025-02-17 10:29:12,0.0
-6848,2008,19184,-13298,7352,10530,2025-02-17 10:29:12,0.0
-2964,2660,21360,-11036,-6705,11291,2025-02-17 10:29:12,0.0
-864,1460,21104,-5216,-17049,9557,2025-02-17 10:29:12,0.0
-360,20,18820,-1311,-22435,7831,2025-02-17 10:29:12,0.0
-308,796,16500,17,-23265,6666,2025-02-17 10:29:12,0.0
-360,2012,14624,9,-19358,6566,2025-02-17 10:29:12,0.0
172,3004,12876,-2085,-12616,7348,2025-02-17 10:29:12,0.0
1532,3024,12572,-4047,-2305,7132,2025-02-17 10:29:12,0.0
2072,1228,12192,-5423,9673,5634,2025-02-17 10:29:13,0.0
-3220,-692,14744,-8338,32767,-3987,2025-02-17 10:29:13,0.0
-6752,-2028,15780,-9653,32767,-4481,2025-02-17 10:29:13,0.0
-10260,-3316,16784,-9758,32767,-4404,2025-02-17 10:29:13,0.0
-13760,-3760,17332,-8784,32767,-3085,2025-02-17 10:29:13,0.0
-15168,-3616,17512,-6920,32767,-808,2025-02-17 10:29:13,0.0
-15800,-3280,16112,-4513,32556,755,2025-02-17 10:29:13,0.0
-17104,-3204,14004,-3152,22872,2663,2025-02-17 10:29:13,0.0
-16348,-3828,11620,-3766,13526,4328,2025-02-17 10:29:13,0.0
-15468,-3964,10364,-6168,4358,5747,2025-02-17 10:29:13,0.0
-14308,-3156,10728,-8182,-4007,6867,2025-02-17 10:29:13,0.0
-13156,-2472,12024,-8190,-9233,7817,2025-02-17 10:29:13,0.0
-9944,-2728,13184,-5331,-13132,6123,2025-02-17 10:29:13,0.0
-10728,-1812,13120,-3974,-11581,4877,2025-02-17 10:29:13,0.0
-10576,-1160,13964,-4421,-3181,5336,2025-02-17 10:29:13,0.0
-2736,-924,21464,-4108,6502,4138,2025-02-17 10:29:13,0.0
-980,-3020,20476,-427,8517,-374,2025-02-17 10:29:13,0.0
-7704,-2896,15696,3789,6910,-3187,2025-02-17 10:29:13,0.0
-13424,-672,10948,6403,6169,-2812,2025-02-17 10:29:13,0.0
-15544,-104,6884,6355,6682,-15,2025-02-17 10:29:13,0.0
-15976,48,4172,3570,6618,2756,2025-02-17 10:29:13,0.0
-13700,-1192,2188,-1840,4667,3453,2025-02-17 10:29:13,0.0
-11396,-2096,3256,-8725,-645,1523,2025-02-17 10:29:13,0.0
-10920,152,8292,-11475,-4274,-359,2025-02-17 10:29:13,0.0
-8636,1984,16084,-8730,-889,-681,2025-02-17 10:29:13,0.0
-9200,-616,16960,-3125,3198,-373,2025-02-17 10:29:13,0.0
-9312,-2896,14580,716,6042,-614,2025-02-17 10:29:13,0.0
