acceleration_x,acceleration_y,acceleration_z,gyroscope_x,gyroscope_y,gyroscope_z,timestamp,label
-88.39999999999964,34.799999999999955,56.80000000000018,-16.400000000000006,-3.9000000000000057,1.0,2025-01-29 11:52:18,1
23.600000000000364,-13.200000000000044,16.800000000000182,-12.400000000000006,-36.900000000000006,8.0,2025-01-29 11:52:18,1
19.600000000000364,22.799999999999955,-67.19999999999982,-12.400000000000006,-25.90000000000001,14.0,2025-01-29 11:52:18,1
-0.3999999999996362,-9.200000000000044,16.800000000000182,13.599999999999994,-21.90000000000001,-15.0,2025-01-29 11:52:18,1
-44.39999999999964,-17.200000000000045,24.800000000000185,35.599999999999994,5.099999999999994,11.0,2025-01-29 11:52:18,1
-24.39999999999964,-53.200000000000045,4.800000000000182,43.6,-3.9000000000000057,14.0,2025-01-29 11:52:18,1
-92.39999999999964,-49.200000000000045,36.80000000000018,28.599999999999994,5.099999999999994,11.0,2025-01-29 11:52:18,1
43.60000000000037,-33.200000000000045,-55.19999999999982,-10.400000000000006,23.099999999999994,-3.0,2025-01-29 11:52:18,1
99.60000000000036,66.79999999999995,-199.19999999999985,-29.40000000000001,36.1,-26.0,2025-01-29 11:52:18,1
63.60000000000037,50.79999999999996,164.80000000000018,-40.400000000000006,23.099999999999994,-15.0,2025-01-29 11:52:18,1
-56.39999999999964,-1.2000000000000457,-83.19999999999982,-48.400000000000006,-2.9000000000000057,-28.0,2025-01-29 11:52:18,1
11.600000000000364,46.79999999999996,40.80000000000018,-79.4,52.1,-57.0,2025-01-29 11:52:18,1
55.60000000000037,-17.200000000000045,192.80000000000015,-68.4,157.1,-30.0,2025-01-29 11:52:19,1
-28.39999999999964,-49.200000000000045,60.80000000000018,-28.40000000000001,16.099999999999994,-51.0,2025-01-29 11:52:19,1
83.60000000000036,-217.20000000000005,-71.19999999999982,-23.40000000000001,-50.900000000000006,-20.0,2025-01-29 11:52:19,1
95.60000000000036,-205.20000000000005,20.800000000000185,54.6,35.099999999999994,-11.0,2025-01-29 11:52:19,1
3.600000000000364,-149.20000000000005,16.800000000000182,105.6,82.1,25.0,2025-01-29 11:52:19,1
-108.39999999999964,-101.20000000000005,108.80000000000018,154.6,104.1,41.0,2025-01-29 11:52:19,1
-212.39999999999964,122.79999999999995,120.80000000000018,182.6,65.1,61.0,2025-01-29 11:52:19,1
-40.39999999999964,-21.200000000000045,68.80000000000018,166.6,1.0999999999999943,67.0,2025-01-29 11:52:19,1
-76.39999999999964,86.79999999999995,-31.199999999999815,188.6,-31.90000000000001,71.0,2025-01-29 11:52:19,1
-52.39999999999964,6.7999999999999545,-67.19999999999982,188.6,8.099999999999994,96.0,2025-01-29 11:52:19,1
-68.39999999999964,46.79999999999996,-55.19999999999982,168.6,-51.900000000000006,75.0,2025-01-29 11:52:19,1
-20.39999999999964,98.79999999999995,-23.199999999999815,144.6,-137.9,67.0,2025-01-29 11:52:19,1
75.60000000000036,98.79999999999995,44.80000000000018,79.6,-96.9,52.0,2025-01-29 11:52:19,1
7.600000000000364,30.799999999999955,56.80000000000018,96.6,-46.900000000000006,48.0,2025-01-29 11:52:19,1
167.60000000000036,66.79999999999995,120.80000000000018,71.6,5.099999999999994,27.0,2025-01-29 11:52:19,1
107.60000000000036,170.79999999999995,68.80000000000018,46.6,62.1,-9.0,2025-01-29 11:52:19,1
87.60000000000036,-1.2000000000000457,112.80000000000018,36.6,150.1,-10.0,2025-01-29 11:52:19,1
-32.39999999999964,-57.200000000000045,96.80000000000018,75.6,157.1,25.0,2025-01-29 11:52:19,1
115.60000000000036,-105.20000000000005,72.80000000000018,114.6,135.1,20.0,2025-01-29 11:52:19,1
-76.39999999999964,-109.20000000000005,4.800000000000182,129.6,141.1,18.0,2025-01-29 11:52:19,1
-20.39999999999964,22.799999999999955,48.80000000000018,136.6,147.1,-7.0,2025-01-29 11:52:19,1
-64.39999999999964,-1.2000000000000457,-3.199999999999818,114.6,188.1,-16.0,2025-01-29 11:52:19,1
-52.39999999999964,-121.20000000000005,164.80000000000018,175.6,158.1,-29.0,2025-01-29 11:52:19,1
-204.39999999999964,-73.20000000000005,112.80000000000018,156.6,106.1,-6.0,2025-01-29 11:52:19,1
-40.39999999999964,-41.200000000000045,44.80000000000018,174.6,59.1,-6.0,2025-01-29 11:52:19,1
-148.39999999999964,-17.200000000000045,96.80000000000018,162.6,34.099999999999994,-3.0,2025-01-29 11:52:19,1
-192.39999999999964,-41.200000000000045,120.80000000000018,114.6,49.1,-11.0,2025-01-29 11:52:19,1
-40.39999999999964,10.799999999999956,0.8000000000001819,125.6,75.1,-16.0,2025-01-29 11:52:19,1
-92.39999999999964,-77.20000000000005,192.80000000000015,36.6,100.1,13.0,2025-01-29 11:52:19,1
-80.39999999999964,-17.200000000000045,-87.19999999999982,30.599999999999994,117.1,35.0,2025-01-29 11:52:19,1
-76.39999999999964,-45.200000000000045,12.800000000000182,-11.400000000000006,49.1,27.0,2025-01-29 11:52:19,1
3.600000000000364,22.799999999999955,-7.199999999999818,-21.40000000000001,48.1,-10.0,2025-01-29 11:52:19,1
15.600000000000364,14.799999999999956,64.80000000000018,-15.400000000000006,2.0999999999999943,47.0,2025-01-29 11:52:19,1
87.60000000000036,-45.200000000000045,24.800000000000185,-44.400000000000006,58.1,33.0,2025-01-29 11:52:19,1
7.600000000000364,-61.200000000000045,200.80000000000015,4.599999999999994,93.1,61.0,2025-01-29 11:52:19,1
-60.39999999999964,-25.200000000000045,112.80000000000018,2.5999999999999943,162.1,87.0,2025-01-29 11:52:19,1
-136.39999999999964,-161.20000000000005,-11.199999999999818,-2.4000000000000057,207.1,96.0,2025-01-29 11:52:19,1
-148.39999999999964,-185.20000000000005,72.80000000000018,60.6,163.1,124.0,2025-01-29 11:52:19,1
-96.39999999999964,-49.200000000000045,32.80000000000018,52.6,80.1,109.0,2025-01-29 11:52:19,1
-44.39999999999964,34.799999999999955,12.800000000000182,74.6,1.0999999999999943,145.0,2025-01-29 11:52:19,1
-60.39999999999964,18.799999999999955,48.80000000000018,114.6,3.0999999999999943,120.0,2025-01-29 11:52:19,1
39.60000000000037,54.79999999999996,32.80000000000018,156.6,27.099999999999994,126.0,2025-01-29 11:52:19,1
19.600000000000364,82.79999999999995,32.80000000000018,216.6,30.099999999999994,137.0,2025-01-29 11:52:19,1
47.60000000000037,-17.200000000000045,-39.19999999999982,196.6,99.1,105.0,2025-01-29 11:52:19,1
19.600000000000364,-89.20000000000005,-131.19999999999982,260.6,156.1,82.0,2025-01-29 11:52:19,1
11.600000000000364,-173.20000000000005,44.80000000000018,315.6,174.1,111.0,2025-01-29 11:52:19,1
55.60000000000037,-13.200000000000044,-83.19999999999982,411.6,147.1,140.0,2025-01-29 11:52:19,1
-8.399999999999636,-89.20000000000005,-55.19999999999982,388.6,146.1,127.0,2025-01-29 11:52:19,1
107.60000000000036,18.799999999999955,-59.19999999999982,438.6,152.1,179.0,2025-01-29 11:52:19,1
127.60000000000036,10.799999999999956,-83.19999999999982,418.6,247.1,193.0,2025-01-29 11:52:19,1
103.60000000000036,-149.20000000000005,-87.19999999999982,446.6,339.1,175.0,2025-01-29 11:52:19,1
-44.39999999999964,-89.20000000000005,140.80000000000018,512.6,308.1,215.0,2025-01-29 11:52:19,1
-128.39999999999964,-105.20000000000005,64.80000000000018,561.6,303.1,233.0,2025-01-29 11:52:19,1
-128.39999999999964,150.79999999999995,-83.19999999999982,523.6,268.1,278.0,2025-01-29 11:52:19,1
-216.39999999999964,262.79999999999995,216.80000000000015,537.6,289.1,331.0,2025-01-29 11:52:19,1
-260.39999999999964,342.79999999999995,-95.19999999999982,516.6,286.1,370.0,2025-01-29 11:52:19,1
-192.39999999999964,246.79999999999995,-495.1999999999998,469.6,154.1,485.0,2025-01-29 11:52:19,1
-456.3999999999997,222.79999999999995,-631.1999999999998,404.6,18.099999999999994,494.0,2025-01-29 11:52:19,1
-572.3999999999996,258.79999999999995,-323.1999999999998,395.6,-161.9,506.0,2025-01-29 11:52:19,1
-524.3999999999996,214.79999999999995,232.80000000000015,506.6,-495.9,503.0,2025-01-29 11:52:19,1
-308.39999999999964,326.79999999999995,552.8000000000002,759.6,-1263.9,360.0,2025-01-29 11:52:20,1
231.6000000000004,410.8,520.8000000000002,1037.6,-1838.9,170.0,2025-01-29 11:52:20,1
119.60000000000036,434.8,592.8000000000002,1430.6,-1853.9,117.0,2025-01-29 11:52:20,1
-360.3999999999997,666.8,920.8000000000002,1696.6,-1081.9,332.0,2025-01-29 11:52:20,1
-672.3999999999996,1242.8,1120.8000000000002,1770.6,-465.9,675.0,2025-01-29 11:52:20,1
-1020.3999999999996,1858.8,1168.8000000000002,1739.6,-585.9,871.0,2025-01-29 11:52:20,1
-1432.3999999999996,2114.8,1124.8000000000002,1451.6,-1114.9,1111.0,2025-01-29 11:52:20,1
-564.3999999999996,1862.8,1820.8,1618.6,-1787.9,1022.0,2025-01-29 11:52:20,1
159.60000000000036,1590.8,2884.8,2284.6,-2556.9,586.0,2025-01-29 11:52:20,1
591.6000000000004,626.8,2800.8,3236.6,-2984.9,186.0,2025-01-29 11:52:20,1
715.6000000000004,-697.2,2640.8,4285.6,-2428.9,149.0,2025-01-29 11:52:20,1
931.6000000000004,-1977.2,1892.8,5766.6,-1055.9,344.0,2025-01-29 11:52:20,1
591.6000000000004,-1897.2,1160.8000000000002,6843.6,-443.9,466.0,2025-01-29 11:52:20,1
527.6000000000004,-1077.2,-431.1999999999998,7158.6,-544.9,433.0,2025-01-29 11:52:20,1
143.60000000000036,-309.20000000000005,-867.1999999999998,6866.6,-432.9,350.0,2025-01-29 11:52:20,1
-576.3999999999996,278.79999999999995,-831.1999999999998,6428.6,448.1,576.0,2025-01-29 11:52:20,1
-592.3999999999996,1942.8,-1295.1999999999998,5943.6,1406.1,599.0,2025-01-29 11:52:20,1
-1108.3999999999996,3386.8,-1675.1999999999998,4868.6,1665.1,132.0,2025-01-29 11:52:20,1
-1032.3999999999996,2934.8,-339.1999999999998,3376.6,1208.1,-754.0,2025-01-29 11:52:20,1
-964.3999999999996,1850.8,1416.8000000000002,2491.6,-259.9,-1451.0,2025-01-29 11:52:20,1
-624.3999999999996,-41.200000000000045,1944.8,2068.6,-1581.9,-2203.0,2025-01-29 11:52:20,1
-464.3999999999997,-1745.2,1952.8,1476.6,-1831.9,-2618.0,2025-01-29 11:52:20,1
-472.3999999999997,-2569.2,2992.8,1104.6,-575.9,-2420.0,2025-01-29 11:52:20,1
339.6000000000004,-2321.2,3272.8,1034.6,781.1,-2173.0,2025-01-29 11:52:20,1
731.6000000000004,-1957.2,2880.8,778.6,1561.1,-1949.0,2025-01-29 11:52:20,1
835.6000000000004,-2241.2,2584.8,362.6,2060.1,-1704.0,2025-01-29 11:52:20,1
915.6000000000004,-2541.2,2172.8,14.599999999999994,2917.1,-1690.0,2025-01-29 11:52:20,1
27.600000000000364,-2825.2,2572.8,-147.4,3931.1,-1698.0,2025-01-29 11:52:20,1
-608.3999999999996,-3061.2,2412.8,31.599999999999994,4056.1,-1844.0,2025-01-29 11:52:20,1
-1048.3999999999996,-3125.2,2220.8,243.6,3043.1,-1864.0,2025-01-29 11:52:20,1
-1316.3999999999996,-3189.2,2196.8,503.6,1340.1,-1591.0,2025-01-29 11:52:20,1
-1140.3999999999996,-3109.2,2448.8,622.6,60.1,-1300.0,2025-01-29 11:52:20,1
-124.39999999999964,-2861.2,2516.8,673.6,-587.9,-1136.0,2025-01-29 11:52:20,1
495.6000000000004,-2545.2,2384.8,494.6,-502.9,-1076.0,2025-01-29 11:52:20,1
579.6000000000004,-2309.2,2400.8,69.6,183.1,-959.0,2025-01-29 11:52:20,1
323.6000000000004,-2461.2,2792.8,-376.4,804.1,-820.0,2025-01-29 11:52:20,1
-268.39999999999964,-2373.2,2588.8,-845.4,780.1,-709.0,2025-01-29 11:52:20,1
-932.3999999999996,-1909.2,2344.8,-1245.4,372.1,-453.0,2025-01-29 11:52:20,1
-948.3999999999996,-1613.2,2176.8,-1530.4,-67.9,-174.0,2025-01-29 11:52:20,1
-720.3999999999996,-2013.2,2364.8,-1689.4,-447.9,-220.0,2025-01-29 11:52:20,1
-560.3999999999996,-2413.2,2160.8,-1832.4,-581.9,-499.0,2025-01-29 11:52:20,1
-632.3999999999996,-2917.2,2108.8,-1893.4,-486.9,-781.0,2025-01-29 11:52:20,1
-748.3999999999996,-3429.2,1876.8,-1829.4,-98.9,-991.0,2025-01-29 11:52:20,1
-1160.3999999999996,-3769.2,1732.8000000000002,-1767.4,685.1,-1230.0,2025-01-29 11:52:20,1
-1432.3999999999996,-3201.2,2488.8,-1821.4,835.1,-1370.0,2025-01-29 11:52:20,1
-1340.3999999999996,-2725.2,3236.8,-1879.4,684.1,-1538.0,2025-01-29 11:52:20,1
-1404.3999999999996,-2809.2,3336.8,-2092.4,887.1,-1969.0,2025-01-29 11:52:20,1
-2248.4,-1921.2,1032.8000000000002,-1914.4,799.1,-2966.0,2025-01-29 11:52:20,1
-3812.4,-1221.2,-639.1999999999998,-2550.4,1302.1,-4099.0,2025-01-29 11:52:20,1
-4316.4,-2373.2,232.80000000000015,-2885.4,524.1,-5441.0,2025-01-29 11:52:20,1
-4912.4,-4433.2,300.8000000000002,-2186.4,-2968.9,-6075.0,2025-01-29 11:52:20,1
-5688.4,-6465.2,284.8000000000002,-797.4,-6435.9,-4077.0,2025-01-29 11:52:20,1
-5100.4,-7213.2,-359.1999999999998,-174.4,-6539.9,-1124.0,2025-01-29 11:52:20,1
-2452.4,-5749.2,-855.1999999999998,403.6,-5417.9,1109.0,2025-01-29 11:52:20,1
71.60000000000036,-3525.2,-2119.2,89.6,-4796.9,1769.0,2025-01-29 11:52:20,1
911.6000000000004,-1649.2,-2559.2,-1282.4,-4621.9,2236.0,2025-01-29 11:52:20,1
1679.6000000000004,-373.2000000000001,-1923.2,-1202.4,-4638.9,2944.0,2025-01-29 11:52:21,1
2383.6000000000004,314.79999999999995,-1883.2,-756.4,-4313.9,3616.0,2025-01-29 11:52:21,1
3459.6000000000004,918.8,-1983.2,-858.4,-3081.9,3631.0,2025-01-29 11:52:21,1
4215.6,962.8,-1311.1999999999998,-1489.4,-842.9,2539.0,2025-01-29 11:52:21,1
3203.6000000000004,962.8,-699.1999999999998,-2172.4,1297.1,1047.0,2025-01-29 11:52:21,1
175.60000000000036,554.8,-315.1999999999998,-2767.4,2560.1,670.0,2025-01-29 11:52:21,1
-1928.4,30.799999999999955,-243.19999999999985,-2834.4,2935.1,1469.0,2025-01-29 11:52:21,1
-2848.4,-645.2,48.80000000000018,-2637.4,1614.1,2455.0,2025-01-29 11:52:21,1
-2484.4,-745.2,716.8000000000002,-2282.4,-699.9,3128.0,2025-01-29 11:52:21,1
355.6000000000004,770.8,2608.8,1323.6,1480.1,1088.0,2025-01-29 11:52:21,1
435.6000000000004,1054.8,2956.8,1716.6,802.1,663.0,2025-01-29 11:52:21,1
-236.39999999999964,738.8,3008.8,1902.6,420.1,324.0,2025-01-29 11:52:21,1
-936.3999999999996,394.8,3732.8,2076.6,422.1,338.0,2025-01-29 11:52:21,1
-720.3999999999996,-33.200000000000045,4528.8,2477.6,232.1,453.0,2025-01-29 11:52:21,1
303.6000000000004,54.79999999999996,3704.8,2896.6,-805.9,2.0,2025-01-29 11:52:21,1
-64.39999999999964,826.8,3032.8,3156.6,-1228.9,-409.0,2025-01-29 11:52:21,1
-680.3999999999996,1866.8,1916.8,3097.6,-195.9,-119.0,2025-01-29 11:52:21,1
-1212.3999999999996,2342.8,1232.8000000000002,2778.6,1060.1,629.0,2025-01-29 11:52:21,1
-1396.3999999999996,2390.8,1240.8000000000002,2429.6,1564.1,1589.0,2025-01-29 11:52:21,1
-1132.3999999999996,1726.8,792.8000000000002,2040.6,1383.1,2478.0,2025-01-29 11:52:21,1
-932.3999999999996,502.8,128.80000000000018,1945.6,1569.1,3053.0,2025-01-29 11:52:21,1
-812.3999999999996,-585.2,1224.8000000000002,2401.6,2351.1,3434.0,2025-01-29 11:52:21,1
-1432.3999999999996,202.79999999999995,2064.8,2841.6,2051.1,3478.0,2025-01-29 11:52:21,1
-2720.4,1230.8,2300.8,2911.6,1529.1,4113.0,2025-01-29 11:52:21,1
-4020.4,1846.8,1868.8,3047.6,1117.1,5002.0,2025-01-29 11:52:21,1
-4152.4,706.8,568.8000000000002,3485.6,1175.1,5064.0,2025-01-29 11:52:21,1
-4024.4,802.8,-555.1999999999998,3802.6,-183.9,3944.0,2025-01-29 11:52:21,1
-3780.4,3750.8,-1779.1999999999998,3727.6,-2317.9,3001.0,2025-01-29 11:52:21,1
-2736.4,5962.8,-2919.2,2760.6,-3067.9,2655.0,2025-01-29 11:52:21,1
-1384.3999999999996,5994.8,-3339.2,1293.6,-1440.9,2059.0,2025-01-29 11:52:21,1
-556.3999999999996,4258.8,-3367.2,-682.4,-47.900000000000006,625.0,2025-01-29 11:52:21,1
-340.39999999999964,1942.8,-2879.2,-1320.4,-888.9,-835.0,2025-01-29 11:52:21,1
1403.6000000000004,750.8,-1783.1999999999998,-950.4,-2361.9,-1967.0,2025-01-29 11:52:21,1
2619.6000000000004,-1173.2,-235.19999999999985,-204.4,-2891.9,-2665.0,2025-01-29 11:52:21,1
3703.6,-3381.2,300.8000000000002,630.6,-2114.9,-2626.0,2025-01-29 11:52:21,1
4087.6,-4825.2,-175.19999999999982,1194.6,-724.9,-2084.0,2025-01-29 11:52:21,1
3215.6000000000004,-3533.2,-519.1999999999998,1575.6,2801.1,-899.0,2025-01-29 11:52:21,1
2187.6000000000004,-1413.2,-215.19999999999985,2070.6,5858.1,-889.0,2025-01-29 11:52:21,1
-228.39999999999964,162.79999999999995,-839.1999999999998,1877.6,7026.1,-1667.0,2025-01-29 11:52:21,1
-1988.4,1278.8,-1055.1999999999998,1235.6,6207.1,-2500.0,2025-01-29 11:52:21,1
-3240.4,1994.8,-931.1999999999998,568.6,3261.1,-3274.0,2025-01-29 11:52:21,1
-3280.4,1802.8,-855.1999999999998,-305.4,-864.9,-3377.0,2025-01-29 11:52:21,1
-1556.3999999999996,910.8,-1003.1999999999998,-1305.4,-3612.9,-3179.0,2025-01-29 11:52:21,1
835.6000000000004,-449.2000000000001,-815.1999999999998,-2069.4,-4461.9,-3256.0,2025-01-29 11:52:21,1
2047.6000000000004,-1481.2,552.8000000000002,-2201.4,-3550.9,-3334.0,2025-01-29 11:52:21,1
3127.6000000000004,-2073.2,1280.8000000000002,-2190.4,-1661.9,-3242.0,2025-01-29 11:52:21,1
4015.6,-2373.2,1336.8000000000002,-2351.4,431.1,-3553.0,2025-01-29 11:52:21,1
4039.6,-2661.2,996.8000000000002,-2260.4,2384.1,-3735.0,2025-01-29 11:52:21,1
2451.6000000000004,-2725.2,1060.8000000000002,-1832.4,3826.1,-3859.0,2025-01-29 11:52:21,1
895.6000000000004,-2505.2,456.8000000000002,-1549.4,4149.1,-3624.0,2025-01-29 11:52:21,1
-784.3999999999996,-1949.2,716.8000000000002,-1546.4,3454.1,-2960.0,2025-01-29 11:52:21,1
-1408.3999999999996,-1745.2,868.8000000000002,-1627.4,2354.1,-2139.0,2025-01-29 11:52:21,1
-1292.3999999999996,-1813.2,1004.8000000000002,-1666.4,1110.1,-1426.0,2025-01-29 11:52:21,1
227.6000000000004,-2065.2,120.80000000000018,-1433.4,154.1,-769.0,2025-01-29 11:52:21,1
119.60000000000036,-1993.2,1108.8000000000002,-1136.4,-161.9,-202.0,2025-01-29 11:52:21,1
395.6000000000004,-1649.2,1560.8000000000002,-1062.4,-195.9,243.0,2025-01-29 11:52:22,1
871.6000000000004,-1245.2,1496.8000000000002,-1183.4,-71.9,547.0,2025-01-29 11:52:22,1
727.6000000000004,-893.2,2128.8,-1384.4,214.1,657.0,2025-01-29 11:52:22,1
539.6000000000004,-761.2,1936.8,-1532.4,251.1,724.0,2025-01-29 11:52:22,1
387.6000000000004,-893.2,1720.8000000000002,-1761.4,311.1,836.0,2025-01-29 11:52:22,1
395.6000000000004,-1381.2,1300.8000000000002,-2022.4,352.1,887.0,2025-01-29 11:52:22,1
711.6000000000004,-1745.2,812.8000000000002,-2185.4,437.1,926.0,2025-01-29 11:52:22,1
1043.6000000000004,-2005.2,644.8000000000002,-2387.4,497.1,716.0,2025-01-29 11:52:22,1
983.6000000000004,-1493.2,444.8000000000002,-2528.4,725.1,265.0,2025-01-29 11:52:22,1
639.6000000000004,-9.200000000000044,28.800000000000185,-2439.4,930.1,-77.0,2025-01-29 11:52:22,1
-356.39999999999964,-261.20000000000005,-687.1999999999998,-2846.4,1604.1,-385.0,2025-01-29 11:52:22,1
-740.3999999999996,-1461.2,-79.19999999999982,-2937.4,1731.1,-777.0,2025-01-29 11:52:22,1
-1700.3999999999996,-2377.2,508.8000000000002,-2890.4,1272.1,-1805.0,2025-01-29 11:52:22,1
-3044.4,-1917.2,1292.8000000000002,-2859.4,699.1,-2737.0,2025-01-29 11:52:22,1
-4404.4,-769.2,1796.8000000000002,-3039.4,-164.9,-2983.0,2025-01-29 11:52:22,1
-4692.4,242.79999999999995,2000.8,-3711.4,-811.9,-2483.0,2025-01-29 11:52:22,1
-3104.4,-965.2,1236.8000000000002,-4474.4,-1501.9,-2118.0,2025-01-29 11:52:22,1
-1732.3999999999996,-3209.2,-1123.1999999999998,-4515.4,-1529.9,-2571.0,2025-01-29 11:52:22,1
-2060.4,-5169.2,-543.1999999999998,-3806.4,217.1,-2906.0,2025-01-29 11:52:22,1
-3508.4,-5913.2,920.8000000000002,-2128.4,654.1,-2590.0,2025-01-29 11:52:22,1
-5556.4,-5765.2,-715.1999999999998,24.599999999999994,-1878.9,-1037.0,2025-01-29 11:52:22,1
-6044.4,-4345.2,-3195.2,1119.6,-4561.9,1465.0,2025-01-29 11:52:22,1
-2916.4,-2813.2,-3631.2,1537.6,-6255.9,3266.0,2025-01-29 11:52:22,1
347.6000000000004,-1757.2,-3363.2,1842.6,-7633.9,3537.0,2025-01-29 11:52:22,1
3139.6000000000004,-717.2,-3043.2,1751.6,-8444.9,3584.0,2025-01-29 11:52:22,1
4939.6,1330.8,-2455.2,888.6,-7389.9,3556.0,2025-01-29 11:52:22,1
5051.6,3594.8,-2359.2,-658.4,-2481.9,3217.0,2025-01-29 11:52:22,1
3515.6000000000004,4506.8,-1847.2,-1792.4,2745.1,2462.0,2025-01-29 11:52:22,1
651.6000000000004,2906.8,-1079.1999999999998,-2616.4,5991.1,1629.0,2025-01-29 11:52:22,1
-2488.4,762.8,508.8000000000002,-2546.4,6953.1,1443.0,2025-01-29 11:52:22,1
-4400.4,-1145.2,1720.8000000000002,-1398.4,4567.1,2214.0,2025-01-29 11:52:22,1
-4684.4,-2257.2,1228.8000000000002,-183.4,-918.9,3955.0,2025-01-29 11:52:22,1
-1164.3999999999996,-1709.2,576.8000000000002,1133.6,-5339.9,4930.0,2025-01-29 11:52:22,1
1911.6000000000004,-605.2,176.80000000000018,1840.6,-6266.9,4640.0,2025-01-29 11:52:22,1
3747.6,-101.20000000000005,564.8000000000002,2463.6,-5150.9,4177.0,2025-01-29 11:52:22,1
4623.6,262.79999999999995,1104.8000000000002,3112.6,-2671.9,3856.0,2025-01-29 11:52:22,1
4535.6,614.8,1216.8000000000002,3699.6,-455.9,3764.0,2025-01-29 11:52:22,1
3631.6,694.8,896.8000000000002,3869.6,1787.1,3921.0,2025-01-29 11:52:22,1
2323.6000000000004,1118.8,1196.8000000000002,3857.6,3524.1,4045.0,2025-01-29 11:52:22,1
1051.6000000000004,1742.8,1288.8000000000002,3805.6,3804.1,3872.0,2025-01-29 11:52:22,1
115.60000000000036,2478.8,1204.8000000000002,3811.6,2989.1,3398.0,2025-01-29 11:52:22,1
-940.3999999999996,2602.8,612.8000000000002,3602.6,553.1,2806.0,2025-01-29 11:52:22,1
-932.3999999999996,2350.8,564.8000000000002,3529.6,-1751.9,2263.0,2025-01-29 11:52:22,1
-324.39999999999964,1918.8,1520.8000000000002,3519.6,-3159.9,1755.0,2025-01-29 11:52:22,1
875.6000000000004,1482.8,1748.8000000000002,3589.6,-3175.9,1385.0,2025-01-29 11:52:22,1
1659.6000000000004,1086.8,1868.8,3541.6,-2658.9,936.0,2025-01-29 11:52:22,1
2119.6000000000004,802.8,2016.8,3483.6,-2132.9,429.0,2025-01-29 11:52:22,1
1767.6000000000004,850.8,2420.8,3558.6,-1788.9,-63.0,2025-01-29 11:52:22,1
887.6000000000004,1410.8,2540.8,3670.6,-1427.9,-417.0,2025-01-29 11:52:22,1
47.60000000000037,2030.8,2224.8,3497.6,-1168.9,-944.0,2025-01-29 11:52:22,1
335.6000000000004,2906.8,1108.8000000000002,3172.6,-1452.9,-1355.0,2025-01-29 11:52:22,1
703.6000000000004,3498.8,760.8000000000002,2838.6,-2137.9,-1747.0,2025-01-29 11:52:22,1
867.6000000000004,3450.8,1224.8000000000002,2205.6,-2124.9,-1958.0,2025-01-29 11:52:22,1
1499.6000000000004,2298.8,1492.8000000000002,1914.6,-292.9,-1615.0,2025-01-29 11:52:22,1
1507.6000000000004,1026.8,2116.8,2017.6,2272.1,-1320.0,2025-01-29 11:52:22,1
127.60000000000036,30.799999999999955,2712.8,2229.6,4435.1,-988.0,2025-01-29 11:52:22,1
-1940.4,-73.20000000000005,2736.8,2798.6,5547.1,-594.0,2025-01-29 11:52:22,1
-3336.4,490.8,2128.8,3199.6,4949.1,-296.0,2025-01-29 11:52:22,1
-4700.4,906.8,1536.8000000000002,3225.6,2604.1,-175.0,2025-01-29 11:52:22,1
-4728.4,1398.8,1844.8,3445.6,-427.9,72.0,2025-01-29 11:52:22,1
-4260.4,1382.8,1928.8,3824.6,-2401.9,269.0,2025-01-29 11:52:23,1
-3196.4,1202.8,2052.8,3670.6,-2210.9,687.0,2025-01-29 11:52:23,1
-2828.4,-121.20000000000005,2964.8,3419.6,-649.9,1200.0,2025-01-29 11:52:23,1
-2608.4,-1249.2,2076.8,3642.6,1753.1,1967.0,2025-01-29 11:52:23,1
-3664.4,-405.2000000000001,1100.8000000000002,3779.6,3206.1,2463.0,2025-01-29 11:52:23,1
-5256.4,2062.8,-1911.2,3052.6,3504.1,2637.0,2025-01-29 11:52:23,1
-6800.4,4066.8,-4167.2,1043.6,2238.1,3651.0,2025-01-29 11:52:23,1
-6276.4,5722.8,-4715.2,-977.4,-477.9,4099.0,2025-01-29 11:52:23,1
-3764.4,6806.8,-3683.2,-2245.4,-3995.9,3476.0,2025-01-29 11:52:23,1
1411.6000000000004,5218.8,-1995.2,-2631.4,-7129.9,958.0,2025-01-29 11:52:23,1
3831.6,1222.8,-719.1999999999998,-3003.4,-8123.9,-2289.0,2025-01-29 11:52:23,1
5051.6,-1509.2,896.8000000000002,-2115.4,-7148.9,-2858.0,2025-01-29 11:52:23,1
5887.6,-3877.2,232.80000000000015,-887.4,-4655.9,-2522.0,2025-01-29 11:52:23,1
5779.6,-4917.2,-1603.1999999999998,-248.4,-907.9,-2229.0,2025-01-29 11:52:23,1
4503.6,-3825.2,-2039.2,-157.4,3183.1,-1950.0,2025-01-29 11:52:23,1
2507.6000000000004,-1277.2,-1075.1999999999998,103.6,5975.1,-1831.0,2025-01-29 11:52:23,1
-752.3999999999996,1102.8,-211.19999999999985,144.6,7076.1,-1865.0,2025-01-29 11:52:23,1
-1596.3999999999996,1618.8,684.8000000000002,-343.4,5271.1,-2104.0,2025-01-29 11:52:23,1
-2208.4,1050.8,752.8000000000002,-761.4,2130.1,-3083.0,2025-01-29 11:52:23,1
-2868.4,286.79999999999995,524.8000000000002,-794.4,-859.9,-4201.0,2025-01-29 11:52:23,1
-2592.4,-377.2000000000001,-123.19999999999982,-744.4,-3058.9,-4358.0,2025-01-29 11:52:23,1
-1024.3999999999996,-921.2,-79.19999999999982,-759.4,-4486.9,-3846.0,2025-01-29 11:52:23,1
991.6000000000004,-769.2,-87.19999999999982,-732.4,-4682.9,-3563.0,2025-01-29 11:52:23,1
2899.6000000000004,-541.2,-191.19999999999985,-1039.4,-3437.9,-3704.0,2025-01-29 11:52:23,1
3215.6000000000004,-365.2000000000001,464.8000000000002,-1452.4,-1498.9,-3720.0,2025-01-29 11:52:23,1
3171.6000000000004,-133.20000000000005,816.8000000000002,-1944.4,354.1,-3585.0,2025-01-29 11:52:23,1
2675.6000000000004,-245.20000000000005,1160.8000000000002,-2360.4,2214.1,-3371.0,2025-01-29 11:52:23,1
2015.6000000000004,-581.2,1760.8000000000002,-2668.4,3632.1,-3334.0,2025-01-29 11:52:23,1
751.6000000000004,-1229.2,2348.8,-2807.4,4015.1,-3524.0,2025-01-29 11:52:23,1
-504.3999999999997,-1637.2,2460.8,-2740.4,3561.1,-3603.0,2025-01-29 11:52:23,1
-1484.3999999999996,-2085.2,2516.8,-2533.4,2575.1,-3290.0,2025-01-29 11:52:23,1
-2292.4,-2429.2,2780.8,-2131.4,658.1,-1969.0,2025-01-29 11:52:23,1
-1480.3999999999996,-2401.2,2872.8,-1724.4,-627.9,-586.0,2025-01-29 11:52:23,1
859.6000000000004,-1709.2,2408.8,-1505.4,-906.9,101.0,2025-01-29 11:52:23,1
1615.6000000000004,-921.2,2876.8,-1698.4,-222.9,536.0,2025-01-29 11:52:23,1
1931.6000000000004,-749.2,2784.8,-1914.4,1408.1,1061.0,2025-01-29 11:52:23,1
1435.6000000000004,-1429.2,2780.8,-2109.4,3114.1,1586.0,2025-01-29 11:52:23,1
607.6000000000004,-2257.2,2292.8,-1868.4,3983.1,1946.0,2025-01-29 11:52:23,1
-116.39999999999964,-2837.2,1260.8000000000002,-1221.4,4083.1,1813.0,2025-01-29 11:52:23,1
-1084.3999999999996,-2473.2,416.8000000000002,-827.4,3430.1,1088.0,2025-01-29 11:52:23,1
-2128.4,-1137.2,760.8000000000002,-790.4,2111.1,557.0,2025-01-29 11:52:23,1
-2900.4,-153.20000000000005,1312.8000000000002,-945.4,458.1,371.0,2025-01-29 11:52:23,1
-2532.4,-1.2000000000000457,900.8000000000002,-1018.4,-911.9,63.0,2025-01-29 11:52:23,1
-2316.4,-133.20000000000005,988.8000000000002,-1590.4,-2189.9,-308.0,2025-01-29 11:52:23,1
-1556.3999999999996,166.79999999999995,1400.8000000000002,-2215.4,-3059.9,-725.0,2025-01-29 11:52:23,1
-784.3999999999996,782.8,2204.8,-2878.4,-2879.9,-1291.0,2025-01-29 11:52:23,1
-356.39999999999964,1010.8,2100.8,-3586.4,-2397.9,-1657.0,2025-01-29 11:52:23,1
-60.39999999999964,-5.2000000000000455,-131.19999999999982,-3727.4,-841.9,-2600.0,2025-01-29 11:52:23,1
-564.3999999999996,-2837.2,-3155.2,-4471.4,3509.1,-4044.0,2025-01-29 11:52:23,1
-1044.3999999999996,-4841.2,-2823.2,-3808.4,6501.1,-5938.0,2025-01-29 11:52:23,1
-3640.4,-6217.2,-1487.1999999999998,-1932.4,5203.1,-7315.0,2025-01-29 11:52:23,1
-7792.4,-6393.2,-1463.1999999999998,-416.4,-84.9,-6099.0,2025-01-29 11:52:23,1
-11120.4,-5037.2,-2131.2,37.6,-4928.9,-1841.0,2025-01-29 11:52:23,1
-7100.4,-1953.2,-479.1999999999998,-252.4,-7860.9,4034.0,2025-01-29 11:52:23,1
-1112.3999999999996,-713.2,140.80000000000018,-8.400000000000006,-9688.9,6423.0,2025-01-29 11:52:23,1
3691.6,-877.2,-1375.1999999999998,-627.4,-9269.9,7530.0,2025-01-29 11:52:23,1
7155.6,-325.20000000000005,-1971.2,-1402.4,-5861.9,7154.0,2025-01-29 11:52:23,1
8575.6,502.8,-1399.1999999999998,-1466.4,-748.9,5444.0,2025-01-29 11:52:23,1
8019.6,1342.8,56.80000000000018,-910.4,5155.1,2433.0,2025-01-29 11:52:23,1
4331.6,914.8,132.80000000000018,-507.4,8615.1,-623.0,2025-01-29 11:52:23,1
-156.39999999999964,982.8,420.8000000000002,-183.4,9351.1,-1403.0,2025-01-29 11:52:24,1
-3308.4,738.8,-99.19999999999982,-276.4,8679.1,-402.0,2025-01-29 11:52:24,1
-5516.4,190.79999999999995,-647.1999999999998,-599.4,6291.1,1443.0,2025-01-29 11:52:24,1
-5640.4,-773.2,-1247.1999999999998,-471.4,2454.1,3376.0,2025-01-29 11:52:24,1
-3936.4,-1029.2,-1507.1999999999998,145.6,-1802.9,4474.0,2025-01-29 11:52:24,1
-2080.4,-553.2,-1563.1999999999998,728.6,-4334.9,4523.0,2025-01-29 11:52:24,1
319.6000000000004,-29.200000000000045,-423.1999999999998,1310.6,-5295.9,4045.0,2025-01-29 11:52:24,1
2139.6000000000004,390.8,-55.19999999999982,1891.6,-5259.9,3389.0,2025-01-29 11:52:24,1
3039.6000000000004,898.8,352.8000000000002,2202.6,-4284.9,2951.0,2025-01-29 11:52:24,1
2951.6000000000004,1154.8,624.8000000000002,2319.6,-2506.9,2847.0,2025-01-29 11:52:24,1
3087.6000000000004,1318.8,936.8000000000002,2307.6,-322.9,2825.0,2025-01-29 11:52:24,1
2911.6000000000004,1366.8,752.8000000000002,2185.6,1370.1,2831.0,2025-01-29 11:52:24,1
1007.6000000000004,1694.8,564.8000000000002,2112.6,1971.1,2850.0,2025-01-29 11:52:24,1
307.6000000000004,1958.8,452.8000000000002,2165.6,1077.1,2787.0,2025-01-29 11:52:24,1
195.6000000000004,2362.8,244.80000000000015,2236.6,-100.9,2536.0,2025-01-29 11:52:24,1
603.6000000000004,2306.8,96.80000000000018,2322.6,-933.9,2081.0,2025-01-29 11:52:24,1
819.6000000000004,1998.8,200.80000000000015,2305.6,-1313.9,1443.0,2025-01-29 11:52:24,1
691.6000000000004,1682.8,612.8000000000002,2203.6,-1178.9,1015.0,2025-01-29 11:52:24,1
547.6000000000004,1330.8,988.8000000000002,2182.6,-761.9,911.0,2025-01-29 11:52:24,1
675.6000000000004,1010.8,1104.8000000000002,2282.6,-397.9,905.0,2025-01-29 11:52:24,1
631.6000000000004,694.8,1456.8000000000002,2516.6,-141.9,762.0,2025-01-29 11:52:24,1
587.6000000000004,554.8,1500.8000000000002,2954.6,-65.9,529.0,2025-01-29 11:52:24,1
539.6000000000004,486.8,1492.8000000000002,3416.6,-264.9,597.0,2025-01-29 11:52:24,1
627.6000000000004,574.8,1532.8000000000002,3780.6,-545.9,683.0,2025-01-29 11:52:24,1
779.6000000000004,1010.8,1448.8000000000002,4066.6,-609.9,723.0,2025-01-29 11:52:24,1
735.6000000000004,1322.8,1292.8000000000002,4233.6,-312.9,751.0,2025-01-29 11:52:24,1
687.6000000000004,1526.8,1224.8000000000002,4371.6,290.1,510.0,2025-01-29 11:52:24,1
-28.39999999999964,1654.8,1372.8000000000002,4597.6,651.1,228.0,2025-01-29 11:52:24,1
-952.3999999999996,1514.8,1300.8000000000002,4777.6,653.1,40.0,2025-01-29 11:52:24,1
-1540.3999999999996,1062.8,1388.8000000000002,4885.6,199.1,20.0,2025-01-29 11:52:24,1
-1620.3999999999996,450.8,1556.8000000000002,5016.6,-562.9,149.0,2025-01-29 11:52:24,1
-1096.3999999999996,-365.2000000000001,1544.8000000000002,5222.6,-984.9,364.0,2025-01-29 11:52:24,1
-604.3999999999996,-1317.2,1912.8,5333.6,-545.9,331.0,2025-01-29 11:52:24,1
-896.3999999999996,-2209.2,2644.8,5881.6,152.1,412.0,2025-01-29 11:52:24,1
-1360.3999999999996,-2601.2,3356.8,6954.6,919.1,908.0,2025-01-29 11:52:24,1
-1624.3999999999996,-1877.2,3968.8,7757.6,1252.1,1381.0,2025-01-29 11:52:24,1
-2612.4,-633.2,2664.8,8396.6,1347.1,1971.0,2025-01-29 11:52:24,1
-4176.4,114.79999999999995,772.8000000000002,8697.6,1481.1,3387.0,2025-01-29 11:52:24,1
-4440.4,-277.20000000000005,-1019.1999999999998,8699.6,913.1,4258.0,2025-01-29 11:52:24,1
-4460.4,398.8,-2303.2,8054.6,65.1,4769.0,2025-01-29 11:52:24,1
-3352.4,1646.8,-3571.2,7063.6,-1264.9,4840.0,2025-01-29 11:52:24,1
-2408.4,3590.8,-4707.2,5489.6,-2293.9,4520.0,2025-01-29 11:52:24,7
-1904.4,5246.8,-3215.2,4288.6,-1858.9,4016.0,2025-01-29 11:52:24,7
1191.6000000000004,4830.8,-983.1999999999998,3900.6,-1008.9,2359.0,2025-01-29 11:52:24,7
3195.6000000000004,3462.8,-183.19999999999985,3961.6,-1605.9,-313.0,2025-01-29 11:52:24,7
2951.6000000000004,1474.8,-211.19999999999985,3921.6,-2064.9,-1385.0,2025-01-29 11:52:24,7
3743.6,-865.2,-631.1999999999998,4047.6,-2063.9,-1868.0,2025-01-29 11:52:24,7
3935.6,-2689.2,-1487.1999999999998,4140.6,-1122.9,-2402.0,2025-01-29 11:52:24,7
3359.6000000000004,-3577.2,-2591.2,3946.6,863.1,-2418.0,2025-01-29 11:52:24,7
1915.6000000000004,-2945.2,-2539.2,3580.6,3506.1,-1469.0,2025-01-29 11:52:24,7
827.6000000000004,-905.2,-947.1999999999998,3694.6,5042.1,-323.0,2025-01-29 11:52:24,7
-88.39999999999964,622.8,-831.1999999999998,3525.6,5116.1,-226.0,2025-01-29 11:52:24,7
-1576.3999999999996,2130.8,-51.19999999999982,2964.6,3911.1,-681.0,2025-01-29 11:52:25,7
-228.39999999999964,-2189.2,-259.1999999999998,-4868.4,852.1,-3730.0,2025-01-29 11:52:25,7
-704.3999999999996,-1733.2,16.800000000000182,-5161.4,239.1,-3000.0,2025-01-29 11:52:25,7
-92.39999999999964,-837.2,76.80000000000018,-5504.4,-686.9,-2633.0,2025-01-29 11:52:25,7
347.6000000000004,-197.20000000000005,-539.1999999999998,-6213.4,-1377.9,-2792.0,2025-01-29 11:52:25,7
691.6000000000004,258.79999999999995,-567.1999999999998,-6983.4,-1612.9,-2584.0,2025-01-29 11:52:25,7
1639.6000000000004,170.79999999999995,-603.1999999999998,-7964.4,-1050.9,-2820.0,2025-01-29 11:52:25,7
1707.6000000000004,146.79999999999995,-511.1999999999998,-8945.4,-502.9,-3173.0,2025-01-29 11:52:25,7
1375.6000000000004,66.79999999999995,-427.1999999999998,-9806.4,-100.9,-3124.0,2025-01-29 11:52:25,7
975.6000000000004,-89.20000000000005,-347.1999999999998,-10267.4,-288.9,-2865.0,2025-01-29 11:52:25,7
1135.6000000000004,-449.2000000000001,-415.1999999999998,-10730.4,-660.9,-2813.0,2025-01-29 11:52:25,7
911.6000000000004,-1521.2,-231.19999999999985,-11262.4,-878.9,-2961.0,2025-01-29 11:52:25,7
887.6000000000004,-2661.2,144.80000000000018,-11478.4,-1018.9,-3036.0,2025-01-29 11:52:25,7
1075.6000000000004,-2689.2,-955.1999999999998,-11573.4,-889.9,-3094.0,2025-01-29 11:52:25,7
1475.6000000000004,-1957.2,-955.1999999999998,-11600.4,-756.9,-3284.0,2025-01-29 11:52:25,7
1411.6000000000004,-1837.2,-459.1999999999998,-11690.4,-438.9,-3698.0,2025-01-29 11:52:25,7
1123.6000000000004,-2053.2,-831.1999999999998,-11953.4,-491.9,-4290.0,2025-01-29 11:52:25,7
1055.6000000000004,-2849.2,-1927.2,-12248.4,-1021.9,-5551.0,2025-01-29 11:52:25,7
671.6000000000004,-2589.2,-2311.2,-12694.4,-1622.9,-6478.0,2025-01-29 11:52:25,7
1263.6000000000004,-1537.2,-2387.2,-13542.4,-1806.9,-6667.0,2025-01-29 11:52:25,7
2223.6000000000004,-1017.2,-1947.2,-14530.4,-1281.9,-6899.0,2025-01-29 11:52:25,7
2655.6000000000004,-981.2,-1903.2,-15887.4,-271.9,-7482.0,2025-01-29 11:52:25,7
1843.6000000000004,-1897.2,-1767.1999999999998,-17539.4,1381.1,-8033.0,2025-01-29 11:52:25,7
1003.6000000000004,-2781.2,-2507.2,-18823.4,2413.1,-8211.0,2025-01-29 11:52:25,7
295.6000000000004,-3729.2,-3023.2,-19642.4,2754.1,-8197.0,2025-01-29 11:52:25,7
-356.39999999999964,-4245.2,-2707.2,-20311.4,2780.1,-7777.0,2025-01-29 11:52:25,7
-440.3999999999997,-4653.2,-1771.1999999999998,-20702.4,2224.1,-7485.0,2025-01-29 11:52:25,7
-712.3999999999996,-5241.2,-1183.1999999999998,-20799.4,1389.1,-7189.0,2025-01-29 11:52:25,7
-756.3999999999996,-5957.2,-615.1999999999998,-20609.4,426.1,-6793.0,2025-01-29 11:52:25,7
-960.3999999999996,-6709.2,-939.1999999999998,-20363.4,-104.9,-6316.0,2025-01-29 11:52:25,7
-576.3999999999996,-6941.2,-535.1999999999998,-19986.4,-337.9,-5949.0,2025-01-29 11:52:25,7
-476.3999999999997,-5521.2,-1835.2,-19056.4,-1003.9,-5482.0,2025-01-29 11:52:25,7
-232.39999999999964,-4177.2,-3667.2,-18407.4,-1241.9,-4754.0,2025-01-29 11:52:25,7
503.6000000000004,-2773.2,-5647.2,-17342.4,-859.9,-4571.0,2025-01-29 11:52:25,7
1891.6000000000004,-2101.2,-7287.2,-16069.4,-149.9,-5606.0,2025-01-29 11:52:25,7
3403.6000000000004,-2089.2,-4987.2,-14843.4,1164.1,-8207.0,2025-01-29 11:52:25,7
2787.6000000000004,-1293.2,-2975.2,-14590.4,1924.1,-10846.0,2025-01-29 11:52:25,7
267.6000000000004,1538.8,-1583.1999999999998,-15397.4,2585.1,-12120.0,2025-01-29 11:52:25,7
-1748.3999999999996,4154.8,-2723.2,-17186.4,2819.1,-11442.0,2025-01-29 11:52:25,7
-960.3999999999996,3910.8,-5743.2,-20440.4,2580.1,-7926.0,2025-01-29 11:52:25,7
1943.6000000000004,1586.8,-5283.2,-22418.4,2055.1,-7908.0,2025-01-29 11:52:25,7
1419.6000000000004,-429.2000000000001,-2367.2,-22554.4,2052.1,-7885.0,2025-01-29 11:52:25,7
11.600000000000364,-2141.2,-199.19999999999985,-20989.4,2324.1,-7140.0,2025-01-29 11:52:25,7
-668.3999999999996,-3137.2,240.80000000000015,-19382.4,2925.1,-6691.0,2025-01-29 11:52:25,7
-696.3999999999996,-3181.2,612.8000000000002,-17970.4,2875.1,-6657.0,2025-01-29 11:52:25,7
-1368.3999999999996,-1593.2,1620.8000000000002,-16213.4,2023.1,-6701.0,2025-01-29 11:52:25,7
-528.3999999999996,694.8,112.80000000000018,-14577.4,406.1,-6408.0,2025-01-29 11:52:25,7
539.6000000000004,1918.8,-2183.2,-14663.4,-1142.9,-6205.0,2025-01-29 11:52:25,7
1399.6000000000004,2478.8,-3195.2,-15910.4,-1689.9,-6172.0,2025-01-29 11:52:25,7
2087.6000000000004,2430.8,-1091.1999999999998,-16790.4,-1293.9,-6193.0,2025-01-29 11:52:25,7
1831.6000000000004,2290.8,792.8000000000002,-16327.4,-252.9,-6274.0,2025-01-29 11:52:25,7
1419.6000000000004,1362.8,1116.8000000000002,-15092.4,1345.1,-6257.0,2025-01-29 11:52:25,7
579.6000000000004,-473.2000000000001,184.80000000000015,-13833.4,2480.1,-6028.0,2025-01-29 11:52:25,7
1187.6000000000004,-2017.2,-131.19999999999982,-12594.4,2699.1,-5855.0,2025-01-29 11:52:25,7
2271.6000000000004,-2261.2,-159.19999999999982,-11586.4,2796.1,-6050.0,2025-01-29 11:52:25,7
2459.6000000000004,-733.2,-127.19999999999982,-10597.4,3065.1,-6396.0,2025-01-29 11:52:25,7
2007.6000000000004,1442.8,-1147.1999999999998,-10144.4,2956.1,-6843.0,2025-01-29 11:52:25,7
1331.6000000000004,3366.8,-2079.2,-10046.4,2518.1,-6974.0,2025-01-29 11:52:25,7
1099.6000000000004,4446.8,-2611.2,-10239.4,1514.1,-6942.0,2025-01-29 11:52:25,7
1235.6000000000004,4518.8,-2887.2,-10595.4,640.1,-6622.0,2025-01-29 11:52:25,7
2655.6000000000004,3534.8,-3327.2,-11099.4,147.1,-6304.0,2025-01-29 11:52:26,7
4031.6,1686.8,-3035.2,-11433.4,-20.90000000000001,-6652.0,2025-01-29 11:52:26,7
4091.6,278.79999999999995,-2191.2,-11134.4,-280.9,-7148.0,2025-01-29 11:52:26,7
3427.6000000000004,-741.2,-1379.1999999999998,-10088.4,-421.9,-7109.0,2025-01-29 11:52:26,7
3383.6000000000004,-965.2,-1031.1999999999998,-8974.4,-762.9,-6801.0,2025-01-29 11:52:26,7
3247.6000000000004,-1073.2,-867.1999999999998,-8067.4,-936.9,-6207.0,2025-01-29 11:52:26,7
3619.6,-961.2,-879.1999999999998,-7178.4,-1396.9,-5299.0,2025-01-29 11:52:26,7
3811.6,-865.2,312.8000000000002,-6447.4,-2024.9,-4670.0,2025-01-29 11:52:26,7
4439.6,-633.2,556.8000000000002,-5893.4,-1292.9,-4468.0,2025-01-29 11:52:26,7
4043.6,-513.2,1172.8000000000002,-5160.4,329.1,-4725.0,2025-01-29 11:52:26,7
3387.6000000000004,-289.20000000000005,660.8000000000002,-4252.4,1847.1,-5089.0,2025-01-29 11:52:26,7
2895.6000000000004,-21.200000000000045,-315.1999999999998,-3175.4,2206.1,-4785.0,2025-01-29 11:52:26,7
3447.6000000000004,-129.20000000000005,-1023.1999999999998,-2557.4,1488.1,-4106.0,2025-01-29 11:52:26,7
4511.6,-809.2,-659.1999999999998,-2334.4,413.1,-3867.0,2025-01-29 11:52:26,7
5231.6,-1745.2,-931.1999999999998,-2365.4,325.1,-4419.0,2025-01-29 11:52:26,7
4659.6,-1161.2,-1843.2,-2848.4,1197.1,-5188.0,2025-01-29 11:52:26,7
3007.6000000000004,166.79999999999995,-2299.2,-3238.4,1762.1,-5703.0,2025-01-29 11:52:26,7
443.6000000000004,1154.8,-2663.2,-3578.4,1989.1,-5466.0,2025-01-29 11:52:26,7
-1916.4,990.8,-2475.2,-3759.4,1925.1,-3765.0,2025-01-29 11:52:26,7
-3432.4,106.79999999999995,-1895.2,-4026.4,2125.1,-1209.0,2025-01-29 11:52:26,7
-2604.4,-1285.2,-1679.1999999999998,-4644.4,1572.1,631.0,2025-01-29 11:52:26,2
387.6000000000004,-1093.2,276.8000000000002,-4768.4,355.1,586.0,2025-01-29 11:52:26,2
4535.6,562.8,3220.8,-1944.4,-3793.9,-2191.0,2025-01-29 11:52:26,2
1747.6000000000004,-1849.2,-527.1999999999998,-2176.4,-5225.9,-3011.0,2025-01-29 11:52:26,2
1727.6000000000004,-1465.2,444.8000000000002,-2101.4,-5263.9,-1186.0,2025-01-29 11:52:26,2
3307.6000000000004,-1137.2,-791.1999999999998,-1890.4,-5000.9,-138.0,2025-01-29 11:52:26,2
2515.6000000000004,438.8,-1207.1999999999998,-1935.4,-5485.9,-1424.0,2025-01-29 11:52:26,2
-1460.3999999999996,962.8,-1599.1999999999998,-2966.4,-6210.9,-1731.0,2025-01-29 11:52:26,2
-2856.4,434.8,-347.1999999999998,-3944.4,-5591.9,-1136.0,2025-01-29 11:52:26,2
-1404.3999999999996,-717.2,844.8000000000002,-3723.4,-5074.9,-732.0,2025-01-29 11:52:26,2
-2060.4,-1325.2,336.8000000000002,-3081.4,-4630.9,-1221.0,2025-01-29 11:52:26,2
-1188.3999999999996,-717.2,-1355.1999999999998,-3035.4,-4118.9,-1239.0,2025-01-29 11:52:26,2
-1784.3999999999996,298.79999999999995,-2003.2,-3477.4,-4481.9,-631.0,2025-01-29 11:52:26,2
-1884.4,346.79999999999995,-1551.1999999999998,-3852.4,-6140.9,-311.0,2025-01-29 11:52:26,2
-1304.3999999999996,-605.2,-43.19999999999982,-3853.4,-7222.9,-515.0,2025-01-29 11:52:26,2
11127.6,-2133.2,1772.8000000000002,-2975.4,-340.9,-1805.0,2025-01-29 11:52:26,2
-1936.4,-2069.2,1216.8000000000002,-2365.4,-7363.9,-882.0,2025-01-29 11:52:26,2
-1284.3999999999996,-937.2,780.8000000000002,-1956.4,-6149.9,-1052.0,2025-01-29 11:52:26,2
-784.3999999999996,986.8,1828.8,-1773.4,-4177.9,-1085.0,2025-01-29 11:52:26,2
-3264.4,1158.8,1452.8000000000002,-1601.4,-6333.9,-119.0,2025-01-29 11:52:26,2
-3024.4,470.8,1980.8,-1184.4,-7578.9,609.0,2025-01-29 11:52:26,2
-1400.3999999999996,26.799999999999955,2728.8,-939.4,-7863.9,851.0,2025-01-29 11:52:26,2
-148.39999999999964,-25.200000000000045,3568.8,-562.4,-7583.9,305.0,2025-01-29 11:52:26,2
-1644.3999999999996,110.79999999999995,3956.8,-240.4,-7018.9,215.0,2025-01-29 11:52:26,2
-2428.4,-49.200000000000045,4760.8,-272.4,-6147.9,720.0,2025-01-29 11:52:26,2
-2620.4,226.79999999999995,5940.8,-459.4,-5267.9,1107.0,2025-01-29 11:52:26,2
-4604.4,942.8,6332.8,-456.4,-3466.9,713.0,2025-01-29 11:52:26,2
-1480.3999999999996,614.8,4448.8,-891.4,-3623.9,786.0,2025-01-29 11:52:26,2
-1764.3999999999996,642.8,2508.8,-1430.4,-4046.9,276.0,2025-01-29 11:52:26,2
-2656.4,1062.8,1348.8000000000002,-2169.4,-5702.9,332.0,2025-01-29 11:52:26,2
-1724.3999999999996,1178.8,2448.8,-2221.4,-8177.9,76.0,2025-01-29 11:52:26,2
-1160.3999999999996,266.79999999999995,2844.8,-2153.4,-9864.9,164.0,2025-01-29 11:52:26,2
-2108.4,210.79999999999995,3428.8,-1840.4,-9301.9,414.0,2025-01-29 11:52:26,2
-2912.4,1194.8,4476.8,-1518.4,-8402.9,575.0,2025-01-29 11:52:26,2
-3604.4,2326.8,5096.8,-1689.4,-8360.9,205.0,2025-01-29 11:52:26,2
-4020.4,2106.8,6360.8,-1779.4,-8148.9,178.0,2025-01-29 11:52:26,2
-3928.4,634.8,6800.8,-1542.4,-7840.9,187.0,2025-01-29 11:52:26,2
-3352.4,-369.2000000000001,6564.8,-1130.4,-7125.9,185.0,2025-01-29 11:52:26,2
-3448.4,390.8,6604.8,-951.4,-6580.9,651.0,2025-01-29 11:52:27,2
-3372.4,814.8,7600.8,-619.4,-6097.9,804.0,2025-01-29 11:52:27,2
-3484.4,990.8,7840.8,1.5999999999999943,-5376.9,963.0,2025-01-29 11:52:27,2
-2940.4,1138.8,7272.8,8.599999999999994,-4091.9,787.0,2025-01-29 11:52:27,2
-2944.4,1522.8,6972.8,-259.4,-3154.9,384.0,2025-01-29 11:52:27,2
-3060.4,1774.8,7220.8,-658.4,-3058.9,-327.0,2025-01-29 11:52:27,2
-3344.4,1866.8,7740.8,-854.4,-3485.9,-1182.0,2025-01-29 11:52:27,2
-3992.4,1130.8,7976.8,-796.4,-3852.9,-1585.0,2025-01-29 11:52:27,2
-3968.4,750.8,8136.8,-506.4,-4693.9,-1259.0,2025-01-29 11:52:27,2
-2908.4,422.8,7220.8,14.599999999999994,-5714.9,-1154.0,2025-01-29 11:52:27,2
-1828.4,490.8,6720.8,475.6,-6805.9,-1223.0,2025-01-29 11:52:27,2
-1512.3999999999996,410.8,7316.8,470.6,-7455.9,-1180.0,2025-01-29 11:52:27,2
3167.6000000000004,1150.8,7584.8,354.6,-6540.9,-1138.0,2025-01-29 11:52:27,2
263.6000000000004,1082.8,8572.8,87.6,-4431.9,-1049.0,2025-01-29 11:52:27,2
127.60000000000036,1314.8,7992.8,265.6,-2679.9,-1088.0,2025-01-29 11:52:27,2
71.60000000000036,1062.8,7148.8,31.599999999999994,-1936.9,-1048.0,2025-01-29 11:52:27,2
-504.3999999999997,1030.8,7084.8,-71.4,-2919.9,-766.0,2025-01-29 11:52:27,2
-1308.3999999999996,1018.8,8432.8,-323.4,-4009.9,-691.0,2025-01-29 11:52:27,2
-1568.3999999999996,806.8,8492.8,-287.4,-3780.9,-652.0,2025-01-29 11:52:27,2
127.60000000000036,826.8,9472.8,-321.4,-2771.9,-872.0,2025-01-29 11:52:27,2
-1332.3999999999996,-621.2,9028.8,-400.4,-2692.9,-1318.0,2025-01-29 11:52:27,2
-1420.3999999999996,-777.2,8952.8,-75.4,-3185.9,-1070.0,2025-01-29 11:52:27,2
-1164.3999999999996,-465.2000000000001,9368.8,139.6,-3683.9,-394.0,2025-01-29 11:52:27,2
-636.3999999999996,214.79999999999995,9516.8,285.6,-3615.9,26.0,2025-01-29 11:52:27,2
-772.3999999999996,598.8,9488.8,172.6,-2538.9,197.0,2025-01-29 11:52:27,2
-1400.3999999999996,318.79999999999995,10308.8,25.599999999999994,-934.9,-15.0,2025-01-29 11:52:27,2
-2484.4,66.79999999999995,10532.8,129.6,-212.9,19.0,2025-01-29 11:52:27,2
-2900.4,-73.20000000000005,10424.8,244.6,-272.9,77.0,2025-01-29 11:52:27,2
-2512.4,-213.20000000000005,10080.8,443.6,-674.9,3.0,2025-01-29 11:52:27,2
-1676.3999999999996,-185.20000000000005,9720.8,538.6,-1402.9,-200.0,2025-01-29 11:52:27,2
-1320.3999999999996,162.79999999999995,9496.8,365.6,-1951.9,-224.0,2025-01-29 11:52:27,2
-560.3999999999996,558.8,9804.8,176.6,-2614.9,29.0,2025-01-29 11:52:27,2
-368.3999999999997,586.8,9956.8,84.6,-2414.9,44.0,2025-01-29 11:52:27,2
-276.39999999999964,74.79999999999995,9984.8,-39.400000000000006,-1294.9,-224.0,2025-01-29 11:52:27,2
-920.3999999999996,-453.2000000000001,10508.8,80.6,-564.9,-93.0,2025-01-29 11:52:27,2
-1300.3999999999996,-745.2,10776.8,110.6,-473.9,207.0,2025-01-29 11:52:27,2
-908.3999999999996,-801.2,10896.8,112.6,-688.9,241.0,2025-01-29 11:52:27,2
-116.39999999999964,-745.2,10804.8,266.6,-599.9,107.0,2025-01-29 11:52:27,2
-208.39999999999964,-489.2000000000001,10728.8,464.6,127.1,-117.0,2025-01-29 11:52:27,2
-784.3999999999996,-333.20000000000005,10484.8,621.6,659.1,-273.0,2025-01-29 11:52:27,2
-1144.3999999999996,-149.20000000000005,10244.8,692.6,536.1,-279.0,2025-01-29 11:52:27,2
-1272.3999999999996,-101.20000000000005,10212.8,704.6,118.1,-316.0,2025-01-29 11:52:27,2
-1116.3999999999996,62.79999999999996,10156.8,681.6,-122.9,-295.0,2025-01-29 11:52:27,2
-884.3999999999996,182.79999999999995,10240.8,589.6,-113.9,-307.0,2025-01-29 11:52:27,2
-912.3999999999996,342.79999999999995,10328.8,630.6,40.1,-293.0,2025-01-29 11:52:27,2
-872.3999999999996,326.79999999999995,10412.8,659.6,102.1,-300.0,2025-01-29 11:52:27,2
-1132.3999999999996,366.8,10476.8,669.6,65.1,-254.0,2025-01-29 11:52:27,2
-1032.3999999999996,122.79999999999995,10504.8,693.6,242.1,-155.0,2025-01-29 11:52:27,2
-1096.3999999999996,62.79999999999996,10536.8,708.6,371.1,-90.0,2025-01-29 11:52:27,2
-1332.3999999999996,-5.2000000000000455,10404.8,736.6,503.1,-117.0,2025-01-29 11:52:27,2
-1484.3999999999996,-153.20000000000005,10072.8,767.6,484.1,-82.0,2025-01-29 11:52:27,2
-1184.3999999999996,-33.200000000000045,10052.8,702.6,271.1,-144.0,2025-01-29 11:52:27,2
-1056.3999999999996,134.79999999999995,10012.8,661.6,269.1,-154.0,2025-01-29 11:52:27,2
-968.3999999999996,-65.20000000000005,10028.8,629.6,386.1,-65.0,2025-01-29 11:52:27,2
-1084.3999999999996,6.7999999999999545,9772.8,565.6,360.1,26.0,2025-01-29 11:52:27,2
-1272.3999999999996,62.79999999999996,9544.8,532.6,373.1,78.0,2025-01-29 11:52:27,2
-1356.3999999999996,46.79999999999996,9508.8,422.6,205.1,138.0,2025-01-29 11:52:27,2
-1428.3999999999996,46.79999999999996,9556.8,388.6,94.1,159.0,2025-01-29 11:52:27,2
-1284.3999999999996,62.79999999999996,9528.8,367.6,-15.900000000000006,169.0,2025-01-29 11:52:27,2
-1044.3999999999996,86.79999999999995,9656.8,301.6,-5.900000000000006,107.0,2025-01-29 11:52:27,2
-1052.3999999999996,190.79999999999995,9816.8,268.6,96.1,22.0,2025-01-29 11:52:27,2
-1144.3999999999996,178.79999999999995,9652.8,214.6,121.1,6.0,2025-01-29 11:52:27,2
-1312.3999999999996,282.79999999999995,9752.8,158.6,-0.9000000000000057,31.0,2025-01-29 11:52:27,2
-1288.3999999999996,326.79999999999995,9700.8,127.6,-92.9,133.0,2025-01-29 11:52:27,2
-1180.3999999999996,390.8,9816.8,69.6,-120.9,164.0,2025-01-29 11:52:27,2
-964.3999999999996,466.8,9744.8,-15.400000000000006,-60.900000000000006,94.0,2025-01-29 11:52:28,2
-1156.3999999999996,562.8,9904.8,-37.400000000000006,8.099999999999994,80.0,2025-01-29 11:52:28,2
-1288.3999999999996,370.8,9896.8,-79.4,60.1,84.0,2025-01-29 11:52:28,2
-1412.3999999999996,262.79999999999995,10072.8,-119.4,81.1,130.0,2025-01-29 11:52:28,2
-1348.3999999999996,134.79999999999995,9960.8,-160.4,57.1,176.0,2025-01-29 11:52:28,2
-1372.3999999999996,6.7999999999999545,10052.8,-146.4,22.099999999999994,181.0,2025-01-29 11:52:28,2
-1244.3999999999996,26.799999999999955,10012.8,-197.4,-93.9,181.0,2025-01-29 11:52:28,2
-1144.3999999999996,58.79999999999996,10080.8,-185.4,-57.900000000000006,124.0,2025-01-29 11:52:28,2
-1108.3999999999996,126.79999999999995,9988.8,-197.4,-5.900000000000006,73.0,2025-01-29 11:52:28,2
-1160.3999999999996,214.79999999999995,9848.8,-202.4,62.1,15.0,2025-01-29 11:52:28,2
-1244.3999999999996,194.79999999999995,9764.8,-209.4,61.1,-12.0,2025-01-29 11:52:28,2
-1288.3999999999996,190.79999999999995,9912.8,-172.4,16.099999999999994,81.0,2025-01-29 11:52:28,2
-1184.3999999999996,282.79999999999995,9740.8,-175.4,-34.900000000000006,111.0,2025-01-29 11:52:28,2
-1148.3999999999996,258.79999999999995,9872.8,-175.4,-118.9,137.0,2025-01-29 11:52:28,2
-1200.3999999999996,250.79999999999995,9936.8,-193.4,-124.9,167.0,2025-01-29 11:52:28,2
-1200.3999999999996,254.79999999999995,9792.8,-207.4,-149.9,100.0,2025-01-29 11:52:28,2
-1096.3999999999996,330.79999999999995,9916.8,-203.4,-148.9,114.0,2025-01-29 11:52:28,2
-1284.3999999999996,354.79999999999995,9992.8,-200.4,-144.9,135.0,2025-01-29 11:52:28,2
-1196.3999999999996,358.79999999999995,9968.8,-158.4,-170.9,149.0,2025-01-29 11:52:28,2
-1112.3999999999996,350.79999999999995,9988.8,-164.4,-197.9,134.0,2025-01-29 11:52:28,2
-1076.3999999999996,206.79999999999995,10028.8,-175.4,-136.9,125.0,2025-01-29 11:52:28,2
-1196.3999999999996,246.79999999999995,10088.8,-140.4,-75.9,113.0,2025-01-29 11:52:28,2
-1048.3999999999996,298.79999999999995,9936.8,-134.4,2.0999999999999943,50.0,2025-01-29 11:52:28,2
-812.3999999999996,90.79999999999995,9712.8,-219.4,-87.9,-3.0,2025-01-29 11:52:28,2
-1056.3999999999996,150.79999999999995,10008.8,-145.4,-38.900000000000006,-3.0,2025-01-29 11:52:28,2
-1012.3999999999996,170.79999999999995,10188.8,-119.4,34.099999999999994,-16.0,2025-01-29 11:52:28,2
-1280.3999999999996,150.79999999999995,10036.8,-82.4,139.1,-26.0,2025-01-29 11:52:28,2
-1232.3999999999996,178.79999999999995,9820.8,-39.400000000000006,35.099999999999994,-69.0,2025-01-29 11:52:28,2
-1176.3999999999996,190.79999999999995,9676.8,25.599999999999994,-123.9,-6.0,2025-01-29 11:52:28,2
-1200.3999999999996,250.79999999999995,9960.8,43.6,-124.9,0.0,2025-01-29 11:52:28,2
-1188.3999999999996,130.79999999999995,9908.8,50.6,-134.9,13.0,2025-01-29 11:52:28,2
-1080.3999999999996,298.79999999999995,10020.8,21.599999999999994,-144.9,4.0,2025-01-29 11:52:28,2
-1068.3999999999996,62.79999999999996,10048.8,44.6,-101.9,-34.0,2025-01-29 11:52:28,2
-1112.3999999999996,150.79999999999995,10100.8,75.6,-9.900000000000006,-44.0,2025-01-29 11:52:28,2
-1308.3999999999996,66.79999999999995,10044.8,66.6,56.1,-28.0,2025-01-29 11:52:28,2
-1244.3999999999996,86.79999999999995,9936.8,55.6,35.099999999999994,37.0,2025-01-29 11:52:28,2
-1192.3999999999996,150.79999999999995,9844.8,87.6,-2.9000000000000057,66.0,2025-01-29 11:52:28,2
-1100.3999999999996,94.79999999999995,9904.8,93.6,-31.90000000000001,31.0,2025-01-29 11:52:28,2
-1192.3999999999996,218.79999999999995,9856.8,124.6,-47.900000000000006,20.0,2025-01-29 11:52:28,2
-1088.3999999999996,166.79999999999995,9892.8,131.6,-29.90000000000001,14.0,2025-01-29 11:52:28,2
-1136.3999999999996,238.79999999999995,9948.8,91.6,5.099999999999994,2.0,2025-01-29 11:52:28,2
-1072.3999999999996,214.79999999999995,9960.8,102.6,23.099999999999994,-31.0,2025-01-29 11:52:28,2
-1148.3999999999996,130.79999999999995,9992.8,101.6,14.099999999999994,-61.0,2025-01-29 11:52:28,2
-1160.3999999999996,114.79999999999995,9944.8,90.6,34.099999999999994,-43.0,2025-01-29 11:52:28,2
-1140.3999999999996,130.79999999999995,10008.8,114.6,14.099999999999994,4.0,2025-01-29 11:52:28,2
-1208.3999999999996,158.79999999999995,9868.8,114.6,2.0999999999999943,7.0,2025-01-29 11:52:28,2
-1080.3999999999996,202.79999999999995,10060.8,119.6,32.099999999999994,32.0,2025-01-29 11:52:28,2
-1224.3999999999996,294.79999999999995,10024.8,87.6,53.1,22.0,2025-01-29 11:52:28,2
-1088.3999999999996,210.79999999999995,10040.8,74.6,52.1,55.0,2025-01-29 11:52:28,2
-1156.3999999999996,90.79999999999995,9976.8,77.6,64.1,34.0,2025-01-29 11:52:28,2
-1168.3999999999996,150.79999999999995,9992.8,49.6,52.1,51.0,2025-01-29 11:52:28,2
-1140.3999999999996,90.79999999999995,9988.8,59.6,42.1,71.0,2025-01-29 11:52:28,2
-1144.3999999999996,194.79999999999995,9988.8,31.599999999999994,31.099999999999994,29.0,2025-01-29 11:52:28,2
-1024.3999999999996,194.79999999999995,9964.8,58.6,29.099999999999994,33.0,2025-01-29 11:52:28,2
-1156.3999999999996,142.79999999999995,10040.8,47.6,46.1,62.0,2025-01-29 11:52:28,2
-1196.3999999999996,138.79999999999995,9872.8,29.599999999999994,50.1,44.0,2025-01-29 11:52:28,2
-1192.3999999999996,214.79999999999995,9880.8,26.599999999999994,36.1,39.0,2025-01-29 11:52:28,2
-1060.3999999999996,106.79999999999995,9940.8,24.599999999999994,16.099999999999994,58.0,2025-01-29 11:52:28,2
-1144.3999999999996,126.79999999999995,9880.8,11.599999999999994,-13.900000000000006,84.0,2025-01-29 11:52:28,2
-1156.3999999999996,222.79999999999995,10056.8,-0.4000000000000057,-24.90000000000001,37.0,2025-01-29 11:52:28,2
-1096.3999999999996,126.79999999999995,9916.8,9.599999999999994,5.099999999999994,33.0,2025-01-29 11:52:28,2
-1152.3999999999996,174.79999999999995,9968.8,-3.4000000000000057,-22.90000000000001,53.0,2025-01-29 11:52:29,2
-1184.3999999999996,126.79999999999995,9852.8,-19.40000000000001,-9.900000000000006,64.0,2025-01-29 11:52:29,2
-1160.3999999999996,270.79999999999995,9956.8,-10.400000000000006,6.099999999999994,46.0,2025-01-29 11:52:29,2
-1164.3999999999996,322.79999999999995,9988.8,-5.400000000000006,-8.900000000000006,53.0,2025-01-29 11:52:29,2
-1216.3999999999996,242.79999999999995,10068.8,-0.4000000000000057,5.099999999999994,41.0,2025-01-29 11:52:29,2
-1272.3999999999996,102.79999999999995,9884.8,-8.400000000000006,-21.90000000000001,71.0,2025-01-29 11:52:29,2
-1228.3999999999996,174.79999999999995,10056.8,-22.40000000000001,2.0999999999999943,48.0,2025-01-29 11:52:29,2
-1276.3999999999996,162.79999999999995,9968.8,4.599999999999994,-5.900000000000006,17.0,2025-01-29 11:52:29,2
-1176.3999999999996,174.79999999999995,9856.8,-19.40000000000001,-17.900000000000006,57.0,2025-01-29 11:52:29,2
-1192.3999999999996,170.79999999999995,9896.8,-29.40000000000001,7.099999999999994,64.0,2025-01-29 11:52:29,2
-1140.3999999999996,246.79999999999995,9932.8,-21.40000000000001,-7.900000000000006,80.0,2025-01-29 11:52:29,2
-1212.3999999999996,286.79999999999995,10140.8,-23.40000000000001,-37.900000000000006,79.0,2025-01-29 11:52:29,2
-1184.3999999999996,202.79999999999995,9980.8,-40.400000000000006,35.099999999999994,64.0,2025-01-29 11:52:29,2
-1084.3999999999996,110.79999999999995,10024.8,-60.400000000000006,80.1,80.0,2025-01-29 11:52:29,2
-1224.3999999999996,202.79999999999995,9952.8,-19.40000000000001,36.1,65.0,2025-01-29 11:52:29,2
-1036.3999999999996,270.79999999999995,9936.8,-21.40000000000001,-65.9,111.0,2025-01-29 11:52:29,2
-1112.3999999999996,266.79999999999995,10036.8,-5.400000000000006,-57.900000000000006,42.0,2025-01-29 11:52:29,2
-1236.3999999999996,214.79999999999995,10168.8,-0.4000000000000057,3.0999999999999943,-27.0,2025-01-29 11:52:29,2
-1248.3999999999996,226.79999999999995,9860.8,22.599999999999994,31.099999999999994,-51.0,2025-01-29 11:52:29,2
-1244.3999999999996,234.79999999999995,9592.8,41.6,-152.9,20.0,2025-01-29 11:52:29,2
-1200.3999999999996,218.79999999999995,9836.8,49.6,-200.9,84.0,2025-01-29 11:52:29,2
-1144.3999999999996,270.79999999999995,10024.8,25.599999999999994,-223.9,79.0,2025-01-29 11:52:29,2
-1104.3999999999996,178.79999999999995,9924.8,29.599999999999994,-241.9,115.0,2025-01-29 11:52:29,2
-1080.3999999999996,162.79999999999995,10096.8,42.6,-144.9,58.0,2025-01-29 11:52:29,2
-1116.3999999999996,162.79999999999995,10200.8,36.6,-33.900000000000006,37.0,2025-01-29 11:52:29,2
-1096.3999999999996,218.79999999999995,10100.8,21.599999999999994,19.099999999999994,36.0,2025-01-29 11:52:29,2
-1188.3999999999996,174.79999999999995,10056.8,37.6,-6.900000000000006,55.0,2025-01-29 11:52:29,2
-1228.3999999999996,42.79999999999996,10016.8,28.599999999999994,-65.9,56.0,2025-01-29 11:52:29,2
-1212.3999999999996,226.79999999999995,9896.8,25.599999999999994,-88.9,72.0,2025-01-29 11:52:29,2
-1188.3999999999996,190.79999999999995,10072.8,29.599999999999994,-54.900000000000006,65.0,2025-01-29 11:52:29,2
-1180.3999999999996,154.79999999999995,10024.8,38.6,-59.900000000000006,54.0,2025-01-29 11:52:29,2
-1108.3999999999996,146.79999999999995,10056.8,17.599999999999994,-43.900000000000006,44.0,2025-01-29 11:52:29,2
-1140.3999999999996,194.79999999999995,10024.8,9.599999999999994,-45.900000000000006,-11.0,2025-01-29 11:52:29,2
-1196.3999999999996,178.79999999999995,10112.8,14.599999999999994,7.099999999999994,-7.0,2025-01-29 11:52:29,2
-1236.3999999999996,150.79999999999995,9880.8,48.6,-23.90000000000001,6.0,2025-01-29 11:52:29,2
-1308.3999999999996,130.79999999999995,9944.8,87.6,-26.90000000000001,19.0,2025-01-29 11:52:29,2
-1216.3999999999996,150.79999999999995,9804.8,69.6,-49.900000000000006,9.0,2025-01-29 11:52:29,2
-1112.3999999999996,218.79999999999995,9716.8,58.6,-245.9,-56.0,2025-01-29 11:52:29,2
-1064.3999999999996,294.79999999999995,9816.8,69.6,-326.9,-205.0,2025-01-29 11:52:29,2
-1280.3999999999996,422.8,9976.8,143.6,-294.9,-324.0,2025-01-29 11:52:29,2
-1520.3999999999996,362.8,9896.8,152.6,-294.9,-431.0,2025-01-29 11:52:29,2
-1692.3999999999996,254.79999999999995,9716.8,198.6,-335.9,-409.0,2025-01-29 11:52:29,2
-1072.3999999999996,322.79999999999995,9620.8,143.6,-965.9,-216.0,2025-01-29 11:52:29,2
-712.3999999999996,322.79999999999995,9448.8,144.6,-1441.9,-329.0,2025-01-29 11:52:29,2
-824.3999999999996,118.79999999999995,10104.8,208.6,-1766.9,-342.0,2025-01-29 11:52:29,2
-720.3999999999996,2.7999999999999545,10404.8,275.6,-1558.9,-173.0,2025-01-29 11:52:29,2
-632.3999999999996,118.79999999999995,10668.8,264.6,-1066.9,-62.0,2025-01-29 11:52:29,2
-752.3999999999996,242.79999999999995,11048.8,246.6,-594.9,64.0,2025-01-29 11:52:29,2
-1128.3999999999996,242.79999999999995,10968.8,179.6,-262.9,177.0,2025-01-29 11:52:29,2
-1236.3999999999996,282.79999999999995,10824.8,56.6,-104.9,315.0,2025-01-29 11:52:29,2
-1088.3999999999996,142.79999999999995,10488.8,-23.40000000000001,-18.90000000000001,365.0,2025-01-29 11:52:29,2
-968.3999999999996,-45.200000000000045,10364.8,-96.4,-126.9,336.0,2025-01-29 11:52:29,2
-1036.3999999999996,-293.20000000000005,10272.8,-144.4,-192.9,283.0,2025-01-29 11:52:29,2
-980.3999999999996,-253.20000000000005,10140.8,-180.4,-67.9,291.0,2025-01-29 11:52:29,2
-684.3999999999996,-109.20000000000005,10260.8,-283.4,-127.9,367.0,2025-01-29 11:52:29,2
-304.39999999999964,-49.200000000000045,10272.8,-350.4,57.1,438.0,2025-01-29 11:52:29,2
-244.39999999999964,246.79999999999995,10304.8,-455.4,403.1,329.0,2025-01-29 11:52:29,2
-228.39999999999964,166.79999999999995,10368.8,-428.4,925.1,114.0,2025-01-29 11:52:29,2
-548.3999999999996,74.79999999999995,10520.8,-465.4,1187.1,-59.0,2025-01-29 11:52:29,2
-876.3999999999996,-145.20000000000005,10268.8,-519.4,1236.1,-5.0,2025-01-29 11:52:30,2
-736.3999999999996,70.79999999999995,10372.8,-571.4,1462.1,57.0,2025-01-29 11:52:30,2
-876.3999999999996,130.79999999999995,10940.8,-419.4,1975.1,169.0,2025-01-29 11:52:30,2
-820.3999999999996,326.79999999999995,10136.8,-673.4,2607.1,220.0,2025-01-29 11:52:30,2
-472.3999999999997,702.8,9672.8,-770.4,3336.1,280.0,2025-01-29 11:52:30,2
-844.3999999999996,478.8,9944.8,-932.4,4133.1,217.0,2025-01-29 11:52:30,2
-1012.3999999999996,290.79999999999995,10132.8,-1005.4,5078.1,156.0,2025-01-29 11:52:30,2
-1356.3999999999996,162.79999999999995,10196.8,-858.4,6250.1,-38.0,2025-01-29 11:52:30,2
-1196.3999999999996,78.79999999999995,9676.8,-593.4,6615.1,-46.0,2025-01-29 11:52:30,2
-2280.4,42.79999999999996,9632.8,-521.4,6423.1,372.0,2025-01-29 11:52:30,2
-2324.4,70.79999999999995,9760.8,-727.4,6098.1,976.0,2025-01-29 11:52:30,2
-1688.3999999999996,530.8,9064.8,-915.4,5434.1,1569.0,2025-01-29 11:52:30,2
-1800.3999999999996,1482.8,9056.8,-1159.4,5120.1,2047.0,2025-01-29 11:52:30,2
-1452.3999999999996,1942.8,9688.8,-1128.4,5927.1,2116.0,2025-01-29 11:52:30,2
-1752.3999999999996,1194.8,9992.8,-686.4,6831.1,2220.0,2025-01-29 11:52:30,2
-2864.4,-1.2000000000000457,9012.8,-487.4,7628.1,2061.0,2025-01-29 11:52:30,2
-2656.4,-429.2000000000001,8696.8,-326.4,7608.1,1911.0,2025-01-29 11:52:30,2
-2168.4,-321.20000000000005,7524.8,-323.4,7257.1,1882.0,2025-01-29 11:52:30,2
-1740.3999999999996,1110.8,6940.8,-760.4,7768.1,2419.0,2025-01-29 11:52:30,2
-1100.3999999999996,1054.8,7592.8,-1048.4,8823.1,2383.0,2025-01-29 11:52:30,2
-1300.3999999999996,138.79999999999995,7332.8,-1073.4,10581.1,1832.0,2025-01-29 11:52:30,2
-2012.4,-973.2,7036.8,-780.4,13992.1,740.0,2025-01-29 11:52:30,2
-3716.4,-849.2,6536.8,-127.4,16670.1,116.0,2025-01-29 11:52:30,2
-5184.4,574.8,5112.8,-63.400000000000006,18714.1,-97.0,2025-01-29 11:52:30,2
-4516.4,1402.8,5116.8,-389.4,18587.1,-97.0,2025-01-29 11:52:30,2
-13920.4,1566.8,4400.8,-391.4,16877.1,414.0,2025-01-29 11:52:30,2
-4428.4,294.79999999999995,4492.8,-435.4,15308.1,217.0,2025-01-29 11:52:30,2
-4368.4,218.79999999999995,3860.8,150.6,14110.1,-269.0,2025-01-29 11:52:30,2
-5280.4,562.8,2096.8,436.6,13215.1,-383.0,2025-01-29 11:52:30,2
-4896.4,730.8,1656.8000000000002,551.6,11667.1,78.0,2025-01-29 11:52:30,2
-3516.4,962.8,1864.8,631.6,10118.1,501.0,2025-01-29 11:52:30,2
-2636.4,1094.8,544.8000000000002,993.6,9312.1,430.0,2025-01-29 11:52:30,2
-2152.4,1058.8,-479.1999999999998,1390.6,8548.1,178.0,2025-01-29 11:52:30,2
-1648.3999999999996,934.8,-947.1999999999998,1566.6,8499.1,-15.0,2025-01-29 11:52:30,2
-1848.4,930.8,-1075.1999999999998,1699.6,8363.1,83.0,2025-01-29 11:52:30,2
-1624.3999999999996,1074.8,-1027.1999999999998,1826.6,7957.1,217.0,2025-01-29 11:52:30,2
-1288.3999999999996,1286.8,-955.1999999999998,1889.6,7456.1,332.0,2025-01-29 11:52:30,2
-44.39999999999964,1506.8,-1439.1999999999998,1874.6,6425.1,136.0,2025-01-29 11:52:30,2
1239.6000000000004,1806.8,-1607.1999999999998,1911.6,5488.1,-245.0,2025-01-29 11:52:30,2
1303.6000000000004,1546.8,-1799.1999999999998,1810.6,5449.1,-621.0,2025-01-29 11:52:30,2
655.6000000000004,1618.8,-1355.1999999999998,1548.6,6076.1,-860.0,2025-01-29 11:52:30,2
679.6000000000004,1462.8,-1339.1999999999998,1105.6,7325.1,-783.0,2025-01-29 11:52:30,2
1411.6000000000004,694.8,-1675.1999999999998,663.6,7654.1,-653.0,2025-01-29 11:52:30,2
1575.6000000000004,326.79999999999995,-1779.1999999999998,492.6,7718.1,-358.0,2025-01-29 11:52:30,2
2351.6000000000004,82.79999999999995,-1735.1999999999998,553.6,7993.1,-304.0,2025-01-29 11:52:30,2
2567.6000000000004,498.8,-2795.2,669.6,8004.1,-506.0,2025-01-29 11:52:30,2
2271.6000000000004,874.8,-3607.2,737.6,7266.1,-752.0,2025-01-29 11:52:30,2
1815.6000000000004,762.8,-4079.2,623.6,6204.1,-867.0,2025-01-29 11:52:30,2
1963.6000000000004,938.8,-4631.2,267.6,4701.1,-763.0,2025-01-29 11:52:30,2
1879.6000000000004,1094.8,-4239.2,16.599999999999994,3273.1,-460.0,2025-01-29 11:52:30,2
2923.6000000000004,858.8,-4239.2,-277.4,1841.1,-300.0,2025-01-29 11:52:30,2
3199.6000000000004,870.8,-3959.2,-424.4,653.1,-136.0,2025-01-29 11:52:30,2
3059.6000000000004,506.8,-2947.2,-495.4,1257.1,-292.0,2025-01-29 11:52:30,2
2883.6000000000004,230.79999999999995,-3135.2,-638.4,2655.1,-642.0,2025-01-29 11:52:30,2
2907.6000000000004,-77.20000000000005,-3243.2,-656.4,2848.1,-958.0,2025-01-29 11:52:30,2
2459.6000000000004,-53.200000000000045,-3991.2,-655.4,1972.1,-1183.0,2025-01-29 11:52:30,2
1863.6000000000004,286.79999999999995,-4095.2,-442.4,687.1,-1305.0,2025-01-29 11:52:30,2
-4228.4,-805.2,-4199.2,-199.4,-1724.9,-891.0,2025-01-29 11:52:30,2
2115.6000000000004,-29.200000000000045,-4067.2,-17.400000000000006,78.1,-1287.0,2025-01-29 11:52:30,2
1887.6000000000004,-169.20000000000005,-4107.2,229.6,-222.9,-1378.0,2025-01-29 11:52:30,2
1655.6000000000004,-257.20000000000005,-3883.2,574.6,-485.9,-1332.0,2025-01-29 11:52:30,1
1775.6000000000004,-297.20000000000005,-4015.2,615.6,-586.9,-1260.0,2025-01-29 11:52:31,1
1367.6000000000004,-93.20000000000005,-3911.2,613.6,-1601.9,-1196.0,2025-01-29 11:52:31,1
879.6000000000004,154.79999999999995,-3527.2,850.6,-3474.9,-1030.0,2025-01-29 11:52:31,1
1959.6000000000004,114.79999999999995,-4139.2,719.6,-5183.9,-812.0,2025-01-29 11:52:31,1
2175.6000000000004,170.79999999999995,-4123.2,614.6,-6663.9,-632.0,2025-01-29 11:52:31,1
1407.6000000000004,-157.20000000000005,-3703.2,505.6,-7006.9,-345.0,2025-01-29 11:52:31,1
1571.6000000000004,-561.2,-3063.2,508.6,-7364.9,-244.0,2025-01-29 11:52:31,1
1111.6000000000004,-757.2,-2395.2,525.6,-7846.9,-290.0,2025-01-29 11:52:31,1
1983.6000000000004,-597.2,-2559.2,634.6,-8348.9,-359.0,2025-01-29 11:52:31,1
731.6000000000004,-465.2000000000001,-1943.2,757.6,-6150.9,-651.0,2025-01-29 11:52:31,1
495.6000000000004,-377.2000000000001,-1495.1999999999998,757.6,-6198.9,-723.0,2025-01-29 11:52:31,1
811.6000000000004,-485.2000000000001,-927.1999999999998,831.6,-7306.9,-863.0,2025-01-29 11:52:31,1
1051.6000000000004,-873.2,-1191.1999999999998,760.6,-8579.9,-1128.0,2025-01-29 11:52:31,1
1275.6000000000004,-1037.2,-379.1999999999998,565.6,-10235.9,-1373.0,2025-01-29 11:52:31,1
1895.6000000000004,-1141.2,-7.199999999999818,482.6,-11477.9,-1643.0,2025-01-29 11:52:31,1
2035.6000000000004,-1261.2,392.8000000000002,437.6,-11714.9,-1821.0,2025-01-29 11:52:31,1
2323.6000000000004,-1277.2,296.8000000000002,256.6,-10446.9,-1411.0,2025-01-29 11:52:31,1
2231.6000000000004,-957.2,872.8000000000002,224.6,-8656.9,-727.0,2025-01-29 11:52:31,1
2855.6000000000004,-941.2,800.8000000000002,234.6,-7039.9,-108.0,2025-01-29 11:52:31,1
3587.6000000000004,-1253.2,472.8000000000002,248.6,-5359.9,327.0,2025-01-29 11:52:31,1
3463.6000000000004,-1877.2,1112.8000000000002,803.6,-4039.9,642.0,2025-01-29 11:52:31,1
3799.6,-2513.2,-1443.1999999999998,1143.6,-2374.9,893.0,2025-01-29 11:52:31,1
4471.6,-2613.2,-3699.2,1115.6,-491.9,935.0,2025-01-29 11:52:31,1
4615.6,-933.2,-4183.2,730.6,359.1,1017.0,2025-01-29 11:52:31,1
5291.6,1570.8,-2755.2,-26.40000000000001,-810.9,1560.0,2025-01-29 11:52:31,1
4151.6,3994.8,-1859.2,-961.4,-1468.9,2471.0,2025-01-29 11:52:31,1
3979.6,5506.8,-1635.1999999999998,-2158.4,248.1,3103.0,2025-01-29 11:52:31,1
4175.6,5342.8,-547.1999999999998,-4246.4,4981.1,2222.0,2025-01-29 11:52:31,1
4179.6,2862.8,1276.8000000000002,-4514.4,7560.1,89.0,2025-01-29 11:52:31,1
2867.6000000000004,362.8,2588.8,-3645.4,7788.1,-1625.0,2025-01-29 11:52:31,1
327.6000000000004,-1305.2,2764.8,-2004.4,8919.1,-2335.0,2025-01-29 11:52:31,1
-1708.3999999999996,-1673.2,1756.8000000000002,-1150.4,9967.1,-1790.0,2025-01-29 11:52:31,1
-3380.4,-501.2000000000001,1300.8000000000002,-565.4,9774.1,-287.0,2025-01-29 11:52:31,1
-4636.4,1142.8,128.80000000000018,-57.400000000000006,5548.1,1284.0,2025-01-29 11:52:31,1
423.6000000000004,1310.8,-3063.2,-140.4,4093.1,2290.0,2025-01-29 11:52:31,1
-1384.3999999999996,1938.8,-827.1999999999998,172.6,-1293.9,2457.0,2025-01-29 11:52:31,1
107.60000000000036,862.8,784.8000000000002,600.6,-5763.9,1083.0,2025-01-29 11:52:31,1
615.6000000000004,62.79999999999996,2196.8,1234.6,-5838.9,461.0,2025-01-29 11:52:31,1
1647.6000000000004,-177.20000000000005,2548.8,2016.6,-4917.9,215.0,2025-01-29 11:52:31,1
2463.6000000000004,90.79999999999995,2160.8,2598.6,-3620.9,35.0,2025-01-29 11:52:31,1
2779.6000000000004,898.8,1592.8000000000002,2921.6,-1835.9,22.0,2025-01-29 11:52:31,1
2227.6000000000004,2198.8,1072.8000000000002,2842.6,1050.1,2.0,2025-01-29 11:52:31,1
1143.6000000000004,3234.8,1208.8000000000002,2452.6,3083.1,-333.0,2025-01-29 11:52:31,1
-252.39999999999964,3338.8,496.8000000000002,1813.6,2880.1,-797.0,2025-01-29 11:52:31,1
-956.3999999999996,3294.8,-163.19999999999982,1293.6,1322.1,-1032.0,2025-01-29 11:52:31,1
-1056.3999999999996,2770.8,-347.1999999999998,706.6,-868.9,-1211.0,2025-01-29 11:52:31,1
-1104.3999999999996,2518.8,132.80000000000018,90.6,-2293.9,-1123.0,2025-01-29 11:52:31,1
-736.3999999999996,2030.8,1340.8000000000002,-150.4,-2827.9,-975.0,2025-01-29 11:52:31,1
-416.3999999999997,1862.8,1440.8000000000002,-316.4,-2657.9,-945.0,2025-01-29 11:52:31,1
-292.39999999999964,2130.8,1344.8000000000002,-603.4,-2295.9,-964.0,2025-01-29 11:52:31,1
-1320.3999999999996,2566.8,1972.8,-794.4,-1462.9,-679.0,2025-01-29 11:52:31,1
-2316.4,2458.8,2696.8,-1028.4,-439.9,108.0,2025-01-29 11:52:31,1
-2736.4,246.79999999999995,4644.8,-23.40000000000001,33.099999999999994,921.0,2025-01-29 11:52:31,1
-2136.4,-1273.2,3444.8,1384.6,-11.900000000000006,488.0,2025-01-29 11:52:31,1
-2560.4,-1781.2,1064.8000000000002,2422.6,1776.1,106.0,2025-01-29 11:52:31,1
-3872.4,-709.2,-1143.1999999999998,2809.6,4884.1,550.0,2025-01-29 11:52:31,1
-4548.4,1466.8,-3607.2,2005.6,7552.1,1465.0,2025-01-29 11:52:31,1
-5904.4,4430.8,-7263.2,-68.4,9070.1,2964.0,2025-01-29 11:52:31,1
-9924.4,7930.8,-7323.2,-2835.4,4972.1,4551.0,2025-01-29 11:52:31,1
335.6000000000004,6742.8,-4459.2,-3945.4,-999.9,1971.0,2025-01-29 11:52:32,1
4535.6,3678.8,-3171.2,-3320.4,-7592.9,-3132.0,2025-01-29 11:52:32,1
4683.6,1462.8,-2747.2,-2247.4,-10603.9,-6765.0,2025-01-29 11:52:32,1
4467.6,-1113.2,-1199.1999999999998,-1393.4,-10751.9,-7515.0,2025-01-29 11:52:32,1
4343.6,-2289.2,-359.1999999999998,-1205.4,-7744.9,-6174.0,2025-01-29 11:52:32,1
4499.6,-1853.2,-1631.1999999999998,-1819.4,-3006.9,-4128.0,2025-01-29 11:52:32,1
5131.6,-601.2,-2439.2,-2942.4,1939.1,-3108.0,2025-01-29 11:52:32,1
3923.6,-765.2,-2007.2,-3903.4,4925.1,-3579.0,2025-01-29 11:52:32,1
2315.6000000000004,-1337.2,-419.1999999999998,-3938.4,5933.1,-3956.0,2025-01-29 11:52:32,1
307.6000000000004,-2049.2,-515.1999999999998,-3391.4,6096.1,-4251.0,2025-01-29 11:52:32,1
-1148.3999999999996,-2597.2,-1039.1999999999998,-3103.4,4775.1,-4497.0,2025-01-29 11:52:32,1
-1232.3999999999996,-2693.2,-1731.1999999999998,-2502.4,1720.1,-4626.0,2025-01-29 11:52:32,1
-1932.4,-2533.2,-1287.1999999999998,-1766.4,-2241.9,-3846.0,2025-01-29 11:52:32,1
-912.3999999999996,-1945.2,-1419.1999999999998,-1645.4,-4324.9,-2853.0,2025-01-29 11:52:32,1
1339.6000000000004,-941.2,-1355.1999999999998,-1768.4,-4989.9,-2682.0,2025-01-29 11:52:32,1
2795.6000000000004,-257.20000000000005,-2019.2,-2065.4,-4581.9,-2901.0,2025-01-29 11:52:32,1
3731.6,142.79999999999995,-2159.2,-2859.4,-2632.9,-3136.0,2025-01-29 11:52:32,1
3695.6,-197.20000000000005,-1551.1999999999998,-3907.4,808.1,-3601.0,2025-01-29 11:52:32,1
3191.6000000000004,-845.2,-255.19999999999985,-4504.4,2580.1,-4155.0,2025-01-29 11:52:32,1
2043.6000000000004,-1589.2,-503.1999999999998,-4703.4,2960.1,-4509.0,2025-01-29 11:52:32,1
891.6000000000004,-2161.2,-647.1999999999998,-4786.4,2875.1,-4678.0,2025-01-29 11:52:32,1
211.6000000000004,-2317.2,-1059.1999999999998,-4904.4,2404.1,-4530.0,2025-01-29 11:52:32,1
-276.39999999999964,-1797.2,-683.1999999999998,-5109.4,1623.1,-4079.0,2025-01-29 11:52:32,1
-124.39999999999964,-1161.2,-723.1999999999998,-5362.4,606.1,-3584.0,2025-01-29 11:52:32,1
379.6000000000004,-857.2,-575.1999999999998,-5741.4,-400.9,-3339.0,2025-01-29 11:52:32,1
695.6000000000004,-773.2,52.80000000000018,-6026.4,-962.9,-2916.0,2025-01-29 11:52:32,1
1303.6000000000004,-1205.2,-7.199999999999818,-6197.4,-840.9,-2494.0,2025-01-29 11:52:32,1
2155.6000000000004,-2029.2,220.80000000000015,-6209.4,-19.90000000000001,-2206.0,2025-01-29 11:52:32,1
2351.6000000000004,-2649.2,-191.19999999999985,-5956.4,743.1,-1954.0,2025-01-29 11:52:32,1
2555.6000000000004,-2745.2,-67.19999999999982,-5773.4,1583.1,-1733.0,2025-01-29 11:52:32,1
2639.6000000000004,-2217.2,-367.1999999999998,-5652.4,2471.1,-1993.0,2025-01-29 11:52:32,1
1471.6000000000004,-1461.2,-403.1999999999998,-5641.4,3155.1,-2290.0,2025-01-29 11:52:32,1
291.6000000000004,-681.2,-615.1999999999998,-5775.4,3556.1,-2122.0,2025-01-29 11:52:32,1
-160.39999999999964,-593.2,-1019.1999999999998,-5986.4,3551.1,-1914.0,2025-01-29 11:52:32,1
-432.3999999999997,-817.2,-919.1999999999998,-6196.4,3142.1,-2174.0,2025-01-29 11:52:32,1
-472.3999999999997,-1441.2,-1259.1999999999998,-6251.4,2109.1,-2651.0,2025-01-29 11:52:32,1
-760.3999999999996,-1549.2,-1971.2,-5800.4,525.1,-3305.0,2025-01-29 11:52:32,1
-1144.3999999999996,-1669.2,-2051.2,-5501.4,-769.9,-3710.0,2025-01-29 11:52:32,1
-1496.3999999999996,-1365.2,-1279.1999999999998,-5750.4,-1440.9,-3917.0,2025-01-29 11:52:32,1
-1800.3999999999996,-1001.2,-431.1999999999998,-6275.4,-1687.9,-4059.0,2025-01-29 11:52:32,1
-2060.4,-729.2,348.8000000000002,-6801.4,-1743.9,-4335.0,2025-01-29 11:52:32,1
-2320.4,-1201.2,152.80000000000018,-7213.4,-1542.9,-4676.0,2025-01-29 11:52:32,1
-1808.4,-2889.2,-1807.2,-6783.4,-870.9,-5375.0,2025-01-29 11:52:32,1
-1680.3999999999996,-5005.2,-2151.2,-6012.4,8.099999999999994,-6043.0,2025-01-29 11:52:32,1
-2408.4,-6053.2,-1743.1999999999998,-4806.4,225.1,-6425.0,2025-01-29 11:52:32,1
-4472.4,-5221.2,-1675.1999999999998,-3665.4,-1067.9,-5199.0,2025-01-29 11:52:32,1
-5600.4,-3413.2,-2919.2,-3229.4,-3648.9,-2102.0,2025-01-29 11:52:32,1
-2992.4,-1989.2,-4119.2,-3288.4,-6881.9,598.0,2025-01-29 11:52:32,1
767.6000000000004,-2169.2,-4535.2,-2960.4,-8635.9,1009.0,2025-01-29 11:52:32,1
4203.6,-2233.2,-4515.2,-2920.4,-8991.9,-267.0,2025-01-29 11:52:32,1
5991.6,-1541.2,-3795.2,-3231.4,-8605.9,-1331.0,2025-01-29 11:52:32,1
6471.6,-37.200000000000045,-2967.2,-3548.4,-7453.9,-1764.0,2025-01-29 11:52:32,1
5903.6,1530.8,-3079.2,-3967.4,-4752.9,-1363.0,2025-01-29 11:52:32,1
4899.6,2546.8,-4203.2,-5152.4,1388.1,-447.0,2025-01-29 11:52:32,1
4295.6,2070.8,-4127.2,-6298.4,6185.1,-563.0,2025-01-29 11:52:32,1
2459.6000000000004,782.8,-2815.2,-6332.4,8801.1,-1162.0,2025-01-29 11:52:32,1
435.6000000000004,-401.2000000000001,-1567.1999999999998,-5901.4,9331.1,-1306.0,2025-01-29 11:52:32,1
-1376.3999999999996,-1717.2,-531.1999999999998,-5218.4,8461.1,-893.0,2025-01-29 11:52:32,1
-1940.4,-2917.2,-759.1999999999998,-4433.4,5371.1,-238.0,2025-01-29 11:52:32,1
-2620.4,-2997.2,-1299.1999999999998,-3356.4,1588.1,670.0,2025-01-29 11:52:32,1
-1956.4,-1945.2,-1999.2,-2275.4,-1844.9,1522.0,2025-01-29 11:52:32,1
-940.3999999999996,-413.2000000000001,-2243.2,-2019.4,-4074.9,1834.0,2025-01-29 11:52:33,1
291.6000000000004,822.8,-1351.1999999999998,-1767.4,-4948.9,1898.0,2025-01-29 11:52:33,1
2019.6000000000004,1498.8,-1415.1999999999998,-1645.4,-5270.9,1791.0,2025-01-29 11:52:33,1
2755.6000000000004,1666.8,-275.1999999999998,-1829.4,-4110.9,1489.0,2025-01-29 11:52:33,1
3155.6000000000004,1386.8,268.8000000000002,-2077.4,-1842.9,1073.0,2025-01-29 11:52:33,1
3239.6000000000004,1158.8,484.8000000000002,-2255.4,622.1,507.0,2025-01-29 11:52:33,1
2343.6000000000004,594.8,504.8000000000002,-2200.4,1875.1,187.0,2025-01-29 11:52:33,1
1599.6000000000004,-357.20000000000005,580.8000000000002,-1988.4,1970.1,239.0,2025-01-29 11:52:33,1
1259.6000000000004,-681.2,1024.8000000000002,-1444.4,1023.1,-8.0,2025-01-29 11:52:33,1
1043.6000000000004,-429.2000000000001,724.8000000000002,-874.4,-505.9,-319.0,2025-01-29 11:52:33,1
1167.6000000000004,258.79999999999995,452.8000000000002,-408.4,-1987.9,-697.0,2025-01-29 11:52:33,1
1203.6000000000004,190.79999999999995,1124.8000000000002,34.599999999999994,-2647.9,-942.0,2025-01-29 11:52:33,1
1215.6000000000004,38.79999999999996,1708.8000000000002,597.6,-2756.9,-1112.0,2025-01-29 11:52:33,1
1311.6000000000004,82.79999999999995,1368.8000000000002,905.6,-2567.9,-1111.0,2025-01-29 11:52:33,1
1195.6000000000004,-25.200000000000045,1384.8000000000002,1075.6,-2151.9,-1028.0,2025-01-29 11:52:33,1
1311.6000000000004,-329.20000000000005,1572.8000000000002,1281.6,-1554.9,-935.0,2025-01-29 11:52:33,1
1079.6000000000004,170.79999999999995,1684.8000000000002,1379.6,-944.9,-988.0,2025-01-29 11:52:33,1
563.6000000000004,458.8,1276.8000000000002,1365.6,-607.9,-764.0,2025-01-29 11:52:33,1
395.6000000000004,778.8,-107.19999999999982,1375.6,88.1,-353.0,2025-01-29 11:52:33,1
-236.39999999999964,682.8,-279.1999999999998,967.6,969.1,127.0,2025-01-29 11:52:33,1
-1400.3999999999996,134.79999999999995,344.8000000000002,911.6,2273.1,889.0,2025-01-29 11:52:33,1
-2592.4,-853.2,316.8000000000002,1165.6,3075.1,1890.0,2025-01-29 11:52:33,1
-2788.4,-1853.2,-219.19999999999985,1437.6,2830.1,2520.0,2025-01-29 11:52:33,1
-3300.4,-465.2000000000001,-231.19999999999985,1912.6,1370.1,3233.0,2025-01-29 11:52:33,1
-3820.4,882.8,972.8000000000002,2235.6,192.1,4249.0,2025-01-29 11:52:33,1
-2664.4,1350.8,2128.8,2916.6,-224.9,4102.0,2025-01-29 11:52:33,1
-1968.4,230.79999999999995,916.8000000000002,3502.6,17.099999999999994,3121.0,2025-01-29 11:52:33,1
-1632.3999999999996,406.8,-1599.1999999999998,4117.6,1140.1,2667.0,2025-01-29 11:52:33,1
-2356.4,1950.8,-3439.2,3592.6,2583.1,2845.0,2025-01-29 11:52:33,1
-2512.4,3662.8,-4059.2,2564.6,3732.1,3124.0,2025-01-29 11:52:33,1
-2804.4,4794.8,-4111.2,784.6,4053.1,2976.0,2025-01-29 11:52:33,1
-1892.4,4998.8,-3975.2,-486.4,1787.1,1397.0,2025-01-29 11:52:33,1
-664.3999999999996,4210.8,-5071.2,-652.4,-1479.9,-666.0,2025-01-29 11:52:33,1
-112.39999999999964,2242.8,-5743.2,-1235.4,-4161.9,-1746.0,2025-01-29 11:52:33,1
1595.6000000000004,422.8,-3407.2,-1104.4,-6167.9,-1892.0,2025-01-29 11:52:33,1
3035.6000000000004,-1241.2,-1535.1999999999998,-182.4,-7627.9,-1797.0,2025-01-29 11:52:33,1
4811.6,-2889.2,-411.1999999999998,820.6,-7855.9,-1625.0,2025-01-29 11:52:33,1
5627.6,-3817.2,-567.1999999999998,1644.6,-5170.9,-1362.0,2025-01-29 11:52:33,1
5119.6,-3533.2,-2191.2,1582.6,-51.900000000000006,-995.0,2025-01-29 11:52:33,1
4807.6,-2461.2,-2511.2,1166.6,4776.1,-1001.0,2025-01-29 11:52:33,1
3259.6000000000004,-1045.2,-2159.2,705.6,6712.1,-1426.0,2025-01-29 11:52:33,1
663.6000000000004,298.79999999999995,-2091.2,91.6,6297.1,-2117.0,2025-01-29 11:52:33,1
-724.3999999999996,686.8,-2087.2,-795.4,4633.1,-2963.0,2025-01-29 11:52:33,1
-1544.3999999999996,462.8,-1531.1999999999998,-1539.4,1506.1,-4021.0,2025-01-29 11:52:33,1
-1764.3999999999996,-269.20000000000005,-1307.1999999999998,-1668.4,-2032.9,-4885.0,2025-01-29 11:52:33,1
-1396.3999999999996,-825.2,-1363.1999999999998,-1834.4,-4261.9,-4877.0,2025-01-29 11:52:33,1
319.6000000000004,-1193.2,-575.1999999999998,-2166.4,-5883.9,-4516.0,2025-01-29 11:52:33,1
2439.6000000000004,-1477.2,-271.1999999999998,-2517.4,-6625.9,-4403.0,2025-01-29 11:52:33,1
3719.6,-1565.2,-367.1999999999998,-2840.4,-5533.9,-4361.0,2025-01-29 11:52:33,1
4663.6,-1705.2,-643.1999999999998,-3406.4,-2474.9,-4500.0,2025-01-29 11:52:33,1
5007.6,-1817.2,-971.1999999999998,-3997.4,346.1,-4689.0,2025-01-29 11:52:33,1
4523.6,-1949.2,-515.1999999999998,-4416.4,2739.1,-4875.0,2025-01-29 11:52:33,1
2523.6000000000004,-1865.2,-23.199999999999815,-4399.4,4762.1,-4665.0,2025-01-29 11:52:33,1
1155.6000000000004,-2349.2,-235.19999999999985,-4403.4,5570.1,-4476.0,2025-01-29 11:52:33,1
-120.39999999999964,-2981.2,100.80000000000018,-4256.4,4999.1,-4435.0,2025-01-29 11:52:33,1
-1052.3999999999996,-3805.2,564.8000000000002,-3912.4,3217.1,-4045.0,2025-01-29 11:52:33,1
-2032.4,-4021.2,516.8000000000002,-3503.4,876.1,-2855.0,2025-01-29 11:52:33,1
-784.3999999999996,-3449.2,732.8000000000002,-2750.4,-1141.9,-1208.0,2025-01-29 11:52:33,1
1207.6000000000004,-1945.2,496.8000000000002,-2719.4,-1659.9,-699.0,2025-01-29 11:52:33,1
1371.6000000000004,-1381.2,1044.8000000000002,-3035.4,-1276.9,-467.0,2025-01-29 11:52:34,1
1843.6000000000004,-1133.2,732.8000000000002,-3480.4,-429.9,-318.0,2025-01-29 11:52:34,1
1739.6000000000004,-1473.2,472.8000000000002,-3902.4,316.1,-244.0,2025-01-29 11:52:34,1
2107.6000000000004,-1821.2,404.8000000000002,-3808.4,592.1,-256.0,2025-01-29 11:52:34,1
2095.6000000000004,-2581.2,-255.19999999999985,-3615.4,1160.1,-547.0,2025-01-29 11:52:34,1
1827.6000000000004,-2821.2,-459.1999999999998,-3273.4,2006.1,-453.0,2025-01-29 11:52:34,1
915.6000000000004,-3477.2,-335.1999999999998,-2881.4,2924.1,-152.0,2025-01-29 11:52:34,1
-228.39999999999964,-3785.2,-131.19999999999982,-2721.4,3547.1,-234.0,2025-01-29 11:52:34,1
-1412.3999999999996,-3289.2,436.8000000000002,-2750.4,3210.1,-728.0,2025-01-29 11:52:34,1
-2876.4,-2081.2,524.8000000000002,-2789.4,2422.1,-1379.0,2025-01-29 11:52:34,1
-2892.4,-1193.2,-2707.2,-2624.4,2131.1,-3307.0,2025-01-29 11:52:34,1
-3032.4,-1533.2,-5215.2,-2209.4,2016.1,-5246.0,2025-01-29 11:52:34,1
-3828.4,-4185.2,-5019.2,-1530.4,885.1,-6229.0,2025-01-29 11:52:34,1
-4968.4,-7077.2,-3159.2,-591.4,-653.9,-5620.0,2025-01-29 11:52:34,1
-5708.4,-8585.2,-2743.2,518.6,-2430.9,-2901.0,2025-01-29 11:52:34,1
-6008.4,-7421.2,-3135.2,1262.6,-4296.9,2099.0,2025-01-29 11:52:34,1
-440.3999999999997,-3721.2,-4751.2,1290.6,-6261.9,4610.0,2025-01-29 11:52:34,1
1783.6000000000004,-1121.2,-5047.2,681.6,-7782.9,4697.0,2025-01-29 11:52:34,1
4251.6,782.8,-4559.2,-63.400000000000006,-8882.9,4380.0,2025-01-29 11:52:34,1
5999.6,1998.8,-3751.2,-627.4,-8742.9,3630.0,2025-01-29 11:52:34,1
7171.6,2626.8,-3571.2,-979.4,-6604.9,2265.0,2025-01-29 11:52:34,1
7375.6,1702.8,-3059.2,-1248.4,-2909.9,236.0,2025-01-29 11:52:34,1
5223.6,-233.20000000000005,-2027.2,-1593.4,1508.1,-1279.0,2025-01-29 11:52:34,1
2315.6000000000004,-1253.2,-127.19999999999982,-1711.4,4662.1,-1008.0,2025-01-29 11:52:34,1
319.6000000000004,-1985.2,252.80000000000015,-1208.4,6155.1,-270.0,2025-01-29 11:52:34,1
-1000.3999999999996,-2013.2,-967.1999999999998,-845.4,5932.1,515.0,2025-01-29 11:52:34,1
-2476.4,-1045.2,-2039.2,-958.4,3489.1,1480.0,2025-01-29 11:52:34,1
-2976.4,398.8,-2043.2,-941.4,149.1,2558.0,2025-01-29 11:52:34,1
-1904.4,1530.8,-1855.2,-1065.4,-3245.9,3252.0,2025-01-29 11:52:34,1
131.60000000000036,1426.8,-1255.1999999999998,-928.4,-5121.9,2921.0,2025-01-29 11:52:34,1
1755.6000000000004,766.8,-1215.1999999999998,-809.4,-5986.9,2049.0,2025-01-29 11:52:34,1
2471.6000000000004,-393.2000000000001,104.80000000000018,-627.4,-5648.9,1530.0,2025-01-29 11:52:34,1
3251.6000000000004,-1309.2,1076.8000000000002,-24.40000000000001,-3610.9,1827.0,2025-01-29 11:52:34,1
3147.6000000000004,-1289.2,1396.8000000000002,575.6,-928.9,2286.0,2025-01-29 11:52:34,1
2939.6000000000004,-801.2,1076.8000000000002,1176.6,1874.1,2420.0,2025-01-29 11:52:34,1
1951.6000000000004,22.799999999999955,580.8000000000002,1653.6,3251.1,2530.0,2025-01-29 11:52:34,1
1087.6000000000004,198.79999999999995,-87.19999999999982,1960.6,3162.1,2697.0,2025-01-29 11:52:34,1
719.6000000000004,222.79999999999995,144.80000000000018,2083.6,1926.1,2614.0,2025-01-29 11:52:34,1
827.6000000000004,2.7999999999999545,364.8000000000002,2308.6,461.1,2235.0,2025-01-29 11:52:34,1
1111.6000000000004,66.79999999999995,516.8000000000002,2731.6,-690.9,1716.0,2025-01-29 11:52:34,1
1851.6000000000004,122.79999999999995,640.8000000000002,2983.6,-1081.9,1098.0,2025-01-29 11:52:34,1
1647.6000000000004,242.79999999999995,852.8000000000002,3160.6,-721.9,649.0,2025-01-29 11:52:34,1
1479.6000000000004,270.79999999999995,912.8000000000002,3255.6,-126.9,493.0,2025-01-29 11:52:34,1
1243.6000000000004,350.79999999999995,720.8000000000002,3293.6,32.099999999999994,392.0,2025-01-29 11:52:34,1
911.6000000000004,426.8,436.8000000000002,3392.6,-348.9,395.0,2025-01-29 11:52:34,1
595.6000000000004,258.79999999999995,532.8000000000002,3495.6,-809.9,346.0,2025-01-29 11:52:34,1
399.6000000000004,106.79999999999995,948.8000000000002,3861.6,-1368.9,239.0,2025-01-29 11:52:34,1
347.6000000000004,-73.20000000000005,1384.8000000000002,4355.6,-1659.9,91.0,2025-01-29 11:52:34,1
-640.3999999999996,-1297.2,1848.8,5486.6,1162.1,1344.0,2025-01-29 11:52:34,1
-1420.3999999999996,-1549.2,1828.8,5874.6,2798.1,2129.0,2025-01-29 11:52:34,1
-2144.4,-1441.2,1568.8000000000002,6016.6,3562.1,2588.0,2025-01-29 11:52:34,1
-2864.4,-453.2000000000001,1164.8000000000002,6053.6,3089.1,2881.0,2025-01-29 11:52:34,1
-3132.4,1218.8,608.8000000000002,5942.6,1350.1,3110.0,2025-01-29 11:52:34,1
-2396.4,2782.8,680.8000000000002,5747.6,-923.9,2700.0,2025-01-29 11:52:34,1
-1940.4,3314.8,-1203.1999999999998,5082.6,-1627.9,2113.0,2025-01-29 11:52:34,1
-2128.4,1942.8,-3687.2,3347.6,109.1,1499.0,2025-01-29 11:52:34,1
-3476.4,1782.8,-3723.2,1364.6,1954.1,1341.0,2025-01-29 11:52:35,1
-5860.4,2182.8,-4559.2,-803.4,3553.1,2317.0,2025-01-29 11:52:35,1
-6644.4,2514.8,-5939.2,-2584.4,3911.1,3712.0,2025-01-29 11:52:35,1
-6120.4,2838.8,-6187.2,-4250.4,2232.1,4866.0,2025-01-29 11:52:35,1
-3248.4,3086.8,-4023.2,-4916.4,-2607.9,4651.0,2025-01-29 11:52:35,1
1235.6000000000004,2582.8,-907.1999999999998,-3876.4,-8040.9,2407.0,2025-01-29 11:52:35,1
4583.6,238.79999999999995,-1375.1999999999998,-2379.4,-10534.9,-440.0,2025-01-29 11:52:35,1
6107.6,-2433.2,-587.1999999999998,-886.4,-11322.9,-2250.0,2025-01-29 11:52:35,1
6671.6,-4981.2,-263.1999999999998,837.6,-9774.9,-2841.0,2025-01-29 11:52:35,1
6175.6,-6949.2,-399.1999999999998,2838.6,-4312.9,-2196.0,2025-01-29 11:52:35,1
4731.6,-6117.2,-1063.1999999999998,3565.6,3039.1,-791.0,2025-01-29 11:52:35,1
4023.6,-2737.2,-1763.1999999999998,3837.6,7213.1,366.0,2025-01-29 11:52:35,1
2291.6000000000004,-421.2000000000001,-2779.2,3143.6,8897.1,585.0,2025-01-29 11:52:35,1
371.6000000000004,950.8,-2371.2,1727.6,8628.1,638.0,2025-01-29 11:52:35,1
-368.3999999999997,698.8,-1211.1999999999998,784.6,5132.1,-13.0,2025-01-29 11:52:35,1
-1040.3999999999996,-337.20000000000005,-1447.1999999999998,823.6,693.1,-911.0,2025-01-29 11:52:35,1
-952.3999999999996,-1053.2,-2339.2,875.6,-1839.9,-1209.0,2025-01-29 11:52:35,1
547.6000000000004,-1513.2,-3015.2,795.6,-2859.9,-1193.0,2025-01-29 11:52:35,1
1611.6000000000004,-1685.2,-1979.2,560.6,-2700.9,-1348.0,2025-01-29 11:52:35,1
2395.6000000000004,-1433.2,-955.1999999999998,277.6,-1453.9,-1546.0,2025-01-29 11:52:35,1
2795.6000000000004,-1473.2,-587.1999999999998,-206.4,283.1,-1866.0,2025-01-29 11:52:35,1
2615.6000000000004,-1477.2,-183.19999999999985,-413.4,1469.1,-2144.0,2025-01-29 11:52:35,1
2079.6000000000004,-1393.2,-191.19999999999985,-586.4,2125.1,-2345.0,2025-01-29 11:52:35,1
1603.6000000000004,-1637.2,-147.19999999999982,-934.4,2724.1,-2439.0,2025-01-29 11:52:35,1
1151.6000000000004,-2189.2,164.80000000000018,-1064.4,3190.1,-2441.0,2025-01-29 11:52:35,1
475.6000000000004,-2729.2,744.8000000000002,-994.4,3287.1,-2226.0,2025-01-29 11:52:35,1
103.60000000000036,-2981.2,788.8000000000002,-835.4,3002.1,-1904.0,2025-01-29 11:52:35,1
215.6000000000004,-2881.2,892.8000000000002,-657.4,2363.1,-1444.0,2025-01-29 11:52:35,1
251.6000000000004,-2705.2,324.8000000000002,-644.4,1920.1,-869.0,2025-01-29 11:52:35,1
175.60000000000036,-1681.2,932.8000000000002,-646.4,1529.1,-569.0,2025-01-29 11:52:35,1
107.60000000000036,-857.2,516.8000000000002,-878.4,1220.1,-151.0,2025-01-29 11:52:35,1
43.60000000000037,-525.2,552.8000000000002,-1338.4,1092.1,478.0,2025-01-29 11:52:35,1
483.6000000000004,-801.2,368.8000000000002,-1839.4,1119.1,704.0,2025-01-29 11:52:35,1
287.6000000000004,-1329.2,100.80000000000018,-2165.4,1088.1,622.0,2025-01-29 11:52:35,1
23.600000000000364,-1881.2,192.80000000000015,-2270.4,1087.1,426.0,2025-01-29 11:52:35,1
-48.39999999999964,-1657.2,68.80000000000018,-2008.4,820.1,109.0,2025-01-29 11:52:35,1
-1000.3999999999996,-1649.2,116.80000000000018,-1926.4,-180.9,204.0,2025-01-29 11:52:35,1
-980.3999999999996,-1829.2,424.8000000000002,-1805.4,-1065.9,622.0,2025-01-29 11:52:35,1
-612.3999999999996,-1733.2,296.8000000000002,-1864.4,-1499.9,238.0,2025-01-29 11:52:35,1
-1024.3999999999996,-1165.2,-91.19999999999982,-2582.4,-1762.9,-563.0,2025-01-29 11:52:35,1
-1656.3999999999996,130.79999999999995,-543.1999999999998,-3200.4,-1769.9,-1429.0,2025-01-29 11:52:35,1
-1460.3999999999996,1102.8,-2103.2,-3651.4,-2055.9,-2624.0,2025-01-29 11:52:35,1
-1280.3999999999996,-225.20000000000005,-2839.2,-4272.4,-2547.9,-3628.0,2025-01-29 11:52:35,1
523.6000000000004,-2565.2,-2667.2,-4127.4,-3077.9,-4322.0,2025-01-29 11:52:35,1
307.6000000000004,-4681.2,-2211.2,-3108.4,-2406.9,-4960.0,2025-01-29 11:52:35,1
-1344.3999999999996,-5541.2,-2943.2,-2020.4,-164.9,-4485.0,2025-01-29 11:52:35,1
-3784.4,-4373.2,-3947.2,-2145.4,1746.1,-1559.0,2025-01-29 11:52:35,1
-2476.4,-2973.2,-3375.2,-2433.4,-47.900000000000006,452.0,2025-01-29 11:52:35,1
-388.3999999999997,-1765.2,-3879.2,-2418.4,-3649.9,517.0,2025-01-29 11:52:35,1
915.6000000000004,-349.20000000000005,-3839.2,-2595.4,-5781.9,287.0,2025-01-29 11:52:35,1
2635.6000000000004,738.8,-2823.2,-2861.4,-6426.9,270.0,2025-01-29 11:52:35,1
4271.6,1710.8,-1835.2,-2875.4,-5813.9,192.0,2025-01-29 11:52:35,1
5151.6,2118.8,-1539.1999999999998,-2883.4,-3975.9,-19.0,2025-01-29 11:52:35,1
5651.6,1610.8,-1883.2,-2961.4,136.1,-625.0,2025-01-29 11:52:35,1
4639.6,158.79999999999995,-1963.2,-2748.4,4563.1,-1220.0,2025-01-29 11:52:35,1
2387.6000000000004,-805.2,-1719.1999999999998,-2501.4,7580.1,-1084.0,2025-01-29 11:52:35,1
703.6000000000004,-1441.2,-1991.2,-2460.4,8755.1,-811.0,2025-01-29 11:52:35,1
-1176.3999999999996,-1585.2,-2299.2,-2530.4,8301.1,-555.0,2025-01-29 11:52:35,1
-2780.4,-1149.2,-2447.2,-2327.4,4884.1,500.0,2025-01-29 11:52:35,1
-2276.4,518.8,-2299.2,-1855.4,-751.9,1672.0,2025-01-29 11:52:35,1
-964.3999999999996,1482.8,-2647.2,-1966.4,-3647.9,1831.0,2025-01-29 11:52:35,1
1351.6000000000004,2006.8,-2035.2,-1962.4,-5091.9,1572.0,2025-01-29 11:52:35,1
2951.6000000000004,1714.8,-1459.1999999999998,-1913.4,-4599.9,1008.0,2025-01-29 11:52:35,1
4099.6,694.8,-707.1999999999998,-1962.4,-2785.9,466.0,2025-01-29 11:52:35,1
3735.6,-601.2,144.80000000000018,-1695.4,1072.1,-17.0,2025-01-29 11:52:36,1
2763.6000000000004,-993.2,588.8000000000002,-1207.4,3381.1,-46.0,2025-01-29 11:52:36,1
1499.6000000000004,-893.2,476.8000000000002,-729.4,4075.1,35.0,2025-01-29 11:52:36,1
391.6000000000004,-501.2000000000001,176.80000000000018,-234.4,3896.1,162.0,2025-01-29 11:52:36,1
-420.3999999999997,-33.200000000000045,-323.1999999999998,161.6,3007.1,118.0,2025-01-29 11:52:36,1
-1056.3999999999996,198.79999999999995,-747.1999999999998,376.6,1665.1,18.0,2025-01-29 11:52:36,1
-876.3999999999996,218.79999999999995,-611.1999999999998,631.6,41.1,-142.0,2025-01-29 11:52:36,1
-188.39999999999964,-1.2000000000000457,-343.1999999999998,869.6,-1011.9,-510.0,2025-01-29 11:52:36,1
451.6000000000004,-233.20000000000005,80.80000000000018,965.6,-1151.9,-816.0,2025-01-29 11:52:36,1
1659.6000000000004,-93.20000000000005,252.80000000000015,1058.6,-911.9,-1286.0,2025-01-29 11:52:36,1
2175.6000000000004,382.8,-375.1999999999998,769.6,-837.9,-1958.0,2025-01-29 11:52:36,1
1499.6000000000004,1198.8,-403.1999999999998,227.6,-290.9,-2434.0,2025-01-29 11:52:36,1
711.6000000000004,1962.8,-399.1999999999998,-317.4,240.1,-2425.0,2025-01-29 11:52:36,1
-52.39999999999964,2206.8,-499.1999999999998,-876.4,199.1,-2320.0,2025-01-29 11:52:36,1
-236.39999999999964,1802.8,-51.19999999999982,-1515.4,-447.9,-2486.0,2025-01-29 11:52:36,1
-260.39999999999964,882.8,148.80000000000018,-1944.4,-1228.9,-2478.0,2025-01-29 11:52:36,1
403.6000000000004,-145.20000000000005,-135.19999999999982,-2192.4,-1675.9,-2476.0,2025-01-29 11:52:36,1
871.6000000000004,-221.20000000000005,-531.1999999999998,-2054.4,-1485.9,-2477.0,2025-01-29 11:52:36,1
1091.6000000000004,-153.20000000000005,-1099.1999999999998,-1901.4,-671.9,-2470.0,2025-01-29 11:52:36,7
1055.6000000000004,-493.2000000000001,-1203.1999999999998,-1889.4,574.1,-2521.0,2025-01-29 11:52:36,7
455.6000000000004,-1693.2,-167.19999999999982,-1666.4,1645.1,-2540.0,2025-01-29 11:52:36,7
-296.39999999999964,-2097.2,-799.1999999999998,-1079.4,2408.1,-2362.0,2025-01-29 11:52:36,7
-1632.3999999999996,-1741.2,-2447.2,-859.4,3018.1,-1423.0,2025-01-29 11:52:36,7
-2184.4,-1337.2,-3495.2,-736.4,3566.1,12.0,2025-01-29 11:52:36,7
-1748.3999999999996,-137.20000000000005,-4395.2,-968.4,2908.1,906.0,2025-01-29 11:52:36,7
-1868.4,1426.8,-4391.2,-1982.4,1493.1,1538.0,2025-01-29 11:52:36,7
75.60000000000036,2430.8,-2587.2,-1902.4,-726.9,1546.0,2025-01-29 11:52:36,7
2623.6000000000004,1474.8,-1407.1999999999998,-629.4,-2456.9,-764.0,2025-01-29 11:52:36,7
2283.6000000000004,-1.2000000000000457,-2235.2,-5.400000000000006,-1958.9,-2728.0,2025-01-29 11:52:36,7
2047.6000000000004,-793.2,-2647.2,199.6,-1189.9,-3145.0,2025-01-29 11:52:36,7
1743.6000000000004,-601.2,-3591.2,-201.4,-359.9,-2901.0,2025-01-29 11:52:36,7
2119.6000000000004,614.8,-3683.2,-1222.4,-109.9,-2720.0,2025-01-29 11:52:36,7
2471.6000000000004,2106.8,-3799.2,-2920.4,-38.900000000000006,-3182.0,2025-01-29 11:52:36,7
2619.6000000000004,2790.8,-3899.2,-4919.4,34.099999999999994,-3751.0,2025-01-29 11:52:36,7
2667.6000000000004,2550.8,-3743.2,-6357.4,-41.900000000000006,-4462.0,2025-01-29 11:52:36,7
2095.6000000000004,1654.8,-3911.2,-7818.4,121.1,-5352.0,2025-01-29 11:52:36,7
1399.6000000000004,142.79999999999995,-3459.2,-9137.4,401.1,-6399.0,2025-01-29 11:52:36,7
619.6000000000004,-1221.2,-3663.2,-9837.4,49.1,-7301.0,2025-01-29 11:52:36,7
71.60000000000036,-2281.2,-4231.2,-10307.4,-1267.9,-7828.0,2025-01-29 11:52:36,7
183.6000000000004,-2857.2,-4027.2,-10584.4,-2850.9,-7791.0,2025-01-29 11:52:36,7
739.6000000000004,-2721.2,-3443.2,-10576.4,-3889.9,-7427.0,2025-01-29 11:52:36,7
2011.6000000000004,-1753.2,-3291.2,-10922.4,-4230.9,-7239.0,2025-01-29 11:52:36,7
2979.6000000000004,-897.2,-3307.2,-11678.4,-4012.9,-7293.0,2025-01-29 11:52:36,7
3727.6,-429.2000000000001,-3547.2,-12776.4,-3285.9,-7564.0,2025-01-29 11:52:36,7
3823.6,-829.2,-4119.2,-15384.4,-508.9,-8318.0,2025-01-29 11:52:36,7
3239.6000000000004,-1337.2,-3935.2,-16386.4,459.1,-8623.0,2025-01-29 11:52:36,7
2639.6000000000004,-1817.2,-3879.2,-17152.4,740.1,-9048.0,2025-01-29 11:52:36,7
1943.6000000000004,-2409.2,-3995.2,-17660.4,383.1,-9492.0,2025-01-29 11:52:36,7
1559.6000000000004,-3117.2,-4107.2,-17742.4,-412.9,-9789.0,2025-01-29 11:52:36,7
1599.6000000000004,-3801.2,-4147.2,-17803.4,-1438.9,-9822.0,2025-01-29 11:52:36,7
1943.6000000000004,-4293.2,-4039.2,-17967.4,-1979.9,-9842.0,2025-01-29 11:52:36,7
2239.6000000000004,-4797.2,-3231.2,-17933.4,-1668.9,-10062.0,2025-01-29 11:52:36,7
2335.6000000000004,-4641.2,-3015.2,-17698.4,-1149.9,-10148.0,2025-01-29 11:52:36,7
2155.6000000000004,-3993.2,-3583.2,-17586.4,-358.9,-10098.0,2025-01-29 11:52:36,7
2375.6000000000004,-2789.2,-3215.2,-17526.4,39.1,-10036.0,2025-01-29 11:52:36,7
2395.6000000000004,-2237.2,-3111.2,-17725.4,317.1,-10463.0,2025-01-29 11:52:36,7
1823.6000000000004,-2321.2,-3127.2,-18250.4,67.1,-11305.0,2025-01-29 11:52:36,7
1183.6000000000004,-2441.2,-2939.2,-18534.4,-828.9,-11839.0,2025-01-29 11:52:36,7
939.6000000000004,-2837.2,-3199.2,-18914.4,-2189.9,-12026.0,2025-01-29 11:52:36,7
1155.6000000000004,-3793.2,-3247.2,-19172.4,-3505.9,-12031.0,2025-01-29 11:52:36,7
1387.6000000000004,-4441.2,-2955.2,-19335.4,-4236.9,-11889.0,2025-01-29 11:52:36,7
1995.6000000000004,-4905.2,-2743.2,-19511.4,-4165.9,-11638.0,2025-01-29 11:52:36,7
2415.6000000000004,-5433.2,-2383.2,-19677.4,-3645.9,-11387.0,2025-01-29 11:52:36,7
1935.6000000000004,-5705.2,-1571.1999999999998,-19740.4,-2711.9,-10709.0,2025-01-29 11:52:37,7
1543.6000000000004,-5305.2,-1567.1999999999998,-19987.4,-2781.9,-9476.0,2025-01-29 11:52:37,7
1843.6000000000004,-4761.2,-1691.1999999999998,-20323.4,-3050.9,-8243.0,2025-01-29 11:52:37,7
2087.6000000000004,-4357.2,-1991.2,-20552.4,-2647.9,-7376.0,2025-01-29 11:52:37,7
1951.6000000000004,-4973.2,-2111.2,-20454.4,-1891.9,-7232.0,2025-01-29 11:52:37,7
1351.6000000000004,-5113.2,-2999.2,-19455.4,-1616.9,-7592.0,2025-01-29 11:52:37,7
1035.6000000000004,-5045.2,-2855.2,-17948.4,-2370.9,-8201.0,2025-01-29 11:52:37,7
775.6000000000004,-3953.2,-2275.2,-16214.4,-3703.9,-8356.0,2025-01-29 11:52:37,7
1303.6000000000004,-2077.2,-2887.2,-15547.4,-4013.9,-7765.0,2025-01-29 11:52:37,7
2655.6000000000004,-845.2,-2743.2,-15622.4,-2927.9,-7597.0,2025-01-29 11:52:37,7
3459.6000000000004,-569.2,-2427.2,-15950.4,-913.9,-8352.0,2025-01-29 11:52:37,7
2963.6000000000004,-341.20000000000005,-2147.2,-16020.4,983.1,-9189.0,2025-01-29 11:52:37,7
2163.6000000000004,50.79999999999996,-2103.2,-16203.4,1938.1,-9534.0,2025-01-29 11:52:37,7
1407.6000000000004,438.8,-1451.1999999999998,-16606.4,2395.1,-9899.0,2025-01-29 11:52:37,7
851.6000000000004,650.8,-1927.2,-16775.4,2117.1,-10156.0,2025-01-29 11:52:37,7
567.6000000000004,890.8,-2591.2,-16579.4,1694.1,-10349.0,2025-01-29 11:52:37,7
115.60000000000036,738.8,-3043.2,-16445.4,1136.1,-10582.0,2025-01-29 11:52:37,7
-484.3999999999997,722.8,-3143.2,-16796.4,940.1,-10466.0,2025-01-29 11:52:37,7
-584.3999999999996,850.8,-3639.2,-17363.4,336.1,-9938.0,2025-01-29 11:52:37,7
-580.3999999999996,422.8,-4319.2,-17964.4,-630.9,-9422.0,2025-01-29 11:52:37,7
-312.39999999999964,-441.2000000000001,-4059.2,-18157.4,-1697.9,-9009.0,2025-01-29 11:52:37,7
-224.39999999999964,-1233.2,-2695.2,-17667.4,-2501.9,-8581.0,2025-01-29 11:52:37,7
95.60000000000036,-1593.2,-1895.2,-17084.4,-3101.9,-7949.0,2025-01-29 11:52:37,7
467.6000000000004,-1673.2,-919.1999999999998,-16591.4,-3135.9,-7405.0,2025-01-29 11:52:37,7
787.6000000000004,-1493.2,-31.199999999999815,-15849.4,-3172.9,-7229.0,2025-01-29 11:52:37,7
779.6000000000004,-1037.2,176.80000000000018,-14833.4,-3287.9,-7058.0,2025-01-29 11:52:37,7
995.6000000000004,-617.2,-251.19999999999985,-14159.4,-3531.9,-6844.0,2025-01-29 11:52:37,7
1411.6000000000004,-57.200000000000045,-707.1999999999998,-13548.4,-3552.9,-6628.0,2025-01-29 11:52:37,7
1907.6000000000004,290.79999999999995,-1043.1999999999998,-13033.4,-3215.9,-6504.0,2025-01-29 11:52:37,7
1855.6000000000004,758.8,-1079.1999999999998,-12722.4,-2234.9,-6418.0,2025-01-29 11:52:37,7
1403.6000000000004,654.8,-551.1999999999998,-12382.4,-1053.9,-6235.0,2025-01-29 11:52:37,7
839.6000000000004,306.79999999999995,-387.1999999999998,-11873.4,-461.9,-6055.0,2025-01-29 11:52:37,7
743.6000000000004,-209.20000000000005,-455.1999999999998,-11219.4,-416.9,-5930.0,2025-01-29 11:52:37,7
695.6000000000004,-481.2000000000001,-875.1999999999998,-10504.4,-731.9,-5878.0,2025-01-29 11:52:37,7
507.6000000000004,-229.20000000000005,-975.1999999999998,-9760.4,-1218.9,-5598.0,2025-01-29 11:52:37,7
667.6000000000004,90.79999999999995,-947.1999999999998,-9047.4,-1290.9,-5148.0,2025-01-29 11:52:37,7
891.6000000000004,374.8,-1219.1999999999998,-8580.4,-744.9,-4961.0,2025-01-29 11:52:37,7
639.6000000000004,562.8,-1299.1999999999998,-8388.4,-174.9,-4792.0,2025-01-29 11:52:37,7
427.6000000000004,254.79999999999995,-835.1999999999998,-8210.4,140.1,-4466.0,2025-01-29 11:52:37,7
639.6000000000004,-385.2000000000001,-291.1999999999998,-7691.4,-288.9,-4302.0,2025-01-29 11:52:37,7
779.6000000000004,-509.2000000000001,80.80000000000018,-6873.4,-1178.9,-4125.0,2025-01-29 11:52:37,7
1175.6000000000004,-253.20000000000005,-439.1999999999998,-6180.4,-1496.9,-4113.0,2025-01-29 11:52:37,7
1583.6000000000004,-201.20000000000005,-1115.1999999999998,-5787.4,-1252.9,-4229.0,2025-01-29 11:52:37,7
1767.6000000000004,-1.2000000000000457,-1391.1999999999998,-5367.4,-763.9,-4402.0,2025-01-29 11:52:37,7
1899.6000000000004,326.79999999999995,-1971.2,-5362.4,-116.9,-4678.0,2025-01-29 11:52:37,7
2059.6000000000004,58.79999999999996,-2363.2,-5667.4,157.1,-5174.0,2025-01-29 11:52:37,7
2115.6000000000004,-1025.2,-2467.2,-5912.4,-296.9,-6020.0,2025-01-29 11:52:37,7
1767.6000000000004,-1877.2,-2719.2,-6004.4,-921.9,-6534.0,2025-01-29 11:52:37,7
907.6000000000004,-2277.2,-2907.2,-6005.4,-811.9,-6512.0,2025-01-29 11:52:37,7
675.6000000000004,-1537.2,-3023.2,-5848.4,-893.9,-5786.0,2025-01-29 11:52:37,7
235.6000000000004,-981.2,-2115.2,-5653.4,-701.9,-5469.0,2025-01-29 11:52:37,7
-292.39999999999964,-853.2,-791.1999999999998,-5090.4,-234.9,-5014.0,2025-01-29 11:52:37,7
75.60000000000036,-1237.2,-599.1999999999998,-3897.4,-36.900000000000006,-4333.0,2025-01-29 11:52:37,7
843.6000000000004,-2297.2,-1159.1999999999998,-3286.4,238.1,-4163.0,2025-01-29 11:52:37,7
1123.6000000000004,-3261.2,-683.1999999999998,-2528.4,1225.1,-4045.0,2025-01-29 11:52:37,7
843.6000000000004,-2925.2,-1143.1999999999998,-1628.4,2302.1,-3769.0,2025-01-29 11:52:37,7
595.6000000000004,-2369.2,-2011.2,-1529.4,2527.1,-3482.0,2025-01-29 11:52:37,7
203.6000000000004,-1625.2,-1495.1999999999998,-1486.4,1959.1,-3785.0,2025-01-29 11:52:37,7
-872.3999999999996,-1377.2,-847.1999999999998,-1513.4,1204.1,-3681.0,2025-01-29 11:52:37,7
-1088.3999999999996,-1165.2,-495.1999999999998,-1420.4,208.1,-3055.0,2025-01-29 11:52:37,7
-580.3999999999996,-1085.2,-755.1999999999998,-1467.4,-1059.9,-2303.0,2025-01-29 11:52:37,7
571.6000000000004,-1201.2,-1295.1999999999998,-1926.4,-1801.9,-1535.0,2025-01-29 11:52:38,7
1963.6000000000004,-1793.2,-487.1999999999998,-2421.4,-1428.9,-705.0,2025-01-29 11:52:38,7
2519.6000000000004,-2501.2,120.80000000000018,-2604.4,-274.9,-176.0,2025-01-29 11:52:38,7
2383.6000000000004,-2513.2,236.80000000000015,-2626.4,1012.1,280.0,2025-01-29 11:52:38,7
1823.6000000000004,-2489.2,328.8000000000002,-2628.4,2016.1,593.0,2025-01-29 11:52:38,7
983.6000000000004,-2585.2,-223.19999999999985,-2595.4,2648.1,831.0,2025-01-29 11:52:38,7
247.6000000000004,-2981.2,-999.1999999999998,-2256.4,2906.1,956.0,2025-01-29 11:52:38,7
-460.3999999999997,-2833.2,-2287.2,-1627.4,3074.1,714.0,2025-01-29 11:52:38,7
-1240.3999999999996,-1725.2,-3663.2,-1224.4,2414.1,727.0,2025-01-29 11:52:38,7
-1856.4,-753.2,-3679.2,-1142.4,460.1,1150.0,2025-01-29 11:52:38,7
-608.3999999999996,-641.2,-3235.2,-838.4,-1803.9,1482.0,2025-01-29 11:52:38,7
363.6000000000004,-1037.2,-2507.2,-287.4,-2822.9,1466.0,2025-01-29 11:52:38,1
1539.6000000000004,-1645.2,-1959.2,322.6,-2435.9,1222.0,2025-01-29 11:52:38,1
2319.6000000000004,-2193.2,-1343.1999999999998,1033.6,-1076.9,928.0,2025-01-29 11:52:38,1
2455.6000000000004,-2149.2,-1787.1999999999998,1480.6,367.1,735.0,2025-01-29 11:52:38,1
1895.6000000000004,-1841.2,-2067.2,1561.6,958.1,755.0,2025-01-29 11:52:38,1
927.6000000000004,-1301.2,-1891.2,1420.6,1011.1,836.0,2025-01-29 11:52:38,1
355.6000000000004,-525.2,-1787.1999999999998,1203.6,338.1,918.0,2025-01-29 11:52:38,1
39.60000000000037,-289.20000000000005,-1723.1999999999998,1003.6,-740.9,854.0,2025-01-29 11:52:38,1
191.6000000000004,-53.200000000000045,-1599.1999999999998,846.6,-1654.9,593.0,2025-01-29 11:52:38,1
519.6000000000004,58.79999999999996,-1611.1999999999998,722.6,-2118.9,402.0,2025-01-29 11:52:38,1
1355.6000000000004,-229.20000000000005,-1587.1999999999998,518.6,-2075.9,109.0,2025-01-29 11:52:38,1
1595.6000000000004,-433.2000000000001,-1371.1999999999998,235.6,-1561.9,24.0,2025-01-29 11:52:38,1
1835.6000000000004,-649.2,-1619.1999999999998,-26.40000000000001,-720.9,59.0,2025-01-29 11:52:38,1
1775.6000000000004,-833.2,-1851.2,-265.4,138.1,81.0,2025-01-29 11:52:38,1
1511.6000000000004,-933.2,-1931.2,-339.4,735.1,36.0,2025-01-29 11:52:38,1
907.6000000000004,-913.2,-1715.1999999999998,-298.4,1035.1,-4.0,2025-01-29 11:52:38,1
411.6000000000004,-961.2,-1639.1999999999998,-165.4,636.1,-53.0,2025-01-29 11:52:38,1
251.6000000000004,-933.2,-1639.1999999999998,-32.400000000000006,-53.900000000000006,-22.0,2025-01-29 11:52:38,1
379.6000000000004,-769.2,-1975.2,41.6,-642.9,83.0,2025-01-29 11:52:38,1
735.6000000000004,-649.2,-1923.2,22.599999999999994,-821.9,143.0,2025-01-29 11:52:38,1
1047.6000000000004,-657.2,-2075.2,-26.40000000000001,-677.9,130.0,2025-01-29 11:52:38,1
1283.6000000000004,-825.2,-1975.2,-25.40000000000001,-208.9,97.0,2025-01-29 11:52:38,1
1303.6000000000004,-673.2,-1943.2,2.5999999999999943,162.1,18.0,2025-01-29 11:52:38,1
1271.6000000000004,-777.2,-1631.1999999999998,10.599999999999994,529.1,2.0,2025-01-29 11:52:38,1
975.6000000000004,-689.2,-1747.1999999999998,141.6,702.1,21.0,2025-01-29 11:52:38,1
807.6000000000004,-857.2,-1671.1999999999998,119.6,706.1,112.0,2025-01-29 11:52:38,1
659.6000000000004,-749.2,-1747.1999999999998,147.6,553.1,203.0,2025-01-29 11:52:38,1
583.6000000000004,-477.2000000000001,-1991.2,65.6,162.1,138.0,2025-01-29 11:52:38,1
643.6000000000004,-633.2,-1695.1999999999998,-6.400000000000006,-207.9,109.0,2025-01-29 11:52:38,1
919.6000000000004,-657.2,-1679.1999999999998,112.6,-440.9,109.0,2025-01-29 11:52:38,1
1167.6000000000004,-565.2,-1859.2,111.6,-389.9,88.0,2025-01-29 11:52:38,1
1159.6000000000004,-825.2,-1823.2,91.6,-226.9,48.0,2025-01-29 11:52:38,1
1319.6000000000004,-829.2,-2007.2,43.6,-46.900000000000006,17.0,2025-01-29 11:52:38,1
1155.6000000000004,-833.2,-1907.2,26.599999999999994,62.1,19.0,2025-01-29 11:52:38,1
1011.6000000000004,-673.2,-1899.2,6.599999999999994,124.1,12.0,2025-01-29 11:52:38,1
891.6000000000004,-689.2,-1955.2,-57.400000000000006,145.1,-26.0,2025-01-29 11:52:38,1
763.6000000000004,-693.2,-1767.1999999999998,-45.400000000000006,73.1,-18.0,2025-01-29 11:52:38,1
691.6000000000004,-673.2,-1719.1999999999998,-31.40000000000001,-72.9,-43.0,2025-01-29 11:52:38,1
855.6000000000004,-721.2,-1831.2,-77.4,-196.9,-49.0,2025-01-29 11:52:38,1
1015.6000000000004,-813.2,-1627.1999999999998,-91.4,-177.9,-44.0,2025-01-29 11:52:38,1
1091.6000000000004,-1005.2,-1715.1999999999998,-64.4,-84.9,7.0,2025-01-29 11:52:38,1
1131.6000000000004,-921.2,-1703.1999999999998,-42.400000000000006,121.1,-17.0,2025-01-29 11:52:38,1
955.6000000000004,-905.2,-1799.1999999999998,-70.4,251.1,-45.0,2025-01-29 11:52:38,1
923.6000000000004,-929.2,-1827.2,-34.400000000000006,333.1,-38.0,2025-01-29 11:52:38,1
595.6000000000004,-721.2,-1743.1999999999998,62.6,278.1,-7.0,2025-01-29 11:52:38,1
639.6000000000004,-657.2,-1723.1999999999998,33.599999999999994,72.1,42.0,2025-01-29 11:52:38,1
803.6000000000004,-769.2,-1727.1999999999998,-5.400000000000006,-99.9,7.0,2025-01-29 11:52:38,1
919.6000000000004,-745.2,-1883.2,-7.400000000000006,-114.9,1.0,2025-01-29 11:52:38,1
995.6000000000004,-765.2,-1783.1999999999998,41.6,-10.900000000000006,37.0,2025-01-29 11:52:38,1
1091.6000000000004,-837.2,-1911.2,53.6,75.1,66.0,2025-01-29 11:52:38,1
1063.6000000000004,-725.2,-1719.1999999999998,40.6,200.1,27.0,2025-01-29 11:52:38,1
879.6000000000004,-789.2,-1767.1999999999998,61.6,205.1,6.0,2025-01-29 11:52:39,1
839.6000000000004,-721.2,-1463.1999999999998,126.6,175.1,19.0,2025-01-29 11:52:39,1
671.6000000000004,-925.2,-1691.1999999999998,144.6,47.1,83.0,2025-01-29 11:52:39,1
907.6000000000004,-753.2,-1587.1999999999998,167.6,-11.900000000000006,91.0,2025-01-29 11:52:39,1
927.6000000000004,-601.2,-1563.1999999999998,167.6,-0.9000000000000057,72.0,2025-01-29 11:52:39,1
943.6000000000004,-661.2,-1667.1999999999998,193.6,51.1,47.0,2025-01-29 11:52:39,1
1083.6000000000004,-857.2,-1887.2,259.6,-40.900000000000006,72.0,2025-01-29 11:52:39,1
1059.6000000000004,-733.2,-1823.2,203.6,119.1,70.0,2025-01-29 11:52:39,1
923.6000000000004,-641.2,-1899.2,194.6,294.1,86.0,2025-01-29 11:52:39,1
887.6000000000004,-701.2,-1783.1999999999998,194.6,316.1,78.0,2025-01-29 11:52:39,1
915.6000000000004,-637.2,-1691.1999999999998,200.6,280.1,99.0,2025-01-29 11:52:39,1
863.6000000000004,-733.2,-1567.1999999999998,172.6,205.1,71.0,2025-01-29 11:52:39,1
847.6000000000004,-789.2,-1491.1999999999998,262.6,219.1,85.0,2025-01-29 11:52:39,1
927.6000000000004,-805.2,-1647.1999999999998,244.6,239.1,63.0,2025-01-29 11:52:39,1
863.6000000000004,-773.2,-1787.1999999999998,229.6,302.1,48.0,2025-01-29 11:52:39,1
907.6000000000004,-709.2,-1703.1999999999998,247.6,220.1,27.0,2025-01-29 11:52:39,1
819.6000000000004,-805.2,-1875.2,255.6,188.1,28.0,2025-01-29 11:52:39,1
843.6000000000004,-761.2,-1835.2,232.6,229.1,54.0,2025-01-29 11:52:39,1
983.6000000000004,-681.2,-1847.2,233.6,250.1,29.0,2025-01-29 11:52:39,1
943.6000000000004,-653.2,-1647.1999999999998,183.6,222.1,58.0,2025-01-29 11:52:39,1
939.6000000000004,-741.2,-1819.2,187.6,170.1,90.0,2025-01-29 11:52:39,1
1011.6000000000004,-757.2,-1827.2,205.6,219.1,101.0,2025-01-29 11:52:39,1
959.6000000000004,-701.2,-1823.2,203.6,253.1,103.0,2025-01-29 11:52:39,1
911.6000000000004,-805.2,-1875.2,253.6,241.1,72.0,2025-01-29 11:52:39,1
955.6000000000004,-837.2,-1687.1999999999998,272.6,184.1,49.0,2025-01-29 11:52:39,1
863.6000000000004,-889.2,-1779.1999999999998,353.6,180.1,66.0,2025-01-29 11:52:39,1
1031.6000000000004,-741.2,-1591.1999999999998,349.6,217.1,101.0,2025-01-29 11:52:39,1
1011.6000000000004,-769.2,-1827.2,336.6,261.1,91.0,2025-01-29 11:52:39,1
1055.6000000000004,-713.2,-1991.2,295.6,341.1,96.0,2025-01-29 11:52:39,1
1019.6000000000004,-701.2,-1963.2,303.6,394.1,73.0,2025-01-29 11:52:39,1
1019.6000000000004,-901.2,-2059.2,310.6,377.1,39.0,2025-01-29 11:52:39,1
935.6000000000004,-741.2,-2103.2,336.6,318.1,58.0,2025-01-29 11:52:39,1
895.6000000000004,-673.2,-1999.2,308.6,208.1,65.0,2025-01-29 11:52:39,1
911.6000000000004,-721.2,-2051.2,278.6,151.1,53.0,2025-01-29 11:52:39,1
915.6000000000004,-665.2,-2051.2,297.6,65.1,49.0,2025-01-29 11:52:39,1
1015.6000000000004,-653.2,-2095.2,238.6,-41.900000000000006,113.0,2025-01-29 11:52:39,1
843.6000000000004,-509.2000000000001,-2163.2,193.6,-88.9,94.0,2025-01-29 11:52:39,1
1195.6000000000004,-469.2000000000001,-2299.2,180.6,-106.9,50.0,2025-01-29 11:52:39,1
1163.6000000000004,-517.2,-2331.2,187.6,-65.9,-51.0,2025-01-29 11:52:39,1
959.6000000000004,-749.2,-1987.2,213.6,13.099999999999994,-75.0,2025-01-29 11:52:39,1
1027.6000000000004,-757.2,-1739.1999999999998,314.6,15.099999999999994,-95.0,2025-01-29 11:52:39,1
863.6000000000004,-593.2,-1639.1999999999998,386.6,-43.900000000000006,-145.0,2025-01-29 11:52:39,1
803.6000000000004,-561.2,-1511.1999999999998,477.6,-99.9,-154.0,2025-01-29 11:52:39,1
799.6000000000004,-509.2000000000001,-1495.1999999999998,566.6,-87.9,-150.0,2025-01-29 11:52:39,1
755.6000000000004,-681.2,-1231.1999999999998,810.6,36.1,-111.0,2025-01-29 11:52:39,1
755.6000000000004,-881.2,-1223.1999999999998,1049.6,203.1,-60.0,2025-01-29 11:52:39,1
923.6000000000004,-877.2,-1139.1999999999998,1354.6,176.1,12.0,2025-01-29 11:52:39,1
1139.6000000000004,-873.2,-1315.1999999999998,1663.6,200.1,123.0,2025-01-29 11:52:39,1
1271.6000000000004,-1165.2,-1603.1999999999998,1827.6,582.1,147.0,2025-01-29 11:52:39,1
1187.6000000000004,-1257.2,-1395.1999999999998,2168.6,1024.1,226.0,2025-01-29 11:52:39,1
1095.6000000000004,-1029.2,-1671.1999999999998,2451.6,1140.1,205.0,2025-01-29 11:52:39,1
819.6000000000004,-1125.2,-1795.1999999999998,2432.6,962.1,169.0,2025-01-29 11:52:39,1
519.6000000000004,-1169.2,-1511.1999999999998,2625.6,776.1,341.0,2025-01-29 11:52:39,1
715.6000000000004,-1261.2,-1627.1999999999998,2764.6,425.1,482.0,2025-01-29 11:52:39,1
815.6000000000004,-757.2,-1807.2,2894.6,-103.9,457.0,2025-01-29 11:52:39,1
819.6000000000004,-149.20000000000005,-2195.2,2921.6,-119.9,222.0,2025-01-29 11:52:39,1
655.6000000000004,-33.200000000000045,-2479.2,2727.6,27.099999999999994,-156.0,2025-01-29 11:52:39,1
583.6000000000004,-297.20000000000005,-2431.2,2564.6,110.1,-347.0,2025-01-29 11:52:39,1
463.6000000000004,-277.20000000000005,-2551.2,2484.6,-191.9,-380.0,2025-01-29 11:52:39,1
627.6000000000004,-389.2000000000001,-2171.2,2309.6,-628.9,-367.0,2025-01-29 11:52:39,1
859.6000000000004,-569.2,-2051.2,2138.6,-941.9,-349.0,2025-01-29 11:52:39,1
1307.6000000000004,-777.2,-1615.1999999999998,2083.6,-1213.9,-669.0,2025-01-29 11:52:40,1
1419.6000000000004,-1257.2,-1119.1999999999998,2177.6,-1105.9,-1138.0,2025-01-29 11:52:40,1
1527.6000000000004,-2037.2,-935.1999999999998,2488.6,-639.9,-1459.0,2025-01-29 11:52:40,1
1107.6000000000004,-2729.2,-719.1999999999998,2757.6,37.1,-1482.0,2025-01-29 11:52:40,1
967.6000000000004,-2669.2,-451.1999999999998,2764.6,533.1,-1201.0,2025-01-29 11:52:40,1
663.6000000000004,-1949.2,-63.19999999999982,2507.6,884.1,-1027.0,2025-01-29 11:52:40,1
471.6000000000004,-1221.2,-147.19999999999982,2040.6,721.1,-1009.0,2025-01-29 11:52:40,1
211.6000000000004,-789.2,8.800000000000182,1337.6,555.1,-1099.0,2025-01-29 11:52:40,1
351.6000000000004,-777.2,156.80000000000018,645.6,435.1,-1268.0,2025-01-29 11:52:40,1
383.6000000000004,-1413.2,108.80000000000018,-196.4,347.1,-1680.0,2025-01-29 11:52:40,1
419.6000000000004,-2161.2,248.80000000000015,-685.4,316.1,-1836.0,2025-01-29 11:52:40,1
659.6000000000004,-2901.2,-51.19999999999982,-728.4,196.1,-1700.0,2025-01-29 11:52:40,1
735.6000000000004,-3357.2,-263.1999999999998,-681.4,354.1,-1526.0,2025-01-29 11:52:40,1
731.6000000000004,-3373.2,272.8000000000002,-491.4,817.1,-1465.0,2025-01-29 11:52:40,1
259.6000000000004,-2989.2,588.8000000000002,-392.4,933.1,-1356.0,2025-01-29 11:52:40,1
-168.39999999999964,-2777.2,644.8000000000002,-497.4,399.1,-1136.0,2025-01-29 11:52:40,1
3.600000000000364,-2649.2,720.8000000000002,-625.4,-566.9,-758.0,2025-01-29 11:52:40,1
407.6000000000004,-2541.2,920.8000000000002,-732.4,-1207.9,-284.0,2025-01-29 11:52:40,1
755.6000000000004,-2437.2,840.8000000000002,-960.4,-1224.9,76.0,2025-01-29 11:52:40,1
1099.6000000000004,-2393.2,624.8000000000002,-1245.4,-713.9,370.0,2025-01-29 11:52:40,1
1163.6000000000004,-2597.2,512.8000000000002,-1464.4,-108.9,696.0,2025-01-29 11:52:40,1
1075.6000000000004,-2809.2,372.8000000000002,-1602.4,588.1,744.0,2025-01-29 11:52:40,1
515.6000000000004,-3097.2,280.8000000000002,-1578.4,887.1,811.0,2025-01-29 11:52:40,1
183.6000000000004,-3589.2,108.80000000000018,-1416.4,762.1,951.0,2025-01-29 11:52:40,1
243.6000000000004,-3529.2,-455.1999999999998,-988.4,238.1,1007.0,2025-01-29 11:52:40,1
559.6000000000004,-3117.2,-1007.1999999999998,-700.4,-142.9,646.0,2025-01-29 11:52:40,1
427.6000000000004,-1781.2,-883.1999999999998,-889.4,-32.900000000000006,66.0,2025-01-29 11:52:40,1
147.60000000000036,-625.2,-503.1999999999998,-1410.4,39.1,-472.0,2025-01-29 11:52:40,1
23.600000000000364,-381.2000000000001,-319.1999999999998,-2126.4,-69.9,-1038.0,2025-01-29 11:52:40,1
-356.39999999999964,-737.2,-143.19999999999982,-2762.4,-139.9,-1521.0,2025-01-29 11:52:40,1
-700.3999999999996,-1613.2,-339.1999999999998,-3529.4,-173.9,-2140.0,2025-01-29 11:52:40,1
-716.3999999999996,-2285.2,120.80000000000018,-4078.4,-359.9,-3083.0,2025-01-29 11:52:40,1
-724.3999999999996,-3497.2,44.80000000000018,-4190.4,-741.9,-4142.0,2025-01-29 11:52:40,1
-244.39999999999964,-4017.2,-803.1999999999998,-3816.4,-1443.9,-4898.0,2025-01-29 11:52:40,1
-632.3999999999996,-4237.2,-1315.1999999999998,-3440.4,-1350.9,-5217.0,2025-01-29 11:52:40,1
-1128.3999999999996,-4765.2,-403.1999999999998,-3053.4,-554.9,-5365.0,2025-01-29 11:52:40,1
-1744.3999999999996,-5469.2,468.8000000000002,-2401.4,270.1,-5387.0,2025-01-29 11:52:40,1
-2444.4,-5969.2,-87.19999999999982,-1735.4,416.1,-5039.0,2025-01-29 11:52:40,1
-3344.4,-6433.2,-1263.1999999999998,-1350.4,-131.9,-4005.0,2025-01-29 11:52:40,1
-3772.4,-6089.2,-2031.2,-1214.4,-829.9,-2130.0,2025-01-29 11:52:40,1
-3568.4,-4889.2,-2223.2,-1168.4,-1808.9,-46.0,2025-01-29 11:52:40,1
-616.3999999999996,-3057.2,-1095.1999999999998,-2211.4,1021.1,1893.0,2025-01-29 11:52:40,1
-872.3999999999996,-3429.2,-887.1999999999998,-983.4,-484.9,2722.0,2025-01-29 11:52:40,1
-648.3999999999996,-3081.2,-987.1999999999998,-13.400000000000006,-1507.9,3521.0,2025-01-29 11:52:40,1
-16.399999999999636,-2061.2,-991.1999999999998,561.6,-2317.9,4080.0,2025-01-29 11:52:40,1
687.6000000000004,-657.2,-819.1999999999998,1012.6,-2971.9,4605.0,2025-01-29 11:52:40,1
1871.6000000000004,594.8,-859.1999999999998,1262.6,-3291.9,4844.0,2025-01-29 11:52:40,1
2987.6000000000004,1238.8,-1139.1999999999998,1340.6,-2724.9,4625.0,2025-01-29 11:52:40,1
3383.6000000000004,1482.8,-767.1999999999998,1208.6,-1449.9,4118.0,2025-01-29 11:52:41,1
3263.6000000000004,1526.8,-431.1999999999998,1154.6,183.1,3617.0,2025-01-29 11:52:41,1
3167.6000000000004,1130.8,-547.1999999999998,1014.6,1010.1,3196.0,2025-01-29 11:52:41,1
2251.6000000000004,798.8,-199.19999999999985,942.6,1141.1,2739.0,2025-01-29 11:52:41,1
1827.6000000000004,246.79999999999995,196.80000000000015,1097.6,1064.1,2442.0,2025-01-29 11:52:41,1
1691.6000000000004,162.79999999999995,240.80000000000015,1310.6,605.1,2115.0,2025-01-29 11:52:41,1
1655.6000000000004,394.8,412.8000000000002,1727.6,130.1,1583.0,2025-01-29 11:52:41,1
1615.6000000000004,526.8,472.8000000000002,2158.6,-239.9,961.0,2025-01-29 11:52:41,1
1035.6000000000004,866.8,564.8000000000002,2412.6,-539.9,418.0,2025-01-29 11:52:41,1
651.6000000000004,706.8,660.8000000000002,2546.6,-1072.9,217.0,2025-01-29 11:52:41,1
603.6000000000004,190.79999999999995,936.8000000000002,2650.6,-1362.9,349.0,2025-01-29 11:52:41,1
475.6000000000004,-193.20000000000005,1136.8000000000002,2877.6,-1358.9,447.0,2025-01-29 11:52:41,1
95.60000000000036,-229.20000000000005,1412.8000000000002,3073.6,-1352.9,591.0,2025-01-29 11:52:41,1
-284.39999999999964,-189.20000000000005,1312.8000000000002,3465.6,-1145.9,698.0,2025-01-29 11:52:41,1
-928.3999999999996,-269.20000000000005,872.8000000000002,3854.6,-1146.9,814.0,2025-01-29 11:52:41,1
-1500.3999999999996,26.799999999999955,600.8000000000002,4045.6,-1684.9,1172.0,2025-01-29 11:52:41,1
-1520.3999999999996,890.8,-423.1999999999998,3955.6,-1940.9,1830.0,2025-01-29 11:52:41,1
-836.3999999999996,1586.8,-1091.1999999999998,3309.6,-1484.9,2360.0,2025-01-29 11:52:41,1
-304.39999999999964,1586.8,-375.1999999999998,2811.6,-483.9,2317.0,2025-01-29 11:52:41,1
-752.3999999999996,1058.8,1760.8000000000002,2785.6,811.1,1860.0,2025-01-29 11:52:41,1
-2748.4,886.8,2216.8,3186.6,2092.1,2024.0,2025-01-29 11:52:41,1
-3700.4,402.8,284.8000000000002,3310.6,3571.1,2486.0,2025-01-29 11:52:41,1
-3996.4,598.8,-1079.1999999999998,3149.6,4263.1,2836.0,2025-01-29 11:52:41,1
-4412.4,2082.8,-1755.1999999999998,2460.6,3174.1,3165.0,2025-01-29 11:52:41,1
-3952.4,3622.8,-2527.2,1674.6,1174.1,3329.0,2025-01-29 11:52:41,1
-2184.4,4142.8,-3267.2,708.6,-1159.9,2713.0,2025-01-29 11:52:41,1
-608.3999999999996,3310.8,-2763.2,-51.400000000000006,-2463.9,676.0,2025-01-29 11:52:41,1
-320.39999999999964,1946.8,-2507.2,-412.4,-2496.9,-1101.0,2025-01-29 11:52:41,1
499.6000000000004,878.8,-3191.2,-4.400000000000006,-2364.9,-1508.0,2025-01-29 11:52:41,1
2499.6000000000004,150.79999999999995,-4359.2,298.6,-3085.9,-1714.0,2025-01-29 11:52:41,1
3891.6,-1701.2,-3379.2,778.6,-3364.9,-1995.0,2025-01-29 11:52:41,1
4251.6,-2989.2,-2627.2,1429.6,-2364.9,-2164.0,2025-01-29 11:52:41,1
4259.6,-3597.2,-2467.2,1740.6,-430.9,-2180.0,2025-01-29 11:52:41,1
3719.6,-3569.2,-2195.2,1899.6,1801.1,-1919.0,2025-01-29 11:52:41,1
2711.6000000000004,-2377.2,-1823.2,2008.6,3450.1,-1418.0,2025-01-29 11:52:41,1
2131.6000000000004,-885.2,-1691.1999999999998,2021.6,4009.1,-1298.0,2025-01-29 11:52:41,1
1063.6000000000004,614.8,-2051.2,1512.6,3981.1,-1830.0,2025-01-29 11:52:41,1
131.60000000000036,1094.8,-2511.2,621.6,2428.1,-2628.0,2025-01-29 11:52:41,1
-128.39999999999964,530.8,-2563.2,59.6,-3.9000000000000057,-3286.0,2025-01-29 11:52:41,1
-148.39999999999964,-697.2,-2611.2,-203.4,-1710.9,-3579.0,2025-01-29 11:52:41,1
515.6000000000004,-1681.2,-1983.2,-406.4,-2901.9,-3586.0,2025-01-29 11:52:41,1
1335.6000000000004,-1805.2,-1243.1999999999998,-702.4,-3622.9,-3391.0,2025-01-29 11:52:41,1
2435.6000000000004,-1657.2,-411.1999999999998,-1031.4,-3215.9,-2994.0,2025-01-29 11:52:41,1
3459.6000000000004,-1517.2,-159.19999999999982,-1366.4,-1700.9,-3126.0,2025-01-29 11:52:41,1
3703.6,-1769.2,156.80000000000018,-1708.4,101.1,-3517.0,2025-01-29 11:52:41,1
3219.6000000000004,-2165.2,456.8000000000002,-1907.4,1650.1,-3854.0,2025-01-29 11:52:41,1
2447.6000000000004,-2645.2,512.8000000000002,-1888.4,2738.1,-3980.0,2025-01-29 11:52:41,1
1503.6000000000004,-2945.2,408.8000000000002,-1713.4,3055.1,-3758.0,2025-01-29 11:52:41,1
871.6000000000004,-3117.2,184.80000000000015,-1576.4,2806.1,-3228.0,2025-01-29 11:52:41,1
291.6000000000004,-3393.2,-67.19999999999982,-1502.4,1840.1,-2432.0,2025-01-29 11:52:41,1
-16.399999999999636,-3041.2,-155.19999999999982,-1376.4,1050.1,-1601.0,2025-01-29 11:52:41,1
511.6000000000004,-2725.2,-295.1999999999998,-1271.4,583.1,-1010.0,2025-01-29 11:52:41,1
1075.6000000000004,-2301.2,-367.1999999999998,-1213.4,312.1,-690.0,2025-01-29 11:52:41,1
1295.6000000000004,-1889.2,-195.19999999999985,-1493.4,480.1,-516.0,2025-01-29 11:52:41,1
1343.6000000000004,-1705.2,-67.19999999999982,-1981.4,943.1,-389.0,2025-01-29 11:52:41,1
695.6000000000004,-1513.2,428.8000000000002,-2372.4,1180.1,-210.0,2025-01-29 11:52:41,1
447.6000000000004,-1553.2,356.8000000000002,-2688.4,895.1,191.0,2025-01-29 11:52:41,1
671.6000000000004,-1833.2,212.80000000000015,-3035.4,578.1,492.0,2025-01-29 11:52:41,1
723.6000000000004,-2557.2,160.80000000000018,-3165.4,437.1,529.0,2025-01-29 11:52:42,1
1095.6000000000004,-2849.2,-387.1999999999998,-3154.4,385.1,281.0,2025-01-29 11:52:42,1
783.6000000000004,-2801.2,-223.19999999999985,-2982.4,791.1,10.0,2025-01-29 11:52:42,1
223.6000000000004,-2501.2,-159.19999999999982,-2993.4,1265.1,-84.0,2025-01-29 11:52:42,1
-232.39999999999964,-1557.2,-475.1999999999998,-3088.4,1680.1,104.0,2025-01-29 11:52:42,1
-348.39999999999964,-717.2,-1203.1999999999998,-3153.4,1757.1,-22.0,2025-01-29 11:52:42,1
-1248.3999999999996,-1785.2,-1559.1999999999998,-3583.4,2219.1,-663.0,2025-01-29 11:52:42,1
-1716.3999999999996,-2977.2,72.80000000000018,-3481.4,2206.1,-1952.0,2025-01-29 11:52:42,1
-3060.4,-3309.2,968.8000000000002,-3094.4,882.1,-2640.0,2025-01-29 11:52:42,1
-3496.4,-2837.2,64.80000000000018,-2737.4,-145.9,-2612.0,2025-01-29 11:52:42,1
-3016.4,-1317.2,-2723.2,-2346.4,-397.9,-2866.0,2025-01-29 11:52:42,1
-2504.4,-2517.2,-2859.2,-2740.4,-8.900000000000006,-3615.0,2025-01-29 11:52:42,1
-2456.4,-5181.2,-1995.2,-2043.4,-378.9,-3794.0,2025-01-29 11:52:42,1
-3668.4,-6489.2,-2607.2,-1250.4,-1062.9,-1924.0,2025-01-29 11:52:42,1
-3664.4,-5501.2,-3531.2,-772.4,-2161.9,1535.0,2025-01-29 11:52:42,1
-584.3999999999996,-4177.2,-4095.2,-89.4,-3705.9,2436.0,2025-01-29 11:52:42,1
807.6000000000004,-3009.2,-3719.2,119.6,-4701.9,1905.0,2025-01-29 11:52:42,1
2511.6000000000004,-1701.2,-2395.2,597.6,-5794.9,1558.0,2025-01-29 11:52:42,1
