acceleration_x,acceleration_y,acceleration_z,gyroscope_x,gyroscope_y,gyroscope_z,timestamp,label
-11408,-1096,-7404,-5,310,-122,2025-01-29 10:42:31,1
-11352,-1084,-7472,27,129,-36,2025-01-29 10:42:31,1
-11240,-980,-7392,-1,-14,-71,2025-01-29 10:42:31,1
-11064,-880,-7460,-42,11,-121,2025-01-29 10:42:31,1
-11020,-752,-7532,-32,181,-160,2025-01-29 10:42:32,1
-11144,-708,-7464,-84,286,-194,2025-01-29 10:42:32,1
-11104,-700,-7416,-68,352,-182,2025-01-29 10:42:32,1
-11256,-788,-7528,-159,309,-156,2025-01-29 10:42:32,1
-11296,-904,-7484,-164,262,-171,2025-01-29 10:42:32,1
-11328,-1028,-7544,-142,180,-172,2025-01-29 10:42:32,1
-11216,-976,-7576,-118,121,-128,2025-01-29 10:42:32,1
-11160,-772,-7556,-122,68,-123,2025-01-29 10:42:32,1
-11060,-688,-7676,-154,95,-144,2025-01-29 10:42:32,1
-10992,-728,-7620,-203,147,-175,2025-01-29 10:42:32,1
-11100,-788,-7552,-194,266,-183,2025-01-29 10:42:32,1
-11224,-856,-7380,-221,294,-201,2025-01-29 10:42:32,1
-11260,-972,-7308,-219,285,-179,2025-01-29 10:42:32,1
-11164,-984,-7724,-155,185,-142,2025-01-29 10:42:32,1
-11068,-1032,-7516,-160,190,-139,2025-01-29 10:42:32,1
-11112,-1044,-7508,-140,265,-143,2025-01-29 10:42:32,1
-11000,-896,-7364,-129,343,-167,2025-01-29 10:42:32,1
-11048,-904,-7508,-115,418,-211,2025-01-29 10:42:32,1
-11056,-620,-7568,-107,427,-231,2025-01-29 10:42:32,1
-11084,-760,-7480,-141,249,-292,2025-01-29 10:42:32,1
-11008,-844,-7816,-36,-25,-336,2025-01-29 10:42:32,1
-10868,-1136,-7500,-23,-20,-496,2025-01-29 10:42:32,1
-10668,-1396,-7364,86,288,-613,2025-01-29 10:42:32,1
-10808,-1396,-7336,96,780,-733,2025-01-29 10:42:32,1
-11048,-1128,-7568,235,944,-670,2025-01-29 10:42:32,1
-11164,-1156,-7828,197,1120,-686,2025-01-29 10:42:32,1
-11340,-1112,-7808,213,1281,-818,2025-01-29 10:42:32,1
-12016,-1132,-7816,175,1041,-825,2025-01-29 10:42:32,1
-12388,-908,-8044,-64,378,-686,2025-01-29 10:42:32,1
-12508,-500,-7904,-520,-832,-474,2025-01-29 10:42:32,1
-12044,-688,-7564,-906,-1983,-255,2025-01-29 10:42:32,1
-11388,-828,-7244,-1286,-2381,-189,2025-01-29 10:42:32,1
-10704,-820,-7112,-1599,-1867,-309,2025-01-29 10:42:32,1
-10672,-1088,-6540,-1812,-1004,-482,2025-01-29 10:42:32,1
-11016,-1220,-6324,-1760,-329,-543,2025-01-29 10:42:32,1
-11292,-1236,-6324,-1799,13,-493,2025-01-29 10:42:32,1
-11796,-1548,-6404,-1832,-69,-548,2025-01-29 10:42:32,1
-12128,-1732,-6444,-1776,-321,-482,2025-01-29 10:42:32,1
-12028,-1916,-6604,-1693,-611,-289,2025-01-29 10:42:32,1
-11784,-1796,-6508,-1651,-820,-117,2025-01-29 10:42:32,1
-11656,-1732,-6884,-1584,-818,3,2025-01-29 10:42:32,1
-11644,-1760,-6896,-1543,-778,65,2025-01-29 10:42:32,1
-11816,-1692,-6944,-1415,-778,269,2025-01-29 10:42:32,1
-11796,-1656,-6976,-1321,-864,372,2025-01-29 10:42:32,1
-11652,-1592,-6672,-1227,-1033,482,2025-01-29 10:42:32,1
-11436,-1400,-6872,-1156,-1143,523,2025-01-29 10:42:32,1
-11208,-1400,-6916,-1060,-1112,564,2025-01-29 10:42:32,1
-11116,-1008,-7108,-911,-1123,611,2025-01-29 10:42:32,1
-10964,-860,-7248,-771,-897,652,2025-01-29 10:42:32,1
-10888,-688,-7224,-746,-538,688,2025-01-29 10:42:32,1
-10984,-456,-7500,-765,-161,563,2025-01-29 10:42:32,1
-11300,-536,-7464,-765,40,736,2025-01-29 10:42:32,1
-11532,-288,-7728,-796,145,929,2025-01-29 10:42:32,1
-11816,116,-7852,-1206,322,1079,2025-01-29 10:42:32,1
-12028,144,-7456,-1459,112,1143,2025-01-29 10:42:32,1
-12028,100,-7284,-1562,-444,1240,2025-01-29 10:42:32,1
-11892,700,-6728,-1773,-1049,1502,2025-01-29 10:42:32,1
-11260,1224,-5524,-1907,-1252,1605,2025-01-29 10:42:32,1
-11116,1400,-4552,-1753,-753,1359,2025-01-29 10:42:32,1
-11112,956,-3700,-1420,233,1021,2025-01-29 10:42:32,1
-12076,248,-3152,-828,1980,834,2025-01-29 10:42:32,1
-13068,-8,-3460,-134,3342,1228,2025-01-29 10:42:33,1
-13468,168,-4296,172,3723,1720,2025-01-29 10:42:33,1
-13744,1024,-4736,106,3124,2118,2025-01-29 10:42:33,1
-13080,1836,-5580,-95,1965,2301,2025-01-29 10:42:33,1
-12308,2040,-5500,-370,1117,2163,2025-01-29 10:42:33,1
-11460,1924,-4876,-519,437,1943,2025-01-29 10:42:33,1
-11040,1832,-4344,-317,169,1784,2025-01-29 10:42:33,1
-10388,1840,-3848,7,377,1476,2025-01-29 10:42:33,1
-10488,1656,-3376,398,901,1070,2025-01-29 10:42:33,1
-10904,1424,-3572,741,1663,697,2025-01-29 10:42:33,1
-11640,1128,-3908,1045,2124,498,2025-01-29 10:42:33,1
-12468,1080,-4604,1465,1992,558,2025-01-29 10:42:33,1
-12856,1632,-5380,1583,1398,562,2025-01-29 10:42:33,1
-13152,2012,-5176,1683,708,560,2025-01-29 10:42:33,1
-13368,2040,-5088,1893,121,721,2025-01-29 10:42:33,1
-13492,1660,-4832,2075,-467,1031,2025-01-29 10:42:33,1
-12980,1476,-4596,2359,-928,1351,2025-01-29 10:42:33,1
-12924,2164,-6032,2419,-540,1879,2025-01-29 10:42:33,1
-12844,3132,-7000,2135,707,2743,2025-01-29 10:42:33,1
-13216,3192,-8220,1707,2052,3128,2025-01-29 10:42:33,1
-14540,2116,-8552,1175,2952,3042,2025-01-29 10:42:33,1
-16644,1624,-7136,1228,1939,3036,2025-01-29 10:42:33,1
-16300,2200,-7576,1709,-459,2935,2025-01-29 10:42:33,1
-12600,4348,-9076,2162,-4018,946,2025-01-29 10:42:33,1
-10128,4972,-9628,2283,-4072,-2098,2025-01-29 10:42:33,1
-11428,2996,-9368,1783,-1707,-3594,2025-01-29 10:42:33,1
-11208,1144,-9788,1885,-143,-3467,2025-01-29 10:42:33,1
-10372,-528,-10112,1846,-82,-3791,2025-01-29 10:42:33,1
-10300,-728,-9484,1677,-959,-3933,2025-01-29 10:42:33,1
-9860,-716,-8112,1793,-1455,-3608,2025-01-29 10:42:33,1
-9588,-1020,-7248,2005,-659,-3094,2025-01-29 10:42:33,1
-9028,-1672,-7188,2151,401,-2966,2025-01-29 10:42:33,1
-9060,-2480,-7336,2261,991,-3079,2025-01-29 10:42:33,1
-9680,-2760,-7900,2379,1180,-3120,2025-01-29 10:42:33,1
-10372,-2284,-8220,2107,1198,-3113,2025-01-29 10:42:33,1
-11060,-1452,-8208,1853,1197,-3042,2025-01-29 10:42:33,1
-11260,-420,-8220,1659,1185,-3129,2025-01-29 10:42:33,1
-11468,68,-8224,1313,738,-3334,2025-01-29 10:42:33,1
-11264,0,-7692,841,-193,-3637,2025-01-29 10:42:33,1
-10784,-864,-6876,218,-1636,-3788,2025-01-29 10:42:33,1
-10236,-1784,-6164,-59,-2240,-3726,2025-01-29 10:42:33,1
-9936,-2536,-6016,-224,-1742,-3351,2025-01-29 10:42:33,1
-9308,-3484,-5592,-664,-287,-2747,2025-01-29 10:42:33,1
-8840,-4048,-5540,-799,1072,-2557,2025-01-29 10:42:33,1
-8964,-3864,-5912,-785,2186,-2502,2025-01-29 10:42:33,1
-9252,-2848,-6244,-742,2966,-2461,2025-01-29 10:42:33,1
-10020,-2048,-6528,-644,3546,-2532,2025-01-29 10:42:33,1
-10796,-1596,-6796,-707,3914,-2648,2025-01-29 10:42:33,1
-11356,-1952,-6924,-909,3610,-2706,2025-01-29 10:42:33,1
-11948,-2508,-6864,-1203,2635,-2611,2025-01-29 10:42:33,1
-12464,-3272,-6304,-1184,1350,-2137,2025-01-29 10:42:33,1
-12336,-3952,-6172,-886,99,-1078,2025-01-29 10:42:33,1
-11196,-3896,-5944,-402,-726,-176,2025-01-29 10:42:33,1
-9888,-3620,-6332,96,-802,10,2025-01-29 10:42:34,1
-9596,-3200,-6416,331,-29,57,2025-01-29 10:42:34,1
-9884,-2356,-6656,280,1410,402,2025-01-29 10:42:34,1
-10076,-1804,-6732,-43,2144,654,2025-01-29 10:42:34,1
-10352,-1984,-6936,-421,2445,609,2025-01-29 10:42:34,1
-10672,-2672,-6732,-456,2536,244,2025-01-29 10:42:34,1
-11416,-2944,-6840,-337,2431,25,2025-01-29 10:42:34,1
-11936,-2404,-7504,-321,2064,78,2025-01-29 10:42:34,1
-11744,-2272,-8108,-437,1501,-89,2025-01-29 10:42:34,1
-13136,-1128,-11036,-1531,-11200,3144,2025-01-29 10:42:34,1
-8508,-600,-10104,-1797,-12607,4230,2025-01-29 10:42:34,1
-4352,4,-9380,-1686,-11829,4159,2025-01-29 10:42:34,1
-2164,812,-8712,-1511,-7704,2753,2025-01-29 10:42:34,1
-1960,732,-9092,-1393,-820,752,2025-01-29 10:42:34,1
-4560,-956,-9508,-1397,6496,-580,2025-01-29 10:42:34,1
-8528,-2736,-8688,-809,12026,0,2025-01-29 10:42:34,1
-10712,-3220,-8608,-346,13597,782,2025-01-29 10:42:34,1
-13276,-2776,-8832,-360,11655,1714,2025-01-29 10:42:34,1
-16116,-1872,-8980,-331,7191,3283,2025-01-29 10:42:34,1
-16920,-1736,-9664,-90,1850,5385,2025-01-29 10:42:34,1
-15112,-1660,-9920,6,-3931,7053,2025-01-29 10:42:34,1
-12348,-868,-9072,245,-7529,7443,2025-01-29 10:42:34,1
-9208,160,-8120,688,-9537,7171,2025-01-29 10:42:34,1
-6584,712,-7184,1064,-9480,6406,2025-01-29 10:42:34,1
-5120,1280,-6468,1227,-6998,5442,2025-01-29 10:42:34,1
-4736,1588,-6188,1131,-2182,4304,2025-01-29 10:42:34,1
-5864,2068,-6588,664,2662,3318,2025-01-29 10:42:34,1
-8628,2164,-7180,-59,5294,2783,2025-01-29 10:42:34,1
-10084,1716,-7384,-361,4699,2492,2025-01-29 10:42:34,1
-10672,1244,-6896,-231,2293,1689,2025-01-29 10:42:34,1
-10540,780,-6984,22,-303,586,2025-01-29 10:42:34,1
-10460,428,-6600,-188,-1529,-55,2025-01-29 10:42:34,1
-9756,408,-6276,-340,-1739,-311,2025-01-29 10:42:34,1
-9644,736,-5916,-422,-1081,-592,2025-01-29 10:42:34,1
-10144,572,-5832,-390,-37,-779,2025-01-29 10:42:34,1
-10892,228,-6068,-337,-266,-1051,2025-01-29 10:42:34,1
-11836,-92,-5692,-84,-1120,-1164,2025-01-29 10:42:34,1
-12172,132,-5720,569,-1998,-766,2025-01-29 10:42:34,1
-11876,272,-5356,1103,-2141,-544,2025-01-29 10:42:34,1
-11252,132,-5280,1490,-1606,-633,2025-01-29 10:42:34,1
-11516,-48,-4900,1963,-645,-706,2025-01-29 10:42:34,1
-12404,-56,-4728,2453,778,-329,2025-01-29 10:42:34,1
-13820,404,-5176,2736,2563,346,2025-01-29 10:42:34,1
-14956,888,-6276,2715,3191,862,2025-01-29 10:42:34,1
-15516,1608,-7496,2214,1964,1492,2025-01-29 10:42:34,1
-14408,2368,-7548,1443,-581,2137,2025-01-29 10:42:34,1
-13252,2588,-6352,833,-1577,2173,2025-01-29 10:42:34,1
-12904,2324,-6348,392,-454,1951,2025-01-29 10:42:34,1
-13704,1924,-7592,11,2106,1756,2025-01-29 10:42:34,1
-14976,1712,-9316,-356,4131,1780,2025-01-29 10:42:34,1
-15624,2192,-10616,-999,4393,1993,2025-01-29 10:42:34,1
-14260,2808,-10864,-1795,1295,1250,2025-01-29 10:42:34,1
-11796,1152,-9488,-1543,-3451,-1466,2025-01-29 10:42:34,1
-11712,-32,-10532,-1443,-4205,-2115,2025-01-29 10:42:34,1
-9324,-852,-10252,-1442,-4178,-2012,2025-01-29 10:42:34,1
-7844,-2156,-9240,-747,-2860,-2264,2025-01-29 10:42:34,1
-7528,-3460,-8108,824,62,-2394,2025-01-29 10:42:35,1
-8104,-4472,-7932,2102,2672,-2521,2025-01-29 10:42:35,1
-9208,-4244,-7576,3074,3875,-2548,2025-01-29 10:42:35,1
-10496,-3144,-7776,3760,3088,-2300,2025-01-29 10:42:35,1
-11164,-1932,-7972,4036,1679,-2056,2025-01-29 10:42:35,1
-11096,-1024,-8572,3790,479,-2030,2025-01-29 10:42:35,1
-10760,-592,-8620,3155,-317,-2233,2025-01-29 10:42:35,1
-10484,-660,-8912,2355,-1138,-2633,2025-01-29 10:42:35,1
-9880,-620,-8928,1695,-1997,-2739,2025-01-29 10:42:35,1
-9452,-908,-8496,1068,-2279,-2636,2025-01-29 10:42:35,1
-8704,-1140,-7936,434,-2038,-2504,2025-01-29 10:42:35,1
-8120,-1680,-7524,-13,-1239,-2525,2025-01-29 10:42:35,1
-7952,-2268,-7076,-481,206,-2878,2025-01-29 10:42:35,1
-8256,-2680,-6744,-722,1525,-3168,2025-01-29 10:42:35,1
-9308,-2980,-6624,-682,2568,-3330,2025-01-29 10:42:35,1
-10212,-2744,-6804,-719,2658,-3352,2025-01-29 10:42:35,1
-10856,-2756,-6580,-698,1951,-3109,2025-01-29 10:42:35,1
-11444,-2844,-6440,-631,1009,-2460,2025-01-29 10:42:35,1
-11052,-3192,-6232,-500,442,-1693,2025-01-29 10:42:35,1
-10624,-3312,-5656,-377,436,-1511,2025-01-29 10:42:35,1
-10604,-2944,-5480,-216,469,-1208,2025-01-29 10:42:35,1
-10284,-2404,-6008,-301,629,-652,2025-01-29 10:42:35,1
-10184,-2104,-6896,-805,1167,-170,2025-01-29 10:42:35,1
-10756,-2208,-7076,-1490,1752,290,2025-01-29 10:42:35,1
-11148,-2452,-6780,-1850,2049,580,2025-01-29 10:42:35,1
-11124,-2516,-6756,-2023,1757,439,2025-01-29 10:42:35,1
-11772,-2572,-6832,-2015,627,73,2025-01-29 10:42:35,1
-12108,-2560,-7192,-1907,-353,-143,2025-01-29 10:42:35,1
-12200,-1960,-7200,-1718,-641,-258,2025-01-29 10:42:35,1
-12652,-1488,-7340,-1931,-279,-413,2025-01-29 10:42:35,1
-12588,-1664,-7068,-2142,59,-890,2025-01-29 10:42:35,1
-13236,-2576,-7184,-2586,128,-1651,2025-01-29 10:42:35,1
-13848,-2932,-6104,-3070,-283,-2322,2025-01-29 10:42:35,1
-14596,-2992,-4920,-3461,-981,-2794,2025-01-29 10:42:35,1
-13956,-2952,-6884,-3245,-887,-3038,2025-01-29 10:42:35,1
-13532,-3400,-8832,-3218,285,-3222,2025-01-29 10:42:35,1
-13360,-4880,-8236,-2716,1333,-4046,2025-01-29 10:42:35,1
-14428,-6416,-8020,-1418,1054,-4468,2025-01-29 10:42:35,1
-17024,-6724,-8948,-489,-941,-2613,2025-01-29 10:42:35,1
-17068,-5900,-10280,-295,-3471,1535,2025-01-29 10:42:35,1
-12368,-4176,-10772,258,-5369,2836,2025-01-29 10:42:35,1
-10064,-3032,-10744,228,-6787,2456,2025-01-29 10:42:35,1
-7764,-1820,-9724,278,-7636,2083,2025-01-29 10:42:35,1
-6356,-184,-9360,263,-7218,2082,2025-01-29 10:42:35,1
-5452,1920,-9668,-124,-4652,2178,2025-01-29 10:42:35,1
-5032,3272,-9752,-703,-636,1944,2025-01-29 10:42:35,1
-5156,3092,-9272,-1337,4031,773,2025-01-29 10:42:35,1
-8052,596,-8996,-2131,7813,-1000,2025-01-29 10:42:35,1
-11856,-1112,-8268,-2204,8962,-846,2025-01-29 10:42:35,1
-14164,-2452,-7816,-2104,7677,261,2025-01-29 10:42:35,1
-15996,-2932,-7352,-1697,4608,1882,2025-01-29 10:42:35,1
-15528,-2536,-7676,-918,719,3667,2025-01-29 10:42:35,1
-13696,-1784,-8184,-512,-2712,4484,2025-01-29 10:42:35,1
-11900,-840,-7640,-85,-4549,4757,2025-01-29 10:42:35,1
-10172,136,-6944,420,-5169,4796,2025-01-29 10:42:35,1
-8576,536,-6296,599,-4779,4658,2025-01-29 10:42:35,1
-7360,704,-5556,680,-3419,3952,2025-01-29 10:42:35,1
-7052,968,-5224,871,-1275,3053,2025-01-29 10:42:35,1
-7900,1512,-5060,1038,1080,2300,2025-01-29 10:42:35,1
-8380,1584,-5720,988,1949,1882,2025-01-29 10:42:35,1
-8712,1424,-5900,918,2352,1342,2025-01-29 10:42:35,1
-8932,1260,-5832,886,2286,398,2025-01-29 10:42:36,1
-8960,1148,-6172,973,1604,-494,2025-01-29 10:42:36,1
-8588,880,-6036,1246,606,-1606,2025-01-29 10:42:36,1
-8672,860,-6280,1541,446,-2524,2025-01-29 10:42:36,1
-9424,1168,-6096,1345,989,-3122,2025-01-29 10:42:36,1
-10148,876,-6656,1055,1570,-3623,2025-01-29 10:42:36,1
-12048,388,-7684,714,2100,-3892,2025-01-29 10:42:36,1
-14452,-780,-7820,470,2327,-3233,2025-01-29 10:42:36,1
-15716,-2004,-7120,659,1537,-1892,2025-01-29 10:42:36,1
-16004,-2624,-5504,1031,-1102,-418,2025-01-29 10:42:36,1
-14884,-2724,-4876,1754,-2946,881,2025-01-29 10:42:36,1
-13456,-1808,-5060,2590,-2973,1887,2025-01-29 10:42:36,1
-12476,-1140,-5416,3291,-1492,2695,2025-01-29 10:42:36,1
-11764,-864,-5756,3669,397,2982,2025-01-29 10:42:36,1
-11884,-536,-5656,3941,1736,2738,2025-01-29 10:42:36,1
-12928,48,-5620,4076,2486,2301,2025-01-29 10:42:36,1
-14180,844,-6988,4023,2652,2152,2025-01-29 10:42:36,1
-14216,992,-9124,3425,1866,2228,2025-01-29 10:42:36,1
-14384,1188,-10656,2329,1473,2185,2025-01-29 10:42:36,1
-14996,2080,-10696,914,1432,2326,2025-01-29 10:42:36,1
-14548,2644,-10896,-133,992,2303,2025-01-29 10:42:36,1
-13380,2416,-11624,-1058,-230,1336,2025-01-29 10:42:36,1
-12796,2108,-11728,-1863,-1670,130,2025-01-29 10:42:36,1
-11736,1252,-9968,-2140,-3102,-864,2025-01-29 10:42:36,1
-10064,-292,-9060,-1955,-4501,-1408,2025-01-29 10:42:36,1
-7628,-2220,-8092,-1378,-5242,-1620,2025-01-29 10:42:36,1
-5940,-3920,-7400,-663,-5172,-1902,2025-01-29 10:42:36,1
-5580,-5060,-6496,-27,-3778,-1768,2025-01-29 10:42:36,1
-6056,-5580,-6540,904,504,-880,2025-01-29 10:42:36,1
-6388,-3844,-7964,1468,5088,-246,2025-01-29 10:42:36,1
-8108,-2372,-8968,1151,7227,-646,2025-01-29 10:42:36,1
-10780,-960,-9040,505,7626,-993,2025-01-29 10:42:36,1
-12624,-652,-8548,129,6240,-1217,2025-01-29 10:42:36,1
-13788,-956,-8748,201,3367,-1495,2025-01-29 10:42:36,1
-14048,-1680,-8992,448,-286,-1842,2025-01-29 10:42:36,1
-13680,-2332,-8992,631,-3497,-1926,2025-01-29 10:42:36,1
-12440,-2780,-8236,667,-5064,-1664,2025-01-29 10:42:36,1
-10704,-2688,-7472,606,-5511,-1290,2025-01-29 10:42:36,1
-8716,-2404,-7048,535,-5146,-998,2025-01-29 10:42:36,1
-11044,-2160,-6232,-2252,-1558,-349,2025-01-29 10:42:36,1
-10348,-1272,-6208,-2407,-1109,-157,2025-01-29 10:42:36,1
-10524,-1044,-6320,-2769,178,121,2025-01-29 10:42:36,1
-10540,-1592,-6172,-3048,1280,274,2025-01-29 10:42:36,1
-11236,-2576,-5560,-3042,1452,256,2025-01-29 10:42:36,1
-12040,-3372,-5572,-2754,963,193,2025-01-29 10:42:36,1
-12772,-3424,-5820,-2373,191,110,2025-01-29 10:42:36,1
-13024,-2712,-6116,-1920,-936,276,2025-01-29 10:42:36,1
-12488,-2080,-6308,-1618,-1336,246,2025-01-29 10:42:36,1
-12068,-1940,-6392,-1534,-1175,-40,2025-01-29 10:42:36,1
-12332,-2124,-6364,-1536,-1016,-284,2025-01-29 10:42:36,1
-12200,-2352,-6144,-1751,-1216,-496,2025-01-29 10:42:36,1
-11928,-1840,-6064,-1879,-1112,-891,2025-01-29 10:42:36,1
-11812,-1124,-7476,-1885,-908,-1701,2025-01-29 10:42:37,1
-11448,-944,-8924,-1760,-1041,-2355,2025-01-29 10:42:37,1
-11916,-1936,-8680,-1398,-436,-2599,2025-01-29 10:42:37,1
-12000,-3744,-8360,-685,-11,-2678,2025-01-29 10:42:37,1
-13088,-5400,-8656,71,791,-2439,2025-01-29 10:42:37,1
-15588,-6568,-9468,817,1890,-827,2025-01-29 10:42:37,1
-16528,-6108,-9200,1567,551,1426,2025-01-29 10:42:37,1
-14480,-3676,-10048,2118,-3199,2887,2025-01-29 10:42:37,1
-12580,-1032,-10696,1697,-5416,3439,2025-01-29 10:42:37,1
-10124,1128,-9900,1069,-5785,4112,2025-01-29 10:42:37,1
-7148,2808,-9904,536,-5183,4057,2025-01-29 10:42:37,1
-4836,3804,-9848,-30,-3722,3095,2025-01-29 10:42:37,1
-3772,3524,-9104,-820,-745,1299,2025-01-29 10:42:37,1
-4976,1868,-9084,-1622,3419,-360,2025-01-29 10:42:37,1
-7632,796,-9772,-2370,6917,-815,2025-01-29 10:42:37,1
-11268,124,-10668,-3212,8542,-236,2025-01-29 10:42:37,1
-13340,-588,-9140,-3672,7069,647,2025-01-29 10:42:37,1
-14568,-760,-8212,-3263,3153,1194,2025-01-29 10:42:37,1
-14104,-420,-8340,-2787,-786,1709,2025-01-29 10:42:37,1
-12400,40,-8216,-2525,-3217,1839,2025-01-29 10:42:37,1
-9676,156,-7396,-2090,-4127,1857,2025-01-29 10:42:37,1
-7084,196,-7308,-1593,-3275,1460,2025-01-29 10:42:37,1
-5888,548,-6756,-1470,-606,769,2025-01-29 10:42:37,1
-7188,1180,-6388,-1141,3756,57,2025-01-29 10:42:37,1
-9216,1632,-6704,-951,5468,-459,2025-01-29 10:42:37,1
-11644,1388,-7744,-1015,5028,-643,2025-01-29 10:42:37,1
-12932,924,-8056,-817,3224,-609,2025-01-29 10:42:37,1
-13308,128,-8256,-536,739,-716,2025-01-29 10:42:37,1
-12868,-640,-7444,-165,-1538,-816,2025-01-29 10:42:37,1
-11884,-664,-7244,456,-3051,-867,2025-01-29 10:42:37,1
-10456,-364,-7280,936,-3017,-992,2025-01-29 10:42:37,1
-9448,448,-7148,1042,-2637,-1378,2025-01-29 10:42:37,1
-9084,652,-6896,1151,-2244,-1425,2025-01-29 10:42:37,1
-8684,-8,-6132,1573,-992,-1394,2025-01-29 10:42:37,1
-8976,-888,-6204,2026,372,-1599,2025-01-29 10:42:37,1
-9960,-1536,-7064,2411,1918,-1656,2025-01-29 10:42:37,1
-11512,-1700,-9804,2116,3023,-1324,2025-01-29 10:42:37,1
-12836,-908,-10916,1558,3235,-313,2025-01-29 10:42:37,1
-11748,228,-10792,935,2060,336,2025-01-29 10:42:37,1
-10492,900,-10004,393,242,-7,2025-01-29 10:42:37,1
-9824,1124,-9552,-54,-769,-220,2025-01-29 10:42:37,1
-9124,900,-9548,-426,-533,-236,2025-01-29 10:42:37,1
-8352,580,-9448,-743,581,-308,2025-01-29 10:42:37,1
-8340,252,-9016,-990,2251,-592,2025-01-29 10:42:37,1
-9500,-468,-8164,-1025,3965,-895,2025-01-29 10:42:37,1
-10636,-992,-8408,-838,4193,-1151,2025-01-29 10:42:37,1
-12084,-1560,-8288,-551,3747,-1270,2025-01-29 10:42:37,1
-12892,-1568,-7944,-281,2355,-903,2025-01-29 10:42:37,1
-12840,-1088,-8036,-111,527,-193,2025-01-29 10:42:37,1
-11756,-724,-8208,-203,-315,-124,2025-01-29 10:42:37,1
-11060,-516,-8036,-250,-635,-174,2025-01-29 10:42:37,1
-10104,-652,-7644,-169,-349,-255,2025-01-29 10:42:37,1
-9752,-520,-7348,-199,301,-508,2025-01-29 10:42:37,1
-9812,-508,-7872,-226,1099,-578,2025-01-29 10:42:37,1
-10360,-424,-8604,-431,1644,-577,2025-01-29 10:42:37,1
-11044,-300,-9020,-723,1572,-583,2025-01-29 10:42:37,1
-11408,-492,-8816,-955,1027,-549,2025-01-29 10:42:37,1
-11452,-960,-8068,-1034,474,-522,2025-01-29 10:42:37,1
-11276,-1240,-7948,-879,75,-481,2025-01-29 10:42:37,1
-10796,-1404,-7704,-729,-46,-388,2025-01-29 10:42:37,1
-10596,-1408,-7976,-609,49,-393,2025-01-29 10:42:38,1
-10272,-1448,-8244,-434,639,-326,2025-01-29 10:42:38,1
-10416,-948,-8488,-388,1035,-279,2025-01-29 10:42:38,1
-10700,-820,-8244,-336,972,-303,2025-01-29 10:42:38,1
-11068,-888,-8164,-259,644,-311,2025-01-29 10:42:38,1
-11076,-1184,-7872,-142,333,-307,2025-01-29 10:42:38,1
-10960,-1084,-7876,-109,3,-312,2025-01-29 10:42:38,1
-10808,-1128,-7988,-72,-13,-291,2025-01-29 10:42:38,1
-10624,-972,-8236,-67,197,-216,2025-01-29 10:42:38,1
-10604,-828,-8296,-84,385,-188,2025-01-29 10:42:38,1
-10744,-1012,-8112,-101,390,-260,2025-01-29 10:42:38,1
-10792,-1260,-8168,-13,270,-244,2025-01-29 10:42:38,1
-10700,-1248,-8128,102,114,-140,2025-01-29 10:42:38,1
-10556,-960,-8284,67,151,-111,2025-01-29 10:42:38,1
-10404,-792,-8296,-34,371,-128,2025-01-29 10:42:38,1
-10552,-944,-8244,-110,622,-156,2025-01-29 10:42:38,1
-10796,-1020,-8104,-77,677,-115,2025-01-29 10:42:38,1
-10892,-1144,-7904,-66,483,-84,2025-01-29 10:42:38,1
-10952,-1028,-8280,-50,331,-105,2025-01-29 10:42:38,1
-10996,-1116,-8084,-2,138,-27,2025-01-29 10:42:38,1
-10864,-1000,-8112,47,113,22,2025-01-29 10:42:38,1
-10840,-912,-7956,69,175,38,2025-01-29 10:42:38,1
-10596,-996,-8160,17,257,-48,2025-01-29 10:42:38,1
-10844,-952,-8132,84,250,18,2025-01-29 10:42:38,1
-10660,-904,-8332,87,210,47,2025-01-29 10:42:38,1
-10724,-724,-8212,29,227,30,2025-01-29 10:42:38,1
-10868,-692,-8052,42,290,34,2025-01-29 10:42:38,1
-10676,-788,-8496,17,103,-29,2025-01-29 10:42:38,1
-10824,-772,-8460,32,83,40,2025-01-29 10:42:38,1
-10632,-928,-8240,-19,78,18,2025-01-29 10:42:38,1
-10728,-788,-7960,-2,111,-9,2025-01-29 10:42:38,1
-10772,-700,-7940,-19,153,-51,2025-01-29 10:42:38,1
-10696,-844,-8152,18,183,-18,2025-01-29 10:42:38,1
-10608,-724,-8224,-5,235,-17,2025-01-29 10:42:38,1
-10516,-892,-8112,-72,351,-39,2025-01-29 10:42:38,1
-10712,-916,-8080,-30,449,-75,2025-01-29 10:42:38,1
-10740,-800,-8104,-21,472,-73,2025-01-29 10:42:38,1
-10796,-768,-8264,-103,439,-112,2025-01-29 10:42:38,1
-10744,-756,-8116,-72,349,-137,2025-01-29 10:42:38,1
-10780,-780,-8156,-112,335,-139,2025-01-29 10:42:38,1
-10776,-692,-8100,-129,310,-156,2025-01-29 10:42:38,1
-10736,-712,-8272,-178,266,-183,2025-01-29 10:42:38,1
-10712,-788,-8216,-174,287,-198,2025-01-29 10:42:38,1
-10656,-868,-8080,-172,256,-183,2025-01-29 10:42:38,1
-10624,-932,-7984,-188,290,-227,2025-01-29 10:42:38,1
-10696,-872,-8052,-161,349,-239,2025-01-29 10:42:38,1
-10796,-864,-8252,-116,376,-225,2025-01-29 10:42:38,1
-10856,-852,-8048,-115,382,-181,2025-01-29 10:42:38,1
-10760,-900,-8128,-84,341,-147,2025-01-29 10:42:38,1
-10676,-836,-7896,-40,385,-123,2025-01-29 10:42:38,1
-10604,-988,-8012,31,424,-130,2025-01-29 10:42:38,1
-10676,-1056,-8032,83,582,-90,2025-01-29 10:42:38,1
-10528,-1108,-8184,171,766,-49,2025-01-29 10:42:38,1
-10484,-1240,-8172,264,893,-90,2025-01-29 10:42:38,4
-10716,-1256,-8056,386,980,-41,2025-01-29 10:42:38,4
-10740,-1472,-8260,547,930,22,2025-01-29 10:42:38,4
-10900,-1512,-8544,715,891,123,2025-01-29 10:42:39,4
-10884,-1280,-8720,796,747,155,2025-01-29 10:42:39,4
-11032,-1120,-8876,811,438,165,2025-01-29 10:42:39,4
-8692,1244,-1424,648,6681,-1989,2025-01-29 10:42:39,4
-10732,1816,-4512,343,7219,-2572,2025-01-29 10:42:39,4
-11648,2220,-6704,-921,6425,-3033,2025-01-29 10:42:39,4
-15084,1768,-9040,-2441,3036,-2661,2025-01-29 10:42:39,4
-19476,840,-12016,-3929,726,-677,2025-01-29 10:42:39,4
-22316,-44,-10568,-3679,-1869,-125,2025-01-29 10:42:39,4
-25012,-640,-8284,-3021,-4192,-36,2025-01-29 10:42:39,4
-25728,-2052,-11368,-2115,-1284,605,2025-01-29 10:42:39,4
-19644,-3636,-19676,-2142,-1699,-406,2025-01-29 10:42:39,4
-24880,-4376,-20812,-692,-4941,-687,2025-01-29 10:42:39,4
-29464,-5048,-16284,372,-1994,2677,2025-01-29 10:42:39,4
-27336,-3208,-19564,1344,4585,3260,2025-01-29 10:42:39,4
-31256,-600,-19736,3363,8078,2562,2025-01-29 10:42:39,4
-32768,1108,-18868,4858,12621,2840,2025-01-29 10:42:39,4
-32768,3456,-18432,5294,20925,2369,2025-01-29 10:42:39,4
-32768,5140,-20416,5893,32767,251,2025-01-29 10:42:39,4
-30676,4964,-25092,6019,32767,-889,2025-01-29 10:42:39,4
-18668,2060,-31132,4816,32767,-1766,2025-01-29 10:42:39,4
-5632,-2980,-32768,3119,32767,-3158,2025-01-29 10:42:39,4
-2328,-4620,-32768,714,22547,-4154,2025-01-29 10:42:39,4
-11004,-476,-24736,-1116,-8540,-1404,2025-01-29 10:42:39,4
-11780,3128,-13388,-1248,-32768,3027,2025-01-29 10:42:39,4
-1416,1504,-10612,-936,-32768,7013,2025-01-29 10:42:39,4
7184,-2100,-16120,-1812,-32768,9052,2025-01-29 10:42:39,4
18688,-5892,2960,1632,-32768,8044,2025-01-29 10:42:39,4
-8104,-4968,-17192,163,-32768,8021,2025-01-29 10:42:39,4
-6552,-5640,-20792,49,-32768,8433,2025-01-29 10:42:39,4
4772,-5396,-11448,116,-26348,8184,2025-01-29 10:42:39,4
17556,-2060,7640,-2569,-32768,11522,2025-01-29 10:42:39,4
16956,3392,14968,-2941,-32768,12521,2025-01-29 10:42:39,4
20808,3668,5256,-618,-32768,7580,2025-01-29 10:42:39,4
19960,3372,-3840,-389,-19766,-162,2025-01-29 10:42:39,4
15428,2588,-9012,-1747,-2402,-5737,2025-01-29 10:42:39,4
8412,1024,-13248,-4091,12661,-7047,2025-01-29 10:42:39,4
5364,-640,-11396,-4499,28438,-6557,2025-01-29 10:42:39,4
2792,-3784,3140,-976,32767,-4315,2025-01-29 10:42:39,4
2084,-4532,3704,2512,32767,-2400,2025-01-29 10:42:39,4
772,-4076,3892,3796,32767,-2617,2025-01-29 10:42:39,4
-168,-1084,3688,4428,26112,-3325,2025-01-29 10:42:39,4
-1752,-264,-848,3491,8091,-3193,2025-01-29 10:42:39,4
-5132,-56,-2280,683,-952,-2839,2025-01-29 10:42:39,4
-2276,292,-1592,-639,-4935,-1797,2025-01-29 10:42:39,4
-692,1128,2128,-1085,-13232,106,2025-01-29 10:42:39,4
1108,476,1236,-1546,-14265,992,2025-01-29 10:42:39,4
2672,472,-852,-2086,-10064,1101,2025-01-29 10:42:39,4
4832,280,-568,-2237,-6145,1163,2025-01-29 10:42:40,4
6604,44,1548,-1974,-5376,1450,2025-01-29 10:42:40,4
1092,1048,1816,-791,3720,1463,2025-01-29 10:42:40,4
-288,-3196,-21140,1506,20303,-460,2025-01-29 10:42:40,4
-2152,-5220,-32768,1238,32767,-4688,2025-01-29 10:42:40,4
-4316,-5492,-32768,1937,32767,-9583,2025-01-29 10:42:40,4
-18016,-2744,-16688,4851,32767,-16472,2025-01-29 10:42:40,4
-32768,6664,-25360,-2025,32767,-32768,2025-01-29 10:42:40,4
-32768,-3696,-27964,-1756,32767,-9413,2025-01-29 10:42:40,4
-13632,-12056,-32768,2276,32767,2925,2025-01-29 10:42:40,4
26520,-5708,-32768,2770,26176,4449,2025-01-29 10:42:40,4
6020,-2908,-32768,-4404,-32768,1508,2025-01-29 10:42:40,4
-11992,-2784,-26272,-3432,-32768,2025,2025-01-29 10:42:40,4
-12404,-1456,-12892,-1865,-32768,713,2025-01-29 10:42:40,4
-18948,1640,-15860,-603,-32768,-1290,2025-01-29 10:42:40,4
-17800,1516,-19140,-1257,-32768,-933,2025-01-29 10:42:40,4
-27272,4516,31028,268,-32768,-493,2025-01-29 10:42:40,4
-7140,-172,-6504,-2789,-732,884,2025-01-29 10:42:40,4
-3096,-776,-2560,-4634,6547,464,2025-01-29 10:42:40,4
-2484,-2812,-3684,-4755,2160,-2550,2025-01-29 10:42:40,4
-8408,-4480,-2432,-3673,2437,-4065,2025-01-29 10:42:40,4
-9004,-4516,-2132,-1433,3567,-3207,2025-01-29 10:42:40,4
-1388,1408,-4376,1517,-1935,-228,2025-01-29 10:42:40,4
-1100,1712,-8088,-136,156,-628,2025-01-29 10:42:40,4
-1640,732,-7824,-1852,3109,-1015,2025-01-29 10:42:40,4
-3244,-2032,-5516,-2564,4939,-1151,2025-01-29 10:42:40,4
-5204,-4620,-3608,-2085,6133,-1169,2025-01-29 10:42:40,4
-8956,-4984,-3480,26,8469,-1410,2025-01-29 10:42:40,4
-13160,-3256,-7416,1415,10522,-966,2025-01-29 10:42:40,4
-15708,-1228,-9280,1540,8375,-167,2025-01-29 10:42:40,4
-17268,444,-9132,1579,3010,459,2025-01-29 10:42:40,4
-17188,736,-8340,646,-3252,1015,2025-01-29 10:42:40,4
-15428,-916,-6920,-429,-6052,1162,2025-01-29 10:42:40,4
-12928,-2020,-5680,-222,-6509,1058,2025-01-29 10:42:40,4
-10820,-2128,-4908,532,-5798,984,2025-01-29 10:42:40,4
-9744,-1648,-4644,869,-4169,1144,2025-01-29 10:42:40,4
-8700,-904,-4824,808,-2149,1014,2025-01-29 10:42:40,4
-8768,-136,-5188,458,364,338,2025-01-29 10:42:40,4
-9892,328,-5116,297,2054,-308,2025-01-29 10:42:40,4
-11652,16,-5548,359,2862,-617,2025-01-29 10:42:40,4
-12580,-436,-6612,237,2539,-492,2025-01-29 10:42:40,1
-13088,-1460,-6688,-13,1468,-333,2025-01-29 10:42:40,1
-12696,-2220,-6092,40,121,-290,2025-01-29 10:42:40,1
-12400,-1864,-6156,38,-483,-61,2025-01-29 10:42:40,1
-11776,-1080,-6084,-2,-483,111,2025-01-29 10:42:40,1
-11528,-520,-6580,-2,-265,64,2025-01-29 10:42:40,1
-11424,-332,-6928,-135,450,-121,2025-01-29 10:42:40,1
-11812,-488,-6744,-314,762,-372,2025-01-29 10:42:40,1
-12660,-940,-6208,-416,512,-382,2025-01-29 10:42:40,1
-13172,-1212,-5740,-338,-213,-69,2025-01-29 10:42:40,1
-11456,-1048,-6564,353,200,169,2025-01-29 10:42:40,1
-11748,-952,-6332,318,121,74,2025-01-29 10:42:41,1
-12020,-1212,-6232,319,31,110,2025-01-29 10:42:41,1
-12060,-1404,-6356,274,-112,153,2025-01-29 10:42:41,1
-11820,-1348,-6444,318,-110,188,2025-01-29 10:42:41,1
-11712,-1312,-6300,319,217,127,2025-01-29 10:42:41,1
-11728,-1128,-6124,318,621,86,2025-01-29 10:42:41,1
-11900,-1052,-6156,259,809,6,2025-01-29 10:42:41,1
-12016,-1236,-6232,252,796,60,2025-01-29 10:42:41,1
-12060,-1148,-6264,201,538,95,2025-01-29 10:42:41,1
-11908,-1108,-6180,129,374,-23,2025-01-29 10:42:41,1
-11796,-928,-6308,37,235,-126,2025-01-29 10:42:41,1
-11652,-864,-6284,46,214,-170,2025-01-29 10:42:41,1
-11472,-1092,-5920,25,295,-186,2025-01-29 10:42:41,1
-11424,-1048,-6388,17,371,-239,2025-01-29 10:42:41,1
-11692,-1168,-6264,-51,406,-232,2025-01-29 10:42:41,1
-12144,-1124,-6576,-63,514,-74,2025-01-29 10:42:41,1
-12380,-1288,-6968,-146,546,-64,2025-01-29 10:42:41,1
-12448,-1164,-6400,-227,205,-74,2025-01-29 10:42:41,1
-12220,-908,-6124,-250,-344,-41,2025-01-29 10:42:41,1
-11904,-932,-5960,-350,-619,20,2025-01-29 10:42:41,1
-11380,-1024,-6032,-406,-314,41,2025-01-29 10:42:41,1
-11360,-1156,-6020,-312,229,-75,2025-01-29 10:42:41,1
-11608,-1160,-6276,-318,673,-190,2025-01-29 10:42:41,1
-11984,-1184,-6100,-250,824,-210,2025-01-29 10:42:41,1
-12200,-1136,-5996,-164,722,-175,2025-01-29 10:42:41,1
-12228,-1044,-6020,-172,439,-158,2025-01-29 10:42:41,1
-12112,-1160,-5740,-211,254,-137,2025-01-29 10:42:41,1
-11924,-1084,-5760,-193,110,-119,2025-01-29 10:42:41,1
-11604,-1132,-6024,-159,72,-67,2025-01-29 10:42:41,1
-11316,-1408,-6248,-42,309,-86,2025-01-29 10:42:41,1
-11436,-1396,-6212,86,465,-152,2025-01-29 10:42:41,1
-11928,-1244,-6184,224,578,-138,2025-01-29 10:42:41,1
-12544,-1248,-6680,256,738,14,2025-01-29 10:42:41,1
-12704,-696,-6580,170,469,80,2025-01-29 10:42:41,1
-12496,-184,-6376,-112,-77,81,2025-01-29 10:42:41,1
-11884,-172,-6280,-421,-638,-65,2025-01-29 10:42:41,1
-11644,-264,-6568,-497,-656,-90,2025-01-29 10:42:41,1
-11460,-368,-6852,-603,-329,-201,2025-01-29 10:42:41,1
-11520,-228,-6532,-901,-2,-378,2025-01-29 10:42:41,1
-11640,-348,-6292,-1065,-34,-429,2025-01-29 10:42:41,1
-11616,-348,-6204,-1079,-63,-494,2025-01-29 10:42:41,1
-11600,-312,-6216,-1217,103,-727,2025-01-29 10:42:41,1
-12032,-392,-6176,-1255,76,-921,2025-01-29 10:42:41,1
-11872,-172,-6596,-1286,-44,-959,2025-01-29 10:42:41,1
-11616,80,-6692,-1529,49,-1033,2025-01-29 10:42:41,1
-11536,-156,-6344,-1689,252,-1051,2025-01-29 10:42:41,1
-11572,-652,-6096,-1635,331,-1039,2025-01-29 10:42:41,1
-11540,-548,-6084,-1590,369,-1103,2025-01-29 10:42:41,1
-11680,-352,-6380,-1603,563,-1229,2025-01-29 10:42:41,1
-11864,-116,-6300,-1703,709,-1340,2025-01-29 10:42:41,1
-11888,-156,-6500,-1828,483,-1524,2025-01-29 10:42:41,1
-11924,-96,-6464,-1903,308,-1558,2025-01-29 10:42:41,1
-11768,-116,-6384,-2109,281,-1599,2025-01-29 10:42:41,1
-11612,-248,-6088,-2241,437,-1668,2025-01-29 10:42:41,7
-11592,-320,-6180,-2225,612,-1920,2025-01-29 10:42:41,7
-11404,-436,-6508,-2229,794,-2189,2025-01-29 10:42:41,7
-11348,-588,-6532,-2214,777,-2488,2025-01-29 10:42:41,7
-11448,-424,-7304,-2415,402,-2754,2025-01-29 10:42:41,7
-11444,-316,-7780,-2813,338,-2947,2025-01-29 10:42:41,7
-11624,-172,-7424,-3192,361,-3063,2025-01-29 10:42:41,7
-11740,-328,-6832,-3580,226,-3105,2025-01-29 10:42:42,7
-11524,-632,-6272,-3793,-42,-3178,2025-01-29 10:42:42,7
-11504,-796,-6808,-3904,-422,-3127,2025-01-29 10:42:42,7
-11308,-1188,-7076,-3960,-243,-3156,2025-01-29 10:42:42,7
-11184,-1344,-7152,-3837,17,-3285,2025-01-29 10:42:42,7
-11536,-1620,-7156,-3987,232,-3131,2025-01-29 10:42:42,7
-11712,-1476,-6376,-4257,145,-2838,2025-01-29 10:42:42,7
-11744,-1452,-5820,-4726,-476,-2812,2025-01-29 10:42:42,7
-11584,-1264,-6648,-5289,-805,-3089,2025-01-29 10:42:42,7
-11596,-1372,-7308,-5866,-46,-3369,2025-01-29 10:42:42,7
-11624,-1796,-7340,-6103,1180,-4349,2025-01-29 10:42:42,7
-12492,-1932,-7108,-6190,1836,-5239,2025-01-29 10:42:42,7
-13152,-2344,-6840,-6291,1034,-5734,2025-01-29 10:42:42,7
-13256,-2440,-6600,-6313,-691,-5930,2025-01-29 10:42:42,7
-12576,-2516,-6576,-6331,-1852,-5771,2025-01-29 10:42:42,7
-11536,-2220,-6908,-6394,-2117,-5438,2025-01-29 10:42:42,7
-10540,-2108,-7252,-6629,-1658,-5346,2025-01-29 10:42:42,7
-10136,-2092,-7076,-7034,-865,-5388,2025-01-29 10:42:42,7
-10320,-2112,-6844,-7344,-130,-5382,2025-01-29 10:42:42,7
-10780,-2328,-6656,-7652,299,-5313,2025-01-29 10:42:42,7
-11528,-2504,-6556,-7948,573,-5251,2025-01-29 10:42:42,7
-12000,-2556,-6648,-8177,282,-5112,2025-01-29 10:42:42,7
-12024,-2444,-7296,-8364,-298,-4948,2025-01-29 10:42:42,7
-11772,-2308,-7352,-8691,-698,-4849,2025-01-29 10:42:42,7
-11260,-2536,-7208,-8997,-862,-4899,2025-01-29 10:42:42,7
-11004,-2896,-7164,-9127,-942,-5065,2025-01-29 10:42:42,7
-10976,-3120,-6704,-9197,-722,-5356,2025-01-29 10:42:42,7
-11328,-3080,-6652,-9179,-416,-5440,2025-01-29 10:42:42,7
-11576,-3036,-6612,-9208,-316,-5332,2025-01-29 10:42:42,7
-11728,-3024,-6648,-9284,-501,-5122,2025-01-29 10:42:42,7
-11544,-3028,-6548,-9443,-600,-4864,2025-01-29 10:42:42,7
-11308,-3172,-6548,-9505,-608,-4670,2025-01-29 10:42:42,7
-10872,-3272,-6952,-9584,-419,-4507,2025-01-29 10:42:42,7
-10896,-3192,-6920,-9610,-200,-4543,2025-01-29 10:42:42,7
-11340,-3044,-6808,-9711,-63,-4408,2025-01-29 10:42:42,7
-11428,-3004,-6952,-9673,-266,-4080,2025-01-29 10:42:42,7
-11468,-3196,-7340,-9739,-444,-4068,2025-01-29 10:42:42,7
-11996,-3096,-7580,-9795,-951,-3946,2025-01-29 10:42:42,7
-11888,-2644,-7144,-9683,-1433,-3578,2025-01-29 10:42:42,7
-11460,-2588,-6748,-9693,-1537,-3503,2025-01-29 10:42:42,7
-11480,-3044,-5972,-9710,-1374,-3718,2025-01-29 10:42:42,7
-11764,-3456,-6068,-9759,-1287,-3754,2025-01-29 10:42:42,7
-12016,-3436,-6740,-9838,-1700,-3578,2025-01-29 10:42:42,7
-11756,-2788,-7504,-10022,-1758,-3440,2025-01-29 10:42:42,7
-11736,-1672,-7200,-10565,-1550,-3384,2025-01-29 10:42:42,7
-11368,-1160,-6388,-11019,-1350,-3413,2025-01-29 10:42:42,7
-11292,-1528,-6060,-11464,-1358,-3571,2025-01-29 10:42:42,7
-11268,-2352,-6704,-11617,-1754,-3545,2025-01-29 10:42:42,7
-10972,-3156,-7680,-11628,-1780,-3664,2025-01-29 10:42:42,7
-10660,-4032,-8244,-11446,-1355,-4126,2025-01-29 10:42:42,7
-10656,-4456,-7868,-10864,-978,-4692,2025-01-29 10:42:42,7
-10804,-4976,-7320,-9986,-933,-5077,2025-01-29 10:42:42,7
-11328,-4012,-6672,-9162,-1125,-4758,2025-01-29 10:42:42,7
-11200,-2216,-6792,-8891,-880,-3709,2025-01-29 10:42:42,7
-10576,-428,-7188,-9389,-308,-3120,2025-01-29 10:42:42,7
-10416,832,-7756,-10093,291,-2847,2025-01-29 10:42:42,7
-10200,1316,-8900,-10546,1036,-2895,2025-01-29 10:42:42,7
-9724,940,-9528,-11005,2440,-3793,2025-01-29 10:42:42,7
-10632,476,-8516,-11027,3892,-4956,2025-01-29 10:42:42,7
-12140,676,-7828,-10513,3925,-4975,2025-01-29 10:42:42,7
-12392,984,-7988,-10539,2844,-4730,2025-01-29 10:42:42,7
-12596,1004,-7296,-11253,1321,-4518,2025-01-29 10:42:42,7
-11772,1216,-6452,-11408,430,-4403,2025-01-29 10:42:43,7
-10908,1276,-6616,-11797,272,-4728,2025-01-29 10:42:43,7
-10360,1240,-6720,-12153,351,-5221,2025-01-29 10:42:43,7
-10276,1168,-6888,-12171,581,-5771,2025-01-29 10:42:43,7
-10900,1396,-7108,-12067,1077,-6154,2025-01-29 10:42:43,7
-11604,1508,-7472,-12032,1816,-6217,2025-01-29 10:42:43,7
-12528,804,-7388,-11931,2226,-5999,2025-01-29 10:42:43,7
-12860,-208,-6996,-11606,1792,-5552,2025-01-29 10:42:43,7
-12924,-928,-6392,-11273,1302,-5203,2025-01-29 10:42:43,7
-12536,-1144,-6024,-10847,711,-4880,2025-01-29 10:42:43,7
-12136,-724,-5640,-10253,130,-4776,2025-01-29 10:42:43,7
-11828,-240,-5616,-9673,-200,-4880,2025-01-29 10:42:43,7
-11572,444,-5724,-9189,-269,-5076,2025-01-29 10:42:43,7
-11560,796,-5724,-8900,-230,-5351,2025-01-29 10:42:43,7
-11112,1204,-6096,-8546,-351,-5535,2025-01-29 10:42:43,7
-10876,1464,-6528,-8564,-85,-5793,2025-01-29 10:42:43,7
-10932,1636,-6648,-8750,390,-6064,2025-01-29 10:42:43,7
-11248,1568,-6852,-8971,770,-6294,2025-01-29 10:42:43,7
-11084,1572,-7596,-9315,520,-6455,2025-01-29 10:42:43,7
-11196,1544,-7944,-9681,-55,-6640,2025-01-29 10:42:43,7
-11212,1680,-7968,-10086,-325,-6708,2025-01-29 10:42:43,7
-11104,1708,-7792,-10380,-407,-6845,2025-01-29 10:42:43,7
-11268,1700,-7396,-10667,-520,-7022,2025-01-29 10:42:43,7
-11052,1516,-7032,-10862,-702,-7097,2025-01-29 10:42:43,7
-10952,1296,-7004,-10877,-838,-7035,2025-01-29 10:42:43,7
-10672,852,-7224,-10878,-768,-7005,2025-01-29 10:42:43,7
-10360,344,-6924,-10732,-445,-7041,2025-01-29 10:42:43,7
-10704,-192,-6480,-10229,196,-7158,2025-01-29 10:42:43,7
-11352,-364,-6068,-9649,441,-7233,2025-01-29 10:42:43,7
-12004,-520,-5864,-9072,157,-7163,2025-01-29 10:42:43,7
-12228,-340,-5980,-8386,-400,-6894,2025-01-29 10:42:43,7
-11964,52,-6304,-7913,-919,-6580,2025-01-29 10:42:43,7
-11400,380,-6692,-7709,-951,-6469,2025-01-29 10:42:43,7
-11032,496,-7136,-7512,-825,-6477,2025-01-29 10:42:43,7
-10980,452,-7136,-7370,-490,-6498,2025-01-29 10:42:43,7
-10916,116,-6816,-7186,-247,-6603,2025-01-29 10:42:43,7
-11720,0,-6016,-6849,59,-6766,2025-01-29 10:42:43,7
-12088,-76,-5448,-6571,-219,-6816,2025-01-29 10:42:43,7
-12700,-132,-5504,-6147,-868,-6512,2025-01-29 10:42:43,7
-12512,-196,-6876,-5736,-719,-5759,2025-01-29 10:42:43,7
-12392,-608,-7460,-5483,255,-5188,2025-01-29 10:42:43,7
-13156,-1316,-7824,-5558,1165,-4795,2025-01-29 10:42:43,7
-14152,-1764,-7136,-5807,669,-4143,2025-01-29 10:42:43,7
-14012,-676,-5632,-5310,-1671,-3142,2025-01-29 10:42:43,7
-12412,500,-6072,-5084,-3727,-2512,2025-01-29 10:42:43,7
-10988,1212,-6020,-5254,-3581,-2146,2025-01-29 10:42:43,7
-10064,1472,-5652,-5228,-2575,-2068,2025-01-29 10:42:43,7
-9452,1352,-6460,-5615,-1461,-2521,2025-01-29 10:42:43,7
-10372,144,-6888,-6369,-357,-2972,2025-01-29 10:42:43,7
-11148,-1684,-6296,-6595,656,-3452,2025-01-29 10:42:43,7
-11948,-2184,-6516,-6389,899,-4057,2025-01-29 10:42:43,7
-12532,-1188,-8024,-6160,557,-4645,2025-01-29 10:42:43,7
-12500,-452,-8416,-6295,309,-4942,2025-01-29 10:42:43,7
-11996,-360,-6224,-6344,59,-5567,2025-01-29 10:42:43,7
-11900,-704,-5544,-6487,-418,-6077,2025-01-29 10:42:43,7
-11984,-1340,-5388,-6704,-727,-6385,2025-01-29 10:42:43,7
-11976,-2172,-5488,-6808,-516,-6510,2025-01-29 10:42:43,7
-12172,-3048,-5504,-6969,52,-6563,2025-01-29 10:42:43,7
-12216,-3352,-5676,-7074,302,-6628,2025-01-29 10:42:43,7
-12144,-3404,-5744,-7131,281,-6663,2025-01-29 10:42:43,7
-12116,-2876,-5432,-7064,429,-6578,2025-01-29 10:42:43,7
-12032,-2660,-5856,-7098,761,-6337,2025-01-29 10:42:44,7
-12124,-2508,-5936,-7270,1114,-6110,2025-01-29 10:42:44,7
-12284,-2452,-5592,-7443,1156,-6035,2025-01-29 10:42:44,7
-12572,-2496,-5344,-7539,438,-6032,2025-01-29 10:42:44,7
-12268,-2832,-5408,-7454,-562,-6023,2025-01-29 10:42:44,7
-11684,-3224,-5432,-7152,-1137,-5825,2025-01-29 10:42:44,7
-11124,-3316,-5200,-6816,-966,-5547,2025-01-29 10:42:44,7
-10544,-3436,-5120,-6561,-263,-5369,2025-01-29 10:42:44,7
-10636,-3344,-4924,-6387,533,-5163,2025-01-29 10:42:44,7
-11300,-3020,-4800,-6220,1168,-4960,2025-01-29 10:42:44,7
-12432,-2648,-5008,-6159,936,-4880,2025-01-29 10:42:44,7
-12860,-2588,-4780,-6153,174,-4717,2025-01-29 10:42:44,7
-12828,-2820,-4812,-6115,-559,-4430,2025-01-29 10:42:44,7
-12356,-2976,-4784,-6016,-1090,-4062,2025-01-29 10:42:44,7
-11936,-2940,-4460,-5821,-1154,-3734,2025-01-29 10:42:44,7
-11876,-2940,-4364,-5657,-776,-3319,2025-01-29 10:42:44,7
-11752,-3156,-4248,-5483,-537,-2631,2025-01-29 10:42:44,7
-11436,-3760,-4656,-5307,-399,-2069,2025-01-29 10:42:44,7
-10992,-4152,-4992,-5119,209,-1869,2025-01-29 10:42:44,7
-11160,-4004,-5508,-5024,1014,-2132,2025-01-29 10:42:44,7
-12564,-3268,-5128,-4777,1150,-2237,2025-01-29 10:42:44,7
-13212,-2400,-4856,-4698,238,-2104,2025-01-29 10:42:44,7
-13468,-2248,-4516,-4757,-1369,-1955,2025-01-29 10:42:44,7
-13368,-2488,-4464,-4490,-2849,-1582,2025-01-29 10:42:44,7
-12868,-2852,-5224,-4298,-3677,-1319,2025-01-29 10:42:44,7
-12296,-2784,-5644,-4530,-3802,-1528,2025-01-29 10:42:44,7
-11824,-2056,-5388,-4800,-3470,-1981,2025-01-29 10:42:44,7
-11500,-1632,-3928,-5259,-3071,-2657,2025-01-29 10:42:44,7
-12012,-1976,-2544,-5246,-2167,-2876,2025-01-29 10:42:44,7
-12472,-2672,-3252,-5283,-1160,-2795,2025-01-29 10:42:44,7
-12468,-3032,-4064,-5565,-525,-2696,2025-01-29 10:42:44,7
-12356,-3096,-3464,-5720,152,-2790,2025-01-29 10:42:44,7
-13072,-3096,-2936,-5711,877,-2863,2025-01-29 10:42:44,7
-13800,-3744,-2908,-5599,1578,-2638,2025-01-29 10:42:44,7
-13880,-3936,-4708,-4867,2594,-2735,2025-01-29 10:42:44,7
-14592,-4144,-6492,-4282,3792,-3300,2025-01-29 10:42:44,7
-15564,-5144,-5088,-3097,3819,-4056,2025-01-29 10:42:44,7
-16712,-5940,-5196,-952,1817,-4608,2025-01-29 10:42:44,7
-18344,-5796,-6536,171,-237,-3520,2025-01-29 10:42:44,7
-18152,-4820,-7264,542,-1832,-1553,2025-01-29 10:42:44,7
-16564,-3320,-7548,823,-2817,148,2025-01-29 10:42:44,1
-13672,-1920,-8816,77,-3481,2003,2025-01-29 10:42:44,1
-10396,-1660,-9920,-1271,-3205,2801,2025-01-29 10:42:44,1
-8540,-1736,-10280,-2596,-2033,2531,2025-01-29 10:42:44,1
-8108,-1532,-9664,-2776,-1388,1924,2025-01-29 10:42:44,1
-8200,-1244,-8612,-2237,-1144,1094,2025-01-29 10:42:44,1
-8776,-716,-7380,-1550,-767,91,2025-01-29 10:42:44,1
-10080,220,-6800,-1215,-469,-209,2025-01-29 10:42:44,1
-10880,824,-7396,-1469,-567,257,2025-01-29 10:42:44,1
-11408,308,-7876,-2210,-372,752,2025-01-29 10:42:44,1
-11804,-616,-7432,-2768,154,1145,2025-01-29 10:42:44,1
-11940,-1704,-6536,-2542,184,1432,2025-01-29 10:42:44,1
-12360,-2464,-5836,-1872,-419,1892,2025-01-29 10:42:44,1
-12424,-2784,-5888,-1028,-692,2869,2025-01-29 10:42:44,1
-12200,-2408,-5912,-579,-679,3737,2025-01-29 10:42:44,1
-12076,-1680,-5676,-360,-998,4553,2025-01-29 10:42:44,1
-11400,-824,-5288,-153,-1236,5066,2025-01-29 10:42:44,1
-10756,172,-4964,296,-1176,5041,2025-01-29 10:42:44,1
-10532,944,-4848,594,-1033,4689,2025-01-29 10:42:44,1
-10100,1528,-5052,678,-918,4055,2025-01-29 10:42:44,1
-10064,1380,-5032,520,-491,3484,2025-01-29 10:42:45,1
-9960,796,-4396,430,100,2871,2025-01-29 10:42:45,1
-10084,4,-4444,583,375,2233,2025-01-29 10:42:45,1
-10540,-508,-3968,869,505,1675,2025-01-29 10:42:45,1
-10808,-172,-3680,1245,463,1316,2025-01-29 10:42:45,1
-10804,384,-3976,1606,245,819,2025-01-29 10:42:45,1
-10820,620,-4256,1925,-133,138,2025-01-29 10:42:45,1
-11388,360,-4236,2033,-397,-260,2025-01-29 10:42:45,1
-12232,-160,-3832,2232,-444,-397,2025-01-29 10:42:45,1
-12660,-704,-3220,2615,-609,-433,2025-01-29 10:42:45,1
-13020,-1004,-3176,3080,-1208,-517,2025-01-29 10:42:45,1
-13592,-560,-3996,3640,-2205,-491,2025-01-29 10:42:45,1
-14048,480,-4404,4150,-2839,-61,2025-01-29 10:42:45,1
-13752,1332,-5008,4432,-3026,614,2025-01-29 10:42:45,1
-12732,1316,-4596,4320,-2765,1136,2025-01-29 10:42:45,1
-11896,680,-4216,4319,-1900,1426,2025-01-29 10:42:45,1
-11864,448,-3676,4579,36,1698,2025-01-29 10:42:45,1
-12480,812,-4028,4829,2301,1864,2025-01-29 10:42:45,1
-13952,1580,-4712,4690,3661,1832,2025-01-29 10:42:45,1
-15008,1804,-4024,4305,3520,1420,2025-01-29 10:42:45,1
-15544,2220,-3568,3883,2430,1158,2025-01-29 10:42:45,1
-15892,2512,-4948,3247,1809,1421,2025-01-29 10:42:45,1
-15408,996,-6644,2662,2714,1438,2025-01-29 10:42:45,1
-15368,188,-8000,1984,3842,1195,2025-01-29 10:42:45,1
-16100,648,-9444,1075,4002,1209,2025-01-29 10:42:45,1
-16304,1836,-9464,95,3588,1583,2025-01-29 10:42:45,1
-15048,2680,-8872,-529,1690,1273,2025-01-29 10:42:45,1
-12900,2404,-8368,-932,-1185,-179,2025-01-29 10:42:45,1
-12180,1336,-8952,-1638,-2418,-1247,2025-01-29 10:42:45,1
-10832,-232,-7704,-1755,-2329,-1022,2025-01-29 10:42:45,1
-8520,-2512,-6480,-1023,-1904,-866,2025-01-29 10:42:45,1
-7548,-5996,-6016,1419,1424,-1164,2025-01-29 10:42:45,1
-8888,-5292,-7248,2518,3959,-945,2025-01-29 10:42:45,1
-10420,-3284,-7808,3039,4673,-847,2025-01-29 10:42:45,1
-12116,-1352,-8412,2952,4474,-727,2025-01-29 10:42:45,1
-13080,-128,-7260,2224,3292,-825,2025-01-29 10:42:45,1
-13340,-148,-6568,1264,625,-1401,2025-01-29 10:42:45,1
-13520,-816,-6656,666,-2496,-2173,2025-01-29 10:42:45,1
-11904,-1060,-7200,492,-4281,-2597,2025-01-29 10:42:45,1
-10532,-1376,-7348,231,-5010,-3060,2025-01-29 10:42:45,1
-9336,-1244,-7580,-240,-4858,-3363,2025-01-29 10:42:45,1
-8404,-936,-6924,-730,-3931,-3485,2025-01-29 10:42:45,1
-7984,-888,-6892,-1313,-2445,-3593,2025-01-29 10:42:45,1
-7668,-880,-6816,-2296,199,-3796,2025-01-29 10:42:45,1
-8532,-1188,-6160,-2970,2092,-4325,2025-01-29 10:42:45,1
-10024,-1520,-5744,-3486,2983,-4830,2025-01-29 10:42:45,1
-11552,-2136,-5600,-3929,2918,-5029,2025-01-29 10:42:45,1
-12504,-2884,-5416,-4227,2291,-4602,2025-01-29 10:42:45,1
-12716,-3772,-5472,-4245,1159,-3962,2025-01-29 10:42:45,1
-12608,-4344,-5356,-4013,153,-3254,2025-01-29 10:42:45,1
-11960,-4192,-5320,-3569,-605,-2466,2025-01-29 10:42:45,1
-11172,-3324,-5200,-3388,-596,-1935,2025-01-29 10:42:45,1
-9928,-2396,-5628,-3653,171,-1702,2025-01-29 10:42:45,1
-10820,-1352,-4908,-3947,780,-1412,2025-01-29 10:42:45,1
-11272,-1604,-5276,-4419,1064,-887,2025-01-29 10:42:45,1
-11388,-2168,-4916,-4729,1275,-476,2025-01-29 10:42:45,1
-11692,-2928,-4628,-4689,1480,-301,2025-01-29 10:42:45,1
-11476,-3328,-4936,-4497,1170,-519,2025-01-29 10:42:45,1
-11908,-3072,-4876,-4213,706,-801,2025-01-29 10:42:45,1
-11640,-2488,-5616,-4032,550,-948,2025-01-29 10:42:45,1
-11920,-1792,-5204,-3998,788,-1032,2025-01-29 10:42:45,1
-12208,-2104,-4916,-4175,1538,-1522,2025-01-29 10:42:45,1
-13180,-3200,-5540,-4272,1644,-2297,2025-01-29 10:42:46,1
-13972,-3608,-5436,-4262,1105,-2546,2025-01-29 10:42:46,1
-14796,-3016,-5008,-4089,551,-2674,2025-01-29 10:42:46,1
-15752,-2136,-4500,-4179,-344,-2615,2025-01-29 10:42:46,1
-15976,-2124,-3988,-4715,-1545,-2044,2025-01-29 10:42:46,1
-14568,-3676,-5508,-4406,-2327,-1605,2025-01-29 10:42:46,1
-14200,-4952,-6580,-3723,-1165,-1618,2025-01-29 10:42:46,1
-14196,-6276,-5520,-2237,-90,-2159,2025-01-29 10:42:46,1
-15360,-7160,-5084,-245,-724,-2411,2025-01-29 10:42:46,1
-16716,-6812,-7352,1683,-3370,-1049,2025-01-29 10:42:46,1
-15548,-4772,-9452,2255,-5222,1247,2025-01-29 10:42:46,1
-11516,-2092,-10456,2351,-5256,1503,2025-01-29 10:42:46,1
-9552,580,-10732,1087,-4556,1098,2025-01-29 10:42:46,1
-7956,1688,-10404,-400,-3535,1013,2025-01-29 10:42:46,1
-7076,2984,-10316,-1611,-1554,545,2025-01-29 10:42:46,1
-7380,3536,-10224,-2437,1248,-270,2025-01-29 10:42:46,1
-9436,2200,-10156,-3362,3958,-1059,2025-01-29 10:42:46,1
-12468,-196,-8676,-3406,5342,-695,2025-01-29 10:42:46,1
-14064,-1988,-7508,-2675,3676,-58,2025-01-29 10:42:46,1
-14792,-3132,-6808,-2062,705,909,2025-01-29 10:42:46,1
-14628,-3588,-6132,-1366,-781,2482,2025-01-29 10:42:46,1
-13104,-3112,-6268,-428,-1457,3706,2025-01-29 10:42:46,1
-11768,-2560,-6344,216,-2197,4442,2025-01-29 10:42:46,1
-10372,-1916,-5364,767,-2441,4741,2025-01-29 10:42:46,1
-9608,-664,-5212,1338,-2233,4663,2025-01-29 10:42:46,1
-8176,260,-5068,1934,-957,4276,2025-01-29 10:42:46,1
-8792,1104,-5516,2256,1170,3774,2025-01-29 10:42:46,1
-9360,1320,-5916,2126,2230,3036,2025-01-29 10:42:46,1
-10640,1396,-5936,1971,2310,2569,2025-01-29 10:42:46,1
-11496,1036,-5928,1704,1896,2470,2025-01-29 10:42:46,1
-11600,436,-5692,1660,1153,2433,2025-01-29 10:42:46,1
-11164,36,-5192,1837,135,2151,2025-01-29 10:42:46,1
-10804,112,-5440,1920,-296,1837,2025-01-29 10:42:46,1
-10188,512,-5692,2044,-245,1501,2025-01-29 10:42:46,1
-10576,580,-5740,1852,247,1126,2025-01-29 10:42:46,1
-11068,632,-5624,1639,526,903,2025-01-29 10:42:46,1
-11476,804,-5356,1384,103,875,2025-01-29 10:42:46,1
-11608,708,-5168,1212,-693,612,2025-01-29 10:42:46,1
-10972,704,-5148,1214,-1317,31,2025-01-29 10:42:46,1
-10892,760,-5116,1386,-1156,-376,2025-01-29 10:42:46,1
-11168,844,-4980,1553,-580,-520,2025-01-29 10:42:46,1
-11636,776,-4680,1723,-39,-490,2025-01-29 10:42:46,1
-12440,596,-4188,1860,393,-484,2025-01-29 10:42:46,1
-12936,384,-4404,2031,190,-233,2025-01-29 10:42:46,1
-13276,256,-4932,2112,-74,167,2025-01-29 10:42:46,1
-13276,-76,-5004,2249,177,458,2025-01-29 10:42:46,1
-13612,-484,-3812,2622,601,826,2025-01-29 10:42:46,1
-13504,-340,-3812,2946,633,1179,2025-01-29 10:42:46,1
-13332,-32,-3608,3095,739,1359,2025-01-29 10:42:46,1
-12964,-216,-2544,3705,813,1129,2025-01-29 10:42:46,1
-13204,-328,-2884,4233,1103,951,2025-01-29 10:42:46,1
-13636,-468,-4336,4383,1892,1066,2025-01-29 10:42:46,1
-14264,-80,-6640,4454,3215,1291,2025-01-29 10:42:46,1
-15508,1504,-8248,3557,4220,1816,2025-01-29 10:42:46,1
-16084,3264,-10056,1930,4122,2462,2025-01-29 10:42:46,1
-16064,3584,-10784,141,2911,2500,2025-01-29 10:42:46,1
-15312,3100,-11456,-1298,1599,2001,2025-01-29 10:42:46,1
-14364,1980,-11964,-2658,584,1314,2025-01-29 10:42:46,1
-12408,272,-9216,-3171,-1144,414,2025-01-29 10:42:46,1
-10648,-964,-7076,-2173,-3201,-681,2025-01-29 10:42:46,1
-9080,-1632,-7044,-714,-4621,-1419,2025-01-29 10:42:46,1
-7688,-2508,-7340,154,-5259,-2073,2025-01-29 10:42:47,1
-7064,-3496,-6852,905,-3856,-2545,2025-01-29 10:42:47,1
-7320,-3948,-7080,1418,-663,-2396,2025-01-29 10:42:47,1
-7856,-4108,-7696,1875,2243,-1985,2025-01-29 10:42:47,1
-8524,-3840,-8320,2208,3942,-1886,2025-01-29 10:42:47,1
-10812,-2508,-7332,2418,4518,-1631,2025-01-29 10:42:47,1
-12608,-1012,-7092,2102,3714,-1070,2025-01-29 10:42:47,1
-13500,-24,-7072,1354,1990,-1049,2025-01-29 10:42:47,1
-13468,-208,-6672,793,210,-1802,2025-01-29 10:42:47,1
-13428,-720,-6668,626,-1673,-2399,2025-01-29 10:42:47,1
-12008,-1380,-7256,588,-3216,-2760,2025-01-29 10:42:47,1
-10448,-1476,-7048,269,-3241,-3135,2025-01-29 10:42:47,1
-9876,-1500,-5876,-103,-2571,-3408,2025-01-29 10:42:47,1
-9420,-1412,-5884,-540,-1147,-3405,2025-01-29 10:42:47,1
-9244,-1316,-5952,-1023,433,-3286,2025-01-29 10:42:47,1
-8740,-1348,-6680,-1591,1750,-3377,2025-01-29 10:42:47,1
-9888,-1596,-6344,-2097,2668,-3714,2025-01-29 10:42:47,1
-11184,-2064,-5864,-2239,2983,-3945,2025-01-29 10:42:47,1
-12636,-2744,-5692,-2299,2506,-3638,2025-01-29 10:42:47,1
-13592,-3336,-4928,-2012,1367,-2659,2025-01-29 10:42:47,1
-13252,-3616,-4432,-1618,22,-1856,2025-01-29 10:42:47,1
-12484,-3348,-4792,-1253,-748,-1140,2025-01-29 10:42:47,1
-11464,-2680,-5044,-1101,-814,-746,2025-01-29 10:42:47,1
-10876,-1712,-5296,-1350,-436,-618,2025-01-29 10:42:47,1
-10748,-892,-5340,-1759,122,-468,2025-01-29 10:42:47,1
-10836,-652,-5576,-2260,828,-257,2025-01-29 10:42:47,1
-11076,-1220,-5288,-2834,1360,-336,2025-01-29 10:42:47,1
-11780,-1760,-5188,-3145,1443,-563,2025-01-29 10:42:47,1
-12460,-2024,-5192,-3329,1205,-798,2025-01-29 10:42:47,1
-13068,-2112,-5364,-3441,493,-945,2025-01-29 10:42:47,1
-12900,-1884,-5484,-3576,-349,-972,2025-01-29 10:42:47,1
-12496,-1580,-5640,-3779,-815,-982,2025-01-29 10:42:47,1
-11908,-1440,-5980,-4144,-719,-1354,2025-01-29 10:42:47,1
-11972,-1968,-5696,-4430,-272,-1868,2025-01-29 10:42:47,1
-12208,-2784,-5320,-4443,-128,-2530,2025-01-29 10:42:47,1
-12492,-3204,-5080,-4450,-460,-3053,2025-01-29 10:42:47,1
-13144,-2896,-4664,-4495,-1066,-3118,2025-01-29 10:42:47,1
-13228,-2276,-4176,-4777,-1540,-2761,2025-01-29 10:42:47,1
-12400,-2284,-4020,-5051,-1478,-2470,2025-01-29 10:42:47,1
-12704,-2732,-6120,-5080,-207,-2650,2025-01-29 10:42:47,1
-13900,-4032,-6508,-5117,2143,-2821,2025-01-29 10:42:47,1
-15236,-5824,-6108,-3952,2361,-3071,2025-01-29 10:42:47,1
-17068,-6876,-7012,-2309,329,-2171,2025-01-29 10:42:47,1
-18556,-6892,-7988,-678,-2084,29,2025-01-29 10:42:47,1
-15432,-5988,-8692,1822,-4137,1908,2025-01-29 10:42:47,1
-13404,-4964,-9428,3138,-4885,1399,2025-01-29 10:42:47,1
-12072,-2804,-9360,2972,-5786,1446,2025-01-29 10:42:47,1
-10936,-632,-8556,1812,-6187,2559,2025-01-29 10:42:47,1
-9008,1276,-8164,587,-5911,4094,2025-01-29 10:42:47,1
-6588,3036,-9048,-651,-3752,4664,2025-01-29 10:42:47,1
-4964,3424,-9612,-1963,-537,3486,2025-01-29 10:42:47,1
-4620,3072,-8448,-2605,2779,1164,2025-01-29 10:42:47,1
-7564,772,-7600,-2566,5632,-1198,2025-01-29 10:42:47,1
-11368,-1080,-6936,-2061,7466,-1476,2025-01-29 10:42:47,1
-13604,-2012,-6480,-1590,6612,-789,2025-01-29 10:42:47,1
-15024,-2016,-6444,-990,3712,283,2025-01-29 10:42:47,1
-15316,-1804,-6664,-525,1127,1363,2025-01-29 10:42:47,1
-14816,-1112,-7112,-408,-641,2237,2025-01-29 10:42:47,1
-13700,-724,-7168,-386,-1978,3005,2025-01-29 10:42:47,1
-11900,-548,-6820,-168,-2816,3500,2025-01-29 10:42:47,1
-10552,-488,-6256,86,-2764,3680,2025-01-29 10:42:48,1
-9460,-312,-6080,323,-1791,3534,2025-01-29 10:42:48,1
-9048,-64,-5176,883,-46,2913,2025-01-29 10:42:48,1
-9464,200,-4900,1333,1356,2308,2025-01-29 10:42:48,1
-9948,448,-5076,1551,1777,2008,2025-01-29 10:42:48,1
-10796,668,-5440,1649,1837,1805,2025-01-29 10:42:48,1
-11292,972,-5168,1619,1477,1673,2025-01-29 10:42:48,1
-11676,1112,-5620,1750,670,1407,2025-01-29 10:42:48,1
-11556,1392,-6140,1549,54,951,2025-01-29 10:42:48,1
-11168,1120,-6324,1235,-337,326,2025-01-29 10:42:48,1
-11304,660,-6216,1040,-327,-145,2025-01-29 10:42:48,1
-11312,364,-5832,847,-291,-545,2025-01-29 10:42:48,1
-11712,-8,-5448,716,-118,-641,2025-01-29 10:42:48,1
-11880,-160,-5244,755,134,-574,2025-01-29 10:42:48,1
-12124,8,-5356,684,436,-511,2025-01-29 10:42:48,1
-12512,16,-5268,604,491,-422,2025-01-29 10:42:48,1
-12516,-368,-4760,895,184,-163,2025-01-29 10:42:48,1
-12440,-396,-4488,1371,-300,45,2025-01-29 10:42:48,1
-12260,-744,-4488,1779,-715,131,2025-01-29 10:42:48,1
-11984,-688,-4448,2188,-869,193,2025-01-29 10:42:48,1
-11592,-764,-4464,2590,-725,173,2025-01-29 10:42:48,1
-11536,-780,-4520,3058,-216,209,2025-01-29 10:42:48,1
-11844,-528,-4692,3367,492,313,2025-01-29 10:42:48,1
-12624,-312,-4664,3546,946,533,2025-01-29 10:42:48,1
-13320,-36,-4948,3781,978,902,2025-01-29 10:42:48,1
-14048,360,-5108,3727,450,1350,2025-01-29 10:42:48,1
-13920,640,-4452,3756,-231,1493,2025-01-29 10:42:48,1
-13824,496,-3364,4035,-914,1431,2025-01-29 10:42:48,1
-13792,132,-4004,4211,-1030,1759,2025-01-29 10:42:48,1
-13152,-500,-5948,4190,-183,2272,2025-01-29 10:42:48,1
-12376,-20,-6940,3897,812,2227,2025-01-29 10:42:48,1
-12904,896,-7436,2917,1336,2203,2025-01-29 10:42:48,1
-13128,1624,-7484,2405,1447,1923,2025-01-29 10:42:48,1
-13756,1688,-8648,1897,1302,1234,2025-01-29 10:42:48,1
-14620,1536,-10312,828,1083,957,2025-01-29 10:42:48,1
-14384,1264,-9444,-225,687,1096,2025-01-29 10:42:48,1
-12896,496,-7476,-426,-248,798,2025-01-29 10:42:48,1
-11268,-624,-6552,49,-1230,-208,2025-01-29 10:42:48,1
-10192,-1024,-6136,765,-1603,-1063,2025-01-29 10:42:48,1
-8992,-1372,-7028,1469,-1493,-1851,2025-01-29 10:42:48,1
-8340,-1436,-7396,1607,-479,-2559,2025-01-29 10:42:48,1
-8112,-1576,-7808,1376,546,-3030,2025-01-29 10:42:48,1
-8624,-1564,-7972,1146,1481,-2979,2025-01-29 10:42:48,1
-8916,-1896,-7848,1027,2462,-2559,2025-01-29 10:42:48,1
-9596,-2348,-7804,729,3410,-2037,2025-01-29 10:42:48,1
-10508,-2644,-7536,448,3677,-1794,2025-01-29 10:42:48,1
-11992,-2748,-7476,553,3489,-1586,2025-01-29 10:42:48,1
-12968,-3020,-7720,811,2662,-1454,2025-01-29 10:42:48,1
-13636,-2908,-7788,1051,1045,-1506,2025-01-29 10:42:48,1
-13340,-2480,-7576,1188,-821,-1600,2025-01-29 10:42:48,1
-12340,-2260,-7828,1091,-1838,-1758,2025-01-29 10:42:48,1
-11264,-2064,-7680,938,-2368,-1825,2025-01-29 10:42:48,1
-10140,-1776,-7520,758,-1898,-1714,2025-01-29 10:42:48,1
-9020,-1916,-7104,434,-613,-1695,2025-01-29 10:42:48,1
-8800,-2080,-6936,-136,743,-1879,2025-01-29 10:42:48,1
-9508,-2148,-6804,-736,1733,-2049,2025-01-29 10:42:48,1
-10736,-1992,-6516,-1238,2090,-2007,2025-01-29 10:42:48,1
-11544,-2252,-6428,-1402,1807,-1766,2025-01-29 10:42:48,1
-11608,-2792,-6296,-1475,1426,-1502,2025-01-29 10:42:48,1
-11800,-3132,-6188,-1547,1092,-1284,2025-01-29 10:42:48,1
-11804,-3428,-6520,-1520,805,-1001,2025-01-29 10:42:48,1
-11736,-3232,-7032,-1402,226,-762,2025-01-29 10:42:48,1
-11560,-2784,-7212,-1290,-150,-517,2025-01-29 10:42:49,1
-11312,-2384,-7256,-1445,-336,-243,2025-01-29 10:42:49,1
-11324,-2036,-7088,-1661,-158,-19,2025-01-29 10:42:49,1
-11580,-1904,-7540,-1792,182,24,2025-01-29 10:42:49,1
-12100,-1852,-8272,-1895,463,-369,2025-01-29 10:42:49,1
-12988,-1228,-7744,-1761,-55,-614,2025-01-29 10:42:49,1
-13252,-1256,-6852,-1770,-1381,-386,2025-01-29 10:42:49,1
-12084,-1804,-6760,-1886,-2560,-186,2025-01-29 10:42:49,1
-11192,-2452,-6672,-1896,-2482,-356,2025-01-29 10:42:49,1
-10528,-2984,-6172,-1552,-1560,-413,2025-01-29 10:42:49,1
-9940,-2824,-6392,-1282,-690,-406,2025-01-29 10:42:49,1
-9916,-2372,-6368,-1292,98,-303,2025-01-29 10:42:49,1
-10172,-2420,-6528,-1152,712,-120,2025-01-29 10:42:49,1
-10680,-2636,-6888,-664,1287,75,2025-01-29 10:42:49,1
-11280,-2388,-7196,-312,1570,15,2025-01-29 10:42:49,1
-11856,-2160,-7136,-101,1378,-136,2025-01-29 10:42:49,1
-12272,-1996,-7156,75,770,-72,2025-01-29 10:42:49,1
-12008,-1956,-7340,69,235,8,2025-01-29 10:42:49,1
-11476,-1884,-7468,6,-63,37,2025-01-29 10:42:49,1
-10856,-1600,-7504,11,214,-17,2025-01-29 10:42:49,1
-10892,-1340,-7556,-113,752,-218,2025-01-29 10:42:49,1
-11540,-1132,-7032,-329,943,-351,2025-01-29 10:42:49,1
-12100,-1232,-6856,-600,670,-375,2025-01-29 10:42:49,1
-12048,-1600,-6548,-601,231,-323,2025-01-29 10:42:49,1
-11848,-1788,-6312,-513,-42,-303,2025-01-29 10:42:49,1
-11776,-2024,-6016,-398,6,-310,2025-01-29 10:42:49,1
-11416,-1916,-6396,-190,264,-287,2025-01-29 10:42:49,1
-11720,-1636,-6676,-115,524,-270,2025-01-29 10:42:49,1
-11884,-1508,-6440,-105,475,-209,2025-01-29 10:42:49,1
-11908,-1488,-6632,-174,315,-214,2025-01-29 10:42:49,1
-11796,-1480,-6444,-147,197,-199,2025-01-29 10:42:49,1
-11632,-1516,-6744,-192,187,-251,2025-01-29 10:42:49,1
-11564,-1492,-6592,-153,300,-248,2025-01-29 10:42:49,1
-11472,-1512,-6352,-151,468,-257,2025-01-29 10:42:49,1
-11536,-1468,-6416,-143,494,-296,2025-01-29 10:42:49,1
-11676,-1556,-6704,-133,356,-254,2025-01-29 10:42:49,1
-11944,-1736,-6944,-132,276,-231,2025-01-29 10:42:49,1
-11696,-1696,-6992,-175,174,-182,2025-01-29 10:42:49,1
-11816,-1496,-6716,-205,94,-194,2025-01-29 10:42:49,1
-11812,-1512,-6604,-294,-45,-223,2025-01-29 10:42:49,1
-11872,-1496,-6180,-391,-177,-225,2025-01-29 10:42:49,1
-11628,-1688,-6364,-395,-111,-296,2025-01-29 10:42:49,1
-11492,-1608,-6304,-389,46,-339,2025-01-29 10:42:49,1
-11612,-1812,-6420,-361,235,-306,2025-01-29 10:42:49,1
-11664,-1664,-6612,-309,360,-273,2025-01-29 10:42:49,1
-11768,-1660,-6576,-354,359,-250,2025-01-29 10:42:49,1
-11784,-1772,-6460,-362,321,-263,2025-01-29 10:42:49,1
-11684,-1840,-6464,-322,339,-284,2025-01-29 10:42:49,1
-11776,-1840,-6372,-240,318,-228,2025-01-29 10:42:49,1
-11852,-1552,-6508,-212,104,-109,2025-01-29 10:42:49,1
-11764,-1616,-6436,-165,40,-103,2025-01-29 10:42:49,1
-11796,-1740,-6316,-149,7,-120,2025-01-29 10:42:49,1
-11708,-1824,-6080,-33,18,-90,2025-01-29 10:42:49,1
-11720,-1860,-6232,46,119,-16,2025-01-29 10:42:49,1
-11728,-1704,-6188,84,242,-11,2025-01-29 10:42:49,1
-11764,-1604,-6396,25,272,-46,2025-01-29 10:42:49,1
-11916,-1560,-6268,55,252,-76,2025-01-29 10:42:49,1
-11812,-1640,-6516,36,215,-96,2025-01-29 10:42:49,1
-11744,-1632,-6544,26,169,-83,2025-01-29 10:42:49,1
-11764,-1624,-6488,6,155,-28,2025-01-29 10:42:49,1
-11804,-1464,-6380,-20,240,-49,2025-01-29 10:42:50,1
-11776,-1524,-6396,8,254,-65,2025-01-29 10:42:50,1
-11828,-1604,-6280,-13,182,-76,2025-01-29 10:42:50,1
-11748,-1472,-6380,-15,116,-133,2025-01-29 10:42:50,1
-11908,-1544,-6240,-20,102,-71,2025-01-29 10:42:50,1
-11832,-1440,-6360,-66,92,-80,2025-01-29 10:42:50,1
-11784,-1424,-6340,-111,114,-116,2025-01-29 10:42:50,1
-11752,-1480,-6260,-215,131,-156,2025-01-29 10:42:50,1
-11716,-1540,-6432,-225,127,-128,2025-01-29 10:42:50,1
-11648,-1532,-6384,-282,178,-120,2025-01-29 10:42:50,1
-11804,-1476,-6200,-276,322,-151,2025-01-29 10:42:50,1
-11904,-1660,-6300,-204,311,-202,2025-01-29 10:42:50,1
-11928,-1912,-6336,-94,63,-161,2025-01-29 10:42:50,1
-11804,-1916,-6336,82,41,-53,2025-01-29 10:42:50,1
-11676,-1816,-6288,164,48,-115,2025-01-29 10:42:50,1
-11900,-1676,-5992,192,9,-92,2025-01-29 10:42:50,1
-11856,-1708,-5876,250,-36,23,2025-01-29 10:42:50,1
-11704,-1792,-6184,262,-2,10,2025-01-29 10:42:50,1
-11840,-1556,-6180,222,38,17,2025-01-29 10:42:50,1
-11928,-1540,-6300,233,-6,83,2025-01-29 10:42:50,1
-11752,-1456,-6364,213,-31,87,2025-01-29 10:42:50,1
-11756,-1488,-6464,198,-26,69,2025-01-29 10:42:50,1
-11668,-1436,-6476,137,-1,-10,2025-01-29 10:42:50,1
-11676,-1444,-6440,55,42,-116,2025-01-29 10:42:50,1
-11608,-1440,-6408,7,116,-180,2025-01-29 10:42:50,1
-11548,-1416,-6292,-59,217,-182,2025-01-29 10:42:50,1
-11636,-1260,-5956,29,548,-201,2025-01-29 10:42:50,1
-11648,-1440,-6020,-18,657,-225,2025-01-29 10:42:50,1
-11712,-1612,-6236,-65,528,-353,2025-01-29 10:42:50,1
-11804,-1784,-5992,46,540,-398,2025-01-29 10:42:50,1
-11872,-1672,-6060,198,553,-363,2025-01-29 10:42:50,1
-11932,-1672,-6280,271,442,-310,2025-01-29 10:42:50,1
-11844,-1808,-6420,318,393,-178,2025-01-29 10:42:50,1
-11828,-1724,-6528,297,353,-85,2025-01-29 10:42:50,1
-11948,-1628,-6700,233,280,-101,2025-01-29 10:42:50,1
-11940,-1472,-6656,186,115,-132,2025-01-29 10:42:50,1
-11780,-1376,-6744,95,-63,-154,2025-01-29 10:42:50,1
-11748,-1432,-6516,-38,-163,-183,2025-01-29 10:42:50,1
-11656,-1388,-6256,-116,-65,-196,2025-01-29 10:42:50,1
-11628,-1528,-6396,-185,194,-223,2025-01-29 10:42:50,1
-11704,-1760,-6456,-270,322,-192,2025-01-29 10:42:50,1
-11796,-1884,-6532,-354,248,-223,2025-01-29 10:42:50,1
-11944,-1972,-6556,-325,108,-226,2025-01-29 10:42:50,1
-11852,-1940,-6648,-277,-52,-181,2025-01-29 10:42:50,1
-11616,-1788,-6420,-211,-76,-235,2025-01-29 10:42:50,1
-11664,-1728,-6180,-171,27,-287,2025-01-29 10:42:50,1
-11688,-1700,-6368,-213,151,-334,2025-01-29 10:42:50,1
-11792,-1792,-6128,-218,208,-264,2025-01-29 10:42:50,1
-11616,-1852,-6264,-188,290,-204,2025-01-29 10:42:50,1
-11748,-1724,-6220,-190,499,-232,2025-01-29 10:42:50,1
