acceleration_x,acceleration_y,acceleration_z,gyroscope_x,gyroscope_y,gyroscope_z,timestamp,label
-11236,-348,10820,-224,290,-170,2025-02-17 10:52:07,0.0
-11284,-528,10652,-165,288,-128,2025-02-17 10:52:07,0.0
-11272,-368,10708,-158,226,-145,2025-02-17 10:52:07,0.0
-11256,-460,10876,-145,215,-161,2025-02-17 10:52:07,0.0
-11304,-412,10656,-152,303,-138,2025-02-17 10:52:07,0.0
-11416,-368,10768,-173,290,-130,2025-02-17 10:52:07,0.0
-11304,-520,10720,-173,183,-128,2025-02-17 10:52:07,0.0
-11208,-412,10720,-195,76,-167,2025-02-17 10:52:07,0.0
-11136,-380,10956,-200,108,-188,2025-02-17 10:52:07,0.0
-11224,-444,10800,-161,171,-179,2025-02-17 10:52:07,0.0
-11264,-436,10684,-200,141,-197,2025-02-17 10:52:07,0.0
-11260,-444,10696,-222,175,-223,2025-02-17 10:52:07,0.0
-11344,-448,10752,-185,195,-224,2025-02-17 10:52:07,0.0
-11220,-468,10648,-195,219,-163,2025-02-17 10:52:07,0.0
-11260,-544,10620,-167,241,-129,2025-02-17 10:52:07,0.0
-11284,-488,10684,-178,216,-121,2025-02-17 10:52:07,0.0
-11232,-440,10708,-166,169,-105,2025-02-17 10:52:07,0.0
-11196,-500,10696,-161,194,-129,2025-02-17 10:52:07,0.0
-11300,-432,10712,-143,322,-159,2025-02-17 10:52:07,0.0
-11328,-424,10608,-162,288,-162,2025-02-17 10:52:07,0.0
-11356,-416,10564,-180,181,-206,2025-02-17 10:52:07,0.0
-11320,-376,10596,-132,141,-170,2025-02-17 10:52:07,0.0
-11284,-408,10564,-148,120,-191,2025-02-17 10:52:07,0.0
-11300,-448,10660,-157,102,-189,2025-02-17 10:52:07,0.0
-11236,-368,10820,-162,101,-164,2025-02-17 10:52:07,0.0
-11324,-436,10624,-165,86,-210,2025-02-17 10:52:07,0.0
-11216,-524,10680,-175,40,-218,2025-02-17 10:52:07,0.0
-11352,-360,10856,-158,103,-197,2025-02-17 10:52:07,0.0
-11284,-484,10732,-166,146,-170,2025-02-17 10:52:07,0.0
-11312,-440,10676,-142,136,-191,2025-02-17 10:52:07,0.0
-11328,-488,10632,-154,54,-186,2025-02-17 10:52:07,0.0
-11228,-388,10792,-127,87,-187,2025-02-17 10:52:07,0.0
-11276,-400,10692,-158,98,-203,2025-02-17 10:52:07,0.0
-11296,-404,10756,-173,133,-183,2025-02-17 10:52:07,0.0
-11248,-508,10688,-200,146,-213,2025-02-17 10:52:07,0.0
-11268,-396,10696,-160,112,-176,2025-02-17 10:52:07,0.0
-11172,-496,10776,-189,149,-195,2025-02-17 10:52:07,0.0
-11236,-528,10620,-166,150,-168,2025-02-17 10:52:07,0.0
-11164,-528,10768,-117,164,-158,2025-02-17 10:52:07,0.0
-11288,-468,10740,-154,154,-171,2025-02-17 10:52:07,0.0
-11268,-364,10860,-184,151,-205,2025-02-17 10:52:07,0.0
-11332,-440,10760,-176,176,-214,2025-02-17 10:52:07,0.0
-11276,-468,10684,-170,98,-179,2025-02-17 10:52:07,0.0
-11380,-420,10724,-138,142,-185,2025-02-17 10:52:07,0.0
-11272,-420,10740,-140,87,-144,2025-02-17 10:52:07,0.0
-11224,-448,10776,-146,71,-170,2025-02-17 10:52:07,0.0
-11244,-388,10816,-170,121,-187,2025-02-17 10:52:07,0.0
-11316,-536,10872,-197,83,-187,2025-02-17 10:52:07,0.0
-11280,-524,10760,-173,66,-175,2025-02-17 10:52:07,0.0
-11328,-456,10744,-189,143,-163,2025-02-17 10:52:07,0.0
-11364,-500,10800,-165,189,-156,2025-02-17 10:52:07,0.0
-11356,-512,10864,-189,174,-162,2025-02-17 10:52:07,0.0
-11256,-552,10736,-164,55,-162,2025-02-17 10:52:07,0.0
-11172,-444,10896,-147,88,-175,2025-02-17 10:52:07,0.0
-11264,-348,10828,-129,235,-199,2025-02-17 10:52:07,0.0
-11412,-512,10780,-134,212,-162,2025-02-17 10:52:08,0.0
-11452,-484,10596,-170,108,-128,2025-02-17 10:52:08,0.0
-11308,-528,10588,-149,-2,-117,2025-02-17 10:52:08,0.0
-11060,-480,10736,-224,17,-167,2025-02-17 10:52:08,0.0
-11188,-540,10756,-224,22,-219,2025-02-17 10:52:08,0.0
-11180,-472,10780,-184,3,-194,2025-02-17 10:52:08,0.0
-11224,-512,10736,-144,1,-212,2025-02-17 10:52:08,0.0
-11176,-512,10836,-157,-8,-188,2025-02-17 10:52:08,0.0
-11288,-420,10780,-153,23,-211,2025-02-17 10:52:08,0.0
-11176,-416,10836,-96,78,-139,2025-02-17 10:52:08,0.0
-11116,-336,10988,-97,162,-164,2025-02-17 10:52:08,0.0
-11392,-236,10936,-129,523,-148,2025-02-17 10:52:08,0.0
-11560,-400,10096,-332,595,-237,2025-02-17 10:52:08,0.0
-11532,-496,10212,-489,14,-211,2025-02-17 10:52:08,0.0
-11572,-668,10592,-457,-92,-147,2025-02-17 10:52:08,0.0
-11432,-548,9888,-445,387,-150,2025-02-17 10:52:08,0.0
-11300,-720,10160,-206,230,-380,2025-02-17 10:52:08,0.0
-12056,-28,9856,-18,-358,-333,2025-02-17 10:52:08,0.0
-11972,-356,10144,-48,-1047,-381,2025-02-17 10:52:08,0.0
-11868,-888,10464,52,-1443,-135,2025-02-17 10:52:08,0.0
-10480,-816,11040,156,-1756,-26,2025-02-17 10:52:08,0.0
-10196,-548,10544,293,-1260,78,2025-02-17 10:52:08,0.0
-10120,-800,10952,235,-559,136,2025-02-17 10:52:08,0.0
-10520,-832,11764,124,135,137,2025-02-17 10:52:08,0.0
-10616,-564,10188,-183,578,344,2025-02-17 10:52:08,0.0
-11372,-512,10984,-297,596,439,2025-02-17 10:52:08,0.0
-11540,-608,10620,-126,476,637,2025-02-17 10:52:08,0.0
-11632,-876,10284,-183,358,673,2025-02-17 10:52:08,0.0
-11608,-596,10380,-291,-83,662,2025-02-17 10:52:08,0.0
-11552,-24,10772,-192,-18,550,2025-02-17 10:52:08,0.0
-11528,136,10680,-271,-36,369,2025-02-17 10:52:08,0.0
-11932,320,10956,-275,2,251,2025-02-17 10:52:08,0.0
-11556,220,10520,-325,54,351,2025-02-17 10:52:08,0.0
-12084,628,10312,-387,-301,450,2025-02-17 10:52:08,0.0
-11148,-164,10744,-922,-929,655,2025-02-17 10:52:08,0.0
-11060,-700,11916,-907,-997,678,2025-02-17 10:52:08,0.0
-10148,-792,12216,-973,-685,432,2025-02-17 10:52:08,0.0
-9776,-432,12900,-1022,-500,307,2025-02-17 10:52:08,0.0
-8864,-644,11008,-668,-687,290,2025-02-17 10:52:08,0.0
-9064,-220,12020,-643,-131,263,2025-02-17 10:52:08,0.0
-10056,168,13288,-757,728,66,2025-02-17 10:52:08,0.0
-9812,416,12636,-830,1304,-43,2025-02-17 10:52:08,0.0
-11296,564,14128,-776,1693,-6,2025-02-17 10:52:08,0.0
-9400,192,12132,-544,1812,32,2025-02-17 10:52:08,0.0
-9600,52,12484,-524,2606,-75,2025-02-17 10:52:08,
-9724,-128,11852,-538,3789,-163,2025-02-17 10:52:08,0.0
-10440,-124,11560,-549,4510,-61,2025-02-17 10:52:08,0.0
-11304,-248,11260,-589,4645,70,2025-02-17 10:52:08,0.0
-11712,-552,10832,-597,4526,378,2025-02-17 10:52:08,0.0
-12052,-472,11036,-506,4261,630,2025-02-17 10:52:08,0.0
-11300,-380,10492,-586,4377,668,2025-02-17 10:52:08,0.0
-12204,-308,10380,-736,3902,523,2025-02-17 10:52:08,0.0
-10224,-372,9144,-1063,5062,303,2025-02-17 10:52:08,0.0
-10840,-400,8612,-968,5838,119,2025-02-17 10:52:08,0.0
-11832,-480,8828,-903,6113,-111,2025-02-17 10:52:08,0.0
-12060,-680,8836,-702,5349,-224,2025-02-17 10:52:08,0.0
-12352,-524,9692,-916,4642,-372,2025-02-17 10:52:08,0.0
-11200,-392,7964,-776,4051,-344,2025-02-17 10:52:08,0.0
-12576,-280,9092,-850,4785,-311,2025-02-17 10:52:08,0.0
-11168,-216,9084,-963,5208,-487,2025-02-17 10:52:08,0.0
-9660,-416,8716,-1717,5331,-742,2025-02-17 10:52:08,0.0
-11948,-456,6620,-1133,5192,-429,2025-02-17 10:52:09,0.0
-12928,-1000,8112,-1096,4317,-683,2025-02-17 10:52:09,0.0
-12952,-556,8324,-640,3508,-872,2025-02-17 10:52:09,0.0
-11336,260,6712,-852,2963,-672,2025-02-17 10:52:09,0.0
-12348,-188,7904,-1254,3050,-781,2025-02-17 10:52:09,0.0
-15752,736,8704,-1526,3111,-535,2025-02-17 10:52:09,0.0
-12260,-804,8504,-1501,2957,-400,2025-02-17 10:52:09,0.0
-12984,-496,7844,-1567,2491,-153,2025-02-17 10:52:09,0.0
-12428,-712,7084,-1552,2192,-184,2025-02-17 10:52:09,0.0
-13664,-632,8500,-1744,1823,-102,2025-02-17 10:52:09,0.0
-12788,-484,8220,-2237,2253,220,2025-02-17 10:52:09,0.0
-16472,4,8804,-2673,3665,990,2025-02-17 10:52:09,0.0
-18292,-1224,12152,-2777,7319,4102,2025-02-17 10:52:09,0.0
-24080,1032,10252,-1465,9359,4074,2025-02-17 10:52:09,0.0
-16492,-2820,10156,-2100,11240,5846,2025-02-17 10:52:09,0.0
-14304,-2240,13404,-10,11669,3849,2025-02-17 10:52:09,0.0
-19872,-288,11004,649,13535,1240,2025-02-17 10:52:09,0.0
-18556,528,8060,-309,16179,1282,2025-02-17 10:52:09,0.0
-17816,3712,6580,-2668,15337,2284,2025-02-17 10:52:09,0.0
-15796,2472,7612,-3227,11676,3135,2025-02-17 10:52:09,0.0
-14680,-120,8692,-2490,7545,2374,2025-02-17 10:52:09,0.0
-15320,-1548,8272,-743,5154,820,2025-02-17 10:52:09,0.0
-16596,52,8324,1115,3861,41,2025-02-17 10:52:09,0.0
-15456,640,6924,2568,2973,-116,2025-02-17 10:52:09,0.0
-15328,1360,4692,3050,1471,-765,2025-02-17 10:52:09,0.0
-15124,1156,2148,2594,701,-1385,2025-02-17 10:52:09,0.0
-16356,1660,-1784,1697,300,-1761,2025-02-17 10:52:09,0.0
-14580,316,2204,2101,2476,-1676,2025-02-17 10:52:09,0.0
-14060,40,2796,2630,5515,-1678,2025-02-17 10:52:09,0.0
-14284,628,2640,2976,7439,-3052,2025-02-17 10:52:09,0.0
-15352,708,1720,3110,7577,-3107,2025-02-17 10:52:09,0.0
-14672,1020,1348,2959,6973,-3279,2025-02-17 10:52:09,0.0
-13044,48,1156,3132,6685,-3543,2025-02-17 10:52:09,0.0
-13844,48,444,3809,7147,-3425,2025-02-17 10:52:09,0.0
-14460,-212,1660,3118,8384,-4587,2025-02-17 10:52:09,0.0
-13408,-1024,740,4155,10314,-5589,2025-02-17 10:52:09,0.0
-13588,-1416,240,4358,11239,-5678,2025-02-17 10:52:09,0.0
-13348,-1656,-192,4646,11371,-5079,2025-02-17 10:52:09,0.0
-17136,-1016,164,2461,10800,-4439,2025-02-17 10:52:09,5
-13648,-396,-2868,356,9462,-3565,2025-02-17 10:52:09,5
-13520,-756,-1272,-879,8339,-3633,2025-02-17 10:52:09,5
-13576,-1144,460,-435,7860,-4398,2025-02-17 10:52:09,5
-13908,-2120,140,770,8177,-4457,2025-02-17 10:52:09,5
-13812,-2632,540,2263,8740,-3559,2025-02-17 10:52:09,5
-13144,-2536,1740,3222,8962,-1982,2025-02-17 10:52:09,5
-15944,-2068,-780,1599,8454,328,2025-02-17 10:52:09,5
-15408,-2872,1288,1055,7042,1604,2025-02-17 10:52:09,5
-12528,-3732,776,2034,7081,1480,2025-02-17 10:52:09,5
-11800,-3996,916,3720,9432,680,2025-02-17 10:52:09,5
-12912,-2648,-1244,6338,13394,1210,2025-02-17 10:52:09,5
-12000,-2436,-8108,1960,17345,2657,2025-02-17 10:52:09,5
-10492,656,-8388,-4306,19694,2427,2025-02-17 10:52:09,5
-6544,404,-5644,-6683,20930,-259,2025-02-17 10:52:09,5
-6832,-356,-3992,-6026,22360,-4101,2025-02-17 10:52:09,5
-8448,-544,-4076,-3931,25839,-5826,2025-02-17 10:52:09,5
-10388,-1096,-5972,-4359,28102,-5036,2025-02-17 10:52:09,5
-11668,-704,-4812,-7280,28602,-1912,2025-02-17 10:52:09,5
-11572,-144,-944,-4273,29523,3140,2025-02-17 10:52:09,5
-10032,-1656,-4600,219,32767,10670,2025-02-17 10:52:09,5
-4148,-3144,-6816,-1583,32767,12933,2025-02-17 10:52:09,5
684,-2800,-5440,-1873,32767,7985,2025-02-17 10:52:09,5
1368,-1616,-5496,-181,32767,398,2025-02-17 10:52:10,5
-2056,-988,-6700,593,32767,-3521,2025-02-17 10:52:10,5
-2952,-664,-6052,1744,29145,-3150,2025-02-17 10:52:10,5
-2376,-916,-5404,2862,24054,-2002,2025-02-17 10:52:10,5
-828,-596,-5476,5300,16544,-1891,2025-02-17 10:52:10,5
-1220,-868,-7260,4506,8756,-2526,2025-02-17 10:52:10,5
-2564,-1148,-6672,2083,4622,-2129,2025-02-17 10:52:10,5
-1220,-1700,-4004,-238,3532,-707,2025-02-17 10:52:10,5
28,-1628,-224,147,3192,-467,2025-02-17 10:52:10,5
1776,-952,1420,2352,4884,-1340,2025-02-17 10:52:10,5
2908,-264,1620,3630,6528,-2709,2025-02-17 10:52:10,5
2348,-220,1780,3904,7417,-2738,2025-02-17 10:52:10,5
2720,-376,1612,4078,7160,-2717,2025-02-17 10:52:10,5
2768,-372,1524,4113,6390,-2690,2025-02-17 10:52:10,5
2652,-420,1452,4081,5771,-2593,2025-02-17 10:52:10,5
2592,-340,1484,4189,5683,-2608,2025-02-17 10:52:10,5
2500,-348,1428,4291,5718,-2711,2025-02-17 10:52:10,5
2364,-416,1452,4417,5377,-2507,2025-02-17 10:52:10,5
2368,-464,1704,4483,4876,-2189,2025-02-17 10:52:10,5
2432,-372,1476,4544,4598,-2057,2025-02-17 10:52:10,5
2468,-400,1260,4544,4573,-2061,2025-02-17 10:52:10,5
2376,-480,1292,4590,4521,-2037,2025-02-17 10:52:10,5
2388,-332,1356,4522,4326,-1856,2025-02-17 10:52:10,5
2328,-268,1164,4463,4075,-1639,2025-02-17 10:52:10,5
2360,-436,1012,4314,3822,-1452,2025-02-17 10:52:10,5
2628,-256,836,4135,3451,-1297,2025-02-17 10:52:10,5
2932,-264,444,3796,2821,-1253,2025-02-17 10:52:10,5
3268,-88,576,3405,1899,-1588,2025-02-17 10:52:10,5
-216,1668,-4956,1725,556,-1769,2025-02-17 10:52:10,5
32767,-10776,32767,32767,-32768,2935,2025-02-17 10:52:10,5
-32768,-32768,-32768,-1646,-8319,22131,2025-02-17 10:52:10,5
-32768,-32768,-32768,-1696,-828,1471,2025-02-17 10:52:10,5
-10532,-20700,-22444,6667,-438,-8810,2025-02-17 10:52:10,5
4876,-9304,-4416,17842,31,-12346,2025-02-17 10:52:10,5
7856,-6028,-5816,20092,-5006,-13726,2025-02-17 10:52:10,5
7012,-4796,-8068,15088,-13320,-15754,2025-02-17 10:52:10,5
5860,-3632,-7728,8361,-19151,-16448,2025-02-17 10:52:10,5
3572,-2844,-6024,1993,-22357,-15349,2025-02-17 10:52:10,5
-1224,-3940,-6852,-5467,-21199,-11620,2025-02-17 10:52:10,5
-4432,-6856,-8884,-10293,-14195,-5760,2025-02-17 10:52:10,5
-6896,-10072,-8268,-9297,-3328,1604,2025-02-17 10:52:10,5
-5872,-10936,-13124,-3686,2813,4935,2025-02-17 10:52:10,5
-8808,-8836,-12152,-1650,-1460,5813,2025-02-17 10:52:10,5
-10172,-8080,-9872,1748,-2967,6892,2025-02-17 10:52:10,5
-6348,-7760,-10528,2984,535,6394,2025-02-17 10:52:10,5
-6432,-7884,-9112,2200,1874,4883,2025-02-17 10:52:10,5
-4700,-7868,-10788,339,858,3845,2025-02-17 10:52:10,5
-6184,-8264,-10456,-1020,465,3798,2025-02-17 10:52:10,5
-6044,-7888,-10568,-1516,-60,2402,2025-02-17 10:52:10,5
-7716,-7084,-10808,-648,241,1102,2025-02-17 10:52:10,5
-6904,-7044,-10244,383,-283,-299,2025-02-17 10:52:10,5
-6908,-7484,-9600,734,633,-760,2025-02-17 10:52:10,5
-5740,-7972,-10152,-59,646,-400,2025-02-17 10:52:10,5
-6020,-7748,-10332,-796,383,49,2025-02-17 10:52:10,5
-6396,-7532,-10500,-709,569,-22,2025-02-17 10:52:10,5
-6292,-7368,-10880,-102,399,-288,2025-02-17 10:52:10,5
-6144,-7464,-10676,48,28,-246,2025-02-17 10:52:10,5
-6256,-7704,-10300,-121,-12,-74,2025-02-17 10:52:10,5
-6316,-7644,-10236,-284,105,-75,2025-02-17 10:52:10,5
-6472,-7552,-10200,-306,268,-156,2025-02-17 10:52:10,5
-6320,-7368,-10400,-174,337,-196,2025-02-17 10:52:10,5
-6128,-7624,-10488,-129,181,-174,2025-02-17 10:52:11,5
-6324,-7620,-10528,-211,174,-159,2025-02-17 10:52:11,5
-6236,-7436,-10372,-242,242,-152,2025-02-17 10:52:11,5
-6184,-7508,-10460,-216,187,-157,2025-02-17 10:52:11,5
-6288,-7476,-10436,-165,127,-166,2025-02-17 10:52:11,5
-6344,-7552,-10176,-176,168,-168,2025-02-17 10:52:11,5
-6220,-7588,-10404,-210,236,-193,2025-02-17 10:52:11,5
-6276,-7504,-10484,-233,255,-176,2025-02-17 10:52:11,5
-6216,-7548,-10480,-211,215,-171,2025-02-17 10:52:11,5
-6196,-7520,-10512,-216,178,-169,2025-02-17 10:52:11,5
-6264,-7640,-10356,-157,172,-155,2025-02-17 10:52:11,5
-6288,-7552,-10344,-190,193,-175,2025-02-17 10:52:11,5
-6164,-7608,-10388,-204,213,-181,2025-02-17 10:52:11,5
-6248,-7648,-10336,-183,219,-181,2025-02-17 10:52:11,5
-6304,-7576,-10640,-212,233,-158,2025-02-17 10:52:11,5
-6192,-7540,-10400,-214,241,-160,2025-02-17 10:52:11,5
-6296,-7632,-10596,-158,161,-162,2025-02-17 10:52:11,5
-6296,-7624,-10384,-162,184,-157,2025-02-17 10:52:11,5
-6260,-7528,-10376,-202,213,-176,2025-02-17 10:52:11,5
-6264,-7500,-10352,-219,178,-192,2025-02-17 10:52:11,5
-6176,-7492,-10364,-175,164,-180,2025-02-17 10:52:11,5
-6248,-7528,-10476,-186,199,-164,2025-02-17 10:52:11,5
-6160,-7468,-10360,-197,181,-176,2025-02-17 10:52:11,5
-6180,-7540,-10460,-197,226,-177,2025-02-17 10:52:11,5
-6300,-7472,-10656,-198,213,-161,2025-02-17 10:52:11,5
-6176,-7548,-10408,-173,171,-183,2025-02-17 10:52:11,5
-6256,-7520,-10468,-200,191,-156,2025-02-17 10:52:11,5
-6216,-7568,-10488,-184,207,-184,2025-02-17 10:52:11,5
-6184,-7472,-10464,-178,193,-165,2025-02-17 10:52:11,5
-6296,-7480,-10424,-188,217,-144,2025-02-17 10:52:11,5
-6320,-7520,-10392,-162,206,-165,2025-02-17 10:52:11,5
-6264,-7588,-10552,-182,181,-186,2025-02-17 10:52:11,5
-6336,-7464,-10384,-187,192,-149,2025-02-17 10:52:11,5
-6228,-7504,-10480,-169,180,-175,2025-02-17 10:52:11,5
-6300,-7424,-10368,-168,175,-169,2025-02-17 10:52:11,5
-6184,-7536,-10420,-205,193,-167,2025-02-17 10:52:11,5
-6208,-7436,-10512,-163,186,-180,2025-02-17 10:52:11,5
-6300,-7560,-10604,-188,179,-172,2025-02-17 10:52:11,5
-6252,-7500,-10332,-184,210,-183,2025-02-17 10:52:11,5
-6252,-7556,-10588,-178,169,-184,2025-02-17 10:52:11,5
-6308,-7532,-10336,-196,207,-155,2025-02-17 10:52:11,5
-6352,-7548,-10496,-167,204,-157,2025-02-17 10:52:11,5
-6168,-7400,-10548,-176,145,-184,2025-02-17 10:52:11,0.0
-6220,-7536,-10480,-171,192,-173,2025-02-17 10:52:11,0.0
-6220,-7520,-10480,-194,201,-181,2025-02-17 10:52:11,0.0
-6212,-7476,-10544,-177,189,-156,2025-02-17 10:52:11,0.0
-6384,-7520,-10412,-168,210,-178,2025-02-17 10:52:11,0.0
-6272,-7536,-10716,-190,183,-184,2025-02-17 10:52:11,0.0
-6264,-7464,-10568,-166,192,-160,2025-02-17 10:52:11,0.0
-6224,-7484,-10432,-183,184,-152,2025-02-17 10:52:11,0.0
-6220,-7448,-10472,-182,215,-171,2025-02-17 10:52:11,0.0
-6216,-7520,-10404,-188,192,-188,2025-02-17 10:52:11,0.0
-6280,-7588,-10440,-198,183,-163,2025-02-17 10:52:11,0.0
-6240,-7480,-10468,-175,186,-165,2025-02-17 10:52:11,0.0
-6208,-7496,-10572,-174,177,-177,2025-02-17 10:52:11,0.0
-6356,-7516,-10424,-190,184,-195,2025-02-17 10:52:11,0.0
-6228,-7488,-10284,-182,183,-165,2025-02-17 10:52:11,0.0
-6248,-7580,-10436,-216,188,-180,2025-02-17 10:52:11,0.0
-6296,-7560,-10500,-197,184,-158,2025-02-17 10:52:11,0.0
-6244,-7532,-10436,-183,195,-178,2025-02-17 10:52:11,0.0
-6176,-7524,-10404,-166,203,-200,2025-02-17 10:52:11,0.0
-6348,-7488,-10360,-173,199,-176,2025-02-17 10:52:12,
-6220,-7548,-10520,-182,187,-196,2025-02-17 10:52:12,0.0
-6188,-7508,-10500,-174,205,-178,2025-02-17 10:52:12,0.0
-6172,-7540,-10504,-179,170,-146,2025-02-17 10:52:12,0.0
-6212,-7380,-10488,-206,172,-184,2025-02-17 10:52:12,0.0
-6296,-7532,-10592,-164,200,-151,2025-02-17 10:52:12,0.0
-6160,-7512,-10496,-187,188,-196,2025-02-17 10:52:12,0.0
-6112,-7440,-10476,-210,198,-174,2025-02-17 10:52:12,0.0
-6168,-7636,-10388,-158,190,-150,2025-02-17 10:52:12,0.0
-6200,-7480,-10392,-186,210,-176,2025-02-17 10:52:12,0.0
-6288,-7600,-10348,-173,206,-182,2025-02-17 10:52:12,0.0
-6268,-7512,-10356,-183,205,-179,2025-02-17 10:52:12,0.0
-6236,-7492,-10420,-187,172,-156,2025-02-17 10:52:12,0.0
-6244,-7592,-10544,-174,186,-157,2025-02-17 10:52:12,0.0
-6248,-7480,-10416,-174,202,-180,2025-02-17 10:52:12,0.0
-6196,-7552,-10580,-148,180,-172,2025-02-17 10:52:12,0.0
-6280,-7436,-10452,-154,205,-168,2025-02-17 10:52:12,0.0
-6256,-7528,-10596,-208,163,-147,2025-02-17 10:52:12,0.0
-6228,-7564,-10388,-174,223,-182,2025-02-17 10:52:12,0.0
-6304,-7512,-10504,-187,172,-171,2025-02-17 10:52:12,0.0
-6352,-7420,-10536,-173,182,-150,2025-02-17 10:52:12,0.0
-6156,-7484,-10484,-156,189,-175,2025-02-17 10:52:12,0.0
-6252,-7536,-10596,-174,199,-186,2025-02-17 10:52:12,0.0
-6172,-7472,-10528,-171,185,-170,2025-02-17 10:52:12,0.0
-6192,-7428,-10508,-164,205,-154,2025-02-17 10:52:12,0.0
-6184,-7568,-10508,-186,192,-177,2025-02-17 10:52:12,0.0
-6180,-7520,-10436,-162,184,-170,2025-02-17 10:52:12,0.0
-6184,-7520,-10540,-194,181,-173,2025-02-17 10:52:12,0.0
-6296,-7588,-10380,-147,186,-189,2025-02-17 10:52:12,0.0
-6180,-7536,-10456,-192,200,-163,2025-02-17 10:52:12,0.0
-6284,-7560,-10560,-205,179,-176,2025-02-17 10:52:12,0.0
-6240,-7544,-10472,-154,205,-184,2025-02-17 10:52:12,0.0
-6284,-7524,-10404,-200,173,-161,2025-02-17 10:52:12,0.0
-6284,-7464,-10532,-157,188,-174,2025-02-17 10:52:12,0.0
-6212,-7436,-10492,-202,215,-187,2025-02-17 10:52:12,0.0
-6252,-7552,-10532,-192,195,-182,2025-02-17 10:52:12,0.0
-6308,-7588,-10552,-192,189,-192,2025-02-17 10:52:12,0.0
-6364,-7508,-10544,-187,176,-175,2025-02-17 10:52:12,0.0
-6164,-7212,-10316,109,320,-202,2025-02-17 10:52:12,0.0
-6060,-7560,-10164,109,459,-282,2025-02-17 10:52:12,0.0
-6240,-7544,-10336,-97,481,-230,2025-02-17 10:52:12,0.0
-6048,-7284,-10144,-5,265,-361,2025-02-17 10:52:12,0.0
-6132,-7860,-11100,-45,163,-372,2025-02-17 10:52:12,0.0
-6524,-7960,-10588,-141,-15,-56,2025-02-17 10:52:12,0.0
-5864,-7472,-10780,-189,-363,-27,2025-02-17 10:52:12,0.0
-6220,-7344,-10912,-167,-556,52,2025-02-17 10:52:12,0.0
-6152,-7700,-11236,-527,-1048,221,2025-02-17 10:52:12,0.0
-5812,-7196,-10232,-1022,-3333,421,2025-02-17 10:52:12,0.0
-6848,-7044,-8656,-53,-2756,423,2025-02-17 10:52:12,0.0
-7372,-7792,-10560,257,453,513,2025-02-17 10:52:12,0.0
-6700,-7768,-10532,-810,-779,115,2025-02-17 10:52:12,0.0
-6456,-6940,-10084,-732,-886,92,2025-02-17 10:52:12,0.0
-6184,-7152,-11176,558,-848,530,2025-02-17 10:52:12,0.0
-6700,-7972,-10848,241,-1823,895,2025-02-17 10:52:12,0.0
-7164,-7440,-9384,-31,-1652,896,2025-02-17 10:52:12,0.0
-7444,-7044,-8828,1161,1080,796,2025-02-17 10:52:12,0.0
-8200,-7040,-10976,1829,5062,1092,2025-02-17 10:52:12,0.0
-5752,-8324,-11952,-564,1770,762,2025-02-17 10:52:12,0.0
-6612,-7852,-10124,-576,-729,917,2025-02-17 10:52:12,0.0
-7236,-6424,-10072,1187,1151,755,2025-02-17 10:52:12,0.0
-6628,-6932,-10152,3397,2103,1324,2025-02-17 10:52:13,0.0
-5296,-9872,-13800,-1751,1685,3271,2025-02-17 10:52:13,0.0
-5676,-8380,-8032,-4233,-419,3121,2025-02-17 10:52:13,0.0
-7184,-6444,-10700,-1336,-279,3194,2025-02-17 10:52:13,0.0
-7756,-6532,-11804,179,-570,2027,2025-02-17 10:52:13,0.0
-6968,-6664,-13000,-724,-2402,1251,2025-02-17 10:52:13,0.0
-5584,-6844,-11200,-2150,-5406,906,2025-02-17 10:52:13,0.0
-6772,-7120,-10836,-3547,-5511,1324,2025-02-17 10:52:13,0.0
-7472,-6972,-10548,-4638,-3969,871,2025-02-17 10:52:13,0.0
-8352,-5984,-7996,-4083,703,852,2025-02-17 10:52:13,0.0
-7584,-5528,-6276,-1499,2114,831,2025-02-17 10:52:13,0.0
-8144,-5528,-8344,2642,5454,2027,2025-02-17 10:52:13,0.0
-7092,-7676,-12400,724,6864,1997,2025-02-17 10:52:13,0.0
-5764,-7736,-10504,-1131,3259,451,2025-02-17 10:52:13,0.0
-7488,-6776,-10068,-649,-1153,-279,2025-02-17 10:52:13,0.0
-7688,-5728,-8976,976,-414,-2014,2025-02-17 10:52:13,0.0
-8728,-6152,-12180,1846,3153,-2706,2025-02-17 10:52:13,0.0
-8000,-7772,-12568,283,6613,-1958,2025-02-17 10:52:13,0.0
-7532,-8188,-14044,-530,7713,-543,2025-02-17 10:52:13,0.0
-8568,-8168,-16000,-993,7341,2025,2025-02-17 10:52:13,0.0
-10596,-8440,-16776,-1004,9574,6158,2025-02-17 10:52:13,0.0
-9068,-8780,-16420,2171,15183,8500,2025-02-17 10:52:13,0.0
-4980,-8672,-18924,6465,20475,6811,2025-02-17 10:52:13,0.0
-4268,-8588,-23028,5319,22846,4030,2025-02-17 10:52:13,0.0
-3760,-7980,-24084,-294,22405,2699,2025-02-17 10:52:13,0.0
-2432,-6960,-21020,-5236,19353,1383,2025-02-17 10:52:13,0.0
-2632,-6360,-17204,-4983,17853,-767,2025-02-17 10:52:13,0.0
-4508,-6328,-17632,-2945,16121,-2185,2025-02-17 10:52:13,0.0
-5092,-6724,-18080,-1618,11499,-2162,2025-02-17 10:52:13,0.0
-4252,-7304,-18108,-616,5609,-2552,2025-02-17 10:52:13,0.0
-3892,-8156,-18964,-27,-720,-3550,2025-02-17 10:52:13,0.0
-5220,-9444,-20520,-1831,-7577,-2956,2025-02-17 10:52:13,0.0
-5696,-10476,-17440,-2840,-12979,-1901,2025-02-17 10:52:13,0.0
-5500,-11472,-17688,-2946,-17851,-806,2025-02-17 10:52:13,0.0
-7048,-11908,-17704,-3644,-21546,1347,2025-02-17 10:52:13,0.0
-7312,-11880,-17924,-4589,-24701,4547,2025-02-17 10:52:13,0.0
-7456,-11148,-18316,-5179,-27250,7549,2025-02-17 10:52:13,0.0
-7524,-9444,-18928,-5249,-28259,9581,2025-02-17 10:52:13,0.0
-7824,-6552,-20608,-5172,-27483,10290,2025-02-17 10:52:13,0.0
-8164,-3060,-21372,-5786,-25217,12302,2025-02-17 10:52:13,0.0
-4332,-1748,-19624,-4907,-21911,10780,2025-02-17 10:52:13,
-4712,-1888,-20748,-4819,-15783,5984,2025-02-17 10:52:13,0.0
-5408,-2912,-19372,-6635,-4432,236,2025-02-17 10:52:13,0.0
-6960,-4732,-16036,-7295,7378,-4997,2025-02-17 10:52:13,0.0
-8376,-5532,-13084,-6600,17079,-7358,2025-02-17 10:52:13,0.0
-9108,-5800,-14148,-5343,23350,-6649,2025-02-17 10:52:13,0.0
-9044,-5092,-11568,-5210,25318,-3927,2025-02-17 10:52:13,0.0
-6960,-3784,-10308,-4901,23530,-1715,2025-02-17 10:52:13,0.0
-5820,-2564,-10468,-4960,19502,300,2025-02-17 10:52:13,0.0
-4092,-2020,-10432,-6005,14579,1542,2025-02-17 10:52:13,0.0
-2408,-1480,-8768,-7069,9220,1343,2025-02-17 10:52:13,0.0
-2072,-700,-6984,-7136,4456,456,2025-02-17 10:52:13,0.0
-2008,96,-5244,-6135,127,-93,2025-02-17 10:52:13,0.0
-2284,452,-3832,-4024,-3636,12,2025-02-17 10:52:13,0.0
-2116,76,-3344,-1175,-7413,263,2025-02-17 10:52:13,0.0
-2180,-476,-3672,739,-9070,-403,2025-02-17 10:52:13,0.0
-3152,-1132,-4864,1910,-8937,-1764,2025-02-17 10:52:13,0.0
-4172,-1996,-6132,2253,-7638,-2671,2025-02-17 10:52:13,0.0
-5024,-3084,-7364,1899,-5749,-3559,2025-02-17 10:52:13,0.0
-5728,-3884,-9228,810,-3177,-4609,2025-02-17 10:52:13,0.0
-6764,-4364,-9780,-871,368,-5600,2025-02-17 10:52:14,0.0
-6408,-4692,-9088,-1736,4030,-6892,2025-02-17 10:52:14,0.0
-6552,-4724,-8220,-1253,7754,-8404,2025-02-17 10:52:14,0.0
-6596,-4496,-8660,-1144,9841,-8769,2025-02-17 10:52:14,0.0
-6672,-4436,-8852,-2034,10318,-7927,2025-02-17 10:52:14,0.0
-5704,-4948,-8664,-3402,8784,-6575,2025-02-17 10:52:14,0.0
-5120,-5596,-8224,-4269,6107,-5929,2025-02-17 10:52:14,0.0
-5304,-5524,-7828,-4734,3100,-5321,2025-02-17 10:52:14,0.0
-5720,-4596,-7148,-4689,463,-4162,2025-02-17 10:52:14,0.0
-5848,-3228,-6976,-4402,-2450,-2183,2025-02-17 10:52:14,0.0
-5456,-1856,-6960,-4515,-5166,-359,2025-02-17 10:52:14,0.0
-4348,-880,-6496,-4981,-7962,720,2025-02-17 10:52:14,0.0
-4096,-520,-5964,-5116,-10898,1156,2025-02-17 10:52:14,0.0
-4024,-300,-5452,-4658,-14334,1728,2025-02-17 10:52:14,0.0
-4288,-232,-5088,-3808,-17853,2462,2025-02-17 10:52:14,0.0
-4516,-168,-5320,-2279,-21602,2352,2025-02-17 10:52:14,0.0
-6172,180,-6372,-1497,-23648,2401,2025-02-17 10:52:14,0.0
-7480,1224,-6488,-1502,-24457,4088,2025-02-17 10:52:14,0.0
-7160,968,-5788,-369,-23788,3950,2025-02-17 10:52:14,0.0
-10748,4836,13444,6979,-22611,7489,2025-02-17 10:52:14,0.0
-8696,-140,-7552,7983,-22261,7080,2025-02-17 10:52:14,0.0
-8984,-48,-10516,1558,-23822,6257,2025-02-17 10:52:14,0.0
-9744,-200,-6780,-638,-28163,7848,2025-02-17 10:52:14,0.0
-7664,916,-7376,762,-32058,8219,2025-02-17 10:52:14,0.0
-8076,100,-5876,3038,-31801,6615,2025-02-17 10:52:14,0.0
-9528,-1468,-3616,5685,-32768,4671,2025-02-17 10:52:14,0.0
-10384,-1712,-4400,4847,-32768,2928,2025-02-17 10:52:14,0.0
-13220,-3644,-232,786,-32768,509,2025-02-17 10:52:14,0.0
-19320,-4104,8804,-916,-32768,-138,2025-02-17 10:52:14,0.0
-24948,-5308,7956,3927,-7265,1419,2025-02-17 10:52:14,0.0
-12296,-5668,1752,3090,5679,1636,2025-02-17 10:52:14,0.0
-12356,-2600,-1316,1248,-2032,407,2025-02-17 10:52:14,0.0
-14176,72,1984,3023,-2374,-652,2025-02-17 10:52:14,0.0
-14576,68,1244,2030,-2437,175,2025-02-17 10:52:14,0.0
-13860,-120,1368,588,-2802,386,2025-02-17 10:52:14,0.0
-14036,-64,1948,-527,-3039,-2,2025-02-17 10:52:14,0.0
-13660,256,1504,-1158,-2522,234,2025-02-17 10:52:14,0.0
-12916,-536,1956,-1102,-1352,9,2025-02-17 10:52:14,0.0
-13248,40,1560,-1737,491,240,2025-02-17 10:52:14,0.0
-12784,-1004,3176,-1322,1716,-203,2025-02-17 10:52:14,0.0
-13424,-1736,3484,823,1650,-903,2025-02-17 10:52:14,0.0
-15004,-1192,2704,2679,658,-807,2025-02-17 10:52:14,0.0
-14088,-208,992,2081,8,-746,2025-02-17 10:52:14,0.0
-14516,172,820,212,66,-818,2025-02-17 10:52:14,0.0
-13240,-60,-688,-1937,288,-731,2025-02-17 10:52:14,0.0
-12544,-828,652,-3404,520,-1376,2025-02-17 10:52:14,0.0
-13160,-1488,2856,-2800,1282,-2297,2025-02-17 10:52:14,0.0
-11592,-1848,1976,-1298,1413,-3473,2025-02-17 10:52:14,0.0
-10804,-2340,1220,49,1106,-8042,2025-02-17 10:52:14,0.0
-12764,-1896,1132,-684,3291,-9854,2025-02-17 10:52:14,0.0
-16188,-1708,2044,-745,6447,-8161,2025-02-17 10:52:14,0.0
-17452,-2096,2176,-157,6297,-3328,2025-02-17 10:52:14,0.0
-15528,-2372,1124,1293,2370,2223,2025-02-17 10:52:14,0.0
-13084,-1456,-244,2077,1112,3046,2025-02-17 10:52:14,0.0
-12944,-484,-1328,1875,1958,1941,2025-02-17 10:52:14,0.0
-12580,180,-1112,362,2634,1130,2025-02-17 10:52:14,0.0
-12448,24,-1032,-576,2638,1138,2025-02-17 10:52:14,0.0
-12744,-32,-456,-1564,2134,2159,2025-02-17 10:52:14,0.0
-12284,-1068,776,-1583,1911,3937,2025-02-17 10:52:14,0.0
-10568,-1900,-308,-1330,2837,5108,2025-02-17 10:52:14,0.0
-7104,-1480,-1336,-2244,6777,1509,2025-02-17 10:52:14,0.0
-9136,-1296,-1620,-4106,9266,-745,2025-02-17 10:52:15,0.0
-10076,-2300,600,-1250,11989,-210,2025-02-17 10:52:15,0.0
-11120,-2692,-256,2161,15515,303,2025-02-17 10:52:15,0.0
-11760,-2000,-2380,1709,18442,885,2025-02-17 10:52:15,0.0
-11380,-1192,-1528,544,18138,-712,2025-02-17 10:52:15,0.0
-13648,-1056,-1540,435,14239,-1440,2025-02-17 10:52:15,0.0
-15176,-932,-1908,921,7930,-34,2025-02-17 10:52:15,0.0
-14604,-268,-2032,1686,1982,708,2025-02-17 10:52:15,0.0
-13244,-120,-2228,2263,-2748,556,2025-02-17 10:52:15,0.0
-11240,188,-3168,2115,-5682,118,2025-02-17 10:52:15,0.0
-9588,-56,-3172,1798,-8369,-428,2025-02-17 10:52:15,0.0
-9900,68,-680,2377,-9313,-625,2025-02-17 10:52:15,0.0
-10636,472,-176,2887,-8121,200,2025-02-17 10:52:15,0.0
-13748,912,140,2652,-6204,1528,2025-02-17 10:52:15,0.0
-10844,888,-796,2366,-2187,2835,2025-02-17 10:52:15,0.0
-11008,880,-1792,1235,567,2991,2025-02-17 10:52:15,0.0
-12160,-200,-1312,927,-59,2318,2025-02-17 10:52:15,0.0
-13440,-1556,-1900,743,-1746,2457,2025-02-17 10:52:15,0.0
-14116,-2156,-2260,84,-2417,2442,2025-02-17 10:52:15,0.0
-13516,-1696,-836,-291,-2951,2547,2025-02-17 10:52:15,
-11376,-972,-676,-329,-3793,2915,2025-02-17 10:52:15,0.0
-11840,-400,-44,-510,-5064,2692,2025-02-17 10:52:15,0.0
-13308,-536,-852,-1534,-2788,2567,2025-02-17 10:52:15,0.0
-13260,-1328,-1964,-1813,-1569,3091,2025-02-17 10:52:15,0.0
-14008,-1100,-792,-1525,-2040,3416,2025-02-17 10:52:15,0.0
-13956,548,-600,-1551,-4697,3369,2025-02-17 10:52:15,0.0
-16692,968,-496,-2145,-6588,3222,2025-02-17 10:52:15,0.0
-15056,76,48,-2230,-8334,1854,2025-02-17 10:52:15,0.0
-15112,472,308,-2312,-9043,917,2025-02-17 10:52:15,0.0
-13376,1092,284,-2527,-8799,129,2025-02-17 10:52:15,0.0
-12484,1448,600,-2282,-8113,248,2025-02-17 10:52:15,0.0
-14480,1060,880,-2431,-7678,1438,2025-02-17 10:52:15,0.0
-14516,440,632,-2327,-7733,1518,2025-02-17 10:52:15,0.0
-14024,388,4780,-2735,-6762,1097,2025-02-17 10:52:15,0.0
-13320,256,1832,-2542,-7639,1093,2025-02-17 10:52:15,0.0
-14068,780,1748,-2586,-6033,240,2025-02-17 10:52:15,0.0
-15824,508,1788,-2317,-4108,-109,2025-02-17 10:52:15,0.0
-16296,528,3060,-1891,-4336,499,2025-02-17 10:52:15,0.0
-15020,636,4360,-971,-5045,-343,2025-02-17 10:52:15,0.0
-14364,1640,4688,-819,-6051,-353,2025-02-17 10:52:15,0.0
-13816,1880,3000,-824,-5640,-1084,2025-02-17 10:52:15,0.0
-15968,540,2592,-385,-5741,-627,2025-02-17 10:52:15,0.0
-15924,-956,3504,477,-6564,533,2025-02-17 10:52:15,0.0
-14436,-528,4624,910,-7335,188,2025-02-17 10:52:15,0.0
-14888,376,5356,477,-7602,-371,2025-02-17 10:52:15,0.0
-13592,860,3972,-10,-8004,-1153,2025-02-17 10:52:15,0.0
-14700,628,4884,-90,-8088,-907,2025-02-17 10:52:15,0.0
-14472,-240,6464,-6,-9227,-65,2025-02-17 10:52:15,0.0
-13364,-100,6600,-175,-9810,-490,2025-02-17 10:52:15,0.0
-13524,-952,8644,-283,-9219,-744,2025-02-17 10:52:15,0.0
-15540,-252,10628,-341,-7957,-1020,2025-02-17 10:52:15,0.0
-19200,1112,13512,32,-5971,-924,2025-02-17 10:52:15,0.0
-21824,1736,13624,-378,-4070,-551,2025-02-17 10:52:15,0.0
-19228,1364,15172,819,-3787,45,2025-02-17 10:52:15,0.0
-17512,948,11780,1647,-4006,446,2025-02-17 10:52:15,0.0
-14664,2056,8536,1998,-2658,625,2025-02-17 10:52:15,0.0
-12168,1448,4908,1941,-1890,376,2025-02-17 10:52:15,0.0
-12188,1868,5228,1780,-3429,-82,2025-02-17 10:52:15,0.0
-11880,1300,5828,706,-5766,-796,2025-02-17 10:52:15,0.0
-12552,276,7664,-284,-5761,-789,2025-02-17 10:52:15,0.0
-10724,-304,6524,-538,-4587,-1115,2025-02-17 10:52:16,0.0
-11124,-188,7988,-853,-3900,-1787,2025-02-17 10:52:16,0.0
-11768,-424,8784,-795,-3718,-2415,2025-02-17 10:52:16,0.0
-11780,-220,8252,-455,-5141,-2368,2025-02-17 10:52:16,0.0
-12240,212,9008,-381,-5792,-2021,2025-02-17 10:52:16,0.0
-11592,284,9168,-422,-5253,-1500,2025-02-17 10:52:16,0.0
-12688,-96,9524,-1040,-3631,-770,2025-02-17 10:52:16,0.0
-12400,-316,11144,-1296,-2537,-297,2025-02-17 10:52:16,0.0
-11712,-140,11088,-809,-2701,-602,2025-02-17 10:52:16,0.0
-11456,-548,10576,-185,-2566,-1087,2025-02-17 10:52:16,0.0
-11356,-44,11020,172,-2734,-1640,2025-02-17 10:52:16,0.0
-11140,-308,8780,58,-2357,-1576,2025-02-17 10:52:16,0.0
-12060,-532,9540,-476,-1838,-1175,2025-02-17 10:52:16,0.0
-12444,-520,9872,-425,-1747,-834,2025-02-17 10:52:16,0.0
-11652,-928,8848,-130,-1784,-882,2025-02-17 10:52:16,0.0
-12008,-212,9612,-25,-2278,-867,2025-02-17 10:52:16,0.0
-11112,84,8804,185,-2231,-984,2025-02-17 10:52:16,0.0
-12000,444,8928,-193,-2501,-779,2025-02-17 10:52:16,0.0
-12068,828,9588,-126,-2830,-82,2025-02-17 10:52:16,0.0
-11200,88,10248,116,-2569,353,2025-02-17 10:52:16,0.0
-11164,-768,11008,171,-2271,278,2025-02-17 10:52:16,0.0
-11808,-720,10204,-139,-2023,332,2025-02-17 10:52:16,0.0
-11616,-212,11996,-78,-2497,388,2025-02-17 10:52:16,0.0
-11168,-276,10792,-255,-3678,307,2025-02-17 10:52:16,0.0
-13900,-552,10728,-521,-5516,642,2025-02-17 10:52:16,0.0
-9892,-136,12224,-614,-3522,-799,2025-02-17 10:52:16,0.0
-10120,-96,12656,-753,-2447,-1140,2025-02-17 10:52:16,0.0
-9896,152,11884,-718,-666,-810,2025-02-17 10:52:16,0.0
-10084,304,12060,-548,-136,-817,2025-02-17 10:52:16,0.0
-10520,-128,11956,-448,-201,-720,2025-02-17 10:52:16,0.0
-10556,-172,12020,-345,-157,-793,2025-02-17 10:52:16,0.0
-10508,-220,12204,-92,-445,-1010,2025-02-17 10:52:16,0.0
-10052,-156,12116,14,-908,-1518,2025-02-17 10:52:16,0.0
-9844,-88,11624,-79,-1210,-1970,2025-02-17 10:52:16,0.0
-10424,-148,11576,-267,-1110,-2032,2025-02-17 10:52:16,0.0
-10668,-512,11340,-333,-425,-1606,2025-02-17 10:52:16,0.0
-11052,-500,11204,-170,124,-1221,2025-02-17 10:52:16,0.0
-11448,-608,11112,-2,124,-804,2025-02-17 10:52:16,0.0
-12580,-560,12768,357,-70,-723,2025-02-17 10:52:16,0.0
-11612,-244,10232,-189,-748,-936,2025-02-17 10:52:16,0.0
-11468,-388,10676,-517,-1057,-1171,2025-02-17 10:52:16,0.0
-11756,-316,10780,-536,-981,-1034,2025-02-17 10:52:16,0.0
-11520,-84,9740,-702,-384,-503,2025-02-17 10:52:16,0.0
-11424,-212,10012,-1019,-81,-559,2025-02-17 10:52:16,0.0
-11712,-728,10024,-1238,-595,-577,2025-02-17 10:52:16,0.0
-11568,-1032,10332,-1270,-1014,-550,2025-02-17 10:52:16,0.0
-11268,-1368,10684,-1029,-908,-325,2025-02-17 10:52:16,0.0
-10876,-1124,10864,-792,-380,-169,2025-02-17 10:52:16,0.0
-10924,-1056,11084,-800,-197,-174,2025-02-17 10:52:16,0.0
-10884,-952,11124,-994,-340,-228,2025-02-17 10:52:16,0.0
-10556,-1180,11724,-856,-329,-183,2025-02-17 10:52:16,0.0
-10608,-1236,11964,-662,-201,-170,2025-02-17 10:52:16,0.0
-10684,-1168,11980,-509,36,-175,2025-02-17 10:52:16,0.0
-10820,-968,11628,-475,208,-80,2025-02-17 10:52:16,0.0
-10588,-980,11492,-583,302,28,2025-02-17 10:52:16,0.0
-10764,-1168,11724,-317,221,20,2025-02-17 10:52:16,0.0
-10888,-1000,11388,-208,182,24,2025-02-17 10:52:16,0.0
-10700,-948,11296,-230,50,-47,2025-02-17 10:52:16,0.0
-10668,-876,11320,-327,93,-199,2025-02-17 10:52:16,0.0
-10708,-880,11268,-369,356,-196,2025-02-17 10:52:16,
-10692,-892,11660,-258,300,-302,2025-02-17 10:52:16,0.0
-10860,-1092,11580,-193,118,-335,2025-02-17 10:52:16,0.0
-11064,-976,11568,23,224,-209,2025-02-17 10:52:16,0.0
-11180,-928,11444,203,217,-174,2025-02-17 10:52:17,0.0
-11036,-824,11504,303,88,-84,2025-02-17 10:52:17,0.0
-11256,-936,11256,356,84,69,2025-02-17 10:52:17,0.0
-10904,-688,11240,353,17,188,2025-02-17 10:52:17,0.0
-10736,-632,11084,303,135,104,2025-02-17 10:52:17,0.0
-10752,-612,11124,247,269,-37,2025-02-17 10:52:17,0.0
-10736,-588,11048,145,295,-162,2025-02-17 10:52:17,0.0
-10892,-596,10984,50,194,-226,2025-02-17 10:52:17,0.0
-10876,-584,11164,-47,117,-282,2025-02-17 10:52:17,0.0
-10788,-508,11348,-71,-12,-350,2025-02-17 10:52:17,0.0
-10780,-576,11292,-80,-90,-417,2025-02-17 10:52:17,0.0
-10848,-528,11372,-106,-19,-391,2025-02-17 10:52:17,0.0
-11096,-640,11624,-66,228,-263,2025-02-17 10:52:17,0.0
-11136,-620,11528,-56,618,-125,2025-02-17 10:52:17,0.0
-11120,-772,11416,-73,535,-72,2025-02-17 10:52:17,0.0
-10824,-784,11152,-141,316,-36,2025-02-17 10:52:17,0.0
-11720,-412,12520,-155,361,16,2025-02-17 10:52:17,0.0
-10540,-628,11000,-260,230,-84,2025-02-17 10:52:17,0.0
-10564,-736,11128,-311,86,-196,2025-02-17 10:52:17,0.0
-10900,-764,11360,-342,288,-121,2025-02-17 10:52:17,0.0
-11136,-892,11264,-311,303,-77,2025-02-17 10:52:17,0.0
-10948,-800,11416,-219,360,-21,2025-02-17 10:52:17,0.0
-11060,-740,11488,-150,282,-6,2025-02-17 10:52:17,0.0
-10988,-804,11444,-141,137,36,2025-02-17 10:52:17,0.0
-10752,-800,11396,-165,-125,-73,2025-02-17 10:52:17,0.0
-10536,-940,11488,-174,-109,-142,2025-02-17 10:52:17,0.0
-10584,-892,11548,-216,120,-234,2025-02-17 10:52:17,0.0
-10724,-968,11476,-143,378,-265,2025-02-17 10:52:17,0.0
-11088,-952,11504,-17,339,-237,2025-02-17 10:52:17,0.0
-10960,-896,11180,1,101,-233,2025-02-17 10:52:17,0.0
-11064,-688,11180,-81,14,-302,2025-02-17 10:52:17,0.0
-10928,-676,11240,-82,114,-240,2025-02-17 10:52:17,0.0
-10884,-548,11280,-83,239,-153,2025-02-17 10:52:17,0.0
-10976,-412,11248,-87,382,-88,2025-02-17 10:52:17,0.0
-11004,-628,11232,-77,335,-37,2025-02-17 10:52:17,0.0
-10884,-552,11280,-126,281,-93,2025-02-17 10:52:17,0.0
-10868,-764,11340,-231,171,-145,2025-02-17 10:52:17,0.0
-10800,-688,11332,-287,102,-184,2025-02-17 10:52:17,0.0
-10876,-808,11208,-356,102,-220,2025-02-17 10:52:17,0.0
-10532,-652,11240,-480,231,-205,2025-02-17 10:52:17,0.0
-10788,-448,11316,-650,374,-243,2025-02-17 10:52:17,0.0
-10732,-512,10332,-674,651,-252,2025-02-17 10:52:17,0.0
-10880,-584,10664,-823,1027,-260,2025-02-17 10:52:17,0.0
-11232,-824,10652,-1010,324,-271,2025-02-17 10:52:17,0.0
-11668,-1416,12880,-987,48,-293,2025-02-17 10:52:17,0.0
-10664,-1852,10860,-1121,-758,-263,2025-02-17 10:52:17,0.0
-10788,-2152,11036,-678,-751,-288,2025-02-17 10:52:17,0.0
-10564,-1272,10716,-214,-783,-290,2025-02-17 10:52:17,0.0
-11232,-760,11892,42,-216,-47,2025-02-17 10:52:17,0.0
-10436,-844,11508,335,-103,-10,2025-02-17 10:52:17,0.0
-10700,-464,10692,282,64,-261,2025-02-17 10:52:17,0.0
-11644,-444,10568,377,-396,-255,2025-02-17 10:52:17,0.0
-10380,-236,10488,276,-179,1,2025-02-17 10:52:17,0.0
-10352,-592,10940,309,-128,-296,2025-02-17 10:52:17,0.0
-9624,-768,10656,156,620,-560,2025-02-17 10:52:17,0.0
-10536,-960,11920,-56,1377,-978,2025-02-17 10:52:17,0.0
-11108,-716,12100,-304,1699,-1258,2025-02-17 10:52:17,0.0
-11376,-812,11724,-172,1007,-988,2025-02-17 10:52:17,0.0
-11116,-620,12180,15,923,-754,2025-02-17 10:52:17,0.0
-11004,-728,13136,222,902,-346,2025-02-17 10:52:17,0.0
-10264,-900,12740,245,798,-196,2025-02-17 10:52:18,0.0
-10080,-1352,12280,210,1317,-277,2025-02-17 10:52:18,0.0
-9488,-1568,12680,519,1505,-591,2025-02-17 10:52:18,0.0
-10520,-1384,12548,761,2008,-713,2025-02-17 10:52:18,0.0
-10548,-1256,12412,870,2249,-303,2025-02-17 10:52:18,0.0
-10648,-1260,12048,609,2493,-8,2025-02-17 10:52:18,0.0
-10588,-640,11748,240,2817,-5,2025-02-17 10:52:18,0.0
-10584,-396,11084,80,3524,303,2025-02-17 10:52:18,0.0
-10916,-416,10996,-130,3969,172,2025-02-17 10:52:18,0.0
-11184,-268,10216,-197,4224,404,2025-02-17 10:52:18,0.0
-11936,-284,10112,-405,4084,373,2025-02-17 10:52:18,0.0
-12064,-164,9828,-630,3717,350,2025-02-17 10:52:18,0.0
-11584,-392,10000,-659,3681,99,2025-02-17 10:52:18,0.0
-11468,-872,10048,-494,3872,35,2025-02-17 10:52:18,0.0
-11212,-1244,9492,-540,4400,134,2025-02-17 10:52:18,0.0
-11472,-1136,9348,-559,5087,193,2025-02-17 10:52:18,0.0
-11580,-872,9220,-716,5569,78,2025-02-17 10:52:18,0.0
-11700,-788,8940,-837,5717,-258,2025-02-17 10:52:18,0.0
-12280,-872,9248,-1059,5759,-238,2025-02-17 10:52:18,0.0
-11852,-800,9296,-1409,6014,-204,2025-02-17 10:52:18,0.0
-11060,-964,8936,-1747,6745,-736,2025-02-17 10:52:18,0.0
-10828,-1208,8184,-1989,7875,-1419,2025-02-17 10:52:18,0.0
-12052,-1160,7428,-2180,8528,-1931,2025-02-17 10:52:18,0.0
-13504,-1084,7452,-2238,8110,-1695,2025-02-17 10:52:18,0.0
-15000,-548,7424,-2457,6529,-998,2025-02-17 10:52:18,0.0
-12216,-104,7592,-2709,4980,-412,2025-02-17 10:52:18,0.0
-13120,300,8316,-2655,4121,360,2025-02-17 10:52:18,0.0
-12540,200,8116,-2493,2725,827,2025-02-17 10:52:18,0.0
-14120,-228,10460,-2251,1851,774,2025-02-17 10:52:18,0.0
-11664,-1360,9040,-2306,817,650,2025-02-17 10:52:18,0.0
-12608,-1520,10544,-2404,1486,816,2025-02-17 10:52:18,0.0
-13480,-1524,10660,-2495,2731,1244,2025-02-17 10:52:18,0.0
-15004,-2032,10868,-2393,3577,2056,2025-02-17 10:52:18,0.0
-17944,-3024,12476,-1927,6002,4286,2025-02-17 10:52:18,0.0
-18320,-1996,11492,-1969,8517,6620,2025-02-17 10:52:18,0.0
-17708,184,11512,-1623,11263,7659,2025-02-17 10:52:18,0.0
-17696,1024,15080,11,12607,4746,2025-02-17 10:52:18,
-18420,-548,9840,692,11126,4008,2025-02-17 10:52:18,0.0
-17600,-1600,8572,1468,8251,3623,2025-02-17 10:52:18,0.0
-19072,52,7996,1686,6620,3359,2025-02-17 10:52:18,0.0
-15668,-2196,9860,1390,5223,2551,2025-02-17 10:52:18,0.0
-15388,-980,8888,1675,5380,1719,2025-02-17 10:52:18,0.0
-14920,452,8576,1794,6040,879,2025-02-17 10:52:18,0.0
-14392,1396,6652,1747,5477,202,2025-02-17 10:52:18,0.0
-13992,1120,6100,1933,4549,-126,2025-02-17 10:52:18,0.0
-14360,708,4580,1844,5122,-268,2025-02-17 10:52:18,0.0
-13988,296,2576,1724,5910,238,2025-02-17 10:52:18,0.0
-13704,752,2516,1298,7144,573,2025-02-17 10:52:18,0.0
-13472,924,2700,567,8802,470,2025-02-17 10:52:18,0.0
-13112,128,3128,64,10955,-562,2025-02-17 10:52:18,0.0
-13760,-196,1620,851,11291,-1142,2025-02-17 10:52:18,0.0
-15068,-68,1708,1973,8376,-888,2025-02-17 10:52:18,0.0
-14824,336,1136,3048,6258,-1083,2025-02-17 10:52:18,0.0
-14248,1240,412,3573,5775,-1788,2025-02-17 10:52:18,0.0
-14228,1768,-204,3134,5683,-2198,2025-02-17 10:52:18,0.0
-12532,1680,-1260,2218,5473,-2734,2025-02-17 10:52:18,0.0
-12892,1380,-440,1677,5822,-3391,2025-02-17 10:52:18,0.0
-13076,784,48,1797,7193,-3483,2025-02-17 10:52:18,0.0
-12884,-48,-296,1153,7414,-3379,2025-02-17 10:52:18,0.0
-13332,-176,552,1148,7138,-3351,2025-02-17 10:52:18,0.0
-13880,-544,136,1422,6373,-3220,2025-02-17 10:52:18,0.0
-12040,-936,-256,1421,5345,-3186,2025-02-17 10:52:19,0.0
-13364,-1428,-752,1137,3020,-3427,2025-02-17 10:52:19,0.0
-14168,-1076,-740,349,2655,-2935,2025-02-17 10:52:19,0.0
-14508,-1448,-184,588,3514,-2008,2025-02-17 10:52:19,0.0
-15208,-1136,-124,502,3053,-589,2025-02-17 10:52:19,0.0
-11896,-500,-100,481,3202,-752,2025-02-17 10:52:19,0.0
-13444,-216,-100,622,2005,-491,2025-02-17 10:52:19,0.0
-13200,-280,-280,805,360,-346,2025-02-17 10:52:19,0.0
-12792,-680,-1192,351,-696,-768,2025-02-17 10:52:19,0.0
-12712,-1112,-880,92,-1516,-2031,2025-02-17 10:52:19,0.0
-13304,-1184,-704,106,-2734,-2478,2025-02-17 10:52:19,0.0
-13704,-1328,-532,-381,-3000,-1761,2025-02-17 10:52:19,0.0
-12680,-1708,320,-611,-2897,-1549,2025-02-17 10:52:19,0.0
-12264,-2224,300,-342,-2446,-2240,2025-02-17 10:52:19,0.0
-12780,-1816,1088,-65,-1230,-3449,2025-02-17 10:52:19,0.0
-14080,-1804,2784,437,-356,-4435,2025-02-17 10:52:19,0.0
-15880,-1180,888,822,759,-3941,2025-02-17 10:52:19,0.0
-15756,-1148,-1400,598,-221,-1893,2025-02-17 10:52:19,0.0
-12948,-496,-1252,-433,-3995,-700,2025-02-17 10:52:19,0.0
-11528,-868,-984,-1095,-7215,-558,2025-02-17 10:52:19,0.0
-11212,-1076,-312,-1746,-6639,-503,2025-02-17 10:52:19,0.0
-10528,-1376,-548,-2053,-3784,-176,2025-02-17 10:52:19,0.0
-7888,-2200,-1860,-2493,-854,-542,2025-02-17 10:52:19,5
-7320,-2248,-332,-1598,2309,-2257,2025-02-17 10:52:19,5
-8064,-2020,-540,-15,6361,-3346,2025-02-17 10:52:19,5
-8448,-2692,-1740,-1102,12348,-3223,2025-02-17 10:52:19,5
-7988,-2872,-1032,-1850,20775,-2906,2025-02-17 10:52:19,5
-7948,-2392,-1596,-3086,31141,-3929,2025-02-17 10:52:19,5
-10424,-2456,-1684,-3778,32767,-3891,2025-02-17 10:52:19,5
-14960,-3640,-1376,-2737,32767,646,2025-02-17 10:52:19,5
-11428,-3820,-2232,-3517,32767,4399,2025-02-17 10:52:19,5
-9020,-2908,-3564,-1483,32767,3490,2025-02-17 10:52:19,5
-11236,-1768,-8268,-4181,32767,3453,2025-02-17 10:52:19,5
-2488,-468,-7288,-7222,32767,3741,2025-02-17 10:52:19,5
68,360,-6412,-5052,32767,278,2025-02-17 10:52:19,5
832,632,-8412,-2769,32767,-1031,2025-02-17 10:52:19,5
728,528,-9440,-2878,23815,-163,2025-02-17 10:52:19,5
1176,92,-8208,-3512,6992,1164,2025-02-17 10:52:19,5
1060,-444,-6256,-3708,-5719,2165,2025-02-17 10:52:19,5
1012,-996,-3352,-3459,-14843,2816,2025-02-17 10:52:19,5
1168,-1268,-440,-1744,-20323,2650,2025-02-17 10:52:19,5
2240,-1672,1900,1320,-22180,1254,2025-02-17 10:52:19,5
2420,-1808,2276,5068,-21201,-1688,2025-02-17 10:52:19,5
4664,-2080,3228,9083,-18569,-6396,2025-02-17 10:52:19,5
3832,-1684,3256,12381,-16861,-11234,2025-02-17 10:52:19,5
2940,-1204,1920,13077,-16640,-13147,2025-02-17 10:52:19,5
2528,-1132,1684,12646,-17379,-13527,2025-02-17 10:52:19,5
1912,-1136,2068,12426,-17549,-13617,2025-02-17 10:52:19,5
1416,-1268,1940,12362,-18472,-12761,2025-02-17 10:52:19,5
1752,-960,1680,12169,-18932,-12239,2025-02-17 10:52:19,5
1880,-964,1880,11975,-19116,-12081,2025-02-17 10:52:19,5
2072,-968,1692,11658,-18751,-12206,2025-02-17 10:52:19,5
1916,-900,1492,11276,-17891,-12485,2025-02-17 10:52:19,5
1756,-1000,1536,10871,-16929,-12615,2025-02-17 10:52:19,5
1704,-932,1484,10453,-16298,-12408,2025-02-17 10:52:19,5
1512,-924,1272,9979,-15582,-12001,2025-02-17 10:52:19,5
1408,-824,1156,9594,-14561,-11644,2025-02-17 10:52:19,5
1484,-892,784,9044,-13178,-11056,2025-02-17 10:52:19,5
1788,-824,1084,8311,-12704,-10921,2025-02-17 10:52:19,5
2480,-940,1448,7809,-12460,-11244,2025-02-17 10:52:19,5
764,-824,-204,6717,-10966,-11069,2025-02-17 10:52:19,5
-32768,-8760,-32768,-12550,12149,11396,2025-02-17 10:52:19,5
-32768,-32768,-32768,-32768,32767,32767,2025-02-17 10:52:20,5
32767,-32768,-30184,-32768,30868,13493,2025-02-17 10:52:20,5
16196,-4156,-3568,5061,-17556,-15943,2025-02-17 10:52:20,5
11360,-5424,904,30551,1003,-19554,2025-02-17 10:52:20,5
7292,-5364,-6636,32767,1813,-22380,2025-02-17 10:52:20,5
3524,-3908,-9332,32006,-3221,-15257,2025-02-17 10:52:20,5
4608,-5300,-12828,22553,-13150,-9984,2025-02-17 10:52:20,5
2460,-6324,-13484,9151,-17418,-9315,2025-02-17 10:52:20,5
728,-7044,-9524,-659,-15696,-7430,2025-02-17 10:52:20,5
-828,-8700,-9176,-7611,-12492,-4217,2025-02-17 10:52:20,5
-2676,-11680,-7060,-12304,-11234,1092,2025-02-17 10:52:20,5
-3004,-13668,-11088,-11179,-15203,6486,2025-02-17 10:52:20,5
-4164,-9612,-14140,-7830,-9143,6954,2025-02-17 10:52:20,5
-7152,-7564,-12908,-3120,-495,5678,2025-02-17 10:52:20,5
-3136,-7520,-12076,-17,3004,4168,2025-02-17 10:52:20,5
-2356,-8188,-13932,980,260,285,2025-02-17 10:52:20,5
-2136,-9148,-12416,1397,1249,-968,2025-02-17 10:52:20,5
-1640,-8408,-11864,689,324,-717,2025-02-17 10:52:20,5
-1968,-8264,-11284,31,-442,99,2025-02-17 10:52:20,5
-3028,-8692,-11220,-405,-764,480,2025-02-17 10:52:20,5
-3868,-8796,-11452,-591,-80,93,2025-02-17 10:52:20,5
-3400,-8512,-11548,-465,998,-584,2025-02-17 10:52:20,5
-2104,-8472,-12284,-286,959,-470,2025-02-17 10:52:20,5
-2236,-8452,-12336,-210,171,-95,2025-02-17 10:52:20,5
-2276,-8452,-12240,-166,-45,-64,2025-02-17 10:52:20,5
-2548,-8524,-11924,-131,-149,-20,2025-02-17 10:52:20,5
-2844,-8520,-11536,-97,-127,-75,2025-02-17 10:52:20,5
-3060,-8540,-11824,-126,78,-123,2025-02-17 10:52:20,5
-2948,-8568,-11820,-208,385,-227,2025-02-17 10:52:20,5
-2808,-8512,-11632,-344,417,-210,2025-02-17 10:52:20,5
-3016,-8324,-11728,-308,373,-143,2025-02-17 10:52:20,5
-2404,-8612,-12208,-254,213,-174,2025-02-17 10:52:20,5
-3372,-8000,-11676,-26,443,-214,2025-02-17 10:52:20,5
-3284,-9064,-12608,-175,202,-87,2025-02-17 10:52:20,5
-1508,-8292,-11568,-345,116,-335,2025-02-17 10:52:20,5
-2904,-8580,-11916,-195,700,-201,2025-02-17 10:52:20,5
-2408,-8544,-12016,-392,102,-165,2025-02-17 10:52:20,5
-2716,-8432,-11552,-109,-53,-122,2025-02-17 10:52:20,5
-2896,-8460,-11668,-30,44,-154,2025-02-17 10:52:20,5
-2796,-8580,-11772,-180,198,-223,2025-02-17 10:52:20,5
-2828,-8400,-11840,-303,226,-162,2025-02-17 10:52:20,5
-2648,-8328,-11780,-263,276,-156,2025-02-17 10:52:20,5
-2576,-8592,-12084,-139,253,-183,2025-02-17 10:52:20,5
-2592,-8608,-12020,-185,155,-197,2025-02-17 10:52:20,5
-2592,-8448,-11948,-191,114,-144,2025-02-17 10:52:20,5
-2724,-8588,-11836,-193,165,-122,2025-02-17 10:52:20,5
-2812,-8456,-11784,-229,205,-185,2025-02-17 10:52:20,5
-2776,-8468,-11964,-199,233,-200,2025-02-17 10:52:20,5
-2644,-8560,-12008,-218,223,-170,2025-02-17 10:52:20,5
-2652,-8488,-11900,-197,210,-171,2025-02-17 10:52:20,5
-2712,-8568,-11912,-172,166,-154,2025-02-17 10:52:20,5
-2712,-8388,-11868,-158,178,-175,2025-02-17 10:52:20,5
-2760,-8532,-11884,-188,182,-175,2025-02-17 10:52:20,5
-2772,-8564,-11804,-219,225,-178,2025-02-17 10:52:20,5
-2700,-8472,-11900,-180,217,-176,2025-02-17 10:52:20,5
-2676,-8388,-11952,-177,193,-163,2025-02-17 10:52:20,5
-2752,-8468,-12012,-193,166,-171,2025-02-17 10:52:20,5
-2744,-8472,-11932,-148,162,-177,2025-02-17 10:52:20,5
-2692,-8524,-11852,-196,206,-169,2025-02-17 10:52:20,5
-2728,-8464,-11796,-184,202,-165,2025-02-17 10:52:20,5
-2748,-8420,-12008,-196,192,-157,2025-02-17 10:52:21,5
-2596,-8512,-11780,-165,177,-158,2025-02-17 10:52:21,5
-2732,-8436,-11832,-175,175,-170,2025-02-17 10:52:21,5
-2656,-8548,-12008,-179,182,-139,2025-02-17 10:52:21,5
-2696,-8392,-11852,-191,202,-186,2025-02-17 10:52:21,5
-2752,-8444,-11848,-179,164,-177,2025-02-17 10:52:21,5
-2644,-8476,-12032,-182,206,-169,2025-02-17 10:52:21,5
-2700,-8460,-11812,-192,198,-159,2025-02-17 10:52:21,5
-2660,-8556,-12012,-166,201,-165,2025-02-17 10:52:21,5
-2712,-8452,-11888,-172,200,-160,2025-02-17 10:52:21,5
-2740,-8488,-11884,-186,196,-172,2025-02-17 10:52:21,5
-2788,-8412,-11964,-186,181,-156,2025-02-17 10:52:21,5
-2716,-8508,-11992,-179,188,-153,2025-02-17 10:52:21,5
-2772,-8432,-11836,-187,180,-172,2025-02-17 10:52:21,5
-2688,-8456,-11964,-206,208,-176,2025-02-17 10:52:21,5
-2584,-8560,-11792,-172,180,-187,2025-02-17 10:52:21,5
-2684,-8536,-11892,-194,181,-177,2025-02-17 10:52:21,5
-2684,-8476,-11876,-196,191,-165,2025-02-17 10:52:21,5
-2708,-8380,-11844,-174,176,-199,2025-02-17 10:52:21,5
-2704,-8384,-11852,-181,216,-198,2025-02-17 10:52:21,5
-2716,-8548,-11832,-179,174,-173,2025-02-17 10:52:21,5
-2676,-8536,-11892,-186,173,-163,2025-02-17 10:52:21,5
-2660,-8480,-11896,-153,182,-157,2025-02-17 10:52:21,5
-2744,-8544,-11936,-197,190,-190,2025-02-17 10:52:21,5
-2672,-8536,-11948,-180,181,-178,2025-02-17 10:52:21,5
-2768,-8452,-11956,-172,180,-166,2025-02-17 10:52:21,5
-2712,-8424,-11836,-197,162,-181,2025-02-17 10:52:21,5
-2652,-8496,-11876,-190,177,-144,2025-02-17 10:52:21,5
-2736,-8520,-11912,-172,186,-185,2025-02-17 10:52:21,5
-2648,-8452,-11968,-173,181,-177,2025-02-17 10:52:21,5
-2684,-8448,-11892,-158,191,-172,2025-02-17 10:52:21,5
-2632,-8492,-11932,-187,177,-179,2025-02-17 10:52:21,5
-2784,-8432,-12008,-168,156,-158,2025-02-17 10:52:21,5
-2588,-8452,-12048,-211,184,-167,2025-02-17 10:52:21,5
-2700,-8400,-11884,-184,157,-160,2025-02-17 10:52:21,5
-2732,-8504,-11856,-173,189,-185,2025-02-17 10:52:21,5
-2720,-8420,-11932,-196,179,-181,2025-02-17 10:52:21,5
-2780,-8472,-11928,-178,188,-182,2025-02-17 10:52:21,5
-2608,-8412,-11976,-178,177,-176,2025-02-17 10:52:21,5
-2692,-8432,-12124,-171,176,-156,2025-02-17 10:52:21,5
-2688,-8396,-12040,-204,174,-177,2025-02-17 10:52:21,5
-2624,-8460,-11976,-186,186,-157,2025-02-17 10:52:21,5
-2728,-8564,-11908,-176,199,-171,2025-02-17 10:52:21,5
-2668,-8484,-11892,-175,182,-175,2025-02-17 10:52:21,5
-2624,-8400,-11968,-161,172,-167,2025-02-17 10:52:21,5
-2752,-8492,-12148,-182,191,-168,2025-02-17 10:52:21,5
-2684,-8432,-11884,-185,195,-159,2025-02-17 10:52:21,5
-2652,-8552,-12020,-169,184,-171,2025-02-17 10:52:21,5
-2724,-8416,-11984,-190,184,-185,2025-02-17 10:52:21,5
-2736,-8468,-12020,-189,181,-170,2025-02-17 10:52:21,5
-2704,-8488,-11852,-182,203,-173,2025-02-17 10:52:21,5
-2708,-8552,-11864,-149,186,-177,2025-02-17 10:52:21,0.0
-2764,-8508,-12016,-175,172,-179,2025-02-17 10:52:21,0.0
-2704,-8416,-11836,-172,191,-167,2025-02-17 10:52:21,
-2696,-8548,-11872,-171,188,-181,2025-02-17 10:52:21,0.0
-2672,-8488,-11796,-153,163,-185,2025-02-17 10:52:21,0.0
-2664,-8520,-12004,-168,191,-191,2025-02-17 10:52:21,0.0
-2664,-8440,-11820,-179,184,-161,2025-02-17 10:52:21,0.0
-2676,-8444,-11868,-159,188,-163,2025-02-17 10:52:21,0.0
-2676,-8564,-11884,-203,202,-174,2025-02-17 10:52:21,0.0
-2620,-8416,-11944,-162,203,-175,2025-02-17 10:52:21,0.0
-2628,-8480,-11860,-175,173,-180,2025-02-17 10:52:22,0.0
-2752,-8468,-11900,-178,186,-179,2025-02-17 10:52:22,0.0
-2716,-8508,-11920,-170,169,-175,2025-02-17 10:52:22,0.0
-2712,-8420,-11948,-199,186,-189,2025-02-17 10:52:22,0.0
-2648,-8464,-11920,-162,151,-185,2025-02-17 10:52:22,0.0
-2692,-8408,-11920,-161,199,-177,2025-02-17 10:52:22,0.0
-2768,-8420,-11868,-144,180,-192,2025-02-17 10:52:22,0.0
-2692,-8424,-11812,-150,186,-178,2025-02-17 10:52:22,0.0
-2684,-8396,-11956,-195,210,-165,2025-02-17 10:52:22,0.0
-2756,-8452,-11880,-163,164,-147,2025-02-17 10:52:22,0.0
-2612,-8484,-11956,-173,190,-172,2025-02-17 10:52:22,0.0
-2604,-8440,-11864,-187,183,-177,2025-02-17 10:52:22,0.0
-2668,-8372,-12052,-181,172,-152,2025-02-17 10:52:22,0.0
-2604,-8356,-11876,-198,188,-192,2025-02-17 10:52:22,0.0
-2636,-8384,-11828,-205,188,-169,2025-02-17 10:52:22,0.0
-2668,-8372,-11848,-176,179,-181,2025-02-17 10:52:22,0.0
-2768,-8504,-11884,-163,175,-168,2025-02-17 10:52:22,0.0
-2736,-8452,-11992,-174,183,-152,2025-02-17 10:52:22,0.0
-2688,-8468,-11928,-193,208,-166,2025-02-17 10:52:22,0.0
-2752,-8428,-11968,-182,192,-166,2025-02-17 10:52:22,0.0
-2656,-8456,-11972,-196,177,-184,2025-02-17 10:52:22,0.0
-2632,-8400,-11964,-180,197,-176,2025-02-17 10:52:22,0.0
-2568,-8384,-11880,-167,166,-153,2025-02-17 10:52:22,0.0
-2620,-8412,-11924,-174,204,-163,2025-02-17 10:52:22,0.0
-2700,-8364,-11988,-181,170,-189,2025-02-17 10:52:22,0.0
-2716,-8440,-11932,-166,182,-167,2025-02-17 10:52:22,0.0
-2688,-8472,-12124,-187,171,-163,2025-02-17 10:52:22,0.0
-2752,-8376,-11760,-184,215,-164,2025-02-17 10:52:22,0.0
-2760,-8412,-12016,-177,168,-177,2025-02-17 10:52:22,0.0
-2644,-8452,-11880,-161,199,-173,2025-02-17 10:52:22,0.0
-2664,-8492,-11800,-172,166,-156,2025-02-17 10:52:22,0.0
-2760,-8352,-11816,-167,166,-179,2025-02-17 10:52:22,0.0
-2680,-8452,-12000,-184,151,-188,2025-02-17 10:52:22,0.0
-2712,-8464,-11912,-180,178,-172,2025-02-17 10:52:22,0.0
-2640,-8388,-11936,-141,165,-155,2025-02-17 10:52:22,0.0
-2668,-8452,-11988,-192,156,-192,2025-02-17 10:52:22,0.0
-2748,-8356,-11832,-195,179,-167,2025-02-17 10:52:22,0.0
-2700,-8456,-11804,-187,181,-165,2025-02-17 10:52:22,0.0
-2708,-8484,-11832,-162,181,-172,2025-02-17 10:52:22,0.0
-2700,-8444,-11960,-173,183,-190,2025-02-17 10:52:22,0.0
-2724,-8520,-11888,-178,206,-174,2025-02-17 10:52:22,0.0
-2604,-8356,-11940,-203,191,-175,2025-02-17 10:52:22,0.0
-2644,-8376,-11988,-203,194,-179,2025-02-17 10:52:22,0.0
-2716,-8472,-11944,-181,163,-164,2025-02-17 10:52:22,0.0
-2676,-8404,-11916,-159,206,-184,2025-02-17 10:52:22,0.0
-2652,-8476,-11888,-165,159,-177,2025-02-17 10:52:22,0.0
-2644,-8468,-11980,-168,191,-185,2025-02-17 10:52:22,0.0
-2792,-8496,-11944,-163,198,-200,2025-02-17 10:52:22,0.0
-2608,-8456,-11856,-170,191,-184,2025-02-17 10:52:22,0.0
-2664,-8416,-11976,-197,207,-171,2025-02-17 10:52:22,0.0
-2676,-8436,-12052,-151,182,-173,2025-02-17 10:52:22,0.0
-2644,-8420,-12000,-174,185,-158,2025-02-17 10:52:22,0.0
-2728,-8468,-11888,-180,170,-173,2025-02-17 10:52:22,0.0
-2732,-8408,-12016,-184,188,-178,2025-02-17 10:52:22,0.0
-2764,-8348,-11896,-177,178,-166,2025-02-17 10:52:22,0.0
-2512,-8460,-12104,-144,189,-183,2025-02-17 10:52:23,0.0
-2700,-8480,-11892,-182,172,-168,2025-02-17 10:52:23,0.0
-2684,-8480,-11976,-174,170,-164,2025-02-17 10:52:23,0.0
-2628,-8520,-11972,-165,178,-182,2025-02-17 10:52:23,0.0
-2736,-8548,-11984,-170,192,-190,2025-02-17 10:52:23,0.0
-2708,-8436,-12024,-170,195,-176,2025-02-17 10:52:23,0.0
-2708,-8380,-12080,-172,194,-163,2025-02-17 10:52:23,0.0
-2696,-8396,-11864,-171,194,-183,2025-02-17 10:52:23,0.0
-2612,-8436,-11816,-178,198,-185,2025-02-17 10:52:23,0.0
-2664,-8436,-11968,-170,198,-174,2025-02-17 10:52:23,0.0
-2624,-8420,-11836,-161,184,-167,2025-02-17 10:52:23,0.0
-2680,-8432,-11856,-182,186,-178,2025-02-17 10:52:23,0.0
-2776,-8416,-12120,-180,183,-187,2025-02-17 10:52:23,0.0
-2704,-8380,-11932,-169,165,-184,2025-02-17 10:52:23,0.0
-2628,-8468,-11868,-179,206,-189,2025-02-17 10:52:23,0.0
-2716,-8400,-11780,-184,191,-164,2025-02-17 10:52:23,0.0
-2732,-8484,-11864,-178,183,-162,2025-02-17 10:52:23,0.0
-2720,-8452,-11980,-178,210,-156,2025-02-17 10:52:23,0.0
-2588,-8308,-11940,-155,189,-173,2025-02-17 10:52:23,0.0
-2676,-8504,-11984,-183,175,-179,2025-02-17 10:52:23,0.0
-2796,-8396,-11856,-181,196,-179,2025-02-17 10:52:23,0.0
-2684,-8396,-11928,-171,190,-174,2025-02-17 10:52:23,0.0
-2700,-8420,-11992,-163,185,-175,2025-02-17 10:52:23,0.0
-2600,-8440,-11944,-166,198,-164,2025-02-17 10:52:23,0.0
-2556,-8536,-11940,-191,185,-167,2025-02-17 10:52:23,0.0
-2616,-8356,-11904,-157,162,-178,2025-02-17 10:52:23,0.0
-2604,-8380,-11828,-130,284,-178,2025-02-17 10:52:23,0.0
-2572,-8528,-11868,-257,142,-139,2025-02-17 10:52:23,0.0
-2504,-8412,-11924,-232,215,-147,2025-02-17 10:52:23,0.0
-2920,-8320,-11956,-104,277,-174,2025-02-17 10:52:23,0.0
-2732,-8768,-12012,-177,535,-261,2025-02-17 10:52:23,0.0
-2604,-8512,-12096,-361,471,-196,2025-02-17 10:52:23,0.0
-2400,-8040,-11784,-264,454,-145,2025-02-17 10:52:23,0.0
-2640,-8500,-12356,-178,255,-125,2025-02-17 10:52:23,0.0
-2296,-8304,-11780,-53,61,-275,2025-02-17 10:52:23,0.0
-2668,-8292,-12092,39,-121,-165,2025-02-17 10:52:23,0.0
-2552,-8732,-11840,-270,115,-231,2025-02-17 10:52:23,0.0
-2308,-8432,-12044,-357,147,-242,2025-02-17 10:52:23,
-2860,-8224,-12004,-189,125,-97,2025-02-17 10:52:23,0.0
-2652,-8432,-12080,1,-241,-133,2025-02-17 10:52:23,0.0
-2824,-8504,-11864,-144,221,-177,2025-02-17 10:52:23,0.0
-1848,-8364,-11716,-345,93,-215,2025-02-17 10:52:23,0.0
-2764,-8392,-12208,-198,364,-119,2025-02-17 10:52:23,0.0
-2684,-8616,-12008,-312,286,-144,2025-02-17 10:52:23,0.0
-2624,-8456,-12084,-375,228,-95,2025-02-17 10:52:23,0.0
-2360,-8304,-11880,-499,40,-57,2025-02-17 10:52:23,0.0
-2560,-8232,-12072,-554,-180,33,2025-02-17 10:52:23,0.0
-3236,-8316,-12688,-700,122,122,2025-02-17 10:52:23,0.0
-2960,-8328,-13252,-2001,-360,839,2025-02-17 10:52:23,0.0
-2204,-7832,-11904,-2139,-1669,997,2025-02-17 10:52:23,0.0
-2960,-7964,-11552,-1967,-2056,1059,2025-02-17 10:52:23,0.0
-3460,-8448,-12248,-2138,-962,1419,2025-02-17 10:52:23,0.0
-2952,-8348,-11708,-2094,-435,1350,2025-02-17 10:52:23,0.0
-2768,-7788,-11816,-1475,-328,1365,2025-02-17 10:52:23,0.0
-3052,-7772,-12204,-1357,55,1306,2025-02-17 10:52:23,0.0
-1932,-7956,-10920,-1084,-310,922,2025-02-17 10:52:23,0.0
-2168,-7632,-10416,547,-374,-529,2025-02-17 10:52:23,0.0
-3008,-7764,-12128,512,137,-332,2025-02-17 10:52:23,0.0
-2528,-7684,-10676,1083,-181,-849,2025-02-17 10:52:23,0.0
-3912,-9212,-14992,-498,531,73,2025-02-17 10:52:23,0.0
-2664,-8464,-12272,-513,-550,-234,2025-02-17 10:52:23,0.0
-3276,-7244,-11936,-237,-296,-111,2025-02-17 10:52:24,0.0
-2544,-8000,-12156,-201,-999,63,2025-02-17 10:52:24,0.0
-3328,-8392,-12288,-532,-1275,159,2025-02-17 10:52:24,0.0
-3044,-8040,-11592,-714,-737,422,2025-02-17 10:52:24,0.0
-3720,-7748,-12092,-357,81,406,2025-02-17 10:52:24,0.0
-3024,-7972,-12564,-532,-283,255,2025-02-17 10:52:24,0.0
-3520,-8208,-12556,-839,-483,451,2025-02-17 10:52:24,0.0
-3644,-8068,-12592,-1214,-711,880,2025-02-17 10:52:24,0.0
-3672,-7748,-12644,-1373,-1093,1532,2025-02-17 10:52:24,0.0
-4996,-7928,-13160,-2558,-1130,5031,2025-02-17 10:52:24,0.0
-5708,-7824,-13272,-2488,-228,6943,2025-02-17 10:52:24,0.0
-3680,-7268,-9696,-843,18,7145,2025-02-17 10:52:24,0.0
-4012,-8184,-11404,554,1996,7352,2025-02-17 10:52:24,0.0
-3328,-8852,-12840,469,4522,7636,2025-02-17 10:52:24,0.0
-2536,-7992,-13184,954,5621,7214,2025-02-17 10:52:24,0.0
-3312,-7384,-16276,378,6897,6964,2025-02-17 10:52:24,0.0
-5184,-7132,-20084,-3147,11038,6999,2025-02-17 10:52:24,0.0
-6388,-7540,-21728,-7246,16091,8147,2025-02-17 10:52:24,0.0
-4444,-8620,-18872,-6749,18826,8677,2025-02-17 10:52:24,0.0
-1876,-9424,-17544,-185,17348,7979,2025-02-17 10:52:24,0.0
-1672,-10536,-21356,6191,12392,7822,2025-02-17 10:52:24,0.0
-2128,-11224,-27104,4578,6773,8959,2025-02-17 10:52:24,0.0
-1380,-10744,-27372,-1632,2429,8897,2025-02-17 10:52:24,0.0
-272,-9356,-21020,-5787,147,6584,2025-02-17 10:52:24,0.0
-760,-8004,-17288,-5691,232,3526,2025-02-17 10:52:24,0.0
-2464,-6764,-15244,-3732,2055,1626,2025-02-17 10:52:24,0.0
-3940,-5820,-14744,-1815,4823,1378,2025-02-17 10:52:24,0.0
-5024,-5212,-15592,-681,7423,2688,2025-02-17 10:52:24,0.0
-4828,-5092,-16784,-387,8748,4626,2025-02-17 10:52:24,0.0
-3256,-5324,-17884,-466,7281,6653,2025-02-17 10:52:24,0.0
-1652,-5732,-19184,-1260,2422,7678,2025-02-17 10:52:24,0.0
-604,-6292,-20072,-2448,-4203,8227,2025-02-17 10:52:24,0.0
336,-6408,-20304,-3604,-11342,7852,2025-02-17 10:52:24,0.0
1172,-6444,-20196,-3086,-17074,5871,2025-02-17 10:52:24,0.0
504,-6396,-21276,-2229,-21272,2955,2025-02-17 10:52:24,0.0
-972,-6388,-24960,-3835,-23030,419,2025-02-17 10:52:24,0.0
-3664,-6080,-27732,-9506,-21596,-239,2025-02-17 10:52:24,0.0
-5836,-5992,-23968,-13553,-15634,626,2025-02-17 10:52:24,0.0
-7068,-4992,-19740,-12798,-7488,1856,2025-02-17 10:52:24,0.0
-5040,-3356,-16308,-9359,2472,3662,2025-02-17 10:52:24,0.0
-3356,-2244,-14040,-7162,6695,4565,2025-02-17 10:52:24,0.0
-2516,-1268,-13336,-6839,9217,5867,2025-02-17 10:52:24,0.0
-2304,-592,-13628,-9206,10713,7368,2025-02-17 10:52:24,0.0
-788,-540,-11948,-11463,12567,7323,2025-02-17 10:52:24,0.0
-212,-288,-10064,-10558,15711,4831,2025-02-17 10:52:24,0.0
-64,748,-8656,-5917,20151,-89,2025-02-17 10:52:24,0.0
-1952,1848,-8496,-1876,22717,-2683,2025-02-17 10:52:24,0.0
-2964,2840,-10040,-761,24814,-3164,2025-02-17 10:52:24,0.0
-3244,2660,-8960,-1189,26036,-3133,2025-02-17 10:52:24,0.0
-2972,1884,-6984,-110,25730,-2433,2025-02-17 10:52:24,0.0
-2276,1020,-5128,2017,23239,-923,2025-02-17 10:52:24,0.0
-424,-428,-4520,4750,17413,883,2025-02-17 10:52:24,0.0
1904,-1308,-5292,5427,10987,1061,2025-02-17 10:52:24,0.0
3356,-2036,-5284,4868,3943,-26,2025-02-17 10:52:24,0.0
3336,-3044,-4016,4967,-3721,-946,2025-02-17 10:52:24,0.0
2552,-3660,-2416,6307,-11555,-1210,2025-02-17 10:52:24,0.0
1676,-3804,-1780,8474,-18180,-1218,2025-02-17 10:52:24,0.0
488,-2924,-2724,10006,-22908,-1670,2025-02-17 10:52:24,0.0
-2040,-2132,-5320,10357,-24736,-2050,2025-02-17 10:52:24,0.0
-4292,-1904,-7164,9348,-23675,-1025,2025-02-17 10:52:24,0.0
-5212,-2872,-7132,9499,-21602,221,2025-02-17 10:52:24,0.0
-4576,-4004,-7676,10926,-19276,497,2025-02-17 10:52:24,0.0
4380,-6712,-10896,9661,-20725,-4040,2025-02-17 10:52:24,0.0
-796,-6796,-16168,5874,-26317,-8937,2025-02-17 10:52:24,0.0
-5256,-6756,-18372,261,-26924,-8471,2025-02-17 10:52:25,0.0
-7168,-6448,-18156,-4196,-24452,-6810,2025-02-17 10:52:25,0.0
-7880,-5292,-14716,-6117,-18083,-4962,2025-02-17 10:52:25,0.0
-6980,-4160,-12088,-6138,-11395,-4592,2025-02-17 10:52:25,0.0
-6360,-3216,-10408,-5846,-4557,-5008,2025-02-17 10:52:25,0.0
-6268,-2796,-9560,-5458,910,-5131,2025-02-17 10:52:25,0.0
-5556,-2592,-9476,-4858,4751,-5245,2025-02-17 10:52:25,0.0
-4856,-2472,-9596,-4269,6638,-5713,2025-02-17 10:52:25,0.0
-5264,-2188,-9952,-3539,7522,-6056,2025-02-17 10:52:25,0.0
-8096,-2144,-10680,-3043,8301,-4329,2025-02-17 10:52:25,0.0
-10824,-2776,-11488,-3131,9867,1012,2025-02-17 10:52:25,0.0
-9848,-3092,-12064,-3626,11287,5299,2025-02-17 10:52:25,0.0
-6780,-2756,-12028,-3883,11868,6990,2025-02-17 10:52:25,
-4768,-2296,-11892,-3618,11011,6039,2025-02-17 10:52:25,0.0
-5252,-2428,-11696,-2814,9190,4952,2025-02-17 10:52:25,0.0
-4992,-2868,-12544,-2278,6315,5034,2025-02-17 10:52:25,0.0
-4504,-3728,-12592,-2688,1281,5253,2025-02-17 10:52:25,0.0
-4772,-4364,-14048,-3939,-4211,6475,2025-02-17 10:52:25,0.0
-4268,-4420,-13432,-4845,-9835,7091,2025-02-17 10:52:25,0.0
-4420,-4564,-12368,-4670,-16763,6387,2025-02-17 10:52:25,0.0
-6956,-4552,-11068,-3954,-24843,5327,2025-02-17 10:52:25,0.0
-9496,-3664,-10944,-3842,-30293,5682,2025-02-17 10:52:25,0.0
-9664,-2580,-9196,-2873,-31942,7202,2025-02-17 10:52:25,0.0
-4284,-2988,132,-1496,-32768,6808,2025-02-17 10:52:25,0.0
-9504,-1472,-5620,471,-32768,5656,2025-02-17 10:52:25,0.0
-9244,-1344,-8276,4063,-32768,4369,2025-02-17 10:52:25,0.0
-8168,-1476,-9988,3696,-32768,3030,2025-02-17 10:52:25,0.0
-9248,-1280,-9036,455,-32768,2091,2025-02-17 10:52:25,0.0
-11728,-804,-4988,-1733,-32768,1590,2025-02-17 10:52:25,0.0
-12416,-704,-2060,-1996,-32768,904,2025-02-17 10:52:25,0.0
-11784,-952,496,-752,-32768,-155,2025-02-17 10:52:25,0.0
-24852,2112,18844,4901,-32768,61,2025-02-17 10:52:25,0.0
-8188,-2692,2588,4410,-5901,2157,2025-02-17 10:52:25,0.0
-5560,-932,-2424,-614,849,112,2025-02-17 10:52:25,0.0
-9468,-1460,-168,-2253,9874,-1127,2025-02-17 10:52:25,0.0
-14336,-316,500,-2453,13798,391,2025-02-17 10:52:25,0.0
-13672,-56,1412,-2823,13091,1455,2025-02-17 10:52:25,0.0
-14452,-1264,1412,-2160,12368,1490,2025-02-17 10:52:25,0.0
-12980,-2312,1136,-1303,10983,-748,2025-02-17 10:52:25,0.0
-15180,-1644,628,-731,7154,-2592,2025-02-17 10:52:25,0.0
-17260,-1344,440,-806,3600,-1906,2025-02-17 10:52:25,0.0
-17036,-1808,1232,-428,1129,-309,2025-02-17 10:52:25,0.0
-15080,-1684,1100,698,-1289,787,2025-02-17 10:52:25,0.0
-14172,-1032,-408,1024,-2112,1243,2025-02-17 10:52:25,0.0
-12264,-2076,1488,1943,-52,336,2025-02-17 10:52:25,0.0
-13956,-772,-308,3211,1073,121,2025-02-17 10:52:25,0.0
-14396,-492,-1264,2873,1202,1118,2025-02-17 10:52:25,0.0
-14220,-772,-624,2393,383,1445,2025-02-17 10:52:25,0.0
-14216,-900,-604,2697,-491,1156,2025-02-17 10:52:25,0.0
-14280,-660,-648,2564,-1547,928,2025-02-17 10:52:25,0.0
-14156,-560,-1544,1850,-1928,638,2025-02-17 10:52:25,0.0
-13332,-600,-1524,976,-2103,231,2025-02-17 10:52:25,0.0
-13444,-456,-952,515,-1437,334,2025-02-17 10:52:25,0.0
-13764,-380,-1128,271,-285,519,2025-02-17 10:52:25,0.0
-14196,-544,-1768,-274,548,1118,2025-02-17 10:52:25,0.0
-13704,-608,-1640,-811,650,1546,2025-02-17 10:52:25,0.0
-13600,-588,-2056,-1095,257,1368,2025-02-17 10:52:25,0.0
-13600,-552,-2136,-1453,113,1303,2025-02-17 10:52:25,0.0
-12728,24,-3076,-2355,2472,612,2025-02-17 10:52:25,0.0
-13084,-8,-2460,-2934,3400,479,2025-02-17 10:52:25,0.0
-12272,420,-3084,-3681,3868,-951,2025-02-17 10:52:26,0.0
-12852,108,-2848,-3161,3091,-1118,2025-02-17 10:52:26,0.0
-12916,-40,-3584,-2850,2394,-546,2025-02-17 10:52:26,0.0
-11372,180,-3536,-3212,1705,-731,2025-02-17 10:52:26,0.0
-10128,-784,-2548,-2553,674,-1072,2025-02-17 10:52:26,0.0
-9140,-1372,-1884,-1830,184,-1466,2025-02-17 10:52:26,0.0
-8380,-1108,-2448,-1684,1764,-1758,2025-02-17 10:52:26,0.0
-8004,-1368,-2272,-1637,5278,-1547,2025-02-17 10:52:26,0.0
-7248,-1740,-2716,-1927,8083,-1438,2025-02-17 10:52:26,0.0
-6908,-2496,-2348,-1949,10296,-1523,2025-02-17 10:52:26,0.0
-6964,-2060,-1420,-1618,12432,-1423,2025-02-17 10:52:26,0.0
-9136,-1336,716,-793,14807,-974,2025-02-17 10:52:26,0.0
-9788,-1624,2928,102,15090,-1361,2025-02-17 10:52:26,0.0
-13680,-1888,3728,1072,12951,-2511,2025-02-17 10:52:26,0.0
-16540,-1424,960,1820,8933,-1688,2025-02-17 10:52:26,0.0
-17504,-1736,-1468,1882,3405,-67,2025-02-17 10:52:26,0.0
-16900,-1920,-2156,2144,-2844,2005,2025-02-17 10:52:26,0.0
-14988,-1504,-1392,2776,-6055,3200,2025-02-17 10:52:26,0.0
-11492,-704,-272,3053,-7574,3158,2025-02-17 10:52:26,0.0
-10484,764,-348,2548,-7393,2093,2025-02-17 10:52:26,0.0
-9956,1664,-1388,1469,-6225,1933,2025-02-17 10:52:26,0.0
-10108,1912,-168,742,-5923,1085,2025-02-17 10:52:26,0.0
-11004,1224,-1376,544,-5636,451,2025-02-17 10:52:26,0.0
-12380,-460,-1212,511,-4555,1413,2025-02-17 10:52:26,0.0
-14132,-1020,-512,278,-4869,2275,2025-02-17 10:52:26,0.0
-14196,-980,-484,-358,-6520,2156,2025-02-17 10:52:26,0.0
-15380,1284,76,-619,-8416,-303,2025-02-17 10:52:26,0.0
-15956,2080,-808,-679,-9638,367,2025-02-17 10:52:26,0.0
-15256,972,-1048,-460,-12512,957,2025-02-17 10:52:26,0.0
-13664,16,-2808,-1487,-13062,2409,2025-02-17 10:52:26,0.0
-14108,-468,-1116,-1929,-12736,1464,2025-02-17 10:52:26,0.0
-13084,-992,-496,-2685,-12030,1273,2025-02-17 10:52:26,0.0
-14444,-1240,1276,-2500,-13636,344,2025-02-17 10:52:26,0.0
-16936,1340,328,-2432,-14153,173,2025-02-17 10:52:26,0.0
-12556,1000,1572,-2281,-12663,121,2025-02-17 10:52:26,0.0
-13148,80,3940,-2023,-10376,195,2025-02-17 10:52:26,0.0
-12708,-52,3216,-1975,-8031,895,2025-02-17 10:52:26,0.0
-13440,444,3496,-2259,-6135,324,2025-02-17 10:52:26,0.0
-11404,52,4500,-1710,-5373,-1019,2025-02-17 10:52:26,0.0
-15192,-80,4244,-972,-7118,-54,2025-02-17 10:52:26,0.0
-14780,-204,4800,305,-8312,-215,2025-02-17 10:52:26,0.0
-15032,152,5428,880,-7664,-148,2025-02-17 10:52:26,0.0
-11952,500,5208,1033,-5740,223,2025-02-17 10:52:26,0.0
-10004,492,7056,1371,-3464,-206,2025-02-17 10:52:26,0.0
-15736,900,6492,1329,-2728,825,2025-02-17 10:52:26,0.0
-15648,752,8096,1345,-4144,516,2025-02-17 10:52:26,0.0
-15060,-72,6548,1035,-6334,862,2025-02-17 10:52:26,0.0
-13844,-184,7072,1260,-8777,419,2025-02-17 10:52:26,0.0
-15116,1056,6968,1208,-9975,-537,2025-02-17 10:52:26,0.0
-13416,1108,6736,1197,-9576,-1190,2025-02-17 10:52:26,0.0
-15504,-320,7072,35,-9544,-1283,2025-02-17 10:52:26,0.0
-18276,-200,11776,-622,-9039,-723,2025-02-17 10:52:26,0.0
-20948,224,17376,-601,-8270,-332,2025-02-17 10:52:26,
-18044,-316,17332,-138,-6197,-462,2025-02-17 10:52:26,0.0
-17560,-1260,15928,142,3301,-745,2025-02-17 10:52:26,0.0
-16428,-1076,10420,136,13019,696,2025-02-17 10:52:26,0.0
-15956,2036,2892,685,6745,4,2025-02-17 10:52:26,0.0
-14300,632,1988,1363,-4096,-726,2025-02-17 10:52:26,0.0
-12632,296,5164,1423,-6523,-765,2025-02-17 10:52:26,0.0
-12928,756,7924,840,-2337,-450,2025-02-17 10:52:26,0.0
-12500,2060,8944,784,-2204,-476,2025-02-17 10:52:27,0.0
-12272,2140,6892,405,-4464,-717,2025-02-17 10:52:27,0.0
-12036,2612,7016,-648,-5754,-1220,2025-02-17 10:52:27,0.0
-11060,1832,7608,-1623,-5831,-1444,2025-02-17 10:52:27,0.0
-13728,904,10612,-2086,-5409,-1249,2025-02-17 10:52:27,0.0
-11840,-384,10088,-2161,-4479,-1173,2025-02-17 10:52:27,0.0
-11556,-1416,10204,-2072,-4156,-874,2025-02-17 10:52:27,0.0
-10864,-1684,11160,-1998,-3507,-858,2025-02-17 10:52:27,0.0
-10968,-1168,10468,-1566,-1822,-1342,2025-02-17 10:52:27,0.0
-10976,-748,9896,-1251,-1700,-1827,2025-02-17 10:52:27,0.0
-12848,-844,9424,-568,-1581,-2007,2025-02-17 10:52:27,0.0
-12332,-496,6812,-335,-1858,-1663,2025-02-17 10:52:27,0.0
-14208,-344,9416,-211,-3070,-667,2025-02-17 10:52:27,0.0
-12536,-452,9152,-240,-4569,-83,2025-02-17 10:52:27,0.0
-11088,-328,9756,-163,-4593,-323,2025-02-17 10:52:27,0.0
-11232,-356,9948,-263,-3365,-642,2025-02-17 10:52:27,0.0
-10204,700,10420,216,-2467,-865,2025-02-17 10:52:27,0.0
-11780,-416,7688,-111,-2267,-985,2025-02-17 10:52:27,0.0
-12704,-408,8292,-398,-3058,-1038,2025-02-17 10:52:27,0.0
-12412,-596,8516,-764,-3447,-702,2025-02-17 10:52:27,0.0
-9852,-2352,8800,-1151,-1557,-328,2025-02-17 10:52:27,0.0
-11184,-1264,10024,-1443,-2262,-636,2025-02-17 10:52:27,0.0
-11584,-1056,10160,-1527,-2552,-564,2025-02-17 10:52:27,0.0
-11648,-1396,11148,-1187,-2791,-453,2025-02-17 10:52:27,0.0
-10908,-1636,10620,-564,-2982,-562,2025-02-17 10:52:27,0.0
-10776,-1372,11528,-63,-2975,-650,2025-02-17 10:52:27,0.0
-10424,-1244,12100,456,-2869,-921,2025-02-17 10:52:27,0.0
-9824,-1268,12712,639,-2197,-1356,2025-02-17 10:52:27,0.0
-9868,-904,12884,874,-1684,-1479,2025-02-17 10:52:27,0.0
-10012,-268,12032,548,-594,-1202,2025-02-17 10:52:27,0.0
-10504,-348,11300,539,229,-1082,2025-02-17 10:52:27,0.0
-10696,-372,11128,280,226,-869,2025-02-17 10:52:27,0.0
-10676,-832,11808,238,-156,-920,2025-02-17 10:52:27,0.0
-11024,-720,12088,291,-802,-843,2025-02-17 10:52:27,0.0
-10276,-924,12100,503,-1199,-559,2025-02-17 10:52:27,0.0
-10288,-500,12016,577,-842,-196,2025-02-17 10:52:27,0.0
-9828,-340,11496,465,280,-290,2025-02-17 10:52:27,0.0
-10428,-284,11376,138,1207,-487,2025-02-17 10:52:27,0.0
-11268,-456,10660,-21,1427,-862,2025-02-17 10:52:27,0.0
-11308,-408,10408,-125,1077,-811,2025-02-17 10:52:27,0.0
-11624,-440,10224,36,565,-791,2025-02-17 10:52:27,0.0
-11616,-328,9968,3,231,-566,2025-02-17 10:52:27,0.0
-11956,-132,9060,-222,137,-432,2025-02-17 10:52:27,0.0
-11656,-240,9488,-283,27,-494,2025-02-17 10:52:27,0.0
-11828,-308,9324,-630,-162,-699,2025-02-17 10:52:27,0.0
-12080,-820,9752,-920,-241,-832,2025-02-17 10:52:27,0.0
-12072,-1084,10008,-1043,-142,-760,2025-02-17 10:52:27,0.0
-12064,-1616,10216,-1060,-260,-531,2025-02-17 10:52:27,0.0
-9480,-1784,10584,-953,-149,21,2025-02-17 10:52:27,0.0
-10020,-1776,10592,-450,-479,-147,2025-02-17 10:52:27,0.0
-11032,-1284,10704,-213,-204,-110,2025-02-17 10:52:27,0.0
-11176,-1172,10920,-20,-83,-149,2025-02-17 10:52:27,0.0
-10596,-1040,10500,14,256,11,2025-02-17 10:52:27,0.0
-11148,-1224,11168,25,54,-122,2025-02-17 10:52:27,0.0
-11020,-1180,11068,-102,-183,-183,2025-02-17 10:52:27,0.0
-10680,-1288,11208,-245,-574,-415,2025-02-17 10:52:27,0.0
-10572,-1484,11488,-275,-772,-504,2025-02-17 10:52:27,0.0
-10608,-1240,11468,-206,-339,-472,2025-02-17 10:52:27,0.0
-10720,-1168,11776,-114,379,-280,2025-02-17 10:52:27,0.0
-10924,-1024,11668,-55,704,-201,2025-02-17 10:52:27,0.0
-11312,-748,11528,57,826,-61,2025-02-17 10:52:27,0.0
-11460,-804,11024,7,650,10,2025-02-17 10:52:28,0.0
-11392,-628,10368,-121,672,63,2025-02-17 10:52:28,0.0
-11164,-664,10588,-106,484,-49,2025-02-17 10:52:28,0.0
-11192,-516,10156,-29,264,-78,2025-02-17 10:52:28,0.0
-11232,-628,10132,-79,177,-62,2025-02-17 10:52:28,0.0
-11488,-824,10308,-134,164,-119,2025-02-17 10:52:28,0.0
-11624,-956,10348,-176,-143,-94,2025-02-17 10:52:28,0.0
-11388,-1008,10588,-154,-289,-109,2025-02-17 10:52:28,0.0
-11372,-1092,10680,-84,-431,-104,2025-02-17 10:52:28,0.0
-11204,-1072,10876,-118,-518,-119,2025-02-17 10:52:28,0.0
-10944,-1160,11160,-120,-418,-150,2025-02-17 10:52:28,0.0
-11012,-1092,11200,-172,-168,-189,2025-02-17 10:52:28,0.0
-10848,-1088,11340,-164,-138,-227,2025-02-17 10:52:28,0.0
-10268,-1108,9932,-213,-150,-304,2025-02-17 10:52:28,0.0
-10768,-1000,10856,-191,34,-297,2025-02-17 10:52:28,0.0
-10792,-928,11104,-170,17,-348,2025-02-17 10:52:28,0.0
-10656,-744,11244,-101,34,-504,2025-02-17 10:52:28,0.0
-10424,-1488,10200,-60,-73,-320,2025-02-17 10:52:28,0.0
-10784,-972,10624,-107,108,-148,2025-02-17 10:52:28,0.0
-10820,-1088,10872,-89,70,-201,2025-02-17 10:52:28,0.0
-11068,-1064,10972,-41,137,-202,2025-02-17 10:52:28,0.0
-11212,-1012,10936,-4,148,-229,2025-02-17 10:52:28,0.0
-11264,-1332,11120,150,55,-230,2025-02-17 10:52:28,0.0
-11136,-1144,11024,202,-46,-211,2025-02-17 10:52:28,0.0
-11248,-1072,10892,75,40,-239,2025-02-17 10:52:28,0.0
-11040,-952,10696,3,92,-194,2025-02-17 10:52:28,0.0
-11140,-1004,10900,17,153,-172,2025-02-17 10:52:28,0.0
-11096,-844,11076,5,120,-132,2025-02-17 10:52:28,0.0
-11096,-868,11204,-30,136,-153,2025-02-17 10:52:28,0.0
-11088,-808,11056,24,122,-202,2025-02-17 10:52:28,0.0
-11072,-664,10928,-28,131,-216,2025-02-17 10:52:28,0.0
-11064,-768,11156,-17,146,-177,2025-02-17 10:52:28,
-11040,-820,11176,-30,162,-192,2025-02-17 10:52:28,0.0
-10948,-836,10984,-69,111,-198,2025-02-17 10:52:28,0.0
-11184,-916,11228,-123,108,-189,2025-02-17 10:52:28,0.0
-10924,-948,11108,-201,165,-187,2025-02-17 10:52:28,0.0
-11032,-964,11308,-232,200,-140,2025-02-17 10:52:28,0.0
-11076,-844,11004,-227,261,-151,2025-02-17 10:52:28,0.0
-11128,-1028,11124,-262,155,-125,2025-02-17 10:52:28,0.0
-11088,-888,11056,-206,161,-90,2025-02-17 10:52:28,0.0
-11044,-896,11008,-219,132,-122,2025-02-17 10:52:28,0.0
-10984,-876,11196,-175,222,-117,2025-02-17 10:52:28,0.0
-11088,-960,11016,-152,241,-144,2025-02-17 10:52:28,0.0
-11260,-964,11040,-190,170,-131,2025-02-17 10:52:28,0.0
-11124,-1076,10976,-179,72,-143,2025-02-17 10:52:28,0.0
-10992,-932,11040,-118,35,-162,2025-02-17 10:52:28,0.0
-11028,-1160,10988,-66,43,-152,2025-02-17 10:52:28,0.0
-10980,-928,11128,-89,92,-126,2025-02-17 10:52:28,0.0
-11028,-928,11088,-97,66,-181,2025-02-17 10:52:28,0.0
-10976,-968,11256,-71,101,-169,2025-02-17 10:52:28,0.0
-10876,-928,11200,-31,121,-186,2025-02-17 10:52:28,0.0
-10936,-904,11156,11,139,-195,2025-02-17 10:52:28,0.0
-11016,-856,11040,6,37,-210,2025-02-17 10:52:28,0.0
-11000,-768,11252,0,13,-234,2025-02-17 10:52:28,0.0
-11000,-860,11256,-58,96,-247,2025-02-17 10:52:28,0.0
-11112,-764,11160,-99,301,-223,2025-02-17 10:52:28,0.0
-11232,-916,11096,-163,240,-194,2025-02-17 10:52:28,0.0
-11180,-1140,11188,-92,110,-125,2025-02-17 10:52:28,0.0
-11144,-1008,10872,-91,58,-53,2025-02-17 10:52:28,0.0
-11068,-968,11160,-13,104,14,2025-02-17 10:52:28,0.0
-11144,-960,11084,45,159,96,2025-02-17 10:52:29,0.0
-11068,-868,10792,69,30,18,2025-02-17 10:52:29,0.0
-11376,-1312,12252,137,142,91,2025-02-17 10:52:29,0.0
-11444,-732,11284,3,-261,-40,2025-02-17 10:52:29,0.0
-10900,-876,10996,69,-512,-47,2025-02-17 10:52:29,0.0
-11048,-1040,11092,127,-734,2,2025-02-17 10:52:29,0.0
-11412,-824,12692,762,-454,246,2025-02-17 10:52:29,0.0
-10056,-1180,11176,1757,102,662,2025-02-17 10:52:29,0.0
-10344,-852,11040,1963,-246,842,2025-02-17 10:52:29,0.0
-10416,-1340,9400,854,-854,259,2025-02-17 10:52:29,0.0
-10348,-1048,10412,-702,-679,-289,2025-02-17 10:52:29,0.0
-10948,-1168,11460,-161,-328,-231,2025-02-17 10:52:29,0.0
-10396,-1004,11296,384,276,-80,2025-02-17 10:52:29,0.0
-10428,-576,10300,310,470,-314,2025-02-17 10:52:29,0.0
-11608,-216,10248,279,741,-138,2025-02-17 10:52:29,0.0
-11660,-16,10284,211,431,127,2025-02-17 10:52:29,0.0
-11684,-208,10416,-58,-134,244,2025-02-17 10:52:29,0.0
-11664,-324,11172,70,-311,356,2025-02-17 10:52:29,0.0
-11120,-320,11444,276,-6,494,2025-02-17 10:52:29,0.0
-10884,-432,11368,295,225,326,2025-02-17 10:52:29,0.0
-10924,-608,11468,238,375,400,2025-02-17 10:52:29,0.0
-10816,-576,11716,372,365,620,2025-02-17 10:52:29,0.0
-10156,-360,11672,322,447,450,2025-02-17 10:52:29,0.0
-10320,-556,11708,200,1061,297,2025-02-17 10:52:29,0.0
-10284,-768,12180,282,1414,262,2025-02-17 10:52:29,0.0
-10188,-1164,12264,342,1523,556,2025-02-17 10:52:29,0.0
-9764,-668,12500,401,1972,97,2025-02-17 10:52:29,0.0
-9952,-628,12444,89,2199,-172,2025-02-17 10:52:29,0.0
-9972,-484,12256,-113,2500,-296,2025-02-17 10:52:29,0.0
-10700,-396,11924,59,2817,-423,2025-02-17 10:52:29,0.0
-10944,-428,10952,-18,2901,-352,2025-02-17 10:52:29,0.0
-10852,-152,11352,30,2798,-391,2025-02-17 10:52:29,0.0
-11940,-228,10564,41,2564,-33,2025-02-17 10:52:29,0.0
-12436,360,10452,-117,1134,453,2025-02-17 10:52:29,0.0
-12200,684,10408,-144,-548,-40,2025-02-17 10:52:29,0.0
-11628,-532,11680,81,-1132,-453,2025-02-17 10:52:29,0.0
-10180,-468,10600,189,-479,-330,2025-02-17 10:52:29,0.0
-10332,-264,10792,1,176,-116,2025-02-17 10:52:29,0.0
-10476,-140,11256,-473,806,85,2025-02-17 10:52:29,0.0
-10004,-180,10788,-908,1650,217,2025-02-17 10:52:29,0.0
-9804,-460,10780,-1467,2584,-256,2025-02-17 10:52:29,0.0
-11172,-412,10352,-1896,3489,-719,2025-02-17 10:52:29,0.0
-11828,-716,10460,-1920,3567,-832,2025-02-17 10:52:29,0.0
-12136,-532,10600,-1512,3103,-538,2025-02-17 10:52:29,0.0
-11628,-260,10072,-1312,3039,-515,2025-02-17 10:52:29,0.0
-11736,-520,10256,-1243,3329,-719,2025-02-17 10:52:29,0.0
-12120,-280,10264,-707,3591,-1043,2025-02-17 10:52:29,0.0
-12148,-960,9260,-1195,4110,-1442,2025-02-17 10:52:29,0.0
-12364,-252,10392,-371,3551,-1162,2025-02-17 10:52:29,0.0
-12040,-952,8732,-415,2804,-834,2025-02-17 10:52:29,0.0
-11852,-480,9344,-511,3031,-186,2025-02-17 10:52:29,0.0
-11680,-400,9764,-1141,3904,6,2025-02-17 10:52:29,0.0
-12168,-788,8660,-195,2990,399,2025-02-17 10:52:29,0.0
-11948,-456,9232,-372,3048,485,2025-02-17 10:52:29,0.0
-12072,-336,8320,-669,3187,896,2025-02-17 10:52:29,0.0
-14176,328,7188,-1765,2664,1898,2025-02-17 10:52:29,0.0
-14576,-1012,9144,-2714,-188,4113,2025-02-17 10:52:29,0.0
-15144,-2560,13624,-3578,-1347,7685,2025-02-17 10:52:29,0.0
-9932,-1540,15968,-2902,1033,8566,2025-02-17 10:52:29,0.0
-10424,-408,14920,-1670,7124,6936,2025-02-17 10:52:29,0.0
-14508,-832,15200,-829,14236,5436,2025-02-17 10:52:29,0.0
-18708,-140,14272,-1043,19692,3340,2025-02-17 10:52:29,0.0
-15844,12,11700,-533,17229,1402,2025-02-17 10:52:30,0.0
-15804,52,10148,106,12987,657,2025-02-17 10:52:30,0.0
-15644,304,11200,-52,10320,846,2025-02-17 10:52:30,0.0
-15076,-296,11116,-234,8022,506,2025-02-17 10:52:30,0.0
-16496,104,10368,-93,6998,184,2025-02-17 10:52:30,0.0
-17208,680,9724,177,4997,-183,2025-02-17 10:52:30,0.0
-17108,804,9904,594,2898,-120,2025-02-17 10:52:30,0.0
-15412,776,8336,1097,1599,112,2025-02-17 10:52:30,0.0
-14500,1012,7420,1451,970,-192,2025-02-17 10:52:30,0.0
-14216,708,6024,1680,2153,-614,2025-02-17 10:52:30,
-14440,540,4780,1298,4035,-810,2025-02-17 10:52:30,0.0
-14696,580,4408,884,5464,-884,2025-02-17 10:52:30,0.0
-14280,1088,4656,700,7103,-955,2025-02-17 10:52:30,0.0
-14244,1160,4960,486,7973,-1232,2025-02-17 10:52:30,0.0
-13800,1120,3784,311,8955,-1485,2025-02-17 10:52:30,0.0
-13912,1040,3352,-39,9891,-2044,2025-02-17 10:52:30,0.0
-13160,284,2932,-251,10250,-3012,2025-02-17 10:52:30,0.0
-15484,432,3200,448,9569,-3662,2025-02-17 10:52:30,0.0
-15148,412,4016,1484,8930,-4208,2025-02-17 10:52:30,0.0
-15472,-100,2676,2143,9686,-3060,2025-02-17 10:52:30,0.0
-15464,-384,1520,1986,10994,-1476,2025-02-17 10:52:30,0.0
-13648,272,664,1041,10608,-1692,2025-02-17 10:52:30,0.0
-13760,484,740,237,8488,-2155,2025-02-17 10:52:30,0.0
-13460,-136,984,-636,6246,-3158,2025-02-17 10:52:30,0.0
-13400,-364,2016,-332,5819,-4365,2025-02-17 10:52:30,0.0
-13172,-892,1864,533,4446,-4561,2025-02-17 10:52:30,0.0
-12624,-956,1292,2245,1803,-4333,2025-02-17 10:52:30,0.0
-13748,-76,540,1601,1013,-2994,2025-02-17 10:52:30,0.0
-11348,-368,948,1473,869,-2200,2025-02-17 10:52:30,0.0
-9620,-1112,1572,2577,1041,-3281,2025-02-17 10:52:30,0.0
-10312,-1468,1060,3764,1334,-4926,2025-02-17 10:52:30,0.0
-11804,-1176,-1424,3186,1671,-5475,2025-02-17 10:52:30,0.0
-13516,-536,-4128,735,1690,-3985,2025-02-17 10:52:30,0.0
-13028,-212,-3164,-1682,749,-1810,2025-02-17 10:52:30,0.0
-12824,-232,280,-2082,-174,-722,2025-02-17 10:52:30,0.0
-13312,-128,2364,-862,64,364,2025-02-17 10:52:30,0.0
-13696,-340,3788,1411,362,1853,2025-02-17 10:52:30,0.0
-10184,-888,692,4711,-954,1292,2025-02-17 10:52:30,0.0
-11172,-728,-7072,1182,-340,-166,2025-02-17 10:52:30,0.0
-11292,12,-4064,-4783,174,-1767,2025-02-17 10:52:30,0.0
-12208,-916,996,-6351,215,-1347,2025-02-17 10:52:30,0.0
-12528,-2304,3968,-5222,988,40,2025-02-17 10:52:30,0.0
-11032,-3676,2412,-3482,3605,55,2025-02-17 10:52:30,0.0
-11788,-3608,1580,-2014,6621,-1243,2025-02-17 10:52:30,0.0
-14120,-2884,580,-2572,7686,-968,2025-02-17 10:52:30,0.0
-14604,-2944,116,-4671,7287,275,2025-02-17 10:52:30,5
-14356,-2496,860,-5566,6133,1773,2025-02-17 10:52:30,5
-13264,-1452,440,-4679,5001,2588,2025-02-17 10:52:30,5
-12284,-84,772,-3547,4522,3561,2025-02-17 10:52:30,5
-9640,-104,-456,-3011,6711,2317,2025-02-17 10:52:30,5
-9488,-632,-1064,-3358,10939,252,2025-02-17 10:52:30,5
-11156,-2148,-388,-3970,16937,-321,2025-02-17 10:52:30,5
-11668,-2964,124,-4067,21829,931,2025-02-17 10:52:30,5
-11572,-3500,1280,-3705,25815,2437,2025-02-17 10:52:30,5
-11940,-3152,2320,-1524,30959,2958,2025-02-17 10:52:30,5
-11360,-968,440,47,32767,1844,2025-02-17 10:52:30,5
-6488,188,-2104,883,32079,-1747,2025-02-17 10:52:30,5
-6516,-356,-2244,1018,28561,-3939,2025-02-17 10:52:30,5
-7268,-1156,-2864,2010,25811,-2676,2025-02-17 10:52:30,5
-9116,-2284,-5940,1418,23876,1472,2025-02-17 10:52:30,5
-8084,-2700,-6572,-870,22456,5225,2025-02-17 10:52:30,5
-4316,-376,-4252,-992,20516,4590,2025-02-17 10:52:31,5
-744,1624,-1184,1517,17788,1172,2025-02-17 10:52:31,5
2576,1324,1344,5120,15696,-1816,2025-02-17 10:52:31,5
1224,92,2908,8981,15622,-2635,2025-02-17 10:52:31,5
2624,-632,1716,10564,14060,-1756,2025-02-17 10:52:31,5
2296,-420,1712,11017,11813,-471,2025-02-17 10:52:31,5
2124,-620,1908,11268,10061,1042,2025-02-17 10:52:31,5
2764,-508,1444,11448,9344,1654,2025-02-17 10:52:31,5
2644,-516,1616,11448,10022,1404,2025-02-17 10:52:31,5
2336,-504,1584,11364,10553,1597,2025-02-17 10:52:31,5
2412,-652,1532,11207,10803,1803,2025-02-17 10:52:31,5
2416,-584,1380,11040,10911,2022,2025-02-17 10:52:31,5
2316,-632,1524,10887,10916,2249,2025-02-17 10:52:31,5
2480,-516,1368,10693,10923,2479,2025-02-17 10:52:31,5
2376,-500,1476,10568,10801,2812,2025-02-17 10:52:31,5
2156,-588,1540,10409,10513,3413,2025-02-17 10:52:31,5
2268,-592,1296,10198,10352,3955,2025-02-17 10:52:31,5
2516,-684,1236,10000,10237,4320,2025-02-17 10:52:31,5
2576,-792,1036,9667,10139,4424,2025-02-17 10:52:31,5
2652,-676,884,9298,9953,4414,2025-02-17 10:52:31,5
2984,-660,660,8656,9415,4357,2025-02-17 10:52:31,5
2768,-544,460,7972,8639,4304,2025-02-17 10:52:31,5
2196,-596,904,7579,8794,4620,2025-02-17 10:52:31,5
2888,-448,232,6944,8661,4912,2025-02-17 10:52:31,5
9740,924,-9872,1941,6215,3955,2025-02-17 10:52:31,5
824,-4640,-20196,-5563,2707,4910,2025-02-17 10:52:31,5
-32768,-32768,-32768,-32768,32767,15906,2025-02-17 10:52:31,5
31552,-11072,-13184,31014,-14455,-10994,2025-02-17 10:52:31,5
-624,-3964,-22744,-782,13220,1182,2025-02-17 10:52:31,5
-5580,-4104,-6440,-29401,32767,19912,2025-02-17 10:52:31,5
32767,-13852,-5900,-32768,27818,18762,2025-02-17 10:52:31,5
29244,-2072,17832,-27297,-11190,-2145,2025-02-17 10:52:31,5
7952,700,22188,-10587,-16705,-2761,2025-02-17 10:52:31,5
6864,-1044,12104,7141,-26979,-78,2025-02-17 10:52:31,5
4644,-2844,1676,16054,-32768,-1225,2025-02-17 10:52:31,5
-3416,-6444,-16156,22359,-32768,-3120,2025-02-17 10:52:31,5
-22980,-6308,-32768,11568,-19388,1139,2025-02-17 10:52:31,5
-24196,-5864,-24952,-3904,-8167,15546,2025-02-17 10:52:31,5
-5068,-5480,-11352,-2864,-9547,15347,2025-02-17 10:52:31,5
-744,-2068,-8960,-409,-6682,6973,2025-02-17 10:52:31,5
-2456,608,-9156,-584,-657,768,2025-02-17 10:52:31,5
-5956,60,-7864,-368,2154,-1346,2025-02-17 10:52:31,5
-6324,-2596,-10664,944,6113,-1948,2025-02-17 10:52:31,5
-2856,-2668,-14804,476,2067,-801,2025-02-17 10:52:31,5
-2316,-2432,-12192,-761,2964,-882,2025-02-17 10:52:31,5
-2588,-2544,-15016,324,819,40,2025-02-17 10:52:31,5
-3832,-2632,-13164,2,-659,-280,2025-02-17 10:52:31,5
-4212,-3056,-13916,-308,13,51,2025-02-17 10:52:31,5
-4020,-2204,-13192,-512,-546,-12,2025-02-17 10:52:31,5
-4500,-2008,-12704,-195,-209,-62,2025-02-17 10:52:31,5
-4668,-2188,-12728,-110,345,-275,2025-02-17 10:52:31,5
-4596,-2528,-13552,63,818,-364,2025-02-17 10:52:31,5
-3996,-2756,-14200,-15,843,-402,2025-02-17 10:52:31,5
-3724,-2832,-13944,-162,158,-132,2025-02-17 10:52:31,5
-3628,-2288,-12992,-204,-358,-64,2025-02-17 10:52:31,5
-4252,-2640,-13892,-227,-54,-119,2025-02-17 10:52:31,5
-4464,-2368,-13240,-268,183,-111,2025-02-17 10:52:31,5
-3952,-2060,-12752,-33,441,-278,2025-02-17 10:52:31,5
-3940,-2580,-13592,-29,310,-249,2025-02-17 10:52:31,5
-4428,-2604,-13332,-195,444,-157,2025-02-17 10:52:31,5
-3976,-2412,-13532,-193,63,-172,2025-02-17 10:52:31,5
-4348,-2484,-13476,-256,-180,-67,2025-02-17 10:52:32,5
-4424,-2324,-13340,-256,226,-149,2025-02-17 10:52:32,5
-4252,-2244,-13316,-162,195,-204,2025-02-17 10:52:32,5
-4252,-2624,-13432,-116,332,-240,2025-02-17 10:52:32,5
-4068,-2548,-13732,-150,289,-210,2025-02-17 10:52:32,5
-4204,-2680,-13032,-41,148,-167,2025-02-17 10:52:32,5
-3824,-2512,-13160,-241,127,-231,2025-02-17 10:52:32,5
-3824,-2360,-13276,-115,195,-142,2025-02-17 10:52:32,5
-4156,-2576,-13560,-154,277,-197,2025-02-17 10:52:32,5
-3956,-2484,-13268,-175,106,-197,2025-02-17 10:52:32,5
-4072,-2488,-13496,-226,154,-174,2025-02-17 10:52:32,5
-4300,-2456,-13644,-127,162,-184,2025-02-17 10:52:32,5
-4208,-2552,-13424,-157,247,-167,2025-02-17 10:52:32,5
-4108,-2372,-13472,-164,163,-156,2025-02-17 10:52:32,5
-4164,-2460,-13552,-158,202,-181,2025-02-17 10:52:32,5
-4192,-2528,-13524,-170,150,-164,2025-02-17 10:52:32,5
-4228,-2360,-13404,-166,142,-156,2025-02-17 10:52:32,5
-4096,-2636,-13384,-164,178,-188,2025-02-17 10:52:32,5
-4068,-2496,-13444,-158,195,-154,2025-02-17 10:52:32,5
-4152,-2452,-13432,-136,237,-185,2025-02-17 10:52:32,5
-4200,-2456,-13636,-183,157,-200,2025-02-17 10:52:32,5
-4232,-2420,-13540,-190,178,-181,2025-02-17 10:52:32,5
-4128,-2444,-13348,-147,171,-190,2025-02-17 10:52:32,5
-4116,-2476,-13596,-196,216,-195,2025-02-17 10:52:32,5
-4204,-2404,-13500,-202,213,-170,2025-02-17 10:52:32,5
-4140,-2440,-13624,-128,183,-177,2025-02-17 10:52:32,5
-4160,-2460,-13472,-172,184,-159,2025-02-17 10:52:32,5
-4224,-2500,-13380,-147,170,-156,2025-02-17 10:52:32,5
-4284,-2540,-13424,-174,167,-179,2025-02-17 10:52:32,5
-4104,-2404,-13496,-182,210,-177,2025-02-17 10:52:32,5
-4124,-2492,-13452,-163,165,-171,2025-02-17 10:52:32,5
-4116,-2480,-13512,-190,157,-196,2025-02-17 10:52:32,5
-4176,-2540,-13500,-159,187,-178,2025-02-17 10:52:32,5
-4172,-2500,-13508,-180,172,-183,2025-02-17 10:52:32,5
-4124,-2448,-13484,-165,174,-175,2025-02-17 10:52:32,5
-4048,-2476,-13432,-173,185,-188,2025-02-17 10:52:32,5
-4152,-2444,-13516,-181,173,-182,2025-02-17 10:52:32,5
-4176,-2452,-13564,-194,178,-172,2025-02-17 10:52:32,5
-4164,-2504,-13268,-152,202,-186,2025-02-17 10:52:32,5
-4140,-2544,-13396,-180,207,-187,2025-02-17 10:52:32,5
-4256,-2508,-13524,-188,190,-164,2025-02-17 10:52:32,5
-4252,-2444,-13444,-169,202,-181,2025-02-17 10:52:32,5
-4156,-2560,-13524,-172,180,-153,2025-02-17 10:52:32,5
-4216,-2432,-13508,-164,172,-165,2025-02-17 10:52:32,5
-4108,-2516,-13368,-149,171,-155,2025-02-17 10:52:32,5
-4080,-2488,-13448,-186,188,-166,2025-02-17 10:52:32,5
-4120,-2488,-13396,-184,183,-181,2025-02-17 10:52:32,5
-4132,-2416,-13428,-156,182,-159,2025-02-17 10:52:32,5
-4144,-2484,-13520,-138,173,-152,2025-02-17 10:52:32,5
-4164,-2540,-13692,-172,182,-169,2025-02-17 10:52:32,5
-4200,-2452,-13476,-150,176,-172,2025-02-17 10:52:32,5
-4116,-2480,-13564,-192,180,-177,2025-02-17 10:52:32,5
-4160,-2476,-13472,-174,174,-177,2025-02-17 10:52:32,5
-4100,-2492,-13528,-163,195,-169,2025-02-17 10:52:32,5
-4192,-2480,-13444,-162,192,-163,2025-02-17 10:52:32,5
-4148,-2520,-13388,-169,153,-187,2025-02-17 10:52:32,5
-4148,-2380,-13432,-156,206,-176,2025-02-17 10:52:32,5
-4144,-2412,-13508,-169,198,-174,2025-02-17 10:52:32,5
-4172,-2460,-13500,-174,180,-189,2025-02-17 10:52:32,5
-4192,-2472,-13676,-165,166,-191,2025-02-17 10:52:32,5
-4204,-2364,-13488,-172,186,-167,2025-02-17 10:52:33,5
-4060,-2472,-13444,-176,174,-142,2025-02-17 10:52:33,5
-4184,-2540,-13504,-145,182,-154,2025-02-17 10:52:33,5
-4108,-2524,-13444,-140,184,-165,2025-02-17 10:52:33,5
-4116,-2444,-13568,-149,196,-157,2025-02-17 10:52:33,5
-4176,-2492,-13412,-144,154,-178,2025-02-17 10:52:33,5
-4252,-2364,-13572,-181,191,-163,2025-02-17 10:52:33,5
-4176,-2492,-13316,-135,161,-178,2025-02-17 10:52:33,5
-4144,-2372,-13456,-143,191,-167,2025-02-17 10:52:33,5
-4132,-2608,-13504,-175,184,-168,2025-02-17 10:52:33,5
-4140,-2476,-13508,-178,182,-192,2025-02-17 10:52:33,5
-4180,-2512,-13604,-160,189,-182,2025-02-17 10:52:33,5
-4148,-2368,-13464,-181,189,-178,2025-02-17 10:52:33,5
-4144,-2468,-13488,-135,192,-181,2025-02-17 10:52:33,5
-4144,-2396,-13516,-163,209,-183,2025-02-17 10:52:33,5
-4172,-2468,-13616,-171,167,-169,2025-02-17 10:52:33,5
-4156,-2504,-13428,-171,181,-164,2025-02-17 10:52:33,0.0
-4092,-2500,-13476,-179,180,-172,2025-02-17 10:52:33,0.0
-4104,-2408,-13552,-162,167,-163,2025-02-17 10:52:33,0.0
-4104,-2444,-13568,-168,171,-162,2025-02-17 10:52:33,0.0
-4160,-2456,-13444,-147,196,-162,2025-02-17 10:52:33,0.0
-4192,-2460,-13500,-174,169,-167,2025-02-17 10:52:33,0.0
-4216,-2532,-13460,-183,174,-145,2025-02-17 10:52:33,0.0
-4268,-2440,-13416,-155,161,-180,2025-02-17 10:52:33,0.0
-4100,-2532,-13400,-155,198,-175,2025-02-17 10:52:33,0.0
-4188,-2568,-13576,-168,149,-190,2025-02-17 10:52:33,0.0
-4184,-2448,-13316,-175,198,-165,2025-02-17 10:52:33,0.0
-4160,-2468,-13540,-166,200,-157,2025-02-17 10:52:33,
-4192,-2444,-13588,-160,190,-192,2025-02-17 10:52:33,0.0
-4144,-2476,-13488,-187,184,-192,2025-02-17 10:52:33,0.0
-4160,-2348,-13500,-168,201,-179,2025-02-17 10:52:33,0.0
-4216,-2496,-13636,-147,177,-184,2025-02-17 10:52:33,0.0
-4124,-2456,-13564,-183,183,-178,2025-02-17 10:52:33,0.0
-4168,-2496,-13432,-174,166,-173,2025-02-17 10:52:33,0.0
-4144,-2404,-13276,-144,182,-164,2025-02-17 10:52:33,0.0
-4236,-2388,-13480,-179,207,-185,2025-02-17 10:52:33,0.0
-4184,-2492,-13488,-184,167,-160,2025-02-17 10:52:33,0.0
-4148,-2572,-13472,-161,180,-183,2025-02-17 10:52:33,0.0
-4172,-2508,-13480,-168,176,-139,2025-02-17 10:52:33,0.0
-4148,-2436,-13488,-171,184,-183,2025-02-17 10:52:33,0.0
-4220,-2512,-13580,-139,179,-166,2025-02-17 10:52:33,0.0
-4172,-2436,-13416,-181,181,-188,2025-02-17 10:52:33,0.0
-4076,-2432,-13520,-169,192,-197,2025-02-17 10:52:33,0.0
-4128,-2416,-13392,-152,177,-155,2025-02-17 10:52:33,0.0
-4192,-2496,-13480,-178,180,-162,2025-02-17 10:52:33,0.0
-4156,-2444,-13528,-147,179,-169,2025-02-17 10:52:33,0.0
-4176,-2484,-13500,-154,180,-187,2025-02-17 10:52:33,0.0
-4228,-2480,-13576,-181,191,-161,2025-02-17 10:52:33,0.0
-4128,-2440,-13448,-130,184,-175,2025-02-17 10:52:33,0.0
-4156,-2492,-13552,-162,183,-175,2025-02-17 10:52:33,0.0
-4168,-2524,-13496,-170,181,-175,2025-02-17 10:52:33,0.0
-4180,-2500,-13340,-180,173,-177,2025-02-17 10:52:33,0.0
-4148,-2368,-13572,-163,183,-171,2025-02-17 10:52:33,0.0
-4216,-2548,-13520,-152,196,-178,2025-02-17 10:52:33,0.0
-4176,-2556,-13628,-167,155,-182,2025-02-17 10:52:33,0.0
-4156,-2556,-13584,-179,161,-172,2025-02-17 10:52:33,0.0
-4172,-2476,-13552,-179,158,-175,2025-02-17 10:52:33,0.0
-4116,-2484,-13572,-185,184,-177,2025-02-17 10:52:33,0.0
-4168,-2412,-13552,-166,171,-201,2025-02-17 10:52:33,0.0
-4244,-2588,-13528,-154,183,-170,2025-02-17 10:52:33,0.0
-4220,-2496,-13604,-154,192,-177,2025-02-17 10:52:33,0.0
-4152,-2468,-13464,-148,202,-186,2025-02-17 10:52:34,0.0
-4196,-2364,-13684,-164,180,-179,2025-02-17 10:52:34,0.0
-4112,-2472,-13424,-194,188,-191,2025-02-17 10:52:34,0.0
-4156,-2464,-13476,-164,188,-171,2025-02-17 10:52:34,0.0
-4184,-2568,-13584,-135,167,-167,2025-02-17 10:52:34,0.0
-4104,-2420,-13448,-141,184,-174,2025-02-17 10:52:34,0.0
-4112,-2388,-13576,-170,174,-190,2025-02-17 10:52:34,0.0
-4112,-2420,-13552,-165,161,-169,2025-02-17 10:52:34,0.0
-4292,-2480,-13684,-155,174,-171,2025-02-17 10:52:34,0.0
-4148,-2484,-13448,-157,164,-176,2025-02-17 10:52:34,0.0
-4112,-2436,-13552,-182,187,-198,2025-02-17 10:52:34,0.0
-4176,-2448,-13528,-157,173,-159,2025-02-17 10:52:34,0.0
-4228,-2500,-13508,-179,173,-182,2025-02-17 10:52:34,0.0
-4132,-2472,-13448,-179,154,-175,2025-02-17 10:52:34,0.0
-4216,-2420,-13456,-177,189,-166,2025-02-17 10:52:34,0.0
-4048,-2404,-13400,-188,170,-161,2025-02-17 10:52:34,0.0
-4220,-2476,-13452,-162,175,-159,2025-02-17 10:52:34,0.0
-4164,-2520,-13416,-189,212,-188,2025-02-17 10:52:34,0.0
-4144,-2376,-13476,-178,180,-168,2025-02-17 10:52:34,0.0
-4140,-2376,-13544,-139,200,-184,2025-02-17 10:52:34,0.0
-4236,-2444,-13616,-166,173,-185,2025-02-17 10:52:34,0.0
-4172,-2508,-13604,-166,208,-176,2025-02-17 10:52:34,0.0
-4220,-2468,-13520,-163,181,-188,2025-02-17 10:52:34,0.0
-4132,-2524,-13548,-153,171,-180,2025-02-17 10:52:34,0.0
-4304,-2416,-13616,-148,187,-161,2025-02-17 10:52:34,0.0
-4072,-2468,-13612,-159,185,-175,2025-02-17 10:52:34,0.0
-4164,-2464,-13564,-138,210,-138,2025-02-17 10:52:34,0.0
-4172,-2564,-13452,-135,186,-165,2025-02-17 10:52:34,0.0
-4276,-2424,-13504,-167,171,-196,2025-02-17 10:52:34,0.0
-4216,-2484,-13344,-163,177,-151,2025-02-17 10:52:34,0.0
-4188,-2436,-13584,-140,170,-155,2025-02-17 10:52:34,0.0
-4080,-2528,-13384,-164,202,-196,2025-02-17 10:52:34,0.0
-4156,-2440,-13500,-160,168,-172,2025-02-17 10:52:34,0.0
-4140,-2408,-13512,-169,195,-175,2025-02-17 10:52:34,0.0
-4096,-2500,-13424,-191,185,-196,2025-02-17 10:52:34,0.0
-4184,-2448,-13508,-178,186,-174,2025-02-17 10:52:34,0.0
-4104,-2400,-13440,-178,171,-165,2025-02-17 10:52:34,0.0
-4204,-2488,-13588,-161,180,-170,2025-02-17 10:52:34,0.0
-4152,-2480,-13420,-152,200,-183,2025-02-17 10:52:34,0.0
-4052,-2508,-13520,-159,176,-193,2025-02-17 10:52:34,0.0
-4160,-2436,-13472,-168,170,-197,2025-02-17 10:52:34,0.0
-4200,-2460,-13528,-146,203,-171,2025-02-17 10:52:34,0.0
-4120,-2516,-13488,-140,194,-164,2025-02-17 10:52:34,0.0
-4192,-2540,-13604,-163,203,-175,2025-02-17 10:52:34,0.0
-4368,-2392,-13448,-125,238,-118,2025-02-17 10:52:34,0.0
-4140,-2152,-12944,193,157,-315,2025-02-17 10:52:34,0.0
-4320,-2376,-13216,213,614,-304,2025-02-17 10:52:34,0.0
-4148,-2604,-13348,314,926,-373,2025-02-17 10:52:34,0.0
-4276,-2628,-13292,344,1295,-433,2025-02-17 10:52:34,0.0
-3136,-2156,-11724,1066,2203,-676,2025-02-17 10:52:34,0.0
-6276,-2392,-15416,2741,5263,-1218,2025-02-17 10:52:34,0.0
-4844,-3712,-14960,1782,4443,-1617,2025-02-17 10:52:34,0.0
-3700,-3384,-14760,659,3490,-1036,2025-02-17 10:52:34,0.0
-3820,-2536,-14584,133,2023,-748,2025-02-17 10:52:34,0.0
-2964,-2752,-13844,388,1320,-420,2025-02-17 10:52:34,0.0
-3408,-3200,-14760,90,570,-295,2025-02-17 10:52:34,0.0
-2684,-3884,-14892,-921,-1136,-136,2025-02-17 10:52:34,0.0
-2164,-3564,-14764,-2968,-2885,1053,2025-02-17 10:52:34,0.0
-1828,-2836,-13832,-2178,-1811,682,2025-02-17 10:52:34,0.0
-3260,-2264,-14228,-1765,-1858,520,2025-02-17 10:52:34,0.0
-4280,-2420,-12948,-1536,-1334,228,2025-02-17 10:52:34,0.0
-3700,-2060,-12660,-821,-430,258,2025-02-17 10:52:35,0.0
-3716,-2608,-13556,-435,760,-44,2025-02-17 10:52:35,0.0
-4032,-2552,-13748,-155,372,-29,2025-02-17 10:52:35,0.0
-2956,-2392,-12676,-968,92,308,2025-02-17 10:52:35,0.0
-3464,-1292,-11656,585,339,-361,2025-02-17 10:52:35,0.0
-3788,-3632,-13464,-1727,1358,1053,2025-02-17 10:52:35,
-3780,-2108,-13836,-531,303,-433,2025-02-17 10:52:35,0.0
-4620,-1032,-14892,1070,1177,-1181,2025-02-17 10:52:35,0.0
-2568,-3536,-13844,878,119,-528,2025-02-17 10:52:35,0.0
-2760,-3312,-13428,-410,-87,-123,2025-02-17 10:52:35,0.0
-4224,-2088,-14732,-460,-381,-96,2025-02-17 10:52:35,0.0
-4260,-2376,-14448,-268,-443,-194,2025-02-17 10:52:35,0.0
-3364,-2540,-13400,-798,-1087,-102,2025-02-17 10:52:35,0.0
-4808,-2052,-13128,-490,-316,-8,2025-02-17 10:52:35,0.0
-4032,-1440,-11352,374,951,-758,2025-02-17 10:52:35,0.0
-3548,-2740,-13512,-177,1006,-631,2025-02-17 10:52:35,0.0
-3524,-1924,-13232,370,1124,-793,2025-02-17 10:52:35,0.0
-3508,-2744,-13512,514,735,-821,2025-02-17 10:52:35,0.0
-4292,-2216,-13344,539,1088,-916,2025-02-17 10:52:35,0.0
-3956,-2452,-13228,947,1627,-734,2025-02-17 10:52:35,0.0
-3464,-2612,-14208,1033,1170,-844,2025-02-17 10:52:35,0.0
-3212,-3860,-15072,-55,412,-675,2025-02-17 10:52:35,0.0
-2840,-2240,-13084,54,34,298,2025-02-17 10:52:35,0.0
-2800,-2316,-13944,648,-1251,639,2025-02-17 10:52:35,0.0
-3660,-3176,-14568,786,-2178,838,2025-02-17 10:52:35,0.0
-4648,-2448,-13592,1023,-1718,330,2025-02-17 10:52:35,0.0
-4944,-1776,-12404,2982,994,-308,2025-02-17 10:52:35,0.0
-4684,-1428,-14080,6841,5552,-1010,2025-02-17 10:52:35,0.0
-5000,-1996,-16188,8930,8572,-323,2025-02-17 10:52:35,0.0
-4176,-2932,-18708,7451,11414,242,2025-02-17 10:52:35,0.0
-2144,-4368,-17980,5173,13074,-38,2025-02-17 10:52:35,0.0
-1480,-4432,-15500,4051,13092,-539,2025-02-17 10:52:35,0.0
-1132,-4252,-12824,4876,11894,-800,2025-02-17 10:52:35,0.0
-1252,-4716,-13228,6603,11934,-736,2025-02-17 10:52:35,0.0
-912,-5144,-14020,5778,12876,-981,2025-02-17 10:52:35,0.0
-1336,-5624,-16280,3929,13449,-828,2025-02-17 10:52:35,0.0
-1680,-5768,-17884,113,15097,525,2025-02-17 10:52:35,0.0
728,-5700,-18812,-909,14963,-132,2025-02-17 10:52:35,0.0
3784,-5888,-20564,-2436,11457,-2479,2025-02-17 10:52:35,0.0
5644,-6548,-20108,-4552,4226,-5561,2025-02-17 10:52:35,0.0
4532,-5736,-15140,-4557,-1717,-8625,2025-02-17 10:52:35,0.0
-220,-4592,-13400,-1087,3235,-9063,2025-02-17 10:52:35,0.0
3032,-5916,-17752,-1596,3209,-10251,2025-02-17 10:52:35,0.0
4044,-7488,-19384,-2293,810,-10743,2025-02-17 10:52:35,0.0
6584,-9972,-24096,-2416,-1564,-11471,2025-02-17 10:52:35,0.0
4616,-11060,-27152,-5870,-7676,-11809,2025-02-17 10:52:35,0.0
-32,-10108,-22248,-8155,-12647,-9521,2025-02-17 10:52:35,0.0
-3004,-7956,-19516,-7444,-12373,-5048,2025-02-17 10:52:35,0.0
-2700,-6664,-19232,-8949,-7439,-3138,2025-02-17 10:52:35,0.0
-1532,-5620,-18296,-10742,-895,-3417,2025-02-17 10:52:35,0.0
-1504,-4288,-18100,-11230,3122,-3621,2025-02-17 10:52:35,0.0
-1872,-2708,-19476,-10939,4841,-2724,2025-02-17 10:52:35,0.0
-3472,4400,-19608,-7668,4227,2043,2025-02-17 10:52:35,0.0
2632,5124,-20932,-5461,1649,3656,2025-02-17 10:52:35,0.0
6980,3836,-21800,-3699,-6541,971,2025-02-17 10:52:35,0.0
7144,1148,-22340,-2922,-17307,-3466,2025-02-17 10:52:35,0.0
2524,-300,-20324,-2606,-25573,-5184,2025-02-17 10:52:35,0.0
-1708,-792,-18468,-592,-27807,-4502,2025-02-17 10:52:35,0.0
-3216,-2472,-17892,1030,-25948,-3374,2025-02-17 10:52:35,0.0
-4292,-3984,-16588,2806,-21473,-2055,2025-02-17 10:52:35,0.0
-3884,-5568,-19300,1048,-16016,-1530,2025-02-17 10:52:35,0.0
-5220,-4328,-18420,-509,-10592,-845,2025-02-17 10:52:35,0.0
-3880,-3484,-18240,-1880,-6239,1143,2025-02-17 10:52:35,0.0
-2284,-3040,-16688,-1899,-4959,1919,2025-02-17 10:52:36,0.0
-508,-3376,-15372,-1676,-5597,2477,2025-02-17 10:52:36,0.0
1368,-740,-19000,-7174,-5910,1634,2025-02-17 10:52:36,0.0
6132,-320,-13736,-13287,-5116,-4321,2025-02-17 10:52:36,0.0
3192,-1240,-8116,-15734,-5198,-13180,2025-02-17 10:52:36,0.0
-3860,-36,-9176,-14786,-3305,-14698,2025-02-17 10:52:36,0.0
-8648,1072,-6432,-12235,173,-11106,2025-02-17 10:52:36,0.0
-8932,1796,-5848,-6906,2622,-5535,2025-02-17 10:52:36,0.0
-6024,1724,-6192,-2964,3360,-375,2025-02-17 10:52:36,0.0
-1248,664,-6284,4869,2885,-935,2025-02-17 10:52:36,0.0
-2816,104,-12032,9729,1384,-2815,2025-02-17 10:52:36,0.0
-2948,-124,-19064,7096,-2094,-2731,2025-02-17 10:52:36,0.0
-2920,-40,-15928,-1863,-9470,-738,2025-02-17 10:52:36,0.0
-4720,-8,-10928,-2032,-11330,1056,2025-02-17 10:52:36,0.0
-5688,240,-8268,264,-8436,3109,2025-02-17 10:52:36,0.0
-5436,348,-7252,1570,-3584,4483,2025-02-17 10:52:36,0.0
-4488,560,-7092,1610,2323,5019,2025-02-17 10:52:36,0.0
-2348,372,-6420,687,9527,3672,2025-02-17 10:52:36,0.0
1068,-368,-6016,-753,14350,310,2025-02-17 10:52:36,0.0
2124,-1400,-4292,-1243,15254,-3617,2025-02-17 10:52:36,0.0
-312,-2044,-4936,-560,13604,-5412,2025-02-17 10:52:36,0.0
-3328,-2368,-7044,87,12174,-4214,2025-02-17 10:52:36,0.0
-5104,-2772,-9040,709,12608,-2386,2025-02-17 10:52:36,0.0
-4524,-2660,-10376,1554,14260,-1221,2025-02-17 10:52:36,0.0
-1952,-2180,-10708,1991,13321,-2667,2025-02-17 10:52:36,0.0
-912,-1612,-10840,1779,9520,-4643,2025-02-17 10:52:36,0.0
-2048,-1012,-10612,1257,5121,-5647,2025-02-17 10:52:36,0.0
-4092,-576,-10520,460,2051,-5063,2025-02-17 10:52:36,0.0
-5072,-452,-9868,-275,596,-3732,2025-02-17 10:52:36,0.0
-5344,-296,-9052,-327,-270,-2295,2025-02-17 10:52:36,0.0
-4648,-444,-9584,222,-1893,-1453,2025-02-17 10:52:36,0.0
-3764,-592,-10296,808,-4646,-1494,2025-02-17 10:52:36,0.0
-3484,-920,-11184,1002,-8559,-2052,2025-02-17 10:52:36,0.0
-3844,-884,-12056,207,-14744,-2182,2025-02-17 10:52:36,0.0
-4216,-820,-11692,-521,-19892,-1447,2025-02-17 10:52:36,0.0
-4592,-316,-10668,-558,-24759,-293,2025-02-17 10:52:36,0.0
-4496,-328,-10568,-152,-29028,606,2025-02-17 10:52:36,0.0
-5072,-536,-10920,14,-31680,793,2025-02-17 10:52:36,0.0
-5680,-900,-11788,-634,-32768,1014,2025-02-17 10:52:36,0.0
-6692,-1100,-12316,-2967,-32501,2182,2025-02-17 10:52:36,0.0
-6632,-1244,-11864,-5775,-30124,2686,2025-02-17 10:52:36,0.0
-6972,-1072,-10528,-7874,-25829,2321,2025-02-17 10:52:36,0.0
-7652,-308,-8412,-8182,-20041,1489,2025-02-17 10:52:36,
-9164,452,-6916,-6554,-12935,736,2025-02-17 10:52:36,0.0
-10908,1344,-6596,-3650,-3213,326,2025-02-17 10:52:36,0.0
-11024,1108,-7024,-1397,5620,330,2025-02-17 10:52:36,0.0
-9288,-496,-7000,371,10963,-989,2025-02-17 10:52:36,0.0
-12184,-5036,-3068,-15,11418,-5455,2025-02-17 10:52:36,0.0
-20796,-6096,4820,-3685,-5450,-7330,2025-02-17 10:52:36,0.0
-22072,-2212,-4564,-2937,-3820,-1508,2025-02-17 10:52:36,0.0
-9552,-2096,-12196,-565,-9426,1650,2025-02-17 10:52:36,0.0
-7212,448,-14892,-810,-19021,1477,2025-02-17 10:52:36,0.0
-10072,1024,-11344,-1744,-27600,-113,2025-02-17 10:52:36,0.0
-13436,-456,-6180,-1442,-32046,-1030,2025-02-17 10:52:36,0.0
-14344,-1136,4796,4637,-32768,-1355,2025-02-17 10:52:36,0.0
-13976,-2104,-4412,7481,-32691,-558,2025-02-17 10:52:36,0.0
-12740,-700,-7828,3912,-31978,1121,2025-02-17 10:52:37,0.0
-10300,-208,-3452,2194,-31947,990,2025-02-17 10:52:37,0.0
-11128,-124,-980,2323,-30721,-269,2025-02-17 10:52:37,0.0
-14028,-812,692,2121,-26501,-14,2025-02-17 10:52:37,0.0
-15548,-1612,1676,2491,-17935,1329,2025-02-17 10:52:37,0.0
-12664,-1308,-2944,1915,-5482,1637,2025-02-17 10:52:37,0.0
-9012,-700,740,878,1072,-618,2025-02-17 10:52:37,0.0
-12812,-472,-532,126,5110,-1074,2025-02-17 10:52:37,0.0
-13640,-856,1600,915,7180,420,2025-02-17 10:52:37,0.0
-12208,-1020,-264,1040,7032,1241,2025-02-17 10:52:37,0.0
-11572,-644,60,345,5230,147,2025-02-17 10:52:37,0.0
-13032,-244,696,572,6177,-1831,2025-02-17 10:52:37,0.0
-14236,-180,-224,281,6871,-2847,2025-02-17 10:52:37,0.0
-15672,132,-448,-524,5754,-1839,2025-02-17 10:52:37,0.0
-15368,136,-1412,-1088,3810,-118,2025-02-17 10:52:37,0.0
-14856,64,-1476,-1925,1918,844,2025-02-17 10:52:37,0.0
-13548,396,-1364,-2792,3080,13,2025-02-17 10:52:37,0.0
-13076,-664,672,-1793,4558,-1298,2025-02-17 10:52:37,0.0
-14632,-584,-704,-783,3745,-600,2025-02-17 10:52:37,0.0
-14688,-636,-1256,-935,3849,816,2025-02-17 10:52:37,0.0
-14368,-1204,-1188,-761,4369,1314,2025-02-17 10:52:37,0.0
-10780,-1612,-1324,347,4764,1259,2025-02-17 10:52:37,0.0
-14084,-1540,-492,1236,3890,1208,2025-02-17 10:52:37,0.0
-14536,-1412,-1152,1945,2152,1773,2025-02-17 10:52:37,0.0
-14188,-1544,-788,2011,796,1840,2025-02-17 10:52:37,0.0
-13832,-1384,-568,2912,194,1595,2025-02-17 10:52:37,0.0
-13432,-1212,-1256,3628,115,1370,2025-02-17 10:52:37,0.0
-13972,-740,-1868,3758,31,1226,2025-02-17 10:52:37,0.0
-14096,-136,-2432,3105,222,947,2025-02-17 10:52:37,0.0
-14156,-44,-1948,2799,-647,517,2025-02-17 10:52:37,0.0
-14484,4,-1604,2664,-2031,506,2025-02-17 10:52:37,0.0
-13644,-212,-2244,2356,-3073,651,2025-02-17 10:52:37,0.0
-13492,-344,-1468,2556,-3879,879,2025-02-17 10:52:37,0.0
-13388,20,-1672,2495,-3914,1191,2025-02-17 10:52:37,0.0
-12984,252,-2096,1438,-2604,1546,2025-02-17 10:52:37,0.0
-12908,152,-1336,369,-445,1402,2025-02-17 10:52:37,0.0
-12808,84,-1352,-699,1337,1308,2025-02-17 10:52:37,0.0
-13068,328,-1088,-2015,2610,514,2025-02-17 10:52:37,0.0
-12696,-704,-436,150,1337,716,2025-02-17 10:52:37,0.0
-14156,-16,-912,538,-56,950,2025-02-17 10:52:37,0.0
-12884,652,-884,96,325,602,2025-02-17 10:52:37,0.0
-13040,476,-1696,-319,1133,-476,2025-02-17 10:52:37,0.0
-13576,0,-1140,-540,1550,-899,2025-02-17 10:52:37,0.0
-13744,36,-824,24,1943,-665,2025-02-17 10:52:37,0.0
-13180,616,-1232,405,2269,-790,2025-02-17 10:52:37,0.0
-12464,1320,-3132,689,2633,-1152,2025-02-17 10:52:37,0.0
-12940,1156,-4116,276,3140,-1225,2025-02-17 10:52:37,0.0
-12288,228,-3912,-246,3868,-1275,2025-02-17 10:52:37,0.0
-13748,-140,-1468,-588,5168,-1295,2025-02-17 10:52:37,0.0
-14152,-648,-100,-897,5923,-1126,2025-02-17 10:52:37,0.0
-14028,-804,-568,-819,4667,-915,2025-02-17 10:52:37,0.0
-14032,-1256,-228,171,2488,-438,2025-02-17 10:52:37,0.0
-13408,-976,-1196,1115,916,-284,2025-02-17 10:52:37,0.0
-13564,-152,-2192,1237,1127,-390,2025-02-17 10:52:37,0.0
-13736,592,-2500,518,2728,-661,2025-02-17 10:52:37,0.0
-14040,1084,-3140,101,3039,-517,2025-02-17 10:52:37,0.0
-13688,780,-3404,-179,1782,-350,2025-02-17 10:52:37,0.0
-13440,728,-3820,-624,261,-492,2025-02-17 10:52:37,0.0
-13020,552,-4016,-1280,-302,-751,2025-02-17 10:52:37,0.0
-12876,-144,-3256,-1280,-74,-1135,2025-02-17 10:52:37,0.0
-12576,-176,-3824,-840,432,-980,2025-02-17 10:52:37,0.0
-12540,388,-4188,-1079,1108,-867,2025-02-17 10:52:37,0.0
-12332,836,-4384,-1956,1953,-950,2025-02-17 10:52:37,0.0
-12052,800,-4504,-2676,2836,-1072,2025-02-17 10:52:37,0.0
-12068,560,-4028,-2916,3724,-1470,2025-02-17 10:52:37,0.0
-12172,436,-3976,-2583,4401,-1751,2025-02-17 10:52:38,0.0
-12868,-64,-4392,-2075,4447,-1814,2025-02-17 10:52:38,0.0
-14700,-280,-2720,-1020,3201,-1306,2025-02-17 10:52:38,0.0
-15200,144,-4124,-299,1966,-464,2025-02-17 10:52:38,0.0
-14436,1032,-5508,-974,328,-23,2025-02-17 10:52:38,0.0
-14196,940,-5120,-1238,-1104,544,2025-02-17 10:52:38,0.0
-12044,776,-5724,-1752,-1799,873,2025-02-17 10:52:38,0.0
-10400,452,-5336,-2440,-1755,531,2025-02-17 10:52:38,0.0
-9756,292,-4984,-2773,-478,72,2025-02-17 10:52:38,0.0
-9916,-196,-5184,-3148,2085,-92,2025-02-17 10:52:38,0.0
-10240,-580,-6160,-3531,5188,370,2025-02-17 10:52:38,0.0
-10540,552,-6636,-4245,7506,468,2025-02-17 10:52:38,0.0
-10968,1960,-6820,-4902,8433,309,2025-02-17 10:52:38,0.0
-10464,2196,-7120,-5704,6855,173,2025-02-17 10:52:38,0.0
-9500,792,-4556,-6020,3920,-447,2025-02-17 10:52:38,0.0
-11272,160,-2460,-5545,612,-1336,2025-02-17 10:52:38,0.0
-11652,76,-1968,-5453,-1242,-1160,2025-02-17 10:52:38,0.0
-10916,-176,-2468,-4677,-3112,-346,2025-02-17 10:52:38,0.0
-9280,-836,-4216,-4357,-5380,-213,2025-02-17 10:52:38,0.0
-8780,-1960,-3092,-4280,-7502,-114,2025-02-17 10:52:38,0.0
-8548,-2044,-1264,-3259,-8175,236,2025-02-17 10:52:38,0.0
-8504,-944,-1232,-2656,-7385,167,2025-02-17 10:52:38,
-9528,508,-1916,-2489,-6415,1016,2025-02-17 10:52:38,0.0
-9472,1448,-472,-2654,-6052,1885,2025-02-17 10:52:38,0.0
-11956,360,2028,-1107,-4533,2782,2025-02-17 10:52:38,0.0
-12616,-516,2544,90,-3239,3544,2025-02-17 10:52:38,0.0
-14168,-1044,-272,21,-2698,3288,2025-02-17 10:52:38,0.0
-14136,-232,-1696,-712,-4532,2639,2025-02-17 10:52:38,0.0
-15092,424,-3304,-1555,-7477,2821,2025-02-17 10:52:38,0.0
-15020,2436,-2184,-2396,-8512,3496,2025-02-17 10:52:38,0.0
-12548,3688,1440,-394,-12513,4616,2025-02-17 10:52:38,0.0
-12652,1652,1272,962,-14715,4886,2025-02-17 10:52:38,0.0
-10676,-672,2016,2085,-12960,4131,2025-02-17 10:52:38,0.0
-5192,-2280,-324,2793,-9098,2457,2025-02-17 10:52:38,0.0
-12924,-588,-204,2943,-7137,2442,2025-02-17 10:52:38,0.0
-16380,996,964,2660,-6549,1581,2025-02-17 10:52:38,0.0
-19896,1308,1468,3006,-7346,1860,2025-02-17 10:52:38,0.0
-13788,1004,1464,3314,-9525,1545,2025-02-17 10:52:38,0.0
-14264,2644,2084,2808,-9383,139,2025-02-17 10:52:38,0.0
-13008,3656,1768,2680,-7787,-911,2025-02-17 10:52:38,0.0
-19084,3876,-792,2176,-6844,-968,2025-02-17 10:52:38,0.0
-10344,2472,996,1978,-8188,-952,2025-02-17 10:52:38,0.0
-17076,2704,552,1311,-8229,-1124,2025-02-17 10:52:38,0.0
-13960,1588,1516,506,-8475,-1250,2025-02-17 10:52:38,0.0
-12588,988,1592,-2,-6685,-1623,2025-02-17 10:52:38,0.0
-11404,52,88,-481,-4388,-1612,2025-02-17 10:52:38,0.0
-15108,1308,-56,-1248,-5616,-35,2025-02-17 10:52:38,0.0
-18004,1364,1820,-1326,-5775,609,2025-02-17 10:52:38,0.0
-11764,468,1072,-1332,-6116,-447,2025-02-17 10:52:38,0.0
-15048,900,1468,-1993,-5609,-1012,2025-02-17 10:52:38,0.0
-16072,1732,2096,-1919,-7206,-1627,2025-02-17 10:52:38,0.0
-14528,3168,3192,-1879,-9338,-1823,2025-02-17 10:52:38,0.0
-13280,1972,6048,-1408,-9604,-759,2025-02-17 10:52:38,0.0
-14372,1172,8200,-1572,-10218,-189,2025-02-17 10:52:38,0.0
-12872,832,8376,-1705,-10930,31,2025-02-17 10:52:38,0.0
-11192,392,9392,-1392,-10377,-1091,2025-02-17 10:52:38,0.0
-12412,228,9780,-717,-10002,-696,2025-02-17 10:52:38,0.0
-14304,1460,11904,-156,-9687,185,2025-02-17 10:52:38,0.0
-17048,2344,16084,-81,-8599,-707,2025-02-17 10:52:38,0.0
-20004,4720,20200,-383,-7681,-3170,2025-02-17 10:52:38,0.0
-23480,4336,19336,2051,-4702,-3413,2025-02-17 10:52:39,0.0
-27016,5524,11356,1618,2783,-3822,2025-02-17 10:52:39,0.0
-21628,2260,8176,2917,-893,45,2025-02-17 10:52:39,0.0
-13100,1404,6248,2656,-4403,1037,2025-02-17 10:52:39,0.0
-7584,-320,9780,1907,-2822,612,2025-02-17 10:52:39,0.0
-7928,2068,11260,555,2343,37,2025-02-17 10:52:39,0.0
-10180,2480,9712,-999,5634,-370,2025-02-17 10:52:39,0.0
-12640,1668,8116,-1728,4420,-236,2025-02-17 10:52:39,0.0
-13408,1396,8212,-2696,408,-41,2025-02-17 10:52:39,0.0
-12228,1332,8656,-2920,-1653,-257,2025-02-17 10:52:39,0.0
-12288,920,9656,-2604,-2562,-464,2025-02-17 10:52:39,0.0
-11008,1224,9384,-2180,-3061,-683,2025-02-17 10:52:39,0.0
-10908,828,9836,-1730,-3078,-566,2025-02-17 10:52:39,0.0
-11592,672,9756,-865,-2799,-573,2025-02-17 10:52:39,0.0
-13844,56,8352,-27,-1376,182,2025-02-17 10:52:39,0.0
-13440,-96,6160,143,-1697,451,2025-02-17 10:52:39,0.0
-14016,1000,8412,183,-5143,235,2025-02-17 10:52:39,0.0
-11320,2216,8608,-252,-6403,-669,2025-02-17 10:52:39,0.0
-10072,2268,8916,-454,-4839,-2002,2025-02-17 10:52:39,0.0
-10228,2700,8660,-811,-2428,-2408,2025-02-17 10:52:39,0.0
-10864,1500,8144,-963,-2486,-3064,2025-02-17 10:52:39,0.0
-13248,1812,9104,-628,-2974,-3405,2025-02-17 10:52:39,0.0
-14684,1216,9712,-435,-2332,-2165,2025-02-17 10:52:39,0.0
-14272,564,9920,-397,-2065,-1258,2025-02-17 10:52:39,0.0
-13968,1004,9388,-642,-2647,-682,2025-02-17 10:52:39,0.0
-11768,560,9752,-727,-3449,-789,2025-02-17 10:52:39,0.0
-10924,184,9692,-618,-3560,-1082,2025-02-17 10:52:39,0.0
-6712,-988,9464,-515,-2583,-1011,2025-02-17 10:52:39,0.0
-10804,68,9576,-438,-2929,-1806,2025-02-17 10:52:39,0.0
-11660,-452,10356,-351,-3086,-1885,2025-02-17 10:52:39,0.0
-11700,-456,10508,-115,-3130,-1838,2025-02-17 10:52:39,0.0
-11588,-628,11048,1,-3040,-1906,2025-02-17 10:52:39,0.0
-11716,-836,11956,374,-3294,-2338,2025-02-17 10:52:39,0.0
-9988,-1144,11156,943,-2818,-2888,2025-02-17 10:52:39,0.0
-10936,-788,12644,1537,-2831,-3115,2025-02-17 10:52:39,0.0
-10916,-72,12120,1409,-2776,-2947,2025-02-17 10:52:39,0.0
-10388,524,11820,1502,-3033,-2643,2025-02-17 10:52:39,0.0
-11216,1124,11976,914,-2373,-2068,2025-02-17 10:52:39,0.0
-10480,1028,11108,465,-1820,-1614,2025-02-17 10:52:39,0.0
-10280,592,12036,67,-712,-1638,2025-02-17 10:52:39,0.0
-8384,160,11928,241,-1265,-1724,2025-02-17 10:52:39,0.0
-9756,652,11496,117,-522,-2060,2025-02-17 10:52:39,0.0
-10820,904,11784,-86,-729,-2151,2025-02-17 10:52:39,0.0
-11192,504,11352,-532,-851,-2016,2025-02-17 10:52:39,0.0
-11208,-128,11364,-844,-1376,-1837,2025-02-17 10:52:39,0.0
-11316,-880,10476,-132,-655,-488,2025-02-17 10:52:39,0.0
-11168,-236,10512,-360,-441,-291,2025-02-17 10:52:39,0.0
-10608,-576,10668,-177,-431,-142,2025-02-17 10:52:39,0.0
-10640,-684,10788,-36,-845,-173,2025-02-17 10:52:39,0.0
-11008,-700,11704,240,-274,98,2025-02-17 10:52:39,0.0
-10860,-672,11052,383,423,332,2025-02-17 10:52:39,0.0
-8508,-932,10908,581,595,702,2025-02-17 10:52:39,0.0
-10588,-228,10588,296,-81,1097,2025-02-17 10:52:39,0.0
-10332,-212,11444,234,-652,886,2025-02-17 10:52:40,0.0
-10204,300,11324,-135,-156,274,2025-02-17 10:52:40,0.0
-10808,248,11288,-281,186,-3,2025-02-17 10:52:40,0.0
-11144,-4,11236,-349,-172,122,2025-02-17 10:52:40,0.0
-10900,172,11712,-250,-179,293,2025-02-17 10:52:40,0.0
-10684,124,11360,-201,99,251,2025-02-17 10:52:40,0.0
-11072,-12,11280,-192,-70,203,2025-02-17 10:52:40,0.0
-10980,-12,10968,-312,-339,165,2025-02-17 10:52:40,0.0
-11008,-212,11168,-390,-316,187,2025-02-17 10:52:40,
-10964,-96,11476,-413,-72,39,2025-02-17 10:52:40,0.0
-11024,-64,11312,-419,-67,0,2025-02-17 10:52:40,0.0
-10704,-136,11348,-536,-160,-154,2025-02-17 10:52:40,0.0
-10588,-12,11536,-532,-50,-347,2025-02-17 10:52:40,0.0
-10708,-56,11580,-416,84,-282,2025-02-17 10:52:40,0.0
-10944,-628,10900,-436,238,-243,2025-02-17 10:52:40,0.0
-11280,-324,11416,-266,184,176,2025-02-17 10:52:40,0.0
-11032,-492,10664,-183,-44,27,2025-02-17 10:52:40,0.0
-10892,-720,11172,-315,-178,-140,2025-02-17 10:52:40,0.0
-10776,-792,11224,-310,-210,-368,2025-02-17 10:52:40,0.0
-10892,-688,11464,-233,-88,-462,2025-02-17 10:52:40,0.0
-10888,-708,11668,79,83,-359,2025-02-17 10:52:40,0.0
-11288,-524,11484,258,-28,-148,2025-02-17 10:52:40,0.0
-11432,-768,11212,394,-221,90,2025-02-17 10:52:40,0.0
-10572,-252,11492,417,-227,430,2025-02-17 10:52:40,0.0
-10204,-260,11176,317,227,92,2025-02-17 10:52:40,0.0
-10572,-556,11068,144,386,-170,2025-02-17 10:52:40,0.0
-10572,-464,10880,304,34,-145,2025-02-17 10:52:40,0.0
-10536,-104,11264,294,67,-101,2025-02-17 10:52:40,0.0
-10748,224,11460,121,102,-248,2025-02-17 10:52:40,0.0
-10780,156,11776,304,201,-239,2025-02-17 10:52:40,0.0
-10692,164,11612,325,416,-231,2025-02-17 10:52:40,0.0
-10840,272,11508,281,529,-341,2025-02-17 10:52:40,0.0
-11040,-156,11516,107,595,-376,2025-02-17 10:52:40,0.0
-11220,108,11708,158,794,-305,2025-02-17 10:52:40,0.0
-10776,52,11380,319,741,-316,2025-02-17 10:52:40,0.0
-10756,48,11208,334,732,-424,2025-02-17 10:52:40,0.0
-10680,80,10876,275,732,-483,2025-02-17 10:52:40,0.0
-10800,308,10864,79,705,-650,2025-02-17 10:52:40,0.0
-11312,420,10900,128,266,-626,2025-02-17 10:52:40,0.0
-11968,472,11464,347,-309,-339,2025-02-17 10:52:40,0.0
-10828,480,11140,429,-791,-701,2025-02-17 10:52:40,0.0
-11128,248,11652,263,-812,-403,2025-02-17 10:52:40,0.0
-11100,104,11204,-167,31,-615,2025-02-17 10:52:40,0.0
-11336,-936,11680,-608,670,-202,2025-02-17 10:52:40,0.0
-11524,-972,11824,-427,446,-138,2025-02-17 10:52:40,0.0
-11396,-944,11256,-235,282,-30,2025-02-17 10:52:40,0.0
-10284,-700,10808,-291,190,16,2025-02-17 10:52:40,0.0
-10068,-484,10824,-454,270,-438,2025-02-17 10:52:40,0.0
-10524,-364,11244,-537,555,-540,2025-02-17 10:52:40,0.0
-11216,-308,11512,-329,299,-308,2025-02-17 10:52:40,0.0
-11584,24,11580,-113,67,-64,2025-02-17 10:52:40,0.0
-11600,80,11240,21,-70,52,2025-02-17 10:52:40,0.0
-11104,-80,11116,-21,-115,-86,2025-02-17 10:52:40,0.0
-10952,-340,11172,-180,-24,-146,2025-02-17 10:52:40,0.0
-10536,-308,11160,-235,48,-304,2025-02-17 10:52:40,0.0
-10484,-188,11484,-274,82,-420,2025-02-17 10:52:40,0.0
-10700,-220,11464,-233,249,-473,2025-02-17 10:52:40,0.0
-10896,-192,11304,-219,336,-416,2025-02-17 10:52:40,0.0
-11452,-288,11140,-1,254,-377,2025-02-17 10:52:41,0.0
-11120,-260,11304,42,-46,32,2025-02-17 10:52:41,0.0
-10776,-56,11312,-35,106,-57,2025-02-17 10:52:41,0.0
-10600,68,11344,-125,330,-207,2025-02-17 10:52:41,0.0
-10520,104,11212,-243,370,-331,2025-02-17 10:52:41,0.0
-10776,-16,11296,-369,432,-395,2025-02-17 10:52:41,0.0
-11012,-4,11436,-341,400,-270,2025-02-17 10:52:41,0.0
-12056,-12,12680,-206,582,236,2025-02-17 10:52:41,0.0
-11020,12,11560,-221,592,59,2025-02-17 10:52:41,0.0
-10988,-116,11312,-301,549,-22,2025-02-17 10:52:41,0.0
-11128,-264,11568,-311,506,117,2025-02-17 10:52:41,0.0
-10704,-88,11216,-392,586,-99,2025-02-17 10:52:41,0.0
-11000,-384,11340,-487,747,-118,2025-02-17 10:52:41,0.0
-10872,-376,11084,-552,815,-157,2025-02-17 10:52:41,0.0
-11184,-328,11312,-662,892,-222,2025-02-17 10:52:41,0.0
-11032,-368,11228,-628,709,-113,2025-02-17 10:52:41,0.0
-10780,-296,11396,-678,777,5,2025-02-17 10:52:41,0.0
-10672,-336,11512,-629,1110,-6,2025-02-17 10:52:41,0.0
-11200,-472,11796,-458,1653,36,2025-02-17 10:52:41,0.0
-11328,-624,11480,-286,1399,254,2025-02-17 10:52:41,0.0
-10696,-516,10512,-148,987,-149,2025-02-17 10:52:41,0.0
-10968,-772,10756,-240,511,-395,2025-02-17 10:52:41,0.0
-11040,-536,10540,-127,196,-475,2025-02-17 10:52:41,0.0
-11176,-532,10980,-40,1,-449,2025-02-17 10:52:41,0.0
-11024,-436,10924,50,-141,-391,2025-02-17 10:52:41,0.0
-10896,-308,10676,14,-18,-397,2025-02-17 10:52:41,0.0
-11080,-260,10600,-9,-85,-402,2025-02-17 10:52:41,0.0
-11120,-132,10456,-7,-27,-377,2025-02-17 10:52:41,0.0
-11032,-56,10624,-94,-53,-462,2025-02-17 10:52:41,0.0
-12260,-76,11064,-286,44,-366,2025-02-17 10:52:41,0.0
-11732,392,10736,-124,321,-260,2025-02-17 10:52:41,0.0
-11152,180,11436,-78,134,-171,2025-02-17 10:52:41,0.0
-11356,96,11068,-122,69,-173,2025-02-17 10:52:41,0.0
-10972,-32,11100,-44,523,123,2025-02-17 10:52:41,0.0
-10984,-280,11304,-47,431,31,2025-02-17 10:52:41,0.0
-10856,-192,10964,-61,402,-40,2025-02-17 10:52:41,0.0
-10908,-312,11004,-136,58,-199,2025-02-17 10:52:41,0.0
-10852,-328,11136,-257,-137,-295,2025-02-17 10:52:41,0.0
-10712,-320,11016,-352,-172,-415,2025-02-17 10:52:41,0.0
-11072,-336,10984,-390,-96,-411,2025-02-17 10:52:41,0.0
-11228,-412,11164,-367,-186,-300,2025-02-17 10:52:41,0.0
-11148,-432,11080,-306,38,-289,2025-02-17 10:52:41,0.0
-11356,-396,11272,-282,110,-169,2025-02-17 10:52:41,0.0
-11232,-380,11436,-228,86,-99,2025-02-17 10:52:41,0.0
-11072,-448,11104,-249,313,-209,2025-02-17 10:52:41,0.0
-11316,-424,10900,-191,368,-192,2025-02-17 10:52:41,0.0
-11324,-488,10872,-99,267,-138,2025-02-17 10:52:41,0.0
-11288,-328,10828,-85,10,-129,2025-02-17 10:52:41,0.0
-11000,-372,10960,-70,-102,-209,2025-02-17 10:52:41,0.0
-11012,-372,11120,-13,154,-183,2025-02-17 10:52:41,0.0
-11116,-284,11280,-13,358,-74,2025-02-17 10:52:41,
-11208,-292,11220,-51,418,-29,2025-02-17 10:52:41,0.0
-10972,-316,11292,-57,517,-105,2025-02-17 10:52:41,0.0
-10912,-340,11032,-24,587,-132,2025-02-17 10:52:41,0.0
-10972,-164,11076,18,500,-103,2025-02-17 10:52:41,0.0
-11076,-192,10828,-54,291,-147,2025-02-17 10:52:41,0.0
-11028,-160,11040,-73,-35,-171,2025-02-17 10:52:41,0.0
-11052,-152,10760,-115,-48,-100,2025-02-17 10:52:41,0.0
-10936,-300,10920,-116,181,-111,2025-02-17 10:52:41,0.0
-11200,-172,10880,-131,87,-86,2025-02-17 10:52:41,0.0
-11200,-104,10996,-117,-21,-68,2025-02-17 10:52:41,0.0
-11132,-108,10648,-113,-55,-82,2025-02-17 10:52:41,0.0
-11132,-132,10844,-66,-227,4,2025-02-17 10:52:41,0.0
-11024,-252,10968,-46,-177,-17,2025-02-17 10:52:42,0.0
-10960,-292,11284,-86,-138,-43,2025-02-17 10:52:42,0.0
-11068,-324,11332,-146,-64,-82,2025-02-17 10:52:42,0.0
-10992,-264,11544,-137,134,-134,2025-02-17 10:52:42,0.0
-11008,-328,11180,-209,128,-199,2025-02-17 10:52:42,0.0
-11056,-308,11160,-300,252,-164,2025-02-17 10:52:42,0.0
-10948,-200,11360,-276,269,-138,2025-02-17 10:52:42,0.0
-11068,-212,11200,-239,378,-107,2025-02-17 10:52:42,0.0
-11124,-376,11024,-232,525,-45,2025-02-17 10:52:42,0.0
-11128,-376,11332,-204,362,-7,2025-02-17 10:52:42,0.0
-10804,-424,11324,-185,539,2,2025-02-17 10:52:42,0.0
-10940,-360,11232,-182,745,-38,2025-02-17 10:52:42,0.0
-10992,-352,10720,-257,485,-179,2025-02-17 10:52:42,0.0
-11032,-240,10876,-163,311,-232,2025-02-17 10:52:42,0.0
-11288,-308,11020,-79,302,-159,2025-02-17 10:52:42,0.0
-11524,-232,10932,-51,240,-183,2025-02-17 10:52:42,0.0
