acceleration_x,acceleration_y,acceleration_z,gyroscope_x,gyroscope_y,gyroscope_z,timestamp,label
-104.79999999999929,-100.80000000000018,108.39999999999964,-117.5,-49.5,-54.5,2025-01-29 12:01:45,0.0
-56.79999999999927,-8.800000000000182,28.39999999999964,-53.5,-57.5,-11.5,2025-01-29 12:01:45,0.0
75.20000000000073,-40.80000000000018,12.399999999999636,-31.5,-75.5,1.5,2025-01-29 12:01:45,0.0
79.20000000000073,7.199999999999818,64.39999999999964,-18.5,-32.5,-1.5,2025-01-29 12:01:45,1
67.20000000000073,43.19999999999982,-231.6000000000004,-5.5,37.5,-5.5,2025-01-29 12:01:45,1
91.20000000000071,31.199999999999815,68.39999999999964,7.5,99.5,-5.5,2025-01-29 12:01:45,1
-68.79999999999927,7.199999999999818,160.39999999999964,45.5,117.5,-23.5,2025-01-29 12:01:45,1
-76.79999999999927,7.199999999999818,-67.60000000000036,48.5,51.5,12.5,2025-01-29 12:01:45,1
-12.799999999999272,27.199999999999815,0.3999999999996362,65.5,-32.5,44.5,2025-01-29 12:01:45,1
7.200000000000728,27.199999999999815,-143.60000000000036,59.5,-58.5,43.5,2025-01-29 12:01:45,1
-72.79999999999927,31.199999999999815,12.399999999999636,32.5,-49.5,40.5,2025-01-29 12:01:45,1
55.20000000000073,119.19999999999982,-91.60000000000036,23.5,12.5,28.5,2025-01-29 12:01:45,1
127.20000000000071,63.19999999999982,-151.60000000000036,26.5,36.5,8.5,2025-01-29 12:01:45,1
-12.799999999999272,15.199999999999818,148.39999999999964,-17.5,86.5,-10.5,2025-01-29 12:01:45,1
-68.79999999999927,55.19999999999982,-195.6000000000004,15.5,72.5,-22.5,2025-01-29 12:01:45,1
-12.799999999999272,7.199999999999818,-99.60000000000036,-20.5,6.5,-4.5,2025-01-29 12:01:45,1
-88.79999999999927,19.199999999999815,-175.60000000000036,-32.5,-71.5,-24.5,2025-01-29 12:01:45,1
35.20000000000073,63.19999999999982,-43.60000000000037,-65.5,-76.5,-6.5,2025-01-29 12:01:45,1
-8.799999999999272,27.199999999999815,124.39999999999964,-53.5,8.5,-32.5,2025-01-29 12:01:45,1
15.200000000000728,7.199999999999818,-91.60000000000036,6.5,-7.5,-10.5,2025-01-29 12:01:45,1
15.200000000000728,-28.800000000000185,-87.60000000000036,5.5,16.5,-15.5,2025-01-29 12:01:45,1
103.20000000000071,-64.80000000000018,-79.60000000000036,-23.5,45.5,-34.5,2025-01-29 12:01:45,1
75.20000000000073,71.19999999999982,-47.60000000000037,30.5,39.5,-50.5,2025-01-29 12:01:45,1
99.20000000000071,95.19999999999982,44.39999999999964,-44.5,8.5,-30.5,2025-01-29 12:01:45,1
-156.79999999999927,71.19999999999982,140.39999999999964,-83.5,-24.5,-10.5,2025-01-29 12:01:45,1
-72.79999999999927,31.199999999999815,100.39999999999964,-93.5,-102.5,-15.5,2025-01-29 12:01:45,1
131.20000000000073,-72.80000000000018,64.39999999999964,-112.5,-60.5,-19.5,2025-01-29 12:01:45,1
143.20000000000073,-28.800000000000185,104.39999999999964,-94.5,-17.5,-82.5,2025-01-29 12:01:45,1
87.20000000000073,35.19999999999982,-71.60000000000036,-50.5,103.5,-90.5,2025-01-29 12:01:45,1
179.20000000000073,87.19999999999982,-123.60000000000036,-111.5,163.5,-100.5,2025-01-29 12:01:46,1
155.20000000000073,83.19999999999982,-139.60000000000036,-152.5,231.5,-150.5,2025-01-29 12:01:46,1
195.20000000000076,-4.800000000000182,-107.60000000000036,-195.5,288.5,-251.5,2025-01-29 12:01:46,1
375.2000000000007,-124.80000000000018,-63.60000000000037,-219.5,424.5,-361.5,2025-01-29 12:01:46,1
255.20000000000076,-224.80000000000015,-235.6000000000004,-276.5,580.5,-428.5,2025-01-29 12:01:46,1
207.20000000000076,-252.80000000000015,-135.60000000000036,-262.5,686.5,-477.5,2025-01-29 12:01:46,1
255.20000000000076,-272.8000000000002,-319.6000000000004,-335.5,732.5,-640.5,2025-01-29 12:01:46,1
23.200000000000728,-0.8000000000001819,-327.6000000000004,-528.5,614.5,-826.5,2025-01-29 12:01:46,1
-224.79999999999927,31.199999999999815,-319.6000000000004,-662.5,402.5,-865.5,2025-01-29 12:01:46,1
-320.7999999999993,-212.80000000000015,-215.6000000000004,-630.5,166.5,-807.5,2025-01-29 12:01:46,1
-20.799999999999272,-548.8000000000002,-491.6000000000004,-565.5,85.5,-820.5,2025-01-29 12:01:46,1
199.20000000000076,-696.8000000000002,-379.6000000000004,-587.5,97.5,-914.5,2025-01-29 12:01:46,1
119.20000000000071,-732.8000000000002,-203.6000000000004,-617.5,57.5,-941.5,2025-01-29 12:01:46,1
-28.799999999999272,-848.8000000000002,-27.600000000000364,-570.5,-116.5,-785.5,2025-01-29 12:01:46,1
-224.79999999999927,-692.8000000000002,184.39999999999964,-582.5,-372.5,-523.5,2025-01-29 12:01:46,1
-348.7999999999993,-264.8000000000002,176.39999999999964,-732.5,-914.5,57.5,2025-01-29 12:01:46,1
-24.799999999999272,-432.8000000000002,76.39999999999964,-820.5,-1358.5,640.5,2025-01-29 12:01:46,1
339.2000000000007,-396.8000000000002,-195.6000000000004,-1109.5,-1152.5,615.5,2025-01-29 12:01:46,1
99.20000000000071,-584.8000000000002,100.39999999999964,-1219.5,-614.5,494.5,2025-01-29 12:01:46,1
-376.7999999999993,-996.8000000000002,324.39999999999964,-1153.5,-277.5,445.5,2025-01-29 12:01:46,1
-1016.7999999999992,-1092.8000000000002,812.3999999999996,-1056.5,-397.5,514.5,2025-01-29 12:01:46,1
-1564.7999999999993,-960.8000000000002,756.3999999999996,-896.5,-943.5,937.5,2025-01-29 12:01:46,1
-1292.7999999999993,-684.8000000000002,508.3999999999997,-779.5,-1612.5,1562.5,2025-01-29 12:01:46,1
-588.7999999999993,-372.8000000000002,-179.60000000000036,-977.5,-1932.5,1872.5,2025-01-29 12:01:46,1
443.2000000000007,-124.80000000000018,-671.6000000000004,-1050.5,-1852.5,2089.5,2025-01-29 12:01:46,1
1507.2000000000007,151.19999999999982,-1019.6000000000004,-881.5,-902.5,1926.5,2025-01-29 12:01:46,1
2075.2000000000007,687.1999999999998,-1927.6000000000004,-1097.5,364.5,1372.5,2025-01-29 12:01:46,1
1723.2000000000007,1267.1999999999998,-1147.6000000000004,-1636.5,1645.5,718.5,2025-01-29 12:01:46,1
931.2000000000008,2151.2,-463.6000000000004,-1819.5,2094.5,317.5,2025-01-29 12:01:46,1
-240.79999999999927,3367.2,-755.6000000000004,-2079.5,1966.5,698.5,2025-01-29 12:01:46,1
59.20000000000073,3855.2,-599.6000000000004,-2472.5,1708.5,704.5,2025-01-29 12:01:46,1
447.2000000000007,3271.2,-303.6000000000004,-3207.5,1278.5,-146.5,2025-01-29 12:01:46,1
-232.79999999999927,2119.2,728.3999999999996,-3644.5,1133.5,-962.5,2025-01-29 12:01:46,1
-1004.7999999999992,863.1999999999998,3436.4,-3320.5,986.5,-904.5,2025-01-29 12:01:46,1
-1900.7999999999995,527.1999999999998,4824.4,-1949.5,1322.5,-326.5,2025-01-29 12:01:46,1
-2564.7999999999997,255.19999999999985,5164.4,-538.5,2178.5,560.5,2025-01-29 12:01:46,1
-2696.7999999999997,391.1999999999998,3300.4,547.5,2367.5,1229.5,2025-01-29 12:01:46,1
-2480.7999999999997,1591.1999999999998,1656.3999999999996,1043.5,1948.5,1771.5,2025-01-29 12:01:46,1
-2092.7999999999997,2923.2,760.3999999999996,879.5,1087.5,2382.5,2025-01-29 12:01:46,1
-856.7999999999993,3643.2,1040.3999999999996,615.5,-41.5,2577.5,2025-01-29 12:01:46,1
243.20000000000076,3491.2,1960.4,569.5,-769.5,2232.5,2025-01-29 12:01:46,1
519.2000000000007,2515.2,2712.4,851.5,-572.5,1588.5,2025-01-29 12:01:46,1
427.2000000000007,1427.1999999999998,3576.4,1426.5,6.5,999.5,2025-01-29 12:01:46,1
-576.7999999999993,823.1999999999998,3172.4,2267.5,501.5,633.5,2025-01-29 12:01:46,1
-1500.7999999999993,943.1999999999998,2612.4,2960.5,842.5,567.5,2025-01-29 12:01:46,1
-2408.7999999999997,1211.1999999999998,2548.4,3378.5,379.5,628.5,2025-01-29 12:01:46,1
-2160.7999999999997,1843.2,3608.4,3621.5,-1264.5,458.5,2025-01-29 12:01:46,1
-840.7999999999993,3211.2,3436.4,3820.5,-3583.5,-191.5,2025-01-29 12:01:46,1
51.20000000000073,3115.2,1416.3999999999996,3761.5,-4265.5,-483.5,2025-01-29 12:01:46,1
399.2000000000007,2251.2,-439.6000000000004,3869.5,-2381.5,-260.5,2025-01-29 12:01:46,1
363.2000000000007,2403.2,-3375.6000000000004,3569.5,351.5,69.5,2025-01-29 12:01:46,1
-592.7999999999993,2939.2,-3963.6,2008.5,2531.5,1015.5,2025-01-29 12:01:46,1
-468.7999999999993,2975.2,-3031.6000000000004,650.5,2705.5,1751.5,2025-01-29 12:01:46,1
351.2000000000007,1843.2,-2015.6000000000004,-411.5,370.5,1349.5,2025-01-29 12:01:46,1
683.2000000000007,-16.800000000000182,-991.6000000000004,-446.5,-1777.5,-255.5,2025-01-29 12:01:46,1
259.2000000000007,-992.8000000000002,-1555.6000000000004,489.5,-1375.5,-1692.5,2025-01-29 12:01:46,1
-244.79999999999927,-956.8000000000002,-2431.6000000000004,1036.5,-710.5,-2626.5,2025-01-29 12:01:46,1
-1136.7999999999993,-320.8000000000002,-2115.6000000000004,1247.5,-400.5,-3173.5,2025-01-29 12:01:46,1
-1736.7999999999993,651.1999999999998,-1675.6000000000004,1146.5,-1367.5,-2662.5,2025-01-29 12:01:46,1
-1616.7999999999993,1147.1999999999998,-1063.6000000000004,537.5,-3103.5,-1953.5,2025-01-29 12:01:46,1
-288.7999999999993,387.1999999999998,112.39999999999964,-173.5,-4289.5,-2092.5,2025-01-29 12:01:46,1
355.2000000000007,-516.8000000000002,996.3999999999996,-639.5,-4010.5,-2570.5,2025-01-29 12:01:46,1
791.2000000000007,-1208.8000000000002,1644.3999999999996,-659.5,-2966.5,-2894.5,2025-01-29 12:01:47,1
1487.2000000000007,-1692.8000000000002,1404.3999999999996,-367.5,-1846.5,-2933.5,2025-01-29 12:01:47,1
1807.2000000000007,-1724.8000000000002,840.3999999999996,-26.5,-774.5,-3035.5,2025-01-29 12:01:47,1
1731.2000000000007,-1420.8000000000002,816.3999999999996,169.5,486.5,-2994.5,2025-01-29 12:01:47,1
1239.2000000000007,-1080.8000000000002,760.3999999999996,474.5,1758.5,-3061.5,2025-01-29 12:01:47,1
439.2000000000007,-936.8000000000002,1288.3999999999996,704.5,2308.5,-3302.5,2025-01-29 12:01:47,1
-152.79999999999927,-1064.8000000000002,1400.3999999999996,931.5,1823.5,-3540.5,2025-01-29 12:01:47,1
-924.7999999999992,-1348.8000000000002,1396.3999999999996,1153.5,701.5,-3232.5,2025-01-29 12:01:47,1
-1384.7999999999993,-1292.8000000000002,1352.3999999999996,1186.5,-122.5,-2380.5,2025-01-29 12:01:47,1
-936.7999999999992,-1340.8000000000002,1388.3999999999996,1022.5,-739.5,-1476.5,2025-01-29 12:01:47,1
135.20000000000073,-1088.8000000000002,1468.3999999999996,790.5,-983.5,-1103.5,2025-01-29 12:01:47,1
679.2000000000007,-804.8000000000002,1604.3999999999996,459.5,-880.5,-1085.5,2025-01-29 12:01:47,1
935.2000000000008,-840.8000000000002,1572.3999999999996,93.5,-438.5,-817.5,2025-01-29 12:01:47,1
727.2000000000007,-1092.8000000000002,1940.4,-300.5,378.5,-383.5,2025-01-29 12:01:47,1
483.2000000000007,-1332.8000000000002,1908.4,-599.5,1037.5,-111.5,2025-01-29 12:01:47,1
-108.79999999999929,-1112.8000000000002,2196.4,-745.5,1296.5,66.5,2025-01-29 12:01:47,1
-728.7999999999993,-796.8000000000002,1780.3999999999996,-921.5,1107.5,212.5,2025-01-29 12:01:47,1
-924.7999999999992,-380.8000000000002,1760.3999999999996,-1351.5,498.5,295.5,2025-01-29 12:01:47,1
-1080.7999999999993,-192.80000000000015,1424.3999999999996,-1759.5,-245.5,359.5,2025-01-29 12:01:47,1
-740.7999999999993,-480.8000000000002,1536.3999999999996,-2152.5,-754.5,455.5,2025-01-29 12:01:47,1
-216.79999999999927,-1068.8000000000002,1236.3999999999996,-2393.5,-780.5,285.5,2025-01-29 12:01:47,1
-36.79999999999927,-1540.8000000000002,1424.3999999999996,-2661.5,-432.5,-79.5,2025-01-29 12:01:47,1
-172.79999999999927,-1312.8000000000002,1664.3999999999996,-2791.5,-251.5,-485.5,2025-01-29 12:01:47,1
-228.79999999999927,-1304.8000000000002,1788.3999999999996,-2725.5,-22.5,-765.5,2025-01-29 12:01:47,1
-40.79999999999927,-1420.8000000000002,1644.3999999999996,-2475.5,390.5,-1180.5,2025-01-29 12:01:47,1
-216.79999999999927,-1448.8000000000002,1820.4,-2548.5,581.5,-1645.5,2025-01-29 12:01:47,1
-576.7999999999993,-1376.8000000000002,1672.3999999999996,-2740.5,520.5,-1955.5,2025-01-29 12:01:47,1
-1384.7999999999993,-796.8000000000002,1416.3999999999996,-3223.5,454.5,-2195.5,2025-01-29 12:01:47,1
-2104.7999999999997,-384.8000000000002,1480.3999999999996,-3757.5,450.5,-2376.5,2025-01-29 12:01:47,1
-2472.7999999999997,-584.8000000000002,1580.3999999999996,-4567.5,373.5,-2365.5,2025-01-29 12:01:47,1
-2520.7999999999997,-1808.8,2672.4,-5065.5,240.5,-1904.5,2025-01-29 12:01:47,1
-1432.7999999999993,-2892.8,2424.4,-4685.5,150.5,-1954.5,2025-01-29 12:01:47,1
-788.7999999999993,-3648.8,740.3999999999996,-3582.5,415.5,-2683.5,2025-01-29 12:01:47,1
-1480.7999999999993,-4424.8,540.3999999999996,-2486.5,1823.5,-3642.5,2025-01-29 12:01:47,1
-3036.7999999999997,-4212.8,920.3999999999996,-727.5,2062.5,-3962.5,2025-01-29 12:01:47,1
-4668.799999999999,-4100.8,-151.60000000000036,871.5,1474.5,-2643.5,2025-01-29 12:01:47,1
-5032.799999999999,-4192.8,-1771.6000000000004,1591.5,425.5,-1106.5,2025-01-29 12:01:47,1
-4880.799999999999,-4724.8,-2015.6000000000004,1675.5,-1010.5,287.5,2025-01-29 12:01:47,1
-3952.7999999999993,-4208.8,-1931.6000000000004,1706.5,-3362.5,2229.5,2025-01-29 12:01:47,1
-1040.7999999999993,-2808.8,-2159.6000000000004,1705.5,-5959.5,4499.5,2025-01-29 12:01:47,1
1791.2000000000007,-1260.8000000000002,-2543.6000000000004,1174.5,-7612.5,6037.5,2025-01-29 12:01:47,1
4059.2000000000007,583.1999999999998,-3303.6000000000004,363.5,-6395.5,6682.5,2025-01-29 12:01:47,1
5747.200000000001,2247.2,-3871.6,-706.5,-3526.5,6164.5,2025-01-29 12:01:47,1
6799.200000000001,3275.2,-2411.6000000000004,-1257.5,-308.5,4222.5,2025-01-29 12:01:47,1
6859.200000000001,3383.2,-655.6000000000004,-582.5,2451.5,781.5,2025-01-29 12:01:47,1
3099.2000000000007,1375.1999999999998,-839.6000000000004,-649.5,4281.5,-1681.5,2025-01-29 12:01:47,1
131.20000000000073,-84.80000000000018,-199.6000000000004,-705.5,6106.5,-1706.5,2025-01-29 12:01:47,1
-2020.7999999999995,-1212.8000000000002,224.39999999999964,-375.5,6527.5,-630.5,2025-01-29 12:01:47,1
-2912.7999999999997,-1444.8000000000002,-7.600000000000364,57.5,5074.5,721.5,2025-01-29 12:01:47,1
-3292.7999999999997,-1484.8000000000002,-519.6000000000004,867.5,1965.5,2501.5,2025-01-29 12:01:47,1
-2340.7999999999997,-1116.8000000000002,-895.6000000000004,1712.5,-1432.5,3967.5,2025-01-29 12:01:47,1
-972.7999999999992,-488.8000000000002,-1083.6000000000004,2105.5,-3098.5,4868.5,2025-01-29 12:01:47,1
603.2000000000007,243.19999999999985,124.39999999999964,2350.5,-3237.5,5461.5,2025-01-29 12:01:47,1
2247.2000000000007,675.1999999999998,912.3999999999996,2723.5,-2715.5,5572.5,2025-01-29 12:01:47,1
3543.2000000000007,811.1999999999998,1080.3999999999996,2955.5,-1649.5,5194.5,2025-01-29 12:01:47,1
4059.2000000000007,1027.1999999999998,820.3999999999996,3130.5,-26.5,4285.5,2025-01-29 12:01:47,1
3579.2000000000007,1407.1999999999998,612.3999999999996,3255.5,1619.5,3421.5,2025-01-29 12:01:47,1
2467.2000000000007,2023.2,376.3999999999997,3003.5,2561.5,2806.5,2025-01-29 12:01:47,1
1415.2000000000007,2631.2,728.3999999999996,2647.5,2936.5,2455.5,2025-01-29 12:01:47,1
503.2000000000007,3003.2,624.3999999999996,2420.5,2620.5,2117.5,2025-01-29 12:01:47,1
419.2000000000007,2879.2,344.39999999999964,2240.5,1510.5,1433.5,2025-01-29 12:01:47,1
1295.2000000000007,1991.2,528.3999999999996,2084.5,614.5,339.5,2025-01-29 12:01:48,1
1459.2000000000007,1147.1999999999998,1116.3999999999996,1951.5,496.5,-456.5,2025-01-29 12:01:48,1
1447.2000000000007,1159.1999999999998,2112.4,1817.5,466.5,-1135.5,2025-01-29 12:01:48,1
1459.2000000000007,1499.1999999999998,2496.4,1602.5,484.5,-1730.5,2025-01-29 12:01:48,1
815.2000000000007,2059.2,2068.4,1320.5,561.5,-2016.5,2025-01-29 12:01:48,1
463.2000000000007,2087.2,776.3999999999996,968.5,531.5,-2035.5,2025-01-29 12:01:48,1
259.2000000000007,1743.1999999999998,-1003.6000000000004,-6.5,177.5,-2109.5,2025-01-29 12:01:48,1
-228.79999999999927,1027.1999999999998,28.39999999999964,-411.5,262.5,-1889.5,2025-01-29 12:01:48,1
-620.7999999999993,187.19999999999985,1272.3999999999996,-44.5,616.5,-1379.5,2025-01-29 12:01:48,1
-940.7999999999992,-388.8000000000002,1880.4,478.5,1057.5,-946.5,2025-01-29 12:01:48,1
-1768.7999999999993,-68.80000000000018,2444.4,1232.5,1388.5,-691.5,2025-01-29 12:01:48,1
-2748.7999999999997,559.1999999999998,2124.4,2034.5,1449.5,-570.5,2025-01-29 12:01:48,1
-3824.7999999999993,663.1999999999998,1548.3999999999996,2312.5,807.5,-83.5,2025-01-29 12:01:48,1
-4560.799999999999,403.1999999999998,1816.4,2402.5,-620.5,937.5,2025-01-29 12:01:48,1
-4212.799999999999,-580.8000000000002,1384.3999999999996,2541.5,-2409.5,2160.5,2025-01-29 12:01:48,1
-3500.7999999999997,-708.8000000000002,1936.4,2876.5,-3755.5,3276.5,2025-01-29 12:01:48,1
-2268.7999999999997,-312.8000000000002,2376.4,3359.5,-4366.5,4425.5,2025-01-29 12:01:48,1
-1360.7999999999993,-368.8000000000002,4148.4,4066.5,-3858.5,5228.5,2025-01-29 12:01:48,1
-92.79999999999929,-308.8000000000002,4984.4,5362.5,-2493.5,5713.5,2025-01-29 12:01:48,1
243.20000000000076,-768.8000000000002,3044.4,6283.5,-1293.5,5807.5,2025-01-29 12:01:48,1
91.20000000000071,-924.8000000000002,164.39999999999964,6976.5,1913.5,5493.5,2025-01-29 12:01:48,1
-2592.7999999999997,1083.1999999999998,-2999.6000000000004,7037.5,5986.5,5504.5,2025-01-29 12:01:48,1
-5056.799999999999,3627.2,-5983.6,6225.5,10604.5,6028.5,2025-01-29 12:01:48,1
-5732.799999999999,5439.2,-7171.6,3425.5,14461.5,6011.5,2025-01-29 12:01:48,1
-2824.7999999999997,5815.2,-6679.6,555.5,14487.5,4450.5,2025-01-29 12:01:48,1
515.2000000000007,4303.2,-7699.6,-632.5,10151.5,1928.5,2025-01-29 12:01:48,1
2795.2000000000007,2179.2,-9251.6,-933.5,2962.5,-769.5,2025-01-29 12:01:48,1
3471.2000000000007,135.19999999999982,-7359.6,-324.5,-6266.5,-2367.5,2025-01-29 12:01:48,1
3683.2000000000007,-1872.8,-5527.6,684.5,-16760.5,-2827.5,2025-01-29 12:01:48,1
4035.2000000000007,-3808.8,-3091.6000000000004,1010.5,-29259.5,-3240.5,2025-01-29 12:01:48,1
3783.2000000000007,-3056.8,8072.4,329.5,-13631.5,-2217.5,2025-01-29 12:01:48,1
6595.200000000001,-3388.8,3196.4,5311.5,-3662.5,-606.5,2025-01-29 12:01:48,1
7163.200000000001,-284.8000000000002,-3407.6000000000004,4861.5,2494.5,-566.5,2025-01-29 12:01:48,1
5735.200000000001,2323.2,-4275.6,2428.5,8024.5,-1903.5,2025-01-29 12:01:48,1
2875.2000000000007,2735.2,-2819.6000000000004,-191.5,11870.5,-4802.5,2025-01-29 12:01:48,1
-412.7999999999993,1599.1999999999998,-1299.6000000000004,-373.5,10700.5,-6818.5,2025-01-29 12:01:48,1
-3040.7999999999997,355.1999999999998,-1663.6000000000004,-1.5,6325.5,-7277.5,2025-01-29 12:01:48,1
-4588.799999999999,-928.8000000000002,-2239.6000000000004,-324.5,22.5,-5608.5,2025-01-29 12:01:48,1
-3408.7999999999997,-1872.8,-1619.6000000000004,-759.5,-6776.5,-3240.5,2025-01-29 12:01:48,1
-680.7999999999993,-1708.8000000000002,480.3999999999997,-779.5,-6806.5,-2025.5,2025-01-29 12:01:48,1
2663.2000000000007,-1572.8000000000002,-207.6000000000004,-1077.5,-6256.5,-2316.5,2025-01-29 12:01:48,1
4387.200000000001,-1108.8000000000002,124.39999999999964,-1143.5,-4956.5,-2909.5,2025-01-29 12:01:48,1
4511.200000000001,-1036.8000000000002,580.3999999999996,-1133.5,-2277.5,-3466.5,2025-01-29 12:01:48,1
3919.2000000000007,-1480.8000000000002,856.3999999999996,-1367.5,1676.5,-4269.5,2025-01-29 12:01:48,1
2655.2000000000007,-1484.8000000000002,1360.3999999999996,-1404.5,3361.5,-4764.5,2025-01-29 12:01:48,1
1055.2000000000007,-1540.8000000000002,1168.3999999999996,-1459.5,3731.5,-5124.5,2025-01-29 12:01:48,1
-632.7999999999993,-1684.8000000000002,768.3999999999996,-1522.5,3043.5,-5145.5,2025-01-29 12:01:48,1
-1484.7999999999993,-1856.8,372.3999999999997,-1626.5,1655.5,-4394.5,2025-01-29 12:01:48,1
-2300.7999999999997,-2272.8,964.3999999999996,-1777.5,110.5,-3159.5,2025-01-29 12:01:48,1
-1204.7999999999993,-2516.8,884.3999999999996,-1728.5,-1201.5,-1838.5,2025-01-29 12:01:48,1
503.2000000000007,-2568.8,916.3999999999996,-1623.5,-1739.5,-1458.5,2025-01-29 12:01:48,1
1435.2000000000007,-2164.8,900.3999999999996,-1617.5,-1618.5,-1397.5,2025-01-29 12:01:48,1
1683.2000000000007,-1708.8000000000002,676.3999999999996,-1775.5,-915.5,-1414.5,2025-01-29 12:01:48,1
1419.2000000000007,-932.8000000000002,660.3999999999996,-2123.5,235.5,-1291.5,2025-01-29 12:01:48,1
1087.2000000000007,-844.8000000000002,692.3999999999996,-2599.5,938.5,-1193.5,2025-01-29 12:01:48,1
491.2000000000007,-884.8000000000002,784.3999999999996,-2957.5,1158.5,-1125.5,2025-01-29 12:01:48,1
799.2000000000007,-1620.8000000000002,1152.3999999999996,-3046.5,1104.5,-1218.5,2025-01-29 12:01:48,1
831.2000000000007,-2416.8,1656.3999999999996,-2813.5,1032.5,-1511.5,2025-01-29 12:01:48,1
1087.2000000000007,-3228.8,1884.4,-2476.5,1078.5,-1857.5,2025-01-29 12:01:48,1
1011.2000000000008,-3488.8,1964.4,-2210.5,1575.5,-2168.5,2025-01-29 12:01:48,1
503.2000000000007,-3032.8,1960.4,-1941.5,1852.5,-2444.5,2025-01-29 12:01:48,1
-180.79999999999927,-2720.8,1732.3999999999996,-1787.5,1295.5,-2478.5,2025-01-29 12:01:49,1
-452.7999999999993,-2744.8,1712.3999999999996,-1822.5,339.5,-2399.5,2025-01-29 12:01:49,1
-480.7999999999993,-2440.8,1656.3999999999996,-1812.5,-407.5,-2127.5,2025-01-29 12:01:49,1
-340.7999999999993,-1744.8000000000002,2136.4,-1862.5,-1307.5,-1474.5,2025-01-29 12:01:49,1
899.2000000000007,-1336.8000000000002,2452.4,-2101.5,-2051.5,-733.5,2025-01-29 12:01:49,1
3131.2000000000007,-1068.8000000000002,2200.4,-2488.5,-1991.5,-604.5,2025-01-29 12:01:49,1
4083.2000000000007,-948.8000000000002,2068.4,-3031.5,-1351.5,-829.5,2025-01-29 12:01:49,1
4471.200000000001,-1400.8000000000002,2340.4,-3530.5,144.5,-1258.5,2025-01-29 12:01:49,1
4067.2000000000007,-1896.8,3376.4,-3652.5,956.5,-1587.5,2025-01-29 12:01:49,1
3119.2000000000007,-2552.8,5164.4,-3155.5,184.5,-1975.5,2025-01-29 12:01:49,1
2055.2000000000007,-3648.8,6220.4,-2268.5,-134.5,-1979.5,2025-01-29 12:01:49,1
1087.2000000000007,-4400.8,6548.4,-841.5,97.5,-1219.5,2025-01-29 12:01:49,1
943.2000000000008,-4804.8,4144.4,715.5,-509.5,-92.5,2025-01-29 12:01:49,1
-296.7999999999993,-3580.8,3604.4,1638.5,-1178.5,1045.5,2025-01-29 12:01:49,1
-828.7999999999993,-1580.8000000000002,4744.4,3175.5,-2069.5,3121.5,2025-01-29 12:01:49,1
2047.2000000000007,-1416.8000000000002,3436.4,5603.5,-3679.5,5943.5,2025-01-29 12:01:49,1
5739.200000000001,-2428.8,940.3999999999996,7149.5,-2735.5,6991.5,2025-01-29 12:01:49,1
8755.2,-2280.8,-1435.6000000000004,7069.5,-1168.5,5730.5,2025-01-29 12:01:49,1
9435.2,-256.8000000000002,-1707.6000000000004,5902.5,1081.5,2731.5,2025-01-29 12:01:49,1
8007.200000000001,1647.1999999999998,-3251.6000000000004,4484.5,2555.5,-182.5,2025-01-29 12:01:49,1
3923.2000000000007,1727.1999999999998,-4511.6,3419.5,1591.5,-2061.5,2025-01-29 12:01:49,1
-2332.7999999999997,2383.2,-5199.6,2457.5,-932.5,-3681.5,2025-01-29 12:01:49,1
-6976.799999999999,2459.2,-5243.6,1315.5,-2212.5,-4549.5,2025-01-29 12:01:49,1
-8576.8,1403.1999999999998,-5651.6,1092.5,-3906.5,-6549.5,2025-01-29 12:01:49,1
-7548.799999999999,671.1999999999998,-8995.6,1182.5,-6148.5,-9854.5,2025-01-29 12:01:49,1
-5436.799999999999,-3820.8,-12215.6,-701.5,-15684.5,-6418.5,2025-01-29 12:01:49,1
-788.7999999999993,-8428.8,-9231.6,-3743.5,-29280.5,5311.5,2025-01-29 12:01:49,1
3987.2000000000007,-8972.8,-11387.6,-4124.5,-19513.5,6608.5,2025-01-29 12:01:49,1
8179.200000000001,-9372.8,-10799.6,-6056.5,-8721.5,2548.5,2025-01-29 12:01:49,1
7447.200000000001,-10304.8,-3259.6000000000004,-6738.5,-2663.5,-5414.5,2025-01-29 12:01:49,1
-6664.799999999999,-7064.8,2568.4,-6926.5,1183.5,-7320.5,2025-01-29 12:01:49,1
-11748.8,-2960.8,9124.4,-5851.5,-16.5,-2146.5,2025-01-29 12:01:49,1
-4.799999999999272,-2388.8,1680.3999999999996,-1314.5,107.5,1469.5,2025-01-29 12:01:49,1
-352.7999999999993,-4740.8,2488.4,-638.5,751.5,1428.5,2025-01-29 12:01:49,1
-888.7999999999993,-3536.8,2204.4,-5.5,1741.5,1875.5,2025-01-29 12:01:49,1
1663.2000000000007,-1064.8000000000002,-555.6000000000004,-310.5,1593.5,2322.5,2025-01-29 12:01:49,1
1779.2000000000007,-124.80000000000018,544.3999999999996,-918.5,1372.5,1976.5,2025-01-29 12:01:49,1
1227.2000000000007,-788.8000000000002,436.3999999999997,-1405.5,1359.5,1361.5,2025-01-29 12:01:49,1
683.2000000000007,-2184.8,356.39999999999964,-1464.5,1367.5,915.5,2025-01-29 12:01:49,1
687.2000000000007,-3128.8,180.39999999999964,-1524.5,1378.5,735.5,2025-01-29 12:01:49,1
683.2000000000007,-3808.8,560.3999999999996,-1209.5,1463.5,266.5,2025-01-29 12:01:49,1
79.20000000000073,-3856.8,1408.3999999999996,-716.5,1541.5,26.5,2025-01-29 12:01:49,1
371.2000000000007,-3840.8,1240.3999999999996,-439.5,1453.5,8.5,2025-01-29 12:01:49,1
367.2000000000007,-3712.8,1060.3999999999996,-781.5,1694.5,165.5,2025-01-29 12:01:49,1
379.2000000000007,-3144.8,1828.4,-1238.5,2310.5,253.5,2025-01-29 12:01:49,1
123.20000000000071,-3008.8,2364.4,-1223.5,2876.5,425.5,2025-01-29 12:01:49,1
-284.7999999999993,-3824.8,1380.3999999999996,-1251.5,2885.5,404.5,2025-01-29 12:01:49,1
-1352.7999999999993,-5636.8,1372.3999999999996,-1179.5,3074.5,570.5,2025-01-29 12:01:49,1
-1956.7999999999995,-6988.8,432.3999999999997,-1112.5,2944.5,1443.5,2025-01-29 12:01:50,1
-1980.7999999999995,-6996.8,-1579.6000000000004,-1178.5,2098.5,1780.5,2025-01-29 12:01:50,1
-1092.7999999999993,-3312.8,-3235.6000000000004,-2241.5,1498.5,1200.5,2025-01-29 12:01:50,1
-268.7999999999993,323.1999999999998,4.399999999999636,-3480.5,377.5,28.5,2025-01-29 12:01:50,1
1395.2000000000007,3963.2,3128.4,-4046.5,776.5,-1555.5,2025-01-29 12:01:50,1
2491.2000000000007,6411.2,5360.4,-4438.5,3155.5,-3608.5,2025-01-29 12:01:50,1
3647.2000000000007,2055.2,5072.4,-3888.5,6583.5,-7051.5,2025-01-29 12:01:50,1
-780.7999999999993,-2864.8,3960.4,-3001.5,8460.5,-9109.5,2025-01-29 12:01:50,1
-4412.799999999999,-6084.8,252.39999999999964,-1948.5,8227.5,-9259.5,2025-01-29 12:01:50,1
-10920.8,-7152.8,-1023.6000000000004,-3237.5,6374.5,-5886.5,2025-01-29 12:01:50,1
-13200.8,-5404.8,2864.4,-2897.5,4037.5,-2384.5,2025-01-29 12:01:50,1
-9820.8,-3272.8,3476.4,-2306.5,1990.5,774.5,2025-01-29 12:01:50,1
-5704.799999999999,-860.8000000000002,2940.4,-2327.5,1836.5,2471.5,2025-01-29 12:01:50,1
-2388.7999999999997,-52.80000000000018,2004.4,-2944.5,2832.5,2929.5,2025-01-29 12:01:50,1
-1360.7999999999993,163.19999999999982,1324.3999999999996,-3742.5,4654.5,2555.5,2025-01-29 12:01:50,1
-2604.7999999999997,-608.8000000000002,2756.4,-3737.5,5754.5,1447.5,2025-01-29 12:01:50,1
-3352.7999999999997,-844.8000000000002,2148.4,-2992.5,4955.5,1224.5,2025-01-29 12:01:50,1
-2984.7999999999997,-76.80000000000018,2536.4,-1913.5,5001.5,1793.5,2025-01-29 12:01:50,1
-732.7999999999993,-724.8000000000002,1928.4,-404.5,5036.5,2499.5,2025-01-29 12:01:50,1
1879.2000000000007,-3616.8,1048.3999999999996,1061.5,6045.5,2116.5,2025-01-29 12:01:50,1
3055.2000000000007,-6104.8,-307.6000000000004,3069.5,7163.5,1476.5,2025-01-29 12:01:50,1
2707.2000000000007,-6724.8,-3235.6000000000004,4960.5,7718.5,853.5,2025-01-29 12:01:50,1
1603.2000000000007,-4732.8,-2895.6000000000004,5494.5,6273.5,1346.5,2025-01-29 12:01:50,1
803.2000000000007,-2232.8,-3111.6000000000004,5530.5,3539.5,2881.5,2025-01-29 12:01:50,1
399.2000000000007,-76.80000000000018,-5603.6,4431.5,142.5,4882.5,2025-01-29 12:01:50,1
1167.2000000000007,1363.1999999999998,-6787.6,1736.5,-3622.5,6707.5,2025-01-29 12:01:50,1
2911.2000000000007,2055.2,-5379.6,-97.5,-5306.5,6885.5,2025-01-29 12:01:50,1
4795.200000000001,1907.2,-4415.6,-772.5,-5554.5,5523.5,2025-01-29 12:01:50,1
5979.200000000001,1027.1999999999998,-3159.6000000000004,-1008.5,-5327.5,3774.5,2025-01-29 12:01:50,1
6187.200000000001,259.1999999999998,-1643.6000000000004,-970.5,-3946.5,2159.5,2025-01-29 12:01:50,1
5319.200000000001,-788.8000000000002,-939.6000000000004,-722.5,-1283.5,1250.5,2025-01-29 12:01:50,1
4375.200000000001,-1504.8000000000002,-1151.6000000000004,-610.5,643.5,1540.5,2025-01-29 12:01:50,1
3695.2000000000007,-2152.8,-1403.6000000000004,-534.5,2125.5,2128.5,2025-01-29 12:01:50,1
2735.2000000000007,-2516.8,-1087.6000000000004,-212.5,3129.5,2723.5,2025-01-29 12:01:50,1
2019.2000000000007,-2184.8,-743.6000000000004,324.5,2925.5,3304.5,2025-01-29 12:01:50,1
1287.2000000000007,-1500.8000000000002,-343.6000000000004,830.5,1675.5,4011.5,2025-01-29 12:01:50,1
811.2000000000007,-688.8000000000002,-231.6000000000004,1424.5,-31.5,4849.5,2025-01-29 12:01:50,1
855.2000000000007,259.1999999999998,-819.6000000000004,2037.5,-1772.5,5588.5,2025-01-29 12:01:50,1
1311.2000000000007,815.1999999999998,-1875.6000000000004,2196.5,-3267.5,6026.5,2025-01-29 12:01:50,1
3043.2000000000007,523.1999999999998,-2359.6000000000004,2062.5,-4514.5,5707.5,2025-01-29 12:01:50,1
4003.2000000000007,75.19999999999982,-1791.6000000000004,1766.5,-5172.5,4800.5,2025-01-29 12:01:50,1
4403.200000000001,315.1999999999998,-923.6000000000004,1739.5,-4664.5,3946.5,2025-01-29 12:01:50,1
4231.200000000001,959.1999999999998,-335.6000000000004,1798.5,-3373.5,3590.5,2025-01-29 12:01:50,1
3671.2000000000007,1799.1999999999998,-1023.6000000000004,1463.5,-2298.5,3848.5,2025-01-29 12:01:50,1
2791.2000000000007,2671.2,-1503.6000000000004,736.5,-1277.5,4292.5,2025-01-29 12:01:50,1
2487.2000000000007,3163.2,-1491.6000000000004,8.5,-101.5,4281.5,2025-01-29 12:01:50,1
2295.2000000000007,3451.2,-1551.6000000000004,-521.5,352.5,3705.5,2025-01-29 12:01:50,1
2467.2000000000007,2875.2,-1635.6000000000004,-679.5,-157.5,2448.5,2025-01-29 12:01:50,1
2587.2000000000007,1583.1999999999998,-1087.6000000000004,-355.5,-1443.5,748.5,2025-01-29 12:01:50,1
1399.2000000000007,471.1999999999998,-387.6000000000004,103.5,-2125.5,-204.5,2025-01-29 12:01:50,1
803.2000000000007,-164.80000000000018,316.39999999999964,633.5,-2303.5,-202.5,2025-01-29 12:01:50,1
243.20000000000076,-56.80000000000018,960.3999999999996,1257.5,-2200.5,232.5,2025-01-29 12:01:50,1
79.20000000000073,431.1999999999998,616.3999999999996,1803.5,-2528.5,921.5,2025-01-29 12:01:50,1
179.20000000000073,807.1999999999998,744.3999999999996,1644.5,-3034.5,1234.5,2025-01-29 12:01:50,1
-164.79999999999927,1079.1999999999998,1440.3999999999996,1595.5,-3222.5,1257.5,2025-01-29 12:01:50,1
31.200000000000728,1267.1999999999998,1440.3999999999996,1720.5,-3684.5,1167.5,2025-01-29 12:01:50,1
783.2000000000007,1255.1999999999998,1092.3999999999996,2079.5,-4177.5,1059.5,2025-01-29 12:01:50,1
1243.2000000000007,1287.1999999999998,844.3999999999996,2329.5,-4015.5,762.5,2025-01-29 12:01:50,1
1259.2000000000007,1163.1999999999998,1752.3999999999996,2485.5,-3117.5,180.5,2025-01-29 12:01:50,1
775.2000000000007,1171.1999999999998,2508.4,3007.5,-2040.5,144.5,2025-01-29 12:01:51,1
399.2000000000007,995.1999999999998,2628.4,3298.5,-1410.5,264.5,2025-01-29 12:01:51,1
-256.7999999999993,887.1999999999998,3280.4,3410.5,-1243.5,385.5,2025-01-29 12:01:51,1
-12.799999999999272,751.1999999999998,2876.4,3554.5,-1368.5,265.5,2025-01-29 12:01:51,1
-232.79999999999927,1207.1999999999998,2752.4,3725.5,-1264.5,221.5,2025-01-29 12:01:51,1
-380.7999999999993,1575.1999999999998,1368.3999999999996,3713.5,-857.5,413.5,2025-01-29 12:01:51,1
-948.7999999999992,1531.1999999999998,752.3999999999996,3570.5,-433.5,881.5,2025-01-29 12:01:51,1
-1252.7999999999993,1667.1999999999998,540.3999999999996,3153.5,-271.5,1330.5,2025-01-29 12:01:51,1
-1848.7999999999995,1635.1999999999998,1160.3999999999996,2666.5,-501.5,1630.5,2025-01-29 12:01:51,1
-2028.7999999999995,1639.1999999999998,1636.3999999999996,2283.5,-780.5,1937.5,2025-01-29 12:01:51,1
-2188.7999999999997,1587.1999999999998,2256.4,2292.5,-1400.5,2481.5,2025-01-29 12:01:51,1
-1476.7999999999993,1335.1999999999998,2452.4,2283.5,-1619.5,2793.5,2025-01-29 12:01:51,1
-1100.7999999999993,1227.1999999999998,3268.4,2570.5,-1358.5,2845.5,2025-01-29 12:01:51,1
-1224.7999999999993,939.1999999999998,2784.4,2899.5,-438.5,3076.5,2025-01-29 12:01:51,1
-1148.7999999999993,-588.8000000000002,1804.4,3027.5,1400.5,3245.5,2025-01-29 12:01:51,1
-1240.7999999999993,-844.8000000000002,1336.3999999999996,3542.5,3255.5,3121.5,2025-01-29 12:01:51,1
-1988.7999999999995,1023.1999999999998,-1375.6000000000004,3380.5,4892.5,3199.5,2025-01-29 12:01:51,1
-2704.7999999999997,3195.2,-3991.6,2341.5,5817.5,4206.5,2025-01-29 12:01:51,1
-2668.7999999999997,5311.2,-5339.6,813.5,5967.5,5335.5,2025-01-29 12:01:51,1
-1408.7999999999993,5831.2,-5251.6,-604.5,5889.5,5077.5,2025-01-29 12:01:51,1
127.20000000000071,5211.2,-3911.6,-1644.5,4794.5,2850.5,2025-01-29 12:01:51,1
823.2000000000007,2939.2,-2315.6000000000004,-1672.5,1924.5,-1186.5,2025-01-29 12:01:51,1
-1300.7999999999993,603.1999999999998,-947.6000000000004,-934.5,-1029.5,-3094.5,2025-01-29 12:01:51,1
-1616.7999999999993,-672.8000000000002,-35.600000000000364,341.5,-3546.5,-2673.5,2025-01-29 12:01:51,1
675.2000000000007,-1152.8000000000002,-2027.6000000000004,1307.5,-4943.5,-2271.5,2025-01-29 12:01:51,1
1711.2000000000007,-820.8000000000002,-3115.6000000000004,1194.5,-4080.5,-2175.5,2025-01-29 12:01:51,1
1875.2000000000007,-316.8000000000002,-2279.6000000000004,987.5,-731.5,-1531.5,2025-01-29 12:01:51,1
1823.2000000000007,-92.80000000000018,-755.6000000000004,1243.5,2395.5,-467.5,2025-01-29 12:01:51,1
1591.2000000000007,83.19999999999982,-503.6000000000004,1492.5,2727.5,-244.5,2025-01-29 12:01:51,1
1339.2000000000007,39.19999999999982,-879.6000000000004,1896.5,2158.5,-169.5,2025-01-29 12:01:51,1
919.2000000000008,-124.80000000000018,-1227.6000000000004,2343.5,1526.5,-200.5,2025-01-29 12:01:51,1
419.2000000000007,191.19999999999985,-1671.6000000000004,2275.5,1045.5,-227.5,2025-01-29 12:01:51,1
195.20000000000076,619.1999999999998,-1223.6000000000004,1886.5,722.5,-515.5,2025-01-29 12:01:51,1
15.200000000000728,1027.1999999999998,-963.6000000000004,1931.5,387.5,-1048.5,2025-01-29 12:01:51,1
163.20000000000073,1087.1999999999998,-1567.6000000000004,1835.5,-360.5,-1580.5,2025-01-29 12:01:51,1
315.2000000000007,855.1999999999998,-1411.6000000000004,1634.5,-1430.5,-2038.5,2025-01-29 12:01:51,1
603.2000000000007,347.1999999999998,-1219.6000000000004,1415.5,-2196.5,-2386.5,2025-01-29 12:01:51,1
1035.2000000000007,-568.8000000000002,-455.6000000000004,1064.5,-2429.5,-2598.5,2025-01-29 12:01:51,1
1567.2000000000007,-1272.8000000000002,152.39999999999964,950.5,-1856.5,-2770.5,2025-01-29 12:01:51,1
1507.2000000000007,-1464.8000000000002,204.39999999999964,1077.5,-979.5,-2736.5,2025-01-29 12:01:51,1
1491.2000000000007,-980.8000000000002,-127.60000000000036,1144.5,-394.5,-2397.5,2025-01-29 12:01:51,1
1587.2000000000007,-440.8000000000002,-459.6000000000004,830.5,-148.5,-2151.5,2025-01-29 12:01:51,1
1567.2000000000007,-212.80000000000015,-335.6000000000004,518.5,164.5,-2224.5,2025-01-29 12:01:51,1
1595.2000000000007,151.19999999999982,-243.6000000000004,257.5,303.5,-2638.5,2025-01-29 12:01:51,1
775.2000000000007,499.1999999999998,-67.60000000000036,-176.5,-42.5,-2843.5,2025-01-29 12:01:51,1
107.20000000000071,487.1999999999998,-147.60000000000036,-774.5,-597.5,-2422.5,2025-01-29 12:01:51,1
463.2000000000007,-24.800000000000185,-23.600000000000364,-1379.5,-1055.5,-1844.5,2025-01-29 12:01:51,1
695.2000000000007,-572.8000000000002,700.3999999999996,-1674.5,-1126.5,-1476.5,2025-01-29 12:01:51,1
751.2000000000007,-868.8000000000002,700.3999999999996,-1729.5,-945.5,-1206.5,2025-01-29 12:01:51,1
643.2000000000007,-856.8000000000002,656.3999999999996,-1994.5,-590.5,-1059.5,2025-01-29 12:01:51,1
323.2000000000007,-920.8000000000002,744.3999999999996,-2231.5,-407.5,-1115.5,2025-01-29 12:01:51,7
-124.79999999999929,-832.8000000000002,1152.3999999999996,-2425.5,-308.5,-971.5,2025-01-29 12:01:51,7
-552.7999999999993,-432.8000000000002,1416.3999999999996,-2752.5,-468.5,-695.5,2025-01-29 12:01:51,7
-484.7999999999993,175.19999999999982,1476.3999999999996,-3069.5,-1107.5,-712.5,2025-01-29 12:01:51,7
-660.7999999999993,723.1999999999998,992.3999999999996,-3808.5,-1639.5,-836.5,2025-01-29 12:01:51,7
-456.7999999999993,1019.1999999999998,664.3999999999996,-4774.5,-2175.5,-1301.5,2025-01-29 12:01:51,7
-600.7999999999993,979.1999999999998,456.3999999999997,-5362.5,-2430.5,-1656.5,2025-01-29 12:01:51,7
-560.7999999999993,803.1999999999998,1048.3999999999996,-5962.5,-2673.5,-2224.5,2025-01-29 12:01:51,7
-580.7999999999993,695.1999999999998,1488.3999999999996,-6052.5,-3460.5,-2758.5,2025-01-29 12:01:51,7
115.20000000000071,-620.8000000000002,1432.3999999999996,-5880.5,-4594.5,-3254.5,2025-01-29 12:01:51,7
631.2000000000007,-2164.8,2128.4,-5925.5,-3990.5,-3988.5,2025-01-29 12:01:51,7
463.2000000000007,-2588.8,2832.4,-5843.5,-2032.5,-4891.5,2025-01-29 12:01:52,7
-60.79999999999927,-2072.8,2416.4,-6103.5,-1120.5,-5957.5,2025-01-29 12:01:52,7
-1284.7999999999993,-264.8000000000002,1100.3999999999996,-6740.5,-1324.5,-7102.5,2025-01-29 12:01:52,7
-2276.7999999999997,1999.2,-907.6000000000004,-7410.5,-2417.5,-8039.5,2025-01-29 12:01:52,7
-3412.7999999999997,2467.2,-2827.6000000000004,-7933.5,-3541.5,-7745.5,2025-01-29 12:01:52,7
-2908.7999999999997,-84.80000000000018,-3475.6000000000004,-8693.5,-4695.5,-6080.5,2025-01-29 12:01:52,7
-1280.7999999999993,-3288.8,-1975.6000000000004,-8586.5,-3627.5,-4880.5,2025-01-29 12:01:52,7
-192.79999999999927,-4944.8,-2843.6000000000004,-7686.5,-1928.5,-4948.5,2025-01-29 12:01:52,7
-216.79999999999927,-5596.8,-3067.6000000000004,-6717.5,-479.5,-5200.5,2025-01-29 12:01:52,7
-1516.7999999999993,-4484.8,-2195.6000000000004,-6000.5,266.5,-4657.5,2025-01-29 12:01:52,7
-1968.7999999999995,-2604.8,-1291.6000000000004,-5808.5,-584.5,-3465.5,2025-01-29 12:01:52,7
-1824.7999999999995,-1004.8000000000002,-2199.6000000000004,-5959.5,-2618.5,-1809.5,2025-01-29 12:01:52,7
111.20000000000071,667.1999999999998,-2791.6000000000004,-6501.5,-4149.5,-436.5,2025-01-29 12:01:52,7
2015.2000000000007,2299.2,-3323.6000000000004,-7487.5,-4280.5,848.5,2025-01-29 12:01:52,7
3991.2000000000007,3463.2,-2955.6000000000004,-9193.5,-3087.5,1086.5,2025-01-29 12:01:52,7
5567.200000000001,3479.2,-1359.6000000000004,-10055.5,-1619.5,-28.5,2025-01-29 12:01:52,7
6191.200000000001,2371.2,-707.6000000000004,-9666.5,439.5,-2225.5,2025-01-29 12:01:52,7
4199.200000000001,1063.1999999999998,-975.6000000000004,-9503.5,3467.5,-4366.5,2025-01-29 12:01:52,7
1771.2000000000007,299.1999999999998,-755.6000000000004,-9541.5,5526.5,-4839.5,2025-01-29 12:01:52,7
-744.7999999999993,-140.80000000000018,-31.600000000000364,-8839.5,6702.5,-4876.5,2025-01-29 12:01:52,7
-3180.7999999999997,-0.8000000000001819,-851.6000000000004,-8544.5,6366.5,-4247.5,2025-01-29 12:01:52,7
-4892.799999999999,755.1999999999998,-1059.6000000000004,-8991.5,4669.5,-2963.5,2025-01-29 12:01:52,7
-4688.799999999999,1215.1999999999998,-1107.6000000000004,-9173.5,651.5,-1362.5,2025-01-29 12:01:52,7
-3120.7999999999997,1135.1999999999998,-1871.6000000000004,-9200.5,-3841.5,-460.5,2025-01-29 12:01:52,7
-1624.7999999999993,1171.1999999999998,-1947.6000000000004,-9623.5,-8130.5,-68.5,2025-01-29 12:01:52,7
-160.79999999999927,879.1999999999998,868.3999999999996,-10103.5,-6907.5,21.5,2025-01-29 12:01:52,7
2723.2000000000007,487.1999999999998,2072.4,-9757.5,-5448.5,-320.5,2025-01-29 12:01:52,7
3883.2000000000007,759.1999999999998,2416.4,-9054.5,-3604.5,-1145.5,2025-01-29 12:01:52,7
4003.2000000000007,1247.1999999999998,2432.4,-8466.5,-1052.5,-2035.5,2025-01-29 12:01:52,7
3667.2000000000007,1531.1999999999998,2284.4,-8005.5,1488.5,-3164.5,2025-01-29 12:01:52,7
2259.2000000000007,1615.1999999999998,2304.4,-7403.5,2925.5,-4191.5,2025-01-29 12:01:52,7
683.2000000000007,1443.1999999999998,2224.4,-6956.5,2923.5,-4623.5,2025-01-29 12:01:52,7
-408.7999999999993,1519.1999999999998,2000.4,-6411.5,2096.5,-4933.5,2025-01-29 12:01:52,7
-1308.7999999999993,1827.2,1560.3999999999996,-6224.5,362.5,-5298.5,2025-01-29 12:01:52,7
-1720.7999999999993,1859.2,1836.4,-6390.5,-1381.5,-5441.5,2025-01-29 12:01:52,7
-1448.7999999999993,1835.2,2024.4,-6551.5,-2812.5,-5491.5,2025-01-29 12:01:52,7
-948.7999999999992,2107.2,1932.4,-6783.5,-3987.5,-5487.5,2025-01-29 12:01:52,7
-648.7999999999993,2587.2,1840.4,-6921.5,-4279.5,-5389.5,2025-01-29 12:01:52,7
-20.799999999999272,2815.2,700.3999999999996,-7224.5,-4145.5,-5608.5,2025-01-29 12:01:52,7
247.20000000000076,3011.2,308.39999999999964,-8282.5,-4242.5,-6088.5,2025-01-29 12:01:52,7
171.20000000000073,2111.2,1500.3999999999996,-8781.5,-4223.5,-5991.5,2025-01-29 12:01:52,7
863.2000000000007,671.1999999999998,2144.4,-8610.5,-3714.5,-5696.5,2025-01-29 12:01:52,7
1371.2000000000007,-876.8000000000002,2880.4,-7965.5,-2146.5,-5367.5,2025-01-29 12:01:52,7
875.2000000000007,-2724.8,2452.4,-6677.5,849.5,-4645.5,2025-01-29 12:01:52,7
-972.7999999999992,-3504.8,-659.6000000000004,-5310.5,4995.5,-3342.5,2025-01-29 12:01:52,7
-3552.7999999999997,-2360.8,-3811.6,-4669.5,8548.5,-1524.5,2025-01-29 12:01:52,7
-6000.799999999999,647.1999999999998,-4367.6,-5245.5,9124.5,731.5,2025-01-29 12:01:52,7
-4780.799999999999,4339.2,-3407.6000000000004,-6869.5,5044.5,2769.5,2025-01-29 12:01:52,7
-816.7999999999993,6455.2,-3679.6,-7853.5,-1505.5,1782.5,2025-01-29 12:01:52,7
2491.2000000000007,6595.2,-5791.6,-8059.5,-7155.5,-1208.5,2025-01-29 12:01:52,7
2591.2000000000007,5287.2,-6139.6,-9033.5,-7828.5,-5321.5,2025-01-29 12:01:52,7
2795.2000000000007,3311.2,-4227.6,-9783.5,-3378.5,-7243.5,2025-01-29 12:01:52,7
2843.2000000000007,887.1999999999998,-3035.6000000000004,-10504.5,-2171.5,-7700.5,2025-01-29 12:01:52,7
2399.2000000000007,-808.8000000000002,-1991.6000000000004,-10805.5,-1217.5,-7252.5,2025-01-29 12:01:52,7
2059.2000000000007,-1956.8,-1359.6000000000004,-10656.5,103.5,-6548.5,2025-01-29 12:01:52,7
1659.2000000000007,-1988.8,-1467.6000000000004,-10711.5,988.5,-6187.5,2025-01-29 12:01:52,7
1775.2000000000007,-1528.8000000000002,-1543.6000000000004,-11044.5,1177.5,-6767.5,2025-01-29 12:01:52,7
891.2000000000007,-1132.8000000000002,-735.6000000000004,-11110.5,1253.5,-7725.5,2025-01-29 12:01:52,7
-660.7999999999993,-888.8000000000002,-2003.6000000000004,-11042.5,-659.5,-8850.5,2025-01-29 12:01:52,7
-916.7999999999992,-556.8000000000002,-3159.6000000000004,-11545.5,-2138.5,-8466.5,2025-01-29 12:01:52,7
-176.79999999999927,-484.8000000000002,-2663.6000000000004,-12313.5,-2928.5,-7802.5,2025-01-29 12:01:53,7
879.2000000000007,-576.8000000000002,-915.6000000000004,-12669.5,-3089.5,-7603.5,2025-01-29 12:01:53,7
1347.2000000000007,-1008.8000000000002,-631.6000000000004,-12924.5,-2888.5,-7487.5,2025-01-29 12:01:53,7
2083.2000000000007,-1580.8000000000002,-639.6000000000004,-13144.5,-2656.5,-7501.5,2025-01-29 12:01:53,7
2751.2000000000007,-1672.8000000000002,-1319.6000000000004,-13196.5,-1891.5,-7620.5,2025-01-29 12:01:53,7
2847.2000000000007,-1548.8000000000002,-1943.6000000000004,-13290.5,-684.5,-7875.5,2025-01-29 12:01:53,7
2683.2000000000007,-1172.8000000000002,-2119.6000000000004,-13473.5,464.5,-8180.5,2025-01-29 12:01:53,7
2371.2000000000007,-712.8000000000002,-2331.6000000000004,-13796.5,1029.5,-8572.5,2025-01-29 12:01:53,7
1255.2000000000007,-540.8000000000002,-1947.6000000000004,-14255.5,835.5,-9165.5,2025-01-29 12:01:53,7
323.2000000000007,-792.8000000000002,-1591.6000000000004,-14723.5,4.5,-9546.5,2025-01-29 12:01:53,7
-16.799999999999272,-1092.8000000000002,-1839.6000000000004,-14965.5,-1440.5,-9556.5,2025-01-29 12:01:53,7
415.2000000000007,-1600.8000000000002,-2263.6000000000004,-15208.5,-2732.5,-9283.5,2025-01-29 12:01:53,7
895.2000000000007,-1664.8000000000002,-2279.6000000000004,-15456.5,-3036.5,-8823.5,2025-01-29 12:01:53,7
1939.2000000000007,-1616.8000000000002,-2303.6000000000004,-15824.5,-2623.5,-8551.5,2025-01-29 12:01:53,7
2683.2000000000007,-1688.8000000000002,-1527.6000000000004,-16117.5,-1899.5,-8877.5,2025-01-29 12:01:53,7
2799.2000000000007,-1948.8,-1815.6000000000004,-16241.5,-1140.5,-9146.5,2025-01-29 12:01:53,7
2223.2000000000007,-1784.8000000000002,-1423.6000000000004,-16227.5,-790.5,-9091.5,2025-01-29 12:01:53,7
2275.2000000000007,-1392.8000000000002,-1711.6000000000004,-16147.5,-363.5,-8940.5,2025-01-29 12:01:53,7
2539.2000000000007,-1520.8000000000002,-2451.6000000000004,-16271.5,-129.5,-8973.5,2025-01-29 12:01:53,7
2595.2000000000007,-1972.8,-2559.6000000000004,-16377.5,166.5,-9388.5,2025-01-29 12:01:53,7
2227.2000000000007,-2944.8,-1919.6000000000004,-16371.5,445.5,-10197.5,2025-01-29 12:01:53,7
1015.2000000000008,-3816.8,-1351.6000000000004,-16037.5,772.5,-10725.5,2025-01-29 12:01:53,7
-136.79999999999927,-3816.8,-1047.6000000000004,-15797.5,417.5,-10527.5,2025-01-29 12:01:53,7
-204.79999999999927,-3592.8,-1987.6000000000004,-15682.5,-781.5,-9993.5,2025-01-29 12:01:53,7
43.20000000000073,-2828.8,-2227.6000000000004,-15799.5,-1872.5,-9562.5,2025-01-29 12:01:53,7
867.2000000000007,-2096.8,-1875.6000000000004,-16302.5,-2582.5,-9211.5,2025-01-29 12:01:53,7
1675.2000000000007,-2128.8,-1263.6000000000004,-16514.5,-3442.5,-9192.5,2025-01-29 12:01:53,7
1799.2000000000007,-2784.8,-643.6000000000004,-16573.5,-3749.5,-8944.5,2025-01-29 12:01:53,7
1835.2000000000007,-3592.8,52.39999999999964,-16524.5,-3448.5,-8480.5,2025-01-29 12:01:53,7
1639.2000000000007,-4128.8,144.39999999999964,-16373.5,-3156.5,-8074.5,2025-01-29 12:01:53,7
1627.2000000000007,-4264.8,-883.6000000000004,-16172.5,-3408.5,-7680.5,2025-01-29 12:01:53,7
1567.2000000000007,-4324.8,-1915.6000000000004,-16252.5,-3759.5,-7407.5,2025-01-29 12:01:53,7
1311.2000000000007,-3564.8,-3051.6000000000004,-15725.5,-3852.5,-6972.5,2025-01-29 12:01:53,7
2455.2000000000007,-2996.8,-5171.6,-14170.5,-4260.5,-6796.5,2025-01-29 12:01:53,7
3903.2000000000007,-2968.8,-4751.6,-13149.5,-5618.5,-7295.5,2025-01-29 12:01:53,7
4211.200000000001,-3372.8,-1891.6000000000004,-12267.5,-6318.5,-7653.5,2025-01-29 12:01:53,7
4607.200000000001,-1916.8,-591.6000000000004,-11115.5,-5573.5,-7542.5,2025-01-29 12:01:53,7
4395.200000000001,211.19999999999985,-1743.6000000000004,-11087.5,-3248.5,-7296.5,2025-01-29 12:01:53,7
4027.2000000000007,2231.2,-3239.6000000000004,-12363.5,106.5,-7135.5,2025-01-29 12:01:53,7
3599.2000000000007,3659.2,-3411.6000000000004,-13664.5,3133.5,-7275.5,2025-01-29 12:01:53,7
2291.2000000000007,4039.2,-3495.6000000000004,-14611.5,5056.5,-8118.5,2025-01-29 12:01:53,7
-2220.7999999999997,2115.2,-2815.6000000000004,-15832.5,4906.5,-8791.5,2025-01-29 12:01:53,7
-3052.7999999999997,463.1999999999998,-2803.6000000000004,-16113.5,2317.5,-8391.5,2025-01-29 12:01:53,7
-2256.7999999999997,-788.8000000000002,-1799.6000000000004,-15921.5,-1218.5,-8345.5,2025-01-29 12:01:53,7
-1264.7999999999993,-1184.8000000000002,-1439.6000000000004,-15234.5,-4228.5,-8126.5,2025-01-29 12:01:53,7
467.2000000000007,-956.8000000000002,-1207.6000000000004,-14442.5,-5329.5,-7605.5,2025-01-29 12:01:53,7
2019.2000000000007,-220.80000000000015,-1195.6000000000004,-14099.5,-3832.5,-7505.5,2025-01-29 12:01:53,7
2703.2000000000007,303.1999999999998,-1751.6000000000004,-14484.5,-1397.5,-7713.5,2025-01-29 12:01:53,7
2107.2000000000007,1083.1999999999998,-1347.6000000000004,-14731.5,-505.5,-7659.5,2025-01-29 12:01:53,7
1059.2000000000007,1847.2,-1415.6000000000004,-14642.5,-447.5,-6955.5,2025-01-29 12:01:53,7
975.2000000000008,2019.2,-1507.6000000000004,-14572.5,-909.5,-6246.5,2025-01-29 12:01:53,7
1671.2000000000007,1767.1999999999998,-1079.6000000000004,-14149.5,-1027.5,-5590.5,2025-01-29 12:01:53,7
3223.2000000000007,-144.80000000000018,-427.6000000000004,-13474.5,-464.5,-5933.5,2025-01-29 12:01:53,7
3567.2000000000007,-1380.8000000000002,-191.6000000000004,-12263.5,946.5,-6585.5,2025-01-29 12:01:53,7
3563.2000000000007,-2196.8,-575.6000000000004,-11131.5,2265.5,-7423.5,2025-01-29 12:01:53,7
3227.2000000000007,-2044.8,-1363.6000000000004,-10364.5,3000.5,-8165.5,2025-01-29 12:01:53,7
2879.2000000000007,-1216.8000000000002,-2091.6000000000004,-9911.5,3206.5,-8553.5,2025-01-29 12:01:53,7
2243.2000000000007,23.199999999999815,-2763.6000000000004,-9297.5,3074.5,-8718.5,2025-01-29 12:01:54,7
1863.2000000000007,1719.1999999999998,-3807.6,-9144.5,3114.5,-8935.5,2025-01-29 12:01:54,7
1599.2000000000007,2891.2,-5103.6,-9692.5,2651.5,-9295.5,2025-01-29 12:01:54,7
1359.2000000000007,3207.2,-5295.6,-10719.5,1775.5,-9317.5,2025-01-29 12:01:54,7
1455.2000000000007,2375.2,-3491.6000000000004,-11427.5,852.5,-9206.5,2025-01-29 12:01:54,7
2119.2000000000007,863.1999999999998,-2931.6000000000004,-11572.5,133.5,-8456.5,2025-01-29 12:01:54,7
2999.2000000000007,-728.8000000000002,-2379.6000000000004,-11458.5,113.5,-7708.5,2025-01-29 12:01:54,7
4219.200000000001,-2860.8,-1843.6000000000004,-10863.5,957.5,-7301.5,2025-01-29 12:01:54,7
4703.200000000001,-4156.8,-935.6000000000004,-9880.5,1628.5,-7530.5,2025-01-29 12:01:54,7
4127.200000000001,-3600.8,-755.6000000000004,-8836.5,2423.5,-7643.5,2025-01-29 12:01:54,7
3095.2000000000007,-2012.8,-471.6000000000004,-8079.5,2863.5,-7530.5,2025-01-29 12:01:54,7
2071.2000000000007,259.1999999999998,-643.6000000000004,-7794.5,2525.5,-6628.5,2025-01-29 12:01:54,7
1703.2000000000007,1179.1999999999998,-167.60000000000036,-7508.5,2292.5,-5463.5,2025-01-29 12:01:54,7
2003.2000000000007,1059.1999999999998,-403.6000000000004,-6693.5,2953.5,-4383.5,2025-01-29 12:01:54,7
2587.2000000000007,995.1999999999998,-1335.6000000000004,-6427.5,4534.5,-3272.5,2025-01-29 12:01:54,7
2955.2000000000007,827.1999999999998,-1787.6000000000004,-6418.5,4354.5,-2507.5,2025-01-29 12:01:54,7
3123.2000000000007,547.1999999999998,-1815.6000000000004,-6213.5,4133.5,-1818.5,2025-01-29 12:01:54,7
2779.2000000000007,119.19999999999982,-2043.6000000000004,-5996.5,3702.5,-1342.5,2025-01-29 12:01:54,7
347.2000000000007,-1176.8000000000002,-3419.6000000000004,-6697.5,5085.5,291.5,2025-01-29 12:01:54,7
-1140.7999999999993,-1112.8000000000002,-1735.6000000000004,-6892.5,7906.5,2696.5,2025-01-29 12:01:54,7
203.20000000000076,-728.8000000000002,-699.6000000000004,-6513.5,7854.5,3331.5,2025-01-29 12:01:54,7
3347.2000000000007,1219.1999999999998,764.3999999999996,-5273.5,3291.5,2151.5,2025-01-29 12:01:54,7
4859.200000000001,1259.1999999999998,-1891.6000000000004,-4163.5,946.5,221.5,2025-01-29 12:01:54,7
5495.200000000001,1539.1999999999998,-3291.6000000000004,-3146.5,1508.5,-1036.5,2025-01-29 12:01:54,7
5995.200000000001,1371.1999999999998,-4995.6,-3032.5,4807.5,-1763.5,2025-01-29 12:01:54,7
6063.200000000001,1679.1999999999998,-5919.6,-3047.5,5869.5,-2201.5,2025-01-29 12:01:54,7
2287.2000000000007,1343.1999999999998,-7803.6,-3943.5,5177.5,-2247.5,2025-01-29 12:01:54,7
-948.7999999999992,-1344.8000000000002,-5275.6,-4408.5,5028.5,-3167.5,2025-01-29 12:01:54,7
4035.2000000000007,1135.1999999999998,-9287.6,-3673.5,1573.5,-3536.5,2025-01-29 12:01:54,7
3859.2000000000007,955.1999999999998,-8319.6,-3877.5,106.5,-3130.5,2025-01-29 12:01:54,7
3915.2000000000007,871.1999999999998,-7795.6,-4285.5,-448.5,-2964.5,2025-01-29 12:01:54,7
4743.200000000001,1931.2,-7183.6,-3898.5,-1916.5,-4057.5,2025-01-29 12:01:54,2
4595.200000000001,2875.2,-7051.6,-4378.5,-2963.5,-4870.5,2025-01-29 12:01:54,2
3899.2000000000007,3223.2,-6435.6,-4519.5,-4001.5,-5132.5,2025-01-29 12:01:54,2
2775.2000000000007,2835.2,-6291.6,-5130.5,-4860.5,-5067.5,2025-01-29 12:01:54,2
2039.2000000000007,2627.2,-4927.6,-6318.5,-6479.5,-4873.5,2025-01-29 12:01:54,2
2915.2000000000007,2795.2,-3407.6000000000004,-6234.5,-8369.5,-5034.5,2025-01-29 12:01:54,2
2735.2000000000007,4403.2,-1523.6000000000004,-6280.5,-10107.5,-5325.5,2025-01-29 12:01:54,2
1167.2000000000007,3655.2,-231.6000000000004,-6574.5,-10429.5,-3852.5,2025-01-29 12:01:54,2
723.2000000000007,863.1999999999998,388.3999999999997,-6029.5,-9422.5,-2386.5,2025-01-29 12:01:54,2
479.2000000000007,1159.1999999999998,-47.60000000000037,-5063.5,-10525.5,-1607.5,2025-01-29 12:01:54,2
659.2000000000007,1423.1999999999998,876.3999999999996,-3966.5,-13754.5,-1626.5,2025-01-29 12:01:54,2
119.20000000000071,447.1999999999998,968.3999999999996,-2926.5,-15665.5,-1205.5,2025-01-29 12:01:54,2
-208.79999999999927,11.199999999999818,232.39999999999964,-2080.5,-15481.5,-586.5,2025-01-29 12:01:54,2
103.20000000000071,1251.1999999999998,212.39999999999964,-1612.5,-13816.5,-252.5,2025-01-29 12:01:54,2
91.20000000000071,1699.1999999999998,-467.6000000000004,-1013.5,-11965.5,-313.5,2025-01-29 12:01:54,2
135.20000000000073,2415.2,-1583.6000000000004,-644.5,-12249.5,-169.5,2025-01-29 12:01:54,2
-332.7999999999993,3939.2,-1783.6000000000004,-355.5,-13733.5,-352.5,2025-01-29 12:01:54,2
-2596.7999999999997,4951.2,-503.6000000000004,-356.5,-15161.5,-604.5,2025-01-29 12:01:54,2
-4372.799999999999,4899.2,548.3999999999996,-420.5,-16192.5,143.5,2025-01-29 12:01:54,2
-6376.799999999999,4671.2,1564.3999999999996,-286.5,-16379.5,35.5,2025-01-29 12:01:54,2
-7320.799999999999,3271.2,2416.4,260.5,-15944.5,691.5,2025-01-29 12:01:54,2
-5808.799999999999,3559.2,2668.4,628.5,-15300.5,853.5,2025-01-29 12:01:54,2
-4952.799999999999,4191.2,2892.4,1065.5,-14274.5,685.5,2025-01-29 12:01:54,2
-3140.7999999999997,4311.2,3540.4,1567.5,-12986.5,120.5,2025-01-29 12:01:54,2
-2648.7999999999997,3935.2,3648.4,2016.5,-12060.5,-779.5,2025-01-29 12:01:54,2
-3936.7999999999993,3059.2,3472.4,2274.5,-9824.5,-960.5,2025-01-29 12:01:54,2
-4848.799999999999,2663.2,2884.4,2084.5,-9222.5,-361.5,2025-01-29 12:01:54,2
-4708.799999999999,3383.2,2856.4,2194.5,-10403.5,260.5,2025-01-29 12:01:54,2
-3624.7999999999993,4279.2,2568.4,1851.5,-12493.5,640.5,2025-01-29 12:01:54,2
-2604.7999999999997,4791.2,4384.4,1256.5,-14291.5,519.5,2025-01-29 12:01:54,2
-980.7999999999992,4423.2,5720.4,1169.5,-13913.5,537.5,2025-01-29 12:01:54,2
-408.7999999999993,2987.2,7524.4,713.5,-10673.5,667.5,2025-01-29 12:01:54,2
-872.7999999999993,2227.2,9156.4,737.5,-8184.5,1079.5,2025-01-29 12:01:54,2
-632.7999999999993,2631.2,9368.4,792.5,-7077.5,846.5,2025-01-29 12:01:54,2
-1420.7999999999993,3551.2,9448.4,1100.5,-6867.5,-78.5,2025-01-29 12:01:55,2
-1012.7999999999992,3319.2,7800.4,950.5,-7553.5,-1014.5,2025-01-29 12:01:55,2
-1208.7999999999993,3355.2,7952.4,469.5,-8475.5,-1722.5,2025-01-29 12:01:55,2
-1872.7999999999995,2827.2,10292.4,440.5,-8581.5,-1800.5,2025-01-29 12:01:55,2
-792.7999999999993,2403.2,11408.4,580.5,-7783.5,-1270.5,2025-01-29 12:01:55,2
-624.7999999999993,1535.1999999999998,12568.4,1146.5,-5426.5,-869.5,2025-01-29 12:01:55,2
455.2000000000007,923.1999999999998,10584.4,2032.5,-1572.5,-1547.5,2025-01-29 12:01:55,2
-2640.7999999999997,1107.1999999999998,9212.4,2116.5,-469.5,-1746.5,2025-01-29 12:01:55,2
-5576.799999999999,2887.2,8912.4,2226.5,-1282.5,-843.5,2025-01-29 12:01:55,2
-5348.799999999999,3539.2,8508.4,1890.5,-5935.5,96.5,2025-01-29 12:01:55,2
-4108.799999999999,3183.2,8724.4,861.5,-8223.5,789.5,2025-01-29 12:01:55,2
-2960.7999999999997,2883.2,10744.4,155.5,-7634.5,1290.5,2025-01-29 12:01:55,2
-1324.7999999999993,2487.2,12008.4,362.5,-6322.5,984.5,2025-01-29 12:01:55,2
-752.7999999999993,1931.2,11748.4,326.5,-5621.5,424.5,2025-01-29 12:01:55,2
-1116.7999999999993,1859.2,11676.4,29.5,-4492.5,81.5,2025-01-29 12:01:55,2
-708.7999999999993,2175.2,11448.4,-268.5,-2824.5,148.5,2025-01-29 12:01:55,2
-1740.7999999999993,2267.2,11348.4,-401.5,-2101.5,454.5,2025-01-29 12:01:55,2
-1528.7999999999993,2011.2,10904.4,-68.5,-3593.5,591.5,2025-01-29 12:01:55,2
-1620.7999999999993,2195.2,11300.4,335.5,-5503.5,702.5,2025-01-29 12:01:55,2
-1580.7999999999993,2647.2,11812.4,589.5,-6575.5,858.5,2025-01-29 12:01:55,2
-1364.7999999999993,2943.2,12008.4,541.5,-6324.5,1097.5,2025-01-29 12:01:55,2
-980.7999999999992,3011.2,12088.4,178.5,-5317.5,1460.5,2025-01-29 12:01:55,2
-640.7999999999993,3251.2,12084.4,-116.5,-3810.5,1576.5,2025-01-29 12:01:55,2
-420.7999999999993,3859.2,11796.4,-149.5,-3011.5,1333.5,2025-01-29 12:01:55,2
-460.7999999999993,4523.2,11184.4,-234.5,-3212.5,909.5,2025-01-29 12:01:55,2
-1000.7999999999992,4939.2,11232.4,-345.5,-3478.5,645.5,2025-01-29 12:01:55,2
-1364.7999999999993,4723.2,11532.4,-541.5,-3494.5,563.5,2025-01-29 12:01:55,2
-1332.7999999999993,4215.2,11944.4,-657.5,-3462.5,454.5,2025-01-29 12:01:55,2
-1700.7999999999993,4031.2,12352.4,-668.5,-3065.5,459.5,2025-01-29 12:01:55,2
-1636.7999999999993,4063.2,12972.4,-548.5,-2906.5,480.5,2025-01-29 12:01:55,2
-1320.7999999999993,3851.2,12640.4,-453.5,-2537.5,377.5,2025-01-29 12:01:55,2
-1056.7999999999993,3679.2,12752.4,-498.5,-1967.5,150.5,2025-01-29 12:01:55,2
-788.7999999999993,3403.2,12504.4,-418.5,-1412.5,30.5,2025-01-29 12:01:55,2
-672.7999999999993,3223.2,12532.4,-355.5,-648.5,-44.5,2025-01-29 12:01:55,2
-904.7999999999992,3203.2,12908.4,-209.5,-378.5,-142.5,2025-01-29 12:01:55,2
-1312.7999999999993,3455.2,13104.4,-113.5,-349.5,-196.5,2025-01-29 12:01:55,2
-1328.7999999999993,3703.2,13708.4,-37.5,-140.5,-215.5,2025-01-29 12:01:55,2
-1552.7999999999993,3751.2,13504.4,-63.5,250.5,-217.5,2025-01-29 12:01:55,2
-1604.7999999999993,3967.2,12692.4,-272.5,235.5,-111.5,2025-01-29 12:01:55,2
-1380.7999999999993,3635.2,12444.4,-566.5,-296.5,-17.5,2025-01-29 12:01:55,2
-1052.7999999999993,3299.2,12344.4,-840.5,-936.5,-96.5,2025-01-29 12:01:55,2
-932.7999999999992,2811.2,12380.4,-1057.5,-1580.5,-126.5,2025-01-29 12:01:55,2
-312.7999999999993,2587.2,12676.4,-1324.5,-2152.5,-232.5,2025-01-29 12:01:55,2
243.20000000000076,2279.2,12992.4,-1557.5,-2129.5,-488.5,2025-01-29 12:01:55,2
243.20000000000076,2231.2,13480.4,-1599.5,-1302.5,-701.5,2025-01-29 12:01:55,2
-176.79999999999927,2351.2,13872.4,-1524.5,-687.5,-714.5,2025-01-29 12:01:55,2
-748.7999999999993,2327.2,14196.4,-1422.5,-281.5,-630.5,2025-01-29 12:01:55,2
-1032.7999999999993,2527.2,14196.4,-1276.5,10.5,-596.5,2025-01-29 12:01:55,2
-1244.7999999999993,2591.2,13720.4,-1230.5,220.5,-689.5,2025-01-29 12:01:55,2
-1404.7999999999993,2791.2,13332.4,-1178.5,182.5,-819.5,2025-01-29 12:01:55,2
-1480.7999999999993,2855.2,13252.4,-1155.5,-144.5,-945.5,2025-01-29 12:01:55,2
-1352.7999999999993,2795.2,13196.4,-1239.5,-510.5,-903.5,2025-01-29 12:01:55,2
-1376.7999999999993,2883.2,13172.4,-1239.5,-589.5,-793.5,2025-01-29 12:01:55,2
-1160.7999999999993,3115.2,13080.4,-1218.5,-495.5,-478.5,2025-01-29 12:01:55,2
-1084.7999999999993,2675.2,12792.4,-1028.5,-136.5,-347.5,2025-01-29 12:01:55,2
-1004.7999999999992,2279.2,12352.4,-984.5,-322.5,-287.5,2025-01-29 12:01:55,2
-996.7999999999992,2187.2,12824.4,-1043.5,-884.5,-311.5,2025-01-29 12:01:55,2
-1360.7999999999993,1751.1999999999998,13524.4,-925.5,-1018.5,-381.5,2025-01-29 12:01:55,2
-1388.7999999999993,1667.1999999999998,13936.4,-684.5,-885.5,-233.5,2025-01-29 12:01:55,2
-1116.7999999999993,1979.2,13784.4,-581.5,-478.5,-130.5,2025-01-29 12:01:55,2
-784.7999999999993,1843.2,13452.4,-513.5,-226.5,-170.5,2025-01-29 12:01:56,2
-1004.7999999999992,1727.1999999999998,13188.4,-519.5,-183.5,-160.5,2025-01-29 12:01:56,2
-1144.7999999999993,1699.1999999999998,13064.4,-619.5,-261.5,-91.5,2025-01-29 12:01:56,2
-1092.7999999999993,1819.2,13372.4,-672.5,-507.5,-88.5,2025-01-29 12:01:56,2
-956.7999999999992,2003.2,13436.4,-646.5,-763.5,11.5,2025-01-29 12:01:56,2
-716.7999999999993,2311.2,13872.4,-669.5,-781.5,135.5,2025-01-29 12:01:56,2
-656.7999999999993,2227.2,13964.4,-717.5,-436.5,233.5,2025-01-29 12:01:56,2
-836.7999999999993,2231.2,13868.4,-719.5,69.5,291.5,2025-01-29 12:01:56,2
-1004.7999999999992,2183.2,13788.4,-712.5,245.5,367.5,2025-01-29 12:01:56,2
-1180.7999999999993,2199.2,13784.4,-654.5,176.5,415.5,2025-01-29 12:01:56,2
-980.7999999999992,2363.2,13808.4,-566.5,-16.5,392.5,2025-01-29 12:01:56,2
-808.7999999999993,2467.2,13656.4,-533.5,20.5,265.5,2025-01-29 12:01:56,2
-784.7999999999993,2531.2,13676.4,-493.5,121.5,169.5,2025-01-29 12:01:56,2
-884.7999999999993,2371.2,13604.4,-488.5,193.5,216.5,2025-01-29 12:01:56,2
-856.7999999999993,2419.2,13352.4,-479.5,259.5,299.5,2025-01-29 12:01:56,2
-948.7999999999992,2383.2,13280.4,-457.5,357.5,351.5,2025-01-29 12:01:56,2
-1132.7999999999993,2383.2,13216.4,-471.5,491.5,331.5,2025-01-29 12:01:56,2
-1168.7999999999993,2419.2,12972.4,-458.5,472.5,343.5,2025-01-29 12:01:56,2
-1308.7999999999993,2375.2,13088.4,-437.5,298.5,277.5,2025-01-29 12:01:56,2
-1232.7999999999993,2399.2,13328.4,-382.5,76.5,244.5,2025-01-29 12:01:56,2
-1164.7999999999993,2371.2,13256.4,-318.5,-60.5,192.5,2025-01-29 12:01:56,2
-940.7999999999992,2295.2,13488.4,-239.5,-87.5,209.5,2025-01-29 12:01:56,2
-864.7999999999993,2211.2,13364.4,-161.5,-61.5,150.5,2025-01-29 12:01:56,2
-956.7999999999992,2247.2,13504.4,-131.5,-70.5,133.5,2025-01-29 12:01:56,2
-1120.7999999999993,2471.2,13572.4,-153.5,-89.5,29.5,2025-01-29 12:01:56,2
-1308.7999999999993,2315.2,13384.4,-176.5,-155.5,20.5,2025-01-29 12:01:56,2
-940.7999999999992,2491.2,13492.4,-156.5,-180.5,-81.5,2025-01-29 12:01:56,2
-972.7999999999992,2379.2,13656.4,-129.5,-152.5,-68.5,2025-01-29 12:01:56,2
-852.7999999999993,2247.2,13724.4,-97.5,-82.5,-46.5,2025-01-29 12:01:56,2
-844.7999999999993,2231.2,13668.4,-71.5,33.5,-31.5,2025-01-29 12:01:56,2
-1028.7999999999993,2319.2,13568.4,-6.5,139.5,-71.5,2025-01-29 12:01:56,2
-776.7999999999993,2271.2,13456.4,38.5,40.5,-125.5,2025-01-29 12:01:56,2
-928.7999999999992,2311.2,13504.4,87.5,27.5,-223.5,2025-01-29 12:01:56,2
-1132.7999999999993,2375.2,13440.4,175.5,-61.5,-211.5,2025-01-29 12:01:56,2
-1024.7999999999993,2351.2,13604.4,172.5,-187.5,-201.5,2025-01-29 12:01:56,2
-996.7999999999992,2327.2,13628.4,175.5,-152.5,-150.5,2025-01-29 12:01:56,2
-780.7999999999993,2451.2,13748.4,190.5,-23.5,-172.5,2025-01-29 12:01:56,2
-896.7999999999993,2367.2,13624.4,222.5,95.5,-183.5,2025-01-29 12:01:56,2
-992.7999999999992,2239.2,13464.4,229.5,172.5,-181.5,2025-01-29 12:01:56,2
-1044.7999999999993,2279.2,13444.4,193.5,157.5,-104.5,2025-01-29 12:01:56,2
-1184.7999999999993,2291.2,13464.4,168.5,15.5,-41.5,2025-01-29 12:01:56,2
-1008.7999999999992,2351.2,13352.4,190.5,-74.5,-16.5,2025-01-29 12:01:56,2
-920.7999999999992,2423.2,13544.4,220.5,-152.5,-2.5,2025-01-29 12:01:56,2
-1104.7999999999993,2327.2,13588.4,227.5,-126.5,-20.5,2025-01-29 12:01:56,2
-924.7999999999992,2275.2,13620.4,231.5,-80.5,-18.5,2025-01-29 12:01:56,2
-856.7999999999993,2415.2,13452.4,248.5,-42.5,-47.5,2025-01-29 12:01:56,2
-1088.7999999999993,2535.2,13384.4,216.5,23.5,-38.5,2025-01-29 12:01:56,2
-1096.7999999999993,2527.2,13404.4,199.5,68.5,-25.5,2025-01-29 12:01:56,2
-1044.7999999999993,2427.2,13436.4,205.5,-30.5,-36.5,2025-01-29 12:01:56,2
-880.7999999999993,2447.2,13352.4,200.5,-115.5,-29.5,2025-01-29 12:01:56,2
-944.7999999999992,2327.2,13464.4,209.5,-128.5,-69.5,2025-01-29 12:01:56,2
-840.7999999999993,2375.2,13532.4,181.5,-98.5,-90.5,2025-01-29 12:01:56,2
-792.7999999999993,2419.2,13628.4,157.5,-64.5,-70.5,2025-01-29 12:01:56,2
-872.7999999999993,2431.2,13576.4,152.5,-16.5,-109.5,2025-01-29 12:01:56,2
-1008.7999999999992,2439.2,13552.4,152.5,12.5,-94.5,2025-01-29 12:01:56,2
-1064.7999999999993,2371.2,13504.4,131.5,19.5,-117.5,2025-01-29 12:01:56,2
-972.7999999999992,2303.2,13536.4,155.5,-16.5,-144.5,2025-01-29 12:01:56,2
-960.7999999999992,2343.2,13388.4,133.5,-42.5,-170.5,2025-01-29 12:01:56,2
-992.7999999999992,2359.2,13480.4,162.5,-45.5,-169.5,2025-01-29 12:01:56,2
-888.7999999999993,2403.2,13544.4,148.5,-47.5,-137.5,2025-01-29 12:01:56,2
-840.7999999999993,2555.2,13440.4,74.5,4.5,-60.5,2025-01-29 12:01:57,2
-940.7999999999992,2511.2,13556.4,40.5,73.5,-64.5,2025-01-29 12:01:57,2
-1052.7999999999993,2495.2,13472.4,64.5,136.5,-103.5,2025-01-29 12:01:57,2
-1012.7999999999992,2523.2,13436.4,41.5,116.5,-114.5,2025-01-29 12:01:57,2
-1060.7999999999993,2323.2,13404.4,79.5,22.5,-73.5,2025-01-29 12:01:57,2
-1000.7999999999992,2251.2,13420.4,45.5,0.5,-27.5,2025-01-29 12:01:57,2
-996.7999999999992,2387.2,13340.4,33.5,69.5,-60.5,2025-01-29 12:01:57,2
-1040.7999999999993,2347.2,13536.4,12.5,128.5,-84.5,2025-01-29 12:01:57,2
-1072.7999999999993,2315.2,13236.4,24.5,-16.5,-53.5,2025-01-29 12:01:57,2
-980.7999999999992,2287.2,13188.4,33.5,-108.5,-33.5,2025-01-29 12:01:57,2
-988.7999999999992,2391.2,13392.4,-5.5,-202.5,-59.5,2025-01-29 12:01:57,2
-928.7999999999992,2367.2,13408.4,-30.5,-282.5,-44.5,2025-01-29 12:01:57,2
-972.7999999999992,2367.2,13540.4,-40.5,-191.5,-41.5,2025-01-29 12:01:57,2
-944.7999999999992,2415.2,13712.4,-36.5,-100.5,-78.5,2025-01-29 12:01:57,2
-1056.7999999999993,2323.2,13564.4,-19.5,-40.5,-36.5,2025-01-29 12:01:57,2
-1128.7999999999993,2183.2,13480.4,-66.5,-54.5,6.5,2025-01-29 12:01:57,2
-1012.7999999999992,2283.2,13472.4,-105.5,-102.5,13.5,2025-01-29 12:01:57,2
-960.7999999999992,2331.2,13412.4,-100.5,-138.5,-39.5,2025-01-29 12:01:57,2
-848.7999999999993,2179.2,13428.4,-70.5,-122.5,-42.5,2025-01-29 12:01:57,2
-932.7999999999992,2259.2,13588.4,-64.5,-102.5,-30.5,2025-01-29 12:01:57,2
-932.7999999999992,2295.2,13424.4,-73.5,-79.5,-28.5,2025-01-29 12:01:57,2
-1076.7999999999993,2211.2,13520.4,-74.5,-46.5,40.5,2025-01-29 12:01:57,2
-1028.7999999999993,2275.2,13600.4,-148.5,-21.5,109.5,2025-01-29 12:01:57,2
-1024.7999999999993,2331.2,13556.4,-104.5,2.5,90.5,2025-01-29 12:01:57,2
-968.7999999999992,2267.2,13668.4,-120.5,-0.5,54.5,2025-01-29 12:01:57,2
-948.7999999999992,2331.2,13584.4,-92.5,-45.5,25.5,2025-01-29 12:01:57,2
-820.7999999999993,2359.2,13484.4,-93.5,-80.5,-24.5,2025-01-29 12:01:57,2
-860.7999999999993,2327.2,13568.4,-97.5,-109.5,-47.5,2025-01-29 12:01:57,2
-1012.7999999999992,2375.2,13648.4,-104.5,-45.5,-32.5,2025-01-29 12:01:57,2
-1028.7999999999993,2315.2,13664.4,-92.5,-31.5,5.5,2025-01-29 12:01:57,2
-968.7999999999992,2351.2,13640.4,-81.5,-20.5,1.5,2025-01-29 12:01:57,2
-1044.7999999999993,2335.2,13596.4,-70.5,5.5,23.5,2025-01-29 12:01:57,2
-996.7999999999992,2431.2,13384.4,-86.5,15.5,15.5,2025-01-29 12:01:57,2
-848.7999999999993,2375.2,13572.4,-66.5,-14.5,0.5,2025-01-29 12:01:57,2
-876.7999999999993,2315.2,13572.4,-77.5,-37.5,-34.5,2025-01-29 12:01:57,2
-920.7999999999992,2399.2,13540.4,-88.5,-58.5,-116.5,2025-01-29 12:01:57,2
-1064.7999999999993,2243.2,13612.4,-92.5,0.5,-122.5,2025-01-29 12:01:57,2
-1168.7999999999993,2007.2,13708.4,-221.5,183.5,-61.5,2025-01-29 12:01:57,2
-1160.7999999999993,2111.2,13904.4,-260.5,712.5,-122.5,2025-01-29 12:01:57,2
-1572.7999999999993,2131.2,13720.4,-161.5,1781.5,-273.5,2025-01-29 12:01:57,2
-2424.7999999999997,2387.2,12412.4,317.5,3057.5,-398.5,2025-01-29 12:01:57,2
-172.79999999999927,2351.2,10048.4,1335.5,140.5,-1092.5,2025-01-29 12:01:57,2
-1664.7999999999993,2039.2,10152.4,1773.5,-2081.5,-1253.5,2025-01-29 12:01:57,2
-1980.7999999999995,2099.2,12480.4,1588.5,-3259.5,-736.5,2025-01-29 12:01:57,2
-1320.7999999999993,2215.2,13896.4,859.5,-3990.5,-573.5,2025-01-29 12:01:57,2
-804.7999999999993,2039.2,14956.4,251.5,-4039.5,-463.5,2025-01-29 12:01:57,2
-372.7999999999993,1675.1999999999998,15204.4,203.5,-3234.5,-308.5,2025-01-29 12:01:57,2
163.20000000000073,1663.1999999999998,15436.4,584.5,-1977.5,-261.5,2025-01-29 12:01:57,2
427.2000000000007,1715.1999999999998,15352.4,935.5,-691.5,-462.5,2025-01-29 12:01:57,2
287.2000000000007,2171.2,15564.4,1092.5,88.5,-448.5,2025-01-29 12:01:57,2
135.20000000000073,2351.2,15312.4,1042.5,753.5,-512.5,2025-01-29 12:01:57,2
-296.7999999999993,2479.2,15176.4,874.5,1195.5,-423.5,2025-01-29 12:01:57,2
-460.7999999999993,2435.2,14732.4,655.5,1259.5,-174.5,2025-01-29 12:01:57,2
-480.7999999999993,2239.2,14492.4,406.5,1173.5,-64.5,2025-01-29 12:01:57,2
-488.7999999999993,2359.2,13968.4,321.5,1189.5,-102.5,2025-01-29 12:01:57,2
-744.7999999999993,2283.2,13828.4,285.5,1366.5,-11.5,2025-01-29 12:01:57,2
-584.7999999999993,2259.2,13616.4,306.5,1304.5,-11.5,2025-01-29 12:01:58,2
-584.7999999999993,2183.2,13528.4,253.5,1154.5,20.5,2025-01-29 12:01:58,2
-296.7999999999993,2011.2,13536.4,307.5,1105.5,37.5,2025-01-29 12:01:58,2
-464.7999999999993,2031.2,13256.4,331.5,1288.5,94.5,2025-01-29 12:01:58,2
-476.7999999999993,2131.2,12560.4,263.5,1378.5,183.5,2025-01-29 12:01:58,2
-896.7999999999993,2415.2,12264.4,161.5,1421.5,95.5,2025-01-29 12:01:58,2
-1724.7999999999993,2627.2,12184.4,12.5,1345.5,18.5,2025-01-29 12:01:58,2
-2596.7999999999997,2515.2,12160.4,-25.5,625.5,110.5,2025-01-29 12:01:58,2
-2624.7999999999997,2279.2,11744.4,-173.5,-695.5,245.5,2025-01-29 12:01:58,2
-2208.7999999999997,1911.2,12884.4,-453.5,-3999.5,365.5,2025-01-29 12:01:58,2
-976.7999999999992,1547.1999999999998,14416.4,-533.5,-5527.5,730.5,2025-01-29 12:01:58,2
-360.7999999999993,1315.1999999999998,15516.4,-427.5,-5433.5,837.5,2025-01-29 12:01:58,2
243.20000000000076,1535.1999999999998,16020.4,-241.5,-3760.5,703.5,2025-01-29 12:01:58,2
67.20000000000073,1791.1999999999998,15888.4,-138.5,-969.5,484.5,2025-01-29 12:01:58,2
143.20000000000073,2231.2,15444.4,-224.5,1224.5,415.5,2025-01-29 12:01:58,2
-60.79999999999927,2331.2,14692.4,-131.5,1747.5,347.5,2025-01-29 12:01:58,2
-540.7999999999993,2331.2,13928.4,-167.5,1964.5,486.5,2025-01-29 12:01:58,2
-800.7999999999993,2347.2,13676.4,-311.5,2022.5,577.5,2025-01-29 12:01:58,2
-740.7999999999993,2735.2,13904.4,-436.5,1933.5,708.5,2025-01-29 12:01:58,2
-636.7999999999993,3003.2,13944.4,-546.5,2339.5,976.5,2025-01-29 12:01:58,2
-464.7999999999993,3215.2,14336.4,-699.5,2828.5,1045.5,2025-01-29 12:01:58,2
-572.7999999999993,3403.2,14524.4,-709.5,3656.5,1110.5,2025-01-29 12:01:58,2
-632.7999999999993,3411.2,14432.4,-636.5,4880.5,1113.5,2025-01-29 12:01:58,2
-768.7999999999993,3231.2,13788.4,-399.5,6097.5,982.5,2025-01-29 12:01:58,2
-1168.7999999999993,2999.2,13168.4,-246.5,6818.5,882.5,2025-01-29 12:01:58,2
-2048.7999999999997,2911.2,11956.4,-194.5,6938.5,1084.5,2025-01-29 12:01:58,2
-2412.7999999999997,2719.2,11836.4,-147.5,6094.5,1498.5,2025-01-29 12:01:58,2
-2504.7999999999997,2415.2,12348.4,-126.5,5131.5,1971.5,2025-01-29 12:01:58,2
-2480.7999999999997,1991.2,13140.4,-130.5,4631.5,2247.5,2025-01-29 12:01:58,2
-1664.7999999999993,1195.1999999999998,13380.4,-54.5,4657.5,2140.5,2025-01-29 12:01:58,2
-868.7999999999993,563.1999999999998,13776.4,40.5,5235.5,1899.5,2025-01-29 12:01:58,2
-548.7999999999993,2139.2,13872.4,1081.5,9622.5,883.5,2025-01-29 12:01:58,2
-856.7999999999993,3111.2,12028.4,1151.5,11674.5,31.5,2025-01-29 12:01:58,2
-2012.7999999999995,4083.2,10948.4,602.5,11638.5,-458.5,2025-01-29 12:01:58,2
-2272.7999999999997,3743.2,11120.4,-42.5,10728.5,-767.5,2025-01-29 12:01:58,2
-2364.7999999999997,3451.2,11332.4,-576.5,9790.5,-850.5,2025-01-29 12:01:58,2
-2188.7999999999997,3291.2,11340.4,-979.5,9743.5,-714.5,2025-01-29 12:01:58,2
-2184.7999999999997,2995.2,10820.4,-1037.5,9791.5,-877.5,2025-01-29 12:01:58,2
-2216.7999999999997,2283.2,11072.4,-830.5,9965.5,-1015.5,2025-01-29 12:01:58,2
-1448.7999999999993,2407.2,9824.4,-680.5,10379.5,-1214.5,2025-01-29 12:01:58,2
-2484.7999999999997,2439.2,10952.4,-371.5,10591.5,-1760.5,2025-01-29 12:01:58,2
-3644.7999999999993,2779.2,9956.4,134.5,11572.5,-2682.5,2025-01-29 12:01:58,2
-4392.799999999999,2503.2,9420.4,591.5,12461.5,-2711.5,2025-01-29 12:01:58,2
-5284.799999999999,1983.2,9616.4,1226.5,13161.5,-2375.5,2025-01-29 12:01:58,2
-5348.799999999999,1403.1999999999998,10124.4,3004.5,13921.5,-2603.5,2025-01-29 12:01:58,2
-5436.799999999999,1367.1999999999998,9556.4,5285.5,17270.5,-4092.5,2025-01-29 12:01:58,2
-4712.799999999999,1735.1999999999998,4720.4,5053.5,14398.5,-4339.5,2025-01-29 12:01:58,2
-4160.799999999999,5115.2,1932.4,3378.5,13231.5,-4350.5,2025-01-29 12:01:58,2
-6052.799999999999,5095.2,2516.4,2163.5,12697.5,-2646.5,2025-01-29 12:01:58,2
-5976.799999999999,2603.2,4564.4,1986.5,9500.5,-839.5,2025-01-29 12:01:58,2
-3628.7999999999993,1247.1999999999998,4040.4,2137.5,7343.5,-489.5,2025-01-29 12:01:58,2
-2028.7999999999995,1439.1999999999998,3800.4,2378.5,6769.5,-678.5,2025-01-29 12:01:58,2
-1904.7999999999995,1335.1999999999998,2856.4,2517.5,6906.5,-623.5,2025-01-29 12:01:58,2
-1824.7999999999995,571.1999999999998,2384.4,2594.5,6819.5,-480.5,2025-01-29 12:01:58,2
-1620.7999999999993,175.19999999999982,1896.4,2685.5,5807.5,-283.5,2025-01-29 12:01:58,2
-1168.7999999999993,459.1999999999998,1472.3999999999996,2501.5,4152.5,-132.5,2025-01-29 12:01:58,2
-1352.7999999999993,1415.1999999999998,1492.3999999999996,1997.5,3107.5,62.5,2025-01-29 12:01:58,2
-740.7999999999993,1891.2,1660.3999999999996,1475.5,2940.5,-186.5,2025-01-29 12:01:58,2
-320.7999999999993,2267.2,2036.4,904.5,2883.5,-679.5,2025-01-29 12:01:58,2
-600.7999999999993,2839.2,2244.4,371.5,3255.5,-1152.5,2025-01-29 12:01:58,2
-1136.7999999999993,2919.2,1912.4,95.5,4345.5,-1175.5,2025-01-29 12:01:58,2
-1700.7999999999993,2903.2,1084.3999999999996,-388.5,4940.5,-869.5,2025-01-29 12:01:58,2
-1672.7999999999993,2271.2,1304.3999999999996,-1001.5,4119.5,-655.5,2025-01-29 12:01:58,2
-1168.7999999999993,1687.1999999999998,996.3999999999996,-1000.5,2751.5,-732.5,2025-01-29 12:01:58,2
-692.7999999999993,1071.1999999999998,236.39999999999964,-801.5,2728.5,-1220.5,2025-01-29 12:01:58,2
-840.7999999999993,711.1999999999998,-331.6000000000004,-982.5,2971.5,-1587.5,2025-01-29 12:01:59,2
-1156.7999999999993,927.1999999999998,-315.6000000000004,-1354.5,2952.5,-1618.5,2025-01-29 12:01:59,2
-1032.7999999999993,1279.1999999999998,-447.6000000000004,-1612.5,2773.5,-1644.5,2025-01-29 12:01:59,2
-592.7999999999993,1531.1999999999998,-479.6000000000004,-1579.5,2555.5,-1857.5,2025-01-29 12:01:59,2
-404.7999999999993,1591.1999999999998,-203.6000000000004,-1369.5,2251.5,-2097.5,2025-01-29 12:01:59,2
-668.7999999999993,1543.1999999999998,192.39999999999964,-1354.5,2051.5,-2324.5,2025-01-29 12:01:59,2
-732.7999999999993,1551.1999999999998,268.39999999999964,-1607.5,2323.5,-2392.5,2025-01-29 12:01:59,2
-544.7999999999993,1187.1999999999998,56.39999999999964,-1851.5,2793.5,-2513.5,2025-01-29 12:01:59,2
-284.7999999999993,967.1999999999998,-203.6000000000004,-1843.5,3221.5,-2524.5,2025-01-29 12:01:59,2
-668.7999999999993,975.1999999999998,-599.6000000000004,-1609.5,2982.5,-2065.5,2025-01-29 12:01:59,2
-392.7999999999993,955.1999999999998,-871.6000000000004,-1471.5,1882.5,-1892.5,2025-01-29 12:01:59,2
-356.7999999999993,855.1999999999998,-607.6000000000004,-1578.5,726.5,-1948.5,2025-01-29 12:01:59,2
-652.7999999999993,775.1999999999998,68.39999999999964,-1645.5,162.5,-2047.5,2025-01-29 12:01:59,2
-248.79999999999927,767.1999999999998,-139.60000000000036,-1654.5,292.5,-2000.5,2025-01-29 12:01:59,2
203.20000000000076,811.1999999999998,-791.6000000000004,-1881.5,1019.5,-1959.5,2025-01-29 12:01:59,2
231.20000000000076,879.1999999999998,-491.6000000000004,-1920.5,1239.5,-1759.5,2025-01-29 12:01:59,2
283.2000000000007,775.1999999999998,104.39999999999964,-1867.5,1108.5,-1326.5,2025-01-29 12:01:59,2
235.20000000000076,839.1999999999998,732.3999999999996,-1785.5,850.5,-955.5,2025-01-29 12:01:59,2
511.2000000000007,799.1999999999998,760.3999999999996,-1609.5,365.5,-566.5,2025-01-29 12:01:59,2
787.2000000000007,811.1999999999998,824.3999999999996,-1329.5,172.5,-211.5,2025-01-29 12:01:59,2
1007.2000000000008,723.1999999999998,348.39999999999964,-1150.5,615.5,35.5,2025-01-29 12:01:59,2
1255.2000000000007,1003.1999999999998,-331.6000000000004,-1250.5,1221.5,178.5,2025-01-29 12:01:59,1
1267.2000000000007,1451.1999999999998,-387.6000000000004,-1466.5,1428.5,217.5,2025-01-29 12:01:59,1
1315.2000000000007,1759.1999999999998,-571.6000000000004,-1758.5,1544.5,167.5,2025-01-29 12:01:59,1
1079.2000000000007,1779.1999999999998,-411.6000000000004,-1916.5,1847.5,-124.5,2025-01-29 12:01:59,1
1095.2000000000007,1575.1999999999998,496.3999999999997,-1780.5,2158.5,-708.5,2025-01-29 12:01:59,1
1043.2000000000007,1231.1999999999998,452.3999999999997,-1621.5,1881.5,-1353.5,2025-01-29 12:01:59,1
327.2000000000007,1051.1999999999998,-843.6000000000004,-1663.5,1846.5,-1703.5,2025-01-29 12:01:59,1
135.20000000000073,635.1999999999998,-1751.6000000000004,-1769.5,1558.5,-1522.5,2025-01-29 12:01:59,1
-14960.8,-1612.8000000000002,988.3999999999996,-1659.5,-4397.5,-1169.5,2025-01-29 12:01:59,1
331.2000000000007,195.19999999999985,-2187.6000000000004,-2137.5,230.5,-491.5,2025-01-29 12:01:59,1
747.2000000000007,427.1999999999998,-307.6000000000004,-1647.5,-2398.5,-179.5,2025-01-29 12:01:59,1
1011.2000000000008,499.1999999999998,544.3999999999996,-1378.5,-4358.5,-68.5,2025-01-29 12:01:59,1
1731.2000000000007,667.1999999999998,956.3999999999996,-1050.5,-5906.5,86.5,2025-01-29 12:01:59,1
2123.2000000000007,427.1999999999998,1572.3999999999996,-514.5,-5855.5,386.5,2025-01-29 12:01:59,1
3111.2000000000007,139.19999999999982,620.3999999999996,-63.5,-4530.5,459.5,2025-01-29 12:01:59,1
3531.2000000000007,415.1999999999998,512.3999999999996,28.5,-2996.5,324.5,2025-01-29 12:01:59,1
3759.2000000000007,467.1999999999998,792.3999999999996,124.5,-1658.5,325.5,2025-01-29 12:01:59,1
3503.2000000000007,215.19999999999985,1064.3999999999996,679.5,-389.5,298.5,2025-01-29 12:01:59,1
3319.2000000000007,-228.80000000000015,988.3999999999996,1119.5,523.5,131.5,2025-01-29 12:01:59,1
3375.2000000000007,-760.8000000000002,900.3999999999996,1727.5,1017.5,-49.5,2025-01-29 12:01:59,1
2355.2000000000007,-928.8000000000002,552.3999999999996,2378.5,1456.5,-192.5,2025-01-29 12:01:59,1
1359.2000000000007,-600.8000000000002,708.3999999999996,2878.5,1246.5,-225.5,2025-01-29 12:01:59,1
1303.2000000000007,-256.8000000000002,148.39999999999964,3155.5,501.5,7.5,2025-01-29 12:01:59,1
795.2000000000007,267.1999999999998,-27.600000000000364,3233.5,-219.5,334.5,2025-01-29 12:01:59,1
827.2000000000007,899.1999999999998,-635.6000000000004,3161.5,-946.5,605.5,2025-01-29 12:01:59,1
951.2000000000008,1219.1999999999998,-971.6000000000004,2981.5,-1290.5,627.5,2025-01-29 12:01:59,1
1007.2000000000008,1079.1999999999998,-1259.6000000000004,2772.5,-1778.5,440.5,2025-01-29 12:01:59,1
1051.2000000000007,895.1999999999998,-791.6000000000004,2620.5,-1983.5,191.5,2025-01-29 12:01:59,1
935.2000000000008,983.1999999999998,-15.600000000000364,2549.5,-2100.5,-66.5,2025-01-29 12:01:59,1
619.2000000000007,835.1999999999998,344.39999999999964,2676.5,-2204.5,-166.5,2025-01-29 12:01:59,1
747.2000000000007,903.1999999999998,616.3999999999996,2821.5,-2616.5,201.5,2025-01-29 12:01:59,1
1411.2000000000007,1279.1999999999998,-447.6000000000004,3128.5,-2277.5,566.5,2025-01-29 12:01:59,1
1623.2000000000007,2019.2,-1763.6000000000004,2496.5,-1403.5,832.5,2025-01-29 12:01:59,1
1339.2000000000007,1775.1999999999998,-1991.6000000000004,1782.5,1331.5,482.5,2025-01-29 12:01:59,1
763.2000000000007,1051.1999999999998,-1835.6000000000004,1149.5,3496.5,131.5,2025-01-29 12:01:59,1
191.20000000000076,247.19999999999985,-1203.6000000000004,1115.5,4349.5,-288.5,2025-01-29 12:01:59,1
-896.7999999999993,-224.80000000000015,-603.6000000000004,1823.5,4111.5,-485.5,2025-01-29 12:01:59,1
-1220.7999999999993,-540.8000000000002,0.3999999999996362,2976.5,1768.5,-353.5,2025-01-29 12:01:59,1
-1556.7999999999993,127.19999999999982,-395.6000000000004,3876.5,-664.5,416.5,2025-01-29 12:02:00,1
-548.7999999999993,1039.1999999999998,-819.6000000000004,3876.5,-1647.5,801.5,2025-01-29 12:02:00,1
263.2000000000007,1659.1999999999998,-871.6000000000004,3311.5,-1912.5,558.5,2025-01-29 12:02:00,1
391.2000000000007,1475.1999999999998,-1215.6000000000004,2632.5,-1433.5,-61.5,2025-01-29 12:02:00,1
-284.7999999999993,1535.1999999999998,-807.6000000000004,1872.5,-965.5,-675.5,2025-01-29 12:02:00,1
-712.7999999999993,1559.1999999999998,-227.6000000000004,1110.5,-1168.5,-899.5,2025-01-29 12:02:00,1
-652.7999999999993,1583.1999999999998,216.39999999999964,360.5,-1865.5,-1009.5,2025-01-29 12:02:00,1
95.20000000000071,999.1999999999998,580.3999999999996,-238.5,-2346.5,-1388.5,2025-01-29 12:02:00,1
455.2000000000007,263.1999999999998,1288.3999999999996,-572.5,-2068.5,-1537.5,2025-01-29 12:02:00,1
867.2000000000007,-680.8000000000002,1876.4,-434.5,-1026.5,-1557.5,2025-01-29 12:02:00,1
1103.2000000000007,-1608.8000000000002,1912.4,-240.5,318.5,-1588.5,2025-01-29 12:02:00,1
1291.2000000000007,-2408.8,1492.3999999999996,15.5,1364.5,-1757.5,2025-01-29 12:02:00,1
567.2000000000007,-2960.8,1640.3999999999996,575.5,2551.5,-2146.5,2025-01-29 12:02:00,1
-308.7999999999993,-2792.8,1464.3999999999996,1296.5,3201.5,-1931.5,2025-01-29 12:02:00,1
-628.7999999999993,-2488.8,952.3999999999996,1857.5,3394.5,-1415.5,2025-01-29 12:02:00,1
-700.7999999999993,-2504.8,1012.3999999999996,2390.5,3564.5,-807.5,2025-01-29 12:02:00,1
-628.7999999999993,-2284.8,1744.3999999999996,2774.5,3187.5,-538.5,2025-01-29 12:02:00,1
-720.7999999999993,-1676.8000000000002,2168.4,2830.5,2776.5,-411.5,2025-01-29 12:02:00,1
-864.7999999999993,-1000.8000000000002,2240.4,2874.5,2294.5,-129.5,2025-01-29 12:02:00,1
-524.7999999999993,-376.8000000000002,1660.3999999999996,2555.5,1755.5,151.5,2025-01-29 12:02:00,1
15.200000000000728,-0.8000000000001819,1312.3999999999996,1894.5,1392.5,116.5,2025-01-29 12:02:00,1
507.2000000000007,-52.80000000000018,1568.3999999999996,1278.5,1934.5,-91.5,2025-01-29 12:02:00,1
627.2000000000007,-580.8000000000002,1324.3999999999996,782.5,2912.5,-477.5,2025-01-29 12:02:00,1
99.20000000000071,-1288.8000000000002,1200.3999999999996,483.5,3697.5,-797.5,2025-01-29 12:02:00,1
155.20000000000073,-1996.8,1020.3999999999996,635.5,3931.5,-1514.5,2025-01-29 12:02:00,1
-516.7999999999993,-2804.8,1128.3999999999996,1110.5,3833.5,-2219.5,2025-01-29 12:02:00,1
-1616.7999999999993,-3088.8,1992.4,1663.5,3022.5,-2334.5,2025-01-29 12:02:00,1
-1976.7999999999995,-3256.8,1936.4,2048.5,1736.5,-1590.5,2025-01-29 12:02:00,1
-1636.7999999999993,-3116.8,1864.4,2150.5,140.5,-421.5,2025-01-29 12:02:00,1
-752.7999999999993,-2728.8,2252.4,2193.5,-559.5,276.5,2025-01-29 12:02:00,1
503.2000000000007,-2484.8,1736.3999999999996,2087.5,-780.5,347.5,2025-01-29 12:02:00,1
495.2000000000007,-2112.8,2080.4,1815.5,-371.5,653.5,2025-01-29 12:02:00,1
883.2000000000007,-2104.8,2080.4,1615.5,508.5,1236.5,2025-01-29 12:02:00,1
1099.2000000000007,-2292.8,2020.4,1365.5,1286.5,1527.5,2025-01-29 12:02:00,1
679.2000000000007,-2532.8,1436.3999999999996,1152.5,1967.5,1673.5,2025-01-29 12:02:00,1
183.20000000000076,-2300.8,1288.3999999999996,1053.5,2443.5,1895.5,2025-01-29 12:02:00,1
-24.799999999999272,-2432.8,1184.3999999999996,1020.5,2514.5,1938.5,2025-01-29 12:02:00,1
-340.7999999999993,-2728.8,1264.3999999999996,628.5,2160.5,1667.5,2025-01-29 12:02:00,1
-636.7999999999993,-2036.8,1368.3999999999996,474.5,1687.5,1721.5,2025-01-29 12:02:00,1
-628.7999999999993,-1076.8000000000002,256.39999999999964,-30.5,1085.5,1861.5,2025-01-29 12:02:00,1
59.20000000000073,-476.8000000000002,-1039.6000000000004,-902.5,1170.5,1811.5,2025-01-29 12:02:00,1
179.20000000000073,-856.8000000000002,-183.6000000000004,-1309.5,1688.5,1170.5,2025-01-29 12:02:00,1
-280.7999999999993,-864.8000000000002,512.3999999999996,-1454.5,1345.5,97.5,2025-01-29 12:02:00,1
-2072.7999999999997,-72.80000000000018,1424.3999999999996,-2229.5,-333.5,202.5,2025-01-29 12:02:00,1
-1920.7999999999995,-40.80000000000018,1184.3999999999996,-2750.5,-1267.5,455.5,2025-01-29 12:02:00,1
-924.7999999999992,-392.8000000000002,380.3999999999997,-2850.5,-1065.5,-386.5,2025-01-29 12:02:00,1
-1168.7999999999993,-1460.8000000000002,-743.6000000000004,-2955.5,160.5,-1221.5,2025-01-29 12:02:00,1
-904.7999999999992,-3972.8,-839.6000000000004,-2619.5,2165.5,-2160.5,2025-01-29 12:02:00,1
-1108.7999999999993,-6108.8,156.39999999999964,-1041.5,3505.5,-3505.5,2025-01-29 12:02:00,1
-2304.7999999999997,-6984.8,728.3999999999996,1620.5,2451.5,-3773.5,2025-01-29 12:02:00,1
-4344.799999999999,-7164.8,372.3999999999997,3291.5,533.5,-1952.5,2025-01-29 12:02:00,1
-5484.799999999999,-6720.8,-639.6000000000004,4422.5,-1137.5,1473.5,2025-01-29 12:02:00,1
-3940.7999999999993,-5984.8,-1219.6000000000004,5046.5,-1661.5,4724.5,2025-01-29 12:02:00,1
-1232.7999999999993,-4772.8,-2031.6000000000004,5343.5,-2391.5,5904.5,2025-01-29 12:02:00,1
143.20000000000073,-3628.8,-3327.6000000000004,4635.5,-3780.5,6079.5,2025-01-29 12:02:00,1
963.2000000000008,-2528.8,-3079.6000000000004,4716.5,-4327.5,6958.5,2025-01-29 12:02:01,1
2355.2000000000007,-1360.8000000000002,-2875.6000000000004,5137.5,-4221.5,7836.5,2025-01-29 12:02:01,1
4187.200000000001,-192.80000000000015,-2707.6000000000004,4934.5,-3858.5,7658.5,2025-01-29 12:02:01,1
5415.200000000001,795.1999999999998,-2199.6000000000004,4501.5,-3280.5,6742.5,2025-01-29 12:02:01,1
5603.200000000001,1555.1999999999998,-1759.6000000000004,4208.5,-1900.5,5427.5,2025-01-29 12:02:01,1
5159.200000000001,1699.1999999999998,-2127.6000000000004,3733.5,260.5,4301.5,2025-01-29 12:02:01,1
4407.200000000001,1535.1999999999998,-2315.6000000000004,2933.5,2438.5,3603.5,2025-01-29 12:02:01,1
2635.2000000000007,1027.1999999999998,-1799.6000000000004,2212.5,4053.5,3389.5,2025-01-29 12:02:01,1
1711.2000000000007,259.1999999999998,-1299.6000000000004,1978.5,4789.5,3345.5,2025-01-29 12:02:01,1
-388.7999999999993,-88.80000000000018,-1599.6000000000004,2672.5,3905.5,3518.5,2025-01-29 12:02:01,1
-1264.7999999999993,-140.80000000000018,-1595.6000000000004,2979.5,2536.5,3694.5,2025-01-29 12:02:01,1
-1292.7999999999993,-80.80000000000018,-1999.6000000000004,3170.5,436.5,4028.5,2025-01-29 12:02:01,1
-856.7999999999993,-348.8000000000002,-1543.6000000000004,3303.5,-2019.5,4508.5,2025-01-29 12:02:01,1
11.200000000000728,-548.8000000000002,-939.6000000000004,3491.5,-3032.5,4954.5,2025-01-29 12:02:01,1
1063.2000000000007,-1068.8000000000002,312.39999999999964,3950.5,-2831.5,5323.5,2025-01-29 12:02:01,1
1771.2000000000007,-1392.8000000000002,972.3999999999996,4655.5,-1944.5,5565.5,2025-01-29 12:02:01,1
2167.2000000000007,-1276.8000000000002,888.3999999999996,5466.5,-1016.5,5778.5,2025-01-29 12:02:01,1
2075.2000000000007,-956.8000000000002,648.3999999999996,6256.5,-303.5,5865.5,2025-01-29 12:02:01,1
1975.2000000000007,-156.80000000000018,536.3999999999996,6931.5,204.5,5773.5,2025-01-29 12:02:01,1
1555.2000000000007,619.1999999999998,16.399999999999636,7657.5,502.5,5462.5,2025-01-29 12:02:01,1
1455.2000000000007,1307.1999999999998,-655.6000000000004,7824.5,438.5,5097.5,2025-01-29 12:02:01,1
1323.2000000000007,1783.1999999999998,-251.6000000000004,7626.5,110.5,4477.5,2025-01-29 12:02:01,1
1039.2000000000007,2419.2,392.3999999999997,7376.5,-65.5,3917.5,2025-01-29 12:02:01,1
291.2000000000007,2583.2,620.3999999999996,6961.5,524.5,3496.5,2025-01-29 12:02:01,1
-64.79999999999927,2471.2,-287.6000000000004,6382.5,1305.5,3239.5,2025-01-29 12:02:01,1
-716.7999999999993,2367.2,-839.6000000000004,5867.5,1665.5,2867.5,2025-01-29 12:02:01,1
-772.7999999999993,1875.2,-875.6000000000004,5596.5,676.5,2573.5,2025-01-29 12:02:01,1
-424.7999999999993,1163.1999999999998,-167.60000000000036,5392.5,-1653.5,2135.5,2025-01-29 12:02:01,1
567.2000000000007,943.1999999999998,-127.60000000000036,4953.5,-2363.5,2145.5,2025-01-29 12:02:01,1
1351.2000000000007,867.1999999999998,432.3999999999997,4536.5,-2114.5,2231.5,2025-01-29 12:02:01,1
1899.2000000000007,1239.1999999999998,772.3999999999996,4283.5,-737.5,2547.5,2025-01-29 12:02:01,1
2291.2000000000007,1491.1999999999998,1016.3999999999996,4021.5,1073.5,2680.5,2025-01-29 12:02:01,1
2163.2000000000007,1411.1999999999998,648.3999999999996,4074.5,2952.5,2406.5,2025-01-29 12:02:01,1
1243.2000000000007,1211.1999999999998,820.3999999999996,4193.5,4320.5,1811.5,2025-01-29 12:02:01,1
-300.7999999999993,903.1999999999998,956.3999999999996,4326.5,4628.5,1346.5,2025-01-29 12:02:01,1
-1648.7999999999993,495.1999999999998,620.3999999999996,4731.5,4108.5,1350.5,2025-01-29 12:02:01,1
-2428.7999999999997,607.1999999999998,140.39999999999964,4832.5,2125.5,1661.5,2025-01-29 12:02:01,1
-2064.7999999999997,995.1999999999998,-159.60000000000036,4551.5,-647.5,2529.5,2025-01-29 12:02:01,1
-568.7999999999993,971.1999999999998,28.39999999999964,4444.5,-1565.5,3071.5,2025-01-29 12:02:01,1
307.2000000000007,727.1999999999998,1200.3999999999996,4362.5,-708.5,3407.5,2025-01-29 12:02:01,1
767.2000000000007,431.1999999999998,1452.3999999999996,4420.5,995.5,3459.5,2025-01-29 12:02:01,1
219.20000000000076,487.1999999999998,1556.3999999999996,4757.5,2841.5,3270.5,2025-01-29 12:02:01,1
-616.7999999999993,771.1999999999998,1556.3999999999996,5107.5,4169.5,2918.5,2025-01-29 12:02:01,1
-1896.7999999999995,1195.1999999999998,764.3999999999996,5360.5,4454.5,2956.5,2025-01-29 12:02:01,1
-2516.7999999999997,1011.1999999999998,-703.6000000000004,5285.5,4309.5,3343.5,2025-01-29 12:02:01,1
-2976.7999999999997,1207.1999999999998,-1511.6000000000004,5054.5,4100.5,3549.5,2025-01-29 12:02:01,1
-3408.7999999999997,2271.2,-2667.6000000000004,4270.5,3867.5,4188.5,2025-01-29 12:02:01,1
-3108.7999999999997,2939.2,-3315.6000000000004,2823.5,3229.5,4975.5,2025-01-29 12:02:01,1
-2112.7999999999997,3303.2,-3771.6,1559.5,2000.5,5116.5,2025-01-29 12:02:01,1
-772.7999999999993,2947.2,-3215.6000000000004,523.5,-7.5,3968.5,2025-01-29 12:02:01,1
-1056.7999999999993,2795.2,-2303.6000000000004,190.5,-1395.5,2371.5,2025-01-29 12:02:01,1
-1304.7999999999993,2595.2,-1163.6000000000004,201.5,-2029.5,1649.5,2025-01-29 12:02:01,1
215.20000000000076,2291.2,-851.6000000000004,489.5,-3341.5,989.5,2025-01-29 12:02:01,1
2103.2000000000007,1867.2,-2083.6000000000004,1069.5,-4365.5,-43.5,2025-01-29 12:02:01,1
2923.2000000000007,483.1999999999998,-2871.6000000000004,1597.5,-3629.5,-1332.5,2025-01-29 12:02:01,1
3571.2000000000007,-272.8000000000002,-2631.6000000000004,2098.5,-2625.5,-1954.5,2025-01-29 12:02:01,1
3919.2000000000007,-832.8000000000002,-3339.6000000000004,2087.5,-2297.5,-1983.5,2025-01-29 12:02:01,1
3659.2000000000007,-1408.8000000000002,-3311.6000000000004,1715.5,-1271.5,-1448.5,2025-01-29 12:02:01,1
2991.2000000000007,-1668.8000000000002,-1755.6000000000004,1714.5,1395.5,-834.5,2025-01-29 12:02:01,1
2747.2000000000007,-1504.8000000000002,-487.6000000000004,2380.5,3966.5,-638.5,2025-01-29 12:02:01,1
2071.2000000000007,-512.8000000000002,-451.6000000000004,3296.5,4795.5,-1163.5,2025-01-29 12:02:01,1
955.2000000000008,183.19999999999985,-959.6000000000004,3611.5,4833.5,-1855.5,2025-01-29 12:02:01,1
-224.79999999999927,707.1999999999998,-1211.6000000000004,3551.5,4238.5,-2457.5,2025-01-29 12:02:01,1
-1164.7999999999993,611.1999999999998,-1783.6000000000004,3326.5,2389.5,-2798.5,2025-01-29 12:02:01,1
-1648.7999999999993,-128.80000000000018,-2319.6000000000004,2700.5,-153.5,-2487.5,2025-01-29 12:02:01,1
-1592.7999999999993,-1340.8000000000002,-2203.6000000000004,1799.5,-2313.5,-1639.5,2025-01-29 12:02:02,1
-428.7999999999993,-2100.8,-1267.6000000000004,1361.5,-3191.5,-849.5,2025-01-29 12:02:02,1
863.2000000000007,-2204.8,-543.6000000000004,1660.5,-3432.5,-473.5,2025-01-29 12:02:02,1
2147.2000000000007,-1972.8,-91.60000000000036,2094.5,-3093.5,-690.5,2025-01-29 12:02:02,1
2923.2000000000007,-1432.8000000000002,104.39999999999964,2473.5,-2149.5,-1105.5,2025-01-29 12:02:02,1
3271.2000000000007,-952.8000000000002,364.3999999999997,2491.5,-1078.5,-1357.5,2025-01-29 12:02:02,1
3119.2000000000007,-636.8000000000002,204.39999999999964,2271.5,256.5,-1447.5,2025-01-29 12:02:02,1
3071.2000000000007,-984.8000000000002,-7.600000000000364,1908.5,1407.5,-1652.5,2025-01-29 12:02:02,1
2419.2000000000007,-1220.8000000000002,-19.600000000000364,1515.5,2362.5,-1724.5,2025-01-29 12:02:02,1
1767.2000000000007,-1484.8000000000002,148.39999999999964,1305.5,2469.5,-1802.5,2025-01-29 12:02:02,1
967.2000000000008,-1424.8000000000002,124.39999999999964,1306.5,1917.5,-1634.5,2025-01-29 12:02:02,1
423.2000000000007,-1212.8000000000002,-151.60000000000036,1150.5,1452.5,-993.5,2025-01-29 12:02:02,1
215.20000000000076,-1064.8000000000002,-283.6000000000004,730.5,1179.5,-118.5,2025-01-29 12:02:02,1
643.2000000000007,-868.8000000000002,188.39999999999964,292.5,1096.5,437.5,2025-01-29 12:02:02,1
611.2000000000007,-936.8000000000002,400.3999999999997,-63.5,892.5,604.5,2025-01-29 12:02:02,1
583.2000000000007,-1136.8000000000002,984.3999999999996,-321.5,594.5,718.5,2025-01-29 12:02:02,1
723.2000000000007,-972.8000000000002,1380.3999999999996,-485.5,238.5,889.5,2025-01-29 12:02:02,1
1035.2000000000007,-392.8000000000002,1064.3999999999996,-652.5,-179.5,1086.5,2025-01-29 12:02:02,1
1591.2000000000007,-124.80000000000018,936.3999999999996,-1076.5,-425.5,1241.5,2025-01-29 12:02:02,1
1671.2000000000007,63.19999999999982,424.3999999999997,-1674.5,81.5,1269.5,2025-01-29 12:02:02,1
1963.2000000000007,-188.80000000000015,228.39999999999964,-2434.5,1181.5,1074.5,2025-01-29 12:02:02,1
1663.2000000000007,-460.8000000000002,-151.60000000000036,-3156.5,2204.5,629.5,2025-01-29 12:02:02,1
1047.2000000000007,-432.8000000000002,-903.6000000000004,-3670.5,3094.5,107.5,2025-01-29 12:02:02,1
635.2000000000007,-108.80000000000018,-1411.6000000000004,-3955.5,3441.5,-572.5,2025-01-29 12:02:02,1
15.200000000000728,-88.80000000000018,-1443.6000000000004,-4262.5,3503.5,-1368.5,2025-01-29 12:02:02,1
-1400.7999999999993,-1448.8000000000002,-331.6000000000004,-4161.5,3542.5,-2081.5,2025-01-29 12:02:02,1
-2184.7999999999997,-2776.8,896.3999999999996,-3457.5,3137.5,-2857.5,2025-01-29 12:02:02,1
-2744.7999999999997,-4060.8,744.3999999999996,-2869.5,1841.5,-3494.5,2025-01-29 12:02:02,1
-3772.7999999999993,-4288.8,664.3999999999996,-2475.5,47.5,-3311.5,2025-01-29 12:02:02,1
-3448.7999999999997,-3752.8,-1871.6000000000004,-1444.5,-604.5,-2754.5,2025-01-29 12:02:02,1
-1908.7999999999995,-4664.8,-1683.6000000000004,900.5,-285.5,-3766.5,2025-01-29 12:02:02,1
-2468.7999999999997,-6136.8,-939.6000000000004,2899.5,-779.5,-3310.5,2025-01-29 12:02:02,1
-2972.7999999999997,-6824.8,-2055.6000000000004,3915.5,-1197.5,-1561.5,2025-01-29 12:02:02,1
-3760.7999999999993,-5612.8,-3727.6,3861.5,-1433.5,1433.5,2025-01-29 12:02:02,1
-1788.7999999999993,-2816.8,-4435.6,3277.5,-1819.5,3737.5,2025-01-29 12:02:02,1
-24.799999999999272,-280.8000000000002,-5155.6,2262.5,-3391.5,4514.5,2025-01-29 12:02:02,1
1479.2000000000007,1275.1999999999998,-5527.6,1080.5,-5009.5,5031.5,2025-01-29 12:02:02,1
4087.2000000000007,1787.1999999999998,-4947.6,-124.5,-6165.5,5376.5,2025-01-29 12:02:02,1
6759.200000000001,2279.2,-3251.6000000000004,-356.5,-5663.5,4610.5,2025-01-29 12:02:02,1
8115.200000000001,2419.2,-2367.6000000000004,2.5,-3523.5,2714.5,2025-01-29 12:02:02,1
7623.200000000001,2175.2,-1807.6000000000004,468.5,814.5,151.5,2025-01-29 12:02:02,1
4223.200000000001,551.1999999999998,-1883.6000000000004,272.5,5573.5,-1216.5,2025-01-29 12:02:02,1
1747.2000000000007,-432.8000000000002,-1687.6000000000004,430.5,7954.5,-591.5,2025-01-29 12:02:02,1
-176.79999999999927,-1604.8000000000002,-2311.6000000000004,445.5,8349.5,327.5,2025-01-29 12:02:02,1
-1772.7999999999993,-1956.8,-2131.6000000000004,500.5,7121.5,1522.5,2025-01-29 12:02:02,1
-2312.7999999999997,-1660.8000000000002,-1891.6000000000004,991.5,3960.5,2874.5,2025-01-29 12:02:02,1
-1920.7999999999995,-1028.8000000000002,-2207.6000000000004,1718.5,-769.5,4070.5,2025-01-29 12:02:02,1
-928.7999999999992,-144.80000000000018,-2463.6000000000004,1978.5,-3754.5,4921.5,2025-01-29 12:02:02,1
607.2000000000007,883.1999999999998,-2051.6000000000004,1878.5,-4660.5,5608.5,2025-01-29 12:02:02,1
2227.2000000000007,1767.1999999999998,-1675.6000000000004,1665.5,-4790.5,5889.5,2025-01-29 12:02:02,1
3183.2000000000007,2351.2,-1059.6000000000004,1507.5,-4344.5,5831.5,2025-01-29 12:02:02,1
4135.200000000001,2163.2,-1111.6000000000004,1557.5,-2967.5,5354.5,2025-01-29 12:02:02,1
4323.200000000001,1579.1999999999998,-915.6000000000004,1806.5,-840.5,4540.5,2025-01-29 12:02:02,1
3167.2000000000007,775.1999999999998,-919.6000000000004,2109.5,1430.5,3552.5,2025-01-29 12:02:02,1
1779.2000000000007,907.1999999999998,-639.6000000000004,2205.5,1815.5,3571.5,2025-01-29 12:02:02,1
951.2000000000008,1219.1999999999998,-599.6000000000004,2150.5,1278.5,3759.5,2025-01-29 12:02:02,1
595.2000000000007,1967.2,-883.6000000000004,1905.5,281.5,3927.5,2025-01-29 12:02:02,1
783.2000000000007,2899.2,-999.6000000000004,1406.5,-815.5,3767.5,2025-01-29 12:02:02,1
1379.2000000000007,3471.2,-611.6000000000004,1090.5,-1597.5,3169.5,2025-01-29 12:02:02,1
1999.2000000000007,3151.2,-403.6000000000004,1152.5,-1929.5,1891.5,2025-01-29 12:02:02,1
2011.2000000000007,1923.2,-543.6000000000004,1298.5,-1706.5,491.5,2025-01-29 12:02:02,1
1539.2000000000007,1399.1999999999998,252.39999999999964,1557.5,-1599.5,-204.5,2025-01-29 12:02:03,1
1359.2000000000007,1131.1999999999998,368.3999999999997,1706.5,-1602.5,-647.5,2025-01-29 12:02:03,1
959.2000000000008,943.1999999999998,560.3999999999996,1818.5,-1747.5,-1069.5,2025-01-29 12:02:03,1
627.2000000000007,871.1999999999998,520.3999999999996,1951.5,-2146.5,-1363.5,2025-01-29 12:02:03,1
-44.79999999999927,1111.1999999999998,348.39999999999964,2275.5,-2552.5,-1199.5,2025-01-29 12:02:03,1
-264.7999999999993,959.1999999999998,480.3999999999997,2402.5,-2632.5,-678.5,2025-01-29 12:02:03,1
-64.79999999999927,859.1999999999998,608.3999999999996,2561.5,-2779.5,-99.5,2025-01-29 12:02:03,1
563.2000000000007,367.1999999999998,1076.3999999999996,2920.5,-3295.5,356.5,2025-01-29 12:02:03,1
1507.2000000000007,63.19999999999982,1356.3999999999996,3512.5,-2889.5,639.5,2025-01-29 12:02:03,1
1667.2000000000007,283.1999999999998,1140.3999999999996,4076.5,-1117.5,875.5,2025-01-29 12:02:03,1
1347.2000000000007,639.1999999999998,172.39999999999964,4386.5,1912.5,1310.5,2025-01-29 12:02:03,1
519.2000000000007,271.1999999999998,-491.6000000000004,4540.5,4505.5,1570.5,2025-01-29 12:02:03,1
-1272.7999999999993,303.1999999999998,-479.6000000000004,4577.5,5732.5,1747.5,2025-01-29 12:02:03,1
-3276.7999999999997,899.1999999999998,-363.6000000000004,4315.5,5648.5,2286.5,2025-01-29 12:02:03,1
-4432.799999999999,1227.1999999999998,1064.3999999999996,4312.5,3946.5,2929.5,2025-01-29 12:02:03,1
-4732.799999999999,1499.1999999999998,1940.4,4475.5,1422.5,3144.5,2025-01-29 12:02:03,1
-4232.799999999999,1799.1999999999998,1560.3999999999996,4708.5,-853.5,3189.5,2025-01-29 12:02:03,1
-3292.7999999999997,2155.2,-463.6000000000004,4491.5,-985.5,3796.5,2025-01-29 12:02:03,1
-2620.7999999999997,2191.2,-1507.6000000000004,4060.5,208.5,4196.5,2025-01-29 12:02:03,1
-2116.7999999999997,2311.2,-2399.6000000000004,3101.5,1589.5,4422.5,2025-01-29 12:02:03,1
-1604.7999999999993,2503.2,-2459.6000000000004,1846.5,1741.5,4164.5,2025-01-29 12:02:03,1
-576.7999999999993,2023.2,-3247.6000000000004,1010.5,757.5,3316.5,2025-01-29 12:02:03,1
-740.7999999999993,1867.2,-5151.6,572.5,463.5,2579.5,2025-01-29 12:02:03,1
-928.7999999999992,1167.1999999999998,-4931.6,-69.5,321.5,2146.5,2025-01-29 12:02:03,1
-72.79999999999927,-596.8000000000002,-2303.6000000000004,-346.5,-1319.5,1474.5,2025-01-29 12:02:03,1
1823.2000000000007,-1896.8,180.39999999999964,706.5,-5345.5,564.5,2025-01-29 12:02:03,1
3239.2000000000007,-1928.8,1096.3999999999996,2498.5,-6926.5,162.5,2025-01-29 12:02:03,1
3991.2000000000007,-2176.8,916.3999999999996,4083.5,-3640.5,-250.5,2025-01-29 12:02:03,1
4103.200000000001,-1332.8000000000002,-823.6000000000004,4899.5,1201.5,-956.5,2025-01-29 12:02:03,1
3311.2000000000007,99.19999999999982,-3087.6000000000004,4889.5,3553.5,-1525.5,2025-01-29 12:02:03,1
1499.2000000000007,1667.1999999999998,-5039.6,3568.5,4970.5,-1806.5,2025-01-29 12:02:03,1
-16.799999999999272,2371.2,-4811.6,1712.5,4814.5,-1516.5,2025-01-29 12:02:03,1
-472.7999999999993,1843.2,-3087.6000000000004,674.5,2524.5,-1262.5,2025-01-29 12:02:03,1
171.20000000000073,943.1999999999998,-2523.6000000000004,204.5,-1346.5,-1479.5,2025-01-29 12:02:03,1
971.2000000000008,287.1999999999998,-2755.6000000000004,-197.5,-4112.5,-1901.5,2025-01-29 12:02:03,1
1795.2000000000007,-320.8000000000002,-2383.6000000000004,-383.5,-4839.5,-2327.5,2025-01-29 12:02:03,1
2779.2000000000007,-236.80000000000015,-2027.6000000000004,-263.5,-4039.5,-2479.5,2025-01-29 12:02:03,1
3407.2000000000007,107.19999999999982,-1835.6000000000004,-590.5,-2722.5,-2540.5,2025-01-29 12:02:03,1
3827.2000000000007,-104.80000000000018,-1075.6000000000004,-1076.5,-1401.5,-2601.5,2025-01-29 12:02:03,1
3679.2000000000007,-220.80000000000015,-267.6000000000004,-1287.5,-262.5,-2938.5,2025-01-29 12:02:03,1
3171.2000000000007,-608.8000000000002,-563.6000000000004,-1587.5,503.5,-3359.5,2025-01-29 12:02:03,1
2335.2000000000007,-1204.8000000000002,-19.600000000000364,-1763.5,914.5,-4003.5,2025-01-29 12:02:03,1
763.2000000000007,-1528.8000000000002,500.3999999999997,-1525.5,757.5,-4164.5,2025-01-29 12:02:03,1
-48.79999999999927,-1940.8,104.39999999999964,-1133.5,195.5,-3666.5,2025-01-29 12:02:03,1
-320.7999999999993,-2028.8,-367.6000000000004,-974.5,-714.5,-2658.5,2025-01-29 12:02:03,1
3.200000000000728,-1464.8000000000002,236.39999999999964,-1010.5,-1261.5,-1744.5,2025-01-29 12:02:03,1
851.2000000000007,-852.8000000000002,564.3999999999996,-1005.5,-1679.5,-1481.5,2025-01-29 12:02:03,1
1303.2000000000007,-592.8000000000002,484.3999999999997,-1176.5,-1656.5,-1569.5,2025-01-29 12:02:03,1
875.2000000000007,-524.8000000000002,36.39999999999964,-1595.5,-671.5,-1411.5,2025-01-29 12:02:03,1
731.2000000000007,-468.8000000000002,-35.600000000000364,-2248.5,297.5,-1053.5,2025-01-29 12:02:03,1
563.2000000000007,-460.8000000000002,-51.60000000000037,-2802.5,461.5,-754.5,2025-01-29 12:02:03,1
487.2000000000007,-488.8000000000002,108.39999999999964,-3367.5,69.5,-661.5,2025-01-29 12:02:03,1
335.2000000000007,-412.8000000000002,776.3999999999996,-3959.5,-889.5,-634.5,2025-01-29 12:02:03,1
379.2000000000007,-928.8000000000002,552.3999999999996,-4297.5,-1319.5,-352.5,2025-01-29 12:02:03,1
503.2000000000007,-1360.8000000000002,552.3999999999996,-4591.5,-1015.5,-499.5,2025-01-29 12:02:03,1
231.20000000000076,-1068.8000000000002,428.3999999999997,-4645.5,-241.5,-717.5,2025-01-29 12:02:03,1
31.200000000000728,-980.8000000000002,724.3999999999996,-4652.5,154.5,-957.5,2025-01-29 12:02:03,1
-248.79999999999927,-1288.8000000000002,1340.3999999999996,-4412.5,147.5,-1228.5,2025-01-29 12:02:03,1
-352.7999999999993,-1648.8000000000002,1472.3999999999996,-4066.5,30.5,-1570.5,2025-01-29 12:02:03,1
-652.7999999999993,-1644.8000000000002,1552.3999999999996,-3946.5,-35.5,-2009.5,2025-01-29 12:02:03,1
-1352.7999999999993,-1172.8000000000002,1864.4,-4138.5,-618.5,-2292.5,2025-01-29 12:02:03,1
-1984.7999999999995,-408.8000000000002,2660.4,-4408.5,-1072.5,-2188.5,2025-01-29 12:02:03,1
-2444.7999999999997,667.1999999999998,1656.3999999999996,-4205.5,-1199.5,-2415.5,2025-01-29 12:02:03,1
-2492.7999999999997,-504.8000000000002,-1391.6000000000004,-3809.5,-547.5,-3217.5,2025-01-29 12:02:04,1
-2064.7999999999997,-4480.8,-1363.6000000000004,-2133.5,606.5,-4724.5,2025-01-29 12:02:04,1
-1544.7999999999993,-7856.8,-1563.6000000000004,916.5,562.5,-6501.5,2025-01-29 12:02:04,1
-2704.7999999999997,-9336.8,-2319.6000000000004,3613.5,-1713.5,-6157.5,2025-01-29 12:02:04,1
-5372.799999999999,-7612.8,-2975.6000000000004,4567.5,-3455.5,-1919.5,2025-01-29 12:02:04,1
-3292.7999999999997,-3336.8,-3899.6,3615.5,-2887.5,3802.5,2025-01-29 12:02:04,1
131.20000000000073,-20.800000000000185,-5007.6,1766.5,-3379.5,6431.5,2025-01-29 12:02:04,1
3011.2000000000007,3011.2,-5155.6,-617.5,-4190.5,6726.5,2025-01-29 12:02:04,1
4731.200000000001,4839.2,-3651.6,-1784.5,-3975.5,5396.5,2025-01-29 12:02:04,1
5547.200000000001,5331.2,-2139.6000000000004,-1963.5,-2618.5,3130.5,2025-01-29 12:02:04,1
6007.200000000001,3359.2,-2551.6000000000004,-1898.5,-157.5,101.5,2025-01-29 12:02:04,1
3531.2000000000007,1255.1999999999998,-2355.6000000000004,-2511.5,2361.5,-1933.5,2025-01-29 12:02:04,1
1211.2000000000007,247.19999999999985,-159.60000000000036,-2028.5,3608.5,-2312.5,2025-01-29 12:02:04,1
-952.7999999999992,-164.80000000000018,112.39999999999964,-1301.5,3702.5,-1378.5,2025-01-29 12:02:04,1
-1920.7999999999995,-4.800000000000182,-719.6000000000004,-1049.5,3139.5,136.5,2025-01-29 12:02:04,1
-1764.7999999999993,427.1999999999998,-1283.6000000000004,-1048.5,2057.5,1348.5,2025-01-29 12:02:04,1
-1256.7999999999993,479.1999999999998,-1371.6000000000004,-1050.5,611.5,1950.5,2025-01-29 12:02:04,1
-380.7999999999993,-148.80000000000018,-1027.6000000000004,-817.5,-1424.5,2405.5,2025-01-29 12:02:04,1
731.2000000000007,-872.8000000000002,-435.6000000000004,-359.5,-2476.5,2846.5,2025-01-29 12:02:04,1
1591.2000000000007,-640.8000000000002,528.3999999999996,366.5,-2677.5,3073.5,2025-01-29 12:02:04,1
1935.2000000000007,-96.80000000000018,812.3999999999996,968.5,-1935.5,3203.5,2025-01-29 12:02:04,1
2351.2000000000007,931.1999999999998,388.3999999999997,1336.5,-775.5,3143.5,2025-01-29 12:02:04,1
1627.2000000000007,1999.2,220.39999999999964,1387.5,562.5,3065.5,2025-01-29 12:02:04,1
1111.2000000000007,2583.2,16.399999999999636,1468.5,1369.5,3024.5,2025-01-29 12:02:04,1
879.2000000000007,2759.2,-279.6000000000004,1438.5,1124.5,2646.5,2025-01-29 12:02:04,1
867.2000000000007,2223.2,16.399999999999636,1267.5,331.5,1926.5,2025-01-29 12:02:04,1
411.2000000000007,1519.1999999999998,616.3999999999996,1176.5,-234.5,1587.5,2025-01-29 12:02:04,1
667.2000000000007,1059.1999999999998,1104.3999999999996,1390.5,-520.5,1508.5,2025-01-29 12:02:04,1
899.2000000000007,935.1999999999998,816.3999999999996,1685.5,-526.5,1048.5,2025-01-29 12:02:04,1
955.2000000000008,1399.1999999999998,372.3999999999997,1740.5,-472.5,563.5,2025-01-29 12:02:04,1
407.2000000000007,1611.1999999999998,436.3999999999997,1768.5,-460.5,173.5,2025-01-29 12:02:04,1
127.20000000000071,1527.1999999999998,544.3999999999996,1804.5,-714.5,-203.5,2025-01-29 12:02:04,1
-48.79999999999927,1503.1999999999998,692.3999999999996,1692.5,-1313.5,-637.5,2025-01-29 12:02:04,1
-116.79999999999929,1287.1999999999998,1176.3999999999996,1620.5,-2037.5,-819.5,2025-01-29 12:02:04,1
-324.7999999999993,1219.1999999999998,1204.3999999999996,1763.5,-2346.5,-534.5,2025-01-29 12:02:04,1
435.2000000000007,1107.1999999999998,1308.3999999999996,1817.5,-2403.5,-268.5,2025-01-29 12:02:04,1
423.2000000000007,1175.1999999999998,1540.3999999999996,1831.5,-2014.5,-110.5,2025-01-29 12:02:04,1
835.2000000000007,1307.1999999999998,2072.4,1677.5,-1402.5,116.5,2025-01-29 12:02:04,1
835.2000000000007,1479.1999999999998,2196.4,1662.5,-848.5,251.5,2025-01-29 12:02:04,1
583.2000000000007,1391.1999999999998,1352.3999999999996,1761.5,-227.5,445.5,2025-01-29 12:02:04,1
111.20000000000071,875.1999999999998,1116.3999999999996,1934.5,1042.5,529.5,2025-01-29 12:02:04,1
-1100.7999999999993,555.1999999999998,1248.3999999999996,2316.5,1875.5,713.5,2025-01-29 12:02:04,1
-1888.7999999999995,247.19999999999985,1384.3999999999996,2624.5,1679.5,944.5,2025-01-29 12:02:04,1
-2348.7999999999997,-4.800000000000182,860.3999999999996,2756.5,914.5,1193.5,2025-01-29 12:02:04,1
-2260.7999999999997,255.19999999999985,1068.3999999999996,2865.5,-598.5,1718.5,2025-01-29 12:02:04,1
-1280.7999999999993,575.1999999999998,1952.4,3099.5,-975.5,2046.5,2025-01-29 12:02:04,1
-212.79999999999927,727.1999999999998,2516.4,3502.5,-634.5,1857.5,2025-01-29 12:02:04,1
-720.7999999999993,1423.1999999999998,3616.4,3737.5,503.5,1609.5,2025-01-29 12:02:04,1
-1852.7999999999995,2171.2,1416.3999999999996,3722.5,2824.5,1827.5,2025-01-29 12:02:04,1
-2596.7999999999997,2259.2,-635.6000000000004,3647.5,5597.5,2293.5,2025-01-29 12:02:04,1
-4116.799999999999,3435.2,-3019.6000000000004,2793.5,7285.5,2856.5,2025-01-29 12:02:04,1
-3228.7999999999997,3659.2,-4131.6,1188.5,5463.5,2728.5,2025-01-29 12:02:04,1
-2800.7999999999997,3635.2,-4287.6,-82.5,1617.5,1810.5,2025-01-29 12:02:04,1
-2568.7999999999997,2795.2,-4043.6,-1291.5,-1377.5,994.5,2025-01-29 12:02:04,1
-1992.7999999999995,1759.1999999999998,-3191.6000000000004,-1943.5,-2426.5,824.5,2025-01-29 12:02:04,1
-716.7999999999993,771.1999999999998,-2247.6000000000004,-1735.5,-2817.5,795.5,2025-01-29 12:02:04,1
1443.2000000000007,243.19999999999985,-1167.6000000000004,-1149.5,-3413.5,92.5,2025-01-29 12:02:04,1
2995.2000000000007,687.1999999999998,-207.6000000000004,-149.5,-3732.5,-952.5,2025-01-29 12:02:04,1
4175.200000000001,975.1999999999998,-163.60000000000036,730.5,-3263.5,-1579.5,2025-01-29 12:02:04,1
4759.200000000001,71.19999999999982,-523.6000000000004,1376.5,-1318.5,-1735.5,2025-01-29 12:02:04,7
5335.200000000001,-1068.8000000000002,-1023.6000000000004,1737.5,1674.5,-1770.5,2025-01-29 12:02:04,7
2411.2000000000007,-1304.8000000000002,-2047.6000000000004,706.5,8235.5,-666.5,2025-01-29 12:02:05,7
219.20000000000076,-872.8000000000002,-2251.6000000000004,338.5,9375.5,-552.5,2025-01-29 12:02:05,7
-2240.7999999999997,79.19999999999982,-2239.6000000000004,543.5,8979.5,-353.5,2025-01-29 12:02:05,7
-3704.7999999999993,463.1999999999998,-2707.6000000000004,792.5,6436.5,49.5,2025-01-29 12:02:05,7
-3136.7999999999997,623.1999999999998,-3907.6,567.5,1529.5,38.5,2025-01-29 12:02:05,7
-2228.7999999999997,279.1999999999998,-4195.6,-482.5,-4505.5,-499.5,2025-01-29 12:02:05,7
-1256.7999999999993,-432.8000000000002,-2839.6000000000004,-1492.5,-7813.5,-661.5,2025-01-29 12:02:05,7
795.2000000000007,-968.8000000000002,-1515.6000000000004,-1759.5,-8165.5,-642.5,2025-01-29 12:02:05,7
2719.2000000000007,-700.8000000000002,-463.6000000000004,-1587.5,-7080.5,-668.5,2025-01-29 12:02:05,7
4383.200000000001,-88.80000000000018,-279.6000000000004,-1357.5,-4950.5,-1080.5,2025-01-29 12:02:05,7
5183.200000000001,559.1999999999998,-39.60000000000037,-1184.5,-917.5,-2384.5,2025-01-29 12:02:05,7
4399.200000000001,879.1999999999998,-807.6000000000004,-1571.5,2167.5,-3340.5,2025-01-29 12:02:05,7
2643.2000000000007,1079.1999999999998,-791.6000000000004,-2194.5,3626.5,-3789.5,2025-01-29 12:02:05,7
1175.2000000000007,787.1999999999998,-1247.6000000000004,-2871.5,3271.5,-4070.5,2025-01-29 12:02:05,7
-140.79999999999927,639.1999999999998,-1183.6000000000004,-3459.5,2168.5,-4261.5,2025-01-29 12:02:05,7
-1012.7999999999992,143.19999999999982,-1211.6000000000004,-4152.5,373.5,-4029.5,2025-01-29 12:02:05,7
-1000.7999999999992,-392.8000000000002,-1043.6000000000004,-4712.5,-1304.5,-3254.5,2025-01-29 12:02:05,7
287.2000000000007,-616.8000000000002,-899.6000000000004,-5083.5,-2075.5,-2565.5,2025-01-29 12:02:05,7
1395.2000000000007,-512.8000000000002,-747.6000000000004,-5243.5,-1845.5,-2492.5,2025-01-29 12:02:05,7
1871.2000000000007,-324.8000000000002,-495.6000000000004,-5317.5,-1098.5,-2680.5,2025-01-29 12:02:05,7
1895.2000000000007,-308.8000000000002,-239.6000000000004,-5388.5,-92.5,-2967.5,2025-01-29 12:02:05,7
1095.2000000000007,-192.80000000000015,220.39999999999964,-5388.5,404.5,-3164.5,2025-01-29 12:02:05,7
-148.79999999999927,-204.80000000000015,-11.600000000000364,-5500.5,303.5,-3117.5,2025-01-29 12:02:05,7
-868.7999999999993,-252.80000000000015,-263.6000000000004,-5799.5,-588.5,-2781.5,2025-01-29 12:02:05,7
-992.7999999999992,-288.8000000000002,-467.6000000000004,-5958.5,-1644.5,-2310.5,2025-01-29 12:02:05,7
-496.7999999999993,-560.8000000000002,-155.60000000000036,-6104.5,-2443.5,-1871.5,2025-01-29 12:02:05,7
267.2000000000007,-732.8000000000002,-155.60000000000036,-6121.5,-2997.5,-1496.5,2025-01-29 12:02:05,7
1031.2000000000007,-648.8000000000002,56.39999999999964,-6133.5,-2723.5,-1200.5,2025-01-29 12:02:05,7
1747.2000000000007,-368.8000000000002,584.3999999999996,-6030.5,-1535.5,-1198.5,2025-01-29 12:02:05,7
1447.2000000000007,-200.80000000000015,408.3999999999997,-5927.5,-427.5,-1212.5,2025-01-29 12:02:05,7
1159.2000000000007,-132.80000000000018,-67.60000000000036,-6049.5,429.5,-1379.5,2025-01-29 12:02:05,7
391.2000000000007,-128.80000000000018,-551.6000000000004,-6069.5,1002.5,-1455.5,2025-01-29 12:02:05,7
-272.7999999999993,-12.800000000000182,-1003.6000000000004,-6077.5,954.5,-1338.5,2025-01-29 12:02:05,7
-84.79999999999927,751.1999999999998,-1387.6000000000004,-6130.5,684.5,-1483.5,2025-01-29 12:02:05,7
315.2000000000007,1011.1999999999998,-1367.6000000000004,-6623.5,181.5,-2394.5,2025-01-29 12:02:05,7
363.2000000000007,987.1999999999998,-687.6000000000004,-7042.5,53.5,-3434.5,2025-01-29 12:02:05,7
491.2000000000007,707.1999999999998,-363.6000000000004,-8171.5,599.5,-6028.5,2025-01-29 12:02:05,7
99.20000000000071,703.1999999999998,-803.6000000000004,-9290.5,1582.5,-7569.5,2025-01-29 12:02:05,7
-556.7999999999993,175.19999999999982,-883.6000000000004,-10315.5,1754.5,-8819.5,2025-01-29 12:02:05,7
-1620.7999999999993,-80.80000000000018,-1163.6000000000004,-11155.5,725.5,-9516.5,2025-01-29 12:02:05,7
-1752.7999999999993,-456.8000000000002,-2659.6000000000004,-11763.5,-1076.5,-9620.5,2025-01-29 12:02:05,7
-1308.7999999999993,-384.8000000000002,-3575.6000000000004,-12090.5,-2429.5,-9882.5,2025-01-29 12:02:05,7
-1300.7999999999993,95.19999999999982,-2767.6000000000004,-12485.5,-4479.5,-10127.5,2025-01-29 12:02:05,7
-392.7999999999993,1159.1999999999998,-2767.6000000000004,-13079.5,-6750.5,-10168.5,2025-01-29 12:02:05,7
-372.7999999999993,1679.1999999999998,-3887.6,-13557.5,-8350.5,-9179.5,2025-01-29 12:02:05,7
983.2000000000008,631.1999999999998,-6939.6,-13751.5,-7584.5,-7753.5,2025-01-29 12:02:05,7
2919.2000000000007,-1572.8000000000002,-7911.6,-14523.5,-4452.5,-7581.5,2025-01-29 12:02:05,7
2603.2000000000007,-1896.8,-2427.6000000000004,-15055.5,818.5,-8479.5,2025-01-29 12:02:05,7
919.2000000000008,-972.8000000000002,-791.6000000000004,-15083.5,1801.5,-7479.5,2025-01-29 12:02:05,7
471.2000000000007,-768.8000000000002,-1055.6000000000004,-14976.5,1303.5,-6472.5,2025-01-29 12:02:05,7
831.2000000000007,-704.8000000000002,-1779.6000000000004,-14554.5,-196.5,-5888.5,2025-01-29 12:02:05,7
1495.2000000000007,-488.8000000000002,-1791.6000000000004,-14069.5,-1583.5,-6046.5,2025-01-29 12:02:05,7
2475.2000000000007,-736.8000000000002,-1067.6000000000004,-13492.5,-2677.5,-7034.5,2025-01-29 12:02:06,7
2331.2000000000007,35.19999999999982,-1083.6000000000004,-13100.5,-3106.5,-7385.5,2025-01-29 12:02:06,7
2639.2000000000007,1015.1999999999998,-1635.6000000000004,-13216.5,-3070.5,-6875.5,2025-01-29 12:02:06,7
3435.2000000000007,1547.1999999999998,-1999.6000000000004,-13745.5,-2288.5,-6623.5,2025-01-29 12:02:06,7
4143.200000000001,1891.2,-1855.6000000000004,-14144.5,-927.5,-7132.5,2025-01-29 12:02:06,7
4675.200000000001,1655.1999999999998,-2087.6000000000004,-14468.5,544.5,-8490.5,2025-01-29 12:02:06,7
3423.2000000000007,1031.1999999999998,-2691.6000000000004,-14962.5,1922.5,-9841.5,2025-01-29 12:02:06,7
2243.2000000000007,899.1999999999998,-2291.6000000000004,-15231.5,2671.5,-10330.5,2025-01-29 12:02:06,7
1127.2000000000007,775.1999999999998,-3079.6000000000004,-15463.5,2091.5,-10448.5,2025-01-29 12:02:06,7
355.2000000000007,995.1999999999998,-3675.6,-15810.5,956.5,-10015.5,2025-01-29 12:02:06,7
351.2000000000007,951.1999999999998,-3307.6000000000004,-16460.5,-240.5,-9617.5,2025-01-29 12:02:06,7
571.2000000000007,1123.1999999999998,-2127.6000000000004,-16978.5,-1354.5,-9608.5,2025-01-29 12:02:06,7
811.2000000000007,1459.1999999999998,-1383.6000000000004,-17517.5,-2191.5,-9464.5,2025-01-29 12:02:06,7
819.2000000000007,2303.2,-1771.6000000000004,-18053.5,-2523.5,-9279.5,2025-01-29 12:02:06,7
1027.2000000000007,3107.2,-2783.6000000000004,-18704.5,-1957.5,-9285.5,2025-01-29 12:02:06,7
1515.2000000000007,2907.2,-2951.6000000000004,-18850.5,-1006.5,-10230.5,2025-01-29 12:02:06,7
1495.2000000000007,1859.2,-3111.6000000000004,-18673.5,-622.5,-11656.5,2025-01-29 12:02:06,7
607.2000000000007,295.1999999999998,-2967.6000000000004,-18773.5,-952.5,-12403.5,2025-01-29 12:02:06,7
303.2000000000007,-764.8000000000002,-2227.6000000000004,-18851.5,-2090.5,-12067.5,2025-01-29 12:02:06,7
491.2000000000007,-1572.8000000000002,-1551.6000000000004,-18459.5,-3164.5,-11147.5,2025-01-29 12:02:06,7
1175.2000000000007,-1804.8,-971.6000000000004,-17497.5,-3629.5,-10370.5,2025-01-29 12:02:06,7
1807.2000000000007,-1528.8000000000002,-951.6000000000004,-16673.5,-3881.5,-9992.5,2025-01-29 12:02:06,7
2331.2000000000007,-856.8000000000002,-1307.6000000000004,-16088.5,-4203.5,-9672.5,2025-01-29 12:02:06,7
2227.2000000000007,-468.8000000000002,-1171.6000000000004,-15639.5,-3797.5,-9338.5,2025-01-29 12:02:06,7
2179.2000000000007,-316.8000000000002,-1259.6000000000004,-15064.5,-3248.5,-9240.5,2025-01-29 12:02:06,7
1787.2000000000007,-36.80000000000018,-1675.6000000000004,-14309.5,-2381.5,-9186.5,2025-01-29 12:02:06,7
1495.2000000000007,-284.8000000000002,-2403.6000000000004,-13885.5,-1483.5,-9368.5,2025-01-29 12:02:06,7
1439.2000000000007,-656.8000000000002,-2659.6000000000004,-13408.5,-1127.5,-9659.5,2025-01-29 12:02:06,7
491.2000000000007,-872.8000000000002,-1979.6000000000004,-12610.5,-1682.5,-10094.5,2025-01-29 12:02:06,7
255.20000000000076,-528.8000000000002,-2011.6000000000004,-12092.5,-2188.5,-9948.5,2025-01-29 12:02:06,7
-16.799999999999272,-76.80000000000018,-1663.6000000000004,-12295.5,-2931.5,-9528.5,2025-01-29 12:02:06,7
503.2000000000007,267.1999999999998,-1035.6000000000004,-12447.5,-3452.5,-9191.5,2025-01-29 12:02:06,7
1531.2000000000007,375.1999999999998,-1819.6000000000004,-12205.5,-3974.5,-9204.5,2025-01-29 12:02:06,7
2331.2000000000007,83.19999999999982,-2695.6000000000004,-12311.5,-3992.5,-9691.5,2025-01-29 12:02:06,7
2019.2000000000007,-168.80000000000018,-2419.6000000000004,-12301.5,-3122.5,-9991.5,2025-01-29 12:02:06,7
1499.2000000000007,-444.8000000000002,-2479.6000000000004,-12134.5,-2382.5,-9911.5,2025-01-29 12:02:06,7
871.2000000000007,-708.8000000000002,-2915.6000000000004,-11901.5,-2049.5,-9576.5,2025-01-29 12:02:06,7
423.2000000000007,-956.8000000000002,-3475.6000000000004,-11602.5,-1833.5,-9295.5,2025-01-29 12:02:06,7
-976.7999999999992,-1852.8,-1935.6000000000004,-11022.5,-2929.5,-6990.5,2025-01-29 12:02:06,7
-1192.7999999999993,-3220.8,-275.6000000000004,-10563.5,-4111.5,-5404.5,2025-01-29 12:02:06,7
-1488.7999999999993,-3536.8,908.3999999999996,-9699.5,-4882.5,-3990.5,2025-01-29 12:02:06,7
-1384.7999999999993,-3912.8,1364.3999999999996,-8669.5,-5053.5,-2790.5,2025-01-29 12:02:06,7
-500.7999999999993,-3012.8,1912.4,-7316.5,-5435.5,-2075.5,2025-01-29 12:02:06,7
1007.2000000000008,-908.8000000000002,712.3999999999996,-5920.5,-6124.5,-1613.5,2025-01-29 12:02:06,7
2551.2000000000007,1695.1999999999998,-891.6000000000004,-5304.5,-4982.5,-1036.5,2025-01-29 12:02:06,7
3183.2000000000007,3963.2,-1835.6000000000004,-6054.5,-1875.5,-717.5,2025-01-29 12:02:06,7
3883.2000000000007,5063.2,-1875.6000000000004,-7233.5,2329.5,-1598.5,2025-01-29 12:02:06,7
4399.200000000001,4135.2,-1779.6000000000004,-8204.5,4935.5,-4173.5,2025-01-29 12:02:06,7
2447.2000000000007,719.1999999999998,-1327.6000000000004,-8889.5,4983.5,-8269.5,2025-01-29 12:02:06,7
395.2000000000007,-2740.8,-1735.6000000000004,-8673.5,3982.5,-10706.5,2025-01-29 12:02:06,7
-1936.7999999999995,-5308.8,-1743.6000000000004,-8525.5,2330.5,-10665.5,2025-01-29 12:02:06,7
-3840.7999999999993,-5876.8,-291.6000000000004,-7923.5,46.5,-7796.5,2025-01-29 12:02:06,7
-2820.7999999999997,-4832.8,1068.3999999999996,-7242.5,-1711.5,-4673.5,2025-01-29 12:02:06,7
207.20000000000076,-2944.8,1536.3999999999996,-6508.5,-3291.5,-4080.5,2025-01-29 12:02:06,7
1471.2000000000007,-1356.8000000000002,508.3999999999997,-6910.5,-3848.5,-4628.5,2025-01-29 12:02:06,7
2159.2000000000007,-840.8000000000002,-179.60000000000036,-8022.5,-2921.5,-5523.5,2025-01-29 12:02:06,7
1719.2000000000007,-1460.8000000000002,332.39999999999964,-8678.5,-1418.5,-6277.5,2025-01-29 12:02:06,7
827.2000000000007,-1932.8,724.3999999999996,-8664.5,-915.5,-6075.5,2025-01-29 12:02:06,7
355.2000000000007,-3204.8,40.39999999999964,-8848.5,-968.5,-5836.5,2025-01-29 12:02:06,7
147.20000000000073,-3884.8,120.39999999999964,-8527.5,-1187.5,-5722.5,2025-01-29 12:02:06,7
-600.7999999999993,-4076.8,296.39999999999964,-7793.5,-1691.5,-5415.5,2025-01-29 12:02:06,7
-652.7999999999993,-3344.8,580.3999999999996,-7207.5,-2434.5,-4838.5,2025-01-29 12:02:06,7
-356.7999999999993,-3076.8,364.3999999999997,-6767.5,-3029.5,-4294.5,2025-01-29 12:02:06,7
235.20000000000076,-2464.8,476.3999999999997,-6353.5,-3290.5,-3880.5,2025-01-29 12:02:06,7
875.2000000000007,-2308.8,328.39999999999964,-6463.5,-2905.5,-3666.5,2025-01-29 12:02:06,7
1371.2000000000007,-2320.8,436.3999999999997,-6718.5,-2149.5,-3596.5,2025-01-29 12:02:06,7
1259.2000000000007,-2420.8,560.3999999999996,-6958.5,-1521.5,-3608.5,2025-01-29 12:02:07,7
691.2000000000007,-2800.8,1000.3999999999996,-7166.5,-1382.5,-3124.5,2025-01-29 12:02:07,7
391.2000000000007,-2956.8,1092.3999999999996,-7132.5,-1377.5,-2409.5,2025-01-29 12:02:07,7
439.2000000000007,-3180.8,1496.3999999999996,-6949.5,-1266.5,-1465.5,2025-01-29 12:02:07,7
603.2000000000007,-3388.8,1880.4,-6606.5,-822.5,-279.5,2025-01-29 12:02:07,7
763.2000000000007,-3296.8,1508.3999999999996,-6159.5,-462.5,813.5,2025-01-29 12:02:07,7
671.2000000000007,-2580.8,136.39999999999964,-5711.5,56.5,1725.5,2025-01-29 12:02:07,7
387.2000000000007,-2140.8,-1347.6000000000004,-5467.5,1083.5,2250.5,2025-01-29 12:02:07,7
171.20000000000073,-1720.8000000000002,-2035.6000000000004,-5178.5,2227.5,2119.5,2025-01-29 12:02:07,7
-584.7999999999993,-1440.8000000000002,-1247.6000000000004,-3932.5,3353.5,903.5,2025-01-29 12:02:07,7
-1436.7999999999993,-1328.8000000000002,-951.6000000000004,-2255.5,2569.5,-614.5,2025-01-29 12:02:07,7
-3084.7999999999997,-764.8000000000002,-927.6000000000004,-1410.5,84.5,-655.5,2025-01-29 12:02:07,7
-2800.7999999999997,535.1999999999998,-487.6000000000004,-1046.5,-2823.5,658.5,2025-01-29 12:02:07,7
-1424.7999999999993,1295.1999999999998,-139.60000000000036,-988.5,-4785.5,2087.5,2025-01-29 12:02:07,7
903.2000000000008,1459.1999999999998,-715.6000000000004,-1238.5,-5449.5,2889.5,2025-01-29 12:02:07,7
3263.2000000000007,943.1999999999998,-1615.6000000000004,-1497.5,-3872.5,2902.5,2025-01-29 12:02:07,7
4267.200000000001,615.1999999999998,-2251.6000000000004,-1607.5,-258.5,1813.5,2025-01-29 12:02:07,7
3611.2000000000007,819.1999999999998,-1503.6000000000004,-1596.5,2669.5,642.5,2025-01-29 12:02:07,7
1475.2000000000007,1215.1999999999998,-163.60000000000036,-1358.5,3707.5,70.5,2025-01-29 12:02:07,7
