acceleration_x,acceleration_y,acceleration_z,gyroscope_x,gyroscope_y,gyroscope_z,timestamp,label
1628,16024,2916,-149,182,-191,2025-01-29 12:40:34,0.0
1660,16068,3104,-181,157,-146,2025-01-29 12:40:34,0.0
1652,16028,3096,-144,163,-188,2025-01-29 12:40:34,0.0
1612,16092,3184,-150,178,-158,2025-01-29 12:40:34,0.0
1660,15940,2952,-162,153,-182,2025-01-29 12:40:34,0.0
1652,16068,3000,-157,176,-186,2025-01-29 12:40:34,0.0
1604,15968,3144,-147,151,-189,2025-01-29 12:40:34,0.0
1628,15960,3016,-175,156,-159,2025-01-29 12:40:34,0.0
1740,15896,3120,-167,170,-194,2025-01-29 12:40:34,0.0
1676,16004,3072,-154,150,-159,2025-01-29 12:40:34,0.0
1592,15824,3048,-170,165,-161,2025-01-29 12:40:34,0.0
1696,15808,3048,-158,160,-190,2025-01-29 12:40:34,0.0
1672,15916,3100,-153,172,-184,2025-01-29 12:40:34,0.0
1688,15968,3092,-158,173,-178,2025-01-29 12:40:34,0.0
1688,15908,3096,-167,168,-189,2025-01-29 12:40:34,0.0
1688,15904,3020,-161,149,-150,2025-01-29 12:40:34,0.0
1764,16012,2980,-163,179,-176,2025-01-29 12:40:34,0.0
1764,15972,3124,-175,155,-184,2025-01-29 12:40:35,0.0
1680,16060,3108,-158,181,-166,2025-01-29 12:40:35,0.0
1656,15940,3008,-158,157,-186,2025-01-29 12:40:35,0.0
1688,15944,3000,-157,147,-182,2025-01-29 12:40:35,0.0
1680,16000,3224,-151,185,-179,2025-01-29 12:40:35,0.0
1700,16020,3124,-143,161,-172,2025-01-29 12:40:35,0.0
1704,15992,3020,-151,170,-168,2025-01-29 12:40:35,0.0
1652,15940,3084,-169,161,-179,2025-01-29 12:40:35,0.0
1576,16012,3048,-169,170,-176,2025-01-29 12:40:35,0.0
1692,16056,3160,-169,156,-161,2025-01-29 12:40:35,0.0
1616,16024,3148,-149,166,-175,2025-01-29 12:40:35,0.0
1668,15956,3016,-150,172,-172,2025-01-29 12:40:35,0.0
1644,15864,3132,-139,184,-166,2025-01-29 12:40:35,0.0
1744,15984,3012,-153,153,-184,2025-01-29 12:40:35,0.0
1652,16032,3044,-154,158,-192,2025-01-29 12:40:35,0.0
1616,15920,2976,-168,183,-163,2025-01-29 12:40:35,0.0
1580,16016,3044,-161,172,-176,2025-01-29 12:40:35,0.0
1660,15956,2980,-157,177,-181,2025-01-29 12:40:35,0.0
1628,15936,3056,-164,157,-158,2025-01-29 12:40:35,0.0
1644,16012,3144,-176,144,-154,2025-01-29 12:40:35,0.0
1592,15928,3156,-144,167,-165,2025-01-29 12:40:35,0.0
1572,16028,3092,-149,172,-177,2025-01-29 12:40:35,0.0
1728,15892,3072,-157,176,-154,2025-01-29 12:40:35,0.0
1700,15912,2936,-165,160,-171,2025-01-29 12:40:35,0.0
1596,15980,3016,-140,169,-172,2025-01-29 12:40:35,0.0
1664,15916,3112,-145,165,-181,2025-01-29 12:40:35,0.0
1680,15984,3044,-168,167,-182,2025-01-29 12:40:35,0.0
1604,16040,3028,-173,165,-205,2025-01-29 12:40:35,0.0
1612,16048,3204,-141,166,-167,2025-01-29 12:40:35,0.0
1680,15972,3144,-150,171,-183,2025-01-29 12:40:35,0.0
1584,15956,2952,-160,165,-178,2025-01-29 12:40:35,0.0
1636,16052,2972,-140,167,-172,2025-01-29 12:40:35,0.0
1572,15996,3068,-185,132,-162,2025-01-29 12:40:35,0.0
1708,15984,2996,-170,189,-177,2025-01-29 12:40:35,0.0
1692,15948,3008,-150,164,-179,2025-01-29 12:40:35,0.0
1644,15856,3048,-169,172,-163,2025-01-29 12:40:35,0.0
1560,15984,3100,-167,153,-178,2025-01-29 12:40:35,0.0
1612,15948,3052,-157,166,-166,2025-01-29 12:40:35,0.0
1580,15984,3220,-162,170,-171,2025-01-29 12:40:35,0.0
1648,15932,3016,-142,162,-184,2025-01-29 12:40:35,0.0
1716,15976,3108,-135,154,-173,2025-01-29 12:40:35,0.0
1600,15984,3036,-160,186,-195,2025-01-29 12:40:35,0.0
1728,16040,2964,-179,161,-176,2025-01-29 12:40:35,0.0
1604,16000,3112,-157,174,-161,2025-01-29 12:40:35,0.0
1508,16024,3124,-165,177,-191,2025-01-29 12:40:35,0.0
1620,15972,3108,-151,164,-176,2025-01-29 12:40:35,0.0
1740,16024,3096,-165,179,-179,2025-01-29 12:40:35,0.0
1720,15996,3024,-149,181,-181,2025-01-29 12:40:35,0.0
1696,15964,3200,-160,168,-167,2025-01-29 12:40:35,0.0
1632,15988,2984,-155,162,-172,2025-01-29 12:40:35,0.0
1692,15876,3068,-158,160,-175,2025-01-29 12:40:35,0.0
1636,15996,3104,-143,169,-184,2025-01-29 12:40:35,0.0
1620,16036,3084,-151,171,-169,2025-01-29 12:40:35,0.0
1736,15992,3104,-179,161,-147,2025-01-29 12:40:35,0.0
1680,15976,3132,-183,145,-182,2025-01-29 12:40:35,0.0
1652,15984,3080,-155,182,-156,2025-01-29 12:40:35,0.0
1628,15884,3084,-148,159,-160,2025-01-29 12:40:35,0.0
1672,16080,3136,-153,163,-188,2025-01-29 12:40:35,0.0
1628,15932,2924,-168,171,-185,2025-01-29 12:40:35,0.0
1644,16000,3048,-163,168,-184,2025-01-29 12:40:35,0.0
1636,15988,3076,-170,149,-170,2025-01-29 12:40:36,0.0
1672,15948,3092,-154,167,-194,2025-01-29 12:40:36,0.0
1736,15936,3072,-170,168,-184,2025-01-29 12:40:36,0.0
1700,15888,2956,-177,155,-175,2025-01-29 12:40:36,0.0
1680,15980,3040,-162,154,-180,2025-01-29 12:40:36,0.0
1680,16012,3092,-168,159,-183,2025-01-29 12:40:36,0.0
1652,16072,2928,-173,166,-178,2025-01-29 12:40:36,0.0
1752,15932,3048,-142,184,-175,2025-01-29 12:40:36,0.0
1688,15908,3228,-167,184,-173,2025-01-29 12:40:36,0.0
1640,15968,2940,-173,182,-178,2025-01-29 12:40:36,0.0
1684,15992,2932,-175,147,-174,2025-01-29 12:40:36,0.0
1652,16016,3160,-150,147,-159,2025-01-29 12:40:36,0.0
1680,15972,3008,-199,185,-187,2025-01-29 12:40:36,0.0
1668,15916,2956,-176,147,-169,2025-01-29 12:40:36,0.0
1644,15920,3148,-168,156,-171,2025-01-29 12:40:36,0.0
1532,15896,2988,-182,177,-165,2025-01-29 12:40:36,0.0
1672,15996,3040,-148,162,-168,2025-01-29 12:40:36,0.0
1720,15900,3172,-168,174,-176,2025-01-29 12:40:36,0.0
1616,15988,3080,-160,184,-167,2025-01-29 12:40:36,0.0
1664,15828,2976,-168,186,-182,2025-01-29 12:40:36,0.0
1608,15996,3060,-181,196,-171,2025-01-29 12:40:36,0.0
1620,15964,3120,-162,140,-181,2025-01-29 12:40:36,0.0
1464,15940,3036,-131,169,-188,2025-01-29 12:40:36,
1664,15964,3036,-148,181,-173,2025-01-29 12:40:36,0.0
1568,15968,3168,-162,160,-188,2025-01-29 12:40:36,0.0
1660,16072,3068,-170,159,-167,2025-01-29 12:40:36,0.0
1680,15904,3112,-157,153,-161,2025-01-29 12:40:36,0.0
1656,15976,3008,-135,171,-180,2025-01-29 12:40:36,0.0
1616,15952,3024,-136,145,-170,2025-01-29 12:40:36,0.0
1572,15932,3040,-158,174,-182,2025-01-29 12:40:36,0.0
1588,15928,3064,-155,180,-182,2025-01-29 12:40:36,0.0
1756,15916,3120,-156,172,-182,2025-01-29 12:40:36,0.0
1616,15904,3112,-172,160,-178,2025-01-29 12:40:36,0.0
1684,16040,3076,-163,181,-192,2025-01-29 12:40:36,0.0
1684,15928,3060,-172,157,-169,2025-01-29 12:40:36,0.0
1616,16000,3068,-163,158,-163,2025-01-29 12:40:36,0.0
1608,15908,3008,-172,164,-178,2025-01-29 12:40:36,0.0
1692,15920,3104,-166,175,-171,2025-01-29 12:40:36,0.0
1720,16016,2928,-162,161,-175,2025-01-29 12:40:36,0.0
1600,15972,3032,-145,153,-187,2025-01-29 12:40:36,0.0
1656,16000,3048,-157,172,-171,2025-01-29 12:40:36,0.0
1672,16004,3160,-164,169,-191,2025-01-29 12:40:36,0.0
1676,16004,3052,-174,182,-184,2025-01-29 12:40:36,0.0
1600,16048,3052,-145,165,-166,2025-01-29 12:40:36,0.0
1596,15940,2956,-160,165,-144,2025-01-29 12:40:36,0.0
1612,15956,3136,-160,173,-184,2025-01-29 12:40:36,0.0
1800,15916,3116,-139,163,-169,2025-01-29 12:40:36,0.0
1716,15904,3144,-145,168,-171,2025-01-29 12:40:36,0.0
1652,15992,2904,-164,152,-175,2025-01-29 12:40:36,0.0
1696,16072,3120,-171,168,-173,2025-01-29 12:40:36,0.0
1588,15992,3032,-174,174,-181,2025-01-29 12:40:36,0.0
1720,15920,2996,-164,168,-175,2025-01-29 12:40:36,0.0
1632,15964,3088,-158,186,-173,2025-01-29 12:40:36,0.0
1724,15944,3128,-167,171,-179,2025-01-29 12:40:36,0.0
1644,16012,3052,-148,131,-160,2025-01-29 12:40:36,0.0
1684,15928,3112,-168,172,-174,2025-01-29 12:40:36,0.0
1756,15960,3108,-172,147,-191,2025-01-29 12:40:36,0.0
1684,15932,3200,-143,170,-191,2025-01-29 12:40:36,0.0
1592,15944,3224,-169,169,-206,2025-01-29 12:40:36,0.0
1620,16020,2920,-160,173,-182,2025-01-29 12:40:36,0.0
1632,15964,2988,-168,168,-162,2025-01-29 12:40:36,0.0
1708,15908,2912,-140,166,-183,2025-01-29 12:40:37,0.0
1604,15964,3060,-169,157,-186,2025-01-29 12:40:37,0.0
1684,15976,3048,-172,148,-171,2025-01-29 12:40:37,0.0
1668,16024,3124,-145,168,-151,2025-01-29 12:40:37,0.0
1688,16012,3072,-136,161,-191,2025-01-29 12:40:37,0.0
1568,16088,2932,-164,189,-172,2025-01-29 12:40:37,0.0
1692,16000,3060,-185,164,-172,2025-01-29 12:40:37,0.0
1676,16028,2952,-171,169,-161,2025-01-29 12:40:37,0.0
1736,16036,3084,-169,168,-166,2025-01-29 12:40:37,0.0
1664,15972,3036,-157,193,-176,2025-01-29 12:40:37,0.0
1600,15988,3028,-166,164,-173,2025-01-29 12:40:37,0.0
1776,16060,3104,-164,166,-163,2025-01-29 12:40:37,0.0
1628,15892,3152,-163,157,-153,2025-01-29 12:40:37,0.0
1760,15976,3064,-152,174,-168,2025-01-29 12:40:37,0.0
1592,15964,2992,-163,176,-165,2025-01-29 12:40:37,0.0
1664,15932,2972,-162,168,-167,2025-01-29 12:40:37,0.0
1680,16024,3080,-150,192,-161,2025-01-29 12:40:37,0.0
1652,15920,3012,-179,166,-180,2025-01-29 12:40:37,0.0
1616,15912,3148,-145,158,-169,2025-01-29 12:40:37,0.0
1636,16036,3028,-156,175,-173,2025-01-29 12:40:37,0.0
1644,15948,2984,-160,168,-170,2025-01-29 12:40:37,0.0
1732,15920,2952,-163,155,-175,2025-01-29 12:40:37,0.0
1640,16016,3064,-164,162,-177,2025-01-29 12:40:37,0.0
1640,16024,3088,-161,154,-179,2025-01-29 12:40:37,0.0
1728,16060,3288,-157,174,-182,2025-01-29 12:40:37,0.0
1576,16020,3076,-151,138,-182,2025-01-29 12:40:37,0.0
1616,16008,3056,-146,180,-168,2025-01-29 12:40:37,0.0
1636,15928,3084,-154,191,-182,2025-01-29 12:40:37,0.0
1624,15976,3228,-157,152,-171,2025-01-29 12:40:37,0.0
1584,15928,3144,-159,143,-168,2025-01-29 12:40:37,0.0
1600,16016,3064,-135,178,-182,2025-01-29 12:40:37,0.0
1624,16032,3208,-177,173,-164,2025-01-29 12:40:37,0.0
1584,16084,3040,-162,198,-189,2025-01-29 12:40:37,0.0
1616,15960,3076,-148,159,-169,2025-01-29 12:40:37,0.0
1852,16068,2888,-173,127,-170,2025-01-29 12:40:37,0.0
1948,15992,2680,-145,155,-162,2025-01-29 12:40:37,0.0
1932,16044,2836,-154,141,-171,2025-01-29 12:40:37,0.0
1352,16052,3272,-161,207,-175,2025-01-29 12:40:37,0.0
1756,15988,2888,-146,173,-176,2025-01-29 12:40:37,0.0
1700,15964,2848,-168,174,-156,2025-01-29 12:40:37,0.0
1668,15964,3124,-189,154,-189,2025-01-29 12:40:37,0.0
1596,16000,3092,-166,156,-159,2025-01-29 12:40:37,0.0
1820,16052,2952,-167,161,-178,2025-01-29 12:40:37,0.0
1600,15996,3216,-176,129,-166,2025-01-29 12:40:37,0.0
1664,16008,3052,-138,154,-179,2025-01-29 12:40:37,0.0
1612,15980,3192,-145,205,-177,2025-01-29 12:40:37,0.0
1528,16060,3104,-152,170,-167,2025-01-29 12:40:37,0.0
1740,16036,2980,-176,163,-165,2025-01-29 12:40:37,0.0
1748,15924,2852,-155,190,-146,2025-01-29 12:40:37,0.0
1700,15956,2872,-184,176,-150,2025-01-29 12:40:37,0.0
1656,16020,3020,-162,106,-157,2025-01-29 12:40:37,0.0
1664,15880,2960,-154,167,-174,2025-01-29 12:40:37,0.0
1704,16048,3060,-147,186,-192,2025-01-29 12:40:37,0.0
1624,16020,3040,-189,149,-185,2025-01-29 12:40:37,0.0
1480,15996,3368,-178,195,-178,2025-01-29 12:40:37,0.0
1752,15924,2744,-151,137,-173,2025-01-29 12:40:37,0.0
1644,15896,3128,-166,185,-178,2025-01-29 12:40:37,0.0
1660,15960,3116,-170,174,-171,2025-01-29 12:40:37,0.0
1632,15984,3104,-176,158,-177,2025-01-29 12:40:37,0.0
1724,15916,2856,-152,151,-180,2025-01-29 12:40:37,0.0
1624,15940,3024,-169,155,-179,2025-01-29 12:40:38,0.0
1668,15980,3088,-166,158,-165,2025-01-29 12:40:38,
1696,16076,2972,-145,169,-165,2025-01-29 12:40:38,0.0
1636,15952,3176,-169,155,-166,2025-01-29 12:40:38,0.0
1700,16012,2952,-160,156,-184,2025-01-29 12:40:38,0.0
1532,16000,3208,-144,175,-162,2025-01-29 12:40:38,0.0
1820,15900,2972,-149,163,-166,2025-01-29 12:40:38,0.0
1640,15964,3152,-150,167,-163,2025-01-29 12:40:38,0.0
1600,16008,3044,-153,178,-173,2025-01-29 12:40:38,0.0
1680,15996,2932,-155,150,-175,2025-01-29 12:40:38,0.0
1556,15888,3104,-170,177,-171,2025-01-29 12:40:38,0.0
1568,15908,3196,-169,163,-175,2025-01-29 12:40:38,0.0
1564,15944,2968,-158,166,-182,2025-01-29 12:40:38,0.0
1772,15956,3044,-141,180,-185,2025-01-29 12:40:38,0.0
1728,15972,2872,-170,141,-188,2025-01-29 12:40:38,0.0
1544,16020,3136,-144,139,-155,2025-01-29 12:40:38,0.0
1596,16004,2940,-148,202,-205,2025-01-29 12:40:38,0.0
1748,15976,3080,-167,162,-175,2025-01-29 12:40:38,0.0
1652,16044,2964,-186,146,-193,2025-01-29 12:40:38,0.0
1652,16060,3148,-156,172,-173,2025-01-29 12:40:38,0.0
1700,15952,2972,-137,177,-170,2025-01-29 12:40:38,0.0
1600,15976,3116,-157,152,-189,2025-01-29 12:40:38,0.0
1620,15868,3176,-173,172,-176,2025-01-29 12:40:38,0.0
1596,16024,3100,-149,159,-188,2025-01-29 12:40:38,0.0
1756,15984,2976,-150,149,-166,2025-01-29 12:40:38,0.0
1660,15892,3080,-176,158,-172,2025-01-29 12:40:38,0.0
1620,15904,2980,-163,142,-185,2025-01-29 12:40:38,0.0
1792,15912,2928,-143,162,-184,2025-01-29 12:40:38,0.0
1652,16000,3004,-134,164,-166,2025-01-29 12:40:38,0.0
1572,15964,3124,-147,150,-189,2025-01-29 12:40:38,0.0
1644,16068,3032,-151,169,-175,2025-01-29 12:40:38,0.0
1736,15980,3064,-152,175,-149,2025-01-29 12:40:38,0.0
1632,15952,2952,-160,170,-186,2025-01-29 12:40:38,0.0
1660,16016,3072,-173,150,-153,2025-01-29 12:40:38,0.0
1688,15944,3092,-175,176,-182,2025-01-29 12:40:38,0.0
1668,16012,3088,-173,172,-173,2025-01-29 12:40:38,0.0
1636,15968,3124,-161,146,-192,2025-01-29 12:40:38,0.0
1812,15924,2876,-164,138,-174,2025-01-29 12:40:38,0.0
1592,16040,3204,-165,164,-179,2025-01-29 12:40:38,0.0
1752,15932,3044,-165,163,-177,2025-01-29 12:40:38,0.0
1724,15904,2916,-165,174,-170,2025-01-29 12:40:38,0.0
1584,15864,3136,-163,170,-180,2025-01-29 12:40:38,0.0
1660,15948,3008,-175,184,-181,2025-01-29 12:40:38,0.0
1784,15888,3076,-162,152,-194,2025-01-29 12:40:38,0.0
1740,15888,3124,-166,162,-200,2025-01-29 12:40:38,0.0
1700,15848,2940,-139,175,-173,2025-01-29 12:40:38,0.0
1672,16008,3104,-160,158,-199,2025-01-29 12:40:38,0.0
1720,15932,3128,-157,147,-175,2025-01-29 12:40:38,0.0
1652,16020,3060,-165,157,-185,2025-01-29 12:40:38,0.0
1588,15948,3048,-148,171,-170,2025-01-29 12:40:38,0.0
1604,15984,2896,-162,160,-169,2025-01-29 12:40:38,0.0
1704,15924,2968,-160,147,-163,2025-01-29 12:40:38,0.0
1748,16024,2876,-146,177,-174,2025-01-29 12:40:38,0.0
1740,16060,3080,-142,150,-178,2025-01-29 12:40:38,0.0
1628,15968,3148,-171,157,-184,2025-01-29 12:40:38,0.0
1536,15948,3104,-170,178,-183,2025-01-29 12:40:38,0.0
1580,15936,3132,-167,191,-166,2025-01-29 12:40:38,0.0
1648,15904,3004,-142,156,-135,2025-01-29 12:40:38,0.0
1708,16040,2976,-169,158,-165,2025-01-29 12:40:38,0.0
1656,16020,3080,-175,157,-183,2025-01-29 12:40:38,0.0
1644,15960,3056,-133,179,-191,2025-01-29 12:40:38,0.0
1572,16052,3228,-154,195,-181,2025-01-29 12:40:39,0.0
1520,15908,3196,-160,182,-176,2025-01-29 12:40:39,0.0
1700,15968,3060,-181,160,-162,2025-01-29 12:40:39,0.0
1660,15952,3252,-150,175,-178,2025-01-29 12:40:39,0.0
1620,15972,2992,-138,152,-155,2025-01-29 12:40:39,0.0
1744,15932,3144,-176,162,-183,2025-01-29 12:40:39,0.0
1780,15912,3064,-148,184,-190,2025-01-29 12:40:39,0.0
1592,15980,2932,-177,159,-171,2025-01-29 12:40:39,0.0
1668,15956,3172,-173,160,-176,2025-01-29 12:40:39,0.0
1580,15944,3104,-182,165,-176,2025-01-29 12:40:39,0.0
1704,15912,3004,-159,170,-166,2025-01-29 12:40:39,0.0
1596,16004,3080,-175,139,-148,2025-01-29 12:40:39,0.0
1608,15988,3048,-171,160,-185,2025-01-29 12:40:39,0.0
1696,15960,3052,-162,176,-168,2025-01-29 12:40:39,0.0
1628,15980,3116,-165,172,-156,2025-01-29 12:40:39,0.0
1576,15952,2888,-159,161,-175,2025-01-29 12:40:39,0.0
1624,16080,3120,-177,156,-173,2025-01-29 12:40:39,0.0
1628,15948,3204,-155,165,-186,2025-01-29 12:40:39,0.0
1636,15972,3024,-176,147,-177,2025-01-29 12:40:39,0.0
1572,15908,2992,-176,151,-161,2025-01-29 12:40:39,0.0
1616,15960,3008,-144,174,-169,2025-01-29 12:40:39,0.0
1692,15904,2968,-168,178,-183,2025-01-29 12:40:39,0.0
1600,15956,3088,-151,141,-179,2025-01-29 12:40:39,0.0
1668,15940,3212,-166,169,-167,2025-01-29 12:40:39,0.0
1664,15948,3052,-166,182,-186,2025-01-29 12:40:39,0.0
1764,15972,2980,-125,169,-173,2025-01-29 12:40:39,0.0
1672,15968,3088,-139,148,-179,2025-01-29 12:40:39,0.0
1588,15960,3124,-154,181,-160,2025-01-29 12:40:39,0.0
1668,15948,3004,-156,170,-189,2025-01-29 12:40:39,0.0
1692,15896,2964,-166,175,-202,2025-01-29 12:40:39,0.0
1672,15996,3048,-133,168,-173,2025-01-29 12:40:39,0.0
1664,15976,3048,-140,141,-175,2025-01-29 12:40:39,0.0
1660,15924,3068,-170,152,-183,2025-01-29 12:40:39,0.0
1620,15864,3108,-167,176,-182,2025-01-29 12:40:39,0.0
1584,15952,3044,-149,173,-179,2025-01-29 12:40:39,0.0
1596,15940,3028,-163,168,-163,2025-01-29 12:40:39,0.0
1644,15936,2960,-162,167,-171,2025-01-29 12:40:39,0.0
1560,15900,3156,-144,171,-166,2025-01-29 12:40:39,0.0
1708,15936,2940,-152,201,-171,2025-01-29 12:40:39,0.0
1664,15976,3000,-149,143,-189,2025-01-29 12:40:39,0.0
1696,15912,3068,-150,172,-184,2025-01-29 12:40:39,
1588,15976,3088,-153,162,-159,2025-01-29 12:40:39,0.0
1644,15956,3132,-147,151,-183,2025-01-29 12:40:39,0.0
1612,16048,3188,-179,168,-182,2025-01-29 12:40:39,0.0
1696,15920,2984,-161,178,-153,2025-01-29 12:40:39,0.0
1632,15956,3020,-180,152,-183,2025-01-29 12:40:39,0.0
1616,15896,2904,-180,163,-153,2025-01-29 12:40:39,0.0
1672,16024,3024,-160,161,-189,2025-01-29 12:40:39,0.0
1692,15944,2948,-132,170,-177,2025-01-29 12:40:39,0.0
1756,15964,3172,-177,172,-186,2025-01-29 12:40:39,0.0
1636,16056,3076,-168,176,-162,2025-01-29 12:40:39,0.0
1608,16040,3152,-170,169,-160,2025-01-29 12:40:39,0.0
1704,15956,3036,-162,154,-162,2025-01-29 12:40:39,0.0
1504,15952,3084,-149,158,-189,2025-01-29 12:40:39,0.0
1648,16016,3060,-176,157,-170,2025-01-29 12:40:39,0.0
1680,15940,3104,-172,173,-168,2025-01-29 12:40:39,0.0
1692,15952,3088,-169,174,-166,2025-01-29 12:40:39,0.0
1728,16036,3148,-143,162,-156,2025-01-29 12:40:39,0.0
1704,15936,2940,-151,166,-164,2025-01-29 12:40:39,0.0
1548,15928,3128,-157,153,-171,2025-01-29 12:40:39,0.0
1712,15960,3024,-149,149,-192,2025-01-29 12:40:39,0.0
1608,15840,3060,-154,178,-181,2025-01-29 12:40:39,0.0
1648,15920,3068,-174,172,-177,2025-01-29 12:40:39,0.0
1716,15880,3072,-166,170,-179,2025-01-29 12:40:40,0.0
1596,15932,3112,-175,158,-175,2025-01-29 12:40:40,0.0
1548,15956,3020,-151,190,-166,2025-01-29 12:40:40,0.0
1672,16048,3044,-179,181,-176,2025-01-29 12:40:40,0.0
1656,15992,3116,-144,170,-179,2025-01-29 12:40:40,0.0
1624,15948,3164,-156,157,-183,2025-01-29 12:40:40,0.0
1708,15972,3108,-160,160,-183,2025-01-29 12:40:40,0.0
1668,15992,3032,-141,170,-158,2025-01-29 12:40:40,0.0
1640,16008,3124,-156,169,-181,2025-01-29 12:40:40,0.0
1588,15976,2952,-162,155,-173,2025-01-29 12:40:40,0.0
1712,15952,3064,-177,190,-194,2025-01-29 12:40:40,0.0
1688,15996,2960,-168,168,-182,2025-01-29 12:40:40,0.0
1628,15972,3120,-159,161,-161,2025-01-29 12:40:40,0.0
1724,15992,3064,-166,174,-180,2025-01-29 12:40:40,0.0
1728,15908,3048,-160,168,-171,2025-01-29 12:40:40,0.0
1572,15936,3164,-144,147,-159,2025-01-29 12:40:40,0.0
1636,16052,3068,-167,162,-192,2025-01-29 12:40:40,0.0
1652,15916,3116,-124,165,-168,2025-01-29 12:40:40,0.0
1652,15996,3128,-173,166,-166,2025-01-29 12:40:40,0.0
1700,15888,3076,-180,162,-175,2025-01-29 12:40:40,0.0
1700,15992,3196,-168,162,-184,2025-01-29 12:40:40,0.0
1700,15924,3008,-177,169,-156,2025-01-29 12:40:40,0.0
1584,15932,2984,-155,163,-184,2025-01-29 12:40:40,0.0
1700,15960,3028,-160,164,-155,2025-01-29 12:40:40,0.0
1656,15936,3164,-157,172,-164,2025-01-29 12:40:40,0.0
1660,16036,2964,-144,167,-191,2025-01-29 12:40:40,0.0
1640,15908,2952,-155,146,-166,2025-01-29 12:40:40,0.0
1616,15972,3016,-150,153,-173,2025-01-29 12:40:40,0.0
1624,15948,3004,-148,148,-168,2025-01-29 12:40:40,0.0
1648,15980,3164,-148,173,-152,2025-01-29 12:40:40,0.0
1592,15948,3228,-163,168,-172,2025-01-29 12:40:40,0.0
1632,15976,3196,-170,169,-167,2025-01-29 12:40:40,0.0
1668,16084,2984,-143,165,-164,2025-01-29 12:40:40,0.0
1668,16008,3048,-155,149,-174,2025-01-29 12:40:40,0.0
1640,15980,3120,-168,161,-180,2025-01-29 12:40:40,0.0
1548,15980,3052,-152,193,-164,2025-01-29 12:40:40,0.0
1704,15984,3056,-159,159,-173,2025-01-29 12:40:40,0.0
1704,15908,3000,-152,130,-177,2025-01-29 12:40:40,0.0
1480,15916,3180,-154,200,-184,2025-01-29 12:40:40,0.0
1772,16032,2988,-159,181,-190,2025-01-29 12:40:40,0.0
1584,15888,3200,-174,137,-175,2025-01-29 12:40:40,0.0
1488,16004,3356,-145,194,-208,2025-01-29 12:40:40,0.0
1744,15940,3052,-145,181,-178,2025-01-29 12:40:40,0.0
1592,16008,3124,-163,150,-166,2025-01-29 12:40:40,0.0
1700,15876,3028,-175,165,-170,2025-01-29 12:40:40,0.0
1612,15960,3056,-165,169,-167,2025-01-29 12:40:40,0.0
1632,16012,3088,-156,159,-160,2025-01-29 12:40:40,0.0
1704,15956,2908,-181,153,-170,2025-01-29 12:40:40,0.0
1708,15864,3172,-166,161,-169,2025-01-29 12:40:40,0.0
1668,16040,2936,-144,183,-178,2025-01-29 12:40:40,0.0
1612,16000,3088,-154,179,-163,2025-01-29 12:40:40,0.0
1692,15988,2996,-183,173,-187,2025-01-29 12:40:40,0.0
1524,15996,3064,-155,181,-180,2025-01-29 12:40:40,0.0
1600,15960,3128,-190,188,-181,2025-01-29 12:40:40,0.0
1660,15992,3124,-162,155,-167,2025-01-29 12:40:40,0.0
1732,15940,3120,-177,139,-175,2025-01-29 12:40:40,0.0
1560,15956,3084,-153,193,-176,2025-01-29 12:40:40,0.0
1668,15988,3028,-168,167,-160,2025-01-29 12:40:40,0.0
1572,15976,3196,-166,179,-179,2025-01-29 12:40:40,0.0
1612,16000,3012,-141,177,-193,2025-01-29 12:40:40,0.0
1968,15908,2804,-160,155,-172,2025-01-29 12:40:40,0.0
1988,15912,2740,-161,119,-172,2025-01-29 12:40:41,0.0
2104,15960,2768,-149,114,-153,2025-01-29 12:40:41,0.0
1512,16024,3400,-166,146,-171,2025-01-29 12:40:41,0.0
1960,15988,2740,-166,135,-170,2025-01-29 12:40:41,0.0
1712,15940,2904,-159,140,-182,2025-01-29 12:40:41,0.0
1668,15956,3200,-176,174,-184,2025-01-29 12:40:41,0.0
1668,15948,3184,-162,175,-173,2025-01-29 12:40:41,0.0
1656,15980,2956,-160,165,-180,2025-01-29 12:40:41,0.0
1676,15948,3124,-165,150,-152,2025-01-29 12:40:41,0.0
1704,15920,3216,-163,203,-178,2025-01-29 12:40:41,0.0
1612,15952,3104,-157,162,-181,2025-01-29 12:40:41,0.0
1652,15872,3112,-182,133,-187,2025-01-29 12:40:41,0.0
1688,15992,2928,-169,169,-195,2025-01-29 12:40:41,0.0
1708,15992,2980,-154,149,-153,2025-01-29 12:40:41,0.0
1732,15956,3036,-187,167,-173,2025-01-29 12:40:41,0.0
1664,15984,3276,-163,164,-175,2025-01-29 12:40:41,0.0
1788,15936,2984,-171,151,-181,2025-01-29 12:40:41,
1760,15984,2952,-140,181,-167,2025-01-29 12:40:41,0.0
1296,15976,3248,-196,205,-165,2025-01-29 12:40:41,0.0
1760,15956,2992,-143,177,-178,2025-01-29 12:40:41,0.0
1704,15892,3160,-183,122,-168,2025-01-29 12:40:41,0.0
1592,15864,3060,-153,189,-160,2025-01-29 12:40:41,0.0
1804,16000,2912,-165,168,-159,2025-01-29 12:40:41,0.0
1652,16024,3156,-167,179,-165,2025-01-29 12:40:41,0.0
1860,15948,2984,-151,166,-163,2025-01-29 12:40:41,0.0
1624,15928,3196,-167,132,-200,2025-01-29 12:40:41,0.0
1596,15960,3128,-178,191,-179,2025-01-29 12:40:41,0.0
1652,15976,2884,-170,150,-163,2025-01-29 12:40:41,0.0
1680,15932,3160,-158,144,-161,2025-01-29 12:40:41,0.0
1636,15924,3088,-174,156,-194,2025-01-29 12:40:41,0.0
1680,15924,3152,-153,180,-184,2025-01-29 12:40:41,0.0
1696,15984,3064,-174,144,-175,2025-01-29 12:40:41,0.0
1740,16008,2960,-168,160,-178,2025-01-29 12:40:41,0.0
1600,15984,3040,-179,211,-189,2025-01-29 12:40:41,0.0
1572,15972,3044,-160,160,-173,2025-01-29 12:40:41,0.0
1672,16028,3028,-157,158,-182,2025-01-29 12:40:41,0.0
1596,15952,2920,-136,162,-176,2025-01-29 12:40:41,0.0
1612,15984,3060,-153,193,-171,2025-01-29 12:40:41,0.0
1696,15928,2932,-170,148,-175,2025-01-29 12:40:41,0.0
1928,15952,2872,-185,171,-177,2025-01-29 12:40:41,0.0
1960,15912,2848,-149,149,-170,2025-01-29 12:40:41,0.0
1420,15984,3244,-175,181,-190,2025-01-29 12:40:41,0.0
1728,16012,2844,-167,146,-170,2025-01-29 12:40:41,0.0
1652,16088,3080,-159,132,-180,2025-01-29 12:40:41,0.0
1704,15980,3164,-137,173,-196,2025-01-29 12:40:41,0.0
1676,15968,3020,-179,172,-188,2025-01-29 12:40:41,0.0
1620,16040,3052,-161,165,-159,2025-01-29 12:40:41,0.0
1600,15976,3088,-178,158,-167,2025-01-29 12:40:41,0.0
1660,15940,2896,-170,168,-161,2025-01-29 12:40:41,0.0
1768,15952,2984,-161,166,-176,2025-01-29 12:40:41,0.0
1548,16008,2980,-153,141,-182,2025-01-29 12:40:41,0.0
1744,15892,2988,-163,165,-159,2025-01-29 12:40:41,0.0
1324,16004,3384,-141,190,-168,2025-01-29 12:40:41,0.0
1828,16012,2764,-152,155,-175,2025-01-29 12:40:41,0.0
1592,15972,3128,-173,150,-184,2025-01-29 12:40:41,0.0
1600,15868,3016,-168,162,-188,2025-01-29 12:40:41,0.0
1668,15956,3048,-162,149,-180,2025-01-29 12:40:41,0.0
1692,16000,2796,-171,158,-182,2025-01-29 12:40:41,0.0
1712,15984,3012,-146,148,-176,2025-01-29 12:40:41,0.0
1576,15996,3048,-156,177,-186,2025-01-29 12:40:42,0.0
1664,15956,2912,-166,174,-153,2025-01-29 12:40:42,0.0
1548,16016,2992,-171,138,-191,2025-01-29 12:40:42,0.0
1696,16004,2984,-143,191,-192,2025-01-29 12:40:42,0.0
1596,16000,3072,-185,177,-161,2025-01-29 12:40:42,0.0
1684,15972,2964,-146,161,-187,2025-01-29 12:40:42,0.0
1668,15940,3056,-139,164,-178,2025-01-29 12:40:42,0.0
1696,15996,3032,-160,196,-188,2025-01-29 12:40:42,0.0
1720,16068,3024,-155,157,-182,2025-01-29 12:40:42,0.0
1560,15984,3056,-155,177,-184,2025-01-29 12:40:42,0.0
1664,15976,3092,-144,158,-160,2025-01-29 12:40:42,0.0
1812,15948,2848,-156,170,-179,2025-01-29 12:40:42,0.0
1644,15952,3148,-202,191,-185,2025-01-29 12:40:42,0.0
1564,15936,3132,-159,159,-166,2025-01-29 12:40:42,0.0
1740,15964,2876,-168,178,-173,2025-01-29 12:40:42,0.0
1644,15984,3024,-164,166,-169,2025-01-29 12:40:42,0.0
1668,15908,3080,-171,158,-186,2025-01-29 12:40:42,0.0
1652,15980,3152,-168,162,-172,2025-01-29 12:40:42,0.0
1592,16056,3020,-161,169,-181,2025-01-29 12:40:42,0.0
1724,15976,3068,-157,147,-168,2025-01-29 12:40:42,0.0
1600,16036,3008,-150,175,-196,2025-01-29 12:40:42,0.0
1652,15936,3028,-158,186,-165,2025-01-29 12:40:42,0.0
1696,15904,2992,-155,165,-174,2025-01-29 12:40:42,0.0
1680,15928,3140,-166,154,-179,2025-01-29 12:40:42,0.0
1628,15960,2980,-173,153,-175,2025-01-29 12:40:42,0.0
1724,15956,3064,-158,180,-184,2025-01-29 12:40:42,0.0
1556,15920,3184,-166,182,-181,2025-01-29 12:40:42,0.0
1608,15956,3056,-176,181,-185,2025-01-29 12:40:42,0.0
1744,15940,3000,-166,157,-170,2025-01-29 12:40:42,0.0
1688,16044,3120,-159,180,-181,2025-01-29 12:40:42,0.0
1636,15936,3056,-158,162,-161,2025-01-29 12:40:42,0.0
1720,15984,2996,-142,160,-159,2025-01-29 12:40:42,0.0
1756,15928,3032,-162,155,-201,2025-01-29 12:40:42,0.0
1592,16020,3092,-151,150,-179,2025-01-29 12:40:42,0.0
1592,15964,2996,-160,165,-186,2025-01-29 12:40:42,0.0
1636,16004,2948,-170,179,-173,2025-01-29 12:40:42,0.0
1664,15912,3072,-168,190,-186,2025-01-29 12:40:42,0.0
1664,15856,3128,-172,181,-178,2025-01-29 12:40:42,0.0
1780,16004,2968,-181,152,-162,2025-01-29 12:40:42,0.0
1644,15948,3124,-136,165,-172,2025-01-29 12:40:42,0.0
1764,15956,3000,-143,175,-183,2025-01-29 12:40:42,0.0
1732,15936,3116,-186,166,-172,2025-01-29 12:40:42,0.0
1688,15928,3184,-158,180,-182,2025-01-29 12:40:42,0.0
1744,15952,2984,-181,161,-189,2025-01-29 12:40:42,0.0
1692,15912,3136,-158,156,-187,2025-01-29 12:40:42,0.0
1524,15924,3172,-156,176,-190,2025-01-29 12:40:42,0.0
1712,15944,2992,-157,154,-176,2025-01-29 12:40:42,0.0
1704,15944,3080,-150,163,-199,2025-01-29 12:40:42,0.0
1764,16016,2948,-148,159,-192,2025-01-29 12:40:42,0.0
1532,15888,3060,-114,183,-180,2025-01-29 12:40:42,0.0
1496,16028,3360,-173,182,-176,2025-01-29 12:40:42,0.0
1640,16008,3164,-146,141,-183,2025-01-29 12:40:42,0.0
1732,15952,2828,-124,155,-185,2025-01-29 12:40:42,0.0
1564,16040,3180,-150,211,-166,2025-01-29 12:40:42,0.0
1716,15964,2936,-163,176,-197,2025-01-29 12:40:42,0.0
1712,16024,3052,-163,158,-175,2025-01-29 12:40:42,0.0
1648,15992,3040,-160,153,-183,2025-01-29 12:40:42,0.0
1592,15968,3016,-147,187,-185,2025-01-29 12:40:43,
1556,16024,3104,-146,195,-158,2025-01-29 12:40:43,0.0
1692,15980,3108,-158,170,-184,2025-01-29 12:40:43,0.0
1688,16044,3016,-144,161,-180,2025-01-29 12:40:43,0.0
1572,16000,3160,-153,178,-164,2025-01-29 12:40:43,0.0
1592,15840,3036,-156,165,-169,2025-01-29 12:40:43,0.0
1624,16048,2944,-161,155,-158,2025-01-29 12:40:43,0.0
1580,15912,3068,-160,150,-180,2025-01-29 12:40:43,0.0
1732,15948,3072,-165,167,-190,2025-01-29 12:40:43,0.0
1576,15996,3024,-154,200,-188,2025-01-29 12:40:43,0.0
1600,15936,3172,-161,161,-146,2025-01-29 12:40:43,0.0
1688,15936,3092,-169,213,-166,2025-01-29 12:40:43,0.0
1768,15912,2844,-156,146,-182,2025-01-29 12:40:43,0.0
1744,15928,3048,-173,167,-166,2025-01-29 12:40:43,0.0
1572,15968,3048,-163,179,-170,2025-01-29 12:40:43,0.0
1640,15992,3108,-147,178,-172,2025-01-29 12:40:43,0.0
1572,16036,3156,-176,167,-153,2025-01-29 12:40:43,0.0
1784,15928,3032,-157,172,-157,2025-01-29 12:40:43,0.0
1616,16024,3116,-150,166,-183,2025-01-29 12:40:43,0.0
1628,16040,3152,-169,177,-176,2025-01-29 12:40:43,0.0
1608,15936,3008,-150,176,-164,2025-01-29 12:40:43,0.0
1660,16008,3104,-189,161,-185,2025-01-29 12:40:43,0.0
1640,15984,2968,-157,166,-179,2025-01-29 12:40:43,0.0
1728,15980,2944,-156,153,-181,2025-01-29 12:40:43,0.0
1584,16024,3140,-150,155,-191,2025-01-29 12:40:43,0.0
1592,15928,3120,-157,174,-188,2025-01-29 12:40:43,0.0
1620,15944,3148,-160,151,-176,2025-01-29 12:40:43,0.0
1652,15984,2956,-151,158,-175,2025-01-29 12:40:43,0.0
1628,15904,3032,-155,166,-160,2025-01-29 12:40:43,0.0
1700,15980,3024,-143,150,-184,2025-01-29 12:40:43,0.0
1508,15924,3240,-131,187,-166,2025-01-29 12:40:43,0.0
1760,15840,2972,-151,147,-164,2025-01-29 12:40:43,0.0
1636,15956,2956,-173,165,-175,2025-01-29 12:40:43,0.0
1532,15992,3068,-186,176,-178,2025-01-29 12:40:43,0.0
1640,15988,3100,-182,152,-187,2025-01-29 12:40:43,0.0
1532,16040,3108,-156,183,-186,2025-01-29 12:40:43,0.0
1676,15928,2920,-168,170,-162,2025-01-29 12:40:43,0.0
1740,15932,3088,-150,133,-190,2025-01-29 12:40:43,0.0
1704,15992,3048,-162,148,-157,2025-01-29 12:40:43,0.0
1652,16000,2932,-180,162,-173,2025-01-29 12:40:43,0.0
1592,15988,3080,-168,166,-163,2025-01-29 12:40:43,0.0
1668,15940,3024,-158,187,-167,2025-01-29 12:40:43,0.0
1572,15952,3048,-169,166,-176,2025-01-29 12:40:43,0.0
1876,15924,2900,-167,131,-177,2025-01-29 12:40:43,0.0
1556,15984,3124,-167,172,-182,2025-01-29 12:40:43,0.0
1612,16008,3172,-162,129,-189,2025-01-29 12:40:43,0.0
1672,15984,3044,-166,169,-185,2025-01-29 12:40:43,0.0
1732,15932,3144,-159,164,-189,2025-01-29 12:40:43,0.0
1704,16036,2928,-165,151,-181,2025-01-29 12:40:43,0.0
1648,16000,3040,-170,171,-171,2025-01-29 12:40:43,0.0
1696,15956,3076,-156,160,-183,2025-01-29 12:40:43,0.0
1592,15900,3076,-159,178,-169,2025-01-29 12:40:43,0.0
1696,15932,3112,-169,158,-189,2025-01-29 12:40:43,0.0
1672,15908,3056,-179,184,-173,2025-01-29 12:40:43,0.0
1612,16008,3032,-186,157,-178,2025-01-29 12:40:43,0.0
1656,15980,2984,-164,176,-182,2025-01-29 12:40:43,0.0
1768,16004,2956,-145,170,-184,2025-01-29 12:40:43,0.0
1752,15896,3168,-172,144,-171,2025-01-29 12:40:43,0.0
1712,15936,3016,-161,159,-186,2025-01-29 12:40:43,0.0
1708,16016,3136,-163,173,-175,2025-01-29 12:40:43,0.0
1644,15992,3088,-174,186,-172,2025-01-29 12:40:43,0.0
1576,15964,2992,-140,182,-174,2025-01-29 12:40:43,0.0
1648,16012,3032,-146,158,-168,2025-01-29 12:40:43,0.0
1692,15872,3064,-153,140,-169,2025-01-29 12:40:43,0.0
1612,15988,3176,-151,174,-170,2025-01-29 12:40:43,0.0
1584,15968,3080,-175,147,-169,2025-01-29 12:40:44,0.0
1652,15976,3076,-157,137,-158,2025-01-29 12:40:44,0.0
1620,15980,3176,-160,156,-161,2025-01-29 12:40:44,0.0
1628,15932,2976,-150,181,-178,2025-01-29 12:40:44,0.0
1592,15976,3184,-138,153,-180,2025-01-29 12:40:44,0.0
1720,15952,3000,-178,159,-192,2025-01-29 12:40:44,0.0
1628,15940,3172,-143,162,-165,2025-01-29 12:40:44,0.0
1636,15948,3000,-153,150,-169,2025-01-29 12:40:44,0.0
1576,16004,3032,-148,188,-188,2025-01-29 12:40:44,0.0
1608,15924,3108,-172,180,-172,2025-01-29 12:40:44,0.0
1724,15968,3092,-147,164,-186,2025-01-29 12:40:44,0.0
1588,15952,3028,-142,137,-177,2025-01-29 12:40:44,0.0
1740,15996,3012,-162,189,-168,2025-01-29 12:40:44,0.0
1816,16004,3068,-173,164,-174,2025-01-29 12:40:44,0.0
1692,15964,3068,-180,173,-169,2025-01-29 12:40:44,0.0
1832,15964,3048,-155,202,-189,2025-01-29 12:40:44,0.0
1652,15904,3112,-147,178,-166,2025-01-29 12:40:44,0.0
1556,15908,3024,-163,152,-178,2025-01-29 12:40:44,0.0
1640,16000,2940,-153,184,-162,2025-01-29 12:40:44,0.0
1696,15956,3048,-154,161,-202,2025-01-29 12:40:44,0.0
1736,15924,3124,-162,152,-164,2025-01-29 12:40:44,0.0
1696,15928,3248,-170,155,-159,2025-01-29 12:40:44,0.0
1652,15964,3036,-175,159,-171,2025-01-29 12:40:44,0.0
1584,15912,2956,-175,167,-156,2025-01-29 12:40:44,0.0
1704,15896,3028,-167,164,-175,2025-01-29 12:40:44,0.0
1720,15932,3196,-149,172,-177,2025-01-29 12:40:44,0.0
1688,16012,3156,-148,159,-199,2025-01-29 12:40:44,0.0
1588,16028,3112,-175,162,-163,2025-01-29 12:40:44,0.0
1628,15956,3072,-151,155,-189,2025-01-29 12:40:44,0.0
1684,15984,3176,-147,173,-182,2025-01-29 12:40:44,0.0
1680,15992,3144,-149,162,-177,2025-01-29 12:40:44,0.0
1648,15944,3112,-151,163,-183,2025-01-29 12:40:44,0.0
1680,15984,3000,-158,172,-171,2025-01-29 12:40:44,0.0
1616,15980,3236,-182,177,-172,2025-01-29 12:40:44,0.0
1732,15928,3000,-184,174,-194,2025-01-29 12:40:44,0.0
1628,15904,2960,-141,165,-175,2025-01-29 12:40:44,
1584,15880,3164,-164,164,-189,2025-01-29 12:40:44,0.0
1644,15984,3144,-174,167,-172,2025-01-29 12:40:44,0.0
1644,16056,2956,-149,162,-170,2025-01-29 12:40:44,0.0
1608,15920,2996,-139,165,-178,2025-01-29 12:40:44,0.0
1620,16004,2968,-159,173,-179,2025-01-29 12:40:44,0.0
1716,16076,3108,-167,146,-184,2025-01-29 12:40:44,0.0
1700,15940,3064,-138,163,-164,2025-01-29 12:40:44,0.0
1636,16032,3004,-146,162,-185,2025-01-29 12:40:44,0.0
1724,15988,3136,-170,159,-182,2025-01-29 12:40:44,0.0
1696,16012,2944,-142,170,-167,2025-01-29 12:40:44,0.0
1624,15984,3096,-134,153,-170,2025-01-29 12:40:44,0.0
1608,15920,3168,-166,168,-186,2025-01-29 12:40:44,0.0
1604,16032,3132,-154,133,-177,2025-01-29 12:40:44,0.0
1632,15936,2916,-134,162,-185,2025-01-29 12:40:44,0.0
1672,15980,3008,-170,189,-181,2025-01-29 12:40:44,0.0
1668,15952,2984,-194,183,-177,2025-01-29 12:40:44,0.0
1676,15916,3044,-156,155,-172,2025-01-29 12:40:44,0.0
1648,16004,3120,-168,154,-159,2025-01-29 12:40:44,0.0
1696,15872,2908,-152,158,-157,2025-01-29 12:40:44,0.0
1628,15956,3108,-149,160,-173,2025-01-29 12:40:44,0.0
1624,15940,3140,-173,172,-180,2025-01-29 12:40:44,0.0
1744,15988,3008,-171,149,-163,2025-01-29 12:40:44,0.0
1620,15996,2940,-145,160,-167,2025-01-29 12:40:44,0.0
1644,16008,3160,-149,160,-170,2025-01-29 12:40:44,0.0
1600,16020,3088,-154,170,-196,2025-01-29 12:40:45,0.0
1604,16020,3068,-142,169,-187,2025-01-29 12:40:45,0.0
1692,15940,3108,-163,146,-165,2025-01-29 12:40:45,0.0
1676,15880,3152,-159,165,-173,2025-01-29 12:40:45,0.0
1756,16048,3028,-146,171,-174,2025-01-29 12:40:45,0.0
1720,15992,3056,-163,147,-170,2025-01-29 12:40:45,0.0
1660,15980,3020,-159,159,-178,2025-01-29 12:40:45,0.0
1652,15992,2984,-138,157,-164,2025-01-29 12:40:45,0.0
1616,16044,3164,-151,157,-142,2025-01-29 12:40:45,0.0
1684,16020,3040,-162,168,-175,2025-01-29 12:40:45,0.0
1724,15984,2992,-159,165,-178,2025-01-29 12:40:45,0.0
1620,15916,3076,-164,132,-184,2025-01-29 12:40:45,0.0
1716,15904,3200,-162,150,-179,2025-01-29 12:40:45,0.0
1676,15932,3180,-132,165,-203,2025-01-29 12:40:45,0.0
1612,15912,2932,-162,168,-190,2025-01-29 12:40:45,0.0
1644,15948,3100,-143,172,-167,2025-01-29 12:40:45,0.0
1680,15912,2988,-188,173,-176,2025-01-29 12:40:45,0.0
1716,15900,3056,-145,146,-186,2025-01-29 12:40:45,0.0
1672,16004,2936,-168,156,-188,2025-01-29 12:40:45,0.0
1740,15920,3004,-142,181,-176,2025-01-29 12:40:45,0.0
1656,16056,3068,-162,161,-162,2025-01-29 12:40:45,0.0
1600,15976,3104,-162,143,-174,2025-01-29 12:40:45,0.0
1572,15920,3104,-142,167,-170,2025-01-29 12:40:45,0.0
1580,15948,3172,-167,160,-168,2025-01-29 12:40:45,0.0
1572,15924,3120,-145,145,-187,2025-01-29 12:40:45,0.0
1564,15984,3180,-173,169,-189,2025-01-29 12:40:45,0.0
1628,15928,3112,-136,179,-174,2025-01-29 12:40:45,0.0
1716,15964,3256,-176,161,-163,2025-01-29 12:40:45,0.0
1644,15912,2968,-170,165,-172,2025-01-29 12:40:45,0.0
1636,16000,3060,-178,169,-180,2025-01-29 12:40:45,0.0
1592,15964,2996,-135,172,-166,2025-01-29 12:40:45,0.0
1732,15960,3064,-173,171,-176,2025-01-29 12:40:45,0.0
1684,15852,3024,-166,132,-183,2025-01-29 12:40:45,0.0
1756,15864,3088,-181,175,-163,2025-01-29 12:40:45,0.0
1600,15992,3100,-144,163,-184,2025-01-29 12:40:45,0.0
1764,15980,2952,-156,175,-165,2025-01-29 12:40:45,0.0
1672,15904,3124,-171,166,-175,2025-01-29 12:40:45,0.0
1624,16036,3024,-153,168,-184,2025-01-29 12:40:45,0.0
1632,16044,3024,-158,186,-176,2025-01-29 12:40:45,0.0
1720,15916,3000,-153,159,-188,2025-01-29 12:40:45,0.0
1628,16032,3116,-155,169,-148,2025-01-29 12:40:45,0.0
1596,15976,3072,-152,159,-155,2025-01-29 12:40:45,0.0
1756,16032,3052,-165,160,-183,2025-01-29 12:40:45,0.0
1584,16004,3020,-170,164,-184,2025-01-29 12:40:45,0.0
1688,15872,3204,-166,164,-174,2025-01-29 12:40:45,0.0
1608,15964,3212,-166,174,-158,2025-01-29 12:40:45,0.0
1660,16008,3124,-190,163,-172,2025-01-29 12:40:45,0.0
1608,16032,2992,-150,187,-166,2025-01-29 12:40:45,0.0
1796,15856,3072,-160,173,-177,2025-01-29 12:40:45,0.0
1660,16004,3140,-167,157,-170,2025-01-29 12:40:45,0.0
1660,15980,3156,-164,158,-178,2025-01-29 12:40:45,0.0
1616,15912,3048,-146,161,-173,2025-01-29 12:40:45,0.0
1660,15960,3096,-171,173,-180,2025-01-29 12:40:45,0.0
1648,15928,3076,-153,150,-184,2025-01-29 12:40:45,0.0
1672,16004,3056,-160,179,-165,2025-01-29 12:40:45,0.0
1704,15908,3056,-172,163,-167,2025-01-29 12:40:45,0.0
1652,16004,3176,-162,163,-172,2025-01-29 12:40:45,0.0
1540,15992,3060,-158,160,-174,2025-01-29 12:40:45,0.0
1640,15972,3136,-153,175,-172,2025-01-29 12:40:45,0.0
1628,15940,3156,-156,137,-163,2025-01-29 12:40:45,0.0
1760,16020,3032,-176,151,-168,2025-01-29 12:40:45,0.0
1752,15952,3040,-147,155,-166,2025-01-29 12:40:46,0.0
1676,16004,3232,-164,157,-153,2025-01-29 12:40:46,0.0
1540,15984,3040,-147,153,-179,2025-01-29 12:40:46,0.0
1672,15964,2944,-155,170,-162,2025-01-29 12:40:46,0.0
1688,15968,3144,-143,150,-157,2025-01-29 12:40:46,0.0
1688,15884,3108,-155,167,-176,2025-01-29 12:40:46,0.0
1688,15976,3180,-157,153,-174,2025-01-29 12:40:46,0.0
1628,15956,3136,-147,172,-182,2025-01-29 12:40:46,0.0
1700,15908,3148,-180,174,-175,2025-01-29 12:40:46,0.0
1652,15936,2984,-168,164,-159,2025-01-29 12:40:46,0.0
1692,15944,3024,-158,169,-179,2025-01-29 12:40:46,0.0
1688,15968,3088,-170,159,-175,2025-01-29 12:40:46,0.0
1664,15992,3028,-155,169,-166,2025-01-29 12:40:46,0.0
1656,16008,3096,-163,155,-172,2025-01-29 12:40:46,0.0
1652,16052,3060,-172,162,-172,2025-01-29 12:40:46,
1652,15968,3016,-171,177,-189,2025-01-29 12:40:46,0.0
1688,15916,3028,-152,165,-186,2025-01-29 12:40:46,0.0
1612,15908,3120,-151,160,-179,2025-01-29 12:40:46,0.0
1704,15968,3088,-152,158,-165,2025-01-29 12:40:46,0.0
1712,15900,3028,-168,176,-178,2025-01-29 12:40:46,0.0
1608,16000,3008,-194,189,-191,2025-01-29 12:40:46,0.0
1592,15960,2972,-154,163,-167,2025-01-29 12:40:46,0.0
1616,15964,3072,-180,156,-182,2025-01-29 12:40:46,0.0
1556,15956,3096,-166,189,-168,2025-01-29 12:40:46,0.0
1556,16036,2952,-165,169,-172,2025-01-29 12:40:46,0.0
1716,15932,3120,-172,171,-185,2025-01-29 12:40:46,0.0
1784,15956,3160,-187,171,-162,2025-01-29 12:40:46,0.0
1712,16004,2988,-166,170,-170,2025-01-29 12:40:46,0.0
1680,15936,2996,-129,162,-183,2025-01-29 12:40:46,0.0
1696,15924,3088,-151,160,-172,2025-01-29 12:40:46,0.0
1632,15964,2984,-149,164,-151,2025-01-29 12:40:46,0.0
1564,15976,3224,-167,180,-160,2025-01-29 12:40:46,0.0
1696,15968,2996,-162,151,-174,2025-01-29 12:40:46,0.0
1596,15900,3052,-160,155,-187,2025-01-29 12:40:46,0.0
1668,15984,3048,-165,160,-179,2025-01-29 12:40:46,0.0
1672,15944,3184,-170,164,-162,2025-01-29 12:40:46,0.0
1628,16012,3104,-158,162,-174,2025-01-29 12:40:46,0.0
1656,15976,3108,-149,179,-166,2025-01-29 12:40:46,0.0
1628,15972,3024,-153,141,-175,2025-01-29 12:40:46,0.0
1616,16008,2956,-144,153,-176,2025-01-29 12:40:46,0.0
1688,16024,3040,-154,154,-174,2025-01-29 12:40:46,0.0
1704,15952,3056,-155,193,-175,2025-01-29 12:40:46,0.0
1588,15916,3144,-156,169,-162,2025-01-29 12:40:46,0.0
1636,16008,3076,-154,165,-184,2025-01-29 12:40:46,0.0
1696,15984,3028,-163,156,-169,2025-01-29 12:40:46,0.0
1708,15972,3144,-137,173,-175,2025-01-29 12:40:46,0.0
1668,15956,3140,-177,163,-179,2025-01-29 12:40:46,0.0
1756,15952,3012,-157,158,-166,2025-01-29 12:40:46,0.0
1616,15984,3200,-180,189,-163,2025-01-29 12:40:46,0.0
1660,16060,3132,-171,158,-190,2025-01-29 12:40:46,0.0
1680,15896,3104,-169,153,-200,2025-01-29 12:40:46,0.0
1580,16004,3132,-140,152,-170,2025-01-29 12:40:46,0.0
1684,15924,2976,-167,174,-189,2025-01-29 12:40:46,0.0
1660,15860,3032,-149,154,-191,2025-01-29 12:40:46,0.0
1664,15976,3228,-159,161,-195,2025-01-29 12:40:46,0.0
1748,15860,3124,-154,158,-154,2025-01-29 12:40:46,0.0
1732,16044,3080,-149,180,-175,2025-01-29 12:40:46,0.0
1592,15956,3068,-155,137,-163,2025-01-29 12:40:46,0.0
1576,15880,3308,-149,178,-176,2025-01-29 12:40:46,0.0
1804,15852,2820,-143,130,-159,2025-01-29 12:40:46,0.0
1808,15916,2756,-166,156,-182,2025-01-29 12:40:47,0.0
1584,15988,3232,-151,199,-169,2025-01-29 12:40:47,0.0
1632,16000,3108,-155,167,-166,2025-01-29 12:40:47,0.0
1720,15928,3060,-144,162,-179,2025-01-29 12:40:47,0.0
1668,16020,3036,-167,175,-176,2025-01-29 12:40:47,0.0
1548,15952,2904,-154,182,-173,2025-01-29 12:40:47,0.0
1756,15944,3084,-144,170,-165,2025-01-29 12:40:47,0.0
1544,15956,3108,-169,149,-164,2025-01-29 12:40:47,0.0
1644,15832,3092,-164,167,-159,2025-01-29 12:40:47,0.0
1624,16028,3240,-137,159,-183,2025-01-29 12:40:47,0.0
1596,15976,3080,-165,193,-180,2025-01-29 12:40:47,0.0
1524,15984,3324,-155,189,-177,2025-01-29 12:40:47,0.0
1660,15928,3036,-158,175,-159,2025-01-29 12:40:47,0.0
1580,16016,2976,-162,163,-162,2025-01-29 12:40:47,0.0
1680,15988,3008,-161,146,-167,2025-01-29 12:40:47,0.0
1572,15928,3104,-155,185,-180,2025-01-29 12:40:47,0.0
1552,15984,3148,-151,174,-165,2025-01-29 12:40:47,0.0
1632,15968,3128,-158,161,-165,2025-01-29 12:40:47,0.0
1672,16048,3080,-165,157,-168,2025-01-29 12:40:47,0.0
1584,15972,3076,-155,171,-185,2025-01-29 12:40:47,0.0
1680,15896,3080,-150,166,-186,2025-01-29 12:40:47,0.0
1704,15984,3036,-164,139,-186,2025-01-29 12:40:47,0.0
1620,15980,3112,-159,164,-154,2025-01-29 12:40:47,0.0
1680,16024,2928,-161,174,-165,2025-01-29 12:40:47,0.0
1608,15976,3216,-173,166,-156,2025-01-29 12:40:47,0.0
1696,16008,2992,-147,156,-166,2025-01-29 12:40:47,0.0
1688,15944,3040,-164,151,-188,2025-01-29 12:40:47,0.0
1700,15864,3072,-146,153,-175,2025-01-29 12:40:47,0.0
1596,16044,2972,-172,164,-173,2025-01-29 12:40:47,0.0
1572,16020,3028,-173,156,-182,2025-01-29 12:40:47,0.0
1656,15936,2872,-147,191,-163,2025-01-29 12:40:47,0.0
1748,15996,3000,-159,160,-162,2025-01-29 12:40:47,0.0
1624,15912,3148,-195,168,-159,2025-01-29 12:40:47,0.0
1476,15980,3180,-163,149,-157,2025-01-29 12:40:47,0.0
1548,15908,3136,-174,179,-165,2025-01-29 12:40:47,0.0
1712,16032,2916,-163,134,-184,2025-01-29 12:40:47,0.0
1744,15932,3124,-163,160,-161,2025-01-29 12:40:47,0.0
1692,15924,3116,-155,180,-192,2025-01-29 12:40:47,0.0
1608,15992,3120,-149,174,-189,2025-01-29 12:40:47,0.0
1572,15892,3092,-155,173,-171,2025-01-29 12:40:47,0.0
1608,15932,3068,-156,156,-182,2025-01-29 12:40:47,0.0
1636,15956,3036,-158,178,-160,2025-01-29 12:40:47,0.0
1748,15988,3084,-153,166,-173,2025-01-29 12:40:47,0.0
1608,15960,3108,-165,173,-170,2025-01-29 12:40:47,0.0
1604,15968,3144,-165,162,-160,2025-01-29 12:40:47,0.0
1548,15916,2944,-168,168,-184,2025-01-29 12:40:47,0.0
1624,16044,3004,-131,183,-170,2025-01-29 12:40:47,0.0
1644,16008,3032,-138,178,-192,2025-01-29 12:40:47,0.0
1648,15932,3076,-148,166,-171,2025-01-29 12:40:47,0.0
1628,15952,2980,-158,194,-174,2025-01-29 12:40:47,0.0
1524,16028,3092,-165,167,-192,2025-01-29 12:40:47,0.0
1628,15960,3112,-155,189,-158,2025-01-29 12:40:47,0.0
1684,16020,3048,-166,168,-172,2025-01-29 12:40:47,0.0
1628,15940,3124,-158,168,-176,2025-01-29 12:40:47,0.0
1636,15968,2972,-158,156,-180,2025-01-29 12:40:47,
