acceleration_x,acceleration_y,acceleration_z,gyroscope_x,gyroscope_y,gyroscope_z,timestamp,label
3428,-16376,4376,-168,196,-168,2025-01-29 12:40:02,0.0
3524,-16440,4520,-168,170,-173,2025-01-29 12:40:02,0.0
3552,-16384,4528,-153,143,-178,2025-01-29 12:40:02,0.0
3680,-16428,4480,-164,180,-158,2025-01-29 12:40:02,0.0
3724,-16508,4452,-173,167,-185,2025-01-29 12:40:02,0.0
3632,-16368,4516,-170,182,-176,2025-01-29 12:40:02,0.0
3464,-16488,4592,-190,141,-189,2025-01-29 12:40:02,0.0
3540,-16432,4504,-168,163,-177,2025-01-29 12:40:02,0.0
3536,-16408,4360,-145,152,-194,2025-01-29 12:40:02,0.0
3544,-16436,4440,-164,149,-163,2025-01-29 12:40:02,0.0
3576,-16428,4456,-150,167,-174,2025-01-29 12:40:02,0.0
3596,-16448,4352,-163,160,-153,2025-01-29 12:40:02,0.0
3600,-16344,4420,-159,185,-184,2025-01-29 12:40:02,0.0
3612,-16444,4572,-143,163,-188,2025-01-29 12:40:02,0.0
3644,-16480,4396,-159,148,-179,2025-01-29 12:40:02,0.0
3656,-16344,4500,-137,194,-178,2025-01-29 12:40:02,0.0
3496,-16460,4504,-168,180,-183,2025-01-29 12:40:02,0.0
3664,-16420,4540,-152,152,-158,2025-01-29 12:40:02,0.0
3716,-16408,4556,-149,129,-180,2025-01-29 12:40:02,0.0
3528,-16352,4508,-147,189,-173,2025-01-29 12:40:02,0.0
3600,-16432,4516,-134,188,-179,2025-01-29 12:40:02,0.0
3480,-16400,4528,-185,141,-174,2025-01-29 12:40:02,0.0
3576,-16364,4612,-172,168,-188,2025-01-29 12:40:02,0.0
3672,-16400,4540,-152,180,-158,2025-01-29 12:40:02,0.0
3568,-16464,4476,-158,144,-181,2025-01-29 12:40:02,0.0
3560,-16524,4584,-169,168,-171,2025-01-29 12:40:02,0.0
3604,-16504,4548,-177,169,-189,2025-01-29 12:40:02,0.0
3652,-16332,4524,-174,193,-165,2025-01-29 12:40:02,0.0
3628,-16348,4544,-159,154,-172,2025-01-29 12:40:02,0.0
3584,-16384,4636,-156,139,-181,2025-01-29 12:40:02,0.0
3544,-16384,4388,-154,177,-172,2025-01-29 12:40:02,0.0
3696,-16400,4516,-181,164,-161,2025-01-29 12:40:02,0.0
3560,-16512,4404,-140,159,-176,2025-01-29 12:40:02,0.0
3556,-16480,4480,-173,133,-187,2025-01-29 12:40:02,0.0
3588,-16360,4384,-137,180,-187,2025-01-29 12:40:02,0.0
3560,-16420,4528,-169,180,-184,2025-01-29 12:40:02,0.0
3576,-16424,4424,-150,175,-158,2025-01-29 12:40:02,0.0
3544,-16456,4488,-157,149,-182,2025-01-29 12:40:02,0.0
3508,-16408,4532,-165,163,-175,2025-01-29 12:40:02,0.0
3600,-16412,4484,-162,152,-158,2025-01-29 12:40:02,0.0
3636,-16424,4580,-151,172,-186,2025-01-29 12:40:02,0.0
3576,-16516,4304,-151,181,-173,2025-01-29 12:40:02,0.0
3604,-16412,4504,-161,161,-174,2025-01-29 12:40:02,0.0
3620,-16524,4504,-136,177,-175,2025-01-29 12:40:02,0.0
3652,-16448,4488,-147,172,-181,2025-01-29 12:40:02,0.0
3644,-16456,4312,-158,165,-199,2025-01-29 12:40:02,0.0
3584,-16384,4440,-167,176,-163,2025-01-29 12:40:02,0.0
3628,-16376,4512,-181,159,-199,2025-01-29 12:40:02,0.0
3572,-16424,4612,-158,156,-164,2025-01-29 12:40:02,0.0
3628,-16464,4472,-165,171,-168,2025-01-29 12:40:02,0.0
3512,-16428,4516,-147,164,-194,2025-01-29 12:40:02,0.0
3640,-16436,4512,-143,187,-192,2025-01-29 12:40:02,0.0
3676,-16416,4488,-134,151,-167,2025-01-29 12:40:02,0.0
3604,-16480,4616,-168,131,-183,2025-01-29 12:40:02,0.0
3596,-16580,4408,-163,168,-171,2025-01-29 12:40:02,0.0
3576,-16492,4424,-170,182,-162,2025-01-29 12:40:02,0.0
3592,-16476,4564,-152,159,-176,2025-01-29 12:40:02,0.0
3576,-16408,4580,-158,151,-165,2025-01-29 12:40:02,0.0
3584,-16468,4352,-157,169,-212,2025-01-29 12:40:02,0.0
3692,-16356,4484,-157,168,-192,2025-01-29 12:40:03,0.0
3736,-16448,4428,-153,157,-166,2025-01-29 12:40:03,0.0
3644,-16388,4380,-150,176,-163,2025-01-29 12:40:03,0.0
3644,-16444,4380,-151,169,-181,2025-01-29 12:40:03,0.0
3600,-16328,4420,-150,163,-174,2025-01-29 12:40:03,0.0
3680,-16392,4392,-166,177,-163,2025-01-29 12:40:03,0.0
3568,-16408,4484,-160,187,-160,2025-01-29 12:40:03,0.0
3608,-16472,4552,-154,184,-171,2025-01-29 12:40:03,0.0
3616,-16480,4568,-144,128,-164,2025-01-29 12:40:03,0.0
3644,-16444,4424,-177,174,-182,2025-01-29 12:40:03,0.0
3576,-16320,4512,-168,189,-178,2025-01-29 12:40:03,0.0
3588,-16512,4564,-166,173,-175,2025-01-29 12:40:03,0.0
3620,-16444,4476,-170,156,-174,2025-01-29 12:40:03,0.0
3564,-16500,4668,-146,181,-170,2025-01-29 12:40:03,0.0
3656,-16496,4548,-184,199,-152,2025-01-29 12:40:03,0.0
3608,-16312,4448,-150,155,-171,2025-01-29 12:40:03,0.0
3668,-16424,4560,-132,157,-163,2025-01-29 12:40:03,0.0
3616,-16460,4536,-174,172,-182,2025-01-29 12:40:03,0.0
3648,-16404,4392,-165,180,-181,2025-01-29 12:40:03,0.0
3672,-16392,4580,-178,162,-185,2025-01-29 12:40:03,0.0
3672,-16312,4436,-174,163,-160,2025-01-29 12:40:03,0.0
3568,-16468,4500,-167,185,-166,2025-01-29 12:40:03,0.0
3480,-16424,4424,-149,150,-173,2025-01-29 12:40:03,0.0
3552,-16380,4464,-133,167,-169,2025-01-29 12:40:03,0.0
3636,-16368,4568,-162,179,-199,2025-01-29 12:40:03,0.0
3624,-16504,4396,-167,160,-165,2025-01-29 12:40:03,0.0
3612,-16440,4412,-161,160,-172,2025-01-29 12:40:03,0.0
3472,-16492,4420,-140,160,-190,2025-01-29 12:40:03,0.0
3540,-16448,4428,-170,183,-181,2025-01-29 12:40:03,0.0
3612,-16468,4368,-170,140,-168,2025-01-29 12:40:03,0.0
3572,-16364,4552,-162,161,-173,2025-01-29 12:40:03,0.0
3636,-16356,4560,-157,187,-171,2025-01-29 12:40:03,0.0
3636,-16428,4440,-152,175,-177,2025-01-29 12:40:03,0.0
3572,-16388,4628,-142,131,-200,2025-01-29 12:40:03,0.0
3628,-16456,4500,-160,164,-177,2025-01-29 12:40:03,0.0
3624,-16440,4420,-158,148,-170,2025-01-29 12:40:03,0.0
3572,-16396,4396,-148,140,-165,2025-01-29 12:40:03,0.0
3596,-16484,4376,-168,189,-183,2025-01-29 12:40:03,0.0
3560,-16368,4496,-176,152,-193,2025-01-29 12:40:03,0.0
3592,-16472,4416,-152,149,-175,2025-01-29 12:40:03,0.0
3588,-16464,4516,-162,171,-165,2025-01-29 12:40:03,
3596,-16412,4584,-159,161,-173,2025-01-29 12:40:03,0.0
3584,-16372,4440,-143,154,-162,2025-01-29 12:40:03,0.0
3604,-16416,4628,-160,150,-178,2025-01-29 12:40:03,0.0
3592,-16440,4432,-162,166,-177,2025-01-29 12:40:03,0.0
3612,-16400,4388,-159,178,-157,2025-01-29 12:40:03,0.0
3664,-16376,4496,-152,168,-166,2025-01-29 12:40:03,0.0
3568,-16400,4476,-141,165,-162,2025-01-29 12:40:03,0.0
3504,-16508,4380,-176,137,-158,2025-01-29 12:40:03,0.0
3700,-16416,4532,-154,142,-168,2025-01-29 12:40:03,0.0
3584,-16460,4420,-164,150,-157,2025-01-29 12:40:03,0.0
3628,-16440,4444,-162,169,-172,2025-01-29 12:40:03,0.0
3584,-16452,4472,-176,166,-171,2025-01-29 12:40:03,0.0
3584,-16400,4472,-160,172,-202,2025-01-29 12:40:03,0.0
3588,-16556,4544,-171,141,-160,2025-01-29 12:40:03,0.0
3676,-16408,4600,-163,168,-169,2025-01-29 12:40:03,0.0
3676,-16412,4456,-165,163,-182,2025-01-29 12:40:03,0.0
3608,-16444,4500,-155,160,-197,2025-01-29 12:40:03,0.0
3688,-16508,4356,-163,134,-180,2025-01-29 12:40:03,0.0
3556,-16456,4416,-154,193,-159,2025-01-29 12:40:04,0.0
3536,-16484,4504,-158,184,-179,2025-01-29 12:40:04,0.0
3680,-16420,4440,-160,132,-172,2025-01-29 12:40:04,0.0
3624,-16472,4440,-154,139,-167,2025-01-29 12:40:04,0.0
3688,-16292,4392,-164,175,-186,2025-01-29 12:40:04,0.0
3628,-16384,4428,-147,194,-179,2025-01-29 12:40:04,0.0
3640,-16464,4432,-151,133,-189,2025-01-29 12:40:04,0.0
3580,-16364,4440,-159,147,-174,2025-01-29 12:40:04,0.0
3520,-16424,4572,-148,165,-172,2025-01-29 12:40:04,0.0
3608,-16536,4472,-138,143,-176,2025-01-29 12:40:04,0.0
3580,-16348,4436,-182,147,-176,2025-01-29 12:40:04,0.0
3568,-16464,4368,-156,181,-168,2025-01-29 12:40:04,0.0
3612,-16400,4664,-162,180,-157,2025-01-29 12:40:04,0.0
3572,-16448,4464,-145,136,-177,2025-01-29 12:40:04,0.0
3604,-16416,4508,-152,137,-185,2025-01-29 12:40:04,0.0
3664,-16480,4492,-177,160,-170,2025-01-29 12:40:04,0.0
3552,-16424,4452,-172,177,-173,2025-01-29 12:40:04,0.0
3608,-16532,4416,-165,171,-152,2025-01-29 12:40:04,0.0
3604,-16368,4576,-166,154,-177,2025-01-29 12:40:04,0.0
3572,-16516,4384,-151,174,-180,2025-01-29 12:40:04,0.0
3624,-16404,4508,-150,176,-178,2025-01-29 12:40:04,0.0
3592,-16404,4452,-162,145,-186,2025-01-29 12:40:04,0.0
3560,-16460,4492,-148,174,-186,2025-01-29 12:40:04,0.0
3680,-16400,4484,-148,160,-179,2025-01-29 12:40:04,0.0
3576,-16440,4516,-152,136,-206,2025-01-29 12:40:04,0.0
3644,-16400,4580,-155,163,-157,2025-01-29 12:40:04,0.0
3676,-16360,4640,-168,174,-199,2025-01-29 12:40:04,0.0
3596,-16384,4504,-158,189,-158,2025-01-29 12:40:04,0.0
3644,-16432,4396,-136,143,-186,2025-01-29 12:40:04,0.0
3552,-16504,4532,-171,158,-178,2025-01-29 12:40:04,0.0
3560,-16492,4432,-151,177,-172,2025-01-29 12:40:04,0.0
3548,-16424,4492,-165,176,-177,2025-01-29 12:40:04,0.0
3572,-16368,4548,-151,154,-186,2025-01-29 12:40:04,0.0
3608,-16440,4292,-147,175,-189,2025-01-29 12:40:04,0.0
3700,-16448,4448,-159,176,-174,2025-01-29 12:40:04,0.0
3628,-16412,4452,-186,173,-183,2025-01-29 12:40:04,0.0
3624,-16468,4568,-169,179,-185,2025-01-29 12:40:04,0.0
3616,-16464,4472,-151,174,-193,2025-01-29 12:40:04,0.0
3596,-16428,4412,-141,132,-183,2025-01-29 12:40:04,0.0
3640,-16400,4492,-160,153,-164,2025-01-29 12:40:04,0.0
3616,-16380,4496,-178,196,-174,2025-01-29 12:40:04,0.0
3592,-16380,4520,-144,178,-174,2025-01-29 12:40:04,0.0
3572,-16368,4480,-153,144,-181,2025-01-29 12:40:04,0.0
3616,-16424,4500,-146,153,-163,2025-01-29 12:40:04,0.0
3588,-16448,4444,-171,164,-194,2025-01-29 12:40:04,0.0
3648,-16304,4640,-163,151,-163,2025-01-29 12:40:04,0.0
3572,-16388,4556,-166,139,-160,2025-01-29 12:40:04,0.0
3632,-16444,4472,-165,166,-170,2025-01-29 12:40:04,0.0
3612,-16448,4416,-149,170,-176,2025-01-29 12:40:04,0.0
3628,-16456,4436,-167,166,-186,2025-01-29 12:40:04,0.0
3552,-16348,4288,-152,181,-173,2025-01-29 12:40:04,0.0
3576,-16372,4604,-187,164,-173,2025-01-29 12:40:04,0.0
3604,-16404,4396,-168,155,-176,2025-01-29 12:40:04,0.0
3636,-16420,4408,-183,172,-178,2025-01-29 12:40:04,0.0
3592,-16408,4460,-164,182,-161,2025-01-29 12:40:04,0.0
3648,-16436,4472,-161,174,-159,2025-01-29 12:40:04,0.0
3648,-16456,4532,-150,153,-154,2025-01-29 12:40:04,0.0
3588,-16440,4520,-152,146,-190,2025-01-29 12:40:04,0.0
3604,-16484,4488,-157,192,-163,2025-01-29 12:40:04,0.0
3684,-16476,4472,-150,186,-167,2025-01-29 12:40:04,0.0
3572,-16404,4592,-159,162,-180,2025-01-29 12:40:04,0.0
3644,-16460,4392,-153,157,-165,2025-01-29 12:40:04,0.0
3572,-16472,4416,-192,179,-170,2025-01-29 12:40:04,0.0
3584,-16432,4436,-157,158,-174,2025-01-29 12:40:05,0.0
3720,-16512,4472,-172,149,-172,2025-01-29 12:40:05,0.0
3536,-16488,4516,-152,189,-180,2025-01-29 12:40:05,0.0
3584,-16456,4564,-140,165,-193,2025-01-29 12:40:05,0.0
3600,-16440,4384,-131,125,-170,2025-01-29 12:40:05,0.0
3620,-16480,4516,-147,124,-203,2025-01-29 12:40:05,0.0
3616,-16484,4412,-151,196,-166,2025-01-29 12:40:05,0.0
3548,-16444,4412,-179,196,-175,2025-01-29 12:40:05,0.0
3556,-16416,4504,-156,166,-167,2025-01-29 12:40:05,0.0
3688,-16404,4408,-180,158,-210,2025-01-29 12:40:05,0.0
3592,-16468,4424,-155,171,-193,2025-01-29 12:40:05,0.0
3552,-16408,4552,-163,168,-168,2025-01-29 12:40:05,0.0
3664,-16456,4560,-160,147,-180,2025-01-29 12:40:05,0.0
3680,-16440,4492,-163,160,-176,2025-01-29 12:40:05,0.0
3592,-16436,4448,-169,155,-173,2025-01-29 12:40:05,0.0
3552,-16436,4484,-144,158,-168,2025-01-29 12:40:05,0.0
3576,-16460,4436,-171,141,-184,2025-01-29 12:40:05,0.0
3520,-16492,4440,-147,205,-170,2025-01-29 12:40:05,0.0
3576,-16400,4564,-166,178,-187,2025-01-29 12:40:05,
3592,-16436,4532,-147,144,-177,2025-01-29 12:40:05,0.0
3512,-16480,4352,-149,177,-183,2025-01-29 12:40:05,0.0
3532,-16396,4540,-161,191,-169,2025-01-29 12:40:05,0.0
3524,-16408,4504,-159,153,-151,2025-01-29 12:40:05,0.0
3580,-16372,4544,-163,147,-180,2025-01-29 12:40:05,0.0
3648,-16412,4596,-142,142,-181,2025-01-29 12:40:05,0.0
3516,-16380,4572,-176,161,-186,2025-01-29 12:40:05,0.0
3752,-16476,4540,-166,167,-167,2025-01-29 12:40:05,0.0
3604,-16516,4336,-152,158,-159,2025-01-29 12:40:05,0.0
3612,-16476,4540,-141,172,-172,2025-01-29 12:40:05,0.0
3672,-16436,4528,-143,154,-175,2025-01-29 12:40:05,0.0
3544,-16420,4440,-166,157,-143,2025-01-29 12:40:05,0.0
3632,-16396,4576,-149,185,-185,2025-01-29 12:40:05,0.0
3592,-16344,4496,-162,200,-153,2025-01-29 12:40:05,0.0
3632,-16468,4592,-159,130,-167,2025-01-29 12:40:05,0.0
3568,-16504,4524,-139,156,-180,2025-01-29 12:40:05,0.0
3576,-16412,4564,-147,170,-191,2025-01-29 12:40:05,0.0
3576,-16420,4536,-157,191,-149,2025-01-29 12:40:05,0.0
3636,-16428,4428,-165,172,-156,2025-01-29 12:40:05,0.0
3644,-16548,4556,-156,188,-177,2025-01-29 12:40:05,0.0
3516,-16448,4484,-159,155,-173,2025-01-29 12:40:05,0.0
3604,-16400,4428,-156,149,-174,2025-01-29 12:40:05,0.0
3580,-16428,4460,-138,155,-151,2025-01-29 12:40:05,0.0
3556,-16476,4536,-156,190,-165,2025-01-29 12:40:05,0.0
3656,-16456,4388,-149,160,-172,2025-01-29 12:40:05,0.0
3504,-16392,4396,-149,140,-180,2025-01-29 12:40:05,0.0
3628,-16388,4516,-156,197,-171,2025-01-29 12:40:05,0.0
3576,-16352,4464,-165,189,-182,2025-01-29 12:40:05,0.0
3636,-16400,4352,-157,160,-176,2025-01-29 12:40:05,0.0
3540,-16448,4376,-166,159,-179,2025-01-29 12:40:05,0.0
3600,-16520,4468,-150,185,-182,2025-01-29 12:40:05,0.0
3632,-16336,4348,-138,157,-165,2025-01-29 12:40:05,0.0
3612,-16480,4280,-153,136,-160,2025-01-29 12:40:05,0.0
3500,-16388,4592,-166,154,-197,2025-01-29 12:40:05,0.0
3608,-16440,4580,-157,189,-195,2025-01-29 12:40:05,0.0
3608,-16432,4532,-136,147,-182,2025-01-29 12:40:05,0.0
3524,-16388,4512,-190,145,-166,2025-01-29 12:40:05,0.0
3516,-16468,4476,-160,201,-170,2025-01-29 12:40:05,0.0
3624,-16404,4636,-143,178,-183,2025-01-29 12:40:05,0.0
3588,-16404,4596,-152,115,-188,2025-01-29 12:40:05,0.0
3580,-16336,4452,-169,168,-155,2025-01-29 12:40:05,0.0
3592,-16368,4484,-173,197,-180,2025-01-29 12:40:06,0.0
3560,-16380,4544,-157,163,-173,2025-01-29 12:40:06,0.0
3688,-16456,4516,-158,136,-176,2025-01-29 12:40:06,0.0
3572,-16436,4460,-167,176,-174,2025-01-29 12:40:06,0.0
3632,-16412,4464,-151,200,-176,2025-01-29 12:40:06,0.0
3592,-16348,4516,-158,171,-167,2025-01-29 12:40:06,0.0
3548,-16416,4372,-162,164,-158,2025-01-29 12:40:06,0.0
3596,-16444,4440,-165,194,-158,2025-01-29 12:40:06,0.0
3696,-16420,4428,-163,164,-170,2025-01-29 12:40:06,0.0
3544,-16412,4524,-150,148,-163,2025-01-29 12:40:06,0.0
3560,-16472,4420,-188,182,-174,2025-01-29 12:40:06,0.0
3588,-16428,4508,-166,166,-169,2025-01-29 12:40:06,0.0
3612,-16432,4484,-152,131,-172,2025-01-29 12:40:06,0.0
3576,-16476,4572,-140,134,-181,2025-01-29 12:40:06,0.0
3636,-16436,4604,-162,149,-165,2025-01-29 12:40:06,0.0
3564,-16432,4544,-149,195,-187,2025-01-29 12:40:06,0.0
3508,-16428,4596,-160,162,-166,2025-01-29 12:40:06,0.0
3656,-16448,4396,-169,132,-182,2025-01-29 12:40:06,0.0
3684,-16388,4492,-140,155,-174,2025-01-29 12:40:06,0.0
3548,-16432,4528,-182,143,-169,2025-01-29 12:40:06,0.0
3612,-16504,4528,-159,166,-177,2025-01-29 12:40:06,0.0
3596,-16396,4384,-150,200,-184,2025-01-29 12:40:06,0.0
3668,-16412,4384,-169,207,-181,2025-01-29 12:40:06,0.0
3592,-16500,4480,-167,150,-179,2025-01-29 12:40:06,0.0
3592,-16496,4460,-183,141,-185,2025-01-29 12:40:06,0.0
3732,-16416,4456,-129,223,-174,2025-01-29 12:40:06,0.0
3548,-16492,4568,-166,154,-167,2025-01-29 12:40:06,0.0
3660,-16436,4568,-167,156,-171,2025-01-29 12:40:06,0.0
3636,-16512,4348,-145,168,-177,2025-01-29 12:40:06,0.0
3540,-16412,4448,-157,176,-172,2025-01-29 12:40:06,0.0
3612,-16368,4516,-169,156,-165,2025-01-29 12:40:06,0.0
3540,-16404,4516,-151,192,-176,2025-01-29 12:40:06,0.0
3624,-16476,4536,-156,149,-198,2025-01-29 12:40:06,0.0
3620,-16436,4540,-151,138,-178,2025-01-29 12:40:06,0.0
3584,-16496,4400,-154,152,-179,2025-01-29 12:40:06,0.0
3644,-16484,4444,-129,201,-194,2025-01-29 12:40:06,0.0
3672,-16412,4596,-189,165,-158,2025-01-29 12:40:06,0.0
3688,-16428,4472,-142,167,-186,2025-01-29 12:40:06,0.0
3596,-16356,4612,-163,172,-189,2025-01-29 12:40:06,0.0
3684,-16460,4432,-196,166,-185,2025-01-29 12:40:06,0.0
3516,-16368,4556,-128,152,-188,2025-01-29 12:40:06,0.0
3688,-16432,4484,-161,140,-202,2025-01-29 12:40:06,0.0
3584,-16396,4508,-168,166,-181,2025-01-29 12:40:06,0.0
3636,-16436,4552,-167,151,-186,2025-01-29 12:40:06,0.0
3664,-16356,4516,-161,175,-153,2025-01-29 12:40:06,0.0
3616,-16496,4440,-160,158,-152,2025-01-29 12:40:06,0.0
3616,-16472,4448,-146,189,-170,2025-01-29 12:40:06,0.0
3624,-16420,4440,-162,166,-191,2025-01-29 12:40:06,0.0
3572,-16428,4372,-146,165,-168,2025-01-29 12:40:06,0.0
3532,-16496,4468,-167,146,-184,2025-01-29 12:40:06,0.0
3624,-16420,4416,-167,169,-190,2025-01-29 12:40:06,0.0
3568,-16364,4428,-152,160,-189,2025-01-29 12:40:06,0.0
3632,-16460,4396,-147,160,-167,2025-01-29 12:40:06,0.0
3564,-16428,4320,-152,181,-185,2025-01-29 12:40:06,0.0
3612,-16412,4372,-180,161,-180,2025-01-29 12:40:06,0.0
3620,-16404,4548,-181,167,-193,2025-01-29 12:40:06,0.0
3572,-16392,4396,-154,168,-171,2025-01-29 12:40:06,0.0
3704,-16416,4352,-174,165,-181,2025-01-29 12:40:06,0.0
3564,-16496,4416,-148,164,-176,2025-01-29 12:40:06,
