acceleration_x,acceleration_y,acceleration_z,gyroscope_x,gyroscope_y,gyroscope_z,timestamp,label
-13552,-592,-1752,-181,108,-205,2025-01-29 15:08:51,0.0
-13524,-604,-1668,-184,145,-210,2025-01-29 15:08:51,0.0
-13476,-608,-1628,-222,285,-201,2025-01-29 15:08:51,0.0
-13496,-668,-1712,-216,319,-173,2025-01-29 15:08:51,0.0
-13656,-728,-1684,-224,312,-188,2025-01-29 15:08:51,0.0
-13476,-680,-1532,-191,218,-152,2025-01-29 15:08:51,0.0
-13552,-680,-1520,-165,113,-182,2025-01-29 15:08:51,0.0
-13528,-648,-1656,-170,113,-182,2025-01-29 15:08:51,0.0
-13520,-568,-1576,-193,104,-185,2025-01-29 15:08:51,0.0
-13516,-628,-1892,-142,142,-196,2025-01-29 15:08:51,0.0
-13524,-728,-1680,-155,212,-172,2025-01-29 15:08:51,0.0
-13480,-728,-1640,-125,182,-173,2025-01-29 15:08:51,0.0
-13540,-680,-1628,-148,141,-175,2025-01-29 15:08:52,0.0
-13560,-592,-1748,-120,172,-170,2025-01-29 15:08:52,0.0
-13524,-612,-1784,-158,208,-158,2025-01-29 15:08:52,0.0
-13580,-508,-1644,-138,188,-164,2025-01-29 15:08:52,0.0
-13472,-628,-1616,-158,207,-165,2025-01-29 15:08:52,0.0
-13576,-704,-1560,-133,203,-177,2025-01-29 15:08:52,0.0
-13456,-652,-1596,-127,182,-167,2025-01-29 15:08:52,0.0
-13380,-640,-1640,-121,194,-180,2025-01-29 15:08:52,0.0
-13472,-644,-1596,-167,223,-194,2025-01-29 15:08:52,0.0
-13468,-596,-1624,-149,242,-191,2025-01-29 15:08:52,0.0
-13496,-700,-1608,-163,146,-170,2025-01-29 15:08:52,0.0
-13500,-600,-1872,-161,120,-160,2025-01-29 15:08:52,0.0
-13896,-516,-1956,128,558,253,2025-01-29 15:08:52,0.0
-13588,216,-1772,97,527,349,2025-01-29 15:08:52,0.0
-13008,152,-1680,-131,656,174,2025-01-29 15:08:52,0.0
-13268,-656,-1592,-229,508,-140,2025-01-29 15:08:52,0.0
-13840,-996,-1188,36,106,-173,2025-01-29 15:08:52,0.0
-14032,-1068,-1256,356,-180,-50,2025-01-29 15:08:52,0.0
-13868,-436,-1676,353,-230,162,2025-01-29 15:08:52,0.0
-13420,276,-1468,191,-108,128,2025-01-29 15:08:52,0.0
-13264,572,-1132,13,-104,51,2025-01-29 15:08:52,0.0
-13596,360,-1136,-232,-146,-103,2025-01-29 15:08:52,0.0
-13720,-172,-1000,-292,-312,-212,2025-01-29 15:08:52,0.0
-13792,-784,-780,-259,-526,-429,2025-01-29 15:08:52,0.0
-14012,-944,-516,74,-814,-363,2025-01-29 15:08:52,0.0
-13700,-388,-736,551,-910,-206,2025-01-29 15:08:52,0.0
-13144,96,-1152,646,-953,-263,2025-01-29 15:08:52,0.0
-13084,228,-1276,486,-678,-446,2025-01-29 15:08:52,0.0
-13140,28,-1040,506,-35,-533,2025-01-29 15:08:52,0.0
-13364,-272,-576,794,359,-535,2025-01-29 15:08:52,0.0
-13592,-312,-408,1047,621,-569,2025-01-29 15:08:52,0.0
-13920,-248,-468,1285,645,-646,2025-01-29 15:08:52,0.0
-13724,-72,-384,1536,466,-680,2025-01-29 15:08:52,0.0
-13936,-292,-552,1758,344,-682,2025-01-29 15:08:52,0.0
-14092,-284,-848,2050,627,-733,2025-01-29 15:08:52,0.0
-14368,-720,-1144,2397,670,-758,2025-01-29 15:08:52,0.0
-14472,-956,-2360,2796,-972,-691,2025-01-29 15:08:52,0.0
-14164,-904,-2304,2911,-3535,-804,2025-01-29 15:08:52,0.0
-13608,-256,-1368,2989,-5039,-1106,2025-01-29 15:08:52,0.0
-13076,180,-1000,2829,-5158,-1237,2025-01-29 15:08:52,0.0
-12612,224,-1152,2518,-4599,-1449,2025-01-29 15:08:52,0.0
-12208,348,-1020,2138,-3381,-1729,2025-01-29 15:08:52,0.0
-12696,324,-1524,1668,-1584,-2033,2025-01-29 15:08:52,0.0
-13172,-136,-1116,1335,325,-2315,2025-01-29 15:08:52,0.0
-13680,-856,-744,1337,1061,-2504,2025-01-29 15:08:52,0.0
-14064,-1516,-764,1309,405,-2522,2025-01-29 15:08:52,0.0
-14032,-1692,-284,1346,-1345,-2300,2025-01-29 15:08:52,0.0
-13688,-1576,16,1291,-2050,-2155,2025-01-29 15:08:52,0.0
-13228,-1636,500,970,-1921,-1750,2025-01-29 15:08:52,0.0
-12736,-1772,628,828,-1637,-1378,2025-01-29 15:08:53,0.0
-12628,-2112,460,784,-1164,-1029,2025-01-29 15:08:53,0.0
-12740,-2404,1160,808,-74,-874,2025-01-29 15:08:53,0.0
-13068,-2292,1872,722,1693,-932,2025-01-29 15:08:53,0.0
-14024,-2232,1944,253,3130,-1238,2025-01-29 15:08:53,0.0
-14476,-2248,1768,-103,2711,-1548,2025-01-29 15:08:53,0.0
-14688,-2232,1296,-315,1140,-1752,2025-01-29 15:08:53,0.0
-14484,-2368,1420,-443,-232,-1752,2025-01-29 15:08:53,0.0
-14104,-2636,1344,-448,-787,-1649,2025-01-29 15:08:53,0.0
-13560,-2836,1084,-377,-1001,-1489,2025-01-29 15:08:53,0.0
-12936,-2988,1200,-318,-1153,-1342,2025-01-29 15:08:53,0.0
-12636,-2980,1320,-325,-1072,-1329,2025-01-29 15:08:53,0.0
-12548,-3012,1412,-289,-852,-1202,2025-01-29 15:08:53,0.0
-12504,-2956,1376,-311,-423,-1067,2025-01-29 15:08:53,0.0
-12824,-2764,1268,-392,221,-957,2025-01-29 15:08:53,0.0
-13236,-2424,1188,-701,890,-860,2025-01-29 15:08:53,0.0
-13816,-2092,1368,-1052,1171,-746,2025-01-29 15:08:53,0.0
-14080,-1916,1680,-1442,881,-563,2025-01-29 15:08:53,0.0
-14224,-1992,1664,-1795,141,-181,2025-01-29 15:08:53,0.0
-13660,-2000,1612,-1950,-461,330,2025-01-29 15:08:53,0.0
-13120,-2116,1004,-2249,-214,345,2025-01-29 15:08:53,0.0
-12984,-2260,996,-2649,385,106,2025-01-29 15:08:53,0.0
-13144,-2212,1056,-3087,918,-76,2025-01-29 15:08:53,0.0
-13456,-2436,900,-3492,1230,-157,2025-01-29 15:08:53,0.0
-13720,-2876,1168,-3868,1634,-196,2025-01-29 15:08:53,0.0
-14216,-3220,1244,-4212,2028,-233,2025-01-29 15:08:53,0.0
-14756,-3164,1644,-4493,2109,-190,2025-01-29 15:08:53,0.0
-14872,-3264,2076,-4674,1697,-255,2025-01-29 15:08:53,0.0
-15188,-3484,2444,-4623,1106,-449,2025-01-29 15:08:53,0.0
-15564,-3512,2408,-4643,58,-303,2025-01-29 15:08:53,0.0
-15272,-3248,2788,-4638,-852,276,2025-01-29 15:08:53,0.0
-14524,-3164,1504,-4543,-527,242,2025-01-29 15:08:53,0.0
-14732,-3548,-96,-4593,824,-364,2025-01-29 15:08:53,0.0
-15608,-4264,236,-3980,2469,-1349,2025-01-29 15:08:53,0.0
-17180,-4472,836,-3011,2514,-1486,2025-01-29 15:08:53,0.0
-18208,-4604,1336,-1485,-23,-228,2025-01-29 15:08:53,0.0
-17560,-4532,824,174,-3185,979,2025-01-29 15:08:53,0.0
-16028,-3680,-364,1375,-5390,1419,2025-01-29 15:08:53,0.0
-14672,-2656,-1076,1785,-5819,2143,2025-01-29 15:08:53,
-13724,-2096,-2052,1908,-4391,2965,2025-01-29 15:08:53,0.0
-12888,-1908,-3172,1780,-2107,3231,2025-01-29 15:08:53,0.0
-13228,-1932,-4272,1421,-341,2941,2025-01-29 15:08:53,0.0
-13780,-1536,-3740,1100,28,2672,2025-01-29 15:08:53,0.0
-13840,-800,-2392,1143,-266,2712,2025-01-29 15:08:53,0.0
-13508,292,-1440,1311,-1040,3034,2025-01-29 15:08:53,0.0
-11980,1440,-2324,1126,-2693,3524,2025-01-29 15:08:53,0.0
-11068,1628,-3092,374,-3283,3252,2025-01-29 15:08:53,0.0
-10664,1440,-2784,-554,-2449,2569,2025-01-29 15:08:53,0.0
-11320,704,-1568,-1068,717,2017,2025-01-29 15:08:53,0.0
-12688,-368,-928,-951,3735,1932,2025-01-29 15:08:53,0.0
-13528,-960,-776,-463,4789,2002,2025-01-29 15:08:53,0.0
-14276,-1068,-148,135,4276,2105,2025-01-29 15:08:53,0.0
-14536,-496,192,812,2216,2445,2025-01-29 15:08:53,0.0
-14072,124,224,1387,-78,2836,2025-01-29 15:08:53,0.0
-13464,340,-60,1696,-1229,2906,2025-01-29 15:08:53,0.0
-12956,496,-188,1771,-1533,2847,2025-01-29 15:08:53,0.0
-12504,608,-52,1971,-1256,2705,2025-01-29 15:08:53,0.0
-12180,968,-332,2071,-903,2410,2025-01-29 15:08:53,0.0
-11972,1128,-400,2044,-698,2070,2025-01-29 15:08:53,0.0
-12164,1192,-500,1954,-493,1711,2025-01-29 15:08:53,0.0
-12148,1060,-152,1831,-277,1356,2025-01-29 15:08:54,0.0
-12112,872,428,1731,-232,822,2025-01-29 15:08:54,0.0
-12736,628,916,1520,-532,307,2025-01-29 15:08:54,0.0
-13200,508,1352,1274,-1026,-3,2025-01-29 15:08:54,0.0
-13468,832,1624,1166,-1914,-46,2025-01-29 15:08:54,0.0
-13280,1060,2076,1134,-3017,-232,2025-01-29 15:08:54,0.0
-13112,1320,1976,922,-4293,-770,2025-01-29 15:08:54,0.0
-13196,1292,1552,410,-5539,-1387,2025-01-29 15:08:54,0.0
-13240,1240,1336,74,-6512,-1710,2025-01-29 15:08:54,0.0
-13296,932,1708,223,-7274,-1544,2025-01-29 15:08:54,0.0
-12540,796,2408,703,-6874,-1136,2025-01-29 15:08:54,0.0
-11852,808,2268,1029,-5073,-1014,2025-01-29 15:08:54,0.0
-12068,968,1584,1239,-2180,-1189,2025-01-29 15:08:54,0.0
-13008,620,1480,1502,997,-1055,2025-01-29 15:08:54,0.0
-14272,-200,2352,2268,3624,-513,2025-01-29 15:08:54,0.0
-15164,-1180,3088,3363,4922,212,2025-01-29 15:08:54,0.0
-15536,-1408,3548,4647,4621,664,2025-01-29 15:08:54,0.0
-15944,176,3676,5597,3251,1151,2025-01-29 15:08:54,0.0
-15496,1028,4116,6187,2672,1253,2025-01-29 15:08:54,0.0
-15104,748,3556,6724,3284,937,2025-01-29 15:08:54,0.0
-15556,168,1812,6819,4397,793,2025-01-29 15:08:54,0.0
-16352,1420,656,6944,5281,1267,2025-01-29 15:08:54,0.0
-16816,3060,-2092,6461,6031,1939,2025-01-29 15:08:54,0.0
-16468,4028,-4972,4587,6650,2064,2025-01-29 15:08:54,0.0
-15892,4548,-5588,1997,6251,1586,2025-01-29 15:08:54,0.0
-15172,4896,-4144,18,5128,97,2025-01-29 15:08:54,0.0
-14692,3516,-3036,-1576,3166,-2230,2025-01-29 15:08:54,0.0
-15144,2296,-1656,-2712,-78,-2633,2025-01-29 15:08:54,0.0
-13868,688,-1512,-2638,-3720,-2655,2025-01-29 15:08:54,0.0
-12532,-1136,-2376,-2577,-6372,-2804,2025-01-29 15:08:54,0.0
-11728,-2764,-2980,-2555,-7990,-2863,2025-01-29 15:08:54,0.0
-11632,-3620,-2060,-2086,-6793,-2461,2025-01-29 15:08:54,0.0
-11688,-3828,-828,-906,-2822,-1781,2025-01-29 15:08:54,0.0
-11968,-3048,-612,1222,3533,-1434,2025-01-29 15:08:54,0.0
-12108,-1248,-1808,1967,7137,-1822,2025-01-29 15:08:54,0.0
-12908,628,-2472,1300,8108,-2521,2025-01-29 15:08:54,0.0
-14288,2028,-2380,-306,7295,-3149,2025-01-29 15:08:54,0.0
-15384,2552,-1348,-2068,4975,-3226,2025-01-29 15:08:54,0.0
-15224,2124,-1104,-3389,1352,-2920,2025-01-29 15:08:54,0.0
-15064,812,-596,-4059,-3203,-2474,2025-01-29 15:08:54,0.0
-13604,-688,-1380,-4686,-6366,-2310,2025-01-29 15:08:54,0.0
-12132,-2028,-720,-5440,-7926,-2447,2025-01-29 15:08:54,0.0
-11144,-2464,-764,-5512,-7093,-2603,2025-01-29 15:08:54,0.0
-10968,-2412,-528,-5172,-4858,-2505,2025-01-29 15:08:54,0.0
-11652,-1904,-616,-4901,-1763,-2213,2025-01-29 15:08:54,0.0
-11596,-1260,-1216,-4772,1555,-1854,2025-01-29 15:08:54,0.0
-12904,-984,-164,-4857,2227,-1612,2025-01-29 15:08:54,0.0
-13828,-808,728,-4989,954,-1296,2025-01-29 15:08:54,0.0
-13984,-740,344,-5195,-902,-818,2025-01-29 15:08:54,0.0
-14340,-888,412,-5500,-2462,-429,2025-01-29 15:08:54,0.0
-14124,-976,32,-5894,-3478,-166,2025-01-29 15:08:54,0.0
-13012,-848,-1260,-6576,-4057,-12,2025-01-29 15:08:54,0.0
-13436,-116,-628,-7683,-4102,-35,2025-01-29 15:08:54,0.0
-13716,936,-776,-8749,-3976,-86,2025-01-29 15:08:54,0.0
-14080,1744,-696,-9945,-3817,285,2025-01-29 15:08:54,0.0
-14192,1916,-252,-11151,-3820,741,2025-01-29 15:08:54,0.0
-14072,1332,-132,-12321,-4209,1185,2025-01-29 15:08:54,0.0
-14040,468,-156,-13462,-5075,1516,2025-01-29 15:08:54,0.0
-13820,112,-8,-14309,-6057,2096,2025-01-29 15:08:54,0.0
-12312,28,-672,-15415,-6619,2456,2025-01-29 15:08:54,0.0
-11560,-356,-520,-16286,-5713,2506,2025-01-29 15:08:54,0.0
-11556,-856,-304,-16779,-3498,2547,2025-01-29 15:08:54,0.0
-12312,-792,-796,-17032,-311,2542,2025-01-29 15:08:54,0.0
-12456,-80,-1968,-17509,2248,2414,2025-01-29 15:08:55,0.0
-12096,356,-2160,-18240,3024,1739,2025-01-29 15:08:55,0.0
-12076,-1268,-756,-18878,2477,535,2025-01-29 15:08:55,0.0
-13328,-3076,784,-19349,2248,-441,2025-01-29 15:08:55,0.0
-15384,-3828,1552,-19290,2752,-629,2025-01-29 15:08:55,0.0
-17740,-3952,1924,-18980,3367,-123,2025-01-29 15:08:55,0.0
-18296,-3408,1564,-19047,3077,255,2025-01-29 15:08:55,0.0
-17736,-2600,996,-19587,602,332,2025-01-29 15:08:55,0.0
-16364,-1816,1208,-20626,-4014,737,2025-01-29 15:08:55,0.0
-15028,-1756,2444,-21603,-6867,1482,2025-01-29 15:08:55,0.0
-13248,-2084,1816,-22359,-7417,2300,2025-01-29 15:08:55,0.0
-12060,-1632,-740,-22490,-4721,2252,2025-01-29 15:08:55,0.0
-11572,-1148,-3804,-22493,-1373,1486,2025-01-29 15:08:55,0.0
-11804,-1960,-4888,-22354,2520,-459,2025-01-29 15:08:55,0.0
-13104,-3728,-3504,-21507,6279,-2712,2025-01-29 15:08:55,0.0
-14960,-5416,-772,-20097,9961,-4207,2025-01-29 15:08:55,
-17376,-3636,1032,-18523,11459,-2758,2025-01-29 15:08:55,0.0
-15456,-1080,-224,-17682,10294,-754,2025-01-29 15:08:55,0.0
-13492,76,-2584,-18157,7217,-647,2025-01-29 15:08:55,0.0
-13272,948,-3352,-19880,3974,-1184,2025-01-29 15:08:55,0.0
-13072,664,-2076,-19795,4154,-1503,2025-01-29 15:08:55,0.0
-13260,80,-2836,-18870,6409,-1532,2025-01-29 15:08:55,0.0
-13124,-144,-3700,-19272,8156,-2105,2025-01-29 15:08:55,0.0
-13544,-188,-2580,-20017,7749,-2651,2025-01-29 15:08:55,0.0
-13480,28,-1764,-19699,5316,-2614,2025-01-29 15:08:55,0.0
-13644,-120,-2468,-19010,2510,-1949,2025-01-29 15:08:55,0.0
-12740,-576,-3676,-18944,1001,-1282,2025-01-29 15:08:55,0.0
-12148,-880,-4544,-19503,1462,-1025,2025-01-29 15:08:55,0.0
-11800,-1432,-5452,-20458,2474,-1316,2025-01-29 15:08:55,0.0
-11016,-1248,-4456,-21103,2863,-2109,2025-01-29 15:08:55,0.0
-11660,-996,-3736,-21122,3036,-2574,2025-01-29 15:08:55,0.0
-12624,-688,-3304,-20060,3081,-2622,2025-01-29 15:08:55,0.0
-12260,-476,-4152,-19481,3199,-2573,2025-01-29 15:08:55,0.0
-11868,-1052,-4596,-19467,2874,-2649,2025-01-29 15:08:55,0.0
-11164,-1692,-5360,-19887,2679,-2949,2025-01-29 15:08:55,0.0
-10764,-1948,-5460,-20604,3260,-3724,2025-01-29 15:08:55,0.0
-11368,-1072,-4740,-20997,4212,-4762,2025-01-29 15:08:55,0.0
-12072,-760,-4396,-20690,5042,-4931,2025-01-29 15:08:55,0.0
-12592,-1176,-4316,-20120,5978,-4704,2025-01-29 15:08:55,0.0
-12164,-2740,-4108,-19572,6898,-4576,2025-01-29 15:08:55,0.0
-12128,-5092,-3376,-18850,7426,-5137,2025-01-29 15:08:55,0.0
-12564,-5936,-1872,-17956,6818,-5738,2025-01-29 15:08:55,0.0
-13764,-5412,-1392,-16952,5593,-5967,2025-01-29 15:08:55,0.0
-14520,-3704,-1308,-15745,3574,-5538,2025-01-29 15:08:55,0.0
-13756,-2696,-1808,-14618,635,-4607,2025-01-29 15:08:55,0.0
-12640,-1732,-1404,-13568,-2729,-3851,2025-01-29 15:08:55,0.0
-12332,-1000,-60,-12624,-4076,-2811,2025-01-29 15:08:55,0.0
-11600,-1288,12,-11458,-4664,-2076,2025-01-29 15:08:55,0.0
-11612,-1976,-1580,-10659,-5242,-1525,2025-01-29 15:08:55,0.0
-11792,-2116,-1500,-10058,-5085,-1529,2025-01-29 15:08:55,0.0
-11920,-1476,-904,-9205,-5007,-1661,2025-01-29 15:08:55,0.0
-19172,-700,3024,-8537,-4955,-1191,2025-01-29 15:08:55,0.0
-10556,-724,624,-7669,-6001,103,2025-01-29 15:08:55,0.0
-9912,-1568,928,-6655,-7519,1479,2025-01-29 15:08:55,0.0
-9224,-2256,212,-6115,-9819,2500,2025-01-29 15:08:55,0.0
-9388,-2624,576,-5880,-10726,2571,2025-01-29 15:08:55,0.0
-10420,-3216,368,-5563,-10279,1751,2025-01-29 15:08:55,0.0
-11608,-2812,1108,-5930,-9678,88,2025-01-29 15:08:55,0.0
-13752,-1304,3212,-6096,-10531,-2235,2025-01-29 15:08:56,0.0
-21548,256,3876,-6443,-9503,-3314,2025-01-29 15:08:56,0.0
-14592,1560,2640,-7000,-16446,-2669,2025-01-29 15:08:56,0.0
-16472,676,2700,-7663,-18674,-1855,2025-01-29 15:08:56,0.0
-17916,-1224,640,-8867,-17433,-988,2025-01-29 15:08:56,0.0
-16724,-332,60,-11286,-13088,-288,2025-01-29 15:08:56,0.0
-16796,56,316,-12065,-8898,102,2025-01-29 15:08:56,0.0
-17972,-1772,4588,-11788,-9459,520,2025-01-29 15:08:56,0.0
-15828,-3972,6316,-10459,-11789,171,2025-01-29 15:08:56,0.0
-15652,-2112,6008,-9886,-13487,420,2025-01-29 15:08:56,0.0
-15440,-324,6564,-9449,-12446,763,2025-01-29 15:08:56,0.0
-13160,-684,5516,-8555,-9298,1079,2025-01-29 15:08:56,0.0
-13244,-556,5780,-7758,-6463,1442,2025-01-29 15:08:56,0.0
-13340,312,5872,-7510,-5295,1710,2025-01-29 15:08:56,0.0
-13496,416,7344,-7282,-5600,2177,2025-01-29 15:08:56,0.0
-12460,-764,9104,-6583,-7180,2322,2025-01-29 15:08:56,0.0
-11384,-1624,9040,-5710,-9392,2008,2025-01-29 15:08:56,0.0
-11488,-1532,9316,-5042,-11196,1549,2025-01-29 15:08:56,0.0
-11852,-176,9736,-4503,-11605,1820,2025-01-29 15:08:56,0.0
-10232,1252,10092,-3880,-11370,2219,2025-01-29 15:08:56,0.0
-10324,1720,10360,-3459,-10771,2619,2025-01-29 15:08:56,0.0
-10956,932,10884,-3588,-11159,2511,2025-01-29 15:08:56,0.0
-11572,684,11964,-3933,-12388,2505,2025-01-29 15:08:56,0.0
-11848,584,12392,-3783,-12895,2776,2025-01-29 15:08:56,0.0
-10964,480,10896,-3436,-11394,2534,2025-01-29 15:08:56,0.0
-10896,52,10980,-3535,-9191,1835,2025-01-29 15:08:56,0.0
-12292,236,12416,-3638,-8694,1645,2025-01-29 15:08:56,0.0
-13236,332,14040,-3252,-9779,1810,2025-01-29 15:08:56,0.0
-13132,360,14360,-2712,-10457,1663,2025-01-29 15:08:56,0.0
-12364,768,14164,-1760,-10489,1428,2025-01-29 15:08:56,0.0
-11856,844,13992,-1157,-10158,1214,2025-01-29 15:08:56,0.0
-11756,884,14948,-326,-10067,1461,2025-01-29 15:08:56,0.0
-10724,444,14964,651,-9744,1659,2025-01-29 15:08:56,0.0
-9252,-312,13772,1016,-9147,1367,2025-01-29 15:08:56,0.0
-8000,136,13636,766,-8405,568,2025-01-29 15:08:56,0.0
-8428,656,13700,29,-8076,-71,2025-01-29 15:08:56,0.0
-9316,352,14592,-315,-7699,-323,2025-01-29 15:08:56,0.0
-9984,632,16156,-229,-7467,-298,2025-01-29 15:08:56,0.0
-11012,1180,16872,239,-7644,98,2025-01-29 15:08:56,0.0
-11060,1680,16836,919,-8418,648,2025-01-29 15:08:56,0.0
-9384,1572,15452,1062,-9068,1084,2025-01-29 15:08:56,0.0
-7784,748,14160,703,-8103,941,2025-01-29 15:08:56,0.0
-6564,596,14328,638,-6008,636,2025-01-29 15:08:56,0.0
-7312,640,14696,825,-3866,303,2025-01-29 15:08:56,0.0
-8332,1256,15584,891,-3898,321,2025-01-29 15:08:56,0.0
-8508,1924,16144,930,-5729,660,2025-01-29 15:08:56,0.0
-7660,1908,15760,721,-7100,1041,2025-01-29 15:08:56,0.0
-7036,1736,15780,646,-7132,1444,2025-01-29 15:08:56,0.0
-6124,1440,15220,224,-5454,1614,2025-01-29 15:08:56,0.0
-5720,1392,14924,-392,-3735,1563,2025-01-29 15:08:56,0.0
-5964,1236,15128,-1032,-2740,1375,2025-01-29 15:08:56,0.0
-5756,932,15276,-1418,-1297,1248,2025-01-29 15:08:56,0.0
-5480,1112,16096,-1691,139,822,2025-01-29 15:08:56,0.0
-5872,1652,16836,-1841,1035,300,2025-01-29 15:08:56,0.0
-6224,2004,17248,-2039,1000,125,2025-01-29 15:08:56,0.0
-5644,1628,16896,-2311,517,278,2025-01-29 15:08:56,0.0
-5708,2004,16516,-2665,591,504,2025-01-29 15:08:56,0.0
-6144,1872,17200,-2168,1609,865,2025-01-29 15:08:56,
-6616,772,16456,-1231,2470,1350,2025-01-29 15:08:56,0.0
-6832,-256,14908,-915,3304,1502,2025-01-29 15:08:56,0.0
-7540,-804,15692,-668,3350,1644,2025-01-29 15:08:56,0.0
-7740,-512,16128,-128,2171,1842,2025-01-29 15:08:56,0.0
-7436,-184,15968,5,1159,1792,2025-01-29 15:08:56,0.0
-7244,24,15436,-10,960,1579,2025-01-29 15:08:57,0.0
-7304,428,15088,-145,950,1376,2025-01-29 15:08:57,0.0
-6956,632,14788,-390,601,1296,2025-01-29 15:08:57,0.0
-7012,596,15412,-470,-56,1198,2025-01-29 15:08:57,0.0
-6796,404,15632,-439,-594,962,2025-01-29 15:08:57,0.0
-6692,760,15872,-218,-697,919,2025-01-29 15:08:57,0.0
-6864,1140,15916,-137,-479,917,2025-01-29 15:08:57,0.0
-6896,1272,15472,-138,-327,1051,2025-01-29 15:08:57,0.0
-6792,1476,15252,-481,-882,1095,2025-01-29 15:08:57,0.0
-6792,1364,15996,-375,-1298,1059,2025-01-29 15:08:57,0.0
-7064,1464,16340,-268,-1470,1103,2025-01-29 15:08:57,0.0
-6716,1324,16420,-225,-1616,1236,2025-01-29 15:08:57,0.0
-5824,772,16188,235,-1909,1204,2025-01-29 15:08:57,0.0
-5380,1096,15624,317,-1783,1042,2025-01-29 15:08:57,0.0
-4600,1260,15692,227,-1436,690,2025-01-29 15:08:57,0.0
-4232,1644,15456,258,-743,235,2025-01-29 15:08:57,0.0
-4496,2152,15164,372,403,-206,2025-01-29 15:08:57,0.0
-6272,2372,14948,221,778,-411,2025-01-29 15:08:57,0.0
-7020,2396,15152,-246,259,-104,2025-01-29 15:08:57,0.0
-7580,2752,15844,-614,54,438,2025-01-29 15:08:57,0.0
-7588,2612,15852,-589,29,1035,2025-01-29 15:08:57,0.0
-7136,1884,15480,-561,-327,1347,2025-01-29 15:08:57,0.0
-6720,1156,15520,-482,-636,1455,2025-01-29 15:08:57,0.0
-6496,780,15348,-306,-556,1335,2025-01-29 15:08:57,0.0
-6276,356,14964,-355,-475,973,2025-01-29 15:08:57,0.0
-6196,324,14860,-549,-261,497,2025-01-29 15:08:57,0.0
-6556,492,15224,-746,-137,38,2025-01-29 15:08:57,0.0
-6808,536,15684,-594,-160,-125,2025-01-29 15:08:57,0.0
-6940,724,15712,-277,-125,-132,2025-01-29 15:08:57,0.0
-6920,972,15460,-36,-57,-111,2025-01-29 15:08:57,0.0
-6836,1448,15428,4,44,-99,2025-01-29 15:08:57,0.0
-6960,1700,15056,-63,158,-94,2025-01-29 15:08:57,0.0
-6988,1892,15152,-229,42,-85,2025-01-29 15:08:57,0.0
-6732,1916,15344,-327,-263,-65,2025-01-29 15:08:57,0.0
-6600,1644,15784,-348,-568,-38,2025-01-29 15:08:57,0.0
-6284,1412,15900,-355,-623,-59,2025-01-29 15:08:57,0.0
-6140,1268,15964,-339,-491,-154,2025-01-29 15:08:57,0.0
-5876,1072,16004,-318,-332,-223,2025-01-29 15:08:57,0.0
-5976,1204,16140,-238,-112,-273,2025-01-29 15:08:57,0.0
-5984,1196,16128,-150,28,-338,2025-01-29 15:08:57,0.0
-6064,1212,15992,-146,89,-353,2025-01-29 15:08:57,0.0
-6116,1204,16020,-183,85,-362,2025-01-29 15:08:57,0.0
-6164,1276,15984,-153,201,-372,2025-01-29 15:08:57,0.0
-6276,1384,15676,-75,359,-395,2025-01-29 15:08:57,0.0
-6428,1440,15660,-118,389,-381,2025-01-29 15:08:57,0.0
-6472,1448,15800,-119,326,-384,2025-01-29 15:08:57,0.0
-6464,1532,15696,-97,311,-355,2025-01-29 15:08:57,0.0
-6432,1532,15708,-82,299,-321,2025-01-29 15:08:57,0.0
-6568,1468,15580,-84,264,-325,2025-01-29 15:08:57,0.0
-6504,1524,15608,-130,273,-325,2025-01-29 15:08:57,0.0
-6476,1404,15732,-200,252,-312,2025-01-29 15:08:57,0.0
-6628,1376,15648,-175,221,-232,2025-01-29 15:08:57,0.0
-6584,1368,15752,-179,142,-235,2025-01-29 15:08:57,0.0
-6356,1348,15784,-182,139,-195,2025-01-29 15:08:57,0.0
-6420,1388,15904,-160,144,-204,2025-01-29 15:08:57,0.0
-6436,1220,15884,-185,110,-202,2025-01-29 15:08:57,0.0
-6280,1236,15612,-216,135,-221,2025-01-29 15:08:57,0.0
-6244,1268,15772,-227,206,-218,2025-01-29 15:08:57,0.0
-6384,1296,15884,-206,209,-198,2025-01-29 15:08:57,0.0
-6444,1340,15936,-183,152,-196,2025-01-29 15:08:57,0.0
-6408,1428,15832,-199,127,-220,2025-01-29 15:08:58,0.0
-6388,1424,15468,-276,76,-237,2025-01-29 15:08:58,0.0
-6436,1440,15692,-233,145,-245,2025-01-29 15:08:58,0.0
-6520,1456,15700,-259,222,-258,2025-01-29 15:08:58,0.0
-6328,1324,15848,-223,243,-215,2025-01-29 15:08:58,0.0
-6460,1344,15804,-219,282,-218,2025-01-29 15:08:58,0.0
-6516,1292,15696,-214,273,-178,2025-01-29 15:08:58,0.0
-6416,1192,15740,-183,230,-221,2025-01-29 15:08:58,0.0
-6340,1236,15816,-185,215,-249,2025-01-29 15:08:58,0.0
-6476,1216,15696,-207,334,-253,2025-01-29 15:08:58,0.0
-6624,1328,15660,-278,363,-249,2025-01-29 15:08:58,0.0
-6656,1220,15708,-271,247,-223,2025-01-29 15:08:58,0.0
-6552,1176,15520,-210,134,-244,2025-01-29 15:08:58,0.0
-6444,1260,15600,-228,33,-257,2025-01-29 15:08:58,0.0
-6460,1288,15536,-219,-14,-239,2025-01-29 15:08:58,0.0
-6392,1400,15556,-170,44,-229,2025-01-29 15:08:58,0.0
-6316,1216,15528,-188,95,-264,2025-01-29 15:08:58,0.0
-6336,1276,15708,-202,216,-253,2025-01-29 15:08:58,0.0
-6512,1252,15716,-198,268,-216,2025-01-29 15:08:58,0.0
-6512,1328,15692,-191,265,-167,2025-01-29 15:08:58,0.0
-6504,1316,15588,-201,164,-126,2025-01-29 15:08:58,0.0
-6364,1356,15556,-140,189,-142,2025-01-29 15:08:58,0.0
-6444,1236,15804,-141,125,-156,2025-01-29 15:08:58,0.0
-6496,1248,15804,-157,63,-156,2025-01-29 15:08:58,0.0
-6424,1224,15772,-164,106,-184,2025-01-29 15:08:58,0.0
-6568,1340,15828,-159,114,-213,2025-01-29 15:08:58,0.0
-6484,1244,15840,-166,168,-179,2025-01-29 15:08:58,0.0
-6460,1292,15648,-122,177,-206,2025-01-29 15:08:58,0.0
-6444,1204,15640,-122,192,-175,2025-01-29 15:08:58,0.0
-6508,1384,15732,-147,141,-166,2025-01-29 15:08:58,0.0
-6464,1248,15788,-148,140,-164,2025-01-29 15:08:58,0.0
-6364,1188,15868,-143,147,-208,2025-01-29 15:08:58,0.0
-6396,1292,15740,-162,137,-207,2025-01-29 15:08:58,0.0
-6348,1312,15728,-163,151,-202,2025-01-29 15:08:58,0.0
-6444,1284,15712,-162,147,-199,2025-01-29 15:08:58,
-6388,1304,15708,-150,177,-204,2025-01-29 15:08:58,0.0
-6396,1288,15732,-148,142,-241,2025-01-29 15:08:58,0.0
-6496,1260,15856,-124,131,-214,2025-01-29 15:08:58,0.0
-6504,1272,15860,-142,138,-183,2025-01-29 15:08:58,0.0
-6340,1412,15664,-121,174,-187,2025-01-29 15:08:58,0.0
-6400,1284,15708,-104,224,-162,2025-01-29 15:08:58,0.0
-6488,1224,15764,-111,269,-148,2025-01-29 15:08:58,0.0
-6508,1240,15724,-162,241,-189,2025-01-29 15:08:58,0.0
-6480,1116,15696,-179,229,-194,2025-01-29 15:08:58,0.0
-6292,1124,15692,-193,219,-189,2025-01-29 15:08:58,0.0
-6492,1188,15708,-177,215,-195,2025-01-29 15:08:58,0.0
-6444,1232,15632,-114,237,-159,2025-01-29 15:08:58,0.0
-6540,1252,15640,-135,201,-186,2025-01-29 15:08:58,0.0
-6496,1184,15772,-130,202,-199,2025-01-29 15:08:58,0.0
-6500,1196,15580,-148,186,-223,2025-01-29 15:08:58,0.0
-6488,1324,15648,-159,128,-193,2025-01-29 15:08:58,0.0
-6508,1332,15628,-161,115,-190,2025-01-29 15:08:58,0.0
-6464,1368,15732,-177,161,-220,2025-01-29 15:08:58,0.0
-6492,1336,15888,-186,212,-179,2025-01-29 15:08:58,0.0
-6460,1172,15704,-175,107,-199,2025-01-29 15:08:58,0.0
-6376,1340,15676,-181,102,-192,2025-01-29 15:08:58,0.0
-6324,1332,15848,-272,72,-179,2025-01-29 15:08:58,0.0
-6472,1272,15856,-232,174,-227,2025-01-29 15:08:58,0.0
-6540,1280,15772,-154,50,-173,2025-01-29 15:08:58,0.0
-6464,1320,15708,-136,8,-150,2025-01-29 15:08:58,0.0
-6524,1320,15736,-169,-66,-138,2025-01-29 15:08:58,0.0
-6336,1260,15696,-187,-38,-155,2025-01-29 15:08:59,0.0
-6332,1240,15760,-174,22,-179,2025-01-29 15:08:59,0.0
-6412,1192,15732,-189,140,-196,2025-01-29 15:08:59,0.0
-6408,1296,15748,-197,245,-191,2025-01-29 15:08:59,0.0
-6348,1148,15668,-171,271,-170,2025-01-29 15:08:59,0.0
-6496,1164,15548,-111,259,-225,2025-01-29 15:08:59,0.0
-6464,1204,15660,-92,308,-249,2025-01-29 15:08:59,0.0
-6520,1056,15824,-72,280,-251,2025-01-29 15:08:59,0.0
-6420,1008,15920,-67,364,-231,2025-01-29 15:08:59,0.0
-6724,1324,15732,-65,456,-192,2025-01-29 15:08:59,0.0
-6560,1236,15476,-1,677,-224,2025-01-29 15:08:59,0.0
-6832,1060,15080,66,968,-159,2025-01-29 15:08:59,0.0
-6812,1364,14884,-176,1173,-232,2025-01-29 15:08:59,0.0
-7080,1644,15324,-338,1015,-208,2025-01-29 15:08:59,0.0
-7136,1684,15556,-393,460,-10,2025-01-29 15:08:59,0.0
-6872,1688,15740,-427,19,353,2025-01-29 15:08:59,0.0
-6068,1528,15580,-418,190,508,2025-01-29 15:08:59,0.0
-5416,1216,15096,-337,877,447,2025-01-29 15:08:59,0.0
-5184,920,14900,-189,1864,236,2025-01-29 15:08:59,0.0
-5528,1076,15268,-76,2742,-50,2025-01-29 15:08:59,0.0
-6028,1116,15836,-61,2743,-250,2025-01-29 15:08:59,0.0
-6784,1252,15652,-256,2197,-449,2025-01-29 15:08:59,0.0
-7376,1404,15412,-519,1709,-436,2025-01-29 15:08:59,0.0
-7356,1280,15384,-652,1300,-343,2025-01-29 15:08:59,0.0
-6648,1464,15132,-749,1007,-328,2025-01-29 15:08:59,0.0
-5932,1500,14696,-1179,1129,-402,2025-01-29 15:08:59,0.0
-5476,1312,14764,-1298,1359,-757,2025-01-29 15:08:59,0.0
-6172,1224,15172,-1183,1378,-989,2025-01-29 15:08:59,0.0
-7008,1164,15156,-1003,1181,-998,2025-01-29 15:08:59,0.0
-7772,1048,15240,-947,703,-961,2025-01-29 15:08:59,0.0
-7800,1112,15724,-946,364,-823,2025-01-29 15:08:59,0.0
-7624,1456,15728,-1144,-17,-632,2025-01-29 15:08:59,0.0
-7160,1628,15796,-1067,-264,-325,2025-01-29 15:08:59,0.0
-6624,1516,15556,-1050,-89,-254,2025-01-29 15:08:59,0.0
-6940,1308,15156,-1232,-105,-303,2025-01-29 15:08:59,0.0
-7152,888,15516,-1264,-86,-272,2025-01-29 15:08:59,0.0
-7380,780,15744,-1071,-301,-217,2025-01-29 15:08:59,0.0
-6844,816,15724,-865,-862,-177,2025-01-29 15:08:59,0.0
-6172,1044,15644,-650,-1237,-238,2025-01-29 15:08:59,0.0
-6128,952,15320,-760,-1065,-359,2025-01-29 15:08:59,0.0
-6376,940,15404,-923,-810,-419,2025-01-29 15:08:59,0.0
-6200,816,15504,-1094,-253,-471,2025-01-29 15:08:59,0.0
-6100,992,15416,-1297,276,-448,2025-01-29 15:08:59,0.0
-6508,916,15732,-1257,490,-535,2025-01-29 15:08:59,0.0
-6436,908,15840,-1188,582,-521,2025-01-29 15:08:59,0.0
-6636,588,16240,-1107,841,-532,2025-01-29 15:08:59,0.0
-7212,452,15588,-1003,1425,-450,2025-01-29 15:08:59,0.0
-7340,252,15332,-1027,1493,-235,2025-01-29 15:08:59,0.0
-6984,132,14804,-1171,1057,-233,2025-01-29 15:08:59,0.0
-6524,44,14684,-1234,959,-423,2025-01-29 15:08:59,0.0
-6128,-40,14312,-1225,1251,-589,2025-01-29 15:08:59,0.0
-7740,-16,15596,-1057,1453,-280,2025-01-29 15:08:59,0.0
-7684,-512,17284,-459,831,141,2025-01-29 15:08:59,0.0
-7148,-740,18236,164,475,487,2025-01-29 15:08:59,0.0
-6740,-244,18548,912,234,1015,2025-01-29 15:08:59,0.0
-5464,356,17240,1449,-438,908,2025-01-29 15:08:59,0.0
-5652,1164,16252,823,-570,126,2025-01-29 15:08:59,0.0
-6952,1180,16728,-138,413,-84,2025-01-29 15:08:59,0.0
-7740,848,16848,-919,2404,163,2025-01-29 15:08:59,0.0
-7536,168,18216,-1294,3824,366,2025-01-29 15:08:59,0.0
-7792,-124,19556,-1255,3544,307,2025-01-29 15:09:00,0.0
-16248,196,21884,-1263,-352,184,2025-01-29 15:09:00,0.0
-7364,416,17652,-1312,1846,-162,2025-01-29 15:09:00,0.0
-8748,1020,18480,-1247,1762,-114,2025-01-29 15:09:00,0.0
-8028,1204,17592,-1058,1959,-38,2025-01-29 15:09:00,0.0
-8256,1052,16448,-685,3523,1,2025-01-29 15:09:00,0.0
-8968,1048,15588,-545,5039,-5,2025-01-29 15:09:00,0.0
-8924,1004,15524,-435,6061,-34,2025-01-29 15:09:00,0.0
-8656,1032,15532,-302,6403,-199,2025-01-29 15:09:00,0.0
-9380,1180,16112,-91,6333,-78,2025-01-29 15:09:00,0.0
-9280,448,15980,65,6229,-48,2025-01-29 15:09:00,0.0
-8740,376,15200,244,6544,-218,2025-01-29 15:09:00,0.0
-8824,12,14656,493,7044,-425,2025-01-29 15:09:00,0.0
-9580,-192,14464,603,7097,-449,2025-01-29 15:09:00,
-9168,-172,14120,469,6848,-600,2025-01-29 15:09:00,0.0
-9544,832,14180,466,6285,-646,2025-01-29 15:09:00,0.0
-8448,908,12572,556,6532,-511,2025-01-29 15:09:00,0.0
-9284,-16,12480,583,7169,-453,2025-01-29 15:09:00,0.0
-9864,116,13148,535,7364,-451,2025-01-29 15:09:00,0.0
-10772,140,14152,692,6824,-217,2025-01-29 15:09:00,0.0
-10788,484,13544,669,6114,-26,2025-01-29 15:09:00,0.0
-11180,588,12780,376,5702,-140,2025-01-29 15:09:00,0.0
-10232,688,10652,-452,5836,-487,2025-01-29 15:09:00,0.0
-10988,1372,10804,-896,7166,-426,2025-01-29 15:09:00,0.0
-11044,1468,10964,-890,8621,-129,2025-01-29 15:09:00,0.0
-11380,1192,11732,-1048,8522,425,2025-01-29 15:09:00,0.0
-11756,816,11956,-1125,8427,252,2025-01-29 15:09:00,0.0
-11376,932,12216,-1154,7918,309,2025-01-29 15:09:00,0.0
-11156,1016,11480,-1270,7685,-17,2025-01-29 15:09:00,0.0
-11036,916,10572,-1559,7668,-161,2025-01-29 15:09:00,0.0
-11008,1000,9760,-1729,8831,-221,2025-01-29 15:09:00,0.0
-10940,980,10068,-1562,10573,-500,2025-01-29 15:09:00,0.0
-11096,876,9340,-1254,11751,-659,2025-01-29 15:09:00,0.0
-10840,640,9560,-977,11720,-662,2025-01-29 15:09:00,0.0
-11276,1020,9572,-813,10644,-487,2025-01-29 15:09:00,0.0
-11980,1172,9120,-877,9491,-166,2025-01-29 15:09:00,0.0
-12104,1092,9240,-885,8882,117,2025-01-29 15:09:00,0.0
-11380,928,9264,-647,8901,54,2025-01-29 15:09:00,0.0
-11588,672,8984,-477,9309,-173,2025-01-29 15:09:00,0.0
-11832,588,8420,-461,9558,-477,2025-01-29 15:09:00,0.0
-12740,1012,8240,-390,10027,-824,2025-01-29 15:09:00,0.0
-13632,1224,7356,-279,10664,-920,2025-01-29 15:09:00,0.0
-15436,1512,6764,-305,10423,-783,2025-01-29 15:09:00,0.0
-14280,1220,6024,-304,9562,-344,2025-01-29 15:09:00,0.0
-14188,1692,5204,-651,9958,304,2025-01-29 15:09:00,0.0
-11376,980,6200,-1003,9875,51,2025-01-29 15:09:00,0.0
-11208,668,6140,-934,9254,-886,2025-01-29 15:09:00,0.0
-12656,208,5676,-277,9193,-1247,2025-01-29 15:09:00,0.0
-12884,-652,6712,633,9028,-919,2025-01-29 15:09:00,0.0
-13060,-320,5488,1057,8390,-752,2025-01-29 15:09:00,0.0
-12248,-368,5288,1293,7073,-783,2025-01-29 15:09:00,0.0
-12352,-120,5468,1487,5506,-843,2025-01-29 15:09:00,0.0
-12156,28,5004,1653,4114,-1098,2025-01-29 15:09:00,0.0
-12192,184,4380,1613,3010,-1351,2025-01-29 15:09:00,0.0
-12008,32,4244,1458,2491,-1787,2025-01-29 15:09:00,0.0
-11768,-40,3348,1116,1473,-2341,2025-01-29 15:09:00,0.0
-12124,756,2964,424,-306,-2724,2025-01-29 15:09:00,0.0
-11956,1592,2992,-216,-2058,-2567,2025-01-29 15:09:00,0.0
-11540,1984,2752,-613,-3091,-2345,2025-01-29 15:09:00,0.0
-11980,2116,2460,-830,-3195,-2070,2025-01-29 15:09:00,0.0
-12452,1920,1364,-1069,-1855,-1675,2025-01-29 15:09:00,0.0
-13060,1400,724,-1316,76,-1182,2025-01-29 15:09:01,0.0
-12924,240,-80,-1512,2098,-918,2025-01-29 15:09:01,0.0
-12256,-556,-304,-1609,3141,-1385,2025-01-29 15:09:01,0.0
-11788,-1612,624,-1684,3042,-2257,2025-01-29 15:09:01,0.0
-12220,-2492,1360,-1723,2692,-3073,2025-01-29 15:09:01,0.0
-13096,-3424,1736,-1379,2958,-3545,2025-01-29 15:09:01,0.0
-14252,-4488,1356,-1050,4311,-3810,2025-01-29 15:09:01,0.0
-14452,-3416,2668,-502,4407,-3477,2025-01-29 15:09:01,0.0
-14020,-1576,4036,-10,2077,-2593,2025-01-29 15:09:01,0.0
-12472,-172,3828,74,-1786,-1845,2025-01-29 15:09:01,0.0
-11684,-356,3192,-457,-4048,-1533,2025-01-29 15:09:01,0.0
-11060,-1444,1912,-1099,-3935,-1669,2025-01-29 15:09:01,0.0
-10936,-2632,1004,-1827,-2181,-1927,2025-01-29 15:09:01,0.0
-11260,-3948,904,-1903,437,-2266,2025-01-29 15:09:01,0.0
-11596,-4500,2136,-1391,3025,-2529,2025-01-29 15:09:01,0.0
-12048,-4508,4076,-388,5325,-2666,2025-01-29 15:09:01,0.0
-13040,-4264,4436,463,6598,-2461,2025-01-29 15:09:01,0.0
-13964,-3780,4072,935,5963,-2022,2025-01-29 15:09:01,0.0
-14432,-3156,3536,1088,3856,-1590,2025-01-29 15:09:01,0.0
-15168,-2576,3872,1063,1223,-982,2025-01-29 15:09:01,0.0
-14288,-2148,4044,1043,-1281,-296,2025-01-29 15:09:01,0.0
-13432,-1932,4076,975,-2811,322,2025-01-29 15:09:01,0.0
-12268,-2576,3372,780,-3524,678,2025-01-29 15:09:01,0.0
-11908,-2764,2720,603,-3608,969,2025-01-29 15:09:01,0.0
-11404,-2596,2560,448,-2624,1372,2025-01-29 15:09:01,0.0
-10700,-2060,2764,379,-359,1632,2025-01-29 15:09:01,0.0
-10492,-1620,2304,-234,3018,1514,2025-01-29 15:09:01,0.0
-11320,-1624,1800,-1077,5443,1142,2025-01-29 15:09:01,0.0
-12812,-1032,2328,-1940,7174,1056,2025-01-29 15:09:01,0.0
-13992,-728,3072,-2489,8900,1181,2025-01-29 15:09:01,0.0
-15392,-856,3464,-3154,10324,1469,2025-01-29 15:09:01,0.0
-15476,-2148,3528,-3954,9936,1037,2025-01-29 15:09:01,0.0
-15416,-2784,4232,-4569,7553,258,2025-01-29 15:09:01,0.0
-17072,-3344,3956,-4920,5248,-641,2025-01-29 15:09:01,0.0
-18440,-3644,2904,-4848,4107,-1402,2025-01-29 15:09:01,0.0
-18320,-4692,1144,-4362,4238,-2416,2025-01-29 15:09:01,0.0
-18000,-6048,1812,-3825,2732,-3707,2025-01-29 15:09:01,0.0
-17912,-6932,3984,-2829,-337,-3939,2025-01-29 15:09:01,0.0
-18100,-7116,6088,-1393,-3650,-2609,2025-01-29 15:09:01,0.0
-17900,-5964,7100,22,-5922,-646,2025-01-29 15:09:01,0.0
-16412,-3232,7088,974,-7411,1225,2025-01-29 15:09:01,0.0
-14856,-752,3472,661,-8479,2558,2025-01-29 15:09:01,0.0
-14500,616,-576,-454,-9017,3824,2025-01-29 15:09:01,0.0
-13588,-272,-3000,-1049,-7673,4355,2025-01-29 15:09:01,0.0
-12044,-1440,-3944,-837,-4560,3297,2025-01-29 15:09:01,0.0
-11672,-2120,-3252,-198,-734,1572,2025-01-29 15:09:01,0.0
-12508,-2196,-1140,992,1365,639,2025-01-29 15:09:01,0.0
-13012,-1256,-384,2142,1631,1036,2025-01-29 15:09:01,0.0
-13176,100,-996,2344,1723,1994,2025-01-29 15:09:01,0.0
-13172,1336,-820,1736,2638,2765,2025-01-29 15:09:01,0.0
-15020,1920,-100,1693,3753,3398,2025-01-29 15:09:01,0.0
-15920,800,-760,2218,4024,3941,2025-01-29 15:09:01,0.0
-15820,-128,-932,2558,3231,4337,2025-01-29 15:09:01,
-14668,-408,44,2595,1569,4437,2025-01-29 15:09:01,0.0
-13456,-320,864,2746,-682,3856,2025-01-29 15:09:01,0.0
-13076,-172,340,2883,-3048,3260,2025-01-29 15:09:01,0.0
-12572,344,-304,2933,-4232,2948,2025-01-29 15:09:01,0.0
-11948,1124,-440,2838,-3990,2597,2025-01-29 15:09:01,0.0
-11672,1636,-724,2636,-2812,2222,2025-01-29 15:09:01,0.0
-11516,2072,-540,2211,-865,1805,2025-01-29 15:09:01,0.0
-11908,2216,-44,2033,1509,1001,2025-01-29 15:09:01,0.0
-12708,1864,76,1866,2159,755,2025-01-29 15:09:02,0.0
-12836,1484,980,1669,1713,709,2025-01-29 15:09:02,0.0
-12688,988,1788,1474,547,650,2025-01-29 15:09:02,0.0
-12096,564,2280,1252,-1020,358,2025-01-29 15:09:02,0.0
-11204,52,2412,935,-2348,-355,2025-01-29 15:09:02,0.0
-10652,-336,2680,732,-3053,-1138,2025-01-29 15:09:02,0.0
-10712,-528,2952,886,-2621,-1857,2025-01-29 15:09:02,0.0
-11548,-548,3012,1735,-637,-2138,2025-01-29 15:09:02,0.0
-12172,-216,2864,2588,981,-2258,2025-01-29 15:09:02,0.0
-12644,548,2292,3217,1350,-2234,2025-01-29 15:09:02,0.0
-12820,1192,1940,3345,918,-2194,2025-01-29 15:09:02,0.0
-13044,1812,1980,3288,818,-2210,2025-01-29 15:09:02,0.0
-13912,1656,2752,3227,1552,-2196,2025-01-29 15:09:02,0.0
-15100,1220,2964,3114,2510,-2084,2025-01-29 15:09:02,0.0
-16140,672,2972,3074,2956,-1653,2025-01-29 15:09:02,0.0
-16404,272,3240,3484,1930,-867,2025-01-29 15:09:02,0.0
-15948,332,3908,3837,-328,-12,2025-01-29 15:09:02,0.0
-14376,68,4692,4026,-2836,363,2025-01-29 15:09:02,0.0
-14332,128,4376,4191,-2828,192,2025-01-29 15:09:02,0.0
-15024,408,3224,4473,-358,20,2025-01-29 15:09:02,0.0
-15508,92,1880,4673,2799,-229,2025-01-29 15:09:02,0.0
-16320,384,552,4674,4551,-202,2025-01-29 15:09:02,0.0
-16536,804,-680,4289,5198,-44,2025-01-29 15:09:02,0.0
-17040,1444,-2056,3213,6147,-502,2025-01-29 15:09:02,0.0
-18524,3116,-3588,1518,7012,-563,2025-01-29 15:09:02,0.0
-18652,4448,-3840,42,6347,491,2025-01-29 15:09:02,0.0
-15736,3272,-2508,-925,2834,726,2025-01-29 15:09:02,0.0
-13248,-400,-788,-1687,-1990,-627,2025-01-29 15:09:02,0.0
-12372,-2664,1084,-1822,-6183,-2153,2025-01-29 15:09:02,0.0
-12672,-3688,1052,-1294,-8325,-3049,2025-01-29 15:09:02,0.0
-12836,-3932,-100,-484,-8022,-3075,2025-01-29 15:09:02,0.0
-12588,-3100,-664,496,-5759,-2509,2025-01-29 15:09:02,0.0
-11980,-1132,-644,1702,-2017,-1568,2025-01-29 15:09:02,0.0
-11824,708,-972,1732,1522,-702,2025-01-29 15:09:02,0.0
-11396,1468,-2036,444,4157,-406,2025-01-29 15:09:02,0.0
-12140,1100,-2440,-1185,5798,-880,2025-01-29 15:09:02,0.0
-13696,192,-1988,-2293,5823,-1435,2025-01-29 15:09:02,0.0
-14392,-688,-1556,-3064,4099,-1691,2025-01-29 15:09:02,0.0
-14836,-1420,-776,-3444,803,-1511,2025-01-29 15:09:02,0.0
-14276,-1520,-796,-3884,-3058,-1039,2025-01-29 15:09:02,0.0
-13000,-1264,-664,-4438,-5405,-557,2025-01-29 15:09:02,0.0
-11932,-1080,-1088,-5296,-5419,-505,2025-01-29 15:09:02,0.0
-10972,-584,-1096,-6040,-4094,-480,2025-01-29 15:09:02,0.0
-10912,-48,-608,-6794,-1482,-307,2025-01-29 15:09:02,0.0
-11292,-236,-248,-7431,805,66,2025-01-29 15:09:02,0.0
-12264,-924,-456,-7898,2438,484,2025-01-29 15:09:02,0.0
-13208,-1260,-424,-8519,3287,641,2025-01-29 15:09:02,0.0
-14392,-932,-144,-9172,3122,868,2025-01-29 15:09:02,0.0
-15024,-128,280,-9663,1830,1430,2025-01-29 15:09:02,0.0
-14828,544,32,-10294,-65,2059,2025-01-29 15:09:02,0.0
-14104,996,-412,-11314,-1763,2435,2025-01-29 15:09:02,0.0
-13260,1236,-912,-12302,-2387,2725,2025-01-29 15:09:02,0.0
-12628,1124,-1480,-13421,-1646,2625,2025-01-29 15:09:02,0.0
-12228,812,-1756,-14571,21,2095,2025-01-29 15:09:02,0.0
-12168,732,-2488,-15899,2049,1352,2025-01-29 15:09:02,0.0
-12788,932,-2560,-17293,3498,590,2025-01-29 15:09:02,0.0
-12964,432,-1860,-18790,3689,127,2025-01-29 15:09:02,0.0
-12792,-936,-1124,-19633,3711,-416,2025-01-29 15:09:02,0.0
-13376,-2296,-704,-19771,4065,-1005,2025-01-29 15:09:02,0.0
-14056,-3600,-896,-19643,4489,-1441,2025-01-29 15:09:02,0.0
-14368,-4332,-1044,-19784,4683,-2176,2025-01-29 15:09:03,0.0
-15792,-4224,-36,-20142,5202,-3290,2025-01-29 15:09:03,0.0
-17580,-3656,752,-20775,5627,-4351,2025-01-29 15:09:03,0.0
-19348,-2436,1340,-21255,4099,-4483,2025-01-29 15:09:03,0.0
-19728,-1544,332,-21255,525,-3935,2025-01-29 15:09:03,0.0
-19412,-528,-1056,-21246,-5033,-2884,2025-01-29 15:09:03,0.0
-18532,148,-1504,-21397,-10575,-1245,2025-01-29 15:09:03,0.0
-16528,472,-1132,-21283,-14669,1365,2025-01-29 15:09:03,0.0
-13200,-32,-2100,-20510,-14444,4219,2025-01-29 15:09:03,0.0
-10276,-908,-4124,-19936,-10728,4767,2025-01-29 15:09:03,0.0
-8712,-1456,-6316,-20406,-3706,3333,2025-01-29 15:09:03,0.0
-8552,-2652,-6116,-21218,3776,1622,2025-01-29 15:09:03,0.0
-9084,-3020,-3480,-20708,10267,125,2025-01-29 15:09:03,0.0
-10552,-1708,-424,-19076,14990,-1099,2025-01-29 15:09:03,0.0
-10784,-160,-192,-17844,17094,-1736,2025-01-29 15:09:03,0.0
-10464,428,-564,-17623,16003,-3057,2025-01-29 15:09:03,0.0
-11796,784,-1836,-17667,12876,-4515,2025-01-29 15:09:03,0.0
-13172,608,-2720,-18246,9492,-5263,2025-01-29 15:09:03,0.0
-14472,544,-2712,-18849,7826,-5440,2025-01-29 15:09:03,0.0
-16384,1168,-1532,-18966,7391,-5397,2025-01-29 15:09:03,0.0
-16804,1232,-1600,-19130,6625,-4892,2025-01-29 15:09:03,0.0
-16912,2068,-616,-19191,4474,-4122,2025-01-29 15:09:03,0.0
-16492,3500,-1280,-19214,800,-3543,2025-01-29 15:09:03,0.0
-14700,4076,-3360,-20531,-3448,-3078,2025-01-29 15:09:03,0.0
-13524,3356,-4300,-22133,-5319,-3503,2025-01-29 15:09:03,0.0
-12452,2256,-4232,-23638,-5580,-4137,2025-01-29 15:09:03,0.0
-11852,1128,-3560,-24506,-4450,-4524,2025-01-29 15:09:03,0.0
-11936,-240,-2960,-24729,-2571,-4381,2025-01-29 15:09:03,0.0
-11768,-1356,-2036,-24383,-781,-4197,2025-01-29 15:09:03,0.0
-12012,-1652,-1624,-23628,560,-4184,2025-01-29 15:09:03,0.0
-12808,-984,-1860,-22969,1256,-4259,2025-01-29 15:09:03,0.0
-12984,-312,-2700,-22594,1159,-4208,2025-01-29 15:09:03,
-13716,408,-2508,-22281,509,-4134,2025-01-29 15:09:03,0.0
-13496,296,-2656,-22302,-116,-4102,2025-01-29 15:09:03,0.0
-13128,224,-2716,-22427,-478,-4256,2025-01-29 15:09:03,0.0
-13172,-196,-2856,-22482,-521,-4346,2025-01-29 15:09:03,0.0
-13148,-480,-3084,-22410,-196,-4369,2025-01-29 15:09:03,0.0
-13356,-648,-3144,-22239,498,-4519,2025-01-29 15:09:03,0.0
-13584,-492,-3084,-22213,1109,-4649,2025-01-29 15:09:03,0.0
-13920,-688,-2660,-22275,1243,-4821,2025-01-29 15:09:03,0.0
-14012,-1132,-2220,-22039,705,-4863,2025-01-29 15:09:03,0.0
-14044,-1556,-2072,-21727,-8,-4667,2025-01-29 15:09:03,0.0
-13828,-1728,-2476,-21402,-631,-4550,2025-01-29 15:09:03,0.0
-13732,-1452,-2668,-20984,-683,-4332,2025-01-29 15:09:03,0.0
-13336,-1556,-3016,-20592,-320,-4247,2025-01-29 15:09:03,0.0
-12868,-2104,-2712,-20091,277,-4298,2025-01-29 15:09:03,0.0
-12764,-2448,-2184,-19298,586,-4290,2025-01-29 15:09:03,0.0
-12976,-3080,-1620,-18082,741,-4101,2025-01-29 15:09:03,0.0
-13472,-3668,-904,-16423,970,-3877,2025-01-29 15:09:03,0.0
-13932,-3988,-352,-15057,965,-3765,2025-01-29 15:09:03,0.0
-14384,-4052,312,-13640,739,-3728,2025-01-29 15:09:03,0.0
-15384,-3344,412,-11733,263,-3226,2025-01-29 15:09:03,0.0
-15156,-2732,-112,-10261,-749,-2455,2025-01-29 15:09:03,0.0
-14392,-2608,48,-8887,-1817,-1926,2025-01-29 15:09:03,0.0
-14140,-2568,332,-7879,-1576,-1577,2025-01-29 15:09:03,0.0
-13988,-2972,288,-7162,-369,-1366,2025-01-29 15:09:03,0.0
-14252,-2840,-524,-6685,998,-933,2025-01-29 15:09:03,0.0
-13708,-1944,-1992,-6021,859,-371,2025-01-29 15:09:03,0.0
-12444,-208,-2728,-4996,-438,-455,2025-01-29 15:09:03,0.0
-11776,760,-2184,-5117,4,-1074,2025-01-29 15:09:03,0.0
-11984,492,-664,-5919,2026,-2201,2025-01-29 15:09:03,0.0
-13480,-44,-360,-6903,3663,-3224,2025-01-29 15:09:04,0.0
-15156,-492,-732,-7564,3182,-3561,2025-01-29 15:09:04,0.0
-15980,-1304,-980,-7862,1174,-3037,2025-01-29 15:09:04,0.0
-14408,-2576,-632,-7516,-1577,-2359,2025-01-29 15:09:04,0.0
-12848,-3140,-328,-7164,-2899,-2317,2025-01-29 15:09:04,0.0
-12016,-3256,-736,-6728,-2611,-2270,2025-01-29 15:09:04,0.0
-11812,-3604,-1428,-6277,-1257,-2220,2025-01-29 15:09:04,0.0
-12528,-4124,-1280,-5805,401,-2042,2025-01-29 15:09:04,0.0
-12636,-4280,-532,-5169,2052,-2021,2025-01-29 15:09:04,0.0
-13288,-4324,-8,-4697,2870,-2420,2025-01-29 15:09:04,0.0
-14012,-3560,320,-4495,2421,-2743,2025-01-29 15:09:04,0.0
-14772,-2348,184,-4285,676,-2665,2025-01-29 15:09:04,0.0
-15092,-1396,-656,-4170,-1874,-2046,2025-01-29 15:09:04,0.0
-14200,-944,-1168,-4215,-3600,-1253,2025-01-29 15:09:04,0.0
-13164,-972,-1644,-4358,-3884,-702,2025-01-29 15:09:04,0.0
-12148,-1592,-1868,-4536,-2903,-485,2025-01-29 15:09:04,0.0
-12104,-2228,-1656,-4856,-1142,-577,2025-01-29 15:09:04,0.0
-12672,-2560,-1120,-5001,1144,-717,2025-01-29 15:09:04,0.0
-13632,-2980,-448,-4862,2779,-684,2025-01-29 15:09:04,0.0
-14624,-3228,348,-4313,3629,-437,2025-01-29 15:09:04,0.0
-15212,-3148,1296,-3496,3506,67,2025-01-29 15:09:04,0.0
-15132,-2932,1680,-2669,1662,649,2025-01-29 15:09:04,0.0
-14740,-2468,1584,-1689,-1955,1243,2025-01-29 15:09:04,0.0
-14160,-2308,596,-1053,-4318,1866,2025-01-29 15:09:04,0.0
-13692,-1968,-608,-536,-4426,2381,2025-01-29 15:09:04,0.0
-13092,-1592,-1816,43,-2906,2538,2025-01-29 15:09:04,0.0
-12716,-1432,-2404,342,-407,1916,2025-01-29 15:09:04,0.0
-13064,-1372,-1844,458,1694,1049,2025-01-29 15:09:04,0.0
-14336,-1284,-472,478,2234,685,2025-01-29 15:09:04,0.0
-15184,-1036,-280,837,1183,833,2025-01-29 15:09:04,0.0
-15444,-692,-968,1134,-1148,955,2025-01-29 15:09:04,0.0
-15056,-204,-1872,792,-3820,1012,2025-01-29 15:09:04,0.0
-14268,-156,-1644,211,-5331,921,2025-01-29 15:09:04,0.0
-13712,288,-1204,-10,-5631,1032,2025-01-29 15:09:04,0.0
-12800,112,-1172,-164,-5323,1040,2025-01-29 15:09:04,0.0
-12208,-104,-1116,-577,-4422,745,2025-01-29 15:09:04,0.0
-12008,-184,-1176,-879,-2927,299,2025-01-29 15:09:04,0.0
-12316,-96,-988,-961,-1030,45,2025-01-29 15:09:04,0.0
-12612,-228,-924,-1117,860,-83,2025-01-29 15:09:04,0.0
-13004,-376,-416,-1279,1796,-170,2025-01-29 15:09:04,0.0
-13416,-460,508,-1286,2067,-207,2025-01-29 15:09:04,0.0
-13952,-480,324,-1273,1523,-219,2025-01-29 15:09:04,0.0
-14072,-400,-184,-1299,344,-168,2025-01-29 15:09:04,0.0
-14068,-592,-64,-1338,-534,-139,2025-01-29 15:09:04,0.0
-13892,-544,-276,-1226,-280,-127,2025-01-29 15:09:04,0.0
-13588,-672,-464,-1127,164,-138,2025-01-29 15:09:04,0.0
-13504,-780,-328,-1097,302,-175,2025-01-29 15:09:04,0.0
-13592,-684,164,-992,378,-181,2025-01-29 15:09:04,0.0
-13592,-620,32,-786,474,-224,2025-01-29 15:09:04,0.0
-14028,-528,124,-655,529,-297,2025-01-29 15:09:04,0.0
-14012,-488,204,-635,347,-299,2025-01-29 15:09:04,0.0
-13944,-424,236,-569,270,-262,2025-01-29 15:09:04,0.0
-13904,-456,208,-533,37,-163,2025-01-29 15:09:04,0.0
-13764,-428,-172,-483,-186,-163,2025-01-29 15:09:04,0.0
-13512,-224,-240,-459,-88,-169,2025-01-29 15:09:04,0.0
-13464,-272,4,-515,289,-243,2025-01-29 15:09:04,0.0
-13748,-320,-364,-549,480,-309,2025-01-29 15:09:04,0.0
-14044,-464,-328,-526,232,-244,2025-01-29 15:09:04,0.0
-13784,-512,-204,-484,35,-168,2025-01-29 15:09:04,0.0
-13732,-604,-88,-399,26,-141,2025-01-29 15:09:04,0.0
-13820,-560,-68,-384,-62,-137,2025-01-29 15:09:05,0.0
-13692,-416,-124,-398,-106,-100,2025-01-29 15:09:05,0.0
-13692,-520,-64,-428,-26,-119,2025-01-29 15:09:05,0.0
-13672,-500,-20,-341,187,-144,2025-01-29 15:09:05,0.0
-13712,-580,-28,-260,311,-134,2025-01-29 15:09:05,0.0
-13788,-656,-224,-203,282,-160,2025-01-29 15:09:05,0.0
-13844,-656,36,-166,152,-139,2025-01-29 15:09:05,0.0
-13904,-672,148,-26,3,-135,2025-01-29 15:09:05,0.0
-13832,-600,-116,47,-144,-78,2025-01-29 15:09:05,0.0
-13752,-616,-144,-4,-236,-85,2025-01-29 15:09:05,0.0
-13668,-408,-284,15,-190,-145,2025-01-29 15:09:05,
-13656,-412,-320,-42,-52,-124,2025-01-29 15:09:05,0.0
-13628,-332,-168,-71,-54,-161,2025-01-29 15:09:05,0.0
-13648,-452,-324,-88,44,-148,2025-01-29 15:09:05,0.0
-13612,-492,-136,-113,94,-116,2025-01-29 15:09:05,0.0
-13652,-572,-164,-157,146,-145,2025-01-29 15:09:05,0.0
-13680,-592,-200,-163,153,-158,2025-01-29 15:09:05,0.0
-13784,-528,-328,-183,168,-151,2025-01-29 15:09:05,0.0
-13736,-488,-200,-191,140,-153,2025-01-29 15:09:05,0.0
-13680,-532,-120,-231,125,-166,2025-01-29 15:09:05,0.0
-13660,-612,-244,-207,88,-181,2025-01-29 15:09:05,0.0
-13680,-508,-196,-177,95,-184,2025-01-29 15:09:05,0.0
-13624,-540,-228,-229,139,-287,2025-01-29 15:09:05,0.0
-13652,-548,-288,-240,273,-294,2025-01-29 15:09:05,0.0
-13724,-560,-240,-196,358,-267,2025-01-29 15:09:05,0.0
-13668,-528,-304,-217,268,-243,2025-01-29 15:09:05,0.0
-13804,-580,-104,-209,288,-201,2025-01-29 15:09:05,0.0
-13876,-524,-188,-213,255,-185,2025-01-29 15:09:05,0.0
-13792,-632,-168,-172,178,-138,2025-01-29 15:09:05,0.0
-13872,-612,-112,-156,175,-127,2025-01-29 15:09:05,0.0
-13816,-680,-32,-106,139,-149,2025-01-29 15:09:05,0.0
-13676,-528,-252,-17,178,-210,2025-01-29 15:09:05,0.0
-13728,-488,-192,49,165,-158,2025-01-29 15:09:05,0.0
-13608,-368,-268,-13,260,-147,2025-01-29 15:09:05,0.0
-13616,-360,-152,-68,392,-176,2025-01-29 15:09:05,0.0
-13716,-368,-100,-77,516,-197,2025-01-29 15:09:05,0.0
-13896,-512,-508,-119,258,-200,2025-01-29 15:09:05,0.0
-13888,-556,-176,-99,142,-174,2025-01-29 15:09:05,0.0
-13628,-488,-88,-36,256,-136,2025-01-29 15:09:05,0.0
-13644,-560,-128,-36,263,-152,2025-01-29 15:09:05,0.0
-13700,-352,60,-100,263,-189,2025-01-29 15:09:05,0.0
-13832,-416,-136,-63,297,-165,2025-01-29 15:09:05,0.0
-13672,-444,-120,-62,339,-190,2025-01-29 15:09:05,0.0
-13636,-396,-164,-78,336,-207,2025-01-29 15:09:05,0.0
-13616,-372,-112,-73,434,-240,2025-01-29 15:09:05,0.0
-13672,-348,20,-85,474,-277,2025-01-29 15:09:05,0.0
-13708,-344,-228,-116,471,-268,2025-01-29 15:09:05,0.0
-13820,-284,-360,-103,350,-268,2025-01-29 15:09:05,0.0
-13844,-276,-272,-150,307,-280,2025-01-29 15:09:05,0.0
-13848,-292,-196,-136,290,-279,2025-01-29 15:09:05,0.0
-13840,-208,-168,-200,329,-250,2025-01-29 15:09:05,0.0
-13908,-96,-208,-225,274,-242,2025-01-29 15:09:05,0.0
-13884,-200,-476,-278,259,-246,2025-01-29 15:09:05,0.0
-13840,-192,-304,-272,270,-288,2025-01-29 15:09:05,0.0
-13992,-108,-120,-227,266,-265,2025-01-29 15:09:05,0.0
-13896,-44,-296,-208,112,-237,2025-01-29 15:09:05,0.0
-13724,-40,-112,-280,-19,-306,2025-01-29 15:09:05,0.0
-13656,168,-80,-277,24,-297,2025-01-29 15:09:05,0.0
-13656,180,16,-173,117,-279,2025-01-29 15:09:05,0.0
-13496,-128,68,-72,293,-305,2025-01-29 15:09:06,0.0
-13384,-636,248,82,513,-482,2025-01-29 15:09:06,0.0
-13420,-872,660,417,941,-591,2025-01-29 15:09:06,0.0
-13564,-744,-20,833,1270,-547,2025-01-29 15:09:06,0.0
-13456,-600,-208,984,1339,-511,2025-01-29 15:09:06,0.0
-13336,-744,-192,1081,1181,-603,2025-01-29 15:09:06,0.0
-13448,-1128,-316,1371,796,-629,2025-01-29 15:09:06,0.0
-13508,-1256,-320,1852,581,-639,2025-01-29 15:09:06,0.0
-13380,-1224,-396,2215,757,-561,2025-01-29 15:09:06,0.0
-13480,-1024,-392,2523,1077,-558,2025-01-29 15:09:06,0.0
-13560,-692,-392,2587,1124,-513,2025-01-29 15:09:06,0.0
-14036,-304,-524,2505,1194,-474,2025-01-29 15:09:06,0.0
-14412,248,-1120,2438,1208,-445,2025-01-29 15:09:06,0.0
-14200,440,-1400,2100,705,-565,2025-01-29 15:09:06,0.0
-13884,108,-644,1756,-151,-756,2025-01-29 15:09:06,0.0
-13944,92,148,1644,-589,-806,2025-01-29 15:09:06,0.0
-13828,112,292,1404,-736,-610,2025-01-29 15:09:06,0.0
-13420,-220,184,1145,-946,-649,2025-01-29 15:09:06,0.0
-12824,-704,-108,735,-1024,-835,2025-01-29 15:09:06,0.0
-12688,-1060,328,87,-25,-1187,2025-01-29 15:09:06,0.0
-12984,-1232,656,-748,1687,-1532,2025-01-29 15:09:06,0.0
-13572,-1120,1256,-1249,2675,-1582,2025-01-29 15:09:06,0.0
-13632,-1276,2064,-1558,2747,-1727,2025-01-29 15:09:06,0.0
-13800,-2064,2300,-1692,2035,-1926,2025-01-29 15:09:06,0.0
-13880,-2736,2396,-1680,1114,-2107,2025-01-29 15:09:06,0.0
-14076,-3232,2272,-1253,505,-2241,2025-01-29 15:09:06,0.0
-14204,-3100,1744,-793,426,-2250,2025-01-29 15:09:06,0.0
-14340,-2552,1348,-542,449,-2329,2025-01-29 15:09:06,0.0
-14244,-1828,1432,-685,-148,-2142,2025-01-29 15:09:06,0.0
-13984,-1604,1932,-826,-1247,-1806,2025-01-29 15:09:06,0.0
-13756,-1776,2220,-900,-2430,-1420,2025-01-29 15:09:06,0.0
-13264,-2040,2508,-919,-3217,-1096,2025-01-29 15:09:06,0.0
-13120,-2000,2676,-915,-3272,-773,2025-01-29 15:09:06,0.0
-12992,-1836,2616,-828,-2661,-362,2025-01-29 15:09:06,0.0
-12716,-1792,2312,-778,-1786,92,2025-01-29 15:09:06,0.0
-12668,-1792,2076,-777,-876,537,2025-01-29 15:09:06,0.0
-12376,-2000,1780,-746,285,809,2025-01-29 15:09:06,0.0
-12564,-2076,1084,-971,1398,809,2025-01-29 15:09:06,0.0
-12800,-2024,1044,-1478,2173,462,2025-01-29 15:09:06,0.0
-13556,-1884,1516,-1920,2536,87,2025-01-29 15:09:06,0.0
-14636,-864,1144,-2135,2266,51,2025-01-29 15:09:06,0.0
-15184,-376,400,-2685,1521,170,2025-01-29 15:09:06,0.0
-14916,-1572,856,-3516,776,-261,2025-01-29 15:09:06,0.0
-15064,-2936,2256,-4102,239,-768,2025-01-29 15:09:06,0.0
-15172,-3728,3352,-4162,-516,-993,2025-01-29 15:09:06,0.0
-14936,-3532,3604,-3970,-1530,-1065,2025-01-29 15:09:06,0.0
-14828,-2956,1692,-4006,-1821,-1558,2025-01-29 15:09:06,0.0
-15056,-2036,-264,-4901,-1701,-2530,2025-01-29 15:09:06,0.0
-14992,-2924,172,-5694,-1214,-3945,2025-01-29 15:09:06,0.0
-15608,-4056,1384,-5387,-1038,-5266,2025-01-29 15:09:06,0.0
-17844,-5172,2260,-4420,-1191,-5058,2025-01-29 15:09:06,0.0
-19580,-5624,2748,-2961,-2190,-3207,2025-01-29 15:09:06,
-18128,-3456,3052,401,-5754,1507,2025-01-29 15:09:06,0.0
-16100,-2340,1104,1605,-6736,2973,2025-01-29 15:09:06,0.0
-13800,-2228,-1712,1528,-6429,3922,2025-01-29 15:09:06,0.0
-11716,-2060,-2968,793,-4494,3481,2025-01-29 15:09:06,0.0
-11368,-1748,-3572,208,-1734,2326,2025-01-29 15:09:06,0.0
-11796,-1456,-2964,400,651,1406,2025-01-29 15:09:06,0.0
-12488,-900,-1860,1069,2307,949,2025-01-29 15:09:06,0.0
-13100,840,-944,1097,2381,1123,2025-01-29 15:09:06,0.0
-13660,2204,-540,317,1707,1679,2025-01-29 15:09:06,0.0
-14336,2040,-784,-259,1310,2446,2025-01-29 15:09:07,0.0
-14956,972,-1600,-416,1343,3389,2025-01-29 15:09:07,0.0
-14020,-344,-1784,-697,1610,3526,2025-01-29 15:09:07,0.0
-13480,-1020,-716,-749,1707,2956,2025-01-29 15:09:07,0.0
-13448,-1288,520,-368,1224,2719,2025-01-29 15:09:07,0.0
-13144,-1172,904,322,167,2896,2025-01-29 15:09:07,0.0
-12948,-856,864,935,-1218,3103,2025-01-29 15:09:07,0.0
-12404,-364,348,1116,-2063,3161,2025-01-29 15:09:07,0.0
-11580,276,148,857,-1940,2851,2025-01-29 15:09:07,0.0
-11468,1088,596,622,-1326,2288,2025-01-29 15:09:07,0.0
-11748,1452,412,636,-445,1900,2025-01-29 15:09:07,0.0
-12124,1680,-92,472,456,1729,2025-01-29 15:09:07,0.0
-12180,1472,392,292,1315,1452,2025-01-29 15:09:07,0.0
-12620,1436,1048,64,1539,1072,2025-01-29 15:09:07,0.0
-12756,1200,1244,-115,1125,745,2025-01-29 15:09:07,0.0
-12844,720,1056,-232,348,418,2025-01-29 15:09:07,0.0
-12868,228,972,-421,-388,14,2025-01-29 15:09:07,0.0
-12724,92,1444,-410,-787,-272,2025-01-29 15:09:07,0.0
-12776,196,2208,-94,-834,-299,2025-01-29 15:09:07,0.0
-12864,172,2384,326,-728,-230,2025-01-29 15:09:07,0.0
-13088,-40,2468,732,-515,-254,2025-01-29 15:09:07,0.0
-13196,-172,2824,1133,-706,-251,2025-01-29 15:09:07,0.0
-13452,-148,3040,1651,-1108,-148,2025-01-29 15:09:07,0.0
-13508,-4,3044,2153,-1556,1,2025-01-29 15:09:07,0.0
-13320,300,2604,2687,-2023,-40,2025-01-29 15:09:07,0.0
-13576,784,1936,3077,-2369,-191,2025-01-29 15:09:07,0.0
-13908,1372,1688,3336,-2139,-152,2025-01-29 15:09:07,0.0
-14368,1520,1380,3558,-1505,134,2025-01-29 15:09:07,0.0
-14732,1380,1052,3631,-795,708,2025-01-29 15:09:07,0.0
-14740,1432,1208,3618,-225,1319,2025-01-29 15:09:07,0.0
-14388,1976,2056,3529,215,1716,2025-01-29 15:09:07,0.0
-13816,2468,2372,2608,1155,-327,2025-01-29 15:09:07,0.0
-15620,1848,2000,2576,2648,-253,2025-01-29 15:09:07,0.0
-16492,1716,1832,3165,4072,-1,2025-01-29 15:09:07,0.0
-17032,3260,1200,2799,4900,783,2025-01-29 15:09:07,0.0
-17456,4884,-408,1465,4596,1485,2025-01-29 15:09:07,0.0
-18136,5648,-2148,-426,3431,1638,2025-01-29 15:09:07,0.0
-18560,5552,-2736,-2741,565,1232,2025-01-29 15:09:07,0.0
-17216,3760,-1496,-4390,-4277,927,2025-01-29 15:09:07,0.0
-14900,884,-32,-5117,-8622,207,2025-01-29 15:09:07,0.0
-12376,-1476,-372,-5279,-11239,-944,2025-01-29 15:09:07,0.0
-10908,-2852,-1328,-4803,-11408,-2355,2025-01-29 15:09:07,0.0
-11320,-3620,-2320,-3779,-8459,-3036,2025-01-29 15:09:07,0.0
-11804,-3952,-2160,-2439,-3458,-2435,2025-01-29 15:09:07,0.0
-11524,-3700,-1012,-950,2638,-1515,2025-01-29 15:09:07,0.0
-10844,-2520,-664,262,7393,-1449,2025-01-29 15:09:07,0.0
-12120,-1088,-348,564,10120,-1828,2025-01-29 15:09:07,0.0
-13176,288,128,272,10650,-2063,2025-01-29 15:09:07,0.0
-15308,-892,-360,-2051,-924,-3507,2025-01-29 15:09:07,0.0
-14356,-1392,-512,-1941,-3950,-3226,2025-01-29 15:09:07,0.0
-13716,-1624,336,-1959,-5728,-2759,2025-01-29 15:09:07,0.0
-12356,-1452,192,-1974,-6118,-2448,2025-01-29 15:09:07,0.0
-11684,-924,-76,-2088,-4816,-2287,2025-01-29 15:09:07,0.0
-10976,-924,-224,-2344,-2203,-2351,2025-01-29 15:09:08,0.0
-11292,-1524,40,-2648,64,-2567,2025-01-29 15:09:08,0.0
-12128,-1876,672,-2826,1427,-2607,2025-01-29 15:09:08,0.0
-13512,-1512,720,-2815,1718,-2046,2025-01-29 15:09:08,0.0
-14240,-1020,568,-2724,1331,-1221,2025-01-29 15:09:08,0.0
-14432,-688,472,-2802,321,-302,2025-01-29 15:09:08,0.0
-14416,-576,1000,-2952,-785,397,2025-01-29 15:09:08,0.0
-13768,-732,1032,-3075,-1571,817,2025-01-29 15:09:08,0.0
-13152,-644,744,-3251,-1877,1014,2025-01-29 15:09:08,0.0
-13016,-128,448,-3500,-1961,1274,2025-01-29 15:09:08,0.0
-12668,180,444,-4042,-1748,1431,2025-01-29 15:09:08,0.0
-12572,68,364,-4792,-1490,1259,2025-01-29 15:09:08,0.0
-12944,-128,752,-5683,-1214,1194,2025-01-29 15:09:08,0.0
-13328,-416,912,-6366,-1091,1318,2025-01-29 15:09:08,0.0
-13528,-648,964,-6706,-1098,1676,2025-01-29 15:09:08,0.0
-14084,-864,1232,-6851,-1058,2218,2025-01-29 15:09:08,0.0
-14324,-804,1452,-6832,-788,2838,2025-01-29 15:09:08,0.0
-13868,-976,1212,-7037,-290,3105,2025-01-29 15:09:08,0.0
-13748,-640,968,-7620,36,2600,2025-01-29 15:09:08,0.0
-13252,48,48,-8448,152,1865,2025-01-29 15:09:08,0.0
-12996,1020,-1512,-10068,765,707,2025-01-29 15:09:08,0.0
-13528,1400,-1604,-11547,2223,-153,2025-01-29 15:09:08,0.0
-14272,1212,-232,-12899,3905,-542,2025-01-29 15:09:08,0.0
-15240,-20,1380,-13892,4443,-663,2025-01-29 15:09:08,0.0
-16196,-1200,2220,-14600,3280,-584,2025-01-29 15:09:08,0.0
-16476,-2004,2508,-15216,1035,-488,2025-01-29 15:09:08,0.0
-16084,-2156,2736,-15852,-1461,-313,2025-01-29 15:09:08,0.0
-15476,-1908,2548,-16152,-3028,-197,2025-01-29 15:09:08,0.0
-14536,-1140,192,-16256,-3381,-305,2025-01-29 15:09:08,0.0
-13144,-32,-1320,-16941,-3019,-811,2025-01-29 15:09:08,0.0
-11804,196,-2080,-17585,-1679,-1772,2025-01-29 15:09:08,0.0
-11384,-568,-3204,-16898,506,-2545,2025-01-29 15:09:08,0.0
-11252,-1896,-4536,-16007,3579,-3788,2025-01-29 15:09:08,0.0
-12896,-2436,-3456,-15694,7284,-5114,2025-01-29 15:09:08,0.0
-15104,-2172,-1456,-15254,10581,-5037,2025-01-29 15:09:08,0.0
-15720,-1404,-320,-14331,11949,-3318,2025-01-29 15:09:08,0.0
-16088,-348,152,-13273,10171,-1588,2025-01-29 15:09:08,0.0
-15076,488,-1328,-13580,6396,-1278,2025-01-29 15:09:08,
-14896,1164,-2664,-14069,2378,-1474,2025-01-29 15:09:08,0.0
-14592,1208,-2988,-13910,883,-1359,2025-01-29 15:09:08,0.0
-13076,1232,-3660,-13919,1708,-1377,2025-01-29 15:09:08,0.0
-12284,1508,-3976,-14484,2838,-1577,2025-01-29 15:09:08,0.0
-12112,1576,-4584,-15411,3257,-1628,2025-01-29 15:09:08,0.0
-12044,1560,-4840,-16353,3092,-1814,2025-01-29 15:09:08,0.0
-12228,1468,-4984,-17456,3245,-2056,2025-01-29 15:09:08,0.0
-12740,916,-4444,-18264,4119,-2075,2025-01-29 15:09:08,0.0
-13044,336,-3580,-18728,4992,-2030,2025-01-29 15:09:08,0.0
-13276,-504,-3024,-18852,5185,-1944,2025-01-29 15:09:08,0.0
-13540,-788,-2520,-18793,4501,-1942,2025-01-29 15:09:08,0.0
-13456,-1212,-2848,-18729,2965,-2139,2025-01-29 15:09:08,0.0
-13140,-888,-2712,-18502,963,-2627,2025-01-29 15:09:08,0.0
-12740,-252,-2556,-18264,-325,-2946,2025-01-29 15:09:08,0.0
-12100,140,-2612,-18387,-445,-3223,2025-01-29 15:09:08,0.0
-11728,136,-3624,-19010,82,-3590,2025-01-29 15:09:08,0.0
-11992,108,-4940,-20033,1158,-4052,2025-01-29 15:09:08,0.0
-12536,0,-5416,-21357,1949,-4531,2025-01-29 15:09:08,0.0
-13068,268,-4544,-22217,2266,-4811,2025-01-29 15:09:08,0.0
-13536,288,-4168,-22537,1965,-4914,2025-01-29 15:09:08,0.0
-13764,-236,-4052,-22710,1460,-4628,2025-01-29 15:09:08,0.0
-13736,-1200,-4192,-22581,1128,-4196,2025-01-29 15:09:08,0.0
-13536,-2240,-4248,-22204,1456,-3875,2025-01-29 15:09:08,0.0
-13112,-3200,-4556,-21827,1865,-3748,2025-01-29 15:09:08,0.0
-12520,-3728,-4148,-21438,1806,-3903,2025-01-29 15:09:08,0.0
-12052,-3372,-3332,-20901,1595,-4177,2025-01-29 15:09:08,0.0
-11716,-2516,-2932,-20297,1502,-4513,2025-01-29 15:09:08,0.0
-11892,-1184,-3884,-19892,1277,-4657,2025-01-29 15:09:08,0.0
-12008,-144,-4276,-19832,998,-4667,2025-01-29 15:09:09,0.0
-12384,-540,-3968,-19746,1208,-4378,2025-01-29 15:09:09,0.0
-12668,-1224,-2760,-18798,1263,-3938,2025-01-29 15:09:09,0.0
-12652,-2272,-2680,-17829,1144,-3388,2025-01-29 15:09:09,0.0
-12284,-2544,-2896,-16630,639,-3071,2025-01-29 15:09:09,0.0
-12404,-2836,-4208,-15652,-298,-2800,2025-01-29 15:09:09,0.0
-12024,-2228,-3696,-14820,-1383,-2628,2025-01-29 15:09:09,0.0
-11672,-1772,-3264,-14048,-2275,-2506,2025-01-29 15:09:09,0.0
-11880,-1964,-3096,-13465,-3401,-2301,2025-01-29 15:09:09,0.0
-12528,-2128,-3008,-12870,-4614,-1522,2025-01-29 15:09:09,0.0
-12412,-2496,-3372,-12241,-6146,-520,2025-01-29 15:09:09,0.0
-9700,-1872,-1884,-12667,-8933,-815,2025-01-29 15:09:09,0.0
-8584,-8,-300,-13070,-8250,-1612,2025-01-29 15:09:09,0.0
-7024,1432,3388,-12958,-5994,-2908,2025-01-29 15:09:09,0.0
-8380,732,1952,-12420,-4514,-3542,2025-01-29 15:09:09,0.0
-10396,-1168,-1868,-12169,-396,-2658,2025-01-29 15:09:09,0.0
-10380,-3216,-4172,-12545,-405,-1937,2025-01-29 15:09:09,0.0
-11088,-3836,-3192,-12908,-1442,-2244,2025-01-29 15:09:09,0.0
-12900,-3872,-1468,-13167,-30,-2704,2025-01-29 15:09:09,0.0
-16424,-3704,1436,-13395,2092,-3090,2025-01-29 15:09:09,0.0
-19092,-3288,4592,-12165,-183,-2622,2025-01-29 15:09:09,0.0
-15836,-2888,3072,-11329,-5593,-1747,2025-01-29 15:09:09,0.0
-17668,-2144,2652,-11517,-11445,-888,2025-01-29 15:09:09,0.0
-14372,-1772,1300,-11614,-14003,-700,2025-01-29 15:09:09,0.0
-12428,-1220,1116,-11927,-14373,-627,2025-01-29 15:09:09,0.0
-12792,-644,656,-11728,-9697,-792,2025-01-29 15:09:09,0.0
-14384,-236,1096,-11508,-6602,-30,2025-01-29 15:09:09,0.0
-15760,-608,2300,-11662,-5054,706,2025-01-29 15:09:09,0.0
-16000,-1520,1180,-12615,-5497,1360,2025-01-29 15:09:09,0.0
-12120,-1068,3324,-14003,-8005,1232,2025-01-29 15:09:09,0.0
-14208,-488,5812,-14119,-9591,1685,2025-01-29 15:09:09,0.0
-14116,-1884,5688,-13331,-10203,2981,2025-01-29 15:09:09,0.0
-14812,-4012,7436,-11864,-12307,3824,2025-01-29 15:09:09,0.0
-14192,-4460,6464,-10120,-13005,3825,2025-01-29 15:09:09,0.0
-12688,-3256,7100,-9554,-12706,3023,2025-01-29 15:09:09,0.0
-11108,-1864,5832,-8689,-10790,1262,2025-01-29 15:09:09,0.0
-12660,752,7068,-8460,-8962,701,2025-01-29 15:09:09,0.0
-13020,1868,7840,-7862,-7934,1553,2025-01-29 15:09:09,0.0
-13452,608,8484,-6848,-8195,2302,2025-01-29 15:09:09,0.0
-13044,-576,8720,-5873,-9765,2452,2025-01-29 15:09:09,0.0
-13392,-456,9608,-5479,-11879,2306,2025-01-29 15:09:09,0.0
-12508,120,8736,-5579,-13317,2316,2025-01-29 15:09:09,0.0
-10748,372,9108,-4997,-12751,2003,2025-01-29 15:09:09,0.0
-10252,4,9888,-4028,-11540,1659,2025-01-29 15:09:09,0.0
-10612,-424,10272,-3402,-11156,1171,2025-01-29 15:09:09,0.0
-10992,-8,10460,-3497,-11341,397,2025-01-29 15:09:09,0.0
-11092,72,10604,-3773,-11474,-88,2025-01-29 15:09:09,0.0
-10876,352,12728,-3976,-11926,-607,2025-01-29 15:09:09,0.0
-10684,276,14696,-3407,-12179,-785,2025-01-29 15:09:09,0.0
-10816,460,15264,-2783,-12188,-794,2025-01-29 15:09:09,0.0
-11748,1616,16424,-2176,-12137,-789,2025-01-29 15:09:09,0.0
-12884,2896,15868,-1837,-10964,-305,2025-01-29 15:09:09,0.0
-14076,2400,17116,-1583,-10095,70,2025-01-29 15:09:09,0.0
-14260,1792,17336,-414,-10173,244,2025-01-29 15:09:09,0.0
-13028,2544,16104,-46,-10172,104,2025-01-29 15:09:09,0.0
-12528,2680,15068,423,-9486,238,2025-01-29 15:09:09,0.0
-11372,2136,15468,1133,-8582,891,2025-01-29 15:09:09,0.0
-10104,968,15568,1659,-7616,1283,2025-01-29 15:09:09,0.0
-9004,-440,15136,1737,-6567,1311,2025-01-29 15:09:09,0.0
-8084,-1180,14068,1103,-5587,994,2025-01-29 15:09:10,0.0
-7592,-1136,14136,190,-5155,572,2025-01-29 15:09:10,0.0
-7172,-1060,14664,-263,-5027,208,2025-01-29 15:09:10,0.0
-7064,-756,14820,-311,-4914,-151,2025-01-29 15:09:10,0.0
-7036,-684,15180,-242,-4427,-302,2025-01-29 15:09:10,0.0
-6880,-800,14992,1,-3827,-275,2025-01-29 15:09:10,0.0
-6984,-736,14792,-18,-3076,-207,2025-01-29 15:09:10,0.0
-7064,-580,14900,-299,-3050,-199,2025-01-29 15:09:10,0.0
-7296,1144,15396,-479,-3187,-46,2025-01-29 15:09:10,0.0
-7556,1596,15704,-608,-3035,266,2025-01-29 15:09:10,0.0
-8256,1084,16000,-593,-2575,536,2025-01-29 15:09:10,0.0
-7948,536,15984,-581,-2458,956,2025-01-29 15:09:10,0.0
-6992,-664,15968,-470,-2493,930,2025-01-29 15:09:10,
-6664,-856,16112,-219,-2089,725,2025-01-29 15:09:10,0.0
-6820,-20,15588,-420,-1353,541,2025-01-29 15:09:10,0.0
-6408,468,14904,-1126,-830,537,2025-01-29 15:09:10,0.0
-6412,128,15452,-1745,224,348,2025-01-29 15:09:10,0.0
-6864,108,15860,-1817,1003,115,2025-01-29 15:09:10,0.0
-7432,-628,16188,-1406,1083,253,2025-01-29 15:09:10,0.0
-7280,456,15644,-1136,531,259,2025-01-29 15:09:10,0.0
-6988,428,14732,-1376,-230,351,2025-01-29 15:09:10,0.0
-7200,272,15244,-1298,-468,229,2025-01-29 15:09:10,0.0
-6280,576,14916,-1331,-347,213,2025-01-29 15:09:10,0.0
-6344,472,14932,-1339,406,102,2025-01-29 15:09:10,0.0
-7392,116,14684,-1346,1505,67,2025-01-29 15:09:10,0.0
-8484,-440,15592,-1203,1508,185,2025-01-29 15:09:10,0.0
-8660,-8,15996,-921,371,350,2025-01-29 15:09:10,0.0
-8420,372,16372,-576,-1104,637,2025-01-29 15:09:10,0.0
-7432,520,15796,8,-1994,782,2025-01-29 15:09:10,0.0
-6840,304,14804,64,-2350,639,2025-01-29 15:09:10,0.0
-6856,328,15112,68,-2380,786,2025-01-29 15:09:10,0.0
-6180,-36,14888,-9,-1874,756,2025-01-29 15:09:10,0.0
-6004,-260,15124,-55,-1153,647,2025-01-29 15:09:10,0.0
-6304,-160,15348,-10,-551,562,2025-01-29 15:09:10,0.0
-6896,188,15352,170,35,629,2025-01-29 15:09:10,0.0
-7512,588,15280,101,521,876,2025-01-29 15:09:10,0.0
-6652,172,15192,-49,1252,691,2025-01-29 15:09:10,0.0
-6504,-368,14772,-409,1504,261,2025-01-29 15:09:10,0.0
-6884,-700,14960,-693,966,-23,2025-01-29 15:09:10,0.0
-7144,-748,15308,-618,85,-190,2025-01-29 15:09:10,0.0
-7224,-492,15200,-547,-310,-322,2025-01-29 15:09:10,0.0
-7260,32,15276,-425,59,-351,2025-01-29 15:09:10,0.0
-7440,592,15584,-159,41,-229,2025-01-29 15:09:10,0.0
-7368,900,15708,-49,-118,-191,2025-01-29 15:09:10,0.0
-7196,944,15456,-108,-284,-224,2025-01-29 15:09:10,0.0
-6904,760,15004,-195,-224,-310,2025-01-29 15:09:10,0.0
-7052,500,15140,-147,-24,-439,2025-01-29 15:09:10,0.0
-7276,112,14888,-95,85,-582,2025-01-29 15:09:10,0.0
-7640,176,14884,121,-130,-567,2025-01-29 15:09:10,0.0
-7672,340,14920,61,-588,-306,2025-01-29 15:09:10,0.0
-7560,420,15720,-281,-1202,-14,2025-01-29 15:09:10,0.0
-6820,-120,15468,-198,-1385,11,2025-01-29 15:09:10,0.0
-6740,-824,15192,-131,-995,-366,2025-01-29 15:09:10,0.0
-6820,-764,15148,-290,-629,-651,2025-01-29 15:09:10,0.0
-6964,-456,15660,-468,-679,-637,2025-01-29 15:09:10,0.0
-7256,-192,16148,-112,-1099,-306,2025-01-29 15:09:10,0.0
-7396,-20,15748,202,-1240,20,2025-01-29 15:09:10,0.0
-7116,352,15064,135,-957,181,2025-01-29 15:09:10,0.0
-6648,436,14976,-130,-424,100,2025-01-29 15:09:10,0.0
-6528,348,15136,-280,-308,21,2025-01-29 15:09:10,0.0
-6584,312,15408,-340,-330,-137,2025-01-29 15:09:11,0.0
-6592,212,15692,-202,-411,-224,2025-01-29 15:09:11,0.0
-6416,276,15556,-98,-376,-321,2025-01-29 15:09:11,0.0
-6564,196,15664,-1,-230,-357,2025-01-29 15:09:11,0.0
-6688,396,15604,-72,-9,-330,2025-01-29 15:09:11,0.0
-7052,528,15860,-124,8,-265,2025-01-29 15:09:11,0.0
-6952,532,15736,-214,-110,-190,2025-01-29 15:09:11,0.0
-6780,384,15564,-237,-157,-186,2025-01-29 15:09:11,0.0
-6708,268,15352,-203,-190,-173,2025-01-29 15:09:11,0.0
-6572,224,15356,-225,-137,-203,2025-01-29 15:09:11,0.0
-6664,152,15364,-267,8,-223,2025-01-29 15:09:11,0.0
-6656,220,15496,-294,119,-232,2025-01-29 15:09:11,0.0
-6724,116,15672,-307,166,-238,2025-01-29 15:09:11,0.0
-6800,244,15652,-263,166,-185,2025-01-29 15:09:11,0.0
-6752,352,15564,-272,152,-168,2025-01-29 15:09:11,0.0
-6768,352,15548,-296,103,-130,2025-01-29 15:09:11,0.0
-6756,284,15552,-307,33,-118,2025-01-29 15:09:11,0.0
-6672,232,15424,-321,12,-64,2025-01-29 15:09:11,0.0
-6592,204,15616,-349,-14,-106,2025-01-29 15:09:11,0.0
-6616,28,15624,-324,19,-130,2025-01-29 15:09:11,0.0
-6560,-24,15676,-264,53,-177,2025-01-29 15:09:11,0.0
-6704,-28,15752,-272,136,-201,2025-01-29 15:09:11,0.0
-6632,-56,15720,-283,185,-186,2025-01-29 15:09:11,0.0
-6524,-56,15696,-328,197,-203,2025-01-29 15:09:11,0.0
-6612,-96,15584,-294,203,-229,2025-01-29 15:09:11,0.0
-6564,-172,15616,-215,195,-251,2025-01-29 15:09:11,0.0
-6580,-112,15568,-212,227,-304,2025-01-29 15:09:11,0.0
-6688,-48,15840,-235,203,-319,2025-01-29 15:09:11,0.0
-6764,16,15788,-263,188,-287,2025-01-29 15:09:11,0.0
-6612,224,15872,-253,144,-223,2025-01-29 15:09:11,0.0
-6560,84,15680,-196,203,-200,2025-01-29 15:09:11,0.0
-6712,220,15428,-170,213,-193,2025-01-29 15:09:11,0.0
-6732,72,15536,-135,193,-198,2025-01-29 15:09:11,0.0
-6596,16,15580,-140,166,-217,2025-01-29 15:09:11,0.0
-6684,24,15440,-127,274,-251,2025-01-29 15:09:11,0.0
-6680,-8,15636,-121,298,-277,2025-01-29 15:09:11,0.0
-6852,68,15720,-95,254,-282,2025-01-29 15:09:11,0.0
-6744,128,15492,-112,182,-250,2025-01-29 15:09:11,0.0
-6696,108,15520,-116,205,-258,2025-01-29 15:09:11,0.0
-6804,228,15528,-118,66,-292,2025-01-29 15:09:11,0.0
-6792,200,15648,-68,-33,-257,2025-01-29 15:09:11,0.0
-6632,340,15500,-72,-133,-205,2025-01-29 15:09:11,0.0
-6600,120,15492,-105,-65,-225,2025-01-29 15:09:11,0.0
-6620,120,15620,-184,38,-246,2025-01-29 15:09:11,0.0
-6668,56,15648,-203,129,-265,2025-01-29 15:09:11,0.0
-6580,132,15660,-214,234,-239,2025-01-29 15:09:11,0.0
-6652,64,15564,-146,215,-194,2025-01-29 15:09:11,0.0
-6712,-36,15488,-149,159,-170,2025-01-29 15:09:11,0.0
-6684,72,15608,-161,104,-173,2025-01-29 15:09:11,0.0
-6616,48,15496,-145,51,-195,2025-01-29 15:09:11,0.0
-6736,48,15684,-160,28,-174,2025-01-29 15:09:11,0.0
-6620,40,15784,-177,90,-166,2025-01-29 15:09:11,0.0
-6592,68,15764,-176,148,-167,2025-01-29 15:09:11,
-6732,104,15716,-157,168,-158,2025-01-29 15:09:11,0.0
-6692,116,15756,-148,175,-159,2025-01-29 15:09:11,0.0
-6612,68,15732,-96,166,-159,2025-01-29 15:09:11,0.0
-6652,-24,15652,-144,149,-190,2025-01-29 15:09:12,0.0
-6640,72,15740,-123,159,-184,2025-01-29 15:09:12,0.0
-6616,-8,15628,-154,160,-182,2025-01-29 15:09:12,0.0
-6672,72,15652,-146,133,-195,2025-01-29 15:09:12,0.0
-6612,116,15744,-122,155,-180,2025-01-29 15:09:12,0.0
-6748,184,15764,-144,204,-202,2025-01-29 15:09:12,0.0
-6620,252,15676,-177,214,-219,2025-01-29 15:09:12,0.0
-6688,96,15620,-144,194,-200,2025-01-29 15:09:12,0.0
-6788,68,15620,-134,168,-193,2025-01-29 15:09:12,0.0
-6608,116,15556,-143,75,-155,2025-01-29 15:09:12,0.0
-6624,56,15700,-153,62,-215,2025-01-29 15:09:12,0.0
-6676,164,15656,-173,210,-213,2025-01-29 15:09:12,0.0
-6628,152,15556,-219,232,-217,2025-01-29 15:09:12,0.0
-6736,28,15600,-193,227,-178,2025-01-29 15:09:12,0.0
-6632,-72,15648,-164,210,-205,2025-01-29 15:09:12,0.0
-6696,32,15764,-160,259,-197,2025-01-29 15:09:12,0.0
-6760,0,15580,-190,171,-202,2025-01-29 15:09:12,0.0
-6716,64,15704,-162,63,-209,2025-01-29 15:09:12,0.0
-6656,60,15520,-120,-11,-172,2025-01-29 15:09:12,0.0
-6688,80,15504,-114,-46,-135,2025-01-29 15:09:12,0.0
-6540,32,15600,-118,-75,-150,2025-01-29 15:09:12,0.0
-6608,48,15568,-132,14,-183,2025-01-29 15:09:12,0.0
-6548,24,15700,-172,113,-189,2025-01-29 15:09:12,0.0
-6548,112,15676,-158,207,-204,2025-01-29 15:09:12,0.0
-6604,100,15700,-143,204,-171,2025-01-29 15:09:12,0.0
-6704,40,15524,-137,218,-172,2025-01-29 15:09:12,0.0
-6700,92,15644,-139,145,-163,2025-01-29 15:09:12,0.0
-6780,88,15620,-141,106,-180,2025-01-29 15:09:12,0.0
-6680,132,15612,-160,70,-179,2025-01-29 15:09:12,0.0
-6668,116,15724,-142,100,-181,2025-01-29 15:09:12,0.0
-6636,144,15912,-133,129,-183,2025-01-29 15:09:12,0.0
-6632,44,15572,-153,172,-183,2025-01-29 15:09:12,0.0
-6608,212,15692,-156,180,-172,2025-01-29 15:09:12,0.0
-6668,72,15664,-129,138,-176,2025-01-29 15:09:12,0.0
-6672,104,15688,-164,92,-171,2025-01-29 15:09:12,0.0
-6568,96,15676,-158,137,-183,2025-01-29 15:09:12,0.0
-6580,80,15800,-172,155,-173,2025-01-29 15:09:12,0.0
-6632,104,15720,-153,138,-199,2025-01-29 15:09:12,0.0
-6592,52,15576,-166,193,-187,2025-01-29 15:09:12,0.0
-6648,120,15668,-171,222,-200,2025-01-29 15:09:12,0.0
-6640,76,15652,-178,226,-226,2025-01-29 15:09:12,0.0
-6656,124,15656,-181,211,-184,2025-01-29 15:09:12,0.0
-6708,-32,15720,-144,150,-184,2025-01-29 15:09:12,0.0
-6756,12,15580,-149,120,-174,2025-01-29 15:09:12,0.0
-6536,76,15660,-142,69,-153,2025-01-29 15:09:12,0.0
-6600,-12,15688,-167,171,-174,2025-01-29 15:09:12,0.0
-6552,56,15696,-189,232,-189,2025-01-29 15:09:12,0.0
-6652,140,15688,-177,230,-168,2025-01-29 15:09:12,0.0
-6604,-4,15684,-143,199,-188,2025-01-29 15:09:12,0.0
-6624,68,15636,-169,198,-155,2025-01-29 15:09:12,0.0
-6764,68,15652,-166,230,-217,2025-01-29 15:09:12,0.0
-6844,92,15612,-184,176,-220,2025-01-29 15:09:12,0.0
-6760,52,15612,-181,47,-216,2025-01-29 15:09:12,0.0
-6672,140,15500,-129,-23,-153,2025-01-29 15:09:12,0.0
-6668,108,15740,-142,-68,-155,2025-01-29 15:09:12,0.0
-6544,48,15652,-125,-20,-192,2025-01-29 15:09:12,0.0
-6600,80,15820,-150,69,-202,2025-01-29 15:09:12,0.0
-6612,4,15856,-138,138,-214,2025-01-29 15:09:12,0.0
-6580,-8,15708,-132,192,-178,2025-01-29 15:09:12,0.0
-6648,112,15708,-117,195,-148,2025-01-29 15:09:12,0.0
-6656,104,15592,-155,158,-186,2025-01-29 15:09:12,0.0
-6464,8,15620,-160,135,-194,2025-01-29 15:09:12,0.0
-6664,104,15704,-162,94,-181,2025-01-29 15:09:13,0.0
-6532,88,15616,-173,84,-166,2025-01-29 15:09:13,0.0
-6652,104,15752,-127,150,-184,2025-01-29 15:09:13,0.0
-6632,100,15776,-119,182,-190,2025-01-29 15:09:13,0.0
-6652,40,15620,-155,174,-205,2025-01-29 15:09:13,0.0
-6600,-20,15764,-168,177,-169,2025-01-29 15:09:13,0.0
-6720,72,15680,-142,151,-190,2025-01-29 15:09:13,0.0
-6576,64,15644,-166,140,-186,2025-01-29 15:09:13,0.0
-6588,100,15632,-159,153,-180,2025-01-29 15:09:13,0.0
-6564,172,15700,-172,175,-193,2025-01-29 15:09:13,0.0
-6656,76,15440,-193,274,-238,2025-01-29 15:09:13,0.0
-6636,-4,15520,-110,470,-179,2025-01-29 15:09:13,0.0
-6796,16,15608,-124,671,-168,2025-01-29 15:09:13,0.0
-6740,-44,15520,-251,708,-140,2025-01-29 15:09:13,0.0
-6568,0,15460,-337,879,-252,2025-01-29 15:09:13,0.0
-6684,276,14976,-468,1145,-393,2025-01-29 15:09:13,0.0
-7244,220,15192,-577,1062,-260,2025-01-29 15:09:13,0.0
-7680,124,15316,-475,559,140,2025-01-29 15:09:13,0.0
-7624,-20,15520,-397,-95,429,2025-01-29 15:09:13,0.0
-7088,-112,15312,-434,-447,584,2025-01-29 15:09:13,0.0
-6840,-140,15348,-535,-451,596,2025-01-29 15:09:13,0.0
-6332,-304,15620,-457,-548,447,2025-01-29 15:09:13,0.0
-6020,-364,15884,-199,-539,313,2025-01-29 15:09:13,0.0
-5560,28,15456,-81,-111,240,2025-01-29 15:09:13,0.0
-5496,388,15512,-76,712,119,2025-01-29 15:09:13,0.0
-5888,380,15820,1,1425,51,2025-01-29 15:09:13,0.0
-6496,264,15708,-106,1415,14,2025-01-29 15:09:13,0.0
-6664,72,15804,39,1050,56,2025-01-29 15:09:13,0.0
-6488,196,15632,207,984,147,2025-01-29 15:09:13,0.0
-6216,256,15124,285,1386,169,2025-01-29 15:09:13,0.0
-6232,180,15404,310,1830,49,2025-01-29 15:09:13,0.0
-6636,464,15636,306,1918,13,2025-01-29 15:09:13,0.0
-6360,432,14528,53,1629,107,2025-01-29 15:09:13,0.0
-6932,240,14512,-222,1649,125,2025-01-29 15:09:13,0.0
-6956,-216,14788,-463,1348,189,2025-01-29 15:09:13,
-7352,204,15252,-584,1076,143,2025-01-29 15:09:13,0.0
-7464,184,15528,-863,737,74,2025-01-29 15:09:13,0.0
-7384,48,15864,-1067,630,-130,2025-01-29 15:09:13,0.0
-7016,-264,15544,-1229,692,-330,2025-01-29 15:09:13,0.0
-6956,-104,15696,-1277,851,-413,2025-01-29 15:09:13,0.0
-6904,56,15672,-1074,962,-270,2025-01-29 15:09:13,0.0
-7260,148,15496,-819,934,-76,2025-01-29 15:09:13,0.0
-7164,376,15852,-602,1092,135,2025-01-29 15:09:13,0.0
-6868,420,15880,-565,1365,345,2025-01-29 15:09:13,0.0
-6580,548,16052,-655,1682,422,2025-01-29 15:09:13,0.0
-6856,328,15404,-583,2196,457,2025-01-29 15:09:13,0.0
-7100,116,15528,-409,2589,538,2025-01-29 15:09:13,0.0
-7228,108,15636,-187,2904,688,2025-01-29 15:09:13,0.0
-7200,96,15220,-191,2831,837,2025-01-29 15:09:13,0.0
-7060,-16,15048,-281,2912,918,2025-01-29 15:09:13,0.0
-6764,-60,15112,-205,3171,988,2025-01-29 15:09:13,0.0
-6888,80,15304,-79,3594,1217,2025-01-29 15:09:13,0.0
-10924,-100,15016,8,2749,1240,2025-01-29 15:09:13,0.0
-6720,-376,14904,14,5162,497,2025-01-29 15:09:13,0.0
-7324,-508,14632,-347,5895,235,2025-01-29 15:09:13,0.0
-6924,-576,15752,-380,6368,114,2025-01-29 15:09:13,0.0
-7688,-472,16060,-290,6392,-51,2025-01-29 15:09:13,0.0
-7072,-184,16804,-289,6041,-625,2025-01-29 15:09:13,0.0
-8184,-148,15708,-664,5753,-1533,2025-01-29 15:09:13,0.0
-9040,-1320,15816,-1421,6544,-2133,2025-01-29 15:09:13,0.0
-9716,-1728,15872,-1906,7547,-3212,2025-01-29 15:09:13,0.0
-10848,-1404,16888,-2432,6845,-3485,2025-01-29 15:09:14,0.0
-11508,1284,17100,-2911,5600,-2827,2025-01-29 15:09:14,0.0
-12396,2556,17924,-2508,4897,-1886,2025-01-29 15:09:14,0.0
-12784,2452,16580,-1312,6108,-719,2025-01-29 15:09:14,0.0
-12700,1200,15376,-404,7017,59,2025-01-29 15:09:14,0.0
-11756,132,15160,288,6940,549,2025-01-29 15:09:14,0.0
-11168,-456,14620,713,5858,656,2025-01-29 15:09:14,0.0
-10900,-412,13828,840,5194,639,2025-01-29 15:09:14,0.0
-10408,-492,13320,762,5521,282,2025-01-29 15:09:14,0.0
-10880,-512,12956,746,5989,11,2025-01-29 15:09:14,0.0
-10520,-172,13112,603,5999,134,2025-01-29 15:09:14,0.0
-11196,88,12608,748,6286,175,2025-01-29 15:09:14,0.0
-11192,-344,12248,762,6387,301,2025-01-29 15:09:14,0.0
-11492,-300,11664,667,6232,292,2025-01-29 15:09:14,0.0
-11552,-260,11864,531,5629,410,2025-01-29 15:09:14,0.0
-11808,-260,11856,553,4449,602,2025-01-29 15:09:14,0.0
-11524,-428,11028,495,3651,599,2025-01-29 15:09:14,0.0
-11320,-540,11084,398,3423,452,2025-01-29 15:09:14,0.0
-11180,-80,11080,150,3392,247,2025-01-29 15:09:14,0.0
-11212,164,11136,123,3528,70,2025-01-29 15:09:14,0.0
-11892,336,11868,270,4663,-237,2025-01-29 15:09:14,0.0
-12992,272,12300,347,6087,-724,2025-01-29 15:09:14,0.0
-13340,124,12120,576,7730,-1194,2025-01-29 15:09:14,0.0
-13416,408,11064,949,9045,-1405,2025-01-29 15:09:14,0.0
-13460,532,9348,1260,9833,-1498,2025-01-29 15:09:14,0.0
-13372,720,8236,985,9675,-1438,2025-01-29 15:09:14,0.0
-13440,812,8248,682,9110,-1308,2025-01-29 15:09:14,0.0
-13564,764,8664,460,7829,-1117,2025-01-29 15:09:14,0.0
-13244,888,8408,369,6095,-902,2025-01-29 15:09:14,0.0
-12788,808,8648,489,4682,-777,2025-01-29 15:09:14,0.0
-12000,788,8260,641,4646,-555,2025-01-29 15:09:14,0.0
-11592,808,7868,531,5356,-482,2025-01-29 15:09:14,0.0
-11024,420,7972,350,6297,-610,2025-01-29 15:09:14,0.0
-11552,308,8088,55,7307,-852,2025-01-29 15:09:14,0.0
-11828,96,7444,167,7649,-798,2025-01-29 15:09:14,0.0
-11868,-464,7072,357,7690,-808,2025-01-29 15:09:14,0.0
-12616,-248,6772,510,8112,-883,2025-01-29 15:09:14,0.0
-11972,112,6788,858,8380,-608,2025-01-29 15:09:14,0.0
-11704,-404,5948,1259,7574,-477,2025-01-29 15:09:14,0.0
-11956,-256,6268,1553,6433,-567,2025-01-29 15:09:14,0.0
-12436,-228,6532,2328,5544,-686,2025-01-29 15:09:14,0.0
-12740,-640,6164,2809,5200,-282,2025-01-29 15:09:14,0.0
-12828,-1124,6016,3103,4428,-27,2025-01-29 15:09:14,0.0
-11996,-1228,4564,3203,3638,-308,2025-01-29 15:09:14,0.0
-12228,-820,3932,3102,3195,-497,2025-01-29 15:09:14,0.0
-11900,-312,4180,2824,3226,-531,2025-01-29 15:09:14,0.0
-11624,388,4176,2612,3221,-640,2025-01-29 15:09:14,0.0
-11628,496,4000,2388,3136,-519,2025-01-29 15:09:14,0.0
-11104,784,4044,2064,3347,-417,2025-01-29 15:09:14,0.0
-11216,904,3648,1601,3528,-201,2025-01-29 15:09:14,0.0
-11068,836,3676,1121,3442,-39,2025-01-29 15:09:14,0.0
-11180,860,3708,898,3147,14,2025-01-29 15:09:14,0.0
-11788,392,3712,895,3113,195,2025-01-29 15:09:14,0.0
-12468,556,4136,829,3530,428,2025-01-29 15:09:14,0.0
-13136,492,4180,673,4014,607,2025-01-29 15:09:14,0.0
-13504,604,3876,747,3896,1014,2025-01-29 15:09:14,0.0
-13632,636,2736,650,2847,1326,2025-01-29 15:09:14,0.0
-12952,832,1784,480,954,1070,2025-01-29 15:09:14,0.0
-11896,536,868,-48,-1321,161,2025-01-29 15:09:14,0.0
-11368,-212,56,-1257,-3885,-1164,2025-01-29 15:09:15,0.0
-11260,-692,532,-2279,-4520,-2144,2025-01-29 15:09:15,0.0
-11408,-1188,1176,-2530,-3366,-2612,2025-01-29 15:09:15,0.0
-11772,-1644,1632,-2018,-1242,-2586,2025-01-29 15:09:15,0.0
-11968,-2064,2340,-1466,592,-2210,2025-01-29 15:09:15,0.0
-11824,-2368,3020,-1123,2095,-2079,2025-01-29 15:09:15,0.0
-11964,-2372,3932,-809,3480,-2107,2025-01-29 15:09:15,0.0
-12708,-2184,4468,-557,4137,-1991,2025-01-29 15:09:15,0.0
-13244,-2064,4896,-266,4207,-1585,2025-01-29 15:09:15,0.0
-13236,-2036,5700,15,4383,-1264,2025-01-29 15:09:15,0.0
-13100,-1972,6048,275,4387,-1200,2025-01-29 15:09:15,0.0
-13492,-2220,5740,712,4063,-1502,2025-01-29 15:09:15,0.0
-13636,-2424,4460,1058,3053,-1808,2025-01-29 15:09:15,0.0
-13672,-2484,3860,1428,1230,-1887,2025-01-29 15:09:15,0.0
-13228,-2024,4268,1834,-532,-1527,2025-01-29 15:09:15,
-12596,-1696,4180,1906,-1063,-1260,2025-01-29 15:09:15,0.0
-12068,-1116,3956,1554,-704,-1195,2025-01-29 15:09:15,0.0
-11912,-640,3348,871,218,-1060,2025-01-29 15:09:15,0.0
-12348,-244,3220,33,1462,-959,2025-01-29 15:09:15,0.0
-13036,-128,3476,-645,2848,-468,2025-01-29 15:09:15,0.0
-13284,-708,4224,-1215,3946,-155,2025-01-29 15:09:15,0.0
-13688,-1284,4364,-1604,4118,-82,2025-01-29 15:09:15,0.0
-14196,-1716,4680,-1691,3794,19,2025-01-29 15:09:15,0.0
-14668,-2064,3912,-1805,3268,25,2025-01-29 15:09:15,0.0
-14924,-1956,3636,-2232,2313,-108,2025-01-29 15:09:15,0.0
-14872,-1664,3688,-2491,1578,-204,2025-01-29 15:09:15,0.0
-14616,-1416,3552,-2998,1352,-463,2025-01-29 15:09:15,0.0
-14308,-1868,4132,-3785,1507,-737,2025-01-29 15:09:15,0.0
-14324,-2844,4620,-4191,1251,-1048,2025-01-29 15:09:15,0.0
-14548,-3508,4916,-4052,813,-1528,2025-01-29 15:09:15,0.0
-14860,-3968,5252,-3861,1283,-2316,2025-01-29 15:09:15,0.0
-15964,-3676,4784,-3525,2745,-3293,2025-01-29 15:09:15,0.0
-17136,-3904,5148,-3057,4235,-3603,2025-01-29 15:09:15,0.0
-18028,-4156,5124,-2078,3679,-3244,2025-01-29 15:09:15,0.0
-18384,-3848,5156,-1277,-575,-1879,2025-01-29 15:09:15,0.0
-19060,-1348,5188,-391,-5684,1375,2025-01-29 15:09:15,0.0
-16956,-16,3544,1055,-8624,4296,2025-01-29 15:09:15,0.0
-14004,-440,-660,1482,-8225,5334,2025-01-29 15:09:15,0.0
-11452,-1324,-3844,233,-5284,4039,2025-01-29 15:09:15,0.0
-10416,-1616,-4892,-1856,-1410,1403,2025-01-29 15:09:15,0.0
-11572,-836,-2672,-2719,1595,-196,2025-01-29 15:09:15,0.0
-13332,612,608,-1374,3153,-17,2025-01-29 15:09:15,0.0
-14384,1428,1316,-169,3126,1205,2025-01-29 15:09:15,0.0
-14456,1392,836,-255,2393,2373,2025-01-29 15:09:15,0.0
-14280,932,1700,-849,1631,3039,2025-01-29 15:09:15,0.0
-14584,724,2456,-816,1083,3522,2025-01-29 15:09:15,0.0
-14576,336,2396,-328,751,4065,2025-01-29 15:09:15,0.0
-14400,-156,1784,152,949,3843,2025-01-29 15:09:15,0.0
-13928,-228,668,166,922,3115,2025-01-29 15:09:15,0.0
-13416,156,824,69,31,2078,2025-01-29 15:09:15,0.0
-13152,1068,1352,162,-1387,1518,2025-01-29 15:09:15,0.0
-12908,1764,1012,342,-2238,1365,2025-01-29 15:09:15,0.0
-12964,2052,384,71,-1765,1625,2025-01-29 15:09:15,0.0
-12520,1556,372,-340,-635,1864,2025-01-29 15:09:15,0.0
-12592,1080,836,-531,652,1843,2025-01-29 15:09:15,0.0
-12500,468,2180,-135,1666,1750,2025-01-29 15:09:15,0.0
-12756,112,2272,576,2340,1702,2025-01-29 15:09:15,0.0
-13104,164,2096,1238,2519,1709,2025-01-29 15:09:15,0.0
-12716,-60,1992,1694,1969,1379,2025-01-29 15:09:15,0.0
-12420,44,2548,1815,1087,835,2025-01-29 15:09:15,0.0
-12000,144,3576,2154,322,267,2025-01-29 15:09:15,0.0
-12208,188,4324,2694,-31,-74,2025-01-29 15:09:15,0.0
-12420,136,4624,3270,-92,-148,2025-01-29 15:09:16,0.0
-12760,148,4576,3944,-49,-147,2025-01-29 15:09:16,0.0
-13164,456,4784,4534,-62,-325,2025-01-29 15:09:16,0.0
-13588,968,4700,5089,-203,-422,2025-01-29 15:09:16,0.0
-14104,1280,4240,5584,-794,-416,2025-01-29 15:09:16,0.0
-13508,1168,3276,5815,-2295,-281,2025-01-29 15:09:16,0.0
-12664,1260,2404,5670,-3720,-366,2025-01-29 15:09:16,0.0
-12000,1948,1636,5231,-3455,-313,2025-01-29 15:09:16,0.0
-12380,2232,1424,5022,-1455,-218,2025-01-29 15:09:16,0.0
-13204,2396,2220,5213,1864,137,2025-01-29 15:09:16,0.0
-13924,2248,3700,5546,4421,502,2025-01-29 15:09:16,0.0
-14092,2012,4580,6041,6076,368,2025-01-29 15:09:16,0.0
-13700,1492,5484,6444,6086,-194,2025-01-29 15:09:16,0.0
-13960,1876,5536,6522,4522,-1018,2025-01-29 15:09:16,0.0
-15124,1620,2892,5729,2902,-1727,2025-01-29 15:09:16,0.0
-17204,1900,1368,4965,3359,-1818,2025-01-29 15:09:16,0.0
-19032,3172,368,4439,4375,-759,2025-01-29 15:09:16,0.0
-20224,4632,-1308,3768,5086,1122,2025-01-29 15:09:16,0.0
-20020,5564,-2640,2433,4900,2841,2025-01-29 15:09:16,0.0
-18364,5384,-3000,563,2740,3594,2025-01-29 15:09:16,0.0
-14824,3240,-1264,-1570,-2181,2146,2025-01-29 15:09:16,0.0
-12292,-284,-412,-2866,-6503,-840,2025-01-29 15:09:16,0.0
-11772,-2500,236,-2929,-9117,-3370,2025-01-29 15:09:16,0.0
-12928,-3124,296,-1143,-9165,-4347,2025-01-29 15:09:16,0.0
-14084,-4044,-1388,813,-5162,-3418,2025-01-29 15:09:16,0.0
-13320,-3720,-2048,1697,-228,-2297,2025-01-29 15:09:16,0.0
-12296,-1892,-1456,2415,3431,-1817,2025-01-29 15:09:16,0.0
-12312,260,-1040,2642,5544,-1477,2025-01-29 15:09:16,0.0
-12588,1440,-112,2339,6068,-1094,2025-01-29 15:09:16,0.0
-12952,1572,1208,1666,5615,-1194,2025-01-29 15:09:16,0.0
-13520,864,572,925,3958,-1477,2025-01-29 15:09:16,0.0
-14036,112,-660,143,1973,-1451,2025-01-29 15:09:16,0.0
-14248,-460,-712,-361,902,-1408,2025-01-29 15:09:16,0.0
-13876,-588,-492,-758,239,-1698,2025-01-29 15:09:16,0.0
-13432,-200,228,-1134,-686,-1798,2025-01-29 15:09:16,0.0
-12968,-104,564,-1437,-1758,-1484,2025-01-29 15:09:16,0.0
-12808,-616,784,-1511,-2226,-982,2025-01-29 15:09:16,0.0
-12156,-1572,724,-1541,-1873,-889,2025-01-29 15:09:16,0.0
-12296,-2264,1400,-1431,-1558,-937,2025-01-29 15:09:16,0.0
-12224,-2084,1400,-1250,-1633,-841,2025-01-29 15:09:16,0.0
-12280,-1612,524,-1291,-1677,-625,2025-01-29 15:09:16,0.0
-12344,-836,640,-1620,-1246,-582,2025-01-29 15:09:16,0.0
-12316,-216,-68,-2063,-367,-405,2025-01-29 15:09:16,0.0
-12432,364,-700,-2556,621,55,2025-01-29 15:09:16,0.0
-12524,612,-676,-3325,1432,469,2025-01-29 15:09:16,0.0
-12888,996,-328,-4275,1814,930,2025-01-29 15:09:16,0.0
-13216,1492,-488,-5090,1977,1330,2025-01-29 15:09:16,0.0
-13340,2104,-424,-5993,2264,1744,2025-01-29 15:09:16,0.0
-13444,2456,-704,-7028,2544,2069,2025-01-29 15:09:16,0.0
-13404,2168,-152,-8472,2983,2161,2025-01-29 15:09:16,0.0
-14112,1292,632,-9781,3195,2216,2025-01-29 15:09:16,0.0
-14792,76,236,-10883,2520,2264,2025-01-29 15:09:16,0.0
-14656,-912,-380,-11827,879,1852,2025-01-29 15:09:16,
-14356,-988,-204,-12334,-702,1122,2025-01-29 15:09:16,0.0
-14548,-800,20,-12501,-1113,583,2025-01-29 15:09:16,0.0
-14592,-1136,24,-12477,-4,378,2025-01-29 15:09:16,0.0
-14876,-1888,184,-12734,1021,344,2025-01-29 15:09:16,0.0
-14996,-1536,1320,-13473,1684,65,2025-01-29 15:09:16,0.0
-15628,-248,728,-14537,2829,-845,2025-01-29 15:09:16,0.0
-16304,84,-368,-15505,3878,-2048,2025-01-29 15:09:16,0.0
-16404,-544,-1872,-15943,4035,-3399,2025-01-29 15:09:17,0.0
-16800,-2668,-2028,-16204,2613,-4618,2025-01-29 15:09:17,0.0
-17892,-2976,-828,-16304,-1215,-4415,2025-01-29 15:09:17,0.0
-16492,624,572,-16525,-6064,-2181,2025-01-29 15:09:17,0.0
-13680,3636,232,-16874,-10016,-23,2025-01-29 15:09:17,0.0
-11624,4740,-1020,-17302,-11671,1648,2025-01-29 15:09:17,0.0
-9864,3824,-4344,-17854,-9752,2605,2025-01-29 15:09:17,0.0
-9152,1960,-6832,-18667,-3383,1640,2025-01-29 15:09:17,0.0
-9548,-1728,-7212,-19848,6667,-532,2025-01-29 15:09:17,0.0
-9944,-4616,-3640,-19874,15519,-2846,2025-01-29 15:09:17,0.0
-11388,-5128,592,-18478,21355,-4814,2025-01-29 15:09:17,0.0
-13648,-3576,3180,-16351,22623,-5430,2025-01-29 15:09:17,0.0
-15604,-1592,1912,-14786,19519,-5104,2025-01-29 15:09:17,0.0
-16820,1216,368,-14586,13313,-4702,2025-01-29 15:09:17,0.0
-17408,3776,-2076,-15352,6133,-4072,2025-01-29 15:09:17,0.0
-16860,4924,-2676,-16255,-273,-3219,2025-01-29 15:09:17,0.0
-14516,4520,-3224,-16896,-3998,-2696,2025-01-29 15:09:17,0.0
-13496,3104,-4020,-18138,-4713,-2299,2025-01-29 15:09:17,0.0
-12192,2036,-4504,-19368,-4566,-2072,2025-01-29 15:09:17,0.0
-11192,1280,-4588,-20309,-3662,-1892,2025-01-29 15:09:17,0.0
-11344,844,-3388,-20580,-1455,-1375,2025-01-29 15:09:17,0.0
-11152,228,-2476,-20241,1180,-1186,2025-01-29 15:09:17,0.0
-11012,128,-3156,-19981,2997,-1372,2025-01-29 15:09:17,0.0
-11788,252,-2716,-19925,3817,-1999,2025-01-29 15:09:17,0.0
-13352,524,-2288,-19483,4230,-2426,2025-01-29 15:09:17,0.0
-14424,484,-2468,-18948,4472,-2410,2025-01-29 15:09:17,0.0
-14836,316,-2096,-18768,3715,-2226,2025-01-29 15:09:17,0.0
-14716,548,-1288,-18729,2230,-2272,2025-01-29 15:09:17,0.0
-14440,928,-948,-18726,581,-2429,2025-01-29 15:09:17,0.0
-14248,1328,-1268,-18761,-713,-2605,2025-01-29 15:09:17,0.0
-13828,1140,-1800,-19019,-1302,-2888,2025-01-29 15:09:17,0.0
-13436,892,-1876,-19374,-1441,-3143,2025-01-29 15:09:17,0.0
-13084,408,-1460,-19743,-1529,-3273,2025-01-29 15:09:17,0.0
-12852,-148,-1272,-19663,-1355,-3510,2025-01-29 15:09:17,0.0
-12624,-552,-1756,-19421,-639,-3511,2025-01-29 15:09:17,0.0
-12684,-708,-2032,-19315,693,-3504,2025-01-29 15:09:17,0.0
-12496,-616,-1768,-19085,1764,-3674,2025-01-29 15:09:17,0.0
-12816,-376,-1860,-18839,2425,-3696,2025-01-29 15:09:17,0.0
-12724,-720,-2468,-18577,2243,-3725,2025-01-29 15:09:17,0.0
-13012,-1300,-2812,-18319,1448,-3708,2025-01-29 15:09:17,0.0
-12820,-1428,-2428,-17870,1175,-3950,2025-01-29 15:09:17,0.0
-13152,-1364,-1760,-17806,2310,-4390,2025-01-29 15:09:17,0.0
-13628,-1116,-1324,-17763,3013,-4529,2025-01-29 15:09:17,0.0
-14216,-628,-1720,-17566,2588,-4316,2025-01-29 15:09:17,0.0
-14040,-416,-2072,-17603,1420,-4107,2025-01-29 15:09:17,0.0
-13776,-100,-1860,-17321,565,-4319,2025-01-29 15:09:17,0.0
-14288,316,-1732,-16702,181,-4260,2025-01-29 15:09:17,0.0
-14408,220,-1792,-16233,103,-3922,2025-01-29 15:09:17,0.0
-14264,-184,-1580,-15873,-119,-3782,2025-01-29 15:09:17,0.0
-14480,-704,-1680,-15442,-360,-3549,2025-01-29 15:09:17,0.0
-14144,-296,-2340,-14917,-781,-3389,2025-01-29 15:09:17,0.0
-13604,1120,-2332,-14543,-1447,-3383,2025-01-29 15:09:17,0.0
-13088,1936,-1740,-14773,-1927,-3505,2025-01-29 15:09:17,0.0
-12280,1800,-416,-15239,-1124,-3860,2025-01-29 15:09:17,0.0
-12248,1612,644,-15308,402,-4514,2025-01-29 15:09:17,0.0
-12412,1104,-188,-15232,1312,-5128,2025-01-29 15:09:17,0.0
-12960,-744,-1740,-15340,770,-5810,2025-01-29 15:09:17,0.0
-13740,-2244,-1996,-15221,427,-6363,2025-01-29 15:09:17,0.0
-15016,-3240,-2360,-14696,1055,-6490,2025-01-29 15:09:17,0.0
-16756,-3288,-1596,-14020,2496,-5835,2025-01-29 15:09:17,0.0
-17928,-2620,-1300,-13103,3147,-4741,2025-01-29 15:09:17,0.0
-18424,-864,-1896,-12622,1912,-3351,2025-01-29 15:09:18,0.0
-17372,1268,-2076,-12208,-1742,-2244,2025-01-29 15:09:18,0.0
-15636,1736,-2624,-12231,-6307,-1576,2025-01-29 15:09:18,0.0
-13580,624,-1716,-12348,-8158,-1581,2025-01-29 15:09:18,0.0
-11676,-1400,-544,-11823,-8668,-1984,2025-01-29 15:09:18,0.0
-10620,-3256,172,-10761,-7973,-2437,2025-01-29 15:09:18,0.0
-9980,-4200,308,-9420,-6495,-2794,2025-01-29 15:09:18,0.0
-10012,-3780,-432,-8300,-4114,-2816,2025-01-29 15:09:18,0.0
-10156,-3116,-1320,-7814,-851,-2621,2025-01-29 15:09:18,0.0
-10436,-2520,-1548,-7884,2260,-2888,2025-01-29 15:09:18,0.0
-11780,-2152,-1984,-8476,4005,-2943,2025-01-29 15:09:18,0.0
-12832,-2132,-1508,-9109,4560,-2885,2025-01-29 15:09:18,0.0
-13388,-2788,-1096,-9376,3941,-2837,2025-01-29 15:09:18,0.0
-14036,-3312,-180,-9282,2755,-2665,2025-01-29 15:09:18,0.0
-14540,-3568,296,-8978,1246,-2319,2025-01-29 15:09:18,0.0
-14412,-3692,1016,-8668,141,-2000,2025-01-29 15:09:18,0.0
-14832,-4096,1120,-8328,-256,-1656,2025-01-29 15:09:18,0.0
-15184,-4588,8,-7831,-502,-980,2025-01-29 15:09:18,0.0
-14908,-4416,-636,-7295,-754,-452,2025-01-29 15:09:18,0.0
-14760,-3620,-908,-6880,-1037,-134,2025-01-29 15:09:18,0.0
-13440,-2388,-548,-6390,-1513,78,2025-01-29 15:09:18,0.0
-12588,-2088,-400,-6326,-1775,-83,2025-01-29 15:09:18,0.0
-12328,-2060,-600,-6465,-1369,-186,2025-01-29 15:09:18,0.0
-12948,-2380,-788,-6659,-299,183,2025-01-29 15:09:18,0.0
-12924,-2652,-748,-6436,877,623,2025-01-29 15:09:18,0.0
-12828,-3216,44,-5975,1929,776,2025-01-29 15:09:18,0.0
-13000,-3540,504,-5279,2522,668,2025-01-29 15:09:18,0.0
-13840,-3184,1072,-4483,2578,749,2025-01-29 15:09:18,0.0
-14552,-2284,1076,-3828,1873,994,2025-01-29 15:09:18,0.0
-14772,-1636,264,-3536,-110,1564,2025-01-29 15:09:18,0.0
-14332,-1532,-768,-3530,-1743,1781,2025-01-29 15:09:18,0.0
-13904,-1572,-1260,-3565,-2331,1737,2025-01-29 15:09:18,
-13372,-1724,-1164,-3395,-2107,1677,2025-01-29 15:09:18,0.0
-13444,-1812,-696,-2839,-891,1668,2025-01-29 15:09:18,0.0
-14092,-1212,-424,-2113,899,2081,2025-01-29 15:09:18,0.0
-14480,-332,-652,-1643,2324,2451,2025-01-29 15:09:18,0.0
-14352,340,-928,-1527,2944,2176,2025-01-29 15:09:18,0.0
-14172,-128,-956,-1935,1965,1055,2025-01-29 15:09:18,0.0
-14792,-684,-472,-2496,-532,304,2025-01-29 15:09:18,0.0
-14792,-912,-24,-2311,-3369,529,2025-01-29 15:09:18,0.0
-13828,-792,-684,-2016,-4238,882,2025-01-29 15:09:18,0.0
-13236,-556,-1036,-1917,-3268,1015,2025-01-29 15:09:18,0.0
-12724,-208,-1012,-1811,-1081,1110,2025-01-29 15:09:18,0.0
-12168,-256,-512,-1653,1433,668,2025-01-29 15:09:18,0.0
-12780,-384,-532,-1682,2401,-99,2025-01-29 15:09:18,0.0
-13572,-360,-560,-1809,1545,-579,2025-01-29 15:09:18,0.0
-14224,-228,108,-1776,379,-526,2025-01-29 15:09:18,0.0
-14456,68,216,-1555,147,-204,2025-01-29 15:09:18,0.0
-13956,232,-268,-1429,62,38,2025-01-29 15:09:18,0.0
-13524,328,-516,-1543,-190,-38,2025-01-29 15:09:18,0.0
-13356,120,-316,-1580,-275,-132,2025-01-29 15:09:18,0.0
-13236,-48,-400,-1533,-154,-263,2025-01-29 15:09:18,0.0
-13436,-180,-264,-1442,288,-290,2025-01-29 15:09:18,0.0
-13552,12,-284,-1314,747,-225,2025-01-29 15:09:18,0.0
-13776,108,-372,-1141,1017,-151,2025-01-29 15:09:18,0.0
-13876,8,-352,-1184,946,-148,2025-01-29 15:09:18,0.0
-13872,-208,120,-1018,531,-157,2025-01-29 15:09:18,0.0
-13792,-208,80,-751,198,-144,2025-01-29 15:09:18,0.0
-13548,-200,-8,-564,140,-187,2025-01-29 15:09:19,0.0
-13500,-260,-16,-449,270,-235,2025-01-29 15:09:19,0.0
-13516,-152,-44,-309,565,-261,2025-01-29 15:09:19,0.0
-13588,-204,-236,-203,852,-263,2025-01-29 15:09:19,0.0
-13764,136,-688,-182,870,-228,2025-01-29 15:09:19,0.0
-13640,156,-388,-243,690,-168,2025-01-29 15:09:19,0.0
-13616,304,-232,-281,654,-159,2025-01-29 15:09:19,0.0
-13660,108,-188,-173,713,-112,2025-01-29 15:09:19,0.0
-13824,40,-592,-85,636,-112,2025-01-29 15:09:19,0.0
-14004,-36,-972,-66,541,-72,2025-01-29 15:09:19,0.0
-14300,176,-1060,-47,410,19,2025-01-29 15:09:19,0.0
-14112,308,-948,-69,52,146,2025-01-29 15:09:19,0.0
-13816,368,-376,-87,-362,180,2025-01-29 15:09:19,0.0
-13540,460,-872,38,-549,244,2025-01-29 15:09:19,0.0
-13396,352,-1412,108,-404,249,2025-01-29 15:09:19,0.0
-13400,152,-1532,133,285,183,2025-01-29 15:09:19,0.0
-13604,92,-1240,260,1073,274,2025-01-29 15:09:19,0.0
-13896,104,-1148,425,1239,332,2025-01-29 15:09:19,0.0
-13972,340,-832,506,858,427,2025-01-29 15:09:19,0.0
-13884,492,-588,540,146,407,2025-01-29 15:09:19,0.0
-13484,568,-620,523,-782,360,2025-01-29 15:09:19,0.0
-13076,560,-732,516,-940,116,2025-01-29 15:09:19,0.0
-12984,716,-1192,411,-520,-25,2025-01-29 15:09:19,0.0
-12896,836,-1272,240,167,-76,2025-01-29 15:09:19,0.0
-13128,640,-1204,-13,833,-155,2025-01-29 15:09:19,0.0
-13420,404,-1044,-233,1096,-229,2025-01-29 15:09:19,0.0
-13664,180,-1108,-451,951,-236,2025-01-29 15:09:19,0.0
-13620,24,-1048,-631,533,-318,2025-01-29 15:09:19,0.0
-13840,-64,-864,-706,150,-341,2025-01-29 15:09:19,0.0
-13848,56,-632,-620,42,-297,2025-01-29 15:09:19,0.0
-13584,208,-612,-518,60,-250,2025-01-29 15:09:19,0.0
-13444,120,-748,-446,96,-272,2025-01-29 15:09:19,0.0
-13556,-56,-944,-295,267,-300,2025-01-29 15:09:19,0.0
-13996,-104,-1252,-225,472,-323,2025-01-29 15:09:19,0.0
-14160,-136,-1260,-139,422,-243,2025-01-29 15:09:19,0.0
-14184,-16,-1044,-32,-43,-106,2025-01-29 15:09:19,0.0
-13924,8,-1044,5,-425,-27,2025-01-29 15:09:19,0.0
-13604,8,-956,94,-607,-20,2025-01-29 15:09:19,0.0
-13348,-36,-1044,178,-621,-41,2025-01-29 15:09:19,0.0
-13216,-40,-1000,250,-147,-103,2025-01-29 15:09:19,0.0
-13108,180,-956,383,519,-166,2025-01-29 15:09:19,0.0
-13292,280,-740,335,818,-306,2025-01-29 15:09:19,0.0
-13636,276,-1012,261,433,-370,2025-01-29 15:09:19,0.0
-13956,360,-1136,180,-255,-334,2025-01-29 15:09:19,0.0
-13632,396,-1020,188,-316,-290,2025-01-29 15:09:19,0.0
-13540,508,-1120,81,-67,-301,2025-01-29 15:09:19,0.0
-13536,660,-1240,-37,185,-287,2025-01-29 15:09:19,0.0
-13588,716,-1264,-180,484,-235,2025-01-29 15:09:19,0.0
-13684,476,-1284,-278,654,-240,2025-01-29 15:09:19,0.0
-13708,280,-1016,-359,641,-255,2025-01-29 15:09:19,0.0
-13836,176,-880,-402,257,-182,2025-01-29 15:09:19,0.0
-13976,4,-784,-301,-290,-82,2025-01-29 15:09:19,0.0
-13724,-240,-800,-207,-479,-66,2025-01-29 15:09:19,0.0
-13548,-240,-1136,-109,-310,-85,2025-01-29 15:09:19,0.0
-13336,-196,-984,35,125,-181,2025-01-29 15:09:19,0.0
-13520,120,-1144,162,534,-192,2025-01-29 15:09:19,0.0
-13604,148,-1040,174,617,-268,2025-01-29 15:09:19,0.0
-13632,-128,-760,217,402,-323,2025-01-29 15:09:19,0.0
-13744,-116,-628,425,69,-241,2025-01-29 15:09:19,0.0
-13712,-20,-836,554,76,-239,2025-01-29 15:09:19,0.0
-13648,-48,-904,536,57,-315,2025-01-29 15:09:19,0.0
-13588,-104,-868,616,-43,-317,2025-01-29 15:09:19,0.0
-13444,-116,-940,743,-76,-320,2025-01-29 15:09:20,0.0
-13500,20,-1212,783,3,-395,2025-01-29 15:09:20,0.0
-13408,72,-960,792,133,-540,2025-01-29 15:09:20,0.0
-13476,272,-1052,909,147,-598,2025-01-29 15:09:20,0.0
-13448,172,-952,957,89,-715,2025-01-29 15:09:20,0.0
-13436,192,-708,828,-195,-1024,2025-01-29 15:09:20,0.0
-14096,188,-304,770,-526,-1098,2025-01-29 15:09:20,0.0
-14228,20,-252,939,-714,-879,2025-01-29 15:09:20,0.0
-14072,-60,-48,1123,-668,-539,2025-01-29 15:09:20,0.0
-13764,140,-392,1332,-243,-387,2025-01-29 15:09:20,0.0
-13720,88,-128,1540,541,-186,2025-01-29 15:09:20,0.0
-13180,100,-68,1712,1074,-206,2025-01-29 15:09:20,
-13732,404,-352,1534,450,-839,2025-01-29 15:09:20,0.0
-13992,676,-436,1529,-346,-581,2025-01-29 15:09:20,0.0
-13756,504,-512,1767,-752,-390,2025-01-29 15:09:20,0.0
-13512,300,-1292,1417,-1036,-663,2025-01-29 15:09:20,0.0
-13448,204,-328,1260,-900,-760,2025-01-29 15:09:20,0.0
-13924,304,-400,1601,-481,-513,2025-01-29 15:09:20,0.0
-13288,508,-796,1618,58,-219,2025-01-29 15:09:20,0.0
-13556,848,-1064,1364,134,-893,2025-01-29 15:09:20,0.0
-14104,492,-692,521,-796,-596,2025-01-29 15:09:20,0.0
-13952,104,-80,846,-1004,-502,2025-01-29 15:09:20,0.0
-13420,24,-952,434,-1136,-782,2025-01-29 15:09:20,0.0
-13580,16,-524,-68,-1824,-1598,2025-01-29 15:09:20,0.0
-14300,-76,116,91,-2615,-1745,2025-01-29 15:09:20,0.0
-13788,-1320,400,868,-2499,-729,2025-01-29 15:09:20,0.0
-12768,-1500,-24,1800,-1449,-676,2025-01-29 15:09:20,0.0
-12248,-1456,-604,1914,-330,-1139,2025-01-29 15:09:20,0.0
-12492,-1700,-904,2013,490,-1527,2025-01-29 15:09:20,0.0
-13024,-1756,-576,1843,1039,-1845,2025-01-29 15:09:20,0.0
-13716,-2168,144,1927,1246,-1885,2025-01-29 15:09:20,0.0
-14508,-1596,656,2327,1198,-1630,2025-01-29 15:09:20,0.0
-15040,-1672,844,2818,735,-1134,2025-01-29 15:09:20,0.0
-14116,-828,-112,3199,116,-758,2025-01-29 15:09:20,0.0
-13052,-584,-500,1648,-721,-1635,2025-01-29 15:09:20,0.0
-13684,-292,348,1169,-1288,-2391,2025-01-29 15:09:20,0.0
-13832,-340,524,1186,-2121,-2831,2025-01-29 15:09:20,0.0
-14128,-832,372,1087,-3162,-2494,2025-01-29 15:09:20,0.0
-14248,-1112,684,771,-3900,-2057,2025-01-29 15:09:20,0.0
-14340,-1212,1556,111,-4247,-1723,2025-01-29 15:09:20,0.0
-14044,-1116,1932,-297,-3848,-1546,2025-01-29 15:09:20,0.0
-13528,-1104,1836,-522,-3240,-1443,2025-01-29 15:09:20,0.0
-13296,-1044,1548,-834,-2482,-1258,2025-01-29 15:09:20,0.0
-12424,-1768,1404,-1105,-1300,-1579,2025-01-29 15:09:20,0.0
-12668,-2460,1168,-1801,-144,-2328,2025-01-29 15:09:20,0.0
-13448,-2432,1920,-2537,838,-2824,2025-01-29 15:09:20,0.0
-13732,-2316,2816,-2308,1122,-2841,2025-01-29 15:09:20,0.0
-14316,-1896,2976,-1355,870,-2742,2025-01-29 15:09:20,0.0
-14572,-1032,2328,-75,387,-1695,2025-01-29 15:09:20,0.0
-14264,-2096,1784,414,-436,-800,2025-01-29 15:09:20,0.0
-13660,-2712,1552,71,-486,-281,2025-01-29 15:09:20,0.0
-12356,-2908,1408,-356,-299,-340,2025-01-29 15:09:20,0.0
-12244,-2960,1896,-460,91,-655,2025-01-29 15:09:20,0.0
-12468,-2788,1836,-719,773,-665,2025-01-29 15:09:20,0.0
-12708,-2896,2180,-796,1693,-354,2025-01-29 15:09:20,0.0
-13144,-3032,2224,-793,2198,-161,2025-01-29 15:09:20,0.0
-12460,-3532,1684,-1227,2165,-468,2025-01-29 15:09:20,0.0
-12980,-3428,1716,-1474,2523,-620,2025-01-29 15:09:20,0.0
-13408,-3020,2080,-1506,3187,-422,2025-01-29 15:09:20,0.0
-13568,-3172,1952,-1349,3913,-173,2025-01-29 15:09:20,0.0
-13792,-2500,2000,-1532,3979,-44,2025-01-29 15:09:20,0.0
-13888,-2488,2036,-1529,3746,151,2025-01-29 15:09:21,0.0
-13808,-2876,1684,-1378,2876,-154,2025-01-29 15:09:21,0.0
-14248,-3072,1460,-1744,1925,-373,2025-01-29 15:09:21,0.0
-14816,-2916,1700,-2278,1105,-520,2025-01-29 15:09:21,0.0
-15052,-2708,1756,-2888,348,-561,2025-01-29 15:09:21,0.0
-15008,-2560,1944,-3547,16,-579,2025-01-29 15:09:21,0.0
-15448,-2508,1984,-3936,-489,-481,2025-01-29 15:09:21,0.0
-15148,-3016,2192,-4071,-1424,-84,2025-01-29 15:09:21,0.0
-20200,-2944,9740,-4082,-1673,172,2025-01-29 15:09:21,0.0
-14368,-3860,2504,-3792,-2062,558,2025-01-29 15:09:21,0.0
-14188,-3496,1856,-4193,-1655,816,2025-01-29 15:09:21,0.0
-14492,-3252,2104,-3930,-1076,310,2025-01-29 15:09:21,0.0
-15796,-3064,2208,-2850,-1057,2,2025-01-29 15:09:21,0.0
-16748,-3104,1556,-1710,-786,319,2025-01-29 15:09:21,0.0
-16324,-3520,1160,-782,-282,752,2025-01-29 15:09:21,0.0
-16704,-3900,1016,-223,-706,1167,2025-01-29 15:09:21,0.0
-16888,-3632,780,1062,-1115,1878,2025-01-29 15:09:21,0.0
-15704,-3356,224,1697,-1658,3270,2025-01-29 15:09:21,0.0
-13556,-2524,-912,2027,-1410,3769,2025-01-29 15:09:21,0.0
-11944,-1828,-2072,1486,-514,3187,2025-01-29 15:09:21,0.0
-11808,-928,-3224,948,567,2237,2025-01-29 15:09:21,0.0
-11996,-320,-4240,279,810,1735,2025-01-29 15:09:21,0.0
-12712,844,-2864,-291,1478,1395,2025-01-29 15:09:21,0.0
-13364,1776,-1400,119,1845,1019,2025-01-29 15:09:21,0.0
-14348,1472,-1148,366,1208,1143,2025-01-29 15:09:21,0.0
-14852,1052,-592,139,541,1706,2025-01-29 15:09:21,0.0
-14584,424,-380,344,780,2319,2025-01-29 15:09:21,0.0
-14176,-16,-880,273,1563,2678,2025-01-29 15:09:21,0.0
-13376,-304,-376,-59,1688,2430,2025-01-29 15:09:21,0.0
-13692,344,60,-476,813,2134,2025-01-29 15:09:21,0.0
-13504,1048,724,-217,-658,2129,2025-01-29 15:09:21,0.0
-13048,1048,512,713,-1558,2236,2025-01-29 15:09:21,0.0
-12364,852,156,1471,-1488,2042,2025-01-29 15:09:21,0.0
-11988,480,-524,1734,-973,1488,2025-01-29 15:09:21,0.0
-12276,-284,-60,1460,-813,1009,2025-01-29 15:09:21,0.0
-11736,-592,-116,1026,-483,697,2025-01-29 15:09:21,0.0
-12264,-344,992,820,176,428,2025-01-29 15:09:21,0.0
-12328,-212,540,737,772,271,2025-01-29 15:09:21,0.0
-12888,304,476,538,770,248,2025-01-29 15:09:21,0.0
-13348,552,244,436,-91,488,2025-01-29 15:09:21,0.0
-13196,340,464,347,-1228,824,2025-01-29 15:09:21,0.0
-12668,392,680,-108,-835,580,2025-01-29 15:09:21,0.0
-12984,784,1268,-235,-286,114,2025-01-29 15:09:21,0.0
-12768,1032,1484,79,9,45,2025-01-29 15:09:21,0.0
-12152,1300,632,585,316,-95,2025-01-29 15:09:21,0.0
-12192,1324,572,731,735,-122,2025-01-29 15:09:21,0.0
-12480,1176,644,650,748,-156,2025-01-29 15:09:21,0.0
-13176,800,1452,467,782,-377,2025-01-29 15:09:21,0.0
-13624,1076,1432,339,1027,-230,2025-01-29 15:09:21,0.0
-13688,1280,1524,157,1190,-326,2025-01-29 15:09:21,0.0
-13796,1576,1956,324,1123,-169,2025-01-29 15:09:21,
-13400,1684,2536,1037,573,-35,2025-01-29 15:09:21,0.0
-13592,1448,1404,1497,429,-102,2025-01-29 15:09:21,0.0
-13916,1212,1252,1690,499,-139,2025-01-29 15:09:21,0.0
-14448,688,1584,2037,-57,75,2025-01-29 15:09:21,0.0
-14392,72,1864,2887,-384,438,2025-01-29 15:09:21,0.0
-14636,-332,2288,3539,76,334,2025-01-29 15:09:21,0.0
-14576,-812,1344,4150,585,-83,2025-01-29 15:09:21,0.0
-16840,-812,360,3325,1444,-167,2025-01-29 15:09:21,0.0
-18312,1804,3104,4166,1827,485,2025-01-29 15:09:21,0.0
-18128,2088,2040,6535,871,1309,2025-01-29 15:09:21,0.0
-16984,2108,-340,7542,319,1802,2025-01-29 15:09:21,0.0
-15020,2456,-892,6873,-307,1442,2025-01-29 15:09:22,0.0
-14752,3264,-1400,5919,101,611,2025-01-29 15:09:22,0.0
-14348,2888,-1236,5150,-382,85,2025-01-29 15:09:22,0.0
-14712,1620,-2380,3346,-657,-448,2025-01-29 15:09:22,0.0
-15644,1724,-2324,1574,27,69,2025-01-29 15:09:22,0.0
-15220,2260,-3040,505,125,1221,2025-01-29 15:09:22,0.0
-13772,2220,-3532,-448,-27,2674,2025-01-29 15:09:22,0.0
-10364,60,-3652,-1857,-1509,1912,2025-01-29 15:09:22,0.0
-9580,-1840,-3180,-3296,-2454,3,2025-01-29 15:09:22,0.0
-10952,-3528,-1684,-3641,-2062,-1372,2025-01-29 15:09:22,0.0
-13748,-4412,-800,-2507,-1272,-1267,2025-01-29 15:09:22,0.0
-13884,-3780,-68,-1215,-38,-735,2025-01-29 15:09:22,0.0
-13512,-2252,-764,-55,1056,-654,2025-01-29 15:09:22,0.0
-13192,-836,-852,-82,1122,-1306,2025-01-29 15:09:22,0.0
-13436,-96,-732,-414,432,-2201,2025-01-29 15:09:22,0.0
-14036,344,-700,-841,-376,-2666,2025-01-29 15:09:22,0.0
-14404,76,-888,-1181,-1041,-2607,2025-01-29 15:09:22,0.0
-13884,-500,-1168,-1458,-2209,-2541,2025-01-29 15:09:22,0.0
-13348,-1028,-1164,-1769,-3523,-2682,2025-01-29 15:09:22,0.0
-12856,-1232,-1164,-2001,-4616,-2618,2025-01-29 15:09:22,0.0
-12392,-1540,-1336,-2301,-4996,-2460,2025-01-29 15:09:22,0.0
-11956,-1244,-1260,-2586,-3324,-2201,2025-01-29 15:09:22,0.0
-11912,-876,-872,-2822,-1193,-2479,2025-01-29 15:09:22,0.0
-11996,-552,-860,-3299,655,-2685,2025-01-29 15:09:22,0.0
-13188,-192,-124,-3926,1124,-2696,2025-01-29 15:09:22,0.0
-13248,-128,12,-4362,341,-2639,2025-01-29 15:09:22,0.0
-14108,-104,236,-5125,-295,-2134,2025-01-29 15:09:22,0.0
-14156,-188,736,-5577,-630,-1717,2025-01-29 15:09:22,0.0
-14064,-512,420,-5664,-1708,-1429,2025-01-29 15:09:22,0.0
-13600,136,448,-6480,-3373,-1057,2025-01-29 15:09:22,0.0
-13132,504,944,-7100,-4154,-610,2025-01-29 15:09:22,0.0
-12548,256,812,-7605,-4428,-331,2025-01-29 15:09:22,0.0
-12520,-288,976,-8049,-3947,-89,2025-01-29 15:09:22,0.0
-12412,-816,928,-8464,-2677,10,2025-01-29 15:09:22,0.0
-12620,-1112,488,-8928,-963,-16,2025-01-29 15:09:22,0.0
-13196,-948,788,-9482,664,-204,2025-01-29 15:09:22,0.0
-13776,-436,992,-9926,938,-214,2025-01-29 15:09:22,0.0
-14100,212,948,-10533,764,259,2025-01-29 15:09:22,0.0
-14316,480,592,-11125,593,958,2025-01-29 15:09:22,0.0
-13576,60,348,-11880,691,1312,2025-01-29 15:09:22,0.0
-13296,-556,80,-12764,973,1369,2025-01-29 15:09:22,0.0
-13212,-1444,-616,-13544,1145,1285,2025-01-29 15:09:22,0.0
-12876,-1912,-528,-14226,1333,1134,2025-01-29 15:09:22,0.0
-12356,-2192,-348,-14751,1585,810,2025-01-29 15:09:22,0.0
-12284,-2524,16,-15566,1640,268,2025-01-29 15:09:22,0.0
-12496,-3156,972,-16581,1648,-687,2025-01-29 15:09:22,0.0
-13636,-3788,2656,-17762,1967,-2719,2025-01-29 15:09:22,0.0
-16116,-3492,3812,-18422,1736,-4189,2025-01-29 15:09:22,0.0
-18788,-2464,3664,-17900,323,-3615,2025-01-29 15:09:22,0.0
-19116,-3296,2180,-16490,-2076,-1545,2025-01-29 15:09:22,0.0
-16732,-4748,-1296,-14054,-4420,-154,2025-01-29 15:09:22,0.0
-15004,-6876,-4920,-12368,-4999,-840,2025-01-29 15:09:22,0.0
-14140,-7052,-4836,-12174,-3801,-2000,2025-01-29 15:09:22,0.0
-14328,-4164,-3256,-12704,-303,-2766,2025-01-29 15:09:22,0.0
-14960,312,-2428,-14072,2318,-3275,2025-01-29 15:09:22,0.0
-16124,2436,-1820,-14669,1008,-2216,2025-01-29 15:09:22,0.0
-14788,2252,-1912,-13447,-767,-43,2025-01-29 15:09:22,0.0
-12196,1240,-1516,-12361,-1316,1967,2025-01-29 15:09:22,0.0
-8496,-1708,-2264,-12850,557,1274,2025-01-29 15:09:22,0.0
-7000,-3632,-1888,-14000,3784,-1600,2025-01-29 15:09:22,0.0
-9588,-3820,-1580,-14247,6941,-4022,2025-01-29 15:09:23,0.0
-11772,-2956,-1336,-13749,9355,-4831,2025-01-29 15:09:23,0.0
-13332,-1704,-1444,-13247,10840,-5295,2025-01-29 15:09:23,0.0
-14688,-500,-2108,-13342,11011,-5459,2025-01-29 15:09:23,0.0
-15972,468,-2872,-13793,9744,-5264,2025-01-29 15:09:23,0.0
-16828,832,-4168,-14598,7333,-4612,2025-01-29 15:09:23,0.0
-16988,712,-4924,-16175,2684,-3484,2025-01-29 15:09:23,0.0
-14736,680,-4540,-17622,-2594,-3007,2025-01-29 15:09:23,0.0
-14288,732,-4312,-18486,-5102,-2661,2025-01-29 15:09:23,0.0
-13072,492,-4272,-19468,-5910,-1956,2025-01-29 15:09:23,0.0
-12520,-40,-4376,-20429,-5015,-1450,2025-01-29 15:09:23,0.0
-12104,-380,-4232,-21385,-3461,-1093,2025-01-29 15:09:23,0.0
-12264,-844,-4024,-21925,-1424,-1173,2025-01-29 15:09:23,0.0
-13600,-2052,-4344,-22352,655,-1259,2025-01-29 15:09:23,0.0
-13796,-2528,-3540,-22608,1541,-1241,2025-01-29 15:09:23,0.0
-13344,-3900,-1508,-22079,1080,-1700,2025-01-29 15:09:23,0.0
-12696,-4648,-656,-20957,-403,-2327,2025-01-29 15:09:23,0.0
-12136,-4772,-804,-20012,-1528,-2958,2025-01-29 15:09:23,0.0
-11896,-4444,-1756,-19652,-1844,-3424,2025-01-29 15:09:23,0.0
-12020,-3556,-2204,-19618,-1036,-3728,2025-01-29 15:09:23,0.0
-12648,-3144,-2704,-19880,742,-3823,2025-01-29 15:09:23,0.0
-12392,-2924,-3272,-20620,2511,-4111,2025-01-29 15:09:23,0.0
-13104,-1980,-3080,-21370,3714,-4576,2025-01-29 15:09:23,0.0
-14248,-1072,-2828,-21829,3636,-4846,2025-01-29 15:09:23,0.0
-15276,-936,-3256,-22433,2115,-4485,2025-01-29 15:09:23,0.0
-15656,-1584,-3840,-22854,-4,-3652,2025-01-29 15:09:23,0.0
-14592,-2760,-3620,-22948,-1950,-2914,2025-01-29 15:09:23,0.0
-13140,-4056,-3812,-22672,-3079,-2531,2025-01-29 15:09:23,0.0
-11972,-5356,-2888,-22207,-3600,-2521,2025-01-29 15:09:23,
-11184,-6996,-2336,-21437,-3722,-2880,2025-01-29 15:09:23,0.0
-11024,-7112,-1576,-20406,-4153,-3217,2025-01-29 15:09:23,0.0
-10448,-5268,-964,-19086,-5334,-3251,2025-01-29 15:09:23,0.0
-9692,-3008,-812,-17774,-7356,-2621,2025-01-29 15:09:23,0.0
-8684,-2152,-2056,-17084,-8161,-2174,2025-01-29 15:09:23,0.0
-9560,-1316,-3464,-17008,-6945,-1973,2025-01-29 15:09:23,0.0
-9920,-400,-4312,-17626,-4959,-1608,2025-01-29 15:09:23,0.0
-9596,-700,-3672,-18464,-3479,-1551,2025-01-29 15:09:23,0.0
-8736,-1572,-2064,-18550,-3582,-1492,2025-01-29 15:09:23,0.0
-8544,-3424,-1420,-18157,-4586,-967,2025-01-29 15:09:23,0.0
-9384,-4916,-584,-17019,-5879,405,2025-01-29 15:09:23,0.0
-9256,-6776,-1008,-15197,-6200,2349,2025-01-29 15:09:23,0.0
-8836,-5728,1732,-12877,-3567,3229,2025-01-29 15:09:23,0.0
-9328,-3252,4704,-10494,982,3439,2025-01-29 15:09:23,0.0
-12796,-2532,2940,-9755,5274,4447,2025-01-29 15:09:23,0.0
-13744,-2088,5468,-9670,4874,5024,2025-01-29 15:09:23,0.0
-16116,-3328,4744,-9687,2166,6047,2025-01-29 15:09:23,0.0
-16712,-2208,1828,-10491,-3930,5783,2025-01-29 15:09:23,0.0
-14800,624,328,-11918,-7572,4776,2025-01-29 15:09:23,0.0
-15664,1196,-1928,-13938,-7356,3711,2025-01-29 15:09:23,0.0
-14600,-636,-540,-15405,-5613,2651,2025-01-29 15:09:23,0.0
-14748,-2724,1856,-15596,-4774,2169,2025-01-29 15:09:23,0.0
-14720,-3820,3096,-15252,-4414,1566,2025-01-29 15:09:23,0.0
-14784,-3200,2132,-15171,-4496,1260,2025-01-29 15:09:23,0.0
-15148,-3180,1420,-15056,-3953,901,2025-01-29 15:09:23,0.0
-13028,-5504,3368,-14018,-3252,1516,2025-01-29 15:09:23,0.0
-15680,-1456,5644,-11903,-6514,1240,2025-01-29 15:09:23,0.0
-14500,-620,4640,-10879,-8806,876,2025-01-29 15:09:23,0.0
-14596,680,3436,-11171,-10327,392,2025-01-29 15:09:23,0.0
-14560,1120,3156,-10898,-8996,63,2025-01-29 15:09:23,0.0
-14808,184,3116,-10428,-9330,287,2025-01-29 15:09:23,0.0
-14740,-496,4960,-9829,-9462,514,2025-01-29 15:09:23,0.0
-15152,-968,7312,-9718,-11186,902,2025-01-29 15:09:23,0.0
-12660,-412,8008,-10090,-13420,1237,2025-01-29 15:09:24,0.0
-12216,1364,5288,-10464,-12940,2185,2025-01-29 15:09:24,0.0
-14636,1340,6760,-10528,-14321,1185,2025-01-29 15:09:24,0.0
-14272,1932,7456,-9696,-13565,1475,2025-01-29 15:09:24,0.0
-15460,1632,10712,-8020,-15646,2210,2025-01-29 15:09:24,0.0
-13600,1384,13704,-6959,-18703,2780,2025-01-29 15:09:24,0.0
-11092,1280,14408,-5995,-19837,2480,2025-01-29 15:09:24,0.0
-10072,784,14420,-5158,-19594,1827,2025-01-29 15:09:24,0.0
-10360,536,15144,-3688,-17024,1517,2025-01-29 15:09:24,0.0
-10244,1548,14608,-2415,-14025,1534,2025-01-29 15:09:24,0.0
-8884,3136,13900,-1682,-10685,1511,2025-01-29 15:09:24,0.0
-9680,2396,13656,-772,-7506,1151,2025-01-29 15:09:24,0.0
-11492,340,13124,171,-6412,795,2025-01-29 15:09:24,0.0
-13012,-16,14016,870,-8417,69,2025-01-29 15:09:24,0.0
-13744,1024,16008,1726,-12945,-626,2025-01-29 15:09:24,0.0
-13228,1804,16368,2435,-16761,-1051,2025-01-29 15:09:24,0.0
-12048,2272,15364,2420,-18034,-1135,2025-01-29 15:09:24,0.0
-9124,2872,12872,1509,-16765,-1485,2025-01-29 15:09:24,0.0
-7372,3028,13280,832,-13874,-1851,2025-01-29 15:09:24,0.0
-7012,2488,14408,1499,-10216,-1794,2025-01-29 15:09:24,0.0
-7204,1912,14860,2729,-6599,-1382,2025-01-29 15:09:24,0.0
-7888,2216,14344,2878,-4373,-1285,2025-01-29 15:09:24,0.0
-8680,3024,14428,2504,-4396,-846,2025-01-29 15:09:24,0.0
-8644,3352,13484,2035,-5147,-231,2025-01-29 15:09:24,0.0
-7212,4020,12648,1560,-6466,153,2025-01-29 15:09:24,0.0
-7516,4804,12908,886,-7489,633,2025-01-29 15:09:24,0.0
-8540,5308,14024,-85,-7488,1802,2025-01-29 15:09:24,0.0
-8628,3772,16432,-799,-6560,3213,2025-01-29 15:09:24,0.0
-8992,1136,18564,-1040,-5042,4268,2025-01-29 15:09:24,0.0
-8648,-1092,18012,-1001,-5362,4611,2025-01-29 15:09:24,0.0
-6800,-2192,17612,-901,-6009,4008,2025-01-29 15:09:24,0.0
-4484,-2228,17428,-685,-5934,2731,2025-01-29 15:09:24,0.0
-3364,-724,15836,-802,-4270,1099,2025-01-29 15:09:24,0.0
-4852,1232,15052,-981,-1911,195,2025-01-29 15:09:24,0.0
-6020,2744,15720,-1098,-1008,74,2025-01-29 15:09:24,0.0
-6784,3916,16456,-1090,-1303,374,2025-01-29 15:09:24,0.0
-6700,4016,16680,-643,-2027,928,2025-01-29 15:09:24,0.0
-5932,3612,16056,-176,-1998,1302,2025-01-29 15:09:24,0.0
-5504,2676,15464,-344,-1000,1810,2025-01-29 15:09:24,0.0
-4992,2048,15032,-517,25,1970,2025-01-29 15:09:24,0.0
-4624,1316,15148,-896,647,1689,2025-01-29 15:09:24,0.0
-4968,932,15608,-1172,1008,1110,2025-01-29 15:09:24,0.0
-6004,836,16400,-1185,1495,469,2025-01-29 15:09:24,0.0
-6828,1220,15984,-1185,1197,342,2025-01-29 15:09:24,0.0
-6816,1384,16084,-1367,366,482,2025-01-29 15:09:24,0.0
-6324,1596,16464,-1313,-419,742,2025-01-29 15:09:24,0.0
-5472,1924,16128,-1156,-396,800,2025-01-29 15:09:24,0.0
-5332,2296,15948,-1197,212,637,2025-01-29 15:09:24,0.0
-5680,2344,16196,-1351,456,617,2025-01-29 15:09:24,0.0
-6044,2320,16020,-1635,-19,752,2025-01-29 15:09:24,0.0
-6248,2040,16180,-1790,-498,887,2025-01-29 15:09:24,0.0
-6140,2380,16380,-1816,-715,980,2025-01-29 15:09:24,0.0
-5588,2480,16196,-1830,-949,996,2025-01-29 15:09:24,0.0
-5104,2796,16140,-1914,-968,936,2025-01-29 15:09:24,0.0
-4632,2548,16032,-1935,-868,918,2025-01-29 15:09:24,0.0
-4816,2020,16208,-2108,-643,887,2025-01-29 15:09:24,0.0
-5076,1448,17312,-1822,-377,1001,2025-01-29 15:09:24,0.0
-5656,996,18356,-1127,-625,1154,2025-01-29 15:09:24,0.0
-6280,896,17296,-760,-1671,1612,2025-01-29 15:09:24,0.0
-4176,1052,16192,-1088,-2399,1160,2025-01-29 15:09:24,0.0
-3832,1448,16084,-1200,-2096,839,2025-01-29 15:09:25,0.0
-3920,1560,15636,-1119,-1059,744,2025-01-29 15:09:25,0.0
-4140,1644,15928,-922,95,717,2025-01-29 15:09:25,0.0
-4728,2224,16604,-662,780,731,2025-01-29 15:09:25,0.0
-4864,2232,16916,-691,578,622,2025-01-29 15:09:25,0.0
-4928,2208,16568,-689,225,558,2025-01-29 15:09:25,0.0
-5016,2004,16292,-773,29,458,2025-01-29 15:09:25,
-4876,1992,15976,-795,197,391,2025-01-29 15:09:25,0.0
-5168,1512,15932,-799,454,204,2025-01-29 15:09:25,0.0
-5160,1184,16124,-645,739,-49,2025-01-29 15:09:25,0.0
-5200,1152,16164,-619,1011,-251,2025-01-29 15:09:25,0.0
-5776,984,16676,-634,855,-394,2025-01-29 15:09:25,0.0
-5944,808,16436,-352,346,-375,2025-01-29 15:09:25,0.0
-5984,924,16256,-182,-43,-352,2025-01-29 15:09:25,0.0
-5748,1072,16044,-7,15,-359,2025-01-29 15:09:25,0.0
-5772,1144,15956,94,236,-386,2025-01-29 15:09:25,0.0
-5720,1192,16184,31,347,-486,2025-01-29 15:09:25,0.0
-5776,1252,16152,-91,208,-570,2025-01-29 15:09:25,0.0
-5704,1168,16416,-76,135,-590,2025-01-29 15:09:25,0.0
-5668,1200,16068,-37,149,-680,2025-01-29 15:09:25,0.0
-5596,1420,16080,-42,221,-724,2025-01-29 15:09:25,0.0
-5296,1596,15896,-30,300,-749,2025-01-29 15:09:25,0.0
-5608,1476,16488,64,339,-680,2025-01-29 15:09:25,0.0
-5668,1588,16296,170,314,-617,2025-01-29 15:09:25,0.0
-5824,1532,16344,187,335,-582,2025-01-29 15:09:25,0.0
-5700,1516,16184,113,314,-589,2025-01-29 15:09:25,0.0
-5700,1364,16304,75,297,-631,2025-01-29 15:09:25,0.0
-5676,1340,16260,61,295,-706,2025-01-29 15:09:25,0.0
-5512,1472,16268,45,212,-687,2025-01-29 15:09:25,0.0
-5664,1444,16140,124,166,-631,2025-01-29 15:09:25,0.0
-5756,1460,16220,98,196,-576,2025-01-29 15:09:25,0.0
-5648,1500,16252,70,187,-583,2025-01-29 15:09:25,0.0
-5696,1424,16360,64,163,-561,2025-01-29 15:09:25,0.0
-5584,1388,16304,66,149,-569,2025-01-29 15:09:25,0.0
-5644,1484,16240,87,146,-568,2025-01-29 15:09:25,0.0
-5496,1440,16148,61,183,-563,2025-01-29 15:09:25,0.0
-5560,1440,16304,64,195,-533,2025-01-29 15:09:25,0.0
-5676,1468,16152,28,252,-548,2025-01-29 15:09:25,0.0
-5612,1508,16056,37,325,-545,2025-01-29 15:09:25,0.0
-5660,1444,16000,21,273,-538,2025-01-29 15:09:25,0.0
-5596,1536,16188,-59,251,-573,2025-01-29 15:09:25,0.0
-5720,1480,16092,-128,187,-569,2025-01-29 15:09:25,0.0
-5808,1592,16236,-100,203,-533,2025-01-29 15:09:25,0.0
-5924,1556,16316,-54,83,-522,2025-01-29 15:09:25,0.0
-5940,1532,16200,-53,44,-490,2025-01-29 15:09:25,0.0
-5772,1468,16076,-61,25,-531,2025-01-29 15:09:25,0.0
-5712,1424,16076,-38,-20,-531,2025-01-29 15:09:25,0.0
-5596,1280,15820,-166,-53,-609,2025-01-29 15:09:25,0.0
-5564,1268,16404,-64,34,-549,2025-01-29 15:09:25,0.0
-5660,1264,16196,-41,107,-515,2025-01-29 15:09:25,0.0
-5532,1256,16196,-61,192,-444,2025-01-29 15:09:25,0.0
-5640,1396,16292,-42,193,-433,2025-01-29 15:09:25,0.0
-5680,1392,16360,-35,203,-376,2025-01-29 15:09:25,0.0
-5756,1368,16300,-59,139,-373,2025-01-29 15:09:25,0.0
-5596,1516,16188,-71,63,-332,2025-01-29 15:09:25,0.0
-5600,1492,16208,-83,73,-321,2025-01-29 15:09:25,0.0
-5608,1388,16252,-84,41,-265,2025-01-29 15:09:25,0.0
-5600,1396,16216,-94,97,-273,2025-01-29 15:09:26,0.0
-5720,1616,16176,-150,187,-291,2025-01-29 15:09:26,0.0
-5728,1492,16360,-205,171,-252,2025-01-29 15:09:26,0.0
-5616,1524,16320,-180,145,-226,2025-01-29 15:09:26,0.0
-5576,1400,16260,-162,152,-223,2025-01-29 15:09:26,0.0
-5688,1364,16264,-163,144,-219,2025-01-29 15:09:26,0.0
-5620,1392,16120,-199,134,-202,2025-01-29 15:09:26,0.0
-5616,1320,16240,-223,143,-183,2025-01-29 15:09:26,0.0
-5544,1284,16192,-168,191,-159,2025-01-29 15:09:26,0.0
-5612,1372,16268,-213,290,-181,2025-01-29 15:09:26,0.0
-5800,1428,16280,-210,175,-182,2025-01-29 15:09:26,0.0
-5800,1340,16064,-198,52,-174,2025-01-29 15:09:26,0.0
-5652,1284,16092,-159,-17,-152,2025-01-29 15:09:26,0.0
-5536,1360,16068,-132,-43,-155,2025-01-29 15:09:26,0.0
-5540,1384,16176,-191,41,-183,2025-01-29 15:09:26,0.0
-5604,1420,16376,-146,116,-203,2025-01-29 15:09:26,0.0
-5652,1272,16196,-146,153,-181,2025-01-29 15:09:26,0.0
-5652,1236,16320,-146,150,-170,2025-01-29 15:09:26,0.0
-5676,1348,16116,-158,165,-190,2025-01-29 15:09:26,0.0
-5612,1332,16084,-145,142,-207,2025-01-29 15:09:26,0.0
-5772,1356,16160,-158,134,-199,2025-01-29 15:09:26,0.0
-5600,1324,16144,-166,99,-170,2025-01-29 15:09:26,0.0
-5680,1328,16312,-118,82,-163,2025-01-29 15:09:26,0.0
-5564,1360,16192,-133,77,-159,2025-01-29 15:09:26,0.0
-5556,1452,16372,-134,149,-176,2025-01-29 15:09:26,0.0
-5568,1456,16208,-117,124,-178,2025-01-29 15:09:26,0.0
-5560,1416,16312,-116,134,-158,2025-01-29 15:09:26,0.0
-5544,1324,16304,-101,110,-176,2025-01-29 15:09:26,0.0
-5616,1408,16288,-101,145,-166,2025-01-29 15:09:26,0.0
-5584,1364,16184,-96,148,-196,2025-01-29 15:09:26,0.0
-5584,1400,16288,-118,151,-201,2025-01-29 15:09:26,0.0
-5632,1304,16224,-119,176,-165,2025-01-29 15:09:26,0.0
-5724,1432,16384,-147,174,-187,2025-01-29 15:09:26,0.0
-5680,1344,16080,-104,184,-181,2025-01-29 15:09:26,0.0
-5652,1388,16100,-154,161,-179,2025-01-29 15:09:26,0.0
-5572,1448,16188,-154,161,-169,2025-01-29 15:09:26,0.0
-5660,1464,16316,-148,157,-166,2025-01-29 15:09:26,0.0
-5700,1416,16208,-165,176,-164,2025-01-29 15:09:26,0.0
-5632,1360,16132,-178,182,-155,2025-01-29 15:09:26,0.0
-5532,1368,16132,-162,155,-161,2025-01-29 15:09:26,0.0
-5532,1356,16196,-170,184,-198,2025-01-29 15:09:26,0.0
-5688,1408,16200,-179,243,-193,2025-01-29 15:09:26,0.0
