acceleration_x,acceleration_y,acceleration_z,gyroscope_x,gyroscope_y,gyroscope_z,timestamp,label
-13680,-1172,-1092,-95,149,-194,2025-01-29 15:11:30,0.0
-13724,-1160,-876,-159,77,-205,2025-01-29 15:11:30,0.0
-13708,-1096,-820,-195,21,-164,2025-01-29 15:11:30,0.0
-13612,-1188,-924,-234,-13,-191,2025-01-29 15:11:30,0.0
-13612,-1212,-1000,-240,3,-199,2025-01-29 15:11:30,0.0
-13604,-1136,-924,-309,49,-210,2025-01-29 15:11:30,0.0
-13576,-1164,-956,-287,118,-192,2025-01-29 15:11:30,0.0
-13572,-1236,-1008,-305,130,-202,2025-01-29 15:11:30,0.0
-13612,-1216,-964,-328,144,-220,2025-01-29 15:11:30,0.0
-13696,-1188,-836,-274,114,-204,2025-01-29 15:11:30,0.0
-13728,-1252,-828,-277,83,-208,2025-01-29 15:11:30,0.0
-13668,-1244,-920,-235,25,-168,2025-01-29 15:11:30,0.0
-13620,-1184,-876,-229,51,-178,2025-01-29 15:11:30,0.0
-13516,-1192,-876,-221,134,-169,2025-01-29 15:11:30,0.0
-13576,-1212,-880,-183,184,-174,2025-01-29 15:11:30,0.0
-13608,-1212,-964,-163,228,-178,2025-01-29 15:11:30,0.0
-13768,-1160,-760,-95,256,-187,2025-01-29 15:11:31,0.0
-13740,-1240,-796,-53,205,-179,2025-01-29 15:11:31,0.0
-13704,-1188,-952,-35,140,-152,2025-01-29 15:11:31,0.0
-13524,-1220,-1020,-70,85,-153,2025-01-29 15:11:31,0.0
-13560,-1092,-768,-52,78,-143,2025-01-29 15:11:31,0.0
-13612,-964,-836,-51,113,-135,2025-01-29 15:11:31,0.0
-13556,-1068,-832,-117,161,-143,2025-01-29 15:11:31,0.0
-13656,-1168,-836,-121,176,-164,2025-01-29 15:11:31,0.0
-13592,-1192,-876,-107,186,-160,2025-01-29 15:11:31,0.0
-13648,-1076,-844,-141,203,-177,2025-01-29 15:11:31,0.0
-13612,-1140,-856,-141,159,-151,2025-01-29 15:11:31,0.0
-13628,-1128,-812,-168,98,-176,2025-01-29 15:11:31,0.0
-13600,-1188,-784,-195,110,-166,2025-01-29 15:11:31,0.0
-13612,-1084,-700,-157,186,-174,2025-01-29 15:11:31,0.0
-13616,-1160,-692,-141,178,-169,2025-01-29 15:11:31,0.0
-13680,-1304,-956,-87,156,-179,2025-01-29 15:11:31,0.0
-13504,-1368,-872,-88,123,-212,2025-01-29 15:11:31,0.0
-13680,-1232,-816,-50,135,-224,2025-01-29 15:11:31,0.0
-13664,-1208,-752,-17,204,-226,2025-01-29 15:11:31,0.0
-13628,-1144,-900,21,2,-188,2025-01-29 15:11:31,0.0
-13564,-1240,-1088,49,-108,-162,2025-01-29 15:11:31,0.0
-13432,-1400,-848,70,148,-169,2025-01-29 15:11:31,0.0
-13564,-1216,-840,108,261,-193,2025-01-29 15:11:31,0.0
-13712,-1100,-892,110,177,-216,2025-01-29 15:11:31,0.0
-13732,-1104,-828,114,154,-169,2025-01-29 15:11:31,0.0
-13700,-1152,-812,68,79,-188,2025-01-29 15:11:31,0.0
-13676,-1204,-832,65,82,-166,2025-01-29 15:11:31,0.0
-13692,-1148,-924,50,138,-130,2025-01-29 15:11:31,0.0
-13524,-1188,-880,23,234,-161,2025-01-29 15:11:31,0.0
-13648,-1172,-904,2,270,-182,2025-01-29 15:11:31,0.0
-13600,-1088,-844,-27,221,-145,2025-01-29 15:11:31,0.0
-13792,-1160,-832,-17,217,-92,2025-01-29 15:11:31,0.0
-13636,-1020,-792,37,192,-37,2025-01-29 15:11:31,0.0
-13732,-1204,-816,42,275,38,2025-01-29 15:11:31,0.0
-13704,-1276,-840,33,297,38,2025-01-29 15:11:31,0.0
-13704,-1024,-820,52,243,82,2025-01-29 15:11:31,0.0
-13692,-792,-1116,-42,246,131,2025-01-29 15:11:31,0.0
-13660,-588,-1072,-140,447,130,2025-01-29 15:11:31,0.0
-13780,-740,-1008,-187,537,135,2025-01-29 15:11:31,0.0
-13900,-916,-888,-270,375,189,2025-01-29 15:11:31,0.0
-14008,-1032,-796,-230,187,203,2025-01-29 15:11:31,0.0
-13932,-1000,-892,-252,6,258,2025-01-29 15:11:31,0.0
-13772,-1056,-500,-201,-4,223,2025-01-29 15:11:31,0.0
-13428,-1184,-436,-110,-237,124,2025-01-29 15:11:31,0.0
-13332,-880,-700,-111,-344,20,2025-01-29 15:11:31,0.0
-13284,-396,-900,-136,322,9,2025-01-29 15:11:31,0.0
-13084,-276,-796,-90,1469,80,2025-01-29 15:11:31,0.0
-13352,-436,-348,-5,2200,70,2025-01-29 15:11:31,0.0
-13584,-728,-280,-80,2375,-62,2025-01-29 15:11:31,0.0
-13884,-928,76,-100,1568,-344,2025-01-29 15:11:31,0.0
-14280,-944,-52,-35,338,-476,2025-01-29 15:11:31,0.0
-14568,-860,-588,119,-571,-424,2025-01-29 15:11:31,0.0
-14340,-460,-892,150,-589,-201,2025-01-29 15:11:31,0.0
-13540,-308,-1308,-37,-649,-270,2025-01-29 15:11:31,0.0
-13400,-144,-1324,-254,-1164,-528,2025-01-29 15:11:31,0.0
-13516,-156,-1304,-577,-1451,-676,2025-01-29 15:11:31,0.0
-13400,-412,-1096,-766,-1477,-799,2025-01-29 15:11:31,0.0
-13464,-464,-752,-796,-1521,-956,2025-01-29 15:11:31,0.0
-13616,-320,-980,-947,-1664,-1077,2025-01-29 15:11:31,0.0
-13880,-68,-1228,-1268,-1876,-1148,2025-01-29 15:11:32,0.0
-13972,-228,-1064,-1750,-2398,-1217,2025-01-29 15:11:32,0.0
-14104,-888,-400,-2194,-2894,-1237,2025-01-29 15:11:32,0.0
-13600,-1924,1440,-2003,-3284,-1473,2025-01-29 15:11:32,0.0
-13784,-1788,1500,-955,-3456,-1529,2025-01-29 15:11:32,0.0
-13768,-1244,-264,-492,-3324,-1304,2025-01-29 15:11:32,0.0
-13080,-1088,-868,-598,-2766,-1315,2025-01-29 15:11:32,0.0
-12816,-1380,56,-425,-1464,-1488,2025-01-29 15:11:32,0.0
-13024,-1560,-36,-133,-380,-1404,2025-01-29 15:11:32,0.0
-13012,-1980,128,-212,-579,-1266,2025-01-29 15:11:32,0.0
-13256,-2436,724,-389,-939,-1391,2025-01-29 15:11:32,0.0
-13332,-2440,1600,-192,-760,-1340,2025-01-29 15:11:32,0.0
-13500,-2428,1848,264,-443,-1289,2025-01-29 15:11:32,0.0
-13716,-2316,1876,424,-333,-1214,2025-01-29 15:11:32,0.0
-13724,-2012,1644,176,-346,-1340,2025-01-29 15:11:32,0.0
-14020,-1768,2120,-119,-164,-1329,2025-01-29 15:11:32,0.0
-14216,-1520,1968,-475,59,-1345,2025-01-29 15:11:32,0.0
-14048,-1516,1924,-1255,105,-1588,2025-01-29 15:11:32,0.0
-13972,-1740,2240,-1802,-196,-1867,2025-01-29 15:11:32,0.0
-13732,-2200,2264,-1926,-663,-1994,2025-01-29 15:11:32,0.0
-13472,-2616,2484,-1851,-1143,-2037,2025-01-29 15:11:32,0.0
-13052,-2980,2376,-1631,-1342,-1842,2025-01-29 15:11:32,0.0
-12984,-2856,2168,-1522,-1216,-1816,2025-01-29 15:11:32,0.0
-13028,-2664,2232,-1492,-983,-1579,2025-01-29 15:11:32,0.0
-12940,-2604,2476,-1442,-796,-1142,2025-01-29 15:11:32,
-12620,-2756,2688,-1379,-652,-704,2025-01-29 15:11:32,0.0
-12500,-2864,2588,-1319,-264,-324,2025-01-29 15:11:32,0.0
-12292,-2700,2604,-1297,453,102,2025-01-29 15:11:32,0.0
-12448,-2500,2456,-1257,1285,394,2025-01-29 15:11:32,0.0
-12652,-2416,2008,-1293,1861,644,2025-01-29 15:11:32,0.0
-12772,-2556,1808,-1507,1837,638,2025-01-29 15:11:32,0.0
-13016,-2552,1752,-2001,1584,646,2025-01-29 15:11:32,0.0
-13360,-2088,1452,-2220,1843,749,2025-01-29 15:11:32,0.0
-13600,-1756,684,-2385,2687,1064,2025-01-29 15:11:32,0.0
-13728,-2084,456,-3256,3382,934,2025-01-29 15:11:32,0.0
-14488,-2624,1992,-3801,3607,629,2025-01-29 15:11:32,0.0
-15084,-3188,3060,-3533,2933,606,2025-01-29 15:11:32,0.0
-14968,-3560,3620,-3016,1180,407,2025-01-29 15:11:32,0.0
-14568,-3504,3040,-2673,-569,-12,2025-01-29 15:11:32,0.0
-13760,-3288,2728,-2514,-1494,-383,2025-01-29 15:11:32,0.0
-12952,-2740,1928,-2604,-1527,-817,2025-01-29 15:11:32,0.0
-12496,-2452,1452,-3244,-708,-1444,2025-01-29 15:11:32,0.0
-13140,-2880,1096,-3695,793,-2377,2025-01-29 15:11:32,0.0
-14068,-3976,824,-4066,1709,-3431,2025-01-29 15:11:32,0.0
-14636,-5064,1732,-3949,1950,-4963,2025-01-29 15:11:32,0.0
-16336,-5772,2476,-2783,1191,-5455,2025-01-29 15:11:32,0.0
-17464,-5624,2740,-1202,-157,-4392,2025-01-29 15:11:32,0.0
-16988,-4744,2072,-117,-1396,-3132,2025-01-29 15:11:32,0.0
-16316,-4452,1184,10,-2305,-2874,2025-01-29 15:11:32,0.0
-16848,-4128,944,-372,-3148,-2850,2025-01-29 15:11:32,0.0
-18164,-3920,1472,-461,-4179,-2133,2025-01-29 15:11:32,0.0
-19528,-3880,2224,-43,-5176,150,2025-01-29 15:11:32,0.0
-18200,-3528,2564,1412,-6157,3405,2025-01-29 15:11:32,0.0
-14688,-3376,-152,2402,-5991,4629,2025-01-29 15:11:32,0.0
-12784,-3172,-2288,2111,-4534,4288,2025-01-29 15:11:32,0.0
-12124,-2988,-2592,2064,-2602,3563,2025-01-29 15:11:32,0.0
-11524,-2632,-2444,2099,-1145,2759,2025-01-29 15:11:32,0.0
-11340,-1592,-2124,2089,-227,2072,2025-01-29 15:11:32,0.0
-10900,-208,-1572,2026,487,1424,2025-01-29 15:11:32,0.0
-11224,528,-1728,1718,1037,906,2025-01-29 15:11:32,0.0
-12136,588,-1584,926,1799,684,2025-01-29 15:11:32,0.0
-13468,28,-1140,451,2842,809,2025-01-29 15:11:33,0.0
-14416,-388,-20,642,3892,1415,2025-01-29 15:11:33,0.0
-14684,-1232,304,1066,4610,2341,2025-01-29 15:11:33,0.0
-14976,-1880,556,1167,4153,2629,2025-01-29 15:11:33,0.0
-15336,-1796,904,1283,2752,2815,2025-01-29 15:11:33,0.0
-14872,-1196,992,1430,901,3034,2025-01-29 15:11:33,0.0
-13912,-436,1228,1640,-799,3274,2025-01-29 15:11:33,0.0
-13108,108,1204,1687,-1435,3424,2025-01-29 15:11:33,0.0
-11900,492,604,1476,-1214,3214,2025-01-29 15:11:33,0.0
-11568,684,404,1442,-493,2809,2025-01-29 15:11:33,0.0
-11272,464,344,1782,1078,2193,2025-01-29 15:11:33,0.0
-11512,-12,508,2178,2160,1817,2025-01-29 15:11:33,0.0
-12008,-564,772,2252,2525,1612,2025-01-29 15:11:33,0.0
-12500,-836,1548,2135,2534,1477,2025-01-29 15:11:33,0.0
-13072,-888,2504,2228,2043,1313,2025-01-29 15:11:33,0.0
-12892,-332,2656,2399,1090,1025,2025-01-29 15:11:33,0.0
-12824,16,2284,2354,70,547,2025-01-29 15:11:33,0.0
-12596,224,2092,2404,-624,28,2025-01-29 15:11:33,0.0
-12184,308,2048,2576,-1048,-570,2025-01-29 15:11:33,0.0
-12068,144,2108,2668,-1071,-1002,2025-01-29 15:11:33,0.0
-12252,-12,1704,2431,-725,-1405,2025-01-29 15:11:33,0.0
-12652,-4,1700,2122,-214,-1846,2025-01-29 15:11:33,0.0
-13952,280,2556,1978,-370,-1738,2025-01-29 15:11:33,0.0
-14612,280,3220,1826,-1471,-1333,2025-01-29 15:11:33,0.0
-15092,528,2684,1846,-3681,-738,2025-01-29 15:11:33,0.0
-15228,532,2008,2350,-5089,71,2025-01-29 15:11:33,0.0
-14112,-88,1360,2929,-4440,684,2025-01-29 15:11:33,0.0
-12892,-500,1012,3136,-2853,684,2025-01-29 15:11:33,0.0
-13472,172,1440,3252,-605,628,2025-01-29 15:11:33,0.0
-14464,720,3236,3986,1340,1122,2025-01-29 15:11:33,0.0
-14936,744,4812,4911,2642,1577,2025-01-29 15:11:33,0.0
-14836,44,5684,5775,2911,1419,2025-01-29 15:11:33,0.0
-15548,-216,5116,6320,2408,851,2025-01-29 15:11:33,0.0
-17972,-444,2836,7020,2436,1429,2025-01-29 15:11:33,0.0
-18116,884,696,7123,2458,1624,2025-01-29 15:11:33,0.0
-19136,3576,-2096,5479,2957,2359,2025-01-29 15:11:33,0.0
-18808,4752,-4624,2715,3048,3608,2025-01-29 15:11:33,0.0
-17596,4920,-5068,-468,2156,4178,2025-01-29 15:11:33,0.0
-16008,4576,-3244,-2641,1776,3292,2025-01-29 15:11:33,0.0
-14740,3648,-2076,-3806,665,1827,2025-01-29 15:11:33,0.0
-12644,260,-1892,-4582,-3229,-370,2025-01-29 15:11:33,0.0
-10972,-2928,-1496,-4590,-7599,-2044,2025-01-29 15:11:33,0.0
-10716,-4112,-1428,-3713,-8124,-2622,2025-01-29 15:11:33,0.0
-11684,-4984,-2720,-2641,-4049,-1750,2025-01-29 15:11:33,0.0
-11748,-4952,-2612,-1393,2762,-1006,2025-01-29 15:11:33,0.0
-11804,-3676,-2688,-159,8522,-1284,2025-01-29 15:11:33,0.0
-12856,-1676,-1196,180,11644,-1814,2025-01-29 15:11:33,0.0
-14300,-276,356,-97,10767,-2530,2025-01-29 15:11:33,0.0
-14756,168,180,-1061,6475,-3767,2025-01-29 15:11:33,0.0
-16188,268,140,-1904,842,-4408,2025-01-29 15:11:33,0.0
-16864,-144,440,-1941,-5579,-3636,2025-01-29 15:11:33,0.0
-15080,-860,-608,-1787,-8169,-2566,2025-01-29 15:11:33,0.0
-12740,-1584,-712,-2195,-8570,-1854,2025-01-29 15:11:33,0.0
-11748,-2064,-308,-2628,-7486,-1741,2025-01-29 15:11:33,0.0
-10016,-2264,-404,-2620,-5089,-1681,2025-01-29 15:11:33,0.0
-9996,-2120,-632,-2341,-1426,-1690,2025-01-29 15:11:33,0.0
-10436,-1548,-840,-2343,1380,-1863,2025-01-29 15:11:33,0.0
-11492,-976,-616,-3053,2588,-2220,2025-01-29 15:11:33,0.0
-12940,-752,448,-3633,2380,-2256,2025-01-29 15:11:33,0.0
-13928,-736,596,-3763,828,-1610,2025-01-29 15:11:33,0.0
-13784,-720,44,-4070,-920,-664,2025-01-29 15:11:33,0.0
-12648,-1080,-776,-4647,-1762,-32,2025-01-29 15:11:33,0.0
-12368,-900,-764,-5495,-1455,502,2025-01-29 15:11:34,0.0
-12388,-128,-328,-6142,-161,922,2025-01-29 15:11:34,
-12480,560,-652,-6963,882,1049,2025-01-29 15:11:34,0.0
-12824,1140,-956,-8159,934,901,2025-01-29 15:11:34,0.0
-14000,1280,-1172,-9994,696,804,2025-01-29 15:11:34,0.0
-14692,1172,-1068,-11456,282,1025,2025-01-29 15:11:34,0.0
-14552,1176,-448,-12704,-591,1304,2025-01-29 15:11:34,0.0
-14592,796,-368,-13836,-1909,1555,2025-01-29 15:11:34,0.0
-13512,448,-1236,-14869,-3364,1547,2025-01-29 15:11:34,0.0
-13380,556,-1524,-16065,-4074,1467,2025-01-29 15:11:34,0.0
-11504,1144,-2184,-17459,-4401,1202,2025-01-29 15:11:34,0.0
-11132,1132,-2600,-18788,-3562,721,2025-01-29 15:11:34,0.0
-11148,280,-3864,-20216,-1450,449,2025-01-29 15:11:34,0.0
-11908,-1108,-3732,-21944,1923,-218,2025-01-29 15:11:34,0.0
-13376,-2104,-2728,-22955,4711,-1081,2025-01-29 15:11:34,0.0
-14736,-3324,-1800,-23614,5815,-2057,2025-01-29 15:11:34,0.0
-15264,-4752,-1252,-24057,4950,-3070,2025-01-29 15:11:34,0.0
-15612,-5380,-268,-24056,2971,-3956,2025-01-29 15:11:34,0.0
-16112,-5888,1300,-23835,425,-4003,2025-01-29 15:11:34,0.0
-15892,-5964,3256,-22963,-1106,-3182,2025-01-29 15:11:34,0.0
-15400,-6108,3396,-21886,-1714,-2114,2025-01-29 15:11:34,0.0
-15140,-6212,2928,-21200,-1992,-1121,2025-01-29 15:11:34,0.0
-14404,-3832,200,-20251,-2027,-578,2025-01-29 15:11:34,0.0
-15004,-1944,-2724,-19335,-2113,-914,2025-01-29 15:11:34,0.0
-15564,-2844,-4064,-18601,-1487,-1523,2025-01-29 15:11:34,0.0
-14136,-4444,-1988,-17348,-113,-2680,2025-01-29 15:11:34,0.0
-13000,-5308,-328,-15591,2161,-4156,2025-01-29 15:11:34,0.0
-12344,-2892,-104,-14170,4743,-5438,2025-01-29 15:11:34,0.0
-12200,52,-1132,-14032,6326,-5403,2025-01-29 15:11:34,0.0
-12740,620,-3000,-14129,6699,-4349,2025-01-29 15:11:34,0.0
-13184,-32,-5560,-14650,7886,-3436,2025-01-29 15:11:34,0.0
-13288,-512,-6272,-16195,10706,-3420,2025-01-29 15:11:34,0.0
-13944,-408,-4268,-17247,12365,-3967,2025-01-29 15:11:34,0.0
-15060,300,-2456,-17477,11493,-4236,2025-01-29 15:11:34,0.0
-16572,404,-1836,-17379,8413,-3726,2025-01-29 15:11:34,0.0
-17416,428,-1512,-17081,3139,-2383,2025-01-29 15:11:34,0.0
-15844,296,-2176,-16650,-736,-1126,2025-01-29 15:11:34,0.0
-14052,-384,-3680,-16875,-2523,-580,2025-01-29 15:11:34,0.0
-12540,-192,-4916,-17461,-2866,-506,2025-01-29 15:11:34,0.0
-11400,-120,-5756,-18238,-1825,-1152,2025-01-29 15:11:34,0.0
-11328,-120,-4128,-18101,-271,-1764,2025-01-29 15:11:34,0.0
-11232,-1376,-2520,-16992,1223,-1925,2025-01-29 15:11:34,0.0
-10912,-2556,-1900,-15671,1581,-2244,2025-01-29 15:11:34,0.0
-11356,-3072,-2152,-14768,1421,-2654,2025-01-29 15:11:34,0.0
-11952,-2860,-3308,-14559,1060,-3134,2025-01-29 15:11:34,0.0
-12196,-2296,-3288,-14687,747,-3700,2025-01-29 15:11:34,0.0
-12612,-1312,-3644,-14713,686,-4187,2025-01-29 15:11:34,0.0
-13004,-224,-4156,-15211,773,-4444,2025-01-29 15:11:34,0.0
-12816,904,-4760,-15956,1054,-4550,2025-01-29 15:11:34,0.0
-12804,1108,-5320,-16755,1157,-4555,2025-01-29 15:11:34,0.0
-12752,572,-5784,-17538,999,-4308,2025-01-29 15:11:34,0.0
-12236,-104,-6128,-18302,902,-3990,2025-01-29 15:11:34,0.0
-11704,-720,-6424,-19121,1070,-3677,2025-01-29 15:11:34,0.0
-11652,-1272,-6268,-19761,1090,-3503,2025-01-29 15:11:34,0.0
-10944,-1764,-5860,-20202,188,-3684,2025-01-29 15:11:34,0.0
-10424,-2088,-5280,-20577,-609,-4061,2025-01-29 15:11:34,0.0
-9824,-2084,-4368,-20499,-605,-4381,2025-01-29 15:11:34,0.0
-9592,-2244,-4692,-20230,-569,-4525,2025-01-29 15:11:34,0.0
-9144,-2444,-4900,-20192,-884,-4689,2025-01-29 15:11:34,0.0
-8952,-2904,-4160,-19690,-1042,-4971,2025-01-29 15:11:34,0.0
-8820,-3940,-3920,-18882,-974,-5389,2025-01-29 15:11:35,0.0
-8592,-4276,-3832,-18270,-608,-6201,2025-01-29 15:11:35,0.0
-8796,-4136,-3268,-17460,410,-7141,2025-01-29 15:11:35,0.0
-9492,-3564,-2820,-16283,575,-7896,2025-01-29 15:11:35,0.0
-5800,-3292,-8588,-15512,379,-7568,2025-01-29 15:11:35,0.0
-12740,-2972,-1968,-14719,-892,-6519,2025-01-29 15:11:35,0.0
-10292,-3144,-2084,-13528,-2090,-5226,2025-01-29 15:11:35,0.0
-10764,-3632,-1536,-12373,-3749,-4634,2025-01-29 15:11:35,0.0
-11120,-4204,-2252,-11235,-4495,-4127,2025-01-29 15:11:35,0.0
-12380,-4876,-3248,-10626,-4310,-3285,2025-01-29 15:11:35,0.0
-12912,-5580,-3108,-10531,-3631,-2954,2025-01-29 15:11:35,0.0
-13516,-5844,-1168,-10499,-2417,-3650,2025-01-29 15:11:35,0.0
-15588,-5060,1064,-9869,-2452,-4279,2025-01-29 15:11:35,0.0
-16616,-4604,1468,-8791,-4047,-3925,2025-01-29 15:11:35,0.0
-16548,-3764,-1476,-8653,-6027,-2535,2025-01-29 15:11:35,0.0
-15776,-2236,-2768,-8583,-10625,-1942,2025-01-29 15:11:35,0.0
-16332,-1976,-6452,-9378,-5931,-2478,2025-01-29 15:11:35,0.0
-12192,-4096,-1520,-11362,-14018,-2644,2025-01-29 15:11:35,0.0
-10288,-3232,220,-10926,-12058,-3327,2025-01-29 15:11:35,0.0
-10212,-1376,3104,-10434,-11332,-3476,2025-01-29 15:11:35,0.0
-14072,-720,32,-10538,-8815,-2093,2025-01-29 15:11:35,0.0
-15744,-1520,-1024,-11958,-6833,-394,2025-01-29 15:11:35,0.0
-17048,-4280,880,-12425,-5643,1135,2025-01-29 15:11:35,0.0
-19760,-7112,100,-11426,-6223,2633,2025-01-29 15:11:35,0.0
-19220,-6696,1228,-11400,-8923,2686,2025-01-29 15:11:35,0.0
-17316,-4296,5544,-11088,-11906,3110,2025-01-29 15:11:35,0.0
-12196,-1456,5124,-10646,-14736,3014,2025-01-29 15:11:35,0.0
-12248,-1100,7024,-9166,-17270,3490,2025-01-29 15:11:35,0.0
-10204,-1536,7580,-7299,-17243,3625,2025-01-29 15:11:35,0.0
-9640,-2236,7300,-6091,-15769,3219,2025-01-29 15:11:35,0.0
-10752,-2276,7496,-6306,-13656,2199,2025-01-29 15:11:35,0.0
-11424,-660,8632,-6691,-13191,1744,2025-01-29 15:11:35,0.0
-11052,832,9180,-5910,-13771,1917,2025-01-29 15:11:35,0.0
-11596,852,9844,-4475,-14623,2393,2025-01-29 15:11:35,0.0
-12064,540,9640,-3538,-15371,2929,2025-01-29 15:11:35,0.0
-11608,512,9528,-3069,-15079,3140,2025-01-29 15:11:35,0.0
-11476,852,9328,-2920,-14878,3314,2025-01-29 15:11:35,0.0
-11244,1180,9916,-2512,-14201,3661,2025-01-29 15:11:35,0.0
-9860,904,10320,-1774,-13750,3917,2025-01-29 15:11:35,0.0
-13088,476,12428,-1142,-14094,3898,2025-01-29 15:11:35,0.0
-14136,1348,13380,-738,-14525,3802,2025-01-29 15:11:35,0.0
-14768,2092,14148,-543,-15220,3878,2025-01-29 15:11:35,
-13568,2340,13276,-624,-15533,3903,2025-01-29 15:11:35,0.0
-11728,1616,13168,-885,-14273,3810,2025-01-29 15:11:35,0.0
-12104,2016,14512,-894,-7929,3782,2025-01-29 15:11:35,0.0
-11148,1924,13204,-1899,-8346,3521,2025-01-29 15:11:35,0.0
-11208,1228,13832,-2309,-8527,3179,2025-01-29 15:11:35,0.0
-9812,988,13688,-2403,-8328,2719,2025-01-29 15:11:35,0.0
-10104,1128,15032,-2406,-6764,2220,2025-01-29 15:11:35,0.0
-10072,1016,14360,-2407,-4621,1711,2025-01-29 15:11:35,0.0
-9576,808,12776,-2357,-1856,1495,2025-01-29 15:11:35,0.0
-9640,628,13252,-2515,418,1164,2025-01-29 15:11:35,0.0
-9880,772,13124,-2518,685,1062,2025-01-29 15:11:35,0.0
-9872,640,13560,-2441,366,1203,2025-01-29 15:11:35,0.0
-9844,456,14156,-2269,-392,1318,2025-01-29 15:11:35,0.0
-9248,988,14200,-2313,-857,1693,2025-01-29 15:11:35,0.0
-10328,672,13972,-2348,-1219,1947,2025-01-29 15:11:35,0.0
-9820,620,15612,-2610,-1111,1666,2025-01-29 15:11:35,0.0
-10252,752,16912,-2813,-2008,1413,2025-01-29 15:11:35,0.0
-9520,56,16352,-3000,-3040,1135,2025-01-29 15:11:35,0.0
-9028,-504,14880,-2011,-2329,1327,2025-01-29 15:11:36,0.0
-8636,-316,14112,-1500,-1413,1115,2025-01-29 15:11:36,0.0
-8356,132,13776,-965,-612,840,2025-01-29 15:11:36,0.0
-8580,816,13616,-510,-560,845,2025-01-29 15:11:36,0.0
-9088,880,13952,-617,-1240,1040,2025-01-29 15:11:36,0.0
-8632,820,13752,-1110,-1957,1205,2025-01-29 15:11:36,0.0
-8124,680,13764,-1707,-2056,1014,2025-01-29 15:11:36,0.0
-8756,176,14204,-1337,-636,840,2025-01-29 15:11:36,0.0
-8492,168,14124,-1125,162,725,2025-01-29 15:11:36,0.0
-9064,484,13792,-1169,153,637,2025-01-29 15:11:36,0.0
-8772,472,13576,-1392,-463,667,2025-01-29 15:11:36,0.0
-9004,464,13328,-1480,-712,763,2025-01-29 15:11:36,0.0
-8776,272,13336,-1471,-1064,932,2025-01-29 15:11:36,0.0
-8404,268,14372,-1255,-1032,938,2025-01-29 15:11:36,0.0
-9188,524,14132,-1273,-1778,847,2025-01-29 15:11:36,0.0
-8760,452,14424,-1266,-2225,666,2025-01-29 15:11:36,0.0
-8236,552,14328,-1055,-2024,541,2025-01-29 15:11:36,0.0
-7952,668,14552,-898,-1688,364,2025-01-29 15:11:36,0.0
-7500,1048,14112,-1046,-1007,6,2025-01-29 15:11:36,0.0
-7296,848,14124,-968,-44,-300,2025-01-29 15:11:36,0.0
-7652,944,14516,-739,382,-247,2025-01-29 15:11:36,0.0
-8028,1216,14500,-526,-19,4,2025-01-29 15:11:36,0.0
-8192,1072,14196,-414,-482,244,2025-01-29 15:11:36,0.0
-8060,928,14276,-329,-766,157,2025-01-29 15:11:36,0.0
-7904,752,13720,-380,-820,-68,2025-01-29 15:11:36,0.0
-8392,416,13596,-772,-533,-310,2025-01-29 15:11:36,0.0
-8436,512,14072,-1086,-423,-435,2025-01-29 15:11:36,0.0
-8392,384,14732,-1029,49,-209,2025-01-29 15:11:36,0.0
-8180,136,14756,-877,511,-68,2025-01-29 15:11:36,0.0
-8232,228,14628,-519,652,89,2025-01-29 15:11:36,0.0
-8464,596,14384,-239,663,119,2025-01-29 15:11:36,0.0
-8692,860,14080,-238,529,136,2025-01-29 15:11:36,0.0
-8592,944,14084,-337,240,234,2025-01-29 15:11:36,0.0
-8464,616,14048,-489,9,176,2025-01-29 15:11:36,0.0
-8352,504,14120,-556,56,42,2025-01-29 15:11:36,0.0
-8436,368,14156,-505,239,-120,2025-01-29 15:11:36,0.0
-8424,604,14304,-435,352,-208,2025-01-29 15:11:36,0.0
-8408,816,14112,-421,433,-181,2025-01-29 15:11:36,0.0
-8320,952,14172,-490,476,-160,2025-01-29 15:11:36,0.0
-8424,840,14144,-571,495,-170,2025-01-29 15:11:36,0.0
-8560,552,14192,-578,382,-197,2025-01-29 15:11:36,0.0
-8612,408,14044,-551,319,-265,2025-01-29 15:11:36,0.0
-8628,372,14068,-507,275,-292,2025-01-29 15:11:36,0.0
-8640,300,14016,-423,209,-271,2025-01-29 15:11:36,0.0
-8776,424,13916,-323,156,-213,2025-01-29 15:11:36,0.0
-8648,376,14064,-333,129,-144,2025-01-29 15:11:36,0.0
-8528,440,13840,-438,183,-107,2025-01-29 15:11:36,0.0
-8548,328,14136,-474,208,-127,2025-01-29 15:11:36,0.0
-8512,316,14088,-446,192,-179,2025-01-29 15:11:36,0.0
-8524,188,14152,-442,191,-264,2025-01-29 15:11:36,0.0
-8508,344,14236,-404,192,-289,2025-01-29 15:11:36,0.0
-8540,412,14136,-401,203,-288,2025-01-29 15:11:36,0.0
-8668,440,14220,-357,168,-261,2025-01-29 15:11:36,0.0
-8552,496,13908,-308,146,-278,2025-01-29 15:11:36,0.0
-8620,392,14172,-284,126,-255,2025-01-29 15:11:36,0.0
-8612,384,14008,-264,135,-250,2025-01-29 15:11:36,0.0
-8508,524,14148,-106,93,-191,2025-01-29 15:11:36,0.0
-8532,408,14208,-98,79,-146,2025-01-29 15:11:36,0.0
-8396,560,14096,-163,68,-77,2025-01-29 15:11:36,0.0
-8444,488,14064,-198,-93,-107,2025-01-29 15:11:36,0.0
-8400,464,14264,-237,-217,-169,2025-01-29 15:11:37,0.0
-8336,496,14156,-339,-199,-251,2025-01-29 15:11:37,0.0
-8448,412,14568,-281,-20,-311,2025-01-29 15:11:37,0.0
-8472,252,14440,-208,83,-284,2025-01-29 15:11:37,0.0
-8508,312,14252,-198,201,-246,2025-01-29 15:11:37,0.0
-8532,328,14092,-223,196,-232,2025-01-29 15:11:37,0.0
-8536,256,14304,-280,163,-249,2025-01-29 15:11:37,0.0
-8488,248,14128,-306,96,-277,2025-01-29 15:11:37,0.0
-8504,256,14080,-276,80,-313,2025-01-29 15:11:37,0.0
-8456,324,14116,-251,62,-318,2025-01-29 15:11:37,0.0
-8312,372,14208,-256,95,-268,2025-01-29 15:11:37,0.0
-8524,492,14180,-289,161,-317,2025-01-29 15:11:37,0.0
-8368,380,14100,-259,186,-324,2025-01-29 15:11:37,0.0
-8560,432,14672,-151,78,-283,2025-01-29 15:11:37,0.0
-8528,224,14004,-84,-69,-247,2025-01-29 15:11:37,0.0
-8376,200,14104,-136,114,-280,2025-01-29 15:11:37,0.0
-8580,208,14012,-297,106,-324,2025-01-29 15:11:37,0.0
-8600,268,14016,-191,-67,-295,2025-01-29 15:11:37,0.0
-8492,296,14124,-132,-153,-251,2025-01-29 15:11:37,0.0
-8388,308,14096,-134,-198,-212,2025-01-29 15:11:37,0.0
-8256,348,14152,-169,-188,-214,2025-01-29 15:11:37,0.0
-8400,388,14368,-178,-53,-220,2025-01-29 15:11:37,
-8212,288,14320,-169,78,-201,2025-01-29 15:11:37,0.0
-8256,268,14216,-201,185,-204,2025-01-29 15:11:37,0.0
-8292,324,14404,-184,275,-250,2025-01-29 15:11:37,0.0
-8488,332,14268,-183,234,-228,2025-01-29 15:11:37,0.0
-8428,276,14208,-207,179,-217,2025-01-29 15:11:37,0.0
-8364,340,14196,-200,194,-178,2025-01-29 15:11:37,0.0
-8504,260,14180,-167,151,-147,2025-01-29 15:11:37,0.0
-8440,316,14144,-179,143,-149,2025-01-29 15:11:37,0.0
-8412,316,14232,-212,159,-166,2025-01-29 15:11:37,0.0
-8368,412,14336,-185,180,-136,2025-01-29 15:11:37,0.0
-8496,336,14188,-188,182,-135,2025-01-29 15:11:37,0.0
-8372,328,14344,-162,181,-159,2025-01-29 15:11:37,0.0
-8460,244,14100,-107,175,-168,2025-01-29 15:11:37,0.0
-8460,300,14312,-120,83,-148,2025-01-29 15:11:37,0.0
-8480,268,14252,-140,141,-203,2025-01-29 15:11:37,0.0
-8440,348,14148,-179,161,-176,2025-01-29 15:11:37,0.0
-8412,276,14272,-144,108,-159,2025-01-29 15:11:37,0.0
-8396,292,14232,-162,114,-148,2025-01-29 15:11:37,0.0
-8300,340,14236,-157,166,-213,2025-01-29 15:11:37,0.0
-8352,352,14356,-146,174,-196,2025-01-29 15:11:37,0.0
-8400,336,14168,-133,212,-197,2025-01-29 15:11:37,0.0
-8368,336,14048,-145,224,-197,2025-01-29 15:11:37,0.0
-8352,276,14352,-133,233,-201,2025-01-29 15:11:37,0.0
-8504,308,14200,-173,208,-179,2025-01-29 15:11:37,0.0
-8480,232,14064,-149,139,-200,2025-01-29 15:11:37,0.0
-8476,328,14296,-148,167,-165,2025-01-29 15:11:37,0.0
-8412,240,14244,-166,144,-189,2025-01-29 15:11:37,0.0
-8480,368,14168,-133,151,-153,2025-01-29 15:11:37,0.0
-8372,304,14252,-137,110,-170,2025-01-29 15:11:37,0.0
-8396,276,14240,-154,148,-172,2025-01-29 15:11:37,0.0
-8464,384,14276,-167,225,-229,2025-01-29 15:11:37,0.0
-8452,472,14208,-169,226,-214,2025-01-29 15:11:37,0.0
-8448,340,14240,-152,234,-152,2025-01-29 15:11:37,0.0
-8480,156,14252,-135,177,-161,2025-01-29 15:11:37,0.0
-8264,316,14208,-142,201,-146,2025-01-29 15:11:37,0.0
-8436,244,14392,-249,228,-170,2025-01-29 15:11:37,0.0
-8576,348,14208,-219,190,-200,2025-01-29 15:11:37,0.0
-8460,316,14132,-114,69,-162,2025-01-29 15:11:38,0.0
-8428,296,14100,-78,-29,-123,2025-01-29 15:11:38,0.0
-8256,252,14116,-88,-96,-105,2025-01-29 15:11:38,0.0
-8300,236,14112,-128,-63,-156,2025-01-29 15:11:38,0.0
-8248,300,14108,-145,66,-206,2025-01-29 15:11:38,0.0
-8376,332,14300,-169,205,-229,2025-01-29 15:11:38,0.0
-8424,280,14352,-179,283,-237,2025-01-29 15:11:38,0.0
-8492,300,14164,-141,268,-232,2025-01-29 15:11:38,0.0
-8404,244,14288,-113,241,-248,2025-01-29 15:11:38,0.0
-8584,272,14272,-52,234,-250,2025-01-29 15:11:38,0.0
-8548,332,14444,53,243,-217,2025-01-29 15:11:38,0.0
-8740,532,14436,199,291,-128,2025-01-29 15:11:38,0.0
-8544,512,14380,410,619,34,2025-01-29 15:11:38,0.0
-7784,904,13504,755,1444,277,2025-01-29 15:11:38,0.0
-7736,1368,13612,802,3907,-502,2025-01-29 15:11:38,0.0
-9312,852,13892,1046,5866,-1125,2025-01-29 15:11:38,0.0
-11516,384,13740,994,3734,-707,2025-01-29 15:11:38,0.0
-11612,-84,13124,697,-484,120,2025-01-29 15:11:38,0.0
-9396,-24,13032,43,-3185,795,2025-01-29 15:11:38,0.0
-7468,252,13376,-145,-2181,964,2025-01-29 15:11:38,0.0
-6752,408,13908,-43,-578,832,2025-01-29 15:11:38,0.0
-7312,396,14100,-66,-98,602,2025-01-29 15:11:38,0.0
-7608,420,13492,-356,-139,175,2025-01-29 15:11:38,0.0
-8144,644,14368,-467,376,-112,2025-01-29 15:11:38,0.0
-8576,828,14364,-429,279,-150,2025-01-29 15:11:38,0.0
-8408,956,14324,-417,221,-8,2025-01-29 15:11:38,0.0
-8008,1012,14292,-365,312,174,2025-01-29 15:11:38,0.0
-8120,704,14404,-427,47,315,2025-01-29 15:11:38,0.0
-8068,308,14612,-387,-238,412,2025-01-29 15:11:38,0.0
-7992,-12,14380,-346,-224,326,2025-01-29 15:11:38,0.0
-8140,-328,13896,-341,219,168,2025-01-29 15:11:38,0.0
-8104,-188,13508,-461,628,176,2025-01-29 15:11:38,0.0
-8216,-140,13568,-578,836,277,2025-01-29 15:11:38,0.0
-8360,-48,14000,-490,938,380,2025-01-29 15:11:38,0.0
-8416,160,13856,-262,557,365,2025-01-29 15:11:38,0.0
-8240,432,13804,-244,40,229,2025-01-29 15:11:38,0.0
-8020,396,13884,-115,44,110,2025-01-29 15:11:38,0.0
-7840,388,13548,91,146,293,2025-01-29 15:11:38,0.0
-7988,608,13012,127,-12,671,2025-01-29 15:11:38,0.0
-8832,1024,13608,192,-42,801,2025-01-29 15:11:38,0.0
-9812,1032,14300,493,232,609,2025-01-29 15:11:38,0.0
-10112,1176,14404,254,201,306,2025-01-29 15:11:38,0.0
-10288,1284,14180,-371,-566,293,2025-01-29 15:11:38,0.0
-9004,1432,13892,-666,-1356,144,2025-01-29 15:11:38,0.0
-8620,1464,14332,-690,-2015,314,2025-01-29 15:11:38,0.0
-8476,752,14416,-358,-2235,526,2025-01-29 15:11:38,0.0
-7452,808,14144,-225,-1914,830,2025-01-29 15:11:38,0.0
-7192,620,14440,-166,-1496,852,2025-01-29 15:11:38,0.0
-6720,684,14172,-103,-359,742,2025-01-29 15:11:38,0.0
-6848,892,14928,-456,777,548,2025-01-29 15:11:38,0.0
-7104,956,15100,-643,2318,-42,2025-01-29 15:11:38,0.0
-6984,1380,14340,-988,3330,-226,2025-01-29 15:11:38,0.0
-7164,608,15396,-498,5391,-1006,2025-01-29 15:11:38,0.0
-10100,120,14884,-483,7738,-1007,2025-01-29 15:11:38,0.0
-11876,84,14464,-249,7906,-183,2025-01-29 15:11:38,0.0
-12432,492,14744,-163,5640,1003,2025-01-29 15:11:38,0.0
-11840,1444,16468,-84,2797,2010,2025-01-29 15:11:38,0.0
-11152,2668,16828,25,411,2791,2025-01-29 15:11:38,0.0
-11464,1216,17908,314,1992,3560,2025-01-29 15:11:38,0.0
-10172,540,17984,240,1937,3529,2025-01-29 15:11:38,0.0
-8580,804,17924,344,2749,2561,2025-01-29 15:11:38,0.0
-8752,420,18604,425,2377,1507,2025-01-29 15:11:39,0.0
-7968,220,17400,347,2225,785,2025-01-29 15:11:39,
-8532,300,16444,658,2642,295,2025-01-29 15:11:39,0.0
-9172,912,16484,1206,3660,7,2025-01-29 15:11:39,0.0
-9780,1916,15940,1684,5245,-369,2025-01-29 15:11:39,0.0
-11216,2356,15684,1922,6933,-558,2025-01-29 15:11:39,0.0
-11628,2292,14960,1982,7866,-575,2025-01-29 15:11:39,0.0
-10488,2128,14044,1941,8059,-516,2025-01-29 15:11:39,0.0
-10344,1372,13744,1992,7605,-505,2025-01-29 15:11:39,0.0
-10508,1000,13080,1881,7088,-748,2025-01-29 15:11:39,0.0
-10764,1432,12336,1602,7359,-936,2025-01-29 15:11:39,0.0
-11056,1824,12032,1505,8123,-944,2025-01-29 15:11:39,0.0
-11492,1928,11468,1577,8715,-714,2025-01-29 15:11:39,0.0
-11196,1440,10784,1768,8950,-778,2025-01-29 15:11:39,0.0
-11308,1304,10992,1775,8877,-828,2025-01-29 15:11:39,0.0
-11272,1416,11136,1667,8237,-750,2025-01-29 15:11:39,0.0
-10816,1324,10692,1451,7307,-582,2025-01-29 15:11:39,0.0
-11084,1568,10344,1281,7057,-351,2025-01-29 15:11:39,0.0
-13208,1008,10148,1004,6475,-69,2025-01-29 15:11:39,0.0
-10220,1228,9248,580,6240,-197,2025-01-29 15:11:39,0.0
-10516,1372,9296,619,7470,-380,2025-01-29 15:11:39,0.0
-10656,1676,9180,554,8812,-465,2025-01-29 15:11:39,0.0
-11092,1640,8632,731,9942,-526,2025-01-29 15:11:39,0.0
-11824,1436,8472,557,9931,-577,2025-01-29 15:11:39,0.0
-12200,1480,8544,414,9413,-686,2025-01-29 15:11:39,0.0
-12176,1496,8420,259,8696,-738,2025-01-29 15:11:39,0.0
-13300,1332,7852,55,8527,-685,2025-01-29 15:11:39,0.0
-12756,1408,6436,59,7952,-741,2025-01-29 15:11:39,0.0
-13008,1260,5212,-179,8322,-762,2025-01-29 15:11:39,0.0
-12800,1224,6128,-606,8190,-828,2025-01-29 15:11:39,0.0
-12860,1024,5556,-1054,8082,-859,2025-01-29 15:11:39,0.0
-13124,1148,5536,-1337,8244,-907,2025-01-29 15:11:39,0.0
-13584,1016,5060,-1592,8756,-1085,2025-01-29 15:11:39,0.0
-14340,1084,5196,-1736,9354,-1590,2025-01-29 15:11:39,0.0
-14876,1000,4700,-1534,9497,-1451,2025-01-29 15:11:39,0.0
-14352,884,4408,-2037,8303,-1447,2025-01-29 15:11:39,0.0
-14028,364,4472,-2269,6677,-1524,2025-01-29 15:11:39,0.0
-14848,28,4712,-1891,5704,-1266,2025-01-29 15:11:39,0.0
-14544,220,4664,-1386,5977,-1202,2025-01-29 15:11:39,0.0
-13552,196,3868,-1062,6381,-1286,2025-01-29 15:11:39,0.0
-13464,-16,4168,-708,5974,-1353,2025-01-29 15:11:39,0.0
-13376,-352,3768,-316,5503,-1498,2025-01-29 15:11:39,0.0
-13072,-944,3548,-39,5585,-1669,2025-01-29 15:11:39,0.0
-12472,-1548,3020,188,6385,-2023,2025-01-29 15:11:39,0.0
-17640,-3992,1828,-424,6234,-2713,2025-01-29 15:11:39,0.0
-12660,-1028,2484,-68,5598,-3163,2025-01-29 15:11:39,0.0
-12316,-52,160,-400,5107,-4104,2025-01-29 15:11:39,0.0
-13400,1312,164,-924,6278,-4374,2025-01-29 15:11:39,0.0
-13844,2280,1044,-1238,6961,-3864,2025-01-29 15:11:39,0.0
-14500,1748,1656,-1291,6381,-2295,2025-01-29 15:11:39,0.0
-14332,-4,1632,-922,4291,-947,2025-01-29 15:11:39,0.0
-14144,-1216,1272,-672,2192,-86,2025-01-29 15:11:39,0.0
-13852,-1688,1428,98,199,735,2025-01-29 15:11:39,0.0
-13424,-1188,2120,1300,-1441,1667,2025-01-29 15:11:39,0.0
-12884,-120,2004,2413,-2904,2539,2025-01-29 15:11:39,0.0
-11492,664,780,3150,-4096,2859,2025-01-29 15:11:39,0.0
-10380,584,-352,2975,-4777,2529,2025-01-29 15:11:39,0.0
-10120,888,-596,2769,-4327,2290,2025-01-29 15:11:39,0.0
-9568,1188,-192,2850,-3513,2205,2025-01-29 15:11:39,0.0
-8372,1572,424,3090,-2121,1808,2025-01-29 15:11:39,0.0
-7432,1680,1696,3183,-51,715,2025-01-29 15:11:39,0.0
-7264,2000,1448,2849,1830,-843,2025-01-29 15:11:39,0.0
-9396,2548,-360,1944,3183,-2042,2025-01-29 15:11:40,0.0
-11140,4004,-592,1592,4747,-2623,2025-01-29 15:11:40,0.0
-12620,5716,168,1252,7205,-2696,2025-01-29 15:11:40,0.0
-14208,5460,1208,448,10203,-2058,2025-01-29 15:11:40,0.0
-16040,4836,1832,-131,12049,-815,2025-01-29 15:11:40,0.0
-16916,3848,1916,-454,10971,1003,2025-01-29 15:11:40,0.0
-15968,2896,1836,-831,6859,1944,2025-01-29 15:11:40,0.0
-14780,1932,1808,-1524,1204,1681,2025-01-29 15:11:40,0.0
-14544,1120,2240,-2111,-3125,869,2025-01-29 15:11:40,0.0
-14608,484,3500,-1905,-5217,338,2025-01-29 15:11:40,0.0
-13700,48,4008,-714,-5771,303,2025-01-29 15:11:40,0.0
-12808,-412,3956,700,-6327,407,2025-01-29 15:11:40,0.0
-11740,-876,3752,1902,-6506,186,2025-01-29 15:11:40,0.0
-11364,-952,4044,2993,-5216,-323,2025-01-29 15:11:40,0.0
-11164,-584,4280,4170,-2659,-761,2025-01-29 15:11:40,0.0
-11692,-304,3980,4921,-453,-1205,2025-01-29 15:11:40,0.0
-13328,212,3992,5307,827,-1268,2025-01-29 15:11:40,0.0
-14696,1164,4336,5620,1492,-663,2025-01-29 15:11:40,0.0
-15284,2044,3660,5838,1015,118,2025-01-29 15:11:40,0.0
-14916,2600,2936,5684,-168,569,2025-01-29 15:11:40,0.0
-15196,2424,2620,5118,-1338,980,2025-01-29 15:11:40,0.0
-15964,2296,3320,5073,-1058,1645,2025-01-29 15:11:40,0.0
-16612,2720,3168,5472,81,2790,2025-01-29 15:11:40,0.0
-17148,3628,2940,5930,1401,3964,2025-01-29 15:11:40,0.0
-17012,4196,3048,6176,2062,4962,2025-01-29 15:11:40,0.0
-15612,5020,3716,5736,1973,5152,2025-01-29 15:11:40,0.0
-13268,5688,3832,4370,618,3595,2025-01-29 15:11:40,0.0
-12148,5320,2896,2876,-1923,758,2025-01-29 15:11:40,0.0
-11760,3876,184,1688,-4221,-2881,2025-01-29 15:11:40,0.0
-14440,2324,-2356,285,-4664,-5409,2025-01-29 15:11:40,0.0
-16984,2448,-2604,-243,-3657,-5632,2025-01-29 15:11:40,0.0
-17836,2576,-2080,146,-1039,-3899,2025-01-29 15:11:40,0.0
-15820,1816,-1300,290,517,-2486,2025-01-29 15:11:40,0.0
-13872,604,-464,-401,-362,-2412,2025-01-29 15:11:40,0.0
-12608,-1012,276,-1321,-2006,-2975,2025-01-29 15:11:40,0.0
-12376,-2408,1016,-1743,-2627,-3629,2025-01-29 15:11:40,0.0
-12864,-2600,1468,-911,-1860,-3962,2025-01-29 15:11:40,0.0
-13312,-2276,1156,863,-49,-3574,2025-01-29 15:11:40,0.0
-13688,-1764,364,2434,2059,-2974,2025-01-29 15:11:40,0.0
-13280,-724,-480,2639,3560,-2883,2025-01-29 15:11:40,
-13512,-60,-792,1745,3655,-3391,2025-01-29 15:11:40,0.0
-14172,-84,-460,853,3063,-3839,2025-01-29 15:11:40,0.0
-14524,-400,572,394,1708,-3978,2025-01-29 15:11:40,0.0
-14496,-608,1516,345,-496,-3596,2025-01-29 15:11:40,0.0
-13672,-776,1692,479,-2786,-2756,2025-01-29 15:11:40,0.0
-12720,-776,1532,553,-3753,-1947,2025-01-29 15:11:40,0.0
-11384,-764,1244,398,-3673,-1536,2025-01-29 15:11:40,0.0
-10528,-888,752,10,-2536,-1432,2025-01-29 15:11:40,0.0
-10112,-1424,-128,-838,-475,-1616,2025-01-29 15:11:40,0.0
-11000,-1608,240,-1503,1348,-1676,2025-01-29 15:11:40,0.0
-11668,-2260,788,-1502,2642,-1808,2025-01-29 15:11:40,0.0
-12468,-2408,1280,-1293,2947,-1492,2025-01-29 15:11:40,0.0
-12968,-2560,2160,-975,2812,-1080,2025-01-29 15:11:40,0.0
-13308,-2376,2468,-759,2376,-577,2025-01-29 15:11:40,0.0
-13704,-1252,2356,-696,1707,17,2025-01-29 15:11:40,0.0
-14124,-592,2436,-844,1162,476,2025-01-29 15:11:40,0.0
-14144,-348,2580,-1044,653,909,2025-01-29 15:11:40,0.0
-13760,-264,2620,-1149,-311,1428,2025-01-29 15:11:40,0.0
-13164,-508,1920,-1405,-1017,1849,2025-01-29 15:11:40,0.0
-12496,-1088,1736,-1816,-1397,2055,2025-01-29 15:11:40,0.0
-11804,-1460,1460,-2155,-1116,1967,2025-01-29 15:11:40,0.0
-11652,-1964,1372,-2440,179,1567,2025-01-29 15:11:41,0.0
-12396,-2176,864,-2467,1896,1050,2025-01-29 15:11:41,0.0
-13760,-2088,1148,-2420,3543,736,2025-01-29 15:11:41,0.0
-14784,-1456,2012,-2342,4407,501,2025-01-29 15:11:41,0.0
-15240,-1384,2640,-2476,3803,-128,2025-01-29 15:11:41,0.0
-15748,-1840,3064,-3020,1700,-882,2025-01-29 15:11:41,0.0
-16744,-1180,4064,-3689,-1031,-997,2025-01-29 15:11:41,0.0
-17004,656,5328,-3864,-2066,-256,2025-01-29 15:11:41,0.0
-16184,1488,3924,-4129,-1409,-313,2025-01-29 15:11:41,0.0
-16604,476,692,-4786,-700,-1167,2025-01-29 15:11:41,0.0
-15928,-2400,652,-5336,-503,-2026,2025-01-29 15:11:41,0.0
-15368,-5552,2104,-4674,-936,-3188,2025-01-29 15:11:41,0.0
-16208,-7136,3972,-3222,-939,-3501,2025-01-29 15:11:41,0.0
-17684,-6556,5080,-546,-135,-2579,2025-01-29 15:11:41,0.0
-19128,-4756,2908,2543,214,-456,2025-01-29 15:11:41,0.0
-17284,-2564,-588,3564,-917,1121,2025-01-29 15:11:41,0.0
-15292,-480,-2700,2483,-3270,1332,2025-01-29 15:11:41,0.0
-13328,1776,-2804,1140,-5852,1790,2025-01-29 15:11:41,0.0
-10888,3692,-2752,365,-6818,2253,2025-01-29 15:11:41,0.0
-9464,4304,-3576,-36,-5272,2053,2025-01-29 15:11:41,0.0
-9416,3444,-4460,-717,-1088,1269,2025-01-29 15:11:41,0.0
-10904,916,-3472,-1320,4669,457,2025-01-29 15:11:41,0.0
-12928,-664,-1392,-1081,7854,-67,2025-01-29 15:11:41,0.0
-15564,-1408,1008,-365,9573,267,2025-01-29 15:11:41,0.0
-16640,-1888,2960,781,8490,1420,2025-01-29 15:11:41,0.0
-16732,-2028,3488,1947,5055,2243,2025-01-29 15:11:41,0.0
-16676,-936,2264,2831,483,2810,2025-01-29 15:11:41,0.0
-15952,520,1024,3184,-2680,3149,2025-01-29 15:11:41,0.0
-14756,1964,204,3222,-4644,3156,2025-01-29 15:11:41,0.0
-13072,2604,-264,2933,-5500,3012,2025-01-29 15:11:41,0.0
-11492,2440,-200,2549,-5374,2555,2025-01-29 15:11:41,0.0
-10700,1792,-48,2195,-4094,2224,2025-01-29 15:11:41,0.0
-10508,1436,488,2112,-1164,1983,2025-01-29 15:11:41,0.0
-10556,1220,736,2174,1742,1532,2025-01-29 15:11:41,0.0
-10900,1224,1276,1934,2591,1024,2025-01-29 15:11:41,0.0
-11776,1416,2060,1677,2219,686,2025-01-29 15:11:41,0.0
-12240,1348,2152,1542,1066,190,2025-01-29 15:11:41,0.0
-12276,1352,1668,1396,-172,-407,2025-01-29 15:11:41,0.0
-12248,1164,1856,1111,-1028,-1185,2025-01-29 15:11:41,0.0
-11936,1208,1924,1054,-1203,-1860,2025-01-29 15:11:41,0.0
-11836,976,2144,1106,-1000,-2218,2025-01-29 15:11:41,0.0
-12216,996,3392,1268,-775,-2921,2025-01-29 15:11:41,0.0
-13216,904,3172,1292,-1021,-3230,2025-01-29 15:11:41,0.0
-13972,740,3336,1398,-1144,-3256,2025-01-29 15:11:41,0.0
-14392,604,3444,1605,-1231,-3005,2025-01-29 15:11:41,0.0
-14584,844,2836,2053,-1777,-2295,2025-01-29 15:11:41,0.0
-13692,832,2892,2426,-2206,-1652,2025-01-29 15:11:41,0.0
-13164,644,3220,2622,-1242,-1365,2025-01-29 15:11:41,0.0
-12928,408,2796,2411,481,-1160,2025-01-29 15:11:41,0.0
-13524,148,3152,2431,2222,-1169,2025-01-29 15:11:41,0.0
-13812,-16,3752,2874,3478,-1216,2025-01-29 15:11:41,0.0
-14532,-36,3752,3266,4411,-1272,2025-01-29 15:11:41,0.0
-15232,228,3720,3653,4871,-1065,2025-01-29 15:11:41,0.0
-16832,-72,2016,3999,4872,-812,2025-01-29 15:11:41,0.0
-17896,648,844,3926,4812,-18,2025-01-29 15:11:41,0.0
-18936,2004,-960,3221,5476,1146,2025-01-29 15:11:41,0.0
-19484,2956,-3796,1538,6575,2234,2025-01-29 15:11:41,0.0
-19068,4416,-4376,-427,6870,2966,2025-01-29 15:11:41,0.0
-17792,5740,-3436,-2571,4530,3516,2025-01-29 15:11:41,0.0
-15596,6384,-2460,-4425,532,2925,2025-01-29 15:11:41,0.0
-11568,5708,-732,-4641,-3746,-1040,2025-01-29 15:11:41,0.0
-12136,924,-3540,-6461,-8289,-4777,2025-01-29 15:11:42,0.0
-12920,-1764,-1920,-7589,-10038,-5076,2025-01-29 15:11:42,0.0
-12908,-3848,-1320,-6316,-9930,-3931,2025-01-29 15:11:42,0.0
-12756,-3124,-2032,-4724,-7367,-1712,2025-01-29 15:11:42,0.0
-10952,-576,-2848,-3308,-1220,-237,2025-01-29 15:11:42,0.0
-10024,1320,-3348,-3265,4899,-410,2025-01-29 15:11:42,0.0
-10388,1948,-3004,-4527,8573,-1465,2025-01-29 15:11:42,0.0
-12240,1880,-1272,-6125,10149,-2663,2025-01-29 15:11:42,0.0
-14380,1156,-312,-7067,9750,-3195,2025-01-29 15:11:42,0.0
-16156,652,-1540,-7970,7207,-3222,2025-01-29 15:11:42,0.0
-16944,28,-3048,-9329,2922,-2994,2025-01-29 15:11:42,0.0
-16716,-724,-3540,-10804,-2782,-2503,2025-01-29 15:11:42,0.0
-15232,-796,-2740,-11700,-6795,-1883,2025-01-29 15:11:42,0.0
-13008,-900,-2624,-12716,-8994,-1450,2025-01-29 15:11:42,0.0
-11252,-680,-2808,-13665,-8393,-1341,2025-01-29 15:11:42,0.0
-10236,-472,-2856,-14630,-4991,-1493,2025-01-29 15:11:42,0.0
-10528,-304,-2992,-15242,-747,-1586,2025-01-29 15:11:42,0.0
-11260,-652,-2836,-15772,2924,-1452,2025-01-29 15:11:42,
-12440,-832,-2536,-16388,4317,-1372,2025-01-29 15:11:42,0.0
-13636,-836,-2052,-16945,4145,-1082,2025-01-29 15:11:42,0.0
-14112,-704,-2124,-17377,3002,-690,2025-01-29 15:11:42,0.0
-14744,-1384,-1468,-18080,1559,-561,2025-01-29 15:11:42,0.0
-14792,-1940,-1464,-18548,586,-590,2025-01-29 15:11:42,0.0
-14644,-1844,-864,-18783,152,-548,2025-01-29 15:11:42,0.0
-14132,-1384,-916,-18812,-477,-429,2025-01-29 15:11:42,0.0
-13908,-1364,-876,-18969,-1554,-321,2025-01-29 15:11:42,0.0
-13724,-1968,-800,-19117,-2705,-226,2025-01-29 15:11:42,0.0
-13688,-2872,-960,-18911,-3637,-13,2025-01-29 15:11:42,0.0
-13360,-3240,-980,-18912,-3251,-33,2025-01-29 15:11:42,0.0
-13148,-2668,-68,-18663,-1672,-431,2025-01-29 15:11:42,0.0
-13208,-2172,732,-18330,467,-721,2025-01-29 15:11:42,0.0
-13880,-1708,1028,-17734,1979,-772,2025-01-29 15:11:42,0.0
-14684,-1416,460,-17765,1779,-793,2025-01-29 15:11:42,0.0
-14768,-1896,-160,-18412,307,-1268,2025-01-29 15:11:42,0.0
-14900,-1616,-296,-19039,-948,-1509,2025-01-29 15:11:42,0.0
-14600,-1036,136,-19653,-1489,-1254,2025-01-29 15:11:42,0.0
-14024,-452,660,-20262,-1774,-692,2025-01-29 15:11:42,0.0
-13432,-236,528,-20821,-2202,-197,2025-01-29 15:11:42,0.0
-13600,-524,704,-21283,-2212,338,2025-01-29 15:11:42,0.0
-13988,-1324,296,-21211,-1746,908,2025-01-29 15:11:42,0.0
-14472,-2316,-528,-20854,-1102,1388,2025-01-29 15:11:42,0.0
-14800,-2888,-536,-20357,-849,1747,2025-01-29 15:11:42,0.0
-14224,-3576,-424,-19293,-467,1840,2025-01-29 15:11:42,0.0
-13676,-4136,-2248,-17898,1041,1329,2025-01-29 15:11:42,0.0
-14056,-3308,-4072,-17041,2646,843,2025-01-29 15:11:42,0.0
-13648,-1472,-4432,-16570,4295,711,2025-01-29 15:11:42,0.0
-12816,948,-3216,-16907,5577,735,2025-01-29 15:11:42,0.0
-12464,2808,-2652,-17526,6253,589,2025-01-29 15:11:42,0.0
-12632,3688,-2528,-18048,5904,-40,2025-01-29 15:11:42,0.0
-12804,2640,-3356,-18759,5039,-606,2025-01-29 15:11:42,0.0
-12640,736,-3052,-19971,4305,-1068,2025-01-29 15:11:42,0.0
-13228,-264,-1660,-20472,4359,-1467,2025-01-29 15:11:42,0.0
-13860,-792,-1076,-20396,4763,-1468,2025-01-29 15:11:42,0.0
-14012,-408,-236,-19777,5084,-1408,2025-01-29 15:11:42,0.0
-14132,-160,-176,-19449,4573,-1483,2025-01-29 15:11:42,0.0
-14684,500,208,-19289,3483,-1549,2025-01-29 15:11:42,0.0
-15168,1304,52,-19018,1674,-1320,2025-01-29 15:11:42,0.0
-14976,1740,-376,-19016,-74,-945,2025-01-29 15:11:42,0.0
-14088,2084,-1284,-19385,-1373,-789,2025-01-29 15:11:42,0.0
-12956,2644,-1760,-19880,-1689,-890,2025-01-29 15:11:42,0.0
-12624,2692,-1872,-20505,-1219,-1235,2025-01-29 15:11:43,0.0
-12192,2204,-1976,-20949,-558,-1634,2025-01-29 15:11:43,0.0
-12068,1452,-1672,-20951,8,-2175,2025-01-29 15:11:43,0.0
-12232,668,-1580,-20804,460,-2682,2025-01-29 15:11:43,0.0
-12236,124,-1112,-20595,962,-3326,2025-01-29 15:11:43,0.0
-12532,-4,-1288,-20532,1550,-3740,2025-01-29 15:11:43,0.0
-13196,148,-1792,-20396,1985,-3875,2025-01-29 15:11:43,0.0
-13624,504,-1908,-20160,1963,-3998,2025-01-29 15:11:43,0.0
-13976,580,-1656,-19860,1291,-3948,2025-01-29 15:11:43,0.0
-14004,944,-676,-19326,250,-3723,2025-01-29 15:11:43,0.0
-13636,1276,276,-18409,-536,-3547,2025-01-29 15:11:43,0.0
-13664,848,-64,-17603,-607,-3437,2025-01-29 15:11:43,0.0
-13496,112,148,-16775,-149,-3685,2025-01-29 15:11:43,0.0
-13556,-456,448,-15831,-264,-3848,2025-01-29 15:11:43,0.0
-12892,-1192,644,-14506,-1356,-3902,2025-01-29 15:11:43,0.0
-12484,-1452,1412,-13284,-2119,-3997,2025-01-29 15:11:43,0.0
-12272,-1268,984,-12119,-2263,-4298,2025-01-29 15:11:43,0.0
-12848,-272,336,-11261,-2339,-4794,2025-01-29 15:11:43,0.0
-13792,484,-400,-10971,-1830,-5020,2025-01-29 15:11:43,0.0
-15524,476,-496,-11179,-330,-4765,2025-01-29 15:11:43,0.0
-16692,-760,108,-11398,944,-3705,2025-01-29 15:11:43,0.0
-17092,-2700,1092,-10884,1762,-2527,2025-01-29 15:11:43,0.0
-16796,-4160,1324,-9743,1227,-1758,2025-01-29 15:11:43,0.0
-15580,-3692,676,-8002,-1410,-828,2025-01-29 15:11:43,0.0
-13512,-2296,-424,-6944,-4531,-387,2025-01-29 15:11:43,0.0
-11644,-636,-548,-6511,-5652,-372,2025-01-29 15:11:43,0.0
-10248,288,-456,-6480,-3886,-765,2025-01-29 15:11:43,0.0
-9576,-28,-1236,-6938,756,-1857,2025-01-29 15:11:43,0.0
-11288,-1304,-1288,-7507,5129,-3125,2025-01-29 15:11:43,0.0
-13488,-1980,-12,-7155,6868,-3472,2025-01-29 15:11:43,0.0
-15336,-1844,1388,-6363,6768,-3026,2025-01-29 15:11:43,0.0
-16156,-1860,1924,-5927,4672,-2433,2025-01-29 15:11:43,0.0
-16232,-1940,1888,-5725,1217,-2228,2025-01-29 15:11:43,0.0
-15760,-1872,1200,-5665,-2207,-2080,2025-01-29 15:11:43,0.0
-14908,-1580,880,-5728,-3953,-1954,2025-01-29 15:11:43,0.0
-13372,-1560,512,-5637,-4018,-1740,2025-01-29 15:11:43,0.0
-12248,-2032,628,-5582,-2589,-1724,2025-01-29 15:11:43,0.0
-11624,-3076,884,-5265,-160,-1740,2025-01-29 15:11:43,0.0
-12400,-3688,724,-4688,1994,-1557,2025-01-29 15:11:43,0.0
-13296,-3520,176,-4059,3225,-1196,2025-01-29 15:11:43,0.0
-13944,-2888,188,-3929,3518,-759,2025-01-29 15:11:43,0.0
-14712,-2276,648,-4091,2943,-531,2025-01-29 15:11:43,0.0
-15332,-2192,1180,-4236,1891,-283,2025-01-29 15:11:43,0.0
-15576,-2344,1364,-4093,413,100,2025-01-29 15:11:43,0.0
-15384,-2672,1428,-3695,-1125,785,2025-01-29 15:11:43,0.0
-14292,-2908,1160,-3043,-2252,1453,2025-01-29 15:11:43,0.0
-13508,-2900,828,-2645,-2475,1834,2025-01-29 15:11:43,0.0
-13196,-2560,448,-2361,-2358,2133,2025-01-29 15:11:43,0.0
-13188,-1712,112,-1881,-1517,2374,2025-01-29 15:11:43,0.0
-13428,-724,-572,-1413,76,2269,2025-01-29 15:11:43,0.0
-13584,16,-796,-1186,1910,1443,2025-01-29 15:11:43,0.0
-13868,84,-612,-1140,2401,124,2025-01-29 15:11:43,0.0
-14996,-140,256,-1376,574,-327,2025-01-29 15:11:43,0.0
-14988,-656,896,-1233,-1890,250,2025-01-29 15:11:43,0.0
-14184,-836,720,-1131,-2993,640,2025-01-29 15:11:43,0.0
-13280,-712,300,-1244,-3190,640,2025-01-29 15:11:43,0.0
-12952,-444,-68,-1179,-2887,544,2025-01-29 15:11:43,0.0
-12932,-308,-804,-1046,-2216,518,2025-01-29 15:11:43,
-12892,-372,-568,-822,-1114,391,2025-01-29 15:11:43,0.0
-12832,-412,-40,-626,224,184,2025-01-29 15:11:43,0.0
-13252,-644,604,-401,973,-54,2025-01-29 15:11:44,0.0
-13704,-720,436,-299,1091,-117,2025-01-29 15:11:44,0.0
-13968,-924,500,-151,926,-199,2025-01-29 15:11:44,0.0
-14288,-840,348,-8,487,-247,2025-01-29 15:11:44,0.0
-14556,-412,388,170,-66,-43,2025-01-29 15:11:44,0.0
-14364,184,216,188,-592,223,2025-01-29 15:11:44,0.0
-13664,128,12,-89,-981,211,2025-01-29 15:11:44,0.0
-13336,-256,-16,-336,-784,33,2025-01-29 15:11:44,0.0
-13148,-740,232,-316,-205,-145,2025-01-29 15:11:44,0.0
-13172,-1084,476,-212,411,-298,2025-01-29 15:11:44,0.0
-13484,-1120,656,76,724,-287,2025-01-29 15:11:44,0.0
-13820,-732,592,290,682,-229,2025-01-29 15:11:44,0.0
-13896,-380,456,220,391,-221,2025-01-29 15:11:44,0.0
-14008,-180,284,36,89,-187,2025-01-29 15:11:44,0.0
-13844,-216,512,-24,-24,-187,2025-01-29 15:11:44,0.0
-13764,-316,324,11,-18,-237,2025-01-29 15:11:44,0.0
-13688,-628,232,-76,-16,-315,2025-01-29 15:11:44,0.0
-13784,-804,428,76,49,-371,2025-01-29 15:11:44,0.0
-13880,-764,312,295,157,-259,2025-01-29 15:11:44,0.0
-13764,-544,248,384,142,-267,2025-01-29 15:11:44,0.0
-13948,-312,116,184,22,-303,2025-01-29 15:11:44,0.0
-14068,-408,568,89,-179,-344,2025-01-29 15:11:44,0.0
-14092,-516,528,148,-308,-253,2025-01-29 15:11:44,0.0
-13916,-376,388,136,-357,-145,2025-01-29 15:11:44,0.0
-13680,-288,192,51,-409,-156,2025-01-29 15:11:44,0.0
-13524,-308,156,-30,-258,-185,2025-01-29 15:11:44,0.0
-13380,-260,356,-43,86,-160,2025-01-29 15:11:44,0.0
-13556,-344,316,-36,439,-132,2025-01-29 15:11:44,0.0
-13568,-324,284,-191,701,-181,2025-01-29 15:11:44,0.0
-13788,-532,380,-289,741,-276,2025-01-29 15:11:44,0.0
-14072,-504,408,-252,524,-223,2025-01-29 15:11:44,0.0
-14088,-412,336,-232,191,-150,2025-01-29 15:11:44,0.0
-13992,-424,296,-307,-18,-139,2025-01-29 15:11:44,0.0
-13948,-320,288,-361,20,-164,2025-01-29 15:11:44,0.0
-13832,-564,204,-308,-69,-134,2025-01-29 15:11:44,0.0
-13596,-696,416,-203,113,-162,2025-01-29 15:11:44,0.0
-13580,-652,380,-108,375,-182,2025-01-29 15:11:44,0.0
-13780,-676,556,-83,357,-211,2025-01-29 15:11:44,0.0
-14124,-416,524,-51,173,-168,2025-01-29 15:11:44,0.0
-14076,-396,588,-95,-40,-159,2025-01-29 15:11:44,0.0
-13852,-420,520,-145,-186,-127,2025-01-29 15:11:44,0.0
-13760,-396,664,-134,-177,-123,2025-01-29 15:11:44,0.0
-13592,-480,336,-149,-55,-166,2025-01-29 15:11:44,0.0
-13576,-340,168,-121,230,-160,2025-01-29 15:11:44,0.0
-13724,-408,160,-185,397,-158,2025-01-29 15:11:44,0.0
-13820,-616,356,-220,319,-143,2025-01-29 15:11:44,0.0
-13900,-580,452,-165,269,-152,2025-01-29 15:11:44,0.0
-13856,-524,460,-211,180,-179,2025-01-29 15:11:44,0.0
-13804,-408,564,-203,-3,-189,2025-01-29 15:11:44,0.0
-13784,-468,472,-165,21,-184,2025-01-29 15:11:44,0.0
-13640,-456,344,-176,65,-178,2025-01-29 15:11:44,0.0
-13804,-612,384,-197,22,-202,2025-01-29 15:11:44,0.0
-13836,-600,464,-86,65,-203,2025-01-29 15:11:44,0.0
-13940,-624,512,-34,196,-199,2025-01-29 15:11:44,0.0
-13832,-484,324,-87,227,-168,2025-01-29 15:11:44,0.0
-13892,-360,596,-135,174,-130,2025-01-29 15:11:44,0.0
-13740,-276,516,-129,83,-105,2025-01-29 15:11:44,0.0
-13668,-352,564,-141,40,-85,2025-01-29 15:11:44,0.0
-13724,-496,596,-164,146,-175,2025-01-29 15:11:44,0.0
-13852,-460,532,-207,226,-158,2025-01-29 15:11:44,0.0
-13928,-388,528,-158,207,-177,2025-01-29 15:11:44,0.0
-14064,-264,564,-135,96,-130,2025-01-29 15:11:45,0.0
-13832,-344,552,-223,-179,-144,2025-01-29 15:11:45,0.0
-13724,-488,796,-175,-194,-168,2025-01-29 15:11:45,0.0
-13504,-544,500,-121,-94,-143,2025-01-29 15:11:45,0.0
-13608,-384,400,-100,99,-218,2025-01-29 15:11:45,0.0
-13704,-456,368,-125,322,-244,2025-01-29 15:11:45,0.0
-14060,-420,516,-170,410,-258,2025-01-29 15:11:45,0.0
-13932,-552,544,-190,97,-229,2025-01-29 15:11:45,0.0
-13976,-452,652,-180,14,-192,2025-01-29 15:11:45,0.0
-13728,-448,536,-214,66,-169,2025-01-29 15:11:45,0.0
-13640,-416,488,-233,155,-198,2025-01-29 15:11:45,0.0
-13828,-612,340,-249,-7,-191,2025-01-29 15:11:45,0.0
-13792,-560,336,-204,-3,-218,2025-01-29 15:11:45,0.0
-13704,-548,544,-153,109,-188,2025-01-29 15:11:45,0.0
-13836,-580,520,-74,135,-187,2025-01-29 15:11:45,0.0
-13800,-516,528,-107,113,-187,2025-01-29 15:11:45,0.0
-13760,-356,564,-134,105,-154,2025-01-29 15:11:45,0.0
-13792,-420,620,-124,107,-138,2025-01-29 15:11:45,0.0
-13752,-388,424,-75,177,-115,2025-01-29 15:11:45,0.0
-13664,-340,424,-102,264,-101,2025-01-29 15:11:45,0.0
-13644,-184,388,-117,505,-136,2025-01-29 15:11:45,0.0
-13812,-372,236,-137,493,-71,2025-01-29 15:11:45,0.0
-13780,-388,412,-33,472,-105,2025-01-29 15:11:45,0.0
-13912,-536,536,176,642,-77,2025-01-29 15:11:45,0.0
-13728,-784,640,291,886,-37,2025-01-29 15:11:45,0.0
-14252,-880,412,469,1089,42,2025-01-29 15:11:45,0.0
-14292,-432,484,612,1106,235,2025-01-29 15:11:45,0.0
-14184,-104,428,579,1035,324,2025-01-29 15:11:45,0.0
-14144,120,312,531,552,364,2025-01-29 15:11:45,0.0
-13984,136,568,339,2,369,2025-01-29 15:11:45,0.0
-13744,-52,1060,294,-186,310,2025-01-29 15:11:45,0.0
-13392,-204,1440,507,-389,174,2025-01-29 15:11:45,0.0
-12932,0,1116,618,-542,-85,2025-01-29 15:11:45,0.0
-13108,84,360,610,-235,-362,2025-01-29 15:11:45,0.0
-13568,300,308,550,461,-452,2025-01-29 15:11:45,0.0
-13800,448,924,560,882,-329,2025-01-29 15:11:45,0.0
-14028,532,784,532,896,-222,2025-01-29 15:11:45,
-13952,508,904,355,368,-278,2025-01-29 15:11:45,0.0
-13960,372,608,45,-447,-498,2025-01-29 15:11:45,0.0
-14228,240,688,-174,-1001,-578,2025-01-29 15:11:45,0.0
-13844,104,760,-58,-830,-568,2025-01-29 15:11:45,0.0
-13700,280,352,-212,-584,-639,2025-01-29 15:11:45,0.0
-13516,576,200,-479,-403,-752,2025-01-29 15:11:45,0.0
-13552,588,468,-619,-322,-783,2025-01-29 15:11:45,0.0
-14020,596,484,-732,-487,-837,2025-01-29 15:11:45,0.0
-14052,284,292,-1119,-877,-854,2025-01-29 15:11:45,0.0
-14096,268,420,-1445,-1171,-992,2025-01-29 15:11:45,0.0
-13948,108,616,-1569,-1354,-1043,2025-01-29 15:11:45,0.0
-13608,164,432,-1582,-1423,-1039,2025-01-29 15:11:45,0.0
-13344,184,380,-1608,-1280,-980,2025-01-29 15:11:45,0.0
-13000,-52,-36,-1775,-919,-1061,2025-01-29 15:11:45,0.0
-12884,-428,-540,-1849,-167,-1244,2025-01-29 15:11:45,0.0
-12824,-1140,-332,-1715,580,-1341,2025-01-29 15:11:45,0.0
-12812,-1788,548,-1503,1450,-1411,2025-01-29 15:11:45,0.0
-13088,-2324,1768,-1053,2427,-1465,2025-01-29 15:11:45,0.0
-13736,-2560,2560,-338,3145,-1448,2025-01-29 15:11:45,0.0
-14252,-2944,2728,213,3193,-1388,2025-01-29 15:11:46,0.0
-14664,-3100,2864,449,2484,-1586,2025-01-29 15:11:46,0.0
-15204,-2588,3060,546,1336,-1646,2025-01-29 15:11:46,0.0
-15184,-1628,3348,738,252,-1460,2025-01-29 15:11:46,0.0
-14824,-684,2944,659,-578,-1288,2025-01-29 15:11:46,0.0
-14112,-332,2308,142,-1342,-1376,2025-01-29 15:11:46,0.0
-13288,-672,1708,-559,-1573,-1647,2025-01-29 15:11:46,0.0
-12936,-1172,1488,-1059,-1218,-1816,2025-01-29 15:11:46,0.0
-12792,-1444,1428,-1290,-282,-1809,2025-01-29 15:11:46,0.0
-12832,-1620,1468,-1334,721,-1668,2025-01-29 15:11:46,0.0
-12876,-1564,1696,-1355,1382,-1485,2025-01-29 15:11:46,0.0
-13056,-1488,1856,-1421,1718,-1303,2025-01-29 15:11:46,0.0
-13400,-1516,2148,-1468,1711,-1057,2025-01-29 15:11:46,0.0
-13668,-1600,2244,-1591,1365,-755,2025-01-29 15:11:46,0.0
-13812,-1764,2876,-1621,770,-406,2025-01-29 15:11:46,0.0
-14036,-1700,3108,-1525,124,67,2025-01-29 15:11:46,0.0
-13800,-1720,2904,-1513,-454,392,2025-01-29 15:11:46,0.0
-13628,-1728,3092,-1359,-813,633,2025-01-29 15:11:46,0.0
-13460,-1856,3204,-1063,-878,891,2025-01-29 15:11:46,0.0
-13112,-1936,3268,-651,-513,1076,2025-01-29 15:11:46,0.0
-12812,-2084,3020,-471,-68,943,2025-01-29 15:11:46,0.0
-12840,-2184,2812,-454,251,762,2025-01-29 15:11:46,0.0
-12860,-1920,2700,-524,437,432,2025-01-29 15:11:46,0.0
-13160,-1712,2708,-651,453,175,2025-01-29 15:11:46,0.0
-13492,-1552,2112,-947,328,-80,2025-01-29 15:11:46,0.0
-13768,-1120,1432,-1393,382,-120,2025-01-29 15:11:46,0.0
-13580,-544,948,-2007,837,-268,2025-01-29 15:11:46,0.0
-13488,-364,1096,-3004,1546,-626,2025-01-29 15:11:46,0.0
-13908,-792,2108,-3892,2196,-1033,2025-01-29 15:11:46,0.0
-14716,-1748,3444,-4348,2201,-1463,2025-01-29 15:11:46,0.0
-15696,-3088,3560,-4541,1301,-1747,2025-01-29 15:11:46,0.0
-16212,-4132,3120,-4707,-259,-1604,2025-01-29 15:11:46,0.0
-16184,-4304,2728,-4084,-914,-1011,2025-01-29 15:11:46,0.0
-15128,-3700,1568,-3522,-269,-770,2025-01-29 15:11:46,0.0
-14956,-3676,1492,-3425,1633,-1215,2025-01-29 15:11:46,0.0
-15740,-3612,2504,-2958,3283,-1224,2025-01-29 15:11:46,0.0
-16052,-4196,3332,-1952,3110,-1319,2025-01-29 15:11:46,0.0
-16632,-4872,3544,-1192,1336,-1285,2025-01-29 15:11:46,0.0
-16968,-4896,3856,-597,-661,-1014,2025-01-29 15:11:46,0.0
-17280,-3972,3932,504,-2743,-411,2025-01-29 15:11:46,0.0
-18196,-1856,3148,1698,-4330,1017,2025-01-29 15:11:46,0.0
-17160,-1172,1184,2088,-5493,2622,2025-01-29 15:11:46,0.0
-15280,-1280,752,2521,-5494,3683,2025-01-29 15:11:46,0.0
-13216,-1864,-464,2736,-4287,4004,2025-01-29 15:11:46,0.0
-11676,-1844,-760,2396,-2786,3658,2025-01-29 15:11:46,0.0
-11244,-1328,-580,2384,-1668,3065,2025-01-29 15:11:46,0.0
-11536,-1040,-1492,2704,-1304,2657,2025-01-29 15:11:46,0.0
-11832,16,-3076,2478,-705,2250,2025-01-29 15:11:46,0.0
-11740,1236,-3564,1850,74,1823,2025-01-29 15:11:46,0.0
-12120,2204,-3920,1034,884,1410,2025-01-29 15:11:46,0.0
-13140,2800,-3844,369,1534,1250,2025-01-29 15:11:46,0.0
-14060,2080,-2728,-288,2275,1324,2025-01-29 15:11:46,0.0
-14472,1008,-640,-500,2747,1307,2025-01-29 15:11:46,0.0
-15144,296,-192,-176,2916,1458,2025-01-29 15:11:46,0.0
-15448,-244,112,61,2362,1750,2025-01-29 15:11:46,0.0
-15492,-256,36,473,1077,2083,2025-01-29 15:11:46,0.0
-15228,192,64,779,-356,2401,2025-01-29 15:11:46,0.0
-14320,624,520,1059,-1890,2561,2025-01-29 15:11:46,0.0
-13028,840,564,1464,-3037,2430,2025-01-29 15:11:46,0.0
-12076,896,-116,1673,-3818,2307,2025-01-29 15:11:46,0.0
-11544,804,-392,1717,-3807,2307,2025-01-29 15:11:46,0.0
-10588,972,-192,1875,-2768,2267,2025-01-29 15:11:46,0.0
-10060,868,-36,2147,-605,2020,2025-01-29 15:11:46,0.0
-10000,904,88,2172,1677,1574,2025-01-29 15:11:46,0.0
-10900,1100,636,2070,2981,926,2025-01-29 15:11:46,0.0
-12172,1320,1216,2076,3057,540,2025-01-29 15:11:46,0.0
-13320,1380,1884,2167,2442,353,2025-01-29 15:11:47,0.0
-14308,1312,2560,2247,1183,298,2025-01-29 15:11:47,0.0
-14244,1200,3436,2265,-1116,-27,2025-01-29 15:11:47,0.0
-13960,876,3712,1917,-3495,-577,2025-01-29 15:11:47,0.0
-13316,512,3736,1556,-5350,-1192,2025-01-29 15:11:47,0.0
-12452,252,3080,1755,-6109,-1772,2025-01-29 15:11:47,0.0
-11468,416,2216,2055,-6053,-2174,2025-01-29 15:11:47,0.0
-9972,624,1556,2228,-4923,-2430,2025-01-29 15:11:47,0.0
-9648,1328,812,2550,-878,-2389,2025-01-29 15:11:47,0.0
-10308,1336,-260,2950,4359,-1761,2025-01-29 15:11:47,0.0
-11808,1096,472,3434,8685,-1737,2025-01-29 15:11:47,0.0
-14192,800,1644,3348,11606,-1874,2025-01-29 15:11:47,0.0
-17028,1252,2968,3411,12269,-1341,2025-01-29 15:11:47,0.0
-18592,2360,3008,3722,9861,-198,2025-01-29 15:11:47,0.0
-18968,2796,2280,3780,4537,911,2025-01-29 15:11:47,
-17808,1908,1960,3117,-1320,1398,2025-01-29 15:11:47,0.0
-16304,80,3972,2422,-4303,1136,2025-01-29 15:11:47,0.0
-15664,-224,4228,3001,-2622,1350,2025-01-29 15:11:47,0.0
-14880,664,2324,4051,408,1559,2025-01-29 15:11:47,0.0
-16020,2684,-304,4168,3225,1827,2025-01-29 15:11:47,0.0
-16960,4264,-1444,3317,4999,2072,2025-01-29 15:11:47,0.0
-17596,5052,-2688,1520,5385,2254,2025-01-29 15:11:47,0.0
-18196,4960,-4100,-1173,4305,2352,2025-01-29 15:11:47,0.0
-18068,4652,-3400,-3484,1583,2569,2025-01-29 15:11:47,0.0
-14724,3092,-1308,-4451,-3282,1590,2025-01-29 15:11:47,0.0
-11884,264,-920,-4773,-8329,-556,2025-01-29 15:11:47,0.0
-10320,-1368,-832,-4918,-11596,-2136,2025-01-29 15:11:47,0.0
-9988,-2072,-1844,-4362,-12277,-3024,2025-01-29 15:11:47,0.0
-10884,-2944,-2988,-3448,-9759,-2819,2025-01-29 15:11:47,0.0
-11916,-3512,-3736,-1768,-3004,-1854,2025-01-29 15:11:47,0.0
-11936,-2928,-2976,-175,4383,-967,2025-01-29 15:11:47,0.0
-12184,-1392,-1932,696,9764,-783,2025-01-29 15:11:47,0.0
-13004,1036,-588,706,12320,-1163,2025-01-29 15:11:47,0.0
-14092,2540,-424,-154,11784,-1662,2025-01-29 15:11:47,0.0
-14872,2808,-1280,-1633,8500,-2592,2025-01-29 15:11:47,0.0
-15596,1760,-1976,-3654,2218,-3744,2025-01-29 15:11:47,0.0
-15860,728,-1588,-4760,-3218,-4043,2025-01-29 15:11:47,0.0
-14432,-104,-1784,-5095,-6950,-3628,2025-01-29 15:11:47,0.0
-13200,-964,-1276,-5985,-9422,-2797,2025-01-29 15:11:47,0.0
-11844,-1496,-336,-6301,-9063,-2607,2025-01-29 15:11:47,0.0
-11000,-1408,-620,-6020,-6034,-2481,2025-01-29 15:11:47,0.0
-10760,-1148,-1388,-5745,-2037,-2278,2025-01-29 15:11:47,0.0
-10440,-1036,-2084,-6090,874,-2325,2025-01-29 15:11:47,0.0
-11712,-940,-1316,-6738,2042,-2369,2025-01-29 15:11:47,0.0
-12712,-540,-860,-7148,2524,-2172,2025-01-29 15:11:47,0.0
-13944,-320,-536,-7377,2022,-1776,2025-01-29 15:11:47,0.0
-14772,-304,-576,-7968,12,-1130,2025-01-29 15:11:47,0.0
-14680,-324,148,-8434,-2563,-799,2025-01-29 15:11:47,0.0
-14356,-156,644,-8466,-4046,-211,2025-01-29 15:11:47,0.0
-13348,-132,136,-8884,-4133,147,2025-01-29 15:11:47,0.0
-12696,48,-196,-9550,-3269,182,2025-01-29 15:11:47,0.0
-12908,116,-16,-10117,-2040,195,2025-01-29 15:11:47,0.0
-13484,388,592,-10740,-1168,529,2025-01-29 15:11:47,0.0
-13924,396,272,-11213,-2008,883,2025-01-29 15:11:47,0.0
-13808,64,-96,-11734,-3223,1051,2025-01-29 15:11:47,0.0
-13000,-448,-320,-12232,-3442,1004,2025-01-29 15:11:47,0.0
-12704,-960,264,-12875,-2428,957,2025-01-29 15:11:47,0.0
-12976,-992,964,-13037,-1040,1209,2025-01-29 15:11:47,0.0
-13364,-1084,928,-13034,53,1683,2025-01-29 15:11:47,0.0
-13768,-1592,268,-13243,701,1900,2025-01-29 15:11:47,0.0
-14340,-1936,232,-13617,1115,1676,2025-01-29 15:11:48,0.0
-14560,-1828,1352,-13854,1494,1186,2025-01-29 15:11:48,0.0
-14772,-1608,2380,-14088,1676,548,2025-01-29 15:11:48,0.0
-15016,-2224,3056,-14402,1307,-23,2025-01-29 15:11:48,0.0
-15476,-2704,3008,-14571,389,-295,2025-01-29 15:11:48,0.0
-16144,-2868,3300,-14430,-1004,355,2025-01-29 15:11:48,0.0
-15348,-1656,2664,-13865,-1263,1390,2025-01-29 15:11:48,0.0
-14348,-1312,944,-13952,-323,1456,2025-01-29 15:11:48,0.0
-13680,-1608,616,-14367,431,590,2025-01-29 15:11:48,0.0
-14228,-1936,420,-14511,680,-439,2025-01-29 15:11:48,0.0
-14268,-1904,328,-14089,383,-1421,2025-01-29 15:11:48,0.0
-14460,-1048,-96,-13161,13,-2067,2025-01-29 15:11:48,0.0
-13340,-448,-1108,-12414,-206,-2081,2025-01-29 15:11:48,0.0
-11240,-672,-2112,-12486,-77,-2085,2025-01-29 15:11:48,0.0
-8928,-912,-2440,-13204,1417,-2698,2025-01-29 15:11:48,0.0
-8816,-184,-2576,-13700,5094,-3798,2025-01-29 15:11:48,0.0
-11480,-156,-3836,-13922,10018,-4497,2025-01-29 15:11:48,0.0
-13748,492,-4096,-13889,13015,-4253,2025-01-29 15:11:48,0.0
-14988,1232,-4592,-14259,13160,-3722,2025-01-29 15:11:48,0.0
-14948,1504,-4496,-15358,11308,-3678,2025-01-29 15:11:48,0.0
-14996,2008,-4448,-16195,7957,-3962,2025-01-29 15:11:48,0.0
-15644,2216,-4200,-16722,3436,-3570,2025-01-29 15:11:48,0.0
-15300,1592,-4236,-16684,372,-2504,2025-01-29 15:11:48,0.0
-14048,236,-4388,-16686,-774,-1661,2025-01-29 15:11:48,0.0
-12784,-1060,-3460,-16380,52,-1117,2025-01-29 15:11:48,0.0
-12204,-1620,-3152,-15362,1822,-902,2025-01-29 15:11:48,0.0
-12504,-1992,-2676,-14399,3917,-905,2025-01-29 15:11:48,0.0
-12628,-2204,-2024,-13678,5269,-1238,2025-01-29 15:11:48,0.0
-13304,-1632,-1492,-13045,5295,-1556,2025-01-29 15:11:48,0.0
-13712,-1080,-948,-12382,4413,-1752,2025-01-29 15:11:48,0.0
-13804,-704,-1056,-11601,2666,-1911,2025-01-29 15:11:48,0.0
-13540,-532,-1972,-11067,803,-2064,2025-01-29 15:11:48,0.0
-12820,-736,-3452,-11365,-826,-2518,2025-01-29 15:11:48,0.0
-11936,-668,-3632,-12037,-1505,-3060,2025-01-29 15:11:48,0.0
-12028,-208,-2760,-12357,-883,-3336,2025-01-29 15:11:48,0.0
-11640,320,-3220,-12657,735,-3567,2025-01-29 15:11:48,0.0
-12232,720,-3768,-13690,1695,-3733,2025-01-29 15:11:48,0.0
-12344,-136,-3792,-14707,1710,-3646,2025-01-29 15:11:48,0.0
-12436,-840,-3204,-15251,1630,-3630,2025-01-29 15:11:48,0.0
-13120,-1508,-3256,-15335,1831,-3258,2025-01-29 15:11:48,0.0
-13288,-1980,-3252,-15065,1823,-2690,2025-01-29 15:11:48,0.0
-13396,-1864,-2800,-14811,970,-1828,2025-01-29 15:11:48,0.0
-12636,-1772,-2944,-14437,-937,-701,2025-01-29 15:11:48,0.0
-11072,-1952,-3760,-14711,-3321,116,2025-01-29 15:11:48,0.0
-9008,-2308,-2856,-15464,-4748,-531,2025-01-29 15:11:48,0.0
-10308,-2404,-2716,-15714,-2773,-2277,2025-01-29 15:11:48,0.0
-11056,-2228,-4120,-15990,1479,-3694,2025-01-29 15:11:48,0.0
-12384,-1536,-2636,-15958,3444,-4132,2025-01-29 15:11:48,0.0
-14040,-1048,-1924,-15442,2497,-3377,2025-01-29 15:11:48,0.0
-13644,-1384,-1088,-14600,611,-2415,2025-01-29 15:11:48,0.0
-13372,-1904,-1856,-14140,-476,-2305,2025-01-29 15:11:48,0.0
-13748,-2160,-3608,-14259,-983,-2292,2025-01-29 15:11:48,0.0
-13688,-2784,-3848,-14377,-1553,-2306,2025-01-29 15:11:48,0.0
-13768,-2784,-3344,-14056,-2291,-2222,2025-01-29 15:11:48,0.0
-13196,-1812,-2456,-13818,-2759,-2212,2025-01-29 15:11:48,
-13276,-804,-1512,-13295,-3257,-2195,2025-01-29 15:11:48,0.0
-13444,-656,-1248,-12693,-3733,-2259,2025-01-29 15:11:48,0.0
-14020,-1032,-1368,-12160,-4038,-2293,2025-01-29 15:11:48,0.0
-14132,-1548,-1736,-11783,-4823,-2605,2025-01-29 15:11:48,0.0
-15192,-1068,-1456,-11366,-6084,-2286,2025-01-29 15:11:48,0.0
-9760,-1172,-1112,-10911,-7114,-2022,2025-01-29 15:11:48,0.0
-12496,-1504,736,-11110,-8620,-1864,2025-01-29 15:11:49,0.0
-12596,-1616,2400,-11454,-8599,-2242,2025-01-29 15:11:49,0.0
-12248,-1948,3880,-11651,-9666,-2283,2025-01-29 15:11:49,0.0
-11672,-2164,4664,-11456,-12164,-2479,2025-01-29 15:11:49,0.0
-11320,-1852,3592,-11256,-14636,-2166,2025-01-29 15:11:49,0.0
-12360,-1872,1872,-11437,-14625,-1677,2025-01-29 15:11:49,0.0
-12828,-2068,2716,-11522,-13538,-970,2025-01-29 15:11:49,0.0
-14424,-2212,3548,-11262,-11862,335,2025-01-29 15:11:49,0.0
-15080,-1448,2868,-11289,-9356,1100,2025-01-29 15:11:49,0.0
-15420,-2084,4812,-10726,-7544,1675,2025-01-29 15:11:49,0.0
-14440,-4088,5692,-9666,-7523,1659,2025-01-29 15:11:49,0.0
-14240,-3860,4992,-10095,-10444,622,2025-01-29 15:11:49,0.0
-15492,-1176,6228,-11541,-14576,553,2025-01-29 15:11:49,0.0
-13440,1900,5256,-11808,-15403,2526,2025-01-29 15:11:49,0.0
-12408,764,2464,-11818,-12110,3453,2025-01-29 15:11:49,0.0
-13320,-884,2088,-12323,-8354,4091,2025-01-29 15:11:49,0.0
-14800,-2392,4228,-12431,-5573,4107,2025-01-29 15:11:49,0.0
-14376,-3752,6660,-11941,-5064,3972,2025-01-29 15:11:49,0.0
-15240,-3104,5708,-11454,-5495,4135,2025-01-29 15:11:49,0.0
-14648,-3444,6416,-10894,-6943,3875,2025-01-29 15:11:49,0.0
-14452,-2060,7956,-10303,-8699,4084,2025-01-29 15:11:49,0.0
-12896,76,7116,-9520,-9667,4440,2025-01-29 15:11:49,0.0
-11640,528,6524,-9203,-8483,4762,2025-01-29 15:11:49,0.0
-11144,-100,7728,-8560,-7476,4668,2025-01-29 15:11:49,0.0
-10512,-68,9116,-8180,-7412,4008,2025-01-29 15:11:49,0.0
-10580,-520,9660,-8001,-7457,3418,2025-01-29 15:11:49,0.0
-9528,-1084,10248,-7125,-6886,3022,2025-01-29 15:11:49,0.0
-9708,-1064,10692,-6374,-7301,3045,2025-01-29 15:11:49,0.0
-9888,-364,12460,-5753,-8075,2691,2025-01-29 15:11:49,0.0
-9036,404,14280,-5440,-10096,2037,2025-01-29 15:11:49,0.0
-8668,764,16500,-4340,-12536,1580,2025-01-29 15:11:49,0.0
-9220,1600,17132,-2086,-14669,1554,2025-01-29 15:11:49,0.0
-10084,2092,15856,-739,-14936,1952,2025-01-29 15:11:49,0.0
-11208,3064,15780,119,-13645,2980,2025-01-29 15:11:49,0.0
-10680,1392,16388,1216,-11520,2881,2025-01-29 15:11:49,0.0
-11424,656,15284,1462,-9441,2417,2025-01-29 15:11:49,0.0
-12368,984,15208,1628,-8874,2329,2025-01-29 15:11:49,0.0
-11316,916,14792,1579,-9771,2228,2025-01-29 15:11:49,0.0
-10088,776,14212,961,-11046,1751,2025-01-29 15:11:49,0.0
-9100,416,14384,549,-12021,1274,2025-01-29 15:11:49,0.0
-9160,840,15100,-6,-12386,876,2025-01-29 15:11:49,0.0
-8892,1652,15856,-162,-12154,786,2025-01-29 15:11:49,0.0
-8012,2476,15940,3,-11246,1266,2025-01-29 15:11:49,0.0
-7756,3148,16124,160,-10064,1855,2025-01-29 15:11:49,0.0
-6504,2736,15576,-392,-8616,1865,2025-01-29 15:11:49,0.0
-6120,1796,16348,-990,-6788,1273,2025-01-29 15:11:49,0.0
-6140,1008,17396,-756,-4980,612,2025-01-29 15:11:49,0.0
-7196,484,17836,53,-3768,644,2025-01-29 15:11:49,0.0
-7156,856,16392,502,-3199,992,2025-01-29 15:11:49,0.0
-6600,1484,15032,-487,-3474,1378,2025-01-29 15:11:49,0.0
-6100,1236,15120,-1097,-3397,1731,2025-01-29 15:11:49,0.0
-5880,-32,15664,-1316,-3143,1861,2025-01-29 15:11:49,0.0
-5936,-1064,15928,-1387,-2878,1681,2025-01-29 15:11:49,0.0
-5912,-824,16524,-1352,-3280,1484,2025-01-29 15:11:49,0.0
-6140,12,16812,-1786,-3874,1426,2025-01-29 15:11:49,0.0
-6460,816,17832,-2130,-3905,1451,2025-01-29 15:11:49,0.0
-6896,948,18160,-2203,-3608,1508,2025-01-29 15:11:49,0.0
-6512,1076,16832,-2348,-3576,1465,2025-01-29 15:11:49,0.0
-6360,1320,16968,-2206,-3703,1587,2025-01-29 15:11:49,0.0
-5556,672,16224,-2295,-3106,1411,2025-01-29 15:11:49,0.0
-5332,428,16964,-1725,-1926,1365,2025-01-29 15:11:50,0.0
-5168,356,16884,-1212,-555,1237,2025-01-29 15:11:50,0.0
-5360,1300,17208,-249,987,1327,2025-01-29 15:11:50,0.0
-5140,712,16548,-170,2811,741,2025-01-29 15:11:50,0.0
-5812,904,16540,-91,3532,459,2025-01-29 15:11:50,0.0
-6648,1268,16260,-161,3237,828,2025-01-29 15:11:50,0.0
-7040,908,16016,-182,1763,1365,2025-01-29 15:11:50,0.0
-6476,1196,15476,-546,370,1781,2025-01-29 15:11:50,0.0
-5460,868,15564,-714,-257,1533,2025-01-29 15:11:50,0.0
-5548,784,15784,-753,1,1422,2025-01-29 15:11:50,0.0
-4976,720,16272,-803,818,1342,2025-01-29 15:11:50,0.0
-5644,316,16400,-608,1472,1400,2025-01-29 15:11:50,0.0
-5624,612,16252,-350,2035,1651,2025-01-29 15:11:50,0.0
-6260,608,15996,-289,2334,1604,2025-01-29 15:11:50,0.0
-6680,992,15760,-394,2066,1774,2025-01-29 15:11:50,0.0
-6924,1148,14968,-989,1170,1767,2025-01-29 15:11:50,0.0
-6632,1384,15224,-1662,-304,1909,2025-01-29 15:11:50,0.0
-5976,1564,15524,-2098,-1498,1814,2025-01-29 15:11:50,0.0
-5364,1496,16164,-2226,-1916,1651,2025-01-29 15:11:50,0.0
-5008,1672,16556,-1965,-1599,1556,2025-01-29 15:11:50,0.0
-4956,1724,16504,-1572,-605,1420,2025-01-29 15:11:50,0.0
-5236,1552,16816,-1152,128,1285,2025-01-29 15:11:50,0.0
-5096,1268,16176,-1098,231,1091,2025-01-29 15:11:50,0.0
-5152,1472,16012,-1229,194,864,2025-01-29 15:11:50,0.0
-5152,1812,16020,-1246,286,697,2025-01-29 15:11:50,0.0
-5568,1788,16016,-1144,513,628,2025-01-29 15:11:50,0.0
-5672,1492,16088,-1116,703,592,2025-01-29 15:11:50,0.0
-5808,1516,16132,-1012,827,518,2025-01-29 15:11:50,0.0
-6068,1528,16432,-926,874,439,2025-01-29 15:11:50,0.0
-6284,1320,16948,-468,573,455,2025-01-29 15:11:50,0.0
-5884,1140,17376,-127,114,330,2025-01-29 15:11:50,0.0
-5976,456,15452,12,-410,172,2025-01-29 15:11:50,0.0
-6504,272,14600,-518,333,188,2025-01-29 15:11:50,0.0
-6452,4,15200,-846,1301,150,2025-01-29 15:11:50,
-6324,168,16064,-827,1715,119,2025-01-29 15:11:50,0.0
-6164,528,17088,-577,1370,215,2025-01-29 15:11:50,0.0
-6132,576,16788,-184,593,168,2025-01-29 15:11:50,0.0
-6080,892,15824,-145,-47,166,2025-01-29 15:11:50,0.0
-5884,1248,15680,-306,-156,202,2025-01-29 15:11:50,0.0
-6016,1396,15652,-602,500,273,2025-01-29 15:11:50,0.0
-6292,1040,15708,-742,786,122,2025-01-29 15:11:50,0.0
-6736,544,16004,-690,643,2,2025-01-29 15:11:50,0.0
-6592,356,16476,-646,-54,61,2025-01-29 15:11:50,0.0
-6292,276,16280,-542,-684,180,2025-01-29 15:11:50,0.0
-5856,312,16112,-372,-692,243,2025-01-29 15:11:50,0.0
-5644,232,15956,-127,-205,260,2025-01-29 15:11:50,0.0
-5988,240,15492,-67,265,123,2025-01-29 15:11:50,0.0
-6292,388,15592,-226,302,16,2025-01-29 15:11:50,0.0
-6688,588,15896,-322,26,-51,2025-01-29 15:11:50,0.0
-6760,812,15880,-288,-369,-46,2025-01-29 15:11:50,0.0
-6564,980,15892,-138,-515,22,2025-01-29 15:11:50,0.0
-6120,1272,15796,-78,-575,124,2025-01-29 15:11:50,0.0
-6060,1424,15516,-71,-519,187,2025-01-29 15:11:50,0.0
-5892,1452,15828,-196,-288,177,2025-01-29 15:11:50,0.0
-5864,1280,15916,-267,22,134,2025-01-29 15:11:50,0.0
-6072,1316,16120,-210,90,83,2025-01-29 15:11:50,0.0
-6052,1296,16084,-224,127,60,2025-01-29 15:11:50,0.0
-6024,1232,16016,-255,179,36,2025-01-29 15:11:50,0.0
-6016,1212,16068,-324,165,-16,2025-01-29 15:11:50,0.0
-5944,1056,15972,-333,43,-45,2025-01-29 15:11:50,0.0
-5972,1208,15908,-393,-40,-121,2025-01-29 15:11:50,0.0
-6000,972,15944,-520,-110,-102,2025-01-29 15:11:51,0.0
-6036,1084,16048,-568,-183,-104,2025-01-29 15:11:51,0.0
-6056,1084,15992,-575,-200,-88,2025-01-29 15:11:51,0.0
-6088,856,16100,-531,-230,-103,2025-01-29 15:11:51,0.0
-6104,916,15956,-475,-247,-101,2025-01-29 15:11:51,0.0
-5928,792,15960,-424,-246,-148,2025-01-29 15:11:51,0.0
-5848,624,15948,-368,-139,-176,2025-01-29 15:11:51,0.0
-5888,704,15988,-296,20,-223,2025-01-29 15:11:51,0.0
-5920,628,16028,-299,121,-261,2025-01-29 15:11:51,0.0
-6072,700,16156,-275,106,-256,2025-01-29 15:11:51,0.0
-5952,676,16092,-251,122,-263,2025-01-29 15:11:51,0.0
-5940,676,16124,-216,141,-261,2025-01-29 15:11:51,0.0
-6076,756,16000,-198,145,-222,2025-01-29 15:11:51,0.0
-5972,764,16140,-164,-40,-246,2025-01-29 15:11:51,0.0
-5952,744,16100,-139,-42,-240,2025-01-29 15:11:51,0.0
-5788,780,16016,-144,-12,-213,2025-01-29 15:11:51,0.0
-5888,780,15960,-130,-13,-225,2025-01-29 15:11:51,0.0
-5796,916,16008,-138,37,-263,2025-01-29 15:11:51,0.0
-5944,792,16176,-148,143,-275,2025-01-29 15:11:51,0.0
-5920,812,16048,-120,216,-263,2025-01-29 15:11:51,0.0
-6052,828,16172,-125,262,-252,2025-01-29 15:11:51,0.0
-5960,856,16088,-102,256,-248,2025-01-29 15:11:51,0.0
-6008,828,16080,-83,216,-280,2025-01-29 15:11:51,0.0
-6040,932,15976,-99,180,-255,2025-01-29 15:11:51,0.0
-6024,972,15968,-89,112,-261,2025-01-29 15:11:51,0.0
-5940,1060,16012,-136,159,-246,2025-01-29 15:11:51,0.0
-5932,960,15844,-128,202,-247,2025-01-29 15:11:51,0.0
-6056,944,15948,-141,198,-245,2025-01-29 15:11:51,0.0
-5980,980,15968,-175,228,-260,2025-01-29 15:11:51,0.0
-6112,992,15976,-220,174,-251,2025-01-29 15:11:51,0.0
-5964,968,15964,-191,89,-213,2025-01-29 15:11:51,0.0
-5904,1012,15960,-157,106,-217,2025-01-29 15:11:51,0.0
-5900,764,16108,-187,135,-188,2025-01-29 15:11:51,0.0
-5912,860,16088,-140,140,-187,2025-01-29 15:11:51,0.0
-5932,908,16100,-191,117,-170,2025-01-29 15:11:51,0.0
-5992,816,15968,-187,168,-188,2025-01-29 15:11:51,0.0
-5992,932,16156,-205,204,-190,2025-01-29 15:11:51,0.0
-5984,840,15984,-182,194,-214,2025-01-29 15:11:51,0.0
-6008,872,16048,-200,159,-202,2025-01-29 15:11:51,0.0
-6012,880,16100,-182,105,-181,2025-01-29 15:11:51,0.0
-5836,828,15936,-192,161,-150,2025-01-29 15:11:51,0.0
-5932,724,16112,-202,253,-158,2025-01-29 15:11:51,0.0
-5920,820,16020,-175,281,-195,2025-01-29 15:11:51,0.0
-5924,704,16336,-158,253,-178,2025-01-29 15:11:51,0.0
-5932,956,16048,-201,188,-157,2025-01-29 15:11:51,0.0
-6028,828,16248,-196,270,-175,2025-01-29 15:11:51,0.0
-6104,828,16036,-194,120,-190,2025-01-29 15:11:51,0.0
-5988,856,15904,-110,34,-216,2025-01-29 15:11:51,0.0
-6012,784,15888,-109,-9,-203,2025-01-29 15:11:51,0.0
-5892,952,16012,-84,-102,-152,2025-01-29 15:11:51,0.0
-5920,884,16044,-152,-63,-160,2025-01-29 15:11:51,0.0
-5900,880,16128,-171,42,-195,2025-01-29 15:11:51,0.0
-5944,852,16208,-178,108,-207,2025-01-29 15:11:51,0.0
-6000,848,16120,-160,159,-164,2025-01-29 15:11:51,0.0
-5984,936,16072,-90,159,-136,2025-01-29 15:11:51,0.0
-5928,876,16080,-143,134,-123,2025-01-29 15:11:51,0.0
-5928,924,16024,-198,64,-131,2025-01-29 15:11:51,0.0
-5964,884,15948,-130,78,-141,2025-01-29 15:11:51,0.0
-5944,872,15996,-168,73,-149,2025-01-29 15:11:51,0.0
-5968,844,16132,-165,96,-143,2025-01-29 15:11:51,0.0
-5884,828,16152,-201,167,-141,2025-01-29 15:11:51,0.0
-5976,932,16044,-193,179,-150,2025-01-29 15:11:52,0.0
-5980,952,16176,-186,135,-161,2025-01-29 15:11:52,0.0
-6020,860,16036,-208,111,-142,2025-01-29 15:11:52,0.0
-5936,824,16156,-198,99,-168,2025-01-29 15:11:52,0.0
-5868,884,16080,-232,114,-146,2025-01-29 15:11:52,0.0
-5900,876,16156,-209,123,-159,2025-01-29 15:11:52,0.0
-5948,852,16012,-191,137,-166,2025-01-29 15:11:52,0.0
-5920,864,16208,-206,117,-160,2025-01-29 15:11:52,0.0
-5864,768,16116,-178,144,-184,2025-01-29 15:11:52,0.0
-5920,836,16144,-203,176,-174,2025-01-29 15:11:52,0.0
-5924,864,16012,-198,163,-183,2025-01-29 15:11:52,0.0
-5976,832,16080,-180,151,-170,2025-01-29 15:11:52,
-5924,776,16188,-144,138,-180,2025-01-29 15:11:52,0.0
-5824,880,16168,-150,172,-162,2025-01-29 15:11:52,0.0
-5812,852,16112,-146,247,-180,2025-01-29 15:11:52,0.0
-5900,880,16080,-161,289,-195,2025-01-29 15:11:52,0.0
-5932,760,16152,-150,243,-203,2025-01-29 15:11:52,0.0
-5904,816,16112,-166,192,-184,2025-01-29 15:11:52,0.0
-5916,872,15984,-210,232,-171,2025-01-29 15:11:52,0.0
-6080,836,16108,-162,167,-201,2025-01-29 15:11:52,0.0
-5976,904,16112,-113,126,-218,2025-01-29 15:11:52,0.0
-6104,968,16072,-87,16,-186,2025-01-29 15:11:52,0.0
-5984,912,15952,-108,-57,-160,2025-01-29 15:11:52,0.0
-5876,856,15968,-133,-84,-169,2025-01-29 15:11:52,0.0
-5884,856,16212,-125,31,-192,2025-01-29 15:11:52,0.0
-5788,808,16148,-161,141,-188,2025-01-29 15:11:52,0.0
-5912,776,16112,-163,181,-195,2025-01-29 15:11:52,0.0
-5988,848,15976,-131,175,-160,2025-01-29 15:11:52,0.0
-5932,792,16036,-123,188,-174,2025-01-29 15:11:52,0.0
-5884,840,16052,-130,125,-165,2025-01-29 15:11:52,0.0
-5924,840,15944,-163,111,-153,2025-01-29 15:11:52,0.0
-5872,840,16060,-176,100,-145,2025-01-29 15:11:52,0.0
-5900,884,16196,-191,170,-189,2025-01-29 15:11:52,0.0
-5888,960,16124,-145,201,-138,2025-01-29 15:11:52,0.0
-5992,828,16156,-151,210,-141,2025-01-29 15:11:52,0.0
-5828,828,16156,-151,161,-141,2025-01-29 15:11:52,0.0
-5840,836,15996,-143,153,-171,2025-01-29 15:11:52,0.0
-5888,876,16008,-172,132,-163,2025-01-29 15:11:52,0.0
-5868,888,16068,-182,139,-180,2025-01-29 15:11:52,0.0
-5916,904,16100,-158,151,-156,2025-01-29 15:11:52,0.0
-5904,828,16144,-134,154,-170,2025-01-29 15:11:52,0.0
-5980,908,16104,-129,176,-184,2025-01-29 15:11:52,0.0
-5932,904,16008,-124,226,-166,2025-01-29 15:11:52,0.0
-5852,888,16112,-166,235,-180,2025-01-29 15:11:52,0.0
-5936,844,16132,-136,231,-219,2025-01-29 15:11:52,0.0
-6028,764,16068,-154,247,-243,2025-01-29 15:11:52,0.0
-6036,772,16212,-134,237,-245,2025-01-29 15:11:52,0.0
-5960,656,16208,-102,216,-212,2025-01-29 15:11:52,0.0
-5896,440,16344,-151,373,-107,2025-01-29 15:11:52,0.0
-5912,432,16456,-149,789,-53,2025-01-29 15:11:52,0.0
-6424,412,17140,-75,1258,-110,2025-01-29 15:11:52,0.0
-5956,680,16220,-74,1195,-385,2025-01-29 15:11:52,0.0
-5884,780,16056,-85,1120,-679,2025-01-29 15:11:52,0.0
-6020,856,15916,-54,1249,-798,2025-01-29 15:11:52,0.0
-6432,1044,15580,-89,1447,-813,2025-01-29 15:11:52,0.0
-6592,1384,15564,-202,1070,-716,2025-01-29 15:11:52,0.0
-6500,1564,15540,-326,550,-537,2025-01-29 15:11:52,0.0
-6284,1504,15452,-352,51,-395,2025-01-29 15:11:52,0.0
-6088,1148,15916,-204,-292,-284,2025-01-29 15:11:52,0.0
-6116,792,15916,-53,-295,-273,2025-01-29 15:11:52,0.0
-5524,680,16104,39,138,-277,2025-01-29 15:11:53,0.0
-5680,620,16196,67,429,-260,2025-01-29 15:11:53,0.0
-5848,700,16048,50,507,-237,2025-01-29 15:11:53,0.0
-6016,604,15960,-2,431,-212,2025-01-29 15:11:53,0.0
-6052,560,15808,94,369,-127,2025-01-29 15:11:53,0.0
-6148,568,15852,130,188,-99,2025-01-29 15:11:53,0.0
-6064,596,15916,183,107,-64,2025-01-29 15:11:53,0.0
-6304,632,15840,235,106,-67,2025-01-29 15:11:53,0.0
-6168,700,15744,297,-169,-64,2025-01-29 15:11:53,0.0
-6236,756,15688,408,-488,32,2025-01-29 15:11:53,0.0
-6124,1016,15800,432,-925,117,2025-01-29 15:11:53,0.0
-6068,1056,15644,360,-1289,138,2025-01-29 15:11:53,0.0
-5776,1044,15804,190,-1364,130,2025-01-29 15:11:53,0.0
-5504,1096,15844,-35,-1178,42,2025-01-29 15:11:53,0.0
-5544,960,15884,-155,-1042,-152,2025-01-29 15:11:53,0.0
-5504,972,16248,-227,-950,-293,2025-01-29 15:11:53,0.0
-5640,1024,16096,-213,-854,-414,2025-01-29 15:11:53,0.0
-5756,1088,16176,-206,-679,-431,2025-01-29 15:11:53,0.0
-6136,912,16532,-112,-720,-400,2025-01-29 15:11:53,0.0
-6144,864,16992,270,-1314,-303,2025-01-29 15:11:53,0.0
-5900,768,16228,310,-1639,-222,2025-01-29 15:11:53,0.0
-6004,472,18104,1153,-2077,-232,2025-01-29 15:11:53,0.0
-5948,344,14400,1163,-2231,-51,2025-01-29 15:11:53,0.0
-3020,1632,12324,-91,-1216,-940,2025-01-29 15:11:53,0.0
-4236,2324,13640,-1149,1055,-1429,2025-01-29 15:11:53,0.0
-6164,2124,16700,-1159,2217,-999,2025-01-29 15:11:53,0.0
-6756,1692,17592,-1020,1057,-490,2025-01-29 15:11:53,0.0
-6084,1404,16296,-1547,-799,-388,2025-01-29 15:11:53,0.0
-5464,824,15900,-2058,-1992,-645,2025-01-29 15:11:53,0.0
-5520,288,16892,-1997,-2375,-750,2025-01-29 15:11:53,0.0
-5664,52,18164,-1338,-2385,-584,2025-01-29 15:11:53,0.0
-4600,-80,17760,-461,-1658,-482,2025-01-29 15:11:53,0.0
-4776,-408,16684,335,-42,-289,2025-01-29 15:11:53,0.0
-4952,-388,16300,856,2017,-147,2025-01-29 15:11:53,0.0
-5192,-324,16988,871,2357,-22,2025-01-29 15:11:53,0.0
-5432,452,16404,163,917,159,2025-01-29 15:11:53,0.0
-5076,1088,16404,-668,277,482,2025-01-29 15:11:53,0.0
-5652,1632,16712,-1196,1012,825,2025-01-29 15:11:53,0.0
-4336,2176,16232,-1509,2072,1226,2025-01-29 15:11:53,0.0
-4124,2224,15992,-2265,2812,1482,2025-01-29 15:11:53,0.0
-4292,1812,15620,-3110,3023,1382,2025-01-29 15:11:53,0.0
-4368,324,16700,-3565,3806,921,2025-01-29 15:11:53,0.0
-3948,4,18700,-3314,4197,607,2025-01-29 15:11:53,0.0
-5148,308,19888,-2899,4114,599,2025-01-29 15:11:53,0.0
-6716,548,20040,-2010,3214,754,2025-01-29 15:11:53,0.0
-6872,940,20980,-987,2822,711,2025-01-29 15:11:53,0.0
-5508,936,19176,-132,3219,-255,2025-01-29 15:11:53,0.0
-8924,316,17576,526,5042,-663,2025-01-29 15:11:53,0.0
-8468,592,17612,967,5768,-354,2025-01-29 15:11:53,0.0
-7184,844,17772,1063,5473,113,2025-01-29 15:11:53,0.0
-6776,124,17368,717,5435,-318,2025-01-29 15:11:53,0.0
-7176,-412,17236,451,5658,-888,2025-01-29 15:11:53,
-7636,-412,17656,58,5771,-1354,2025-01-29 15:11:53,0.0
-7656,-228,17888,-247,4959,-1225,2025-01-29 15:11:53,0.0
-7448,4,17424,-386,4867,-1044,2025-01-29 15:11:53,0.0
-7820,364,16468,-656,5507,-768,2025-01-29 15:11:53,0.0
-8192,532,15876,-914,6028,-528,2025-01-29 15:11:53,0.0
-8260,48,15448,-998,6236,-337,2025-01-29 15:11:53,0.0
-8564,408,15356,-1046,6122,-308,2025-01-29 15:11:53,0.0
-9236,-388,15740,-721,5434,55,2025-01-29 15:11:53,0.0
-8408,272,14268,-606,4757,20,2025-01-29 15:11:54,0.0
-8116,236,14132,-626,4120,193,2025-01-29 15:11:54,0.0
-9120,-300,14068,-563,3446,205,2025-01-29 15:11:54,0.0
-8516,-176,13952,-176,3035,12,2025-01-29 15:11:54,0.0
-8456,-300,13824,-117,2967,-270,2025-01-29 15:11:54,0.0
-8328,-476,14160,30,3421,-471,2025-01-29 15:11:54,0.0
-8140,-756,14100,393,4316,-442,2025-01-29 15:11:54,0.0
-9944,-152,14040,613,5682,-250,2025-01-29 15:11:54,0.0
-11776,148,13828,418,6413,324,2025-01-29 15:11:54,0.0
-11336,-52,14128,-78,6331,310,2025-01-29 15:11:54,0.0
-10320,-28,13896,-472,5413,401,2025-01-29 15:11:54,0.0
-8972,364,12948,-658,5096,310,2025-01-29 15:11:54,0.0
-9296,280,13504,-416,5229,509,2025-01-29 15:11:54,0.0
-8944,348,13076,-67,5674,568,2025-01-29 15:11:54,0.0
-9476,412,13240,-37,5935,408,2025-01-29 15:11:54,0.0
-9496,388,13072,-272,6062,179,2025-01-29 15:11:54,0.0
-9788,476,13376,-454,6221,219,2025-01-29 15:11:54,0.0
-10104,448,13656,-223,6101,558,2025-01-29 15:11:54,0.0
-9552,324,12836,-116,5774,895,2025-01-29 15:11:54,0.0
-8600,-48,11416,-379,6069,1000,2025-01-29 15:11:54,0.0
-7960,-532,10880,-902,7036,535,2025-01-29 15:11:54,0.0
-8200,-444,11428,-1147,8618,-99,2025-01-29 15:11:54,0.0
-9252,-288,11128,-1723,10592,-453,2025-01-29 15:11:54,0.0
-11156,268,10880,-2133,12970,-299,2025-01-29 15:11:54,0.0
-12460,704,10800,-2351,14933,62,2025-01-29 15:11:54,0.0
-12848,1000,10700,-2633,14823,409,2025-01-29 15:11:54,0.0
-12040,420,10488,-2787,13352,457,2025-01-29 15:11:54,0.0
-13028,628,11604,-2477,11181,799,2025-01-29 15:11:54,0.0
-13736,580,11096,-2149,10352,1424,2025-01-29 15:11:54,0.0
-12652,-84,10212,-1894,9865,1494,2025-01-29 15:11:54,0.0
-12556,-656,9184,-1731,9330,1054,2025-01-29 15:11:54,0.0
-12660,-656,8144,-1856,8307,551,2025-01-29 15:11:54,0.0
-12656,-440,6364,-2279,6783,484,2025-01-29 15:11:54,0.0
-9396,80,6432,-2045,6952,-65,2025-01-29 15:11:54,0.0
-11780,-712,7040,-1596,6249,368,2025-01-29 15:11:54,0.0
-11752,-1336,5860,-1231,6136,234,2025-01-29 15:11:54,0.0
-12188,-1236,4908,-1381,5670,16,2025-01-29 15:11:54,0.0
-12380,-992,4736,-1655,5406,-270,2025-01-29 15:11:54,0.0
-12136,-432,5492,-1872,5011,-387,2025-01-29 15:11:54,0.0
-12912,240,5864,-1588,4367,-218,2025-01-29 15:11:54,0.0
-13476,616,5504,-1333,3445,434,2025-01-29 15:11:54,0.0
-13436,568,4272,-1473,2323,1014,2025-01-29 15:11:54,0.0
-13300,100,3824,-1906,1157,1382,2025-01-29 15:11:54,0.0
-12608,324,3732,-2284,-80,1601,2025-01-29 15:11:54,0.0
-11800,696,4684,-1879,-511,1505,2025-01-29 15:11:54,0.0
-11444,536,5652,-1132,101,1330,2025-01-29 15:11:54,0.0
-11364,-440,5360,-118,916,1063,2025-01-29 15:11:54,0.0
-11428,-1288,5480,988,1285,746,2025-01-29 15:11:54,0.0
-11248,-1484,5564,2271,1273,464,2025-01-29 15:11:54,0.0
-11076,-412,5504,3556,1314,211,2025-01-29 15:11:54,0.0
-11348,1028,4640,4406,2186,368,2025-01-29 15:11:54,0.0
-11348,2516,4576,4726,3565,656,2025-01-29 15:11:54,0.0
-10972,3500,4544,4520,4847,819,2025-01-29 15:11:54,0.0
-11344,3216,3764,4085,5114,679,2025-01-29 15:11:54,0.0
-12768,2808,3344,3678,5446,1028,2025-01-29 15:11:54,0.0
-12868,2520,3724,3265,5745,1775,2025-01-29 15:11:54,0.0
-12580,2728,4380,3185,5606,2103,2025-01-29 15:11:54,0.0
-12800,3128,4304,3375,4945,2171,2025-01-29 15:11:54,0.0
-12756,3220,4032,3440,3981,1939,2025-01-29 15:11:54,0.0
-12756,3364,3508,3115,3453,1350,2025-01-29 15:11:54,0.0
-12564,3188,3332,2349,2703,541,2025-01-29 15:11:54,0.0
-12864,2596,3100,1831,1629,-80,2025-01-29 15:11:55,0.0
-13208,1952,2700,1621,11,-231,2025-01-29 15:11:55,0.0
-12784,1844,3052,1651,-1816,-112,2025-01-29 15:11:55,0.0
-11556,1988,3600,1878,-3019,-168,2025-01-29 15:11:55,0.0
-11276,2252,3776,2066,-2352,-466,2025-01-29 15:11:55,0.0
-11360,2080,3876,2158,-509,-722,2025-01-29 15:11:55,0.0
-11716,2084,4172,2350,1353,-1111,2025-01-29 15:11:55,0.0
-12540,2104,4548,2381,2796,-1355,2025-01-29 15:11:55,0.0
-13192,2400,5080,2411,4078,-1494,2025-01-29 15:11:55,0.0
-13880,2876,5336,2543,4919,-1397,2025-01-29 15:11:55,0.0
-13964,2896,5332,2546,4407,-1193,2025-01-29 15:11:55,0.0
-13968,2516,5200,2565,2990,-1094,2025-01-29 15:11:55,0.0
-13520,1888,5044,2534,1453,-1173,2025-01-29 15:11:55,0.0
-13296,1124,5436,2385,484,-1430,2025-01-29 15:11:55,0.0
-13324,500,6316,2701,411,-1658,2025-01-29 15:11:55,0.0
-12952,536,7504,3671,753,-1773,2025-01-29 15:11:55,0.0
-12344,1040,7064,4780,823,-2044,2025-01-29 15:11:55,0.0
-13360,2020,5896,5182,1427,-2119,2025-01-29 15:11:55,0.0
-14828,1704,4248,5430,2586,-2269,2025-01-29 15:11:55,0.0
-16100,2240,3824,5354,4600,-2434,2025-01-29 15:11:55,0.0
-18012,3816,3756,5044,7170,-1780,2025-01-29 15:11:55,0.0
-18196,5764,3448,4818,8674,-562,2025-01-29 15:11:55,0.0
-18356,7276,600,3828,8691,726,2025-01-29 15:11:55,0.0
-17688,7712,-2376,1533,6805,1523,2025-01-29 15:11:55,0.0
-14812,6684,-2788,-1256,2551,619,2025-01-29 15:11:55,0.0
-12604,3108,-1504,-3719,-4186,-2618,2025-01-29 15:11:55,0.0
-14160,744,376,-4656,-8615,-3816,2025-01-29 15:11:55,0.0
-13916,-1516,64,-4291,-9645,-3521,2025-01-29 15:11:55,0.0
-13620,-3536,-828,-3184,-8414,-2856,2025-01-29 15:11:55,0.0
-13296,-4380,-1444,-1995,-6089,-2108,2025-01-29 15:11:55,0.0
-12504,-4020,-1012,-637,-2285,-1409,2025-01-29 15:11:55,
-11600,-2976,-80,715,1566,-1369,2025-01-29 15:11:55,0.0
-11316,-1892,176,1681,4380,-1651,2025-01-29 15:11:55,0.0
-11612,-780,864,2157,6363,-2092,2025-01-29 15:11:55,0.0
-12344,176,988,1908,7688,-2613,2025-01-29 15:11:55,0.0
-14024,752,824,1247,7989,-3093,2025-01-29 15:11:55,0.0
-15056,672,676,637,6990,-3132,2025-01-29 15:11:55,0.0
-15204,276,596,-150,4413,-2982,2025-01-29 15:11:55,0.0
-15004,-236,1088,-738,569,-2670,2025-01-29 15:11:55,0.0
-14600,-504,1464,-1073,-2807,-2041,2025-01-29 15:11:55,0.0
-13480,-688,1692,-1334,-4618,-1572,2025-01-29 15:11:55,0.0
-12624,-1040,1452,-1670,-5268,-1469,2025-01-29 15:11:55,0.0
-12300,-1264,1416,-1940,-4643,-1562,2025-01-29 15:11:55,0.0
-12000,-1572,1640,-2123,-3217,-1772,2025-01-29 15:11:55,0.0
-11964,-1504,1500,-2201,-1603,-1838,2025-01-29 15:11:55,0.0
-12076,-1512,1288,-2215,-278,-1758,2025-01-29 15:11:55,0.0
-12488,-1780,1128,-2309,617,-1560,2025-01-29 15:11:55,0.0
-12660,-1860,1708,-2181,1268,-1203,2025-01-29 15:11:55,0.0
-13056,-1976,2516,-1937,1645,-798,2025-01-29 15:11:55,0.0
-13392,-1672,2752,-1544,1694,-373,2025-01-29 15:11:55,0.0
-13464,-1192,2620,-1420,1575,-92,2025-01-29 15:11:55,0.0
-13640,-504,2572,-1517,1408,35,2025-01-29 15:11:55,0.0
-14020,-208,2732,-1725,1116,269,2025-01-29 15:11:55,0.0
-13844,-208,2420,-2175,214,558,2025-01-29 15:11:55,0.0
-13356,-532,2844,-2618,-452,640,2025-01-29 15:11:55,0.0
-13068,-764,2692,-2960,-674,692,2025-01-29 15:11:55,0.0
-12876,-1080,2560,-3136,-506,858,2025-01-29 15:11:55,0.0
-12764,-1300,2548,-3170,-126,1052,2025-01-29 15:11:55,0.0
-12580,-1844,2436,-3137,534,855,2025-01-29 15:11:55,0.0
-12636,-2396,2244,-3312,975,341,2025-01-29 15:11:55,0.0
-13384,-1676,2148,-3417,1269,-169,2025-01-29 15:11:55,0.0
-14196,-952,3016,-3450,1396,-478,2025-01-29 15:11:56,0.0
-14636,-1648,3372,-3611,1261,-727,2025-01-29 15:11:56,0.0
-15172,-2392,4284,-3860,556,-1062,2025-01-29 15:11:56,0.0
-15952,-2516,5132,-4099,-217,-1010,2025-01-29 15:11:56,0.0
-16188,-2588,5676,-3953,-485,-629,2025-01-29 15:11:56,0.0
-16248,-1940,3068,-3007,639,-859,2025-01-29 15:11:56,0.0
-15548,-2548,1648,-2810,1153,-1397,2025-01-29 15:11:56,0.0
-15484,-3904,2640,-2553,1204,-2240,2025-01-29 15:11:56,0.0
-16100,-5016,3052,-1657,1005,-2839,2025-01-29 15:11:56,0.0
-17928,-5868,3652,-500,273,-2214,2025-01-29 15:11:56,0.0
-18740,-4876,4300,1031,-733,-561,2025-01-29 15:11:56,0.0
-17692,-2300,2812,2771,-2942,1265,2025-01-29 15:11:56,0.0
-16492,-808,876,3114,-4938,2017,2025-01-29 15:11:56,0.0
-14728,-216,-1188,3174,-7154,3074,2025-01-29 15:11:56,0.0
-12456,-248,-2172,3340,-8115,3541,2025-01-29 15:11:56,0.0
-9916,-240,-2712,3227,-6737,2920,2025-01-29 15:11:56,0.0
-8636,-16,-2552,2368,-3234,1683,2025-01-29 15:11:56,0.0
-8936,740,-1380,1346,2987,259,2025-01-29 15:11:56,0.0
-10952,1308,-452,1154,7686,-270,2025-01-29 15:11:56,0.0
-13672,2176,888,1628,10640,-56,2025-01-29 15:11:56,0.0
-15816,2332,216,1474,11466,530,2025-01-29 15:11:56,0.0
-16944,2332,916,695,9484,1204,2025-01-29 15:11:56,0.0
-17424,2276,1656,383,4594,1622,2025-01-29 15:11:56,0.0
-17076,1752,1404,192,-832,2087,2025-01-29 15:11:56,0.0
-15948,760,1160,-120,-4903,2570,2025-01-29 15:11:56,0.0
-13948,-68,1104,-335,-6596,2657,2025-01-29 15:11:56,0.0
-12576,-236,1608,-308,-7263,2569,2025-01-29 15:11:56,0.0
-11660,64,1660,-142,-6957,2335,2025-01-29 15:11:56,0.0
-10776,204,1752,310,-5333,2055,2025-01-29 15:11:56,0.0
-10752,588,1900,1091,-1741,1678,2025-01-29 15:11:56,0.0
-10800,624,1692,1583,870,1276,2025-01-29 15:11:56,0.0
-11424,304,1532,1916,2342,734,2025-01-29 15:11:56,0.0
-12096,148,1904,2202,2703,371,2025-01-29 15:11:56,0.0
-12328,360,2052,2475,2607,138,2025-01-29 15:11:56,0.0
-12768,572,2460,2613,2293,-41,2025-01-29 15:11:56,0.0
-12944,1072,2840,2689,1524,-266,2025-01-29 15:11:56,0.0
-12724,1772,2016,2433,360,-734,2025-01-29 15:11:56,0.0
-12664,2068,1936,1821,-613,-1291,2025-01-29 15:11:56,0.0
-12636,1636,2420,1606,-769,-1584,2025-01-29 15:11:56,0.0
-12500,1076,2920,1653,-558,-1935,2025-01-29 15:11:56,0.0
-12616,724,3060,1768,-452,-2439,2025-01-29 15:11:56,0.0
-12756,1012,3024,1671,-534,-2879,2025-01-29 15:11:56,0.0
-12924,1952,2764,1534,-666,-3069,2025-01-29 15:11:56,0.0
-13188,2848,1652,1327,-1137,-2812,2025-01-29 15:11:56,0.0
-13320,2928,824,978,-1509,-2219,2025-01-29 15:11:56,0.0
-13112,1800,1264,735,-656,-1876,2025-01-29 15:11:56,0.0
-13324,-344,2144,673,1569,-2056,2025-01-29 15:11:56,0.0
-14476,-1480,2724,855,3468,-2272,2025-01-29 15:11:56,0.0
-15752,-1408,3048,1299,4538,-2057,2025-01-29 15:11:56,0.0
-16508,-1052,3724,1873,4015,-1531,2025-01-29 15:11:56,0.0
-15840,-1896,5424,2229,1822,-1016,2025-01-29 15:11:56,0.0
-15600,-2888,6596,2763,-508,-1082,2025-01-29 15:11:56,0.0
-15896,-2060,6016,3721,-1159,-665,2025-01-29 15:11:56,0.0
-15068,-240,4248,4599,-724,-216,2025-01-29 15:11:56,0.0
-15376,1856,1604,4762,1160,-89,2025-01-29 15:11:57,0.0
-16088,2524,-164,4351,3310,27,2025-01-29 15:11:57,0.0
-16840,3604,436,3567,5267,202,2025-01-29 15:11:57,0.0
-17552,4432,-368,2444,6825,522,2025-01-29 15:11:57,0.0
-18428,4960,-2212,1060,6282,1232,2025-01-29 15:11:57,0.0
-16376,4384,-3920,-677,3103,1725,2025-01-29 15:11:57,0.0
-12664,2316,-3076,-2490,-1825,485,2025-01-29 15:11:57,0.0
-10648,200,-1880,-3972,-5703,-1806,2025-01-29 15:11:57,0.0
-11428,-268,-56,-4469,-6715,-2574,2025-01-29 15:11:57,0.0
-13324,-1352,-1420,-3302,578,-799,2025-01-29 15:11:57,0.0
-14008,-520,-3640,-3818,3613,-882,2025-01-29 15:11:57,0.0
-14500,580,-2888,-4721,4520,-1507,2025-01-29 15:11:57,0.0
-14964,1420,-1596,-5687,3255,-1789,2025-01-29 15:11:57,0.0
-15020,1576,-140,-6533,489,-1655,2025-01-29 15:11:57,0.0
-14404,1604,-300,-7461,-2322,-1523,2025-01-29 15:11:57,0.0
-13756,1156,-1328,-8543,-3958,-1499,2025-01-29 15:11:57,
-13156,300,-2184,-9500,-4406,-1693,2025-01-29 15:11:57,0.0
-12336,-640,-2860,-10448,-4378,-1857,2025-01-29 15:11:57,0.0
-11876,-888,-2572,-11463,-3656,-1918,2025-01-29 15:11:57,0.0
-11704,-688,-1804,-12035,-2132,-1842,2025-01-29 15:11:57,0.0
-11940,-844,-944,-12312,-163,-1743,2025-01-29 15:11:57,0.0
-12156,-676,-652,-12577,1180,-1685,2025-01-29 15:11:57,0.0
-12700,-620,-304,-12882,1308,-1434,2025-01-29 15:11:57,0.0
-13320,-492,-516,-13354,788,-1099,2025-01-29 15:11:57,0.0
-13936,-396,-360,-13946,157,-733,2025-01-29 15:11:57,0.0
-14120,-600,-632,-14611,-399,-317,2025-01-29 15:11:57,0.0
-14128,-520,-600,-15248,-890,75,2025-01-29 15:11:57,0.0
-13940,-304,-464,-15857,-1396,434,2025-01-29 15:11:57,0.0
-13648,-548,40,-16290,-1784,666,2025-01-29 15:11:57,0.0
-13616,-856,656,-16541,-1869,984,2025-01-29 15:11:57,0.0
-13584,-1056,876,-16561,-1658,1483,2025-01-29 15:11:57,0.0
-13724,-1400,1136,-16572,-1295,1957,2025-01-29 15:11:57,0.0
-13876,-2160,1240,-16771,-1148,2226,2025-01-29 15:11:57,0.0
-14452,-2392,612,-16870,-1466,2498,2025-01-29 15:11:57,0.0
-14120,-1984,16,-17019,-1287,2657,2025-01-29 15:11:57,0.0
-13332,-1060,-604,-17376,-316,2361,2025-01-29 15:11:57,0.0
-12728,-416,-696,-18249,1319,1688,2025-01-29 15:11:57,0.0
-13008,-876,140,-19048,2871,752,2025-01-29 15:11:57,0.0
-13616,-1236,1704,-19274,3127,15,2025-01-29 15:11:57,0.0
-13992,-1668,2524,-19383,2260,-527,2025-01-29 15:11:57,0.0
-14608,-2456,2020,-19363,792,-721,2025-01-29 15:11:57,0.0
-15248,-3200,1076,-19220,-944,-411,2025-01-29 15:11:57,0.0
-15120,-3148,836,-19244,-1595,256,2025-01-29 15:11:57,0.0
-14028,-3120,1720,-19318,-1376,764,2025-01-29 15:11:57,0.0
-13568,-3228,2540,-19116,-1128,1117,2025-01-29 15:11:57,0.0
-13192,-3244,2556,-18435,-960,1439,2025-01-29 15:11:57,0.0
-13156,-3192,1908,-17942,-491,1468,2025-01-29 15:11:57,0.0
-13256,-3304,1400,-17660,464,999,2025-01-29 15:11:57,0.0
-13752,-3180,808,-17286,1346,387,2025-01-29 15:11:57,0.0
-14660,-3180,300,-16425,1987,-258,2025-01-29 15:11:57,0.0
-15544,-2604,-488,-15130,2321,-617,2025-01-29 15:11:57,0.0
-16116,-2116,-912,-14374,2540,-488,2025-01-29 15:11:57,0.0
-15360,-1784,-540,-14360,3068,-162,2025-01-29 15:11:57,0.0
-14788,-1756,-308,-14554,3873,-131,2025-01-29 15:11:57,0.0
-14488,-264,100,-14608,4387,250,2025-01-29 15:11:57,0.0
-13176,848,300,-14451,4432,785,2025-01-29 15:11:57,0.0
-11692,248,-972,-14568,4726,-24,2025-01-29 15:11:57,0.0
-11744,-40,-1520,-15218,5543,-1549,2025-01-29 15:11:57,0.0
-13244,124,-956,-15461,6356,-2336,2025-01-29 15:11:57,0.0
-14348,1476,-520,-15473,6893,-2173,2025-01-29 15:11:57,0.0
-14656,2608,-316,-15404,6536,-1736,2025-01-29 15:11:57,0.0
-14600,3940,-732,-15695,4584,-1251,2025-01-29 15:11:57,0.0
-14220,3848,-1800,-16462,2228,-761,2025-01-29 15:11:57,0.0
-13336,3128,-2416,-17617,563,-740,2025-01-29 15:11:57,0.0
-12652,2212,-2524,-18777,279,-1130,2025-01-29 15:11:57,0.0
-12460,1064,-2168,-19584,1032,-1570,2025-01-29 15:11:57,0.0
-12632,324,-1220,-19758,2417,-1981,2025-01-29 15:11:58,0.0
-13200,48,-396,-19611,3718,-2315,2025-01-29 15:11:58,0.0
-14044,476,372,-19239,3952,-2515,2025-01-29 15:11:58,0.0
-14396,1328,472,-18906,3111,-2568,2025-01-29 15:11:58,0.0
-14608,1680,84,-18782,1209,-2405,2025-01-29 15:11:58,0.0
-14372,1728,-16,-18844,-1062,-2356,2025-01-29 15:11:58,0.0
-13832,1472,-732,-19087,-2710,-2498,2025-01-29 15:11:58,0.0
-13864,1204,-920,-19352,-2909,-2519,2025-01-29 15:11:58,0.0
-13588,876,-644,-19427,-2615,-2402,2025-01-29 15:11:58,0.0
-13168,440,-520,-19223,-2518,-2158,2025-01-29 15:11:58,0.0
-12884,164,-472,-18904,-2510,-2074,2025-01-29 15:11:58,0.0
-12484,320,-640,-18653,-2480,-2148,2025-01-29 15:11:58,0.0
-12648,932,-696,-18426,-2350,-2310,2025-01-29 15:11:58,0.0
-12780,1048,-1044,-18368,-2102,-2353,2025-01-29 15:11:58,0.0
-13152,832,-804,-18197,-1729,-2372,2025-01-29 15:11:58,0.0
-13600,636,-168,-17946,-956,-2314,2025-01-29 15:11:58,0.0
-13308,84,-288,-17655,-313,-2469,2025-01-29 15:11:58,0.0
-13420,-416,-184,-17357,-108,-2672,2025-01-29 15:11:58,0.0
-13380,-704,28,-16725,-428,-2942,2025-01-29 15:11:58,0.0
-13604,-420,52,-15961,-791,-2959,2025-01-29 15:11:58,0.0
-13852,-112,-632,-15378,-549,-2800,2025-01-29 15:11:58,0.0
-14132,196,-1304,-14920,390,-2626,2025-01-29 15:11:58,0.0
-14364,532,-1068,-14564,1211,-2517,2025-01-29 15:11:58,0.0
-14664,336,-788,-14479,1957,-2301,2025-01-29 15:11:58,0.0
-14864,-924,120,-14379,1939,-1994,2025-01-29 15:11:58,0.0
-15228,-2472,924,-14082,1192,-1707,2025-01-29 15:11:58,0.0
-15212,-3140,2028,-13131,-74,-1400,2025-01-29 15:11:58,0.0
-15024,-1324,2004,-10812,-2280,-851,2025-01-29 15:11:58,0.0
-14104,1224,72,-9913,-3123,-471,2025-01-29 15:11:58,0.0
-12752,2896,-864,-10242,-3033,-806,2025-01-29 15:11:58,0.0
-12172,2736,-1276,-11111,-1874,-1390,2025-01-29 15:11:58,0.0
-12184,972,-1128,-11841,-224,-1852,2025-01-29 15:11:58,0.0
-12952,-1172,-256,-11673,1255,-2059,2025-01-29 15:11:58,0.0
-13552,-2768,584,-11233,1958,-2183,2025-01-29 15:11:58,0.0
-14136,-3192,1228,-10405,1983,-2200,2025-01-29 15:11:58,0.0
-14152,-3144,1300,-9366,933,-2053,2025-01-29 15:11:58,0.0
-13816,-2560,1192,-8779,-515,-1849,2025-01-29 15:11:58,0.0
-13236,-1868,1148,-8461,-1363,-1707,2025-01-29 15:11:58,0.0
-13008,-1580,700,-8124,-1650,-1435,2025-01-29 15:11:58,0.0
-13036,-1672,532,-7633,-876,-909,2025-01-29 15:11:58,0.0
-12784,-2036,680,-7112,146,-405,2025-01-29 15:11:58,0.0
-12328,-2540,416,-6489,487,94,2025-01-29 15:11:58,0.0
-12268,-3048,388,-5842,745,361,2025-01-29 15:11:58,0.0
-12168,-3264,520,-5109,1610,416,2025-01-29 15:11:58,0.0
-12924,-3228,524,-4124,3372,424,2025-01-29 15:11:58,0.0
-14372,-2404,368,-3151,5048,896,2025-01-29 15:11:58,0.0
-15376,-1548,76,-2503,5994,1536,2025-01-29 15:11:58,0.0
-15896,-856,-68,-2191,6145,1921,2025-01-29 15:11:58,0.0
-16028,-180,-332,-2002,5249,1565,2025-01-29 15:11:58,0.0
-15728,232,-644,-1815,3194,548,2025-01-29 15:11:58,
-15912,-28,-644,-1941,-348,-62,2025-01-29 15:11:58,0.0
-15372,-436,656,-1688,-3534,208,2025-01-29 15:11:58,0.0
-14400,-820,1236,-747,-5272,781,2025-01-29 15:11:58,0.0
-13260,-932,424,-263,-5255,1208,2025-01-29 15:11:58,0.0
-12196,-812,-324,-272,-4016,1299,2025-01-29 15:11:58,0.0
-11356,-536,-596,-275,-2018,1057,2025-01-29 15:11:58,0.0
-11760,-40,-956,-134,1242,639,2025-01-29 15:11:58,0.0
-12660,700,-920,-137,4131,291,2025-01-29 15:11:58,0.0
-13580,1140,-152,-52,5484,128,2025-01-29 15:11:58,0.0
-14516,1452,184,-56,5288,178,2025-01-29 15:11:58,0.0
-14912,1464,204,-344,3917,339,2025-01-29 15:11:58,0.0
-15068,1028,272,-685,1753,306,2025-01-29 15:11:59,0.0
-14936,604,116,-914,-259,125,2025-01-29 15:11:59,0.0
-14444,76,532,-750,-2006,-96,2025-01-29 15:11:59,0.0
-13540,-204,572,-449,-2962,-249,2025-01-29 15:11:59,0.0
-12780,-400,476,-382,-3103,-409,2025-01-29 15:11:59,0.0
-12548,-444,508,-296,-2583,-700,2025-01-29 15:11:59,0.0
-12660,-440,84,-196,-1503,-852,2025-01-29 15:11:59,0.0
-13188,-264,-116,-190,-116,-873,2025-01-29 15:11:59,0.0
-13268,-148,112,-144,1120,-958,2025-01-29 15:11:59,0.0
-13844,-180,456,8,1237,-1126,2025-01-29 15:11:59,0.0
-14428,-136,512,300,413,-1125,2025-01-29 15:11:59,0.0
-14316,92,84,410,-735,-1032,2025-01-29 15:11:59,0.0
-14420,392,-232,339,-1291,-796,2025-01-29 15:11:59,0.0
-14300,712,-640,167,-1141,-537,2025-01-29 15:11:59,0.0
-14096,732,-1284,-112,-704,-236,2025-01-29 15:11:59,0.0
-13932,336,-1224,-524,-203,-49,2025-01-29 15:11:59,0.0
-13684,-324,-580,-553,195,29,2025-01-29 15:11:59,0.0
-13728,-664,228,-280,355,57,2025-01-29 15:11:59,0.0
-13508,-632,484,-15,264,-30,2025-01-29 15:11:59,0.0
-13584,-264,364,184,2,-159,2025-01-29 15:11:59,0.0
-13564,-12,256,199,-190,-205,2025-01-29 15:11:59,0.0
-13520,-88,372,252,-227,-274,2025-01-29 15:11:59,0.0
-13396,-196,256,285,-216,-286,2025-01-29 15:11:59,0.0
-13504,-176,20,396,-83,-392,2025-01-29 15:11:59,0.0
-13576,-132,-144,357,389,-435,2025-01-29 15:11:59,0.0
-13760,36,-440,242,721,-396,2025-01-29 15:11:59,0.0
-14076,272,-532,103,740,-292,2025-01-29 15:11:59,0.0
-14120,352,-588,-99,523,-168,2025-01-29 15:11:59,0.0
-14068,152,-252,-186,262,-83,2025-01-29 15:11:59,0.0
-13872,-60,-104,-239,44,-77,2025-01-29 15:11:59,0.0
-13820,-384,172,-104,84,-135,2025-01-29 15:11:59,0.0
-13860,-520,-216,-15,-121,-102,2025-01-29 15:11:59,0.0
-13724,-392,-144,103,-169,-174,2025-01-29 15:11:59,0.0
-13732,-216,224,86,5,-217,2025-01-29 15:11:59,0.0
-13508,36,88,120,239,-275,2025-01-29 15:11:59,0.0
-13660,100,8,93,278,-257,2025-01-29 15:11:59,0.0
-13704,-24,60,58,246,-259,2025-01-29 15:11:59,0.0
-13712,-28,-56,41,222,-227,2025-01-29 15:11:59,0.0
-13724,-188,-208,57,256,-174,2025-01-29 15:11:59,0.0
-13748,-200,-380,-2,288,-124,2025-01-29 15:11:59,0.0
-13728,-256,-172,-30,329,-123,2025-01-29 15:11:59,0.0
-13740,-100,-120,-26,323,-134,2025-01-29 15:11:59,0.0
-13708,-100,-76,-3,365,-131,2025-01-29 15:11:59,0.0
-13716,20,-276,-13,343,-145,2025-01-29 15:11:59,0.0
-13732,56,-44,-81,270,-194,2025-01-29 15:11:59,0.0
-13868,-96,-144,-79,152,-226,2025-01-29 15:11:59,0.0
-13788,-28,-76,-116,93,-235,2025-01-29 15:11:59,0.0
-13708,56,-248,-155,137,-230,2025-01-29 15:11:59,0.0
-13680,36,-128,-242,176,-224,2025-01-29 15:11:59,0.0
-13736,-36,24,-257,204,-162,2025-01-29 15:11:59,0.0
-13760,-56,-164,-257,243,-159,2025-01-29 15:11:59,0.0
-13760,-32,-52,-308,232,-139,2025-01-29 15:11:59,0.0
-13696,64,-104,-316,238,-146,2025-01-29 15:11:59,0.0
-13644,-56,-20,-301,325,-156,2025-01-29 15:11:59,0.0
-13752,-72,-44,-328,406,-186,2025-01-29 15:11:59,0.0
-13872,-72,0,-292,341,-196,2025-01-29 15:11:59,0.0
-13968,-224,24,-236,196,-235,2025-01-29 15:11:59,0.0
-13904,-180,-72,-251,49,-184,2025-01-29 15:11:59,0.0
-13860,44,-132,-264,-2,-218,2025-01-29 15:11:59,0.0
-13740,-132,-288,-285,7,-195,2025-01-29 15:11:59,0.0
-13520,-68,-148,-313,114,-168,2025-01-29 15:11:59,0.0
-13512,-52,-8,-304,295,-164,2025-01-29 15:12:00,0.0
-13664,-48,-88,-297,493,-201,2025-01-29 15:12:00,0.0
-13804,-116,-168,-243,513,-249,2025-01-29 15:12:00,0.0
-14052,-244,-392,-187,140,-231,2025-01-29 15:12:00,0.0
-13968,-284,-236,-149,-14,-214,2025-01-29 15:12:00,0.0
-13684,-260,-196,-55,24,-141,2025-01-29 15:12:00,0.0
-13524,-132,-400,-60,119,-134,2025-01-29 15:12:00,0.0
-13556,60,-284,-120,290,-173,2025-01-29 15:12:00,0.0
-13484,224,-336,-195,564,-160,2025-01-29 15:12:00,0.0
-13692,168,-392,-290,758,-220,2025-01-29 15:12:00,0.0
-13964,116,-484,-350,710,-207,2025-01-29 15:12:00,0.0
-13892,28,-308,-374,476,-167,2025-01-29 15:12:00,0.0
-13880,-48,-296,-414,217,-142,2025-01-29 15:12:00,0.0
-13892,44,-388,-407,36,-137,2025-01-29 15:12:00,0.0
-13860,-80,-332,-454,91,-48,2025-01-29 15:12:00,0.0
-13596,-20,-276,-440,188,-115,2025-01-29 15:12:00,0.0
-13744,32,-240,-401,250,-151,2025-01-29 15:12:00,0.0
-13964,208,-440,-445,209,-147,2025-01-29 15:12:00,0.0
-14116,324,-604,-454,9,-46,2025-01-29 15:12:00,0.0
-13920,408,-660,-551,-128,34,2025-01-29 15:12:00,0.0
-13808,420,-588,-643,-182,45,2025-01-29 15:12:00,0.0
-13460,296,-564,-743,40,-30,2025-01-29 15:12:00,0.0
-13480,404,8,-651,436,-113,2025-01-29 15:12:00,0.0
-13468,420,256,-436,1015,-135,2025-01-29 15:12:00,0.0
-14156,236,-8,-402,1642,-6,2025-01-29 15:12:00,0.0
-14528,652,-160,-220,2123,313,2025-01-29 15:12:00,0.0
-14380,1132,-440,-178,2266,561,2025-01-29 15:12:00,0.0
-13920,1328,-708,-412,1618,435,2025-01-29 15:12:00,
-13536,760,-260,-709,435,-31,2025-01-29 15:12:00,0.0
-13180,408,576,-771,-1403,-681,2025-01-29 15:12:00,0.0
-13184,532,660,-492,-2577,-1119,2025-01-29 15:12:00,0.0
-13256,712,756,-144,-2338,-1131,2025-01-29 15:12:00,0.0
-13016,980,928,210,-950,-1006,2025-01-29 15:12:00,0.0
-13080,1040,216,61,-20,-1024,2025-01-29 15:12:00,0.0
-13320,1080,584,-408,-196,-1207,2025-01-29 15:12:00,0.0
-14112,1012,488,-543,-811,-1295,2025-01-29 15:12:00,0.0
-14400,1200,-336,-661,-1394,-1101,2025-01-29 15:12:00,0.0
-14368,1356,-672,-846,-1482,-1013,2025-01-29 15:12:00,0.0
-14020,1548,-412,-1161,-1375,-1123,2025-01-29 15:12:00,0.0
-13684,1640,-408,-1400,-1367,-1470,2025-01-29 15:12:00,0.0
-13400,1032,-316,-1833,-1772,-1990,2025-01-29 15:12:00,0.0
-13388,56,248,-1887,-2112,-2411,2025-01-29 15:12:00,0.0
-13672,-808,244,-1673,-2276,-2437,2025-01-29 15:12:00,0.0
-13420,-1592,592,-1381,-2189,-2284,2025-01-29 15:12:00,0.0
-13032,-1848,1032,-987,-1699,-2278,2025-01-29 15:12:00,0.0
-12980,-2088,1340,-459,-1105,-2171,2025-01-29 15:12:00,0.0
-13168,-2208,1496,-27,-809,-1873,2025-01-29 15:12:00,0.0
-13316,-2036,1988,127,-317,-1604,2025-01-29 15:12:00,0.0
-13504,-1740,2216,85,529,-1428,2025-01-29 15:12:00,0.0
-13864,-1136,2604,-232,2293,-1515,2025-01-29 15:12:00,0.0
-14040,-732,2776,-753,2561,-1640,2025-01-29 15:12:00,0.0
-14036,-336,2788,-1264,2047,-1673,2025-01-29 15:12:00,0.0
-14076,-580,2152,-1542,1726,-1797,2025-01-29 15:12:00,0.0
-13960,-1320,1548,-1887,1581,-2116,2025-01-29 15:12:00,0.0
-13888,-1872,1388,-2097,1344,-2352,2025-01-29 15:12:00,0.0
-13724,-2204,1908,-2061,783,-2533,2025-01-29 15:12:00,0.0
-13836,-2248,2108,-1878,51,-2359,2025-01-29 15:12:00,0.0
-13636,-2184,2084,-1719,-648,-1863,2025-01-29 15:12:00,0.0
-13480,-1912,1760,-1717,-1300,-1362,2025-01-29 15:12:00,0.0
-12964,-1696,1724,-1868,-1638,-1001,2025-01-29 15:12:00,0.0
-12824,-1872,1952,-2144,-1422,-918,2025-01-29 15:12:01,0.0
-13076,-1660,2940,-2314,-730,-675,2025-01-29 15:12:01,0.0
-13388,-1664,3144,-2184,-388,-68,2025-01-29 15:12:01,0.0
-13200,-1640,3112,-2003,-514,689,2025-01-29 15:12:01,0.0
-12952,-1924,2736,-1917,-420,1205,2025-01-29 15:12:01,0.0
-12856,-1972,2624,-1943,148,1399,2025-01-29 15:12:01,0.0
-13288,-1896,2560,-2039,1158,1430,2025-01-29 15:12:01,0.0
-13688,-1856,2756,-2141,1693,1362,2025-01-29 15:12:01,0.0
-14672,-1580,3464,-2144,1610,1347,2025-01-29 15:12:01,0.0
-14960,-1848,2748,-1916,658,1362,2025-01-29 15:12:01,0.0
-14436,-2308,1580,-1955,-634,1294,2025-01-29 15:12:01,0.0
-13836,-2480,916,-2192,-929,1076,2025-01-29 15:12:01,0.0
-13088,-2772,1184,-2355,-260,579,2025-01-29 15:12:01,0.0
-12768,-3292,1484,-2460,991,-27,2025-01-29 15:12:01,0.0
-13744,-3712,2616,-2380,2495,-731,2025-01-29 15:12:01,0.0
-15484,-3072,3512,-2060,3144,-755,2025-01-29 15:12:01,0.0
-16356,-2444,3592,-2061,2988,-536,2025-01-29 15:12:01,0.0
-16712,-2236,3672,-2414,2172,-370,2025-01-29 15:12:01,0.0
-16508,-2180,3512,-2723,456,23,2025-01-29 15:12:01,0.0
-15200,-2560,3196,-2508,-848,120,2025-01-29 15:12:01,0.0
-15264,-2828,640,-2538,-719,-333,2025-01-29 15:12:01,0.0
-14928,-3564,692,-2809,387,-1226,2025-01-29 15:12:01,0.0
-15072,-3692,1912,-1930,854,-2243,2025-01-29 15:12:01,0.0
-16204,-3612,2488,-1113,-135,-2052,2025-01-29 15:12:01,0.0
-16904,-3164,2312,-437,-1831,-786,2025-01-29 15:12:01,0.0
-16960,-2632,1236,173,-3535,290,2025-01-29 15:12:01,0.0
-16784,-1404,-4,364,-4663,1008,2025-01-29 15:12:01,0.0
-15628,-296,-968,399,-5333,1829,2025-01-29 15:12:01,0.0
-14480,-432,-2448,336,-5150,3050,2025-01-29 15:12:01,0.0
-12292,-1116,-3568,172,-4445,3620,2025-01-29 15:12:01,0.0
-10136,-468,-4696,-349,-2955,2363,2025-01-29 15:12:01,0.0
-10152,1620,-4456,-1030,-434,541,2025-01-29 15:12:01,0.0
-10352,2644,-2908,-1304,2524,-928,2025-01-29 15:12:01,0.0
-12224,2068,-1188,-1136,4513,-1593,2025-01-29 15:12:01,0.0
-14140,380,-128,-486,6015,-1364,2025-01-29 15:12:01,0.0
-15952,-1904,760,254,6646,-273,2025-01-29 15:12:01,0.0
-16836,-3136,1472,1175,6257,1118,2025-01-29 15:12:01,0.0
-16588,-2936,1108,2740,3717,2430,2025-01-29 15:12:01,0.0
-15768,-2156,840,3958,225,2899,2025-01-29 15:12:01,0.0
-14312,-668,-176,4712,-3691,3140,2025-01-29 15:12:01,0.0
-12920,616,-352,5199,-5576,3399,2025-01-29 15:12:01,0.0
-11756,1368,-192,5449,-5248,3449,2025-01-29 15:12:01,0.0
-10960,1492,-628,5343,-3357,3444,2025-01-29 15:12:01,0.0
-10744,1312,-1224,5382,-1176,3163,2025-01-29 15:12:01,0.0
-11096,824,-1320,5444,554,2848,2025-01-29 15:12:01,0.0
-11632,524,-1116,5542,2166,2594,2025-01-29 15:12:01,0.0
-12836,740,168,5606,3287,2482,2025-01-29 15:12:01,0.0
-13800,940,1344,5740,3249,2296,2025-01-29 15:12:01,0.0
-13968,1328,1708,5829,1870,2071,2025-01-29 15:12:01,0.0
-13732,1492,1252,5743,-893,1782,2025-01-29 15:12:01,0.0
-12876,1440,388,5178,-3740,1451,2025-01-29 15:12:01,0.0
-12112,1364,280,4744,-4468,1075,2025-01-29 15:12:01,0.0
-11440,1088,400,4372,-4174,802,2025-01-29 15:12:01,0.0
-10580,808,200,3913,-2653,415,2025-01-29 15:12:01,0.0
-10460,1056,648,3578,-241,-345,2025-01-29 15:12:01,0.0
-10780,1580,1288,3128,2075,-1509,2025-01-29 15:12:01,0.0
-12344,1536,1144,2511,2491,-2512,2025-01-29 15:12:01,0.0
-13444,1456,1152,2292,1381,-2916,2025-01-29 15:12:01,0.0
-14080,1256,1228,2245,-597,-3042,2025-01-29 15:12:01,0.0
-13944,796,2068,2308,-1614,-2913,2025-01-29 15:12:01,0.0
-13256,60,2032,2398,-1567,-2661,2025-01-29 15:12:01,0.0
-12756,4,1588,2475,-834,-2136,2025-01-29 15:12:02,0.0
-12972,840,828,2799,541,-1411,2025-01-29 15:12:02,0.0
-13452,1036,936,3119,1806,-888,2025-01-29 15:12:02,0.0
-14296,760,1748,3444,2767,-695,2025-01-29 15:12:02,0.0
-15180,0,2528,3785,3280,-673,2025-01-29 15:12:02,0.0
-15488,-980,3232,4012,3167,-948,2025-01-29 15:12:02,0.0
-15848,-432,3532,4327,2327,-988,2025-01-29 15:12:02,
-15868,540,3256,4640,1146,-635,2025-01-29 15:12:02,0.0
-15504,1704,3392,4837,59,-157,2025-01-29 15:12:02,0.0
-16120,2400,2552,4663,477,340,2025-01-29 15:12:02,0.0
-16432,2040,1776,4324,1694,743,2025-01-29 15:12:02,0.0
-17608,1724,968,4027,3024,1203,2025-01-29 15:12:02,0.0
-19204,2668,204,3536,4090,2277,2025-01-29 15:12:02,0.0
-19720,4444,-728,2605,3841,3625,2025-01-29 15:12:02,0.0
-18680,5692,-1716,654,1366,4783,2025-01-29 15:12:02,0.0
-16220,5568,-1680,-1985,-3338,4853,2025-01-29 15:12:02,0.0
-12800,3488,1324,-3326,-7501,2841,2025-01-29 15:12:02,0.0
-11636,-848,2068,-3918,-9379,96,2025-01-29 15:12:02,0.0
-10820,-3164,1660,-3552,-10237,-2108,2025-01-29 15:12:02,0.0
-11544,-3028,-1060,-2038,-9908,-2922,2025-01-29 15:12:02,0.0
-13816,-3280,-4000,379,-6458,-1667,2025-01-29 15:12:02,0.0
-13964,-2856,-4356,1947,653,13,2025-01-29 15:12:02,0.0
-12484,-1828,-4624,2124,6173,368,2025-01-29 15:12:02,0.0
-10728,-780,-5156,1372,8406,-263,2025-01-29 15:12:02,0.0
-12436,328,-3036,834,8058,-1441,2025-01-29 15:12:02,0.0
-13536,888,-1852,148,5759,-2071,2025-01-29 15:12:02,0.0
-14220,1028,-1132,-681,1875,-2436,2025-01-29 15:12:02,0.0
-14616,1092,-1108,-1460,-698,-2492,2025-01-29 15:12:02,0.0
-14164,1056,-1532,-2850,-2365,-2219,2025-01-29 15:12:02,0.0
-13296,636,-1532,-4148,-3127,-2483,2025-01-29 15:12:02,0.0
-12916,0,-888,-4932,-3095,-2773,2025-01-29 15:12:02,0.0
-12656,-368,-804,-5475,-3083,-2771,2025-01-29 15:12:02,0.0
-12016,-900,-484,-5749,-3024,-2529,2025-01-29 15:12:02,0.0
-11716,-888,-160,-5713,-2414,-2303,2025-01-29 15:12:02,0.0
-11348,-840,0,-5692,-1170,-2066,2025-01-29 15:12:02,0.0
-11624,-900,268,-5726,-28,-2028,2025-01-29 15:12:02,0.0
-12416,-1068,148,-5837,571,-2137,2025-01-29 15:12:02,0.0
-13272,-1300,-76,-6396,465,-2004,2025-01-29 15:12:02,0.0
-14104,-1016,1104,-6766,182,-1528,2025-01-29 15:12:02,0.0
-14496,-708,1536,-6709,-296,-945,2025-01-29 15:12:02,0.0
-14336,-392,564,-6792,-1199,-333,2025-01-29 15:12:02,0.0
-13500,76,-92,-7187,-1891,-63,2025-01-29 15:12:02,0.0
-13368,504,236,-8043,-1730,125,2025-01-29 15:12:02,0.0
-13272,492,1040,-8670,-1268,470,2025-01-29 15:12:02,0.0
-13972,-136,2012,-8807,-1112,1362,2025-01-29 15:12:02,0.0
-13792,-884,1816,-8232,-1798,2309,2025-01-29 15:12:02,0.0
-13000,-1628,1152,-7728,-2885,2672,2025-01-29 15:12:02,0.0
-12320,-2124,512,-7773,-4162,2556,2025-01-29 15:12:02,0.0
-11552,-1760,976,-8324,-4792,2516,2025-01-29 15:12:02,0.0
-10860,-1036,2096,-8741,-3288,2412,2025-01-29 15:12:02,0.0
-11452,184,2388,-8623,541,2276,2025-01-29 15:12:02,0.0
-13064,1308,872,-8780,3700,2652,2025-01-29 15:12:02,0.0
-14240,1728,-308,-9593,4624,2547,2025-01-29 15:12:02,0.0
-14960,1448,-340,-11048,4280,1914,2025-01-29 15:12:02,0.0
-15356,904,640,-12096,3134,1356,2025-01-29 15:12:02,0.0
-15812,148,1584,-12489,1543,1153,2025-01-29 15:12:02,0.0
-15392,-608,984,-12936,1128,968,2025-01-29 15:12:02,0.0
-14700,-1264,1404,-13662,1990,386,2025-01-29 15:12:02,0.0
-14636,-1604,1920,-14265,2864,-320,2025-01-29 15:12:02,0.0
-15400,-1688,2396,-14630,2920,-499,2025-01-29 15:12:03,0.0
-16348,-1004,1936,-14761,2929,-363,2025-01-29 15:12:03,0.0
-16420,-588,672,-14881,2964,-441,2025-01-29 15:12:03,0.0
-15716,-1896,360,-15470,2969,-1411,2025-01-29 15:12:03,0.0
-15024,-4056,1872,-15684,1838,-3287,2025-01-29 15:12:03,0.0
-16360,-4956,2688,-14700,-156,-3423,2025-01-29 15:12:03,0.0
-16852,-3772,3288,-12654,-1301,-2063,2025-01-29 15:12:03,0.0
-15140,-988,1900,-10851,-1247,-979,2025-01-29 15:12:03,0.0
-13360,1100,-540,-10947,-568,-970,2025-01-29 15:12:03,0.0
-11952,1600,-1684,-12384,739,-1557,2025-01-29 15:12:03,0.0
-10876,732,-928,-12910,2424,-2202,2025-01-29 15:12:03,0.0
-10368,-468,-1388,-12186,4086,-2733,2025-01-29 15:12:03,0.0
-10108,-1576,-2496,-11672,6165,-3797,2025-01-29 15:12:03,0.0
-10560,-2536,-2664,-11830,8096,-5331,2025-01-29 15:12:03,0.0
-11740,-1964,-1732,-11459,9444,-6277,2025-01-29 15:12:03,0.0
-13404,-708,-1468,-10723,9861,-6088,2025-01-29 15:12:03,0.0
-14760,1188,-2616,-10593,9204,-5340,2025-01-29 15:12:03,0.0
-15744,2888,-4144,-11359,7799,-4822,2025-01-29 15:12:03,0.0
-16092,3896,-5896,-12695,5524,-4163,2025-01-29 15:12:03,0.0
-16164,3988,-6224,-14320,2165,-2893,2025-01-29 15:12:03,0.0
-14384,3048,-5556,-15485,-391,-1995,2025-01-29 15:12:03,0.0
-13184,1704,-5508,-16305,-945,-1752,2025-01-29 15:12:03,0.0
-12336,664,-5336,-17205,11,-1754,2025-01-29 15:12:03,0.0
-12124,112,-4788,-17821,1820,-1877,2025-01-29 15:12:03,0.0
-11896,-468,-3960,-18481,3094,-2337,2025-01-29 15:12:03,0.0
-11908,-612,-2384,-18631,3363,-3061,2025-01-29 15:12:03,0.0
-12732,-972,-1252,-18021,3184,-3331,2025-01-29 15:12:03,0.0
-13396,-1480,-1404,-16944,2458,-3157,2025-01-29 15:12:03,0.0
-13548,-1804,-2108,-16346,1707,-2847,2025-01-29 15:12:03,0.0
-13572,-2324,-1724,-15926,799,-2733,2025-01-29 15:12:03,0.0
-13716,-2500,-988,-15247,-176,-2726,2025-01-29 15:12:03,0.0
-13244,-2092,-1172,-14582,-807,-2570,2025-01-29 15:12:03,0.0
-12816,-1308,-2312,-14280,-1020,-2665,2025-01-29 15:12:03,0.0
-12552,-620,-3924,-14608,-1031,-2949,2025-01-29 15:12:03,0.0
-12328,88,-4272,-15547,-791,-3159,2025-01-29 15:12:03,0.0
-12540,360,-4184,-16078,-19,-3346,2025-01-29 15:12:03,0.0
-12492,308,-4704,-16525,732,-3197,2025-01-29 15:12:03,0.0
-13076,144,-5064,-17074,1022,-3134,2025-01-29 15:12:03,0.0
-13240,-360,-5484,-17668,488,-2946,2025-01-29 15:12:03,0.0
-13008,-840,-4988,-18079,-170,-2688,2025-01-29 15:12:03,0.0
-12536,-1172,-5100,-18275,-648,-2507,2025-01-29 15:12:03,0.0
-12136,-1632,-5376,-18619,-983,-2445,2025-01-29 15:12:03,0.0
-11604,-2056,-5352,-18804,-1119,-2629,2025-01-29 15:12:03,0.0
-11556,-2116,-5156,-18657,-878,-2794,2025-01-29 15:12:03,0.0
-11724,-2220,-5064,-18334,-560,-3168,2025-01-29 15:12:03,0.0
-11828,-2236,-4404,-18299,-890,-3425,2025-01-29 15:12:03,0.0
-11260,-2632,-5164,-18571,-2165,-3777,2025-01-29 15:12:03,0.0
-10980,-2456,-6080,-18841,-4084,-4475,2025-01-29 15:12:03,
-11076,-1932,-5744,-18505,-4350,-4722,2025-01-29 15:12:03,0.0
-10104,-736,-5368,-17581,-4653,-4117,2025-01-29 15:12:03,0.0
-9632,-12,-6976,-17228,-2581,-3806,2025-01-29 15:12:03,0.0
-9184,-776,-7060,-18590,1497,-4912,2025-01-29 15:12:03,0.0
-11196,-2372,-3220,-19544,4519,-6206,2025-01-29 15:12:03,0.0
-12216,-3992,-1040,-19499,4991,-6595,2025-01-29 15:12:03,0.0
-13244,-5364,912,-18344,3654,-6515,2025-01-29 15:12:03,0.0
-16204,-5524,700,-16941,788,-5684,2025-01-29 15:12:03,0.0
-14796,-5768,2004,-15498,-429,-4497,2025-01-29 15:12:03,0.0
-14588,-5160,1820,-14395,-2176,-3768,2025-01-29 15:12:03,0.0
-13092,-4364,768,-13880,-6326,-3127,2025-01-29 15:12:03,0.0
-13940,-3940,2324,-13888,-9655,-3211,2025-01-29 15:12:04,0.0
-14628,-2736,-484,-13529,-7823,-4021,2025-01-29 15:12:04,0.0
-12188,-3920,3108,-13369,-10212,-3538,2025-01-29 15:12:04,0.0
-11916,-2828,3080,-12812,-9544,-3240,2025-01-29 15:12:04,0.0
-11876,-2356,2216,-12180,-9638,-2292,2025-01-29 15:12:04,0.0
-12760,-2656,932,-11863,-10199,-1329,2025-01-29 15:12:04,0.0
-13984,-3432,380,-11598,-11466,-701,2025-01-29 15:12:04,0.0
-16732,-4656,2356,-11013,-12766,-67,2025-01-29 15:12:04,0.0
-15400,-5220,3644,-9826,-13689,37,2025-01-29 15:12:04,0.0
-15668,-3776,3948,-8868,-13468,-396,2025-01-29 15:12:04,0.0
-10880,-2692,4484,-8266,-14282,-472,2025-01-29 15:12:04,0.0
-11168,-1328,3932,-8366,-13355,-711,2025-01-29 15:12:04,0.0
-12548,-1092,2732,-8712,-12191,-1025,2025-01-29 15:12:04,0.0
-14468,-2124,2640,-8954,-11406,-821,2025-01-29 15:12:04,0.0
-15476,-2948,4148,-8674,-10797,-452,2025-01-29 15:12:04,0.0
-14668,-3204,3920,-8733,-11358,-157,2025-01-29 15:12:04,0.0
-14532,-2316,3496,-9148,-12081,176,2025-01-29 15:12:04,0.0
-14832,-868,5004,-9317,-10832,586,2025-01-29 15:12:04,0.0
-15892,-788,5436,-9105,-9745,1641,2025-01-29 15:12:04,0.0
-13960,-2296,8380,-8068,-9151,2657,2025-01-29 15:12:04,0.0
-12044,-2844,7880,-7613,-9607,2294,2025-01-29 15:12:04,0.0
-11800,-2676,8056,-7065,-10243,2129,2025-01-29 15:12:04,0.0
-12300,-1016,7968,-6487,-10343,2610,2025-01-29 15:12:04,0.0
-11960,-208,8296,-5966,-10416,3067,2025-01-29 15:12:04,0.0
-11772,-280,9136,-5837,-10334,3447,2025-01-29 15:12:04,0.0
-10696,-1200,9000,-5729,-9878,3308,2025-01-29 15:12:04,0.0
-11092,-2376,8976,-5556,-8793,2804,2025-01-29 15:12:04,0.0
-11788,-2416,9560,-5146,-8118,2880,2025-01-29 15:12:04,0.0
-9608,-1904,9768,-4400,-8833,3106,2025-01-29 15:12:04,0.0
-10736,-1472,9992,-4045,-9409,3159,2025-01-29 15:12:04,0.0
-9800,-1388,10864,-3888,-9555,2784,2025-01-29 15:12:04,0.0
-10724,-1804,11800,-3870,-10072,2398,2025-01-29 15:12:04,0.0
-11144,-1012,14040,-3136,-11676,2932,2025-01-29 15:12:04,0.0
-11340,36,15452,-1677,-14469,3575,2025-01-29 15:12:04,0.0
-10448,320,14424,-240,-14708,3726,2025-01-29 15:12:04,0.0
-8464,-484,13380,308,-13825,3284,2025-01-29 15:12:04,0.0
-8068,-1748,13736,593,-13529,2832,2025-01-29 15:12:04,0.0
-8920,-1744,16424,1597,-13417,2419,2025-01-29 15:12:04,0.0
-9440,-772,17592,2933,-13225,2217,2025-01-29 15:12:04,0.0
-9232,-24,16660,3882,-12822,2124,2025-01-29 15:12:04,0.0
-8524,456,15468,3907,-12047,1973,2025-01-29 15:12:04,0.0
-7636,1032,14448,3831,-10783,1512,2025-01-29 15:12:04,0.0
-7356,1424,13744,2920,-9526,1136,2025-01-29 15:12:04,0.0
-7668,1876,14296,1857,-7847,1010,2025-01-29 15:12:04,0.0
-9156,2548,17564,947,-7220,1251,2025-01-29 15:12:04,0.0
-10492,2060,20256,392,-10020,1985,2025-01-29 15:12:04,0.0
-10144,956,19856,341,-11997,2031,2025-01-29 15:12:04,0.0
-7416,-836,18044,417,-11086,1328,2025-01-29 15:12:04,0.0
-5712,-1936,17408,853,-7422,257,2025-01-29 15:12:04,0.0
-4736,-1464,17660,1741,-2908,-877,2025-01-29 15:12:04,0.0
-5680,-836,17564,2512,-963,-1468,2025-01-29 15:12:04,0.0
-7032,380,17544,2669,-1441,-1544,2025-01-29 15:12:04,0.0
-7632,1388,17152,2083,-2815,-1376,2025-01-29 15:12:04,0.0
-7440,2100,16664,1497,-3970,-828,2025-01-29 15:12:04,0.0
-6052,2140,16292,784,-4449,-214,2025-01-29 15:12:04,0.0
-5156,1860,16840,662,-3861,25,2025-01-29 15:12:04,0.0
-5344,672,17612,935,-3549,-49,2025-01-29 15:12:04,0.0
-4336,292,16028,863,-2661,-185,2025-01-29 15:12:04,0.0
-4876,-328,16100,755,-1569,-297,2025-01-29 15:12:04,0.0
-5684,216,16568,699,-682,-349,2025-01-29 15:12:04,0.0
-6036,932,16120,277,-1012,-175,2025-01-29 15:12:04,0.0
-6036,1044,16188,84,-1893,-87,2025-01-29 15:12:04,0.0
-5680,1256,16208,-44,-2172,114,2025-01-29 15:12:04,0.0
-5124,1456,15784,-131,-1797,454,2025-01-29 15:12:05,0.0
-5320,1376,15592,-380,-877,924,2025-01-29 15:12:05,0.0
-5580,1696,15880,-837,-36,1288,2025-01-29 15:12:05,0.0
-6184,1800,16612,-1161,492,1914,2025-01-29 15:12:05,0.0
-6380,2080,16552,-1489,127,2358,2025-01-29 15:12:05,0.0
-6156,1540,16604,-1741,-489,2535,2025-01-29 15:12:05,0.0
-5472,880,16728,-1644,-839,2604,2025-01-29 15:12:05,0.0
-4580,36,16528,-1575,-483,2564,2025-01-29 15:12:05,0.0
-3808,-724,16708,-1467,285,2258,2025-01-29 15:12:05,0.0
-4280,-244,17372,-1054,661,2056,2025-01-29 15:12:05,0.0
-4472,572,16492,-1050,637,1879,2025-01-29 15:12:05,0.0
-4972,1352,16948,-1119,596,1783,2025-01-29 15:12:05,0.0
-4852,1692,16336,-1222,460,1645,2025-01-29 15:12:05,0.0
-4704,1384,16492,-1121,890,1350,2025-01-29 15:12:05,0.0
-4448,944,16452,-929,1170,1090,2025-01-29 15:12:05,0.0
