acceleration_x,acceleration_y,acceleration_z,gyroscope_x,gyroscope_y,gyroscope_z,timestamp,label
-13660,-888,-372,-77,176,-204,2025-01-29 15:16:55,1.0
-13736,-712,-424,-73,173,-201,2025-01-29 15:16:55,1.0
-13692,-868,-316,-69,233,-212,2025-01-29 15:16:55,1.0
-13844,-904,-352,-31,235,-205,2025-01-29 15:16:55,1.0
-13808,-744,-380,-36,209,-174,2025-01-29 15:16:55,1.0
-13764,-776,-428,-48,148,-179,2025-01-29 15:16:55,1.0
-13776,-784,-372,-69,103,-163,2025-01-29 15:16:55,1.0
-13620,-688,-432,-64,119,-157,2025-01-29 15:16:55,1.0
-13688,-812,-340,-48,193,-164,2025-01-29 15:16:55,1.0
-13728,-780,-340,-79,205,-173,2025-01-29 15:16:55,1.0
-13688,-756,-532,-107,208,-196,2025-01-29 15:16:55,1.0
-13748,-740,-376,-116,177,-208,2025-01-29 15:16:55,1.0
-13692,-752,-220,-171,280,-183,2025-01-29 15:16:55,1.0
-13784,-784,-384,-175,204,-213,2025-01-29 15:16:55,1.0
-13676,-816,-432,-158,-59,-191,2025-01-29 15:16:55,1.0
-13636,-760,-188,-156,138,-169,2025-01-29 15:16:55,1.0
-13628,-776,-352,-190,358,-183,2025-01-29 15:16:55,1.0
-13824,-724,-168,-185,366,-188,2025-01-29 15:16:55,1.0
-13792,-852,-136,-163,261,-161,2025-01-29 15:16:55,1.0
-13748,-856,-116,-141,188,-166,2025-01-29 15:16:55,1.0
-13836,-812,-336,-163,113,-201,2025-01-29 15:16:55,1.0
-13748,-864,-352,-162,102,-199,2025-01-29 15:16:55,1.0
-13724,-704,-420,-144,142,-207,2025-01-29 15:16:55,1.0
-13748,-836,-324,-146,199,-212,2025-01-29 15:16:55,1.0
-13768,-752,-248,-157,174,-217,2025-01-29 15:16:56,1.0
-13764,-748,-204,-147,84,-190,2025-01-29 15:16:56,1.0
-13792,-840,-276,-153,56,-189,2025-01-29 15:16:56,1.0
-13620,-804,-164,-139,-7,-182,2025-01-29 15:16:56,1.0
-13696,-860,-144,-148,76,-188,2025-01-29 15:16:56,1.0
-13620,-696,-236,-122,141,-184,2025-01-29 15:16:56,1.0
-13664,-644,-316,-227,273,-217,2025-01-29 15:16:56,1.0
-13828,-776,-292,-232,330,-218,2025-01-29 15:16:56,1.0
-13764,-768,-308,-152,332,-166,2025-01-29 15:16:56,1.0
-13780,-644,-120,-130,230,-163,2025-01-29 15:16:56,1.0
-13704,-756,-284,-161,157,-185,2025-01-29 15:16:56,1.0
-13808,-764,-360,-153,62,-164,2025-01-29 15:16:56,1.0
-13760,-656,-340,-149,103,-179,2025-01-29 15:16:56,1.0
-13664,-736,-364,-117,200,-230,2025-01-29 15:16:56,1.0
-13752,-728,-332,-132,194,-235,2025-01-29 15:16:56,1.0
-13740,-676,-112,-156,142,-217,2025-01-29 15:16:56,1.0
-13704,-672,-164,-177,107,-179,2025-01-29 15:16:56,1.0
-13632,-700,-152,-198,277,-214,2025-01-29 15:16:56,1.0
-13872,-924,-644,-228,119,-207,2025-01-29 15:16:56,1.0
-13808,-844,-412,-167,-35,-187,2025-01-29 15:16:56,1.0
-13632,-904,-232,-148,64,-146,2025-01-29 15:16:56,1.0
-13700,-704,-356,-97,159,-154,2025-01-29 15:16:56,1.0
-13680,-704,-216,-146,137,-183,2025-01-29 15:16:56,1.0
-13608,-656,-336,-165,238,-182,2025-01-29 15:16:56,1.0
-13744,-784,-284,-150,290,-186,2025-01-29 15:16:56,1.0
-13756,-708,-348,-176,308,-175,2025-01-29 15:16:56,1.0
-13820,-760,-420,-148,210,-203,2025-01-29 15:16:56,1.0
-13800,-852,-492,-193,96,-162,2025-01-29 15:16:56,1.0
-13664,-692,-424,-228,68,-163,2025-01-29 15:16:56,1.0
-13572,-764,-424,-272,137,-159,2025-01-29 15:16:56,1.0
-13644,-768,-348,-289,260,-183,2025-01-29 15:16:56,1.0
-13600,-764,-316,-203,281,-151,2025-01-29 15:16:56,1.0
-13532,-756,-348,-202,327,-183,2025-01-29 15:16:56,1.0
-13576,-724,-216,-248,363,-223,2025-01-29 15:16:56,1.0
-13712,-736,-240,-276,320,-216,2025-01-29 15:16:56,1.0
-13636,-752,-524,-253,320,-185,2025-01-29 15:16:56,1.0
-13684,-732,-252,-231,371,-137,2025-01-29 15:16:56,1.0
-13784,-592,-264,-239,395,-127,2025-01-29 15:16:56,1.0
-13788,-508,-428,-262,366,-140,2025-01-29 15:16:56,1.0
-13884,-456,-512,-328,310,-101,2025-01-29 15:16:56,1.0
-13584,-312,-420,-409,350,-115,2025-01-29 15:16:56,1.0
-13572,-484,-360,-447,435,-150,2025-01-29 15:16:56,1.0
-13656,-432,-516,-471,479,-149,2025-01-29 15:16:56,1.0
-13624,-604,-384,-464,500,-150,2025-01-29 15:16:56,1.0
-13648,-560,-340,-478,605,-179,2025-01-29 15:16:56,1.0
-13540,-536,-424,-490,800,-190,2025-01-29 15:16:56,1.0
-13548,-404,-512,-523,880,-263,2025-01-29 15:16:56,1.0
-13548,-612,-692,-549,625,-316,2025-01-29 15:16:56,1.0
-13772,-700,-572,-532,560,-336,2025-01-29 15:16:56,1.0
-13800,-824,-448,-461,589,-296,2025-01-29 15:16:56,1.0
-13716,-1108,-720,-380,525,-313,2025-01-29 15:16:56,1.0
-13864,-1392,-664,-233,306,-329,2025-01-29 15:16:56,1.0
-13736,-1632,-684,93,296,-308,2025-01-29 15:16:56,1.0
-13336,-1672,-564,408,585,-352,2025-01-29 15:16:56,1.0
-12976,-1468,-736,665,924,-495,2025-01-29 15:16:56,1.0
-12896,-1104,-880,866,1458,-720,2025-01-29 15:16:56,1.0
-13016,-780,-840,896,1969,-871,2025-01-29 15:16:56,1.0
-13248,-332,-872,803,2432,-978,2025-01-29 15:16:56,1.0
-13308,352,-344,606,2764,-1003,2025-01-29 15:16:56,1.0
-13584,900,-316,325,2863,-1083,2025-01-29 15:16:56,1.0
-14116,1080,-368,47,2498,-1146,2025-01-29 15:16:56,1.0
-14588,888,-244,-406,1642,-1135,2025-01-29 15:16:56,1.0
-14548,1040,204,-837,756,-1106,2025-01-29 15:16:56,1.0
-14452,1032,316,-1038,28,-1075,2025-01-29 15:16:57,1.0
-14396,1172,196,-1184,-519,-1165,2025-01-29 15:16:57,1.0
-14436,1640,-84,-1503,-961,-1211,2025-01-29 15:16:57,1.0
-14320,1624,-304,-2025,-1412,-1222,2025-01-29 15:16:57,1.0
-14168,1224,-44,-2447,-1625,-1288,2025-01-29 15:16:57,1.0
-14064,584,40,-2641,-1484,-1431,2025-01-29 15:16:57,1.0
-14064,48,-132,-2672,-1432,-1531,2025-01-29 15:16:57,1.0
-14164,-452,-448,-2673,-1583,-1514,2025-01-29 15:16:57,1.0
-13844,-1324,-376,-2585,-1957,-1531,2025-01-29 15:16:57,1.0
-13788,-2152,-340,-2144,-2066,-1718,2025-01-29 15:16:57,1.0
-13556,-2980,-540,-1585,-1978,-1985,2025-01-29 15:16:57,1.0
-13444,-3644,-84,-807,-1965,-2196,2025-01-29 15:16:57,1.0
-13452,-4192,432,-163,-2017,-2122,2025-01-29 15:16:57,1.0
-13556,-4292,1116,545,-2043,-1821,2025-01-29 15:16:57,1.0
-13532,-4008,1036,1181,-1992,-1396,2025-01-29 15:16:57,1.0
-13448,-3408,1492,1344,-1926,-1065,2025-01-29 15:16:57,1.0
-13272,-1748,2328,1158,-1719,-995,2025-01-29 15:16:57,1.0
-13364,-280,1800,235,-1533,-871,2025-01-29 15:16:57,1.0
-13460,132,692,-875,-944,-1139,2025-01-29 15:16:57,1.0
-13156,-312,228,-2313,-224,-1754,2025-01-29 15:16:57,1.0
-12776,-1572,760,-3347,582,-2615,2025-01-29 15:16:57,1.0
-13180,-2812,1952,-3542,924,-3007,2025-01-29 15:16:57,1.0
-13448,-3800,2800,-2933,373,-2569,2025-01-29 15:16:57,1.0
-13436,-3928,3048,-2026,-335,-1872,2025-01-29 15:16:57,1.0
-13032,-3924,2492,-1425,-713,-1421,2025-01-29 15:16:57,1.0
-12748,-3380,2156,-1443,-891,-1388,2025-01-29 15:16:57,1.0
-12616,-2480,2496,-1599,-1144,-1361,2025-01-29 15:16:57,1.0
-12688,-1904,2592,-1659,-1263,-1261,2025-01-29 15:16:57,1.0
-12892,-1556,2432,-1952,-1481,-915,2025-01-29 15:16:57,1.0
-12892,-1568,2708,-2136,-1420,-567,2025-01-29 15:16:57,1.0
-12804,-1884,2408,-2433,-1114,-318,2025-01-29 15:16:57,1.0
-13080,-2064,2808,-2644,-512,-213,2025-01-29 15:16:57,1.0
-13096,-2364,2528,-3038,35,-318,2025-01-29 15:16:57,1.0
-13644,-2800,2420,-3367,303,-291,2025-01-29 15:16:57,1.0
-14220,-2924,2616,-3541,92,85,2025-01-29 15:16:57,1.0
-14352,-3064,2580,-3541,-72,335,2025-01-29 15:16:57,1.0
-14164,-3280,2644,-3551,-223,141,2025-01-29 15:16:57,1.0
-14324,-3216,3152,-3788,-671,-354,2025-01-29 15:16:57,1.0
-14784,-3164,4012,-3488,-1567,-332,2025-01-29 15:16:57,1.0
-14784,-3456,4388,-3016,-2335,67,2025-01-29 15:16:57,1.0
-14240,-3640,4032,-2785,-2556,130,2025-01-29 15:16:57,1.0
-13612,-3360,3012,-2875,-2396,-8,2025-01-29 15:16:57,1.0
-13636,-3244,2780,-3499,-2118,-239,2025-01-29 15:16:57,1.0
-13396,-4080,3712,-4287,-1172,-461,2025-01-29 15:16:57,1.0
-14136,-4996,5844,-4613,295,-155,2025-01-29 15:16:57,1.0
-15180,-6172,5376,-3489,2242,430,2025-01-29 15:16:57,1.0
-16468,-6484,2628,-2970,3624,327,2025-01-29 15:16:57,1.0
-16692,-6212,3072,-2709,3603,-1042,2025-01-29 15:16:57,1.0
-17608,-5780,4820,-1753,1780,-2919,2025-01-29 15:16:57,1.0
-19884,-4764,4828,-151,-2412,-3283,2025-01-29 15:16:57,1.0
-20748,-3268,2948,1314,-6516,-1560,2025-01-29 15:16:57,1.0
-20500,-2208,344,2186,-9737,1007,2025-01-29 15:16:57,1.0
-18364,-860,-1632,2667,-11483,2959,2025-01-29 15:16:57,1.0
-14560,-1576,-3900,2578,-11134,3697,2025-01-29 15:16:57,1.0
-12284,-1884,-5152,1569,-8914,3812,2025-01-29 15:16:57,1.0
-10100,-1432,-5168,-138,-3771,3275,2025-01-29 15:16:57,1.0
-9944,-480,-4388,-1618,1221,2128,2025-01-29 15:16:57,1.0
-11788,804,-1556,-2397,4998,1710,2025-01-29 15:16:57,1.0
-13016,1396,892,-1908,6465,2036,2025-01-29 15:16:57,1.0
-14488,672,1852,-720,6617,2668,2025-01-29 15:16:57,1.0
-14888,-1104,1884,-52,5558,3326,2025-01-29 15:16:58,1.0
-14552,-2536,2216,782,3728,3739,2025-01-29 15:16:58,1.0
-13924,-3156,1712,1539,2113,3494,2025-01-29 15:16:58,1.0
-13492,-3072,1876,2445,867,3001,2025-01-29 15:16:58,1.0
-13696,-1468,1568,3150,-210,2847,2025-01-29 15:16:58,1.0
-12888,-300,716,3807,-1211,2895,2025-01-29 15:16:58,1.0
-12312,404,656,4085,-1988,3002,2025-01-29 15:16:58,1.0
-11580,552,572,3895,-2022,2877,2025-01-29 15:16:58,1.0
-10824,824,1048,3626,-896,2430,2025-01-29 15:16:58,1.0
-11012,704,972,3392,888,2023,2025-01-29 15:16:58,1.0
-11600,576,952,3201,2445,1780,2025-01-29 15:16:58,1.0
-12240,748,1316,3047,3023,1751,2025-01-29 15:16:58,1.0
-12476,748,1752,3005,2804,1558,2025-01-29 15:16:58,1.0
-12368,912,1540,2957,1906,1181,2025-01-29 15:16:58,1.0
-12536,924,1964,2762,666,587,2025-01-29 15:16:58,1.0
-12640,640,2372,2672,-328,113,2025-01-29 15:16:58,1.0
-11844,380,2812,2727,-578,-306,2025-01-29 15:16:58,1.0
-11492,332,3200,2825,-592,-770,2025-01-29 15:16:58,1.0
-11556,284,3732,2958,-330,-1140,2025-01-29 15:16:58,1.0
-11844,0,3792,3173,-50,-1459,2025-01-29 15:16:58,1.0
-12272,-308,3824,3323,-97,-1797,2025-01-29 15:16:58,1.0
-12108,256,3528,3535,-436,-2006,2025-01-29 15:16:58,1.0
-13136,1120,3148,3628,-848,-1999,2025-01-29 15:16:58,1.0
-13416,1556,900,3556,-1152,-1563,2025-01-29 15:16:58,1.0
-13148,1796,-460,3165,-380,-1069,2025-01-29 15:16:58,1.0
-13076,1264,-1588,2321,1126,-777,2025-01-29 15:16:58,1.0
-14252,1600,-196,1716,3887,-43,2025-01-29 15:16:58,1.0
-15824,2112,2292,2451,6521,1262,2025-01-29 15:16:58,1.0
-16576,420,5120,3290,8222,2095,2025-01-29 15:16:58,1.0
-17844,-2224,5612,3692,8989,1862,2025-01-29 15:16:58,1.0
-19104,-3356,2760,4164,8964,1769,2025-01-29 15:16:58,1.0
-20212,-1332,1748,5427,6484,2355,2025-01-29 15:16:58,1.0
-20628,2352,-628,6564,2480,3619,2025-01-29 15:16:58,1.0
-20616,5164,-3444,4908,486,4655,2025-01-29 15:16:58,1.0
-19188,6792,-5528,647,20,4951,2025-01-29 15:16:58,1.0
-16516,6664,-4160,-2825,-1287,3713,2025-01-29 15:16:58,1.0
-13272,4524,-1740,-4133,-4108,1317,2025-01-29 15:16:58,1.0
-11372,360,-1304,-5143,-8988,-1316,2025-01-29 15:16:58,1.0
-10552,-1548,-1596,-5230,-12928,-2560,2025-01-29 15:16:58,1.0
-11184,-3344,-2452,-4308,-13906,-2615,2025-01-29 15:16:58,1.0
-12176,-6092,-3284,-2855,-8544,-1396,2025-01-29 15:16:58,1.0
-11664,-5104,-2568,-941,1755,-550,2025-01-29 15:16:58,1.0
-11864,-3092,-2752,883,9854,-992,2025-01-29 15:16:58,1.0
-11720,-588,-1932,1357,14334,-1787,2025-01-29 15:16:58,1.0
-12384,1432,-312,1106,16162,-2984,2025-01-29 15:16:58,1.0
-13520,2416,-240,93,14737,-3815,2025-01-29 15:16:58,1.0
-15272,1792,-1156,-1724,9886,-4237,2025-01-29 15:16:58,1.0
-15640,688,-2220,-3837,2695,-4410,2025-01-29 15:16:58,1.0
-15688,-1072,-996,-4842,-4154,-4461,2025-01-29 15:16:58,1.0
-14016,-2100,-1284,-4787,-8219,-3797,2025-01-29 15:16:58,1.0
-12168,-2572,-596,-4751,-10094,-3112,2025-01-29 15:16:58,1.0
-10236,-2336,-392,-4616,-10178,-3011,2025-01-29 15:16:58,1.0
-10148,-1960,-48,-4426,-7725,-2899,2025-01-29 15:16:58,1.0
-9648,-1792,-364,-4042,-3263,-2675,2025-01-29 15:16:58,1.0
-10428,-1940,104,-3447,1974,-2560,2025-01-29 15:16:58,1.0
-11004,-2364,352,-3066,4895,-2320,2025-01-29 15:16:58,1.0
-12172,-2624,1012,-2802,5087,-2160,2025-01-29 15:16:58,1.0
-13388,-2704,1432,-2505,4251,-1852,2025-01-29 15:16:58,1.0
-14320,-2512,1516,-1926,2714,-1156,2025-01-29 15:16:58,1.0
-14740,-1860,1900,-1163,857,123,2025-01-29 15:16:58,1.0
-13744,-1400,1264,-545,-514,1146,2025-01-29 15:16:59,1.0
-13128,-856,1328,-709,-1353,1778,2025-01-29 15:16:59,1.0
-11916,-540,1240,-1226,-1754,1830,2025-01-29 15:16:59,1.0
-11832,-256,1268,-1689,-1742,1689,2025-01-29 15:16:59,1.0
-12108,-432,1068,-2257,-1449,1758,2025-01-29 15:16:59,1.0
-11952,-1000,1268,-2677,-1074,1752,2025-01-29 15:16:59,1.0
-12164,-1448,1204,-2946,-395,1526,2025-01-29 15:16:59,1.0
-12508,-1692,696,-3415,698,1198,2025-01-29 15:16:59,1.0
-13212,-1660,532,-3918,1795,560,2025-01-29 15:16:59,1.0
-13824,-1172,252,-4617,2350,-362,2025-01-29 15:16:59,1.0
-14636,-140,272,-5202,1920,-1156,2025-01-29 15:16:59,1.0
-15368,-368,1480,-5904,1029,-2017,2025-01-29 15:16:59,1.0
-16000,-2164,3636,-6497,509,-2959,2025-01-29 15:16:59,1.0
-17292,-3780,5160,-6521,121,-3375,2025-01-29 15:16:59,1.0
-18112,-4728,5220,-5675,-392,-2656,2025-01-29 15:16:59,1.0
-18360,-4964,2248,-4356,220,-2106,2025-01-29 15:16:59,1.0
-17628,-4656,448,-3713,549,-2691,2025-01-29 15:16:59,1.0
-16652,-5144,2272,-2775,-419,-4288,2025-01-29 15:16:59,1.0
-17692,-5464,3128,-1449,-1796,-5361,2025-01-29 15:16:59,1.0
-19496,-5636,3636,163,-3389,-5040,2025-01-29 15:16:59,1.0
-20048,-5160,3244,2582,-5406,-2839,2025-01-29 15:16:59,1.0
-19992,-3456,1616,4380,-8015,605,2025-01-29 15:16:59,1.0
-17232,-1132,-1168,5018,-10694,3233,2025-01-29 15:16:59,1.0
-13728,216,-4220,4497,-13457,5242,2025-01-29 15:16:59,1.0
-10188,28,-7144,3104,-13973,5282,2025-01-29 15:16:59,1.0
-7312,1248,-6836,673,-10427,3177,2025-01-29 15:16:59,1.0
-6976,2468,-6136,-1867,-701,-545,2025-01-29 15:16:59,1.0
-11160,1732,-4004,-2916,8367,-1699,2025-01-29 15:16:59,1.0
-14116,328,-220,-1932,13795,-803,2025-01-29 15:16:59,1.0
-15872,-1016,1356,-1282,15201,535,2025-01-29 15:16:59,1.0
-16980,-2232,3216,-447,11519,1764,2025-01-29 15:16:59,1.0
-17568,-2812,3164,1037,5275,2871,2025-01-29 15:16:59,1.0
-16560,-2632,928,3227,-3704,3673,2025-01-29 15:16:59,1.0
-14296,-2016,-468,4058,-8193,3762,2025-01-29 15:16:59,1.0
-12724,-1400,344,4482,-9570,3639,2025-01-29 15:16:59,1.0
-10856,-524,-52,4913,-9259,3317,2025-01-29 15:16:59,1.0
-9576,308,236,5348,-7585,2899,2025-01-29 15:16:59,1.0
-8948,868,28,5466,-4081,2426,2025-01-29 15:16:59,1.0
-8844,1088,-72,5129,1226,1708,2025-01-29 15:16:59,1.0
-9996,1112,420,4540,5877,919,2025-01-29 15:16:59,1.0
-11488,1268,1784,4271,7877,516,2025-01-29 15:16:59,1.0
-12748,1192,2004,4086,7423,442,2025-01-29 15:16:59,1.0
-13532,1080,2048,3813,4485,391,2025-01-29 15:16:59,1.0
-13348,1088,1856,3489,514,-186,2025-01-29 15:16:59,1.0
-13020,1200,1748,2829,-1958,-924,2025-01-29 15:16:59,1.0
-12944,816,2560,2184,-3115,-1533,2025-01-29 15:16:59,1.0
-13292,128,3328,1897,-3612,-1816,2025-01-29 15:16:59,1.0
-12820,-192,3724,2028,-3593,-1908,2025-01-29 15:16:59,1.0
-12652,48,3340,2158,-3663,-1784,2025-01-29 15:16:59,1.0
-12296,1096,2476,1958,-3728,-1543,2025-01-29 15:16:59,1.0
-12164,1704,1796,1961,-2971,-1391,2025-01-29 15:16:59,1.0
-12544,1664,1808,1930,-246,-893,2025-01-29 15:16:59,1.0
-13080,244,2492,2169,2788,-75,2025-01-29 15:16:59,1.0
-13532,-1156,3312,2827,4654,523,2025-01-29 15:16:59,1.0
-14204,-1384,4004,3678,4784,711,2025-01-29 15:16:59,1.0
-15040,-692,5044,4454,3219,927,2025-01-29 15:16:59,1.0
-16132,-4,5216,5149,828,1710,2025-01-29 15:16:59,1.0
-15552,744,4388,5676,-1123,2456,2025-01-29 15:16:59,1.0
-14880,1424,2692,5890,-1070,2778,2025-01-29 15:16:59,1.0
-14828,1772,1080,5714,1775,2613,2025-01-29 15:16:59,1.0
-16168,3536,-152,5427,5847,2278,2025-01-29 15:16:59,1.0
-18260,5120,-1956,3972,8926,2958,2025-01-29 15:17:00,1.0
-19272,5040,-3156,1590,9971,3520,2025-01-29 15:17:00,1.0
-19516,4908,-3492,-866,9043,3035,2025-01-29 15:17:00,1.0
-18644,3932,-3248,-2672,5363,1661,2025-01-29 15:17:00,1.0
-16900,1728,-3220,-3607,-58,-601,2025-01-29 15:17:00,1.0
-15344,-1392,-3676,-3907,-6043,-2698,2025-01-29 15:17:00,1.0
-13796,-3164,-3392,-3346,-10879,-3733,2025-01-29 15:17:00,1.0
-12624,-4888,-2760,-2638,-13313,-3643,2025-01-29 15:17:00,1.0
-11612,-5768,-2144,-1886,-12013,-3010,2025-01-29 15:17:00,1.0
-11084,-6096,-1296,-498,-7709,-2469,2025-01-29 15:17:00,1.0
-10828,-3548,-208,1754,222,-2151,2025-01-29 15:17:00,1.0
-11256,-860,-1804,3148,7877,-2200,2025-01-29 15:17:00,1.0
-11432,844,-2120,2637,12472,-2809,2025-01-29 15:17:00,1.0
-12328,1320,-1340,1354,13098,-3715,2025-01-29 15:17:00,1.0
-13904,680,-856,-226,10968,-4305,2025-01-29 15:17:00,1.0
-15324,-648,-516,-1361,6414,-4387,2025-01-29 15:17:00,1.0
-15984,-1760,-696,-1685,941,-3604,2025-01-29 15:17:00,1.0
-14356,-2476,-1948,-1375,-3368,-2496,2025-01-29 15:17:00,1.0
-13792,-2400,-444,-1470,-5834,-1763,2025-01-29 15:17:00,1.0
-12936,-2160,-732,-1938,-5795,-1737,2025-01-29 15:17:00,1.0
-11460,-1692,-1464,-2386,-3845,-2088,2025-01-29 15:17:00,1.0
-11084,-1036,-1876,-2977,-699,-2587,2025-01-29 15:17:00,1.0
-11836,-844,-1264,-3556,2124,-2734,2025-01-29 15:17:00,1.0
-12664,-1304,-424,-3755,3241,-2484,2025-01-29 15:17:00,1.0
-13464,-2040,-52,-3962,2441,-2110,2025-01-29 15:17:00,1.0
-14056,-2240,0,-4052,1214,-1714,2025-01-29 15:17:00,1.0
-14120,-2292,-220,-3972,250,-1332,2025-01-29 15:17:00,1.0
-14012,-1960,-508,-3953,-471,-973,2025-01-29 15:17:00,1.0
-13476,-1976,-644,-4034,-707,-807,2025-01-29 15:17:00,1.0
-13052,-2228,-456,-4106,-370,-793,2025-01-29 15:17:00,1.0
-13208,-2092,0,-4265,634,-760,2025-01-29 15:17:00,1.0
-13480,-2044,212,-4351,965,-608,2025-01-29 15:17:00,1.0
-14076,-2004,464,-4490,577,-332,2025-01-29 15:17:00,1.0
-14060,-1868,-64,-4707,-614,67,2025-01-29 15:17:00,1.0
-13604,-1828,-428,-5058,-1027,416,2025-01-29 15:17:00,1.0
-12996,-1932,-688,-5316,608,613,2025-01-29 15:17:00,1.0
-12512,-2416,20,-5225,1227,791,2025-01-29 15:17:00,1.0
-12992,-2720,152,-5146,1685,839,2025-01-29 15:17:00,1.0
-13780,-2500,-44,-5095,2291,960,2025-01-29 15:17:00,1.0
-14272,-2016,-448,-5384,2588,1027,2025-01-29 15:17:00,1.0
-14524,-1572,-412,-5386,2131,1023,2025-01-29 15:17:00,4.0
-14352,-1592,-332,-5254,1166,1160,2025-01-29 15:17:00,4.0
-14472,-1756,-264,-4974,110,1486,2025-01-29 15:17:00,4.0
-14640,-1980,-880,-4469,-92,1828,2025-01-29 15:17:00,4.0
-14384,-2316,-772,-3998,-405,1742,2025-01-29 15:17:00,4.0
-14300,-2292,-1156,-3333,-1470,1431,2025-01-29 15:17:00,4.0
-13780,-1948,-1160,-2804,-1963,1369,2025-01-29 15:17:00,4.0
-13340,-1404,-1444,-2354,-1329,1284,2025-01-29 15:17:00,4.0
-13080,-976,-1140,-2181,-234,1356,2025-01-29 15:17:00,4.0
-12704,-728,-528,-1970,580,1230,2025-01-29 15:17:00,4.0
-12424,-684,-556,-1862,1025,1068,2025-01-29 15:17:00,4.0
-12512,-344,-940,-1692,1828,780,2025-01-29 15:17:00,4.0
-13372,-132,-860,-1438,2167,670,2025-01-29 15:17:00,4.0
-13724,-104,-588,-1122,2143,597,2025-01-29 15:17:00,4.0
-13700,-344,-940,-910,2652,422,2025-01-29 15:17:00,4.0
-13616,-36,-640,-904,2433,197,2025-01-29 15:17:00,4.0
-13056,320,-1324,-963,1142,54,2025-01-29 15:17:00,4.0
-13124,288,-2144,-1124,348,-113,2025-01-29 15:17:00,4.0
-13016,116,-2132,-1397,479,-413,2025-01-29 15:17:00,4.0
-13540,-488,-1264,-1913,1753,-502,2025-01-29 15:17:00,4.0
-14168,-748,308,-1981,2189,-550,2025-01-29 15:17:01,4.0
-14148,-628,884,-1334,1314,-663,2025-01-29 15:17:01,4.0
-14100,-168,88,-953,673,-591,2025-01-29 15:17:01,4.0
-14544,-248,108,-591,-187,-678,2025-01-29 15:17:01,4.0
-14560,-280,200,-266,-1387,-736,2025-01-29 15:17:01,4.0
-14124,-264,-336,-229,-1277,-730,2025-01-29 15:17:01,4.0
-13516,-384,-576,-234,-1293,-793,2025-01-29 15:17:01,4.0
-13456,-336,-940,-166,-945,-793,2025-01-29 15:17:01,4.0
-13540,-388,-1152,-69,-158,-526,2025-01-29 15:17:01,4.0
-12772,-76,-872,-72,500,-587,2025-01-29 15:17:01,4.0
-12944,60,-636,49,906,-488,2025-01-29 15:17:01,4.0
-12724,-164,-268,434,1654,-350,2025-01-29 15:17:01,4.0
-12888,-304,-728,639,1579,-518,2025-01-29 15:17:01,4.0
-13524,-328,-1328,496,1353,-510,2025-01-29 15:17:01,4.0
-14072,-512,-1484,232,908,-524,2025-01-29 15:17:01,4.0
-13860,-580,-1524,-2,370,-672,2025-01-29 15:17:01,4.0
-13740,-664,-2172,-310,-311,-1060,2025-01-29 15:17:01,4.0
-12356,-488,-2080,-637,477,-1234,2025-01-29 15:17:01,4.0
-12084,-148,-1992,-774,262,-1434,2025-01-29 15:17:01,4.0
-11280,56,-2544,-707,396,-1300,2025-01-29 15:17:01,4.0
-10720,-308,-3020,-687,491,-1253,2025-01-29 15:17:01,4.0
-9316,-1032,-3812,-974,841,-1899,2025-01-29 15:17:01,4.0
-8484,-912,-3480,-1858,1632,-2338,2025-01-29 15:17:01,4.0
-7128,-1020,-552,-2545,2424,-2074,2025-01-29 15:17:01,4.0
-5660,-688,-1176,-2868,2036,-2188,2025-01-29 15:17:01,4.0
-5576,-376,2176,-2562,594,-2112,2025-01-29 15:17:01,4.0
-5216,-228,3056,-1785,579,-1120,2025-01-29 15:17:01,4.0
-4740,-1240,2592,-962,1208,-635,2025-01-29 15:17:01,4.0
-5396,-1024,3000,-587,1854,-569,2025-01-29 15:17:01,4.0
-7008,-144,4460,104,1721,462,2025-01-29 15:17:01,4.0
-7696,-292,4008,586,1247,1498,2025-01-29 15:17:01,4.0
-9388,-684,3276,653,289,1655,2025-01-29 15:17:01,4.0
-11268,-288,3408,627,-363,1611,2025-01-29 15:17:01,4.0
-13236,-488,2964,1320,-407,998,2025-01-29 15:17:01,4.0
-16020,-636,180,1510,8,-222,2025-01-29 15:17:01,4.0
-19612,-460,-1092,1003,1411,-706,2025-01-29 15:17:01,4.0
-19044,-284,-3500,27,2300,-1446,2025-01-29 15:17:01,4.0
-24228,-360,-2300,-938,2844,-1768,2025-01-29 15:17:01,4.0
-25616,-708,-2812,-1097,2254,-1929,2025-01-29 15:17:01,4.0
-26956,-644,-3756,-1148,1531,-1577,2025-01-29 15:17:01,4.0
-28760,-260,-1176,-1001,-1180,-435,2025-01-29 15:17:01,4.0
-27628,-1968,-492,-448,-3542,302,2025-01-29 15:17:01,4.0
-26656,-3480,-1312,-653,-4268,-487,2025-01-29 15:17:01,4.0
-28400,-4088,-1320,-1128,-3906,-1504,2025-01-29 15:17:01,4.0
-32768,-3140,-1564,-1299,-3225,-3044,2025-01-29 15:17:01,4.0
-32768,-896,-1584,-1875,-4020,-2866,2025-01-29 15:17:01,4.0
-32768,-164,2588,-2166,-5065,-1505,2025-01-29 15:17:01,4.0
-32768,-2316,6476,-462,-3649,356,2025-01-29 15:17:01,4.0
-32768,-2388,6756,1710,-5094,2024,2025-01-29 15:17:01,4.0
-32768,-4488,3712,4054,-669,2801,2025-01-29 15:17:01,4.0
-32768,-6024,-3772,3849,2013,1824,2025-01-29 15:17:01,4.0
-26516,-6508,-9328,1170,2776,1129,2025-01-29 15:17:01,4.0
-18964,-3624,-5348,29,3275,638,2025-01-29 15:17:01,4.0
-16620,-1016,-2344,2578,1742,1218,2025-01-29 15:17:01,4.0
-10480,1848,-3612,3947,-1770,3398,2025-01-29 15:17:01,4.0
-872,2564,-7460,4028,-5850,4130,2025-01-29 15:17:01,4.0
9756,540,-14928,1365,-5828,3516,2025-01-29 15:17:01,4.0
19960,-2280,-16492,-3366,2182,-181,2025-01-29 15:17:01,4.0
19900,-2816,-9240,-5056,7696,-3287,2025-01-29 15:17:01,4.0
11668,1128,856,-3331,10161,-4409,2025-01-29 15:17:01,4.0
-900,1684,3328,-2409,6408,-3489,2025-01-29 15:17:01,4.0
-3568,392,6208,-2717,3111,-1042,2025-01-29 15:17:02,4.0
-9444,-1212,10584,-254,1018,979,2025-01-29 15:17:02,4.0
-5980,-2392,8552,1632,-3,2084,2025-01-29 15:17:02,4.0
-2896,-2096,6660,1753,-1285,2186,2025-01-29 15:17:02,4.0
104,-1308,3408,2196,-2722,2021,2025-01-29 15:17:02,4.0
2664,-500,92,1407,-2618,1300,2025-01-29 15:17:02,4.0
4980,-644,-2060,234,-2063,445,2025-01-29 15:17:02,4.0
6388,-636,-2388,-598,-1268,-350,2025-01-29 15:17:02,4.0
7308,-412,-2776,-1151,-372,-1056,2025-01-29 15:17:02,4.0
6860,44,-2244,-1399,889,-1289,2025-01-29 15:17:02,4.0
4740,168,712,-1139,2661,-1005,2025-01-29 15:17:02,4.0
2576,0,2472,-613,3273,-212,2025-01-29 15:17:02,4.0
812,-452,3596,-186,2597,524,2025-01-29 15:17:02,4.0
-348,-716,4220,260,1401,852,2025-01-29 15:17:02,4.0
-160,-604,3964,555,361,679,2025-01-29 15:17:02,4.0
728,-460,3372,533,-620,525,2025-01-29 15:17:02,4.0
1296,-88,1964,706,-1192,399,2025-01-29 15:17:02,4.0
2128,136,-72,750,-1190,557,2025-01-29 15:17:02,4.0
1504,736,-1576,367,-1513,1143,2025-01-29 15:17:02,4.0
1236,-224,-1392,-182,-2693,1384,2025-01-29 15:17:02,4.0
-1568,-392,1240,-1288,-6905,1213,2025-01-29 15:17:02,4.0
-5784,-468,4948,-2029,-12568,1862,2025-01-29 15:17:02,4.0
-16856,-3320,-8208,319,-9709,3145,2025-01-29 15:17:02,4.0
-20504,-4436,-21676,-3962,-4327,2290,2025-01-29 15:17:02,4.0
-32768,-136,-3172,-5490,7877,-2550,2025-01-29 15:17:02,4.0
-32768,4844,25372,-1474,8239,-2458,2025-01-29 15:17:02,4.0
-32768,-4328,4564,7657,1564,-1212,2025-01-29 15:17:02,4.0
-32768,-3616,-32768,-2428,2968,-2672,2025-01-29 15:17:02,4.0
-32768,9312,3440,-11407,7572,-3707,2025-01-29 15:17:02,4.0
-32768,1260,17516,-3601,1081,6099,2025-01-29 15:17:02,4.0
-28724,-5612,12160,-3482,-7408,4900,2025-01-29 15:17:02,4.0
-20780,-5808,4976,-1468,-7189,661,2025-01-29 15:17:02,4.0
-18376,-4360,712,-1265,-3933,-970,2025-01-29 15:17:02,4.0
-17580,-3220,116,-1136,-1652,-1191,2025-01-29 15:17:02,4.0
-17128,-1004,-288,-465,-462,-750,2025-01-29 15:17:02,4.0
-16056,1416,-1168,437,138,-592,2025-01-29 15:17:02,4.0
-15856,1308,-3228,913,3159,-27,2025-01-29 15:17:02,4.0
-13428,132,-2152,1355,7801,-108,2025-01-29 15:17:02,4.0
-11640,-96,1724,1903,10075,-198,2025-01-29 15:17:02,4.0
-10688,-100,4176,2425,8236,11,2025-01-29 15:17:02,4.0
-8152,128,1944,2103,3798,-495,2025-01-29 15:17:02,4.0
-8004,576,1520,1395,-942,-849,2025-01-29 15:17:02,4.0
-8612,1200,2264,1122,-3217,-44,2025-01-29 15:17:02,4.0
-7668,904,2536,1288,-3742,898,2025-01-29 15:17:02,4.0
-4976,-328,1804,1412,-3707,1113,2025-01-29 15:17:02,4.0
-4200,-1032,156,1062,-3220,-97,2025-01-29 15:17:02,4.0
-6864,-752,-492,552,-2362,-943,2025-01-29 15:17:02,4.0
-8304,-320,-912,-34,-2297,-613,2025-01-29 15:17:02,4.0
-8940,-160,-240,-455,-3170,-422,2025-01-29 15:17:02,4.0
-10412,708,-436,-22,-4217,-535,2025-01-29 15:17:02,4.0
-12920,784,-1368,690,-3512,-696,2025-01-29 15:17:02,4.0
-13808,108,-2336,979,-1722,-670,2025-01-29 15:17:02,4.0
-13752,-1132,-2696,533,511,-1015,2025-01-29 15:17:02,4.0
-14816,-1256,-2020,8,2201,-1369,2025-01-29 15:17:02,4.0
-16204,-592,-2256,-422,2658,-1355,2025-01-29 15:17:02,4.0
-16940,276,-1424,-901,2291,-1035,2025-01-29 15:17:02,4.0
-16804,360,4,-996,1186,-294,2025-01-29 15:17:02,4.0
-15000,-268,1264,-671,-565,101,2025-01-29 15:17:02,4.0
-13912,-1064,820,-417,-1786,-238,2025-01-29 15:17:02,4.0
-13572,-1588,448,-391,-1508,-561,2025-01-29 15:17:03,4.0
-13320,-1752,672,-73,-93,-880,2025-01-29 15:17:03,4.0
-13328,-1352,1464,486,1063,-990,2025-01-29 15:17:03,4.0
-13212,-616,1852,1106,1328,-946,2025-01-29 15:17:03,4.0
-13436,-4,1720,1521,773,-699,2025-01-29 15:17:03,4.0
-13292,168,1144,1568,136,-456,2025-01-29 15:17:03,4.0
-13684,-128,640,1499,115,-279,2025-01-29 15:17:03,4.0
-14096,-116,1160,1387,450,-138,2025-01-29 15:17:03,4.0
-14208,-248,1416,1365,681,-38,2025-01-29 15:17:03,4.0
-14380,-508,1016,1248,610,51,2025-01-29 15:17:03,4.0
-14276,-500,84,834,316,-21,2025-01-29 15:17:03,4.0
-14096,-312,-652,303,64,-266,2025-01-29 15:17:03,4.0
-13648,-504,248,98,-57,-486,2025-01-29 15:17:03,4.0
-13844,-412,1376,266,-230,-552,2025-01-29 15:17:03,4.0
-14188,-512,1344,405,-70,-279,2025-01-29 15:17:03,4.0
-13872,-764,948,433,366,-81,2025-01-29 15:17:03,4.0
-13468,-708,440,484,495,-215,2025-01-29 15:17:03,4.0
-13516,-680,-196,489,309,-391,2025-01-29 15:17:03,4.0
-13700,-508,488,434,164,-567,2025-01-29 15:17:03,4.0
-14072,-332,752,525,146,-511,2025-01-29 15:17:03,4.0
-14208,-224,460,499,562,-123,2025-01-29 15:17:03,4.0
-13912,-444,452,439,871,57,2025-01-29 15:17:03,4.0
-13296,-416,252,342,928,-181,2025-01-29 15:17:03,4.0
-13340,-656,252,128,527,-556,2025-01-29 15:17:03,4.0
-13528,-352,548,37,74,-728,2025-01-29 15:17:03,4.0
-13732,-264,632,78,-199,-666,2025-01-29 15:17:03,4.0
-13932,-328,300,79,9,-474,2025-01-29 15:17:03,4.0
-13552,-572,112,-68,508,-378,2025-01-29 15:17:03,4.0
-13144,-668,596,-126,824,-527,2025-01-29 15:17:03,4.0
-13188,-640,996,98,943,-724,2025-01-29 15:17:03,4.0
-13704,-528,1044,388,1052,-717,2025-01-29 15:17:03,4.0
-14580,-660,76,474,1187,-490,2025-01-29 15:17:03,4.0
-14696,-740,-28,229,1202,-284,2025-01-29 15:17:03,4.0
-13972,-808,584,91,918,-467,2025-01-29 15:17:03,4.0
-13576,-960,288,22,39,-631,2025-01-29 15:17:03,4.0
-13580,-1128,-20,-107,-271,-820,2025-01-29 15:17:03,4.0
-13748,-1016,32,-205,-101,-807,2025-01-29 15:17:03,4.0
-13980,-908,172,-207,338,-547,2025-01-29 15:17:03,4.0
-13756,-976,416,-56,836,-231,2025-01-29 15:17:03,4.0
-13592,-1136,440,60,918,-187,2025-01-29 15:17:03,4.0
-13416,-1252,336,23,741,-295,2025-01-29 15:17:03,4.0
-13428,-1492,276,13,503,-517,2025-01-29 15:17:03,1.0
-13864,-1224,332,34,309,-607,2025-01-29 15:17:03,1.0
-14112,-880,404,98,396,-436,2025-01-29 15:17:03,1.0
-14080,-968,420,194,486,-175,2025-01-29 15:17:03,1.0
-13736,-1152,236,192,417,-133,2025-01-29 15:17:03,1.0
-13604,-1116,-40,195,236,-217,2025-01-29 15:17:03,1.0
-13516,-1232,-12,100,-82,-334,2025-01-29 15:17:03,1.0
-13504,-1184,-4,-15,-387,-402,2025-01-29 15:17:03,1.0
-13808,-960,160,-50,-481,-329,2025-01-29 15:17:03,1.0
-14164,-1128,484,-7,-307,-156,2025-01-29 15:17:03,1.0
-14008,-1360,672,158,19,-62,2025-01-29 15:17:03,1.0
-13704,-1760,152,189,225,-221,2025-01-29 15:17:03,1.0
-13756,-1576,232,161,111,-370,2025-01-29 15:17:03,1.0
-13776,-1264,236,81,-131,-336,2025-01-29 15:17:03,1.0
-13900,-984,488,91,-243,-224,2025-01-29 15:17:03,1.0
-13868,-960,424,174,-140,-120,2025-01-29 15:17:03,1.0
-13716,-1108,468,227,-97,-82,2025-01-29 15:17:03,1.0
-13536,-1200,224,272,107,-97,2025-01-29 15:17:03,1.0
-13736,-1024,264,230,170,-123,2025-01-29 15:17:03,1.0
-13636,-948,152,212,244,-127,2025-01-29 15:17:03,1.0
-13784,-904,88,87,274,-100,2025-01-29 15:17:03,1.0
-13964,-1036,0,-63,292,-70,2025-01-29 15:17:03,1.0
-13860,-1144,88,-172,333,-95,2025-01-29 15:17:04,1.0
-13660,-1100,316,-197,215,-113,2025-01-29 15:17:04,1.0
-13732,-1060,320,-199,162,-191,2025-01-29 15:17:04,1.0
-13708,-1072,212,-178,154,-216,2025-01-29 15:17:04,1.0
-13608,-1040,-112,-263,349,-224,2025-01-29 15:17:04,1.0
-13604,-1040,20,-255,508,-202,2025-01-29 15:17:04,1.0
-13612,-1112,52,-237,634,-195,2025-01-29 15:17:04,1.0
-13636,-1184,-100,-315,1049,-276,2025-01-29 15:17:04,1.0
-13848,-988,156,-250,1363,-294,2025-01-29 15:17:04,1.0
-13836,-916,12,-193,1230,-272,2025-01-29 15:17:04,1.0
-13756,-1100,-120,-142,1123,-321,2025-01-29 15:17:04,1.0
-13732,-924,-56,-167,866,-503,2025-01-29 15:17:04,1.0
-13988,-604,-36,-247,787,-619,2025-01-29 15:17:04,1.0
-13496,-520,-80,-339,795,-591,2025-01-29 15:17:04,1.0
-13512,-680,4,-404,1161,-702,2025-01-29 15:17:04,1.0
-13440,-956,40,-410,1541,-828,2025-01-29 15:17:04,1.0
-13380,-1188,-120,-458,1769,-1201,2025-01-29 15:17:04,1.0
-14296,-1184,348,-566,1338,-1165,2025-01-29 15:17:04,1.0
-14120,-900,668,-201,579,-843,2025-01-29 15:17:04,1.0
-14952,-936,132,507,-1680,-740,2025-01-29 15:17:04,1.0
-14092,-1348,304,1512,-3846,-571,2025-01-29 15:17:04,1.0
-13856,-1032,48,2086,-2587,-645,2025-01-29 15:17:04,1.0
-12700,-892,-808,1657,-388,-676,2025-01-29 15:17:04,1.0
-12520,-1128,-256,1362,576,-1136,2025-01-29 15:17:04,1.0
-13016,-976,456,1493,542,-1480,2025-01-29 15:17:04,1.0
-13340,-824,220,1826,342,-1701,2025-01-29 15:17:04,1.0
-13576,-624,-360,1878,214,-1927,2025-01-29 15:17:04,1.0
-13500,-340,-436,1792,292,-2194,2025-01-29 15:17:04,1.0
-13684,-296,64,1767,374,-2377,2025-01-29 15:17:04,1.0
-13852,-700,488,1741,427,-2392,2025-01-29 15:17:04,1.0
-14048,-1172,1060,1786,409,-2335,2025-01-29 15:17:04,1.0
-13356,-1392,1700,1951,223,-2467,2025-01-29 15:17:04,1.0
-14268,-1580,52,1935,60,-2495,2025-01-29 15:17:04,1.0
-14140,-1856,-276,1815,-669,-2483,2025-01-29 15:17:04,1.0
-14316,-1872,692,1803,-929,-2274,2025-01-29 15:17:04,1.0
-14404,-1576,1376,1980,-1205,-1522,2025-01-29 15:17:04,1.0
-13888,-1452,1604,2304,-1428,-782,2025-01-29 15:17:04,1.0
-13236,-1776,1876,2364,-1356,-401,2025-01-29 15:17:04,1.0
-12652,-2296,2764,2099,-1100,-568,2025-01-29 15:17:04,1.0
-12696,-2720,3704,1800,-485,-883,2025-01-29 15:17:04,1.0
-13160,-3092,4476,1654,99,-1082,2025-01-29 15:17:04,1.0
-13988,-3120,4156,1728,252,-1080,2025-01-29 15:17:04,1.0
-13652,-2724,2724,1641,-78,-881,2025-01-29 15:17:04,1.0
-13676,-2484,2320,1344,70,-1026,2025-01-29 15:17:04,1.0
-13212,-2220,2316,884,473,-1379,2025-01-29 15:17:04,1.0
-13324,-2576,2240,447,462,-1502,2025-01-29 15:17:04,1.0
-12904,-2676,2328,87,313,-1430,2025-01-29 15:17:04,1.0
-12792,-2752,2220,-384,456,-1363,2025-01-29 15:17:04,1.0
-12964,-2640,2212,-891,576,-1394,2025-01-29 15:17:04,1.0
-13424,-2944,1904,-1413,-261,-1492,2025-01-29 15:17:04,1.0
-13496,-3112,2384,-1807,-1074,-1367,2025-01-29 15:17:04,1.0
-13484,-3044,2700,-2172,-1629,-1140,2025-01-29 15:17:04,1.0
-13548,-2944,2812,-2421,-2032,-813,2025-01-29 15:17:04,1.0
-13708,-2632,2732,-2570,-1989,-81,2025-01-29 15:17:04,1.0
-12940,-2600,2100,-2790,-1419,522,2025-01-29 15:17:04,1.0
-12568,-2744,1600,-3123,-258,977,2025-01-29 15:17:04,1.0
-12556,-2744,1760,-3612,1350,1117,2025-01-29 15:17:04,1.0
-13124,-2932,2232,-3990,2298,953,2025-01-29 15:17:04,1.0
-13968,-2892,2956,-4304,2185,730,2025-01-29 15:17:04,1.0
-14504,-2932,3272,-4591,1526,508,2025-01-29 15:17:04,1.0
-15060,-3336,3436,-4812,536,335,2025-01-29 15:17:04,1.0
-15036,-4024,3168,-4799,-542,185,2025-01-29 15:17:05,1.0
-14728,-3312,3816,-4552,-1863,264,2025-01-29 15:17:05,1.0
-14148,-2400,3868,-4645,-2343,579,2025-01-29 15:17:05,1.0
-13368,-2468,3884,-5018,-2002,898,2025-01-29 15:17:05,1.0
-13400,-3972,2604,-5331,-519,445,2025-01-29 15:17:05,1.0
-14600,-4424,924,-6027,1433,-570,2025-01-29 15:17:05,1.0
-15708,-4972,2452,-6198,3642,-1867,2025-01-29 15:17:05,1.0
-17040,-5904,4264,-4982,4167,-2602,2025-01-29 15:17:05,1.0
-18216,-7084,4180,-2678,2189,-1623,2025-01-29 15:17:05,1.0
-18492,-7772,2540,-493,-455,-2,2025-01-29 15:17:05,1.0
-18312,-6836,1356,778,-2334,617,2025-01-29 15:17:05,1.0
-17736,-4884,1644,1612,-3252,855,2025-01-29 15:17:05,1.0
-17416,-3652,1492,2381,-4312,2134,2025-01-29 15:17:05,1.0
-15456,-3184,764,2871,-5964,3665,2025-01-29 15:17:05,1.0
-13164,-2620,-1048,3112,-8047,4492,2025-01-29 15:17:05,1.0
-11652,-1672,-2732,3136,-8087,4300,2025-01-29 15:17:05,1.0
-9928,-32,-4020,2134,-5344,3406,2025-01-29 15:17:05,1.0
-8940,1512,-3668,679,-812,1646,2025-01-29 15:17:05,1.0
-10524,2016,-2112,-128,2825,431,2025-01-29 15:17:05,1.0
-12744,1024,-544,158,4516,610,2025-01-29 15:17:05,1.0
-14280,-620,-248,323,4854,1425,2025-01-29 15:17:05,1.0
-15160,-1512,636,469,4546,2160,2025-01-29 15:17:05,1.0
-15516,-2032,980,942,3110,2634,2025-01-29 15:17:05,1.0
-15496,-1600,1076,1393,1073,2838,2025-01-29 15:17:05,1.0
-15744,-544,1204,1442,-713,3121,2025-01-29 15:17:05,1.0
-15160,168,1156,1352,-2237,3344,2025-01-29 15:17:05,1.0
-13988,512,1260,1273,-3486,3282,2025-01-29 15:17:05,1.0
-13060,532,1176,1303,-4020,3086,2025-01-29 15:17:05,1.0
-12160,636,1356,1415,-3858,2722,2025-01-29 15:17:05,1.0
-11652,428,796,1425,-2996,2474,2025-01-29 15:17:05,1.0
-11184,224,648,1535,-1815,2244,2025-01-29 15:17:05,1.0
-10980,-108,872,1657,-439,1937,2025-01-29 15:17:05,1.0
-11032,-180,1656,1800,665,1461,2025-01-29 15:17:05,1.0
-11300,-372,1960,2017,1117,966,2025-01-29 15:17:05,1.0
-11828,-296,2428,2227,1331,477,2025-01-29 15:17:05,1.0
-12616,-60,2900,2573,1491,225,2025-01-29 15:17:05,1.0
-13000,-20,2768,2865,1275,37,2025-01-29 15:17:05,1.0
-13020,276,2576,2877,637,-349,2025-01-29 15:17:05,1.0
-12840,264,2760,2688,-240,-777,2025-01-29 15:17:05,1.0
-13120,192,3164,2582,-702,-1007,2025-01-29 15:17:05,1.0
-12544,40,3208,2488,-925,-1302,2025-01-29 15:17:05,1.0
-12020,632,3416,2326,-659,-1695,2025-01-29 15:17:05,1.0
-12024,1728,3188,2256,293,-1877,2025-01-29 15:17:05,1.0
-12920,2036,2156,2197,1671,-1617,2025-01-29 15:17:05,1.0
-14616,1612,1840,2081,2612,-1011,2025-01-29 15:17:05,1.0
-15220,508,1880,2120,2518,-599,2025-01-29 15:17:05,7.0
-16128,-1508,2548,2170,1115,-251,2025-01-29 15:17:05,7.0
-15584,-2348,3324,2652,90,93,2025-01-29 15:17:05,7.0
-14652,-1760,3080,3820,-818,508,2025-01-29 15:17:05,7.0
-13428,-288,2608,4761,-699,1034,2025-01-29 15:17:05,7.0
-12532,672,1784,5264,843,1373,2025-01-29 15:17:05,7.0
-13316,836,1200,5452,3382,1567,2025-01-29 15:17:05,7.0
-15436,1648,1044,5561,5753,1905,2025-01-29 15:17:05,7.0
-17444,3308,1504,5288,7680,2549,2025-01-29 15:17:05,7.0
-18184,5172,1132,4385,8533,2957,2025-01-29 15:17:05,7.0
-17676,6476,-1280,2244,6943,2491,2025-01-29 15:17:05,7.0
-17572,6252,-3832,28,3868,1552,2025-01-29 15:17:05,7.0
-16272,3392,-4056,-2708,-584,-303,2025-01-29 15:17:05,7.0
-16336,792,-1400,-4278,-4617,-1816,2025-01-29 15:17:05,7.0
-15840,-580,-2632,-4191,-6621,-2090,2025-01-29 15:17:05,7.0
-13996,-1544,-3840,-4208,-7571,-2498,2025-01-29 15:17:06,7.0
-12496,-1736,-2664,-4376,-7442,-3223,2025-01-29 15:17:06,7.0
-10476,-1896,8,-3859,-6277,-4151,2025-01-29 15:17:06,7.0
-10252,-1972,-172,-3444,-3212,-4302,2025-01-29 15:17:06,7.0
-10624,-1844,-1152,-3364,-565,-3375,2025-01-29 15:17:06,7.0
-11088,-1732,-1308,-3126,1209,-2168,2025-01-29 15:17:06,7.0
-11288,-1040,-664,-2622,3933,-1714,2025-01-29 15:17:06,7.0
-12108,-200,-460,-2741,6593,-1807,2025-01-29 15:17:06,7.0
-13936,-196,-584,-3495,7837,-1918,2025-01-29 15:17:06,7.0
-14856,-612,-504,-4340,6725,-2091,2025-01-29 15:17:06,7.0
-15652,-1320,-768,-4835,3373,-2407,2025-01-29 15:17:06,7.0
-15668,-1736,-12,-4990,-842,-2643,2025-01-29 15:17:06,7.0
-14724,-1484,-324,-5222,-4166,-2271,2025-01-29 15:17:06,7.0
-13564,-1032,-184,-5640,-5534,-2020,2025-01-29 15:17:06,7.0
-12592,-560,-228,-6130,-5287,-1744,2025-01-29 15:17:06,7.0
-11744,-520,-440,-6760,-3655,-1609,2025-01-29 15:17:06,7.0
-11552,-732,-712,-7560,-1124,-1722,2025-01-29 15:17:06,7.0
-12144,-660,-576,-8239,457,-1682,2025-01-29 15:17:06,7.0
-12688,-752,-464,-8864,780,-1461,2025-01-29 15:17:06,7.0
-13180,-544,-132,-9419,368,-1192,2025-01-29 15:17:06,7.0
-13396,-652,0,-9892,-106,-901,2025-01-29 15:17:06,7.0
-13748,-1364,592,-10295,-605,-560,2025-01-29 15:17:06,7.0
-13972,-1908,492,-10539,-861,-242,2025-01-29 15:17:06,7.0
-13732,-2280,628,-10793,-1232,-192,2025-01-29 15:17:06,7.0
-14060,-1844,776,-10937,-1826,-256,2025-01-29 15:17:06,7.0
-14208,-1292,428,-11123,-2499,-8,2025-01-29 15:17:06,7.0
-14348,-168,260,-11577,-2712,357,2025-01-29 15:17:06,7.0
-14352,36,1020,-12172,-2651,1008,2025-01-29 15:17:06,7.0
-14516,-640,1452,-12267,-3251,1701,2025-01-29 15:17:06,7.0
-14292,-1584,696,-12419,-4263,2295,2025-01-29 15:17:06,7.0
-13148,-1536,-208,-13056,-4476,2353,2025-01-29 15:17:06,7.0
-12052,-648,-708,-13857,-3185,1876,2025-01-29 15:17:06,7.0
-12420,848,-1336,-15069,-1075,1567,2025-01-29 15:17:06,7.0
-11836,1280,-1244,-16717,1141,1376,2025-01-29 15:17:06,7.0
-12804,232,24,-18114,3002,769,2025-01-29 15:17:06,7.0
-14188,-1060,988,-18720,2826,421,2025-01-29 15:17:06,7.0
-15192,-2404,2092,-19041,1238,-64,2025-01-29 15:17:06,7.0
-15796,-2852,2848,-18914,-421,-79,2025-01-29 15:17:06,7.0
-15472,-3008,2924,-18482,-2139,494,2025-01-29 15:17:06,7.0
-14444,-2424,2052,-18054,-2555,1099,2025-01-29 15:17:06,7.0
-13936,-2248,100,-18089,-1442,1512,2025-01-29 15:17:06,7.0
-14392,-2040,-924,-18533,101,1448,2025-01-29 15:17:06,7.0
-15264,-2156,-2164,-19017,1464,785,2025-01-29 15:17:06,7.0
-15992,-2548,-356,-18773,2116,-156,2025-01-29 15:17:06,7.0
-16692,-3316,540,-17063,1468,-351,2025-01-29 15:17:06,7.0
-16240,-2068,-292,-15137,809,1819,2025-01-29 15:17:06,7.0
-13080,-1684,-2728,-15285,2135,1952,2025-01-29 15:17:06,7.0
-12224,-1124,-3436,-16192,4096,1128,2025-01-29 15:17:06,7.0
-11952,-528,-3264,-16668,6202,378,2025-01-29 15:17:06,7.0
-12180,204,-2456,-16759,7647,-343,2025-01-29 15:17:06,7.0
-12068,796,-1976,-16509,7611,-971,2025-01-29 15:17:06,7.0
-12232,1144,-2584,-16630,6782,-1412,2025-01-29 15:17:06,7.0
-12332,992,-2984,-17214,5808,-1870,2025-01-29 15:17:06,7.0
-12548,512,-2964,-17810,5393,-2390,2025-01-29 15:17:06,7.0
-13888,-96,-2088,-18266,4933,-2517,2025-01-29 15:17:06,7.0
-14696,-72,-1324,-18144,4310,-2096,2025-01-29 15:17:06,7.0
-15316,100,-1256,-17887,3636,-1424,2025-01-29 15:17:06,7.0
-15384,112,-1736,-17936,2829,-793,2025-01-29 15:17:06,7.0
-14928,408,-1584,-17962,1564,-559,2025-01-29 15:17:06,7.0
-14380,836,-1748,-17753,270,-438,2025-01-29 15:17:06,7.0
-13460,1216,-1712,-17517,-810,-393,2025-01-29 15:17:07,7.0
-12740,1660,-2012,-17320,-1182,-450,2025-01-29 15:17:07,7.0
-11744,1848,-2452,-17297,-952,-654,2025-01-29 15:17:07,7.0
-11196,1788,-2768,-17442,-178,-1178,2025-01-29 15:17:07,7.0
-11032,1040,-2988,-17603,684,-2034,2025-01-29 15:17:07,7.0
-11884,80,-1832,-17342,1509,-2896,2025-01-29 15:17:07,7.0
-12472,-212,-1380,-16597,1862,-3224,2025-01-29 15:17:07,7.0
-12760,-236,-1300,-16294,2530,-3530,2025-01-29 15:17:07,7.0
-13292,-108,-1028,-16427,3030,-3987,2025-01-29 15:17:07,7.0
-13688,372,-756,-16381,2258,-4443,2025-01-29 15:17:07,7.0
-13716,456,-1500,-16034,271,-4670,2025-01-29 15:17:07,7.0
-13580,924,-2560,-15697,-1948,-4687,2025-01-29 15:17:07,7.0
-13144,1160,-3352,-15738,-2984,-4597,2025-01-29 15:17:07,7.0
-12896,1176,-3800,-16328,-2797,-4529,2025-01-29 15:17:07,7.0
-12600,816,-2948,-16846,-1818,-4623,2025-01-29 15:17:07,7.0
-13160,736,-3260,-16869,-1002,-4311,2025-01-29 15:17:07,7.0
-13184,1108,-3096,-16908,-315,-3851,2025-01-29 15:17:07,7.0
-13408,1732,-2780,-17265,867,-3763,2025-01-29 15:17:07,7.0
-14056,1736,-2964,-17846,1742,-3875,2025-01-29 15:17:07,7.0
-14636,1232,-3704,-18397,993,-3945,2025-01-29 15:17:07,7.0
-14496,964,-3944,-18767,-1109,-4028,2025-01-29 15:17:07,7.0
-14000,616,-3220,-18846,-3122,-4171,2025-01-29 15:17:07,7.0
-13660,-132,-2956,-18729,-3610,-4388,2025-01-29 15:17:07,7.0
-13872,-876,-1956,-18376,-2431,-4500,2025-01-29 15:17:07,7.0
-14432,-1768,-1304,-17571,-1246,-4360,2025-01-29 15:17:07,7.0
-14788,-2480,-808,-16402,-721,-3941,2025-01-29 15:17:07,7.0
-15088,-2684,-1108,-15152,-821,-3237,2025-01-29 15:17:07,7.0
-14600,-2620,-1868,-13457,-679,-2375,2025-01-29 15:17:07,7.0
-13976,-2896,-1876,-12182,-191,-2091,2025-01-29 15:17:07,7.0
-14312,-3368,-1388,-10717,53,-1839,2025-01-29 15:17:07,7.0
-14676,-3908,-200,-9767,-80,-1163,2025-01-29 15:17:07,7.0
-13372,-2840,2232,-8839,-1160,-286,2025-01-29 15:17:07,7.0
-12200,-448,564,-7369,-3441,-450,2025-01-29 15:17:07,7.0
-11600,1588,-2748,-6963,-4805,-758,2025-01-29 15:17:07,7.0
-10892,1916,-3880,-7422,-3410,-1521,2025-01-29 15:17:07,7.0
-11020,-384,-1876,-8658,2242,-3258,2025-01-29 15:17:07,7.0
-13036,-2624,868,-9204,6451,-4215,2025-01-29 15:17:07,7.0
-15352,-3656,2236,-8790,7528,-4067,2025-01-29 15:17:07,7.0
-16536,-3736,1552,-8273,5740,-3484,2025-01-29 15:17:07,7.0
-16460,-3012,1496,-7812,1781,-2835,2025-01-29 15:17:07,7.0
-15092,-2708,2080,-7395,-2611,-2530,2025-01-29 15:17:07,7.0
-13284,-3224,2004,-6941,-4989,-2540,2025-01-29 15:17:07,7.0
-12364,-3812,1668,-6577,-5106,-2549,2025-01-29 15:17:07,7.0
-12140,-3856,984,-6275,-3230,-2476,2025-01-29 15:17:07,7.0
-12492,-3456,1336,-5893,-500,-2108,2025-01-29 15:17:07,7.0
-12780,-3260,2116,-5353,1358,-1575,2025-01-29 15:17:07,7.0
-13136,-3852,1852,-5037,2139,-1294,2025-01-29 15:17:07,7.0
-13800,-4316,1252,-5128,2401,-1383,2025-01-29 15:17:07,7.0
-14496,-3908,860,-4787,2326,-1564,2025-01-29 15:17:07,7.0
-15628,-3188,988,-4162,1766,-1369,2025-01-29 15:17:07,7.0
-15676,-2224,1184,-3594,354,-966,2025-01-29 15:17:07,7.0
-14644,-1392,784,-3831,-2034,-533,2025-01-29 15:17:07,7.0
-14140,-1148,1112,-4143,-3102,-189,2025-01-29 15:17:07,7.0
-13600,-1740,1152,-4251,-2962,82,2025-01-29 15:17:07,7.0
-13136,-2964,56,-4179,-2093,130,2025-01-29 15:17:07,7.0
-12628,-3832,-240,-4005,-1829,75,2025-01-29 15:17:07,7.0
-12520,-3912,516,-3557,-1786,162,2025-01-29 15:17:07,7.0
-12632,-3580,1308,-2897,-997,467,2025-01-29 15:17:07,7.0
-13268,-3008,780,-2477,626,844,2025-01-29 15:17:07,7.0
-13736,-2296,580,-2246,1333,1130,2025-01-29 15:17:08,7.0
-13992,-1808,480,-1963,754,1460,2025-01-29 15:17:08,7.0
-13992,-1980,12,-1751,243,1792,2025-01-29 15:17:08,7.0
-13808,-2468,-632,-1582,686,1799,2025-01-29 15:17:08,7.0
-13868,-2608,-1128,-1558,1474,1471,2025-01-29 15:17:08,7.0
-13924,-1936,-1132,-1360,2059,1041,2025-01-29 15:17:08,7.0
-14492,-864,-1204,-1325,1989,885,2025-01-29 15:17:08,7.0
-14520,-216,-868,-1501,1097,1039,2025-01-29 15:17:08,7.0
-14420,-172,-536,-1889,-96,1264,2025-01-29 15:17:08,7.0
-14088,-160,-432,-2276,-885,1603,2025-01-29 15:17:08,7.0
-13316,-808,-776,-2598,-1178,1754,2025-01-29 15:17:08,7.0
-13008,-1256,-736,-2627,-1149,1626,2025-01-29 15:17:08,7.0
-12984,-1296,-588,-2412,-864,1464,2025-01-29 15:17:08,7.0
-13252,-972,-272,-2207,-155,1324,2025-01-29 15:17:08,7.0
-13516,-712,320,-2025,687,1116,2025-01-29 15:17:08,7.0
-13916,-268,292,-1792,896,772,2025-01-29 15:17:08,7.0
-14012,-168,120,-1389,239,658,2025-01-29 15:17:08,7.0
-13512,-448,-568,-1188,-555,520,2025-01-29 15:17:08,7.0
-13316,-552,152,-1050,-798,315,2025-01-29 15:17:08,7.0
-13412,-640,396,-752,-1029,289,2025-01-29 15:17:08,7.0
-13384,-396,312,-226,-606,406,2025-01-29 15:17:08,0.0
-13244,-256,-176,35,113,382,2025-01-29 15:17:08,0.0
-13124,-140,-528,79,763,251,2025-01-29 15:17:08,0.0
-13080,0,-744,-14,1363,78,2025-01-29 15:17:08,0.0
-13404,-12,-340,-69,1843,-116,2025-01-29 15:17:08,0.0
-13556,-120,-100,-94,1588,-235,2025-01-29 15:17:08,0.0
-13880,-128,128,-21,1085,-245,2025-01-29 15:17:08,0.0
-13828,-64,-368,154,787,-271,2025-01-29 15:17:08,0.0
-13832,-24,-996,190,753,-374,2025-01-29 15:17:08,0.0
-13940,-52,-952,67,978,-463,2025-01-29 15:17:08,0.0
-13932,-80,-900,-53,1009,-454,2025-01-29 15:17:08,0.0
-13984,-128,-552,-165,706,-421,2025-01-29 15:17:08,0.0
-13932,-8,-404,-299,370,-375,2025-01-29 15:17:08,0.0
-13892,176,-320,-185,412,-402,2025-01-29 15:17:08,0.0
-14036,28,-692,-183,329,-404,2025-01-29 15:17:08,0.0
-13840,-284,-948,-152,156,-383,2025-01-29 15:17:08,0.0
-13844,-568,-500,-13,196,-207,2025-01-29 15:17:08,0.0
-13704,-528,-164,152,335,-122,2025-01-29 15:17:08,0.0
-13668,-524,-276,308,215,-128,2025-01-29 15:17:08,0.0
-13512,-244,-560,290,96,-222,2025-01-29 15:17:08,0.0
-13688,16,-500,249,264,-311,2025-01-29 15:17:08,0.0
-13724,40,-848,257,542,-351,2025-01-29 15:17:08,0.0
-13852,-44,-848,303,693,-286,2025-01-29 15:17:08,0.0
-14072,-108,-892,210,466,-190,2025-01-29 15:17:08,0.0
-13896,-316,-756,134,40,-170,2025-01-29 15:17:08,0.0
-13824,-216,-600,84,-239,-199,2025-01-29 15:17:08,0.0
-13692,-172,-812,-50,-216,-196,2025-01-29 15:17:08,0.0
-13680,-64,-1000,-157,-371,-192,2025-01-29 15:17:08,0.0
-13576,-124,-1184,-252,-398,-106,2025-01-29 15:17:08,
-13576,8,-800,-292,-238,-103,2025-01-29 15:17:08,0.0
-13332,-156,-568,-313,94,-125,2025-01-29 15:17:08,0.0
-13300,-388,-792,-384,379,-230,2025-01-29 15:17:08,0.0
-13272,-388,-724,-301,384,-317,2025-01-29 15:17:08,0.0
-13320,-428,-796,-178,401,-313,2025-01-29 15:17:08,0.0
-13400,-440,-712,-168,598,-341,2025-01-29 15:17:08,0.0
-13452,-364,-512,-83,717,-345,2025-01-29 15:17:08,0.0
-13700,-412,-792,33,655,-294,2025-01-29 15:17:08,0.0
-13716,-340,-864,99,565,-266,2025-01-29 15:17:08,0.0
-13800,-360,-960,109,566,-257,2025-01-29 15:17:08,0.0
-13880,-16,-1252,137,647,-158,2025-01-29 15:17:08,0.0
-13912,320,-1276,186,741,-79,2025-01-29 15:17:08,0.0
-13760,428,-1356,129,702,-28,2025-01-29 15:17:08,1.0
-13676,240,-996,72,800,35,2025-01-29 15:17:08,1.0
-13532,0,-668,19,886,84,2025-01-29 15:17:09,1.0
-13624,-120,-916,84,1009,179,2025-01-29 15:17:09,1.0
-13588,-36,-992,122,1279,205,2025-01-29 15:17:09,1.0
-13600,280,-992,-21,1412,216,2025-01-29 15:17:09,1.0
-14012,500,-1080,-73,1492,242,2025-01-29 15:17:09,1.0
-14228,664,-1184,-245,1063,433,2025-01-29 15:17:09,1.0
-14076,428,-556,-313,557,498,2025-01-29 15:17:09,1.0
-14100,584,-384,-379,452,385,2025-01-29 15:17:09,1.0
-13936,732,280,-655,452,-43,2025-01-29 15:17:09,1.0
-13864,592,8,-801,-472,-482,2025-01-29 15:17:09,1.0
-13748,768,-264,-986,-2364,-846,2025-01-29 15:17:09,1.0
-13828,760,8,-1114,-3589,-1050,2025-01-29 15:17:09,1.0
-13512,592,500,-1076,-4094,-1235,2025-01-29 15:17:09,1.0
-13360,388,936,-799,-3910,-1246,2025-01-29 15:17:09,1.0
-13036,120,996,-533,-3419,-1114,2025-01-29 15:17:09,1.0
-12860,4,680,-351,-3071,-946,2025-01-29 15:17:09,1.0
-12788,-312,340,-228,-2751,-902,2025-01-29 15:17:09,1.0
-12884,-856,-24,-59,-1938,-1122,2025-01-29 15:17:09,1.0
-13300,-1120,-812,139,-263,-1491,2025-01-29 15:17:09,1.0
-14204,-1324,-568,1022,2567,-2777,2025-01-29 15:17:09,1.0
-14300,-1016,732,1550,1734,-2923,2025-01-29 15:17:09,1.0
-14424,-904,1788,1753,1024,-2724,2025-01-29 15:17:09,1.0
-14484,-912,1808,1496,427,-2434,2025-01-29 15:17:09,1.0
-14088,-832,1360,863,-698,-2182,2025-01-29 15:17:09,1.0
-13960,-280,1600,210,-1494,-2034,2025-01-29 15:17:09,1.0
-13316,0,1384,-569,-1324,-1986,2025-01-29 15:17:09,1.0
-12444,-412,1256,-1757,25,-2373,2025-01-29 15:17:09,1.0
-12728,-1272,1664,-2636,1552,-3084,2025-01-29 15:17:09,1.0
-13088,-2200,2128,-2841,1690,-3433,2025-01-29 15:17:09,1.0
-13768,-2916,3192,-2517,931,-3434,2025-01-29 15:17:09,1.0
-13952,-3180,3980,-1709,-77,-3044,2025-01-29 15:17:09,1.0
-13648,-2876,3640,-855,-1000,-2478,2025-01-29 15:17:09,1.0
-12864,-2224,3288,-636,-1963,-2055,2025-01-29 15:17:09,1.0
-11780,-1728,2012,-782,-2598,-1865,2025-01-29 15:17:09,1.0
-11160,-1408,1048,-1410,-2248,-1814,2025-01-29 15:17:09,1.0
-10972,-1036,492,-2174,-585,-1539,2025-01-29 15:17:09,1.0
-11380,-1000,184,-2851,1666,-1124,2025-01-29 15:17:09,1.0
-12488,-996,348,-3424,3961,-402,2025-01-29 15:17:09,1.0
-13724,-1856,1396,-3747,5502,493,2025-01-29 15:17:09,1.0
-14792,-2660,1788,-3867,5475,1123,2025-01-29 15:17:09,1.0
-15616,-3344,3276,-3607,4413,1664,2025-01-29 15:17:09,1.0
-15500,-3960,3760,-2814,2449,1776,2025-01-29 15:17:09,1.0
-15368,-3804,3532,-2279,-34,1254,2025-01-29 15:17:09,1.0
-14916,-3200,3156,-2016,-1741,461,2025-01-29 15:17:09,1.0
-14352,-2624,2300,-1795,-2621,-304,2025-01-29 15:17:09,1.0
-13548,-2616,1752,-1841,-2761,-1044,2025-01-29 15:17:09,1.0
-13080,-2500,1792,-1995,-2411,-1472,2025-01-29 15:17:09,1.0
-13076,-2208,2324,-2216,-1633,-1413,2025-01-29 15:17:09,1.0
-13208,-1868,2624,-2810,-265,-1610,2025-01-29 15:17:09,1.0
-14232,-2884,852,-3944,1402,-2785,2025-01-29 15:17:09,1.0
-15660,-4160,-148,-4664,2171,-3885,2025-01-29 15:17:09,1.0
-16852,-5120,112,-4665,2107,-4578,2025-01-29 15:17:09,1.0
-18148,-5548,2420,-3899,1793,-4782,2025-01-29 15:17:09,1.0
-18984,-6204,4076,-2258,1256,-4668,2025-01-29 15:17:09,1.0
-19480,-6420,4356,-254,-481,-4145,2025-01-29 15:17:09,1.0
-20088,-5872,3120,1201,-4331,-2610,2025-01-29 15:17:09,1.0
-19576,-4684,2156,1978,-9668,119,2025-01-29 15:17:09,1.0
-18448,-2532,2288,3106,-12430,3109,2025-01-29 15:17:09,1.0
-16328,-1852,-244,4414,-11365,5853,2025-01-29 15:17:09,1.0
-12520,-2560,-4636,4170,-6332,6678,2025-01-29 15:17:09,1.0
-9700,-2632,-6980,1771,-45,4445,2025-01-29 15:17:10,1.0
-9888,-1972,-4588,107,2148,2176,2025-01-29 15:17:10,1.0
-11168,-816,-1728,-46,2260,1115,2025-01-29 15:17:10,1.0
-12252,672,-408,1033,1573,1315,2025-01-29 15:17:10,1.0
-13148,1704,-988,2152,1448,2306,2025-01-29 15:17:10,1.0
-13256,1652,-2060,2146,2147,2871,2025-01-29 15:17:10,1.0
-13380,452,-2248,1194,3072,2991,2025-01-29 15:17:10,1.0
-13216,-1044,-948,707,3581,3185,2025-01-29 15:17:10,1.0
-13008,-1996,-240,1070,2985,3140,2025-01-29 15:17:10,1.0
-13568,-2104,-36,1305,2153,2980,2025-01-29 15:17:10,1.0
-13844,-1768,604,1509,1243,2821,2025-01-29 15:17:10,1.0
-14388,-664,1132,1721,347,2866,2025-01-29 15:17:10,1.0
-14476,180,1120,2079,-704,3330,2025-01-29 15:17:10,1.0
-13544,416,920,2508,-1795,3573,2025-01-29 15:17:10,1.0
-12260,784,592,2715,-2561,3342,2025-01-29 15:17:10,1.0
-11308,824,456,2315,-1942,2742,2025-01-29 15:17:10,1.0
-10624,512,584,2088,-534,2106,2025-01-29 15:17:10,1.0
-11228,428,700,2106,156,1864,2025-01-29 15:17:10,1.0
-11676,372,936,2170,504,1953,2025-01-29 15:17:10,1.0
-11584,248,1344,2280,574,1817,2025-01-29 15:17:10,1.0
-11388,364,1828,2293,288,1163,2025-01-29 15:17:10,1.0
-11412,304,2044,2277,-60,380,2025-01-29 15:17:10,1.0
-11648,500,2256,2301,-555,-238,2025-01-29 15:17:10,1.0
-11836,388,2484,2447,-847,-756,2025-01-29 15:17:10,1.0
-11988,104,2708,2690,-1069,-1090,2025-01-29 15:17:10,1.0
-12224,-120,2724,2848,-1001,-1402,2025-01-29 15:17:10,1.0
-12260,140,2832,2937,-738,-1641,2025-01-29 15:17:10,1.0
-12380,1116,2504,3133,-282,-1801,2025-01-29 15:17:10,1.0
-12624,1964,2160,3272,180,-1468,2025-01-29 15:17:10,1.0
-13100,2528,968,3175,836,-903,2025-01-29 15:17:10,1.0
-13768,2148,-4,2976,1878,-228,2025-01-29 15:17:10,1.0
-14412,896,716,2567,3141,409,2025-01-29 15:17:10,1.0
-15656,468,2172,2483,5137,1221,2025-01-29 15:17:10,1.0
-17480,1588,2876,2658,7062,2170,2025-01-29 15:17:10,1.0
-18140,2060,4000,3048,6836,2850,2025-01-29 15:17:10,1.0
-17376,508,4520,3306,3888,2910,2025-01-29 15:17:10,1.0
-17076,-540,3492,3410,926,2389,2025-01-29 15:17:10,1.0
-17380,-852,1764,3578,274,1946,2025-01-29 15:17:10,1.0
-18056,36,868,4176,1010,1981,2025-01-29 15:17:10,1.0
-19332,2400,-1360,4526,2740,3105,2025-01-29 15:17:10,1.0
-19772,4248,-4560,3266,4111,5039,2025-01-29 15:17:10,1.0
-19120,6200,-7208,11,3927,7134,2025-01-29 15:17:10,1.0
-16116,7220,-6916,-2762,2471,7458,2025-01-29 15:17:10,1.0
-11868,5968,-5500,-4096,-59,4773,2025-01-29 15:17:10,1.0
-7936,1376,-6448,-5025,-4574,-720,2025-01-29 15:17:10,1.0
-10432,-3020,-4568,-5932,-9786,-4938,2025-01-29 15:17:10,1.0
-12556,-4852,-2776,-4842,-10780,-5406,2025-01-29 15:17:10,1.0
-13196,-5968,-2908,-3364,-8030,-4240,2025-01-29 15:17:10,1.0
-12500,-4564,-2048,-1861,-2103,-2844,2025-01-29 15:17:10,1.0
-11032,-1412,-1948,22,4490,-2653,2025-01-29 15:17:10,1.0
-11312,720,-2708,477,8584,-2645,2025-01-29 15:17:10,1.0
-11356,1808,-2836,-310,10461,-2816,2025-01-29 15:17:10,1.0
-12976,1744,-1868,-1493,10315,-3058,2025-01-29 15:17:10,1.0
-14964,652,-1088,-2067,9165,-3491,2025-01-29 15:17:10,1.0
-15520,-580,-2380,-2738,6272,-3794,2025-01-29 15:17:10,1.0
-15084,-1604,-1972,-3545,899,-3475,2025-01-29 15:17:10,1.0
-14292,-2348,-824,-3697,-4625,-2965,2025-01-29 15:17:10,1.0
-12668,-2632,-972,-3249,-7064,-2774,2025-01-29 15:17:11,1.0
-11016,-2492,-1092,-3155,-6937,-2767,2025-01-29 15:17:11,1.0
-9816,-1840,-1596,-2995,-4631,-3067,2025-01-29 15:17:11,1.0
-9276,-1500,-1672,-2803,-1592,-3292,2025-01-29 15:17:11,1.0
-9648,-1220,-1600,-2629,1239,-3430,2025-01-29 15:17:11,1.0
-10156,-1428,-1324,-2530,3773,-3397,2025-01-29 15:17:11,1.0
-10720,-1464,-1248,-2529,5282,-3481,2025-01-29 15:17:11,1.0
-11932,-1328,-516,-2618,5675,-3629,2025-01-29 15:17:11,1.0
-13392,-932,412,-2793,4725,-3433,2025-01-29 15:17:11,1.0
-11564,-1108,-380,-2903,-2455,1540,2025-01-29 15:17:11,1.0
-11728,-1352,-268,-3299,-835,1559,2025-01-29 15:17:11,1.0
-12252,-1480,-72,-3726,-9,1586,2025-01-29 15:17:11,1.0
-13104,-1084,180,-4143,-23,1651,2025-01-29 15:17:11,1.0
-13932,-468,-44,-4430,253,1670,2025-01-29 15:17:11,1.0
-14056,300,-484,-5063,1288,1179,2025-01-29 15:17:11,1.0
-14316,304,-212,-6372,2353,-328,2025-01-29 15:17:11,1.0
-15584,-948,1504,-7322,2445,-1553,2025-01-29 15:17:11,1.0
-16144,-2836,3416,-7122,1604,-2774,2025-01-29 15:17:11,1.0
-16800,-3568,4332,-6577,-392,-3918,2025-01-29 15:17:11,1.0
-17732,-4220,4500,-6008,-2419,-3715,2025-01-29 15:17:11,1.0
-17828,-5168,1828,-4285,-1486,-3000,2025-01-29 15:17:11,1.0
-17104,-5032,376,-2796,129,-2787,2025-01-29 15:17:11,1.0
-15984,-6492,1572,-451,765,-4415,2025-01-29 15:17:11,1.0
-17012,-7744,844,2301,554,-6384,2025-01-29 15:17:11,1.0
-18816,-8356,-868,4378,-535,-6731,2025-01-29 15:17:11,1.0
-20612,-6396,-1520,6196,-2788,-5293,2025-01-29 15:17:11,1.0
-21320,-2144,-1808,7518,-7099,-1930,2025-01-29 15:17:11,1.0
-18452,1224,-2520,8530,-12435,1200,2025-01-29 15:17:11,1.0
-14844,2316,-6256,8374,-17260,4478,2025-01-29 15:17:11,1.0
-11504,1976,-8680,6309,-17122,5644,2025-01-29 15:17:11,1.0
-8212,1928,-9156,3709,-13267,4288,2025-01-29 15:17:11,1.0
-6660,1612,-8084,902,-4809,1038,2025-01-29 15:17:11,1.0
-9448,488,-6712,-1527,5752,-1148,2025-01-29 15:17:11,1.0
-12052,-144,-1960,-1464,12085,-1156,2025-01-29 15:17:11,1.0
-13776,-612,1076,-540,13708,-290,2025-01-29 15:17:11,1.0
-14092,-1144,716,86,11531,397,2025-01-29 15:17:11,1.0
-15508,-1296,564,528,7500,1124,2025-01-29 15:17:11,1.0
-15916,-1340,236,1352,1892,1932,2025-01-29 15:17:11,1.0
-14708,-1316,-132,1978,-2362,2608,2025-01-29 15:17:11,1.0
-13228,-936,380,2452,-4115,2852,2025-01-29 15:17:11,1.0
-11476,-732,272,2793,-4428,2823,2025-01-29 15:17:11,1.0
-10948,-108,328,2959,-3074,2622,2025-01-29 15:17:11,1.0
-10476,676,204,3009,-584,2288,2025-01-29 15:17:11,1.0
-10984,528,292,2953,2421,1731,2025-01-29 15:17:11,1.0
-11260,312,-120,2710,4454,1144,2025-01-29 15:17:11,1.0
-12632,152,1280,2776,4973,949,2025-01-29 15:17:11,1.0
-13296,92,1848,3004,3753,889,2025-01-29 15:17:11,1.0
-13744,-60,2192,2973,1510,628,2025-01-29 15:17:11,1.0
-14012,108,2352,2938,-596,335,2025-01-29 15:17:11,1.0
-13964,492,1952,2990,-2338,129,2025-01-29 15:17:11,1.0
-13188,444,2200,2945,-4093,-285,2025-01-29 15:17:11,1.0
-12768,304,2504,3000,-4829,-749,2025-01-29 15:17:11,1.0
-12116,-20,2320,3024,-4895,-1191,2025-01-29 15:17:11,1.0
-11996,-4,1588,3152,-4926,-1698,2025-01-29 15:17:11,1.0
-12196,144,440,3148,-5292,-1987,2025-01-29 15:17:11,1.0
-12336,268,252,2818,-5576,-2146,2025-01-29 15:17:11,1.0
-11792,32,1616,2829,-5339,-2158,2025-01-29 15:17:11,1.0
-11496,-752,1824,2894,-4229,-2068,2025-01-29 15:17:11,1.0
-11916,-1112,1308,3110,-1660,-1669,2025-01-29 15:17:11,1.0
-12692,84,884,3317,1376,-1165,2025-01-29 15:17:12,1.0
-13392,888,1328,3629,3485,-1146,2025-01-29 15:17:12,1.0
-15632,1396,3112,3949,4751,-960,2025-01-29 15:17:12,1.0
-16864,716,4740,4268,5018,-481,2025-01-29 15:17:12,1.0
-16688,-744,5664,4814,4069,89,2025-01-29 15:17:12,1.0
-16336,-556,3596,5629,2269,614,2025-01-29 15:17:12,1.0
-16740,240,560,5494,2111,773,2025-01-29 15:17:12,1.0
-18204,2208,-348,4498,3558,1197,2025-01-29 15:17:12,1.0
-19220,4840,-1796,3266,5913,2308,2025-01-29 15:17:12,1.0
-19564,5876,-5008,1151,7365,3675,2025-01-29 15:17:12,1.0
-18904,5532,-6840,-2129,7060,4432,2025-01-29 15:17:12,1.0
-15864,3736,-3552,-4792,3768,3445,2025-01-29 15:17:12,1.0
-14204,-604,40,-5411,-326,1013,2025-01-29 15:17:12,1.0
-13732,-4000,764,-4830,-3525,-809,2025-01-29 15:17:12,1.0
-13208,-6240,-1240,-3174,-6509,-2012,2025-01-29 15:17:12,1.0
-13288,-6736,-4296,-1488,-8982,-1883,2025-01-29 15:17:12,1.0
-12824,-6916,-4304,-165,-7735,-807,2025-01-29 15:17:12,1.0
-11668,-5480,-2576,1809,-2681,-484,2025-01-29 15:17:12,1.0
-10752,-3020,-2736,3518,2970,-1121,2025-01-29 15:17:12,1.0
-11428,-480,-3700,3440,6728,-1470,2025-01-29 15:17:12,1.0
-11904,212,-2740,2303,7873,-1604,2025-01-29 15:17:12,1.0
-12840,-640,-1680,1626,8000,-2195,2025-01-29 15:17:12,1.0
-14332,-1708,-852,1220,6935,-2684,2025-01-29 15:17:12,1.0
-14760,-2048,-804,1122,4096,-2637,2025-01-29 15:17:12,1.0
-14208,-2112,-1116,1026,1116,-2204,2025-01-29 15:17:12,1.0
-12464,-2588,-2828,779,-582,-2083,2025-01-29 15:17:12,1.0
-11748,-2712,-2368,53,-1131,-2341,2025-01-29 15:17:12,1.0
-11908,-2464,-1640,-394,-184,-2661,2025-01-29 15:17:12,1.0
-12188,-1904,-1256,-786,1845,-2728,2025-01-29 15:17:12,1.0
-12996,-1340,-1336,-1205,3722,-2626,2025-01-29 15:17:12,1.0
-13780,-1036,-1624,-1806,3759,-2444,2025-01-29 15:17:12,1.0
-14428,-1248,-868,-2451,2487,-2204,2025-01-29 15:17:12,1.0
-15300,-1740,368,-2868,915,-1664,2025-01-29 15:17:12,1.0
-14192,-2044,-388,-2918,-246,-1167,2025-01-29 15:17:12,1.0
-14036,-2024,-864,-2969,-1444,-749,2025-01-29 15:17:12,1.0
-12840,-2068,-1672,-3195,-2174,-435,2025-01-29 15:17:12,1.0
-12100,-2272,-1392,-3507,-1354,-368,2025-01-29 15:17:12,1.0
-12076,-2544,-700,-3538,-172,-352,2025-01-29 15:17:12,1.0
-12372,-2640,-1092,-3486,996,-73,2025-01-29 15:17:12,1.0
-13408,-2460,-884,-3366,1282,285,2025-01-29 15:17:12,1.0
-13892,-2404,-864,-3326,355,702,2025-01-29 15:17:12,0.0
-13948,-2544,-968,-3389,-1510,1263,2025-01-29 15:17:12,0.0
-13404,-2592,-1204,-3214,-2182,1847,2025-01-29 15:17:12,0.0
-12976,-2724,-2300,-3065,-1645,2258,2025-01-29 15:17:12,0.0
-12284,-2540,-2872,-3391,-500,2353,2025-01-29 15:17:12,0.0
-11548,-2020,-1252,-3388,1217,1860,2025-01-29 15:17:12,0.0
-11644,-1596,-512,-3158,2216,1669,2025-01-29 15:17:12,0.0
-12300,-1224,-280,-2819,2766,1444,2025-01-29 15:17:12,0.0
-13784,-1272,-788,-2305,3148,1296,2025-01-29 15:17:12,4.0
-14936,-2004,-2460,-1996,3243,1264,2025-01-29 15:17:12,4.0
-15500,-2680,-2572,-1630,2986,1191,2025-01-29 15:17:12,4.0
-15088,-2824,-2272,-1271,1781,1064,2025-01-29 15:17:12,4.0
-13696,-2608,-1772,-1090,-206,704,2025-01-29 15:17:12,4.0
-12544,-1436,-1448,-773,-997,202,2025-01-29 15:17:12,4.0
-11868,-404,-3108,-1053,-266,-63,2025-01-29 15:17:12,4.0
-11788,64,-3924,-1787,935,-447,2025-01-29 15:17:12,4.0
-11800,-164,-2860,-2204,1267,-660,2025-01-29 15:17:12,4.0
-11868,-360,-2204,-2144,1386,-345,2025-01-29 15:17:12,4.0
-10972,-544,-3200,-1966,1188,382,2025-01-29 15:17:12,4.0
-9912,-960,-4792,-2479,2408,440,2025-01-29 15:17:12,4.0
-9520,-1240,-4792,-3214,3421,3,2025-01-29 15:17:13,4.0
-8748,-1580,-3464,-3897,3954,-442,2025-01-29 15:17:13,4.0
-7836,-1368,-2236,-4602,3361,-958,2025-01-29 15:17:13,4.0
-7748,-948,-932,-4941,2144,-1299,2025-01-29 15:17:13,4.0
-6840,-324,508,-4554,929,-1123,2025-01-29 15:17:13,4.0
-5852,-752,1400,-3395,365,-1284,2025-01-29 15:17:13,4.0
-6260,-1156,1280,-2645,-97,-1715,2025-01-29 15:17:13,4.0
-5936,-1044,1776,-2483,-523,-2134,2025-01-29 15:17:13,4.0
-7040,72,1920,-2926,-237,-2206,2025-01-29 15:17:13,4.0
-9000,1364,1992,-2376,244,-1424,2025-01-29 15:17:13,4.0
-10212,1444,-384,-1889,269,-475,2025-01-29 15:17:13,4.0
-11628,1088,-1228,-2094,72,-285,2025-01-29 15:17:13,4.0
-13220,372,360,-2217,-673,-257,2025-01-29 15:17:13,4.0
-15684,-120,2512,-2010,-2053,-281,2025-01-29 15:17:13,4.0
-17708,80,2072,-1647,-2142,-126,2025-01-29 15:17:13,4.0
-19352,-544,720,-1235,-555,413,2025-01-29 15:17:13,4.0
-19600,-580,-956,-201,640,107,2025-01-29 15:17:13,4.0
-20008,-1600,-3384,-111,1197,-911,2025-01-29 15:17:13,4.0
-16012,-512,-4940,-427,-1953,-1026,2025-01-29 15:17:13,4.0
-24704,168,-3184,-1034,-2839,-886,2025-01-29 15:17:13,4.0
-27060,812,-1040,-1403,-3592,-481,2025-01-29 15:17:13,4.0
-29424,180,-576,-1069,-3679,499,2025-01-29 15:17:13,4.0
-30200,-52,-3776,-674,-3025,2253,2025-01-29 15:17:13,4.0
-32768,1260,-4340,-1678,-2490,3652,2025-01-29 15:17:13,4.0
-32768,2024,-968,-1106,-5630,5406,2025-01-29 15:17:13,4.0
-32768,1452,4716,335,-7556,4031,2025-01-29 15:17:13,4.0
-32768,2004,9492,1581,-7877,3224,2025-01-29 15:17:13,4.0
-32768,-184,4728,1437,-5241,2955,2025-01-29 15:17:13,4.0
-32768,-3056,5288,-195,-1023,289,2025-01-29 15:17:13,4.0
-32768,-4256,5296,-1859,1634,-4506,2025-01-29 15:17:13,4.0
-32768,-2184,8496,-1824,4397,-5256,2025-01-29 15:17:13,4.0
-32768,-2820,-1380,2530,8032,-4144,2025-01-29 15:17:13,4.0
-27084,-2492,-7420,1347,4551,-4132,2025-01-29 15:17:13,4.0
-22916,2064,-68,1705,-5511,-1600,2025-01-29 15:17:13,4.0
-16052,2428,-2716,5275,-10854,1978,2025-01-29 15:17:13,4.0
-332,-488,-10728,4469,-11854,2993,2025-01-29 15:17:13,4.0
12696,-1548,-15916,509,-10770,2041,2025-01-29 15:17:13,4.0
28040,-368,-14844,-3308,-12729,-803,2025-01-29 15:17:13,4.0
20508,-940,-14288,-5154,-9176,-3213,2025-01-29 15:17:13,4.0
12900,1252,-13252,-5409,906,-4910,2025-01-29 15:17:13,4.0
5408,2344,-9684,-5305,10045,-4948,2025-01-29 15:17:13,4.0
-1540,864,236,-4676,13039,-3291,2025-01-29 15:17:13,4.0
-6104,-2628,8364,-2176,10645,-1075,2025-01-29 15:17:13,4.0
-4360,-3128,10008,147,6414,383,2025-01-29 15:17:13,4.0
-4012,-3216,11924,1798,3793,882,2025-01-29 15:17:13,4.0
-2272,-2064,8852,3486,1389,1251,2025-01-29 15:17:13,4.0
-872,56,4600,4378,-407,2248,2025-01-29 15:17:13,4.0
1992,988,984,4295,-112,2319,2025-01-29 15:17:13,4.0
3976,308,136,3138,-481,2042,2025-01-29 15:17:13,4.0
6804,-1136,-32,2200,-1040,1089,2025-01-29 15:17:13,4.0
6116,-1760,-672,770,-1361,-673,2025-01-29 15:17:13,4.0
3952,-1292,64,197,-252,-1306,2025-01-29 15:17:13,4.0
2552,-452,792,21,1059,-1261,2025-01-29 15:17:13,4.0
1344,-364,2068,340,1909,-923,2025-01-29 15:17:13,4.0
716,-64,3072,775,1474,-202,2025-01-29 15:17:13,4.0
832,-340,3356,1194,897,248,2025-01-29 15:17:13,4.0
716,24,4344,1512,-194,582,2025-01-29 15:17:13,4.0
868,-80,4288,2016,-1524,905,2025-01-29 15:17:13,4.0
1688,-212,3356,2229,-2750,762,2025-01-29 15:17:14,4.0
1628,-612,1428,2211,-3271,628,2025-01-29 15:17:14,4.0
1852,-404,-1248,1836,-2853,684,2025-01-29 15:17:14,4.0
2456,-112,-2672,693,-2808,602,2025-01-29 15:17:14,4.0
2440,-256,-3284,146,-3578,370,2025-01-29 15:17:14,4.0
2400,-808,-3268,-795,-5320,-4,2025-01-29 15:17:14,4.0
-2236,-1220,-4092,-1994,-6506,-219,2025-01-29 15:17:14,4.0
-11584,-1084,-11892,-2683,-1159,-612,2025-01-29 15:17:14,4.0
-28744,-1296,-14368,-1065,13164,-1482,2025-01-29 15:17:14,4.0
-32768,1128,-10248,2159,28342,-4919,2025-01-29 15:17:14,4.0
-32768,1240,16684,-3321,15800,-8358,2025-01-29 15:17:14,4.0
-32768,-9548,-19688,3834,-1485,-914,2025-01-29 15:17:14,4.0
-32768,4368,-14068,-6422,-1211,-3083,2025-01-29 15:17:14,4.0
-32768,2632,13772,-2608,-3437,2309,2025-01-29 15:17:14,4.0
-32768,-2620,6244,-277,-6859,5017,2025-01-29 15:17:14,4.0
-19436,-3652,3236,-1096,-8325,3387,2025-01-29 15:17:14,4.0
-14584,-2432,4624,476,-7304,1095,2025-01-29 15:17:14,4.0
-15236,-2888,3900,2571,-4259,-410,2025-01-29 15:17:14,4.0
-17096,-2380,8,3356,-77,-266,2025-01-29 15:17:14,4.0
-14896,-3160,-4968,1689,1441,-535,2025-01-29 15:17:14,4.0
-16368,268,-3116,1586,5438,-1801,2025-01-29 15:17:14,4.0
-19320,520,-340,1203,9374,-1465,2025-01-29 15:17:14,4.0
-19256,-636,4864,2115,7438,495,2025-01-29 15:17:14,4.0
-14180,-1740,5024,3531,2859,1308,2025-01-29 15:17:14,4.0
-9724,-2000,1712,2942,-1955,889,2025-01-29 15:17:14,4.0
-6700,-1916,1308,2333,-4622,239,2025-01-29 15:17:14,4.0
-5064,-1312,488,1890,-5469,106,2025-01-29 15:17:14,4.0
-4528,-508,2960,2279,-5145,205,2025-01-29 15:17:14,4.0
-3332,-284,2968,3509,-4489,515,2025-01-29 15:17:14,4.0
-3476,-524,-284,3387,-3832,428,2025-01-29 15:17:14,4.0
-6348,-380,-2988,1478,-2093,704,2025-01-29 15:17:14,4.0
-6512,-1224,-1756,183,-725,1421,2025-01-29 15:17:14,4.0
-6408,-1808,-692,-134,465,822,2025-01-29 15:17:14,4.0
-7904,-1004,344,-55,1690,-21,2025-01-29 15:17:14,4.0
-12448,836,1856,1515,4239,-1021,2025-01-29 15:17:14,4.0
-16244,1416,272,3476,5582,47,2025-01-29 15:17:14,4.0
-16528,84,-1916,3178,4557,1157,2025-01-29 15:17:14,4.0
-15976,-1232,-2540,1417,3087,665,2025-01-29 15:17:14,4.0
-16776,-1356,-1620,-597,1182,-211,2025-01-29 15:17:14,4.0
-17056,-644,212,-1640,-877,-671,2025-01-29 15:17:14,4.0
-16556,172,188,-1951,-2100,-348,2025-01-29 15:17:14,4.0
-14988,-32,376,-2088,-2507,239,2025-01-29 15:17:14,4.0
-12464,-688,1276,-1262,-1785,113,2025-01-29 15:17:14,4.0
-11240,-1520,1404,-315,-1062,-137,2025-01-29 15:17:14,4.0
-10816,-2672,1544,118,-396,-623,2025-01-29 15:17:14,4.0
-11584,-2904,1748,423,697,-1215,2025-01-29 15:17:14,4.0
-13216,-2032,2340,880,1749,-1370,2025-01-29 15:17:14,4.0
-14828,-708,2396,1665,2088,-569,2025-01-29 15:17:14,4.0
-14912,-16,1344,1948,1997,184,2025-01-29 15:17:14,4.0
-14748,364,604,1968,1756,437,2025-01-29 15:17:14,4.0
-14600,660,272,1669,1230,369,2025-01-29 15:17:14,4.0
-14496,588,-88,1272,255,297,2025-01-29 15:17:14,4.0
-14140,-12,-420,443,-794,53,2025-01-29 15:17:14,4.0
-14108,-304,-120,-293,-1183,-213,2025-01-29 15:17:14,4.0
-13940,-348,376,-726,-1260,-265,2025-01-29 15:17:14,4.0
-13664,-560,836,-826,-1083,-136,2025-01-29 15:17:14,4.0
-13636,-616,1308,-744,-762,48,2025-01-29 15:17:14,4.0
-13284,-964,1184,-482,-389,61,2025-01-29 15:17:14,4.0
-13092,-980,696,-228,163,11,2025-01-29 15:17:14,4.0
-13228,-724,524,89,814,-125,2025-01-29 15:17:14,4.0
-13688,-508,688,297,1252,-247,2025-01-29 15:17:14,4.0
-14272,-252,628,468,816,-208,2025-01-29 15:17:14,4.0
-14200,-344,308,262,147,-169,2025-01-29 15:17:14,4.0
-14188,-208,96,-121,-304,-113,2025-01-29 15:17:14,4.0
-13904,-268,184,-458,-389,-61,2025-01-29 15:17:15,4.0
-13772,-432,180,-551,-197,-80,2025-01-29 15:17:15,4.0
-13660,-512,296,-594,46,-143,2025-01-29 15:17:15,4.0
-13652,-496,440,-573,142,-209,2025-01-29 15:17:15,4.0
-13688,-564,584,-507,156,-277,2025-01-29 15:17:15,4.0
-13784,-516,680,-486,112,-297,2025-01-29 15:17:15,4.0
-13804,-472,532,-338,-26,-295,2025-01-29 15:17:15,4.0
-13904,-556,484,-282,-74,-227,2025-01-29 15:17:15,4.0
-13820,-456,388,-261,124,-181,2025-01-29 15:17:15,4.0
-13680,-396,488,-245,245,-133,2025-01-29 15:17:15,4.0
-13836,-552,624,-189,134,-93,2025-01-29 15:17:15,4.0
-13764,-476,408,-160,46,-117,2025-01-29 15:17:15,4.0
-13880,-428,520,-284,-129,-111,2025-01-29 15:17:15,4.0
-14052,-448,448,-305,-210,-96,2025-01-29 15:17:15,4.0
-13824,-500,584,-386,-333,-128,2025-01-29 15:17:15,4.0
-13724,-636,564,-453,-352,-153,2025-01-29 15:17:15,4.0
-13608,-664,620,-404,-256,-171,2025-01-29 15:17:15,4.0
-13660,-568,656,-387,-200,-186,2025-01-29 15:17:15,0.0
-13692,-548,696,-409,-20,-144,2025-01-29 15:17:15,0.0
-13740,-588,820,-324,305,-189,2025-01-29 15:17:15,0.0
-13812,-512,720,-269,394,-163,2025-01-29 15:17:15,0.0
-13900,-396,524,-252,369,-136,2025-01-29 15:17:15,0.0
-13992,-368,492,-313,227,-133,2025-01-29 15:17:15,1.0
-13756,-464,580,-370,36,-213,2025-01-29 15:17:15,1.0
-13772,-512,572,-379,-70,-207,2025-01-29 15:17:15,1.0
-13760,-520,628,-399,-32,-220,2025-01-29 15:17:15,1.0
-13732,-516,336,-450,5,-135,2025-01-29 15:17:15,1.0
-13660,-380,592,-490,294,-71,2025-01-29 15:17:15,1.0
-13416,-588,412,-340,576,-54,2025-01-29 15:17:15,1.0
-13640,-652,32,-425,654,-134,2025-01-29 15:17:15,1.0
-13820,-804,316,-460,746,-261,2025-01-29 15:17:15,1.0
-13976,-696,696,-460,537,-312,2025-01-29 15:17:15,1.0
-14100,-484,1172,-409,91,-256,2025-01-29 15:17:15,1.0
-13748,-544,872,-165,-53,-178,2025-01-29 15:17:15,1.0
-13592,-616,576,-142,71,-215,2025-01-29 15:17:15,1.0
-13668,-644,292,-180,307,-282,2025-01-29 15:17:15,1.0
-13744,-340,336,-285,559,-303,2025-01-29 15:17:15,1.0
-13852,-480,728,-240,750,-339,2025-01-29 15:17:15,1.0
-13776,-344,564,-141,804,-337,2025-01-29 15:17:15,1.0
-14044,-320,688,-277,971,-336,2025-01-29 15:17:15,1.0
-13896,-236,684,-236,1217,-300,2025-01-29 15:17:15,1.0
-13744,-216,644,-177,1454,-311,2025-01-29 15:17:15,1.0
-14420,-284,992,-341,1511,-265,2025-01-29 15:17:15,1.0
-14204,-448,928,-414,1437,-198,2025-01-29 15:17:15,1.0
-14092,-280,572,-206,1587,430,2025-01-29 15:17:15,1.0
-12476,-624,368,1120,3751,498,2025-01-29 15:17:15,1.0
-13012,112,636,1891,5651,-451,2025-01-29 15:17:15,1.0
-14056,612,580,1329,5496,-548,2025-01-29 15:17:15,1.0
-14592,548,1124,907,2219,-610,2025-01-29 15:17:15,1.0
-15136,200,1280,1121,-515,-391,2025-01-29 15:17:15,1.0
-14848,188,1020,1288,-1905,1,2025-01-29 15:17:15,1.0
-14160,428,-232,1188,-2351,146,2025-01-29 15:17:15,1.0
-13596,996,-1372,865,-2489,49,2025-01-29 15:17:15,1.0
-12932,1248,-1284,309,-2177,-233,2025-01-29 15:17:15,1.0
-12640,1052,-644,-265,-1246,-583,2025-01-29 15:17:15,1.0
-12584,688,256,-692,-381,-691,2025-01-29 15:17:15,1.0
-13052,292,500,-946,84,-670,2025-01-29 15:17:15,1.0
-13120,-388,692,-1089,474,-812,2025-01-29 15:17:15,1.0
-13636,-920,264,-1036,946,-1230,2025-01-29 15:17:15,1.0
-13992,-1244,224,-896,1256,-1722,2025-01-29 15:17:15,1.0
-14164,-1784,1528,-256,1299,-2134,2025-01-29 15:17:16,1.0
-14644,-2288,656,79,692,-1830,2025-01-29 15:17:16,1.0
-14072,-2720,1604,333,-156,-1689,2025-01-29 15:17:16,1.0
-13776,-2568,2632,688,-426,-1655,2025-01-29 15:17:16,1.0
-13616,-1968,2636,879,-313,-1512,2025-01-29 15:17:16,1.0
-13148,-1204,2096,669,146,-1614,2025-01-29 15:17:16,1.0
-12916,-624,1376,-2,1048,-1783,2025-01-29 15:17:16,1.0
-13188,-480,1368,-777,2060,-1998,2025-01-29 15:17:16,1.0
-13800,-552,1728,-1398,2486,-2072,2025-01-29 15:17:16,1.0
-14000,-1116,1984,-1792,2212,-2201,2025-01-29 15:17:16,1.0
-14304,-2252,2632,-1996,1468,-2374,2025-01-29 15:17:16,1.0
-14244,-2544,2824,-1762,582,-2259,2025-01-29 15:17:16,1.0
-13908,-2460,2664,-1536,-119,-2003,2025-01-29 15:17:16,1.0
-13368,-2172,2528,-1443,-496,-1729,2025-01-29 15:17:16,1.0
-12808,-2132,2224,-1517,-683,-1512,2025-01-29 15:17:16,1.0
-12636,-2084,1964,-1759,-580,-1423,2025-01-29 15:17:16,1.0
-12604,-1984,2180,-2170,-222,-1327,2025-01-29 15:17:16,1.0
-12984,-1712,2464,-2448,-86,-909,2025-01-29 15:17:16,1.0
-13264,-1620,2304,-2649,-48,-436,2025-01-29 15:17:16,1.0
-13264,-1544,2256,-2930,134,-163,2025-01-29 15:17:16,1.0
-13436,-1684,2500,-3267,138,-5,2025-01-29 15:17:16,1.0
-13632,-2184,2768,-3454,-182,134,2025-01-29 15:17:16,1.0
-13816,-2372,2896,-3220,-467,385,2025-01-29 15:17:16,1.0
-13680,-2492,2568,-2932,-359,333,2025-01-29 15:17:16,1.0
-13580,-2676,2236,-2964,-129,9,2025-01-29 15:17:16,1.0
-13464,-2852,2524,-3049,-93,-479,2025-01-29 15:17:16,1.0
-13648,-2900,2628,-2921,-267,-801,2025-01-29 15:17:16,1.0
-13976,-2780,2168,-2825,-426,-966,2025-01-29 15:17:16,1.0
-14088,-2420,1940,-3030,-178,-1066,2025-01-29 15:17:16,1.0
-14040,-2296,2560,-3557,223,-1202,2025-01-29 15:17:16,1.0
-14472,-2120,2504,-4242,286,-1378,2025-01-29 15:17:16,1.0
-14708,-2044,2936,-4912,134,-1255,2025-01-29 15:17:16,1.0
-14396,-2852,2592,-5113,265,-1606,2025-01-29 15:17:16,1.0
-14976,-4048,416,-5381,1125,-2515,2025-01-29 15:17:16,1.0
-15844,-5424,520,-5224,2288,-3440,2025-01-29 15:17:16,1.0
-16588,-6512,2440,-3576,2725,-4388,2025-01-29 15:17:16,1.0
-17992,-7056,3156,-1403,1354,-4943,2025-01-29 15:17:16,1.0
-20432,-6324,2560,343,-1563,-4084,2025-01-29 15:17:16,1.0
-21664,-4768,800,1796,-6135,-1093,2025-01-29 15:17:16,1.0
-19440,-2468,1368,2870,-9590,2077,2025-01-29 15:17:16,1.0
-14308,-1916,-1264,3392,-9816,3969,2025-01-29 15:17:16,1.0
-10544,-1564,-4356,2224,-7170,4046,2025-01-29 15:17:16,1.0
-9744,-688,-6864,383,-2782,2722,2025-01-29 15:17:16,1.0
-10400,304,-6364,-900,1221,1689,2025-01-29 15:17:16,1.0
-11312,980,-4540,-1059,3610,731,2025-01-29 15:17:16,1.0
-12592,856,-2724,-710,4500,272,2025-01-29 15:17:16,1.0
-13868,0,-748,-472,4571,522,2025-01-29 15:17:16,1.0
-14764,-1384,820,-147,4025,1350,2025-01-29 15:17:16,1.0
-14440,-2864,912,1051,3030,2612,2025-01-29 15:17:16,1.0
-13932,-3584,464,1884,2254,2909,2025-01-29 15:17:16,1.0
-13764,-3372,-120,2413,1636,2891,2025-01-29 15:17:16,1.0
-13572,-2292,400,3107,922,2664,2025-01-29 15:17:16,1.0
-13480,-1132,520,3637,157,2538,2025-01-29 15:17:16,1.0
-13136,244,380,4104,-616,2861,2025-01-29 15:17:16,1.0
-12428,920,-256,4176,-776,3134,2025-01-29 15:17:16,1.0
-11660,1156,-696,3964,-286,2892,2025-01-29 15:17:16,1.0
-11600,952,-1320,3428,617,2476,2025-01-29 15:17:17,1.0
-12004,832,-716,2957,1383,2280,2025-01-29 15:17:17,1.0
-12672,624,4,2828,1812,2277,2025-01-29 15:17:17,1.0
-13460,520,516,2941,1729,2439,2025-01-29 15:17:17,1.0
-13772,396,504,2946,1066,2490,2025-01-29 15:17:17,1.0
-13616,328,464,2814,-80,2271,2025-01-29 15:17:17,1.0
-13456,256,572,2389,-1097,1902,2025-01-29 15:17:17,1.0
-13284,180,900,1990,-1490,1546,2025-01-29 15:17:17,1.0
-13332,-452,1744,1883,-1559,1175,2025-01-29 15:17:17,1.0
-13176,-1088,2184,2340,-2246,811,2025-01-29 15:17:17,1.0
-12872,-876,2324,2658,-3026,526,2025-01-29 15:17:17,1.0
-12436,-164,2800,2641,-3640,37,2025-01-29 15:17:17,1.0
-11564,728,2376,2711,-4170,-541,2025-01-29 15:17:17,1.0
-11116,1600,1584,2961,-4185,-965,2025-01-29 15:17:17,1.0
-10552,1596,536,2980,-2621,-1029,2025-01-29 15:17:17,1.0
-10532,772,-544,2862,97,-963,2025-01-29 15:17:17,1.0
-11164,-648,68,2908,3037,-1134,2025-01-29 15:17:17,1.0
-13480,-1032,992,3253,5220,-1682,2025-01-29 15:17:17,1.0
-16324,108,2116,3716,5900,-1414,2025-01-29 15:17:17,1.0
-18360,1112,2224,4163,5017,-392,2025-01-29 15:17:17,1.0
-18112,1632,2560,4748,1770,630,2025-01-29 15:17:17,1.0
-16144,284,2892,4789,-2186,373,2025-01-29 15:17:17,1.0
-14924,-1212,3816,4595,-2609,-96,2025-01-29 15:17:17,1.0
-14208,-1424,4340,5176,-275,11,2025-01-29 15:17:17,1.0
-14400,-888,3436,6121,2661,452,2025-01-29 15:17:17,1.0
-15728,-564,1428,6417,4718,714,2025-01-29 15:17:17,1.0
-18036,760,-1720,5404,6228,980,2025-01-29 15:17:17,1.0
-20156,1932,-4172,3615,6601,1955,2025-01-29 15:17:17,1.0
-20724,3940,-5436,1524,5214,3366,2025-01-29 15:17:17,1.0
-18184,5408,-6372,-507,1245,4412,2025-01-29 15:17:17,1.0
-11144,4424,-3728,-1959,-4730,1955,2025-01-29 15:17:17,1.0
-8556,-4,-2844,-3273,-6912,-2564,2025-01-29 15:17:17,1.0
-9836,-2864,-2260,-4636,-6350,-4267,2025-01-29 15:17:17,1.0
-11528,-4816,-2240,-4052,-4335,-4082,2025-01-29 15:17:17,1.0
-13028,-5704,-2620,-2464,-969,-2982,2025-01-29 15:17:17,1.0
-12880,-3896,-2084,-376,2955,-1762,2025-01-29 15:17:17,1.0
-12448,-1020,-1592,800,5492,-1453,2025-01-29 15:17:17,1.0
-12796,1804,-548,-69,4661,-1773,2025-01-29 15:17:17,1.0
-13592,1836,-260,-1396,2214,-2000,2025-01-29 15:17:17,1.0
-14072,800,-608,-2367,94,-2253,2025-01-29 15:17:17,1.0
-14544,-648,-1292,-2943,-1404,-2324,2025-01-29 15:17:17,1.0
-14008,-1976,-1800,-3222,-2541,-2331,2025-01-29 15:17:17,1.0
-13184,-2184,-1588,-3229,-2924,-2390,2025-01-29 15:17:17,1.0
-12448,-1824,-584,-3065,-2729,-2286,2025-01-29 15:17:17,1.0
-11448,-1420,-888,-3111,-1886,-2298,2025-01-29 15:17:17,1.0
-11300,-1324,-976,-3310,-509,-2272,2025-01-29 15:17:17,1.0
-11900,-1844,-644,-3382,625,-2227,2025-01-29 15:17:17,1.0
-12328,-2188,-208,-3386,1116,-2251,2025-01-29 15:17:17,1.0
-12936,-2500,468,-3313,1074,-2176,2025-01-29 15:17:17,1.0
-13260,-2376,640,-3048,447,-1809,2025-01-29 15:17:17,1.0
-13392,-2280,264,-2694,-76,-1331,2025-01-29 15:17:17,1.0
-13104,-2048,-168,-2433,-200,-808,2025-01-29 15:17:17,1.0
-12756,-1852,-24,-2248,-96,-423,2025-01-29 15:17:17,1.0
-12664,-1616,304,-2109,163,-88,2025-01-29 15:17:17,1.0
-12800,-1232,1104,-1932,429,547,2025-01-29 15:17:17,1.0
-12736,-876,1432,-1832,273,1157,2025-01-29 15:17:17,1.0
-12632,-780,904,-1931,8,1416,2025-01-29 15:17:17,1.0
-12840,-1032,908,-2326,-130,1384,2025-01-29 15:17:17,1.0
-13240,-1168,920,-2770,-246,1164,2025-01-29 15:17:17,1.0
-13540,-1020,716,-3119,-391,950,2025-01-29 15:17:17,1.0
-13776,-844,636,-3562,-355,883,2025-01-29 15:17:17,1.0
-13996,-304,244,-4067,-434,730,2025-01-29 15:17:17,1.0
-14076,20,220,-4722,-412,246,2025-01-29 15:17:17,1.0
-14292,-240,520,-5191,-242,-352,2025-01-29 15:17:17,1.0
-14644,-1128,1512,-5616,-689,-889,2025-01-29 15:17:17,1.0
-14996,-1520,2600,-6176,-1716,-1268,2025-01-29 15:17:18,1.0
-14948,-1536,2956,-6650,-3079,-1355,2025-01-29 15:17:18,1.0
-14688,-1396,1764,-6572,-3123,-1443,2025-01-29 15:17:18,1.0
-14604,-1596,140,-6788,-1402,-1983,2025-01-29 15:17:18,1.0
-14860,-2568,64,-7075,906,-2771,2025-01-29 15:17:18,1.0
-15424,-4220,1328,-6656,1612,-3945,2025-01-29 15:17:18,1.0
-17640,-6664,3428,-4848,207,-3895,2025-01-29 15:17:18,1.0
-18852,-7252,4304,-1805,-1772,-2619,2025-01-29 15:17:18,1.0
-19400,-6372,2896,1152,-3155,-802,2025-01-29 15:17:18,1.0
-17404,-3712,1100,2362,-4237,241,2025-01-29 15:17:18,1.0
-15984,-1156,-1072,2057,-5014,1505,2025-01-29 15:17:18,1.0
-14024,-328,-2312,1282,-4862,2883,2025-01-29 15:17:18,1.0
-11748,96,-3496,796,-4002,3127,2025-01-29 15:17:18,1.0
-10360,664,-4560,73,-2424,2559,2025-01-29 15:17:18,1.0
-8352,924,-4004,-1780,924,743,2025-01-29 15:17:18,1.0
-8748,1388,-2344,-2586,3316,-868,2025-01-29 15:17:18,1.0
-10548,1368,-2128,-2643,4738,-1476,2025-01-29 15:17:18,1.0
-12572,984,-2200,-2599,6072,-1423,2025-01-29 15:17:18,1.0
-14828,-84,-1860,-2503,7051,-877,2025-01-29 15:17:18,1.0
-16364,-1276,-1204,-2298,7066,66,2025-01-29 15:17:18,1.0
-16392,-2216,272,-2061,5177,677,2025-01-29 15:17:18,1.0
-16744,-2528,1724,-1455,1877,1282,2025-01-29 15:17:18,1.0
-16960,-1732,1724,-430,-1801,2536,2025-01-29 15:17:18,1.0
-15592,-504,444,212,-3568,3537,2025-01-29 15:17:18,1.0
-13748,440,-620,298,-4131,3687,2025-01-29 15:17:18,1.0
-11892,908,-772,110,-3860,3169,2025-01-29 15:17:18,1.0
-10672,916,-896,-194,-2551,2463,2025-01-29 15:17:18,1.0
-10024,708,-816,-491,-948,1921,2025-01-29 15:17:18,1.0
-9924,356,-520,-726,901,1458,2025-01-29 15:17:18,1.0
-10312,140,116,-823,2454,895,2025-01-29 15:17:18,1.0
-11804,356,564,-964,3221,497,2025-01-29 15:17:18,1.0
-12932,948,1028,-963,3234,346,2025-01-29 15:17:18,1.0
-14024,1144,808,-1045,2393,181,2025-01-29 15:17:18,1.0
-13780,1148,680,-1463,1092,-281,2025-01-29 15:17:18,7.0
-13324,628,944,-1855,-29,-1088,2025-01-29 15:17:18,7.0
-13320,-152,1116,-1966,-855,-1753,2025-01-29 15:17:18,7.0
-13364,-540,1536,-1960,-1253,-1881,2025-01-29 15:17:18,7.0
-13296,-664,2232,-1873,-818,-1995,2025-01-29 15:17:18,7.0
-13380,-536,2012,-1696,-113,-2167,2025-01-29 15:17:18,7.0
-13180,-64,1608,-1495,15,-2142,2025-01-29 15:17:18,7.0
-12864,740,748,-1306,-820,-2176,2025-01-29 15:17:18,7.0
-11408,1536,-404,-1699,-1954,-2637,2025-01-29 15:17:18,7.0
-10300,1436,-1196,-2404,-1652,-3638,2025-01-29 15:17:18,7.0
-10656,512,-1524,-2958,448,-4413,2025-01-29 15:17:18,7.0
-12228,-440,-96,-2856,3468,-4717,2025-01-29 15:17:18,7.0
-14908,-428,1304,-2668,5919,-4439,2025-01-29 15:17:18,7.0
-17540,-588,2132,-2631,6949,-3461,2025-01-29 15:17:18,7.0
-19252,-988,1492,-2448,6410,-2318,2025-01-29 15:17:18,7.0
-20104,-1100,-2620,-2436,4862,-883,2025-01-29 15:17:18,7.0
-19832,-788,-7652,-3354,3329,670,2025-01-29 15:17:18,7.0
-19808,528,-9976,-5024,2325,1909,2025-01-29 15:17:18,7.0
-17428,4084,-6036,-6797,1395,2296,2025-01-29 15:17:18,7.0
-14180,7184,-2352,-7461,-91,763,2025-01-29 15:17:18,7.0
-11412,3800,-2996,-9679,-3018,-2183,2025-01-29 15:17:18,7.0
-10888,-80,-1980,-11562,-5807,-4129,2025-01-29 15:17:18,7.0
-11168,-3228,-1664,-11738,-6928,-4547,2025-01-29 15:17:18,7.0
-11620,-5460,-2232,-10873,-5368,-3539,2025-01-29 15:17:18,7.0
-11252,-5484,-1924,-9461,-471,-2089,2025-01-29 15:17:18,7.0
-11576,-3460,-2292,-8637,3871,-1939,2025-01-29 15:17:18,7.0
-13576,-1124,-2488,-9051,5665,-1898,2025-01-29 15:17:18,7.0
-15360,716,-1384,-9650,4185,-1784,2025-01-29 15:17:19,7.0
-15612,1152,-1472,-10711,1352,-2209,2025-01-29 15:17:19,7.0
-15468,792,-2272,-12120,-1208,-2710,2025-01-29 15:17:19,7.0
-15064,312,-3100,-13537,-2977,-2608,2025-01-29 15:17:19,7.0
-13924,60,-3916,-14151,-3516,-2143,2025-01-29 15:17:19,7.0
-12140,-280,-3900,-14925,-3395,-1955,2025-01-29 15:17:19,7.0
-11004,-1216,-3552,-15798,-2351,-2279,2025-01-29 15:17:19,7.0
-11136,-2048,-3412,-16501,-1200,-2862,2025-01-29 15:17:19,7.0
-12224,-2376,-3272,-17074,-432,-3265,2025-01-29 15:17:19,7.0
-13140,-2308,-2904,-17464,-522,-3170,2025-01-29 15:17:19,7.0
-13256,-2116,-2376,-17494,-911,-2968,2025-01-29 15:17:19,7.0
-13080,-1984,-2192,-17404,-1241,-2819,2025-01-29 15:17:19,7.0
-12660,-1960,-2376,-17424,-1134,-2871,2025-01-29 15:17:19,7.0
-12656,-2056,-2984,-17686,-1027,-2975,2025-01-29 15:17:19,7.0
-12760,-1936,-3144,-17981,-985,-3090,2025-01-29 15:17:19,7.0
-12868,-2336,-3048,-18123,-1053,-3066,2025-01-29 15:17:19,7.0
-13080,-2648,-2304,-18179,-1102,-3045,2025-01-29 15:17:19,7.0
-13440,-2448,-1876,-18067,-994,-2842,2025-01-29 15:17:19,7.0
-13476,-2256,-1660,-17945,-1032,-2540,2025-01-29 15:17:19,7.0
-13572,-2308,-1828,-17913,-1273,-2320,2025-01-29 15:17:19,7.0
-13532,-2212,-1952,-17880,-1633,-2041,2025-01-29 15:17:19,7.0
-13460,-2300,-1748,-17831,-1491,-1740,2025-01-29 15:17:19,7.0
-13192,-2676,-1800,-17931,-1087,-1707,2025-01-29 15:17:19,7.0
-13428,-2768,-2324,-18245,-832,-1822,2025-01-29 15:17:19,7.0
-13624,-2416,-2360,-18607,-816,-1862,2025-01-29 15:17:19,7.0
-13276,-2096,-2104,-18841,-549,-2144,2025-01-29 15:17:19,7.0
-13348,-1980,-1888,-19234,-99,-2526,2025-01-29 15:17:19,7.0
-13720,-1988,-972,-19316,-193,-2721,2025-01-29 15:17:19,7.0
-13844,-2100,-384,-19055,-971,-2809,2025-01-29 15:17:19,7.0
-13976,-2676,-560,-18913,-2054,-2848,2025-01-29 15:17:19,7.0
-14332,-3276,-972,-18879,-2932,-2761,2025-01-29 15:17:19,7.0
-14304,-3648,-1384,-18813,-3409,-2389,2025-01-29 15:17:19,7.0
-13748,-3936,-1140,-18734,-3222,-2069,2025-01-29 15:17:19,7.0
-13216,-3500,-524,-18499,-2417,-1664,2025-01-29 15:17:19,7.0
-12440,-2992,-416,-18095,-834,-810,2025-01-29 15:17:19,7.0
-12548,-2784,128,-18212,35,-341,2025-01-29 15:17:19,7.0
-13296,-2612,1232,-18405,523,-61,2025-01-29 15:17:19,7.0
-14560,-2644,824,-18105,192,318,2025-01-29 15:17:19,7.0
-15584,-2640,-268,-17676,-443,622,2025-01-29 15:17:19,7.0
-15896,-2096,-692,-17428,-1153,705,2025-01-29 15:17:19,7.0
-15300,-2576,-140,-16794,-2501,598,2025-01-29 15:17:19,7.0
-15176,-3340,-1344,-15541,-3636,653,2025-01-29 15:17:19,7.0
-13436,-2240,-3812,-14354,-4004,679,2025-01-29 15:17:19,7.0
-11820,-636,-5160,-14898,-3068,566,2025-01-29 15:17:19,7.0
-11040,840,-4520,-15946,-891,-118,2025-01-29 15:17:19,7.0
-11980,1116,-2860,-16078,1854,-823,2025-01-29 15:17:19,7.0
-13564,1168,-2488,-15341,3941,-1091,2025-01-29 15:17:19,7.0
-13372,680,-3344,-15580,4018,-1387,2025-01-29 15:17:19,7.0
-13524,92,-3088,-16499,3209,-1816,2025-01-29 15:17:19,7.0
-13756,-120,-1348,-16816,2495,-2022,2025-01-29 15:17:19,7.0
-14592,180,-660,-16345,1938,-1772,2025-01-29 15:17:19,7.0
-14972,384,-872,-15404,1277,-1220,2025-01-29 15:17:19,7.0
-14604,588,-704,-14778,400,-741,2025-01-29 15:17:19,7.0
-13980,696,-56,-14298,-479,-636,2025-01-29 15:17:19,7.0
-13204,-8,-288,-13634,-1165,-739,2025-01-29 15:17:19,7.0
-12844,-536,-840,-13177,-1365,-899,2025-01-29 15:17:19,7.0
-12612,-192,-720,-12725,-353,-1031,2025-01-29 15:17:19,7.0
-12784,888,-1492,-12519,1131,-846,2025-01-29 15:17:19,7.0
-13000,1680,-1996,-12360,2209,-727,2025-01-29 15:17:19,7.0
-13088,2180,-2148,-12138,2247,-849,2025-01-29 15:17:19,7.0
-13132,2052,-1868,-12117,1476,-1301,2025-01-29 15:17:19,7.0
-13448,1628,-636,-12126,1045,-1752,2025-01-29 15:17:20,7.0
-14040,1400,-4,-11756,1032,-1940,2025-01-29 15:17:20,7.0
-14320,864,-120,-11468,577,-1835,2025-01-29 15:17:20,7.0
-13852,428,-280,-11415,-1312,-2080,2025-01-29 15:17:20,7.0
-13244,908,-632,-11580,-3175,-2599,2025-01-29 15:17:20,7.0
-12916,1796,-836,-11604,-3570,-3020,2025-01-29 15:17:20,7.0
-12392,2456,-2080,-11599,-3409,-3197,2025-01-29 15:17:20,7.0
-12216,2508,-2780,-11820,-2736,-3053,2025-01-29 15:17:20,7.0
-12312,1712,-2456,-11874,-757,-2806,2025-01-29 15:17:20,7.0
-12704,604,-1732,-11626,1858,-2475,2025-01-29 15:17:20,7.0
-13032,-128,-800,-11188,3379,-2438,2025-01-29 15:17:20,7.0
-13860,-332,-164,-10853,3060,-2790,2025-01-29 15:17:20,7.0
-14788,-484,72,-10416,1443,-3048,2025-01-29 15:17:20,7.0
-15252,-992,128,-9750,-657,-3166,2025-01-29 15:17:20,7.0
-14944,-1616,-296,-8675,-2652,-2913,2025-01-29 15:17:20,7.0
-14760,-2108,0,-7377,-3500,-2344,2025-01-29 15:17:20,7.0
-14060,-2412,-264,-6417,-3094,-1690,2025-01-29 15:17:20,7.0
-12976,-2252,12,-5548,-1880,-1104,2025-01-29 15:17:20,7.0
-12216,-1988,380,-4943,-415,-873,2025-01-29 15:17:20,7.0
-12152,-1268,444,-4493,471,-986,2025-01-29 15:17:20,7.0
-12760,-452,668,-4185,407,-1214,2025-01-29 15:17:20,7.0
-13512,240,484,-3705,-126,-1468,2025-01-29 15:17:20,7.0
-13956,388,-8,-3524,-190,-1691,2025-01-29 15:17:20,7.0
-14316,20,-524,-3833,-113,-1941,2025-01-29 15:17:20,7.0
-14444,-820,-192,-4123,-138,-1928,2025-01-29 15:17:20,7.0
-14164,-1336,-464,-3995,87,-1637,2025-01-29 15:17:20,7.0
-13572,-1452,-724,-3772,226,-1174,2025-01-29 15:17:20,7.0
-13136,-1248,-936,-3388,764,-885,2025-01-29 15:17:20,7.0
-13264,-684,-848,-3077,1688,-774,2025-01-29 15:17:20,7.0
-13932,-648,-616,-2948,2291,-760,2025-01-29 15:17:20,7.0
-14572,-708,-88,-2843,2303,-663,2025-01-29 15:17:20,7.0
-15028,-1224,192,-2487,1556,-460,2025-01-29 15:17:20,7.0
-14736,-1796,144,-1924,0,-258,2025-01-29 15:17:20,7.0
-14352,-1972,128,-1256,-1464,-180,2025-01-29 15:17:20,7.0
-13632,-1624,-52,-829,-1707,-95,2025-01-29 15:17:20,7.0
-13084,-1328,-532,-332,-670,-77,2025-01-29 15:17:20,7.0
-13004,-1304,-808,-112,59,-113,2025-01-29 15:17:20,7.0
-13156,-960,-308,84,845,-155,2025-01-29 15:17:20,7.0
-13572,-572,84,30,1276,-95,2025-01-29 15:17:20,7.0
-13880,-500,244,-71,1103,-146,2025-01-29 15:17:20,7.0
-14332,-556,108,-9,283,-212,2025-01-29 15:17:20,7.0
-14320,-624,-120,115,-443,-162,2025-01-29 15:17:20,7.0
-13860,-652,-264,86,-395,-119,2025-01-29 15:17:20,7.0
-13500,-604,-280,80,-139,-80,2025-01-29 15:17:20,7.0
-13344,-652,-492,155,39,-7,2025-01-29 15:17:20,7.0
-13380,-724,-508,258,102,-19,2025-01-29 15:17:20,7.0
-13380,-772,-736,391,339,-75,2025-01-29 15:17:20,7.0
-13456,-800,-652,446,679,-206,2025-01-29 15:17:20,0.0
-13748,-1048,-636,566,807,-292,2025-01-29 15:17:20,0.0
-14108,-1164,-604,743,534,-243,2025-01-29 15:17:20,0.0
-14208,-1148,-580,981,138,-136,2025-01-29 15:17:20,0.0
-13848,-876,-592,1105,-52,-36,2025-01-29 15:17:20,0.0
-13496,-640,-748,1152,-9,-75,2025-01-29 15:17:20,0.0
-13232,-380,-992,1139,201,-183,2025-01-29 15:17:20,0.0
-13292,-492,-1032,1108,569,-246,2025-01-29 15:17:20,1.0
-13384,-596,-868,1064,990,-252,2025-01-29 15:17:20,1.0
-13760,-488,-692,1041,1170,-235,2025-01-29 15:17:20,1.0
-13904,-452,-568,953,953,-221,2025-01-29 15:17:20,1.0
-13996,-436,-332,804,537,-127,2025-01-29 15:17:21,1.0
-13848,-232,-456,687,281,-73,2025-01-29 15:17:21,1.0
-13612,-148,-628,566,318,-84,2025-01-29 15:17:21,1.0
-13552,-256,-988,534,510,-109,2025-01-29 15:17:21,1.0
-13452,-236,-1380,414,748,-148,2025-01-29 15:17:21,1.0
-13568,-284,-1296,283,912,-284,2025-01-29 15:17:21,1.0
-13752,-488,-1068,347,953,-353,2025-01-29 15:17:21,1.0
-13948,-728,-1252,438,409,-365,2025-01-29 15:17:21,1.0
-13940,-928,-904,696,-238,-293,2025-01-29 15:17:21,1.0
-13748,-748,-736,816,-322,-196,2025-01-29 15:17:21,1.0
-13588,-736,-860,807,-173,-160,2025-01-29 15:17:21,1.0
-13424,-632,-740,823,-8,-151,2025-01-29 15:17:21,1.0
-13388,-656,-692,851,315,-152,2025-01-29 15:17:21,1.0
-13496,-732,-612,907,594,-181,2025-01-29 15:17:21,1.0
-13632,-704,-644,950,574,-210,2025-01-29 15:17:21,1.0
-13900,-640,-908,899,357,-216,2025-01-29 15:17:21,1.0
-13824,-576,-980,825,30,-215,2025-01-29 15:17:21,1.0
-13680,-476,-1072,663,-147,-234,2025-01-29 15:17:21,1.0
-13572,-468,-1108,528,9,-235,2025-01-29 15:17:21,1.0
-13508,-384,-1232,343,316,-276,2025-01-29 15:17:21,1.0
-13412,-252,-1252,78,583,-300,2025-01-29 15:17:21,1.0
-13376,-172,-1168,-93,708,-293,2025-01-29 15:17:21,1.0
-13728,-52,-1232,-267,759,-233,2025-01-29 15:17:21,1.0
-13556,-76,-1000,-482,832,-234,2025-01-29 15:17:21,1.0
-13772,52,-1188,-679,837,-143,2025-01-29 15:17:21,1.0
-13848,-132,-1200,-750,855,-82,2025-01-29 15:17:21,1.0
-13992,-380,-1240,-776,886,77,2025-01-29 15:17:21,1.0
-13828,-368,-1216,-789,861,59,2025-01-29 15:17:21,1.0
-13840,-364,-1096,-875,571,21,2025-01-29 15:17:21,1.0
-13612,-376,-776,-781,228,-150,2025-01-29 15:17:21,1.0
-13328,-508,-212,-563,-78,-355,2025-01-29 15:17:21,1.0
-13316,-680,76,-325,-144,-524,2025-01-29 15:17:21,1.0
-13436,-300,-452,-147,-20,-623,2025-01-29 15:17:21,1.0
-13652,-228,-600,-180,33,-742,2025-01-29 15:17:21,1.0
-13608,4,-608,-334,244,-901,2025-01-29 15:17:21,1.0
-13764,108,-556,-455,425,-995,2025-01-29 15:17:21,1.0
-14232,248,-900,-522,96,-927,2025-01-29 15:17:21,1.0
-14428,216,-1084,-701,-406,-783,2025-01-29 15:17:21,1.0
-14372,404,-712,-826,-770,-679,2025-01-29 15:17:21,1.0
-14064,700,-1024,-955,-1139,-609,2025-01-29 15:17:21,1.0
-13700,552,-460,-1259,-799,-650,2025-01-29 15:17:21,1.0
-13688,508,212,-1498,-398,-696,2025-01-29 15:17:21,1.0
-14108,716,308,-1703,-1139,-545,2025-01-29 15:17:21,1.0
-14252,812,-772,-2027,-2566,-353,2025-01-29 15:17:21,1.0
-14008,896,-1452,-2463,-4251,-6,2025-01-29 15:17:21,1.0
-12996,340,-468,-2673,-4671,235,2025-01-29 15:17:21,1.0
-12152,-444,52,-2495,-3846,126,2025-01-29 15:17:21,1.0
-11720,-1776,104,-2265,-2338,-254,2025-01-29 15:17:21,1.0
-11712,-3368,916,-1758,-614,-933,2025-01-29 15:17:21,1.0
-12564,-4608,1856,-702,1055,-1623,2025-01-29 15:17:21,1.0
-13828,-4796,1808,466,2111,-1643,2025-01-29 15:17:21,1.0
-14404,-3620,1420,1221,2730,-1478,2025-01-29 15:17:21,1.0
-14028,-1704,1300,1199,2726,-2158,2025-01-29 15:17:21,1.0
-14244,-180,1300,264,1757,-2720,2025-01-29 15:17:21,1.0
-14252,712,956,-964,448,-2815,2025-01-29 15:17:21,1.0
-13888,720,344,-2046,-233,-2719,2025-01-29 15:17:21,1.0
-13600,40,-412,-2775,-390,-2493,2025-01-29 15:17:21,1.0
-12996,-960,-696,-3551,380,-2596,2025-01-29 15:17:21,1.0
-13012,-1636,112,-4088,1892,-2836,2025-01-29 15:17:21,1.0
-13744,-2128,1064,-4223,2521,-2842,2025-01-29 15:17:21,1.0
-14244,-2576,1584,-3938,1642,-2553,2025-01-29 15:17:21,1.0
-14256,-3036,1936,-3394,101,-2250,2025-01-29 15:17:21,1.0
-13396,-3068,1872,-2899,-1293,-2153,2025-01-29 15:17:21,1.0
-12668,-2948,2332,-2563,-1780,-2059,2025-01-29 15:17:22,1.0
-12528,-2492,2212,-2205,-1206,-1853,2025-01-29 15:17:22,1.0
-12644,-2228,2004,-1937,-830,-1478,2025-01-29 15:17:22,1.0
-12992,-2028,2024,-1663,-473,-604,2025-01-29 15:17:22,1.0
-12676,-2228,1864,-1387,297,302,2025-01-29 15:17:22,1.0
-12160,-2584,1480,-1374,941,475,2025-01-29 15:17:22,1.0
-12260,-2964,1956,-1289,1446,511,2025-01-29 15:17:22,1.0
-12800,-2556,2200,-1181,1996,472,2025-01-29 15:17:22,1.0
-13920,-1700,1684,-1341,2443,373,2025-01-29 15:17:22,1.0
-14660,-1168,1556,-1545,2110,211,2025-01-29 15:17:22,1.0
-14636,-1352,1208,-1838,1374,-303,2025-01-29 15:17:22,1.0
-14464,-1896,1444,-2041,823,-905,2025-01-29 15:17:22,1.0
-14528,-2444,1252,-2215,687,-1349,2025-01-29 15:17:22,1.0
-14688,-2728,1268,-2746,356,-1849,2025-01-29 15:17:22,1.0
-15072,-2668,2056,-3285,-12,-2292,2025-01-29 15:17:22,1.0
-15048,-2544,2916,-3717,-751,-2651,2025-01-29 15:17:22,1.0
-14964,-2448,3800,-3740,-1746,-2683,2025-01-29 15:17:22,1.0
-13940,-3096,3020,-3412,-2720,-2229,2025-01-29 15:17:22,1.0
-13380,-4140,1036,-3283,-2479,-2629,2025-01-29 15:17:22,1.0
-14184,-5104,540,-3809,-676,-3441,2025-01-29 15:17:22,1.0
-15428,-5788,3016,-3523,1523,-3871,2025-01-29 15:17:22,1.0
-17040,-6556,4316,-2346,2968,-3994,2025-01-29 15:17:22,1.0
-19520,-6416,3296,-480,2289,-3384,2025-01-29 15:17:22,1.0
-20892,-5672,928,1009,-1377,-1275,2025-01-29 15:17:22,1.0
-20804,-4488,-924,2329,-6419,1009,2025-01-29 15:17:22,1.0
-18556,-3100,-768,3584,-9423,2686,2025-01-29 15:17:22,1.0
-16256,-2868,-1576,4293,-9533,3779,2025-01-29 15:17:22,1.0
-13000,-2564,-2040,3813,-6664,4135,2025-01-29 15:17:22,1.0
-11268,-2468,-3868,3510,-4223,3270,2025-01-29 15:17:22,1.0
-10788,-2116,-4660,3208,-3706,2766,2025-01-29 15:17:22,1.0
-10136,-1324,-4788,3041,-3149,2371,2025-01-29 15:17:22,1.0
-9584,-48,-4436,2640,-1075,1873,2025-01-29 15:17:22,1.0
-10016,1304,-3924,1620,2313,1255,2025-01-29 15:17:22,1.0
-11424,972,-3212,317,4803,1132,2025-01-29 15:17:22,1.0
-13084,-72,-1352,-196,6089,1509,2025-01-29 15:17:22,1.0
-14888,-948,76,37,6834,2219,2025-01-29 15:17:22,1.0
-15624,-1548,348,647,6733,2885,2025-01-29 15:17:22,1.0
-15976,-1696,300,1135,4988,3134,2025-01-29 15:17:22,1.0
-15300,-1532,128,1440,1292,3221,2025-01-29 15:17:22,1.0
-14588,-1244,760,1937,-1958,3054,2025-01-29 15:17:22,1.0
-13096,-856,976,2376,-3276,2971,2025-01-29 15:17:22,1.0
-12132,-444,316,2544,-2617,2910,2025-01-29 15:17:22,1.0
-11064,236,-504,2271,-653,2778,2025-01-29 15:17:22,1.0
-11176,424,-976,1881,1212,2691,2025-01-29 15:17:22,1.0
-11404,268,-320,1843,2680,2511,2025-01-29 15:17:22,1.0
-11972,-96,416,1880,3158,2357,2025-01-29 15:17:22,1.0
-12364,-284,1132,1974,2812,2178,2025-01-29 15:17:22,1.0
-12384,-508,1592,2154,1885,1892,2025-01-29 15:17:22,1.0
-12372,-496,1996,2305,627,1394,2025-01-29 15:17:22,1.0
-12132,-100,1936,2457,-387,518,2025-01-29 15:17:22,1.0
-12468,696,1980,2528,-1021,-313,2025-01-29 15:17:22,1.0
-12492,888,1632,2442,-1712,-849,2025-01-29 15:17:22,1.0
-12676,400,1824,2249,-2271,-1190,2025-01-29 15:17:22,1.0
-12864,24,2036,2116,-2604,-1514,2025-01-29 15:17:22,1.0
-13268,348,2028,2133,-2568,-1577,2025-01-29 15:17:22,1.0
-14068,648,1800,2020,-2370,-1250,2025-01-29 15:17:22,1.0
-14348,1276,2052,1884,-2233,-628,2025-01-29 15:17:22,1.0
-13920,1664,1160,1616,-2427,193,2025-01-29 15:17:22,1.0
-13352,904,32,1249,-2542,666,2025-01-29 15:17:22,1.0
-13140,-200,436,1145,-1034,1071,2025-01-29 15:17:22,1.0
-13464,-864,1360,1721,2150,1573,2025-01-29 15:17:23,1.0
-14084,-980,3088,2474,3836,1737,2025-01-29 15:17:23,1.0
-15404,-544,4448,3209,4172,1501,2025-01-29 15:17:23,1.0
-16896,292,4424,3935,2818,1205,2025-01-29 15:17:23,1.0
-18048,960,1704,4332,1603,1196,2025-01-29 15:17:23,1.0
-17804,1592,-392,4038,741,1029,2025-01-29 15:17:23,1.0
-18128,3096,-1772,3031,181,1393,2025-01-29 15:17:23,1.0
-18304,4648,-2900,904,685,2253,2025-01-29 15:17:23,1.0
-18016,5152,-4404,-1188,1491,2508,2025-01-29 15:17:23,1.0
-17364,4808,-4712,-3128,1216,2196,2025-01-29 15:17:23,1.0
-15276,3296,-3536,-4198,-879,1349,2025-01-29 15:17:23,1.0
-12960,264,-2096,-4583,-3928,-140,2025-01-29 15:17:23,1.0
-11540,-2536,-1360,-4443,-5921,-1163,2025-01-29 15:17:23,1.0
-10484,-4708,-1564,-3682,-6641,-1736,2025-01-29 15:17:23,1.0
-10268,-6284,-2444,-2568,-4955,-1958,2025-01-29 15:17:23,1.0
-11220,-5608,-2692,-676,965,-1545,2025-01-29 15:17:23,1.0
-11624,-3104,-2716,1219,7194,-1356,2025-01-29 15:17:23,1.0
-12764,-148,-2080,1660,10802,-1664,2025-01-29 15:17:23,1.0
-14060,1744,-916,900,10469,-1935,2025-01-29 15:17:23,1.0
-14760,2324,-752,-707,7509,-2515,2025-01-29 15:17:23,1.0
-15504,1436,-1120,-2561,3235,-3660,2025-01-29 15:17:23,1.0
-15508,-104,-1608,-3891,-1800,-4138,2025-01-29 15:17:23,1.0
-14728,-1616,-900,-3958,-5511,-3876,2025-01-29 15:17:23,1.0
-12364,-2492,-1172,-3566,-7211,-3394,2025-01-29 15:17:23,1.0
-11764,-2208,824,-3529,-5660,-3277,2025-01-29 15:17:23,1.0
-9804,-1948,-876,-3341,-2979,-2974,2025-01-29 15:17:23,1.0
-10076,-2000,-592,-3215,-395,-2740,2025-01-29 15:17:23,1.0
-10696,-2116,-368,-3308,1916,-2729,2025-01-29 15:17:23,1.0
-11740,-2324,384,-3326,2979,-2767,2025-01-29 15:17:23,1.0
-12756,-2500,932,-3254,2442,-2836,2025-01-29 15:17:23,1.0
-13720,-2768,1688,-2996,1390,-2623,2025-01-29 15:17:23,1.0
-14292,-2472,2008,-2421,593,-1965,2025-01-29 15:17:23,1.0
-14072,-2320,1520,-1767,499,-1155,2025-01-29 15:17:23,1.0
-14168,-1700,796,-1635,268,-336,2025-01-29 15:17:23,1.0
-13004,-1404,-548,-1932,-443,271,2025-01-29 15:17:23,1.0
-12688,-964,-272,-2270,-792,647,2025-01-29 15:17:23,1.0
-11696,-600,148,-2553,-582,926,2025-01-29 15:17:23,1.0
-13236,-2668,1116,-3266,1397,726,2025-01-29 15:17:23,1.0
-14152,-2920,1428,-3426,1171,299,2025-01-29 15:17:23,1.0
-14876,-2080,1792,-3193,147,-7,2025-01-29 15:17:23,1.0
-14704,-1420,1220,-3099,-1145,-236,2025-01-29 15:17:23,1.0
-14932,-2136,1408,-3256,-1594,-824,2025-01-29 15:17:23,1.0
-15452,-2680,2204,-3763,-1539,-1274,2025-01-29 15:17:23,1.0
-15964,-2448,3684,-4133,-1583,-1468,2025-01-29 15:17:23,1.0
-16668,-1836,4448,-3978,-1814,-1085,2025-01-29 15:17:23,1.0
-16300,-1968,1576,-3385,-1054,-1267,2025-01-29 15:17:23,1.0
-16340,-2824,-1320,-3843,-67,-2504,2025-01-29 15:17:23,1.0
-15908,-4360,340,-3901,241,-4333,2025-01-29 15:17:23,1.0
-16692,-5524,2280,-2809,-578,-5593,2025-01-29 15:17:23,1.0
-18688,-6276,2848,-677,-1985,-4975,2025-01-29 15:17:23,1.0
-19896,-5808,1608,2142,-3731,-2357,2025-01-29 15:17:23,1.0
-18808,-3732,-1172,3432,-6527,757,2025-01-29 15:17:23,1.0
-15124,-752,-3416,3610,-9984,3111,2025-01-29 15:17:23,1.0
-11232,808,-5260,2687,-10486,3916,2025-01-29 15:17:23,1.0
-7896,2300,-7600,688,-7290,2890,2025-01-29 15:17:23,1.0
-7604,3316,-8776,-1610,-1669,1058,2025-01-29 15:17:23,1.0
-10112,2332,-7320,-2691,5354,-350,2025-01-29 15:17:23,1.0
-12624,-348,-4516,-2254,10035,-295,2025-01-29 15:17:23,1.0
-14568,-2824,-448,-1200,12040,-72,2025-01-29 15:17:24,1.0
-16656,-3900,3252,290,10047,727,2025-01-29 15:17:24,1.0
-18076,-3940,4336,2029,5182,1825,2025-01-29 15:17:24,1.0
-17056,-3672,1500,4045,-1019,2608,2025-01-29 15:17:24,1.0
-16136,-3076,456,5068,-4481,3156,2025-01-29 15:17:24,1.0
-13976,-1824,476,6003,-5299,3423,2025-01-29 15:17:24,1.0
-11292,-584,-428,6556,-4200,3120,2025-01-29 15:17:24,1.0
-9892,536,-1604,6165,-2363,2584,2025-01-29 15:17:24,1.0
-9420,1236,-2216,5474,-50,2132,2025-01-29 15:17:24,1.0
-10320,1036,-1492,4894,3046,1740,2025-01-29 15:17:24,1.0
-11464,640,-320,4448,5119,1525,2025-01-29 15:17:24,1.0
-12636,104,1160,4396,5364,1303,2025-01-29 15:17:24,1.0
-13884,-392,1968,4411,3686,1206,2025-01-29 15:17:24,1.0
-13752,-436,1896,4325,710,1033,2025-01-29 15:17:24,1.0
-13016,-400,1160,4039,-1428,566,2025-01-29 15:17:24,1.0
-12160,-296,900,3828,-2104,56,2025-01-29 15:17:24,1.0
-11416,-512,772,3768,-1955,-519,2025-01-29 15:17:24,1.0
-10680,-856,744,3766,-1598,-1264,2025-01-29 15:17:24,1.0
-10720,-1136,1192,3670,-979,-1772,2025-01-29 15:17:24,1.0
-11272,-732,1620,3733,-235,-2115,2025-01-29 15:17:24,1.0
-12432,-320,1592,3815,125,-2294,2025-01-29 15:17:24,1.0
-13668,196,1712,3663,-89,-2385,2025-01-29 15:17:24,1.0
-14788,696,2244,3617,-737,-2222,2025-01-29 15:17:24,1.0
-15500,1120,2300,3653,-1638,-1664,2025-01-29 15:17:24,1.0
-15388,1072,1580,3792,-3004,-1042,2025-01-29 15:17:24,1.0
-14316,668,1572,3865,-3577,-576,2025-01-29 15:17:24,1.0
-13584,232,1932,4105,-2370,-355,2025-01-29 15:17:24,1.0
-13164,-1048,1108,4268,-691,-193,2025-01-29 15:17:24,1.0
-13296,-488,1104,4408,1253,-264,2025-01-29 15:17:24,1.0
-14260,1344,988,3901,3547,165,2025-01-29 15:17:24,1.0
-14760,2352,2036,3881,4660,368,2025-01-29 15:17:24,1.0
-15760,2464,2736,3689,4482,863,2025-01-29 15:17:24,1.0
-16032,1460,1880,3122,3767,1040,2025-01-29 15:17:24,1.0
-17572,164,336,2374,3644,1368,2025-01-29 15:17:24,1.0
-17844,680,-292,2190,4000,2259,2025-01-29 15:17:24,1.0
-17624,1784,-2468,1294,5149,2980,2025-01-29 15:17:24,1.0
-17180,2360,-4496,-682,5370,2843,2025-01-29 15:17:24,1.0
-16900,1920,-6040,-2785,4242,2077,2025-01-29 15:17:24,1.0
-16156,212,-5384,-4290,2170,1283,2025-01-29 15:17:24,1.0
-15056,-1384,-3432,-4784,-84,788,2025-01-29 15:17:24,1.0
-13588,-2880,-2504,-4241,-2211,450,2025-01-29 15:17:24,1.0
-12124,-4300,-3028,-3076,-4045,-22,2025-01-29 15:17:24,1.0
-11348,-5528,-4028,-2138,-4861,-602,2025-01-29 15:17:24,1.0
-11240,-6688,-4076,-1311,-3884,-993,2025-01-29 15:17:24,1.0
-10676,-6928,-2388,296,-204,-1624,2025-01-29 15:17:24,1.0
-10720,-4844,-1700,2348,3187,-2488,2025-01-29 15:17:24,1.0
-11624,-2688,-2380,3043,4484,-3015,2025-01-29 15:17:24,1.0
-12956,-1176,-2788,2393,4162,-2868,2025-01-29 15:17:24,1.0
-14408,-892,-3360,1187,3366,-2798,2025-01-29 15:17:24,1.0
-15212,-1128,-3804,334,3099,-2495,2025-01-29 15:17:24,1.0
-14588,-1340,-3700,-160,2474,-2063,2025-01-29 15:17:24,1.0
-13720,-1128,-2924,-499,1315,-1852,2025-01-29 15:17:24,1.0
-12576,-1104,-2416,-1115,306,-1909,2025-01-29 15:17:24,1.0
-12108,-1680,-1380,-1580,455,-2299,2025-01-29 15:17:24,1.0
-12456,-2588,-1448,-1560,1207,-2548,2025-01-29 15:17:24,1.0
-12844,-2904,-1520,-1513,1720,-2688,2025-01-29 15:17:24,1.0
-13292,-2820,-1868,-1464,1774,-2788,2025-01-29 15:17:24,1.0
-13576,-2924,-1840,-1512,1396,-2641,2025-01-29 15:17:24,1.0
-13608,-2924,-1376,-1563,811,-2124,2025-01-29 15:17:24,1.0
-12876,-2788,-1324,-1518,436,-1468,2025-01-29 15:17:24,1.0
-12396,-2692,-1636,-1553,646,-1252,2025-01-29 15:17:24,4.0
-12732,-2308,-1308,-1675,1188,-1164,2025-01-29 15:17:25,4.0
-12500,-2000,-1748,-1854,1725,-1065,2025-01-29 15:17:25,4.0
-12568,-2020,-1568,-2085,1994,-935,2025-01-29 15:17:25,4.0
-13072,-2148,-1540,-2230,2103,-840,2025-01-29 15:17:25,4.0
-13468,-2552,-1448,-2370,2004,-702,2025-01-29 15:17:25,4.0
-13456,-2636,-1648,-2551,1481,-519,2025-01-29 15:17:25,4.0
-14156,-2852,-1228,-2627,648,-252,2025-01-29 15:17:25,4.0
-14308,-2888,-1548,-2723,-48,66,2025-01-29 15:17:25,4.0
-14124,-2600,-1196,-2914,-504,331,2025-01-29 15:17:25,4.0
-13712,-2232,-836,-2937,-867,708,2025-01-29 15:17:25,4.0
-13600,-1672,-1044,-3009,-1109,1113,2025-01-29 15:17:25,4.0
-13316,-1124,-1272,-3309,-1037,1903,2025-01-29 15:17:25,4.0
-13308,-1112,-1132,-3561,-499,2526,2025-01-29 15:17:25,4.0
-14028,-1472,-2348,-4001,333,3074,2025-01-29 15:17:25,4.0
-12156,-1276,-2292,-4457,5016,2952,2025-01-29 15:17:25,4.0
-13444,-1940,-1756,-3970,4609,2686,2025-01-29 15:17:25,4.0
-14168,-2432,-2980,-3826,3351,2088,2025-01-29 15:17:25,4.0
-14732,-2492,-3076,-3524,1341,1608,2025-01-29 15:17:25,4.0
-14796,-2084,-2392,-2521,-1313,1282,2025-01-29 15:17:25,4.0
-14340,-1252,-1628,-1603,-4153,1380,2025-01-29 15:17:25,4.0
-12956,-876,-2132,-1243,-6312,1451,2025-01-29 15:17:25,4.0
-12160,-852,-2620,-1551,-6194,1251,2025-01-29 15:17:25,4.0
-10968,-692,-3260,-1973,-2461,785,2025-01-29 15:17:25,4.0
-10840,-1500,-2916,-2038,1273,356,2025-01-29 15:17:25,4.0
-10972,-2036,-2388,-1885,3074,-244,2025-01-29 15:17:25,4.0
-11972,-2120,-2844,-1550,4261,-739,2025-01-29 15:17:25,4.0
-13012,-1576,-2744,-1312,4990,-1139,2025-01-29 15:17:25,4.0
-15256,-704,-2464,-1034,3319,-1003,2025-01-29 15:17:25,4.0
-15976,88,-1388,-649,-1783,-413,2025-01-29 15:17:25,4.0
-15128,424,-3132,-609,-5238,232,2025-01-29 15:17:25,4.0
-12652,96,-3564,-1010,-5545,396,2025-01-29 15:17:25,4.0
-10812,-980,-3696,-1387,-5187,35,2025-01-29 15:17:25,4.0
-7488,-1460,-4808,-1850,-3621,-1004,2025-01-29 15:17:25,4.0
-8264,-1168,-4704,-1823,-1647,-1563,2025-01-29 15:17:25,4.0
-9004,-704,-4392,-443,819,-932,2025-01-29 15:17:25,4.0
-7584,-992,-5076,0,269,-273,2025-01-29 15:17:25,4.0
-4896,-260,-3584,-1141,-665,-485,2025-01-29 15:17:25,4.0
-3636,528,-1628,-2172,-378,-566,2025-01-29 15:17:25,4.0
-2884,836,-1052,-2489,1290,-52,2025-01-29 15:17:25,4.0
4552,684,-5396,-2368,2742,748,2025-01-29 15:17:25,4.0
-2500,88,2084,-2388,2732,329,2025-01-29 15:17:25,4.0
-4004,-144,2832,-2713,2868,-661,2025-01-29 15:17:25,4.0
-6868,-344,5040,-2685,3179,-1639,2025-01-29 15:17:25,4.0
-10212,72,6776,-2265,3420,-2292,2025-01-29 15:17:25,4.0
-12812,1260,8316,-405,2254,-2222,2025-01-29 15:17:25,4.0
-16664,2908,7120,1386,116,-1795,2025-01-29 15:17:25,4.0
-22792,3764,3116,2662,-1450,384,2025-01-29 15:17:25,4.0
-24440,1500,-2968,1710,-1719,1830,2025-01-29 15:17:25,4.0
-22452,-824,-6076,-438,-102,1290,2025-01-29 15:17:25,4.0
-23252,-1424,-8032,-2341,1625,-915,2025-01-29 15:17:25,4.0
-30184,76,-6632,-2849,3434,-2603,2025-01-29 15:17:25,4.0
-32584,80,-3256,-2239,2509,-2440,2025-01-29 15:17:25,4.0
-32768,-1604,-1372,-686,1148,-1256,2025-01-29 15:17:25,4.0
-32768,-1836,-888,-328,-1638,22,2025-01-29 15:17:25,4.0
-32768,-3624,-6024,-1147,-5871,-22,2025-01-29 15:17:25,4.0
-32768,-3696,-4376,-1704,-8581,-646,2025-01-29 15:17:25,4.0
-32768,-4788,-2288,-373,-9803,-2059,2025-01-29 15:17:25,4.0
-32768,-6268,3064,-188,-3526,-2135,2025-01-29 15:17:26,4.0
-32768,-6768,5344,2676,1544,-2043,2025-01-29 15:17:26,4.0
-32768,-5924,2060,5411,2145,-1252,2025-01-29 15:17:26,4.0
-28640,-5488,-4880,6509,-1075,-2481,2025-01-29 15:17:26,4.0
-21020,-4192,-10892,4786,-5427,-4117,2025-01-29 15:17:26,4.0
-14340,-900,-11132,1404,-7483,-4729,2025-01-29 15:17:26,4.0
-9468,2400,-5132,-169,-7048,-460,2025-01-29 15:17:26,4.0
2680,3700,-1716,-468,-4681,2537,2025-01-29 15:17:26,4.0
20252,1556,-1696,-465,-7493,3778,2025-01-29 15:17:26,4.0
22520,-1784,-7244,-727,-13037,1149,2025-01-29 15:17:26,4.0
20020,-1892,-16468,-3531,-11284,-1585,2025-01-29 15:17:26,4.0
12968,1032,-16124,-5292,-6217,-4662,2025-01-29 15:17:26,4.0
1776,4004,-8828,-3555,7873,-4998,2025-01-29 15:17:26,4.0
-2836,2664,-3136,-4017,18376,-2092,2025-01-29 15:17:26,4.0
-2664,3672,10788,-3125,21283,555,2025-01-29 15:17:26,4.0
-4684,-1928,17872,-645,11583,3383,2025-01-29 15:17:26,4.0
-2436,-5384,16524,5455,1549,5358,2025-01-29 15:17:26,4.0
-1236,-5904,7532,7693,-1460,3650,2025-01-29 15:17:26,4.0
-324,-2912,1380,5948,-3060,2145,2025-01-29 15:17:26,4.0
1736,-468,-1568,3665,-3440,994,2025-01-29 15:17:26,4.0
4288,1544,-3056,1961,-2946,-256,2025-01-29 15:17:26,4.0
4416,1648,-1032,1045,-3065,-1166,2025-01-29 15:17:26,4.0
3856,1508,-276,859,-3526,-720,2025-01-29 15:17:26,4.0
3492,292,-748,-170,-3027,110,2025-01-29 15:17:26,4.0
4176,-692,-1064,-1177,-1043,385,2025-01-29 15:17:26,4.0
4160,-1384,-464,-1520,1269,41,2025-01-29 15:17:26,4.0
4152,-1484,964,-1539,2864,-317,2025-01-29 15:17:26,4.0
3544,-1488,2892,-1225,2920,-683,2025-01-29 15:17:26,4.0
1688,-1464,4548,-357,2286,-697,2025-01-29 15:17:26,4.0
-108,-1468,4792,1096,2105,-575,2025-01-29 15:17:26,4.0
-1548,-1124,1832,1575,1199,15,2025-01-29 15:17:26,4.0
-240,-1804,-5420,754,-1155,302,2025-01-29 15:17:26,4.0
1256,-1400,-9372,-1369,-3546,-1000,2025-01-29 15:17:26,4.0
-1160,-140,-9744,-4131,-5430,-1642,2025-01-29 15:17:26,4.0
-6492,436,-8040,-5269,-4068,-830,2025-01-29 15:17:26,4.0
-14380,-484,-4828,-2193,2649,-524,2025-01-29 15:17:26,4.0
-27096,-820,-8472,381,9873,-2555,2025-01-29 15:17:26,4.0
-32768,372,-9712,-1374,19605,-6047,2025-01-29 15:17:26,4.0
-32768,-2344,12304,-2282,17236,-3177,2025-01-29 15:17:26,4.0
-32768,-9624,-3940,2847,5073,2778,2025-01-29 15:17:26,4.0
-32768,-6872,-5524,-2386,3658,238,2025-01-29 15:17:26,4.0
-32768,-2328,10300,-1106,543,820,2025-01-29 15:17:26,4.0
-32768,-1848,10124,1808,-7163,1505,2025-01-29 15:17:26,4.0
-27384,-1428,7652,2168,-11172,2455,2025-01-29 15:17:26,4.0
-23856,-2560,368,3465,-10969,3126,2025-01-29 15:17:26,4.0
-19244,-3780,-5760,2643,-6159,2745,2025-01-29 15:17:26,4.0
-20912,-2932,-5924,457,-2112,1623,2025-01-29 15:17:26,4.0
-18020,-1808,-1404,-1524,1210,583,2025-01-29 15:17:26,4.0
-17580,-1468,436,-1108,3432,-131,2025-01-29 15:17:26,4.0
-16020,-164,2116,-338,4787,-370,2025-01-29 15:17:26,4.0
-13924,856,2268,880,4341,194,2025-01-29 15:17:26,4.0
-10976,1208,1428,2183,2644,1289,2025-01-29 15:17:26,4.0
-7160,972,60,2359,592,1911,2025-01-29 15:17:26,4.0
-4288,812,-348,1563,-1984,1886,2025-01-29 15:17:26,4.0
-1504,316,-12,106,-5221,1846,2025-01-29 15:17:26,4.0
508,-352,988,-816,-7107,1278,2025-01-29 15:17:26,4.0
264,-972,540,-1389,-6703,465,2025-01-29 15:17:26,4.0
-1276,-916,-1732,-2194,-4462,-202,2025-01-29 15:17:26,4.0
-2092,-396,-1892,-2485,-1748,-864,2025-01-29 15:17:26,4.0
-4628,8,-1364,-1702,81,-1150,2025-01-29 15:17:26,4.0
-7548,412,-1112,-1050,1940,-802,2025-01-29 15:17:26,4.0
-11672,468,-1116,-1317,5080,-613,2025-01-29 15:17:26,4.0
-16844,32,-828,-1422,9018,-467,2025-01-29 15:17:26,4.0
-23456,-744,-2264,-438,12535,645,2025-01-29 15:17:26,4.0
-24632,-1184,-2824,543,12481,3026,2025-01-29 15:17:26,4.0
-21064,-968,-1880,-295,6649,2599,2025-01-29 15:17:27,4.0
-18140,-1584,580,-949,-3534,708,2025-01-29 15:17:27,4.0
-15420,-1936,-224,-1248,-10433,-71,2025-01-29 15:17:27,4.0
-11900,-1940,-2308,-2502,-12892,-1249,2025-01-29 15:17:27,4.0
-10896,-1812,-984,-2894,-11015,-2216,2025-01-29 15:17:27,4.0
-9980,-1368,932,-1895,-7821,-1864,2025-01-29 15:17:27,4.0
-9936,-656,2196,-40,-3616,-394,2025-01-29 15:17:27,4.0
-9460,-728,600,912,231,-173,2025-01-29 15:17:27,4.0
-10784,-944,968,810,4424,-628,2025-01-29 15:17:27,4.0
-13096,-1360,2268,1453,7006,-701,2025-01-29 15:17:27,4.0
-15192,-1240,2176,2034,7514,-394,2025-01-29 15:17:27,4.0
-16416,-764,1220,2086,6094,-16,2025-01-29 15:17:27,4.0
-17212,-288,784,1788,2874,362,2025-01-29 15:17:27,4.0
-16588,408,20,1484,-789,438,2025-01-29 15:17:27,4.0
-15180,104,-416,940,-3741,651,2025-01-29 15:17:27,4.0
-13540,-472,-852,577,-5133,451,2025-01-29 15:17:27,4.0
-12348,-1276,-572,99,-4686,-468,2025-01-29 15:17:27,4.0
-12416,-1280,-552,-26,-3329,-750,2025-01-29 15:17:27,4.0
-12756,-896,256,20,-1652,-701,2025-01-29 15:17:27,4.0
-13012,-776,520,71,113,-398,2025-01-29 15:17:27,4.0
-13320,-960,732,120,1163,-276,2025-01-29 15:17:27,4.0
-13808,-948,620,245,1631,-174,2025-01-29 15:17:27,4.0
-14052,-788,580,351,1696,-223,2025-01-29 15:17:27,4.0
-14428,-708,636,306,1030,-235,2025-01-29 15:17:27,4.0
-14616,-824,1012,315,227,-199,2025-01-29 15:17:27,4.0
-14404,-616,1440,430,-515,-149,2025-01-29 15:17:27,4.0
-13852,-560,980,475,-1097,-24,2025-01-29 15:17:27,4.0
-13840,-692,596,310,-1227,-48,2025-01-29 15:17:27,4.0
-13724,-608,596,160,-1113,-47,2025-01-29 15:17:27,4.0
-13492,-644,896,160,-812,-56,2025-01-29 15:17:27,4.0
-13408,-796,1132,268,-485,-37,2025-01-29 15:17:27,4.0
-13428,-988,1188,379,-177,-116,2025-01-29 15:17:27,4.0
-13696,-888,884,238,-191,-248,2025-01-29 15:17:27,4.0
-13888,-788,716,132,-303,-255,2025-01-29 15:17:27,4.0
-13956,-844,868,99,-412,-288,2025-01-29 15:17:27,4.0
-13796,-972,1088,188,-347,-281,2025-01-29 15:17:27,4.0
-13676,-804,988,239,-261,-244,2025-01-29 15:17:27,4.0
-13780,-600,964,305,-192,-162,2025-01-29 15:17:27,0.0
-13944,-660,856,395,-133,-103,2025-01-29 15:17:27,0.0
-14040,-716,1052,437,-94,-30,2025-01-29 15:17:27,1.0
-14120,-652,1020,510,-394,29,2025-01-29 15:17:27,1.0
-14288,-612,912,500,-831,91,2025-01-29 15:17:27,1.0
-13960,-716,876,564,-974,113,2025-01-29 15:17:27,1.0
-13520,-604,692,350,-806,-22,2025-01-29 15:17:27,1.0
-13604,-592,552,36,-743,-7,2025-01-29 15:17:27,1.0
-13348,-860,1008,39,-306,-142,2025-01-29 15:17:27,1.0
-13500,-780,1052,91,138,-132,2025-01-29 15:17:27,1.0
-13732,-644,836,-84,364,-232,2025-01-29 15:17:27,1.0
-13916,-476,848,-191,324,-319,2025-01-29 15:17:27,1.0
-13848,-504,840,-264,468,-291,2025-01-29 15:17:27,1.0
-13748,-712,960,-356,493,-329,2025-01-29 15:17:27,1.0
-13788,-796,1100,-335,265,-376,2025-01-29 15:17:27,1.0
-13892,-808,996,-399,97,-392,2025-01-29 15:17:27,1.0
-13984,-772,824,-486,93,-325,2025-01-29 15:17:27,1.0
-13936,-664,1048,-454,136,-256,2025-01-29 15:17:27,1.0
-13828,-452,792,-372,331,-155,2025-01-29 15:17:27,1.0
-13816,-628,888,-342,404,-119,2025-01-29 15:17:27,1.0
-13720,-948,924,-324,500,-187,2025-01-29 15:17:28,1.0
-13672,-1168,796,-366,517,-266,2025-01-29 15:17:28,1.0
-13744,-960,952,-315,615,-290,2025-01-29 15:17:28,1.0
-13932,-764,1364,-298,548,-234,2025-01-29 15:17:28,1.0
-13952,-776,1576,-225,283,-157,2025-01-29 15:17:28,1.0
-14048,-748,1320,-96,40,-42,2025-01-29 15:17:28,1.0
-13888,-912,780,88,159,-13,2025-01-29 15:17:28,1.0
-13788,-920,856,45,240,-80,2025-01-29 15:17:28,1.0
-13668,-796,900,16,239,-142,2025-01-29 15:17:28,1.0
-13712,-752,924,-58,113,-177,2025-01-29 15:17:28,1.0
-13740,-704,936,-115,-34,-194,2025-01-29 15:17:28,1.0
-13796,-780,844,-98,-18,-212,2025-01-29 15:17:28,1.0
-14008,-628,880,-65,-118,-191,2025-01-29 15:17:28,1.0
-13788,-628,832,-111,-65,-231,2025-01-29 15:17:28,1.0
-13808,-792,944,-64,-77,-266,2025-01-29 15:17:28,1.0
-13760,-828,784,14,-106,-222,2025-01-29 15:17:28,1.0
-13660,-840,968,87,94,-233,2025-01-29 15:17:28,1.0
-13520,-780,1168,246,396,-215,2025-01-29 15:17:28,1.0
-13820,-780,764,305,445,-152,2025-01-29 15:17:28,1.0
-13812,-720,784,322,473,-105,2025-01-29 15:17:28,1.0
-13988,-760,580,304,676,-40,2025-01-29 15:17:28,1.0
-13956,-852,888,290,736,-163,2025-01-29 15:17:28,1.0
-13872,-560,1088,402,564,-237,2025-01-29 15:17:28,1.0
-13728,-376,1240,506,520,-211,2025-01-29 15:17:28,1.0
-13616,-544,1384,575,358,-196,2025-01-29 15:17:28,1.0
-13764,-480,1180,631,271,-201,2025-01-29 15:17:28,1.0
-13876,-532,1208,722,-47,-153,2025-01-29 15:17:28,1.0
-14104,-460,900,648,-264,-133,2025-01-29 15:17:28,1.0
-13860,-400,704,578,-95,-109,2025-01-29 15:17:28,1.0
-13792,-172,400,585,679,98,2025-01-29 15:17:28,1.0
-13400,76,552,523,763,26,2025-01-29 15:17:28,1.0
-13696,4,528,-260,506,-462,2025-01-29 15:17:28,1.0
-13772,-552,1648,-43,171,-466,2025-01-29 15:17:28,1.0
-13752,-648,1416,365,49,-344,2025-01-29 15:17:28,1.0
-13732,-720,1192,469,116,-437,2025-01-29 15:17:28,1.0
-13856,-672,1352,604,216,-429,2025-01-29 15:17:28,1.0
-13920,-476,1356,807,272,-449,2025-01-29 15:17:28,1.0
-13840,-612,1412,1022,272,-443,2025-01-29 15:17:28,1.0
-13592,-572,1312,1125,414,-514,2025-01-29 15:17:28,1.0
-13548,-628,1360,1244,573,-535,2025-01-29 15:17:28,1.0
-13500,-760,1196,1297,675,-562,2025-01-29 15:17:28,1.0
-13648,-600,1448,1321,829,-624,2025-01-29 15:17:28,1.0
-13876,-316,1172,1362,786,-584,2025-01-29 15:17:28,1.0
-13972,-232,972,1310,660,-523,2025-01-29 15:17:28,1.0
-14112,-248,1244,1275,552,-538,2025-01-29 15:17:28,1.0
-13888,-424,1260,1301,299,-570,2025-01-29 15:17:28,1.0
-13716,-492,1216,1283,-39,-609,2025-01-29 15:17:28,1.0
-13520,-472,924,1128,-105,-702,2025-01-29 15:17:28,1.0
-13536,-152,660,1026,43,-756,2025-01-29 15:17:28,1.0
-13556,404,396,843,218,-774,2025-01-29 15:17:28,1.0
-13440,136,400,367,392,-850,2025-01-29 15:17:28,1.0
-13508,-660,1116,188,178,-850,2025-01-29 15:17:28,1.0
-13356,-964,1668,282,328,-799,2025-01-29 15:17:28,1.0
-13416,-1284,1320,210,608,-632,2025-01-29 15:17:28,1.0
-13304,-1572,1536,-54,881,-539,2025-01-29 15:17:28,1.0
-13852,-1400,1556,-181,1475,-506,2025-01-29 15:17:28,1.0
-14152,-1216,1128,-299,2372,-604,2025-01-29 15:17:28,1.0
-14564,-1496,820,-625,2951,-911,2025-01-29 15:17:28,1.0
-14948,-2124,1128,-887,2527,-1246,2025-01-29 15:17:28,1.0
-14980,-2488,1664,-1090,1770,-1633,2025-01-29 15:17:28,1.0
-15032,-1904,1780,-1326,896,-1947,2025-01-29 15:17:28,1.0
-14740,-1456,1604,-1686,-141,-2135,2025-01-29 15:17:28,1.0
-13916,-1000,1284,-2042,-674,-2285,2025-01-29 15:17:28,1.0
-13360,-840,1028,-2621,-526,-2550,2025-01-29 15:17:29,1.0
-12988,-832,900,-3057,-174,-2679,2025-01-29 15:17:29,1.0
-13008,-1224,1064,-3392,117,-2548,2025-01-29 15:17:29,1.0
-12940,-1892,1800,-3459,330,-2369,2025-01-29 15:17:29,1.0
-13028,-2808,2116,-3318,278,-2187,2025-01-29 15:17:29,1.0
-13268,-3144,2164,-3070,212,-2017,2025-01-29 15:17:29,1.0
-13332,-2888,1868,-2777,200,-1849,2025-01-29 15:17:29,1.0
-13356,-2408,1488,-2693,379,-1694,2025-01-29 15:17:29,1.0
-13460,-2020,1272,-2751,626,-1601,2025-01-29 15:17:29,1.0
-13860,-1624,1664,-2893,817,-1571,2025-01-29 15:17:29,1.0
-14000,-1368,1956,-3049,386,-1423,2025-01-29 15:17:29,1.0
-14052,-1936,1996,-2949,-198,-1053,2025-01-29 15:17:29,1.0
-13532,-2616,2172,-2778,-691,-751,2025-01-29 15:17:29,1.0
-13204,-2756,2156,-2702,-431,-719,2025-01-29 15:17:29,1.0
-12992,-2488,2244,-2526,-23,-681,2025-01-29 15:17:29,1.0
-12768,-2376,1940,-2209,154,-490,2025-01-29 15:17:29,1.0
-12740,-2312,1736,-1992,450,-328,2025-01-29 15:17:29,1.0
-12824,-2432,1496,-2099,882,-327,2025-01-29 15:17:29,1.0
-13468,-2160,1836,-2349,1119,-229,2025-01-29 15:17:29,1.0
-13880,-2164,1560,-2510,638,-141,2025-01-29 15:17:29,1.0
-13912,-1976,1884,-2695,117,-53,2025-01-29 15:17:29,1.0
-13740,-1896,2320,-2803,4,-112,2025-01-29 15:17:29,1.0
-13516,-2040,2196,-2880,-329,-200,2025-01-29 15:17:29,1.0
-13380,-2272,2356,-2943,-706,-145,2025-01-29 15:17:29,1.0
-13128,-2672,2164,-2966,-462,-68,2025-01-29 15:17:29,1.0
-12900,-2820,1996,-3183,260,-278,2025-01-29 15:17:29,1.0
-13264,-2812,2212,-3602,664,-575,2025-01-29 15:17:29,1.0
-13660,-2932,2700,-3780,577,-813,2025-01-29 15:17:29,1.0
-14296,-3308,2948,-3698,575,-752,2025-01-29 15:17:29,1.0
-14492,-3608,3068,-3587,737,-490,2025-01-29 15:17:29,1.0
-14652,-3372,3344,-3676,1373,-244,2025-01-29 15:17:29,1.0
-14788,-3224,2904,-3770,1776,-363,2025-01-29 15:17:29,1.0
-15700,-3536,476,-4355,2086,-1395,2025-01-29 15:17:29,1.0
-16888,-4224,324,-4887,2673,-2536,2025-01-29 15:17:29,1.0
-17864,-5528,2368,-3778,2484,-3157,2025-01-29 15:17:29,1.0
-18700,-6824,3152,-1587,1063,-2688,2025-01-29 15:17:29,1.0
-19284,-7268,1712,393,-1057,-1377,2025-01-29 15:17:29,1.0
-18380,-6616,748,1143,-3346,-413,2025-01-29 15:17:29,1.0
-17072,-4920,732,1550,-5501,-504,2025-01-29 15:17:29,1.0
-16328,-3492,1252,2534,-6107,1104,2025-01-29 15:17:29,1.0
-14432,-2544,-232,3163,-6208,3232,2025-01-29 15:17:29,1.0
-11748,-2396,-2288,2981,-5205,4264,2025-01-29 15:17:29,1.0
-10348,-2012,-4640,2099,-3074,3908,2025-01-29 15:17:29,1.0
-9768,-848,-4708,881,5,2962,2025-01-29 15:17:29,1.0
-10596,1000,-2828,351,2484,1862,2025-01-29 15:17:29,1.0
-12112,1484,-1668,566,3464,1301,2025-01-29 15:17:29,1.0
-14228,96,-604,1117,3335,1519,2025-01-29 15:17:29,1.0
-14460,-1600,-268,1392,2617,2012,2025-01-29 15:17:29,1.0
-14992,-2932,484,2016,1960,2701,2025-01-29 15:17:29,1.0
-14264,-3356,604,2880,963,3089,2025-01-29 15:17:29,1.0
-13396,-3044,248,3799,-111,3108,2025-01-29 15:17:29,1.0
-13320,-2308,-468,4462,-843,3151,2025-01-29 15:17:29,1.0
-12904,-1112,-1060,4598,-814,3295,2025-01-29 15:17:29,1.0
-12012,200,-772,4457,-260,3163,2025-01-29 15:17:29,1.0
-11712,1732,-864,3984,49,2849,2025-01-29 15:17:29,1.0
-11724,2296,-604,3281,425,2598,2025-01-29 15:17:29,1.0
-11896,1684,-124,2800,1225,2281,2025-01-29 15:17:29,1.0
-12404,660,412,2698,1824,2011,2025-01-29 15:17:29,1.0
-12808,-280,1012,2944,1927,1986,2025-01-29 15:17:29,1.0
-13072,-708,1200,3170,1508,1881,2025-01-29 15:17:29,1.0
-12916,-948,1632,3439,640,1568,2025-01-29 15:17:29,1.0
-12916,-656,1448,3687,-284,1297,2025-01-29 15:17:30,1.0
-12524,-212,1408,3832,-715,991,2025-01-29 15:17:30,1.0
-12008,-96,1620,3852,-760,519,2025-01-29 15:17:30,1.0
-11980,-52,1956,3903,-393,72,2025-01-29 15:17:30,1.0
-12140,116,2720,3953,-133,-311,2025-01-29 15:17:30,1.0
-12644,180,3120,4157,-500,-591,2025-01-29 15:17:30,1.0
-13012,-168,3400,4579,-1198,-976,2025-01-29 15:17:30,1.0
-13460,-312,3060,4892,-1608,-1078,2025-01-29 15:17:30,1.0
-13584,352,2252,5255,-1985,-1007,2025-01-29 15:17:30,1.0
-13392,720,1840,5600,-2208,-650,2025-01-29 15:17:30,1.0
-13304,492,1380,5978,-1808,-440,2025-01-29 15:17:30,1.0
-13468,-256,884,6150,-893,-357,2025-01-29 15:17:30,1.0
-14180,-668,912,6291,321,-75,2025-01-29 15:17:30,1.0
-14964,-156,1276,6348,1569,536,2025-01-29 15:17:30,1.0
-15348,1088,2616,6583,1723,1604,2025-01-29 15:17:30,1.0
-14924,1848,3668,7080,1207,2476,2025-01-29 15:17:30,1.0
-13932,1600,4232,7121,984,2195,2025-01-29 15:17:30,1.0
-14872,720,1484,6554,1802,1127,2025-01-29 15:17:30,1.0
-16984,524,-104,5836,4250,800,2025-01-29 15:17:30,1.0
-18412,2724,-364,5355,6204,1743,2025-01-29 15:17:30,1.0
-19072,4832,-2780,3827,6560,3306,2025-01-29 15:17:30,1.0
-18788,5732,-4960,902,5219,4300,2025-01-29 15:17:30,1.0
-17464,5620,-5232,-2541,3152,3865,2025-01-29 15:17:30,1.0
-16952,4372,-3640,-5165,1818,2462,2025-01-29 15:17:30,1.0
-15612,2468,-1964,-5915,-557,938,2025-01-29 15:17:30,1.0
-13992,-192,-1384,-5404,-3813,-619,2025-01-29 15:17:30,1.0
-11832,-2188,-1088,-4197,-6571,-2055,2025-01-29 15:17:30,1.0
-10428,-3436,-1668,-2686,-7359,-3484,2025-01-29 15:17:30,1.0
-10600,-4024,-2848,-2146,-4762,-3478,2025-01-29 15:17:30,1.0
-11396,-3920,-2480,-1415,417,-2353,2025-01-29 15:17:30,1.0
-11724,-2392,-1860,-53,4807,-1087,2025-01-29 15:17:30,1.0
-12612,-724,-1448,792,7287,-325,2025-01-29 15:17:30,1.0
-13548,748,-752,616,7840,-188,2025-01-29 15:17:30,1.0
-14504,1176,-632,-210,6840,-448,2025-01-29 15:17:30,1.0
-15152,956,-1188,-1295,4787,-1119,2025-01-29 15:17:30,1.0
-15536,208,-1356,-2425,1886,-2439,2025-01-29 15:17:30,1.0
-15348,-868,-668,-3137,-1745,-3660,2025-01-29 15:17:30,1.0
-14948,-1584,-628,-3247,-5406,-3856,2025-01-29 15:17:30,1.0
-12800,-2148,-712,-3142,-7018,-3463,2025-01-29 15:17:30,1.0
-11048,-2284,-992,-3170,-6088,-3204,2025-01-29 15:17:30,1.0
-10108,-2436,-1304,-3224,-3628,-3110,2025-01-29 15:17:30,1.0
-10124,-2260,-1276,-3255,-649,-3090,2025-01-29 15:17:30,1.0
-10580,-2336,-988,-3215,1631,-3019,2025-01-29 15:17:30,1.0
