acceleration_x,acceleration_y,acceleration_z,gyroscope_x,gyroscope_y,gyroscope_z,timestamp,label
-11656,-576,10088,-166,172,-128,2025-01-27 12:45:45,1.0
-11748,-564,9820,-135,130,-165,2025-01-27 12:45:45,1.0
-11876,-568,9888,-144,98,-193,2025-01-27 12:45:45,1.0
-11696,-492,9908,-115,66,-162,2025-01-27 12:45:45,1.0
-11692,-540,9868,-141,130,-191,2025-01-27 12:45:45,1.0
-11684,-644,9884,-110,129,-211,2025-01-27 12:45:45,1.0
-11764,-612,9876,-97,164,-219,2025-01-27 12:45:45,1.0
-11772,-572,9796,-105,106,-200,2025-01-27 12:45:45,1.0
-11856,-480,9888,-184,65,-170,2025-01-27 12:45:45,1.0
-11844,-484,9820,-163,94,-155,2025-01-27 12:45:45,1.0
-11628,-404,10148,-131,193,-176,2025-01-27 12:45:45,1.0
-11720,-468,10108,-78,234,-229,2025-01-27 12:45:45,1.0
-11720,-492,10080,-87,214,-233,2025-01-27 12:45:45,1.0
-11840,-412,9920,-70,214,-210,2025-01-27 12:45:45,1.0
-11848,-448,9764,-65,259,-159,2025-01-27 12:45:45,1.0
-11812,-376,9992,-56,262,-168,2025-01-27 12:45:45,1.0
-11620,-416,9768,22,228,-154,2025-01-27 12:45:45,1.0
-11756,-400,9920,-35,186,-135,2025-01-27 12:45:45,1.0
-11808,-420,9988,-46,152,-145,2025-01-27 12:45:45,1.0
-11644,-432,9908,-38,174,-177,2025-01-27 12:45:45,1.0
-11776,-420,9992,-54,263,-162,2025-01-27 12:45:45,1.0
-11724,-432,9984,-32,213,-146,2025-01-27 12:45:45,1.0
-11760,-484,9972,-56,135,-178,2025-01-27 12:45:45,1.0
-11916,-384,10108,-49,113,-133,2025-01-27 12:45:45,1.0
-11816,-316,10096,-45,237,-98,2025-01-27 12:45:45,1.0
-11844,-304,10332,-34,426,-84,2025-01-27 12:45:45,1.0
-11904,-172,10196,88,527,-104,2025-01-27 12:45:45,1.0
-11748,-16,10124,168,538,-88,2025-01-27 12:45:45,1.0
-11812,320,10308,378,583,-81,2025-01-27 12:45:45,1.0
-11952,632,10432,688,592,-121,2025-01-27 12:45:45,1.0
-12208,1156,10604,1099,331,59,2025-01-27 12:45:45,1.0
-12032,1396,10924,1664,85,302,2025-01-27 12:45:45,1.0
-11868,1772,10984,2138,-103,392,2025-01-27 12:45:45,1.0
-11804,2036,11316,2642,51,447,2025-01-27 12:45:45,1.0
-11852,2144,11436,3369,478,301,2025-01-27 12:45:45,1.0
-11756,2312,10700,4048,751,95,2025-01-27 12:45:45,1.0
-11748,2228,9900,4474,910,-231,2025-01-27 12:45:45,1.0
-11744,2104,9368,4706,913,-599,2025-01-27 12:45:45,1.0
-12160,1640,9344,4829,625,-822,2025-01-27 12:45:45,1.0
-12188,1196,8992,4827,328,-943,2025-01-27 12:45:45,1.0
-11560,556,9284,4755,578,-892,2025-01-27 12:45:45,1.0
-10952,220,8660,4732,432,-1089,2025-01-27 12:45:45,1.0
-10668,536,8272,4511,-69,-1346,2025-01-27 12:45:45,1.0
-10752,860,8380,4266,-706,-1543,2025-01-27 12:45:45,1.0
-10776,1264,8408,4155,-1319,-1788,2025-01-27 12:45:45,1.0
-11288,1320,8464,3913,-1852,-1994,2025-01-27 12:45:45,1.0
-11516,1168,8812,3655,-1937,-2080,2025-01-27 12:45:45,1.0
-11732,1244,8640,3401,-1874,-2088,2025-01-27 12:45:45,1.0
-11988,1472,8864,3201,-2123,-2074,2025-01-27 12:45:45,1.0
-12204,1968,8984,3068,-2226,-2022,2025-01-27 12:45:45,1.0
-12384,2428,9080,3091,-1967,-1957,2025-01-27 12:45:45,1.0
-12332,2872,9324,3269,-1557,-1906,2025-01-27 12:45:45,1.0
-12216,3220,9680,3495,-1350,-1869,2025-01-27 12:45:45,1.0
-11920,3420,9816,3868,-1257,-1837,2025-01-27 12:45:45,1.0
-11556,3468,9964,4286,-1226,-2036,2025-01-27 12:45:45,1.0
-11468,3512,10092,4734,-887,-2268,2025-01-27 12:45:45,1.0
-11408,3364,9716,5241,-359,-2474,2025-01-27 12:45:45,1.0
-11692,3240,9164,5509,-246,-2547,2025-01-27 12:45:45,1.0
-11668,2712,8840,5603,77,-2625,2025-01-27 12:45:45,1.0
-11564,2524,8192,5505,255,-2790,2025-01-27 12:45:45,1.0
-11368,2088,7724,5079,129,-2866,2025-01-27 12:45:46,1.0
-11428,1956,7900,4475,-679,-2770,2025-01-27 12:45:46,1.0
-11528,2352,8692,3748,-1838,-2753,2025-01-27 12:45:46,1.0
-12904,3044,9976,3143,-3162,-2479,2025-01-27 12:45:46,1.0
-13620,3448,10076,3025,-3917,-2165,2025-01-27 12:45:46,1.0
-13020,3748,10284,3459,-2661,-2048,2025-01-27 12:45:46,1.0
-12308,4276,10540,3939,-2323,-2011,2025-01-27 12:45:46,1.0
-10524,5216,11712,3930,-2972,-1930,2025-01-27 12:45:46,1.0
-9428,5044,13484,3000,-2094,-2076,2025-01-27 12:45:46,1.0
-9772,2652,17872,3379,-462,-2685,2025-01-27 12:45:46,1.0
-9532,456,17300,5514,251,-2596,2025-01-27 12:45:46,1.0
-9636,-3444,14072,6598,-1586,-2223,2025-01-27 12:45:46,1.0
-10292,-7900,10132,6233,-3083,-2077,2025-01-27 12:45:46,1.0
-12756,-10428,9924,3943,-3161,-1401,2025-01-27 12:45:46,1.0
-14156,-11680,12556,4158,-4268,-1237,2025-01-27 12:45:46,1.0
-13228,-10584,9972,4318,-5546,-4302,2025-01-27 12:45:46,1.0
-16032,-10380,4220,1396,-4404,-9209,2025-01-27 12:45:46,1.0
-15364,-11648,6400,-1863,1090,-11144,2025-01-27 12:45:46,1.0
-17656,-6368,4828,-5526,2690,-10860,2025-01-27 12:45:46,1.0
-16568,-36,11440,-8130,2078,-9140,2025-01-27 12:45:46,1.0
-16304,4280,15392,-4948,1847,-9026,2025-01-27 12:45:46,1.0
-15856,9316,15468,-463,3129,-9700,2025-01-27 12:45:46,1.0
-12376,10688,15740,2910,8769,-10100,2025-01-27 12:45:46,1.0
-10732,8864,14028,7341,17520,-9715,2025-01-27 12:45:46,1.0
-6828,8212,9212,12102,12125,-8472,2025-01-27 12:45:46,1.0
-2136,4532,8236,12816,7677,-8786,2025-01-27 12:45:46,1.0
-1704,948,11216,13381,3998,-9835,2025-01-27 12:45:46,1.0
-3384,-624,11808,13964,-283,-10857,2025-01-27 12:45:46,1.0
-7336,-484,10616,14178,-4814,-10742,2025-01-27 12:45:46,1.0
-11936,-100,8980,13837,-6780,-9903,2025-01-27 12:45:46,1.0
-16344,-160,8588,13234,-5542,-8879,2025-01-27 12:45:46,1.0
-18396,-1448,9180,12661,-1619,-8346,2025-01-27 12:45:46,1.0
-18772,-2764,10364,12428,4752,-7569,2025-01-27 12:45:46,1.0
-18760,-2676,10612,13188,9902,-4849,2025-01-27 12:45:46,1.0
-14816,-388,7596,13472,11288,-1962,2025-01-27 12:45:46,1.0
-9736,-876,7292,13551,10952,-727,2025-01-27 12:45:46,1.0
-6908,-1872,10452,14060,9600,-1030,2025-01-27 12:45:46,1.0
-5620,-2428,11524,14465,5319,-3519,2025-01-27 12:45:46,1.0
-8392,-1356,13932,14013,621,-6652,2025-01-27 12:45:46,1.0
-10700,1312,13384,12911,-2325,-8644,2025-01-27 12:45:46,1.0
-10676,964,11720,11840,-1596,-9523,2025-01-27 12:45:46,1.0
-10420,-1760,10616,11390,424,-9023,2025-01-27 12:45:46,1.0
-9676,-3216,11860,11278,550,-8002,2025-01-27 12:45:46,1.0
-11096,-3368,14308,11911,-1927,-6649,2025-01-27 12:45:46,1.0
-13380,-2080,13968,12472,-4982,-4799,2025-01-27 12:45:46,1.0
-15012,-344,11780,12886,-5623,-3332,2025-01-27 12:45:46,1.0
-15776,1424,10384,12325,-3768,-2686,2025-01-27 12:45:46,1.0
-15996,1772,11576,11615,-1050,-2050,2025-01-27 12:45:46,1.0
-14312,576,12460,12182,1484,-1371,2025-01-27 12:45:46,1.0
-11444,-84,9740,12631,3319,-1055,2025-01-27 12:45:46,1.0
-9404,-420,7744,12258,3378,-1025,2025-01-27 12:45:46,1.0
-8692,-36,8180,11577,1938,-886,2025-01-27 12:45:46,1.0
-7480,516,8516,11137,242,-1007,2025-01-27 12:45:46,1.0
-7884,1396,8644,10678,-1669,-1326,2025-01-27 12:45:46,1.0
-9380,1908,8636,10288,-2857,-1624,2025-01-27 12:45:46,1.0
-10848,1180,8264,9696,-2973,-1847,2025-01-27 12:45:46,1.0
-12084,-488,8308,8861,-2456,-2009,2025-01-27 12:45:46,1.0
-12704,-1820,7984,7827,-1813,-1908,2025-01-27 12:45:46,1.0
-12920,-2240,7256,6459,-982,-1641,2025-01-27 12:45:46,1.0
-12980,-1588,7156,4887,-505,-975,2025-01-27 12:45:46,1.0
-12172,-548,6864,3532,-574,-129,2025-01-27 12:45:47,1.0
-11768,672,7652,2375,-671,312,2025-01-27 12:45:47,1.0
-11060,1000,7836,1664,-590,548,2025-01-27 12:45:47,1.0
-11116,1420,7976,1173,-816,513,2025-01-27 12:45:47,1.0
-11200,1256,7572,396,-1164,486,2025-01-27 12:45:47,1.0
-11004,1128,7032,-438,-1517,586,2025-01-27 12:45:47,1.0
-11596,1492,7532,-1333,-1491,717,2025-01-27 12:45:47,1.0
-12324,2324,8092,-2038,-1862,817,2025-01-27 12:45:47,1.0
-13020,3036,8924,-2532,-2117,902,2025-01-27 12:45:47,1.0
-13152,3188,8412,-2719,-1990,1009,2025-01-27 12:45:47,1.0
-13888,3224,8804,-2715,-1432,1173,2025-01-27 12:45:47,1.0
-14376,3244,8416,-2811,-1049,1557,2025-01-27 12:45:47,1.0
-14340,3664,8196,-3067,-891,2063,2025-01-27 12:45:47,1.0
-14296,3844,8144,-3304,-430,2320,2025-01-27 12:45:47,1.0
-14968,4252,7564,-3562,-108,2632,2025-01-27 12:45:47,1.0
-15444,4460,6320,-3801,-150,3099,2025-01-27 12:45:47,1.0
-14612,4332,6832,-4266,708,3405,2025-01-27 12:45:47,1.0
-13636,4040,11852,-4416,1684,3659,2025-01-27 12:45:47,1.0
-14680,4532,16164,-3600,449,4284,2025-01-27 12:45:47,1.0
-16808,5336,18692,-1280,-1379,5866,2025-01-27 12:45:47,1.0
-15848,4724,17304,1924,-155,6983,2025-01-27 12:45:47,1.0
-10244,1076,12740,1182,6631,3516,2025-01-27 12:45:47,1.0
-9264,-2352,15392,332,13039,-1260,2025-01-27 12:45:47,1.0
-9768,-1444,14264,940,11231,-1688,2025-01-27 12:45:47,1.0
-8644,-760,14520,-1185,6537,-570,2025-01-27 12:45:47,1.0
-7828,-2032,16564,-2561,1024,405,2025-01-27 12:45:47,1.0
-6944,-3796,14924,-2507,-3669,-484,2025-01-27 12:45:47,1.0
-8956,-5272,14088,-2706,-4743,-1909,2025-01-27 12:45:47,1.0
-11544,-5228,12348,-3508,-4393,-2213,2025-01-27 12:45:47,1.0
-13280,-4136,11048,-4988,-3580,-1442,2025-01-27 12:45:47,1.0
-12884,-2832,11364,-6061,-2240,-1576,2025-01-27 12:45:47,1.0
-11424,-628,11368,-6424,24,-3138,2025-01-27 12:45:47,1.0
-11232,304,10540,-6529,1612,-3922,2025-01-27 12:45:47,1.0
-11492,424,10104,-6678,2821,-2651,2025-01-27 12:45:47,1.0
-10448,-700,9996,-6458,3197,-70,2025-01-27 12:45:47,1.0
-8376,-2084,8896,-6158,2031,1770,2025-01-27 12:45:47,1.0
-7228,-3056,8108,-6713,734,1307,2025-01-27 12:45:47,1.0
-8200,-3648,8168,-7299,-418,537,2025-01-27 12:45:47,1.0
-9900,-3644,8424,-7806,-1382,808,2025-01-27 12:45:47,1.0
-10872,-3340,8260,-8530,-2089,1811,2025-01-27 12:45:47,1.0
-10892,-2844,7576,-9084,-2240,2723,2025-01-27 12:45:47,1.0
-10828,-2104,8708,-9307,-1699,3271,2025-01-27 12:45:47,1.0
-10844,-1564,9452,-8843,-853,3711,2025-01-27 12:45:47,1.0
-10992,-1336,9684,-8025,-188,4079,2025-01-27 12:45:47,1.0
-10400,-1632,9204,-7378,28,4383,2025-01-27 12:45:47,1.0
-10416,-1880,8644,-6629,273,4506,2025-01-27 12:45:47,1.0
-10920,-1824,8984,-6094,642,4680,2025-01-27 12:45:47,1.0
-11540,-1644,8780,-5635,1311,4899,2025-01-27 12:45:47,1.0
-12868,-1756,9148,-5122,2597,5050,2025-01-27 12:45:47,1.0
-12280,-2048,7800,-4555,5031,5295,2025-01-27 12:45:47,1.0
-10960,-2972,8312,-4005,7180,5688,2025-01-27 12:45:47,1.0
-8660,-3832,9444,-3184,7601,5138,2025-01-27 12:45:47,1.0
-7204,-2944,9436,-2286,6178,3158,2025-01-27 12:45:47,1.0
-9264,-484,8904,-1590,2249,1056,2025-01-27 12:45:47,1.0
-12608,652,8232,-1030,-2511,240,2025-01-27 12:45:47,1.0
-16156,1424,8184,-616,-5591,112,2025-01-27 12:45:47,1.0
-18040,-888,7156,-762,-5268,-201,2025-01-27 12:45:47,1.0
-19872,-6244,5768,-1594,-1224,-1271,2025-01-27 12:45:47,1.0
-21756,-9304,6856,-2382,2857,-613,2025-01-27 12:45:47,1.0
-19908,-10104,9876,-3513,4183,1294,2025-01-27 12:45:47,1.0
-17808,-7132,12808,-4979,2792,3761,2025-01-27 12:45:47,1.0
-14200,-5184,15360,-5771,1525,4528,2025-01-27 12:45:48,1.0
-11648,-3188,15296,-6411,403,3763,2025-01-27 12:45:48,1.0
-10120,-3508,14804,-7864,563,2594,2025-01-27 12:45:48,1.0
-10052,-5420,13756,-10174,-1628,2599,2025-01-27 12:45:48,1.0
-9056,-6512,13812,-11803,-3116,3372,2025-01-27 12:45:48,1.0
-8776,-5032,15068,-11793,-1267,4458,2025-01-27 12:45:48,1.0
-9400,-912,14188,-10573,1057,5747,2025-01-27 12:45:48,1.0
-10236,2340,11812,-8851,2925,7616,2025-01-27 12:45:48,1.0
-10700,3052,10964,-7678,3450,9683,2025-01-27 12:45:48,1.0
-10424,804,12000,-7318,2547,11052,2025-01-27 12:45:48,1.0
-10976,-2096,12476,-7410,956,11881,2025-01-27 12:45:48,1.0
-10032,-5076,10496,-9209,-217,11693,2025-01-27 12:45:48,1.0
-9196,-6068,9748,-11666,701,11103,2025-01-27 12:45:48,1.0
-8948,-5536,8832,-13932,3392,11425,2025-01-27 12:45:48,1.0
-9152,-2832,8760,-15852,3639,12942,2025-01-27 12:45:48,1.0
-7548,-332,10380,-17023,1450,13498,2025-01-27 12:45:48,1.0
-7180,1792,10744,-16647,111,13100,2025-01-27 12:45:48,1.0
-7796,2988,10520,-15653,-534,12384,2025-01-27 12:45:48,1.0
-8556,2916,9860,-14774,-281,11572,2025-01-27 12:45:48,1.0
-10048,1244,10116,-14147,-269,10360,2025-01-27 12:45:48,1.0
-10684,960,10384,-13503,353,9710,2025-01-27 12:45:48,1.0
-10620,1368,9908,-12495,2506,8910,2025-01-27 12:45:48,1.0
-9956,2248,9840,-11875,3642,8071,2025-01-27 12:45:48,1.0
-8280,2780,9584,-11367,3435,7005,2025-01-27 12:45:48,1.0
-7684,2964,10472,-10696,2216,5693,2025-01-27 12:45:48,1.0
-6864,3076,9040,-10063,-208,4342,2025-01-27 12:45:48,1.0
-8924,2636,8516,-9477,-2351,3506,2025-01-27 12:45:48,1.0
-11144,2116,7968,-8873,-3390,3253,2025-01-27 12:45:48,1.0
-14452,1488,8468,-8821,-2695,3663,2025-01-27 12:45:48,1.0
-16780,952,8812,-8982,-1363,4220,2025-01-27 12:45:48,1.0
-17780,-196,10140,-8898,50,4861,2025-01-27 12:45:48,1.0
-17280,-736,10760,-8726,1170,5445,2025-01-27 12:45:48,1.0
-16712,-328,10048,-8779,1518,5896,2025-01-27 12:45:48,1.0
-16976,40,8424,-8861,1013,6269,2025-01-27 12:45:48,1.0
-18344,-1220,5792,-9555,847,7060,2025-01-27 12:45:48,1.0
-17784,-3140,3864,-10791,2106,7496,2025-01-27 12:45:48,1.0
-16832,-2304,8528,-12625,4363,7761,2025-01-27 12:45:48,1.0
-17360,-676,16088,-12951,5335,8543,2025-01-27 12:45:48,1.0
-17752,4000,18140,-9614,3612,9809,2025-01-27 12:45:48,1.0
-15136,8404,20824,-5940,4733,11703,2025-01-27 12:45:48,1.0
-5548,9820,21240,-3275,10504,9370,2025-01-27 12:45:48,1.0
-2452,6264,20660,-1709,13296,1530,2025-01-27 12:45:48,1.0
-3528,2632,17228,63,5866,-1954,2025-01-27 12:45:48,1.0
-5412,-548,12328,-1161,-2608,-2199,2025-01-27 12:45:48,1.0
-7092,-2732,8132,-5112,-10684,-2215,2025-01-27 12:45:48,1.0
-9548,-4548,8488,-8751,-13496,-3484,2025-01-27 12:45:48,1.0
-14156,-5012,10832,-9513,-10884,-5016,2025-01-27 12:45:48,1.0
-17084,-2380,12256,-7707,-4908,-5732,2025-01-27 12:45:48,1.0
-17176,1548,12436,-7383,965,-5335,2025-01-27 12:45:48,1.0
-12260,1632,12848,-7081,6878,-4704,2025-01-27 12:45:48,1.0
-12272,816,12208,-4747,10077,-4389,2025-01-27 12:45:48,1.0
-7648,12,9108,-4816,8623,-3604,2025-01-27 12:45:48,1.0
-5320,-944,8812,-4997,6645,-2469,2025-01-27 12:45:48,1.0
-3656,-1400,8492,-4995,3022,-1752,2025-01-27 12:45:48,1.0
-2680,-1748,8024,-5003,-739,-1970,2025-01-27 12:45:48,1.0
-4920,-2164,7888,-4749,-3792,-3516,2025-01-27 12:45:48,1.0
-9296,-2112,7736,-4278,-3933,-4906,2025-01-27 12:45:48,1.0
-14448,-1260,7752,-3769,-1931,-4540,2025-01-27 12:45:48,1.0
-16564,-1268,9136,-3210,-150,-1724,2025-01-27 12:45:48,1.0
-13716,-1300,7448,-2364,1383,1644,2025-01-27 12:45:48,1.0
-10336,-620,6588,-1657,3265,2573,2025-01-27 12:45:48,1.0
-9696,-268,6460,-774,3972,2354,2025-01-27 12:45:48,1.0
-10372,-60,6104,-269,4163,2117,2025-01-27 12:45:48,1.0
-12244,-500,7028,869,5279,2172,2025-01-27 12:45:49,1.0
-11808,-1780,8036,1435,6065,2987,2025-01-27 12:45:49,1.0
-9580,-3160,10488,1777,5871,2202,2025-01-27 12:45:49,1.0
-8540,-2696,9736,1886,4551,-310,2025-01-27 12:45:49,1.0
-10580,-700,7512,1267,278,-2504,2025-01-27 12:45:49,1.0
-12940,-552,4716,-430,-5267,-4051,2025-01-27 12:45:49,1.0
-14604,-560,4960,-1350,-5707,-6506,2025-01-27 12:45:49,1.0
-15892,-2416,8104,-1868,-1862,-8938,2025-01-27 12:45:49,1.0
-19704,-5232,14756,-714,1567,-9869,2025-01-27 12:45:49,1.0
-20252,-6268,15192,-182,4095,-6621,2025-01-27 12:45:49,1.0
-16272,-7012,14500,-3400,5245,-5084,2025-01-27 12:45:49,1.0
-13648,-5964,14444,-6760,5685,-5786,2025-01-27 12:45:49,1.0
-13852,-4136,15012,-7439,5299,-5063,2025-01-27 12:45:49,1.0
-14308,-1972,14596,-6405,4908,-1114,2025-01-27 12:45:49,1.0
-11452,-244,15112,-4507,3732,3123,2025-01-27 12:45:49,1.0
-8600,196,14812,-1210,2737,2935,2025-01-27 12:45:49,1.0
-10784,916,14180,692,-322,2175,2025-01-27 12:45:49,1.0
-13004,216,13488,1012,-2981,2649,2025-01-27 12:45:49,1.0
-14308,-1656,13288,292,-4546,3152,2025-01-27 12:45:49,1.0
-15196,-3776,12296,-524,-4596,3014,2025-01-27 12:45:49,1.0
-15904,-3588,10628,-1368,-2696,3521,2025-01-27 12:45:49,1.0
-14564,-2316,9456,-2025,736,5405,2025-01-27 12:45:49,1.0
-11836,-1004,10300,-1749,3149,7003,2025-01-27 12:45:49,1.0
-8912,56,10512,-1124,3357,7567,2025-01-27 12:45:49,1.0
-6720,540,10652,-799,1684,7392,2025-01-27 12:45:49,1.0
-4900,128,9672,-906,-588,6786,2025-01-27 12:45:49,1.0
-5148,-444,8448,-1330,-2298,6215,2025-01-27 12:45:49,1.0
-6056,-924,7180,-2108,-3735,5616,2025-01-27 12:45:49,1.0
-7936,-748,6732,-3088,-4660,5216,2025-01-27 12:45:49,1.0
-9016,-292,7116,-3741,-4566,5198,2025-01-27 12:45:49,1.0
-9516,448,7472,-3971,-2731,4813,2025-01-27 12:45:49,1.0
-9352,1076,7808,-4019,-699,3937,2025-01-27 12:45:49,1.0
-9160,1644,7812,-3935,432,2783,2025-01-27 12:45:49,1.0
-9192,1664,7388,-3675,1006,1653,2025-01-27 12:45:49,1.0
-8088,1196,7448,-3498,766,1134,2025-01-27 12:45:49,1.0
-7096,1124,7936,-3474,-162,708,2025-01-27 12:45:49,1.0
-6660,1576,8600,-3585,-2112,-17,2025-01-27 12:45:49,1.0
-7644,1936,9856,-3531,-4522,-729,2025-01-27 12:45:49,1.0
-9968,1752,10496,-3303,-6275,-892,2025-01-27 12:45:49,1.0
-12720,1228,10996,-3036,-6723,-405,2025-01-27 12:45:49,1.0
-15888,288,10988,-2572,-5526,230,2025-01-27 12:45:49,1.0
-18352,276,10128,-2077,-2915,1401,2025-01-27 12:45:49,1.0
-18080,1288,9640,-2259,-641,2408,2025-01-27 12:45:49,1.0
-17056,2024,9716,-2670,991,2596,2025-01-27 12:45:49,1.0
-15184,2220,9344,-2917,2161,2302,2025-01-27 12:45:49,1.0
-13896,1120,7268,-3376,1882,2278,2025-01-27 12:45:49,1.0
-13940,1188,6448,-4578,906,2406,2025-01-27 12:45:49,1.0
-15268,1240,12484,-5003,-570,3154,2025-01-27 12:45:49,1.0
-16440,2972,13100,-3261,-2364,3548,2025-01-27 12:45:49,1.0
-15980,4980,14600,-516,-221,3051,2025-01-27 12:45:49,1.0
-14844,6636,15776,1448,4179,2511,2025-01-27 12:45:49,1.0
-12484,5672,15704,2316,8989,1534,2025-01-27 12:45:49,1.0
-11436,1860,14420,3015,8945,503,2025-01-27 12:45:49,1.0
-9224,-1444,13156,2401,7409,347,2025-01-27 12:45:49,1.0
-8020,-3020,13384,1257,5821,411,2025-01-27 12:45:49,1.0
-6132,-4852,12744,42,3549,-107,2025-01-27 12:45:49,1.0
-6648,-5876,11324,-1179,-573,-1024,2025-01-27 12:45:49,1.0
-8804,-5092,10332,-2706,-4557,-1686,2025-01-27 12:45:49,1.0
-11104,-2864,10056,-4401,-7123,-2253,2025-01-27 12:45:49,1.0
-13768,-220,11484,-4560,-6885,-2564,2025-01-27 12:45:49,1.0
-15184,1504,12008,-2530,-2632,-3308,2025-01-27 12:45:49,1.0
-14704,1492,12052,-1099,3628,-4620,2025-01-27 12:45:50,1.0
-13680,1104,11616,-338,7793,-4807,2025-01-27 12:45:50,1.0
-11484,636,10852,290,7415,-3691,2025-01-27 12:45:50,1.0
-7508,20,9804,889,5689,-2679,2025-01-27 12:45:50,1.0
-4504,-676,8312,1458,3440,-3303,2025-01-27 12:45:50,1.0
-4516,-1828,7968,1579,879,-4386,2025-01-27 12:45:50,1.0
-6192,-2176,7496,1391,-1883,-5654,2025-01-27 12:45:50,1.0
-8912,-2532,7960,1644,-3271,-6153,2025-01-27 12:45:50,1.0
-11148,-2620,7664,1803,-3155,-5688,2025-01-27 12:45:50,1.0
-12540,-2612,7288,1669,-2265,-4517,2025-01-27 12:45:50,1.0
-13012,-2432,7656,1750,-235,-2649,2025-01-27 12:45:50,1.0
-11956,-2016,7256,2014,1912,-1125,2025-01-27 12:45:50,1.0
-10324,-1388,7160,2416,2833,-564,2025-01-27 12:45:50,1.0
-9896,-676,7056,3073,2664,-332,2025-01-27 12:45:50,1.0
-9916,-308,7016,3864,1991,-229,2025-01-27 12:45:50,1.0
-10432,-204,6748,4424,1240,-34,2025-01-27 12:45:50,1.0
-10872,-404,8124,4704,419,13,2025-01-27 12:45:50,1.0
-10456,-880,8464,4989,-329,-944,2025-01-27 12:45:50,1.0
-11196,-1636,8936,5413,-911,-2396,2025-01-27 12:45:50,1.0
-12896,-2032,9400,5507,-1520,-3668,2025-01-27 12:45:50,1.0
-14164,-2276,9268,5065,-2168,-4792,2025-01-27 12:45:50,1.0
-15484,-2564,9148,4311,-2606,-5728,2025-01-27 12:45:50,1.0
-16308,-3120,8624,4101,-2153,-6534,2025-01-27 12:45:50,1.0
-16768,-3232,7252,4314,-484,-6908,2025-01-27 12:45:50,1.0
-17120,-3468,8484,3857,937,-6717,2025-01-27 12:45:50,1.0
-17204,-2448,10556,3104,127,-7447,2025-01-27 12:45:50,1.0
-17244,-3992,11160,1944,1461,-8067,2025-01-27 12:45:50,1.0
-18320,-6608,11160,490,2544,-7773,2025-01-27 12:45:50,1.0
-19120,-8600,11136,-1034,3030,-5578,2025-01-27 12:45:50,1.0
-18264,-6656,10944,-1460,3558,-1865,2025-01-27 12:45:50,1.0
-13896,-2536,10520,-2043,4839,1202,2025-01-27 12:45:50,1.0
-10160,-1656,12888,-1614,5887,3268,2025-01-27 12:45:50,1.0
-5852,-736,15132,-579,2990,3212,2025-01-27 12:45:50,1.0
-4684,1280,15520,710,-1596,1382,2025-01-27 12:45:50,1.0
-6888,3308,14668,1262,-5794,280,2025-01-27 12:45:50,1.0
-10540,3272,13956,1691,-7965,442,2025-01-27 12:45:50,1.0
-13200,624,12800,2702,-7346,1050,2025-01-27 12:45:50,1.0
-14548,-1584,10548,3051,-5106,1605,2025-01-27 12:45:50,1.0
-15620,-2104,8908,2635,-2711,3157,2025-01-27 12:45:50,1.0
-14720,-1940,9632,2016,-1047,5331,2025-01-27 12:45:50,1.0
-10836,-1836,10396,2326,755,6649,2025-01-27 12:45:50,1.0
-7952,-1228,9292,2627,1586,6452,2025-01-27 12:45:50,1.0
-6036,-476,7848,2254,1327,5534,2025-01-27 12:45:50,1.0
-5708,-20,6804,1347,-117,4799,2025-01-27 12:45:50,1.0
-6380,756,6848,258,-2122,4663,2025-01-27 12:45:50,1.0
-6564,1192,7376,-367,-3637,4623,2025-01-27 12:45:50,1.0
-7436,1012,7968,-544,-4433,3935,2025-01-27 12:45:50,1.0
-8168,752,7792,-347,-4538,2928,2025-01-27 12:45:50,1.0
-9824,1112,6672,-326,-3288,1539,2025-01-27 12:45:50,1.0
-10456,1552,6796,-605,-1654,918,2025-01-27 12:45:50,1.0
-10552,1580,7856,-601,-241,501,2025-01-27 12:45:50,1.0
-9900,1572,8072,-495,507,-217,2025-01-27 12:45:50,1.0
-9508,1032,7816,-654,1019,-1175,2025-01-27 12:45:50,1.0
-9352,232,7944,-947,1024,-1589,2025-01-27 12:45:50,1.0
-8632,-400,8076,-1507,374,-1826,2025-01-27 12:45:50,1.0
-8880,-984,8492,-2180,-1047,-2192,2025-01-27 12:45:50,1.0
-11000,-544,8512,-3151,-3171,-2235,2025-01-27 12:45:50,1.0
-15488,188,9572,-3841,-4206,-1211,2025-01-27 12:45:50,1.0
-19044,-1020,11592,-3898,-3345,950,2025-01-27 12:45:50,1.0
-20380,-956,12244,-2642,-1567,3461,2025-01-27 12:45:50,1.0
-19684,1180,10036,-1982,731,5208,2025-01-27 12:45:50,1.0
-18764,1876,7884,-2282,2925,5763,2025-01-27 12:45:50,1.0
-16892,-628,7240,-3503,2442,4695,2025-01-27 12:45:51,1.0
-17988,-616,10840,-4924,495,4714,2025-01-27 12:45:51,1.0
-18956,2452,13204,-5586,-558,5964,2025-01-27 12:45:51,1.0
-18892,5676,15944,-3631,-964,6796,2025-01-27 12:45:51,1.0
-17268,8468,18320,524,1317,6675,2025-01-27 12:45:51,1.0
-11188,7208,15940,1587,7221,3459,2025-01-27 12:45:51,1.0
-9772,2616,16568,1515,14152,-1031,2025-01-27 12:45:51,1.0
-8816,180,14560,3638,13895,-1522,2025-01-27 12:45:51,1.0
-4732,-1224,12364,3209,11568,-859,2025-01-27 12:45:51,1.0
-2024,-2560,11744,2059,6025,-638,2025-01-27 12:45:51,1.0
-1236,-3084,11848,837,-1434,-1619,2025-01-27 12:45:51,1.0
-4972,-1092,11348,-708,-8804,-3683,2025-01-27 12:45:51,1.0
-9416,1812,11016,-1999,-14500,-5352,2025-01-27 12:45:51,1.0
-14004,3140,12448,-1486,-14860,-5541,2025-01-27 12:45:51,1.0
-15076,2008,11580,51,-10575,-6113,2025-01-27 12:45:51,1.0
-14128,424,10340,625,-1099,-7413,2025-01-27 12:45:51,1.0
-12416,-1540,11764,693,8881,-7859,2025-01-27 12:45:51,1.0
-11320,-2312,10292,2950,9618,-5868,2025-01-27 12:45:51,1.0
-7092,-1604,8656,2905,7085,-3933,2025-01-27 12:45:51,1.0
-3036,-1080,7268,1992,3869,-4006,2025-01-27 12:45:51,1.0
-3376,-540,7860,2202,112,-4872,2025-01-27 12:45:51,1.0
-5048,-828,7500,2736,-2791,-5675,2025-01-27 12:45:51,1.0
-8732,-1176,6688,2630,-3602,-6235,2025-01-27 12:45:51,1.0
-12244,-2240,5452,1940,-2312,-5650,2025-01-27 12:45:51,1.0
-14428,-3248,6360,1455,51,-3734,2025-01-27 12:45:51,1.0
-14200,-3616,7624,1702,2395,-1025,2025-01-27 12:45:51,1.0
-10796,-2036,6944,2120,3874,336,2025-01-27 12:45:51,1.0
-9100,-380,7524,2769,3793,143,2025-01-27 12:45:51,1.0
-8352,1068,8192,3541,2362,-180,2025-01-27 12:45:51,1.0
-9072,1452,8544,4512,755,-876,2025-01-27 12:45:51,1.0
-10768,-304,8576,5004,-328,-1653,2025-01-27 12:45:51,1.0
-13592,-1908,9492,4737,-1859,-2988,2025-01-27 12:45:51,1.0
-15804,-2528,10116,3554,-3001,-5126,2025-01-27 12:45:51,1.0
-18132,-2960,10904,2312,-3136,-7336,2025-01-27 12:45:51,1.0
-19360,-4136,8844,1143,-884,-8400,2025-01-27 12:45:51,1.0
-20732,-4884,7416,1182,1943,-7279,2025-01-27 12:45:51,1.0
-18524,-3884,6576,2005,3695,-4637,2025-01-27 12:45:51,1.0
-16772,-2600,8732,2504,1642,-4049,2025-01-27 12:45:51,1.0
-16208,-2204,11604,3358,801,-3942,2025-01-27 12:45:51,1.0
-15560,-5072,12068,2647,2260,-4452,2025-01-27 12:45:51,1.0
-15340,-6464,12524,-302,3587,-5829,2025-01-27 12:45:51,1.0
-16148,-6632,13936,-3106,4886,-5846,2025-01-27 12:45:51,1.0
-16736,-4644,13804,-3736,5207,-2581,2025-01-27 12:45:51,1.0
-12296,-800,11624,-4602,3724,2919,2025-01-27 12:45:51,1.0
-6696,92,15736,-3662,628,4685,2025-01-27 12:45:51,1.0
-4468,1420,18640,-469,-1669,3169,2025-01-27 12:45:51,1.0
-6192,2852,16324,1616,-4005,1201,2025-01-27 12:45:51,1.0
-10252,1380,14792,2184,-6654,1202,2025-01-27 12:45:51,1.0
-12852,-1936,12272,2610,-7818,2274,2025-01-27 12:45:51,1.0
-15668,-4016,9292,2083,-6146,3728,2025-01-27 12:45:51,1.0
-17040,-4276,7260,288,-2512,5801,2025-01-27 12:45:51,1.0
-14520,-3036,8036,-1256,1067,8097,2025-01-27 12:45:51,1.0
-10176,-1080,8672,-1470,3485,9286,2025-01-27 12:45:51,1.0
-6392,784,8788,-1137,4922,8826,2025-01-27 12:45:51,1.0
-3980,2024,9572,-1043,4907,7589,2025-01-27 12:45:51,1.0
-2632,2308,9640,-421,2183,6240,2025-01-27 12:45:51,1.0
-2572,2096,9596,-810,-1080,5076,2025-01-27 12:45:51,1.0
-4184,1652,8292,-879,-3234,3885,2025-01-27 12:45:51,1.0
-7572,1404,7840,-920,-3454,3263,2025-01-27 12:45:51,1.0
-9196,836,6800,-1041,-1728,2953,2025-01-27 12:45:52,1.0
-9416,208,7472,-1162,589,2458,2025-01-27 12:45:52,1.0
-8560,-140,7792,-1162,1995,2026,2025-01-27 12:45:52,1.0
-7540,-128,7400,-1356,1004,1579,2025-01-27 12:45:52,1.0
-6784,68,6532,-2171,-1840,1137,2025-01-27 12:45:52,1.0
-7356,-232,6768,-3518,-5156,645,2025-01-27 12:45:52,1.0
-10196,-560,5732,-4574,-9265,17,2025-01-27 12:45:52,1.0
-13284,-256,4964,-6701,-11068,-254,2025-01-27 12:45:52,1.0
-16612,-84,11808,-7716,-6855,580,2025-01-27 12:45:52,1.0
-18172,1520,15496,-5456,-3415,1825,2025-01-27 12:45:52,1.0
-18456,3708,15296,-3824,-1357,2756,2025-01-27 12:45:52,1.0
-20208,5340,14516,-2685,-149,3892,2025-01-27 12:45:52,1.0
-20768,5652,12144,-1673,1508,5024,2025-01-27 12:45:52,1.0
-19028,3008,8920,-1033,5780,5085,2025-01-27 12:45:52,1.0
-17784,212,11892,-1031,5464,4251,2025-01-27 12:45:52,1.0
-18164,644,12804,-1722,489,4163,2025-01-27 12:45:52,1.0
-17084,5296,15604,-449,219,5617,2025-01-27 12:45:52,1.0
-14060,7656,17012,2096,3820,6594,2025-01-27 12:45:52,1.0
-8408,6868,15120,3666,10530,4224,2025-01-27 12:45:52,1.0
-9472,1792,14760,4523,11055,68,2025-01-27 12:45:52,1.0
-8624,-700,14192,3757,5799,-1069,2025-01-27 12:45:52,1.0
-7032,-2328,15048,2562,1923,-1675,2025-01-27 12:45:52,1.0
-7344,-3228,13044,1750,-1078,-2433,2025-01-27 12:45:52,1.0
-7928,-3064,10256,53,-4225,-3493,2025-01-27 12:45:52,1.0
-9264,-1868,10176,-1823,-5704,-4655,2025-01-27 12:45:52,1.0
-10388,-192,12236,-2292,-5558,-5910,2025-01-27 12:45:52,1.0
-11524,1352,13580,-1102,-4354,-6538,2025-01-27 12:45:52,1.0
-12136,1720,12888,898,-1226,-6132,2025-01-27 12:45:52,1.0
-10880,716,10988,1853,2290,-5324,2025-01-27 12:45:52,1.0
-8516,-328,10188,2395,3993,-4331,2025-01-27 12:45:52,1.0
-5792,-1252,9776,2936,3630,-3319,2025-01-27 12:45:52,1.0
-4384,-1632,8728,3228,1799,-2945,2025-01-27 12:45:52,1.0
-3588,-2104,7016,2614,-1269,-4018,2025-01-27 12:45:52,1.0
-5208,-3224,7756,1820,-4243,-5234,2025-01-27 12:45:52,1.0
-7272,-4024,7300,1210,-6793,-6379,2025-01-27 12:45:52,1.0
-8860,-3972,6520,86,-4921,-8162,2025-01-27 12:45:52,1.0
-13528,-3976,6852,-1013,-631,-8166,2025-01-27 12:45:52,1.0
-18164,-4160,7380,-1800,2540,-4888,2025-01-27 12:45:52,1.0
-18040,-2532,7000,-1580,5304,115,2025-01-27 12:45:52,1.0
-11004,2428,5756,-1568,7903,2661,2025-01-27 12:45:52,1.0
-7184,4148,9728,-269,8192,2585,2025-01-27 12:45:52,1.0
-4336,4660,11020,2171,5968,1337,2025-01-27 12:45:52,1.0
-4840,356,9452,4295,2077,-787,2025-01-27 12:45:52,1.0
-10512,-2404,6784,4101,-2467,-2575,2025-01-27 12:45:52,1.0
-16696,-964,8428,2890,-5364,-3670,2025-01-27 12:45:52,1.0
-20412,1604,10380,3096,-4903,-3790,2025-01-27 12:45:52,1.0
-20576,1012,10620,4517,-1507,-3154,2025-01-27 12:45:52,1.0
-18736,-1132,6448,4722,834,-2903,2025-01-27 12:45:52,1.0
-16632,-4120,5864,3679,-626,-2791,2025-01-27 12:45:52,1.0
-16632,-2624,10084,1775,-4305,-3043,2025-01-27 12:45:52,1.0
-15716,-3008,16548,-129,-3669,-3957,2025-01-27 12:45:52,1.0
-14372,-5168,20032,-2396,-226,-6844,2025-01-27 12:45:52,1.0
-16720,-10756,20852,-3437,1477,-6739,2025-01-27 12:45:52,1.0
-14228,-9104,14676,-977,752,-367,2025-01-27 12:45:52,1.0
-7032,-4680,8912,-2023,846,3211,2025-01-27 12:45:52,1.0
-5268,-2472,11284,-3017,22,3585,2025-01-27 12:45:52,1.0
-6560,-412,15876,-1951,-2143,3473,2025-01-27 12:45:52,1.0
-8760,1484,17104,229,-4630,3412,2025-01-27 12:45:52,1.0
-11176,1580,14896,1064,-6199,3355,2025-01-27 12:45:52,1.0
-14088,-100,13048,268,-6324,3970,2025-01-27 12:45:52,1.0
-15420,-1548,12132,234,-3972,4991,2025-01-27 12:45:52,1.0
-14020,-1752,11412,140,804,6396,2025-01-27 12:45:52,1.0
-12440,-64,12124,219,5445,7806,2025-01-27 12:45:52,1.0
-8048,1324,10640,1050,7094,8614,2025-01-27 12:45:53,1.0
-4592,2308,9508,1933,6233,8261,2025-01-27 12:45:53,1.0
-1864,2048,7116,1853,3651,7000,2025-01-27 12:45:53,1.0
-1328,1064,5996,466,585,6027,2025-01-27 12:45:53,1.0
-2264,280,6396,-1990,-4742,4555,2025-01-27 12:45:53,1.0
-5876,280,7292,-3374,-8079,3646,2025-01-27 12:45:53,1.0
-9332,-80,7124,-3859,-6434,3841,2025-01-27 12:45:53,1.0
-11208,-672,7204,-4298,-2564,4046,2025-01-27 12:45:53,1.0
-11416,-680,7728,-4644,758,3460,2025-01-27 12:45:53,1.0
-11188,456,7840,-5033,3314,2491,2025-01-27 12:45:53,1.0
-11248,1320,7476,-5368,4735,1916,2025-01-27 12:45:53,1.0
-10044,1724,8276,-5796,5118,1834,2025-01-27 12:45:53,1.0
-7912,1580,10388,-5726,4357,1787,2025-01-27 12:45:53,1.0
-6860,1560,11360,-5651,1555,1517,2025-01-27 12:45:53,1.0
-8928,1432,10516,-5409,-3046,1077,2025-01-27 12:45:53,1.0
-13932,1952,10024,-4938,-6045,857,2025-01-27 12:45:53,1.0
-20728,3240,11500,-4034,-6807,2058,2025-01-27 12:45:53,1.0
-22848,4060,11228,-2472,-6103,4547,2025-01-27 12:45:53,1.0
-20684,3700,11440,-1682,-1773,5654,2025-01-27 12:45:53,1.0
-18176,2552,14016,-1539,3778,5088,2025-01-27 12:45:53,1.0
-16944,-48,16692,-1740,2858,4799,2025-01-27 12:45:53,1.0
-17496,2840,15424,-752,782,5370,2025-01-27 12:45:53,1.0
-17688,5344,17672,1244,1990,6940,2025-01-27 12:45:53,1.0
-12908,5552,18272,3262,6233,7547,2025-01-27 12:45:53,1.0
-5592,3744,16272,2479,14655,3771,2025-01-27 12:45:53,1.0
-3748,872,16396,1023,21832,-1998,2025-01-27 12:45:53,1.0
-9152,-1168,15888,4151,14271,-2617,2025-01-27 12:45:53,1.0
-4800,-2684,8172,1783,4364,-2140,2025-01-27 12:45:53,1.0
-6708,-3916,7164,-2716,-4813,-3298,2025-01-27 12:45:53,1.0
-9196,-3516,8704,-5757,-9898,-4884,2025-01-27 12:45:53,1.0
-13444,-812,11892,-6425,-11128,-6069,2025-01-27 12:45:53,1.0
-16416,2344,13668,-4609,-11289,-5663,2025-01-27 12:45:53,1.0
-14324,4852,13464,-2928,-4757,-4469,2025-01-27 12:45:53,1.0
-8456,3328,13500,-1306,7259,-4377,2025-01-27 12:45:53,1.0
-4736,1296,11924,244,17352,-5558,2025-01-27 12:45:53,1.0
-6300,-928,8472,4574,11720,-4262,2025-01-27 12:45:53,1.0
-3348,-2188,4156,3285,3972,-3463,2025-01-27 12:45:53,1.0
-796,-2868,5272,1101,383,-4144,2025-01-27 12:45:53,1.0
-2880,-2500,8940,1707,-2454,-5127,2025-01-27 12:45:53,1.0
-6336,-1628,7948,2958,-5904,-6110,2025-01-27 12:45:53,1.0
-9880,-1180,6488,2779,-6125,-6587,2025-01-27 12:45:53,1.0
-13764,-244,6104,2513,-3656,-6335,2025-01-27 12:45:53,1.0
-16076,228,6624,2456,1039,-4214,2025-01-27 12:45:53,1.0
-15128,-260,7524,3071,5158,-906,2025-01-27 12:45:53,1.0
-11144,-612,7284,3604,7060,461,2025-01-27 12:45:53,1.0
-7336,-1928,8636,3687,5808,123,2025-01-27 12:45:53,1.0
-7032,-2292,9536,3516,1319,-1394,2025-01-27 12:45:53,1.0
-9492,-1376,7916,3535,-3151,-4198,2025-01-27 12:45:53,1.0
-13676,708,6640,2982,-5922,-7408,2025-01-27 12:45:53,1.0
-17868,456,6592,2031,-4675,-10583,2025-01-27 12:45:53,1.0
-22264,-2988,9780,2045,-1805,-11212,2025-01-27 12:45:53,1.0
-22432,-6504,11740,2457,266,-9216,2025-01-27 12:45:53,1.0
-18720,-8728,13044,1698,3448,-6577,2025-01-27 12:45:53,1.0
-17256,-8592,12800,-798,2421,-6092,2025-01-27 12:45:53,1.0
-17452,-7832,11492,-5964,-309,-7098,2025-01-27 12:45:53,1.0
-19040,-6672,11176,-8531,-140,-7740,2025-01-27 12:45:53,1.0
-19180,-3984,11792,-7889,4385,-2538,2025-01-27 12:45:53,1.0
-14580,392,14188,-5740,9513,6370,2025-01-27 12:45:53,1.0
-7124,624,17216,-2097,9008,10188,2025-01-27 12:45:54,1.0
-3792,1484,17364,1044,3859,7976,2025-01-27 12:45:54,1.0
-5180,3432,14920,1835,-2552,4482,2025-01-27 12:45:54,1.0
-9004,3632,12488,945,-8750,2319,2025-01-27 12:45:54,1.0
-12644,-120,11276,637,-11535,1384,2025-01-27 12:45:54,1.0
-16332,-2556,10004,685,-9307,1736,2025-01-27 12:45:54,1.0
-17436,-2924,10504,660,-4119,4109,2025-01-27 12:45:54,1.0
-13824,-1948,11040,652,2927,6810,2025-01-27 12:45:54,1.0
-11428,-996,12116,1568,8482,7823,2025-01-27 12:45:54,1.0
-7832,620,8704,2240,7343,7640,2025-01-27 12:45:54,1.0
-4372,1536,7752,1163,4673,6623,2025-01-27 12:45:54,1.0
-2580,2132,8252,236,1918,5700,2025-01-27 12:45:54,1.0
-2592,1436,8596,-759,-2903,3819,2025-01-27 12:45:54,1.0
-4464,548,7820,-1048,-6253,2722,2025-01-27 12:45:54,1.0
-7944,400,7352,-1303,-6737,2643,2025-01-27 12:45:54,1.0
-10112,-296,6604,-1429,-3962,3003,2025-01-27 12:45:54,1.0
-10428,-660,6280,-1664,-396,3167,2025-01-27 12:45:54,1.0
-9272,-596,6740,-1791,2115,3070,2025-01-27 12:45:54,1.0
-6724,-228,6656,-2470,2290,2466,2025-01-27 12:45:54,1.0
-5192,468,6464,-3099,486,1887,2025-01-27 12:45:54,1.0
-5212,884,5588,-3925,-2187,1230,2025-01-27 12:45:54,1.0
-6876,416,5504,-5562,-5323,275,2025-01-27 12:45:54,1.0
-10632,192,6872,-7102,-7092,-305,2025-01-27 12:45:54,1.0
-15392,440,9860,-7505,-7528,66,2025-01-27 12:45:54,1.0
-20660,1304,12696,-6477,-7109,1650,2025-01-27 12:45:54,1.0
-23516,3504,11424,-4500,-6948,4292,2025-01-27 12:45:54,1.0
-22356,6080,10656,-2611,-4357,6507,2025-01-27 12:45:54,1.0
-18900,6416,10956,-1207,943,7261,2025-01-27 12:45:54,1.0
-16572,4836,15896,98,4685,5835,2025-01-27 12:45:54,1.0
-17016,1488,17724,1062,-429,4595,2025-01-27 12:45:54,1.0
-18488,4908,19032,3061,-2434,5302,2025-01-27 12:45:54,1.0
-17304,6284,20004,5611,61,7960,2025-01-27 12:45:54,1.0
-9776,4524,17772,6243,7176,7184,2025-01-27 12:45:54,1.0
-3752,1184,15396,4409,16863,696,2025-01-27 12:45:54,1.0
-4832,-1368,16436,3311,22987,-5564,2025-01-27 12:45:54,1.0
-8460,-2824,15524,3231,23903,-8156,2025-01-27 12:45:54,1.0
-9876,-3196,8768,3090,7064,-5551,2025-01-27 12:45:54,1.0
-6420,-3072,8816,-2346,-2781,-4059,2025-01-27 12:45:54,1.0
-6824,-2168,12044,-2734,-6791,-4821,2025-01-27 12:45:54,1.0
-9324,748,13408,-1647,-9042,-6633,2025-01-27 12:45:54,1.0
-13580,4248,13800,83,-9715,-8013,2025-01-27 12:45:54,1.0
-14508,4688,13072,2053,-5605,-7623,2025-01-27 12:45:54,1.0
-11564,2484,11240,2721,1367,-7598,2025-01-27 12:45:54,1.0
-9528,-116,11300,3292,9688,-7407,2025-01-27 12:45:54,1.0
-9400,-1952,9312,5346,8694,-5394,2025-01-27 12:45:54,1.0
-6088,-2648,7700,4217,5704,-3892,2025-01-27 12:45:54,1.0
-3952,-2900,7120,2934,2562,-3595,2025-01-27 12:45:54,1.0
-3736,-2696,8324,2722,-469,-4500,2025-01-27 12:45:54,1.0
-5640,-2640,7968,3004,-3007,-5224,2025-01-27 12:45:54,1.0
-8600,-2524,6292,2574,-3977,-5194,2025-01-27 12:45:54,1.0
-11956,-2180,5408,1927,-2859,-4460,2025-01-27 12:45:54,1.0
-14112,-1744,5012,1435,703,-2384,2025-01-27 12:45:54,1.0
-13956,-2016,6144,1591,4176,-8,2025-01-27 12:45:54,1.0
-10720,-1036,6360,1992,5459,1123,2025-01-27 12:45:54,1.0
-7324,672,7328,2430,4209,635,2025-01-27 12:45:54,1.0
-6604,1772,7588,3445,813,-877,2025-01-27 12:45:54,1.0
-8560,1712,7116,4843,-1917,-2403,2025-01-27 12:45:54,1.0
-12164,636,6472,5385,-4017,-3435,2025-01-27 12:45:54,1.0
-15040,-744,7288,5237,-4804,-4603,2025-01-27 12:45:54,1.0
-18144,-1884,8488,4673,-4173,-6035,2025-01-27 12:45:54,1.0
-19572,-3056,6976,4116,-1710,-6680,2025-01-27 12:45:54,1.0
-20480,-4468,6096,3388,1815,-6497,2025-01-27 12:45:54,1.0
-19316,-5672,6852,3340,3714,-5506,2025-01-27 12:45:54,1.0
-17284,-4768,10916,2779,1572,-4889,2025-01-27 12:45:54,1.0
-14548,-4248,13528,1310,257,-3679,2025-01-27 12:45:55,1.0
-11748,-5928,14780,-2773,277,-4973,2025-01-27 12:45:55,1.0
-11864,-7324,14984,-7033,-1068,-7417,2025-01-27 12:45:55,1.0
-15708,-6088,13164,-7429,100,-6101,2025-01-27 12:45:55,1.0
-15456,-1232,11388,-6292,2328,1042,2025-01-27 12:45:55,1.0
-10808,-1016,16392,-4871,3170,3962,2025-01-27 12:45:55,1.0
-9928,800,18860,-2206,2185,3472,2025-01-27 12:45:55,1.0
-11564,3600,17300,-79,-85,3369,2025-01-27 12:45:55,1.0
-12744,4280,13752,460,-2751,4187,2025-01-27 12:45:55,1.0
-13192,1732,11912,496,-4351,4458,2025-01-27 12:45:55,1.0
-13720,-1068,10488,785,-3787,4766,2025-01-27 12:45:55,1.0
-12716,-3028,10624,244,-1866,5950,2025-01-27 12:45:55,1.0
-9400,-3692,10488,48,77,6408,2025-01-27 12:45:55,1.0
-6688,-3240,9640,251,1580,6094,2025-01-27 12:45:55,1.0
-5332,-2024,8688,434,1903,5626,2025-01-27 12:45:55,1.0
-5056,-480,7084,69,1267,6478,2025-01-27 12:45:55,1.0
-4696,896,6940,-1267,-943,7484,2025-01-27 12:45:55,1.0
-3584,2060,7364,-2460,-4102,6891,2025-01-27 12:45:55,1.0
-4172,2708,7312,-3123,-6196,4831,2025-01-27 12:45:55,1.0
-7212,2480,8152,-2699,-6128,3752,2025-01-27 12:45:55,1.0
-8888,1892,7380,-2468,-4635,3200,2025-01-27 12:45:55,1.0
-9608,1224,7220,-2477,-3021,2556,2025-01-27 12:45:55,1.0
-9700,1132,7152,-2545,-1792,1878,2025-01-27 12:45:55,1.0
-9508,1008,7176,-2798,-822,1064,2025-01-27 12:45:55,1.0
-8804,1088,7572,-3134,-518,100,2025-01-27 12:45:55,1.0
-8492,1040,8052,-3558,-1518,-607,2025-01-27 12:45:55,1.0
-9700,908,8876,-4221,-3249,-757,2025-01-27 12:45:55,1.0
-11252,300,10112,-4682,-4546,-503,2025-01-27 12:45:55,1.0
-14244,-1076,11692,-4896,-5134,-154,2025-01-27 12:45:55,1.0
-19016,-1692,11800,-4299,-5554,1342,2025-01-27 12:45:55,1.0
-21788,528,11032,-4221,-3533,3537,2025-01-27 12:45:55,1.0
-20932,2668,10036,-4082,868,4973,2025-01-27 12:45:55,1.0
-19092,2284,8436,-3650,4298,4426,2025-01-27 12:45:55,1.0
-16764,120,7592,-4152,3737,2928,2025-01-27 12:45:55,1.0
-15776,972,13104,-5086,2734,4023,2025-01-27 12:45:55,1.0
-15524,3816,17316,-4456,190,5232,2025-01-27 12:45:55,1.0
-17592,7340,20980,-1482,-2251,6660,2025-01-27 12:45:55,1.0
-12764,8616,20328,2514,-1019,6787,2025-01-27 12:45:55,1.0
-7776,6216,19876,3230,7549,2426,2025-01-27 12:45:55,1.0
-7060,1056,19060,3416,17032,-2739,2025-01-27 12:45:55,1.0
-9528,-2532,14224,6380,14338,-3173,2025-01-27 12:45:55,1.0
-6064,-3540,11072,1787,6352,-2892,2025-01-27 12:45:55,1.0
-4800,-3496,13052,-312,144,-3289,2025-01-27 12:45:55,1.0
-5740,-1592,12996,-235,-6315,-4274,2025-01-27 12:45:55,1.0
-8284,1548,12268,-451,-10392,-5624,2025-01-27 12:45:55,1.0
-12132,4332,12904,116,-10003,-6535,2025-01-27 12:45:55,1.0
-14492,5020,12852,1936,-5022,-6284,2025-01-27 12:45:55,1.0
-11868,1956,11256,2946,582,-6730,2025-01-27 12:45:55,1.0
-9980,-1164,10584,3535,5015,-7385,2025-01-27 12:45:55,1.0
-8512,-2752,9892,4046,7647,-6538,2025-01-27 12:45:55,1.0
-6008,-3112,8196,3869,7754,-5074,2025-01-27 12:45:55,1.0
-4068,-2804,7584,3323,5680,-4482,2025-01-27 12:45:55,1.0
-3628,-2184,8184,2814,1671,-5283,2025-01-27 12:45:55,1.0
-6008,-1976,8740,3277,-1756,-6208,2025-01-27 12:45:55,1.0
-9504,-1800,8796,3560,-2775,-6423,2025-01-27 12:45:55,1.0
-12144,-1264,7708,3352,-1433,-5816,2025-01-27 12:45:55,1.0
-14024,-1140,7248,3015,1028,-3699,2025-01-27 12:45:55,1.0
-13660,-1604,6876,3188,3117,-760,2025-01-27 12:45:55,1.0
-10804,-420,6724,3468,4503,1249,2025-01-27 12:45:55,1.0
-8804,16,6888,4460,4514,1435,2025-01-27 12:45:55,1.0
-7716,824,6064,5740,2320,1343,2025-01-27 12:45:56,1.0
-7792,192,6364,5826,-705,1402,2025-01-27 12:45:56,1.0
-9748,-1484,8120,5913,-3151,719,2025-01-27 12:45:56,1.0
-11832,-2464,9108,5824,-4519,-968,2025-01-27 12:45:56,1.0
-14648,-1488,9652,4961,-4391,-4183,2025-01-27 12:45:56,1.0
-17748,-52,9744,3154,-3516,-7036,2025-01-27 12:45:56,1.0
-18616,-1592,9280,1016,-407,-9502,2025-01-27 12:45:56,1.0
-21068,-4112,9776,1539,3893,-9086,2025-01-27 12:45:56,1.0
-19488,-3964,7588,3346,5772,-5825,2025-01-27 12:45:56,1.0
-15212,-1068,9816,2808,2846,-4920,2025-01-27 12:45:56,1.0
-14208,-1128,15124,3146,262,-5719,2025-01-27 12:45:56,1.0
-14716,-3156,16312,1286,188,-6875,2025-01-27 12:45:56,1.0
-15752,-5448,16292,-2760,2055,-8189,2025-01-27 12:45:56,1.0
-17304,-6984,14524,-4091,4225,-7662,2025-01-27 12:45:56,1.0
-16908,-3884,9600,-3349,6398,-3973,2025-01-27 12:45:56,1.0
-12296,308,8516,-3866,6692,1543,2025-01-27 12:45:56,1.0
-8064,1484,14948,-1554,4818,3830,2025-01-27 12:45:56,1.0
-6252,3200,18080,1640,1703,3346,2025-01-27 12:45:56,1.0
-6908,5380,16744,4336,-1552,1754,2025-01-27 12:45:56,1.0
-8372,5428,12472,4669,-4134,584,2025-01-27 12:45:56,1.0
-11100,1380,12348,4143,-5291,-56,2025-01-27 12:45:56,1.0
-14220,-1932,11432,3473,-5918,614,2025-01-27 12:45:56,1.0
-15520,-4432,10264,2551,-4657,2652,2025-01-27 12:45:56,1.0
-12780,-4232,9188,2201,-1222,4284,2025-01-27 12:45:56,1.0
-8288,-3076,7836,2016,2558,4590,2025-01-27 12:45:56,1.0
-6632,-1592,8224,1825,4442,4111,2025-01-27 12:45:56,1.0
-5624,484,8616,1628,3032,4353,2025-01-27 12:45:56,1.0
-5040,1892,8868,1566,-57,4553,2025-01-27 12:45:56,1.0
-5344,3764,7216,1199,-2780,3937,2025-01-27 12:45:56,1.0
-7108,3588,7120,778,-4444,2892,2025-01-27 12:45:56,1.0
-9768,1740,7764,1080,-3264,2184,2025-01-27 12:45:56,1.0
-10588,608,7936,1253,-1085,1744,2025-01-27 12:45:56,1.0
-10496,120,6844,1291,398,1193,2025-01-27 12:45:56,1.0
-10336,-60,5904,770,1108,902,2025-01-27 12:45:56,1.0
-9780,-76,5444,-203,1130,988,2025-01-27 12:45:56,1.0
-8380,444,5956,-1268,726,1040,2025-01-27 12:45:56,1.0
-7672,216,6332,-1943,-674,698,2025-01-27 12:45:56,1.0
-9308,84,8292,-2812,-2575,390,2025-01-27 12:45:56,1.0
-10940,-320,8460,-3503,-4307,186,2025-01-27 12:45:56,1.0
-15068,-136,9808,-3891,-4403,647,2025-01-27 12:45:56,1.0
-16928,964,11244,-3737,-3229,2018,2025-01-27 12:45:56,1.0
-17944,3376,11156,-2625,-1091,3369,2025-01-27 12:45:56,1.0
-18580,5316,9264,-1525,1615,4184,2025-01-27 12:45:56,1.0
-18428,4572,7328,-1335,3260,4621,2025-01-27 12:45:56,1.0
-17380,1656,8520,-1923,4690,4372,2025-01-27 12:45:56,1.0
-16924,-1120,12540,-2351,5165,4231,2025-01-27 12:45:56,1.0
-17652,3616,13256,-1691,3372,4783,2025-01-27 12:45:56,1.0
-17076,6644,16076,446,4337,6059,2025-01-27 12:45:56,1.0
-12888,6552,16664,3205,8091,5314,2025-01-27 12:45:56,1.0
-9936,3936,15600,4312,11549,989,2025-01-27 12:45:56,1.0
-12496,1772,17040,4493,9700,-495,2025-01-27 12:45:56,1.0
-11044,-2036,14892,3966,7964,876,2025-01-27 12:45:56,1.0
-9560,-5088,11740,2301,5892,1476,2025-01-27 12:45:56,1.0
-6912,-7536,8984,17,4548,191,2025-01-27 12:45:56,1.0
-6916,-6936,10464,-2782,2479,-1790,2025-01-27 12:45:56,1.0
-9540,-4236,12124,-4951,-1026,-1569,2025-01-27 12:45:56,1.0
-10216,-1020,12088,-6341,-4387,-44,2025-01-27 12:45:56,1.0
-9836,516,12064,-6313,-6347,50,2025-01-27 12:45:56,1.0
-9976,788,11184,-5801,-7340,-860,2025-01-27 12:45:56,1.0
-10516,-168,10700,-5582,-4325,-2069,2025-01-27 12:45:56,1.0
-11712,-400,11160,-5036,-421,-2016,2025-01-27 12:45:56,1.0
-10984,-576,10652,-4339,1691,-508,2025-01-27 12:45:57,1.0
-9716,-972,9748,-3836,1706,499,2025-01-27 12:45:57,1.0
-8164,-1244,8232,-3517,697,194,2025-01-27 12:45:57,1.0
-8012,-1012,7708,-3433,-576,-248,2025-01-27 12:45:57,1.0
-8960,-564,7592,-3528,-1672,-262,2025-01-27 12:45:57,1.0
-9328,-296,7380,-3574,-2132,245,2025-01-27 12:45:57,1.0
-10276,-272,8300,-3435,-2163,644,2025-01-27 12:45:57,1.0
-10480,-644,7828,-2920,-1824,962,2025-01-27 12:45:57,1.0
-11492,-884,7388,-2694,-1256,1541,2025-01-27 12:45:57,1.0
-12360,-1536,7264,-2579,-318,2647,2025-01-27 12:45:57,1.0
-12528,-1892,7968,-2345,982,3878,2025-01-27 12:45:57,1.0
-12328,-1308,8236,-2221,2013,4783,2025-01-27 12:45:57,1.0
-12712,-720,8744,-2270,2026,5151,2025-01-27 12:45:57,1.0
-12984,-284,8400,-2146,1297,5133,2025-01-27 12:45:57,1.0
-13784,384,8016,-2029,517,3893,2025-01-27 12:45:57,1.0
-15200,1136,8348,-1908,238,2152,2025-01-27 12:45:57,1.0
-16368,1788,8292,-1689,326,1369,2025-01-27 12:45:57,7.0
-16164,1436,8184,-1454,688,1620,2025-01-27 12:45:57,7.0
-14608,-144,7964,-1131,1242,1802,2025-01-27 12:45:57,7.0
-13660,-2648,8136,-1086,1178,1782,2025-01-27 12:45:57,7.0
-14412,-2576,14016,-3318,-1668,760,2025-01-27 12:45:57,7.0
-16100,-2600,18076,-5661,-4920,-714,2025-01-27 12:45:57,7.0
-15712,-3444,17092,-8052,-5641,-3332,2025-01-27 12:45:57,7.0
-15652,-4860,14904,-8378,3744,-3603,2025-01-27 12:45:57,7.0
-18944,-4440,13572,-5484,12791,1367,2025-01-27 12:45:57,7.0
-9280,172,7028,-5956,9497,5584,2025-01-27 12:45:57,7.0
-3628,-312,14808,-6464,5276,4566,2025-01-27 12:45:57,7.0
-4008,960,16416,-4191,-289,2347,2025-01-27 12:45:57,7.0
-6200,1576,12056,-4318,-3902,1507,2025-01-27 12:45:57,7.0
-11172,-896,8988,-5738,-3996,2592,2025-01-27 12:45:57,7.0
-14796,-2456,7812,-8225,-3265,3789,2025-01-27 12:45:57,7.0
-16920,-3076,10576,-9604,-927,4869,2025-01-27 12:45:57,7.0
-15676,-1892,11804,-9785,4537,6566,2025-01-27 12:45:57,7.0
-12488,-940,11804,-10336,8224,7822,2025-01-27 12:45:57,7.0
-8792,-556,11072,-10582,9025,8078,2025-01-27 12:45:57,7.0
-5540,-408,9672,-11297,7393,7720,2025-01-27 12:45:57,7.0
-4040,-524,9392,-12298,4428,6722,2025-01-27 12:45:57,7.0
-4656,-688,9240,-13333,1206,5639,2025-01-27 12:45:57,7.0
-8540,-500,10096,-14589,-1979,5130,2025-01-27 12:45:57,7.0
-10884,-100,9568,-15323,-2598,5559,2025-01-27 12:45:57,7.0
-13284,-200,10676,-15613,-935,6164,2025-01-27 12:45:57,7.0
-13828,-640,10488,-15689,1767,6740,2025-01-27 12:45:57,7.0
-12824,-968,10172,-16091,3681,6459,2025-01-27 12:45:57,7.0
-11892,-980,10624,-16514,4210,5730,2025-01-27 12:45:57,7.0
-11544,-888,11172,-16769,3764,5287,2025-01-27 12:45:57,7.0
-10500,-800,10564,-16367,2934,4901,2025-01-27 12:45:57,7.0
-11232,-452,10472,-15882,2107,4761,2025-01-27 12:45:57,7.0
-11660,328,9620,-15446,727,4682,2025-01-27 12:45:57,7.0
-13728,1124,10316,-15248,441,4744,2025-01-27 12:45:57,7.0
-15476,1084,11408,-14780,872,5359,2025-01-27 12:45:57,7.0
-15752,404,10800,-14333,1945,5796,2025-01-27 12:45:57,7.0
-14796,-636,9196,-14440,3642,6151,2025-01-27 12:45:57,7.0
-13576,-1240,8744,-14852,5081,6289,2025-01-27 12:45:57,7.0
-11820,-1612,7836,-15407,5301,6141,2025-01-27 12:45:57,7.0
-10564,-2076,6376,-16242,4364,5788,2025-01-27 12:45:57,7.0
-9604,-2136,3496,-17528,4014,5219,2025-01-27 12:45:57,7.0
-12636,-2844,6516,-18951,3688,5336,2025-01-27 12:45:57,7.0
-13356,-4464,9832,-19667,3597,5360,2025-01-27 12:45:57,7.0
-14592,-3752,11316,-19211,2697,5816,2025-01-27 12:45:57,7.0
-13680,-1540,12068,-18635,2833,6390,2025-01-27 12:45:58,7.0
-12788,28,12992,-17413,2814,6775,2025-01-27 12:45:58,7.0
-10744,1460,13068,-16262,1628,6743,2025-01-27 12:45:58,7.0
-8756,2324,12380,-15225,-402,5903,2025-01-27 12:45:58,7.0
-8096,2640,11324,-14340,-3023,4110,2025-01-27 12:45:58,7.0
-9568,2508,11204,-13518,-5193,2434,2025-01-27 12:45:58,7.0
-11292,1476,10764,-13125,-5763,1551,2025-01-27 12:45:58,7.0
-12224,-96,11040,-13066,-5207,1493,2025-01-27 12:45:58,7.0
-12560,-2028,11320,-12821,-3781,1868,2025-01-27 12:45:58,7.0
-12364,-4608,10356,-12266,-2524,2517,2025-01-27 12:45:58,7.0
-11776,-7028,7792,-12431,-1868,2883,2025-01-27 12:45:58,7.0
-12036,-6076,7608,-13961,-2674,3080,2025-01-27 12:45:58,7.0
-12060,-4256,8452,-14818,-3297,3259,2025-01-27 12:45:58,7.0
-11612,-2444,9204,-15416,-3864,3447,2025-01-27 12:45:58,7.0
-12468,-1524,10676,-15442,-3081,3023,2025-01-27 12:45:58,7.0
-12164,-1880,9916,-15132,-1691,2630,2025-01-27 12:45:58,7.0
-12036,-2708,10128,-14720,-497,2539,2025-01-27 12:45:58,7.0
-11752,-3360,10000,-14471,-1021,3054,2025-01-27 12:45:58,7.0
-10760,-3560,9720,-14582,-2523,3678,2025-01-27 12:45:58,7.0
-9932,-3320,9216,-14794,-3352,4092,2025-01-27 12:45:58,7.0
-9632,-3312,8620,-15007,-3577,4327,2025-01-27 12:45:58,7.0
-10160,-3692,8320,-15106,-3605,4517,2025-01-27 12:45:58,7.0
-10816,-4132,7836,-15205,-3542,4677,2025-01-27 12:45:58,7.0
-11780,-4576,7684,-15080,-3368,5069,2025-01-27 12:45:58,7.0
-11780,-4832,8032,-14888,-3062,5727,2025-01-27 12:45:58,7.0
-11404,-4684,8908,-14422,-2475,6391,2025-01-27 12:45:58,7.0
-11280,-4316,8952,-13954,-2158,6974,2025-01-27 12:45:58,7.0
-10652,-4520,8848,-13540,-2391,7349,2025-01-27 12:45:58,7.0
-10204,-4764,7972,-13185,-2747,7511,2025-01-27 12:45:58,7.0
-10688,-4964,7760,-12926,-2547,7799,2025-01-27 12:45:58,7.0
-11092,-5184,8804,-12616,-1871,8209,2025-01-27 12:45:58,7.0
-11168,-4640,9532,-12151,-1849,8074,2025-01-27 12:45:58,7.0
-11388,-3680,9916,-11557,-1920,7353,2025-01-27 12:45:58,7.0
-12320,-2484,10864,-10519,-1505,6308,2025-01-27 12:45:58,7.0
-12424,-2284,10912,-9053,-473,5211,2025-01-27 12:45:58,7.0
-12636,-2840,9604,-7559,516,3772,2025-01-27 12:45:58,7.0
-12700,-3820,8692,-6818,98,2597,2025-01-27 12:45:58,7.0
-12468,-4908,8872,-6210,-892,1399,2025-01-27 12:45:58,7.0
-13264,-6068,9272,-5308,-2552,473,2025-01-27 12:45:58,7.0
-14292,-6720,8476,-4747,-4143,206,2025-01-27 12:45:58,7.0
-15580,-6580,9064,-4584,-4912,825,2025-01-27 12:45:58,7.0
-15412,-6672,10180,-4732,-4102,1601,2025-01-27 12:45:58,7.0
-14712,-8272,11596,-5042,-2558,2020,2025-01-27 12:45:58,7.0
-15052,-9856,11616,-5790,-1743,2315,2025-01-27 12:45:58,7.0
-16716,-8404,10224,-6485,-2169,4468,2025-01-27 12:45:58,7.0
-14356,-4952,8972,-7891,-1703,7187,2025-01-27 12:45:58,7.0
-10588,-3520,10312,-8440,-38,8130,2025-01-27 12:45:58,7.0
-7824,-2400,11916,-8386,1273,7716,2025-01-27 12:45:58,7.0
-6556,-584,11920,-8382,1603,7363,2025-01-27 12:45:58,7.0
-6184,596,11076,-8886,734,7425,2025-01-27 12:45:58,7.0
-7096,240,12428,-9147,-829,7706,2025-01-27 12:45:58,7.0
-8004,-968,12608,-9089,-2702,8055,2025-01-27 12:45:58,7.0
-10520,-1996,12520,-9360,-3628,8267,2025-01-27 12:45:58,7.0
-12468,-2404,12004,-9922,-3805,8654,2025-01-27 12:45:58,7.0
-13116,-2100,11060,-10297,-2511,9279,2025-01-27 12:45:58,7.0
-12396,-1208,10352,-10822,379,10368,2025-01-27 12:45:58,7.0
-11432,-408,11080,-10878,1788,11246,2025-01-27 12:45:58,7.0
-9804,32,11512,-10663,1157,11528,2025-01-27 12:45:58,7.0
-8440,288,11396,-10343,-236,11302,2025-01-27 12:45:58,7.0
-7760,492,11064,-10108,-1864,10773,2025-01-27 12:45:58,7.0
-8584,596,11104,-10004,-3192,10581,2025-01-27 12:45:58,7.0
-9316,88,10588,-9859,-3418,10347,2025-01-27 12:45:58,7.0
-10472,-644,10152,-9756,-2770,9492,2025-01-27 12:45:58,7.0
-12672,-964,9796,-9862,-1816,9193,2025-01-27 12:45:59,7.0
-13876,-712,9608,-9831,-466,9589,2025-01-27 12:45:59,7.0
-14088,-556,9020,-9858,966,10205,2025-01-27 12:45:59,7.0
-13096,-392,8596,-9927,1848,10683,2025-01-27 12:45:59,7.0
-10940,-716,8668,-10022,2901,10665,2025-01-27 12:45:59,7.0
-8816,-1140,8356,-9863,3765,9920,2025-01-27 12:45:59,7.0
-7152,-928,7964,-9817,3467,8384,2025-01-27 12:45:59,7.0
-6460,28,7772,-9915,2206,6630,2025-01-27 12:45:59,7.0
-6828,1168,7744,-10042,760,5390,2025-01-27 12:45:59,7.0
-7784,1836,7584,-10148,-1052,4604,2025-01-27 12:45:59,7.0
-9608,1908,8264,-9847,-2558,4192,2025-01-27 12:45:59,7.0
-11584,1660,9164,-9582,-3264,3783,2025-01-27 12:45:59,7.0
-13816,1276,10596,-9663,-3659,3320,2025-01-27 12:45:59,7.0
-16656,548,11928,-9568,-2937,3065,2025-01-27 12:45:59,7.0
-19084,40,11964,-8613,-1630,3457,2025-01-27 12:45:59,7.0
-19364,2136,10816,-7413,89,4316,2025-01-27 12:45:59,7.0
-18476,3556,10212,-6386,1600,4831,2025-01-27 12:45:59,7.0
-16540,2280,9404,-5704,2762,4022,2025-01-27 12:45:59,7.0
-17556,1128,13220,-5746,1952,3840,2025-01-27 12:45:59,7.0
-17564,-148,15468,-5526,1303,5356,2025-01-27 12:45:59,7.0
-16316,1880,14432,-4307,900,5373,2025-01-27 12:45:59,7.0
-14696,4900,14980,-2637,3102,5321,2025-01-27 12:45:59,7.0
-11524,6424,15696,-1544,7401,4585,2025-01-27 12:45:59,7.0
-7924,4732,14636,-979,11758,2392,2025-01-27 12:45:59,7.0
-5228,2576,14660,-79,11760,515,2025-01-27 12:45:59,7.0
-4376,1640,14372,945,7813,-419,2025-01-27 12:45:59,7.0
-4976,720,14100,573,-488,-925,2025-01-27 12:45:59,7.0
-6868,-212,12980,-620,-8275,-2432,2025-01-27 12:45:59,7.0
-10284,-164,11516,-1398,-12912,-4446,2025-01-27 12:45:59,7.0
-13752,728,12224,-789,-10002,-5304,2025-01-27 12:45:59,7.0
-15064,1340,12712,1100,-2559,-5938,2025-01-27 12:45:59,7.0
-13916,2368,12364,2235,4396,-6755,2025-01-27 12:45:59,0.0
-10748,1780,10600,2857,7192,-7047,2025-01-27 12:45:59,0.0
-7164,52,9144,3471,7580,-6995,2025-01-27 12:45:59,0.0
-4224,-1256,9108,4047,6078,-6755,2025-01-27 12:45:59,0.0
-3352,-1964,8708,3746,2541,-7017,2025-01-27 12:45:59,0.0
-3872,-2472,8712,3692,-1217,-7160,2025-01-27 12:45:59,0.0
-5984,-2456,9108,3790,-4922,-7183,2025-01-27 12:45:59,1.0
-8452,-2488,8888,4097,-5174,-7481,2025-01-27 12:45:59,1.0
-11636,-2132,8660,4101,-2833,-7941,2025-01-27 12:45:59,1.0
-14120,-1536,8096,3756,171,-6746,2025-01-27 12:45:59,1.0
-14748,-1796,8428,3464,2945,-3658,2025-01-27 12:45:59,1.0
-10972,-1596,8440,3626,4949,-770,2025-01-27 12:45:59,1.0
-7836,-1428,8556,4489,4574,-784,2025-01-27 12:45:59,1.0
-7056,-708,7684,5418,2532,-1600,2025-01-27 12:45:59,1.0
-8596,-240,7788,5846,-200,-2034,2025-01-27 12:45:59,1.0
-10676,244,7304,5924,-1816,-1818,2025-01-27 12:45:59,1.0
-13388,-168,8944,5760,-1878,-1706,2025-01-27 12:45:59,1.0
-15444,-1568,10596,5661,-388,-2477,2025-01-27 12:45:59,1.0
-17168,-3464,10224,5469,1693,-4177,2025-01-27 12:45:59,1.0
-18352,-5008,8876,3940,3126,-6274,2025-01-27 12:45:59,1.0
-18764,-6060,6972,1738,3610,-7351,2025-01-27 12:45:59,1.0
-19120,-5888,5736,1247,3503,-7064,2025-01-27 12:45:59,1.0
-19396,-3768,5164,1679,2666,-5216,2025-01-27 12:45:59,1.0
-16840,-628,4100,2847,901,-2664,2025-01-27 12:45:59,1.0
-13552,328,8620,3446,-1046,-3047,2025-01-27 12:45:59,1.0
-12780,-1072,15200,3782,-715,-4390,2025-01-27 12:45:59,1.0
-12216,-6008,16128,1425,3986,-5911,2025-01-27 12:45:59,1.0
-13260,-9520,15260,-2081,3799,-6754,2025-01-27 12:45:59,1.0
-14044,-6652,11356,-4052,1976,-4620,2025-01-27 12:45:59,1.0
-13288,-2032,10268,-6148,2367,-765,2025-01-27 12:45:59,1.0
-11388,1008,14960,-5729,3018,2383,2025-01-27 12:46:00,1.0
-9004,2012,18748,-2151,2534,3205,2025-01-27 12:46:00,1.0
-8884,3884,15924,1102,1010,2400,2025-01-27 12:46:00,1.0
-10256,3544,13080,2070,-1807,2388,2025-01-27 12:46:00,1.0
-12024,708,12232,2227,-4173,3610,2025-01-27 12:46:00,1.0
-13600,-2652,10888,1925,-5054,5146,2025-01-27 12:46:00,1.0
-14032,-3972,9036,429,-3574,6138,2025-01-27 12:46:00,1.0
-11948,-4240,9056,-776,-1069,6693,2025-01-27 12:46:00,1.0
-9516,-2656,8708,-1191,1325,6999,2025-01-27 12:46:00,1.0
-7316,-992,8432,-1181,2530,7376,2025-01-27 12:46:00,1.0
-5676,344,8432,-1158,2034,7823,2025-01-27 12:46:00,1.0
-4416,1988,7856,-1403,222,8032,2025-01-27 12:46:00,1.0
-3864,3180,7644,-2039,-3131,6982,2025-01-27 12:46:00,1.0
-4632,3160,7640,-2456,-5432,5149,2025-01-27 12:46:00,1.0
-7464,1488,7456,-2337,-6267,3825,2025-01-27 12:46:00,1.0
-9556,456,6476,-2496,-4820,3558,2025-01-27 12:46:00,1.0
-9404,-500,6712,-2931,-2158,3059,2025-01-27 12:46:00,1.0
-8580,-616,7404,-3098,-487,2091,2025-01-27 12:46:00,1.0
-7488,-76,6804,-3401,-532,966,2025-01-27 12:46:00,1.0
-7260,124,6972,-3894,-1821,-66,2025-01-27 12:46:00,1.0
-8280,84,7508,-4557,-3277,-498,2025-01-27 12:46:00,1.0
-10340,-36,8340,-5479,-4525,-634,2025-01-27 12:46:00,1.0
-13700,8,10052,-6309,-5127,-219,2025-01-27 12:46:00,1.0
-16368,-232,11532,-6621,-4768,495,2025-01-27 12:46:00,1.0
-18740,-812,12680,-5669,-2920,1403,2025-01-27 12:46:00,1.0
-19636,1644,10880,-3762,-879,2952,2025-01-27 12:46:00,1.0
-19960,4332,10284,-2774,79,4455,2025-01-27 12:46:00,1.0
-20148,5784,9488,-1758,737,5582,2025-01-27 12:46:00,1.0
-18532,4092,8864,-1217,1317,4980,2025-01-27 12:46:00,1.0
-18912,2692,13564,-1601,-218,3787,2025-01-27 12:46:00,1.0
-19232,1932,17356,-1367,-1265,4173,2025-01-27 12:46:00,1.0
-18408,5288,15844,988,1186,4845,2025-01-27 12:46:00,1.0
-14324,6316,16792,2976,7059,4494,2025-01-27 12:46:00,1.0
-7876,4916,17580,3332,14830,1842,2025-01-27 12:46:00,1.0
-6156,616,19120,5556,16957,-1426,2025-01-27 12:46:00,1.0
-4568,360,17544,6670,9825,-1026,2025-01-27 12:46:00,1.0
-2672,-844,16292,6287,2188,-815,2025-01-27 12:46:00,1.0
-2388,-1628,12516,5034,-5121,-2535,2025-01-27 12:46:00,1.0
-5416,-796,10496,2330,-10681,-5363,2025-01-27 12:46:00,1.0
-9344,-648,11044,152,-12615,-7536,2025-01-27 12:46:00,1.0
-13824,660,12712,401,-9878,-8997,2025-01-27 12:46:00,1.0
-16824,1460,13556,2471,-5260,-8979,2025-01-27 12:46:00,1.0
-14528,816,12336,3257,1475,-8087,2025-01-27 12:46:00,1.0
-12164,-1992,12624,4117,8297,-7178,2025-01-27 12:46:00,1.0
-7592,-2824,9492,4658,8864,-5517,2025-01-27 12:46:00,1.0
-4152,-3132,7036,3597,7540,-4618,2025-01-27 12:46:00,1.0
-3432,-3148,7544,2155,4227,-4604,2025-01-27 12:46:00,1.0
-3836,-3152,7988,1532,399,-5024,2025-01-27 12:46:00,1.0
-7280,-2872,8624,1498,-2432,-5406,2025-01-27 12:46:00,1.0
-9644,-2308,7572,1869,-1504,-5530,2025-01-27 12:46:00,1.0
-12228,-1404,6044,1822,789,-4776,2025-01-27 12:46:00,1.0
-13216,-752,4928,1253,2899,-2087,2025-01-27 12:46:00,1.0
-10360,-140,5712,1428,4026,1029,2025-01-27 12:46:00,1.0
-6880,960,7076,2068,2235,1441,2025-01-27 12:46:00,1.0
-6092,2112,7716,3020,-467,336,2025-01-27 12:46:00,1.0
-8324,2716,7632,4199,-3273,-1030,2025-01-27 12:46:00,1.0
-11680,1780,7404,5213,-5044,-1746,2025-01-27 12:46:00,1.0
-13812,-204,7300,5072,-4478,-2626,2025-01-27 12:46:00,1.0
-16068,-2844,8796,4003,-2369,-4181,2025-01-27 12:46:00,1.0
-17612,-4820,9828,3037,-1138,-5609,2025-01-27 12:46:00,1.0
-18800,-5080,9152,2105,-730,-6892,2025-01-27 12:46:00,1.0
-19040,-4632,7772,72,-1936,-8986,2025-01-27 12:46:01,1.0
-19572,-3432,6892,224,-1557,-9085,2025-01-27 12:46:01,1.0
-20612,-2820,8552,1076,319,-5736,2025-01-27 12:46:01,1.0
-15360,60,12172,1515,-2005,-3153,2025-01-27 12:46:01,1.0
-12024,-5144,17260,1225,-150,-4326,2025-01-27 12:46:01,1.0
-11904,-6636,16156,-2310,413,-7170,2025-01-27 12:46:01,1.0
-13400,-8372,15904,-7776,1012,-10306,2025-01-27 12:46:01,1.0
-16768,-8936,16524,-9441,1801,-8067,2025-01-27 12:46:01,1.0
-17824,-3092,15188,-7758,4793,334,2025-01-27 12:46:01,1.0
-11624,352,17488,-5056,6071,5609,2025-01-27 12:46:01,1.0
-7312,2544,18388,-1262,6103,5371,2025-01-27 12:46:01,1.0
-7108,5116,16408,1730,3949,4352,2025-01-27 12:46:01,1.0
-7704,5528,13840,2786,-175,4339,2025-01-27 12:46:01,1.0
-8600,1932,13432,2712,-5456,4035,2025-01-27 12:46:01,1.0
-10100,-2764,12852,2939,-7971,3584,2025-01-27 12:46:01,1.0
-11620,-5092,9904,2807,-7180,3488,2025-01-27 12:46:01,1.0
-10900,-5068,7404,1317,-3717,3776,2025-01-27 12:46:01,1.0
-9720,-3372,7092,171,-593,4962,2025-01-27 12:46:01,1.0
-8848,-1808,8700,409,1708,6775,2025-01-27 12:46:01,1.0
-7292,456,8880,732,2239,8355,2025-01-27 12:46:01,1.0
-5560,2012,8200,-44,486,8324,2025-01-27 12:46:01,1.0
-3960,2388,7888,-1013,-1463,6815,2025-01-27 12:46:01,1.0
-5156,1932,7992,-1387,-2649,4585,2025-01-27 12:46:01,1.0
-7868,1176,7652,-1338,-2645,3700,2025-01-27 12:46:01,1.0
-8984,460,7012,-1600,-2193,3620,2025-01-27 12:46:01,1.0
-9244,84,7740,-1931,-1454,3256,2025-01-27 12:46:01,1.0
-8812,40,8076,-2278,-756,2746,2025-01-27 12:46:01,1.0
-7852,0,7488,-3045,-833,2012,2025-01-27 12:46:01,1.0
-7904,-252,8188,-4007,-1903,1239,2025-01-27 12:46:01,1.0
-8972,-576,8696,-4890,-3215,909,2025-01-27 12:46:01,1.0
-10692,-1140,8628,-5731,-4134,1028,2025-01-27 12:46:01,1.0
-13160,-1388,8892,-6827,-4208,1248,2025-01-27 12:46:01,1.0
-16588,-1576,11184,-7485,-4260,1963,2025-01-27 12:46:01,1.0
-18680,-700,13356,-6978,-3611,3332,2025-01-27 12:46:01,1.0
-19396,2432,13148,-5504,-1189,4952,2025-01-27 12:46:01,1.0
-19824,5240,11944,-3760,1172,6124,2025-01-27 12:46:01,1.0
-20216,6104,10508,-2244,3017,7259,2025-01-27 12:46:01,1.0
-17512,4372,10416,-1562,4060,7163,2025-01-27 12:46:01,1.0
-15144,1808,16568,-1463,2990,5968,2025-01-27 12:46:01,1.0
-14924,3084,15764,-426,401,5105,2025-01-27 12:46:01,1.0
-13884,6372,15664,881,2388,5316,2025-01-27 12:46:01,1.0
-10468,7116,18164,2489,8754,4546,2025-01-27 12:46:01,1.0
-5896,4324,18440,2496,14009,1020,2025-01-27 12:46:01,1.0
-7840,-928,19564,3581,13969,-1722,2025-01-27 12:46:01,1.0
-7404,-3124,16412,3785,8590,-1955,2025-01-27 12:46:01,1.0
-7180,-4784,13348,2804,4033,-1679,2025-01-27 12:46:01,1.0
-8344,-4392,10952,626,-1049,-1903,2025-01-27 12:46:01,1.0
-8940,-3424,9436,-1476,-5310,-2300,2025-01-27 12:46:01,1.0
-9968,-1008,11016,-2702,-7822,-3735,2025-01-27 12:46:01,1.0
-11856,1828,11972,-1950,-6602,-4918,2025-01-27 12:46:01,1.0
-13000,3976,13068,289,-2246,-5445,2025-01-27 12:46:01,1.0
-11340,3708,12104,2428,1693,-5603,2025-01-27 12:46:01,1.0
-8740,2060,10988,3458,3226,-5452,2025-01-27 12:46:01,1.0
-5584,80,10232,4277,3447,-5493,2025-01-27 12:46:01,1.0
-6160,-1504,11348,4677,2562,-6728,2025-01-27 12:46:01,1.0
-4724,-2896,7768,4673,341,-7594,2025-01-27 12:46:01,1.0
-6284,-3688,6904,4011,-1984,-7366,2025-01-27 12:46:01,1.0
-8760,-3624,8300,3500,-3285,-6410,2025-01-27 12:46:01,1.0
-10444,-3140,8144,4158,-2666,-5542,2025-01-27 12:46:01,1.0
-12564,-1908,7340,4185,-874,-4367,2025-01-27 12:46:01,1.0
-13432,-1664,5892,4051,1113,-2163,2025-01-27 12:46:02,1.0
-12792,-1312,5404,3715,3423,-21,2025-01-27 12:46:02,1.0
-10104,-876,5108,3516,5048,910,2025-01-27 12:46:02,1.0
-8476,-480,6956,3839,5142,1012,2025-01-27 12:46:02,1.0
-8424,-120,8928,4434,3448,475,2025-01-27 12:46:02,1.0
-8860,-488,10312,5039,834,-655,2025-01-27 12:46:02,1.0
-11160,-524,11056,5098,-1846,-2469,2025-01-27 12:46:02,1.0
-13904,836,10736,4864,-1659,-5008,2025-01-27 12:46:02,1.0
-17428,1008,9248,4804,777,-6863,2025-01-27 12:46:02,1.0
-19676,-1540,6456,3733,3560,-7803,2025-01-27 12:46:02,1.0
-20724,-4096,5456,2912,5036,-7572,2025-01-27 12:46:02,1.0
-20824,-3912,5960,3467,5168,-6212,2025-01-27 12:46:02,1.0
-18428,-4088,6500,3950,3350,-4598,2025-01-27 12:46:02,1.0
-15428,-3308,10756,4402,232,-3611,2025-01-27 12:46:02,1.0
-11964,-6852,14516,2479,-2020,-4160,2025-01-27 12:46:02,1.0
-10000,-8180,15800,-3207,-4666,-8295,2025-01-27 12:46:02,1.0
-13424,-8608,17400,-9221,-3979,-13172,2025-01-27 12:46:02,1.0
-20296,-5692,16064,-7753,-67,-6731,2025-01-27 12:46:02,1.0
-17256,932,11564,-6354,3777,3688,2025-01-27 12:46:02,1.0
-8320,116,14508,-4175,5073,7318,2025-01-27 12:46:02,1.0
-5584,1216,18324,-593,5005,5585,2025-01-27 12:46:02,1.0
-6544,2660,16220,1934,3201,3950,2025-01-27 12:46:02,1.0
-8512,1424,12456,1191,-1422,3277,2025-01-27 12:46:02,1.0
-11320,-3248,11948,-178,-6797,3501,2025-01-27 12:46:02,1.0
-13832,-4280,9688,-1047,-7534,4039,2025-01-27 12:46:02,1.0
-15056,-3984,8720,-2044,-4265,5316,2025-01-27 12:46:02,1.0
-13008,-2352,8936,-2766,-311,7344,2025-01-27 12:46:02,1.0
-9592,-916,10136,-2310,2751,9127,2025-01-27 12:46:02,1.0
-6740,584,10448,-1252,4304,10002,2025-01-27 12:46:02,1.0
-4100,1756,9416,-1197,3014,9740,2025-01-27 12:46:02,1.0
-2924,1712,8976,-1970,304,8337,2025-01-27 12:46:02,1.0
-3440,1344,7500,-3127,-3455,6504,2025-01-27 12:46:02,1.0
-6284,264,6880,-4020,-5835,5570,2025-01-27 12:46:02,1.0
-9144,-148,6468,-4442,-4794,5861,2025-01-27 12:46:02,1.0
-9604,-744,6540,-4807,-2720,5502,2025-01-27 12:46:02,1.0
-8752,-344,7164,-4914,-1169,4357,2025-01-27 12:46:02,1.0
-7760,552,7328,-5187,-861,3288,2025-01-27 12:46:02,1.0
-6792,868,8020,-5612,-1551,2438,2025-01-27 12:46:02,1.0
-6972,428,8800,-5839,-3093,1753,2025-01-27 12:46:02,1.0
-10328,-252,8972,-6407,-5477,1071,2025-01-27 12:46:02,1.0
-13856,-456,9440,-7140,-6732,817,2025-01-27 12:46:02,1.0
-16256,-424,11188,-7093,-5665,1362,2025-01-27 12:46:02,1.0
-18552,356,13096,-6203,-3103,2398,2025-01-27 12:46:02,1.0
-20552,2584,13276,-4851,-1068,3464,2025-01-27 12:46:02,1.0
-21924,4832,13560,-2821,372,5472,2025-01-27 12:46:02,1.0
-20140,5488,11320,-1092,2635,6688,2025-01-27 12:46:02,1.0
-15920,3652,9444,-736,4889,5597,2025-01-27 12:46:02,1.0
-15304,1028,13776,-1625,3258,4229,2025-01-27 12:46:02,1.0
-16756,660,13156,-1563,-1320,4827,2025-01-27 12:46:02,1.0
-17284,4032,14480,-658,-514,5109,2025-01-27 12:46:02,1.0
-16908,5452,17268,1284,3263,5935,2025-01-27 12:46:02,1.0
-12036,5844,18044,2314,9556,5205,2025-01-27 12:46:02,1.0
-7080,3812,18116,2582,16887,1215,2025-01-27 12:46:02,1.0
-5616,224,16396,4863,12954,-1127,2025-01-27 12:46:02,1.0
-3756,-1952,14692,3341,7785,-1979,2025-01-27 12:46:02,1.0
-5952,-3672,13520,1437,393,-2059,2025-01-27 12:46:02,1.0
-7380,-3388,10724,-444,-6383,-2043,2025-01-27 12:46:02,1.0
-9916,-1784,9740,-2879,-10721,-2951,2025-01-27 12:46:02,1.0
-13688,1148,10768,-3748,-9983,-4306,2025-01-27 12:46:02,1.0
-15780,3424,12220,-1813,-4223,-4865,2025-01-27 12:46:02,1.0
-13496,4032,12656,138,3679,-5160,2025-01-27 12:46:02,1.0
-10604,2068,12176,1809,9639,-4695,2025-01-27 12:46:03,1.0
-4732,908,9508,3400,10449,-3841,2025-01-27 12:46:03,1.0
-1108,-352,9000,3962,8493,-4276,2025-01-27 12:46:03,1.0
1100,-1048,7232,4140,4426,-5179,2025-01-27 12:46:03,1.0
-724,-1720,6416,4160,-1467,-6711,2025-01-27 12:46:03,1.0
-4272,-2204,5636,3911,-6511,-7870,2025-01-27 12:46:03,1.0
-8020,-1668,5796,3138,-7493,-9521,2025-01-27 12:46:03,1.0
-13708,-1780,6812,2553,-4025,-9355,2025-01-27 12:46:03,1.0
-18592,-2640,6752,2055,-652,-5173,2025-01-27 12:46:03,1.0
-16928,-4048,6508,1884,2344,-253,2025-01-27 12:46:03,1.0
-12208,-2628,6656,1547,3029,1078,2025-01-27 12:46:03,1.0
-8988,-1244,7676,1673,1903,21,2025-01-27 12:46:03,1.0
-8096,880,7308,2338,-133,-1207,2025-01-27 12:46:03,1.0
-9536,1888,7428,3232,-1848,-2693,2025-01-27 12:46:03,1.0
-13108,1096,8088,3688,-2096,-3259,2025-01-27 12:46:03,1.0
-14620,-1108,9312,3810,-2366,-3894,2025-01-27 12:46:03,1.0
-16868,-2848,11080,3518,-2141,-5543,2025-01-27 12:46:03,1.0
-18816,-3460,11144,3139,-1077,-7296,2025-01-27 12:46:03,1.0
-20108,-3900,8740,2099,43,-8172,2025-01-27 12:46:03,1.0
-20348,-4184,6868,1341,1021,-7815,2025-01-27 12:46:03,1.0
-19316,-2932,7144,1685,2930,-5472,2025-01-27 12:46:03,1.0
-16328,1312,11160,2810,244,-4142,2025-01-27 12:46:03,1.0
-13284,-2984,14396,3225,1730,-3753,2025-01-27 12:46:03,1.0
-11560,-6876,14376,292,2874,-4443,2025-01-27 12:46:03,1.0
-11212,-8932,15652,-4703,1736,-5990,2025-01-27 12:46:03,1.0
-12428,-7960,16420,-6257,613,-5632,2025-01-27 12:46:03,1.0
-13492,-2888,14556,-5574,1069,-2214,2025-01-27 12:46:03,1.0
-12476,1120,15428,-5120,1753,1264,2025-01-27 12:46:03,1.0
-10508,2788,18112,-1710,1963,2665,2025-01-27 12:46:03,1.0
-10952,4544,16360,1336,763,2968,2025-01-27 12:46:03,1.0
-11108,3180,13884,2324,-1374,4254,2025-01-27 12:46:03,1.0
-11484,-1056,12548,2517,-4331,4953,2025-01-27 12:46:03,1.0
-12448,-3540,11176,2289,-4829,5169,2025-01-27 12:46:03,1.0
-12184,-5044,9300,1255,-3439,5579,2025-01-27 12:46:03,1.0
-10168,-4768,8312,177,-1043,5904,2025-01-27 12:46:03,1.0
-8924,-2644,7580,-250,2107,6595,2025-01-27 12:46:03,1.0
-6788,-388,7084,-146,3715,7696,2025-01-27 12:46:03,1.0
-4968,1780,7888,-63,3524,8435,2025-01-27 12:46:03,1.0
-2680,2828,7652,-899,617,8066,2025-01-27 12:46:03,1.0
-1816,3312,7816,-1687,-2710,6304,2025-01-27 12:46:03,1.0
-3828,2160,7920,-1890,-5725,4243,2025-01-27 12:46:03,1.0
-7716,1144,6828,-1809,-6184,3589,2025-01-27 12:46:03,1.0
-9944,84,6400,-2226,-4437,3463,2025-01-27 12:46:03,1.0
-9980,-240,6728,-2462,-2215,2632,2025-01-27 12:46:03,1.0
-9812,192,6928,-2480,-480,1576,2025-01-27 12:46:03,1.0
-9176,556,7376,-2924,398,649,2025-01-27 12:46:03,1.0
-8880,504,8048,-3878,-692,153,2025-01-27 12:46:03,1.0
-9944,48,8992,-4837,-2560,-29,2025-01-27 12:46:03,1.0
-11272,-712,8840,-5995,-4210,-55,2025-01-27 12:46:03,1.0
-14764,-924,10388,-6411,-4944,476,2025-01-27 12:46:03,1.0
-18284,-184,12256,-6199,-5219,1885,2025-01-27 12:46:03,1.0
-20456,2628,12928,-4956,-4507,3938,2025-01-27 12:46:03,1.0
-21108,6108,12288,-3115,-1714,5741,2025-01-27 12:46:03,1.0
-20000,7048,10856,-1555,2891,6217,2025-01-27 12:46:03,1.0
-17796,4428,10344,-908,5735,5155,2025-01-27 12:46:03,1.0
-15984,1584,12448,-1482,3491,4158,2025-01-27 12:46:03,1.0
-15760,-304,14352,-2327,1081,4400,2025-01-27 12:46:03,1.0
-15312,3288,14492,-1528,224,4240,2025-01-27 12:46:03,1.0
-15168,6036,15760,592,3387,4483,2025-01-27 12:46:03,1.0
-11348,5496,16368,1912,8912,3538,2025-01-27 12:46:03,1.0
-8476,1872,17804,2472,14154,325,2025-01-27 12:46:03,1.0
-7828,-4,17244,4285,13026,9,2025-01-27 12:46:04,1.0
-5704,-1932,15676,4310,8459,897,2025-01-27 12:46:04,1.0
-3944,-3436,13284,2929,2508,-242,2025-01-27 12:46:04,1.0
-4948,-3352,11020,915,-2812,-2260,2025-01-27 12:46:04,1.0
-8092,-2328,10016,-876,-7123,-4008,2025-01-27 12:46:04,1.0
-11116,208,10672,-2349,-9639,-5271,2025-01-27 12:46:04,1.0
-14864,3184,12600,-1843,-7672,-5694,2025-01-27 12:46:04,1.0
-15128,3884,13016,139,-2234,-5592,2025-01-27 12:46:04,1.0
-11844,1536,11280,1319,4261,-6195,2025-01-27 12:46:04,1.0
-8948,-1216,10484,2502,7923,-5785,2025-01-27 12:46:04,1.0
-5896,-1872,8304,3158,8917,-4669,2025-01-27 12:46:04,1.0
-4024,-1868,7808,3068,7299,-4033,2025-01-27 12:46:04,1.0
-1980,-2408,6980,2673,3176,-4250,2025-01-27 12:46:04,1.0
-2648,-2408,6848,2530,-1821,-5537,2025-01-27 12:46:04,1.0
-5312,-1688,7020,2704,-4744,-6972,2025-01-27 12:46:04,1.0
-8724,-1152,5884,2492,-5664,-7687,2025-01-27 12:46:04,1.0
-11944,-512,5360,1514,-4608,-7168,2025-01-27 12:46:04,1.0
-14616,-1172,7572,1385,-780,-4635,2025-01-27 12:46:04,1.0
-13808,-1516,8400,2346,1833,-457,2025-01-27 12:46:04,1.0
-10088,84,7220,2948,2214,832,2025-01-27 12:46:04,1.0
-9376,880,6984,3940,1956,1,2025-01-27 12:46:04,1.0
-10624,728,7208,4798,1314,-463,2025-01-27 12:46:04,1.0
-12136,-1160,8644,5322,812,-779,2025-01-27 12:46:04,1.0
-13304,-2716,9412,5227,-481,-1852,2025-01-27 12:46:04,1.0
-16172,-3204,9676,4488,-1410,-4219,2025-01-27 12:46:04,1.0
-18644,-1812,7580,3582,-1951,-5439,2025-01-27 12:46:04,1.0
-18840,-1992,5576,1400,-1805,-7262,2025-01-27 12:46:04,1.0
-19580,-3628,6468,83,-232,-9067,2025-01-27 12:46:04,1.0
-19484,-5636,10128,-392,674,-9164,2025-01-27 12:46:04,1.0
-19612,-4436,11500,577,700,-7179,2025-01-27 12:46:04,1.0
-18256,-5612,12016,305,2503,-4689,2025-01-27 12:46:04,1.0
-16300,-5860,13508,-2258,3361,-3598,2025-01-27 12:46:04,1.0
-14980,-4052,16344,-5498,4623,-4442,2025-01-27 12:46:04,1.0
-14556,-1704,16980,-5111,5721,-2177,2025-01-27 12:46:04,1.0
-10184,52,15944,-4527,4821,1475,2025-01-27 12:46:04,1.0
-5540,-936,16836,-2277,2516,2303,2025-01-27 12:46:04,1.0
-5232,492,15340,-464,-515,1274,2025-01-27 12:46:04,1.0
-8104,1780,13720,158,-3489,1021,2025-01-27 12:46:04,1.0
-10744,608,12796,419,-5103,2268,2025-01-27 12:46:04,1.0
-12720,-1520,12032,672,-5361,3664,2025-01-27 12:46:04,1.0
-14260,-2740,10456,505,-4065,4508,2025-01-27 12:46:04,1.0
-15448,-2364,9320,-423,-2419,5657,2025-01-27 12:46:04,1.0
-12936,-1400,9308,-994,996,7565,2025-01-27 12:46:04,1.0
-8668,-712,9116,-267,4584,8416,2025-01-27 12:46:04,1.0
-5332,808,7376,653,5384,7943,2025-01-27 12:46:04,1.0
-3096,1492,6576,360,2986,6941,2025-01-27 12:46:04,1.0
-3524,1460,6840,-501,-896,5914,2025-01-27 12:46:04,1.0
-4628,1316,6640,-1797,-4283,4875,2025-01-27 12:46:04,1.0
-7440,-52,6988,-2137,-5803,4105,2025-01-27 12:46:04,1.0
-10120,-564,5556,-2422,-4462,3933,2025-01-27 12:46:04,1.0
-10684,-832,5560,-3167,-1950,3672,2025-01-27 12:46:04,1.0
-9544,-196,6248,-3386,7,3340,2025-01-27 12:46:04,1.0
-7964,248,6544,-3446,734,2685,2025-01-27 12:46:04,1.0
-6980,324,6372,-4017,-183,1670,2025-01-27 12:46:04,1.0
-7568,92,6980,-4888,-2240,985,2025-01-27 12:46:04,1.0
-10024,-100,7640,-5609,-4194,885,2025-01-27 12:46:04,1.0
-12220,-60,8252,-6126,-4696,904,2025-01-27 12:46:04,1.0
-14488,-44,9944,-6059,-3762,1061,2025-01-27 12:46:04,1.0
-16712,764,11460,-5250,-2289,1748,2025-01-27 12:46:04,1.0
-18804,4264,11684,-3901,-1291,3341,2025-01-27 12:46:05,1.0
-20276,6864,12276,-2379,-1369,4849,2025-01-27 12:46:05,1.0
-20356,7620,10796,-592,740,5932,2025-01-27 12:46:05,1.0
-17660,4580,8300,374,4812,5168,2025-01-27 12:46:05,1.0
-17748,1892,12636,174,2441,4073,2025-01-27 12:46:05,1.0
-19108,-712,13320,-74,-1390,4888,2025-01-27 12:46:05,1.0
-19548,3880,12708,1326,-1602,6254,2025-01-27 12:46:05,1.0
-15992,5824,16016,3355,1266,6584,2025-01-27 12:46:05,1.0
-9540,4852,17768,2887,8427,3008,2025-01-27 12:46:05,1.0
-7212,2164,20900,2952,17052,-2362,2025-01-27 12:46:05,1.0
-8768,484,20016,4227,20404,-3214,2025-01-27 12:46:05,1.0
-8508,-1264,12560,5090,8748,-30,2025-01-27 12:46:05,1.0
-4364,-3480,9744,1266,669,-37,2025-01-27 12:46:05,1.0
-4620,-3852,9824,-1095,-5467,-2286,2025-01-27 12:46:05,1.0
-8096,-1556,10892,-1902,-9440,-4426,2025-01-27 12:46:05,1.0
-11320,2136,10920,-2191,-10846,-5601,2025-01-27 12:46:05,1.0
-14348,3872,11348,-595,-7362,-5456,2025-01-27 12:46:05,1.0
-13488,3124,10432,440,-2283,-5245,2025-01-27 12:46:05,1.0
-10332,1088,9456,1202,1934,-5368,2025-01-27 12:46:05,1.0
-7912,-272,9332,1874,4403,-4831,2025-01-27 12:46:05,1.0
-6940,-1016,9196,2378,4519,-3744,2025-01-27 12:46:05,1.0
-1456,-1072,4688,2496,2332,-3920,2025-01-27 12:46:05,1.0
-3036,-2556,7540,2317,-611,-4508,2025-01-27 12:46:05,1.0
-4720,-3456,7588,2471,-3569,-5392,2025-01-27 12:46:05,1.0
-8032,-2908,7640,2385,-5456,-5758,2025-01-27 12:46:05,1.0
-10524,-1760,6276,2049,-5606,-5637,2025-01-27 12:46:05,1.0
-12836,-804,4744,1207,-3417,-4851,2025-01-27 12:46:05,1.0
-15236,-1724,5824,697,1086,-1901,2025-01-27 12:46:05,1.0
-13696,-1504,6884,995,3519,845,2025-01-27 12:46:05,1.0
-9908,-316,7100,1586,3915,1397,2025-01-27 12:46:05,1.0
-8624,1224,7652,2449,2381,462,2025-01-27 12:46:05,1.0
-8760,1464,8444,3902,862,-898,2025-01-27 12:46:05,1.0
-10708,1280,8344,4861,-316,-1986,2025-01-27 12:46:05,1.0
-12616,660,9232,4694,-1479,-2928,2025-01-27 12:46:05,1.0
-15540,-124,9968,4279,-3331,-4625,2025-01-27 12:46:05,1.0
-17360,-576,8632,3404,-4340,-6987,2025-01-27 12:46:05,1.0
-18952,-2452,7228,1751,-4055,-9312,2025-01-27 12:46:05,1.0
-19840,-4732,7392,1019,-1881,-10250,2025-01-27 12:46:05,1.0
-19900,-5396,9644,1783,-101,-8549,2025-01-27 12:46:05,1.0
-19604,-1016,12132,2364,-1945,-6649,2025-01-27 12:46:05,1.0
-16544,-2988,16204,2544,-242,-6763,2025-01-27 12:46:05,1.0
-16516,-7564,17144,1393,2055,-7648,2025-01-27 12:46:05,1.0
-17560,-9800,15880,-1391,4201,-6475,2025-01-27 12:46:05,1.0
-15548,-3396,10908,-2865,7397,398,2025-01-27 12:46:05,1.0
-8880,-284,11164,-4080,8685,4089,2025-01-27 12:46:05,1.0
-3128,1360,17696,-2018,4726,4791,2025-01-27 12:46:05,1.0
-964,1848,19692,918,963,1507,2025-01-27 12:46:05,1.0
-4176,2524,16100,2211,-3785,-1486,2025-01-27 12:46:05,1.0
-9212,1084,13092,1589,-8046,-1696,2025-01-27 12:46:05,1.0
-13828,-1704,11460,1002,-9450,703,2025-01-27 12:46:05,1.0
-17364,-3504,9692,-178,-7688,3814,2025-01-27 12:46:05,1.0
-17452,-3584,9564,-1883,-4328,6577,2025-01-27 12:46:05,1.0
-12852,-2176,11192,-2513,1507,8948,2025-01-27 12:46:05,1.0
-7968,-848,11888,-1435,5044,9179,2025-01-27 12:46:05,1.0
-4132,116,9992,-606,6388,7930,2025-01-27 12:46:05,1.0
-3040,1372,8700,-460,5209,6655,2025-01-27 12:46:05,1.0
-2216,1896,7144,-1186,2054,6142,2025-01-27 12:46:05,1.0
-3632,1900,6468,-2389,-2415,5700,2025-01-27 12:46:05,1.0
-4956,2108,6476,-3397,-5543,5078,2025-01-27 12:46:05,1.0
-8092,1352,7284,-3430,-5623,4589,2025-01-27 12:46:05,1.0
-9160,480,6740,-3602,-3043,3937,2025-01-27 12:46:05,1.0
-8980,116,7540,-3964,-903,2799,2025-01-27 12:46:05,1.0
-8784,348,7548,-4285,11,1659,2025-01-27 12:46:06,1.0
-8916,576,7272,-4917,-151,474,2025-01-27 12:46:06,1.0
-9612,516,7296,-5620,-758,-153,2025-01-27 12:46:06,1.0
-11300,360,8500,-6363,-1366,-98,2025-01-27 12:46:06,1.0
-13060,-316,10124,-6881,-1966,548,2025-01-27 12:46:06,1.0
-14516,-1368,11192,-6735,-2412,1339,2025-01-27 12:46:06,1.0
-16324,-1024,11192,-5842,-2953,2240,2025-01-27 12:46:06,1.0
-19368,1560,10448,-4848,-3906,3906,2025-01-27 12:46:06,1.0
-20692,3672,10052,-3836,-3525,6007,2025-01-27 12:46:06,1.0
-20164,4516,9552,-2897,38,7081,2025-01-27 12:46:06,1.0
-18904,3492,10276,-2801,2677,5778,2025-01-27 12:46:06,1.0
-20180,2724,15896,-2917,1722,5709,2025-01-27 12:46:06,1.0
-18280,2820,17852,-914,1184,6250,2025-01-27 12:46:06,1.0
-17796,6436,16116,2292,2909,6634,2025-01-27 12:46:06,1.0
-14176,7048,15904,4010,8073,5918,2025-01-27 12:46:06,1.0
-8788,4788,14756,3072,14008,2097,2025-01-27 12:46:06,1.0
-6008,340,17256,3069,13819,-1745,2025-01-27 12:46:06,1.0
-4076,-908,17380,2696,10794,-2627,2025-01-27 12:46:06,1.0
-4864,-2912,15360,2014,3815,-2187,2025-01-27 12:46:06,1.0
-5804,-3996,10600,667,-6720,-2503,2025-01-27 12:46:06,1.0
-7508,-2920,7980,-1827,-13020,-4008,2025-01-27 12:46:06,1.0
-11304,-200,10880,-3802,-13597,-5052,2025-01-27 12:46:06,1.0
-14704,2512,14080,-2970,-10449,-5013,2025-01-27 12:46:06,1.0
-14312,3416,13576,-599,-4464,-5102,2025-01-27 12:46:06,1.0
-12432,2288,12484,232,3167,-5839,2025-01-27 12:46:06,1.0
-9884,-860,10756,1894,7478,-5889,2025-01-27 12:46:06,1.0
-7052,-1668,8996,2436,8017,-4609,2025-01-27 12:46:06,1.0
-3540,-1840,8240,2023,7270,-3252,2025-01-27 12:46:06,1.0
-1940,-1548,8828,2098,4201,-3548,2025-01-27 12:46:06,1.0
-1224,-1328,8344,2287,-515,-4336,2025-01-27 12:46:06,1.0
-3584,-788,8532,2816,-3011,-5306,2025-01-27 12:46:06,1.0
-6108,-1040,6960,3141,-3723,-6594,2025-01-27 12:46:06,1.0
-9940,-1056,5596,2541,-3290,-7017,2025-01-27 12:46:06,1.0
-13396,-2056,6776,1994,-694,-4232,2025-01-27 12:46:06,1.0
-12376,-2672,8200,2612,723,81,2025-01-27 12:46:06,1.0
-8836,-1088,7848,2782,-866,1576,2025-01-27 12:46:06,1.0
-8272,-356,8208,3762,-1925,614,2025-01-27 12:46:06,1.0
-10432,320,8048,4785,-1793,-136,2025-01-27 12:46:06,1.0
-12864,476,7992,5117,-530,-501,2025-01-27 12:46:06,1.0
-15244,-60,11004,4492,603,-1207,2025-01-27 12:46:06,1.0
-16376,360,11768,4485,606,-2914,2025-01-27 12:46:06,1.0
-16404,752,10860,4461,459,-5197,2025-01-27 12:46:06,1.0
-15812,-1204,7448,2500,-582,-9171,2025-01-27 12:46:06,1.0
-17888,-3712,7132,1508,-1097,-12085,2025-01-27 12:46:06,1.0
-18164,-3616,8760,1984,1474,-10307,2025-01-27 12:46:06,1.0
-18880,-864,12856,2836,-1958,-7413,2025-01-27 12:46:06,1.0
-16336,-3056,15768,3248,-177,-8495,2025-01-27 12:46:06,1.0
-17624,-7344,16000,795,2872,-10554,2025-01-27 12:46:06,1.0
-19676,-9976,15596,-2302,6028,-9270,2025-01-27 12:46:06,1.0
-19120,-7100,12128,-2979,6841,-2757,2025-01-27 12:46:06,1.0
-11028,-1520,10144,-4932,7452,1938,2025-01-27 12:46:06,1.0
-6596,556,15920,-4693,6314,3879,2025-01-27 12:46:06,1.0
-4240,1592,20736,-1767,3348,2948,2025-01-27 12:46:06,1.0
-6256,3140,17360,1864,-2269,765,2025-01-27 12:46:06,1.0
-10060,2488,12808,2334,-6396,909,2025-01-27 12:46:06,1.0
-12856,-892,11384,1922,-7264,2862,2025-01-27 12:46:06,1.0
-14576,-3636,10952,1231,-5567,4880,2025-01-27 12:46:06,1.0
-14420,-4608,10260,44,-2106,6571,2025-01-27 12:46:06,1.0
-11456,-3612,9900,-649,1477,7923,2025-01-27 12:46:06,1.0
-8364,-2228,9656,-405,4439,8229,2025-01-27 12:46:06,1.0
-6408,-56,8836,117,5726,8069,2025-01-27 12:46:07,1.0
-4360,2296,7300,-283,4217,7748,2025-01-27 12:46:07,1.0
-3984,2476,7708,-1145,916,7371,2025-01-27 12:46:07,1.0
-3752,3140,7664,-1656,-1960,6792,2025-01-27 12:46:07,1.0
-4588,1964,7664,-2027,-4033,5104,2025-01-27 12:46:07,1.0
-7100,1372,6972,-1837,-4369,4177,2025-01-27 12:46:07,1.0
-9152,756,6540,-1900,-3430,3770,2025-01-27 12:46:07,1.0
-9712,108,6364,-2346,-1971,2820,2025-01-27 12:46:07,1.0
-9492,216,6368,-2911,-879,1567,2025-01-27 12:46:07,1.0
-9572,816,6696,-3661,-345,445,2025-01-27 12:46:07,1.0
-8964,1156,6408,-4427,-444,-3,2025-01-27 12:46:07,1.0
-9432,832,7760,-4938,-907,-234,2025-01-27 12:46:07,1.0
-9464,-108,8036,-5482,-2146,-139,2025-01-27 12:46:07,1.0
-11052,-1240,9200,-6094,-3339,263,2025-01-27 12:46:07,1.0
-13484,-2220,10316,-6941,-4873,863,2025-01-27 12:46:07,1.0
-17784,-1272,12072,-6909,-5921,2116,2025-01-27 12:46:07,1.0
-21820,2340,12392,-5876,-4601,4736,2025-01-27 12:46:07,1.0
-23320,5380,10828,-3555,-493,7290,2025-01-27 12:46:07,1.0
-19764,4556,10072,-2489,4495,7334,2025-01-27 12:46:07,1.0
-18644,3644,13472,-2155,6294,6092,2025-01-27 12:46:07,1.0
-17916,736,14756,-2143,2072,5949,2025-01-27 12:46:07,1.0
-17432,4508,16036,-997,-426,6392,2025-01-27 12:46:07,1.0
-15996,6440,19724,1720,1301,7463,2025-01-27 12:46:07,1.0
-10552,5908,18884,3002,6115,6103,2025-01-27 12:46:07,1.0
-5724,3168,18380,2430,14311,1373,2025-01-27 12:46:07,1.0
-5680,-296,18376,3170,21528,-3536,2025-01-27 12:46:07,1.0
-7576,-2244,13700,5155,11556,-2335,2025-01-27 12:46:07,1.0
-3560,-2908,9824,932,2180,-2132,2025-01-27 12:46:07,1.0
-3700,-1816,11252,-1441,-6498,-3517,2025-01-27 12:46:07,1.0
-5416,316,11276,-1927,-10589,-5882,2025-01-27 12:46:07,1.0
-10148,2948,12068,-1765,-12569,-7870,2025-01-27 12:46:07,1.0
-15412,5292,12520,239,-11519,-7884,2025-01-27 12:46:07,1.0
-14556,3788,11908,1849,-4376,-7088,2025-01-27 12:46:07,1.0
-10112,-908,11900,2344,6660,-7599,2025-01-27 12:46:07,1.0
-11020,-3976,11288,4771,11632,-5702,2025-01-27 12:46:07,1.0
-6016,-2612,5700,3973,6382,-3179,2025-01-27 12:46:07,1.0
-3872,-2804,6648,1859,3584,-3074,2025-01-27 12:46:07,1.0
-2364,-3104,7456,1858,433,-3695,2025-01-27 12:46:07,1.0
-4884,-3232,7664,2028,-2901,-4669,2025-01-27 12:46:07,1.0
-7760,-3492,6648,1220,-4614,-5689,2025-01-27 12:46:07,1.0
-11376,-2800,5428,360,-3156,-5692,2025-01-27 12:46:07,1.0
-14284,-1892,4824,-515,364,-2998,2025-01-27 12:46:07,1.0
-13416,-1576,6224,-309,3216,-292,2025-01-27 12:46:07,1.0
-10356,364,6224,107,3651,802,2025-01-27 12:46:07,1.0
-9040,2276,7484,1182,2789,559,2025-01-27 12:46:07,1.0
-8924,3132,8124,2661,1160,-17,2025-01-27 12:46:07,1.0
-9740,2036,8316,4405,-277,-961,2025-01-27 12:46:07,1.0
-11904,-192,9152,5853,-973,-1976,2025-01-27 12:46:07,1.0
-13596,-1852,10488,5470,-885,-3610,2025-01-27 12:46:07,1.0
-16396,-2024,10140,5033,-1708,-5116,2025-01-27 12:46:07,1.0
-18948,-2252,7348,4086,-1596,-6674,2025-01-27 12:46:07,1.0
-20536,-3584,5212,2406,-2023,-7456,2025-01-27 12:46:07,1.0
-19380,-5184,7152,1234,-1328,-7331,2025-01-27 12:46:07,1.0
-19004,-3308,12096,575,-2199,-7573,2025-01-27 12:46:07,1.0
-17328,-3584,15976,430,94,-8185,2025-01-27 12:46:07,1.0
-16892,-5196,17664,-1633,3550,-9185,2025-01-27 12:46:07,1.0
-18124,-6520,16996,-4268,6388,-9335,2025-01-27 12:46:07,1.0
-19680,-5136,14544,-3544,6889,-4605,2025-01-27 12:46:07,1.0
-13708,-20,10152,-3441,7230,2376,2025-01-27 12:46:07,1.0
-3752,-1472,16648,-2035,4324,5976,2025-01-27 12:46:07,1.0
-1780,-596,19996,1710,-376,2195,2025-01-27 12:46:08,1.0
-6448,1504,15816,3089,-6299,-666,2025-01-27 12:46:08,1.0
-12440,1060,11524,1540,-10887,289,2025-01-27 12:46:08,1.0
-15664,-1816,10336,650,-9036,3251,2025-01-27 12:46:08,1.0
-17508,-3676,9612,-226,-4991,5307,2025-01-27 12:46:08,1.0
-16416,-3728,10584,-1662,73,7706,2025-01-27 12:46:08,1.0
-12280,-2732,11508,-1308,4016,9559,2025-01-27 12:46:08,1.0
-7560,-1872,10488,-291,7765,10290,2025-01-27 12:46:08,1.0
-4640,-408,9160,408,10151,10091,2025-01-27 12:46:08,1.0
-3904,1648,6332,455,5273,9435,2025-01-27 12:46:08,1.0
428,1888,5760,-681,1916,7546,2025-01-27 12:46:08,1.0
-836,2264,7712,-1033,-2115,5282,2025-01-27 12:46:08,1.0
-5480,3180,7772,-1229,-6081,2743,2025-01-27 12:46:08,1.0
-9396,2936,7208,-677,-5469,2158,2025-01-27 12:46:08,1.0
-11100,2588,6876,-274,-1947,1800,2025-01-27 12:46:08,1.0
-10780,1812,7500,288,1030,1173,2025-01-27 12:46:08,1.0
-9616,1396,7492,780,2157,238,2025-01-27 12:46:08,1.0
-8052,704,6760,873,1477,-661,2025-01-27 12:46:08,1.0
-7644,268,6420,581,-15,-1003,2025-01-27 12:46:08,1.0
-6744,-356,5264,-120,-2086,-875,2025-01-27 12:46:08,1.0
-7024,-1012,6272,-1147,-3985,-992,2025-01-27 12:46:08,1.0
-8172,-1400,8096,-2612,-5663,-1813,2025-01-27 12:46:08,1.0
-14000,-1888,11688,-4233,-6875,-2122,2025-01-27 12:46:08,1.0
-20428,-1064,13560,-4484,-8473,-876,2025-01-27 12:46:08,1.0
-25480,2280,11988,-3742,-9511,2230,2025-01-27 12:46:08,1.0
-28180,4724,12040,-2473,-9141,6729,2025-01-27 12:46:08,1.0
-23028,3980,11420,-1617,-3949,8830,2025-01-27 12:46:08,1.0
-16184,1432,13960,-1543,7522,6290,2025-01-27 12:46:08,1.0
-16992,-2196,13552,-2527,11175,4679,2025-01-27 12:46:08,1.0
-19440,3120,11928,-3350,8116,7068,2025-01-27 12:46:08,1.0
-15196,6508,15980,-1494,4570,8613,2025-01-27 12:46:08,1.0
-9924,7064,17132,149,6762,6972,2025-01-27 12:46:08,1.0
-6032,6040,18460,1425,11093,3484,2025-01-27 12:46:08,1.0
-6144,2444,18176,3363,10465,1109,2025-01-27 12:46:08,1.0
-4608,-1092,13028,2862,4264,-95,2025-01-27 12:46:08,1.0
-4044,-3652,11724,975,-1690,-2220,2025-01-27 12:46:08,1.0
-6620,-3460,11364,-782,-6748,-4201,2025-01-27 12:46:08,1.0
-10036,-1492,11820,-2183,-9913,-5623,2025-01-27 12:46:08,1.0
-13924,2376,11640,-2448,-10541,-5955,2025-01-27 12:46:08,1.0
-14752,3376,11508,-1049,-5719,-6181,2025-01-27 12:46:08,1.0
-13000,2516,10356,-506,578,-7063,2025-01-27 12:46:08,1.0
-10412,-596,10664,361,6362,-8155,2025-01-27 12:46:08,1.0
-8948,-2184,8116,1757,4633,-6890,2025-01-27 12:46:08,1.0
-5720,-2124,7440,957,3475,-5914,2025-01-27 12:46:08,1.0
-3548,-1040,7568,577,1179,-5858,2025-01-27 12:46:08,1.0
-3544,-428,7024,1053,-1681,-6848,2025-01-27 12:46:08,1.0
-5720,-1292,7836,1980,-3506,-8381,2025-01-27 12:46:08,1.0
-9372,-2664,8468,2167,-2953,-8456,2025-01-27 12:46:08,1.0
-12708,-3280,8252,1601,-988,-5963,2025-01-27 12:46:08,1.0
-13180,-3192,7056,953,1594,-2957,2025-01-27 12:46:08,1.0
-11300,-2176,6288,721,4017,-711,2025-01-27 12:46:08,1.0
-9136,624,6384,1210,4089,-16,2025-01-27 12:46:08,1.0
-7716,1996,7076,2056,2245,320,2025-01-27 12:46:08,1.0
-7676,1372,8180,3683,374,85,2025-01-27 12:46:08,1.0
-8504,-340,6412,5005,-1142,-332,2025-01-27 12:46:08,1.0
-12212,-2232,7796,5037,-970,-1807,2025-01-27 12:46:08,1.0
-14524,-3760,8480,3943,106,-3574,2025-01-27 12:46:08,1.0
-18204,-4616,9748,2655,-370,-4889,2025-01-27 12:46:08,1.0
-19924,-4184,8156,1691,-1662,-5008,2025-01-27 12:46:08,1.0
-19980,-3796,5660,-156,-2258,-5271,2025-01-27 12:46:08,1.0
-19044,-6064,9200,-1227,-705,-5760,2025-01-27 12:46:09,1.0
-19600,-3852,14000,-842,-652,-6077,2025-01-27 12:46:09,1.0
-16556,-4636,16156,-1257,2891,-6830,2025-01-27 12:46:09,1.0
-15728,-6024,16800,-4028,5633,-8491,2025-01-27 12:46:09,1.0
-16912,-7088,17368,-6963,7260,-8316,2025-01-27 12:46:09,1.0
-15512,-3760,13560,-6423,7103,-3310,2025-01-27 12:46:09,1.0
-10992,-792,12584,-5794,7163,1096,2025-01-27 12:46:09,1.0
-6324,124,18600,-2606,5436,3910,2025-01-27 12:46:09,1.0
-4980,1648,17304,1515,2031,2401,2025-01-27 12:46:09,1.0
-8064,2564,13984,2105,-3367,1603,2025-01-27 12:46:09,1.0
-11200,236,13032,1408,-7221,2647,2025-01-27 12:46:09,1.0
-13512,-2388,12796,1124,-7638,3660,2025-01-27 12:46:09,1.0
-15420,-3792,11784,571,-5823,4434,2025-01-27 12:46:09,1.0
-15208,-4340,11424,-57,-2398,6027,2025-01-27 12:46:09,1.0
-12076,-2908,10672,-232,1840,8031,2025-01-27 12:46:09,1.0
-9092,-1624,10180,364,6314,9314,2025-01-27 12:46:09,1.0
-6804,232,8320,1229,8636,10572,2025-01-27 12:46:09,1.0
-2304,1132,6092,-18,4291,9950,2025-01-27 12:46:09,1.0
-1220,1732,8368,-1459,-419,7718,2025-01-27 12:46:09,1.0
-1532,2112,7844,-2375,-4595,5084,2025-01-27 12:46:09,1.0
-5452,1244,7084,-2535,-6625,3973,2025-01-27 12:46:09,1.0
-9128,12,4964,-3298,-6029,3803,2025-01-27 12:46:09,1.0
-10852,-1312,3876,-4244,-3752,3337,2025-01-27 12:46:09,1.0
-11124,-1988,5192,-5333,-1450,2450,2025-01-27 12:46:09,1.0
-10968,-1592,7224,-5991,119,1683,2025-01-27 12:46:09,1.0
-10532,-408,8364,-6198,1077,1216,2025-01-27 12:46:09,1.0
-9484,556,8588,-5920,884,1055,2025-01-27 12:46:09,1.0
-9592,1064,8980,-5465,-47,1177,2025-01-27 12:46:09,1.0
-9848,940,7748,-5323,-1764,1278,2025-01-27 12:46:09,1.0
-12504,320,8564,-5506,-3632,1531,2025-01-27 12:46:09,1.0
-15612,-356,9596,-5785,-5274,1866,2025-01-27 12:46:09,1.0
-19396,304,10872,-5492,-6089,2807,2025-01-27 12:46:09,1.0
-23404,3116,11872,-4481,-4281,5070,2025-01-27 12:46:09,1.0
-20968,3624,10108,-3808,-475,5506,2025-01-27 12:46:09,1.0
-19632,2440,8444,-3373,4221,5345,2025-01-27 12:46:09,1.0
-18900,336,5864,-3570,5027,4844,2025-01-27 12:46:09,1.0
-15628,1016,12000,-5354,978,5245,2025-01-27 12:46:09,1.0
-16472,1652,16276,-5390,-1514,5789,2025-01-27 12:46:09,1.0
-17124,5172,17720,-1906,-3295,6292,2025-01-27 12:46:09,1.0
-13360,6336,18208,360,197,5367,2025-01-27 12:46:09,1.0
-6708,4180,17692,705,9824,1849,2025-01-27 12:46:09,1.0
-6072,56,17536,1736,21807,-2691,2025-01-27 12:46:09,1.0
-16212,-2252,12044,5685,11005,-907,2025-01-27 12:46:09,1.0
-3884,-1012,8800,1126,3149,-1259,2025-01-27 12:46:09,1.0
-4872,672,14604,-88,-4057,-3261,2025-01-27 12:46:09,1.0
-6612,632,14332,761,-7776,-5577,2025-01-27 12:46:09,1.0
-9988,956,12516,1590,-8670,-7449,2025-01-27 12:46:09,1.0
-13844,1532,12156,2311,-8048,-7761,2025-01-27 12:46:09,1.0
-15696,1720,11768,2999,-5364,-6886,2025-01-27 12:46:09,1.0
-13020,-396,11852,3147,-505,-6342,2025-01-27 12:46:09,1.0
-9404,-2896,11728,3646,8143,-6542,2025-01-27 12:46:09,1.0
-9400,-4096,7976,5099,7304,-4413,2025-01-27 12:46:09,1.0
-5096,-3048,6136,2444,5481,-2993,2025-01-27 12:46:09,1.0
-1652,-1808,7336,1488,3017,-3027,2025-01-27 12:46:09,1.0
-1932,-1004,8120,2336,-265,-4306,2025-01-27 12:46:09,1.0
-4540,-864,7952,3291,-4182,-6019,2025-01-27 12:46:09,1.0
-8888,-924,6492,3686,-5001,-6975,2025-01-27 12:46:09,1.0
-12812,-540,4984,3160,-2558,-5935,2025-01-27 12:46:09,1.0
-14340,-904,5156,2532,1211,-2827,2025-01-27 12:46:09,1.0
-12200,-1704,5916,2954,3347,-25,2025-01-27 12:46:09,1.0
-8572,-444,6488,3452,2865,876,2025-01-27 12:46:10,1.0
-7116,1348,7196,4254,854,89,2025-01-27 12:46:10,1.0
-9244,1524,8212,5628,-2077,-1614,2025-01-27 12:46:10,1.0
-12032,280,7944,7100,-2165,-3177,2025-01-27 12:46:10,1.0
-15052,-1148,8524,7338,-1837,-5265,2025-01-27 12:46:10,1.0
-18484,-1396,9184,6680,-1555,-6281,2025-01-27 12:46:10,1.0
-20024,-1588,8856,5810,-1224,-6537,2025-01-27 12:46:10,1.0
-19512,-2988,6524,4002,-774,-8007,2025-01-27 12:46:10,1.0
-19516,-5880,6876,1724,-413,-9492,2025-01-27 12:46:10,1.0
-19964,-7116,11364,865,-872,-9772,2025-01-27 12:46:10,1.0
-19588,-5164,14696,618,-2130,-8029,2025-01-27 12:46:10,1.0
-16884,-5624,16284,-787,-984,-8928,2025-01-27 12:46:10,1.0
-16604,-6788,14556,-5946,2352,-11700,2025-01-27 12:46:10,1.0
-20244,-9196,16240,-7845,6388,-10276,2025-01-27 12:46:10,1.0
-19524,-3528,13376,-4912,9344,1116,2025-01-27 12:46:10,1.0
-8352,-1092,14368,-3412,8220,9376,2025-01-27 12:46:10,1.0
-2484,-996,18364,-361,4535,9199,2025-01-27 12:46:10,1.0
-1796,920,18772,2322,-158,5707,2025-01-27 12:46:10,1.0
-4756,3176,14416,2622,-5472,2393,2025-01-27 12:46:10,1.0
-9284,456,11636,1377,-10429,910,2025-01-27 12:46:10,1.0
-14156,-3812,9572,658,-10788,2048,2025-01-27 12:46:10,1.0
-16728,-5460,7720,-787,-8558,4497,2025-01-27 12:46:10,1.0
-16188,-4616,8120,-2155,-4240,6997,2025-01-27 12:46:10,1.0
-11296,-1896,9456,-2314,317,9481,2025-01-27 12:46:10,1.0
-7384,-44,10604,-723,3467,9919,2025-01-27 12:46:10,1.0
-4416,1488,9716,536,4329,9508,2025-01-27 12:46:10,1.0
-2312,2604,7720,695,3293,8469,2025-01-27 12:46:10,1.0
-2084,3156,6964,-467,303,6647,2025-01-27 12:46:10,1.0
-2864,2652,6288,-1499,-2593,4350,2025-01-27 12:46:10,1.0
-6500,1144,6944,-1529,-3863,3053,2025-01-27 12:46:10,1.0
-8908,208,5948,-1341,-3191,3054,2025-01-27 12:46:10,1.0
-9452,-500,5788,-1478,-1822,2917,2025-01-27 12:46:10,1.0
-9176,-464,6668,-1375,-679,2506,2025-01-27 12:46:10,1.0
-8944,276,6588,-1702,-222,2132,2025-01-27 12:46:10,1.0
-8032,716,6892,-2914,-545,1750,2025-01-27 12:46:10,1.0
-7940,60,7752,-3552,-1706,1423,2025-01-27 12:46:10,1.0
-9500,-464,7828,-3929,-4018,1338,2025-01-27 12:46:10,1.0
-12604,-980,8400,-4619,-5908,1567,2025-01-27 12:46:10,1.0
-15648,184,10008,-5207,-6392,2167,2025-01-27 12:46:10,1.0
-19348,2032,12432,-5191,-5167,3154,2025-01-27 12:46:10,1.0
-23356,3320,12908,-3654,-3122,4906,2025-01-27 12:46:10,1.0
-24888,4660,12196,-2272,-1099,7122,2025-01-27 12:46:10,1.0
-19460,6288,12824,-1233,2790,8451,2025-01-27 12:46:10,1.0
-14988,7156,15536,-401,4750,6965,2025-01-27 12:46:10,1.0
-13880,2420,17532,1638,1266,3800,2025-01-27 12:46:10,1.0
-15476,5500,13588,3247,-2902,2475,2025-01-27 12:46:10,1.0
-16364,6552,15240,4534,64,2924,2025-01-27 12:46:10,1.0
-13368,5172,16132,4426,6693,2709,2025-01-27 12:46:10,1.0
-10964,1832,18764,3902,13502,1088,2025-01-27 12:46:10,1.0
-10068,-1444,19664,5667,15438,116,2025-01-27 12:46:10,1.0
-4592,-3780,15104,5181,13950,-1546,2025-01-27 12:46:10,1.0
-4052,-5388,13352,3435,8328,-3674,2025-01-27 12:46:10,1.0
-3536,-5396,11296,1017,-294,-5377,2025-01-27 12:46:10,1.0
-7072,-2560,11228,-765,-8232,-5495,2025-01-27 12:46:10,1.0
-8776,1196,11392,-2229,-14018,-5614,2025-01-27 12:46:10,1.0
-11164,4784,11800,-2468,-15944,-5442,2025-01-27 12:46:10,1.0
-12936,5836,11064,-1006,-11830,-4766,2025-01-27 12:46:10,1.0
-12020,4160,9888,394,-5850,-5452,2025-01-27 12:46:10,1.0
-9260,32,8600,1357,2854,-7867,2025-01-27 12:46:10,1.0
-7796,-2956,8668,2201,7329,-7989,2025-01-27 12:46:10,1.0
-6180,-4032,8636,2815,8238,-6487,2025-01-27 12:46:10,1.0
-3384,-3940,6976,2667,5998,-5226,2025-01-27 12:46:11,1.0
-4016,-3424,7740,2186,1667,-4670,2025-01-27 12:46:11,1.0
-4844,-2904,7800,1924,-1874,-4823,2025-01-27 12:46:11,1.0
-7372,-1812,7336,1587,-2908,-5099,2025-01-27 12:46:11,1.0
-11048,-1624,5976,1028,-1602,-4530,2025-01-27 12:46:11,1.0
-13680,-2344,5580,525,1478,-2583,2025-01-27 12:46:11,1.0
-14108,-1868,6348,491,3427,-387,2025-01-27 12:46:11,1.0
-12616,1312,6372,957,4035,967,2025-01-27 12:46:11,1.0
-12392,2844,7840,1889,3683,975,2025-01-27 12:46:11,1.0
-10980,1828,6920,3504,3634,699,2025-01-27 12:46:11,1.0
-11180,-860,7320,4822,3777,-118,2025-01-27 12:46:11,1.0
-10416,-3248,8152,4262,2508,-1945,2025-01-27 12:46:11,1.0
-12680,-3204,11200,3315,-988,-3955,2025-01-27 12:46:11,1.0
-14692,-752,9992,2627,-3468,-5725,2025-01-27 12:46:11,1.0
-17168,-520,5796,1224,-3708,-9345,2025-01-27 12:46:11,1.0
-21628,-2544,6044,-407,-2905,-11427,2025-01-27 12:46:11,1.0
-25204,-5072,9908,130,1113,-9005,2025-01-27 12:46:11,1.0
-25172,-3236,15168,2194,2832,-3833,2025-01-27 12:46:11,1.0
-15432,-3248,17168,2747,4080,-1858,2025-01-27 12:46:11,1.0
-10388,-5308,18492,1107,7151,-5190,2025-01-27 12:46:11,1.0
-11396,-5932,16620,-3260,7841,-9290,2025-01-27 12:46:11,1.0
-15516,-6248,13352,-4246,3020,-7076,2025-01-27 12:46:11,1.0
-14164,-1536,11552,-4391,483,2250,2025-01-27 12:46:11,1.0
-9404,-528,15596,-1837,-670,5328,2025-01-27 12:46:11,1.0
-8512,1148,15416,1027,-1396,5070,2025-01-27 12:46:11,1.0
-9364,1628,13580,1579,-3069,4857,2025-01-27 12:46:11,1.0
-10900,-408,11336,662,-6046,5044,2025-01-27 12:46:11,1.0
-12816,-3692,10816,-715,-7746,5785,2025-01-27 12:46:11,1.0
-13852,-5476,9828,-2101,-6167,6986,2025-01-27 12:46:11,1.0
-12652,-5004,9120,-3602,-2896,7887,2025-01-27 12:46:11,1.0
-9664,-2416,8760,-4541,1226,8874,2025-01-27 12:46:11,1.0
-7644,192,9716,-3488,4828,9640,2025-01-27 12:46:11,1.0
-4668,2224,8520,-1968,6326,9966,2025-01-27 12:46:11,1.0
-2628,3560,7364,-1489,5199,9819,2025-01-27 12:46:11,1.0
-864,3832,7120,-2169,844,8267,2025-01-27 12:46:11,1.0
-708,3528,7084,-3241,-3851,5512,2025-01-27 12:46:11,1.0
-3944,2292,8456,-3723,-7180,2847,2025-01-27 12:46:11,1.0
-8348,1072,8168,-3104,-7482,2383,2025-01-27 12:46:11,1.0
-10216,132,6324,-2962,-4759,2384,2025-01-27 12:46:11,1.0
-11296,-404,6112,-3235,-1689,1632,2025-01-27 12:46:11,1.0
-10812,-36,5660,-3527,1185,294,2025-01-27 12:46:11,1.0
-9988,12,5532,-4151,2645,-539,2025-01-27 12:46:11,1.0
-9056,280,6608,-4573,2430,-1117,2025-01-27 12:46:11,1.0
-8168,564,7304,-5251,-285,-1233,2025-01-27 12:46:11,1.0
-9500,536,8968,-6142,-3768,-1182,2025-01-27 12:46:11,1.0
-12268,-524,10296,-6796,-6416,-548,2025-01-27 12:46:11,1.0
-17924,-2972,11732,-6546,-7648,716,2025-01-27 12:46:11,1.0
-22648,-1196,10512,-5873,-8535,3124,2025-01-27 12:46:11,1.0
-26096,2688,10172,-5080,-7960,6478,2025-01-27 12:46:11,1.0
-24248,4328,10444,-4077,-4275,8406,2025-01-27 12:46:11,1.0
-20624,3568,15380,-4454,-1412,8148,2025-01-27 12:46:11,1.0
-15560,-440,23380,-3353,-952,6702,2025-01-27 12:46:11,1.0
-16124,4276,22960,-562,1947,6298,2025-01-27 12:46:11,1.0
-15248,6996,21052,2407,6905,7025,2025-01-27 12:46:11,1.0
-10452,7068,17700,3024,14636,5894,2025-01-27 12:46:11,1.0
-5936,2372,16212,2411,22418,1387,2025-01-27 12:46:11,1.0
-8588,-2860,15196,5888,19376,-1399,2025-01-27 12:46:11,1.0
-5552,-3100,11316,3122,12376,-2727,2025-01-27 12:46:11,1.0
-4600,-4440,11548,-421,4774,-3658,2025-01-27 12:46:11,1.0
-6184,-3020,12024,-1225,-4997,-3982,2025-01-27 12:46:12,1.0
-7268,308,9512,-1863,-10711,-4841,2025-01-27 12:46:12,1.0
-9988,2716,10240,-2543,-13301,-5650,2025-01-27 12:46:12,1.0
-13452,4852,12172,-1198,-11611,-5833,2025-01-27 12:46:12,1.0
-13816,4668,12804,2054,-4539,-6152,2025-01-27 12:46:12,1.0
-10720,1800,12060,3078,3226,-7618,2025-01-27 12:46:12,1.0
-9460,-1544,11132,4503,8012,-7481,2025-01-27 12:46:12,1.0
-6280,-3000,8204,5049,9387,-5710,2025-01-27 12:46:12,1.0
-3932,-2824,7060,4127,6978,-4814,2025-01-27 12:46:12,1.0
-2048,-3088,7104,3138,2696,-5039,2025-01-27 12:46:12,1.0
-3088,-3292,7640,3035,-1853,-6298,2025-01-27 12:46:12,1.0
-6532,-3300,8204,3061,-4554,-7595,2025-01-27 12:46:12,1.0
-9444,-2832,6868,2425,-4409,-7673,2025-01-27 12:46:12,1.0
-13900,-2240,6320,1603,-1226,-5066,2025-01-27 12:46:12,1.0
-14200,-2332,6460,1351,1547,-1226,2025-01-27 12:46:12,1.0
-11596,-1444,6932,1726,2627,1642,2025-01-27 12:46:12,1.0
-8360,260,7116,2346,1649,2129,2025-01-27 12:46:12,1.0
-8448,1084,7232,3504,-487,1061,2025-01-27 12:46:12,1.0
-10732,668,6548,4727,-2234,201,2025-01-27 12:46:12,1.0
-13084,-864,7612,5114,-1709,-302,2025-01-27 12:46:12,1.0
-14272,-2092,9372,4689,-795,-1775,2025-01-27 12:46:12,1.0
-15924,-1100,10448,4246,215,-3528,2025-01-27 12:46:12,1.0
-17696,-660,9444,3779,-28,-4664,2025-01-27 12:46:12,1.0
-16756,-2444,6580,1160,-2930,-8299,2025-01-27 12:46:12,1.0
-19476,-3120,7096,-313,-2667,-10391,2025-01-27 12:46:12,1.0
-20620,-4924,10412,13,1097,-9020,2025-01-27 12:46:12,1.0
-21100,-2744,14864,3258,1961,-5446,2025-01-27 12:46:12,1.0
-15140,-3916,13812,4300,3869,-4480,2025-01-27 12:46:12,1.0
-13332,-4436,13972,1052,5509,-6829,2025-01-27 12:46:12,1.0
-15356,-4592,16796,-4557,5132,-9811,2025-01-27 12:46:12,1.0
-17244,-5092,17188,-4195,5074,-6277,2025-01-27 12:46:12,1.0
-14488,-944,13720,-2466,4944,2135,2025-01-27 12:46:12,1.0
-5196,-596,13392,-940,3102,5774,2025-01-27 12:46:12,1.0
-2560,-408,14260,1904,315,3428,2025-01-27 12:46:12,1.0
-6028,-272,13452,2979,-4260,1429,2025-01-27 12:46:12,1.0
-10708,-2080,13156,2396,-8633,1649,2025-01-27 12:46:12,1.0
-14684,-3952,11968,1344,-10762,2926,2025-01-27 12:46:12,1.0
-18592,-5160,10188,-329,-9568,4623,2025-01-27 12:46:12,1.0
-19040,-3416,9764,-2353,-5003,6762,2025-01-27 12:46:12,1.0
-15248,-1268,10744,-3270,1642,9038,2025-01-27 12:46:12,1.0
-10540,96,11920,-1619,7990,9722,2025-01-27 12:46:12,1.0
-7556,1816,11180,41,9418,9205,2025-01-27 12:46:12,1.0
-3620,2844,8936,550,7183,8458,2025-01-27 12:46:12,1.0
-1196,2848,8548,569,3664,7586,2025-01-27 12:46:12,1.0
-268,2016,7844,84,-850,6114,2025-01-27 12:46:12,1.0
-1776,1352,6960,-995,-5010,3991,2025-01-27 12:46:12,1.0
-5360,-8,7220,-1425,-7551,2428,2025-01-27 12:46:12,1.0
-8844,-468,6372,-1675,-7424,2037,2025-01-27 12:46:12,1.0
-11540,-764,5980,-2334,-4698,1625,2025-01-27 12:46:12,1.0
-11632,-292,6348,-2806,-1427,847,2025-01-27 12:46:12,1.0
-10904,700,7328,-3059,1165,308,2025-01-27 12:46:12,1.0
-8620,1148,7544,-3123,2113,30,2025-01-27 12:46:12,1.0
-8344,1288,8188,-2747,1412,-38,2025-01-27 12:46:12,1.0
-8344,296,8532,-3237,-1193,-99,2025-01-27 12:46:12,1.0
-10248,-764,9212,-3789,-3960,-88,2025-01-27 12:46:12,1.0
-13436,-1528,10272,-4408,-6069,184,2025-01-27 12:46:12,1.0
-17616,-736,11124,-4319,-7119,1365,2025-01-27 12:46:12,1.0
-21584,1232,11400,-3810,-7233,3461,2025-01-27 12:46:12,1.0
-22420,2964,10772,-2961,-3288,5387,2025-01-27 12:46:12,1.0
-20944,2608,10344,-2426,3869,5830,2025-01-27 12:46:12,1.0
-19056,248,8480,-2230,8160,4766,2025-01-27 12:46:12,1.0
-17424,-768,11560,-3780,4965,4785,2025-01-27 12:46:13,1.0
-15116,1908,15380,-3694,2062,5623,2025-01-27 12:46:13,1.0
-14676,5764,17584,-1068,1318,6200,2025-01-27 12:46:13,1.0
-13192,7844,19548,2250,5090,6923,2025-01-27 12:46:13,1.0
-8924,7800,17356,4439,10806,4905,2025-01-27 12:46:13,1.0
-6864,2024,15516,4159,10962,279,2025-01-27 12:46:13,1.0
-7428,-1504,15584,3717,8214,-1813,2025-01-27 12:46:13,1.0
-6608,-3744,14576,2446,4762,-2403,2025-01-27 12:46:13,1.0
-7556,-4296,12144,130,-92,-2564,2025-01-27 12:46:13,1.0
-8588,-3684,10444,-2087,-4250,-2924,2025-01-27 12:46:13,1.0
-10776,-1660,10968,-3551,-7927,-3882,2025-01-27 12:46:13,1.0
-13564,1648,12628,-3018,-7873,-4546,2025-01-27 12:46:13,1.0
-15300,4160,13344,-872,-4694,-4787,2025-01-27 12:46:13,1.0
-13044,3564,12464,401,-177,-5548,2025-01-27 12:46:13,1.0
-10432,1040,12204,1605,6398,-6252,2025-01-27 12:46:13,1.0
-8964,-260,10880,3416,8764,-5195,2025-01-27 12:46:13,1.0
-6108,-1000,9072,3741,8671,-3675,2025-01-27 12:46:13,1.0
-3560,-1676,8240,3237,6208,-3130,2025-01-27 12:46:13,1.0
-1224,-1844,7076,2530,2441,-3853,2025-01-27 12:46:13,1.0
-2088,-2456,7384,2388,-1799,-5691,2025-01-27 12:46:13,1.0
-4408,-2296,6528,2250,-5060,-7306,2025-01-27 12:46:13,1.0
-9580,-2492,6800,1823,-5649,-7481,2025-01-27 12:46:13,1.0
-13392,-2368,6404,1249,-3435,-5253,2025-01-27 12:46:13,1.0
-14604,-2472,6824,1151,-264,-2329,2025-01-27 12:46:13,1.0
-13280,-2568,7524,1265,2789,216,2025-01-27 12:46:13,1.0
-10616,-1636,7576,1434,3985,1497,2025-01-27 12:46:13,1.0
-8960,-664,7520,1978,3028,1449,2025-01-27 12:46:13,1.0
-9340,428,6396,2570,676,668,2025-01-27 12:46:13,1.0
-11280,680,6196,3064,-901,-40,2025-01-27 12:46:13,1.0
-13760,176,7348,3446,-991,-441,2025-01-27 12:46:13,1.0
-14828,-424,9608,3456,-613,-1061,2025-01-27 12:46:13,1.0
-15368,-516,10844,3805,-480,-2511,2025-01-27 12:46:13,1.0
-16792,320,10064,4146,-454,-4316,2025-01-27 12:46:13,1.0
-16688,-888,6844,2662,-1630,-6110,2025-01-27 12:46:13,1.0
-17544,-2856,5904,1118,-1407,-7963,2025-01-27 12:46:13,1.0
-18028,-3744,6576,1057,1216,-7373,2025-01-27 12:46:13,1.0
-19244,-2564,11920,2755,385,-6427,2025-01-27 12:46:13,1.0
-17724,-3024,14084,3697,886,-4785,2025-01-27 12:46:13,1.0
-15256,-5512,13896,797,2852,-5217,2025-01-27 12:46:13,1.0
-14816,-7096,14972,-3770,3465,-6455,2025-01-27 12:46:13,1.0
-15336,-7504,15248,-5397,3949,-5277,2025-01-27 12:46:13,1.0
-13604,-3644,12752,-4752,5611,-717,2025-01-27 12:46:13,1.0
-8708,-708,12360,-4823,6231,3117,2025-01-27 12:46:13,1.0
-4392,16,15768,-3039,3550,3567,2025-01-27 12:46:13,1.0
-4268,2252,16796,461,-403,669,2025-01-27 12:46:13,1.0
-9584,2844,13700,1643,-4725,-612,2025-01-27 12:46:13,1.0
-13476,-192,12960,1337,-7273,748,2025-01-27 12:46:13,1.0
-16108,-3024,11028,962,-7610,2417,2025-01-27 12:46:13,1.0
-18128,-4516,9824,-488,-5519,4372,2025-01-27 12:46:13,1.0
-16744,-3800,10500,-1360,-1700,6754,2025-01-27 12:46:13,1.0
-11548,-2504,9472,-1017,2837,8463,2025-01-27 12:46:13,1.0
-7784,-1276,8680,-402,5911,8614,2025-01-27 12:46:13,1.0
-5340,112,7932,-207,6224,8012,2025-01-27 12:46:13,1.0
-4016,828,7792,-821,4049,7276,2025-01-27 12:46:13,1.0
-3004,1140,7288,-1675,392,6115,2025-01-27 12:46:13,1.0
-4216,2620,6684,-2366,-3701,4975,2025-01-27 12:46:13,1.0
-6740,2284,7716,-2595,-6272,4108,2025-01-27 12:46:13,1.0
-8892,1340,7524,-2204,-5580,3364,2025-01-27 12:46:13,1.0
-10520,536,7520,-1988,-3824,2510,2025-01-27 12:46:13,1.0
-10668,392,6700,-2070,-1942,1612,2025-01-27 12:46:13,1.0
-10900,380,7144,-2307,-287,966,2025-01-27 12:46:13,1.0
-10272,320,7276,-2516,939,297,2025-01-27 12:46:13,1.0
-9316,-148,5828,-2786,1297,-152,2025-01-27 12:46:13,1.0
-8944,-408,5860,-3535,771,-190,2025-01-27 12:46:14,1.0
-9256,-460,7240,-4305,-592,-241,2025-01-27 12:46:14,1.0
-9820,-420,8876,-4624,-2206,-190,2025-01-27 12:46:14,1.0
-11752,-312,10356,-4808,-3907,364,2025-01-27 12:46:14,1.0
-14944,280,11268,-4381,-5485,1028,2025-01-27 12:46:14,1.0
-18752,2020,11264,-3658,-6475,2462,2025-01-27 12:46:14,1.0
-21188,3388,11112,-2911,-5350,4356,2025-01-27 12:46:14,1.0
-21056,3544,9988,-2106,-1083,5246,2025-01-27 12:46:14,1.0
-19264,1832,9748,-1738,4255,4582,2025-01-27 12:46:14,1.0
-18032,64,12060,-2486,2531,4538,2025-01-27 12:46:14,1.0
-16916,404,12772,-2642,466,4611,2025-01-27 12:46:14,1.0
-17528,4032,14728,-1813,1103,5186,2025-01-27 12:46:14,1.0
-16972,5684,17716,106,3333,5852,2025-01-27 12:46:14,1.0
-14196,5772,18232,1861,6788,5323,2025-01-27 12:46:14,1.0
-10476,4796,18436,2476,11998,2720,2025-01-27 12:46:14,1.0
-7080,1684,19212,3698,16236,139,2025-01-27 12:46:14,1.0
-5036,-1336,15548,5318,13632,-285,2025-01-27 12:46:14,1.0
-2780,-3692,11720,4093,7604,76,2025-01-27 12:46:14,1.0
-1836,-4880,9020,783,-877,-929,2025-01-27 12:46:14,1.0
-4952,-2968,9548,-2355,-9283,-3309,2025-01-27 12:46:14,1.0
-9416,208,11064,-3093,-12646,-5062,2025-01-27 12:46:14,1.0
-14784,4100,13388,-1880,-13084,-5850,2025-01-27 12:46:14,1.0
-16948,4352,13052,740,-8084,-6011,2025-01-27 12:46:14,1.0
-14492,2456,10332,1059,-313,-6919,2025-01-27 12:46:14,1.0
-12244,-416,11236,774,9409,-7060,2025-01-27 12:46:14,1.0
-11904,-2220,10500,3480,10166,-4154,2025-01-27 12:46:14,1.0
-7832,-1992,8660,2628,7879,-2535,2025-01-27 12:46:14,1.0
-3168,-2556,6800,2031,3620,-2929,2025-01-27 12:46:14,1.0
-4496,-2664,7616,2057,168,-4037,2025-01-27 12:46:14,1.0
-7108,-2004,7552,1865,-2578,-4411,2025-01-27 12:46:14,1.0
-9272,-1472,7040,1604,-3629,-4372,2025-01-27 12:46:14,1.0
-11544,-1012,6868,1349,-2530,-3933,2025-01-27 12:46:14,1.0
-13084,-904,7148,1260,-289,-2736,2025-01-27 12:46:14,1.0
-12328,-620,6276,1497,1721,-13,2025-01-27 12:46:14,1.0
-11848,236,7108,1917,2979,1433,2025-01-27 12:46:14,1.0
-9796,1104,6384,2665,3236,1803,2025-01-27 12:46:14,1.0
-9216,1564,6712,3408,2599,1862,2025-01-27 12:46:14,1.0
-9092,1312,7304,3751,1508,1767,2025-01-27 12:46:14,1.0
-9604,-508,8324,3844,614,1170,2025-01-27 12:46:14,1.0
-11968,-2664,9432,3289,-103,307,2025-01-27 12:46:14,1.0
-13796,-2720,9608,2493,-1951,-1225,2025-01-27 12:46:14,1.0
-15784,144,8876,1747,-3385,-2745,2025-01-27 12:46:14,1.0
-16940,2076,8572,1251,-3557,-3431,2025-01-27 12:46:14,1.0
-16296,1464,8656,1732,-1600,-3718,2025-01-27 12:46:14,1.0
-15244,-384,6720,2740,655,-3481,2025-01-27 12:46:14,1.0
-13588,-3164,6556,2093,327,-3825,2025-01-27 12:46:14,1.0
-14676,-1832,10236,1246,-2713,-5164,2025-01-27 12:46:14,1.0
-14756,-1936,12660,-324,-3877,-7397,2025-01-27 12:46:14,1.0
-15576,-4048,14144,-2994,-2236,-9820,2025-01-27 12:46:14,7.0
-16840,-7196,15716,-6176,358,-10959,2025-01-27 12:46:14,7.0
-18032,-10224,17232,-7371,5221,-10017,2025-01-27 12:46:14,7.0
-19432,-6652,13736,-4026,6062,-2270,2025-01-27 12:46:14,7.0
-13016,1396,9908,-5123,5107,5483,2025-01-27 12:46:14,7.0
-2932,1940,15812,-4356,5062,7038,2025-01-27 12:46:14,7.0
-856,1756,19180,-1636,3566,3121,2025-01-27 12:46:14,7.0
-4880,632,15500,-464,-1025,-861,2025-01-27 12:46:14,7.0
-10064,-3252,13124,-994,-5516,-1122,2025-01-27 12:46:14,7.0
-14848,-5512,9616,-2498,-6201,582,2025-01-27 12:46:14,7.0
-18708,-6132,6056,-5721,-2554,3500,2025-01-27 12:46:14,7.0
-18972,-4028,8556,-8004,2388,7183,2025-01-27 12:46:14,7.0
-13776,-2768,11096,-8510,6445,9239,2025-01-27 12:46:14,7.0
-8520,-1564,11736,-8090,7991,8901,2025-01-27 12:46:15,7.0
-5652,392,10976,-7244,5670,7248,2025-01-27 12:46:15,7.0
-4272,1008,9520,-7359,1781,5895,2025-01-27 12:46:15,7.0
-5280,1508,8768,-8060,-1956,4254,2025-01-27 12:46:15,7.0
-8520,688,8864,-8647,-4062,3694,2025-01-27 12:46:15,7.0
-11852,-292,8760,-9082,-3791,4633,2025-01-27 12:46:15,7.0
-11916,-1288,8488,-9447,-2759,5308,2025-01-27 12:46:15,7.0
-11108,-1632,8192,-9714,-1381,5018,2025-01-27 12:46:15,7.0
-11380,-2104,7524,-10336,-1084,4288,2025-01-27 12:46:15,7.0
-12372,-2292,7804,-11422,-1209,4533,2025-01-27 12:46:15,7.0
-12164,-2180,9336,-12150,-311,4825,2025-01-27 12:46:15,7.0
-11556,-1608,10120,-12052,1247,4509,2025-01-27 12:46:15,7.0
-10496,-712,8512,-12046,1716,4236,2025-01-27 12:46:15,7.0
-12496,-52,10268,-12291,1276,4621,2025-01-27 12:46:15,7.0
-12232,-24,9096,-12788,177,5418,2025-01-27 12:46:15,7.0
-12512,-656,9036,-13084,-13,5824,2025-01-27 12:46:15,7.0
-13572,-124,9384,-13469,602,6336,2025-01-27 12:46:15,7.0
-14600,764,11544,-13666,2092,7354,2025-01-27 12:46:15,7.0
-13324,1244,11100,-13402,2796,8222,2025-01-27 12:46:15,7.0
-11460,1532,10940,-13287,2554,7973,2025-01-27 12:46:15,7.0
-10056,220,11696,-12878,1724,6887,2025-01-27 12:46:15,7.0
-10388,-3056,11708,-12437,-32,6195,2025-01-27 12:46:15,7.0
-11632,-3444,10200,-12757,-1895,6155,2025-01-27 12:46:15,7.0
-12168,-3588,10816,-13649,-1546,6428,2025-01-27 12:46:15,7.0
-13644,-3912,14344,-12752,-1476,7213,2025-01-27 12:46:15,7.0
-14968,-2544,14412,-11675,-3028,9106,2025-01-27 12:46:15,7.0
-13860,-1736,12380,-11170,-3416,10209,2025-01-27 12:46:15,7.0
-11956,-1728,10044,-11523,-2169,9085,2025-01-27 12:46:15,7.0
-11176,-3316,10512,-12215,-210,6694,2025-01-27 12:46:15,7.0
-11464,-4852,10248,-13033,-267,5230,2025-01-27 12:46:15,7.0
-11608,-5880,10148,-14307,-880,4758,2025-01-27 12:46:15,7.0
-11268,-6016,11008,-15243,-1483,4834,2025-01-27 12:46:15,7.0
-10220,-4800,10756,-15809,-1964,4759,2025-01-27 12:46:15,7.0
-9608,-4160,11028,-15900,-1691,4268,2025-01-27 12:46:15,7.0
-9196,-3796,10632,-16265,-1906,4600,2025-01-27 12:46:15,7.0
-8668,-3680,10420,-16437,-2620,4805,2025-01-27 12:46:15,7.0
-8980,-3964,10204,-16588,-3619,4949,2025-01-27 12:46:15,7.0
-9824,-4448,9936,-16873,-4572,5521,2025-01-27 12:46:15,7.0
-10060,-5060,10160,-17280,-5176,6149,2025-01-27 12:46:15,7.0
-10520,-5460,10216,-17701,-5689,6837,2025-01-27 12:46:15,7.0
-11392,-5776,10252,-18137,-5963,7524,2025-01-27 12:46:15,7.0
-11976,-5172,10540,-18447,-5824,8041,2025-01-27 12:46:15,7.0
-12636,-4432,10368,-18653,-5024,8438,2025-01-27 12:46:15,7.0
-12452,-3860,10584,-18757,-3449,9062,2025-01-27 12:46:15,7.0
-11688,-3408,10784,-18548,-2399,9337,2025-01-27 12:46:15,7.0
-11032,-3752,11124,-18125,-1494,9528,2025-01-27 12:46:15,7.0
-10212,-3776,11088,-17596,-1685,9346,2025-01-27 12:46:15,7.0
-10484,-3772,11364,-16907,-2011,8898,2025-01-27 12:46:15,7.0
-10980,-3224,10664,-16029,-1900,8524,2025-01-27 12:46:15,7.0
-11444,-2672,9856,-15182,-1485,8337,2025-01-27 12:46:15,7.0
-11676,-2716,9736,-14168,-1234,8473,2025-01-27 12:46:15,7.0
-11372,-3524,9956,-13089,-1249,8357,2025-01-27 12:46:15,7.0
-11500,-4196,10360,-11690,-1202,7915,2025-01-27 12:46:15,7.0
-11640,-4388,9924,-10654,-765,7560,2025-01-27 12:46:15,7.0
-11292,-4756,9444,-9922,-158,7320,2025-01-27 12:46:15,7.0
-11516,-4432,8884,-9184,413,7207,2025-01-27 12:46:15,7.0
-11528,-4392,8776,-8391,690,7245,2025-01-27 12:46:15,7.0
-10924,-4360,8532,-7687,639,7169,2025-01-27 12:46:15,7.0
-10676,-4396,9772,-7330,-374,6506,2025-01-27 12:46:15,7.0
-11664,-3836,11312,-6804,-2226,5322,2025-01-27 12:46:15,7.0
-13660,-3432,10516,-6435,-3304,4558,2025-01-27 12:46:16,7.0
-14632,-3204,9036,-6428,-2272,4217,2025-01-27 12:46:16,7.0
-15096,-3804,9124,-6131,204,4566,2025-01-27 12:46:16,7.0
-14552,-5196,9880,-5657,2202,6028,2025-01-27 12:46:16,7.0
-12552,-7168,10364,-5281,2267,7910,2025-01-27 12:46:16,7.0
-9132,-7072,10248,-6061,868,8887,2025-01-27 12:46:16,7.0
-7496,-5860,10976,-7143,-864,8674,2025-01-27 12:46:16,7.0
-6828,-3768,11612,-8319,-2300,7975,2025-01-27 12:46:16,7.0
-7088,-1884,11980,-9546,-2583,6797,2025-01-27 12:46:16,7.0
-8776,-148,11792,-10566,-2039,5998,2025-01-27 12:46:16,7.0
-11044,460,12148,-10616,-1444,6338,2025-01-27 12:46:16,7.0
-13340,64,12792,-10324,-1158,7780,2025-01-27 12:46:16,7.0
-14184,-392,12272,-10151,-1057,9479,2025-01-27 12:46:16,7.0
-13920,-396,12008,-10081,-309,10754,2025-01-27 12:46:16,7.0
-13088,40,11832,-10205,593,11204,2025-01-27 12:46:16,7.0
-12316,264,11572,-10319,1786,10991,2025-01-27 12:46:16,7.0
-11060,-32,10700,-10304,2604,10465,2025-01-27 12:46:16,7.0
-10024,-96,9720,-10248,2682,10249,2025-01-27 12:46:16,7.0
-9236,-424,9532,-10292,2395,10456,2025-01-27 12:46:16,7.0
-8884,-392,9356,-10898,1873,10835,2025-01-27 12:46:16,7.0
-8428,-680,9628,-11739,949,10589,2025-01-27 12:46:16,7.0
-9272,-1260,9616,-12444,129,9948,2025-01-27 12:46:16,7.0
-10884,-1908,9648,-13000,-122,9558,2025-01-27 12:46:16,7.0
-12196,-1580,9152,-13338,19,9588,2025-01-27 12:46:16,7.0
-12840,-716,9312,-13390,783,9917,2025-01-27 12:46:16,7.0
-11868,324,9020,-13162,1564,10044,2025-01-27 12:46:16,7.0
-10344,1436,9360,-12767,1935,9755,2025-01-27 12:46:16,7.0
-8436,2036,10028,-12109,1914,8749,2025-01-27 12:46:16,7.0
-7708,1588,10280,-11331,1303,7659,2025-01-27 12:46:16,7.0
-8160,1356,9708,-10929,128,6495,2025-01-27 12:46:16,7.0
-9100,1156,8968,-10826,-1316,5541,2025-01-27 12:46:16,7.0
-10876,1488,8620,-10843,-2340,5003,2025-01-27 12:46:16,7.0
-11892,1508,8640,-10599,-2322,4651,2025-01-27 12:46:16,7.0
-12580,1468,9140,-10290,-1530,4181,2025-01-27 12:46:16,7.0
-13280,1532,10488,-9840,-799,4012,2025-01-27 12:46:16,7.0
-14564,1540,11180,-9030,-422,4809,2025-01-27 12:46:16,7.0
-15400,940,11220,-8221,-662,5348,2025-01-27 12:46:16,7.0
-15368,280,9884,-7568,-1107,5355,2025-01-27 12:46:16,7.0
-16108,364,10180,-7083,-697,5239,2025-01-27 12:46:16,7.0
-15892,1048,9756,-6370,1003,5136,2025-01-27 12:46:16,7.0
-16280,1012,8368,-5902,2077,5211,2025-01-27 12:46:16,7.0
-17072,636,7684,-6159,2202,5862,2025-01-27 12:46:16,7.0
-18196,540,10072,-7367,1629,6882,2025-01-27 12:46:16,7.0
-18752,-528,12580,-7601,754,8041,2025-01-27 12:46:16,7.0
-18684,4,11920,-7130,690,8626,2025-01-27 12:46:16,7.0
-16304,1444,12036,-7174,3667,8341,2025-01-27 12:46:16,7.0
-10992,2836,14832,-7500,8079,6418,2025-01-27 12:46:16,7.0
-5020,4972,17592,-6851,10348,3151,2025-01-27 12:46:16,7.0
-2896,4788,18296,-4828,8813,596,2025-01-27 12:46:16,7.0
-4168,3788,15280,-3251,3941,-106,2025-01-27 12:46:16,7.0
-4176,1240,9532,-4106,-3681,-657,2025-01-27 12:46:16,7.0
-7980,-204,9892,-6245,-10335,-1806,2025-01-27 12:46:16,7.0
-10552,-624,12492,-6841,-12688,-2827,2025-01-27 12:46:16,0.0
-13132,332,14312,-4801,-9016,-3798,2025-01-27 12:46:16,0.0
-14084,1760,13436,-2792,-3249,-4327,2025-01-27 12:46:16,0.0
-13680,1932,12304,-2430,1821,-4321,2025-01-27 12:46:16,0.0
-11668,1152,11540,-2853,4004,-3675,2025-01-27 12:46:16,0.0
-8196,-260,11440,-2706,5226,-3297,2025-01-27 12:46:16,0.0
-5572,-1272,9924,-2314,4564,-3172,2025-01-27 12:46:16,0.0
-4720,-1784,9532,-2053,2383,-3858,2025-01-27 12:46:16,0.0
-5284,-1864,8484,-1956,448,-4571,2025-01-27 12:46:16,0.0
-6872,-1528,8536,-1847,-1333,-4978,2025-01-27 12:46:17,0.0
-8048,-1492,9832,-1360,-1853,-5566,2025-01-27 12:46:17,0.0
-10152,-976,9484,-1220,-303,-6855,2025-01-27 12:46:17,0.0
-12596,-1456,9264,-1093,1852,-6234,2025-01-27 12:46:17,0.0
-13828,-1712,8876,-761,3365,-3651,2025-01-27 12:46:17,0.0
-13036,-1136,8592,-140,4167,-713,2025-01-27 12:46:17,1.0
-10560,-776,7880,645,3809,721,2025-01-27 12:46:17,1.0
-10668,-412,8132,1759,3311,868,2025-01-27 12:46:17,1.0
-11220,52,8296,3173,2540,1152,2025-01-27 12:46:17,1.0
-10876,12,8928,4612,1508,1719,2025-01-27 12:46:17,1.0
-9760,-256,8944,6197,695,1542,2025-01-27 12:46:17,1.0
-9420,-880,7720,6486,-75,-45,2025-01-27 12:46:17,1.0
-11924,-1396,8152,6014,-874,-1963,2025-01-27 12:46:17,1.0
-15392,-1472,9908,5032,-2155,-3007,2025-01-27 12:46:17,1.0
-17352,-1764,10848,3933,-3051,-4084,2025-01-27 12:46:17,1.0
-18176,-3636,10368,2417,-2531,-6558,2025-01-27 12:46:17,1.0
-20068,-5420,8704,1542,347,-7751,2025-01-27 12:46:17,1.0
-19940,-6680,8792,1069,3434,-6335,2025-01-27 12:46:17,1.0
-18248,-3324,11516,471,2653,-4605,2025-01-27 12:46:17,1.0
-14120,-2720,14252,-421,4041,-4260,2025-01-27 12:46:17,1.0
-12240,-3764,15196,-1574,5650,-5345,2025-01-27 12:46:17,1.0
-12012,-4900,13812,-3054,5626,-5203,2025-01-27 12:46:17,1.0
-11964,-4476,12276,-4261,4740,-2688,2025-01-27 12:46:17,1.0
-9736,-2048,11924,-5028,2889,1565,2025-01-27 12:46:17,1.0
-6652,-1400,16600,-3592,11,3119,2025-01-27 12:46:17,1.0
-7540,100,16424,-499,-3514,2112,2025-01-27 12:46:17,1.0
-10592,1044,13708,109,-4829,2025,2025-01-27 12:46:17,1.0
-13092,712,12684,-163,-4222,3524,2025-01-27 12:46:17,1.0
-14508,-424,12680,-188,-3521,5283,2025-01-27 12:46:17,1.0
-14376,-1380,12040,-52,-2604,6422,2025-01-27 12:46:17,1.0
-12992,-1592,11388,-185,-1101,7048,2025-01-27 12:46:17,1.0
-10356,-1252,11024,-11,517,7526,2025-01-27 12:46:17,1.0
-7356,-352,10216,896,2484,7311,2025-01-27 12:46:17,1.0
-6200,724,9468,1641,3521,6849,2025-01-27 12:46:17,1.0
-4972,1904,8096,1405,2487,6465,2025-01-27 12:46:17,1.0
-4612,2208,7916,455,238,6069,2025-01-27 12:46:17,1.0
-20480,4596,11008,-3084,2054,5708,2025-01-27 12:46:17,1.0
-17412,3204,10036,-2522,6329,4467,2025-01-27 12:46:17,1.0
-15100,2848,10172,-3023,6050,3085,2025-01-27 12:46:17,1.0
-13644,2080,13832,-2919,4438,3880,2025-01-27 12:46:17,1.0
-13496,4628,16220,-1087,2683,3632,2025-01-27 12:46:17,1.0
-13248,7236,18832,2989,5629,4601,2025-01-27 12:46:17,1.0
-9460,6328,17036,5004,10576,3371,2025-01-27 12:46:17,1.0
-7092,1044,14224,4590,11165,-815,2025-01-27 12:46:17,1.0
-7112,-2104,13628,4066,8981,-4154,2025-01-27 12:46:18,1.0
-7784,-2392,13120,2863,4919,-4687,2025-01-27 12:46:18,1.0
-8760,-1708,12468,885,395,-3890,2025-01-27 12:46:18,1.0
-9220,-1600,12516,-993,-4369,-3445,2025-01-27 12:46:18,1.0
-9684,-1388,12728,-2066,-7607,-4376,2025-01-27 12:46:18,1.0
-11928,-516,13176,-1886,-8093,-5541,2025-01-27 12:46:18,1.0
-14296,1360,13656,-1031,-5285,-5761,2025-01-27 12:46:18,1.0
-13732,1500,14016,870,1197,-5219,2025-01-27 12:46:18,1.0
-10916,-384,12792,2260,6223,-5112,2025-01-27 12:46:18,1.0
-7648,-1312,10908,3408,7549,-4737,2025-01-27 12:46:18,1.0
-4876,-1976,9040,3176,5774,-4135,2025-01-27 12:46:18,1.0
-2684,-2272,8128,2464,2673,-4453,2025-01-27 12:46:18,1.0
-3864,-1328,8516,1918,-456,-5762,2025-01-27 12:46:18,1.0
-5244,-1024,8096,2164,-3340,-6384,2025-01-27 12:46:18,1.0
-7920,-888,8508,2799,-4230,-6910,2025-01-27 12:46:18,1.0
-10392,-544,7220,3106,-2897,-6877,2025-01-27 12:46:18,1.0
-13924,-204,6232,3189,243,-4516,2025-01-27 12:46:18,1.0
-13800,-552,5608,3408,2346,-1563,2025-01-27 12:46:18,1.0
-11564,-1060,5396,3669,3818,357,2025-01-27 12:46:18,1.0
-9252,-1196,6832,4070,4223,923,2025-01-27 12:46:18,1.0
-7560,-1196,7804,4595,2990,406,2025-01-27 12:46:18,1.0
-7060,-1300,7992,4893,458,-1152,2025-01-27 12:46:18,1.0
-9280,-1160,8176,4753,-2164,-3195,2025-01-27 12:46:18,1.0
-12128,-464,8172,4288,-4185,-4696,2025-01-27 12:46:18,1.0
-15300,28,8760,3785,-4722,-5821,2025-01-27 12:46:18,1.0
-18168,-992,9240,3403,-3827,-6732,2025-01-27 12:46:18,1.0
-20788,-3524,9232,2949,-1619,-7360,2025-01-27 12:46:18,1.0
-22552,-4768,8392,2850,1669,-5872,2025-01-27 12:46:18,1.0
-21036,-3432,5752,3313,2744,-2776,2025-01-27 12:46:18,1.0
-14028,-3248,7668,3498,2040,-2089,2025-01-27 12:46:18,1.0
-12424,-940,12964,4294,272,-4566,2025-01-27 12:46:18,1.0
-12008,-3584,16196,3612,355,-5852,2025-01-27 12:46:18,1.0
-11900,-5048,15284,198,583,-9324,2025-01-27 12:46:18,1.0
-14476,-6632,14608,-4164,582,-11525,2025-01-27 12:46:18,1.0
-17840,-8332,13976,-5676,1123,-8091,2025-01-27 12:46:18,1.0
-16156,-3260,12308,-5487,3107,2044,2025-01-27 12:46:18,1.0
-7548,-872,16956,-4648,3023,5880,2025-01-27 12:46:18,1.0
-4084,420,20648,-261,2790,3372,2025-01-27 12:46:18,1.0
-6552,2684,16324,2645,342,233,2025-01-27 12:46:18,1.0
-10744,1320,12420,1888,-3574,-133,2025-01-27 12:46:18,1.0
-13932,-2680,11172,1105,-6105,1436,2025-01-27 12:46:18,1.0
-15292,-4612,9432,384,-5521,3613,2025-01-27 12:46:18,1.0
-14784,-5080,8432,-849,-2309,5890,2025-01-27 12:46:18,1.0
-12436,-3440,8904,-1530,920,7839,2025-01-27 12:46:18,1.0
-8592,-1396,9756,-850,2910,8982,2025-01-27 12:46:18,1.0
-6368,520,10092,-164,3543,9423,2025-01-27 12:46:18,1.0
-3748,1784,9276,-152,2443,9125,2025-01-27 12:46:18,1.0
-2388,1176,8512,-699,-2446,6723,2025-01-27 12:46:18,1.0
-4400,408,6884,-1468,-5114,4501,2025-01-27 12:46:18,1.0
-9268,-20,7044,-2475,-6317,4117,2025-01-27 12:46:18,1.0
-11288,-320,7228,-3155,-4841,5096,2025-01-27 12:46:18,1.0
-10424,-552,7368,-3495,-2386,4920,2025-01-27 12:46:18,1.0
-9304,-32,7728,-3590,-747,3999,2025-01-27 12:46:18,1.0
-8344,548,8216,-3479,-433,3114,2025-01-27 12:46:18,1.0
-7464,1132,7924,-3663,-1260,2305,2025-01-27 12:46:18,1.0
-7056,1056,7460,-3952,-2894,1663,2025-01-27 12:46:18,1.0
-9092,132,7456,-4417,-4625,1312,2025-01-27 12:46:18,1.0
-11168,-660,7448,-5275,-4951,1148,2025-01-27 12:46:18,1.0
-13728,-604,8544,-6447,-4602,1238,2025-01-27 12:46:18,1.0
-16396,-232,10984,-7212,-3645,1899,2025-01-27 12:46:18,1.0
-18656,-380,13104,-6639,-2564,2850,2025-01-27 12:46:18,1.0
-20692,724,12768,-5305,-2310,4010,2025-01-27 12:46:18,1.0
-22360,3364,11824,-3547,-2449,6130,2025-01-27 12:46:18,1.0
-21732,5464,11120,-2203,-141,8333,2025-01-27 12:46:18,1.0
-16864,5176,10416,-1426,4122,8233,2025-01-27 12:46:19,1.0
-14840,2820,15888,-1228,4268,6297,2025-01-27 12:46:19,1.0
-16020,2488,16100,-230,-387,4201,2025-01-27 12:46:19,1.0
-17516,6000,16248,1926,478,5065,2025-01-27 12:46:19,1.0
-14344,6716,18156,4290,6252,5460,2025-01-27 12:46:19,1.0
-7252,5556,16528,4780,14189,2413,2025-01-27 12:46:19,1.0
-5244,1336,17784,6089,13135,-1010,2025-01-27 12:46:19,1.0
-3496,-1112,17336,5751,8370,-2156,2025-01-27 12:46:19,1.0
-3568,-3116,15708,4219,2422,-2806,2025-01-27 12:46:19,1.0
-5696,-3876,13072,2565,-5037,-3515,2025-01-27 12:46:19,1.0
-7808,-3140,10180,-109,-10272,-4907,2025-01-27 12:46:19,1.0
-10432,-1560,10300,-2205,-11262,-6136,2025-01-27 12:46:19,1.0
-14104,404,11248,-2143,-7660,-6679,2025-01-27 12:46:19,1.0
-15404,1776,11936,-910,-2146,-6789,2025-01-27 12:46:19,1.0
-13664,2280,11320,79,3468,-6430,2025-01-27 12:46:19,1.0
-10460,752,11784,1038,6860,-5631,2025-01-27 12:46:19,1.0
-6176,-416,9568,1927,8187,-4705,2025-01-27 12:46:19,1.0
-3144,-1128,8352,2529,7581,-4692,2025-01-27 12:46:19,1.0
-1296,-1144,6908,2361,4328,-4962,2025-01-27 12:46:19,1.0
-2276,-1372,6840,2168,-489,-6204,2025-01-27 12:46:19,1.0
-4844,-1852,6424,2115,-3314,-7587,2025-01-27 12:46:19,1.0
-9744,-2316,6828,1741,-3704,-8123,2025-01-27 12:46:19,1.0
-13964,-2540,6208,1194,-2430,-6317,2025-01-27 12:46:19,1.0
-16316,-3176,6316,741,-297,-2773,2025-01-27 12:46:19,1.0
-15084,-3472,5828,395,2461,429,2025-01-27 12:46:19,1.0
-12260,-1892,6480,137,4921,1822,2025-01-27 12:46:19,1.0
-9704,-516,8584,716,5782,1924,2025-01-27 12:46:19,1.0
-7992,560,9864,1899,4410,1495,2025-01-27 12:46:19,1.0
-7432,-320,9440,3570,1158,-127,2025-01-27 12:46:19,1.0
-9968,-1512,9160,3491,-1788,-1970,2025-01-27 12:46:19,1.0
-14248,-1040,10008,3120,-3879,-4571,2025-01-27 12:46:19,1.0
-18772,984,10060,2672,-5315,-7268,2025-01-27 12:46:19,1.0
-20676,-640,8436,935,-3057,-10200,2025-01-27 12:46:19,1.0
-23376,-3508,8740,725,1819,-10091,2025-01-27 12:46:19,1.0
