acceleration_x,acceleration_y,acceleration_z,gyroscope_x,gyroscope_y,gyroscope_z,timestamp,label
102.79999999999927,-22.799999999999955,204.39999999999964,-30.0,56.599999999999994,51.400000000000006,2025-01-27 12:45:45,0.0
10.799999999999272,-10.799999999999955,-63.600000000000364,1.0,14.599999999999994,14.400000000000006,2025-01-27 12:45:45,0.0
-117.20000000000073,-14.799999999999955,4.399999999999636,-8.0,-17.400000000000006,-13.599999999999994,2025-01-27 12:45:45,0.0
62.79999999999927,61.200000000000045,24.399999999999636,21.0,-49.400000000000006,17.400000000000006,2025-01-27 12:45:45,0.0
66.79999999999927,13.200000000000045,-15.600000000000364,-5.0,14.599999999999994,-11.599999999999994,2025-01-27 12:45:45,0.0
74.79999999999927,-90.79999999999995,0.3999999999996362,26.0,13.599999999999994,-31.599999999999994,2025-01-27 12:45:45,0.0
-5.200000000000728,-58.799999999999955,-7.600000000000364,39.0,48.599999999999994,-39.599999999999994,2025-01-27 12:45:45,0.0
-13.200000000000728,-18.799999999999955,-87.60000000000036,31.0,-9.400000000000006,-20.599999999999994,2025-01-27 12:45:45,0.0
-97.20000000000073,73.20000000000005,4.399999999999636,-48.0,-50.400000000000006,9.400000000000006,2025-01-27 12:45:45,0.0
-85.20000000000073,69.20000000000005,-63.600000000000364,-27.0,-21.400000000000006,24.400000000000006,2025-01-27 12:45:45,0.0
130.79999999999927,149.20000000000005,264.39999999999964,5.0,77.6,3.4000000000000057,2025-01-27 12:45:45,0.0
38.79999999999927,85.20000000000005,224.39999999999964,58.0,118.6,-49.599999999999994,2025-01-27 12:45:45,0.0
38.79999999999927,61.200000000000045,196.39999999999964,49.0,98.6,-53.599999999999994,2025-01-27 12:45:45,0.0
-81.20000000000073,141.20000000000005,36.399999999999636,66.0,98.6,-30.599999999999994,2025-01-27 12:45:45,0.0
-89.20000000000073,105.20000000000005,-119.60000000000036,71.0,143.6,20.400000000000006,2025-01-27 12:45:45,0.0
-53.20000000000073,177.20000000000005,108.39999999999964,80.0,146.6,11.400000000000006,2025-01-27 12:45:45,0.0
138.79999999999927,137.20000000000005,-115.60000000000036,158.0,112.6,25.400000000000006,2025-01-27 12:45:45,0.0
2.7999999999992724,153.20000000000005,36.399999999999636,101.0,70.6,44.400000000000006,2025-01-27 12:45:45,0.0
-49.20000000000073,133.20000000000005,104.39999999999964,90.0,36.599999999999994,34.400000000000006,2025-01-27 12:45:45,0.0
114.79999999999927,121.20000000000005,24.399999999999636,98.0,58.599999999999994,2.4000000000000057,2025-01-27 12:45:45,0.0
-17.200000000000728,133.20000000000005,108.39999999999964,82.0,147.6,17.400000000000006,2025-01-27 12:45:45,0.0
34.79999999999927,121.20000000000005,100.39999999999964,104.0,97.6,33.400000000000006,2025-01-27 12:45:45,0.0
-1.2000000000007276,69.20000000000005,88.39999999999964,80.0,19.599999999999994,1.4000000000000057,2025-01-27 12:45:45,0.0
-157.20000000000073,169.20000000000005,224.39999999999964,87.0,-2.4000000000000057,46.400000000000006,2025-01-27 12:45:45,0.0
-57.20000000000073,237.20000000000005,212.39999999999964,91.0,121.6,81.4,2025-01-27 12:45:45,0.0
-85.20000000000073,249.20000000000005,448.39999999999964,102.0,310.6,95.4,2025-01-27 12:45:45,0.0
-145.20000000000073,381.20000000000005,312.39999999999964,224.0,411.6,75.4,2025-01-27 12:45:45,0.0
10.799999999999272,537.2,240.39999999999964,304.0,422.6,91.4,2025-01-27 12:45:45,0.0
-53.20000000000073,873.2,424.39999999999964,514.0,467.6,98.4,2025-01-27 12:45:45,0.0
-193.20000000000073,1185.2,548.3999999999996,824.0,476.6,58.400000000000006,2025-01-27 12:45:45,0.0
-449.2000000000007,1709.2,720.3999999999996,1235.0,215.6,238.4,2025-01-27 12:45:45,0.0
-273.2000000000007,1949.2,1040.3999999999996,1800.0,-30.400000000000006,481.4,2025-01-27 12:45:45,0.0
-109.20000000000073,2325.2,1100.3999999999996,2274.0,-218.4,571.4,2025-01-27 12:45:45,0.0
-45.20000000000073,2589.2,1432.3999999999996,2778.0,-64.4,626.4,2025-01-27 12:45:45,0.0
-93.20000000000073,2697.2,1552.3999999999996,3505.0,362.6,480.4,2025-01-27 12:45:45,0.0
2.7999999999992724,2865.2,816.3999999999996,4184.0,635.6,274.4,2025-01-27 12:45:45,0.0
10.799999999999272,2781.2,16.399999999999636,4610.0,794.6,-51.599999999999994,2025-01-27 12:45:45,0.0
14.799999999999272,2657.2,-515.6000000000004,4842.0,797.6,-419.6,2025-01-27 12:45:45,0.0
-401.2000000000007,2193.2,-539.6000000000004,4965.0,509.6,-642.6,2025-01-27 12:45:45,0.0
-429.2000000000007,1749.2,-891.6000000000004,4963.0,212.6,-763.6,2025-01-27 12:45:45,0.0
198.79999999999927,1109.2,-599.6000000000004,4891.0,462.6,-712.6,2025-01-27 12:45:45,0.0
806.7999999999993,773.2,-1223.6000000000004,4868.0,316.6,-909.6,2025-01-27 12:45:45,0.0
1090.7999999999993,1089.2,-1611.6000000000004,4647.0,-184.4,-1166.6,2025-01-27 12:45:45,0.0
1006.7999999999993,1413.2,-1503.6000000000004,4402.0,-821.4,-1363.6,2025-01-27 12:45:45,0.0
982.7999999999993,1817.2,-1475.6000000000004,4291.0,-1434.4,-1608.6,2025-01-27 12:45:45,0.0
470.7999999999993,1873.2,-1419.6000000000004,4049.0,-1967.4,-1814.6,2025-01-27 12:45:45,0.0
242.79999999999927,1721.2,-1071.6000000000004,3791.0,-2052.4,-1900.6,2025-01-27 12:45:45,0.0
26.799999999999272,1797.2,-1243.6000000000004,3537.0,-1989.4,-1908.6,2025-01-27 12:45:45,0.0
-229.20000000000073,2025.2,-1019.6000000000004,3337.0,-2238.4,-1894.6,2025-01-27 12:45:45,0.0
-445.2000000000007,2521.2,-899.6000000000004,3204.0,-2341.4,-1842.6,2025-01-27 12:45:45,0.0
-625.2000000000007,2981.2,-803.6000000000004,3227.0,-2082.4,-1777.6,2025-01-27 12:45:45,0.0
-573.2000000000007,3425.2,-559.6000000000004,3405.0,-1672.4,-1726.6,2025-01-27 12:45:45,0.0
-457.2000000000007,3773.2,-203.60000000000036,3631.0,-1465.4,-1689.6,2025-01-27 12:45:45,0.0
-161.20000000000073,3973.2,-67.60000000000036,4004.0,-1372.4,-1657.6,2025-01-27 12:45:45,0.0
202.79999999999927,4021.2,80.39999999999964,4422.0,-1341.4,-1856.6,2025-01-27 12:45:45,0.0
290.7999999999993,4065.2,208.39999999999964,4870.0,-1002.4,-2088.6,2025-01-27 12:45:45,0.0
350.7999999999993,3917.2,-167.60000000000036,5377.0,-474.4,-2294.6,2025-01-27 12:45:45,0.0
66.79999999999927,3793.2,-719.6000000000004,5645.0,-361.4,-2367.6,2025-01-27 12:45:45,0.0
90.79999999999927,3265.2,-1043.6000000000004,5739.0,-38.400000000000006,-2445.6,2025-01-27 12:45:45,0.0
194.79999999999927,3077.2,-1691.6000000000004,5641.0,139.6,-2610.6,2025-01-27 12:45:45,0.0
390.7999999999993,2641.2,-2159.6000000000004,5215.0,13.599999999999994,-2686.6,2025-01-27 12:45:46,0.0
330.7999999999993,2509.2,-1983.6000000000004,4611.0,-794.4,-2590.6,2025-01-27 12:45:46,0.0
230.79999999999927,2905.2,-1191.6000000000004,3884.0,-1953.4,-2573.6,2025-01-27 12:45:46,0.0
-1145.2000000000007,3597.2,92.39999999999964,3279.0,-3277.4,-2299.6,2025-01-27 12:45:46,0.0
-1861.2000000000007,4001.2,192.39999999999964,3161.0,-4032.4,-1985.6,2025-01-27 12:45:46,0.0
-1261.2000000000007,4301.2,400.39999999999964,3595.0,-2776.4,-1868.6,2025-01-27 12:45:46,0.0
-549.2000000000007,4829.2,656.3999999999996,4075.0,-2438.4,-1831.6,2025-01-27 12:45:46,0.0
1234.7999999999993,5769.2,1828.3999999999996,4066.0,-3087.4,-1750.6,2025-01-27 12:45:46,0.0
2330.7999999999993,5597.2,3600.3999999999996,3136.0,-2209.4,-1896.6,2025-01-27 12:45:46,0.0
1986.7999999999993,3205.2,7988.4,3515.0,-577.4,-2505.6,2025-01-27 12:45:46,0.0
2226.7999999999993,1009.2,7416.4,5650.0,135.6,-2416.6,2025-01-27 12:45:46,0.0
2122.7999999999993,-2890.8,4188.4,6734.0,-1701.4,-2043.6,2025-01-27 12:45:46,0.0
1466.7999999999993,-7346.8,248.39999999999964,6369.0,-3198.4,-1897.6,2025-01-27 12:45:46,0.0
-997.2000000000007,-9874.8,40.399999999999636,4079.0,-3276.4,-1221.6,2025-01-27 12:45:46,0.0
-2397.2000000000007,-11126.8,2672.3999999999996,4294.0,-4383.4,-1057.6,2025-01-27 12:45:46,0.0
-1469.2000000000007,-10030.8,88.39999999999964,4454.0,-5661.4,-4122.6,2025-01-27 12:45:46,0.0
-4273.200000000001,-9826.8,-5663.6,1532.0,-4519.4,-9029.6,2025-01-27 12:45:46,0.0
-3605.2000000000007,-11094.8,-3483.6000000000004,-1727.0,974.6,-10964.6,2025-01-27 12:45:46,0.0
-5897.200000000001,-5814.8,-5055.6,-5390.0,2574.6,-10680.6,2025-01-27 12:45:46,0.0
-4809.200000000001,517.2,1556.3999999999996,-7994.0,1962.6,-8960.6,2025-01-27 12:45:46,0.0
-4545.200000000001,4833.2,5508.4,-4812.0,1731.6,-8846.6,2025-01-27 12:45:46,0.0
-4097.200000000001,9869.2,5584.4,-327.0,3013.6,-9520.6,2025-01-27 12:45:46,0.0
-617.2000000000007,11241.2,5856.4,3046.0,8653.6,-9920.6,2025-01-27 12:45:46,0.0
1026.7999999999993,9417.2,4144.4,7477.0,17404.6,-9535.6,2025-01-27 12:45:46,0.0
4930.799999999999,8765.2,-671.6000000000004,12238.0,12009.6,-8292.6,2025-01-27 12:45:46,0.0
9622.8,5085.2,-1647.6000000000004,12952.0,7561.6,-8606.6,2025-01-27 12:45:46,0.0
10054.8,1501.2,1332.3999999999996,13517.0,3882.6,-9655.6,2025-01-27 12:45:46,0.0
8374.8,-70.79999999999995,1924.3999999999996,14100.0,-398.4,-10677.6,2025-01-27 12:45:46,0.0
4422.799999999999,69.20000000000005,732.3999999999996,14314.0,-4929.4,-10562.6,2025-01-27 12:45:46,0.0
-177.20000000000073,453.20000000000005,-903.6000000000004,13973.0,-6895.4,-9723.6,2025-01-27 12:45:46,0.0
-4585.200000000001,393.20000000000005,-1295.6000000000004,13370.0,-5657.4,-8699.6,2025-01-27 12:45:46,0.0
-6637.200000000001,-894.8,-703.6000000000004,12797.0,-1734.4,-8166.6,2025-01-27 12:45:46,0.0
-7013.200000000001,-2210.8,480.39999999999964,12564.0,4636.6,-7389.6,2025-01-27 12:45:46,0.0
-7001.200000000001,-2122.8,728.3999999999996,13324.0,9786.6,-4669.6,2025-01-27 12:45:46,0.0
-3057.2000000000007,165.20000000000005,-2287.6000000000004,13608.0,11172.6,-1782.6,2025-01-27 12:45:46,0.0
2022.7999999999993,-322.79999999999995,-2591.6000000000004,13687.0,10836.6,-547.6,2025-01-27 12:45:46,0.0
4850.799999999999,-1318.8,568.3999999999996,14196.0,9484.6,-850.6,2025-01-27 12:45:46,0.0
6138.799999999999,-1874.8,1640.3999999999996,14601.0,5203.6,-3339.6,2025-01-27 12:45:46,0.0
3366.7999999999993,-802.8,4048.3999999999996,14149.0,505.6,-6472.6,2025-01-27 12:45:46,0.0
1058.7999999999993,1865.2,3500.3999999999996,13047.0,-2440.4,-8464.6,2025-01-27 12:45:46,
1082.7999999999993,1517.2,1836.3999999999996,11976.0,-1711.4,-9343.6,2025-01-27 12:45:46,0.0
1338.7999999999993,-1206.8,732.3999999999996,11526.0,308.6,-8843.6,2025-01-27 12:45:46,0.0
2082.7999999999993,-2662.8,1976.3999999999996,11414.0,434.6,-7822.6,2025-01-27 12:45:46,0.0
662.7999999999993,-2814.8,4424.4,12047.0,-2042.4,-6469.6,2025-01-27 12:45:46,0.0
-1621.2000000000007,-1526.8,4084.3999999999996,12608.0,-5097.4,-4619.6,2025-01-27 12:45:46,0.0
-3253.2000000000007,209.20000000000005,1896.3999999999996,13022.0,-5738.4,-3152.6,2025-01-27 12:45:46,0.0
-4017.2000000000007,1977.2,500.39999999999964,12461.0,-3883.4,-2506.6,2025-01-27 12:45:46,0.0
-4237.200000000001,2325.2,1692.3999999999996,11751.0,-1165.4,-1870.6,2025-01-27 12:45:46,0.0
-2553.2000000000007,1129.2,2576.3999999999996,12318.0,1368.6,-1191.6,2025-01-27 12:45:46,0.0
314.7999999999993,469.20000000000005,-143.60000000000036,12767.0,3203.6,-875.6,2025-01-27 12:45:46,0.0
2354.7999999999993,133.20000000000005,-2139.6000000000004,12394.0,3262.6,-845.6,2025-01-27 12:45:46,0.0
3066.7999999999993,517.2,-1703.6000000000004,11713.0,1822.6,-706.6,2025-01-27 12:45:46,0.0
4278.799999999999,1069.2,-1367.6000000000004,11273.0,126.6,-827.6,2025-01-27 12:45:46,0.0
3874.7999999999993,1949.2,-1239.6000000000004,10814.0,-1784.4,-1146.6,2025-01-27 12:45:46,0.0
2378.7999999999993,2461.2,-1247.6000000000004,10424.0,-2972.4,-1444.6,2025-01-27 12:45:46,0.0
910.7999999999993,1733.2,-1619.6000000000004,9832.0,-3088.4,-1667.6,2025-01-27 12:45:46,0.0
-325.2000000000007,65.20000000000005,-1575.6000000000004,8997.0,-2571.4,-1829.6,2025-01-27 12:45:46,0.0
-945.2000000000007,-1266.8,-1899.6000000000004,7963.0,-1928.4,-1728.6,2025-01-27 12:45:46,0.0
-1161.2000000000007,-1686.8,-2627.6000000000004,6595.0,-1097.4,-1461.6,2025-01-27 12:45:46,0.0
-1221.2000000000007,-1034.8,-2727.6000000000004,5023.0,-620.4,-795.6,2025-01-27 12:45:46,0.0
-413.2000000000007,5.2000000000000455,-3019.6000000000004,3668.0,-689.4,50.400000000000006,2025-01-27 12:45:47,0.0
-9.200000000000728,1225.2,-2231.6000000000004,2511.0,-786.4,491.4,2025-01-27 12:45:47,0.0
698.7999999999993,1553.2,-2047.6000000000004,1800.0,-705.4,727.4,2025-01-27 12:45:47,0.0
642.7999999999993,1973.2,-1907.6000000000004,1309.0,-931.4,692.4,2025-01-27 12:45:47,0.0
558.7999999999993,1809.2,-2311.6000000000004,532.0,-1279.4,665.4,2025-01-27 12:45:47,0.0
754.7999999999993,1681.2,-2851.6000000000004,-302.0,-1632.4,765.4,2025-01-27 12:45:47,0.0
162.79999999999927,2045.2,-2351.6000000000004,-1197.0,-1606.4,896.4,2025-01-27 12:45:47,0.0
-565.2000000000007,2877.2,-1791.6000000000004,-1902.0,-1977.4,996.4,2025-01-27 12:45:47,0.0
-1261.2000000000007,3589.2,-959.6000000000004,-2396.0,-2232.4,1081.4,2025-01-27 12:45:47,0.0
-1393.2000000000007,3741.2,-1471.6000000000004,-2583.0,-2105.4,1188.4,2025-01-27 12:45:47,0.0
-2129.2000000000007,3777.2,-1079.6000000000004,-2579.0,-1547.4,1352.4,2025-01-27 12:45:47,0.0
-2617.2000000000007,3797.2,-1467.6000000000004,-2675.0,-1164.4,1736.4,2025-01-27 12:45:47,0.0
-2581.2000000000007,4217.2,-1687.6000000000004,-2931.0,-1006.4,2242.4,2025-01-27 12:45:47,0.0
-2537.2000000000007,4397.2,-1739.6000000000004,-3168.0,-545.4,2499.4,2025-01-27 12:45:47,0.0
-3209.2000000000007,4805.2,-2319.6000000000004,-3426.0,-223.4,2811.4,2025-01-27 12:45:47,0.0
-3685.2000000000007,5013.2,-3563.6000000000004,-3665.0,-265.4,3278.4,2025-01-27 12:45:47,0.0
-2853.2000000000007,4885.2,-3051.6000000000004,-4130.0,592.6,3584.4,2025-01-27 12:45:47,0.0
-1877.2000000000007,4593.2,1968.3999999999996,-4280.0,1568.6,3838.4,2025-01-27 12:45:47,0.0
-2921.2000000000007,5085.2,6280.4,-3464.0,333.6,4463.4,2025-01-27 12:45:47,0.0
-5049.200000000001,5889.2,8808.4,-1144.0,-1494.4,6045.4,2025-01-27 12:45:47,0.0
-4089.2000000000007,5277.2,7420.4,2060.0,-270.4,7162.4,2025-01-27 12:45:47,0.0
1514.7999999999993,1629.2,2856.3999999999996,1318.0,6515.6,3695.4,2025-01-27 12:45:47,0.0
2494.7999999999993,-1798.8,5508.4,468.0,12923.6,-1080.6,2025-01-27 12:45:47,0.0
1990.7999999999993,-890.8,4380.4,1076.0,11115.6,-1508.6,2025-01-27 12:45:47,0.0
3114.7999999999993,-206.79999999999995,4636.4,-1049.0,6421.6,-390.6,2025-01-27 12:45:47,0.0
3930.7999999999993,-1478.8,6680.4,-2425.0,908.6,584.4,2025-01-27 12:45:47,0.0
4814.799999999999,-3242.8,5040.4,-2371.0,-3784.4,-304.6,2025-01-27 12:45:47,0.0
2802.7999999999993,-4718.8,4204.4,-2570.0,-4858.4,-1729.6,2025-01-27 12:45:47,0.0
214.79999999999927,-4674.8,2464.3999999999996,-3372.0,-4508.4,-2033.6,2025-01-27 12:45:47,0.0
-1521.2000000000007,-3582.8,1164.3999999999996,-4852.0,-3695.4,-1262.6,2025-01-27 12:45:47,0.0
-1125.2000000000007,-2278.8,1480.3999999999996,-5925.0,-2355.4,-1396.6,2025-01-27 12:45:47,0.0
334.7999999999993,-74.79999999999995,1484.3999999999996,-6288.0,-91.4,-2958.6,2025-01-27 12:45:47,0.0
526.7999999999993,857.2,656.3999999999996,-6393.0,1496.6,-3742.6,2025-01-27 12:45:47,0.0
266.7999999999993,977.2,220.39999999999964,-6542.0,2705.6,-2471.6,2025-01-27 12:45:47,0.0
1310.7999999999993,-146.79999999999995,112.39999999999964,-6322.0,3081.6,109.4,2025-01-27 12:45:47,0.0
3382.7999999999993,-1530.8,-987.6000000000004,-6022.0,1915.6,1949.4,2025-01-27 12:45:47,0.0
4530.799999999999,-2502.8,-1775.6000000000004,-6577.0,618.6,1486.4,2025-01-27 12:45:47,0.0
3558.7999999999993,-3094.8,-1715.6000000000004,-7163.0,-533.4,716.4,2025-01-27 12:45:47,0.0
1858.7999999999993,-3090.8,-1459.6000000000004,-7670.0,-1497.4,987.4,2025-01-27 12:45:47,0.0
886.7999999999993,-2786.8,-1623.6000000000004,-8394.0,-2204.4,1990.4,2025-01-27 12:45:47,0.0
866.7999999999993,-2290.8,-2307.6000000000004,-8948.0,-2355.4,2902.4,2025-01-27 12:45:47,0.0
930.7999999999993,-1550.8,-1175.6000000000004,-9171.0,-1814.4,3450.4,2025-01-27 12:45:47,0.0
914.7999999999993,-1010.8,-431.60000000000036,-8707.0,-968.4,3890.4,2025-01-27 12:45:47,0.0
766.7999999999993,-782.8,-199.60000000000036,-7889.0,-303.4,4258.4,2025-01-27 12:45:47,0.0
1358.7999999999993,-1078.8,-679.6000000000004,-7242.0,-87.4,4562.4,2025-01-27 12:45:47,0.0
1342.7999999999993,-1326.8,-1239.6000000000004,-6493.0,157.6,4685.4,2025-01-27 12:45:47,0.0
838.7999999999993,-1270.8,-899.6000000000004,-5958.0,526.6,4859.4,2025-01-27 12:45:47,0.0
218.79999999999927,-1090.8,-1103.6000000000004,-5499.0,1195.6,5078.4,2025-01-27 12:45:47,0.0
-1109.2000000000007,-1202.8,-735.6000000000004,-4986.0,2481.6,5229.4,2025-01-27 12:45:47,0.0
-521.2000000000007,-1494.8,-2083.6000000000004,-4419.0,4915.6,5474.4,2025-01-27 12:45:47,0.0
798.7999999999993,-2418.8,-1571.6000000000004,-3869.0,7064.6,5867.4,2025-01-27 12:45:47,0.0
3098.7999999999993,-3278.8,-439.60000000000036,-3048.0,7485.6,5317.4,2025-01-27 12:45:47,0.0
4554.799999999999,-2390.8,-447.60000000000036,-2150.0,6062.6,3337.4,2025-01-27 12:45:47,0.0
2494.7999999999993,69.20000000000005,-979.6000000000004,-1454.0,2133.6,1235.4,2025-01-27 12:45:47,0.0
-849.2000000000007,1205.2,-1651.6000000000004,-894.0,-2626.4,419.4,2025-01-27 12:45:47,0.0
-4397.200000000001,1977.2,-1699.6000000000004,-480.0,-5706.4,291.4,2025-01-27 12:45:47,0.0
-6281.200000000001,-334.79999999999995,-2727.6000000000004,-626.0,-5383.4,-21.599999999999994,2025-01-27 12:45:47,0.0
-8113.200000000001,-5690.8,-4115.6,-1458.0,-1339.4,-1091.6,2025-01-27 12:45:47,0.0
-9997.2,-8750.8,-3027.6000000000004,-2246.0,2741.6,-433.6,2025-01-27 12:45:47,0.0
-8149.200000000001,-9550.8,-7.600000000000364,-3377.0,4067.6,1473.4,2025-01-27 12:45:47,0.0
-6049.200000000001,-6578.8,2924.3999999999996,-4843.0,2676.6,3940.4,2025-01-27 12:45:47,0.0
-2441.2000000000007,-4630.8,5476.4,-5635.0,1409.6,4707.4,2025-01-27 12:45:48,0.0
110.79999999999927,-2634.8,5412.4,-6275.0,287.6,3942.4,2025-01-27 12:45:48,0.0
1638.7999999999993,-2954.8,4920.4,-7728.0,447.6,2773.4,2025-01-27 12:45:48,0.0
1706.7999999999993,-4866.8,3872.3999999999996,-10038.0,-1743.4,2778.4,2025-01-27 12:45:48,0.0
2702.7999999999993,-5958.8,3928.3999999999996,-11667.0,-3231.4,3551.4,2025-01-27 12:45:48,0.0
2982.7999999999993,-4478.8,5184.4,-11657.0,-1382.4,4637.4,2025-01-27 12:45:48,0.0
2358.7999999999993,-358.79999999999995,4304.4,-10437.0,941.6,5926.4,2025-01-27 12:45:48,0.0
1522.7999999999993,2893.2,1928.3999999999996,-8715.0,2809.6,7795.4,2025-01-27 12:45:48,0.0
1058.7999999999993,3605.2,1080.3999999999996,-7542.0,3334.6,9862.4,2025-01-27 12:45:48,0.0
1334.7999999999993,1357.2,2116.3999999999996,-7182.0,2431.6,11231.4,2025-01-27 12:45:48,0.0
782.7999999999993,-1542.8,2592.3999999999996,-7274.0,840.6,12060.4,2025-01-27 12:45:48,0.0
1726.7999999999993,-4522.8,612.3999999999996,-9073.0,-332.4,11872.4,2025-01-27 12:45:48,0.0
2562.7999999999993,-5514.8,-135.60000000000036,-11530.0,585.6,11282.4,2025-01-27 12:45:48,0.0
2810.7999999999993,-4982.8,-1051.6000000000004,-13796.0,3276.6,11604.4,2025-01-27 12:45:48,0.0
2606.7999999999993,-2278.8,-1123.6000000000004,-15716.0,3523.6,13121.4,2025-01-27 12:45:48,0.0
4210.799999999999,221.20000000000005,496.39999999999964,-16887.0,1334.6,13677.4,2025-01-27 12:45:48,0.0
4578.799999999999,2345.2,860.3999999999996,-16511.0,-4.400000000000006,13279.4,2025-01-27 12:45:48,0.0
3962.7999999999993,3541.2,636.3999999999996,-15517.0,-649.4,12563.4,2025-01-27 12:45:48,0.0
3202.7999999999993,3469.2,-23.600000000000364,-14638.0,-396.4,11751.4,2025-01-27 12:45:48,
1710.7999999999993,1797.2,232.39999999999964,-14011.0,-384.4,10539.4,2025-01-27 12:45:48,0.0
1074.7999999999993,1513.2,500.39999999999964,-13367.0,237.6,9889.4,2025-01-27 12:45:48,0.0
1138.7999999999993,1921.2,24.399999999999636,-12359.0,2390.6,9089.4,2025-01-27 12:45:48,0.0
1802.7999999999993,2801.2,-43.600000000000364,-11739.0,3526.6,8250.4,2025-01-27 12:45:48,0.0
3478.7999999999993,3333.2,-299.60000000000036,-11231.0,3319.6,7184.4,2025-01-27 12:45:48,0.0
4074.7999999999993,3517.2,588.3999999999996,-10560.0,2100.6,5872.4,2025-01-27 12:45:48,0.0
4894.799999999999,3629.2,-843.6000000000004,-9927.0,-323.4,4521.4,2025-01-27 12:45:48,0.0
2834.7999999999993,3189.2,-1367.6000000000004,-9341.0,-2466.4,3685.4,2025-01-27 12:45:48,0.0
614.7999999999993,2669.2,-1915.6000000000004,-8737.0,-3505.4,3432.4,2025-01-27 12:45:48,0.0
-2693.2000000000007,2041.2,-1415.6000000000004,-8685.0,-2810.4,3842.4,2025-01-27 12:45:48,0.0
-5021.200000000001,1505.2,-1071.6000000000004,-8846.0,-1478.4,4399.4,2025-01-27 12:45:48,0.0
-6021.200000000001,357.20000000000005,256.39999999999964,-8762.0,-65.4,5040.4,2025-01-27 12:45:48,0.0
-5521.200000000001,-182.79999999999995,876.3999999999996,-8590.0,1054.6,5624.4,2025-01-27 12:45:48,0.0
-4953.200000000001,225.20000000000005,164.39999999999964,-8643.0,1402.6,6075.4,2025-01-27 12:45:48,0.0
-5217.200000000001,593.2,-1459.6000000000004,-8725.0,897.6,6448.4,2025-01-27 12:45:48,0.0
-6585.200000000001,-666.8,-4091.6000000000004,-9419.0,731.6,7239.4,2025-01-27 12:45:48,0.0
-6025.200000000001,-2586.8,-6019.6,-10655.0,1990.6,7675.4,2025-01-27 12:45:48,0.0
-5073.200000000001,-1750.8,-1355.6000000000004,-12489.0,4247.6,7940.4,2025-01-27 12:45:48,0.0
-5601.200000000001,-122.79999999999995,6204.4,-12815.0,5219.6,8722.4,2025-01-27 12:45:48,0.0
-5993.200000000001,4553.2,8256.4,-9478.0,3496.6,9988.4,2025-01-27 12:45:48,0.0
-3377.2000000000007,8957.2,10940.4,-5804.0,4617.6,11882.4,2025-01-27 12:45:48,0.0
6210.799999999999,10373.2,11356.4,-3139.0,10388.6,9549.4,2025-01-27 12:45:48,0.0
9306.8,6817.2,10776.4,-1573.0,13180.6,1709.4,2025-01-27 12:45:48,0.0
8230.8,3185.2,7344.4,199.0,5750.6,-1774.6,2025-01-27 12:45:48,0.0
6346.799999999999,5.2000000000000455,2444.3999999999996,-1025.0,-2723.4,-2019.6,2025-01-27 12:45:48,0.0
4666.799999999999,-2178.8,-1751.6000000000004,-4976.0,-10799.4,-2035.6,2025-01-27 12:45:48,0.0
2210.7999999999993,-3994.8,-1395.6000000000004,-8615.0,-13611.4,-3304.6,2025-01-27 12:45:48,0.0
-2397.2000000000007,-4458.8,948.3999999999996,-9377.0,-10999.4,-4836.6,2025-01-27 12:45:48,0.0
-5325.200000000001,-1826.8,2372.3999999999996,-7571.0,-5023.4,-5552.6,2025-01-27 12:45:48,0.0
-5417.200000000001,2101.2,2552.3999999999996,-7247.0,849.6,-5155.6,2025-01-27 12:45:48,0.0
-501.2000000000007,2185.2,2964.3999999999996,-6945.0,6762.6,-4524.6,2025-01-27 12:45:48,0.0
-513.2000000000007,1369.2,2324.3999999999996,-4611.0,9961.6,-4209.6,2025-01-27 12:45:48,0.0
4110.799999999999,565.2,-775.6000000000004,-4680.0,8507.6,-3424.6,2025-01-27 12:45:48,0.0
6438.799999999999,-390.79999999999995,-1071.6000000000004,-4861.0,6529.6,-2289.6,2025-01-27 12:45:48,0.0
8102.799999999999,-846.8,-1391.6000000000004,-4859.0,2906.6,-1572.6,2025-01-27 12:45:48,0.0
9078.8,-1194.8,-1859.6000000000004,-4867.0,-854.4,-1790.6,2025-01-27 12:45:48,0.0
6838.799999999999,-1610.8,-1995.6000000000004,-4613.0,-3907.4,-3336.6,2025-01-27 12:45:48,0.0
2462.7999999999993,-1558.8,-2147.6000000000004,-4142.0,-4048.4,-4726.6,2025-01-27 12:45:48,0.0
-2689.2000000000007,-706.8,-2131.6000000000004,-3633.0,-2046.4,-4360.6,2025-01-27 12:45:48,0.0
-4805.200000000001,-714.8,-747.6000000000004,-3074.0,-265.4,-1544.6,2025-01-27 12:45:48,0.0
-1957.2000000000007,-746.8,-2435.6000000000004,-2228.0,1267.6,1823.4,2025-01-27 12:45:48,0.0
1422.7999999999993,-66.79999999999995,-3295.6000000000004,-1521.0,3149.6,2752.4,2025-01-27 12:45:48,0.0
2062.7999999999993,285.20000000000005,-3423.6000000000004,-638.0,3856.6,2533.4,2025-01-27 12:45:48,0.0
1386.7999999999993,493.20000000000005,-3779.6000000000004,-133.0,4047.6,2296.4,2025-01-27 12:45:48,0.0
-485.2000000000007,53.200000000000045,-2855.6000000000004,1005.0,5163.6,2351.4,2025-01-27 12:45:49,0.0
-49.20000000000073,-1226.8,-1847.6000000000004,1571.0,5949.6,3166.4,2025-01-27 12:45:49,0.0
2178.7999999999993,-2606.8,604.3999999999996,1913.0,5755.6,2381.4,2025-01-27 12:45:49,0.0
3218.7999999999993,-2142.8,-147.60000000000036,2022.0,4435.6,-130.6,2025-01-27 12:45:49,0.0
1178.7999999999993,-146.79999999999995,-2371.6000000000004,1403.0,162.6,-2324.6,2025-01-27 12:45:49,0.0
-1181.2000000000007,1.2000000000000455,-5167.6,-294.0,-5382.4,-3871.6,2025-01-27 12:45:49,0.0
-2845.2000000000007,-6.7999999999999545,-4923.6,-1214.0,-5822.4,-6326.6,2025-01-27 12:45:49,0.0
-4133.200000000001,-1862.8,-1779.6000000000004,-1732.0,-1977.4,-8758.6,2025-01-27 12:45:49,0.0
-7945.200000000001,-4678.8,4872.4,-578.0,1451.6,-9689.6,2025-01-27 12:45:49,0.0
-8493.2,-5714.8,5308.4,-46.0,3979.6,-6441.6,2025-01-27 12:45:49,0.0
-4513.200000000001,-6458.8,4616.4,-3264.0,5129.6,-4904.6,2025-01-27 12:45:49,0.0
-1889.2000000000007,-5410.8,4560.4,-6624.0,5569.6,-5606.6,2025-01-27 12:45:49,0.0
-2093.2000000000007,-3582.8,5128.4,-7303.0,5183.6,-4883.6,2025-01-27 12:45:49,0.0
-2549.2000000000007,-1418.8,4712.4,-6269.0,4792.6,-934.6,2025-01-27 12:45:49,0.0
306.7999999999993,309.20000000000005,5228.4,-4371.0,3616.6,3302.4,2025-01-27 12:45:49,0.0
3158.7999999999993,749.2,4928.4,-1074.0,2621.6,3114.4,2025-01-27 12:45:49,0.0
974.7999999999993,1469.2,4296.4,828.0,-437.4,2354.4,2025-01-27 12:45:49,0.0
-1245.2000000000007,769.2,3604.3999999999996,1148.0,-3096.4,2828.4,2025-01-27 12:45:49,0.0
-2549.2000000000007,-1102.8,3404.3999999999996,428.0,-4661.4,3331.4,2025-01-27 12:45:49,0.0
-3437.2000000000007,-3222.8,2412.3999999999996,-388.0,-4711.4,3193.4,2025-01-27 12:45:49,0.0
-4145.200000000001,-3034.8,744.3999999999996,-1232.0,-2811.4,3700.4,2025-01-27 12:45:49,0.0
-2805.2000000000007,-1762.8,-427.60000000000036,-1889.0,620.6,5584.4,2025-01-27 12:45:49,0.0
-77.20000000000073,-450.79999999999995,416.39999999999964,-1613.0,3033.6,7182.4,2025-01-27 12:45:49,0.0
2846.7999999999993,609.2,628.3999999999996,-988.0,3241.6,7746.4,2025-01-27 12:45:49,0.0
5038.799999999999,1093.2,768.3999999999996,-663.0,1568.6,7571.4,2025-01-27 12:45:49,0.0
6858.799999999999,681.2,-211.60000000000036,-770.0,-703.4,6965.4,2025-01-27 12:45:49,0.0
6610.799999999999,109.20000000000005,-1435.6000000000004,-1194.0,-2413.4,6394.4,2025-01-27 12:45:49,0.0
5702.799999999999,-370.79999999999995,-2703.6000000000004,-1972.0,-3850.4,5795.4,2025-01-27 12:45:49,0.0
3822.7999999999993,-194.79999999999995,-3151.6000000000004,-2952.0,-4775.4,5395.4,2025-01-27 12:45:49,0.0
2742.7999999999993,261.20000000000005,-2767.6000000000004,-3605.0,-4681.4,5377.4,2025-01-27 12:45:49,0.0
2242.7999999999993,1001.2,-2411.6000000000004,-3835.0,-2846.4,4992.4,2025-01-27 12:45:49,0.0
2406.7999999999993,1629.2,-2075.6000000000004,-3883.0,-814.4,4116.4,2025-01-27 12:45:49,0.0
2598.7999999999993,2197.2,-2071.6000000000004,-3799.0,316.6,2962.4,2025-01-27 12:45:49,0.0
2566.7999999999993,2217.2,-2495.6000000000004,-3539.0,890.6,1832.4,2025-01-27 12:45:49,0.0
3670.7999999999993,1749.2,-2435.6000000000004,-3362.0,650.6,1313.4,2025-01-27 12:45:49,0.0
4662.799999999999,1677.2,-1947.6000000000004,-3338.0,-277.4,887.4,2025-01-27 12:45:49,0.0
5098.799999999999,2129.2,-1283.6000000000004,-3449.0,-2227.4,162.4,2025-01-27 12:45:49,0.0
4114.799999999999,2489.2,-27.600000000000364,-3395.0,-4637.4,-549.6,2025-01-27 12:45:49,0.0
1790.7999999999993,2305.2,612.3999999999996,-3167.0,-6390.4,-712.6,2025-01-27 12:45:49,0.0
-961.2000000000007,1781.2,1112.3999999999996,-2900.0,-6838.4,-225.6,2025-01-27 12:45:49,0.0
-4129.200000000001,841.2,1104.3999999999996,-2436.0,-5641.4,409.4,2025-01-27 12:45:49,0.0
-6593.200000000001,829.2,244.39999999999964,-1941.0,-3030.4,1580.4,2025-01-27 12:45:49,0.0
-6321.200000000001,1841.2,-243.60000000000036,-2123.0,-756.4,2587.4,2025-01-27 12:45:49,0.0
-5297.200000000001,2577.2,-167.60000000000036,-2534.0,875.6,2775.4,2025-01-27 12:45:49,0.0
-3425.2000000000007,2773.2,-539.6000000000004,-2781.0,2045.6,2481.4,2025-01-27 12:45:49,0.0
-2137.2000000000007,1673.2,-2615.6000000000004,-3240.0,1766.6,2457.4,2025-01-27 12:45:49,0.0
-2181.2000000000007,1741.2,-3435.6000000000004,-4442.0,790.6,2585.4,2025-01-27 12:45:49,0.0
-3509.2000000000007,1793.2,2600.3999999999996,-4867.0,-685.4,3333.4,2025-01-27 12:45:49,0.0
-4681.200000000001,3525.2,3216.3999999999996,-3125.0,-2479.4,3727.4,2025-01-27 12:45:49,0.0
-4221.200000000001,5533.2,4716.4,-380.0,-336.4,3230.4,2025-01-27 12:45:49,0.0
-3085.2000000000007,7189.2,5892.4,1584.0,4063.6,2690.4,2025-01-27 12:45:49,0.0
-725.2000000000007,6225.2,5820.4,2452.0,8873.6,1713.4,2025-01-27 12:45:49,0.0
322.7999999999993,2413.2,4536.4,3151.0,8829.6,682.4,2025-01-27 12:45:49,0.0
2534.7999999999993,-890.8,3272.3999999999996,2537.0,7293.6,526.4,2025-01-27 12:45:49,0.0
3738.7999999999993,-2466.8,3500.3999999999996,1393.0,5705.6,590.4,2025-01-27 12:45:49,0.0
5626.799999999999,-4298.8,2860.3999999999996,178.0,3433.6,72.4,2025-01-27 12:45:49,
5110.799999999999,-5322.8,1440.3999999999996,-1043.0,-688.4,-844.6,2025-01-27 12:45:49,0.0
2954.7999999999993,-4538.8,448.39999999999964,-2570.0,-4672.4,-1506.6,2025-01-27 12:45:49,0.0
654.7999999999993,-2310.8,172.39999999999964,-4265.0,-7238.4,-2073.6,2025-01-27 12:45:49,0.0
-2009.2000000000007,333.20000000000005,1600.3999999999996,-4424.0,-7000.4,-2384.6,2025-01-27 12:45:49,0.0
-3425.2000000000007,2057.2,2124.3999999999996,-2394.0,-2747.4,-3128.6,2025-01-27 12:45:49,0.0
-2945.2000000000007,2045.2,2168.3999999999996,-963.0,3512.6,-4440.6,2025-01-27 12:45:50,0.0
-1921.2000000000007,1657.2,1732.3999999999996,-202.0,7677.6,-4627.6,2025-01-27 12:45:50,0.0
274.7999999999993,1189.2,968.3999999999996,426.0,7299.6,-3511.6,2025-01-27 12:45:50,0.0
4250.799999999999,573.2,-79.60000000000036,1025.0,5573.6,-2499.6,2025-01-27 12:45:50,0.0
7254.799999999999,-122.79999999999995,-1571.6000000000004,1594.0,3324.6,-3123.6,2025-01-27 12:45:50,0.0
7242.799999999999,-1274.8,-1915.6000000000004,1715.0,763.6,-4206.6,2025-01-27 12:45:50,0.0
5566.799999999999,-1622.8,-2387.6000000000004,1527.0,-1998.4,-5474.6,2025-01-27 12:45:50,0.0
2846.7999999999993,-1978.8,-1923.6000000000004,1780.0,-3386.4,-5973.6,2025-01-27 12:45:50,0.0
610.7999999999993,-2066.8,-2219.6000000000004,1939.0,-3270.4,-5508.6,2025-01-27 12:45:50,0.0
-781.2000000000007,-2058.8,-2595.6000000000004,1805.0,-2380.4,-4337.6,2025-01-27 12:45:50,0.0
-1253.2000000000007,-1878.8,-2227.6000000000004,1886.0,-350.4,-2469.6,2025-01-27 12:45:50,0.0
-197.20000000000073,-1462.8,-2627.6000000000004,2150.0,1796.6,-945.6,2025-01-27 12:45:50,0.0
1434.7999999999993,-834.8,-2723.6000000000004,2552.0,2717.6,-384.6,2025-01-27 12:45:50,0.0
1862.7999999999993,-122.79999999999995,-2827.6000000000004,3209.0,2548.6,-152.6,2025-01-27 12:45:50,0.0
1842.7999999999993,245.20000000000005,-2867.6000000000004,4000.0,1875.6,-49.599999999999994,2025-01-27 12:45:50,0.0
1326.7999999999993,349.20000000000005,-3135.6000000000004,4560.0,1124.6,145.4,2025-01-27 12:45:50,0.0
886.7999999999993,149.20000000000005,-1759.6000000000004,4840.0,303.6,192.4,2025-01-27 12:45:50,0.0
1302.7999999999993,-326.79999999999995,-1419.6000000000004,5125.0,-444.4,-764.6,2025-01-27 12:45:50,0.0
562.7999999999993,-1082.8,-947.6000000000004,5549.0,-1026.4,-2216.6,2025-01-27 12:45:50,0.0
-1137.2000000000007,-1478.8,-483.60000000000036,5643.0,-1635.4,-3488.6,2025-01-27 12:45:50,0.0
-2405.2000000000007,-1722.8,-615.6000000000004,5201.0,-2283.4,-4612.6,2025-01-27 12:45:50,0.0
-3725.2000000000007,-2010.8,-735.6000000000004,4447.0,-2721.4,-5548.6,2025-01-27 12:45:50,0.0
-4549.200000000001,-2566.8,-1259.6000000000004,4237.0,-2268.4,-6354.6,2025-01-27 12:45:50,0.0
-5009.200000000001,-2678.8,-2631.6000000000004,4450.0,-599.4,-6728.6,2025-01-27 12:45:50,0.0
-5361.200000000001,-2914.8,-1399.6000000000004,3993.0,821.6,-6537.6,2025-01-27 12:45:50,0.0
-5445.200000000001,-1894.8,672.3999999999996,3240.0,11.599999999999994,-7267.6,2025-01-27 12:45:50,0.0
-5485.200000000001,-3438.8,1276.3999999999996,2080.0,1345.6,-7887.6,2025-01-27 12:45:50,0.0
-6561.200000000001,-6054.8,1276.3999999999996,626.0,2428.6,-7593.6,2025-01-27 12:45:50,0.0
-7361.200000000001,-8046.8,1252.3999999999996,-898.0,2914.6,-5398.6,2025-01-27 12:45:50,0.0
-6505.200000000001,-6102.8,1060.3999999999996,-1324.0,3442.6,-1685.6,2025-01-27 12:45:50,0.0
-2137.2000000000007,-1982.8,636.3999999999996,-1907.0,4723.6,1381.4,2025-01-27 12:45:50,0.0
1598.7999999999993,-1102.8,3004.3999999999996,-1478.0,5771.6,3447.4,2025-01-27 12:45:50,0.0
5906.799999999999,-182.79999999999995,5248.4,-443.0,2874.6,3391.4,2025-01-27 12:45:50,0.0
7074.799999999999,1833.2,5636.4,846.0,-1711.4,1561.4,2025-01-27 12:45:50,0.0
4870.799999999999,3861.2,4784.4,1398.0,-5909.4,459.4,2025-01-27 12:45:50,0.0
1218.7999999999993,3825.2,4072.3999999999996,1827.0,-8080.4,621.4,2025-01-27 12:45:50,0.0
-1441.2000000000007,1177.2,2916.3999999999996,2838.0,-7461.4,1229.4,2025-01-27 12:45:50,0.0
-2789.2000000000007,-1030.8,664.3999999999996,3187.0,-5221.4,1784.4,2025-01-27 12:45:50,0.0
-3861.2000000000007,-1550.8,-975.6000000000004,2771.0,-2826.4,3336.4,2025-01-27 12:45:50,0.0
-2961.2000000000007,-1386.8,-251.60000000000036,2152.0,-1162.4,5510.4,2025-01-27 12:45:50,0.0
922.7999999999993,-1282.8,512.3999999999996,2462.0,639.6,6828.4,2025-01-27 12:45:50,0.0
3806.7999999999993,-674.8,-591.6000000000004,2763.0,1470.6,6631.4,2025-01-27 12:45:50,0.0
5722.799999999999,77.20000000000005,-2035.6000000000004,2390.0,1211.6,5713.4,2025-01-27 12:45:50,0.0
6050.799999999999,533.2,-3079.6000000000004,1483.0,-232.4,4978.4,2025-01-27 12:45:50,0.0
5378.799999999999,1309.2,-3035.6000000000004,394.0,-2237.4,4842.4,2025-01-27 12:45:50,0.0
5194.799999999999,1745.2,-2507.6000000000004,-231.0,-3752.4,4802.4,2025-01-27 12:45:50,0.0
4322.799999999999,1565.2,-1915.6000000000004,-408.0,-4548.4,4114.4,2025-01-27 12:45:50,0.0
3590.7999999999993,1305.2,-2091.6000000000004,-211.0,-4653.4,3107.4,2025-01-27 12:45:50,0.0
1934.7999999999993,1665.2,-3211.6000000000004,-190.0,-3403.4,1718.4,2025-01-27 12:45:50,0.0
1302.7999999999993,2105.2,-3087.6000000000004,-469.0,-1769.4,1097.4,2025-01-27 12:45:50,0.0
1206.7999999999993,2133.2,-2027.6000000000004,-465.0,-356.4,680.4,2025-01-27 12:45:50,0.0
1858.7999999999993,2125.2,-1811.6000000000004,-359.0,391.6,-37.599999999999994,2025-01-27 12:45:50,0.0
2250.7999999999993,1585.2,-2067.6000000000004,-518.0,903.6,-995.6,2025-01-27 12:45:50,0.0
2406.7999999999993,785.2,-1939.6000000000004,-811.0,908.6,-1409.6,2025-01-27 12:45:50,0.0
3126.7999999999993,153.20000000000005,-1807.6000000000004,-1371.0,258.6,-1646.6,2025-01-27 12:45:50,0.0
2878.7999999999993,-430.79999999999995,-1391.6000000000004,-2044.0,-1162.4,-2012.6,2025-01-27 12:45:50,0.0
758.7999999999993,9.200000000000045,-1371.6000000000004,-3015.0,-3286.4,-2055.6,2025-01-27 12:45:50,0.0
-3729.2000000000007,741.2,-311.60000000000036,-3705.0,-4321.4,-1031.6,2025-01-27 12:45:50,0.0
-7285.200000000001,-466.79999999999995,1708.3999999999996,-3762.0,-3460.4,1129.4,2025-01-27 12:45:50,0.0
-8621.2,-402.79999999999995,2360.3999999999996,-2506.0,-1682.4,3640.4,2025-01-27 12:45:50,0.0
-7925.200000000001,1733.2,152.39999999999964,-1846.0,615.6,5387.4,2025-01-27 12:45:50,0.0
-7005.200000000001,2429.2,-1999.6000000000004,-2146.0,2809.6,5942.4,2025-01-27 12:45:50,0.0
-5133.200000000001,-74.79999999999995,-2643.6000000000004,-3367.0,2326.6,4874.4,2025-01-27 12:45:51,0.0
-6229.200000000001,-62.799999999999955,956.3999999999996,-4788.0,379.6,4893.4,2025-01-27 12:45:51,0.0
-7197.200000000001,3005.2,3320.3999999999996,-5450.0,-673.4,6143.4,2025-01-27 12:45:51,0.0
-7133.200000000001,6229.2,6060.4,-3495.0,-1079.4,6975.4,2025-01-27 12:45:51,0.0
-5509.200000000001,9021.2,8436.4,660.0,1201.6,6854.4,2025-01-27 12:45:51,0.0
570.7999999999993,7761.2,6056.4,1723.0,7105.6,3638.4,2025-01-27 12:45:51,0.0
1986.7999999999993,3169.2,6684.4,1651.0,14036.6,-851.6,2025-01-27 12:45:51,0.0
2942.7999999999993,733.2,4676.4,3774.0,13779.6,-1342.6,2025-01-27 12:45:51,0.0
7026.799999999999,-670.8,2480.3999999999996,3345.0,11452.6,-679.6,2025-01-27 12:45:51,0.0
9734.8,-2006.8,1860.3999999999996,2195.0,5909.6,-458.6,2025-01-27 12:45:51,0.0
10522.8,-2530.8,1964.3999999999996,973.0,-1549.4,-1439.6,2025-01-27 12:45:51,0.0
6786.799999999999,-538.8,1464.3999999999996,-572.0,-8919.4,-3503.6,2025-01-27 12:45:51,0.0
2342.7999999999993,2365.2,1132.3999999999996,-1863.0,-14615.4,-5172.6,2025-01-27 12:45:51,0.0
-2245.2000000000007,3693.2,2564.3999999999996,-1350.0,-14975.4,-5361.6,2025-01-27 12:45:51,0.0
-3317.2000000000007,2561.2,1696.3999999999996,187.0,-10690.4,-5933.6,2025-01-27 12:45:51,0.0
-2369.2000000000007,977.2,456.39999999999964,761.0,-1214.4,-7233.6,2025-01-27 12:45:51,0.0
-657.2000000000007,-986.8,1880.3999999999996,829.0,8765.6,-7679.6,2025-01-27 12:45:51,0.0
438.7999999999993,-1758.8,408.39999999999964,3086.0,9502.6,-5688.6,2025-01-27 12:45:51,0.0
4666.799999999999,-1050.8,-1227.6000000000004,3041.0,6969.6,-3753.6,2025-01-27 12:45:51,0.0
8722.8,-526.8,-2615.6000000000004,2128.0,3753.6,-3826.6,2025-01-27 12:45:51,0.0
8382.8,13.200000000000045,-2023.6000000000004,2338.0,-3.4000000000000057,-4692.6,2025-01-27 12:45:51,0.0
6710.799999999999,-274.79999999999995,-2383.6000000000004,2872.0,-2906.4,-5495.6,2025-01-27 12:45:51,0.0
3026.7999999999993,-622.8,-3195.6000000000004,2766.0,-3717.4,-6055.6,2025-01-27 12:45:51,0.0
-485.2000000000007,-1686.8,-4431.6,2076.0,-2427.4,-5470.6,2025-01-27 12:45:51,0.0
-2669.2000000000007,-2694.8,-3523.6000000000004,1591.0,-64.4,-3554.6,2025-01-27 12:45:51,0.0
-2441.2000000000007,-3062.8,-2259.6000000000004,1838.0,2279.6,-845.6,2025-01-27 12:45:51,0.0
962.7999999999993,-1482.8,-2939.6000000000004,2256.0,3758.6,515.4,2025-01-27 12:45:51,0.0
2658.7999999999993,173.20000000000005,-2359.6000000000004,2905.0,3677.6,322.4,2025-01-27 12:45:51,0.0
3406.7999999999993,1621.2,-1691.6000000000004,3677.0,2246.6,-0.5999999999999943,2025-01-27 12:45:51,0.0
2686.7999999999993,2005.2,-1339.6000000000004,4648.0,639.6,-696.6,2025-01-27 12:45:51,0.0
990.7999999999993,249.20000000000005,-1307.6000000000004,5140.0,-443.4,-1473.6,2025-01-27 12:45:51,0.0
-1833.2000000000007,-1354.8,-391.60000000000036,4873.0,-1974.4,-2808.6,2025-01-27 12:45:51,0.0
-4045.2000000000007,-1974.8,232.39999999999964,3690.0,-3116.4,-4946.6,2025-01-27 12:45:51,
-6373.200000000001,-2406.8,1020.3999999999996,2448.0,-3251.4,-7156.6,2025-01-27 12:45:51,0.0
-7601.200000000001,-3582.8,-1039.6000000000004,1279.0,-999.4,-8220.6,2025-01-27 12:45:51,0.0
-8973.2,-4330.8,-2467.6000000000004,1318.0,1827.6,-7099.6,2025-01-27 12:45:51,0.0
-6765.200000000001,-3330.8,-3307.6000000000004,2141.0,3579.6,-4457.6,2025-01-27 12:45:51,0.0
-5013.200000000001,-2046.8,-1151.6000000000004,2640.0,1526.6,-3869.6,2025-01-27 12:45:51,0.0
-4449.200000000001,-1650.8,1720.3999999999996,3494.0,685.6,-3762.6,2025-01-27 12:45:51,0.0
-3801.2000000000007,-4518.8,2184.3999999999996,2783.0,2144.6,-4272.6,2025-01-27 12:45:51,0.0
-3581.2000000000007,-5910.8,2640.3999999999996,-166.0,3471.6,-5649.6,2025-01-27 12:45:51,0.0
-4389.200000000001,-6078.8,4052.3999999999996,-2970.0,4770.6,-5666.6,2025-01-27 12:45:51,0.0
-4977.200000000001,-4090.8,3920.3999999999996,-3600.0,5091.6,-2401.6,2025-01-27 12:45:51,0.0
-537.2000000000007,-246.79999999999995,1740.3999999999996,-4466.0,3608.6,3098.4,2025-01-27 12:45:51,0.0
5062.799999999999,645.2,5852.4,-3526.0,512.6,4864.4,2025-01-27 12:45:51,0.0
7290.799999999999,1973.2,8756.4,-333.0,-1784.4,3348.4,2025-01-27 12:45:51,0.0
5566.799999999999,3405.2,6440.4,1752.0,-4120.4,1380.4,2025-01-27 12:45:51,0.0
1506.7999999999993,1933.2,4908.4,2320.0,-6769.4,1381.4,2025-01-27 12:45:51,0.0
-1093.2000000000007,-1382.8,2388.3999999999996,2746.0,-7933.4,2453.4,2025-01-27 12:45:51,0.0
-3909.2000000000007,-3462.8,-591.6000000000004,2219.0,-6261.4,3907.4,2025-01-27 12:45:51,0.0
-5281.200000000001,-3722.8,-2623.6000000000004,424.0,-2627.4,5980.4,2025-01-27 12:45:51,0.0
-2761.2000000000007,-2482.8,-1847.6000000000004,-1120.0,951.6,8276.4,2025-01-27 12:45:51,0.0
1582.7999999999993,-526.8,-1211.6000000000004,-1334.0,3369.6,9465.4,2025-01-27 12:45:51,0.0
5366.799999999999,1337.2,-1095.6000000000004,-1001.0,4806.6,9005.4,2025-01-27 12:45:51,0.0
7778.799999999999,2577.2,-311.60000000000036,-907.0,4791.6,7768.4,2025-01-27 12:45:51,0.0
9126.8,2861.2,-243.60000000000036,-285.0,2067.6,6419.4,2025-01-27 12:45:51,0.0
9186.8,2649.2,-287.60000000000036,-674.0,-1195.4,5255.4,2025-01-27 12:45:51,0.0
7574.799999999999,2205.2,-1591.6000000000004,-743.0,-3349.4,4064.4,2025-01-27 12:45:51,0.0
4186.799999999999,1957.2,-2043.6000000000004,-784.0,-3569.4,3442.4,2025-01-27 12:45:51,0.0
2562.7999999999993,1389.2,-3083.6000000000004,-905.0,-1843.4,3132.4,2025-01-27 12:45:52,0.0
2342.7999999999993,761.2,-2411.6000000000004,-1026.0,473.6,2637.4,2025-01-27 12:45:52,0.0
3198.7999999999993,413.20000000000005,-2091.6000000000004,-1026.0,1879.6,2205.4,2025-01-27 12:45:52,0.0
4218.799999999999,425.20000000000005,-2483.6000000000004,-1220.0,888.6,1758.4,2025-01-27 12:45:52,0.0
4974.799999999999,621.2,-3351.6000000000004,-2035.0,-1955.4,1316.4,2025-01-27 12:45:52,0.0
4402.799999999999,321.20000000000005,-3115.6000000000004,-3382.0,-5271.4,824.4,2025-01-27 12:45:52,0.0
1562.7999999999993,-6.7999999999999545,-4151.6,-4438.0,-9380.4,196.4,2025-01-27 12:45:52,0.0
-1525.2000000000007,297.20000000000005,-4919.6,-6565.0,-11183.4,-74.6,2025-01-27 12:45:52,0.0
-4853.200000000001,469.20000000000005,1924.3999999999996,-7580.0,-6970.4,759.4,2025-01-27 12:45:52,0.0
-6413.200000000001,2073.2,5612.4,-5320.0,-3530.4,2004.4,2025-01-27 12:45:52,0.0
-6697.200000000001,4261.2,5412.4,-3688.0,-1472.4,2935.4,2025-01-27 12:45:52,0.0
-8449.2,5893.2,4632.4,-2549.0,-264.4,4071.4,2025-01-27 12:45:52,0.0
-9009.2,6205.2,2260.3999999999996,-1537.0,1392.6,5203.4,2025-01-27 12:45:52,0.0
-7269.200000000001,3561.2,-963.6000000000004,-897.0,5664.6,5264.4,2025-01-27 12:45:52,0.0
-6025.200000000001,765.2,2008.3999999999996,-895.0,5348.6,4430.4,2025-01-27 12:45:52,0.0
-6405.200000000001,1197.2,2920.3999999999996,-1586.0,373.6,4342.4,2025-01-27 12:45:52,0.0
-5325.200000000001,5849.2,5720.4,-313.0,103.6,5796.4,2025-01-27 12:45:52,0.0
-2301.2000000000007,8209.2,7128.4,2232.0,3704.6,6773.4,2025-01-27 12:45:52,0.0
3350.7999999999993,7421.2,5236.4,3802.0,10414.6,4403.4,2025-01-27 12:45:52,0.0
2286.7999999999993,2345.2,4876.4,4659.0,10939.6,247.4,2025-01-27 12:45:52,0.0
3134.7999999999993,-146.79999999999995,4308.4,3893.0,5683.6,-889.6,2025-01-27 12:45:52,0.0
4726.799999999999,-1774.8,5164.4,2698.0,1807.6,-1495.6,2025-01-27 12:45:52,0.0
4414.799999999999,-2674.8,3160.3999999999996,1886.0,-1193.4,-2253.6,2025-01-27 12:45:52,0.0
3830.7999999999993,-2510.8,372.39999999999964,189.0,-4340.4,-3313.6,2025-01-27 12:45:52,0.0
2494.7999999999993,-1314.8,292.39999999999964,-1687.0,-5819.4,-4475.6,2025-01-27 12:45:52,0.0
1370.7999999999993,361.20000000000005,2352.3999999999996,-2156.0,-5673.4,-5730.6,2025-01-27 12:45:52,0.0
234.79999999999927,1905.2,3696.3999999999996,-966.0,-4469.4,-6358.6,2025-01-27 12:45:52,0.0
-377.2000000000007,2273.2,3004.3999999999996,1034.0,-1341.4,-5952.6,2025-01-27 12:45:52,0.0
878.7999999999993,1269.2,1104.3999999999996,1989.0,2174.6,-5144.6,2025-01-27 12:45:52,0.0
3242.7999999999993,225.20000000000005,304.39999999999964,2531.0,3877.6,-4151.6,2025-01-27 12:45:52,0.0
5966.799999999999,-698.8,-107.60000000000036,3072.0,3514.6,-3139.6,2025-01-27 12:45:52,0.0
7374.799999999999,-1078.8,-1155.6000000000004,3364.0,1683.6,-2765.6,2025-01-27 12:45:52,0.0
8170.799999999999,-1550.8,-2867.6000000000004,2750.0,-1384.4,-3838.6,2025-01-27 12:45:52,0.0
6550.799999999999,-2670.8,-2127.6000000000004,1956.0,-4358.4,-5054.6,2025-01-27 12:45:52,0.0
4486.799999999999,-3470.8,-2583.6000000000004,1346.0,-6908.4,-6199.6,2025-01-27 12:45:52,0.0
2898.7999999999993,-3418.8,-3363.6000000000004,222.0,-5036.4,-7982.6,2025-01-27 12:45:52,0.0
-1769.2000000000007,-3422.8,-3031.6000000000004,-877.0,-746.4,-7986.6,2025-01-27 12:45:52,0.0
-6405.200000000001,-3606.8,-2503.6000000000004,-1664.0,2424.6,-4708.6,2025-01-27 12:45:52,0.0
-6281.200000000001,-1978.8,-2883.6000000000004,-1444.0,5188.6,294.4,2025-01-27 12:45:52,0.0
754.7999999999993,2981.2,-4127.6,-1432.0,7787.6,2840.4,2025-01-27 12:45:52,0.0
4574.799999999999,4701.2,-155.60000000000036,-133.0,8076.6,2764.4,2025-01-27 12:45:52,0.0
7422.799999999999,5213.2,1136.3999999999996,2307.0,5852.6,1516.4,2025-01-27 12:45:52,0.0
6918.799999999999,909.2,-431.60000000000036,4431.0,1961.6,-607.6,2025-01-27 12:45:52,0.0
1246.7999999999993,-1850.8,-3099.6000000000004,4237.0,-2582.4,-2395.6,2025-01-27 12:45:52,0.0
-4937.200000000001,-410.79999999999995,-1455.6000000000004,3026.0,-5479.4,-3490.6,2025-01-27 12:45:52,0.0
-8653.2,2157.2,496.39999999999964,3232.0,-5018.4,-3610.6,2025-01-27 12:45:52,0.0
-8817.2,1565.2,736.3999999999996,4653.0,-1622.4,-2974.6,2025-01-27 12:45:52,0.0
-6977.200000000001,-578.8,-3435.6000000000004,4858.0,718.6,-2723.6,2025-01-27 12:45:52,0.0
-4873.200000000001,-3566.8,-4019.6000000000004,3815.0,-741.4,-2611.6,2025-01-27 12:45:52,0.0
-4873.200000000001,-2070.8,200.39999999999964,1911.0,-4420.4,-2863.6,2025-01-27 12:45:52,0.0
-3957.2000000000007,-2454.8,6664.4,7.0,-3784.4,-3777.6,2025-01-27 12:45:52,0.0
-2613.2000000000007,-4614.8,10148.4,-2260.0,-341.4,-6664.6,2025-01-27 12:45:52,0.0
-4961.200000000001,-10202.8,10968.4,-3301.0,1361.6,-6559.6,2025-01-27 12:45:52,0.0
-2469.2000000000007,-8550.8,4792.4,-841.0,636.6,-187.6,2025-01-27 12:45:52,0.0
4726.799999999999,-4126.8,-971.6000000000004,-1887.0,730.6,3390.4,2025-01-27 12:45:52,0.0
6490.799999999999,-1918.8,1400.3999999999996,-2881.0,-93.4,3764.4,2025-01-27 12:45:52,0.0
5198.799999999999,141.20000000000005,5992.4,-1815.0,-2258.4,3652.4,2025-01-27 12:45:52,0.0
2998.7999999999993,2037.2,7220.4,365.0,-4745.4,3591.4,2025-01-27 12:45:52,0.0
582.7999999999993,2133.2,5012.4,1200.0,-6314.4,3534.4,2025-01-27 12:45:52,0.0
-2329.2000000000007,453.20000000000005,3164.3999999999996,404.0,-6439.4,4149.4,2025-01-27 12:45:52,0.0
-3661.2000000000007,-994.8,2248.3999999999996,370.0,-4087.4,5170.4,2025-01-27 12:45:52,0.0
-2261.2000000000007,-1198.8,1528.3999999999996,276.0,688.6,6575.4,2025-01-27 12:45:52,0.0
-681.2000000000007,489.20000000000005,2240.3999999999996,355.0,5329.6,7985.4,2025-01-27 12:45:52,0.0
3710.7999999999993,1877.2,756.3999999999996,1186.0,6978.6,8793.4,2025-01-27 12:45:53,0.0
7166.799999999999,2861.2,-375.60000000000036,2069.0,6117.6,8440.4,2025-01-27 12:45:53,0.0
9894.8,2601.2,-2767.6000000000004,1989.0,3535.6,7179.4,2025-01-27 12:45:53,0.0
10430.8,1617.2,-3887.6000000000004,602.0,469.6,6206.4,2025-01-27 12:45:53,0.0
9494.8,833.2,-3487.6000000000004,-1854.0,-4857.4,4734.4,2025-01-27 12:45:53,0.0
5882.799999999999,833.2,-2591.6000000000004,-3238.0,-8194.4,3825.4,2025-01-27 12:45:53,0.0
2426.7999999999993,473.20000000000005,-2759.6000000000004,-3723.0,-6549.4,4020.4,2025-01-27 12:45:53,0.0
550.7999999999993,-118.79999999999995,-2679.6000000000004,-4162.0,-2679.4,4225.4,2025-01-27 12:45:53,0.0
342.7999999999993,-126.79999999999995,-2155.6000000000004,-4508.0,642.6,3639.4,2025-01-27 12:45:53,0.0
570.7999999999993,1009.2,-2043.6000000000004,-4897.0,3198.6,2670.4,2025-01-27 12:45:53,0.0
510.7999999999993,1873.2,-2407.6000000000004,-5232.0,4619.6,2095.4,2025-01-27 12:45:53,
1714.7999999999993,2277.2,-1607.6000000000004,-5660.0,5002.6,2013.4,2025-01-27 12:45:53,0.0
3846.7999999999993,2133.2,504.39999999999964,-5590.0,4241.6,1966.4,2025-01-27 12:45:53,0.0
4898.799999999999,2113.2,1476.3999999999996,-5515.0,1439.6,1696.4,2025-01-27 12:45:53,0.0
2830.7999999999993,1985.2,632.3999999999996,-5273.0,-3161.4,1256.4,2025-01-27 12:45:53,0.0
-2173.2000000000007,2505.2,140.39999999999964,-4802.0,-6160.4,1036.4,2025-01-27 12:45:53,0.0
-8969.2,3793.2,1616.3999999999996,-3898.0,-6922.4,2237.4,2025-01-27 12:45:53,0.0
-11089.2,4613.2,1344.3999999999996,-2336.0,-6218.4,4726.4,2025-01-27 12:45:53,0.0
-8925.2,4253.2,1556.3999999999996,-1546.0,-1888.4,5833.4,2025-01-27 12:45:53,0.0
-6417.200000000001,3105.2,4132.4,-1403.0,3662.6,5267.4,2025-01-27 12:45:53,0.0
-5185.200000000001,505.20000000000005,6808.4,-1604.0,2742.6,4978.4,2025-01-27 12:45:53,0.0
-5737.200000000001,3393.2,5540.4,-616.0,666.6,5549.4,2025-01-27 12:45:53,0.0
-5929.200000000001,5897.2,7788.4,1380.0,1874.6,7119.4,2025-01-27 12:45:53,0.0
-1149.2000000000007,6105.2,8388.4,3398.0,6117.6,7726.4,2025-01-27 12:45:53,0.0
6166.799999999999,4297.2,6388.4,2615.0,14539.6,3950.4,2025-01-27 12:45:53,0.0
8010.799999999999,1425.2,6512.4,1159.0,21716.6,-1818.6,2025-01-27 12:45:53,0.0
2606.7999999999993,-614.8,6004.4,4287.0,14155.6,-2437.6,2025-01-27 12:45:53,0.0
6958.799999999999,-2130.8,-1711.6000000000004,1919.0,4248.6,-1960.6,2025-01-27 12:45:53,0.0
5050.799999999999,-3362.8,-2719.6000000000004,-2580.0,-4928.4,-3118.6,2025-01-27 12:45:53,0.0
2562.7999999999993,-2962.8,-1179.6000000000004,-5621.0,-10013.4,-4704.6,2025-01-27 12:45:53,0.0
-1685.2000000000007,-258.79999999999995,2008.3999999999996,-6289.0,-11243.4,-5889.6,2025-01-27 12:45:53,0.0
-4657.200000000001,2897.2,3784.3999999999996,-4473.0,-11404.4,-5483.6,2025-01-27 12:45:53,0.0
-2565.2000000000007,5405.2,3580.3999999999996,-2792.0,-4872.4,-4289.6,2025-01-27 12:45:53,0.0
3302.7999999999993,3881.2,3616.3999999999996,-1170.0,7143.6,-4197.6,2025-01-27 12:45:53,0.0
7022.799999999999,1849.2,2040.3999999999996,380.0,17236.6,-5378.6,2025-01-27 12:45:53,0.0
5458.799999999999,-374.79999999999995,-1411.6000000000004,4710.0,11604.6,-4082.6,2025-01-27 12:45:53,0.0
8410.8,-1634.8,-5727.6,3421.0,3856.6,-3283.6,2025-01-27 12:45:53,0.0
10962.8,-2314.8,-4611.6,1237.0,267.6,-3964.6,2025-01-27 12:45:53,0.0
8878.8,-1946.8,-943.6000000000004,1843.0,-2569.4,-4947.6,2025-01-27 12:45:53,0.0
5422.799999999999,-1074.8,-1935.6000000000004,3094.0,-6019.4,-5930.6,2025-01-27 12:45:53,0.0
1878.7999999999993,-626.8,-3395.6000000000004,2915.0,-6240.4,-6407.6,2025-01-27 12:45:53,0.0
-2005.2000000000007,309.20000000000005,-3779.6000000000004,2649.0,-3771.4,-6155.6,2025-01-27 12:45:53,0.0
-4317.200000000001,781.2,-3259.6000000000004,2592.0,923.6,-4034.6,2025-01-27 12:45:53,0.0
-3369.2000000000007,293.20000000000005,-2359.6000000000004,3207.0,5042.6,-726.6,2025-01-27 12:45:53,0.0
614.7999999999993,-58.799999999999955,-2599.6000000000004,3740.0,6944.6,640.4,2025-01-27 12:45:53,0.0
4422.799999999999,-1374.8,-1247.6000000000004,3823.0,5692.6,302.4,2025-01-27 12:45:53,0.0
4726.799999999999,-1738.8,-347.60000000000036,3652.0,1203.6,-1214.6,2025-01-27 12:45:53,0.0
2266.7999999999993,-822.8,-1967.6000000000004,3671.0,-3266.4,-4018.6,2025-01-27 12:45:53,0.0
-1917.2000000000007,1261.2,-3243.6000000000004,3118.0,-6037.4,-7228.6,2025-01-27 12:45:53,0.0
-6109.200000000001,1009.2,-3291.6000000000004,2167.0,-4790.4,-10403.6,2025-01-27 12:45:53,0.0
-10505.2,-2434.8,-103.60000000000036,2181.0,-1920.4,-11032.6,2025-01-27 12:45:53,0.0
-10673.2,-5950.8,1856.3999999999996,2593.0,150.6,-9036.6,2025-01-27 12:45:53,0.0
-6961.200000000001,-8174.8,3160.3999999999996,1834.0,3332.6,-6397.6,2025-01-27 12:45:53,0.0
-5497.200000000001,-8038.8,2916.3999999999996,-662.0,2305.6,-5912.6,2025-01-27 12:45:53,0.0
-5693.200000000001,-7278.8,1608.3999999999996,-5828.0,-424.4,-6918.6,2025-01-27 12:45:53,0.0
-7281.200000000001,-6118.8,1292.3999999999996,-8395.0,-255.4,-7560.6,2025-01-27 12:45:53,0.0
-7421.200000000001,-3430.8,1908.3999999999996,-7753.0,4269.6,-2358.6,2025-01-27 12:45:53,0.0
-2821.2000000000007,945.2,4304.4,-5604.0,9397.6,6549.4,2025-01-27 12:45:53,0.0
4634.799999999999,1177.2,7332.4,-1961.0,8892.6,10367.4,2025-01-27 12:45:54,0.0
7966.799999999999,2037.2,7480.4,1180.0,3743.6,8155.4,2025-01-27 12:45:54,0.0
6578.799999999999,3985.2,5036.4,1971.0,-2667.4,4661.4,2025-01-27 12:45:54,0.0
2754.7999999999993,4185.2,2604.3999999999996,1081.0,-8865.4,2498.4,2025-01-27 12:45:54,0.0
-885.2000000000007,433.20000000000005,1392.3999999999996,773.0,-11650.4,1563.4,2025-01-27 12:45:54,0.0
-4573.200000000001,-2002.8,120.39999999999964,821.0,-9422.4,1915.4,2025-01-27 12:45:54,0.0
-5677.200000000001,-2370.8,620.3999999999996,796.0,-4234.4,4288.4,2025-01-27 12:45:54,0.0
-2065.2000000000007,-1394.8,1156.3999999999996,788.0,2811.6,6989.4,2025-01-27 12:45:54,0.0
330.7999999999993,-442.79999999999995,2232.3999999999996,1704.0,8366.6,8002.4,2025-01-27 12:45:54,0.0
3926.7999999999993,1173.2,-1179.6000000000004,2376.0,7227.6,7819.4,2025-01-27 12:45:54,0.0
7386.799999999999,2089.2,-2131.6000000000004,1299.0,4557.6,6802.4,2025-01-27 12:45:54,0.0
9178.8,2685.2,-1631.6000000000004,372.0,1802.6,5879.4,2025-01-27 12:45:54,0.0
9166.8,1989.2,-1287.6000000000004,-623.0,-3018.4,3998.4,2025-01-27 12:45:54,0.0
7294.799999999999,1101.2,-2063.6000000000004,-912.0,-6368.4,2901.4,2025-01-27 12:45:54,0.0
3814.7999999999993,953.2,-2531.6000000000004,-1167.0,-6852.4,2822.4,2025-01-27 12:45:54,0.0
1646.7999999999993,257.20000000000005,-3279.6000000000004,-1293.0,-4077.4,3182.4,2025-01-27 12:45:54,0.0
1330.7999999999993,-106.79999999999995,-3603.6000000000004,-1528.0,-511.4,3346.4,2025-01-27 12:45:54,0.0
2486.7999999999993,-42.799999999999955,-3143.6000000000004,-1655.0,1999.6,3249.4,2025-01-27 12:45:54,0.0
5034.799999999999,325.20000000000005,-3227.6000000000004,-2334.0,2174.6,2645.4,2025-01-27 12:45:54,0.0
6566.799999999999,1021.2,-3419.6000000000004,-2963.0,370.6,2066.4,2025-01-27 12:45:54,0.0
6546.799999999999,1437.2,-4295.6,-3789.0,-2302.4,1409.4,2025-01-27 12:45:54,0.0
4882.799999999999,969.2,-4379.6,-5426.0,-5438.4,454.4,2025-01-27 12:45:54,0.0
1126.7999999999993,745.2,-3011.6000000000004,-6966.0,-7207.4,-125.6,2025-01-27 12:45:54,0.0
-3633.2000000000007,993.2,-23.600000000000364,-7369.0,-7643.4,245.4,2025-01-27 12:45:54,0.0
-8901.2,1857.2,2812.3999999999996,-6341.0,-7224.4,1829.4,2025-01-27 12:45:54,0.0
-11757.2,4057.2,1540.3999999999996,-4364.0,-7063.4,4471.4,2025-01-27 12:45:54,0.0
-10597.2,6633.2,772.3999999999996,-2475.0,-4472.4,6686.4,2025-01-27 12:45:54,0.0
-7141.200000000001,6969.2,1072.3999999999996,-1071.0,827.6,7440.4,2025-01-27 12:45:54,0.0
-4813.200000000001,5389.2,6012.4,234.0,4569.6,6014.4,2025-01-27 12:45:54,0.0
-5257.200000000001,2041.2,7840.4,1198.0,-544.4,4774.4,2025-01-27 12:45:54,0.0
-6729.200000000001,5461.2,9148.4,3197.0,-2549.4,5481.4,2025-01-27 12:45:54,0.0
-5545.200000000001,6837.2,10120.4,5747.0,-54.400000000000006,8139.4,2025-01-27 12:45:54,0.0
1982.7999999999993,5077.2,7888.4,6379.0,7060.6,7363.4,2025-01-27 12:45:54,0.0
8006.799999999999,1737.2,5512.4,4545.0,16747.6,875.4,2025-01-27 12:45:54,0.0
6926.799999999999,-814.8,6552.4,3447.0,22871.6,-5384.6,2025-01-27 12:45:54,0.0
3298.7999999999993,-2270.8,5640.4,3367.0,23787.6,-7976.6,2025-01-27 12:45:54,0.0
1882.7999999999993,-2642.8,-1115.6000000000004,3226.0,6948.6,-5371.6,2025-01-27 12:45:54,0.0
5338.799999999999,-2518.8,-1067.6000000000004,-2210.0,-2896.4,-3879.6,2025-01-27 12:45:54,0.0
4934.799999999999,-1614.8,2160.3999999999996,-2598.0,-6906.4,-4641.6,2025-01-27 12:45:54,0.0
2434.7999999999993,1301.2,3524.3999999999996,-1511.0,-9157.4,-6453.6,2025-01-27 12:45:54,0.0
-1821.2000000000007,4801.2,3916.3999999999996,219.0,-9830.4,-7833.6,2025-01-27 12:45:54,0.0
-2749.2000000000007,5241.2,3188.3999999999996,2189.0,-5720.4,-7443.6,2025-01-27 12:45:54,0.0
194.79999999999927,3037.2,1356.3999999999996,2857.0,1251.6,-7418.6,2025-01-27 12:45:54,0.0
2230.7999999999993,437.20000000000005,1416.3999999999996,3428.0,9572.6,-7227.6,2025-01-27 12:45:54,0.0
2358.7999999999993,-1398.8,-571.6000000000004,5482.0,8578.6,-5214.6,2025-01-27 12:45:54,0.0
5670.799999999999,-2094.8,-2183.6000000000004,4353.0,5588.6,-3712.6,2025-01-27 12:45:54,0.0
7806.799999999999,-2346.8,-2763.6000000000004,3070.0,2446.6,-3415.6,2025-01-27 12:45:54,0.0
8022.799999999999,-2142.8,-1559.6000000000004,2858.0,-584.4,-4320.6,2025-01-27 12:45:54,0.0
6118.799999999999,-2086.8,-1915.6000000000004,3140.0,-3122.4,-5044.6,2025-01-27 12:45:54,0.0
3158.7999999999993,-1970.8,-3591.6000000000004,2710.0,-4092.4,-5014.6,2025-01-27 12:45:54,0.0
-197.20000000000073,-1626.8,-4475.6,2063.0,-2974.4,-4280.6,2025-01-27 12:45:54,0.0
-2353.2000000000007,-1190.8,-4871.6,1571.0,587.6,-2204.6,2025-01-27 12:45:54,0.0
-2197.2000000000007,-1462.8,-3739.6000000000004,1727.0,4060.6,171.4,2025-01-27 12:45:54,
1038.7999999999993,-482.79999999999995,-3523.6000000000004,2128.0,5343.6,1302.4,2025-01-27 12:45:54,0.0
4434.799999999999,1225.2,-2555.6000000000004,2566.0,4093.6,814.4,2025-01-27 12:45:54,0.0
5154.799999999999,2325.2,-2295.6000000000004,3581.0,697.6,-697.6,2025-01-27 12:45:54,0.0
3198.7999999999993,2265.2,-2767.6000000000004,4979.0,-2032.4,-2223.6,2025-01-27 12:45:54,0.0
-405.2000000000007,1189.2,-3411.6000000000004,5521.0,-4132.4,-3255.6,2025-01-27 12:45:54,0.0
-3281.2000000000007,-190.79999999999995,-2595.6000000000004,5373.0,-4919.4,-4423.6,2025-01-27 12:45:54,0.0
-6385.200000000001,-1330.8,-1395.6000000000004,4809.0,-4288.4,-5855.6,2025-01-27 12:45:54,0.0
-7813.200000000001,-2502.8,-2907.6000000000004,4252.0,-1825.4,-6500.6,2025-01-27 12:45:54,0.0
-8721.2,-3914.8,-3787.6000000000004,3524.0,1699.6,-6317.6,2025-01-27 12:45:54,0.0
-7557.200000000001,-5118.8,-3031.6000000000004,3476.0,3598.6,-5326.6,2025-01-27 12:45:54,0.0
-5525.200000000001,-4214.8,1032.3999999999996,2915.0,1456.6,-4709.6,2025-01-27 12:45:54,0.0
-2789.2000000000007,-3694.8,3644.3999999999996,1446.0,141.6,-3499.6,2025-01-27 12:45:55,0.0
10.799999999999272,-5374.8,4896.4,-2637.0,161.6,-4793.6,2025-01-27 12:45:55,0.0
-105.20000000000073,-6770.8,5100.4,-6897.0,-1183.4,-7237.6,2025-01-27 12:45:55,0.0
-3949.2000000000007,-5534.8,3280.3999999999996,-7293.0,-15.400000000000006,-5921.6,2025-01-27 12:45:55,0.0
-3697.2000000000007,-678.8,1504.3999999999996,-6156.0,2212.6,1221.4,2025-01-27 12:45:55,0.0
950.7999999999993,-462.79999999999995,6508.4,-4735.0,3054.6,4141.4,2025-01-27 12:45:55,0.0
1830.7999999999993,1353.2,8976.4,-2070.0,2069.6,3651.4,2025-01-27 12:45:55,0.0
194.79999999999927,4153.2,7416.4,57.0,-200.4,3548.4,2025-01-27 12:45:55,0.0
-985.2000000000007,4833.2,3868.3999999999996,596.0,-2866.4,4366.4,2025-01-27 12:45:55,0.0
-1433.2000000000007,2285.2,2028.3999999999996,632.0,-4466.4,4637.4,2025-01-27 12:45:55,0.0
-1961.2000000000007,-514.8,604.3999999999996,921.0,-3902.4,4945.4,2025-01-27 12:45:55,0.0
-957.2000000000007,-2474.8,740.3999999999996,380.0,-1981.4,6129.4,2025-01-27 12:45:55,0.0
2358.7999999999993,-3138.8,604.3999999999996,184.0,-38.400000000000006,6587.4,2025-01-27 12:45:55,0.0
5070.799999999999,-2686.8,-243.60000000000036,387.0,1464.6,6273.4,2025-01-27 12:45:55,0.0
6426.799999999999,-1470.8,-1195.6000000000004,570.0,1787.6,5805.4,2025-01-27 12:45:55,0.0
6702.799999999999,73.20000000000005,-2799.6000000000004,205.0,1151.6,6657.4,2025-01-27 12:45:55,0.0
7062.799999999999,1449.2,-2943.6000000000004,-1131.0,-1058.4,7663.4,2025-01-27 12:45:55,0.0
8174.799999999999,2613.2,-2519.6000000000004,-2324.0,-4217.4,7070.4,2025-01-27 12:45:55,0.0
7586.799999999999,3261.2,-2571.6000000000004,-2987.0,-6311.4,5010.4,2025-01-27 12:45:55,0.0
4546.799999999999,3033.2,-1731.6000000000004,-2563.0,-6243.4,3931.4,2025-01-27 12:45:55,0.0
2870.7999999999993,2445.2,-2503.6000000000004,-2332.0,-4750.4,3379.4,2025-01-27 12:45:55,0.0
2150.7999999999993,1777.2,-2663.6000000000004,-2341.0,-3136.4,2735.4,2025-01-27 12:45:55,0.0
2058.7999999999993,1685.2,-2731.6000000000004,-2409.0,-1907.4,2057.4,2025-01-27 12:45:55,0.0
2250.7999999999993,1561.2,-2707.6000000000004,-2662.0,-937.4,1243.4,2025-01-27 12:45:55,0.0
2954.7999999999993,1641.2,-2311.6000000000004,-2998.0,-633.4,279.4,2025-01-27 12:45:55,0.0
3266.7999999999993,1593.2,-1831.6000000000004,-3422.0,-1633.4,-427.6,2025-01-27 12:45:55,0.0
2058.7999999999993,1461.2,-1007.6000000000004,-4085.0,-3364.4,-577.6,2025-01-27 12:45:55,0.0
506.7999999999993,853.2,228.39999999999964,-4546.0,-4661.4,-323.6,2025-01-27 12:45:55,0.0
-2485.2000000000007,-522.8,1808.3999999999996,-4760.0,-5249.4,25.400000000000006,2025-01-27 12:45:55,0.0
-7257.200000000001,-1138.8,1916.3999999999996,-4163.0,-5669.4,1521.4,2025-01-27 12:45:55,0.0
-10029.2,1081.2,1148.3999999999996,-4085.0,-3648.4,3716.4,2025-01-27 12:45:55,0.0
-9173.2,3221.2,152.39999999999964,-3946.0,752.6,5152.4,2025-01-27 12:45:55,0.0
-7333.200000000001,2837.2,-1447.6000000000004,-3514.0,4182.6,4605.4,2025-01-27 12:45:55,0.0
-5005.200000000001,673.2,-2291.6000000000004,-4016.0,3621.6,3107.4,2025-01-27 12:45:55,0.0
-4017.2000000000007,1525.2,3220.3999999999996,-4950.0,2618.6,4202.4,2025-01-27 12:45:55,0.0
-3765.2000000000007,4369.2,7432.4,-4320.0,74.6,5411.4,2025-01-27 12:45:55,0.0
-5833.200000000001,7893.2,11096.4,-1346.0,-2366.4,6839.4,2025-01-27 12:45:55,0.0
-1005.2000000000007,9169.2,10444.4,2650.0,-1134.4,6966.4,2025-01-27 12:45:55,0.0
3982.7999999999993,6769.2,9992.4,3366.0,7433.6,2605.4,2025-01-27 12:45:55,0.0
4698.799999999999,1609.2,9176.4,3552.0,16916.6,-2559.6,2025-01-27 12:45:55,0.0
2230.7999999999993,-1978.8,4340.4,6516.0,14222.6,-2993.6,2025-01-27 12:45:55,0.0
5694.799999999999,-2986.8,1188.3999999999996,1923.0,6236.6,-2712.6,2025-01-27 12:45:55,0.0
6958.799999999999,-2942.8,3168.3999999999996,-176.0,28.599999999999994,-3109.6,2025-01-27 12:45:55,0.0
6018.799999999999,-1038.8,3112.3999999999996,-99.0,-6430.4,-4094.6,2025-01-27 12:45:55,0.0
3474.7999999999993,2101.2,2384.3999999999996,-315.0,-10507.4,-5444.6,2025-01-27 12:45:55,0.0
-373.2000000000007,4885.2,3020.3999999999996,252.0,-10118.4,-6355.6,2025-01-27 12:45:55,0.0
-2733.2000000000007,5573.2,2968.3999999999996,2072.0,-5137.4,-6104.6,2025-01-27 12:45:55,0.0
-109.20000000000073,2509.2,1372.3999999999996,3082.0,466.6,-6550.6,2025-01-27 12:45:55,0.0
1778.7999999999993,-610.8,700.3999999999996,3671.0,4899.6,-7205.6,2025-01-27 12:45:55,0.0
3246.7999999999993,-2198.8,8.399999999999636,4182.0,7531.6,-6358.6,2025-01-27 12:45:55,0.0
5750.799999999999,-2558.8,-1687.6000000000004,4005.0,7638.6,-4894.6,2025-01-27 12:45:55,0.0
7690.799999999999,-2250.8,-2299.6000000000004,3459.0,5564.6,-4302.6,2025-01-27 12:45:55,0.0
8130.799999999999,-1630.8,-1699.6000000000004,2950.0,1555.6,-5103.6,2025-01-27 12:45:55,0.0
5750.799999999999,-1422.8,-1143.6000000000004,3413.0,-1871.4,-6028.6,2025-01-27 12:45:55,0.0
2254.7999999999993,-1246.8,-1087.6000000000004,3696.0,-2890.4,-6243.6,2025-01-27 12:45:55,0.0
-385.2000000000007,-710.8,-2175.6000000000004,3488.0,-1548.4,-5636.6,2025-01-27 12:45:55,0.0
-2265.2000000000007,-586.8,-2635.6000000000004,3151.0,912.6,-3519.6,2025-01-27 12:45:55,0.0
-1901.2000000000007,-1050.8,-3007.6000000000004,3324.0,3001.6,-580.6,2025-01-27 12:45:55,0.0
954.7999999999993,133.20000000000005,-3159.6000000000004,3604.0,4387.6,1428.4,2025-01-27 12:45:55,0.0
2954.7999999999993,569.2,-2995.6000000000004,4596.0,4398.6,1614.4,2025-01-27 12:45:55,0.0
4042.7999999999993,1377.2,-3819.6000000000004,5876.0,2204.6,1522.4,2025-01-27 12:45:56,0.0
3966.7999999999993,745.2,-3519.6000000000004,5962.0,-820.4,1581.4,2025-01-27 12:45:56,0.0
2010.7999999999993,-930.8,-1763.6000000000004,6049.0,-3266.4,898.4,2025-01-27 12:45:56,0.0
-73.20000000000073,-1910.8,-775.6000000000004,5960.0,-4634.4,-788.6,2025-01-27 12:45:56,0.0
-2889.2000000000007,-934.8,-231.60000000000036,5097.0,-4506.4,-4003.6,2025-01-27 12:45:56,0.0
-5989.200000000001,501.20000000000005,-139.60000000000036,3290.0,-3631.4,-6856.6,2025-01-27 12:45:56,0.0
-6857.200000000001,-1038.8,-603.6000000000004,1152.0,-522.4,-9322.6,2025-01-27 12:45:56,0.0
-9309.2,-3558.8,-107.60000000000036,1675.0,3777.6,-8906.6,2025-01-27 12:45:56,0.0
-7729.200000000001,-3410.8,-2295.6000000000004,3482.0,5656.6,-5645.6,2025-01-27 12:45:56,0.0
-3453.2000000000007,-514.8,-67.60000000000036,2944.0,2730.6,-4740.6,2025-01-27 12:45:56,0.0
-2449.2000000000007,-574.8,5240.4,3282.0,146.6,-5539.6,2025-01-27 12:45:56,0.0
-2957.2000000000007,-2602.8,6428.4,1422.0,72.6,-6695.6,2025-01-27 12:45:56,0.0
-3993.2000000000007,-4894.8,6408.4,-2624.0,1939.6,-8009.6,2025-01-27 12:45:56,0.0
-5545.200000000001,-6430.8,4640.4,-3955.0,4109.6,-7482.6,2025-01-27 12:45:56,0.0
-5149.200000000001,-3330.8,-283.60000000000036,-3213.0,6282.6,-3793.6,2025-01-27 12:45:56,0.0
-537.2000000000007,861.2,-1367.6000000000004,-3730.0,6576.6,1722.4,2025-01-27 12:45:56,0.0
3694.7999999999993,2037.2,5064.4,-1418.0,4702.6,4009.4,2025-01-27 12:45:56,0.0
5506.799999999999,3753.2,8196.4,1776.0,1587.6,3525.4,2025-01-27 12:45:56,0.0
4850.799999999999,5933.2,6860.4,4472.0,-1667.4,1933.4,2025-01-27 12:45:56,0.0
3386.7999999999993,5981.2,2588.3999999999996,4805.0,-4249.4,763.4,2025-01-27 12:45:56,0.0
658.7999999999993,1933.2,2464.3999999999996,4279.0,-5406.4,123.4,2025-01-27 12:45:56,0.0
-2461.2000000000007,-1378.8,1548.3999999999996,3609.0,-6033.4,793.4,2025-01-27 12:45:56,0.0
-3761.2000000000007,-3878.8,380.39999999999964,2687.0,-4772.4,2831.4,2025-01-27 12:45:56,0.0
-1021.2000000000007,-3678.8,-695.6000000000004,2337.0,-1337.4,4463.4,2025-01-27 12:45:56,0.0
3470.7999999999993,-2522.8,-2047.6000000000004,2152.0,2442.6,4769.4,2025-01-27 12:45:56,0.0
5126.799999999999,-1038.8,-1659.6000000000004,1961.0,4326.6,4290.4,2025-01-27 12:45:56,0.0
6134.799999999999,1037.2,-1267.6000000000004,1764.0,2916.6,4532.4,2025-01-27 12:45:56,0.0
6718.799999999999,2445.2,-1015.6000000000004,1702.0,-172.4,4732.4,2025-01-27 12:45:56,0.0
6414.799999999999,4317.2,-2667.6000000000004,1335.0,-2895.4,4116.4,2025-01-27 12:45:56,
4650.799999999999,4141.2,-2763.6000000000004,914.0,-4559.4,3071.4,2025-01-27 12:45:56,0.0
1990.7999999999993,2293.2,-2119.6000000000004,1216.0,-3379.4,2363.4,2025-01-27 12:45:56,0.0
1170.7999999999993,1161.2,-1947.6000000000004,1389.0,-1200.4,1923.4,2025-01-27 12:45:56,0.0
1262.7999999999993,673.2,-3039.6000000000004,1427.0,282.6,1372.4,2025-01-27 12:45:56,0.0
1422.7999999999993,493.20000000000005,-3979.6000000000004,906.0,992.6,1081.4,2025-01-27 12:45:56,0.0
1978.7999999999993,477.20000000000005,-4439.6,-67.0,1014.6,1167.4,2025-01-27 12:45:56,0.0
3378.7999999999993,997.2,-3927.6000000000004,-1132.0,610.6,1219.4,2025-01-27 12:45:56,0.0
4086.7999999999993,769.2,-3551.6000000000004,-1807.0,-789.4,877.4,2025-01-27 12:45:56,0.0
2450.7999999999993,637.2,-1591.6000000000004,-2676.0,-2690.4,569.4,2025-01-27 12:45:56,0.0
818.7999999999993,233.20000000000005,-1423.6000000000004,-3367.0,-4422.4,365.4,2025-01-27 12:45:56,0.0
-3309.2000000000007,417.20000000000005,-75.60000000000036,-3755.0,-4518.4,826.4,2025-01-27 12:45:56,0.0
-5169.200000000001,1517.2,1360.3999999999996,-3601.0,-3344.4,2197.4,2025-01-27 12:45:56,0.0
-6185.200000000001,3929.2,1272.3999999999996,-2489.0,-1206.4,3548.4,2025-01-27 12:45:56,0.0
-6821.200000000001,5869.2,-619.6000000000004,-1389.0,1499.6,4363.4,2025-01-27 12:45:56,0.0
-6669.200000000001,5125.2,-2555.6000000000004,-1199.0,3144.6,4800.4,2025-01-27 12:45:56,0.0
-5621.200000000001,2209.2,-1363.6000000000004,-1787.0,4574.6,4551.4,2025-01-27 12:45:56,0.0
-5165.200000000001,-566.8,2656.3999999999996,-2215.0,5049.6,4410.4,2025-01-27 12:45:56,0.0
-5893.200000000001,4169.2,3372.3999999999996,-1555.0,3256.6,4962.4,2025-01-27 12:45:56,0.0
-5317.200000000001,7197.2,6192.4,582.0,4221.6,6238.4,2025-01-27 12:45:56,0.0
-1129.2000000000007,7105.2,6780.4,3341.0,7975.6,5493.4,2025-01-27 12:45:56,0.0
1822.7999999999993,4489.2,5716.4,4448.0,11433.6,1168.4,2025-01-27 12:45:56,0.0
-737.2000000000007,2325.2,7156.4,4629.0,9584.6,-315.6,2025-01-27 12:45:56,0.0
714.7999999999993,-1482.8,5008.4,4102.0,7848.6,1055.4,2025-01-27 12:45:56,0.0
2198.7999999999993,-4534.8,1856.3999999999996,2437.0,5776.6,1655.4,2025-01-27 12:45:56,0.0
4846.799999999999,-6982.8,-899.6000000000004,153.0,4432.6,370.4,2025-01-27 12:45:56,0.0
4842.799999999999,-6382.8,580.3999999999996,-2646.0,2363.6,-1610.6,2025-01-27 12:45:56,0.0
2218.7999999999993,-3682.8,2240.3999999999996,-4815.0,-1141.4,-1389.6,2025-01-27 12:45:56,0.0
1542.7999999999993,-466.79999999999995,2204.3999999999996,-6205.0,-4502.4,135.4,2025-01-27 12:45:56,0.0
1922.7999999999993,1069.2,2180.3999999999996,-6177.0,-6462.4,229.4,2025-01-27 12:45:56,0.0
1782.7999999999993,1341.2,1300.3999999999996,-5665.0,-7455.4,-680.6,2025-01-27 12:45:56,0.0
1242.7999999999993,385.20000000000005,816.3999999999996,-5446.0,-4440.4,-1889.6,2025-01-27 12:45:56,0.0
46.79999999999927,153.20000000000005,1276.3999999999996,-4900.0,-536.4,-1836.6,2025-01-27 12:45:56,0.0
774.7999999999993,-22.799999999999955,768.3999999999996,-4203.0,1575.6,-328.6,2025-01-27 12:45:57,0.0
2042.7999999999993,-418.79999999999995,-135.60000000000036,-3700.0,1590.6,678.4,2025-01-27 12:45:57,0.0
3594.7999999999993,-690.8,-1651.6000000000004,-3381.0,581.6,373.4,2025-01-27 12:45:57,0.0
3746.7999999999993,-458.79999999999995,-2175.6000000000004,-3297.0,-691.4,-68.6,2025-01-27 12:45:57,0.0
2798.7999999999993,-10.799999999999955,-2291.6000000000004,-3392.0,-1787.4,-82.6,2025-01-27 12:45:57,0.0
2430.7999999999993,257.20000000000005,-2503.6000000000004,-3438.0,-2247.4,424.4,2025-01-27 12:45:57,0.0
1482.7999999999993,281.20000000000005,-1583.6000000000004,-3299.0,-2278.4,823.4,2025-01-27 12:45:57,0.0
1278.7999999999993,-90.79999999999995,-2055.6000000000004,-2784.0,-1939.4,1141.4,2025-01-27 12:45:57,0.0
266.7999999999993,-330.79999999999995,-2495.6000000000004,-2558.0,-1371.4,1720.4,2025-01-27 12:45:57,0.0
-601.2000000000007,-982.8,-2619.6000000000004,-2443.0,-433.4,2826.4,2025-01-27 12:45:57,0.0
-769.2000000000007,-1338.8,-1915.6000000000004,-2209.0,866.6,4057.4,2025-01-27 12:45:57,0.0
-569.2000000000007,-754.8,-1647.6000000000004,-2085.0,1897.6,4962.4,2025-01-27 12:45:57,0.0
-953.2000000000007,-166.79999999999995,-1139.6000000000004,-2134.0,1910.6,5330.4,2025-01-27 12:45:57,0.0
-1225.2000000000007,269.20000000000005,-1483.6000000000004,-2010.0,1181.6,5312.4,2025-01-27 12:45:57,0.0
-2025.2000000000007,937.2,-1867.6000000000004,-1893.0,401.6,4072.4,2025-01-27 12:45:57,0.0
-3441.2000000000007,1689.2,-1535.6000000000004,-1772.0,122.6,2331.4,2025-01-27 12:45:57,0.0
-4609.200000000001,2341.2,-1591.6000000000004,-1553.0,210.6,1548.4,2025-01-27 12:45:57,0.0
-4405.200000000001,1989.2,-1699.6000000000004,-1318.0,572.6,1799.4,2025-01-27 12:45:57,0.0
-2849.2000000000007,409.20000000000005,-1919.6000000000004,-995.0,1126.6,1981.4,2025-01-27 12:45:57,0.0
-1901.2000000000007,-2094.8,-1747.6000000000004,-950.0,1062.6,1961.4,2025-01-27 12:45:57,0.0
-2653.2000000000007,-2022.8,4132.4,-3182.0,-1783.4,939.4,2025-01-27 12:45:57,0.0
-4341.200000000001,-2046.8,8192.4,-5525.0,-5035.4,-534.6,2025-01-27 12:45:57,0.0
-3953.2000000000007,-2890.8,7208.4,-7916.0,-5756.4,-3152.6,2025-01-27 12:45:57,0.0
-3893.2000000000007,-4306.8,5020.4,-8242.0,3628.6,-3423.6,2025-01-27 12:45:57,0.0
-7185.200000000001,-3886.8,3688.3999999999996,-5348.0,12675.6,1546.4,2025-01-27 12:45:57,0.0
2478.7999999999993,725.2,-2855.6000000000004,-5820.0,9381.6,5763.4,2025-01-27 12:45:57,0.0
8130.799999999999,241.20000000000005,4924.4,-6328.0,5160.6,4745.4,2025-01-27 12:45:57,0.0
7750.799999999999,1513.2,6532.4,-4055.0,-404.4,2526.4,2025-01-27 12:45:57,0.0
5558.799999999999,2129.2,2172.3999999999996,-4182.0,-4017.4,1686.4,2025-01-27 12:45:57,0.0
586.7999999999993,-342.79999999999995,-895.6000000000004,-5602.0,-4111.4,2771.4,2025-01-27 12:45:57,0.0
-3037.2000000000007,-1902.8,-2071.6000000000004,-8089.0,-3380.4,3968.4,2025-01-27 12:45:57,0.0
-5161.200000000001,-2522.8,692.3999999999996,-9468.0,-1042.4,5048.4,2025-01-27 12:45:57,0.0
-3917.2000000000007,-1338.8,1920.3999999999996,-9649.0,4421.6,6745.4,2025-01-27 12:45:57,0.0
-729.2000000000007,-386.79999999999995,1920.3999999999996,-10200.0,8108.6,8001.4,2025-01-27 12:45:57,0.0
2966.7999999999993,-2.7999999999999545,1188.3999999999996,-10446.0,8909.6,8257.4,2025-01-27 12:45:57,0.0
6218.799999999999,145.20000000000005,-211.60000000000036,-11161.0,7277.6,7899.4,2025-01-27 12:45:57,0.0
7718.799999999999,29.200000000000045,-491.60000000000036,-12162.0,4312.6,6901.4,2025-01-27 12:45:57,0.0
7102.799999999999,-134.79999999999995,-643.6000000000004,-13197.0,1090.6,5818.4,2025-01-27 12:45:57,0.0
3218.7999999999993,53.200000000000045,212.39999999999964,-14453.0,-2094.4,5309.4,2025-01-27 12:45:57,0.0
874.7999999999993,453.20000000000005,-315.60000000000036,-15187.0,-2713.4,5738.4,2025-01-27 12:45:57,0.0
-1525.2000000000007,353.20000000000005,792.3999999999996,-15477.0,-1050.4,6343.4,2025-01-27 12:45:57,0.0
-2069.2000000000007,-86.79999999999995,604.3999999999996,-15553.0,1651.6,6919.4,2025-01-27 12:45:57,0.0
-1065.2000000000007,-414.79999999999995,288.39999999999964,-15955.0,3565.6,6638.4,2025-01-27 12:45:57,0.0
-133.20000000000073,-426.79999999999995,740.3999999999996,-16378.0,4094.6,5909.4,2025-01-27 12:45:57,0.0
214.79999999999927,-334.79999999999995,1288.3999999999996,-16633.0,3648.6,5466.4,2025-01-27 12:45:57,0.0
1258.7999999999993,-246.79999999999995,680.3999999999996,-16231.0,2818.6,5080.4,2025-01-27 12:45:57,0.0
526.7999999999993,101.20000000000005,588.3999999999996,-15746.0,1991.6,4940.4,2025-01-27 12:45:57,0.0
98.79999999999927,881.2,-263.60000000000036,-15310.0,611.6,4861.4,2025-01-27 12:45:57,0.0
-1969.2000000000007,1677.2,432.39999999999964,-15112.0,325.6,4923.4,2025-01-27 12:45:57,0.0
-3717.2000000000007,1637.2,1524.3999999999996,-14644.0,756.6,5538.4,2025-01-27 12:45:57,0.0
-3993.2000000000007,957.2,916.3999999999996,-14197.0,1829.6,5975.4,2025-01-27 12:45:57,0.0
-3037.2000000000007,-82.79999999999995,-687.6000000000004,-14304.0,3526.6,6330.4,2025-01-27 12:45:57,0.0
-1817.2000000000007,-686.8,-1139.6000000000004,-14716.0,4965.6,6468.4,2025-01-27 12:45:57,0.0
-61.20000000000073,-1058.8,-2047.6000000000004,-15271.0,5185.6,6320.4,2025-01-27 12:45:57,0.0
1194.7999999999993,-1522.8,-3507.6000000000004,-16106.0,4248.6,5967.4,2025-01-27 12:45:57,0.0
2154.7999999999993,-1582.8,-6387.6,-17392.0,3898.6,5398.4,2025-01-27 12:45:57,0.0
-877.2000000000007,-2290.8,-3367.6000000000004,-18815.0,3572.6,5515.4,2025-01-27 12:45:57,0.0
-1597.2000000000007,-3910.8,-51.600000000000364,-19531.0,3481.6,5539.4,2025-01-27 12:45:57,0.0
-2833.2000000000007,-3198.8,1432.3999999999996,-19075.0,2581.6,5995.4,2025-01-27 12:45:57,0.0
-1921.2000000000007,-986.8,2184.3999999999996,-18499.0,2717.6,6569.4,2025-01-27 12:45:58,0.0
-1029.2000000000007,581.2,3108.3999999999996,-17277.0,2698.6,6954.4,2025-01-27 12:45:58,0.0
1014.7999999999993,2013.2,3184.3999999999996,-16126.0,1512.6,6922.4,2025-01-27 12:45:58,0.0
3002.7999999999993,2877.2,2496.3999999999996,-15089.0,-517.4,6082.4,2025-01-27 12:45:58,0.0
3662.7999999999993,3193.2,1440.3999999999996,-14204.0,-3138.4,4289.4,2025-01-27 12:45:58,0.0
2190.7999999999993,3061.2,1320.3999999999996,-13382.0,-5308.4,2613.4,2025-01-27 12:45:58,0.0
466.7999999999993,2029.2,880.3999999999996,-12989.0,-5878.4,1730.4,2025-01-27 12:45:58,0.0
-465.2000000000007,457.20000000000005,1156.3999999999996,-12930.0,-5322.4,1672.4,2025-01-27 12:45:58,0.0
-801.2000000000007,-1474.8,1436.3999999999996,-12685.0,-3896.4,2047.4,2025-01-27 12:45:58,
-605.2000000000007,-4054.8,472.39999999999964,-12130.0,-2639.4,2696.4,2025-01-27 12:45:58,0.0
-17.200000000000728,-6474.8,-2091.6000000000004,-12295.0,-1983.4,3062.4,2025-01-27 12:45:58,0.0
-277.2000000000007,-5522.8,-2275.6000000000004,-13825.0,-2789.4,3259.4,2025-01-27 12:45:58,0.0
-301.2000000000007,-3702.8,-1431.6000000000004,-14682.0,-3412.4,3438.4,2025-01-27 12:45:58,0.0
146.79999999999927,-1890.8,-679.6000000000004,-15280.0,-3979.4,3626.4,2025-01-27 12:45:58,0.0
-709.2000000000007,-970.8,792.3999999999996,-15306.0,-3196.4,3202.4,2025-01-27 12:45:58,0.0
-405.2000000000007,-1326.8,32.399999999999636,-14996.0,-1806.4,2809.4,2025-01-27 12:45:58,0.0
-277.2000000000007,-2154.8,244.39999999999964,-14584.0,-612.4,2718.4,2025-01-27 12:45:58,0.0
6.799999999999272,-2806.8,116.39999999999964,-14335.0,-1136.4,3233.4,2025-01-27 12:45:58,0.0
998.7999999999993,-3006.8,-163.60000000000036,-14446.0,-2638.4,3857.4,2025-01-27 12:45:58,0.0
1826.7999999999993,-2766.8,-667.6000000000004,-14658.0,-3467.4,4271.4,2025-01-27 12:45:58,0.0
2126.7999999999993,-2758.8,-1263.6000000000004,-14871.0,-3692.4,4506.4,2025-01-27 12:45:58,0.0
1598.7999999999993,-3138.8,-1563.6000000000004,-14970.0,-3720.4,4696.4,2025-01-27 12:45:58,0.0
942.7999999999993,-3578.8,-2047.6000000000004,-15069.0,-3657.4,4856.4,2025-01-27 12:45:58,0.0
-21.200000000000728,-4022.8,-2199.6000000000004,-14944.0,-3483.4,5248.4,2025-01-27 12:45:58,0.0
-21.200000000000728,-4278.8,-1851.6000000000004,-14752.0,-3177.4,5906.4,2025-01-27 12:45:58,0.0
354.7999999999993,-4130.8,-975.6000000000004,-14286.0,-2590.4,6570.4,2025-01-27 12:45:58,0.0
478.7999999999993,-3762.8,-931.6000000000004,-13818.0,-2273.4,7153.4,2025-01-27 12:45:58,0.0
1106.7999999999993,-3966.8,-1035.6000000000004,-13404.0,-2506.4,7528.4,2025-01-27 12:45:58,0.0
1554.7999999999993,-4210.8,-1911.6000000000004,-13049.0,-2862.4,7690.4,2025-01-27 12:45:58,0.0
1070.7999999999993,-4410.8,-2123.6000000000004,-12790.0,-2662.4,7978.4,2025-01-27 12:45:58,0.0
666.7999999999993,-4630.8,-1079.6000000000004,-12480.0,-1986.4,8388.4,2025-01-27 12:45:58,0.0
590.7999999999993,-4086.8,-351.60000000000036,-12015.0,-1964.4,8253.4,2025-01-27 12:45:58,0.0
370.7999999999993,-3126.8,32.399999999999636,-11421.0,-2035.4,7532.4,2025-01-27 12:45:58,0.0
-561.2000000000007,-1930.8,980.3999999999996,-10383.0,-1620.4,6487.4,2025-01-27 12:45:58,0.0
-665.2000000000007,-1730.8,1028.3999999999996,-8917.0,-588.4,5390.4,2025-01-27 12:45:58,0.0
-877.2000000000007,-2286.8,-279.60000000000036,-7423.0,400.6,3951.4,2025-01-27 12:45:58,0.0
-941.2000000000007,-3266.8,-1191.6000000000004,-6682.0,-17.400000000000006,2776.4,2025-01-27 12:45:58,0.0
-709.2000000000007,-4354.8,-1011.6000000000004,-6074.0,-1007.4,1578.4,2025-01-27 12:45:58,0.0
-1505.2000000000007,-5514.8,-611.6000000000004,-5172.0,-2667.4,652.4,2025-01-27 12:45:58,0.0
-2533.2000000000007,-6166.8,-1407.6000000000004,-4611.0,-4258.4,385.4,2025-01-27 12:45:58,0.0
-3821.2000000000007,-6026.8,-819.6000000000004,-4448.0,-5027.4,1004.4,2025-01-27 12:45:58,0.0
-3653.2000000000007,-6118.8,296.39999999999964,-4596.0,-4217.4,1780.4,2025-01-27 12:45:58,0.0
-2953.2000000000007,-7718.8,1712.3999999999996,-4906.0,-2673.4,2199.4,2025-01-27 12:45:58,0.0
-3293.2000000000007,-9302.8,1732.3999999999996,-5654.0,-1858.4,2494.4,2025-01-27 12:45:58,0.0
-4957.200000000001,-7850.8,340.39999999999964,-6349.0,-2284.4,4647.4,2025-01-27 12:45:58,0.0
-2597.2000000000007,-4398.8,-911.6000000000004,-7755.0,-1818.4,7366.4,2025-01-27 12:45:58,0.0
1170.7999999999993,-2966.8,428.39999999999964,-8304.0,-153.4,8309.4,2025-01-27 12:45:58,0.0
3934.7999999999993,-1846.8,2032.3999999999996,-8250.0,1157.6,7895.4,2025-01-27 12:45:58,0.0
5202.799999999999,-30.799999999999955,2036.3999999999996,-8246.0,1487.6,7542.4,2025-01-27 12:45:58,0.0
5574.799999999999,1149.2,1192.3999999999996,-8750.0,618.6,7604.4,2025-01-27 12:45:58,0.0
4662.799999999999,793.2,2544.3999999999996,-9011.0,-944.4,7885.4,2025-01-27 12:45:58,0.0
3754.7999999999993,-414.79999999999995,2724.3999999999996,-8953.0,-2817.4,8234.4,2025-01-27 12:45:58,0.0
1238.7999999999993,-1442.8,2636.3999999999996,-9224.0,-3743.4,8446.4,2025-01-27 12:45:58,0.0
-709.2000000000007,-1850.8,2120.3999999999996,-9786.0,-3920.4,8833.4,2025-01-27 12:45:58,0.0
-1357.2000000000007,-1546.8,1176.3999999999996,-10161.0,-2626.4,9458.4,2025-01-27 12:45:58,0.0
-637.2000000000007,-654.8,468.39999999999964,-10686.0,263.6,10547.4,2025-01-27 12:45:58,0.0
326.7999999999993,145.20000000000005,1196.3999999999996,-10742.0,1672.6,11425.4,2025-01-27 12:45:58,0.0
1954.7999999999993,585.2,1628.3999999999996,-10527.0,1041.6,11707.4,2025-01-27 12:45:58,0.0
3318.7999999999993,841.2,1512.3999999999996,-10207.0,-351.4,11481.4,2025-01-27 12:45:58,0.0
3998.7999999999993,1045.2,1180.3999999999996,-9972.0,-1979.4,10952.4,2025-01-27 12:45:58,0.0
3174.7999999999993,1149.2,1220.3999999999996,-9868.0,-3307.4,10760.4,2025-01-27 12:45:58,0.0
2442.7999999999993,641.2,704.3999999999996,-9723.0,-3533.4,10526.4,2025-01-27 12:45:58,0.0
1286.7999999999993,-90.79999999999995,268.39999999999964,-9620.0,-2885.4,9671.4,2025-01-27 12:45:58,0.0
-913.2000000000007,-410.79999999999995,-87.60000000000036,-9726.0,-1931.4,9372.4,2025-01-27 12:45:59,0.0
-2117.2000000000007,-158.79999999999995,-275.60000000000036,-9695.0,-581.4,9768.4,2025-01-27 12:45:59,0.0
-2329.2000000000007,-2.7999999999999545,-863.6000000000004,-9722.0,850.6,10384.4,2025-01-27 12:45:59,0.0
-1337.2000000000007,161.20000000000005,-1287.6000000000004,-9791.0,1732.6,10862.4,2025-01-27 12:45:59,0.0
818.7999999999993,-162.79999999999995,-1215.6000000000004,-9886.0,2785.6,10844.4,2025-01-27 12:45:59,0.0
2942.7999999999993,-586.8,-1527.6000000000004,-9727.0,3649.6,10099.4,2025-01-27 12:45:59,0.0
4606.799999999999,-374.79999999999995,-1919.6000000000004,-9681.0,3351.6,8563.4,2025-01-27 12:45:59,0.0
5298.799999999999,581.2,-2111.6000000000004,-9779.0,2090.6,6809.4,2025-01-27 12:45:59,0.0
4930.799999999999,1721.2,-2139.6000000000004,-9906.0,644.6,5569.4,2025-01-27 12:45:59,0.0
3974.7999999999993,2389.2,-2299.6000000000004,-10012.0,-1167.4,4783.4,2025-01-27 12:45:59,0.0
2150.7999999999993,2461.2,-1619.6000000000004,-9711.0,-2673.4,4371.4,2025-01-27 12:45:59,0.0
174.79999999999927,2213.2,-719.6000000000004,-9446.0,-3379.4,3962.4,2025-01-27 12:45:59,0.0
-2057.2000000000007,1829.2,712.3999999999996,-9527.0,-3774.4,3499.4,2025-01-27 12:45:59,0.0
-4897.200000000001,1101.2,2044.3999999999996,-9432.0,-3052.4,3244.4,2025-01-27 12:45:59,0.0
-7325.200000000001,593.2,2080.3999999999996,-8477.0,-1745.4,3636.4,2025-01-27 12:45:59,0.0
-7605.200000000001,2689.2,932.3999999999996,-7277.0,-26.400000000000006,4495.4,2025-01-27 12:45:59,0.0
-6717.200000000001,4109.2,328.39999999999964,-6250.0,1484.6,5010.4,2025-01-27 12:45:59,0.0
-4781.200000000001,2833.2,-479.60000000000036,-5568.0,2646.6,4201.4,2025-01-27 12:45:59,0.0
-5797.200000000001,1681.2,3336.3999999999996,-5610.0,1836.6,4019.4,2025-01-27 12:45:59,0.0
-5805.200000000001,405.20000000000005,5584.4,-5390.0,1187.6,5535.4,2025-01-27 12:45:59,0.0
-4557.200000000001,2433.2,4548.4,-4171.0,784.6,5552.4,2025-01-27 12:45:59,0.0
-2937.2000000000007,5453.2,5096.4,-2501.0,2986.6,5500.4,2025-01-27 12:45:59,0.0
234.79999999999927,6977.2,5812.4,-1408.0,7285.6,4764.4,2025-01-27 12:45:59,0.0
3834.7999999999993,5285.2,4752.4,-843.0,11642.6,2571.4,2025-01-27 12:45:59,0.0
6530.799999999999,3129.2,4776.4,57.0,11644.6,694.4,2025-01-27 12:45:59,0.0
7382.799999999999,2193.2,4488.4,1081.0,7697.6,-239.6,2025-01-27 12:45:59,0.0
6782.799999999999,1273.2,4216.4,709.0,-603.4,-745.6,2025-01-27 12:45:59,0.0
4890.799999999999,341.20000000000005,3096.3999999999996,-484.0,-8390.4,-2252.6,2025-01-27 12:45:59,0.0
1474.7999999999993,389.20000000000005,1632.3999999999996,-1262.0,-13027.4,-4266.6,2025-01-27 12:45:59,0.0
-1993.2000000000007,1281.2,2340.3999999999996,-653.0,-10117.4,-5124.6,2025-01-27 12:45:59,0.0
-3305.2000000000007,1893.2,2828.3999999999996,1236.0,-2674.4,-5758.6,2025-01-27 12:45:59,0.0
-2157.2000000000007,2921.2,2480.3999999999996,2371.0,4280.6,-6575.6,2025-01-27 12:45:59,0.0
1010.7999999999993,2333.2,716.3999999999996,2993.0,7076.6,-6867.6,2025-01-27 12:45:59,0.0
4594.799999999999,605.2,-739.6000000000004,3607.0,7464.6,-6815.6,2025-01-27 12:45:59,0.0
7534.799999999999,-702.8,-775.6000000000004,4183.0,5962.6,-6575.6,2025-01-27 12:45:59,0.0
8406.8,-1410.8,-1175.6000000000004,3882.0,2425.6,-6837.6,2025-01-27 12:45:59,0.0
7886.799999999999,-1918.8,-1171.6000000000004,3828.0,-1332.4,-6980.6,2025-01-27 12:45:59,0.0
5774.799999999999,-1902.8,-775.6000000000004,3926.0,-5037.4,-7003.6,2025-01-27 12:45:59,0.0
3306.7999999999993,-1934.8,-995.6000000000004,4233.0,-5289.4,-7301.6,2025-01-27 12:45:59,0.0
122.79999999999927,-1578.8,-1223.6000000000004,4237.0,-2948.4,-7761.6,2025-01-27 12:45:59,0.0
-2361.2000000000007,-982.8,-1787.6000000000004,3892.0,55.599999999999994,-6566.6,2025-01-27 12:45:59,0.0
-2989.2000000000007,-1242.8,-1455.6000000000004,3600.0,2829.6,-3478.6,2025-01-27 12:45:59,0.0
786.7999999999993,-1042.8,-1443.6000000000004,3762.0,4833.6,-590.6,2025-01-27 12:45:59,0.0
3922.7999999999993,-874.8,-1327.6000000000004,4625.0,4458.6,-604.6,2025-01-27 12:45:59,0.0
4702.799999999999,-154.79999999999995,-2199.6000000000004,5554.0,2416.6,-1420.6,2025-01-27 12:45:59,0.0
3162.7999999999993,313.20000000000005,-2095.6000000000004,5982.0,-315.4,-1854.6,2025-01-27 12:45:59,
1082.7999999999993,797.2,-2579.6000000000004,6060.0,-1931.4,-1638.6,2025-01-27 12:45:59,0.0
-1629.2000000000007,385.20000000000005,-939.6000000000004,5896.0,-1993.4,-1526.6,2025-01-27 12:45:59,0.0
-3685.2000000000007,-1014.8,712.3999999999996,5797.0,-503.4,-2297.6,2025-01-27 12:45:59,0.0
-5409.200000000001,-2910.8,340.39999999999964,5605.0,1577.6,-3997.6,2025-01-27 12:45:59,0.0
-6593.200000000001,-4454.8,-1007.6000000000004,4076.0,3010.6,-6094.6,2025-01-27 12:45:59,0.0
-7005.200000000001,-5506.8,-2911.6000000000004,1874.0,3494.6,-7171.6,2025-01-27 12:45:59,0.0
-7361.200000000001,-5334.8,-4147.6,1383.0,3387.6,-6884.6,2025-01-27 12:45:59,0.0
-7637.200000000001,-3214.8,-4719.6,1815.0,2550.6,-5036.6,2025-01-27 12:45:59,0.0
-5081.200000000001,-74.79999999999995,-5783.6,2983.0,785.6,-2484.6,2025-01-27 12:45:59,0.0
-1793.2000000000007,881.2,-1263.6000000000004,3582.0,-1161.4,-2867.6,2025-01-27 12:45:59,0.0
-1021.2000000000007,-518.8,5316.4,3918.0,-830.4,-4210.6,2025-01-27 12:45:59,0.0
-457.2000000000007,-5454.8,6244.4,1561.0,3870.6,-5731.6,2025-01-27 12:45:59,0.0
-1501.2000000000007,-8966.8,5376.4,-1945.0,3683.6,-6574.6,2025-01-27 12:45:59,0.0
-2285.2000000000007,-6098.8,1472.3999999999996,-3916.0,1860.6,-4440.6,2025-01-27 12:45:59,0.0
-1529.2000000000007,-1478.8,384.39999999999964,-6012.0,2251.6,-585.6,2025-01-27 12:45:59,0.0
370.7999999999993,1561.2,5076.4,-5593.0,2902.6,2562.4,2025-01-27 12:46:00,0.0
2754.7999999999993,2565.2,8864.4,-2015.0,2418.6,3384.4,2025-01-27 12:46:00,0.0
2874.7999999999993,4437.2,6040.4,1238.0,894.6,2579.4,2025-01-27 12:46:00,0.0
1502.7999999999993,4097.2,3196.3999999999996,2206.0,-1922.4,2567.4,2025-01-27 12:46:00,0.0
-265.2000000000007,1261.2,2348.3999999999996,2363.0,-4288.4,3789.4,2025-01-27 12:46:00,0.0
-1841.2000000000007,-2098.8,1004.3999999999996,2061.0,-5169.4,5325.4,2025-01-27 12:46:00,0.0
-2273.2000000000007,-3418.8,-847.6000000000004,565.0,-3689.4,6317.4,2025-01-27 12:46:00,0.0
-189.20000000000073,-3686.8,-827.6000000000004,-640.0,-1184.4,6872.4,2025-01-27 12:46:00,0.0
2242.7999999999993,-2102.8,-1175.6000000000004,-1055.0,1209.6,7178.4,2025-01-27 12:46:00,0.0
4442.799999999999,-438.79999999999995,-1451.6000000000004,-1045.0,2414.6,7555.4,2025-01-27 12:46:00,0.0
6082.799999999999,897.2,-1451.6000000000004,-1022.0,1918.6,8002.4,2025-01-27 12:46:00,0.0
7342.799999999999,2541.2,-2027.6000000000004,-1267.0,106.6,8211.4,2025-01-27 12:46:00,0.0
7894.799999999999,3733.2,-2239.6000000000004,-1903.0,-3246.4,7161.4,2025-01-27 12:46:00,0.0
7126.799999999999,3713.2,-2243.6000000000004,-2320.0,-5547.4,5328.4,2025-01-27 12:46:00,0.0
4294.799999999999,2041.2,-2427.6000000000004,-2201.0,-6382.4,4004.4,2025-01-27 12:46:00,0.0
2202.7999999999993,1009.2,-3407.6000000000004,-2360.0,-4935.4,3737.4,2025-01-27 12:46:00,0.0
2354.7999999999993,53.200000000000045,-3171.6000000000004,-2795.0,-2273.4,3238.4,2025-01-27 12:46:00,0.0
3178.7999999999993,-62.799999999999955,-2479.6000000000004,-2962.0,-602.4,2270.4,2025-01-27 12:46:00,0.0
4270.799999999999,477.20000000000005,-3079.6000000000004,-3265.0,-647.4,1145.4,2025-01-27 12:46:00,0.0
4498.799999999999,677.2,-2911.6000000000004,-3758.0,-1936.4,113.4,2025-01-27 12:46:00,0.0
3478.7999999999993,637.2,-2375.6000000000004,-4421.0,-3392.4,-318.6,2025-01-27 12:46:00,0.0
1418.7999999999993,517.2,-1543.6000000000004,-5343.0,-4640.4,-454.6,2025-01-27 12:46:00,0.0
-1941.2000000000007,561.2,168.39999999999964,-6173.0,-5242.4,-39.599999999999994,2025-01-27 12:46:00,0.0
-4609.200000000001,321.20000000000005,1648.3999999999996,-6485.0,-4883.4,674.4,2025-01-27 12:46:00,0.0
-6981.200000000001,-258.79999999999995,2796.3999999999996,-5533.0,-3035.4,1582.4,2025-01-27 12:46:00,0.0
-7877.200000000001,2197.2,996.3999999999996,-3626.0,-994.4,3131.4,2025-01-27 12:46:00,0.0
-8201.2,4885.2,400.39999999999964,-2638.0,-36.400000000000006,4634.4,2025-01-27 12:46:00,0.0
-8389.2,6337.2,-395.60000000000036,-1622.0,621.6,5761.4,2025-01-27 12:46:00,0.0
-6773.200000000001,4645.2,-1019.6000000000004,-1081.0,1201.6,5159.4,2025-01-27 12:46:00,0.0
-7153.200000000001,3245.2,3680.3999999999996,-1465.0,-333.4,3966.4,2025-01-27 12:46:00,0.0
-7473.200000000001,2485.2,7472.4,-1231.0,-1380.4,4352.4,2025-01-27 12:46:00,0.0
-6649.200000000001,5841.2,5960.4,1124.0,1070.6,5024.4,2025-01-27 12:46:00,0.0
-2565.2000000000007,6869.2,6908.4,3112.0,6943.6,4673.4,2025-01-27 12:46:00,0.0
3882.7999999999993,5469.2,7696.4,3468.0,14714.6,2021.4,2025-01-27 12:46:00,0.0
5602.799999999999,1169.2,9236.4,5692.0,16841.6,-1246.6,2025-01-27 12:46:00,0.0
7190.799999999999,913.2,7660.4,6806.0,9709.6,-846.6,2025-01-27 12:46:00,0.0
9086.8,-290.79999999999995,6408.4,6423.0,2072.6,-635.6,2025-01-27 12:46:00,0.0
9370.8,-1074.8,2632.3999999999996,5170.0,-5236.4,-2355.6,2025-01-27 12:46:00,0.0
6342.799999999999,-242.79999999999995,612.3999999999996,2466.0,-10796.4,-5183.6,2025-01-27 12:46:00,0.0
2414.7999999999993,-94.79999999999995,1160.3999999999996,288.0,-12730.4,-7356.6,2025-01-27 12:46:00,0.0
-2065.2000000000007,1213.2,2828.3999999999996,537.0,-9993.4,-8817.6,2025-01-27 12:46:00,0.0
-5065.200000000001,2013.2,3672.3999999999996,2607.0,-5375.4,-8799.6,2025-01-27 12:46:00,0.0
-2769.2000000000007,1369.2,2452.3999999999996,3393.0,1359.6,-7907.6,2025-01-27 12:46:00,0.0
-405.2000000000007,-1438.8,2740.3999999999996,4253.0,8181.6,-6998.6,2025-01-27 12:46:00,0.0
4166.799999999999,-2270.8,-391.60000000000036,4794.0,8748.6,-5337.6,2025-01-27 12:46:00,0.0
7606.799999999999,-2578.8,-2847.6000000000004,3733.0,7424.6,-4438.6,2025-01-27 12:46:00,0.0
8326.8,-2594.8,-2339.6000000000004,2291.0,4111.6,-4424.6,2025-01-27 12:46:00,0.0
7922.799999999999,-2598.8,-1895.6000000000004,1668.0,283.6,-4844.6,2025-01-27 12:46:00,0.0
4478.799999999999,-2318.8,-1259.6000000000004,1634.0,-2547.4,-5226.6,2025-01-27 12:46:00,0.0
2114.7999999999993,-1754.8,-2311.6000000000004,2005.0,-1619.4,-5350.6,2025-01-27 12:46:00,0.0
-469.2000000000007,-850.8,-3839.6000000000004,1958.0,673.6,-4596.6,2025-01-27 12:46:00,0.0
-1457.2000000000007,-198.79999999999995,-4955.6,1389.0,2783.6,-1907.6,2025-01-27 12:46:00,0.0
1398.7999999999993,413.20000000000005,-4171.6,1564.0,3910.6,1208.4,2025-01-27 12:46:00,0.0
4878.799999999999,1513.2,-2807.6000000000004,2204.0,2119.6,1620.4,2025-01-27 12:46:00,0.0
5666.799999999999,2665.2,-2167.6000000000004,3156.0,-582.4,515.4,2025-01-27 12:46:00,0.0
3434.7999999999993,3269.2,-2251.6000000000004,4335.0,-3388.4,-850.6,2025-01-27 12:46:00,0.0
78.79999999999927,2333.2,-2479.6000000000004,5349.0,-5159.4,-1566.6,2025-01-27 12:46:00,0.0
-2053.2000000000007,349.20000000000005,-2583.6000000000004,5208.0,-4593.4,-2446.6,2025-01-27 12:46:00,0.0
-4309.200000000001,-2290.8,-1087.6000000000004,4139.0,-2484.4,-4001.6,2025-01-27 12:46:00,0.0
-5853.200000000001,-4266.8,-55.600000000000364,3173.0,-1253.4,-5429.6,2025-01-27 12:46:00,0.0
-7041.200000000001,-4526.8,-731.6000000000004,2241.0,-845.4,-6712.6,2025-01-27 12:46:00,0.0
-7281.200000000001,-4078.8,-2111.6000000000004,208.0,-2051.4,-8806.6,2025-01-27 12:46:01,0.0
-7813.200000000001,-2878.8,-2991.6000000000004,360.0,-1672.4,-8905.6,2025-01-27 12:46:01,0.0
-8853.2,-2266.8,-1331.6000000000004,1212.0,203.6,-5556.6,2025-01-27 12:46:01,0.0
-3601.2000000000007,613.2,2288.3999999999996,1651.0,-2120.4,-2973.6,2025-01-27 12:46:01,0.0
-265.2000000000007,-4590.8,7376.4,1361.0,-265.4,-4146.6,2025-01-27 12:46:01,0.0
-145.20000000000073,-6082.8,6272.4,-2174.0,297.6,-6990.6,2025-01-27 12:46:01,0.0
-1641.2000000000007,-7818.8,6020.4,-7640.0,896.6,-10126.6,2025-01-27 12:46:01,0.0
-5009.200000000001,-8382.8,6640.4,-9305.0,1685.6,-7887.6,2025-01-27 12:46:01,0.0
-6065.200000000001,-2538.8,5304.4,-7622.0,4677.6,513.4,2025-01-27 12:46:01,0.0
134.79999999999927,905.2,7604.4,-4920.0,5955.6,5788.4,2025-01-27 12:46:01,0.0
4446.799999999999,3097.2,8504.4,-1126.0,5987.6,5550.4,2025-01-27 12:46:01,0.0
4650.799999999999,5669.2,6524.4,1866.0,3833.6,4531.4,2025-01-27 12:46:01,0.0
4054.7999999999993,6081.2,3956.3999999999996,2922.0,-290.4,4518.4,2025-01-27 12:46:01,0.0
3158.7999999999993,2485.2,3548.3999999999996,2848.0,-5571.4,4214.4,2025-01-27 12:46:01,0.0
1658.7999999999993,-2210.8,2968.3999999999996,3075.0,-8086.4,3763.4,2025-01-27 12:46:01,0.0
138.79999999999927,-4538.8,20.399999999999636,2943.0,-7295.4,3667.4,2025-01-27 12:46:01,0.0
858.7999999999993,-4514.8,-2479.6000000000004,1453.0,-3832.4,3955.4,2025-01-27 12:46:01,0.0
2038.7999999999993,-2818.8,-2791.6000000000004,307.0,-708.4,5141.4,2025-01-27 12:46:01,0.0
2910.7999999999993,-1254.8,-1183.6000000000004,545.0,1592.6,6954.4,2025-01-27 12:46:01,0.0
4466.799999999999,1009.2,-1003.6000000000004,868.0,2123.6,8534.4,2025-01-27 12:46:01,0.0
6198.799999999999,2565.2,-1683.6000000000004,92.0,370.6,8503.4,2025-01-27 12:46:01,0.0
7798.799999999999,2941.2,-1995.6000000000004,-877.0,-1578.4,6994.4,2025-01-27 12:46:01,0.0
6602.799999999999,2485.2,-1891.6000000000004,-1251.0,-2764.4,4764.4,2025-01-27 12:46:01,0.0
3890.7999999999993,1729.2,-2231.6000000000004,-1202.0,-2760.4,3879.4,2025-01-27 12:46:01,
2774.7999999999993,1013.2,-2871.6000000000004,-1464.0,-2308.4,3799.4,2025-01-27 12:46:01,0.0
2514.7999999999993,637.2,-2143.6000000000004,-1795.0,-1569.4,3435.4,2025-01-27 12:46:01,0.0
2946.7999999999993,593.2,-1807.6000000000004,-2142.0,-871.4,2925.4,2025-01-27 12:46:01,0.0
3906.7999999999993,553.2,-2395.6000000000004,-2909.0,-948.4,2191.4,2025-01-27 12:46:01,0.0
3854.7999999999993,301.20000000000005,-1695.6000000000004,-3871.0,-2018.4,1418.4,2025-01-27 12:46:01,0.0
2786.7999999999993,-22.799999999999955,-1187.6000000000004,-4754.0,-3330.4,1088.4,2025-01-27 12:46:01,0.0
1066.7999999999993,-586.8,-1255.6000000000004,-5595.0,-4249.4,1207.4,2025-01-27 12:46:01,0.0
-1401.2000000000007,-834.8,-991.6000000000004,-6691.0,-4323.4,1427.4,2025-01-27 12:46:01,0.0
-4829.200000000001,-1022.8,1300.3999999999996,-7349.0,-4375.4,2142.4,2025-01-27 12:46:01,0.0
-6921.200000000001,-146.79999999999995,3472.3999999999996,-6842.0,-3726.4,3511.4,2025-01-27 12:46:01,0.0
-7637.200000000001,2985.2,3264.3999999999996,-5368.0,-1304.4,5131.4,2025-01-27 12:46:01,0.0
-8065.200000000001,5793.2,2060.3999999999996,-3624.0,1056.6,6303.4,2025-01-27 12:46:01,0.0
-8457.2,6657.2,624.3999999999996,-2108.0,2901.6,7438.4,2025-01-27 12:46:01,0.0
-5753.200000000001,4925.2,532.3999999999996,-1426.0,3944.6,7342.4,2025-01-27 12:46:01,0.0
-3385.2000000000007,2361.2,6684.4,-1327.0,2874.6,6147.4,2025-01-27 12:46:01,0.0
-3165.2000000000007,3637.2,5880.4,-290.0,285.6,5284.4,2025-01-27 12:46:01,0.0
-2125.2000000000007,6925.2,5780.4,1017.0,2272.6,5495.4,2025-01-27 12:46:01,0.0
1290.7999999999993,7669.2,8280.4,2625.0,8638.6,4725.4,2025-01-27 12:46:01,0.0
5862.799999999999,4877.2,8556.4,2632.0,13893.6,1199.4,2025-01-27 12:46:01,0.0
3918.7999999999993,-374.79999999999995,9680.4,3717.0,13853.6,-1542.6,2025-01-27 12:46:01,0.0
4354.799999999999,-2570.8,6528.4,3921.0,8474.6,-1775.6,2025-01-27 12:46:01,0.0
4578.799999999999,-4230.8,3464.3999999999996,2940.0,3917.6,-1499.6,2025-01-27 12:46:01,0.0
3414.7999999999993,-3838.8,1068.3999999999996,762.0,-1164.4,-1723.6,2025-01-27 12:46:01,0.0
2818.7999999999993,-2870.8,-447.60000000000036,-1340.0,-5425.4,-2120.6,2025-01-27 12:46:01,0.0
1790.7999999999993,-454.79999999999995,1132.3999999999996,-2566.0,-7937.4,-3555.6,2025-01-27 12:46:01,0.0
-97.20000000000073,2381.2,2088.3999999999996,-1814.0,-6717.4,-4738.6,2025-01-27 12:46:01,0.0
-1241.2000000000007,4529.2,3184.3999999999996,425.0,-2361.4,-5265.6,2025-01-27 12:46:01,0.0
418.7999999999993,4261.2,2220.3999999999996,2564.0,1577.6,-5423.6,2025-01-27 12:46:01,0.0
3018.7999999999993,2613.2,1104.3999999999996,3594.0,3110.6,-5272.6,2025-01-27 12:46:01,0.0
6174.799999999999,633.2,348.39999999999964,4413.0,3331.6,-5313.6,2025-01-27 12:46:01,0.0
5598.799999999999,-950.8,1464.3999999999996,4813.0,2446.6,-6548.6,2025-01-27 12:46:01,0.0
7034.799999999999,-2342.8,-2115.6000000000004,4809.0,225.6,-7414.6,2025-01-27 12:46:01,0.0
5474.799999999999,-3134.8,-2979.6000000000004,4147.0,-2099.4,-7186.6,2025-01-27 12:46:01,0.0
2998.7999999999993,-3070.8,-1583.6000000000004,3636.0,-3400.4,-6230.6,2025-01-27 12:46:01,0.0
1314.7999999999993,-2586.8,-1739.6000000000004,4294.0,-2781.4,-5362.6,2025-01-27 12:46:01,0.0
-805.2000000000007,-1354.8,-2543.6000000000004,4321.0,-989.4,-4187.6,2025-01-27 12:46:01,0.0
-1673.2000000000007,-1110.8,-3991.6000000000004,4187.0,997.6,-1983.6,2025-01-27 12:46:02,0.0
-1033.2000000000007,-758.8,-4479.6,3851.0,3307.6,158.4,2025-01-27 12:46:02,0.0
1654.7999999999993,-322.79999999999995,-4775.6,3652.0,4932.6,1089.4,2025-01-27 12:46:02,0.0
3282.7999999999993,73.20000000000005,-2927.6000000000004,3975.0,5026.6,1191.4,2025-01-27 12:46:02,0.0
3334.7999999999993,433.20000000000005,-955.6000000000004,4570.0,3332.6,654.4,2025-01-27 12:46:02,0.0
2898.7999999999993,65.20000000000005,428.39999999999964,5175.0,718.6,-475.6,2025-01-27 12:46:02,0.0
598.7999999999993,29.200000000000045,1172.3999999999996,5234.0,-1961.4,-2289.6,2025-01-27 12:46:02,0.0
-2145.2000000000007,1389.2,852.3999999999996,5000.0,-1774.4,-4828.6,2025-01-27 12:46:02,0.0
-5669.200000000001,1561.2,-635.6000000000004,4940.0,661.6,-6683.6,2025-01-27 12:46:02,0.0
-7917.200000000001,-986.8,-3427.6000000000004,3869.0,3444.6,-7623.6,2025-01-27 12:46:02,0.0
-8965.2,-3542.8,-4427.6,3048.0,4920.6,-7392.6,2025-01-27 12:46:02,0.0
-9065.2,-3358.8,-3923.6000000000004,3603.0,5052.6,-6032.6,2025-01-27 12:46:02,0.0
-6669.200000000001,-3534.8,-3383.6000000000004,4086.0,3234.6,-4418.6,2025-01-27 12:46:02,0.0
-3669.2000000000007,-2754.8,872.3999999999996,4538.0,116.6,-3431.6,2025-01-27 12:46:02,0.0
-205.20000000000073,-6298.8,4632.4,2615.0,-2135.4,-3980.6,2025-01-27 12:46:02,0.0
1758.7999999999993,-7626.8,5916.4,-3071.0,-4781.4,-8115.6,2025-01-27 12:46:02,0.0
-1665.2000000000007,-8054.8,7516.4,-9085.0,-4094.4,-12992.6,2025-01-27 12:46:02,0.0
-8537.2,-5138.8,6180.4,-7617.0,-182.4,-6551.6,2025-01-27 12:46:02,0.0
-5497.200000000001,1485.2,1680.3999999999996,-6218.0,3661.6,3867.4,2025-01-27 12:46:02,0.0
3438.7999999999993,669.2,4624.4,-4039.0,4957.6,7497.4,2025-01-27 12:46:02,0.0
6174.799999999999,1769.2,8440.4,-457.0,4889.6,5764.4,2025-01-27 12:46:02,0.0
5214.799999999999,3213.2,6336.4,2070.0,3085.6,4129.4,2025-01-27 12:46:02,0.0
3246.7999999999993,1977.2,2572.3999999999996,1327.0,-1537.4,3456.4,2025-01-27 12:46:02,0.0
438.7999999999993,-2694.8,2064.3999999999996,-42.0,-6912.4,3680.4,2025-01-27 12:46:02,0.0
-2073.2000000000007,-3726.8,-195.60000000000036,-911.0,-7649.4,4218.4,2025-01-27 12:46:02,0.0
-3297.2000000000007,-3430.8,-1163.6000000000004,-1908.0,-4380.4,5495.4,2025-01-27 12:46:02,0.0
-1249.2000000000007,-1798.8,-947.6000000000004,-2630.0,-426.4,7523.4,2025-01-27 12:46:02,0.0
2166.7999999999993,-362.79999999999995,252.39999999999964,-2174.0,2635.6,9306.4,2025-01-27 12:46:02,0.0
5018.799999999999,1137.2,564.3999999999996,-1116.0,4188.6,10181.4,2025-01-27 12:46:02,0.0
7658.799999999999,2309.2,-467.60000000000036,-1061.0,2898.6,9919.4,2025-01-27 12:46:02,0.0
8834.8,2265.2,-907.6000000000004,-1834.0,188.6,8516.4,2025-01-27 12:46:02,0.0
8318.8,1897.2,-2383.6000000000004,-2991.0,-3570.4,6683.4,2025-01-27 12:46:02,0.0
5474.799999999999,817.2,-3003.6000000000004,-3884.0,-5950.4,5749.4,2025-01-27 12:46:02,0.0
2614.7999999999993,405.20000000000005,-3415.6000000000004,-4306.0,-4909.4,6040.4,2025-01-27 12:46:02,0.0
2154.7999999999993,-190.79999999999995,-3343.6000000000004,-4671.0,-2835.4,5681.4,2025-01-27 12:46:02,0.0
3006.7999999999993,209.20000000000005,-2719.6000000000004,-4778.0,-1284.4,4536.4,2025-01-27 12:46:02,0.0
3998.7999999999993,1105.2,-2555.6000000000004,-5051.0,-976.4,3467.4,2025-01-27 12:46:02,0.0
4966.799999999999,1421.2,-1863.6000000000004,-5476.0,-1666.4,2617.4,2025-01-27 12:46:02,0.0
4786.799999999999,981.2,-1083.6000000000004,-5703.0,-3208.4,1932.4,2025-01-27 12:46:02,0.0
1430.7999999999993,301.20000000000005,-911.6000000000004,-6271.0,-5592.4,1250.4,2025-01-27 12:46:02,0.0
-2097.2000000000007,97.20000000000005,-443.60000000000036,-7004.0,-6847.4,996.4,2025-01-27 12:46:02,0.0
-4497.200000000001,129.20000000000005,1304.3999999999996,-6957.0,-5780.4,1541.4,2025-01-27 12:46:02,0.0
-6793.200000000001,909.2,3212.3999999999996,-6067.0,-3218.4,2577.4,2025-01-27 12:46:02,0.0
-8793.2,3137.2,3392.3999999999996,-4715.0,-1183.4,3643.4,2025-01-27 12:46:02,0.0
-10165.2,5385.2,3676.3999999999996,-2685.0,256.6,5651.4,2025-01-27 12:46:02,0.0
-8381.2,6041.2,1436.3999999999996,-956.0,2519.6,6867.4,2025-01-27 12:46:02,0.0
-4161.200000000001,4205.2,-439.60000000000036,-600.0,4773.6,5776.4,2025-01-27 12:46:02,0.0
-3545.2000000000007,1581.2,3892.3999999999996,-1489.0,3142.6,4408.4,2025-01-27 12:46:02,0.0
-4997.200000000001,1213.2,3272.3999999999996,-1427.0,-1435.4,5006.4,2025-01-27 12:46:02,0.0
-5525.200000000001,4585.2,4596.4,-522.0,-629.4,5288.4,2025-01-27 12:46:02,0.0
-5149.200000000001,6005.2,7384.4,1420.0,3147.6,6114.4,2025-01-27 12:46:02,0.0
-277.2000000000007,6397.2,8160.4,2450.0,9440.6,5384.4,2025-01-27 12:46:02,0.0
4678.799999999999,4365.2,8232.4,2718.0,16771.6,1394.4,2025-01-27 12:46:02,0.0
6142.799999999999,777.2,6512.4,4999.0,12838.6,-947.6,2025-01-27 12:46:02,0.0
8002.799999999999,-1398.8,4808.4,3477.0,7669.6,-1799.6,2025-01-27 12:46:02,0.0
5806.799999999999,-3118.8,3636.3999999999996,1573.0,277.6,-1879.6,2025-01-27 12:46:02,0.0
4378.799999999999,-2834.8,840.3999999999996,-308.0,-6498.4,-1863.6,2025-01-27 12:46:02,0.0
1842.7999999999993,-1230.8,-143.60000000000036,-2743.0,-10836.4,-2771.6,2025-01-27 12:46:02,0.0
-1929.2000000000007,1701.2,884.3999999999996,-3612.0,-10098.4,-4126.6,2025-01-27 12:46:02,0.0
-4021.2000000000007,3977.2,2336.3999999999996,-1677.0,-4338.4,-4685.6,2025-01-27 12:46:02,0.0
-1737.2000000000007,4585.2,2772.3999999999996,274.0,3563.6,-4980.6,2025-01-27 12:46:02,0.0
1154.7999999999993,2621.2,2292.3999999999996,1945.0,9523.6,-4515.6,2025-01-27 12:46:03,0.0
7026.799999999999,1461.2,-375.60000000000036,3536.0,10333.6,-3661.6,2025-01-27 12:46:03,0.0
10650.8,201.20000000000005,-883.6000000000004,4098.0,8377.6,-4096.6,2025-01-27 12:46:03,
12858.8,-494.79999999999995,-2651.6000000000004,4276.0,4310.6,-4999.6,2025-01-27 12:46:03,0.0
11034.8,-1166.8,-3467.6000000000004,4296.0,-1582.4,-6531.6,2025-01-27 12:46:03,0.0
7486.799999999999,-1650.8,-4247.6,4047.0,-6626.4,-7690.6,2025-01-27 12:46:03,0.0
3738.7999999999993,-1114.8,-4087.6000000000004,3274.0,-7608.4,-9341.6,2025-01-27 12:46:03,0.0
-1949.2000000000007,-1226.8,-3071.6000000000004,2689.0,-4140.4,-9175.6,2025-01-27 12:46:03,0.0
-6833.200000000001,-2086.8,-3131.6000000000004,2191.0,-767.4,-4993.6,2025-01-27 12:46:03,0.0
-5169.200000000001,-3494.8,-3375.6000000000004,2020.0,2228.6,-73.6,2025-01-27 12:46:03,0.0
-449.2000000000007,-2074.8,-3227.6000000000004,1683.0,2913.6,1257.4,2025-01-27 12:46:03,0.0
2770.7999999999993,-690.8,-2207.6000000000004,1809.0,1787.6,200.4,2025-01-27 12:46:03,0.0
3662.7999999999993,1433.2,-2575.6000000000004,2474.0,-248.4,-1027.6,2025-01-27 12:46:03,0.0
2222.7999999999993,2441.2,-2455.6000000000004,3368.0,-1963.4,-2513.6,2025-01-27 12:46:03,0.0
-1349.2000000000007,1649.2,-1795.6000000000004,3824.0,-2211.4,-3079.6,2025-01-27 12:46:03,0.0
-2861.2000000000007,-554.8,-571.6000000000004,3946.0,-2481.4,-3714.6,2025-01-27 12:46:03,0.0
-5109.200000000001,-2294.8,1196.3999999999996,3654.0,-2256.4,-5363.6,2025-01-27 12:46:03,0.0
-7057.200000000001,-2906.8,1260.3999999999996,3275.0,-1192.4,-7116.6,2025-01-27 12:46:03,0.0
-8349.2,-3346.8,-1143.6000000000004,2235.0,-72.4,-7992.6,2025-01-27 12:46:03,0.0
-8589.2,-3630.8,-3015.6000000000004,1477.0,905.6,-7635.6,2025-01-27 12:46:03,0.0
-7557.200000000001,-2378.8,-2739.6000000000004,1821.0,2814.6,-5292.6,2025-01-27 12:46:03,0.0
-4569.200000000001,1865.2,1276.3999999999996,2946.0,128.6,-3962.6,2025-01-27 12:46:03,0.0
-1525.2000000000007,-2430.8,4512.4,3361.0,1614.6,-3573.6,2025-01-27 12:46:03,0.0
198.79999999999927,-6322.8,4492.4,428.0,2758.6,-4263.6,2025-01-27 12:46:03,0.0
546.7999999999993,-8378.8,5768.4,-4567.0,1620.6,-5810.6,2025-01-27 12:46:03,0.0
-669.2000000000007,-7406.8,6536.4,-6121.0,497.6,-5452.6,2025-01-27 12:46:03,0.0
-1733.2000000000007,-2334.8,4672.4,-5438.0,953.6,-2034.6,2025-01-27 12:46:03,0.0
-717.2000000000007,1673.2,5544.4,-4984.0,1637.6,1443.4,2025-01-27 12:46:03,0.0
1250.7999999999993,3341.2,8228.4,-1574.0,1847.6,2844.4,2025-01-27 12:46:03,0.0
806.7999999999993,5097.2,6476.4,1472.0,647.6,3147.4,2025-01-27 12:46:03,0.0
650.7999999999993,3733.2,4000.3999999999996,2460.0,-1489.4,4433.4,2025-01-27 12:46:03,0.0
274.7999999999993,-502.79999999999995,2664.3999999999996,2653.0,-4446.4,5132.4,2025-01-27 12:46:03,0.0
-689.2000000000007,-2986.8,1292.3999999999996,2425.0,-4944.4,5348.4,2025-01-27 12:46:03,0.0
-425.2000000000007,-4490.8,-583.6000000000004,1391.0,-3554.4,5758.4,2025-01-27 12:46:03,0.0
1590.7999999999993,-4214.8,-1571.6000000000004,313.0,-1158.4,6083.4,2025-01-27 12:46:03,0.0
2834.7999999999993,-2090.8,-2303.6000000000004,-114.0,1991.6,6774.4,2025-01-27 12:46:03,0.0
4970.799999999999,165.20000000000005,-2799.6000000000004,-10.0,3599.6,7875.4,2025-01-27 12:46:03,0.0
6790.799999999999,2333.2,-1995.6000000000004,73.0,3408.6,8614.4,2025-01-27 12:46:03,0.0
9078.8,3381.2,-2231.6000000000004,-763.0,501.6,8245.4,2025-01-27 12:46:03,0.0
9942.8,3865.2,-2067.6000000000004,-1551.0,-2825.4,6483.4,2025-01-27 12:46:03,0.0
7930.799999999999,2713.2,-1963.6000000000004,-1754.0,-5840.4,4422.4,2025-01-27 12:46:03,0.0
4042.7999999999993,1697.2,-3055.6000000000004,-1673.0,-6299.4,3768.4,2025-01-27 12:46:03,0.0
1814.7999999999993,637.2,-3483.6000000000004,-2090.0,-4552.4,3642.4,2025-01-27 12:46:03,0.0
1778.7999999999993,313.20000000000005,-3155.6000000000004,-2326.0,-2330.4,2811.4,2025-01-27 12:46:03,0.0
1946.7999999999993,745.2,-2955.6000000000004,-2344.0,-595.4,1755.4,2025-01-27 12:46:03,0.0
2582.7999999999993,1109.2,-2507.6000000000004,-2788.0,282.6,828.4,2025-01-27 12:46:03,0.0
2878.7999999999993,1057.2,-1835.6000000000004,-3742.0,-807.4,332.4,2025-01-27 12:46:03,0.0
1814.7999999999993,601.2,-891.6000000000004,-4701.0,-2675.4,150.4,2025-01-27 12:46:03,0.0
486.7999999999993,-158.79999999999995,-1043.6000000000004,-5859.0,-4325.4,124.4,2025-01-27 12:46:03,0.0
-3005.2000000000007,-370.79999999999995,504.39999999999964,-6275.0,-5059.4,655.4,2025-01-27 12:46:03,0.0
-6525.200000000001,369.20000000000005,2372.3999999999996,-6063.0,-5334.4,2064.4,2025-01-27 12:46:03,0.0
-8697.2,3181.2,3044.3999999999996,-4820.0,-4622.4,4117.4,2025-01-27 12:46:03,0.0
-9349.2,6661.2,2404.3999999999996,-2979.0,-1829.4,5920.4,2025-01-27 12:46:03,0.0
-8241.2,7601.2,972.3999999999996,-1419.0,2775.6,6396.4,2025-01-27 12:46:03,0.0
-6037.200000000001,4981.2,460.39999999999964,-772.0,5619.6,5334.4,2025-01-27 12:46:03,0.0
-4225.200000000001,2137.2,2564.3999999999996,-1346.0,3375.6,4337.4,2025-01-27 12:46:03,0.0
-4001.2000000000007,249.20000000000005,4468.4,-2191.0,965.6,4579.4,2025-01-27 12:46:03,0.0
-3553.2000000000007,3841.2,4608.4,-1392.0,108.6,4419.4,2025-01-27 12:46:03,0.0
-3409.2000000000007,6589.2,5876.4,728.0,3271.6,4662.4,2025-01-27 12:46:03,0.0
410.7999999999993,6049.2,6484.4,2048.0,8796.6,3717.4,2025-01-27 12:46:03,0.0
3282.7999999999993,2425.2,7920.4,2608.0,14038.6,504.4,2025-01-27 12:46:03,0.0
3930.7999999999993,549.2,7360.4,4421.0,12910.6,188.4,2025-01-27 12:46:04,0.0
6054.799999999999,-1378.8,5792.4,4446.0,8343.6,1076.4,2025-01-27 12:46:04,0.0
7814.799999999999,-2882.8,3400.3999999999996,3065.0,2392.6,-62.599999999999994,2025-01-27 12:46:04,0.0
6810.799999999999,-2798.8,1136.3999999999996,1051.0,-2927.4,-2080.6,2025-01-27 12:46:04,0.0
3666.7999999999993,-1774.8,132.39999999999964,-740.0,-7238.4,-3828.6,2025-01-27 12:46:04,0.0
642.7999999999993,761.2,788.3999999999996,-2213.0,-9754.4,-5091.6,2025-01-27 12:46:04,0.0
-3105.2000000000007,3737.2,2716.3999999999996,-1707.0,-7787.4,-5514.6,2025-01-27 12:46:04,0.0
-3369.2000000000007,4437.2,3132.3999999999996,275.0,-2349.4,-5412.6,2025-01-27 12:46:04,0.0
-85.20000000000073,2089.2,1396.3999999999996,1455.0,4145.6,-6015.6,2025-01-27 12:46:04,0.0
2810.7999999999993,-662.8,600.3999999999996,2638.0,7807.6,-5605.6,2025-01-27 12:46:04,0.0
5862.799999999999,-1318.8,-1579.6000000000004,3294.0,8801.6,-4489.6,2025-01-27 12:46:04,0.0
7734.799999999999,-1314.8,-2075.6000000000004,3204.0,7183.6,-3853.6,2025-01-27 12:46:04,0.0
9778.8,-1854.8,-2903.6000000000004,2809.0,3060.6,-4070.6,2025-01-27 12:46:04,0.0
9110.8,-1854.8,-3035.6000000000004,2666.0,-1936.4,-5357.6,2025-01-27 12:46:04,0.0
6446.799999999999,-1134.8,-2863.6000000000004,2840.0,-4859.4,-6792.6,2025-01-27 12:46:04,0.0
3034.7999999999993,-598.8,-3999.6000000000004,2628.0,-5779.4,-7507.6,2025-01-27 12:46:04,0.0
-185.20000000000073,41.200000000000045,-4523.6,1650.0,-4723.4,-6988.6,2025-01-27 12:46:04,0.0
-2857.2000000000007,-618.8,-2311.6000000000004,1521.0,-895.4,-4455.6,2025-01-27 12:46:04,0.0
-2049.2000000000007,-962.8,-1483.6000000000004,2482.0,1717.6,-277.6,2025-01-27 12:46:04,0.0
1670.7999999999993,637.2,-2663.6000000000004,3084.0,2098.6,1011.4,2025-01-27 12:46:04,0.0
2382.7999999999993,1433.2,-2899.6000000000004,4076.0,1840.6,180.4,2025-01-27 12:46:04,0.0
1134.7999999999993,1281.2,-2675.6000000000004,4934.0,1198.6,-283.6,2025-01-27 12:46:04,0.0
-377.2000000000007,-606.8,-1239.6000000000004,5458.0,696.6,-599.6,2025-01-27 12:46:04,0.0
-1545.2000000000007,-2162.8,-471.60000000000036,5363.0,-596.4,-1672.6,2025-01-27 12:46:04,0.0
-4413.200000000001,-2650.8,-207.60000000000036,4624.0,-1525.4,-4039.6,2025-01-27 12:46:04,0.0
-6885.200000000001,-1258.8,-2303.6000000000004,3718.0,-2066.4,-5259.6,2025-01-27 12:46:04,0.0
-7081.200000000001,-1438.8,-4307.6,1536.0,-1920.4,-7082.6,2025-01-27 12:46:04,0.0
-7821.200000000001,-3074.8,-3415.6000000000004,219.0,-347.4,-8887.6,2025-01-27 12:46:04,0.0
-7725.200000000001,-5082.8,244.39999999999964,-256.0,558.6,-8984.6,2025-01-27 12:46:04,0.0
-7853.200000000001,-3882.8,1616.3999999999996,713.0,584.6,-6999.6,2025-01-27 12:46:04,0.0
-6497.200000000001,-5058.8,2132.3999999999996,441.0,2387.6,-4509.6,2025-01-27 12:46:04,0.0
-4541.200000000001,-5306.8,3624.3999999999996,-2122.0,3245.6,-3418.6,2025-01-27 12:46:04,0.0
-3221.2000000000007,-3498.8,6460.4,-5362.0,4507.6,-4262.6,2025-01-27 12:46:04,0.0
-2797.2000000000007,-1150.8,7096.4,-4975.0,5605.6,-1997.6,2025-01-27 12:46:04,0.0
1574.7999999999993,605.2,6060.4,-4391.0,4705.6,1654.4,2025-01-27 12:46:04,0.0
6218.799999999999,-382.79999999999995,6952.4,-2141.0,2400.6,2482.4,2025-01-27 12:46:04,0.0
6526.799999999999,1045.2,5456.4,-328.0,-630.4,1453.4,2025-01-27 12:46:04,0.0
3654.7999999999993,2333.2,3836.3999999999996,294.0,-3604.4,1200.4,2025-01-27 12:46:04,0.0
1014.7999999999993,1161.2,2912.3999999999996,555.0,-5218.4,2447.4,2025-01-27 12:46:04,0.0
-961.2000000000007,-966.8,2148.3999999999996,808.0,-5476.4,3843.4,2025-01-27 12:46:04,0.0
-2501.2000000000007,-2186.8,572.3999999999996,641.0,-4180.4,4687.4,2025-01-27 12:46:04,0.0
-3689.2000000000007,-1810.8,-563.6000000000004,-287.0,-2534.4,5836.4,2025-01-27 12:46:04,
-1177.2000000000007,-846.8,-575.6000000000004,-858.0,880.6,7744.4,2025-01-27 12:46:04,0.0
3090.7999999999993,-158.79999999999995,-767.6000000000004,-131.0,4468.6,8595.4,2025-01-27 12:46:04,0.0
6426.799999999999,1361.2,-2507.6000000000004,789.0,5268.6,8122.4,2025-01-27 12:46:04,0.0
8662.8,2045.2,-3307.6000000000004,496.0,2870.6,7120.4,2025-01-27 12:46:04,0.0
8234.8,2013.2,-3043.6000000000004,-365.0,-1011.4,6093.4,2025-01-27 12:46:04,0.0
7130.799999999999,1869.2,-3243.6000000000004,-1661.0,-4398.4,5054.4,2025-01-27 12:46:04,0.0
4318.799999999999,501.20000000000005,-2895.6000000000004,-2001.0,-5918.4,4284.4,2025-01-27 12:46:04,0.0
1638.7999999999993,-10.799999999999955,-4327.6,-2286.0,-4577.4,4112.4,2025-01-27 12:46:04,0.0
1074.7999999999993,-278.79999999999995,-4323.6,-3031.0,-2065.4,3851.4,2025-01-27 12:46:04,0.0
2214.7999999999993,357.20000000000005,-3635.6000000000004,-3250.0,-108.4,3519.4,2025-01-27 12:46:04,0.0
3794.7999999999993,801.2,-3339.6000000000004,-3310.0,618.6,2864.4,2025-01-27 12:46:04,0.0
4778.799999999999,877.2,-3511.6000000000004,-3881.0,-298.4,1849.4,2025-01-27 12:46:04,0.0
4190.799999999999,645.2,-2903.6000000000004,-4752.0,-2355.4,1164.4,2025-01-27 12:46:04,0.0
1734.7999999999993,453.20000000000005,-2243.6000000000004,-5473.0,-4309.4,1064.4,2025-01-27 12:46:04,0.0
-461.2000000000007,493.20000000000005,-1631.6000000000004,-5990.0,-4811.4,1083.4,2025-01-27 12:46:04,0.0
-2729.2000000000007,509.20000000000005,60.399999999999636,-5923.0,-3877.4,1240.4,2025-01-27 12:46:04,0.0
-4953.200000000001,1317.2,1576.3999999999996,-5114.0,-2404.4,1927.4,2025-01-27 12:46:04,0.0
-7045.200000000001,4817.2,1800.3999999999996,-3765.0,-1406.4,3520.4,2025-01-27 12:46:05,0.0
-8517.2,7417.2,2392.3999999999996,-2243.0,-1484.4,5028.4,2025-01-27 12:46:05,0.0
-8597.2,8173.2,912.3999999999996,-456.0,624.6,6111.4,2025-01-27 12:46:05,0.0
-5901.200000000001,5133.2,-1583.6000000000004,510.0,4696.6,5347.4,2025-01-27 12:46:05,0.0
-5989.200000000001,2445.2,2752.3999999999996,310.0,2325.6,4252.4,2025-01-27 12:46:05,0.0
-7349.200000000001,-158.79999999999995,3436.3999999999996,62.0,-1505.4,5067.4,2025-01-27 12:46:05,0.0
-7789.200000000001,4433.2,2824.3999999999996,1462.0,-1717.4,6433.4,2025-01-27 12:46:05,0.0
-4233.200000000001,6377.2,6132.4,3491.0,1150.6,6763.4,2025-01-27 12:46:05,0.0
2218.7999999999993,5405.2,7884.4,3023.0,8311.6,3187.4,2025-01-27 12:46:05,0.0
4546.799999999999,2717.2,11016.4,3088.0,16936.6,-2182.6,2025-01-27 12:46:05,0.0
2990.7999999999993,1037.2,10132.4,4363.0,20288.6,-3034.6,2025-01-27 12:46:05,0.0
3250.7999999999993,-710.8,2676.3999999999996,5226.0,8632.6,149.4,2025-01-27 12:46:05,0.0
7394.799999999999,-2926.8,-139.60000000000036,1402.0,553.6,142.4,2025-01-27 12:46:05,0.0
7138.799999999999,-3298.8,-59.600000000000364,-959.0,-5582.4,-2106.6,2025-01-27 12:46:05,0.0
3662.7999999999993,-1002.8,1008.3999999999996,-1766.0,-9555.4,-4246.6,2025-01-27 12:46:05,0.0
438.7999999999993,2689.2,1036.3999999999996,-2055.0,-10961.4,-5421.6,2025-01-27 12:46:05,0.0
-2589.2000000000007,4425.2,1464.3999999999996,-459.0,-7477.4,-5276.6,2025-01-27 12:46:05,0.0
-1729.2000000000007,3677.2,548.3999999999996,576.0,-2398.4,-5065.6,2025-01-27 12:46:05,0.0
1426.7999999999993,1641.2,-427.60000000000036,1338.0,1818.6,-5188.6,2025-01-27 12:46:05,0.0
3846.7999999999993,281.20000000000005,-551.6000000000004,2010.0,4287.6,-4651.6,2025-01-27 12:46:05,0.0
4818.799999999999,-462.79999999999995,-687.6000000000004,2514.0,4403.6,-3564.6,2025-01-27 12:46:05,0.0
10302.8,-518.8,-5195.6,2632.0,2216.6,-3740.6,2025-01-27 12:46:05,0.0
8722.8,-2002.8,-2343.6000000000004,2453.0,-726.4,-4328.6,2025-01-27 12:46:05,0.0
7038.799999999999,-2902.8,-2295.6000000000004,2607.0,-3684.4,-5212.6,2025-01-27 12:46:05,0.0
3726.7999999999993,-2354.8,-2243.6000000000004,2521.0,-5571.4,-5578.6,2025-01-27 12:46:05,0.0
1234.7999999999993,-1206.8,-3607.6000000000004,2185.0,-5721.4,-5457.6,2025-01-27 12:46:05,0.0
-1077.2000000000007,-250.79999999999995,-5139.6,1343.0,-3532.4,-4671.6,2025-01-27 12:46:05,0.0
-3477.2000000000007,-1170.8,-4059.6000000000004,833.0,970.6,-1721.6,2025-01-27 12:46:05,0.0
-1937.2000000000007,-950.8,-2999.6000000000004,1131.0,3403.6,1024.4,2025-01-27 12:46:05,0.0
1850.7999999999993,237.20000000000005,-2783.6000000000004,1722.0,3799.6,1576.4,2025-01-27 12:46:05,0.0
3134.7999999999993,1777.2,-2231.6000000000004,2585.0,2265.6,641.4,2025-01-27 12:46:05,0.0
2998.7999999999993,2017.2,-1439.6000000000004,4038.0,746.6,-718.6,2025-01-27 12:46:05,0.0
1050.7999999999993,1833.2,-1539.6000000000004,4997.0,-431.4,-1806.6,2025-01-27 12:46:05,0.0
-857.2000000000007,1213.2,-651.6000000000004,4830.0,-1594.4,-2748.6,2025-01-27 12:46:05,0.0
-3781.2000000000007,429.20000000000005,84.39999999999964,4415.0,-3446.4,-4445.6,2025-01-27 12:46:05,0.0
-5601.200000000001,-22.799999999999955,-1251.6000000000004,3540.0,-4455.4,-6807.6,2025-01-27 12:46:05,0.0
-7193.200000000001,-1898.8,-2655.6000000000004,1887.0,-4170.4,-9132.6,2025-01-27 12:46:05,0.0
-8081.200000000001,-4178.8,-2491.6000000000004,1155.0,-1996.4,-10070.6,2025-01-27 12:46:05,0.0
-8141.200000000001,-4842.8,-239.60000000000036,1919.0,-216.4,-8369.6,2025-01-27 12:46:05,0.0
-7845.200000000001,-462.79999999999995,2248.3999999999996,2500.0,-2060.4,-6469.6,2025-01-27 12:46:05,0.0
-4785.200000000001,-2434.8,6320.4,2680.0,-357.4,-6583.6,2025-01-27 12:46:05,0.0
-4757.200000000001,-7010.8,7260.4,1529.0,1939.6,-7468.6,2025-01-27 12:46:05,0.0
-5801.200000000001,-9246.8,5996.4,-1255.0,4085.6,-6295.6,2025-01-27 12:46:05,0.0
-3789.2000000000007,-2842.8,1024.3999999999996,-2729.0,7281.6,577.4,2025-01-27 12:46:05,0.0
2878.7999999999993,269.20000000000005,1280.3999999999996,-3944.0,8569.6,4268.4,2025-01-27 12:46:05,0.0
8630.8,1913.2,7812.4,-1882.0,4610.6,4970.4,2025-01-27 12:46:05,0.0
10794.8,2401.2,9808.4,1054.0,847.6,1686.4,2025-01-27 12:46:05,0.0
7582.799999999999,3077.2,6216.4,2347.0,-3900.4,-1306.6,2025-01-27 12:46:05,0.0
2546.7999999999993,1637.2,3208.3999999999996,1725.0,-8161.4,-1516.6,2025-01-27 12:46:05,0.0
-2069.2000000000007,-1150.8,1576.3999999999996,1138.0,-9565.4,882.4,2025-01-27 12:46:05,0.0
-5605.200000000001,-2950.8,-191.60000000000036,-42.0,-7803.4,3993.4,2025-01-27 12:46:05,0.0
-5693.200000000001,-3030.8,-319.60000000000036,-1747.0,-4443.4,6756.4,2025-01-27 12:46:05,0.0
-1093.2000000000007,-1622.8,1308.3999999999996,-2377.0,1391.6,9127.4,2025-01-27 12:46:05,0.0
3790.7999999999993,-294.79999999999995,2004.3999999999996,-1299.0,4928.6,9358.4,2025-01-27 12:46:05,0.0
7626.799999999999,669.2,108.39999999999964,-470.0,6272.6,8109.4,2025-01-27 12:46:05,0.0
8718.8,1925.2,-1183.6000000000004,-324.0,5093.6,6834.4,2025-01-27 12:46:05,0.0
9542.8,2449.2,-2739.6000000000004,-1050.0,1938.6,6321.4,2025-01-27 12:46:05,0.0
8126.799999999999,2453.2,-3415.6000000000004,-2253.0,-2530.4,5879.4,2025-01-27 12:46:05,0.0
6802.799999999999,2661.2,-3407.6000000000004,-3261.0,-5658.4,5257.4,2025-01-27 12:46:05,0.0
3666.7999999999993,1905.2,-2599.6000000000004,-3294.0,-5738.4,4768.4,2025-01-27 12:46:05,0.0
2598.7999999999993,1033.2,-3143.6000000000004,-3466.0,-3158.4,4116.4,2025-01-27 12:46:05,0.0
2778.7999999999993,669.2,-2343.6000000000004,-3828.0,-1018.4,2978.4,2025-01-27 12:46:05,0.0
2974.7999999999993,901.2,-2335.6000000000004,-4149.0,-104.4,1838.4,2025-01-27 12:46:06,0.0
2842.7999999999993,1129.2,-2611.6000000000004,-4781.0,-266.4,653.4,2025-01-27 12:46:06,0.0
2146.7999999999993,1069.2,-2587.6000000000004,-5484.0,-873.4,26.400000000000006,2025-01-27 12:46:06,0.0
458.7999999999993,913.2,-1383.6000000000004,-6227.0,-1481.4,81.4,2025-01-27 12:46:06,0.0
-1301.2000000000007,237.20000000000005,240.39999999999964,-6745.0,-2081.4,727.4,2025-01-27 12:46:06,0.0
-2757.2000000000007,-814.8,1308.3999999999996,-6599.0,-2527.4,1518.4,2025-01-27 12:46:06,0.0
-4565.200000000001,-470.79999999999995,1308.3999999999996,-5706.0,-3068.4,2419.4,2025-01-27 12:46:06,0.0
-7609.200000000001,2113.2,564.3999999999996,-4712.0,-4021.4,4085.4,2025-01-27 12:46:06,0.0
-8933.2,4225.2,168.39999999999964,-3700.0,-3640.4,6186.4,2025-01-27 12:46:06,0.0
-8405.2,5069.2,-331.60000000000036,-2761.0,-77.4,7260.4,2025-01-27 12:46:06,0.0
-7145.200000000001,4045.2,392.39999999999964,-2665.0,2561.6,5957.4,2025-01-27 12:46:06,0.0
-8421.2,3277.2,6012.4,-2781.0,1606.6,5888.4,2025-01-27 12:46:06,0.0
-6521.200000000001,3373.2,7968.4,-778.0,1068.6,6429.4,2025-01-27 12:46:06,0.0
-6037.200000000001,6989.2,6232.4,2428.0,2793.6,6813.4,2025-01-27 12:46:06,0.0
-2417.2000000000007,7601.2,6020.4,4146.0,7957.6,6097.4,2025-01-27 12:46:06,0.0
2970.7999999999993,5341.2,4872.4,3208.0,13892.6,2276.4,2025-01-27 12:46:06,0.0
5750.799999999999,893.2,7372.4,3205.0,13703.6,-1565.6,2025-01-27 12:46:06,0.0
7682.799999999999,-354.79999999999995,7496.4,2832.0,10678.6,-2447.6,2025-01-27 12:46:06,0.0
6894.799999999999,-2358.8,5476.4,2150.0,3699.6,-2007.6,2025-01-27 12:46:06,0.0
5954.799999999999,-3442.8,716.3999999999996,803.0,-6835.4,-2323.6,2025-01-27 12:46:06,0.0
4250.799999999999,-2366.8,-1903.6000000000004,-1691.0,-13135.4,-3828.6,2025-01-27 12:46:06,
454.7999999999993,353.20000000000005,996.3999999999996,-3666.0,-13712.4,-4872.6,2025-01-27 12:46:06,0.0
-2945.2000000000007,3065.2,4196.4,-2834.0,-10564.4,-4833.6,2025-01-27 12:46:06,0.0
-2553.2000000000007,3969.2,3692.3999999999996,-463.0,-4579.4,-4922.6,2025-01-27 12:46:06,0.0
-673.2000000000007,2841.2,2600.3999999999996,368.0,3051.6,-5659.6,2025-01-27 12:46:06,0.0
1874.7999999999993,-306.79999999999995,872.3999999999996,2030.0,7362.6,-5709.6,2025-01-27 12:46:06,0.0
4706.799999999999,-1114.8,-887.6000000000004,2572.0,7901.6,-4429.6,2025-01-27 12:46:06,0.0
8218.8,-1286.8,-1643.6000000000004,2159.0,7154.6,-3072.6,2025-01-27 12:46:06,0.0
9818.8,-994.8,-1055.6000000000004,2234.0,4085.6,-3368.6,2025-01-27 12:46:06,0.0
10534.8,-774.8,-1539.6000000000004,2423.0,-630.4,-4156.6,2025-01-27 12:46:06,0.0
