acceleration_x,acceleration_y,acceleration_z,gyroscope_x,gyroscope_y,gyroscope_z,timestamp,label
-72.40000000000146,-174.79999999999995,39.600000000000364,209.60000000000002,102.4,-45.900000000000006,2025-01-27 13:52:25,0.0
-104.40000000000146,-114.79999999999995,35.600000000000364,112.60000000000002,91.4,-17.900000000000006,2025-01-27 13:52:25,0.0
-100.40000000000146,-6.7999999999999545,-192.39999999999964,79.60000000000002,126.4,-46.900000000000006,2025-01-27 13:52:25,0.0
-8.400000000001455,-30.799999999999955,-144.39999999999964,60.60000000000002,176.4,-41.900000000000006,2025-01-27 13:52:25,0.0
23.599999999998545,41.200000000000045,79.60000000000036,16.600000000000023,225.4,-12.900000000000006,2025-01-27 13:52:25,0.0
231.59999999999854,9.200000000000045,-4.399999999999636,-5.399999999999977,195.4,-11.900000000000006,2025-01-27 13:52:25,0.0
183.59999999999854,-2.7999999999999545,123.60000000000036,-119.39999999999998,-11.599999999999994,24.099999999999994,2025-01-27 13:52:25,0.0
83.59999999999854,13.200000000000045,43.600000000000364,-128.39999999999998,-224.6,43.099999999999994,2025-01-27 13:52:25,0.0
-92.40000000000146,85.20000000000005,7.600000000000364,-160.39999999999998,-350.6,41.099999999999994,2025-01-27 13:52:25,0.0
-144.40000000000146,181.20000000000005,11.600000000000364,-65.39999999999998,-330.6,69.1,2025-01-27 13:52:25,0.0
-188.40000000000146,237.20000000000005,11.600000000000364,2.6000000000000227,-220.6,49.099999999999994,2025-01-27 13:52:25,0.0
-4.400000000001455,149.20000000000005,-184.39999999999964,65.60000000000002,-129.6,58.099999999999994,2025-01-27 13:52:25,0.0
-32.400000000001455,185.20000000000005,-116.39999999999964,98.60000000000002,-140.6,46.099999999999994,2025-01-27 13:52:25,0.0
19.599999999998545,209.20000000000005,-0.3999999999996362,123.60000000000002,-174.6,35.099999999999994,2025-01-27 13:52:25,0.0
-36.400000000001455,197.20000000000005,-124.39999999999964,184.60000000000002,-217.6,51.099999999999994,2025-01-27 13:52:25,0.0
-92.40000000000146,181.20000000000005,-116.39999999999964,233.60000000000002,-184.6,72.1,2025-01-27 13:52:25,0.0
-32.400000000001455,153.20000000000005,71.60000000000036,318.6,-86.6,34.099999999999994,2025-01-27 13:52:25,0.0
111.59999999999854,57.200000000000045,-120.39999999999964,331.6,-53.599999999999994,23.099999999999994,2025-01-27 13:52:25,0.0
203.59999999999854,149.20000000000005,47.600000000000364,324.6,-181.6,29.099999999999994,2025-01-27 13:52:25,0.0
79.59999999999854,185.20000000000005,19.600000000000364,396.6,-256.6,49.099999999999994,2025-01-27 13:52:25,0.0
-132.40000000000146,121.20000000000005,-16.399999999999636,382.6,-280.6,40.099999999999994,2025-01-27 13:52:25,0.0
-132.40000000000146,105.20000000000005,-116.39999999999964,427.6,-195.6,87.1,2025-01-27 13:52:25,0.0
-96.40000000000146,201.20000000000005,43.600000000000364,490.6,-131.6,89.1,2025-01-27 13:52:25,0.0
-40.400000000001455,145.20000000000005,-24.399999999999636,462.6,-127.6,111.1,2025-01-27 13:52:25,0.0
-68.40000000000146,29.200000000000045,67.60000000000036,478.6,-223.6,94.1,2025-01-27 13:52:25,0.0
-24.400000000001455,205.20000000000005,-56.399999999999636,504.6,-256.6,68.1,2025-01-27 13:52:25,0.0
-36.400000000001455,125.20000000000005,-152.39999999999964,538.6,-231.6,127.1,2025-01-27 13:52:25,0.0
-12.400000000001455,129.20000000000005,91.60000000000036,544.6,-302.6,114.1,2025-01-27 13:52:25,0.0
11.599999999998545,-46.799999999999955,-52.399999999999636,498.6,-242.6,111.1,2025-01-27 13:52:25,0.0
-52.400000000001455,-78.79999999999995,-72.39999999999964,485.6,-220.6,93.1,2025-01-27 13:52:25,0.0
-32.400000000001455,-94.79999999999995,-228.39999999999964,437.6,-169.6,70.1,2025-01-27 13:52:25,0.0
-80.40000000000146,1.2000000000000455,-188.39999999999964,414.6,-176.6,92.1,2025-01-27 13:52:25,0.0
-48.400000000001455,209.20000000000005,287.60000000000036,441.6,-338.6,225.1,2025-01-27 13:52:25,0.0
-72.40000000000146,-150.79999999999995,271.60000000000036,665.6,-623.6,470.1,2025-01-27 13:52:25,0.0
-12.400000000001455,-614.8,-408.39999999999964,375.6,-307.6,458.1,2025-01-27 13:52:25,0.0
-264.40000000000146,-542.8,-148.39999999999964,146.60000000000002,25.400000000000006,449.1,2025-01-27 13:52:25,0.0
-544.4000000000015,-454.79999999999995,291.60000000000036,171.60000000000002,48.400000000000006,618.1,2025-01-27 13:52:25,0.0
-540.4000000000015,-558.8,67.60000000000036,268.6,451.4,787.1,2025-01-27 13:52:25,0.0
-596.4000000000015,-930.8,203.60000000000036,148.60000000000002,1227.4,926.1,2025-01-27 13:52:25,0.0
-744.4000000000015,-1454.8,363.60000000000036,-62.39999999999998,1608.4,1096.1,2025-01-27 13:52:25,0.0
-236.40000000000146,-1682.8,507.60000000000036,-191.39999999999998,1847.4,1251.1,2025-01-27 13:52:26,0.0
247.59999999999854,-1654.8,415.60000000000036,-273.4,1735.4,1245.1,2025-01-27 13:52:26,0.0
599.5999999999985,-1550.8,223.60000000000036,-256.4,1201.4,1165.1,2025-01-27 13:52:26,0.0
887.5999999999985,-1346.8,-756.3999999999996,-211.39999999999998,335.4,864.1,2025-01-27 13:52:26,0.0
631.5999999999985,-1470.8,-840.3999999999996,-187.39999999999998,-466.6,532.1,2025-01-27 13:52:26,0.0
179.59999999999854,-1722.8,-780.3999999999996,-284.4,-1155.6,116.1,2025-01-27 13:52:26,0.0
-528.4000000000015,-1670.8,-344.39999999999964,-287.4,-904.6,-28.900000000000006,2025-01-27 13:52:26,0.0
-600.4000000000015,-1614.8,-720.3999999999996,-132.39999999999998,-259.6,-72.9,2025-01-27 13:52:26,0.0
-88.40000000000146,-1498.8,-1460.3999999999996,-201.39999999999998,-77.6,-421.9,2025-01-27 13:52:26,0.0
343.59999999999854,-1334.8,-1744.3999999999996,-293.4,-319.6,-806.9,2025-01-27 13:52:26,0.0
671.5999999999985,-1054.8,-1676.3999999999996,-388.4,-579.6,-1034.9,2025-01-27 13:52:26,0.0
911.5999999999985,-1074.8,-1292.3999999999996,-425.4,-852.6,-1126.9,2025-01-27 13:52:26,0.0
847.5999999999985,-1010.8,-1120.3999999999996,-692.4,-1151.6,-1245.9,2025-01-27 13:52:26,0.0
563.5999999999985,-1270.8,-756.3999999999996,-969.4,-1421.6,-1233.9,2025-01-27 13:52:26,0.0
483.59999999999854,-1410.8,-404.39999999999964,-1088.4,-1656.6,-1386.9,2025-01-27 13:52:26,0.0
155.59999999999854,-1246.8,-472.39999999999964,-1232.4,-1721.6,-1557.9,2025-01-27 13:52:26,0.0
-152.40000000000146,-810.8,-628.3999999999996,-1335.4,-1452.6,-1626.9,2025-01-27 13:52:26,0.0
-712.4000000000015,-150.79999999999995,135.60000000000036,-1302.4,-1061.6,-1713.9,2025-01-27 13:52:26,0.0
-1248.4000000000015,609.2,711.6000000000004,-1097.4,-680.6,-1748.9,2025-01-27 13:52:26,0.0
-1900.4000000000015,1829.2,955.6000000000004,-583.4,-231.6,-1571.9,2025-01-27 13:52:26,0.0
-2052.4000000000015,2985.2,491.60000000000036,208.60000000000002,389.4,-1220.9,2025-01-27 13:52:26,0.0
-1280.4000000000015,4485.2,-204.39999999999964,988.6,1585.4,-1001.9,2025-01-27 13:52:26,0.0
271.59999999999854,5765.2,-404.39999999999964,1731.6,2661.4,-1095.9,2025-01-27 13:52:26,0.0
2159.5999999999985,6129.2,-424.39999999999964,2735.6,2968.4,-1132.9,2025-01-27 13:52:26,0.0
4675.5999999999985,4481.2,-1156.3999999999996,4121.6,2869.4,-967.9,2025-01-27 13:52:26,0.0
7499.5999999999985,125.20000000000005,-5076.4,4746.6,1055.4,-2594.9,2025-01-27 13:52:26,0.0
7007.5999999999985,-3894.8,-8472.4,2369.6,-1042.6,-5301.9,2025-01-27 13:52:26,0.0
2599.5999999999985,-4790.8,-7412.4,-949.4,-2403.6,-6474.9,2025-01-27 13:52:26,0.0
-2116.4000000000015,-3754.8,-3208.3999999999996,-2779.4,-2471.6,-6288.9,2025-01-27 13:52:26,0.0
-5076.4000000000015,-974.8,-2556.3999999999996,-3647.4,-1288.6,-5079.9,2025-01-27 13:52:26,0.0
-6444.4000000000015,2173.2,-2260.3999999999996,-3585.4,975.4,-3807.9,2025-01-27 13:52:26,0.0
-4772.4000000000015,5265.2,-3176.3999999999996,-2742.4,3081.4,-3150.9,2025-01-27 13:52:26,0.0
-2516.4000000000015,5853.2,-3656.3999999999996,-2242.4,3278.4,-2869.9,2025-01-27 13:52:26,0.0
-176.40000000000146,4757.2,-3984.3999999999996,-1865.4,2353.4,-2262.9,2025-01-27 13:52:26,0.0
1223.5999999999985,1917.2,-4632.4,-1693.4,370.4,-1096.9,2025-01-27 13:52:26,0.0
1567.5999999999985,285.20000000000005,-5088.4,-2274.4,-1065.6,-1150.9,2025-01-27 13:52:26,0.0
55.599999999998545,61.200000000000045,-4788.4,-3297.4,-1936.6,-1106.9,2025-01-27 13:52:26,0.0
-2436.4000000000015,1165.2,-2500.3999999999996,-3790.4,-947.6,-143.9,2025-01-27 13:52:26,0.0
-2792.4000000000015,2717.2,-1400.3999999999996,-3852.4,1261.4,638.1,2025-01-27 13:52:26,0.0
-1588.4000000000015,3785.2,-1612.3999999999996,-3855.4,2986.4,883.1,2025-01-27 13:52:26,0.0
-136.40000000000146,4645.2,-2032.3999999999996,-3879.4,3299.4,719.1,2025-01-27 13:52:26,0.0
1183.5999999999985,5545.2,-1608.3999999999996,-3360.4,2860.4,1033.1,2025-01-27 13:52:26,0.0
2571.5999999999985,6253.2,-1480.3999999999996,-2790.4,1560.4,1293.1,2025-01-27 13:52:26,0.0
3783.5999999999985,5797.2,-504.39999999999964,-2141.4,75.4,1505.1,2025-01-27 13:52:26,0.0
3483.5999999999985,4685.2,-976.3999999999996,-1779.4,-633.6,1230.1,2025-01-27 13:52:26,0.0
1859.5999999999985,2285.2,-1160.3999999999996,-1795.4,-661.6,1198.1,2025-01-27 13:52:26,0.0
295.59999999999854,769.2,-2456.3999999999996,-1968.4,-251.6,1662.1,2025-01-27 13:52:26,0.0
743.5999999999985,1969.2,-3728.3999999999996,-2149.4,897.4,1903.1,2025-01-27 13:52:26,0.0
2167.5999999999985,4873.2,-3588.3999999999996,-2471.4,822.4,1840.1,2025-01-27 13:52:26,0.0
4895.5999999999985,5173.2,-2132.3999999999996,-1177.4,583.4,1256.1,2025-01-27 13:52:26,0.0
6383.5999999999985,5181.2,-3340.3999999999996,-524.4,-388.6,929.1,2025-01-27 13:52:26,0.0
6603.5999999999985,4433.2,-2244.3999999999996,-199.39999999999998,-1469.6,593.1,2025-01-27 13:52:26,0.0
6019.5999999999985,4521.2,-68.39999999999964,144.60000000000002,-2095.6,744.1,2025-01-27 13:52:26,0.0
5767.5999999999985,5437.2,1511.6000000000004,667.6,-1238.6,987.1,2025-01-27 13:52:26,0.0
5783.5999999999985,6149.2,3599.6000000000004,1589.6,285.4,663.1,2025-01-27 13:52:26,0.0
4743.5999999999985,6321.2,4451.6,3198.6,1340.4,-1.9000000000000057,2025-01-27 13:52:26,0.0
1703.5999999999985,6365.2,4471.6,5235.6,593.4,157.1,2025-01-27 13:52:26,0.0
-2344.4000000000015,6557.2,3663.6000000000004,7681.6,-986.6,1618.1,2025-01-27 13:52:26,0.0
-6040.4000000000015,6017.2,1843.6000000000004,9112.6,-2736.6,3992.1,2025-01-27 13:52:26,0.0
-7328.4000000000015,3253.2,2059.6000000000004,9551.6,-4185.6,5445.1,2025-01-27 13:52:26,
-8148.4000000000015,1557.2,1747.6000000000004,8970.6,-4330.6,5906.1,2025-01-27 13:52:26,0.0
-8248.400000000001,377.20000000000005,2699.6000000000004,8292.6,-3019.6,6463.1,2025-01-27 13:52:26,0.0
-6724.4000000000015,89.20000000000005,3495.6000000000004,8277.6,-991.6,6707.1,2025-01-27 13:52:27,0.0
-4468.4000000000015,1553.2,4227.6,8785.6,1816.4,6440.1,2025-01-27 13:52:27,0.0
-1212.4000000000015,3637.2,4191.6,10040.6,4335.4,5652.1,2025-01-27 13:52:27,0.0
1403.5999999999985,3921.2,2811.6000000000004,11395.6,5789.4,4444.1,2025-01-27 13:52:27,0.0
1851.5999999999985,2417.2,1399.6000000000004,11968.6,4527.4,4335.1,2025-01-27 13:52:27,0.0
547.5999999999985,-38.799999999999955,2395.6000000000004,12450.6,371.4,5654.1,2025-01-27 13:52:27,0.0
-228.40000000000146,-2578.8,3071.6000000000004,13246.6,-4278.6,7067.1,2025-01-27 13:52:27,0.0
-1360.4000000000015,-3370.8,1363.6000000000004,13522.6,-4996.6,7281.1,2025-01-27 13:52:27,0.0
-2644.4000000000015,-2602.8,1143.6000000000004,12721.6,-3154.6,6987.1,2025-01-27 13:52:27,0.0
-3228.4000000000015,-1762.8,1283.6000000000004,11957.6,-1048.6,6714.1,2025-01-27 13:52:27,0.0
-2400.4000000000015,-182.79999999999995,1379.6000000000004,12123.6,-111.6,7428.1,2025-01-27 13:52:27,0.0
-928.4000000000015,653.2,1259.6000000000004,13045.6,154.4,8136.1,2025-01-27 13:52:27,0.0
579.5999999999985,1249.2,735.6000000000004,13829.6,-694.6,8299.1,2025-01-27 13:52:27,0.0
27.599999999998545,829.2,855.6000000000004,14408.6,-1700.6,7875.1,2025-01-27 13:52:27,0.0
-500.40000000000146,45.200000000000045,875.6000000000004,15100.6,-2181.6,7164.1,2025-01-27 13:52:27,0.0
-2296.4000000000015,-1178.8,947.6000000000004,15003.6,-1501.6,6548.1,2025-01-27 13:52:27,0.0
-3188.4000000000015,-2226.8,287.60000000000036,14108.6,-528.6,6225.1,2025-01-27 13:52:27,0.0
-3564.4000000000015,-3170.8,-92.39999999999964,12910.6,172.4,6036.1,2025-01-27 13:52:27,0.0
-2748.4000000000015,-3890.8,-784.3999999999996,11868.6,-428.6,5659.1,2025-01-27 13:52:27,0.0
-876.4000000000015,-3814.8,-2296.3999999999996,11338.6,-1451.6,4813.1,2025-01-27 13:52:27,0.0
187.59999999999854,-2682.8,-2932.3999999999996,10635.6,-2097.6,3477.1,2025-01-27 13:52:27,0.0
239.59999999999854,-2122.8,-3044.3999999999996,9815.6,-2575.6,2350.1,2025-01-27 13:52:27,0.0
-176.40000000000146,-1490.8,-612.3999999999996,9713.6,-2389.6,1663.1,2025-01-27 13:52:27,0.0
311.59999999999854,-610.8,775.6000000000004,10487.6,-2165.6,1914.1,2025-01-27 13:52:27,0.0
1095.5999999999985,1357.2,827.6000000000004,12051.6,-1731.6,2906.1,2025-01-27 13:52:27,0.0
2715.5999999999985,3929.2,-1216.3999999999996,13040.6,-1461.6,3565.1,2025-01-27 13:52:27,0.0
3955.5999999999985,3233.2,-2456.3999999999996,13401.6,-1576.6,3308.1,2025-01-27 13:52:27,0.0
2831.5999999999985,-1306.8,-4980.4,12912.6,-2885.6,4030.1,2025-01-27 13:52:27,0.0
4455.5999999999985,-4338.8,-4832.4,12371.6,-4019.6,5091.1,2025-01-27 13:52:27,0.0
5531.5999999999985,-4958.8,-5024.4,12234.6,-4733.6,4574.1,2025-01-27 13:52:27,0.0
5043.5999999999985,-3346.8,-1168.3999999999996,10653.6,-4361.6,2983.1,2025-01-27 13:52:27,0.0
4987.5999999999985,-2090.8,3123.6000000000004,9642.6,-2444.6,3829.1,2025-01-27 13:52:27,0.0
3647.5999999999985,-4654.8,-516.3999999999996,8174.6,-1762.6,5735.1,2025-01-27 13:52:27,0.0
5787.5999999999985,-7362.8,523.6000000000004,4086.6,-3380.6,6799.1,2025-01-27 13:52:27,0.0
9603.599999999999,-9554.8,6063.6,2022.6,-5985.6,2558.1,2025-01-27 13:52:27,0.0
3467.5999999999985,-6618.8,3923.6000000000004,-398.4,-7384.6,-2664.9,2025-01-27 13:52:27,0.0
-3240.4000000000015,-4162.8,5147.6,-2866.4,-5368.6,-3301.9,2025-01-27 13:52:27,0.0
-6948.4000000000015,-906.8,5695.6,-2081.4,-1309.6,-2182.9,2025-01-27 13:52:27,0.0
-6200.4000000000015,2405.2,4687.6,-407.4,4085.4,-1039.9,2025-01-27 13:52:27,0.0
-2152.4000000000015,4153.2,3079.6000000000004,1198.6,7938.4,-1296.9,2025-01-27 13:52:29,0.0
1347.5999999999985,3381.2,1043.6000000000004,1802.6,8613.4,-2998.9,2025-01-27 13:52:29,0.0
3191.5999999999985,1365.2,-228.39999999999964,1556.6,6588.4,-4933.9,2025-01-27 13:52:29,0.0
3335.5999999999985,-1274.8,-400.39999999999964,1201.6,4095.4,-6134.9,2025-01-27 13:52:29,0.0
2523.5999999999985,-2210.8,119.60000000000036,850.6,1706.4,-6430.9,2025-01-27 13:52:29,0.0
911.5999999999985,-1550.8,651.6000000000004,868.6,-672.6,-6766.9,2025-01-27 13:52:29,0.0
-3396.4000000000015,-842.8,731.6000000000004,859.6,-2639.6,-6988.9,2025-01-27 13:52:29,0.0
-7004.4000000000015,-630.8,775.6000000000004,510.6,-2727.6,-6738.9,2025-01-27 13:52:29,0.0
-8956.400000000001,-782.8,-408.39999999999964,177.60000000000002,-1648.6,-6393.9,2025-01-27 13:52:29,0.0
-1204.4000000000015,-250.79999999999995,-584.3999999999996,3511.6,1516.4,-1237.9,2025-01-27 13:52:29,0.0
1159.5999999999985,-434.79999999999995,111.60000000000036,3551.6,2863.4,-268.9,2025-01-27 13:52:29,0.0
2727.5999999999985,-1454.8,315.60000000000036,3449.6,4324.4,1423.1,2025-01-27 13:52:31,0.0
2711.5999999999985,-4070.8,-1876.3999999999996,2818.6,3729.4,5309.1,2025-01-27 13:52:31,0.0
5379.5999999999985,-6886.8,-3420.3999999999996,2844.6,1154.4,10259.1,2025-01-27 13:52:31,0.0
11443.599999999999,-7006.8,-5640.4,2548.6,-3335.6,10839.1,2025-01-27 13:52:31,0.0
14318.599999999999,-5006.8,-3468.3999999999996,456.6,-3743.6,5572.1,2025-01-27 13:52:31,0.0
8759.599999999999,-2866.8,4343.6,19.600000000000023,-2575.6,3253.1,2025-01-27 13:52:31,0.0
5331.5999999999985,-4230.8,3483.6000000000004,1171.6,-2646.6,4560.1,2025-01-27 13:52:31,0.0
5147.5999999999985,-6922.8,1207.6000000000004,-1185.4,-4119.6,5680.1,2025-01-27 13:52:31,0.0
6483.5999999999985,-7822.8,5355.6,-3562.4,-7491.6,5157.1,2025-01-27 13:52:32,0.0
-624.4000000000015,-1206.8,-5652.4,3548.6,787.4,-738.9,2025-01-27 13:52:32,0.0
-1548.4000000000015,-1502.8,-3700.3999999999996,3435.6,-11.599999999999994,-1714.9,2025-01-27 13:52:32,0.0
-1568.4000000000015,-1178.8,-3592.3999999999996,3821.6,342.4,-2265.9,2025-01-27 13:52:32,0.0
-1384.4000000000015,-606.8,-1808.3999999999996,4727.6,742.4,-2011.9,2025-01-27 13:52:32,0.0
-976.4000000000015,-702.8,-728.3999999999996,5473.6,1218.4,-1269.9,2025-01-27 13:52:32,0.0
847.5999999999985,-1246.8,-1636.3999999999996,5730.6,1362.4,171.1,2025-01-27 13:52:32,0.0
3139.5999999999985,-1414.8,-2916.3999999999996,5267.6,2006.4,1714.1,2025-01-27 13:52:32,0.0
4603.5999999999985,-2174.8,-4380.4,4576.6,2505.4,2695.1,2025-01-27 13:52:32,0.0
4751.5999999999985,-4186.8,5143.6,4332.6,-608.6,5401.1,2025-01-27 13:52:32,0.0
4047.5999999999985,-9086.8,3523.6000000000004,-125.39999999999998,-5140.6,8268.1,2025-01-27 13:52:32,0.0
6747.5999999999985,-14942.8,5491.6,-3103.4,-10094.6,6166.1,2025-01-27 13:52:32,0.0
3655.5999999999985,-6778.8,-272.39999999999964,-5640.4,-6483.6,-412.9,2025-01-27 13:52:32,0.0
-112.40000000000146,-1326.8,1479.6000000000004,-8260.4,-7170.6,-1754.9,2025-01-27 13:52:32,0.0
-1164.4000000000015,2549.2,4715.6,-8315.4,-6795.6,-2456.9,2025-01-27 13:52:34,0.0
-1768.4000000000015,4241.2,7047.6,-5863.4,-3140.6,-2732.9,2025-01-27 13:52:34,0.0
-1244.4000000000015,4037.2,5639.6,-2598.4,1068.4,-2849.9,2025-01-27 13:52:34,0.0
183.59999999999854,2385.2,1815.6000000000004,-937.4,4356.4,-3497.9,2025-01-27 13:52:34,0.0
2411.5999999999985,-2334.8,-480.39999999999964,-1425.4,4997.4,-5446.9,2025-01-27 13:52:34,0.0
1415.5999999999985,-5098.8,-1040.3999999999996,-2600.4,3008.4,-6345.9,2025-01-27 13:52:34,0.0
-516.4000000000015,-4838.8,-16.399999999999636,-3519.4,375.4,-6180.9,2025-01-27 13:52:34,0.0
-680.4000000000015,-18.799999999999955,-268.39999999999964,2991.6,914.4,5018.1,2025-01-27 13:52:34,0.0
815.5999999999985,2821.2,819.6000000000004,3750.6,2721.4,6290.1,2025-01-27 13:52:34,0.0
2059.5999999999985,-4970.8,-2664.3999999999996,13.600000000000023,2608.4,-4638.9,2025-01-27 13:52:34,0.0
755.5999999999985,-4918.8,-2500.3999999999996,-1331.4,-272.6,-4800.9,2025-01-27 13:52:34,0.0
-1928.4000000000015,-2886.8,-1040.3999999999996,-2028.4,-1907.6,-5522.9,2025-01-27 13:52:34,0.0
-3480.4000000000015,-334.79999999999995,-2032.3999999999996,-2346.4,-4171.6,-6284.9,2025-01-27 13:52:34,0.0
-5744.4000000000015,1273.2,-1744.3999999999996,-2995.4,-5952.6,-6475.9,2025-01-27 13:52:34,0.0
-7032.4000000000015,2425.2,-1912.3999999999996,-3400.4,-6571.6,-6072.9,2025-01-27 13:52:34,0.0
-6956.4000000000015,3241.2,-2716.3999999999996,-3477.4,-4950.6,-5140.9,2025-01-27 13:52:34,0.0
-6576.4000000000015,3213.2,-3720.3999999999996,-3751.4,-838.6,-3866.9,2025-01-27 13:52:34,0.0
-4260.4000000000015,2741.2,-3584.3999999999996,-3893.4,1750.4,-2959.9,2025-01-27 13:52:34,0.0
-2340.4000000000015,1857.2,-3116.3999999999996,-3669.4,1715.4,-2807.9,2025-01-27 13:52:34,0.0
-1664.4000000000015,1269.2,-3484.3999999999996,-3281.4,-12.599999999999994,-2751.9,2025-01-27 13:52:34,0.0
-2716.4000000000015,1505.2,-3360.3999999999996,-2563.4,-2477.6,-1749.9,2025-01-27 13:52:34,0.0
3931.5999999999985,801.2,-3820.3999999999996,-6137.4,714.4,-1980.9,2025-01-27 13:52:34,0.0
6659.5999999999985,5413.2,4807.6,-5243.4,7308.4,-3835.9,2025-01-27 13:52:35,0.0
8991.599999999999,6829.2,9179.6,-1987.4,9053.4,-7043.9,2025-01-27 13:52:35,0.0
4135.5999999999985,6897.2,9259.6,1545.6,4354.4,-8520.9,2025-01-27 13:52:35,0.0
-2092.4000000000015,4253.2,6847.6,4406.6,-4095.6,-4235.9,2025-01-27 13:52:36,
-1992.4000000000015,-542.8,3215.6000000000004,5270.6,-9640.6,1026.1,2025-01-27 13:52:36,0.0
-1092.4000000000015,-3418.8,-868.3999999999996,2999.6,-11736.6,4173.1,2025-01-27 13:52:36,0.0
-836.4000000000015,-5658.8,-1052.3999999999996,305.6,-11016.6,5100.1,2025-01-27 13:52:36,0.0
-3132.4000000000015,2693.2,-2032.3999999999996,-2960.4,3236.4,5628.1,2025-01-27 13:52:36,0.0
-288.40000000000146,4869.2,1867.6000000000004,-1621.4,5189.4,5295.1,2025-01-27 13:52:36,0.0
-44.400000000001455,5113.2,2215.6000000000004,1464.6,5690.4,4336.1,2025-01-27 13:52:36,0.0
-2580.4000000000015,3073.2,-1156.3999999999996,2680.6,2856.4,4897.1,2025-01-27 13:52:36,0.0
-3076.4000000000015,1053.2,-1916.3999999999996,2184.6,-1878.6,5539.1,2025-01-27 13:52:36,0.0
119.59999999999854,-1434.8,-5908.4,17313.6,-4499.6,-252.9,2025-01-27 13:52:36,0.0
-104.40000000000146,-878.8,-5012.4,16811.6,-3479.6,-2014.9,2025-01-27 13:52:36,0.0
543.5999999999985,-306.79999999999995,-2496.3999999999996,16552.6,-2130.6,-3384.9,2025-01-27 13:52:36,0.0
1671.5999999999985,-330.79999999999995,-648.3999999999996,16895.6,-448.6,-3777.9,2025-01-27 13:52:36,0.0
2383.5999999999985,-622.8,-560.3999999999996,16525.6,904.4,-3093.9,2025-01-27 13:52:36,0.0
2643.5999999999985,-618.8,499.60000000000036,15520.6,2260.4,-982.9,2025-01-27 13:52:36,0.0
2791.5999999999985,-1214.8,1323.6000000000004,14985.6,2972.4,2002.1,2025-01-27 13:52:36,0.0
4359.5999999999985,-1834.8,-852.3999999999996,14194.6,1079.4,2424.1,2025-01-27 13:52:36,0.0
3287.5999999999985,-446.79999999999995,-2352.3999999999996,12855.6,-2664.6,612.1,2025-01-27 13:52:36,0.0
1499.5999999999985,937.2,-1640.3999999999996,12991.6,-4873.6,-1321.9,2025-01-27 13:52:36,0.0
-384.40000000000146,2881.2,-1348.3999999999996,13671.6,-4290.6,-2258.9,2025-01-27 13:52:36,0.0
-1360.4000000000015,4185.2,-464.39999999999964,14626.6,-2029.6,-2663.9,2025-01-27 13:52:36,0.0
-2060.4000000000015,4685.2,103.60000000000036,16417.6,1261.4,-2261.9,2025-01-27 13:52:36,0.0
-1480.4000000000015,4013.2,-100.39999999999964,17347.6,2374.4,-1297.9,2025-01-27 13:52:36,0.0
171.59999999999854,2781.2,-976.3999999999996,17501.6,2579.4,-987.9,2025-01-27 13:52:36,0.0
379.59999999999854,2053.2,-1680.3999999999996,17441.6,2530.4,-886.9,2025-01-27 13:52:36,0.0
315.59999999999854,1569.2,-1180.3999999999996,17928.6,2669.4,-359.9,2025-01-27 13:52:36,0.0
7.599999999998545,1357.2,-940.3999999999996,19110.6,3282.4,370.1,2025-01-27 13:52:36,0.0
495.59999999999854,2053.2,-1980.3999999999996,19616.6,3858.4,507.1,2025-01-27 13:52:36,0.0
459.59999999999854,2465.2,-2524.3999999999996,19611.6,3617.4,206.1,2025-01-27 13:52:37,0.0
271.59999999999854,2385.2,-2656.3999999999996,19580.6,2712.4,81.1,2025-01-27 13:52:37,0.0
11.599999999998545,1877.2,-2360.3999999999996,19541.6,1778.4,234.1,2025-01-27 13:52:37,0.0
507.59999999999854,1221.2,-2608.3999999999996,19425.6,1110.4,337.1,2025-01-27 13:52:37,0.0
695.5999999999985,585.2,-2672.3999999999996,18771.6,645.4,204.1,2025-01-27 13:52:37,0.0
455.59999999999854,561.2,-2452.3999999999996,18275.6,470.4,55.099999999999994,2025-01-27 13:52:37,0.0
-244.40000000000146,585.2,-2588.3999999999996,18177.6,149.4,95.1,2025-01-27 13:52:37,0.0
-1032.4000000000015,773.2,-3340.3999999999996,17964.6,-470.6,380.1,2025-01-27 13:52:37,0.0
-1368.4000000000015,941.2,-3944.3999999999996,17471.6,-743.6,479.1,2025-01-27 13:52:37,0.0
-1884.4000000000015,1313.2,-4116.4,16643.6,-611.6,579.1,2025-01-27 13:52:37,0.0
-1588.4000000000015,1637.2,-3452.3999999999996,15702.6,167.4,623.1,2025-01-27 13:52:37,0.0
-1268.4000000000015,1761.2,-3160.3999999999996,14645.6,1058.4,687.1,2025-01-27 13:52:37,0.0
-688.4000000000015,1541.2,-2812.3999999999996,13516.6,1927.4,998.1,2025-01-27 13:52:37,0.0
-280.40000000000146,1189.2,-2852.3999999999996,12810.6,2765.4,1903.1,2025-01-27 13:52:37,0.0
395.59999999999854,1101.2,-3052.3999999999996,12501.6,3132.4,3007.1,2025-01-27 13:52:37,0.0
1263.5999999999985,1605.2,-3280.3999999999996,12420.6,2429.4,3734.1,2025-01-27 13:52:37,0.0
1975.5999999999985,2657.2,-3584.3999999999996,12112.6,839.4,3823.1,2025-01-27 13:52:37,0.0
2103.5999999999985,3213.2,-3876.3999999999996,11938.6,-681.6,3399.1,2025-01-27 13:52:37,0.0
1999.5999999999985,3293.2,-4460.4,11877.6,-1436.6,2986.1,2025-01-27 13:52:37,0.0
1607.5999999999985,2633.2,-4728.4,11580.6,-1702.6,2456.1,2025-01-27 13:52:37,0.0
659.5999999999985,2033.2,-5012.4,11028.6,-1351.6,1813.1,2025-01-27 13:52:37,0.0
-448.40000000000146,1437.2,-5020.4,10256.6,-615.6,1564.1,2025-01-27 13:52:37,0.0
-820.4000000000015,1229.2,-4128.4,9292.6,1130.4,1434.1,2025-01-27 13:52:37,0.0
-108.40000000000146,1973.2,-2776.3999999999996,8150.6,3425.4,1146.1,2025-01-27 13:52:37,0.0
1935.5999999999985,3221.2,-2848.3999999999996,7063.6,5396.4,545.1,2025-01-27 13:52:37,0.0
3347.5999999999985,3289.2,-3324.3999999999996,6484.6,5938.4,-27.900000000000006,2025-01-27 13:52:37,0.0
4515.5999999999985,3329.2,-4720.4,6524.6,4863.4,-555.9,2025-01-27 13:52:37,0.0
4243.5999999999985,4049.2,-6248.4,6251.6,2105.4,-710.9,2025-01-27 13:52:37,0.0
2143.5999999999985,4701.2,-5168.4,5690.6,-176.6,392.1,2025-01-27 13:52:37,0.0
-36.400000000001455,5081.2,-1928.3999999999996,5828.6,-926.6,3361.1,2025-01-27 13:52:37,0.0
1623.5999999999985,4033.2,-12.399999999999636,6535.6,91.4,5649.1,2025-01-27 13:52:37,0.0
2983.5999999999985,3689.2,975.6000000000004,6483.6,1953.4,4877.1,2025-01-27 13:52:37,0.0
1231.5999999999985,3237.2,2163.6000000000004,6963.6,2010.4,4514.1,2025-01-27 13:52:37,0.0
-848.4000000000015,3213.2,2955.6000000000004,8406.6,412.4,5178.1,2025-01-27 13:52:37,0.0
-2264.4000000000015,3193.2,2435.6000000000004,9820.6,-2135.6,6170.1,2025-01-27 13:52:37,0.0
-2340.4000000000015,1885.2,251.60000000000036,10174.6,-3191.6,6315.1,2025-01-27 13:52:37,0.0
-3560.4000000000015,-14.799999999999955,-2264.3999999999996,9380.6,-2258.6,6255.1,2025-01-27 13:52:37,0.0
-4340.4000000000015,-2702.8,-2176.3999999999996,8498.6,-1160.6,7249.1,2025-01-27 13:52:37,0.0
-2708.4000000000015,-4706.8,-1296.3999999999996,8361.6,687.4,8127.1,2025-01-27 13:52:37,0.0
-636.4000000000015,-5242.8,-1004.3999999999996,8138.6,2229.4,7924.1,2025-01-27 13:52:37,0.0
711.5999999999985,-4790.8,-376.39999999999964,7463.6,2647.4,6757.1,2025-01-27 13:52:37,0.0
643.5999999999985,-3062.8,-1220.3999999999996,6434.6,2834.4,5499.1,2025-01-27 13:52:37,0.0
227.59999999999854,-1506.8,-2596.3999999999996,5474.6,2621.4,4742.1,2025-01-27 13:52:37,0.0
-284.40000000000146,-706.8,-2824.3999999999996,5112.6,1129.4,4563.1,2025-01-27 13:52:37,0.0
-1508.4000000000015,-162.79999999999995,-2328.3999999999996,5491.6,-1321.6,4374.1,2025-01-27 13:52:37,0.0
-2104.4000000000015,-306.79999999999995,-2404.3999999999996,5625.6,-2097.6,4005.1,2025-01-27 13:52:37,0.0
-2592.4000000000015,-686.8,-2064.3999999999996,5403.6,-1558.6,3638.1,2025-01-27 13:52:37,0.0
-2384.4000000000015,-1050.8,-1140.3999999999996,5562.6,-50.599999999999994,3321.1,2025-01-27 13:52:37,0.0
-428.40000000000146,-1370.8,-2380.3999999999996,5867.6,1281.4,3251.1,2025-01-27 13:52:37,0.0
431.59999999999854,-854.8,-3216.3999999999996,5750.6,2062.4,3167.1,2025-01-27 13:52:37,0.0
963.5999999999985,-866.8,-4248.4,5364.6,1401.4,3178.1,2025-01-27 13:52:37,0.0
1187.5999999999985,-862.8,-5264.4,4835.6,-270.6,2774.1,2025-01-27 13:52:37,0.0
719.5999999999985,-1386.8,-5704.4,3986.6,-1346.6,2610.1,2025-01-27 13:52:37,0.0
59.599999999998545,-1770.8,-5048.4,3498.6,-1871.6,2062.1,2025-01-27 13:52:37,0.0
-276.40000000000146,-1970.8,-4228.4,3355.6,-2876.6,1490.1,2025-01-27 13:52:37,0.0
-512.4000000000015,-1706.8,-4480.4,3267.6,-3474.6,822.1,2025-01-27 13:52:37,0.0
-596.4000000000015,-2478.8,-4056.3999999999996,3430.6,-3867.6,271.1,2025-01-27 13:52:37,0.0
-412.40000000000146,-3014.8,-2512.3999999999996,3752.6,-3482.6,235.1,2025-01-27 13:52:37,0.0
103.59999999999854,-3086.8,-2516.3999999999996,4041.6,-2005.6,116.1,2025-01-27 13:52:37,0.0
-180.40000000000146,-2234.8,-2888.3999999999996,4325.6,-911.6,765.1,2025-01-27 13:52:37,0.0
1771.5999999999985,-1450.8,-3972.3999999999996,5114.6,209.4,1623.1,2025-01-27 13:52:37,0.0
2179.5999999999985,-2974.8,-5648.4,5300.6,709.4,2413.1,2025-01-27 13:52:37,0.0
3127.5999999999985,-6122.8,-6412.4,4363.6,1831.4,3207.1,2025-01-27 13:52:37,0.0
4811.5999999999985,-7106.8,-5908.4,3929.6,2677.4,3225.1,2025-01-27 13:52:37,0.0
6983.5999999999985,-3278.8,-6836.4,4196.6,1502.4,1771.1,2025-01-27 13:52:38,0.0
6703.5999999999985,-102.79999999999995,-5328.4,4053.6,1281.4,1017.1,2025-01-27 13:52:38,0.0
5979.5999999999985,573.2,2099.6000000000004,5362.6,2177.4,3494.1,2025-01-27 13:52:38,0.0
4971.5999999999985,-1598.8,1563.6000000000004,7138.6,502.4,4940.1,2025-01-27 13:52:38,0.0
4191.5999999999985,-5450.8,-2432.3999999999996,4651.6,-1900.6,6044.1,2025-01-27 13:52:38,0.0
7879.5999999999985,-7566.8,-1304.3999999999996,1291.6,-3302.6,3479.1,2025-01-27 13:52:38,0.0
7579.5999999999985,-4842.8,1979.6000000000004,-569.4,-5874.6,-3716.9,2025-01-27 13:52:38,0.0
2055.5999999999985,-2974.8,4431.6,-2579.4,-7378.6,-6039.9,2025-01-27 13:52:38,0.0
-3296.4000000000015,-2630.8,7987.6,-3252.4,-6949.6,-6199.9,2025-01-27 13:52:38,
-7136.4000000000015,-2158.8,7191.6,-1594.4,-5330.6,-4440.9,2025-01-27 13:52:38,0.0
-5888.4000000000015,-266.79999999999995,2239.6000000000004,-433.4,-1021.6,-2896.9,2025-01-27 13:52:38,0.0
-2588.4000000000015,1925.2,-2280.3999999999996,-1183.4,4039.4,-3222.9,2025-01-27 13:52:38,0.0
1175.5999999999985,2077.2,-2984.3999999999996,-2582.4,8088.4,-4472.9,2025-01-27 13:52:38,0.0
3379.5999999999985,-46.799999999999955,-1096.3999999999996,-3009.4,6093.4,-5360.9,2025-01-27 13:52:38,0.0
3647.5999999999985,-618.8,-508.39999999999964,-2635.4,1611.4,-5446.9,2025-01-27 13:52:38,0.0
1955.5999999999985,-278.79999999999995,-288.39999999999964,-2358.4,-2742.6,-5564.9,2025-01-27 13:52:38,0.0
539.5999999999985,217.20000000000005,-1760.3999999999996,-2013.4,-4562.6,-6048.9,2025-01-27 13:52:38,0.0
-3984.4000000000015,1017.2,263.60000000000036,-1184.4,-4926.6,-6599.9,2025-01-27 13:52:38,0.0
-5876.4000000000015,1273.2,-1100.3999999999996,-1246.4,-5034.6,-6494.9,2025-01-27 13:52:38,0.0
-7208.4000000000015,1677.2,-2324.3999999999996,-1614.4,-4439.6,-5700.9,2025-01-27 13:52:38,0.0
-6184.4000000000015,1821.2,-3244.3999999999996,-1943.4,-2501.6,-4890.9,2025-01-27 13:52:38,0.0
-3896.4000000000015,2017.2,-4316.4,-2534.4,157.4,-4710.9,2025-01-27 13:52:38,0.0
-2588.4000000000015,1621.2,-3388.3999999999996,-3126.4,843.4,-4833.9,2025-01-27 13:52:38,0.0
-3248.4000000000015,1805.2,-2408.3999999999996,-3034.4,-589.6,-4065.9,2025-01-27 13:52:38,0.0
-4124.4000000000015,2049.2,-2448.3999999999996,-2217.4,-2115.6,-2343.9,2025-01-27 13:52:38,0.0
-4180.4000000000015,1897.2,-3360.3999999999996,-1278.4,-2565.6,-615.9,2025-01-27 13:52:38,0.0
-3552.4000000000015,1565.2,-4936.4,-785.4,-2667.6,414.1,2025-01-27 13:52:38,0.0
-2948.4000000000015,1089.2,-6048.4,-988.4,-3352.6,1162.1,2025-01-27 13:52:38,0.0
-2596.4000000000015,837.2,-5932.4,-1640.4,-3859.6,1528.1,2025-01-27 13:52:38,0.0
-2276.4000000000015,621.2,-5764.4,-2368.4,-3184.6,1714.1,2025-01-27 13:52:38,0.0
-2144.4000000000015,957.2,-6476.4,-3310.4,-2276.6,1939.1,2025-01-27 13:52:38,0.0
-592.4000000000015,2037.2,-6108.4,-4513.4,-1325.6,1942.1,2025-01-27 13:52:38,0.0
2075.5999999999985,2645.2,-5220.4,-5291.4,239.4,1310.1,2025-01-27 13:52:38,0.0
4655.5999999999985,1837.2,-4024.3999999999996,-5677.4,2678.4,649.1,2025-01-27 13:52:38,0.0
6723.5999999999985,245.20000000000005,-3544.3999999999996,-5349.4,4532.4,-155.9,2025-01-27 13:52:38,0.0
11495.599999999999,1545.2,-6136.4,-5085.4,5236.4,-2990.9,2025-01-27 13:52:38,0.0
11499.599999999999,3341.2,-5748.4,-2530.4,6430.4,-7597.9,2025-01-27 13:52:38,0.0
7283.5999999999985,5381.2,-6776.4,-1073.4,5161.4,-8802.9,2025-01-27 13:52:38,0.0
5019.5999999999985,5381.2,-3372.3999999999996,-1777.4,3485.4,-7159.9,2025-01-27 13:52:38,0.0
4543.5999999999985,4701.2,-2064.3999999999996,-2772.4,1100.4,-3418.9,2025-01-27 13:52:38,0.0
8375.599999999999,5277.2,1415.6000000000004,-2538.4,726.4,-3218.9,2025-01-27 13:52:38,0.0
11019.599999999999,5409.2,7131.6,-218.39999999999998,922.4,-5584.9,2025-01-27 13:52:38,0.0
6511.5999999999985,6929.2,12283.6,5341.6,-2340.6,-8519.9,2025-01-27 13:52:38,0.0
-2656.4000000000015,8209.2,7883.6,8829.6,-8260.6,-5751.9,2025-01-27 13:52:38,0.0
-8988.400000000001,2553.2,5771.6,10757.6,-9504.6,1214.1,2025-01-27 13:52:38,0.0
-7072.4000000000015,-866.8,1083.6000000000004,8750.6,-8345.6,6141.1,2025-01-27 13:52:38,0.0
-2128.4000000000015,-2762.8,-688.3999999999996,3810.6,-2949.6,6793.1,2025-01-27 13:52:38,0.0
-912.4000000000015,-3462.8,143.60000000000036,1867.6,3709.4,5885.1,2025-01-27 13:52:38,0.0
-628.4000000000015,-1654.8,1015.6000000000004,2510.6,8823.4,5785.1,2025-01-27 13:52:38,0.0
-1820.4000000000015,2749.2,615.6000000000004,4055.6,10137.4,7169.1,2025-01-27 13:52:38,0.0
-724.4000000000015,6533.2,-352.39999999999964,5039.6,8942.4,8706.1,2025-01-27 13:52:38,0.0
-252.40000000000146,5933.2,67.60000000000036,6355.6,4880.4,8660.1,2025-01-27 13:52:38,0.0
-2616.4000000000015,1533.2,383.60000000000036,7654.6,-827.6,8639.1,2025-01-27 13:52:38,0.0
-4336.4000000000015,-1766.8,-1252.3999999999996,8102.6,-6212.6,8732.1,2025-01-27 13:52:38,0.0
-5868.4000000000015,-4082.8,-2772.3999999999996,6862.6,-8512.6,7211.1,2025-01-27 13:52:38,0.0
-6360.4000000000015,-4398.8,-3064.3999999999996,5232.6,-6531.6,5298.1,2025-01-27 13:52:38,0.0
-6104.4000000000015,-3230.8,-2024.3999999999996,4705.6,-837.6,3923.1,2025-01-27 13:52:38,0.0
-6228.4000000000015,-2494.8,-796.3999999999996,5044.6,4032.4,4052.1,2025-01-27 13:52:38,0.0
-4004.4000000000015,-1802.8,-1772.3999999999996,5928.6,5900.4,4277.1,2025-01-27 13:52:38,0.0
-1288.4000000000015,-818.8,-6100.4,5552.6,4600.4,3881.1,2025-01-27 13:52:38,0.0
259.59999999999854,473.20000000000005,-7188.4,4114.6,1425.4,2242.1,2025-01-27 13:52:39,0.0
503.59999999999854,721.2,-5896.4,2670.6,-738.6,-171.9,2025-01-27 13:52:39,0.0
-224.40000000000146,537.2,-3868.3999999999996,1995.6,-1246.6,-1992.9,2025-01-27 13:52:39,0.0
-2000.4000000000015,561.2,-2176.3999999999996,2505.6,-242.6,-2664.9,2025-01-27 13:52:39,0.0
-2328.4000000000015,-142.79999999999995,-3404.3999999999996,4168.6,357.4,-2176.9,2025-01-27 13:52:39,0.0
-1056.4000000000015,-170.79999999999995,-5072.4,5222.6,-408.6,-1311.9,2025-01-27 13:52:39,0.0
-672.4000000000015,-490.79999999999995,-4184.4,5192.6,-1513.6,-622.9,2025-01-27 13:52:39,0.0
1059.5999999999985,-938.8,-3576.3999999999996,5098.6,-1381.6,293.1,2025-01-27 13:52:39,0.0
3983.5999999999985,277.20000000000005,-3632.3999999999996,5096.6,2100.4,1024.1,2025-01-27 13:52:39,0.0
4111.5999999999985,-374.79999999999995,-5296.4,5168.6,5432.4,2537.1,2025-01-27 13:52:39,0.0
1711.5999999999985,-4294.8,-6652.4,4476.6,4376.4,8058.1,2025-01-27 13:52:39,0.0
5447.5999999999985,-9050.8,-6096.4,4582.6,855.4,11371.1,2025-01-27 13:52:39,0.0
12799.599999999999,-8290.8,-8060.4,4794.6,-156.6,7370.1,2025-01-27 13:52:39,0.0
10419.599999999999,-2702.8,-4632.4,1828.6,3163.4,3435.1,2025-01-27 13:52:39,0.0
7275.5999999999985,529.2,1123.6000000000004,1298.6,4051.4,5406.1,2025-01-27 13:52:39,0.0
4739.5999999999985,-2614.8,-1128.3999999999996,1263.6,-15.599999999999994,7881.1,2025-01-27 13:52:39,0.0
5739.5999999999985,-7486.8,263.60000000000036,-1056.4,-7293.6,9654.1,2025-01-27 13:52:39,0.0
11603.599999999999,-7906.8,2403.6000000000004,-1741.4,-9429.6,4694.1,2025-01-27 13:52:39,0.0
7747.5999999999985,-2358.8,2795.6000000000004,-4176.4,-11010.6,-2314.9,2025-01-27 13:52:39,0.0
-324.40000000000146,-566.8,9391.6,-7707.4,-12109.6,-5707.9,2025-01-27 13:52:39,0.0
-5164.4000000000015,2081.2,10887.6,-5503.4,-9647.6,-4064.9,2025-01-27 13:52:39,0.0
-4552.4000000000015,4613.2,6447.6,-1222.4,-4939.6,-1547.9,2025-01-27 13:52:39,0.0
-4.400000000001455,5081.2,-308.39999999999964,1356.6,2922.4,-2346.9,2025-01-27 13:52:39,0.0
2947.5999999999985,1589.2,-3652.3999999999996,1101.6,10684.4,-4338.9,2025-01-27 13:52:39,0.0
3727.5999999999985,-3038.8,-3632.3999999999996,-779.4,12477.4,-6063.9,2025-01-27 13:52:39,0.0
1859.5999999999985,-5950.8,-2320.3999999999996,-1887.4,6460.4,-6293.9,2025-01-27 13:52:39,0.0
199.59999999999854,-4302.8,-1072.3999999999996,-2647.4,174.4,-5998.9,2025-01-27 13:52:39,0.0
-2360.4000000000015,-1294.8,-1124.3999999999996,-3222.4,-5009.6,-7086.9,2025-01-27 13:52:39,0.0
-5808.4000000000015,1133.2,-2376.3999999999996,-3990.4,-8190.6,-8064.9,2025-01-27 13:52:39,0.0
-9092.400000000001,2937.2,-2488.3999999999996,-5171.4,-10409.6,-8049.9,2025-01-27 13:52:39,0.0
-10700.400000000001,4065.2,-1304.3999999999996,-5426.4,-9538.6,-7401.9,2025-01-27 13:52:39,0.0
-10808.400000000001,4257.2,-1904.3999999999996,-5160.4,-5837.6,-5930.9,2025-01-27 13:52:39,0.0
-9540.400000000001,3517.2,-2224.3999999999996,-4826.4,1306.4,-3652.9,2025-01-27 13:52:39,0.0
-6500.4000000000015,1977.2,-1848.3999999999996,-4498.4,5200.4,-2606.9,2025-01-27 13:52:39,0.0
-2952.4000000000015,905.2,-3904.3999999999996,-3943.4,5829.4,-3308.9,2025-01-27 13:52:39,0.0
-2692.4000000000015,649.2,-5920.4,-3561.4,4270.4,-3165.9,2025-01-27 13:52:39,0.0
-2624.4000000000015,1225.2,-6404.4,-3089.4,1824.4,-1626.9,2025-01-27 13:52:39,0.0
-2432.4000000000015,1561.2,-6440.4,-2386.4,-179.6,431.1,2025-01-27 13:52:39,0.0
-2168.4000000000015,509.20000000000005,-7176.4,-2307.4,-962.6,1765.1,2025-01-27 13:52:39,0.0
-2412.4000000000015,-538.8,-8376.4,-4337.4,-1038.6,2468.1,2025-01-27 13:52:39,0.0
-1256.4000000000015,-1206.8,-7836.4,-6861.4,71.4,1662.1,2025-01-27 13:52:39,0.0
-936.4000000000015,161.20000000000005,-6384.4,-7966.4,1490.4,1327.1,2025-01-27 13:52:39,0.0
1015.5999999999985,1361.2,-4236.4,-7802.4,3191.4,1980.1,2025-01-27 13:52:39,0.0
6095.5999999999985,2317.2,-3664.3999999999996,-7488.4,5628.4,1149.1,2025-01-27 13:52:39,0.0
13179.599999999999,3081.2,-5800.4,-8001.4,7473.4,-2899.9,2025-01-27 13:52:39,0.0
14318.599999999999,3709.2,-3220.3999999999996,-4366.4,12459.4,-11961.9,2025-01-27 13:52:39,0.0
9935.599999999999,6689.2,-5860.4,-1119.4,10896.4,-15923.9,2025-01-27 13:52:39,0.0
2355.5999999999985,8617.2,-3156.3999999999996,-1738.4,3928.4,-11405.9,2025-01-27 13:52:39,0.0
1571.5999999999985,3689.2,1827.6000000000004,-1952.4,-4123.6,-3319.9,2025-01-27 13:52:39,
10799.599999999999,4845.2,4159.6,-1090.4,-5448.6,-3831.9,2025-01-27 13:52:39,0.0
9799.599999999999,5865.2,9463.6,392.6,-5604.6,-7387.9,2025-01-27 13:52:39,0.0
3259.5999999999985,4317.2,10635.6,4229.6,-8087.6,-8764.9,2025-01-27 13:52:39,0.0
-4136.4000000000015,3041.2,5507.6,6836.6,-13040.6,-4428.9,2025-01-27 13:52:39,0.0
-6396.4000000000015,-994.8,2259.6000000000004,8869.6,-11325.6,1398.1,2025-01-27 13:52:39,0.0
-4876.4000000000015,-2906.8,-1364.3999999999996,6918.6,-7366.6,6279.1,2025-01-27 13:52:39,0.0
-712.4000000000015,-3234.8,-1976.3999999999996,2340.6,-878.6,7136.1,2025-01-27 13:52:39,0.0
-980.4000000000015,-3058.8,-868.3999999999996,-11.399999999999977,4470.4,6732.1,2025-01-27 13:52:39,0.0
-596.4000000000015,-178.79999999999995,-428.39999999999964,325.6,8559.4,7078.1,2025-01-27 13:52:39,0.0
-536.4000000000015,3937.2,-1188.3999999999996,1318.6,9962.4,8637.1,2025-01-27 13:52:39,0.0
651.5999999999985,6601.2,35.600000000000364,2664.6,7660.4,9145.1,2025-01-27 13:52:39,0.0
763.5999999999985,5909.2,1303.6000000000004,4854.6,2822.4,7684.1,2025-01-27 13:52:39,0.0
-2220.4000000000015,3105.2,519.6000000000004,6022.6,-3277.6,6661.1,2025-01-27 13:52:39,0.0
-6284.4000000000015,-610.8,-68.39999999999964,6654.6,-9618.6,6527.1,2025-01-27 13:52:40,0.0
-7036.4000000000015,-3510.8,-4156.4,6239.6,-11525.6,5667.1,2025-01-27 13:52:40,0.0
-8552.400000000001,-4610.8,-4556.4,4205.6,-9219.6,4835.1,2025-01-27 13:52:40,0.0
-8028.4000000000015,-3814.8,-1320.3999999999996,3764.6,-1085.6,3677.1,2025-01-27 13:52:40,0.0
-7072.4000000000015,-2074.8,-112.39999999999964,4888.6,6347.4,3870.1,2025-01-27 13:52:40,0.0
-5308.4000000000015,-790.8,-1496.3999999999996,6383.6,9727.4,4270.1,2025-01-27 13:52:40,0.0
-2004.4000000000015,589.2,-6896.4,6488.6,8784.4,4615.1,2025-01-27 13:52:40,0.0
175.59999999999854,1329.2,-7928.4,5129.6,5169.4,3325.1,2025-01-27 13:52:40,0.0
787.5999999999985,565.2,-7516.4,3228.6,1318.4,575.1,2025-01-27 13:52:40,0.0
-372.40000000000146,-794.8,-5636.4,2508.6,-117.6,-1617.9,2025-01-27 13:52:40,0.0
-2256.4000000000015,-514.8,-4600.4,3109.6,871.4,-2695.9,2025-01-27 13:52:40,0.0
-2036.4000000000015,-458.79999999999995,-3140.3999999999996,4977.6,2068.4,-2007.9,2025-01-27 13:52:40,0.0
-436.40000000000146,-166.79999999999995,-3308.3999999999996,6264.6,3324.4,-1129.9,2025-01-27 13:52:40,0.0
963.5999999999985,501.20000000000005,-2432.3999999999996,5751.6,4529.4,530.1,2025-01-27 13:52:40,0.0
2031.5999999999985,-2.7999999999999545,-1324.3999999999996,4909.6,5562.4,2575.1,2025-01-27 13:52:40,0.0
1995.5999999999985,-4474.8,-4096.4,5446.6,5764.4,5525.1,2025-01-27 13:52:40,0.0
3507.5999999999985,-8518.8,-9276.4,5623.6,7098.4,11093.1,2025-01-27 13:52:40,0.0
9607.599999999999,-8786.8,-11544.4,4616.6,7056.4,14266.1,2025-01-27 13:52:40,0.0
14318.599999999999,-4162.8,-9036.4,2324.6,5980.4,8470.1,2025-01-27 13:52:40,0.0
12451.599999999999,117.20000000000005,2807.6000000000004,1184.6,3667.4,-686.9,2025-01-27 13:52:40,0.0
1911.5999999999985,-1042.8,9155.6,5191.6,-4753.6,3365.1,2025-01-27 13:52:40,0.0
3519.5999999999985,-5882.8,4307.6,4178.6,-8554.6,7171.1,2025-01-27 13:52:40,0.0
5807.5999999999985,-10150.8,5303.6,-483.4,-13153.6,6363.1,2025-01-27 13:52:40,0.0
4987.5999999999985,-4034.8,455.60000000000036,-1826.4,-8593.6,-1074.9,2025-01-27 13:52:40,0.0
-828.4000000000015,-550.8,1859.6000000000004,-5643.4,-10312.6,-3442.9,2025-01-27 13:52:40,0.0
-1580.4000000000015,2513.2,5971.6,-6508.4,-7724.6,-3042.9,2025-01-27 13:52:40,0.0
-2068.4000000000015,4529.2,8751.6,-4098.4,-3067.6,-1631.9,2025-01-27 13:52:40,0.0
1595.5999999999985,3937.2,5023.6,-618.4,2618.4,-2107.9,2025-01-27 13:52:40,0.0
3875.5999999999985,253.20000000000005,-1144.3999999999996,-473.4,7619.4,-4338.9,2025-01-27 13:52:40,0.0
4627.5999999999985,-5938.8,-4708.4,-3016.4,8140.4,-6818.9,2025-01-27 13:52:40,0.0
2411.5999999999985,-9534.8,-3504.3999999999996,-5213.4,5219.4,-7504.9,2025-01-27 13:52:40,0.0
-872.4000000000015,-7898.8,-2080.3999999999996,-6529.4,1562.4,-6842.9,2025-01-27 13:52:40,0.0
-2420.4000000000015,-3266.8,-1396.3999999999996,-7685.4,-2671.6,-6640.9,2025-01-27 13:52:40,0.0
-4416.4000000000015,1289.2,-1288.3999999999996,-8838.4,-6920.6,-7611.9,2025-01-27 13:52:40,0.0
-6556.4000000000015,4569.2,-1384.3999999999996,-8938.4,-8877.6,-8127.9,2025-01-27 13:52:40,0.0
-8552.400000000001,6541.2,-368.39999999999964,-7930.4,-9710.6,-7976.9,2025-01-27 13:52:40,0.0
-10088.400000000001,7173.2,-808.3999999999996,-6171.4,-7844.6,-6635.9,2025-01-27 13:52:40,0.0
-9924.400000000001,5405.2,-1612.3999999999996,-5266.4,-2634.6,-4435.9,2025-01-27 13:52:40,0.0
-7520.4000000000015,2521.2,-1940.3999999999996,-4427.4,2995.4,-2005.9,2025-01-27 13:52:40,0.0
-4684.4000000000015,329.20000000000005,-3812.3999999999996,-4029.4,3628.4,-1359.9,2025-01-27 13:52:40,0.0
-4324.4000000000015,-1082.8,-5472.4,-3521.4,949.4,-641.9,2025-01-27 13:52:40,0.0
-4568.4000000000015,-934.8,-5492.4,-2990.4,-2260.6,1125.1,2025-01-27 13:52:40,0.0
-4900.4000000000015,-34.799999999999955,-4204.4,-2457.4,-3946.6,2706.1,2025-01-27 13:52:40,0.0
-4372.4000000000015,1721.2,-6308.4,-1973.4,-2715.6,3298.1,2025-01-27 13:52:40,0.0
-2796.4000000000015,2365.2,-8236.4,-2838.4,624.4,2937.1,2025-01-27 13:52:40,0.0
-1100.4000000000015,1837.2,-7276.4,-4048.4,3783.4,2400.1,2025-01-27 13:52:40,0.0
2879.5999999999985,429.20000000000005,-6768.4,-4639.4,6571.4,1990.1,2025-01-27 13:52:40,0.0
6463.5999999999985,-1430.8,-5768.4,-5400.4,9126.4,1397.1,2025-01-27 13:52:40,0.0
12479.599999999999,-3162.8,-8300.4,-6732.4,9218.4,-1603.9,2025-01-27 13:52:40,0.0
14318.599999999999,-2702.8,-6628.4,-6851.4,9777.4,-8174.9,2025-01-27 13:52:40,0.0
12403.599999999999,1285.2,-5684.4,-4502.4,8207.4,-13304.9,2025-01-27 13:52:40,0.0
4095.5999999999985,5061.2,-6056.4,-4681.4,2376.4,-12383.9,2025-01-27 13:52:40,0.0
1651.5999999999985,3573.2,-1268.3999999999996,-6450.4,-2359.6,-7858.9,2025-01-27 13:52:40,0.0
7163.5999999999985,3217.2,2847.6000000000004,-6395.4,-474.6,-4413.9,2025-01-27 13:52:40,0.0
12383.599999999999,7037.2,10235.6,-3524.4,5068.4,-7726.9,2025-01-27 13:52:40,0.0
11183.599999999999,9373.2,16043.6,2434.6,7182.4,-12454.9,2025-01-27 13:52:40,0.0
467.59999999999854,11705.2,14391.6,8755.6,1084.4,-12756.9,2025-01-27 13:52:40,0.0
-7816.4000000000015,8233.2,6967.6,9645.6,-9694.6,-3413.9,2025-01-27 13:52:40,0.0
-4216.4000000000015,-710.8,2351.6000000000004,10321.6,-15351.6,5078.1,2025-01-27 13:52:40,0.0
-940.4000000000015,-3566.8,-3784.3999999999996,5962.6,-13849.6,7705.1,2025-01-27 13:52:40,0.0
-1320.4000000000015,-5906.8,47.600000000000364,1974.6,-8574.6,7331.1,2025-01-27 13:52:41,0.0
-3324.4000000000015,-5526.8,3679.6000000000004,2587.6,-2450.6,6929.1,2025-01-27 13:52:41,0.0
-3084.4000000000015,-1534.8,-504.39999999999964,3408.6,5174.4,6956.1,2025-01-27 13:52:41,0.0
-3084.4000000000015,3697.2,-2800.3999999999996,1496.6,8700.4,8337.1,2025-01-27 13:52:41,0.0
1251.5999999999985,6065.2,1063.6000000000004,1938.6,8642.4,7344.1,2025-01-27 13:52:41,0.0
-152.40000000000146,5553.2,1523.6000000000004,5216.6,5135.4,5233.1,2025-01-27 13:52:41,0.0
-3520.4000000000015,2677.2,-1128.3999999999996,5767.6,-810.6,6252.1,2025-01-27 13:52:41,0.0
-5636.4000000000015,441.20000000000005,-1316.3999999999996,5848.6,-8202.6,7285.1,2025-01-27 13:52:41,0.0
-5348.4000000000015,-2342.8,-3200.3999999999996,5914.6,-12724.6,6812.1,2025-01-27 13:52:41,0.0
-6868.4000000000015,-3510.8,-3576.3999999999996,5793.6,-9588.6,5138.1,2025-01-27 13:52:41,0.0
-7236.4000000000015,-3238.8,-3312.3999999999996,5365.6,-1845.6,3766.1,2025-01-27 13:52:41,0.0
-6680.4000000000015,-2254.8,-1212.3999999999996,6017.6,5320.4,3474.1,2025-01-27 13:52:41,0.0
-5144.4000000000015,-1658.8,-2040.3999999999996,6811.6,8298.4,3331.1,2025-01-27 13:52:41,0.0
-2720.4000000000015,-782.8,-4964.4,6527.6,6940.4,3228.1,2025-01-27 13:52:41,0.0
-308.40000000000146,-402.79999999999995,-6780.4,5397.6,3452.4,2267.1,2025-01-27 13:52:41,0.0
379.59999999999854,-198.79999999999995,-7492.4,4249.6,564.4,347.1,2025-01-27 13:52:41,0.0
23.599999999998545,-590.8,-6716.4,3550.6,-1032.6,-1659.9,2025-01-27 13:52:41,0.0
-2516.4000000000015,241.20000000000005,-4828.4,3783.6,-1438.6,-2756.9,2025-01-27 13:52:41,0.0
-2108.4000000000015,65.20000000000005,-3920.3999999999996,5252.6,-1195.6,-2591.9,2025-01-27 13:52:41,0.0
-1440.4000000000015,733.2,-2652.3999999999996,6009.6,658.4,-2078.9,2025-01-27 13:52:41,0.0
-72.40000000000146,1105.2,-820.3999999999996,6179.6,4158.4,-836.9,2025-01-27 13:52:41,0.0
2023.5999999999985,169.20000000000005,-1512.3999999999996,6702.6,7682.4,786.1,2025-01-27 13:52:41,0.0
1943.5999999999985,-2978.8,-4800.4,7058.6,9857.4,3890.1,2025-01-27 13:52:41,0.0
3599.5999999999985,-6214.8,-9432.4,6639.6,10342.4,9055.1,2025-01-27 13:52:41,0.0
7679.5999999999985,-8534.8,-9700.4,5615.6,8776.4,13261.1,2025-01-27 13:52:41,0.0
14318.599999999999,-8290.8,-5200.4,3398.6,4418.4,9159.1,2025-01-27 13:52:41,0.0
12779.599999999999,-5590.8,4435.6,883.6,2727.4,2809.1,2025-01-27 13:52:41,
4091.5999999999985,-3046.8,5683.6,797.6,-4138.6,3657.1,2025-01-27 13:52:41,0.0
3911.5999999999985,-7226.8,2531.6000000000004,-853.4,-8703.6,6588.1,2025-01-27 13:52:41,0.0
4455.5999999999985,-9074.8,2619.6000000000004,-5073.4,-11226.6,7284.1,2025-01-27 13:52:41,0.0
7819.5999999999985,-6386.8,2523.6000000000004,-5455.4,-12451.6,3758.1,2025-01-27 13:52:41,0.0
1851.5999999999985,337.20000000000005,-504.39999999999964,-6953.4,-10347.6,114.1,2025-01-27 13:52:41,0.0
1479.5999999999985,2721.2,3691.6000000000004,-9192.4,-8098.6,-1439.9,2025-01-27 13:52:41,0.0
715.5999999999985,4009.2,7463.6,-8057.4,-3994.6,-3437.9,2025-01-27 13:52:41,0.0
-604.4000000000015,4157.2,5743.6,-4284.4,-112.6,-4376.9,2025-01-27 13:52:41,0.0
1559.5999999999985,1225.2,1411.6000000000004,-2495.4,5564.4,-4987.9,2025-01-27 13:52:41,0.0
2827.5999999999985,-3558.8,-1780.3999999999996,-2294.4,9242.4,-6330.9,2025-01-27 13:52:41,0.0
911.5999999999985,-6814.8,-3240.3999999999996,-3569.4,7386.4,-6223.9,2025-01-27 13:52:41,0.0
75.59999999999854,-6338.8,-3352.3999999999996,-5790.4,3995.4,-5548.9,2025-01-27 13:52:41,0.0
-256.40000000000146,-3206.8,-3000.3999999999996,-7759.4,-1050.6,-5920.9,2025-01-27 13:52:41,0.0
-3112.4000000000015,409.20000000000005,-1156.3999999999996,-9237.4,-6746.6,-7501.9,2025-01-27 13:52:41,0.0
-5392.4000000000015,2613.2,-1156.3999999999996,-9265.4,-10964.6,-8653.9,2025-01-27 13:52:41,0.0
-9604.400000000001,3929.2,-1024.3999999999996,-8745.4,-12688.6,-8641.9,2025-01-27 13:52:41,0.0
-11672.400000000001,4065.2,-2276.3999999999996,-8522.4,-10744.6,-7336.9,2025-01-27 13:52:41,0.0
-12288.400000000001,3553.2,-2588.3999999999996,-7981.4,-3430.6,-4284.9,2025-01-27 13:52:41,0.0
-9404.400000000001,3533.2,-2368.3999999999996,-7163.4,4664.4,-1768.9,2025-01-27 13:52:41,0.0
-4372.4000000000015,2537.2,-3060.3999999999996,-6395.4,7818.4,-1308.9,2025-01-27 13:52:41,0.0
-2220.4000000000015,1669.2,-3972.3999999999996,-5602.4,6420.4,-1513.9,2025-01-27 13:52:41,0.0
-2712.4000000000015,1657.2,-4236.4,-4333.4,1791.4,1.0999999999999943,2025-01-27 13:52:41,0.0
-3364.4000000000015,2513.2,-4824.4,-3342.4,-2846.6,2412.1,2025-01-27 13:52:41,0.0
-2888.4000000000015,1673.2,-5596.4,-2780.4,-4085.6,3479.1,2025-01-27 13:52:41,0.0
-3480.4000000000015,1157.2,-7520.4,-2977.4,-2346.6,3513.1,2025-01-27 13:52:41,0.0
-1960.4000000000015,-458.79999999999995,-8020.4,-4682.4,545.4,3229.1,2025-01-27 13:52:41,0.0
-0.4000000000014552,-998.8,-4868.4,-5838.4,2759.4,2804.1,2025-01-27 13:52:41,0.0
2931.5999999999985,-910.8,-3260.3999999999996,-6464.4,5784.4,2344.1,2025-01-27 13:52:41,0.0
6435.5999999999985,-1770.8,-4020.3999999999996,-6979.4,7698.4,1770.1,2025-01-27 13:52:41,0.0
14318.599999999999,-542.8,-9244.4,-8376.4,8151.4,-2357.9,2025-01-27 13:52:41,0.0
14318.599999999999,1109.2,-6784.4,-6164.4,10537.4,-10825.9,2025-01-27 13:52:41,0.0
12903.599999999999,4717.2,-4932.4,-2655.4,9588.4,-15377.9,2025-01-27 13:52:41,0.0
4379.5999999999985,8113.2,-3012.3999999999996,-2746.4,3137.4,-12653.9,2025-01-27 13:52:41,0.0
-436.40000000000146,3953.2,2579.6000000000004,-4155.4,-4061.6,-6361.9,2025-01-27 13:52:41,0.0
6203.5999999999985,2369.2,763.6000000000004,-4495.4,-6571.6,-3720.9,2025-01-27 13:52:41,0.0
6923.5999999999985,6793.2,6551.6,-2903.4,-5617.6,-6617.9,2025-01-27 13:52:42,0.0
5567.5999999999985,7885.2,8819.6,881.6,-4340.6,-8628.9,2025-01-27 13:52:42,0.0
-1656.4000000000015,7573.2,5879.6,3310.6,-5387.6,-6807.9,2025-01-27 13:52:42,0.0
-3008.4000000000015,2845.2,5331.6,6637.6,-3854.6,-1849.9,2025-01-27 13:52:42,0.0
-1740.4000000000015,-1058.8,4175.6,9051.6,-2215.6,1386.1,2025-01-27 13:52:42,0.0
803.5999999999985,-2146.8,-172.39999999999964,5991.6,261.4,3145.1,2025-01-27 13:52:42,0.0
1447.5999999999985,-2454.8,1139.6000000000004,2492.6,3350.4,2986.1,2025-01-27 13:52:42,0.0
-344.40000000000146,-1706.8,1923.6000000000004,2191.6,4886.4,3555.1,2025-01-27 13:52:42,0.0
-368.40000000000146,1205.2,527.6000000000004,3420.6,5490.4,5365.1,2025-01-27 13:52:42,0.0
-408.40000000000146,4141.2,59.600000000000364,5508.6,5963.4,7631.1,2025-01-27 13:52:42,0.0
39.599999999998545,5345.2,-404.39999999999964,6473.6,3372.4,9265.1,2025-01-27 13:52:42,0.0
-1692.4000000000015,4621.2,1703.6000000000004,7918.6,-1420.6,9489.1,2025-01-27 13:52:42,0.0
-2932.4000000000015,2153.2,1139.6000000000004,9591.6,-6525.6,8629.1,2025-01-27 13:52:42,0.0
-4788.4000000000015,-938.8,-448.39999999999964,10553.6,-9835.6,6686.1,2025-01-27 13:52:42,0.0
-7292.4000000000015,-2354.8,-3916.3999999999996,9321.6,-8195.6,4908.1,2025-01-27 13:52:42,0.0
-9532.400000000001,-3446.8,-4452.4,7450.6,-6270.6,4452.1,2025-01-27 13:52:42,0.0
-8700.400000000001,-3742.8,-2884.3999999999996,6685.6,-1241.6,4051.1,2025-01-27 13:52:42,0.0
-7620.4000000000015,-2726.8,-1544.3999999999996,7085.6,5815.4,3322.1,2025-01-27 13:52:42,0.0
-4348.4000000000015,-2302.8,-2604.3999999999996,7842.6,9078.4,3238.1,2025-01-27 13:52:42,0.0
-3168.4000000000015,-1446.8,-4688.4,7581.6,8317.4,3244.1,2025-01-27 13:52:42,0.0
-480.40000000000146,-254.79999999999995,-6912.4,6428.6,4079.4,2484.1,2025-01-27 13:52:42,0.0
3407.5999999999985,-874.8,2415.6000000000004,-6098.4,-9391.6,-2431.9,2025-01-27 13:52:42,0.0
211.59999999999854,1341.2,5619.6,-7688.4,-9826.6,-4741.9,2025-01-27 13:52:42,0.0
-3020.4000000000015,3133.2,8039.6,-7090.4,-7299.6,-4779.9,2025-01-27 13:52:42,0.0
-4224.4000000000015,4785.2,7903.6,-4555.4,-2747.6,-3403.9,2025-01-27 13:52:42,0.0
-372.40000000000146,4441.2,2119.6000000000004,-1809.4,4375.4,-2847.9,2025-01-27 13:52:42,0.0
2347.5999999999985,629.2,-1296.3999999999996,-652.4,10007.4,-4322.9,2025-01-27 13:52:42,0.0
3227.5999999999985,-4126.8,-3480.3999999999996,-2032.4,9287.4,-5703.9,2025-01-27 13:52:42,0.0
2715.5999999999985,-6266.8,-2988.3999999999996,-4184.4,6037.4,-6246.9,2025-01-27 13:52:43,0.0
863.5999999999985,-5030.8,-1352.3999999999996,-5324.4,2517.4,-6448.9,2025-01-27 13:52:43,0.0
-1240.4000000000015,-1770.8,-1536.3999999999996,-5866.4,-1905.6,-7224.9,2025-01-27 13:52:43,0.0
-3908.4000000000015,1117.2,-1888.3999999999996,-6643.4,-6687.6,-7743.9,2025-01-27 13:52:43,0.0
-6808.4000000000015,3297.2,-2440.3999999999996,-7207.4,-9450.6,-7710.9,2025-01-27 13:52:43,0.0
-8688.400000000001,4189.2,-2372.3999999999996,-7484.4,-10530.6,-7081.9,2025-01-27 13:52:43,0.0
-9432.400000000001,4409.2,-1828.3999999999996,-7168.4,-8877.6,-6127.9,2025-01-27 13:52:43,0.0
-9864.400000000001,4441.2,-2268.3999999999996,-6884.4,-4412.6,-4494.9,2025-01-27 13:52:43,0.0
-8820.400000000001,3817.2,-2616.3999999999996,-6475.4,1409.4,-2214.9,2025-01-27 13:52:43,0.0
-5876.4000000000015,1209.2,-1360.3999999999996,-6217.4,-4647.6,-7710.9,2025-01-27 13:52:45,0.0
-7756.4000000000015,3157.2,-2108.3999999999996,-6627.4,-7454.6,-7758.9,2025-01-27 13:52:45,0.0
-8568.400000000001,4389.2,-2820.3999999999996,-6719.4,-8005.6,-6942.9,2025-01-27 13:52:45,0.0
-9612.400000000001,5261.2,-3048.3999999999996,-6621.4,-5748.6,-5364.9,2025-01-27 13:52:45,0.0
-8980.400000000001,4821.2,-3576.3999999999996,-6138.4,-1564.6,-3382.9,2025-01-27 13:52:45,0.0
-7076.4000000000015,3293.2,-2708.3999999999996,-5232.4,2279.4,-1922.9,2025-01-27 13:52:45,0.0
-4328.4000000000015,1677.2,-3672.3999999999996,-4140.4,3331.4,-1331.9,2025-01-27 13:52:45,0.0
-3704.4000000000015,773.2,-4908.4,-3085.4,2280.4,-574.9,2025-01-27 13:52:45,0.0
9023.599999999999,8513.2,9455.6,-1600.4,-5531.6,-6563.9,2025-01-27 13:52:45,0.0
-6484.4000000000015,-3590.8,-4960.4,5473.6,-10866.6,3114.1,2025-01-27 13:52:45,0.0
-8716.400000000001,-2858.8,-4196.4,3601.6,-4455.6,2235.1,2025-01-27 13:52:45,0.0
-9104.400000000001,-1810.8,3.600000000000364,3868.6,2973.4,2430.1,2025-01-27 13:52:45,0.0
-5864.4000000000015,-942.8,819.6000000000004,5847.6,7923.4,2884.1,2025-01-27 13:52:45,0.0
-3240.4000000000015,-18.799999999999955,-3892.3999999999996,6919.6,9647.4,2814.1,2025-01-27 13:52:45,0.0
-1264.4000000000015,513.2,-6688.4,6206.6,7550.4,2617.1,2025-01-27 13:52:45,0.0
51.599999999998545,709.2,-7596.4,4698.6,3120.4,1005.1,2025-01-27 13:52:45,0.0
-36.400000000001455,-582.8,-6624.4,3325.6,82.4,-1538.9,2025-01-27 13:52:45,0.0
-1792.4000000000015,-1142.8,-4676.4,3233.6,-119.6,-3019.9,2025-01-27 13:52:45,0.0
-2840.4000000000015,-846.8,-3424.3999999999996,4099.6,1122.4,-2702.9,2025-01-27 13:52:45,0.0
4883.5999999999985,-9958.8,1967.6000000000004,-980.4,-5985.6,9842.1,2025-01-27 13:52:45,0.0
8511.599999999999,-11978.8,4455.6,-2487.4,-11614.6,7055.1,2025-01-27 13:52:45,0.0
5791.5999999999985,-3246.8,-668.3999999999996,-3958.4,-10639.6,-656.9,2025-01-27 13:52:45,0.0
539.5999999999985,693.2,1911.6000000000004,-7270.4,-12008.6,-2923.9,2025-01-27 13:52:45,0.0
-952.4000000000015,3021.2,5427.6,-7405.4,-10534.6,-3648.9,2025-01-27 13:52:46,0.0
-2128.4000000000015,4425.2,6483.6,-5697.4,-6055.6,-3486.9,2025-01-27 13:52:46,0.0
-764.4000000000015,3913.2,3343.6000000000004,-3639.4,-147.6,-3430.9,2025-01-27 13:52:46,0.0
427.59999999999854,965.2,3.600000000000364,-2507.4,5763.4,-4612.9,2025-01-27 13:52:46,0.0
1263.5999999999985,-3474.8,-2752.3999999999996,-2676.4,7456.4,-5994.9,2025-01-27 13:52:46,
355.59999999999854,-6446.8,-4144.4,-4016.4,5336.4,-6228.9,2025-01-27 13:52:46,0.0
-1068.4000000000015,-5610.8,-2512.3999999999996,-5663.4,2496.4,-5711.9,2025-01-27 13:52:46,0.0
-1724.4000000000015,-1710.8,-2016.3999999999996,-6666.4,161.4,-5923.9,2025-01-27 13:52:46,0.0
-4240.4000000000015,1845.2,-1348.3999999999996,-7419.4,-1923.6,-6856.9,2025-01-27 13:52:46,0.0
-6280.4000000000015,4329.2,-468.39999999999964,-7611.4,-3833.6,-7195.9,2025-01-27 13:52:46,0.0
-7412.4000000000015,5849.2,-616.3999999999996,-6680.4,-5397.6,-7088.9,2025-01-27 13:52:46,0.0
-8436.400000000001,5993.2,-980.3999999999996,-5329.4,-5378.6,-6365.9,2025-01-27 13:52:46,0.0
-7668.4000000000015,4769.2,-3268.3999999999996,-4780.4,-1828.6,-4765.9,2025-01-27 13:52:46,0.0
-5040.4000000000015,2229.2,-3088.3999999999996,-4746.4,1904.4,-3566.9,2025-01-27 13:52:46,0.0
-2688.4000000000015,581.2,-3196.3999999999996,-4600.4,2460.4,-3494.9,2025-01-27 13:52:46,0.0
-2760.4000000000015,-154.79999999999995,-4012.3999999999996,-4343.4,342.4,-3127.9,2025-01-27 13:52:46,0.0
-4188.4000000000015,253.20000000000005,-4120.4,-3698.4,-2840.6,-1433.9,2025-01-27 13:52:46,0.0
-5040.4000000000015,1421.2,-4876.4,-2800.4,-5190.6,873.1,2025-01-27 13:52:46,0.0
-4472.4000000000015,1517.2,-6388.4,-2893.4,-5745.6,2176.1,2025-01-27 13:52:46,0.0
-4620.4000000000015,853.2,-6644.4,-3514.4,-3605.6,2315.1,2025-01-27 13:52:46,0.0
-4256.4000000000015,-326.79999999999995,-7448.4,-4226.4,168.4,2189.1,2025-01-27 13:52:46,0.0
619.5999999999985,33.200000000000045,-7768.4,-6853.4,3746.4,2127.1,2025-01-27 13:52:46,0.0
4583.5999999999985,317.20000000000005,-5984.4,-8014.4,5510.4,1316.1,2025-01-27 13:52:46,0.0
7691.5999999999985,-274.79999999999995,-5324.4,-8670.4,7236.4,31.099999999999994,2025-01-27 13:52:46,0.0
12659.599999999999,-542.8,-6744.4,-9011.4,7665.4,-2814.9,2025-01-27 13:52:46,0.0
14318.599999999999,-190.79999999999995,-4608.4,-6888.4,9548.4,-8283.9,2025-01-27 13:52:46,0.0
10111.599999999999,2321.2,-4764.4,-3913.4,8208.4,-11635.9,2025-01-27 13:52:47,0.0
5303.5999999999985,5501.2,-4000.3999999999996,-4340.4,3427.4,-10102.9,2025-01-27 13:52:47,0.0
2707.5999999999985,2753.2,-588.3999999999996,-6463.4,-2557.6,-6425.9,2025-01-27 13:52:49,0.0
9999.599999999999,1777.2,511.60000000000036,-7879.4,-4393.6,-4834.9,2025-01-27 13:52:49,0.0
12019.599999999999,4481.2,7059.6,-6770.4,-2104.6,-8450.9,2025-01-27 13:52:49,0.0
10867.599999999999,5997.2,13179.6,-2745.4,-862.6,-12091.9,2025-01-27 13:52:49,0.0
-260.40000000000146,-2426.8,-7596.4,-6206.4,6086.4,2183.1,2025-01-27 13:52:49,0.0
2523.5999999999985,-2114.8,-6580.4,-7839.4,8125.4,1923.1,2025-01-27 13:52:49,0.0
7339.5999999999985,-1598.8,-6940.4,-8891.4,9432.4,1139.1,2025-01-27 13:52:49,0.0
-0.4000000000014552,145.20000000000005,-3964.3999999999996,5370.6,877.4,-2004.9,2025-01-27 13:52:49,0.0
399.59999999999854,285.20000000000005,-2976.3999999999996,5867.6,625.4,-966.9,2025-01-27 13:52:49,0.0
-8820.400000000001,4977.2,-2092.3999999999996,-4801.4,-8176.6,-4894.9,2025-01-27 13:52:49,0.0
-8700.400000000001,4049.2,-3216.3999999999996,-4972.4,-3609.6,-3739.9,2025-01-27 13:52:49,0.0
-7376.4000000000015,2113.2,-2424.3999999999996,-4720.4,1765.4,-2661.9,2025-01-27 13:52:49,0.0
-5404.4000000000015,1105.2,-2900.3999999999996,-4215.4,3605.4,-2647.9,2025-01-27 13:52:49,0.0
-5212.4000000000015,817.2,-3468.3999999999996,-3513.4,2573.4,-2357.9,2025-01-27 13:52:49,0.0
-4816.4000000000015,937.2,-4356.4,-2752.4,1162.4,-830.9,2025-01-27 13:52:50,0.0
-3876.4000000000015,1217.2,-5416.4,-2196.4,1127.4,1069.1,2025-01-27 13:52:50,0.0
-1964.4000000000015,197.20000000000005,-6876.4,-2122.4,2103.4,2036.1,2025-01-27 13:52:50,0.0
-1212.4000000000015,-26.799999999999955,-8324.4,-2439.4,2273.4,2379.1,2025-01-27 13:52:50,0.0
1995.5999999999985,421.20000000000005,-5136.4,-6816.4,2292.4,2738.1,2025-01-27 13:52:50,0.0
3767.5999999999985,601.2,-3132.3999999999996,-7083.4,4332.4,2153.1,2025-01-27 13:52:50,0.0
5791.5999999999985,-574.8,-2252.3999999999996,-6831.4,5458.4,1802.1,2025-01-27 13:52:50,0.0
10707.599999999999,-406.79999999999995,-5976.4,-7838.4,4126.4,-311.9,2025-01-27 13:52:50,0.0
14318.599999999999,465.20000000000005,-3940.3999999999996,-7138.4,5546.4,-7229.9,2025-01-27 13:52:50,0.0
-6808.4000000000015,-2794.8,-4428.4,6095.6,-10295.6,3987.1,2025-01-27 13:52:50,0.0
-9332.400000000001,-3230.8,-4272.4,4364.6,-6238.6,3586.1,2025-01-27 13:52:50,0.0
-8824.400000000001,-2570.8,-1560.3999999999996,4254.6,592.4,3338.1,2025-01-27 13:52:50,0.0
-7820.4000000000015,-1914.8,903.6000000000004,5527.6,5891.4,3602.1,2025-01-27 13:52:50,0.0
-5476.4000000000015,-1114.8,-2548.3999999999996,6770.6,8064.4,3858.1,2025-01-27 13:52:50,0.0
-3212.4000000000015,-750.8,-6096.4,6032.6,5739.4,3780.1,2025-01-27 13:52:50,0.0
-1128.4000000000015,-114.79999999999995,-7016.4,4368.6,2561.4,2108.1,2025-01-27 13:52:50,0.0
-744.4000000000015,-662.8,-5456.4,2894.6,1351.4,-295.9,2025-01-27 13:52:50,0.0
-412.40000000000146,-414.79999999999995,-3892.3999999999996,2708.6,2516.4,-2128.9,2025-01-27 13:52:50,0.0
-1016.4000000000015,-222.79999999999995,-3084.3999999999996,3734.6,3765.4,-2295.9,2025-01-27 13:52:50,0.0
311.59999999999854,-118.79999999999995,-3888.3999999999996,5659.6,4423.4,-1818.9,2025-01-27 13:52:50,0.0
1307.5999999999985,-294.79999999999995,-4780.4,5983.6,3650.4,-729.9,2025-01-27 13:52:50,0.0
3071.5999999999985,-146.79999999999995,-3880.3999999999996,5266.6,3176.4,723.1,2025-01-27 13:52:50,0.0
4547.5999999999985,-158.79999999999995,-3728.3999999999996,4732.6,2465.4,1912.1,2025-01-27 13:52:50,0.0
3391.5999999999985,-4154.8,-5360.4,4618.6,1290.4,4713.1,2025-01-27 13:52:50,0.0
3323.5999999999985,-8358.8,-6464.4,4394.6,721.4,9274.1,2025-01-27 13:52:50,0.0
8251.599999999999,-9614.8,-6052.4,4334.6,-471.6,10528.1,2025-01-27 13:52:50,0.0
13631.599999999999,-4086.8,-4524.4,1873.6,3326.4,6686.1,2025-01-27 13:52:50,0.0
9459.599999999999,205.20000000000005,2895.6000000000004,-622.4,4385.4,3538.1,2025-01-27 13:52:52,0.0
3923.5999999999985,-3022.8,4407.6,1653.6,-806.6,6356.1,2025-01-27 13:52:52,0.0
4547.5999999999985,-6058.8,1763.6000000000004,37.60000000000002,-6982.6,9524.1,2025-01-27 13:52:52,0.0
9755.599999999999,-9210.8,723.6000000000004,-2668.4,-8735.6,7065.1,2025-01-27 13:52:52,0.0
9007.599999999999,-5342.8,1327.6000000000004,-5040.4,-8220.6,1055.1,2025-01-27 13:52:52,0.0
4727.5999999999985,-1210.8,4935.6,-7083.4,-10345.6,-2685.9,2025-01-27 13:52:52,0.0
1839.5999999999985,1333.2,8431.6,-6595.4,-10571.6,-5438.9,2025-01-27 13:52:52,0.0
-3928.4000000000015,1525.2,-4152.4,-3272.4,361.4,-1017.9,2025-01-27 13:52:52,0.0
-4668.4000000000015,1773.2,-5060.4,-1831.4,-1685.6,733.1,2025-01-27 13:52:52,0.0
3159.5999999999985,3697.2,-3056.3999999999996,-5144.4,917.4,-10202.9,2025-01-27 13:52:52,0.0
1847.5999999999985,1649.2,1227.6000000000004,-5527.4,-4194.6,-5676.9,2025-01-27 13:52:52,0.0
5479.5999999999985,5345.2,4323.6,-3066.4,-2408.6,-4470.9,2025-01-27 13:52:52,0.0
5891.5999999999985,8321.2,8007.6,792.6,692.4,-5248.9,2025-01-27 13:52:52,0.0
5219.5999999999985,9977.2,6755.6,4006.6,410.4,-6318.9,2025-01-27 13:52:52,0.0
1511.5999999999985,6245.2,5575.6,6319.6,-3678.6,-5380.9,2025-01-27 13:52:52,0.0
-2572.4000000000015,-394.79999999999995,2715.6000000000004,7099.6,-11180.6,-1714.9,2025-01-27 13:52:52,0.0
-5268.4000000000015,-3818.8,1363.6000000000004,5238.6,-13714.6,2325.1,2025-01-27 13:52:52,0.0
-3792.4000000000015,-5398.8,1031.6000000000004,2774.6,-11172.6,5381.1,2025-01-27 13:52:52,0.0
-1420.4000000000015,-5674.8,-268.39999999999964,1689.6,-3768.6,5611.1,2025-01-27 13:52:52,0.0
-1156.4000000000015,-3434.8,-1428.3999999999996,892.6,3164.4,4828.1,2025-01-27 13:52:52,0.0
-2492.4000000000015,869.2,-1312.3999999999996,-215.39999999999998,8573.4,4357.1,2025-01-27 13:52:52,0.0
-1484.4000000000015,5257.2,123.60000000000036,136.60000000000002,10676.4,5469.1,2025-01-27 13:52:52,0.0
1059.5999999999985,6829.2,1555.6000000000004,2931.6,10508.4,5603.1,2025-01-27 13:52:52,0.0
59.599999999998545,5697.2,327.60000000000036,5588.6,7183.4,5679.1,2025-01-27 13:52:52,0.0
-1340.4000000000015,2669.2,-1032.3999999999996,5970.6,651.4,6821.1,2025-01-27 13:52:52,0.0
-6200.4000000000015,-3306.8,-4208.4,6115.6,-3289.6,2032.1,2025-01-27 13:52:52,0.0
-7036.4000000000015,-2330.8,-2152.3999999999996,5295.6,3569.4,2280.1,2025-01-27 13:52:52,0.0
-5076.4000000000015,-1862.8,-2108.3999999999996,5681.6,6197.4,2238.1,2025-01-27 13:52:52,0.0
-3368.4000000000015,-1474.8,-4916.4,5464.6,5813.4,2313.1,2025-01-27 13:52:52,0.0
-1528.4000000000015,-1586.8,-5944.4,4515.6,4478.4,1757.1,2025-01-27 13:52:52,0.0
-688.4000000000015,-1830.8,-7068.4,2804.6,2501.4,354.1,2025-01-27 13:52:52,0.0
-428.40000000000146,-2198.8,-6072.4,1766.6,1013.4,-856.9,2025-01-27 13:52:52,0.0
-1376.4000000000015,-1374.8,-4780.4,1577.6,530.4,-1529.9,2025-01-27 13:52:52,0.0
-1360.4000000000015,161.20000000000005,-3760.3999999999996,1961.6,1276.4,-1586.9,2025-01-27 13:52:52,0.0
127.59999999999854,793.2,-3052.3999999999996,2983.6,1927.4,-1512.9,2025-01-27 13:52:52,0.0
803.5999999999985,1041.2,-3052.3999999999996,3949.6,2239.4,-1225.9,2025-01-27 13:52:52,
1183.5999999999985,1073.2,-2812.3999999999996,4388.6,1853.4,-372.9,2025-01-27 13:52:52,0.0
1683.5999999999985,113.20000000000005,-2968.3999999999996,4457.6,1416.4,565.1,2025-01-27 13:52:52,0.0
1359.5999999999985,-2598.8,-5476.4,4161.6,1339.4,2167.1,2025-01-27 13:52:52,0.0
1979.5999999999985,-5338.8,-7580.4,3757.6,1418.4,4803.1,2025-01-27 13:52:52,0.0
3919.5999999999985,-7414.8,-7940.4,4106.6,801.4,7246.1,2025-01-27 13:52:52,0.0
7323.5999999999985,-5970.8,-6520.4,3672.6,1133.4,7570.1,2025-01-27 13:52:52,0.0
9491.599999999999,-1850.8,-2948.3999999999996,1965.6,3709.4,6762.1,2025-01-27 13:52:52,0.0
10723.599999999999,-6958.8,-688.3999999999996,-278.4,-7658.6,3459.1,2025-01-27 13:52:52,0.0
7787.5999999999985,-6374.8,67.60000000000036,-2914.4,-6906.6,43.099999999999994,2025-01-27 13:52:52,0.0
3975.5999999999985,-2350.8,4327.6,-4396.4,-7873.6,-2500.9,2025-01-27 13:52:52,0.0
-288.40000000000146,889.2,6243.6,-3852.4,-8738.6,-3760.9,2025-01-27 13:52:52,0.0
-4120.4000000000015,4205.2,5563.6,-2808.4,-9301.6,-3330.9,2025-01-27 13:52:52,0.0
-4236.4000000000015,6045.2,2223.6000000000004,-1938.4,-6795.6,-2766.9,2025-01-27 13:52:52,0.0
-2788.4000000000015,4577.2,-856.3999999999996,-920.4,465.4,-2991.9,2025-01-27 13:52:52,0.0
-848.4000000000015,-978.8,-2688.3999999999996,-680.4,8151.4,-3990.9,2025-01-27 13:52:52,0.0
-764.4000000000015,-5186.8,-2080.3999999999996,-1871.4,12256.4,-4141.9,2025-01-27 13:52:52,0.0
-204.40000000000146,-6078.8,-2272.3999999999996,-2341.4,10640.4,-3915.9,2025-01-27 13:52:52,0.0
931.5999999999985,-3282.8,-3540.3999999999996,-3340.4,5760.4,-4719.9,2025-01-27 13:52:52,0.0
-24.400000000001455,-678.8,-2796.3999999999996,-4678.4,1615.4,-5293.9,2025-01-27 13:52:52,0.0
-2312.4000000000015,1569.2,-328.39999999999964,-5358.4,-2645.6,-4814.9,2025-01-27 13:52:52,0.0
-3320.4000000000015,3589.2,-160.39999999999964,-5059.4,-6293.6,-3954.9,2025-01-27 13:52:52,0.0
-3832.4000000000015,4825.2,-1028.3999999999996,-4570.4,-7371.6,-3427.9,2025-01-27 13:52:53,0.0
-4336.4000000000015,4765.2,-2072.3999999999996,-4038.4,-4697.6,-3336.9,2025-01-27 13:52:53,0.0
-5000.4000000000015,3389.2,-1944.3999999999996,-3434.4,-1103.6,-2985.9,2025-01-27 13:52:53,0.0
-4236.4000000000015,2165.2,-2448.3999999999996,-2769.4,1175.4,-2259.9,2025-01-27 13:52:53,0.0
-2744.4000000000015,1501.2,-2844.3999999999996,-1943.4,2118.4,-1830.9,2025-01-27 13:52:53,0.0
-1716.4000000000015,1205.2,-4148.4,-1297.4,1282.4,-1420.9,2025-01-27 13:52:53,0.0
-1896.4000000000015,1285.2,-4260.4,-742.4,-878.6,-433.9,2025-01-27 13:52:53,0.0
-2976.4000000000015,797.2,-3652.3999999999996,-145.39999999999998,-3252.6,1082.1,2025-01-27 13:52:53,0.0
-3552.4000000000015,377.20000000000005,-4364.4,292.6,-4645.6,2356.1,2025-01-27 13:52:53,0.0
-3580.4000000000015,225.20000000000005,-6312.4,-82.39999999999998,-4018.6,2984.1,2025-01-27 13:52:53,0.0
-4584.4000000000015,57.200000000000045,-6260.4,-811.4,-2332.6,3229.1,2025-01-27 13:52:53,0.0
-4384.4000000000015,-182.79999999999995,-5448.4,-1146.4,-500.6,3560.1,2025-01-27 13:52:53,0.0
-3692.4000000000015,625.2,-3956.3999999999996,-1079.4,1351.4,4120.1,2025-01-27 13:52:53,0.0
-1100.4000000000015,1433.2,-3964.3999999999996,-1469.4,2783.4,4850.1,2025-01-27 13:52:54,0.0
2043.5999999999985,1413.2,-3992.3999999999996,-2155.4,3870.4,5061.1,2025-01-27 13:52:54,0.0
9219.599999999999,-2070.8,-4464.4,-1216.4,6433.4,-3625.9,2025-01-27 13:52:54,0.0
4991.5999999999985,-1514.8,-6848.4,-1595.4,3557.4,-5392.9,2025-01-27 13:52:54,0.0
2891.5999999999985,-622.8,-7388.4,-2057.4,63.400000000000006,-5948.9,2025-01-27 13:52:54,0.0
1527.5999999999985,-742.8,-5584.4,-3254.4,-853.6,-5350.9,2025-01-27 13:52:54,0.0
3619.5999999999985,-378.79999999999995,-2248.3999999999996,-3836.4,1953.4,-3877.9,2025-01-27 13:52:54,0.0
-6892.4000000000015,8765.2,5835.6,4925.6,-10162.6,-5436.9,2025-01-27 13:52:54,0.0
-8400.400000000001,1077.2,4695.6,6002.6,-19800.6,2554.1,2025-01-27 13:52:54,0.0
831.5999999999985,-1638.8,-1740.3999999999996,13399.6,2299.4,3392.1,2025-01-27 13:52:54,0.0
1295.5999999999985,-2770.8,-1616.3999999999996,13797.6,943.4,4422.1,2025-01-27 13:52:54,0.0
1067.5999999999985,-2982.8,-1612.3999999999996,13426.6,-885.6,4865.1,2025-01-27 13:52:54,0.0
1075.5999999999985,-3082.8,-2168.3999999999996,13030.6,-2511.6,5072.1,2025-01-27 13:52:54,0.0
879.5999999999985,-2970.8,-2840.3999999999996,12963.6,-3071.6,5269.1,2025-01-27 13:52:54,0.0
-12.400000000001455,-3166.8,-2044.3999999999996,12862.6,-2644.6,5478.1,2025-01-27 13:52:54,0.0
39.599999999998545,-2970.8,-2808.3999999999996,12530.6,-2971.6,5771.1,2025-01-27 13:52:54,0.0
-456.40000000000146,-2478.8,-1972.3999999999996,12136.6,-4008.6,5980.1,2025-01-27 13:52:54,0.0
-1064.4000000000015,-1318.8,-1348.3999999999996,11945.6,-4858.6,5558.1,2025-01-27 13:52:54,0.0
-764.4000000000015,-338.79999999999995,-1536.3999999999996,12113.6,-3602.6,4687.1,2025-01-27 13:52:54,0.0
-392.40000000000146,185.20000000000005,-1052.3999999999996,12357.6,-1448.6,4060.1,2025-01-27 13:52:54,0.0
83.59999999999854,53.200000000000045,-1316.3999999999996,13088.6,72.4,3577.1,2025-01-27 13:52:54,0.0
463.59999999999854,-666.8,-3788.3999999999996,13349.6,-711.6,3496.1,2025-01-27 13:52:54,0.0
871.5999999999985,-1822.8,-5872.4,12649.6,-2595.6,3156.1,2025-01-27 13:52:54,0.0
971.5999999999985,-3078.8,-5784.4,11609.6,-4409.6,2631.1,2025-01-27 13:52:54,0.0
1111.5999999999985,-3774.8,-5296.4,10657.6,-5215.6,2184.1,2025-01-27 13:52:54,0.0
75.59999999999854,-3406.8,-5320.4,9908.6,-5101.6,2086.1,2025-01-27 13:52:54,0.0
-404.40000000000146,-2586.8,-5580.4,9534.6,-4398.6,2303.1,2025-01-27 13:52:54,0.0
-984.4000000000015,-2002.8,-5360.4,9061.6,-4092.6,2360.1,2025-01-27 13:52:54,0.0
-1352.4000000000015,-1406.8,-5328.4,8332.6,-3682.6,1925.1,2025-01-27 13:52:55,0.0
-1692.4000000000015,-1330.8,-4840.4,7983.6,-2884.6,1551.1,2025-01-27 13:52:55,0.0
-1752.4000000000015,-1394.8,-4848.4,7840.6,-2092.6,1140.1,2025-01-27 13:52:55,0.0
-1636.4000000000015,-1506.8,-5260.4,7684.6,-1577.6,796.1,2025-01-27 13:52:55,0.0
-1176.4000000000015,-2086.8,-5152.4,7637.6,-1469.6,808.1,2025-01-27 13:52:55,0.0
-948.4000000000015,-2774.8,-5128.4,7616.6,-1530.6,1281.1,2025-01-27 13:52:55,0.0
63.599999999998545,-2758.8,-4852.4,7911.6,-1888.6,1466.1,2025-01-27 13:52:55,0.0
895.5999999999985,-1990.8,-4632.4,8269.6,-1775.6,1487.1,2025-01-27 13:52:55,0.0
975.5999999999985,-1370.8,-5076.4,8805.6,-966.6,1409.1,2025-01-27 13:52:55,0.0
1227.5999999999985,-1402.8,-5012.4,9343.6,-1075.6,1874.1,2025-01-27 13:52:55,0.0
1887.5999999999985,-1502.8,-5068.4,9844.6,-1975.6,2213.1,2025-01-27 13:52:55,0.0
2347.5999999999985,-1386.8,-5248.4,10222.6,-2785.6,2189.1,2025-01-27 13:52:55,0.0
3175.5999999999985,-1102.8,-6328.4,10690.6,-2282.6,2124.1,2025-01-27 13:52:55,0.0
2783.5999999999985,-2166.8,-6372.4,11166.6,-1813.6,1836.1,2025-01-27 13:52:55,0.0
1747.5999999999985,-3570.8,-6520.4,11470.6,-1104.6,1076.1,2025-01-27 13:52:55,0.0
2007.5999999999985,-4834.8,-6868.4,10156.6,36.400000000000006,1400.1,2025-01-27 13:52:55,0.0
2391.5999999999985,-5414.8,-3376.3999999999996,8912.6,2192.4,3377.1,2025-01-27 13:52:55,0.0
3227.5999999999985,-6670.8,-5600.4,7104.6,2796.4,5888.1,2025-01-27 13:52:55,0.0
4579.5999999999985,-7834.8,-7832.4,3929.6,1349.4,7205.1,2025-01-27 13:52:55,0.0
8759.599999999999,-8414.8,-5620.4,468.6,283.4,5835.1,2025-01-27 13:52:55,0.0
9879.599999999999,-6342.8,375.60000000000036,-1323.4,-2200.6,763.1,2025-01-27 13:52:55,0.0
4895.5999999999985,-3250.8,2479.6000000000004,-2106.4,-4936.6,-1319.9,2025-01-27 13:52:55,0.0
2315.5999999999985,-1978.8,3771.6000000000004,-2210.4,-6461.6,-2830.9,2025-01-27 13:52:55,0.0
-628.4000000000015,-894.8,3695.6000000000004,-1838.4,-6145.6,-4203.9,2025-01-27 13:52:55,0.0
-3112.4000000000015,1541.2,2771.6000000000004,-753.4,-4700.6,-4319.9,2025-01-27 13:52:55,0.0
-3336.4000000000015,4733.2,827.6000000000004,553.6,-2337.6,-3671.9,2025-01-27 13:52:55,0.0
-1420.4000000000015,6133.2,-544.3999999999996,1114.6,1368.4,-3333.9,2025-01-27 13:52:55,0.0
-152.40000000000146,3645.2,-252.39999999999964,1677.6,4117.4,-3539.9,2025-01-27 13:52:55,0.0
403.59999999999854,485.20000000000005,-1308.3999999999996,2387.6,4351.4,-3832.9,2025-01-27 13:52:55,0.0
519.5999999999985,-1598.8,-1840.3999999999996,2472.6,2863.4,-3904.9,2025-01-27 13:52:55,0.0
-56.400000000001455,-2326.8,-1896.3999999999996,2047.6,972.4,-4162.9,2025-01-27 13:52:55,0.0
-264.40000000000146,-2530.8,-2280.3999999999996,1635.6,-180.6,-4231.9,2025-01-27 13:52:55,0.0
-1268.4000000000015,-2246.8,-2576.3999999999996,1089.6,-906.6,-4067.9,2025-01-27 13:52:55,0.0
-1652.4000000000015,-1294.8,-3224.3999999999996,187.60000000000002,-1449.6,-4232.9,2025-01-27 13:52:55,0.0
-2584.4000000000015,141.20000000000005,-3764.3999999999996,-613.4,-1836.6,-4619.9,2025-01-27 13:52:55,0.0
-2924.4000000000015,1541.2,-4160.4,-979.4,-2194.6,-4608.9,2025-01-27 13:52:55,0.0
-3504.4000000000015,2673.2,-3492.3999999999996,-1020.4,-1787.6,-4420.9,2025-01-27 13:52:55,0.0
-3132.4000000000015,2837.2,-3584.3999999999996,-1024.4,-796.6,-3906.9,2025-01-27 13:52:55,
-2296.4000000000015,2413.2,-3104.3999999999996,-849.4,245.4,-3635.9,2025-01-27 13:52:55,0.0
-1336.4000000000015,2177.2,-3368.3999999999996,-489.4,420.4,-3612.9,2025-01-27 13:52:55,0.0
-2072.4000000000015,1977.2,-3488.3999999999996,-71.39999999999998,-670.6,-3139.9,2025-01-27 13:52:55,0.0
-2676.4000000000015,1469.2,-4044.3999999999996,383.6,-1960.6,-2152.9,2025-01-27 13:52:55,0.0
-3276.4000000000015,1073.2,-4500.4,759.6,-2546.6,-1003.9,2025-01-27 13:52:55,0.0
-3192.4000000000015,789.2,-5476.4,944.6,-2197.6,188.1,2025-01-27 13:52:55,0.0
-3096.4000000000015,885.2,-6096.4,578.6,-1545.6,854.1,2025-01-27 13:52:55,0.0
-2780.4000000000015,985.2,-6484.4,35.60000000000002,-1439.6,1536.1,2025-01-27 13:52:55,0.0
-1968.4000000000015,769.2,-6856.4,-805.4,-2156.6,2255.1,2025-01-27 13:52:55,0.0
-1036.4000000000015,441.20000000000005,-6292.4,-1838.4,-2500.6,2474.1,2025-01-27 13:52:55,0.0
-300.40000000000146,289.20000000000005,-5124.4,-2858.4,-1836.6,1956.1,2025-01-27 13:52:55,0.0
975.5999999999985,441.20000000000005,-4924.4,-4124.4,-535.6,1189.1,2025-01-27 13:52:55,0.0
3103.5999999999985,385.20000000000005,-5432.4,-5567.4,1581.4,-98.9,2025-01-27 13:52:55,0.0
7847.5999999999985,-50.799999999999955,-5728.4,-5988.4,5072.4,-2735.9,2025-01-27 13:52:55,0.0
8651.599999999999,609.2,-6764.4,-4958.4,7834.4,-5683.9,2025-01-27 13:52:55,0.0
7387.5999999999985,2185.2,-9156.4,-4353.4,6395.4,-7840.9,2025-01-27 13:52:55,0.0
6831.5999999999985,3773.2,-7936.4,-5204.4,3701.4,-7966.9,2025-01-27 13:52:55,0.0
7191.5999999999985,3517.2,-3636.3999999999996,-5852.4,3025.4,-7356.9,2025-01-27 13:52:55,0.0
5023.5999999999985,5985.2,519.6000000000004,-4282.4,1496.4,-5416.9,2025-01-27 13:52:55,0.0
4103.5999999999985,8605.2,2451.6000000000004,-1146.4,123.4,-4219.9,2025-01-27 13:52:55,0.0
3439.5999999999985,10233.2,4003.6000000000004,2460.6,-1079.6,-2750.9,2025-01-27 13:52:55,0.0
3011.5999999999985,10413.2,3007.6000000000004,4736.6,-3062.6,-1410.9,2025-01-27 13:52:55,0.0
2951.5999999999985,5533.2,2823.6000000000004,6495.6,-5115.6,-1400.9,2025-01-27 13:52:55,0.0
415.59999999999854,1681.2,3155.6000000000004,7177.6,-7062.6,-1525.9,2025-01-27 13:52:55,0.0
-3152.4000000000015,-1818.8,2703.6000000000004,6398.6,-8884.6,-424.9,2025-01-27 13:52:56,0.0
-4564.4000000000015,-4670.8,1903.6000000000004,5469.6,-6754.6,1397.1,2025-01-27 13:52:56,0.0
-4912.4000000000015,-5790.8,1031.6000000000004,4990.6,-1280.6,3438.1,2025-01-27 13:52:56,0.0
-3036.4000000000015,-3734.8,-1664.3999999999996,3890.6,4900.4,4867.1,2025-01-27 13:52:56,0.0
-1548.4000000000015,-70.79999999999995,-2328.3999999999996,2169.6,9564.4,5404.1,2025-01-27 13:52:56,0.0
-384.40000000000146,2981.2,-1088.3999999999996,1945.6,11268.4,5975.1,2025-01-27 13:52:56,0.0
991.5999999999985,4121.2,-908.3999999999996,2979.6,9637.4,6219.1,2025-01-27 13:52:56,0.0
783.5999999999985,3137.2,-424.39999999999964,4129.6,4842.4,5970.1,2025-01-27 13:52:56,0.0
-180.40000000000146,1413.2,-672.3999999999996,4497.6,-954.6,6071.1,2025-01-27 13:52:56,0.0
-2240.4000000000015,-254.79999999999995,331.60000000000036,5059.6,-6280.6,6192.1,2025-01-27 13:52:56,0.0
-1580.4000000000015,-1846.8,-2128.3999999999996,5724.6,-9923.6,5665.1,2025-01-27 13:52:56,0.0
-1836.4000000000015,-2574.8,-5684.4,5633.6,-6454.6,3780.1,2025-01-27 13:52:56,0.0
-4744.4000000000015,-2342.8,-3752.3999999999996,4527.6,-748.6,2750.1,2025-01-27 13:52:56,0.0
-5532.4000000000015,-1990.8,-1276.3999999999996,4293.6,3198.4,2801.1,2025-01-27 13:52:56,0.0
-3944.4000000000015,-1542.8,-2264.3999999999996,4744.6,4643.4,3107.1,2025-01-27 13:52:56,0.0
-1908.4000000000015,-1278.8,-4432.4,4315.6,3989.4,3098.1,2025-01-27 13:52:56,0.0
319.59999999999854,-1342.8,-5132.4,3395.6,2058.4,2232.1,2025-01-27 13:52:56,0.0
459.59999999999854,-1518.8,-5460.4,2498.6,70.4,1015.1,2025-01-27 13:52:56,0.0
47.599999999998545,-1482.8,-5716.4,1838.6,-1042.6,-223.9,2025-01-27 13:52:56,0.0
-1500.4000000000015,-1018.8,-5276.4,1648.6,-1456.6,-949.9,2025-01-27 13:52:56,0.0
-1788.4000000000015,-438.79999999999995,-5696.4,2031.6,-1985.6,-1211.9,2025-01-27 13:52:56,0.0
-1716.4000000000015,553.2,-4908.4,2328.6,-1921.6,-1640.9,2025-01-27 13:52:56,0.0
-1736.4000000000015,845.2,-3768.3999999999996,2885.6,-2373.6,-2118.9,2025-01-27 13:52:56,0.0
-1444.4000000000015,453.20000000000005,-2576.3999999999996,3248.6,-2144.6,-2272.9,2025-01-27 13:52:56,0.0
-1056.4000000000015,801.2,-1340.3999999999996,3995.6,-385.6,-1354.9,2025-01-27 13:52:56,0.0
1179.5999999999985,41.200000000000045,-2116.3999999999996,4945.6,3358.4,-272.9,2025-01-27 13:52:56,0.0
1435.5999999999985,-2790.8,-5012.4,4914.6,6563.4,2107.1,2025-01-27 13:52:56,0.0
2843.5999999999985,-5114.8,-8724.4,4694.6,7260.4,6294.1,2025-01-27 13:52:56,0.0
7807.5999999999985,-6050.8,-9480.4,4558.6,5419.4,8629.1,2025-01-27 13:52:56,0.0
11719.599999999999,-4034.8,-6924.4,3271.6,4952.4,6914.1,2025-01-27 13:52:56,0.0
10739.599999999999,-2466.8,355.60000000000036,2588.6,3857.4,4641.1,2025-01-27 13:52:56,0.0
6755.5999999999985,-1898.8,1355.6000000000004,3281.6,-2581.6,4335.1,2025-01-27 13:52:56,0.0
5083.5999999999985,-4954.8,-908.3999999999996,1773.6,-7973.6,5856.1,2025-01-27 13:52:56,0.0
8295.599999999999,-7802.8,-172.39999999999964,-787.4,-10680.6,4996.1,2025-01-27 13:52:56,0.0
8427.599999999999,-6934.8,-828.3999999999996,-2883.4,-8744.6,451.1,2025-01-27 13:52:56,0.0
1943.5999999999985,-3814.8,1431.6000000000004,-6068.4,-9666.6,-2035.9,2025-01-27 13:52:56,0.0
-2388.4000000000015,-934.8,5275.6,-6985.4,-10651.6,-2946.9,2025-01-27 13:52:56,0.0
-5068.4000000000015,2273.2,6395.6,-5800.4,-8663.6,-2697.9,2025-01-27 13:52:56,0.0
-4956.4000000000015,4809.2,4643.6,-3604.4,-4086.6,-1873.9,2025-01-27 13:52:56,0.0
-1932.4000000000015,4889.2,643.6000000000004,-1804.4,3199.4,-2054.9,2025-01-27 13:52:56,0.0
1511.5999999999985,649.2,-2352.3999999999996,-1217.4,10059.4,-3486.9,2025-01-27 13:52:56,0.0
2223.5999999999985,-3102.8,-3264.3999999999996,-2170.4,12872.4,-4543.9,2025-01-27 13:52:56,0.0
2415.5999999999985,-4870.8,-2416.3999999999996,-3318.4,10121.4,-4504.9,2025-01-27 13:52:56,0.0
3023.5999999999985,-2446.8,-1724.3999999999996,-4699.4,3449.4,-5429.9,2025-01-27 13:52:56,0.0
807.5999999999985,-118.79999999999995,-2572.3999999999996,-5473.4,-2234.6,-6241.9,2025-01-27 13:52:56,0.0
-2804.4000000000015,1345.2,-1052.3999999999996,-6135.4,-6085.6,-5624.9,2025-01-27 13:52:56,0.0
-4824.4000000000015,2441.2,-696.3999999999996,-5945.4,-9220.6,-4801.9,2025-01-27 13:52:56,0.0
-4704.4000000000015,3105.2,-2248.3999999999996,-5489.4,-8226.6,-4929.9,2025-01-27 13:52:56,0.0
-6356.4000000000015,3577.2,-2960.3999999999996,-5564.4,-4135.6,-4809.9,2025-01-27 13:52:56,0.0
-6640.4000000000015,2925.2,-2760.3999999999996,-5720.4,-368.6,-3703.9,2025-01-27 13:52:56,0.0
-4952.4000000000015,1717.2,-2564.3999999999996,-5322.4,1663.4,-2889.9,2025-01-27 13:52:56,0.0
-2840.4000000000015,1029.2,-3636.3999999999996,-4599.4,2681.4,-2808.9,2025-01-27 13:52:56,0.0
-3176.4000000000015,1269.2,-4204.4,-3805.4,1933.4,-1999.9,2025-01-27 13:52:56,0.0
-3664.4000000000015,1801.2,-4396.4,-2745.4,240.4,-142.9,2025-01-27 13:52:56,0.0
-3956.4000000000015,1581.2,-4928.4,-1975.4,-1079.6,1637.1,2025-01-27 13:52:56,0.0
-4000.4000000000015,1137.2,-5696.4,-1530.4,-1693.6,2774.1,2025-01-27 13:52:56,0.0
-3912.4000000000015,513.2,-7608.4,-2130.4,-878.6,3346.1,2025-01-27 13:52:56,0.0
-2736.4000000000015,-250.79999999999995,-6808.4,-2889.4,510.4,3539.1,2025-01-27 13:52:56,0.0
-636.4000000000015,341.20000000000005,-5516.4,-3709.4,1297.4,3645.1,2025-01-27 13:52:56,0.0
2139.5999999999985,953.2,-4856.4,-4577.4,1587.4,3439.1,2025-01-27 13:52:56,0.0
4919.5999999999985,413.20000000000005,-4156.4,-4987.4,1702.4,2286.1,2025-01-27 13:52:56,0.0
7823.5999999999985,-918.8,-4272.4,-5341.4,2253.4,470.1,2025-01-27 13:52:57,0.0
12551.599999999999,-1114.8,-3876.3999999999996,-4979.4,4609.4,-3389.9,2025-01-27 13:52:57,0.0
10063.599999999999,1365.2,-6684.4,-3262.4,5336.4,-7613.9,2025-01-27 13:52:57,0.0
5427.5999999999985,2473.2,-10180.4,-3727.4,2793.4,-8281.9,2025-01-27 13:52:57,0.0
1191.5999999999985,1021.2,-10548.4,-5312.4,-2155.6,-6267.9,2025-01-27 13:52:57,0.0
2939.5999999999985,-494.79999999999995,-5224.4,-5849.4,-2288.6,-4255.9,2025-01-27 13:52:57,0.0
3543.5999999999985,89.20000000000005,-4440.4,-6517.4,2521.4,-1841.9,2025-01-27 13:52:57,0.0
7251.5999999999985,3661.2,-1592.3999999999996,-6516.4,5798.4,-2809.9,2025-01-27 13:52:57,0.0
7331.5999999999985,5865.2,3567.6000000000004,-3768.4,3801.4,-4336.9,2025-01-27 13:52:57,0.0
3491.5999999999985,8085.2,5683.6,-495.4,-1337.6,-4095.9,2025-01-27 13:52:57,0.0
-716.4000000000015,6761.2,6499.6,2896.6,-8098.6,-1290.9,2025-01-27 13:52:57,0.0
-2724.4000000000015,3921.2,6679.6,6129.6,-12681.6,922.1,2025-01-27 13:52:57,0.0
-3008.4000000000015,909.2,4215.6,6789.6,-13153.6,1351.1,2025-01-27 13:52:57,0.0
-2796.4000000000015,-2282.8,-580.3999999999996,3456.6,-7576.6,1349.1,2025-01-27 13:52:57,0.0
-2740.4000000000015,-3826.8,-1512.3999999999996,1226.6,2779.4,1321.1,2025-01-27 13:52:57,
-2316.4000000000015,-1814.8,-1060.3999999999996,801.6,10612.4,2074.1,2025-01-27 13:52:57,0.0
-1848.4000000000015,2305.2,-460.39999999999964,1467.6,12509.4,3755.1,2025-01-27 13:52:57,0.0
683.5999999999985,5253.2,-1236.3999999999996,2599.6,12105.4,5771.1,2025-01-27 13:52:57,0.0
2323.5999999999985,4713.2,-856.3999999999996,4511.6,8041.4,6836.1,2025-01-27 13:52:57,0.0
515.5999999999985,745.2,115.60000000000036,6495.6,1814.4,7736.1,2025-01-27 13:52:57,0.0
-1792.4000000000015,-1766.8,27.600000000000364,7024.6,-5334.6,8460.1,2025-01-27 13:52:57,0.0
-2428.4000000000015,-2658.8,-552.3999999999996,6224.6,-11798.6,7763.1,2025-01-27 13:52:57,0.0
-3396.4000000000015,-3634.8,-1416.3999999999996,6331.6,-15223.6,5700.1,2025-01-27 13:52:57,0.0
-5332.4000000000015,-2046.8,-4728.4,5801.6,-8025.6,2646.1,2025-01-27 13:52:57,0.0
-7992.4000000000015,-1438.8,-3580.3999999999996,4504.6,209.4,2295.1,2025-01-27 13:52:57,0.0
-6260.4000000000015,-1322.8,-556.3999999999996,5390.6,5401.4,2991.1,2025-01-27 13:52:57,0.0
-3160.4000000000015,-586.8,-1572.3999999999996,6590.6,7391.4,2765.1,2025-01-27 13:52:57,0.0
-1052.4000000000015,-986.8,-6280.4,5795.6,6082.4,2317.1,2025-01-27 13:52:57,0.0
883.5999999999985,-954.8,-8020.4,4367.6,2342.4,782.1,2025-01-27 13:52:57,0.0
347.59999999999854,-962.8,-7416.4,2962.6,-277.6,-1105.9,2025-01-27 13:52:57,0.0
-820.4000000000015,-966.8,-5768.4,2395.6,-1478.6,-2298.9,2025-01-27 13:52:57,0.0
-1096.4000000000015,-434.79999999999995,-3952.3999999999996,2634.6,-1278.6,-2450.9,2025-01-27 13:52:57,0.0
-1532.4000000000015,129.20000000000005,-4024.3999999999996,3641.6,-722.6,-2490.9,2025-01-27 13:52:57,0.0
-1628.4000000000015,81.20000000000005,-3472.3999999999996,4323.6,-80.6,-2333.9,2025-01-27 13:52:57,0.0
-2020.4000000000015,-318.79999999999995,-2896.3999999999996,5065.6,106.4,-1517.9,2025-01-27 13:52:57,0.0
-272.40000000000146,-98.79999999999995,-3692.3999999999996,5927.6,1698.4,-390.9,2025-01-27 13:52:57,0.0
3183.5999999999985,1369.2,-4284.4,6330.6,5156.4,232.1,2025-01-27 13:52:57,0.0
4363.5999999999985,553.2,-5344.4,6429.6,8438.4,1078.1,2025-01-27 13:52:57,0.0
3351.5999999999985,-2782.8,-6584.4,5965.6,9076.4,3956.1,2025-01-27 13:52:57,0.0
5807.5999999999985,-5574.8,-7092.4,5260.6,5596.4,6959.1,2025-01-27 13:52:57,0.0
9703.599999999999,-5258.8,-4628.4,5109.6,925.4,5221.1,2025-01-27 13:52:57,0.0
9443.599999999999,-2198.8,-2140.3999999999996,4038.6,1299.4,3755.1,2025-01-27 13:52:57,0.0
6771.5999999999985,-950.8,-1288.3999999999996,3523.6,426.4,4590.1,2025-01-27 13:52:57,0.0
4579.5999999999985,-4338.8,-1740.3999999999996,1807.6,-2616.6,6505.1,2025-01-27 13:52:57,0.0
5703.5999999999985,-8266.8,731.6000000000004,-301.4,-7177.6,8299.1,2025-01-27 13:52:57,0.0
10419.599999999999,-9466.8,727.6000000000004,-979.4,-9863.6,4196.1,2025-01-27 13:52:57,0.0
4603.5999999999985,-5010.8,-216.39999999999964,-4439.4,-10386.6,-1624.9,2025-01-27 13:52:57,0.0
-20.400000000001455,-2650.8,3523.6000000000004,-6913.4,-11580.6,-3825.9,2025-01-27 13:52:57,0.0
-4344.4000000000015,481.20000000000005,6183.6,-6520.4,-10791.6,-4466.9,2025-01-27 13:52:57,0.0
-6800.4000000000015,3453.2,5859.6,-4740.4,-8013.6,-3169.9,2025-01-27 13:52:57,0.0
-4916.4000000000015,5357.2,2731.6000000000004,-2849.4,-2092.6,-2012.9,2025-01-27 13:52:57,0.0
-1412.4000000000015,3149.2,-1108.3999999999996,-1515.4,7426.4,-2489.9,2025-01-27 13:52:57,0.0
1819.5999999999985,-2758.8,-3096.3999999999996,-2649.4,14716.4,-4153.9,2025-01-27 13:52:57,0.0
1659.5999999999985,-6046.8,-1740.3999999999996,-3966.4,13698.4,-4091.9,2025-01-27 13:52:57,0.0
3891.5999999999985,-4358.8,-1804.3999999999996,-5303.4,7507.4,-4885.9,2025-01-27 13:52:57,0.0
2183.5999999999985,-1386.8,-876.3999999999996,-5777.4,739.4,-6239.9,2025-01-27 13:52:57,0.0
-2116.4000000000015,1341.2,-2024.3999999999996,-6755.4,-4743.6,-6410.9,2025-01-27 13:52:57,0.0
-4020.4000000000015,2293.2,-1288.3999999999996,-7013.4,-8668.6,-5804.9,2025-01-27 13:52:57,0.0
-4788.4000000000015,3101.2,-2712.3999999999996,-6693.4,-8811.6,-5843.9,2025-01-27 13:52:57,0.0
-6796.4000000000015,3217.2,-2700.3999999999996,-6763.4,-4764.6,-5442.9,2025-01-27 13:52:57,0.0
-7372.4000000000015,2417.2,-2492.3999999999996,-6831.4,-658.6,-4036.9,2025-01-27 13:52:57,0.0
-5220.4000000000015,1181.2,-2840.3999999999996,-6784.4,1773.4,-3245.9,2025-01-27 13:52:58,0.0
-3980.4000000000015,689.2,-3200.3999999999996,-6438.4,2409.4,-3118.9,2025-01-27 13:52:58,0.0
-4272.4000000000015,1025.2,-3564.3999999999996,-5450.4,1444.4,-2278.9,2025-01-27 13:52:58,0.0
-4328.4000000000015,2273.2,-4412.4,-4029.4,-215.6,-313.9,2025-01-27 13:52:58,0.0
-3744.4000000000015,2609.2,-4788.4,-2664.4,-1585.6,1678.1,2025-01-27 13:52:58,0.0
-3112.4000000000015,1721.2,-5700.4,-2113.4,-1915.6,2561.1,2025-01-27 13:52:58,0.0
-3308.4000000000015,949.2,-7792.4,-2510.4,-1373.6,3135.1,2025-01-27 13:52:58,0.0
-2268.4000000000015,-282.79999999999995,-6956.4,-3298.4,-52.599999999999994,3116.1,2025-01-27 13:52:58,0.0
-392.40000000000146,-38.799999999999955,-6648.4,-4189.4,1145.4,2657.1,2025-01-27 13:52:58,0.0
775.5999999999985,169.20000000000005,-4680.4,-4852.4,1892.4,2291.1,2025-01-27 13:52:58,0.0
3079.5999999999985,345.20000000000005,-3716.3999999999996,-5078.4,2402.4,1620.1,2025-01-27 13:52:58,0.0
6687.5999999999985,-458.79999999999995,-4652.4,-5339.4,3935.4,108.1,2025-01-27 13:52:58,0.0
12599.599999999999,-666.8,-4328.4,-5222.4,7253.4,-3565.9,2025-01-27 13:52:58,0.0
13071.599999999999,1605.2,-7256.4,-3637.4,8771.4,-9559.9,2025-01-27 13:52:58,0.0
6887.5999999999985,3777.2,-8668.4,-3839.4,5227.4,-11279.9,2025-01-27 13:52:58,0.0
2907.5999999999985,3333.2,-5616.4,-5333.4,-2079.6,-8394.9,2025-01-27 13:52:58,0.0
2491.5999999999985,-298.79999999999995,-1316.3999999999996,-4867.4,-4212.6,-3968.9,2025-01-27 13:52:58,0.0
6579.5999999999985,3329.2,-56.399999999999636,-3952.4,-868.6,-3446.9,2025-01-27 13:52:58,0.0
7575.5999999999985,6421.2,4139.6,-2792.4,2573.4,-4905.9,2025-01-27 13:52:58,0.0
8295.599999999999,7693.2,7031.6,891.6,2202.4,-7747.9,2025-01-27 13:52:58,0.0
3383.5999999999985,7701.2,6163.6,4234.6,-3026.6,-8025.9,2025-01-27 13:52:58,0.0
-3904.4000000000015,6205.2,4991.6,6290.6,-9992.6,-4031.9,2025-01-27 13:52:58,0.0
-6676.4000000000015,-642.8,3467.6000000000004,7773.6,-13641.6,2398.1,2025-01-27 13:52:58,0.0
-4264.4000000000015,-4114.8,123.60000000000036,4598.6,-8190.6,5903.1,2025-01-27 13:52:58,0.0
-2192.4000000000015,-5542.8,395.60000000000036,1196.6,-445.6,5090.1,2025-01-27 13:52:58,0.0
-1464.4000000000015,-3754.8,-588.3999999999996,64.60000000000002,6777.4,3987.1,2025-01-27 13:52:58,0.0
-1648.4000000000015,1049.2,-644.3999999999996,65.60000000000002,12100.4,3818.1,2025-01-27 13:52:58,0.0
-828.4000000000015,6145.2,75.60000000000036,1499.6,13604.4,5523.1,2025-01-27 13:52:58,0.0
895.5999999999985,7393.2,1403.6000000000004,4426.6,11098.4,6649.1,2025-01-27 13:52:58,0.0
623.5999999999985,5117.2,395.60000000000036,6703.6,4763.4,7182.1,2025-01-27 13:52:58,0.0
-908.4000000000015,473.20000000000005,-496.39999999999964,7322.6,-2219.6,7838.1,2025-01-27 13:52:58,0.0
-3380.4000000000015,-2006.8,-444.39999999999964,6972.6,-9147.6,7671.1,2025-01-27 13:52:58,0.0
-5360.4000000000015,-4034.8,-392.39999999999964,6502.6,-14245.6,6434.1,2025-01-27 13:52:58,0.0
-3440.4000000000015,-4454.8,-4792.4,6324.6,-10873.6,3242.1,2025-01-27 13:52:58,0.0
-7020.4000000000015,-2886.8,-5328.4,4348.6,-3084.6,2049.1,2025-01-27 13:52:58,0.0
-7296.4000000000015,-2274.8,-1476.3999999999996,4130.6,4289.4,2782.1,2025-01-27 13:52:58,0.0
-4300.4000000000015,-1582.8,-1120.3999999999996,5187.6,7108.4,2681.1,2025-01-27 13:52:58,0.0
-2884.4000000000015,-1322.8,-4064.3999999999996,4902.6,6432.4,2506.1,2025-01-27 13:52:58,0.0
-936.4000000000015,-1126.8,-6312.4,3810.6,4291.4,1888.1,2025-01-27 13:52:58,0.0
99.59999999999854,-934.8,-6932.4,2507.6,2171.4,360.1,2025-01-27 13:52:58,0.0
-1008.4000000000015,-982.8,-5216.4,1402.6,1228.4,-1231.9,2025-01-27 13:52:58,0.0
-796.4000000000015,-578.8,-5352.4,1290.6,742.4,-2115.9,2025-01-27 13:52:58,0.0
-1188.4000000000015,53.200000000000045,-4300.4,2078.6,827.4,-2189.9,2025-01-27 13:52:58,0.0
315.59999999999854,577.2,-3752.3999999999996,3595.6,606.4,-2026.9,2025-01-27 13:52:58,0.0
-300.40000000000146,1101.2,-1704.3999999999996,4713.6,-145.6,-1715.9,2025-01-27 13:52:58,0.0
591.5999999999985,1245.2,-1252.3999999999996,5036.6,-1087.6,-1292.9,2025-01-27 13:52:58,0.0
1775.5999999999985,1213.2,-1020.3999999999996,5213.6,-487.6,-678.9,2025-01-27 13:52:58,0.0
2211.5999999999985,-870.8,-4252.4,5494.6,2366.4,334.1,2025-01-27 13:52:58,0.0
1307.5999999999985,-5054.8,-7464.4,4959.6,4361.4,4149.1,2025-01-27 13:52:58,0.0
5159.5999999999985,-7614.8,-8680.4,4289.6,3915.4,9808.1,2025-01-27 13:52:58,0.0
10747.599999999999,-4866.8,-7492.4,3272.6,2812.4,8271.1,2025-01-27 13:52:58,0.0
10971.599999999999,117.20000000000005,-2080.3999999999996,978.6,4852.4,5526.1,2025-01-27 13:52:58,0.0
7211.5999999999985,181.20000000000005,3455.6000000000004,2290.6,3180.4,5045.1,2025-01-27 13:52:58,0.0
4731.5999999999985,-3494.8,35.600000000000364,3070.6,-2793.6,7174.1,2025-01-27 13:52:58,
5575.5999999999985,-7358.8,-976.3999999999996,-353.4,-8421.6,8786.1,2025-01-27 13:52:58,0.0
11339.599999999999,-9814.8,-592.3999999999996,-1941.4,-9746.6,5011.1,2025-01-27 13:52:58,0.0
4775.5999999999985,-4054.8,-1352.3999999999996,-5398.4,-8371.6,-479.9,2025-01-27 13:52:58,0.0
1083.5999999999985,-1874.8,3127.6000000000004,-7563.4,-10648.6,-1725.9,2025-01-27 13:52:58,0.0
-1584.4000000000015,1089.2,5995.6,-7281.4,-10863.6,-2505.9,2025-01-27 13:52:58,0.0
-4584.4000000000015,4365.2,7099.6,-5638.4,-8910.6,-1987.9,2025-01-27 13:52:58,0.0
-2808.4000000000015,6449.2,3579.6000000000004,-2517.4,-2969.6,-1852.9,2025-01-27 13:52:58,0.0
175.59999999999854,2737.2,-408.39999999999964,-483.4,6619.4,-3350.9,2025-01-27 13:52:59,0.0
1275.5999999999985,-2302.8,-2536.3999999999996,-1266.4,11671.4,-4564.9,2025-01-27 13:52:59,0.0
-260.40000000000146,-5962.8,-2320.3999999999996,-2585.4,9533.4,-3613.9,2025-01-27 13:52:59,0.0
1879.5999999999985,-3842.8,-2404.3999999999996,-4314.4,4058.4,-3652.9,2025-01-27 13:52:59,0.0
1191.5999999999985,-1158.8,-1692.3999999999996,-5520.4,-770.6,-5081.9,2025-01-27 13:52:59,0.0
-2600.4000000000015,1069.2,-1488.3999999999996,-6616.4,-4646.6,-5413.9,2025-01-27 13:52:59,0.0
-4180.4000000000015,2493.2,-1428.3999999999996,-6515.4,-7019.6,-4621.9,2025-01-27 13:52:59,0.0
-5068.4000000000015,3653.2,-2076.3999999999996,-5713.4,-6199.6,-4604.9,2025-01-27 13:52:59,0.0
-5780.4000000000015,4693.2,-3664.3999999999996,-5261.4,-3714.6,-4292.9,2025-01-27 13:52:59,0.0
-5624.4000000000015,4265.2,-3980.3999999999996,-5190.4,-854.6,-3632.9,2025-01-27 13:52:59,0.0
-4156.4000000000015,2581.2,-3300.3999999999996,-5177.4,925.4,-3329.9,2025-01-27 13:52:59,0.0
-2952.4000000000015,1281.2,-2980.3999999999996,-4939.4,1057.4,-3549.9,2025-01-27 13:52:59,0.0
-4016.4000000000015,889.2,-3464.3999999999996,-4256.4,168.4,-3179.9,2025-01-27 13:52:59,0.0
-5096.4000000000015,1433.2,-3984.3999999999996,-3295.4,-380.6,-1588.9,2025-01-27 13:52:59,0.0
-5496.4000000000015,1433.2,-4112.4,-2784.4,-426.6,236.1,2025-01-27 13:52:59,0.0
-5108.4000000000015,549.2,-4428.4,-2404.4,249.4,1517.1,2025-01-27 13:52:59,0.0
-4324.4000000000015,-426.79999999999995,-6396.4,-2856.4,2006.4,2325.1,2025-01-27 13:52:59,0.0
-3288.4000000000015,-814.8,-7404.4,-3769.4,3601.4,3212.1,2025-01-27 13:52:59,0.0
-84.40000000000146,-410.79999999999995,-7556.4,-5120.4,4169.4,3264.1,2025-01-27 13:52:59,0.0
2615.5999999999985,221.20000000000005,-6288.4,-6176.4,3477.4,2812.1,2025-01-27 13:52:59,0.0
5015.5999999999985,1185.2,-4456.4,-6655.4,2664.4,2099.1,2025-01-27 13:52:59,0.0
7639.5999999999985,1661.2,-3404.3999999999996,-6365.4,1691.4,469.1,2025-01-27 13:52:59,0.0
12487.599999999999,565.2,-2860.3999999999996,-5928.4,2798.4,-2422.9,2025-01-27 13:52:59,0.0
13127.599999999999,1993.2,-3864.3999999999996,-3137.4,4935.4,-8096.9,2025-01-27 13:52:59,0.0
7043.5999999999985,3461.2,-8384.4,-2291.4,3786.4,-10173.9,2025-01-27 13:52:59,0.0
4811.5999999999985,3965.2,-7076.4,-3143.4,896.4,-8785.9,2025-01-27 13:52:59,0.0
4355.5999999999985,1093.2,-3036.3999999999996,-4265.4,-1230.6,-6289.9,2025-01-27 13:52:59,0.0
6775.5999999999985,2265.2,-544.3999999999996,-4328.4,-1054.6,-4086.9,2025-01-27 13:52:59,0.0
8815.599999999999,4349.2,3479.6000000000004,-2903.4,89.4,-5439.9,2025-01-27 13:52:59,0.0
7815.5999999999985,6217.2,7699.6,507.6,-580.6,-7317.9,2025-01-27 13:52:59,0.0
3963.5999999999985,7301.2,6103.6,4175.6,-4832.6,-8101.9,2025-01-27 13:52:59,0.0
-4032.4000000000015,6461.2,4015.6000000000004,6076.6,-12189.6,-5126.9,2025-01-27 13:52:59,0.0
-7956.4000000000015,1049.2,3159.6000000000004,8457.6,-15223.6,584.1,2025-01-27 13:52:59,0.0
-6348.4000000000015,-1814.8,-216.39999999999964,6568.6,-9063.6,4017.1,2025-01-27 13:52:59,0.0
-2056.4000000000015,-3190.8,-872.3999999999996,1709.6,-507.6,3873.1,2025-01-27 13:52:59,0.0
-1516.4000000000015,-3722.8,943.6000000000004,528.6,6953.4,3057.1,2025-01-27 13:52:59,0.0
-168.40000000000146,-282.79999999999995,591.6000000000004,1715.6,11257.4,3906.1,2025-01-27 13:52:59,0.0
507.59999999999854,4157.2,1295.6000000000004,3732.6,12354.4,5659.1,2025-01-27 13:52:59,0.0
2699.5999999999985,7025.2,755.6000000000004,6029.6,10920.4,6899.1,2025-01-27 13:52:59,0.0
1319.5999999999985,6093.2,1255.6000000000004,8593.6,5729.4,7471.1,2025-01-27 13:52:59,0.0
-1608.4000000000015,2097.2,-168.39999999999964,9466.6,-2617.6,8577.1,2025-01-27 13:52:59,0.0
-2688.4000000000015,-130.79999999999995,-736.3999999999996,8886.6,-9272.6,8625.1,2025-01-27 13:52:59,0.0
-4136.4000000000015,-1994.8,-444.39999999999964,8257.6,-14654.6,7245.1,2025-01-27 13:52:59,0.0
-4160.4000000000015,-3826.8,-2992.3999999999996,7963.6,-10773.6,3116.1,2025-01-27 13:52:59,0.0
-7568.4000000000015,-3398.8,-3888.3999999999996,6411.6,-3428.6,2079.1,2025-01-27 13:52:59,0.0
-7804.4000000000015,-2946.8,-2232.3999999999996,6090.6,3443.4,2623.1,2025-01-27 13:52:59,0.0
-5520.4000000000015,-1946.8,-1308.3999999999996,6973.6,6562.4,2880.1,2025-01-27 13:52:59,0.0
-3684.4000000000015,-938.8,-3416.3999999999996,7076.6,7058.4,2761.1,2025-01-27 13:52:59,0.0
-1720.4000000000015,-654.8,-5788.4,6017.6,4929.4,2226.1,2025-01-27 13:52:59,0.0
-8.400000000001455,-522.8,-7332.4,4809.6,2521.4,863.1,2025-01-27 13:52:59,0.0
159.59999999999854,-662.8,-6476.4,3605.6,1204.4,-567.9,2025-01-27 13:52:59,0.0
-1320.4000000000015,-1006.8,-4972.4,3088.6,-68.6,-1229.9,2025-01-27 13:52:59,0.0
-1184.4000000000015,-374.79999999999995,-5900.4,3101.6,-93.6,-1384.9,2025-01-27 13:52:59,0.0
-1228.4000000000015,113.20000000000005,-4192.4,3594.6,636.4,-1392.9,2025-01-27 13:52:59,0.0
-824.4000000000015,217.20000000000005,-3492.3999999999996,4272.6,946.4,-1291.9,2025-01-27 13:52:59,0.0
-88.40000000000146,-2.7999999999999545,-2436.3999999999996,5009.6,1478.4,-895.9,2025-01-27 13:52:59,0.0
1571.5999999999985,133.20000000000005,-2644.3999999999996,5729.6,2196.4,406.1,2025-01-27 13:52:59,0.0
3095.5999999999985,-142.79999999999995,-4144.4,5610.6,3567.4,1247.1,2025-01-27 13:52:59,0.0
2671.5999999999985,-2110.8,-5920.4,4669.6,4669.4,3083.1,2025-01-27 13:52:59,0.0
3959.5999999999985,-5894.8,-7508.4,4127.6,4467.4,6407.1,2025-01-27 13:52:59,0.0
6959.5999999999985,-6378.8,-8332.4,4032.6,1664.4,7857.1,2025-01-27 13:52:59,0.0
9563.599999999999,-3974.8,-7856.4,3597.6,-875.6,5227.1,2025-01-27 13:52:59,0.0
6823.5999999999985,-614.8,-2948.3999999999996,1943.6,1666.4,3022.1,2025-01-27 13:53:00,0.0
5411.5999999999985,-290.79999999999995,143.60000000000036,3591.6,627.4,4787.1,2025-01-27 13:53:00,0.0
4187.5999999999985,-3910.8,-4036.3999999999996,2474.6,-2451.6,5647.1,2025-01-27 13:53:00,0.0
4487.5999999999985,-7218.8,-628.3999999999996,-1759.4,-6912.6,5941.1,2025-01-27 13:53:00,0.0
8003.5999999999985,-7738.8,2819.6000000000004,-2634.4,-9991.6,2552.1,2025-01-27 13:53:00,0.0
3411.5999999999985,-3446.8,2175.6000000000004,-4394.4,-10927.6,-1022.9,2025-01-27 13:53:00,0.0
-864.4000000000015,-934.8,5787.6,-6523.4,-11181.6,-1138.9,2025-01-27 13:53:00,0.0
-2812.4000000000015,2981.2,7055.6,-5019.4,-7521.6,-741.9,2025-01-27 13:53:00,0.0
-2472.4000000000015,6193.2,5471.6,-2270.4,-2246.6,-1062.9,2025-01-27 13:53:00,0.0
-136.40000000000146,6593.2,1411.6000000000004,96.60000000000002,3904.4,-2204.9,2025-01-27 13:53:00,0.0
2851.5999999999985,1573.2,-2180.3999999999996,1120.6,10187.4,-3882.9,2025-01-27 13:53:00,0.0
3159.5999999999985,-3266.8,-2436.3999999999996,797.6,11529.4,-5197.9,2025-01-27 13:53:00,0.0
2755.5999999999985,-5862.8,-3644.3999999999996,-394.4,8109.4,-5267.9,2025-01-27 13:53:00,0.0
2295.5999999999985,-4230.8,-3284.3999999999996,-2405.4,2860.4,-5404.9,2025-01-27 13:53:00,0.0
1123.5999999999985,-2014.8,-3644.3999999999996,-4076.4,-1599.6,-6438.9,2025-01-27 13:53:00,0.0
-2932.4000000000015,-102.79999999999995,-2220.3999999999996,-5325.4,-5801.6,-6623.9,2025-01-27 13:53:00,0.0
-5444.4000000000015,997.2,-1416.3999999999996,-5863.4,-9261.6,-5915.9,2025-01-27 13:53:00,0.0
-6188.4000000000015,2265.2,-2168.3999999999996,-5996.4,-11021.6,-5473.9,2025-01-27 13:53:00,0.0
-7612.4000000000015,3257.2,-2540.3999999999996,-6017.4,-7760.6,-5747.9,2025-01-27 13:53:00,0.0
-8768.400000000001,3445.2,-2140.3999999999996,-5901.4,1713.4,-3960.9,2025-01-27 13:53:00,0.0
-6432.4000000000015,2621.2,-2132.3999999999996,-4884.4,5387.4,-2936.9,2025-01-27 13:53:00,0.0
-3128.4000000000015,2197.2,-5732.4,-1193.4,-1156.6,1759.1,2025-01-27 13:53:00,0.0
-3416.4000000000015,1081.2,-5188.4,-750.4,-2022.6,3194.1,2025-01-27 13:53:00,0.0
-2740.4000000000015,577.2,-6392.4,-1799.4,-868.6,3457.1,2025-01-27 13:53:00,0.0
-428.40000000000146,297.20000000000005,-6532.4,-3666.4,502.4,2603.1,2025-01-27 13:53:00,0.0
987.5999999999985,277.20000000000005,-5896.4,-5015.4,1605.4,1832.1,2025-01-27 13:53:00,0.0
3967.5999999999985,-326.79999999999995,-6344.4,-5274.4,3331.4,1521.1,2025-01-27 13:53:00,0.0
8339.599999999999,-722.8,-7388.4,-6044.4,5600.4,309.1,2025-01-27 13:53:00,0.0
14007.599999999999,-870.8,-5344.4,-6076.4,8414.4,-4091.9,2025-01-27 13:53:00,0.0
10659.599999999999,1169.2,-3932.3999999999996,-4204.4,7887.4,-8086.9,2025-01-27 13:53:00,0.0
5823.5999999999985,3369.2,-5936.4,-3661.4,3613.4,-9185.9,2025-01-27 13:53:00,
