acceleration_x,acceleration_y,acceleration_z,gyroscope_x,gyroscope_y,gyroscope_z,timestamp,label
2476,-16664,1696,-228,311,-305,2025-01-29 11:10:47,0.0
2540,-16764,1652,-140,177,-251,2025-01-29 11:10:47,0.0
2516,-16860,1668,-189,196,-162,2025-01-29 11:10:47,0.0
2552,-16832,1560,-217,201,-62,2025-01-29 11:10:47,0.0
2632,-16712,1632,-245,252,11,2025-01-29 11:10:47,0.0
2664,-16600,1736,-164,274,-43,2025-01-29 11:10:47,0.0
2808,-16488,1696,-9,82,-123,2025-01-29 11:10:47,0.0
2700,-16428,1572,18,129,-253,2025-01-29 11:10:47,0.0
2792,-16592,1312,-175,147,-380,2025-01-29 11:10:47,0.0
2824,-16764,1408,-289,163,-521,2025-01-29 11:10:47,0.0
2556,-16836,1520,-352,435,-576,2025-01-29 11:10:48,0.0
2388,-16712,1576,-393,484,-455,2025-01-29 11:10:48,0.0
2272,-16700,1592,-325,260,-219,2025-01-29 11:10:48,0.0
2324,-16656,1684,-333,92,-51,2025-01-29 11:10:48,0.0
2488,-16600,1508,-395,123,76,2025-01-29 11:10:48,0.0
2616,-16756,1456,-539,60,174,2025-01-29 11:10:48,0.0
2736,-17004,1648,-556,119,199,2025-01-29 11:10:48,0.0
2836,-17036,1708,-494,139,132,2025-01-29 11:10:48,0.0
2872,-16972,1712,-469,173,32,2025-01-29 11:10:48,0.0
2828,-16684,1772,-293,180,-38,2025-01-29 11:10:48,0.0
2660,-16532,1832,-68,105,-122,2025-01-29 11:10:48,0.0
2628,-16584,1720,69,49,-103,2025-01-29 11:10:48,0.0
2540,-16520,1664,195,109,-29,2025-01-29 11:10:48,0.0
2428,-16588,1344,213,160,70,2025-01-29 11:10:48,0.0
2508,-16716,1432,105,128,181,2025-01-29 11:10:48,0.0
2584,-16668,1244,25,179,146,2025-01-29 11:10:48,0.0
2500,-16748,1140,-193,155,47,2025-01-29 11:10:48,0.0
2516,-16608,1212,-413,224,-10,2025-01-29 11:10:48,0.0
2704,-16648,1500,-476,129,-151,2025-01-29 11:10:48,0.0
2560,-16604,1356,-437,159,-209,2025-01-29 11:10:48,0.0
2580,-16648,1484,-394,136,-309,2025-01-29 11:10:48,0.0
2548,-16656,1444,-492,159,-336,2025-01-29 11:10:48,0.0
2556,-16724,1324,-507,245,-365,2025-01-29 11:10:48,0.0
2644,-16752,1368,-467,199,-387,2025-01-29 11:10:48,0.0
2532,-16660,1568,-418,286,-355,2025-01-29 11:10:48,0.0
2420,-16500,1688,-309,243,-273,2025-01-29 11:10:48,0.0
2428,-16596,1536,-140,157,-180,2025-01-29 11:10:48,0.0
2484,-16660,1520,-25,136,-104,2025-01-29 11:10:48,0.0
2416,-16744,1560,57,246,-68,2025-01-29 11:10:48,0.0
2616,-16768,1588,78,279,-16,2025-01-29 11:10:48,0.0
2608,-16720,1496,55,226,-28,2025-01-29 11:10:48,0.0
2564,-16768,1448,7,205,-34,2025-01-29 11:10:48,0.0
2664,-16620,1416,94,234,-95,2025-01-29 11:10:48,0.0
2696,-16672,1456,43,223,-127,2025-01-29 11:10:48,0.0
2604,-16728,1368,-58,133,-179,2025-01-29 11:10:48,0.0
2656,-16728,1456,-82,171,-263,2025-01-29 11:10:48,0.0
2628,-16680,1344,-81,187,-241,2025-01-29 11:10:48,0.0
2516,-16564,1404,-206,186,-204,2025-01-29 11:10:48,0.0
2472,-16584,1432,-234,166,-140,2025-01-29 11:10:48,0.0
2484,-16660,1560,-341,205,5,2025-01-29 11:10:48,0.0
2584,-16688,1512,-426,245,37,2025-01-29 11:10:48,0.0
2756,-16724,1500,-416,305,-75,2025-01-29 11:10:48,0.0
2632,-16716,1748,-226,216,-236,2025-01-29 11:10:48,0.0
2744,-16684,1784,-142,32,-389,2025-01-29 11:10:48,0.0
2736,-16656,1476,-61,-88,-447,2025-01-29 11:10:48,0.0
2680,-16620,1488,-35,125,-442,2025-01-29 11:10:48,0.0
2440,-16704,1584,9,160,-410,2025-01-29 11:10:48,0.0
2296,-16724,1524,106,329,-309,2025-01-29 11:10:48,0.0
2396,-16692,1680,171,287,-180,2025-01-29 11:10:48,0.0
2352,-16552,1332,253,158,-86,2025-01-29 11:10:48,0.0
2400,-16788,1220,221,87,27,2025-01-29 11:10:48,0.0
2480,-16836,1148,-59,56,84,2025-01-29 11:10:48,0.0
2764,-17004,1224,-351,130,77,2025-01-29 11:10:48,0.0
2660,-16884,1236,-427,258,2,2025-01-29 11:10:48,0.0
2792,-16808,1372,-409,220,-71,2025-01-29 11:10:48,0.0
2772,-16648,1616,-390,177,-199,2025-01-29 11:10:48,0.0
2840,-16568,1540,-351,69,-322,2025-01-29 11:10:48,0.0
2748,-16512,1624,-330,18,-472,2025-01-29 11:10:48,0.0
2648,-16624,1588,-275,166,-519,2025-01-29 11:10:48,0.0
2560,-16684,1608,-124,272,-511,2025-01-29 11:10:48,0.0
2336,-16656,1428,-179,297,-387,2025-01-29 11:10:48,0.0
2268,-16740,1484,-334,157,-265,2025-01-29 11:10:49,0.0
2328,-16708,1512,-405,125,-106,2025-01-29 11:10:49,0.0
2412,-16704,1544,-356,-57,-27,2025-01-29 11:10:49,0.0
2404,-16660,1612,-334,74,0,2025-01-29 11:10:49,0.0
2480,-16636,1572,-252,90,49,2025-01-29 11:10:49,0.0
2528,-16680,1700,-202,103,120,2025-01-29 11:10:49,0.0
2544,-16712,1556,-170,148,127,2025-01-29 11:10:49,0.0
2644,-16824,1564,-202,156,47,2025-01-29 11:10:49,0.0
2732,-16656,1628,-238,171,-169,2025-01-29 11:10:49,0.0
2760,-16580,1536,-110,195,-436,2025-01-29 11:10:49,0.0
2520,-16436,1604,43,137,-530,2025-01-29 11:10:49,0.0
2428,-16344,1600,220,-21,-530,2025-01-29 11:10:49,0.0
2448,-16232,1556,439,130,-542,2025-01-29 11:10:49,0.0
2516,-16504,1484,464,228,-498,2025-01-29 11:10:49,0.0
2460,-16580,1324,433,263,-451,2025-01-29 11:10:49,0.0
2208,-16676,1208,278,379,-296,2025-01-29 11:10:49,0.0
2316,-16784,1384,101,317,-122,2025-01-29 11:10:49,0.0
2408,-16884,1444,-20,306,-19,2025-01-29 11:10:49,0.0
2464,-16856,1372,-155,307,58,2025-01-29 11:10:49,0.0
2708,-16784,1500,-247,187,85,2025-01-29 11:10:49,0.0
2640,-16824,1552,-338,250,87,2025-01-29 11:10:49,0.0
2780,-16972,1704,-385,208,53,2025-01-29 11:10:49,0.0
2820,-16964,1480,-335,240,-77,2025-01-29 11:10:49,0.0
2704,-16984,1648,-292,199,-260,2025-01-29 11:10:49,0.0
2644,-16860,1876,-176,192,-338,2025-01-29 11:10:49,0.0
2680,-16740,1840,13,201,-431,2025-01-29 11:10:49,0.0
2728,-16436,1864,218,144,-500,2025-01-29 11:10:49,0.0
2604,-16424,1876,394,112,-465,2025-01-29 11:10:49,0.0
2520,-16492,1668,559,56,-402,2025-01-29 11:10:49,
2492,-16828,1248,565,147,-198,2025-01-29 11:10:49,0.0
2528,-16992,1232,352,178,-33,2025-01-29 11:10:49,0.0
2684,-16876,1260,9,276,-20,2025-01-29 11:10:49,0.0
2664,-16752,1272,-348,324,-30,2025-01-29 11:10:49,0.0
2628,-16564,1488,-462,323,-61,2025-01-29 11:10:49,0.0
2592,-16484,1656,-375,169,-67,2025-01-29 11:10:49,0.0
2696,-16520,1592,-346,110,-92,2025-01-29 11:10:49,0.0
2924,-16720,1684,-374,170,-184,2025-01-29 11:10:49,0.0
3056,-16896,1584,-562,121,-336,2025-01-29 11:10:49,0.0
2976,-16928,1588,-772,204,-631,2025-01-29 11:10:49,0.0
2976,-16672,1988,-770,187,-876,2025-01-29 11:10:49,0.0
2400,-16596,1880,-487,270,-875,2025-01-29 11:10:49,0.0
2244,-16532,1760,-262,77,-507,2025-01-29 11:10:49,0.0
2360,-16424,1864,12,-67,-58,2025-01-29 11:10:49,0.0
2512,-16584,1796,163,10,113,2025-01-29 11:10:49,0.0
2744,-16620,1652,225,-3,108,2025-01-29 11:10:49,0.0
2716,-16820,1520,261,108,59,2025-01-29 11:10:49,0.0
2664,-16764,1524,261,129,126,2025-01-29 11:10:49,0.0
2760,-16880,1540,220,-3,195,2025-01-29 11:10:49,0.0
2784,-16860,1404,63,33,159,2025-01-29 11:10:49,0.0
3048,-16700,1608,-27,-1,-57,2025-01-29 11:10:49,0.0
3236,-16668,1492,-183,-28,-547,2025-01-29 11:10:49,0.0
3076,-16960,1532,-272,-80,-873,2025-01-29 11:10:49,0.0
2948,-16872,1608,-334,-137,-1081,2025-01-29 11:10:49,0.0
2804,-16688,1688,-185,-41,-1052,2025-01-29 11:10:49,0.0
2560,-16384,1708,-39,-28,-790,2025-01-29 11:10:49,0.0
2560,-15680,1468,-343,233,-580,2025-01-29 11:10:49,0.0
2608,-14148,1660,-2216,415,-658,2025-01-29 11:10:49,0.0
2324,-9364,2396,-3995,2923,-353,2025-01-29 11:10:50,0.0
168,-668,2676,-3523,9859,-759,2025-01-29 11:10:50,0.0
3056,-52,2428,-2753,10028,-989,2025-01-29 11:10:50,0.0
3188,-120,2432,-2146,9531,-1309,2025-01-29 11:10:50,0.0
2500,-364,2292,-1948,8646,-1002,2025-01-29 11:10:50,0.0
2432,-288,2232,-1605,7867,-772,2025-01-29 11:10:50,0.0
2540,-324,1876,-1305,7176,-583,2025-01-29 11:10:50,0.0
2556,-300,1756,-1174,6828,-551,2025-01-29 11:10:50,0.0
2540,-424,1608,-1111,6703,-570,2025-01-29 11:10:50,0.0
2480,-332,1776,-1058,6514,-540,2025-01-29 11:10:50,0.0
2484,-404,1720,-983,6346,-508,2025-01-29 11:10:50,0.0
2504,-460,1676,-940,6087,-433,2025-01-29 11:10:50,0.0
2532,-488,1636,-983,5850,-362,2025-01-29 11:10:50,0.0
2548,-492,1568,-1064,5642,-306,2025-01-29 11:10:50,0.0
2596,-580,1708,-1214,5384,-256,2025-01-29 11:10:50,0.0
2564,-556,1532,-1390,5138,-226,2025-01-29 11:10:50,0.0
2672,-600,1656,-1569,4939,-179,2025-01-29 11:10:50,0.0
2564,-528,1560,-1740,4740,-175,2025-01-29 11:10:50,0.0
2612,-536,1528,-1913,4545,-187,2025-01-29 11:10:50,0.0
2640,-552,1612,-2118,4381,-205,2025-01-29 11:10:50,0.0
2564,-592,1512,-2349,4223,-253,2025-01-29 11:10:50,0.0
2612,-552,1512,-2569,4034,-318,2025-01-29 11:10:50,0.0
2608,-524,1424,-2809,3881,-366,2025-01-29 11:10:50,0.0
2696,-596,1508,-3019,3667,-409,2025-01-29 11:10:50,0.0
2684,-656,1500,-3243,3411,-535,2025-01-29 11:10:50,0.0
2644,-620,1424,-3507,3231,-577,2025-01-29 11:10:50,0.0
2736,-540,1388,-3739,3183,-566,2025-01-29 11:10:50,0.0
13616,-18660,2476,-3523,7840,32,2025-01-29 11:10:50,0.0
32767,-32768,-32768,-32768,8264,-32174,2025-01-29 11:10:50,0.0
31068,-32768,-32768,-32768,-6740,-32768,2025-01-29 11:10:50,0.0
14712,-32768,-7988,-32768,-4353,-32768,2025-01-29 11:10:50,0.0
4020,-26484,-7448,-32768,-11701,-32768,2025-01-29 11:10:50,0.0
1652,-14608,1028,-32768,-8700,-32768,2025-01-29 11:10:50,0.0
2768,-2160,14004,-32768,-9230,-30587,2025-01-29 11:10:50,0.0
1108,-4304,5060,-32768,-4706,-27853,2025-01-29 11:10:50,0.0
-456,-2976,4680,-32768,1335,-25394,2025-01-29 11:10:50,0.0
-584,-2548,760,-32768,8314,-23024,2025-01-29 11:10:50,0.0
-740,2540,6816,-32768,16168,-20830,2025-01-29 11:10:50,0.0
2044,5064,6516,-17304,18287,-17420,2025-01-29 11:10:50,0.0
3304,5456,4696,2540,16533,-13404,2025-01-29 11:10:50,0.0
3940,5956,492,12537,14438,-11436,2025-01-29 11:10:50,0.0
3832,7264,-6916,16590,16084,-8780,2025-01-29 11:10:50,0.0
3236,9364,-9252,16010,19135,-5053,2025-01-29 11:10:50,0.0
4408,11680,-15448,14463,23727,1200,2025-01-29 11:10:50,0.0
11152,11632,-21144,10544,28020,5645,2025-01-29 11:10:50,0.0
24356,10944,-25144,1549,28073,2272,2025-01-29 11:10:50,0.0
27856,8060,-22444,-4457,25304,-3647,2025-01-29 11:10:50,0.0
23452,4280,-13468,-4426,22744,-4493,2025-01-29 11:10:50,0.0
22608,1056,-7252,-1392,16003,-2919,2025-01-29 11:10:50,0.0
19128,300,-6076,1434,11781,-443,2025-01-29 11:10:50,0.0
16764,-700,-3260,2879,7978,1423,2025-01-29 11:10:50,0.0
18584,-1256,-4140,2805,6093,663,2025-01-29 11:10:50,0.0
17828,-1236,-5396,878,2840,-517,2025-01-29 11:10:50,0.0
15972,-964,-4492,-648,-1036,-442,2025-01-29 11:10:50,0.0
15940,276,-5344,-699,-4391,-608,2025-01-29 11:10:50,0.0
16480,616,-7508,-585,-5905,-501,2025-01-29 11:10:50,0.0
16116,792,-9164,-332,-5108,-532,2025-01-29 11:10:50,0.0
15716,612,-10224,-219,-3420,-219,2025-01-29 11:10:50,0.0
15296,588,-9396,-83,-1292,-38,2025-01-29 11:10:50,0.0
15224,284,-9096,-76,179,-91,2025-01-29 11:10:50,0.0
15316,172,-8080,-53,952,-26,2025-01-29 11:10:50,0.0
15992,164,-7936,-287,895,-285,2025-01-29 11:10:50,0.0
16124,520,-7908,-210,365,-228,2025-01-29 11:10:51,0.0
15996,384,-7940,-162,51,-186,2025-01-29 11:10:51,0.0
15972,296,-8036,-189,2,-185,2025-01-29 11:10:51,0.0
15844,388,-8164,-143,17,-153,2025-01-29 11:10:51,0.0
15756,484,-8236,-169,52,-179,2025-01-29 11:10:51,0.0
15752,332,-8212,-171,223,-231,2025-01-29 11:10:51,0.0
15884,452,-7988,-162,323,-225,2025-01-29 11:10:51,0.0
16020,380,-7972,-201,198,-176,2025-01-29 11:10:51,0.0
15836,364,-7828,-155,47,-191,2025-01-29 11:10:51,0.0
15868,336,-8200,-169,136,-221,2025-01-29 11:10:51,
15844,368,-8056,-161,217,-189,2025-01-29 11:10:51,0.0
15816,376,-8112,-167,193,-166,2025-01-29 11:10:51,0.0
15832,320,-8004,-139,156,-200,2025-01-29 11:10:51,0.0
15836,444,-8028,-193,155,-193,2025-01-29 11:10:51,0.0
15652,432,-8164,-148,127,-175,2025-01-29 11:10:51,0.0
15816,336,-8112,-173,175,-191,2025-01-29 11:10:51,0.0
15816,396,-8076,-168,169,-219,2025-01-29 11:10:51,0.0
15756,420,-8068,-168,156,-200,2025-01-29 11:10:51,0.0
15876,456,-8096,-152,173,-203,2025-01-29 11:10:51,0.0
15832,320,-8184,-163,178,-197,2025-01-29 11:10:51,0.0
15840,356,-8088,-138,162,-182,2025-01-29 11:10:51,0.0
15752,388,-8040,-171,161,-190,2025-01-29 11:10:51,0.0
15812,332,-8136,-175,174,-168,2025-01-29 11:10:51,0.0
15896,420,-8128,-181,175,-192,2025-01-29 11:10:51,0.0
15848,376,-7992,-151,170,-194,2025-01-29 11:10:51,0.0
15780,352,-8044,-167,165,-201,2025-01-29 11:10:51,0.0
15900,432,-8028,-151,148,-190,2025-01-29 11:10:51,0.0
15752,324,-8096,-158,171,-202,2025-01-29 11:10:51,0.0
15832,404,-8048,-149,148,-177,2025-01-29 11:10:51,0.0
15796,340,-8100,-163,139,-187,2025-01-29 11:10:51,0.0
15788,388,-8004,-146,160,-170,2025-01-29 11:10:51,0.0
15812,464,-8128,-148,163,-188,2025-01-29 11:10:51,0.0
15812,364,-8260,-166,183,-185,2025-01-29 11:10:51,0.0
15836,260,-8072,-151,145,-180,2025-01-29 11:10:51,0.0
15852,352,-7984,-120,175,-172,2025-01-29 11:10:51,0.0
15828,420,-8096,-132,160,-177,2025-01-29 11:10:51,0.0
15808,384,-8176,-161,172,-171,2025-01-29 11:10:51,0.0
15908,344,-8044,-184,174,-178,2025-01-29 11:10:51,0.0
15940,384,-7972,-163,154,-188,2025-01-29 11:10:51,0.0
15804,396,-8088,-175,156,-183,2025-01-29 11:10:51,0.0
15844,344,-8084,-181,148,-158,2025-01-29 11:10:51,0.0
15984,308,-8120,-176,150,-191,2025-01-29 11:10:51,0.0
15756,412,-8144,-166,140,-183,2025-01-29 11:10:51,0.0
15900,408,-7928,-186,150,-195,2025-01-29 11:10:51,0.0
15808,404,-8112,-173,154,-178,2025-01-29 11:10:51,0.0
15856,428,-8024,-178,167,-201,2025-01-29 11:10:51,0.0
15884,344,-8016,-155,175,-190,2025-01-29 11:10:51,0.0
15820,336,-8200,-145,164,-169,2025-01-29 11:10:51,0.0
15796,364,-8124,-159,177,-176,2025-01-29 11:10:51,0.0
15824,472,-7988,-172,193,-181,2025-01-29 11:10:51,0.0
15848,480,-8096,-194,147,-184,2025-01-29 11:10:51,0.0
15800,452,-8000,-156,180,-185,2025-01-29 11:10:51,0.0
15780,360,-8052,-163,169,-199,2025-01-29 11:10:51,0.0
15820,412,-8052,-151,182,-182,2025-01-29 11:10:51,0.0
15892,340,-7992,-171,175,-210,2025-01-29 11:10:51,0.0
15840,424,-8056,-152,159,-179,2025-01-29 11:10:51,0.0
15776,404,-8040,-168,165,-179,2025-01-29 11:10:51,0.0
15848,336,-8016,-173,187,-190,2025-01-29 11:10:51,0.0
15812,388,-8096,-172,169,-179,2025-01-29 11:10:51,0.0
15840,412,-8092,-155,174,-181,2025-01-29 11:10:51,0.0
15804,380,-8236,-174,180,-183,2025-01-29 11:10:51,0.0
15836,416,-8084,-140,150,-193,2025-01-29 11:10:51,0.0
15744,432,-8220,-157,157,-170,2025-01-29 11:10:51,0.0
15824,292,-8020,-163,174,-184,2025-01-29 11:10:51,0.0
15776,300,-8012,-159,155,-180,2025-01-29 11:10:52,0.0
15776,352,-8104,-186,176,-188,2025-01-29 11:10:52,0.0
15780,476,-8080,-171,153,-204,2025-01-29 11:10:52,0.0
15848,352,-8120,-182,167,-187,2025-01-29 11:10:52,0.0
15836,496,-8144,-160,168,-187,2025-01-29 11:10:52,0.0
15840,336,-8064,-168,184,-190,2025-01-29 11:10:52,0.0
15832,372,-8168,-171,179,-169,2025-01-29 11:10:52,0.0
15808,424,-8068,-149,157,-175,2025-01-29 11:10:52,0.0
15836,328,-8116,-171,157,-179,2025-01-29 11:10:52,0.0
15852,408,-8076,-167,184,-171,2025-01-29 11:10:52,0.0
15852,356,-8060,-165,177,-188,2025-01-29 11:10:52,0.0
15764,372,-8116,-179,161,-184,2025-01-29 11:10:52,0.0
15804,360,-7864,-177,163,-193,2025-01-29 11:10:52,0.0
15864,428,-7972,-144,160,-178,2025-01-29 11:10:52,0.0
15728,432,-8028,-168,152,-158,2025-01-29 11:10:52,0.0
15880,420,-8092,-169,171,-187,2025-01-29 11:10:52,0.0
15832,424,-8160,-189,182,-182,2025-01-29 11:10:52,0.0
15928,308,-8040,-138,174,-183,2025-01-29 11:10:52,0.0
15912,432,-8104,-179,170,-153,2025-01-29 11:10:52,0.0
15936,384,-8068,-161,176,-180,2025-01-29 11:10:52,0.0
15704,432,-8244,-150,153,-171,2025-01-29 11:10:52,0.0
15920,256,-7976,-183,167,-171,2025-01-29 11:10:52,0.0
15744,484,-8176,-170,162,-179,2025-01-29 11:10:52,0.0
15848,360,-8148,-154,156,-183,2025-01-29 11:10:52,0.0
15900,416,-7908,-170,182,-186,2025-01-29 11:10:52,0.0
15896,448,-8268,-163,156,-172,2025-01-29 11:10:52,0.0
15800,344,-8004,-150,174,-171,2025-01-29 11:10:52,0.0
15852,364,-8076,-178,145,-194,2025-01-29 11:10:52,0.0
15796,460,-7948,-159,163,-175,2025-01-29 11:10:52,0.0
15824,492,-8168,-174,178,-165,2025-01-29 11:10:52,0.0
15796,496,-8232,-156,176,-169,2025-01-29 11:10:52,0.0
15848,460,-8108,-145,179,-193,2025-01-29 11:10:52,0.0
15920,380,-8192,-158,164,-173,2025-01-29 11:10:52,0.0
15792,352,-8128,-156,159,-174,2025-01-29 11:10:52,0.0
15840,440,-8092,-165,178,-183,2025-01-29 11:10:52,0.0
15796,452,-7980,-149,163,-161,2025-01-29 11:10:52,0.0
15852,440,-8128,-179,164,-151,2025-01-29 11:10:52,0.0
15868,392,-8220,-141,185,-182,2025-01-29 11:10:52,0.0
15784,364,-8048,-177,160,-187,2025-01-29 11:10:52,0.0
15848,476,-8108,-173,193,-172,2025-01-29 11:10:52,0.0
15852,384,-8096,-178,139,-181,2025-01-29 11:10:52,0.0
15928,424,-8120,-160,183,-166,2025-01-29 11:10:52,0.0
15804,452,-8088,-141,203,-183,2025-01-29 11:10:52,0.0
15716,384,-8016,-148,146,-169,2025-01-29 11:10:52,0.0
15768,368,-8052,-170,165,-172,2025-01-29 11:10:52,0.0
15848,428,-8044,-173,180,-196,2025-01-29 11:10:52,
