acceleration_x,acceleration_y,acceleration_z,gyroscope_x,gyroscope_y,gyroscope_z,timestamp,label
2008,-244,18264,-60,600,-444,2025-01-29 11:09:43,0.0
1912,-312,18348,-188,586,-516,2025-01-29 11:09:43,0.0
1776,-272,18472,-268,216,-413,2025-01-29 11:09:44,0.0
1616,-168,18612,-365,-133,-288,2025-01-29 11:09:44,0.0
1716,-140,18684,-413,-208,-173,2025-01-29 11:09:44,0.0
1816,-180,18880,-359,-191,-127,2025-01-29 11:09:44,0.0
1860,-232,18892,-237,-131,-113,2025-01-29 11:09:44,0.0
1928,-112,18676,-97,-45,-108,2025-01-29 11:09:44,0.0
1892,-344,18396,-9,0,-90,2025-01-29 11:09:44,0.0
1828,-280,18352,-85,-76,-91,2025-01-29 11:09:44,0.0
1828,-136,18192,-248,110,-48,2025-01-29 11:09:44,0.0
1832,-84,18432,-353,318,-12,2025-01-29 11:09:44,0.0
1932,-224,18480,-338,589,16,2025-01-29 11:09:44,0.0
1976,-312,18764,-249,752,-39,2025-01-29 11:09:44,0.0
2084,-232,18840,-189,789,-91,2025-01-29 11:09:44,0.0
1980,-88,18632,-80,628,-168,2025-01-29 11:09:44,0.0
1888,-60,18468,-47,410,-178,2025-01-29 11:09:44,0.0
1908,-292,18400,-39,112,-199,2025-01-29 11:09:44,0.0
1940,-216,18508,-111,-124,-247,2025-01-29 11:09:44,0.0
1756,-240,18696,-160,-94,-215,2025-01-29 11:09:44,0.0
1840,-76,18596,-243,-122,-197,2025-01-29 11:09:44,0.0
1904,-76,18708,-193,-284,-117,2025-01-29 11:09:44,0.0
1904,-232,18952,-129,-211,-120,2025-01-29 11:09:44,0.0
2036,-300,18664,-24,-116,-135,2025-01-29 11:09:44,0.0
2072,-336,18436,-5,17,-164,2025-01-29 11:09:44,0.0
2132,-260,18352,-60,85,-205,2025-01-29 11:09:44,0.0
2088,-196,18328,-90,347,-245,2025-01-29 11:09:44,0.0
1916,-172,18312,-200,732,-304,2025-01-29 11:09:44,0.0
1736,-172,18344,-284,573,-270,2025-01-29 11:09:44,0.0
1664,-104,18600,-307,26,-118,2025-01-29 11:09:44,0.0
1904,-4,18600,-197,-220,-74,2025-01-29 11:09:44,0.0
2244,-52,18524,0,-40,-94,2025-01-29 11:09:44,0.0
2168,-176,18564,123,776,-248,2025-01-29 11:09:44,0.0
1956,-232,18428,138,1038,-427,2025-01-29 11:09:44,0.0
1588,-304,18484,52,675,-449,2025-01-29 11:09:44,0.0
1460,-8,18568,-27,-179,-287,2025-01-29 11:09:44,0.0
1744,-120,18652,-98,-713,-175,2025-01-29 11:09:44,0.0
2000,-196,18416,-181,-786,-191,2025-01-29 11:09:44,0.0
2164,-328,18624,-267,-576,-379,2025-01-29 11:09:44,0.0
1936,-252,18696,-357,-371,-497,2025-01-29 11:09:44,0.0
1700,-228,18648,-338,-166,-434,2025-01-29 11:09:44,0.0
1664,-160,18840,-261,-28,-261,2025-01-29 11:09:44,0.0
1844,-208,18832,-102,73,-70,2025-01-29 11:09:44,0.0
2220,-208,18776,28,-2,16,2025-01-29 11:09:44,0.0
2284,-240,18808,99,120,-61,2025-01-29 11:09:44,0.0
2328,-252,18568,63,365,-294,2025-01-29 11:09:44,0.0
2004,-232,18228,31,635,-387,2025-01-29 11:09:44,0.0
1964,-236,18404,-126,716,-414,2025-01-29 11:09:44,0.0
1896,-236,18348,-266,627,-358,2025-01-29 11:09:44,0.0
1916,-164,18680,-311,407,-329,2025-01-29 11:09:44,0.0
1896,-124,18696,-246,109,-311,2025-01-29 11:09:44,0.0
1828,-52,18724,-126,-12,-224,2025-01-29 11:09:44,0.0
1980,-64,18756,-69,-246,-141,2025-01-29 11:09:44,0.0
2184,-200,18656,-69,-610,-131,2025-01-29 11:09:44,0.0
2224,-216,18476,-181,-569,-267,2025-01-29 11:09:44,0.0
2104,-264,18412,-240,-418,-339,2025-01-29 11:09:44,0.0
2052,-80,18536,-296,-319,-326,2025-01-29 11:09:44,0.0
1992,-92,18380,-271,-94,-264,2025-01-29 11:09:44,0.0
2144,-8,18640,-210,158,-240,2025-01-29 11:09:44,0.0
2088,-132,18532,-152,242,-193,2025-01-29 11:09:44,0.0
2152,-252,18688,-162,466,-274,2025-01-29 11:09:44,0.0
2084,-104,18572,-124,594,-310,2025-01-29 11:09:44,0.0
1892,-108,18372,-83,616,-267,2025-01-29 11:09:44,0.0
1772,-196,18552,-187,265,-121,2025-01-29 11:09:45,0.0
1812,-156,18564,-257,26,-17,2025-01-29 11:09:45,0.0
2112,-56,18492,-223,240,5,2025-01-29 11:09:45,0.0
2204,-104,18704,-62,628,-131,2025-01-29 11:09:45,0.0
2164,-304,18724,57,660,-302,2025-01-29 11:09:45,0.0
1928,-220,18620,34,552,-383,2025-01-29 11:09:45,0.0
1756,-320,18636,-117,359,-404,2025-01-29 11:09:45,0.0
1812,-44,18500,-447,-247,-260,2025-01-29 11:09:45,0.0
1928,-88,18560,-603,-446,-137,2025-01-29 11:09:45,0.0
2064,-156,18768,-665,-516,-83,2025-01-29 11:09:45,0.0
2168,-268,18664,-656,-710,-18,2025-01-29 11:09:45,0.0
2152,-132,18776,-558,-1063,10,2025-01-29 11:09:45,0.0
2436,-340,18828,-362,-1187,-89,2025-01-29 11:09:45,0.0
2436,-284,18476,-117,-440,-322,2025-01-29 11:09:45,0.0
2312,-376,18328,-35,264,-434,2025-01-29 11:09:45,0.0
2156,-204,18216,-28,567,-419,2025-01-29 11:09:45,0.0
2060,-200,18312,-168,601,-376,2025-01-29 11:09:45,0.0
1980,-236,18052,-268,399,-253,2025-01-29 11:09:45,0.0
1920,-300,18184,-324,327,-143,2025-01-29 11:09:45,0.0
2112,-164,18624,-178,427,-56,2025-01-29 11:09:45,0.0
2284,-212,18728,20,457,-86,2025-01-29 11:09:45,0.0
2144,-68,19052,152,618,-105,2025-01-29 11:09:45,0.0
2000,-124,18880,120,347,11,2025-01-29 11:09:45,0.0
1904,-156,18556,9,-83,66,2025-01-29 11:09:45,0.0
2120,-88,18396,-181,-367,123,2025-01-29 11:09:45,0.0
2256,-180,18312,-382,-400,130,2025-01-29 11:09:45,0.0
2444,-128,18316,-562,-2,44,2025-01-29 11:09:45,0.0
2364,-248,18520,-564,375,-32,2025-01-29 11:09:45,0.0
2312,-60,18856,-564,593,-94,2025-01-29 11:09:45,0.0
2264,-284,18776,-444,672,-191,2025-01-29 11:09:45,0.0
2168,-368,18688,-230,705,-315,2025-01-29 11:09:45,0.0
2060,-412,18596,-63,628,-354,2025-01-29 11:09:45,0.0
1868,-320,18628,59,273,-286,2025-01-29 11:09:45,0.0
1704,-252,18608,78,-33,-116,2025-01-29 11:09:45,0.0
2116,-212,18712,-32,9,-94,2025-01-29 11:09:45,0.0
2024,-220,18600,-176,395,-184,2025-01-29 11:09:45,0.0
2016,-340,18680,-368,449,-214,2025-01-29 11:09:45,
2028,-464,18352,-469,396,-267,2025-01-29 11:09:45,0.0
2084,-356,18396,-475,106,-117,2025-01-29 11:09:45,0.0
2200,-216,18496,-378,-183,-24,2025-01-29 11:09:45,0.0
2364,-200,18488,-235,-186,-131,2025-01-29 11:09:45,0.0
2260,-260,18392,-140,314,-252,2025-01-29 11:09:45,0.0
1896,-124,18532,-155,638,-106,2025-01-29 11:09:45,0.0
1560,-56,18636,-234,310,161,2025-01-29 11:09:45,0.0
1968,-192,18608,-417,-200,349,2025-01-29 11:09:45,0.0
2304,-448,18708,-519,-492,274,2025-01-29 11:09:45,0.0
2416,-476,18592,-509,-496,64,2025-01-29 11:09:45,0.0
2452,-372,18628,-423,-150,-96,2025-01-29 11:09:45,0.0
2404,-284,18560,-244,270,-200,2025-01-29 11:09:45,0.0
2148,-460,18528,-141,431,-312,2025-01-29 11:09:45,0.0
1984,-508,18528,-142,330,-256,2025-01-29 11:09:45,0.0
1924,-548,18580,-146,101,-130,2025-01-29 11:09:45,0.0
1876,-520,18640,-163,35,-12,2025-01-29 11:09:45,0.0
2068,-528,18624,-271,107,-30,2025-01-29 11:09:45,0.0
2000,-324,18764,-322,37,38,2025-01-29 11:09:45,0.0
2036,-396,18960,-309,-356,244,2025-01-29 11:09:45,0.0
2140,-480,18712,-141,-1014,439,2025-01-29 11:09:45,0.0
3296,-96,17256,130,-1268,-40,2025-01-29 11:09:45,0.0
4420,-1568,10608,-913,-1237,-1624,2025-01-29 11:09:45,0.0
2204,-1104,2776,-3459,-2479,-3050,2025-01-29 11:09:46,0.0
2428,-236,1440,-2727,-2060,-2906,2025-01-29 11:09:46,0.0
2480,-236,1720,-2718,-2026,-2848,2025-01-29 11:09:46,0.0
2584,-384,1844,-2822,-1838,-2880,2025-01-29 11:09:46,0.0
2596,-220,2072,-2808,-1819,-2796,2025-01-29 11:09:46,0.0
2508,-308,2152,-2548,-1686,-2795,2025-01-29 11:09:46,0.0
2536,-328,1924,-2452,-1551,-2729,2025-01-29 11:09:46,0.0
2432,-324,1924,-2421,-1322,-2697,2025-01-29 11:09:46,0.0
2396,-396,1796,-2564,-1022,-2640,2025-01-29 11:09:46,0.0
2548,-384,1856,-2779,-542,-2557,2025-01-29 11:09:46,0.0
2500,-340,1908,-2904,-162,-2553,2025-01-29 11:09:46,0.0
2592,-356,1968,-2941,200,-2564,2025-01-29 11:09:46,0.0
2492,-376,2168,-2992,426,-2543,2025-01-29 11:09:46,0.0
2508,-416,1884,-3062,463,-2434,2025-01-29 11:09:46,0.0
2360,-372,2024,-3111,559,-2311,2025-01-29 11:09:46,0.0
2444,-376,2100,-3154,635,-2205,2025-01-29 11:09:46,0.0
2456,-304,2128,-3171,761,-2155,2025-01-29 11:09:46,0.0
2532,-308,2020,-3111,912,-2128,2025-01-29 11:09:46,0.0
2544,-316,2240,-3068,1132,-2129,2025-01-29 11:09:46,0.0
2540,-364,2052,-2971,1327,-2192,2025-01-29 11:09:46,0.0
2556,-380,2236,-2852,1563,-2296,2025-01-29 11:09:46,0.0
2528,-324,2148,-2702,1855,-2383,2025-01-29 11:09:46,0.0
2516,-312,2444,-2568,2208,-2405,2025-01-29 11:09:46,0.0
2220,-380,2276,-2657,2563,-2278,2025-01-29 11:09:46,0.0
1432,-412,2656,-2696,2993,-1863,2025-01-29 11:09:46,0.0
3044,-216,2344,-2992,3049,-1891,2025-01-29 11:09:46,0.0
32767,32767,32767,22559,-32768,1750,2025-01-29 11:09:46,0.0
9184,-32768,32767,32767,4930,-2248,2025-01-29 11:09:46,0.0
-11036,-4488,32767,3784,-32768,-4346,2025-01-29 11:09:46,0.0
3432,1508,32767,-12504,-14524,-12059,2025-01-29 11:09:46,0.0
3192,-2312,27680,-12789,-12688,-15074,2025-01-29 11:09:46,0.0
1516,-3764,15884,-10688,-8816,-15822,2025-01-29 11:09:46,0.0
3408,-1220,8720,-8595,-8690,-15299,2025-01-29 11:09:46,0.0
4332,-1064,5284,-7125,-11917,-15015,2025-01-29 11:09:46,0.0
4760,-1320,4432,-6571,-16350,-15078,2025-01-29 11:09:46,0.0
5916,-1592,4580,-5923,-21368,-15665,2025-01-29 11:09:46,0.0
7952,-1736,4960,-4922,-28115,-17564,2025-01-29 11:09:46,0.0
8556,-2060,6756,-3652,-32768,-20244,2025-01-29 11:09:46,0.0
8348,-2328,8788,-1221,-32768,-22842,2025-01-29 11:09:46,0.0
9336,-2804,9696,1723,-30443,-26156,2025-01-29 11:09:46,0.0
10756,-3136,11216,5254,-25190,-30066,2025-01-29 11:09:46,0.0
9276,-3448,12440,9279,-16753,-32360,2025-01-29 11:09:46,0.0
10412,-2580,13816,14222,-5132,-30047,2025-01-29 11:09:46,0.0
12752,896,15064,19026,3549,-25237,2025-01-29 11:09:46,0.0
14588,4732,17772,21931,5611,-19574,2025-01-29 11:09:46,0.0
17960,6968,17708,24524,2443,-14489,2025-01-29 11:09:46,0.0
15300,7728,13500,20698,3414,-9294,2025-01-29 11:09:46,0.0
14060,11436,14428,11685,5374,-6217,2025-01-29 11:09:46,0.0
12560,12940,14932,4031,6406,-3355,2025-01-29 11:09:46,0.0
10584,12224,15552,258,3927,-1493,2025-01-29 11:09:46,0.0
9024,7976,14284,-1890,1832,334,2025-01-29 11:09:46,0.0
9808,5304,13792,-2582,-86,1111,2025-01-29 11:09:46,0.0
10628,4068,14460,-1815,-1340,1201,2025-01-29 11:09:46,0.0
11932,3896,14504,-309,-1122,463,2025-01-29 11:09:46,0.0
12304,4908,14260,488,-281,-439,2025-01-29 11:09:46,0.0
11952,6188,14064,568,246,-460,2025-01-29 11:09:46,0.0
11456,6172,14036,21,265,-264,2025-01-29 11:09:46,0.0
11636,5740,14392,-180,-35,-117,2025-01-29 11:09:46,0.0
11724,5724,14456,-153,7,-112,2025-01-29 11:09:46,0.0
11784,5772,14120,-118,155,-187,2025-01-29 11:09:46,0.0
11552,5716,14280,-161,200,-187,2025-01-29 11:09:46,0.0
11516,5764,14328,-95,154,-182,2025-01-29 11:09:46,0.0
11500,5832,14408,-87,79,-195,2025-01-29 11:09:46,0.0
11668,5812,14396,-115,93,-163,2025-01-29 11:09:47,0.0
11672,5756,14304,-106,163,-179,2025-01-29 11:09:47,0.0
11596,5760,14248,-149,172,-188,2025-01-29 11:09:47,0.0
11588,5812,14328,-115,130,-183,2025-01-29 11:09:47,0.0
11676,5728,14220,-134,115,-166,2025-01-29 11:09:47,0.0
11636,5596,14332,-150,125,-174,2025-01-29 11:09:47,0.0
11620,5804,14196,-102,134,-168,2025-01-29 11:09:47,0.0
11612,5768,14268,-134,120,-191,2025-01-29 11:09:47,0.0
11688,5764,14320,-152,119,-180,2025-01-29 11:09:47,0.0
11600,5812,14284,-97,137,-179,2025-01-29 11:09:47,0.0
11664,5812,14232,-124,145,-193,2025-01-29 11:09:47,0.0
11640,5708,14348,-149,188,-182,2025-01-29 11:09:47,0.0
11576,5776,14192,-151,169,-162,2025-01-29 11:09:47,0.0
11660,5808,14396,-123,154,-186,2025-01-29 11:09:47,0.0
11704,5796,14396,-148,143,-204,2025-01-29 11:09:47,
11736,5800,14292,-142,153,-170,2025-01-29 11:09:47,0.0
11688,5760,14288,-121,142,-173,2025-01-29 11:09:47,0.0
11720,5836,14356,-130,126,-195,2025-01-29 11:09:47,0.0
11608,5816,14276,-133,125,-185,2025-01-29 11:09:47,0.0
11656,5744,14276,-154,155,-181,2025-01-29 11:09:47,0.0
11716,5688,14260,-162,131,-180,2025-01-29 11:09:47,0.0
11560,5864,14304,-134,144,-183,2025-01-29 11:09:47,0.0
11688,5808,14272,-142,152,-182,2025-01-29 11:09:47,0.0
11648,5800,14324,-150,160,-174,2025-01-29 11:09:47,0.0
11556,5820,14292,-148,157,-178,2025-01-29 11:09:47,0.0
11536,5804,14132,-138,137,-177,2025-01-29 11:09:47,0.0
11612,5840,14328,-158,161,-173,2025-01-29 11:09:47,0.0
11620,5812,14276,-144,148,-189,2025-01-29 11:09:47,0.0
11664,5800,14300,-146,153,-166,2025-01-29 11:09:47,0.0
11544,5820,14372,-139,131,-161,2025-01-29 11:09:47,0.0
11576,5828,14264,-147,156,-174,2025-01-29 11:09:47,0.0
11732,5736,14400,-153,158,-188,2025-01-29 11:09:47,0.0
11612,5888,14352,-152,179,-162,2025-01-29 11:09:47,0.0
11592,5800,14324,-138,144,-200,2025-01-29 11:09:47,0.0
11772,5824,14360,-141,144,-159,2025-01-29 11:09:47,0.0
11704,5752,14348,-144,159,-151,2025-01-29 11:09:47,0.0
11744,5812,14300,-135,160,-183,2025-01-29 11:09:47,0.0
11724,5860,14436,-147,179,-167,2025-01-29 11:09:47,0.0
11632,5772,14328,-142,139,-178,2025-01-29 11:09:47,0.0
11744,5720,14356,-168,145,-182,2025-01-29 11:09:47,0.0
11668,5752,14340,-136,161,-175,2025-01-29 11:09:47,0.0
11720,5656,14416,-167,130,-177,2025-01-29 11:09:47,0.0
11708,5848,14288,-164,148,-172,2025-01-29 11:09:47,0.0
11676,5848,14336,-143,150,-172,2025-01-29 11:09:47,0.0
11596,5772,14288,-152,146,-184,2025-01-29 11:09:47,0.0
11672,5744,14404,-159,153,-186,2025-01-29 11:09:47,0.0
11648,5752,14448,-145,143,-159,2025-01-29 11:09:47,0.0
11716,5796,14372,-161,136,-186,2025-01-29 11:09:47,0.0
11612,5752,14252,-170,147,-181,2025-01-29 11:09:47,0.0
11668,5764,14172,-156,136,-155,2025-01-29 11:09:47,0.0
11560,5728,14248,-158,152,-178,2025-01-29 11:09:47,0.0
11624,5884,14292,-163,142,-155,2025-01-29 11:09:47,0.0
11636,5788,14304,-132,149,-178,2025-01-29 11:09:47,0.0
11676,5796,14324,-136,144,-184,2025-01-29 11:09:47,0.0
11684,5764,14192,-131,151,-166,2025-01-29 11:09:47,0.0
11664,5804,14324,-158,174,-188,2025-01-29 11:09:47,0.0
11732,5808,14292,-141,144,-179,2025-01-29 11:09:47,0.0
11664,5968,14196,-136,143,-170,2025-01-29 11:09:47,0.0
11612,5876,14216,-162,145,-185,2025-01-29 11:09:48,0.0
11656,5796,14308,-132,151,-180,2025-01-29 11:09:48,0.0
11572,5768,14336,-122,144,-163,2025-01-29 11:09:48,0.0
11764,5852,14320,-147,166,-168,2025-01-29 11:09:48,0.0
11616,5752,14312,-161,168,-174,2025-01-29 11:09:48,0.0
11592,5740,14356,-166,158,-169,2025-01-29 11:09:48,0.0
11596,5892,14272,-141,145,-191,2025-01-29 11:09:48,0.0
11708,5804,14288,-147,159,-195,2025-01-29 11:09:48,0.0
11672,5796,14320,-170,146,-184,2025-01-29 11:09:48,0.0
11604,5848,14252,-127,125,-173,2025-01-29 11:09:48,0.0
11692,5756,14252,-136,157,-175,2025-01-29 11:09:48,0.0
11644,5784,14220,-153,141,-167,2025-01-29 11:09:48,0.0
11668,5852,14344,-139,164,-166,2025-01-29 11:09:48,0.0
11632,5824,14248,-152,153,-176,2025-01-29 11:09:48,0.0
11664,5844,14272,-149,158,-181,2025-01-29 11:09:48,0.0
11644,5828,14268,-134,162,-183,2025-01-29 11:09:48,0.0
11684,5832,14168,-150,158,-165,2025-01-29 11:09:48,0.0
11652,5820,14340,-175,149,-176,2025-01-29 11:09:48,0.0
11768,5812,14272,-163,150,-184,2025-01-29 11:09:48,0.0
11728,5788,14236,-157,173,-178,2025-01-29 11:09:48,0.0
11612,5740,14276,-160,180,-157,2025-01-29 11:09:48,0.0
11584,5720,14248,-158,134,-180,2025-01-29 11:09:48,0.0
11696,5788,14176,-163,141,-182,2025-01-29 11:09:48,0.0
11596,5832,14344,-141,151,-179,2025-01-29 11:09:48,0.0
11592,5780,14284,-142,160,-179,2025-01-29 11:09:48,0.0
11708,5872,14336,-157,171,-172,2025-01-29 11:09:48,0.0
11756,5732,14200,-135,184,-173,2025-01-29 11:09:48,0.0
11560,5820,14244,-154,160,-176,2025-01-29 11:09:48,0.0
11636,5856,14152,-167,154,-181,2025-01-29 11:09:48,0.0
11636,5796,14312,-152,133,-175,2025-01-29 11:09:48,0.0
11632,5764,14280,-145,178,-181,2025-01-29 11:09:48,0.0
11616,5872,14184,-160,163,-181,2025-01-29 11:09:48,0.0
11680,5876,14240,-148,146,-190,2025-01-29 11:09:48,0.0
11716,5928,14268,-118,158,-157,2025-01-29 11:09:48,0.0
11664,5796,14416,-147,180,-155,2025-01-29 11:09:48,0.0
11648,5816,14072,-160,149,-180,2025-01-29 11:09:48,0.0
11704,5900,14208,-150,154,-178,2025-01-29 11:09:48,0.0
11572,5840,14344,-158,145,-171,2025-01-29 11:09:48,0.0
11680,5868,14436,-160,180,-198,2025-01-29 11:09:48,0.0
11688,5772,14432,-150,149,-168,2025-01-29 11:09:48,0.0
11616,5808,14268,-168,150,-177,2025-01-29 11:09:48,0.0
11724,5744,14204,-147,158,-167,2025-01-29 11:09:48,0.0
11608,5768,14164,-140,126,-171,2025-01-29 11:09:48,0.0
11708,5796,14116,-136,150,-160,2025-01-29 11:09:48,0.0
11708,5904,14312,-154,159,-175,2025-01-29 11:09:48,0.0
11640,5840,14220,-159,168,-190,2025-01-29 11:09:48,0.0
11736,5908,14236,-144,152,-185,2025-01-29 11:09:48,0.0
11604,5800,14400,-164,168,-175,2025-01-29 11:09:48,0.0
11720,5804,14252,-189,157,-184,2025-01-29 11:09:48,0.0
11644,5840,14364,-170,177,-189,2025-01-29 11:09:48,0.0
11664,5876,14408,-141,164,-164,2025-01-29 11:09:48,0.0
11756,5788,14328,-163,155,-199,2025-01-29 11:09:48,0.0
11656,5708,14300,-162,153,-151,2025-01-29 11:09:48,0.0
11744,5816,14320,-154,131,-159,2025-01-29 11:09:48,0.0
11636,5760,14300,-163,165,-175,2025-01-29 11:09:48,0.0
11680,5764,14152,-157,160,-176,2025-01-29 11:09:48,0.0
11708,5936,14420,-171,151,-184,2025-01-29 11:09:48,
