acceleration_x,acceleration_y,acceleration_z,gyroscope_x,gyroscope_y,gyroscope_z,timestamp,label
-12020,-700,-6020,-106,260,-178,2025-01-29 11:59:31,0.0
-12144,-688,-6032,-58,250,-139,2025-01-29 11:59:31,0.0
-12080,-672,-5948,-101,188,-136,2025-01-29 11:59:31,0.0
-12108,-580,-6000,-150,147,-125,2025-01-29 11:59:31,0.0
-12072,-596,-6080,-180,138,-139,2025-01-29 11:59:31,0.0
-12064,-592,-6072,-211,148,-126,2025-01-29 11:59:31,0.0
-12008,-636,-5972,-218,101,-145,2025-01-29 11:59:31,0.0
-12080,-704,-5876,-240,124,-179,2025-01-29 11:59:31,0.0
-11996,-700,-5884,-233,169,-198,2025-01-29 11:59:31,0.0
-11988,-660,-5876,-249,199,-193,2025-01-29 11:59:31,0.0
-12096,-584,-5852,-265,215,-211,2025-01-29 11:59:32,0.0
-11996,-688,-5840,-229,77,27,2025-01-29 11:59:32,0.0
-11952,-728,-5856,-306,152,21,2025-01-29 11:59:32,0.0
-11852,-500,-6128,-427,166,-3,2025-01-29 11:59:32,0.0
-11776,-248,-6256,-675,270,-4,2025-01-29 11:59:32,0.0
-11860,-304,-6156,-886,470,-14,2025-01-29 11:59:32,0.0
-11932,-420,-6344,-1020,737,79,2025-01-29 11:59:32,0.0
-11984,-440,-6608,-1220,918,3,2025-01-29 11:59:32,0.0
-12284,-200,-6300,-1305,976,12,2025-01-29 11:59:32,0.0
-12720,-180,-5792,-1231,965,70,2025-01-29 11:59:32,0.0
-12816,-172,-5728,-1120,632,106,2025-01-29 11:59:32,0.0
-13008,20,-5912,-1004,-87,49,2025-01-29 11:59:32,0.0
-12888,280,-5676,-787,-894,-25,2025-01-29 11:59:32,0.0
-12552,100,-5472,-553,-1692,-116,2025-01-29 11:59:32,0.0
-12444,148,-5284,-173,-2111,-106,2025-01-29 11:59:32,0.0
-11904,236,-4892,15,-2347,-139,2025-01-29 11:59:32,0.0
-11476,232,-4416,157,-2750,-419,2025-01-29 11:59:32,0.0
-11520,120,-4640,525,-2319,-534,2025-01-29 11:59:32,0.0
-11748,432,-5064,836,-951,-380,2025-01-29 11:59:32,0.0
-11844,620,-5288,1049,-258,-413,2025-01-29 11:59:32,0.0
-12172,524,-5408,1126,-189,-473,2025-01-29 11:59:32,0.0
-12396,120,-5572,1252,-557,-406,2025-01-29 11:59:32,0.0
-12416,-388,-5552,1495,-1203,-286,2025-01-29 11:59:32,0.0
-12004,-668,-5660,1910,-1579,-139,2025-01-29 11:59:32,0.0
-11816,-1168,-5500,2217,-1514,-17,2025-01-29 11:59:32,0.0
-11720,-1184,-5280,2660,-991,188,2025-01-29 11:59:32,0.0
-11932,-1244,-5488,3107,-96,384,2025-01-29 11:59:32,0.0
-12224,-1628,-5464,3462,393,406,2025-01-29 11:59:32,0.0
-12556,-1212,-5988,3901,27,140,2025-01-29 11:59:32,0.0
-12764,-1084,-6688,4239,-435,-261,2025-01-29 11:59:32,0.0
-12564,-1172,-6364,4444,-694,-698,2025-01-29 11:59:32,0.0
-12616,-1400,-5596,4437,-758,-929,2025-01-29 11:59:32,0.0
-12448,-1760,-4400,4204,-603,-833,2025-01-29 11:59:32,0.0
-12344,-1604,-4044,3815,-54,-529,2025-01-29 11:59:32,0.0
-11940,-1108,-3548,3301,752,-490,2025-01-29 11:59:32,0.0
-11876,-520,-2928,2533,1326,-853,2025-01-29 11:59:32,0.0
-11656,-572,-3052,1535,1698,-1363,2025-01-29 11:59:32,0.0
-12028,-1440,-3216,583,2790,-2244,2025-01-29 11:59:32,0.0
-12764,-2156,-3432,270,3481,-2633,2025-01-29 11:59:32,0.0
-13376,-2532,-3252,58,3338,-2583,2025-01-29 11:59:32,0.0
-13356,-3012,-3004,220,2570,-2413,2025-01-29 11:59:32,0.0
-13364,-2936,-3116,254,1595,-2073,2025-01-29 11:59:32,0.0
-13064,-2788,-3604,-10,900,-1636,2025-01-29 11:59:32,0.0
-12568,-2308,-3564,-493,573,-1115,2025-01-29 11:59:32,0.0
-12032,-1496,-3592,-1183,703,-660,2025-01-29 11:59:32,0.0
-11880,-916,-3664,-1881,1062,-425,2025-01-29 11:59:32,0.0
-12244,-852,-3528,-2447,1406,-211,2025-01-29 11:59:32,0.0
-12416,-1104,-3608,-2825,1495,41,2025-01-29 11:59:32,0.0
-12636,-1768,-3648,-2978,1579,269,2025-01-29 11:59:32,0.0
-12348,-2580,-3836,-2824,1859,103,2025-01-29 11:59:32,0.0
-12744,-2708,-3528,-2691,2164,-747,2025-01-29 11:59:32,0.0
-13356,-2780,-3280,-2593,1935,-1401,2025-01-29 11:59:32,0.0
-13896,-2632,-3400,-2635,1244,-1779,2025-01-29 11:59:32,0.0
-13860,-2424,-3236,-2745,299,-1930,2025-01-29 11:59:32,0.0
-13488,-1924,-3224,-2935,-559,-2061,2025-01-29 11:59:32,0.0
-12884,-1664,-2888,-3351,-966,-2332,2025-01-29 11:59:32,0.0
-12668,-1540,-2508,-4147,-945,-2714,2025-01-29 11:59:32,0.0
-12616,-2528,-2688,-4821,-381,-3330,2025-01-29 11:59:32,0.0
-12712,-3504,-3576,-4982,-13,-4250,2025-01-29 11:59:32,0.0
-13608,-4208,-4828,-4871,238,-5097,2025-01-29 11:59:32,0.0
-14400,-4644,-5152,-4287,-329,-5806,2025-01-29 11:59:32,0.0
-15220,-5044,-4024,-2937,-1729,-6041,2025-01-29 11:59:32,0.0
-15088,-6168,-2932,-1059,-3585,-5875,2025-01-29 11:59:33,0.0
-14396,-7056,-4064,566,-5843,-5652,2025-01-29 11:59:33,0.0
-14784,-5960,-4708,983,-7402,-4927,2025-01-29 11:59:33,0.0
-15864,-4144,-5784,702,-7257,-2779,2025-01-29 11:59:33,0.0
-15664,-3796,-7540,54,-5472,1230,2025-01-29 11:59:33,0.0
-11692,-3764,-10872,-1093,-3073,2739,2025-01-29 11:59:33,0.0
-11436,-3264,-9356,-2433,-1001,1988,2025-01-29 11:59:33,0.0
-12328,-2596,-7156,-2050,23,1743,2025-01-29 11:59:33,0.0
-12868,-1120,-6192,-1240,-630,2225,2025-01-29 11:59:33,0.0
-12468,328,-5328,-132,-1593,2466,2025-01-29 11:59:33,0.0
-11720,1212,-6256,275,-2513,2112,2025-01-29 11:59:33,0.0
-11784,860,-6400,-63,-2061,1709,2025-01-29 11:59:33,0.0
-12284,-200,-6244,-344,-402,2079,2025-01-29 11:59:33,0.0
-12532,-1272,-6228,-357,1028,3056,2025-01-29 11:59:33,0.0
-12152,-2104,-5872,-259,1633,3646,2025-01-29 11:59:33,0.0
-12696,-2420,-4848,92,1547,4096,2025-01-29 11:59:33,0.0
-12480,-2236,-4324,654,1116,4411,2025-01-29 11:59:33,0.0
-12244,-1548,-4680,1121,529,4371,2025-01-29 11:59:33,0.0
-10796,400,-5472,1151,142,4432,2025-01-29 11:59:33,0.0
-10116,432,-4796,1069,27,3916,2025-01-29 11:59:33,0.0
-9752,20,-4288,1130,318,3179,2025-01-29 11:59:33,0.0
-9928,-280,-3832,1387,1373,2480,2025-01-29 11:59:33,0.0
-10752,8,-4320,1343,2733,2195,2025-01-29 11:59:33,0.0
-11452,332,-4844,1150,3368,2278,2025-01-29 11:59:33,0.0
-12156,1304,-5108,746,3211,2268,2025-01-29 11:59:33,0.0
-12620,1816,-4976,389,2194,1999,2025-01-29 11:59:33,0.0
-12808,1552,-4624,220,869,1491,2025-01-29 11:59:33,0.0
-12956,1208,-4324,232,-244,1000,2025-01-29 11:59:33,
-12904,608,-4268,230,-935,862,2025-01-29 11:59:33,0.0
-12216,276,-3864,376,-1438,1097,2025-01-29 11:59:33,0.0
-11632,-40,-3468,587,-1372,1268,2025-01-29 11:59:33,0.0
-11184,-344,-3260,842,-1041,1129,2025-01-29 11:59:33,0.0
-11184,-504,-3000,1051,-805,963,2025-01-29 11:59:33,0.0
-11468,-316,-2504,1385,-926,829,2025-01-29 11:59:33,0.0
-11932,68,-2776,1790,-1127,755,2025-01-29 11:59:33,0.0
-12176,648,-3248,2108,-1291,772,2025-01-29 11:59:33,0.0
-11824,888,-3588,2248,-1602,556,2025-01-29 11:59:33,0.0
-11952,744,-3084,2344,-1376,260,2025-01-29 11:59:33,0.0
-12016,744,-2704,2522,-1090,234,2025-01-29 11:59:33,0.0
-11836,1124,-3032,2613,-1124,293,2025-01-29 11:59:33,0.0
-12224,1920,-3248,2653,-371,715,2025-01-29 11:59:33,0.0
-12700,1264,-3884,2715,1056,742,2025-01-29 11:59:33,0.0
-13956,-344,-4188,2643,2298,828,2025-01-29 11:59:33,0.0
-14676,-96,-3564,2649,2568,976,2025-01-29 11:59:33,0.0
-15076,208,-2612,3128,1840,1134,2025-01-29 11:59:33,0.0
-14976,152,-2112,3586,992,1202,2025-01-29 11:59:33,0.0
-14968,-140,-1512,3954,727,1271,2025-01-29 11:59:33,0.0
-14292,-356,-1344,4513,1099,1405,2025-01-29 11:59:33,0.0
-14344,-68,-3316,4808,2393,1538,2025-01-29 11:59:33,0.0
-14652,192,-4348,5109,4515,1714,2025-01-29 11:59:33,0.0
-15824,2384,-6208,5002,6124,1881,2025-01-29 11:59:33,0.0
-17596,4908,-9080,2308,6495,2618,2025-01-29 11:59:33,0.0
-17676,5836,-9764,-44,4801,2693,2025-01-29 11:59:33,0.0
-16944,5292,-9788,-1803,2069,2198,2025-01-29 11:59:33,0.0
-16120,3332,-8200,-3025,-959,1300,2025-01-29 11:59:33,0.0
-14584,876,-6788,-3274,-3392,583,2025-01-29 11:59:33,0.0
-11432,-788,-5976,-2441,-5191,-330,2025-01-29 11:59:33,0.0
-8680,-1460,-6332,-1306,-5447,-1627,2025-01-29 11:59:33,0.0
-7576,-1312,-7836,-352,-4481,-2588,2025-01-29 11:59:33,0.0
-7932,-1996,-9112,-209,-1543,-2654,2025-01-29 11:59:34,0.0
-8580,-2520,-8688,-487,1441,-2156,2025-01-29 11:59:34,0.0
-9068,-2600,-8176,-644,3005,-1665,2025-01-29 11:59:34,0.0
-10648,-1872,-7060,-732,3567,-1306,2025-01-29 11:59:34,0.0
-11420,-1192,-6972,-997,2774,-1404,2025-01-29 11:59:34,0.0
-12360,-628,-6020,-1306,1346,-1632,2025-01-29 11:59:34,0.0
-12688,-336,-5768,-1527,22,-1756,2025-01-29 11:59:34,0.0
-12340,-132,-6224,-1665,-1031,-2077,2025-01-29 11:59:34,0.0
-12180,-232,-6720,-1913,-1448,-2599,2025-01-29 11:59:34,0.0
-11688,-444,-6552,-2261,-1567,-3139,2025-01-29 11:59:34,0.0
-11136,-840,-5608,-2676,-1938,-4061,2025-01-29 11:59:34,0.0
-11196,-1780,-4492,-2926,-2074,-4797,2025-01-29 11:59:34,0.0
-10796,-2424,-4636,-2788,-1909,-4927,2025-01-29 11:59:34,0.0
-10576,-2872,-4636,-2570,-1346,-4632,2025-01-29 11:59:34,0.0
-11108,-3200,-4436,-2504,-391,-4301,2025-01-29 11:59:34,0.0
-11052,-3200,-4480,-2322,474,-4167,2025-01-29 11:59:34,0.0
-11380,-2868,-4276,-2062,1062,-4047,2025-01-29 11:59:34,0.0
-11632,-2296,-4588,-2010,1049,-3988,2025-01-29 11:59:34,0.0
-12408,-1620,-4768,-2086,895,-3999,2025-01-29 11:59:34,0.0
-11972,-1460,-5560,-2326,670,-4058,2025-01-29 11:59:34,0.0
-12184,-1508,-5048,-2635,207,-4072,2025-01-29 11:59:34,0.0
-12424,-1868,-4340,-2854,-455,-3762,2025-01-29 11:59:34,0.0
-12372,-1804,-3992,-2889,-855,-3402,2025-01-29 11:59:34,0.0
-11652,-2044,-3456,-2948,-867,-3304,2025-01-29 11:59:34,0.0
-11412,-2124,-3520,-3080,-503,-3490,2025-01-29 11:59:34,0.0
-11312,-2408,-3312,-3206,-87,-3825,2025-01-29 11:59:34,0.0
-11880,-2612,-3176,-3327,210,-3980,2025-01-29 11:59:34,0.0
-11412,-3040,-3836,-3246,322,-3823,2025-01-29 11:59:34,0.0
-11472,-3312,-3644,-3304,482,-3491,2025-01-29 11:59:34,0.0
-11720,-3388,-2996,-3326,789,-3296,2025-01-29 11:59:34,0.0
-11868,-3420,-2692,-3295,1159,-3175,2025-01-29 11:59:34,0.0
-12204,-3592,-2524,-3139,1150,-2718,2025-01-29 11:59:34,0.0
-12120,-3580,-2824,-2940,599,-2015,2025-01-29 11:59:34,0.0
-11384,-3660,-3176,-2664,242,-1358,2025-01-29 11:59:34,0.0
-10560,-3824,-3072,-2443,569,-1122,2025-01-29 11:59:34,0.0
-10416,-3868,-2260,-2357,1419,-1156,2025-01-29 11:59:34,0.0
-11012,-3604,-1264,-2163,2244,-1196,2025-01-29 11:59:34,0.0
-11404,-3744,-1548,-2213,3046,-1211,2025-01-29 11:59:34,0.0
-12080,-4132,-1160,-2087,3336,-1158,2025-01-29 11:59:34,0.0
-12068,-4564,-1584,-1651,2859,-1485,2025-01-29 11:59:34,0.0
-12172,-4444,-2204,-1075,1900,-1893,2025-01-29 11:59:34,0.0
-12420,-3576,-2920,-737,542,-1785,2025-01-29 11:59:34,0.0
-12144,-2056,-2956,-768,-211,-1138,2025-01-29 11:59:34,0.0
-10772,-596,-3408,-1318,-287,-883,2025-01-29 11:59:34,0.0
-9888,-488,-3180,-1601,-548,-924,2025-01-29 11:59:34,0.0
-9372,-2004,-4732,-2574,16,-620,2025-01-29 11:59:34,0.0
-7928,-2868,-4896,-2579,2225,-144,2025-01-29 11:59:34,0.0
-4548,-3600,-13580,-782,4066,-25,2025-01-29 11:59:34,0.0
-4676,-5720,-15376,597,7647,-2114,2025-01-29 11:59:34,0.0
-8812,-6152,-10416,1484,13667,-4623,2025-01-29 11:59:34,0.0
-13256,-4064,-7116,2050,14583,-5458,2025-01-29 11:59:34,0.0
-16544,-844,-8108,3012,7471,-2890,2025-01-29 11:59:34,0.0
-12392,2932,-12512,1418,-3285,2268,2025-01-29 11:59:34,0.0
-8264,4280,-16240,-2830,-6957,1612,2025-01-29 11:59:34,0.0
-9212,2060,-18764,-6033,-5838,-2486,2025-01-29 11:59:34,0.0
-13368,-2648,-19600,-7046,-6239,-7692,2025-01-29 11:59:34,0.0
-17124,-7112,-15728,-5039,-10482,-7884,2025-01-29 11:59:34,0.0
-14508,-11696,-2944,2013,-15022,-413,2025-01-29 11:59:34,0.0
-8132,-7336,-3884,318,-12290,2761,2025-01-29 11:59:34,0.0
-5772,-1132,-2596,-3724,-6099,1223,2025-01-29 11:59:35,0.0
-8788,2624,-3132,-6032,-955,-1197,2025-01-29 11:59:35,0.0
-11536,2124,-5640,-5153,1159,-2450,2025-01-29 11:59:35,0.0
-14352,-1736,-9244,-3387,956,-3143,2025-01-29 11:59:35,0.0
-16028,-5688,-10592,-1546,351,-3627,2025-01-29 11:59:35,0.0
-16368,-6536,-8308,397,-1185,-5229,2025-01-29 11:59:35,0.0
-18964,-2440,-5292,858,-2558,-3896,2025-01-29 11:59:35,0.0
-13320,-768,-14080,-1620,-3563,-1270,2025-01-29 11:59:35,0.0
-14788,-52,-17716,-4693,-4751,-635,2025-01-29 11:59:35,0.0
-16256,332,-16288,-5400,-5666,-957,2025-01-29 11:59:35,
-13280,-2036,-9232,-3989,-5136,-553,2025-01-29 11:59:35,0.0
-11068,-5484,-3536,-1047,-1030,-269,2025-01-29 11:59:35,0.0
-12364,-6196,-2064,1746,3810,831,2025-01-29 11:59:35,0.0
-13784,-3472,-2864,2578,5565,2595,2025-01-29 11:59:35,0.0
-14464,-224,-5552,1778,5312,3879,2025-01-29 11:59:35,0.0
-14288,724,-4900,369,3066,4290,2025-01-29 11:59:35,0.0
-12580,-376,-4360,27,1989,3970,2025-01-29 11:59:35,0.0
-10628,-1496,-4508,268,810,3269,2025-01-29 11:59:35,0.0
-8992,-1728,-4704,357,-76,2585,2025-01-29 11:59:35,0.0
-8012,-1752,-4916,179,579,1697,2025-01-29 11:59:35,0.0
-9500,-2440,-4608,-176,2172,611,2025-01-29 11:59:35,0.0
-11712,-4024,-3972,-84,2236,-280,2025-01-29 11:59:35,0.0
-13636,-5052,-4776,210,1471,-496,2025-01-29 11:59:35,0.0
-13704,-4444,-4556,-207,1117,663,2025-01-29 11:59:35,0.0
-11964,-3572,-2928,-290,780,1440,2025-01-29 11:59:35,0.0
-10488,-3844,-2128,-13,223,1656,2025-01-29 11:59:35,0.0
-9216,-5184,-1736,426,441,1140,2025-01-29 11:59:35,0.0
-8864,-6500,-2848,1116,1537,576,2025-01-29 11:59:35,0.0
-9148,-6440,-6148,1031,3689,61,2025-01-29 11:59:35,0.0
-11136,-4836,-8012,19,5415,-463,2025-01-29 11:59:35,0.0
-14604,-3968,-6432,-497,4368,-922,2025-01-29 11:59:35,0.0
-17748,-3880,-5864,-773,1979,50,2025-01-29 11:59:35,0.0
-15448,-3092,-7720,-1605,-444,867,2025-01-29 11:59:35,0.0
-12468,-2376,-8800,-3058,-3204,375,2025-01-29 11:59:35,0.0
-10784,-3844,-3928,-3545,-3875,-1010,2025-01-29 11:59:35,0.0
-11504,-5692,576,-2801,-437,-2244,2025-01-29 11:59:35,0.0
-14480,-5984,2332,-1064,3828,-2874,2025-01-29 11:59:35,0.0
-17312,-3856,-1672,212,5640,-3353,2025-01-29 11:59:35,0.0
-18708,-3024,-3944,-311,5203,-2461,2025-01-29 11:59:35,0.0
-17436,-4316,-4188,-1151,4686,-1496,2025-01-29 11:59:35,0.0
-16520,-5108,-4804,-922,4482,-1434,2025-01-29 11:59:35,0.0
-17016,-4420,-5600,-269,4682,-897,2025-01-29 11:59:35,0.0
-17120,-3456,-6952,101,5132,-284,2025-01-29 11:59:35,0.0
-16344,-2148,-9340,206,4533,617,2025-01-29 11:59:35,0.0
-15780,-1792,-9816,-218,3076,1407,2025-01-29 11:59:35,0.0
-13636,-2496,-9864,-771,1728,1606,2025-01-29 11:59:35,0.0
-13076,-2456,-10288,-964,1311,1691,2025-01-29 11:59:35,0.0
-12528,-1444,-10412,-1179,940,2054,2025-01-29 11:59:35,0.0
-12996,-908,-9580,-1460,630,2455,2025-01-29 11:59:35,0.0
-12904,-1068,-9072,-1629,-8,3047,2025-01-29 11:59:35,0.0
-13320,-1180,-8884,-1058,-842,4216,2025-01-29 11:59:35,0.0
-11052,-1032,-9324,482,-3733,5247,2025-01-29 11:59:35,0.0
-8588,-868,-6616,2892,-8259,5086,2025-01-29 11:59:35,0.0
-8200,-2472,-4192,5594,-8839,3719,2025-01-29 11:59:35,0.0
-8548,-4128,-3952,5795,-6641,3491,2025-01-29 11:59:35,0.0
-8640,-3924,-3724,5537,-3705,4485,2025-01-29 11:59:35,0.0
-8432,-2044,-5116,5636,-1153,5795,2025-01-29 11:59:35,0.0
-9148,412,-7184,4449,1054,6765,2025-01-29 11:59:35,0.0
-9532,2008,-7044,3155,1988,7215,2025-01-29 11:59:35,0.0
-9220,3064,-5596,2433,2312,6556,2025-01-29 11:59:35,0.0
-9136,2600,-4948,1838,2033,4875,2025-01-29 11:59:35,0.0
-9780,2288,-5060,823,750,3024,2025-01-29 11:59:36,0.0
-10868,2160,-4696,251,-700,2630,2025-01-29 11:59:36,0.0
-11060,1256,-4860,-113,-1584,2818,2025-01-29 11:59:36,0.0
-10516,52,-5048,-492,-1886,2873,2025-01-29 11:59:36,0.0
-10428,-712,-4384,-420,-1506,2476,2025-01-29 11:59:36,0.0
-11380,-1040,-3592,26,-784,2210,2025-01-29 11:59:36,0.0
-12436,-1268,-3616,815,-571,2471,2025-01-29 11:59:36,0.0
-12564,-1260,-4328,1603,-930,2989,2025-01-29 11:59:36,0.0
-11804,-1072,-5136,2192,-1347,3393,2025-01-29 11:59:36,0.0
-11164,-644,-5008,2563,-2015,3434,2025-01-29 11:59:36,0.0
-10608,56,-4432,3088,-2367,3202,2025-01-29 11:59:36,0.0
-10640,348,-4024,3345,-2236,2934,2025-01-29 11:59:36,0.0
-10864,1052,-4276,3252,-2176,2708,2025-01-29 11:59:36,0.0
-11012,1640,-4660,2849,-2238,2503,2025-01-29 11:59:36,0.0
-10464,1948,-5420,2382,-2278,2079,2025-01-29 11:59:36,0.0
-10640,1900,-4948,2063,-2657,1099,2025-01-29 11:59:36,0.0
-11172,1596,-3900,1982,-3267,258,2025-01-29 11:59:36,0.0
-11552,1340,-3220,1820,-4398,-512,2025-01-29 11:59:36,0.0
-12360,1052,-2640,1392,-6460,-1220,2025-01-29 11:59:36,0.0
-12320,1396,-1372,1332,-8298,-1713,2025-01-29 11:59:36,0.0
-11692,1668,-1432,1373,-9610,-1977,2025-01-29 11:59:36,0.0
-11660,1904,-608,1246,-8867,-1981,2025-01-29 11:59:36,0.0
-11640,2104,-564,890,-6322,-1436,2025-01-29 11:59:36,0.0
-10852,1132,-1468,52,-3968,-1451,2025-01-29 11:59:36,0.0
-10860,-184,-1540,-31,-1844,-1710,2025-01-29 11:59:36,0.0
-11144,-2344,-1692,397,3,-2096,2025-01-29 11:59:36,0.0
-12276,-4216,-1168,938,1096,-2059,2025-01-29 11:59:36,0.0
-15136,-4028,1292,1924,1651,68,2025-01-29 11:59:36,0.0
-14232,-2152,1344,3171,1379,2412,2025-01-29 11:59:36,0.0
-13620,140,-844,3598,1048,3536,2025-01-29 11:59:36,0.0
-14556,880,-3220,3686,2771,4080,2025-01-29 11:59:36,0.0
-16020,84,-6924,2991,7073,4746,2025-01-29 11:59:36,0.0
-17988,212,-7020,1807,9606,6231,2025-01-29 11:59:36,0.0
-18632,1304,-6952,529,9399,8705,2025-01-29 11:59:36,0.0
-18344,3144,-7512,-708,7506,10418,2025-01-29 11:59:36,0.0
-15160,4628,-8232,-1340,5256,9912,2025-01-29 11:59:36,0.0
-11532,4980,-8368,-757,3591,5613,2025-01-29 11:59:36,0.0
-9988,2776,-8436,1626,2457,-2103,2025-01-29 11:59:36,0.0
-14752,428,-10936,2886,1393,-5763,2025-01-29 11:59:36,0.0
-15740,-1468,-11244,2863,-675,-4560,2025-01-29 11:59:36,0.0
-14348,-1820,-10652,2432,-3772,-2524,2025-01-29 11:59:36,0.0
-12556,-1128,-7736,2212,-4738,-1155,2025-01-29 11:59:36,0.0
-9956,-848,-5924,2007,-3296,-662,2025-01-29 11:59:36,0.0
-8664,-804,-4944,1751,-805,-883,2025-01-29 11:59:36,0.0
-8036,-400,-5648,1936,2698,-1818,2025-01-29 11:59:36,0.0
-9004,564,-6428,2346,5265,-3026,2025-01-29 11:59:36,0.0
-10456,1276,-7004,1852,6438,-4103,2025-01-29 11:59:36,0.0
-11808,1620,-6644,911,5672,-4699,2025-01-29 11:59:36,0.0
-12816,660,-6360,-144,2854,-4532,2025-01-29 11:59:36,
-12720,-1032,-5456,-816,-144,-3946,2025-01-29 11:59:36,0.0
-11768,-2356,-4764,-882,-1511,-3637,2025-01-29 11:59:36,0.0
-11128,-3076,-4332,-468,-1796,-3589,2025-01-29 11:59:36,0.0
-10300,-3388,-4728,92,-1515,-3678,2025-01-29 11:59:36,0.0
-10116,-2892,-4196,634,-1088,-3750,2025-01-29 11:59:36,0.0
-10076,-2340,-3912,1006,-354,-3601,2025-01-29 11:59:36,0.0
-10492,-2284,-3960,1198,772,-3392,2025-01-29 11:59:36,0.0
-10900,-2540,-3852,1231,1625,-3298,2025-01-29 11:59:36,0.0
-12136,-2844,-3684,1418,1850,-3126,2025-01-29 11:59:36,0.0
-12892,-2976,-4092,1589,1459,-2810,2025-01-29 11:59:36,0.0
-13944,-3020,-4400,1528,819,-2092,2025-01-29 11:59:36,0.0
-13652,-2056,-5192,1673,-374,-1203,2025-01-29 11:59:36,0.0
-13300,-484,-4452,1522,-1524,-247,2025-01-29 11:59:36,0.0
-12308,-64,-3896,924,-2273,-191,2025-01-29 11:59:37,0.0
-12116,-496,-3360,391,-2421,-149,2025-01-29 11:59:37,0.0
-11716,-1896,-3380,-31,-2065,328,2025-01-29 11:59:37,0.0
-11472,-2784,-3896,-485,-1394,925,2025-01-29 11:59:37,0.0
-11528,-2580,-3696,-888,-506,1218,2025-01-29 11:59:37,0.0
-11220,-1868,-3968,-1312,546,928,2025-01-29 11:59:37,0.0
-12004,-1168,-3152,-1721,775,554,2025-01-29 11:59:37,0.0
-12192,-900,-2948,-2054,513,320,2025-01-29 11:59:37,0.0
-11936,-1020,-3440,-2577,34,177,2025-01-29 11:59:37,0.0
-11900,-1128,-3524,-3178,160,113,2025-01-29 11:59:37,0.0
-11988,-1280,-3268,-3563,609,32,2025-01-29 11:59:37,0.0
-11972,-1160,-3920,-3927,502,-41,2025-01-29 11:59:37,0.0
-12708,-1380,-3796,-4140,293,95,2025-01-29 11:59:37,0.0
-12604,-2312,-4032,-4184,433,316,2025-01-29 11:59:37,0.0
-12268,-3288,-3720,-4061,598,39,2025-01-29 11:59:37,0.0
-12032,-4080,-3724,-3965,1313,-961,2025-01-29 11:59:37,0.0
-12528,-4188,-3396,-3709,2602,-2826,2025-01-29 11:59:37,0.0
-14248,-1556,-6680,-2034,-333,-3906,2025-01-29 11:59:37,0.0
-14708,-2120,-6020,-1790,426,-4790,2025-01-29 11:59:37,0.0
-15312,-4232,-5864,-853,1204,-5483,2025-01-29 11:59:37,0.0
-16728,-5948,-5768,-136,1031,-5295,2025-01-29 11:59:37,0.0
-17824,-6856,-5804,333,-1015,-3673,2025-01-29 11:59:37,0.0
-17932,-5556,-6244,408,-3965,-1239,2025-01-29 11:59:37,0.0
-16260,-1844,-7168,458,-6085,965,2025-01-29 11:59:37,0.0
-14096,116,-8916,-156,-7001,2375,2025-01-29 11:59:37,0.0
-10456,1104,-10428,-1396,-6707,2635,2025-01-29 11:59:37,0.0
-9060,1308,-9816,-2033,-5373,1723,2025-01-29 11:59:37,0.0
-8100,1536,-8760,-2528,-3577,765,2025-01-29 11:59:37,0.0
-8196,1244,-7228,-2797,-1515,151,2025-01-29 11:59:37,0.0
-7940,408,-7688,-3210,532,-220,2025-01-29 11:59:37,0.0
-8124,-260,-8264,-3866,2501,-379,2025-01-29 11:59:37,0.0
-9500,-312,-7560,-4503,4797,-338,2025-01-29 11:59:37,0.0
-11408,392,-6604,-5074,6409,88,2025-01-29 11:59:37,0.0
-14804,924,-5604,-5170,5507,1363,2025-01-29 11:59:37,0.0
-15628,1132,-6060,-4855,2897,1763,2025-01-29 11:59:37,0.0
-14844,856,-6324,-4608,-235,1855,2025-01-29 11:59:37,0.0
-13196,96,-6156,-4523,-2256,1731,2025-01-29 11:59:37,0.0
-11408,-332,-5844,-4664,-2705,1587,2025-01-29 11:59:37,0.0
-9416,-496,-4604,-4589,-2117,1098,2025-01-29 11:59:37,0.0
-8536,-660,-4400,-4329,-889,384,2025-01-29 11:59:37,0.0
-8748,-140,-4276,-4050,1182,-133,2025-01-29 11:59:37,0.0
-9652,768,-4120,-3691,3063,-412,2025-01-29 11:59:37,0.0
-9980,1000,-4984,-3626,4146,-692,2025-01-29 11:59:37,0.0
-10944,1476,-4884,-3882,4417,-1048,2025-01-29 11:59:37,0.0
-11692,1352,-4516,-4076,3886,-1584,2025-01-29 11:59:37,0.0
-11896,1304,-5516,-4284,2727,-2156,2025-01-29 11:59:37,0.0
-11852,1548,-5168,-4422,1366,-3027,2025-01-29 11:59:37,0.0
-11812,1828,-4860,-4645,202,-3829,2025-01-29 11:59:37,0.0
-12408,2336,-4248,-5007,-503,-4208,2025-01-29 11:59:37,0.0
-12992,2800,-3996,-5410,-944,-4156,2025-01-29 11:59:37,0.0
-13736,3220,-4556,-5907,-1659,-3684,2025-01-29 11:59:37,0.0
-13076,2740,-5628,-6653,-2866,-3188,2025-01-29 11:59:37,0.0
-12364,1088,-4924,-6746,-3617,-2945,2025-01-29 11:59:37,0.0
-11492,-1472,-3780,-5726,-3381,-2630,2025-01-29 11:59:37,0.0
-10796,-3312,-3500,-4308,-2011,-2522,2025-01-29 11:59:37,0.0
-10780,-3636,-3692,-2549,366,-2285,2025-01-29 11:59:37,0.0
-10924,-1504,-4204,-398,2320,-1825,2025-01-29 11:59:37,0.0
-11352,1460,-5636,26,3061,-1913,2025-01-29 11:59:37,0.0
-12612,2836,-6048,-935,3383,-1723,2025-01-29 11:59:37,0.0
-14112,2220,-4916,-1571,3499,-1403,2025-01-29 11:59:37,0.0
-14788,428,-4480,-1683,2792,-956,2025-01-29 11:59:38,0.0
-14600,-480,-3888,-1124,978,-775,2025-01-29 11:59:38,0.0
-13812,-828,-2988,-357,-1159,-775,2025-01-29 11:59:38,0.0
-12256,-368,-1808,178,-2517,-1092,2025-01-29 11:59:38,0.0
-11184,708,-1392,823,-2364,-1586,2025-01-29 11:59:38,0.0
-12084,2484,-3628,867,-711,-1747,2025-01-29 11:59:38,0.0
-13224,3256,-8568,-176,3671,-1957,2025-01-29 11:59:38,0.0
-16704,4732,-14356,-2598,8613,-1448,2025-01-29 11:59:38,0.0
-19436,7392,-15192,-6657,10506,293,2025-01-29 11:59:38,0.0
-16208,7636,-12720,-9648,6350,730,2025-01-29 11:59:38,0.0
-13256,6256,-9332,-11140,-4060,-1261,2025-01-29 11:59:38,0.0
-10620,3940,-9276,-11613,-15838,-4044,2025-01-29 11:59:38,0.0
-8880,1100,-6548,-9824,-15954,-6516,2025-01-29 11:59:38,0.0
-5904,-1032,-7348,-9666,-11617,-7637,2025-01-29 11:59:38,0.0
-4748,-3228,-6564,-8501,-6672,-7614,2025-01-29 11:59:38,0.0
-4804,-6048,-7248,-7403,422,-7250,2025-01-29 11:59:38,0.0
-7208,-6452,-8016,-7471,7456,-6615,2025-01-29 11:59:38,0.0
-12196,-3384,-8788,-7490,13344,-5756,2025-01-29 11:59:38,0.0
-15672,-1692,-7964,-7583,13557,-5740,2025-01-29 11:59:38,0.0
-17376,-1248,-5948,-7238,9414,-6470,2025-01-29 11:59:38,0.0
-16800,-1508,-6564,-6241,1355,-7749,2025-01-29 11:59:38,0.0
-15008,-1240,-9508,-6155,-8311,-8156,2025-01-29 11:59:38,0.0
-13800,-724,-5568,-6329,-13768,-7575,2025-01-29 11:59:38,0.0
-10948,-164,-7664,-7748,-12274,-6726,2025-01-29 11:59:38,0.0
-8464,1168,-6956,-9579,-10053,-5855,2025-01-29 11:59:38,0.0
-7456,1888,-6096,-11198,-7020,-5406,2025-01-29 11:59:38,0.0
-6512,1632,-6904,-13011,-3573,-5324,2025-01-29 11:59:38,
-7660,520,-6252,-14611,-817,-5510,2025-01-29 11:59:38,0.0
-8956,-1452,-6464,-15535,218,-6562,2025-01-29 11:59:38,0.0
-11248,-2588,-6976,-16177,47,-7529,2025-01-29 11:59:38,0.0
-13260,-2628,-6916,-16402,-547,-7692,2025-01-29 11:59:38,0.0
-14076,-2304,-6372,-16580,-1773,-7294,2025-01-29 11:59:38,0.0
-13356,-1740,-7112,-17011,-3368,-7077,2025-01-29 11:59:38,0.0
-12120,-1484,-7728,-17683,-4064,-7296,2025-01-29 11:59:38,0.0
-11784,-2196,-6876,-18013,-3811,-7868,2025-01-29 11:59:38,0.0
-11348,-2592,-6628,-18127,-3586,-8077,2025-01-29 11:59:38,0.0
-11084,-2588,-6268,-18279,-2994,-8207,2025-01-29 11:59:38,0.0
-11032,-2220,-6560,-18628,-2300,-8527,2025-01-29 11:59:38,0.0
-11176,-1816,-7408,-19288,-1895,-8679,2025-01-29 11:59:38,0.0
-11340,-1168,-7096,-19871,-2117,-8536,2025-01-29 11:59:38,0.0
-12120,-996,-5896,-20397,-2729,-8076,2025-01-29 11:59:38,0.0
-12108,-1600,-6268,-20707,-3834,-7145,2025-01-29 11:59:38,0.0
-11136,-3244,-6580,-20692,-4668,-6273,2025-01-29 11:59:38,0.0
-10980,-4516,-6172,-20352,-4510,-5520,2025-01-29 11:59:38,0.0
-10300,-3892,-5876,-20131,-3695,-4645,2025-01-29 11:59:38,0.0
-9956,-3180,-4752,-19859,-2554,-4370,2025-01-29 11:59:38,0.0
-9960,-3412,-4552,-19354,-191,-4873,2025-01-29 11:59:38,0.0
-11484,-3616,-4688,-19240,1387,-5720,2025-01-29 11:59:38,0.0
-13392,-2596,-4400,-19283,1400,-6230,2025-01-29 11:59:38,0.0
-15228,-1928,-5352,-19485,593,-6305,2025-01-29 11:59:38,0.0
-14804,-1452,-7336,-20040,-826,-6495,2025-01-29 11:59:38,0.0
-14184,-1316,-6692,-20574,-2326,-6890,2025-01-29 11:59:38,0.0
-12664,-1532,-5812,-20839,-3468,-7312,2025-01-29 11:59:38,0.0
-11128,-1880,-5476,-20920,-3961,-7810,2025-01-29 11:59:39,0.0
-10516,-2780,-6116,-21118,-3180,-7800,2025-01-29 11:59:39,0.0
-10280,-4040,-6352,-21669,-1353,-7934,2025-01-29 11:59:39,0.0
-11416,-5288,-5572,-22161,806,-7944,2025-01-29 11:59:39,0.0
-12520,-4620,-4948,-22474,1425,-7277,2025-01-29 11:59:39,0.0
-12628,-3256,-3596,-22778,359,-6988,2025-01-29 11:59:39,0.0
-12044,-2828,-4444,-23263,-188,-6631,2025-01-29 11:59:39,0.0
-10828,-2268,-7432,-23131,702,-6939,2025-01-29 11:59:39,0.0
-9392,-2456,-11760,-22612,2763,-8058,2025-01-29 11:59:39,0.0
-10308,784,-10936,-21396,681,-8494,2025-01-29 11:59:39,0.0
-7596,292,-11600,-23402,1921,-10498,2025-01-29 11:59:39,0.0
-8532,-1704,-9552,-24092,4464,-12195,2025-01-29 11:59:39,0.0
-10328,-2312,-8332,-23906,6239,-12738,2025-01-29 11:59:39,0.0
-12176,-3700,-6868,-23548,7271,-13107,2025-01-29 11:59:39,0.0
-13592,-3928,-5316,-22524,6273,-13329,2025-01-29 11:59:39,0.0
-14508,-3796,-7280,-21010,3321,-12829,2025-01-29 11:59:39,0.0
-14816,-3068,-8552,-20608,-101,-11963,2025-01-29 11:59:39,0.0
-13516,-2496,-8160,-20302,-2274,-11627,2025-01-29 11:59:39,0.0
-12984,-2424,-6884,-20067,-3882,-10724,2025-01-29 11:59:39,0.0
-7988,-2388,-6764,-18224,-4341,-9629,2025-01-29 11:59:39,0.0
-7428,-2520,-7736,-17231,-2738,-9088,2025-01-29 11:59:39,0.0
-7052,-2964,-8424,-16960,-512,-8841,2025-01-29 11:59:39,0.0
-7324,-3480,-7488,-16847,1304,-9041,2025-01-29 11:59:39,0.0
-8560,-3832,-6076,-15857,2355,-9423,2025-01-29 11:59:39,0.0
-9552,-3988,-5440,-14403,2389,-9523,2025-01-29 11:59:39,0.0
-10140,-3596,-5892,-12821,1985,-9199,2025-01-29 11:59:39,0.0
-9844,-3048,-6948,-11545,1369,-8445,2025-01-29 11:59:39,0.0
-9232,-2520,-7104,-11048,1444,-7712,2025-01-29 11:59:39,0.0
-8768,-2612,-6056,-10657,2097,-7279,2025-01-29 11:59:39,0.0
-8140,-2812,-5568,-10245,2583,-7451,2025-01-29 11:59:39,0.0
-8812,-2304,-5432,-9784,3325,-8544,2025-01-29 11:59:39,0.0
-11128,-956,-6568,-9131,3976,-8934,2025-01-29 11:59:39,0.0
-11276,-1504,-6616,-8483,2391,-7698,2025-01-29 11:59:39,0.0
-9336,-3008,-6172,-8092,527,-6701,2025-01-29 11:59:39,0.0
-8012,-4148,-4484,-7593,-426,-6267,2025-01-29 11:59:39,0.0
-6668,-4588,-3544,-7032,-453,-6687,2025-01-29 11:59:39,0.0
-6716,-4116,-2924,-6768,1061,-8439,2025-01-29 11:59:39,0.0
-10144,-3000,-3104,-6134,2258,-9431,2025-01-29 11:59:39,0.0
-13332,-2284,-5280,-6104,2536,-8149,2025-01-29 11:59:39,0.0
-13936,-2836,-7428,-6622,2328,-5342,2025-01-29 11:59:39,0.0
-11488,-3084,-7736,-6805,-426,-4887,2025-01-29 11:59:39,0.0
-12640,-3908,-5912,-7904,-2809,-5223,2025-01-29 11:59:39,0.0
-13724,-4104,-6132,-8320,-3839,-4932,2025-01-29 11:59:39,0.0
-11856,-4452,-5828,-7974,-5960,-4575,2025-01-29 11:59:39,0.0
-13828,-5012,-6484,-7443,-4479,-3771,2025-01-29 11:59:39,0.0
-8188,-5260,-7828,-7380,-4689,-3140,2025-01-29 11:59:39,0.0
-11212,-4516,-5380,-7157,-5117,-3492,2025-01-29 11:59:39,0.0
-10556,-4512,-7080,-6560,-3234,-3732,2025-01-29 11:59:39,0.0
-8720,-3512,-7024,-6175,-5637,-4124,2025-01-29 11:59:39,0.0
-14392,-4456,-8320,-6096,-4744,-3411,2025-01-29 11:59:39,0.0
-15788,-4048,-7948,-6367,-4402,-2403,2025-01-29 11:59:39,0.0
-8844,-2828,-7912,-6309,-6150,-2785,2025-01-29 11:59:39,0.0
-14360,-2308,-412,-1898,-8661,411,2025-01-29 11:59:40,0.0
-11144,-1356,-1440,-2291,-9028,-66,2025-01-29 11:59:40,0.0
-11732,-416,-1484,-2686,-8057,-513,2025-01-29 11:59:40,0.0
-16004,68,-2228,-3149,-7281,47,2025-01-29 11:59:40,0.0
-19800,496,-2636,-3119,-7367,932,2025-01-29 11:59:40,0.0
-18924,-184,-2724,-2142,-9822,2302,2025-01-29 11:59:40,0.0
-15004,-752,-1272,-608,-11449,1795,2025-01-29 11:59:40,0.0
-14620,-1268,-1344,-38,-9514,1126,2025-01-29 11:59:40,0.0
-17004,-852,-1900,-436,-6098,1175,2025-01-29 11:59:40,0.0
-19680,-440,-2444,-1382,-4447,1807,2025-01-29 11:59:40,0.0
-19612,328,-2868,-1663,-5041,2278,2025-01-29 11:59:40,0.0
-16188,1068,-1172,-683,-8595,306,2025-01-29 11:59:40,0.0
-14708,1144,-708,-606,-7697,-366,2025-01-29 11:59:40,0.0
-14440,820,-80,-978,-6375,-680,2025-01-29 11:59:40,0.0
-14620,388,876,-1412,-5030,-589,2025-01-29 11:59:40,0.0
-14980,24,1120,-1662,-4210,-80,2025-01-29 11:59:40,0.0
-14324,-1080,952,-1919,-4394,385,2025-01-29 11:59:40,0.0
-14396,-1920,1396,-2007,-4708,694,2025-01-29 11:59:40,0.0
-13288,-2192,1284,-1803,-5131,318,2025-01-29 11:59:40,0.0
-12956,-1516,1248,-1561,-5296,-360,2025-01-29 11:59:40,0.0
-12620,-1456,1940,-1051,-4710,-959,2025-01-29 11:59:40,0.0
-12476,-904,2224,-620,-3497,-1478,2025-01-29 11:59:40,
-12636,-752,2084,-387,-2773,-2094,2025-01-29 11:59:40,0.0
-13680,-1072,1844,-386,-2917,-2266,2025-01-29 11:59:40,0.0
-14168,-1012,1408,-429,-3413,-1835,2025-01-29 11:59:40,0.0
-14820,-896,1376,-583,-3876,-1319,2025-01-29 11:59:40,0.0
-15028,-960,2068,-633,-4227,-966,2025-01-29 11:59:40,0.0
-15040,-908,2624,-605,-4750,-668,2025-01-29 11:59:40,0.0
-14132,-1500,3080,-344,-5162,-426,2025-01-29 11:59:40,0.0
-13280,-120,4424,1251,-455,332,2025-01-29 11:59:40,0.0
-13204,60,4588,1250,32,183,2025-01-29 11:59:40,0.0
-13500,392,4724,1119,237,324,2025-01-29 11:59:40,0.0
-13624,252,4840,976,590,358,2025-01-29 11:59:40,0.0
-13652,-56,4284,910,718,364,2025-01-29 11:59:40,0.0
-13312,-220,3988,968,492,238,2025-01-29 11:59:40,0.0
-13352,-116,3908,1058,288,-154,2025-01-29 11:59:40,0.0
-13432,-264,3928,1072,4,-275,2025-01-29 11:59:40,0.0
-13408,-104,4040,1066,-401,-344,2025-01-29 11:59:40,0.0
-13712,0,4216,961,-606,-344,2025-01-29 11:59:40,0.0
-13816,212,4132,885,-529,-264,2025-01-29 11:59:40,0.0
-13796,188,3776,867,-962,-360,2025-01-29 11:59:40,0.0
-13708,-76,3692,771,-2187,-521,2025-01-29 11:59:40,0.0
-13872,-112,4188,847,-3039,-558,2025-01-29 11:59:40,0.0
-13488,-88,4608,754,-3380,-719,2025-01-29 11:59:40,0.0
-13820,-44,5116,548,-3120,-869,2025-01-29 11:59:40,0.0
-13840,-72,6032,566,-2531,-802,2025-01-29 11:59:41,0.0
-14032,4,5992,562,-1784,-538,2025-01-29 11:59:41,0.0
-13588,-164,5980,733,-1087,-272,2025-01-29 11:59:41,0.0
-13272,-56,5396,746,-365,-1,2025-01-29 11:59:41,0.0
-12932,-216,5232,527,4,36,2025-01-29 11:59:41,0.0
-12992,-584,5116,397,131,0,2025-01-29 11:59:41,0.0
-13088,-744,5156,327,189,35,2025-01-29 11:59:41,0.0
-13240,-904,5344,290,15,10,2025-01-29 11:59:41,0.0
-13340,-864,5240,236,-45,-158,2025-01-29 11:59:41,0.0
-13508,-528,5224,309,-41,-412,2025-01-29 11:59:41,0.0
-13312,-488,5536,348,-83,-626,2025-01-29 11:59:41,0.0
-13436,-444,5184,426,-3,-746,2025-01-29 11:59:41,0.0
-13568,-392,5008,416,11,-825,2025-01-29 11:59:41,0.0
-13684,-280,4996,335,-70,-676,2025-01-29 11:59:41,0.0
-13600,-96,4964,277,39,-628,2025-01-29 11:59:41,0.0
-13576,-240,4928,200,120,-641,2025-01-29 11:59:41,0.0
-13500,-172,4968,225,232,-632,2025-01-29 11:59:41,0.0
-13616,-412,4664,220,284,-603,2025-01-29 11:59:41,0.0
-13720,-640,4700,263,164,-540,2025-01-29 11:59:41,0.0
-13692,-704,4532,240,28,-503,2025-01-29 11:59:41,0.0
-13540,-856,4856,260,-123,-475,2025-01-29 11:59:41,0.0
-13616,-904,4816,266,-216,-450,2025-01-29 11:59:41,0.0
-13032,-708,4828,131,-450,-466,2025-01-29 11:59:41,0.0
-13520,-560,4960,157,-259,-450,2025-01-29 11:59:41,0.0
-13440,-624,5220,164,-222,-430,2025-01-29 11:59:41,0.0
-13352,-688,5136,139,-98,-364,2025-01-29 11:59:41,0.0
-13388,-872,5508,200,48,-318,2025-01-29 11:59:41,0.0
-13680,-892,5436,279,146,-311,2025-01-29 11:59:41,0.0
-13840,-788,5448,295,137,-288,2025-01-29 11:59:41,0.0
-13820,-536,5352,251,74,-295,2025-01-29 11:59:41,0.0
-13720,-616,5104,200,18,-210,2025-01-29 11:59:41,0.0
-13684,-652,5164,215,-2,-138,2025-01-29 11:59:41,0.0
-13384,-624,5044,192,51,-105,2025-01-29 11:59:41,0.0
-13392,-768,5000,148,153,-189,2025-01-29 11:59:41,0.0
-13400,-668,5028,140,112,-167,2025-01-29 11:59:41,0.0
-13472,-532,5004,95,103,-140,2025-01-29 11:59:41,0.0
-13672,-484,5156,72,55,-35,2025-01-29 11:59:41,0.0
-13392,-440,5080,12,140,-69,2025-01-29 11:59:41,0.0
-13556,-576,5120,-2,223,-47,2025-01-29 11:59:41,0.0
-13596,-472,5044,28,137,64,2025-01-29 11:59:41,0.0
-13588,-552,5320,10,105,58,2025-01-29 11:59:41,0.0
-13692,-508,5252,-48,152,-19,2025-01-29 11:59:41,0.0
-13396,-504,5056,-24,115,-170,2025-01-29 11:59:41,0.0
-13452,-436,5252,-19,62,-230,2025-01-29 11:59:41,0.0
-13472,-484,5056,-56,89,-227,2025-01-29 11:59:41,0.0
-13576,-316,5156,-104,52,-224,2025-01-29 11:59:41,0.0
-13588,-480,5184,-116,6,-188,2025-01-29 11:59:41,0.0
-13500,-384,5324,-141,52,-204,2025-01-29 11:59:41,0.0
-13360,-544,5304,-122,143,-248,2025-01-29 11:59:41,0.0
-13340,-544,5168,-147,200,-255,2025-01-29 11:59:41,0.0
-13448,-520,5120,-150,278,-252,2025-01-29 11:59:41,0.0
-13352,-508,5040,-211,280,-238,2025-01-29 11:59:41,0.0
-13504,-512,5068,-203,224,-253,2025-01-29 11:59:41,0.0
-13560,-616,5048,-199,203,-256,2025-01-29 11:59:41,0.0
-13516,-628,5048,-178,145,-246,2025-01-29 11:59:41,0.0
-13552,-580,5112,-166,102,-155,2025-01-29 11:59:41,0.0
-13416,-572,5004,-180,175,-142,2025-01-29 11:59:41,0.0
-13340,-536,5200,-166,255,-106,2025-01-29 11:59:41,0.0
-13356,-616,5356,-178,335,-122,2025-01-29 11:59:41,0.0
-13488,-584,5076,-166,421,-157,2025-01-29 11:59:41,0.0
-13596,-624,5100,-159,299,-192,2025-01-29 11:59:41,0.0
-13600,-576,5172,-190,195,-197,2025-01-29 11:59:41,0.0
-13584,-424,5188,-218,182,-231,2025-01-29 11:59:42,0.0
-13592,-544,5208,-210,206,-231,2025-01-29 11:59:42,0.0
-13500,-620,5144,-221,217,-183,2025-01-29 11:59:42,0.0
-13380,-496,5184,-205,296,-189,2025-01-29 11:59:42,0.0
-13444,-548,5228,-176,342,-209,2025-01-29 11:59:42,0.0
-13516,-476,5184,-166,319,-238,2025-01-29 11:59:42,0.0
-13580,-428,5136,-193,187,-213,2025-01-29 11:59:42,0.0
-13468,-440,5024,-216,227,-212,2025-01-29 11:59:42,0.0
-13452,-608,5068,-215,276,-233,2025-01-29 11:59:42,0.0
-13576,-604,5180,-233,265,-217,2025-01-29 11:59:42,0.0
-13468,-620,5204,-209,227,-209,2025-01-29 11:59:42,0.0
-13532,-572,5232,-234,267,-230,2025-01-29 11:59:42,0.0
-13464,-528,4960,-219,235,-193,2025-01-29 11:59:42,0.0
-13492,-560,5064,-217,211,-196,2025-01-29 11:59:42,0.0
-13564,-620,5016,-243,217,-165,2025-01-29 11:59:42,
-13452,-560,5108,-240,204,-176,2025-01-29 11:59:42,0.0
-13488,-568,5148,-243,186,-208,2025-01-29 11:59:42,0.0
-13564,-604,5056,-211,194,-250,2025-01-29 11:59:42,0.0
-13444,-608,5072,-246,259,-278,2025-01-29 11:59:42,0.0
-13444,-588,5036,-270,305,-309,2025-01-29 11:59:42,0.0
-13456,-600,5104,-268,313,-316,2025-01-29 11:59:42,0.0
-13460,-592,5068,-284,348,-331,2025-01-29 11:59:42,0.0
-13592,-616,4972,-253,333,-287,2025-01-29 11:59:42,0.0
-13604,-584,5072,-204,196,-205,2025-01-29 11:59:42,0.0
-13536,-624,4940,-201,185,-166,2025-01-29 11:59:42,0.0
-13480,-692,4980,-181,223,-195,2025-01-29 11:59:42,0.0
-13504,-864,5036,-168,165,-182,2025-01-29 11:59:42,0.0
-13516,-768,5132,-160,178,-166,2025-01-29 11:59:42,0.0
-13532,-684,5112,-133,231,-215,2025-01-29 11:59:42,0.0
-13556,-796,4964,-141,379,-210,2025-01-29 11:59:42,0.0
-13656,-836,4892,-116,276,-170,2025-01-29 11:59:42,0.0
-13660,-668,4828,-91,122,-111,2025-01-29 11:59:42,0.0
-13532,-568,4872,-93,83,-67,2025-01-29 11:59:42,0.0
-13472,-476,4964,-120,28,-109,2025-01-29 11:59:42,0.0
-13500,-544,5144,-121,41,-138,2025-01-29 11:59:42,0.0
-13480,-548,5184,-88,107,-168,2025-01-29 11:59:42,0.0
-13448,-616,5248,-82,225,-172,2025-01-29 11:59:42,0.0
-13512,-552,5136,-131,101,-178,2025-01-29 11:59:42,0.0
-13392,-568,5120,-102,152,-192,2025-01-29 11:59:42,0.0
-13504,-640,5148,-83,192,-217,2025-01-29 11:59:42,0.0
-13484,-612,4924,-144,224,-220,2025-01-29 11:59:42,0.0
-13512,-576,5076,-115,225,-215,2025-01-29 11:59:42,0.0
-13544,-528,4900,-122,169,-222,2025-01-29 11:59:42,0.0
-13588,-584,5152,-115,178,-244,2025-01-29 11:59:42,0.0
-13480,-684,5056,-106,194,-283,2025-01-29 11:59:42,0.0
-13572,-540,5036,-129,162,-297,2025-01-29 11:59:42,0.0
-13584,-688,4992,-145,168,-310,2025-01-29 11:59:42,0.0
-13448,-676,4952,-154,140,-309,2025-01-29 11:59:42,0.0
-13532,-652,4996,-181,148,-327,2025-01-29 11:59:42,0.0
-13584,-620,5112,-135,140,-311,2025-01-29 11:59:42,0.0
-13672,-724,5248,-71,88,-284,2025-01-29 11:59:43,0.0
-13756,-908,5424,103,116,-255,2025-01-29 11:59:43,0.0
-13492,-904,5044,198,241,-421,2025-01-29 11:59:43,0.0
-13840,-524,5056,115,624,-835,2025-01-29 11:59:43,0.0
-14176,-292,4928,-184,25,-271,2025-01-29 11:59:43,0.0
-13812,-460,5088,-225,46,130,2025-01-29 11:59:43,0.0
-13976,-436,5112,-330,115,557,2025-01-29 11:59:43,0.0
-13632,-708,4740,-413,-221,659,2025-01-29 11:59:43,0.0
-13320,-1128,3872,-401,-624,539,2025-01-29 11:59:43,0.0
-12940,-1472,4200,-318,-1195,601,2025-01-29 11:59:43,0.0
-12812,-1908,4828,-132,-1379,615,2025-01-29 11:59:43,0.0
-12940,-1816,5200,271,-1052,757,2025-01-29 11:59:43,0.0
-13024,-1288,5336,313,-615,699,2025-01-29 11:59:43,0.0
-13216,-732,5308,513,-856,621,2025-01-29 11:59:43,0.0
-13684,-444,5912,685,-1541,482,2025-01-29 11:59:43,0.0
-13360,-208,6176,580,-1663,543,2025-01-29 11:59:43,0.0
-12772,0,6256,364,-700,561,2025-01-29 11:59:43,0.0
-12580,340,5676,8,461,511,2025-01-29 11:59:43,0.0
-13436,564,5672,-391,1256,723,2025-01-29 11:59:43,0.0
-13416,804,5340,-860,1350,960,2025-01-29 11:59:43,0.0
-13144,696,5192,-1359,1135,857,2025-01-29 11:59:43,0.0
-12640,664,5012,-1619,1162,619,2025-01-29 11:59:43,0.0
-12800,560,4968,-1712,1002,213,2025-01-29 11:59:43,0.0
-13040,112,5188,-1703,941,-8,2025-01-29 11:59:43,0.0
-13384,56,5220,-1731,1104,-22,2025-01-29 11:59:43,0.0
-13044,-120,5028,-1826,1360,-63,2025-01-29 11:59:43,0.0
-13076,-36,4844,-1945,1531,-182,2025-01-29 11:59:43,0.0
-13288,124,4844,-2063,1468,-355,2025-01-29 11:59:43,0.0
-13380,996,4696,-2296,1642,-515,2025-01-29 11:59:43,0.0
-13572,1636,4980,-2651,1879,-273,2025-01-29 11:59:43,0.0
-12932,1904,4540,-3238,1896,-68,2025-01-29 11:59:43,0.0
-12180,1124,4988,-3694,2401,-288,2025-01-29 11:59:43,0.0
-12364,340,5500,-3629,3337,-684,2025-01-29 11:59:43,0.0
-13648,-248,5032,-3636,4503,-602,2025-01-29 11:59:43,0.0
-14460,-864,5024,-3522,5338,-644,2025-01-29 11:59:43,0.0
-15128,-1840,4912,-3229,5662,-978,2025-01-29 11:59:43,0.0
-15280,-2532,4724,-2733,5085,-1227,2025-01-29 11:59:43,0.0
-14796,-2488,4644,-2350,4016,-1440,2025-01-29 11:59:43,0.0
-13408,-1720,4088,-1763,2957,-1448,2025-01-29 11:59:43,0.0
-13028,-1644,3720,-1480,2900,-1320,2025-01-29 11:59:43,0.0
-12376,-1396,3764,-1433,3307,-1056,2025-01-29 11:59:43,0.0
-12760,-1412,3816,-1406,4814,-820,2025-01-29 11:59:43,0.0
-13296,-1376,3036,-1527,6603,-690,2025-01-29 11:59:43,0.0
-14184,-1392,2632,-1500,7276,-633,2025-01-29 11:59:43,0.0
-15228,-1128,1900,-1468,7116,-331,2025-01-29 11:59:43,0.0
-15288,-1024,1844,-1462,6510,21,2025-01-29 11:59:43,0.0
-14916,-164,3080,-1214,5480,321,2025-01-29 11:59:43,0.0
-14272,-876,1536,-1222,5679,657,2025-01-29 11:59:43,0.0
-13984,-892,1908,-1459,6047,951,2025-01-29 11:59:43,0.0
-13584,-904,1780,-1325,5994,1182,2025-01-29 11:59:43,0.0
-12128,-1068,-324,-1056,5892,1282,2025-01-29 11:59:43,0.0
-14412,-396,1868,-1096,6222,1522,2025-01-29 11:59:43,0.0
-13280,-180,1188,-1067,5941,1395,2025-01-29 11:59:43,0.0
-13224,24,2376,-956,5678,1267,2025-01-29 11:59:43,0.0
-13204,-900,2912,-374,5987,1300,2025-01-29 11:59:43,0.0
-13248,-1464,2632,246,6840,731,2025-01-29 11:59:43,0.0
-16768,-1848,1820,192,9505,1434,2025-01-29 11:59:43,0.0
-13632,-1332,268,455,9745,761,2025-01-29 11:59:43,0.0
-15500,-1108,352,-487,11542,845,2025-01-29 11:59:43,0.0
-16088,-648,-1036,-920,11959,931,2025-01-29 11:59:43,0.0
-15328,-184,-300,-770,11086,703,2025-01-29 11:59:44,0.0
-14984,-12,-1316,-383,8600,-52,2025-01-29 11:59:44,0.0
-15544,-184,-2496,-510,7647,-668,2025-01-29 11:59:44,0.0
-15296,-640,-3116,-976,7704,-455,2025-01-29 11:59:44,0.0
-17444,-752,-944,-569,5807,28,2025-01-29 11:59:44,
-16060,-192,-1456,-98,4366,439,2025-01-29 11:59:44,0.0
-16552,768,-1484,-227,6226,932,2025-01-29 11:59:44,0.0
-14360,-144,-1860,-222,9456,1033,2025-01-29 11:59:44,0.0
-12776,-288,-2532,560,9895,123,2025-01-29 11:59:44,0.0
-15512,152,-3776,1423,9392,-514,2025-01-29 11:59:44,0.0
-16028,760,-4812,1314,8109,-325,2025-01-29 11:59:44,0.0
-15484,1204,-4560,960,7626,-62,2025-01-29 11:59:44,0.0
-14476,392,-3944,797,7660,-266,2025-01-29 11:59:44,0.0
-14716,-84,-4028,1006,7812,-496,2025-01-29 11:59:44,0.0
-14264,312,-4540,1126,7691,-600,2025-01-29 11:59:44,0.0
-14548,280,-5336,1180,7026,-552,2025-01-29 11:59:44,0.0
-13740,324,-5232,1386,6236,-480,2025-01-29 11:59:44,0.0
-13920,580,-5756,1576,5823,-175,2025-01-29 11:59:44,0.0
-13208,524,-5572,1798,5183,14,2025-01-29 11:59:44,0.0
-13300,60,-6148,2021,5214,61,2025-01-29 11:59:44,0.0
-13412,-296,-6732,1991,5511,273,2025-01-29 11:59:44,0.0
-13140,-668,-6976,2010,5601,608,2025-01-29 11:59:44,0.0
-12704,-904,-7060,2329,5126,681,2025-01-29 11:59:44,0.0
-11992,-796,-7376,2884,4244,526,2025-01-29 11:59:44,0.0
-11736,-1476,-7984,3292,3681,67,2025-01-29 11:59:44,0.0
-13420,-1664,-6640,3972,4878,301,2025-01-29 11:59:44,0.0
-12768,-388,-7216,4423,6064,419,2025-01-29 11:59:44,0.0
-11380,1384,-7656,4234,5492,-591,2025-01-29 11:59:44,0.0
-11468,1424,-8888,3630,4915,-1072,2025-01-29 11:59:44,0.0
-11384,628,-10588,2976,4848,-1237,2025-01-29 11:59:44,0.0
-12928,204,-10880,2466,4361,-776,2025-01-29 11:59:44,0.0
-11548,-340,-11856,1821,2666,-308,2025-01-29 11:59:44,0.0
-9700,-1032,-10564,1443,1677,220,2025-01-29 11:59:44,0.0
-8364,-1468,-9144,1692,2608,-64,2025-01-29 11:59:44,0.0
-8112,-1460,-7736,2192,4428,-464,2025-01-29 11:59:44,0.0
-9116,-1380,-7032,2866,5431,-925,2025-01-29 11:59:44,0.0
-13640,-2048,-7224,3493,3679,-1033,2025-01-29 11:59:44,0.0
-11072,-1052,-7700,3829,5103,-800,2025-01-29 11:59:44,0.0
-11920,-424,-7892,3941,3759,-625,2025-01-29 11:59:44,0.0
-11248,-452,-8676,4052,2705,-339,2025-01-29 11:59:44,0.0
-11460,-520,-7992,3934,1659,-172,2025-01-29 11:59:44,0.0
-10652,-324,-7896,3755,1289,85,2025-01-29 11:59:44,0.0
-9792,-1156,-6928,2969,-4174,292,2025-01-29 11:59:44,0.0
-10644,-1976,-6484,2634,-5161,25,2025-01-29 11:59:44,0.0
-13884,-2772,-5568,2232,-6484,177,2025-01-29 11:59:44,0.0
-11460,-1872,-5268,2754,-5301,1204,2025-01-29 11:59:44,0.0
-10716,-2056,-6084,3049,-4823,1506,2025-01-29 11:59:44,0.0
-10684,-1820,-5860,2772,-5097,1370,2025-01-29 11:59:44,0.0
-11104,-1472,-5720,2268,-6269,1109,2025-01-29 11:59:44,0.0
-12132,-1040,-4996,1818,-7270,1221,2025-01-29 11:59:44,0.0
-12576,-1052,-4300,1624,-7481,1521,2025-01-29 11:59:44,0.0
-12652,-1152,-4204,1376,-6889,1889,2025-01-29 11:59:44,0.0
-12568,-1152,-4184,1158,-6066,2420,2025-01-29 11:59:44,0.0
-11472,-1460,-4140,732,-5694,2602,2025-01-29 11:59:44,0.0
-10252,-1592,-3948,579,-6081,2243,2025-01-29 11:59:44,0.0
-9572,-1772,-4768,391,-6350,1592,2025-01-29 11:59:44,0.0
-8700,-1836,-5452,-116,-6223,903,2025-01-29 11:59:44,0.0
-8600,-1780,-5204,-579,-5875,395,2025-01-29 11:59:44,0.0
-8140,-2020,-4880,-627,-5653,217,2025-01-29 11:59:44,0.0
-7252,-2880,-4504,-623,-4820,185,2025-01-29 11:59:45,0.0
-7672,-3380,-4456,-801,-1940,51,2025-01-29 11:59:45,0.0
-6716,-3432,-5640,-1127,1806,-544,2025-01-29 11:59:45,0.0
-8136,-3036,-5964,-1341,5810,-1448,2025-01-29 11:59:45,0.0
-9272,-1948,-6800,-1583,8315,-1804,2025-01-29 11:59:45,0.0
-10420,-1256,-7252,-1824,10050,-2082,2025-01-29 11:59:45,0.0
-11376,-1808,-8092,-2047,10647,-2590,2025-01-29 11:59:45,0.0
-6800,-2648,-11960,-1778,7626,-2829,2025-01-29 11:59:45,0.0
-13216,-4288,-7868,-1288,7167,-4095,2025-01-29 11:59:45,0.0
-13496,-5084,-8624,-192,1903,-4166,2025-01-29 11:59:45,0.0
-13572,-5024,-8260,817,-3312,-2837,2025-01-29 11:59:45,0.0
-12600,-4008,-7824,1261,-5774,-1321,2025-01-29 11:59:45,0.0
-10888,-2952,-7052,1418,-6357,-799,2025-01-29 11:59:45,0.0
-10128,-2092,-6732,1172,-5973,-805,2025-01-29 11:59:45,0.0
-9504,-2112,-6400,770,-4142,-917,2025-01-29 11:59:45,0.0
-9448,-2508,-6212,500,-1409,-816,2025-01-29 11:59:45,0.0
-10056,-3224,-5920,367,886,-657,2025-01-29 11:59:45,0.0
-10512,-3480,-5588,575,2082,-761,2025-01-29 11:59:45,0.0
-11172,-3260,-5512,863,2086,-847,2025-01-29 11:59:45,0.0
-11756,-3052,-5364,1118,939,-661,2025-01-29 11:59:45,0.0
-11636,-3012,-5200,1276,78,-377,2025-01-29 11:59:45,0.0
-11432,-3056,-4708,1469,-227,-130,2025-01-29 11:59:45,0.0
-11164,-3064,-4464,1500,-291,53,2025-01-29 11:59:45,0.0
-10892,-3312,-4420,1677,-67,290,2025-01-29 11:59:45,0.0
-10668,-3484,-4732,1685,51,528,2025-01-29 11:59:45,0.0
-10788,-3476,-4708,1608,210,742,2025-01-29 11:59:45,0.0
-11024,-3404,-3888,1551,318,1097,2025-01-29 11:59:45,0.0
-11436,-3180,-3136,1971,521,1583,2025-01-29 11:59:45,0.0
-11332,-3140,-3832,1976,438,2198,2025-01-29 11:59:45,0.0
-11100,-3044,-4272,1628,514,2557,2025-01-29 11:59:45,0.0
-11380,-2288,-5452,1353,1648,2829,2025-01-29 11:59:45,0.0
-11528,-2416,-5624,770,3225,3181,2025-01-29 11:59:45,0.0
-11856,-3476,-5224,516,4217,3114,2025-01-29 11:59:45,0.0
-12712,-4028,-4660,614,4843,2795,2025-01-29 11:59:45,0.0
-13408,-4000,-4416,1008,4993,2511,2025-01-29 11:59:45,0.0
-14100,-3436,-4580,1229,4359,2263,2025-01-29 11:59:45,0.0
-14176,-2916,-6612,1224,3232,1862,2025-01-29 11:59:45,0.0
-14440,-2152,-6068,648,1405,1677,2025-01-29 11:59:45,0.0
-14140,-1344,-5072,252,-1256,1349,2025-01-29 11:59:45,0.0
-13108,-820,-4684,-125,-3300,576,2025-01-29 11:59:45,0.0
-11476,-1316,-5344,-711,-3299,42,2025-01-29 11:59:45,0.0
-12216,-2436,-5076,-1147,-561,-469,2025-01-29 11:59:45,0.0
-12896,-3156,-6396,-1297,2458,-625,2025-01-29 11:59:45,0.0
-13036,-4348,-7140,-1190,4845,-1152,2025-01-29 11:59:45,0.0
-13808,-5708,-7460,-663,7452,-2519,2025-01-29 11:59:45,0.0
-14748,-6688,-7960,264,7089,-3400,2025-01-29 11:59:45,
-16780,-7244,-7532,1448,4195,-2653,2025-01-29 11:59:45,0.0
-17804,-7236,-7460,2672,-477,115,2025-01-29 11:59:45,0.0
-16988,-5648,-7764,3246,-4557,3740,2025-01-29 11:59:45,0.0
-14524,-3652,-7788,2871,-6794,5806,2025-01-29 11:59:45,0.0
-11028,-2948,-7656,2073,-7928,6718,2025-01-29 11:59:45,0.0
-8244,-2652,-7916,1654,-7807,6800,2025-01-29 11:59:45,0.0
-6692,-2000,-8432,1414,-6337,5970,2025-01-29 11:59:45,0.0
-6192,-1544,-7568,1289,-4161,4728,2025-01-29 11:59:45,0.0
-6328,-1220,-6420,1425,-1216,3232,2025-01-29 11:59:45,0.0
-7740,-808,-6236,1533,1119,2190,2025-01-29 11:59:45,0.0
-9792,-876,-6312,1307,2566,2130,2025-01-29 11:59:45,0.0
-11556,-992,-6012,1106,3602,2715,2025-01-29 11:59:45,0.0
-12880,-1312,-5980,1483,3678,3481,2025-01-29 11:59:45,0.0
-13688,-1972,-6608,2013,2826,4252,2025-01-29 11:59:45,0.0
-14172,-2444,-6668,2691,1027,4807,2025-01-29 11:59:46,0.0
-14072,-2848,-6180,3594,-1681,5339,2025-01-29 11:59:46,0.0
-13212,-3056,-5736,4837,-4001,5658,2025-01-29 11:59:46,0.0
-11484,-2776,-5300,6202,-5048,5587,2025-01-29 11:59:46,0.0
-10532,-1924,-5444,7184,-4719,5390,2025-01-29 11:59:46,0.0
-9752,-896,-5556,7927,-3573,5418,2025-01-29 11:59:46,0.0
-9696,-396,-5544,8290,-1807,5681,2025-01-29 11:59:46,0.0
-9540,-104,-6064,8374,312,5909,2025-01-29 11:59:46,0.0
-9592,-200,-5980,8390,1759,5917,2025-01-29 11:59:46,0.0
-9888,-388,-6344,8362,2559,5650,2025-01-29 11:59:46,0.0
-10592,-724,-6116,8331,2556,5310,2025-01-29 11:59:46,0.0
-11228,-936,-6020,8395,1851,4944,2025-01-29 11:59:46,0.0
-11808,-684,-5960,8420,818,4709,2025-01-29 11:59:46,0.0
-11712,-572,-6316,8336,6,4542,2025-01-29 11:59:46,0.0
-11300,-312,-6324,8301,-433,4216,2025-01-29 11:59:46,0.0
-10856,-120,-6340,8172,-670,3629,2025-01-29 11:59:46,0.0
-10828,36,-5932,7876,-387,3135,2025-01-29 11:59:46,0.0
-10996,-204,-5852,7438,408,2884,2025-01-29 11:59:46,0.0
-11060,-420,-5568,7160,805,2663,2025-01-29 11:59:46,0.0
-11848,-520,-4792,7103,734,2258,2025-01-29 11:59:46,0.0
-12832,-240,-4464,6967,320,2044,2025-01-29 11:59:46,0.0
-13432,512,-4864,6777,-647,2119,2025-01-29 11:59:46,0.0
-13592,1528,-5084,6489,-2287,2219,2025-01-29 11:59:46,0.0
-13224,1828,-5272,6148,-3510,1911,2025-01-29 11:59:46,0.0
-12496,1416,-5136,5882,-3566,1308,2025-01-29 11:59:46,0.0
-12892,116,-4036,5557,-2627,899,2025-01-29 11:59:46,0.0
-13592,-924,-2144,5437,-1044,1387,2025-01-29 11:59:46,0.0
-13328,-560,-2208,5551,326,1953,2025-01-29 11:59:46,0.0
-13316,-288,-2508,5451,1021,1983,2025-01-29 11:59:46,0.0
-13360,-568,-2092,5586,1117,1922,2025-01-29 11:59:46,0.0
-13408,-1016,-2772,5881,1267,1765,2025-01-29 11:59:46,0.0
-13728,-2508,-4056,6043,2119,1643,2025-01-29 11:59:46,0.0
-14160,-2288,-5212,6433,3239,1708,2025-01-29 11:59:46,0.0
-15596,-96,-7360,6129,4382,2349,2025-01-29 11:59:46,0.0
-15728,1688,-9644,5193,5730,3593,2025-01-29 11:59:46,0.0
-15088,2696,-11456,3813,6797,4629,2025-01-29 11:59:46,0.0
-10160,-1476,-7076,939,-2479,473,2025-01-29 11:59:46,0.0
-9232,-5484,-7480,2860,-2982,-2065,2025-01-29 11:59:46,0.0
-9024,-6992,-8676,4157,-2351,-2586,2025-01-29 11:59:46,0.0
-9420,-7136,-8500,5207,-895,-1717,2025-01-29 11:59:46,0.0
-10140,-5464,-8088,6081,1756,166,2025-01-29 11:59:46,0.0
-9448,-1852,-7980,6185,3702,1471,2025-01-29 11:59:46,0.0
-10096,1060,-8156,5179,4710,1436,2025-01-29 11:59:46,0.0
-10884,2760,-7604,3653,4904,1040,2025-01-29 11:59:46,0.0
-11124,1888,-6808,2476,3983,-98,2025-01-29 11:59:46,0.0
-12016,-40,-6228,1903,2079,-1262,2025-01-29 11:59:46,0.0
-11948,-2736,-7520,1957,14,-2530,2025-01-29 11:59:46,0.0
-11460,-4376,-7160,2679,-1196,-3124,2025-01-29 11:59:46,0.0
-11092,-4760,-6116,3525,-2072,-2879,2025-01-29 11:59:46,0.0
-10456,-4420,-6032,3735,-1897,-1999,2025-01-29 11:59:46,0.0
-9808,-3308,-5544,3759,-516,-935,2025-01-29 11:59:46,0.0
-9100,-2432,-5232,3773,1318,-537,2025-01-29 11:59:46,0.0
-9236,-2252,-4984,3711,2446,-702,2025-01-29 11:59:46,0.0
-9620,-2404,-5164,3478,2864,-961,2025-01-29 11:59:46,0.0
-10516,-2656,-4856,3253,3047,-1109,2025-01-29 11:59:46,0.0
-11380,-2548,-5448,3018,2809,-879,2025-01-29 11:59:46,0.0
-11636,-2472,-5660,1380,315,798,2025-01-29 11:59:46,0.0
-11764,-1704,-5412,916,-240,827,2025-01-29 11:59:47,0.0
-11292,-1196,-5468,245,-734,926,2025-01-29 11:59:47,0.0
-11108,-956,-4888,-597,-716,816,2025-01-29 11:59:47,0.0
-10836,-1196,-4856,-1425,-567,635,2025-01-29 11:59:47,0.0
-10600,-1860,-5160,-2126,-227,441,2025-01-29 11:59:47,0.0
-10728,-2560,-5376,-2786,354,160,2025-01-29 11:59:47,0.0
-10572,-2956,-5820,-3062,941,-181,2025-01-29 11:59:47,0.0
-10752,-2920,-6256,-3325,1428,-706,2025-01-29 11:59:47,0.0
-11352,-3008,-6180,-3264,1840,-940,2025-01-29 11:59:47,0.0
-12260,-3176,-5396,-3123,2422,-1017,2025-01-29 11:59:47,0.0
-13192,-4208,-5508,-2958,3365,-1283,2025-01-29 11:59:47,0.0
-14400,-4964,-5084,-3201,3426,-2095,2025-01-29 11:59:47,0.0
-15224,-5180,-4560,-3093,2160,-3046,2025-01-29 11:59:47,0.0
-15540,-4984,-4744,-2536,238,-3570,2025-01-29 11:59:47,0.0
-15428,-3944,-5468,-1987,-1526,-3448,2025-01-29 11:59:47,0.0
-14552,-2068,-7320,-1985,-1908,-3745,2025-01-29 11:59:47,0.0
-12724,-1912,-8484,-2501,-1164,-4911,2025-01-29 11:59:47,0.0
-13448,-3060,-8140,-2641,460,-5934,2025-01-29 11:59:47,0.0
-14532,-4852,-9820,-2347,624,-6520,2025-01-29 11:59:47,0.0
-18112,-4164,-11196,-2209,-3198,-1903,2025-01-29 11:59:47,0.0
-15172,-4092,-12228,-2151,-6978,977,2025-01-29 11:59:47,0.0
-11680,-2892,-10532,-1700,-11332,1347,2025-01-29 11:59:47,0.0
-8544,-1624,-9024,-705,-13255,928,2025-01-29 11:59:47,0.0
-6472,-28,-8792,-792,-12286,327,2025-01-29 11:59:47,0.0
-5492,1004,-7696,-1711,-9033,-306,2025-01-29 11:59:47,0.0
-6008,860,-7260,-1956,-3021,-854,2025-01-29 11:59:47,0.0
-7832,-668,-7680,-2285,4618,-570,2025-01-29 11:59:47,0.0
-9180,-2424,-6228,-2326,9193,-22,2025-01-29 11:59:47,0.0
-11340,-3392,-5356,-1518,11018,235,2025-01-29 11:59:47,
-14044,-3324,-6288,-850,9949,1086,2025-01-29 11:59:47,0.0
-15284,-2680,-8052,-476,2956,3792,2025-01-29 11:59:47,0.0
-14576,-1492,-7392,-269,-2518,5022,2025-01-29 11:59:47,0.0
-12696,-116,-6028,-178,-5425,5014,2025-01-29 11:59:47,0.0
-10616,912,-4876,9,-6573,4239,2025-01-29 11:59:47,0.0
-8892,1392,-3872,246,-6157,3187,2025-01-29 11:59:47,0.0
-7832,1012,-4324,575,-4177,2071,2025-01-29 11:59:47,0.0
-7708,368,-5248,821,-1199,1336,2025-01-29 11:59:47,0.0
-8788,12,-5052,1056,1532,1098,2025-01-29 11:59:47,0.0
-9740,-248,-5364,1089,2675,1013,2025-01-29 11:59:47,0.0
-10996,-420,-5964,914,2554,823,2025-01-29 11:59:47,0.0
-11764,-316,-6352,627,1700,743,2025-01-29 11:59:47,0.0
-12164,-768,-6192,590,-335,226,2025-01-29 11:59:47,0.0
-12328,-1228,-6300,761,-1557,296,2025-01-29 11:59:47,0.0
-11676,-1024,-5592,971,-1705,739,2025-01-29 11:59:47,0.0
-11404,-960,-4848,985,-936,906,2025-01-29 11:59:47,0.0
-11448,-1144,-4448,1097,-353,948,2025-01-29 11:59:47,0.0
-11652,-1228,-4280,1484,-228,1024,2025-01-29 11:59:47,0.0
-11788,-1188,-4272,2046,-448,1054,2025-01-29 11:59:47,0.0
-11380,-932,-4548,2514,-818,820,2025-01-29 11:59:47,0.0
-11308,-696,-4028,2867,-958,681,2025-01-29 11:59:47,0.0
-11536,-580,-4028,3268,-669,724,2025-01-29 11:59:47,0.0
-11564,-476,-4696,3470,384,604,2025-01-29 11:59:47,0.0
-12084,-32,-4716,3562,1129,437,2025-01-29 11:59:47,0.0
-12688,212,-5116,3574,1260,380,2025-01-29 11:59:47,0.0
-13092,140,-4852,3540,1110,646,2025-01-29 11:59:47,0.0
-13068,-952,-5088,3455,1255,973,2025-01-29 11:59:47,0.0
-12996,-2252,-4656,3797,1659,1253,2025-01-29 11:59:47,0.0
-13376,-1324,-5172,3727,1870,1678,2025-01-29 11:59:47,0.0
-14168,-184,-4100,3303,2023,2216,2025-01-29 11:59:47,0.0
-14660,284,-3580,3237,1641,2550,2025-01-29 11:59:47,0.0
-15500,216,-4604,3051,1350,2588,2025-01-29 11:59:47,0.0
-16164,60,-5516,2958,1628,2599,2025-01-29 11:59:47,0.0
-16940,1148,-7148,2037,1817,3294,2025-01-29 11:59:48,0.0
-16372,2480,-9100,819,1474,4307,2025-01-29 11:59:48,0.0
-14532,2980,-11144,-875,442,4321,2025-01-29 11:59:48,0.0
-12992,3456,-11364,-2610,-866,3229,2025-01-29 11:59:48,0.0
-11100,1980,-9592,-3438,-2270,1302,2025-01-29 11:59:48,0.0
-10572,-620,-8448,-3070,-3032,2,2025-01-29 11:59:48,0.0
-9940,-3124,-6864,-1748,-3112,-526,2025-01-29 11:59:48,0.0
-9028,-5472,-6540,329,-2092,-1196,2025-01-29 11:59:48,0.0
-9220,-6284,-7256,1706,-513,-1746,2025-01-29 11:59:48,0.0
-9672,-5452,-7872,2393,808,-1751,2025-01-29 11:59:48,0.0
-10596,-3704,-7616,2795,2012,-1367,2025-01-29 11:59:48,0.0
-10728,-1244,-7616,2679,2461,-1041,2025-01-29 11:59:48,0.0
-11088,252,-7564,1922,2131,-1282,2025-01-29 11:59:48,0.0
-11320,716,-7392,830,1278,-1726,2025-01-29 11:59:48,0.0
-11628,256,-6992,-54,449,-2191,2025-01-29 11:59:48,0.0
-12252,-452,-6040,-124,45,-2699,2025-01-29 11:59:48,0.0
-12100,-1444,-6432,-166,-859,-3277,2025-01-29 11:59:48,0.0
-11788,-1984,-6060,-355,-1994,-3481,2025-01-29 11:59:48,0.0
-10980,-2444,-5808,-360,-2466,-3355,2025-01-29 11:59:48,0.0
-10632,-2808,-5424,-510,-2113,-2977,2025-01-29 11:59:48,0.0
-9700,-3040,-5576,-717,-1114,-2627,2025-01-29 11:59:48,0.0
-9232,-3492,-5244,-776,284,-2505,2025-01-29 11:59:48,0.0
-9144,-3592,-5032,-633,1337,-2515,2025-01-29 11:59:48,0.0
-10780,-2724,-5192,-166,2642,-1920,2025-01-29 11:59:48,0.0
-11196,-2124,-5632,-118,2511,-1567,2025-01-29 11:59:48,0.0
-11712,-2128,-5604,-371,2357,-1338,2025-01-29 11:59:48,0.0
-11684,-2408,-5600,-549,1881,-1243,2025-01-29 11:59:48,0.0
-12528,-2584,-5368,-608,1229,-807,2025-01-29 11:59:48,0.0
-12120,-2688,-4968,-600,57,-19,2025-01-29 11:59:48,0.0
-11628,-2400,-4268,-639,-595,296,2025-01-29 11:59:48,0.0
-11648,-1760,-4188,-908,-775,612,2025-01-29 11:59:48,0.0
-11256,-1580,-4300,-1370,-714,707,2025-01-29 11:59:48,0.0
-11144,-1484,-4520,-1854,-545,695,2025-01-29 11:59:48,0.0
-11192,-1620,-4552,-2364,-277,376,2025-01-29 11:59:48,0.0
-11556,-2584,-4872,-2567,258,-93,2025-01-29 11:59:48,0.0
-12180,-3172,-4828,-2509,962,-449,2025-01-29 11:59:48,0.0
-12928,-2548,-5120,-2395,1240,-884,2025-01-29 11:59:48,0.0
-13800,-1120,-5964,-2482,254,-1039,2025-01-29 11:59:48,0.0
-14032,-1484,-5128,-2724,-937,-939,2025-01-29 11:59:48,0.0
-13972,-2996,-3976,-2805,-1368,-1426,2025-01-29 11:59:48,0.0
-14340,-3680,-3744,-3157,-1516,-1878,2025-01-29 11:59:48,0.0
-14704,-2952,-4848,-3238,-1460,-1931,2025-01-29 11:59:48,0.0
-14360,-1512,-6428,-2864,-939,-2491,2025-01-29 11:59:48,0.0
-14880,-3508,-6152,-2599,1059,-3808,2025-01-29 11:59:48,0.0
-15096,-6716,-6044,-1447,2196,-5193,2025-01-29 11:59:48,0.0
-16712,-8196,-6916,386,487,-4975,2025-01-29 11:59:48,0.0
-17944,-8504,-7612,2474,-2315,-2400,2025-01-29 11:59:48,0.0
-17716,-7240,-8156,3861,-5290,1437,2025-01-29 11:59:48,0.0
-13732,-4356,-8904,4065,-7183,3167,2025-01-29 11:59:48,0.0
-9712,-424,-10056,3091,-9076,3012,2025-01-29 11:59:48,0.0
-7940,2356,-10288,1206,-9915,2967,2025-01-29 11:59:48,0.0
-6664,3716,-9768,-1436,-7457,3046,2025-01-29 11:59:48,0.0
-5424,3964,-8468,-2692,-3027,2404,2025-01-29 11:59:48,0.0
-5260,1828,-8036,-3052,3078,314,2025-01-29 11:59:48,0.0
-8056,-908,-7020,-3188,7339,-1132,2025-01-29 11:59:48,0.0
-10976,-2848,-6140,-2587,9761,-1344,2025-01-29 11:59:48,0.0
-13156,-4220,-5996,-1886,9659,-793,2025-01-29 11:59:49,0.0
-15272,-4244,-5700,-1057,7624,598,2025-01-29 11:59:49,0.0
-16440,-3548,-5800,-183,4438,2577,2025-01-29 11:59:49,0.0
-15816,-2456,-6368,399,357,4052,2025-01-29 11:59:49,0.0
-14036,-1092,-6472,807,-3421,4481,2025-01-29 11:59:49,0.0
-12072,100,-6292,1160,-5697,4119,2025-01-29 11:59:49,0.0
-10308,440,-5960,1209,-5579,3638,2025-01-29 11:59:49,0.0
-8596,8,-5688,1141,-3612,3173,2025-01-29 11:59:49,0.0
-8160,-356,-4932,1287,-456,2795,2025-01-29 11:59:49,0.0
-8716,-664,-4388,1607,2712,2313,2025-01-29 11:59:49,0.0
-10256,-484,-4400,1675,3713,2121,2025-01-29 11:59:49,
-11256,-308,-4176,1602,3403,2106,2025-01-29 11:59:49,0.0
-11812,132,-4164,1732,2443,1834,2025-01-29 11:59:49,0.0
-11552,528,-4928,1920,901,1252,2025-01-29 11:59:49,0.0
-11072,924,-5508,1858,-322,333,2025-01-29 11:59:49,0.0
-11028,832,-5204,1612,-533,-373,2025-01-29 11:59:49,0.0
-11208,704,-4880,1404,-193,-756,2025-01-29 11:59:49,0.0
-11176,400,-4772,1167,177,-1147,2025-01-29 11:59:49,0.0
-11504,232,-4604,923,465,-1509,2025-01-29 11:59:49,0.0
-12096,288,-4464,751,397,-1754,2025-01-29 11:59:49,0.0
-12392,292,-4744,656,-60,-1716,2025-01-29 11:59:49,0.0
-12268,-144,-4720,570,-608,-1633,2025-01-29 11:59:49,0.0
-11896,-644,-4400,694,-884,-1480,2025-01-29 11:59:49,0.0
-11520,-1104,-4208,927,-529,-1287,2025-01-29 11:59:49,0.0
-11756,-1156,-3900,1315,674,-1162,2025-01-29 11:59:49,0.0
-11732,-1264,-4576,1547,1434,-1149,2025-01-29 11:59:49,0.0
-12592,-1556,-4380,1951,1666,-960,2025-01-29 11:59:49,0.0
-12844,-1764,-3876,2462,1573,-506,2025-01-29 11:59:49,0.0
-12748,-2184,-3140,3148,1283,56,2025-01-29 11:59:49,0.0
-12868,-2800,-2756,3750,1465,309,2025-01-29 11:59:49,0.0
-13384,-2636,-2116,4437,1942,606,2025-01-29 11:59:49,0.0
-14868,-1600,-3644,4646,3264,1381,2025-01-29 11:59:49,0.0
-16640,-448,-5936,4343,4811,2860,2025-01-29 11:59:49,0.0
-17676,488,-8120,3474,5447,4154,2025-01-29 11:59:49,0.0
-18440,1988,-10136,1712,5046,5385,2025-01-29 11:59:49,0.0
-17868,3532,-12112,-1059,4248,6914,2025-01-29 11:59:49,0.0
-15228,3176,-12964,-3434,2813,6478,2025-01-29 11:59:49,0.0
-12800,1800,-10388,-4543,-2193,4031,2025-01-29 11:59:49,0.0
-11796,632,-7776,-3816,-8200,914,2025-01-29 11:59:49,0.0
-11176,-1524,-6288,-2898,-8233,-1337,2025-01-29 11:59:49,0.0
-9412,-2832,-6620,-1446,-7857,-2608,2025-01-29 11:59:49,0.0
-8740,-3368,-7072,689,-8229,-3080,2025-01-29 11:59:49,0.0
-8048,-2808,-7384,1766,-7354,-2745,2025-01-29 11:59:49,0.0
-7220,-2988,-6768,2052,-4887,-2444,2025-01-29 11:59:49,0.0
-7872,-2716,-5912,2549,-1004,-2285,2025-01-29 11:59:49,0.0
-8552,-1460,-6300,2680,2147,-2098,2025-01-29 11:59:49,0.0
-9984,-84,-6944,1937,3799,-2321,2025-01-29 11:59:49,0.0
-11760,756,-6624,1077,4116,-2737,2025-01-29 11:59:49,0.0
-12580,800,-6456,462,2891,-3156,2025-01-29 11:59:49,0.0
-13192,280,-6920,-271,917,-3471,2025-01-29 11:59:49,0.0
-12916,-516,-7904,-984,-543,-3605,2025-01-29 11:59:49,0.0
-12656,-1356,-7916,-1795,-1292,-3685,2025-01-29 11:59:49,0.0
-12104,-2048,-7060,-2902,-1842,-3436,2025-01-29 11:59:49,0.0
-11340,-2252,-6532,-3619,-1511,-3175,2025-01-29 11:59:49,0.0
-10576,-2036,-6776,-4289,-722,-3171,2025-01-29 11:59:49,0.0
-10556,-1772,-6048,-4879,439,-3371,2025-01-29 11:59:49,0.0
-10440,-1716,-6024,-5356,1349,-3806,2025-01-29 11:59:49,0.0
-10916,-1512,-5732,-5811,1667,-4305,2025-01-29 11:59:49,0.0
-11232,-1484,-6576,-6248,1258,-4515,2025-01-29 11:59:49,0.0
-11696,-1260,-6736,-6889,383,-4486,2025-01-29 11:59:49,0.0
-11700,-1000,-6664,-7758,-317,-4191,2025-01-29 11:59:49,0.0
-10904,-1188,-7124,-8709,-754,-4144,2025-01-29 11:59:49,0.0
-10556,-1252,-7196,-9549,-815,-4145,2025-01-29 11:59:49,0.0
-10580,-976,-6992,-10723,-174,-4225,2025-01-29 11:59:49,0.0
-10520,-816,-7052,-11528,242,-4411,2025-01-29 11:59:50,0.0
-11120,-808,-7072,-12279,72,-4487,2025-01-29 11:59:50,0.0
-11204,-436,-7380,-12968,-361,-4435,2025-01-29 11:59:50,0.0
-11520,-568,-6916,-13640,-718,-4771,2025-01-29 11:59:50,0.0
-11052,-1360,-7628,-14296,-828,-5480,2025-01-29 11:59:50,0.0
-11588,-2404,-7268,-15142,-959,-6344,2025-01-29 11:59:50,0.0
-12088,-3212,-6680,-15290,-728,-6583,2025-01-29 11:59:50,0.0
-12420,-3792,-6340,-14850,-468,-6345,2025-01-29 11:59:50,0.0
-12084,-3860,-6412,-14482,-42,-6274,2025-01-29 11:59:50,0.0
-12092,-3856,-6192,-14155,302,-6608,2025-01-29 11:59:50,0.0
-12604,-3704,-6468,-13889,251,-6912,2025-01-29 11:59:50,0.0
-13116,-3368,-5948,-13870,-257,-6786,2025-01-29 11:59:50,0.0
-13152,-2736,-5372,-13961,-882,-6386,2025-01-29 11:59:50,0.0
-12812,-2184,-5256,-14217,-1050,-6255,2025-01-29 11:59:50,0.0
-12188,-1972,-5572,-14717,-826,-6446,2025-01-29 11:59:50,0.0
-11872,-1796,-6040,-15388,-797,-6768,2025-01-29 11:59:50,0.0
-12016,-2064,-6088,-16327,-1049,-7082,2025-01-29 11:59:50,0.0
-11864,-2196,-6096,-16834,-1495,-7357,2025-01-29 11:59:50,0.0
-12020,-2300,-6280,-17128,-2006,-7535,2025-01-29 11:59:50,0.0
-12232,-2392,-7080,-17487,-2176,-7861,2025-01-29 11:59:50,0.0
-12356,-1800,-7632,-17450,-1999,-8555,2025-01-29 11:59:50,0.0
-12284,-1724,-8900,-17222,-2071,-8984,2025-01-29 11:59:50,0.0
-12064,-2624,-8460,-16977,-2935,-9295,2025-01-29 11:59:50,0.0
-12132,-2848,-7156,-16347,-4171,-8682,2025-01-29 11:59:50,0.0
-11168,-2872,-7644,-16566,-3082,-7436,2025-01-29 11:59:50,0.0
-9708,-3276,-8432,-16810,-470,-6981,2025-01-29 11:59:50,0.0
-9512,-3036,-8896,-16743,1611,-7062,2025-01-29 11:59:50,0.0
-9776,-2452,-8168,-16670,2909,-7038,2025-01-29 11:59:50,0.0
-10260,-2804,-7028,-16182,3440,-7114,2025-01-29 11:59:50,0.0
-11216,-2612,-6976,-15202,3146,-7129,2025-01-29 11:59:50,0.0
-11448,-2320,-7416,-14703,2325,-7174,2025-01-29 11:59:50,0.0
-11596,-1700,-7388,-14613,1212,-7251,2025-01-29 11:59:50,0.0
-11244,-1408,-7176,-14602,-39,-7186,2025-01-29 11:59:50,0.0
-10816,-1268,-7088,-14672,-531,-7093,2025-01-29 11:59:50,0.0
-10560,-996,-7180,-14984,-144,-6922,2025-01-29 11:59:50,0.0
-10156,-932,-7028,-15464,377,-7270,2025-01-29 11:59:50,0.0
-10640,-456,-7104,-15634,674,-7779,2025-01-29 11:59:50,0.0
-11016,-36,-7136,-15987,734,-7731,2025-01-29 11:59:50,0.0
-11528,596,-7592,-16322,839,-7635,2025-01-29 11:59:50,0.0
-11700,552,-8096,-16831,879,-7519,2025-01-29 11:59:50,0.0
-11824,-232,-8008,-17229,827,-7443,2025-01-29 11:59:50,0.0
-11944,-792,-7644,-17210,602,-7305,2025-01-29 11:59:50,0.0
-11972,-1344,-7188,-17098,281,-7250,2025-01-29 11:59:50,0.0
-12252,-1200,-6644,-16905,-316,-7031,2025-01-29 11:59:50,0.0
-12076,-944,-6420,-16598,-1196,-6727,2025-01-29 11:59:50,0.0
-11576,-792,-6452,-16125,-1813,-6854,2025-01-29 11:59:50,0.0
-11608,-588,-5748,-15770,-1800,-7069,2025-01-29 11:59:50,
-11484,-432,-5528,-15362,-1861,-7237,2025-01-29 11:59:50,0.0
-11568,-20,-5716,-14958,-1825,-7227,2025-01-29 11:59:50,0.0
-10940,460,-6808,-14833,-1640,-7253,2025-01-29 11:59:50,0.0
-10656,608,-7392,-15224,-1323,-7527,2025-01-29 11:59:50,0.0
-10564,776,-6976,-15457,-1143,-7982,2025-01-29 11:59:50,0.0
-10924,124,-6988,-15330,-446,-8136,2025-01-29 11:59:50,0.0
-11148,-244,-6700,-15238,523,-8197,2025-01-29 11:59:50,0.0
-10900,-568,-7132,-15294,1314,-8304,2025-01-29 11:59:50,0.0
-10928,-376,-7568,-15532,1537,-8815,2025-01-29 11:59:50,0.0
-11428,-264,-7256,-15486,1070,-9324,2025-01-29 11:59:50,0.0
-11600,-144,-7008,-15247,524,-9681,2025-01-29 11:59:51,0.0
-12492,-116,-6196,-15124,252,-9846,2025-01-29 11:59:51,0.0
-10628,-624,-8068,-15111,-744,-9974,2025-01-29 11:59:51,0.0
-11200,-944,-7232,-14898,-1488,-9975,2025-01-29 11:59:51,0.0
-10824,-1380,-7192,-14521,-1634,-10064,2025-01-29 11:59:51,0.0
-10492,-1688,-7200,-14055,-1069,-10308,2025-01-29 11:59:51,0.0
-11284,-2068,-6404,-13534,-273,-10434,2025-01-29 11:59:51,0.0
-12136,-2800,-7504,-13261,40,-10412,2025-01-29 11:59:51,0.0
-13068,-3892,-7340,-12973,-302,-10408,2025-01-29 11:59:51,0.0
-13304,-5296,-6020,-10679,-3929,-9619,2025-01-29 11:59:51,0.0
-13608,-5028,-5212,-8880,-5772,-8093,2025-01-29 11:59:51,0.0
-12828,-3760,-6072,-7773,-6065,-6036,2025-01-29 11:59:51,0.0
-12216,-2260,-6516,-7514,-5299,-4637,2025-01-29 11:59:51,0.0
-12952,-636,-6656,-7764,-3227,-3960,2025-01-29 11:59:51,0.0
-14464,748,-7212,-8612,-896,-3015,2025-01-29 11:59:51,0.0
-14716,-552,-6732,-9167,367,-2464,2025-01-29 11:59:51,0.0
-12876,-2304,-3884,-8169,-2423,-2833,2025-01-29 11:59:51,0.0
-10508,-2980,-3204,-6420,-6770,-3933,2025-01-29 11:59:51,0.0
-9380,-2492,-2700,-5172,-6489,-4512,2025-01-29 11:59:51,0.0
-9296,-1636,-3336,-4562,-1824,-4521,2025-01-29 11:59:51,0.0
-9652,-712,-5132,-4940,3609,-4630,2025-01-29 11:59:51,0.0
-11548,-168,-5396,-6224,6209,-5266,2025-01-29 11:59:51,0.0
-13860,560,-5412,-7333,6034,-5374,2025-01-29 11:59:51,0.0
-14608,-788,-5280,-8470,2388,-5128,2025-01-29 11:59:51,0.0
-12524,-3708,-4508,-8464,-1159,-5198,2025-01-29 11:59:51,0.0
-11912,-6004,-1920,-7082,-2122,-5040,2025-01-29 11:59:51,0.0
-11616,-6244,-2252,-5504,204,-4274,2025-01-29 11:59:51,0.0
-11124,-4936,-5332,-4596,2925,-4049,2025-01-29 11:59:51,0.0
-12224,-2916,-7816,-4396,4120,-4204,2025-01-29 11:59:51,0.0
-13532,-1472,-7852,-4893,3288,-4120,2025-01-29 11:59:51,0.0
-13820,-1152,-6608,-5468,981,-4152,2025-01-29 11:59:51,0.0
-13512,-2116,-5876,-5731,-2068,-4253,2025-01-29 11:59:51,0.0
-12876,-3336,-5392,-5709,-3702,-3998,2025-01-29 11:59:51,0.0
-11616,-4272,-5320,-5703,-3621,-3743,2025-01-29 11:59:51,0.0
-11016,-4348,-5040,-5552,-2727,-3417,2025-01-29 11:59:51,0.0
-10656,-3824,-4452,-5352,-1442,-3093,2025-01-29 11:59:51,0.0
-10888,-3060,-4012,-5313,120,-2647,2025-01-29 11:59:51,0.0
-11272,-3096,-4300,-5190,880,-2510,2025-01-29 11:59:51,0.0
-12024,-3112,-4864,-5157,1180,-2451,2025-01-29 11:59:51,0.0
-12920,-2904,-5008,-5109,955,-2222,2025-01-29 11:59:51,0.0
-13436,-2504,-5348,-5199,154,-1728,2025-01-29 11:59:51,0.0
-13388,-2176,-5092,-5404,-1147,-1194,2025-01-29 11:59:51,0.0
-13044,-2100,-5172,-5546,-2110,-668,2025-01-29 11:59:51,0.0
-12592,-2200,-5428,-5759,-2415,-199,2025-01-29 11:59:51,0.0
-12248,-2780,-4916,-5592,-1997,7,2025-01-29 11:59:51,0.0
-12168,-3260,-4208,-5146,-1591,-59,2025-01-29 11:59:51,0.0
-12432,-3288,-4468,-4752,-1635,77,2025-01-29 11:59:51,0.0
-12392,-3592,-5216,-4445,-1442,235,2025-01-29 11:59:51,0.0
-12708,-2880,-6100,-4320,-728,369,2025-01-29 11:59:51,0.0
-12676,-1844,-6144,-3996,262,348,2025-01-29 11:59:51,0.0
-12164,-1216,-5956,-3594,425,-221,2025-01-29 11:59:51,0.0
-12480,-1128,-5884,-3586,-488,-522,2025-01-29 11:59:51,0.0
-12364,-1208,-5428,-3507,-1268,-27,2025-01-29 11:59:51,0.0
-11304,-1816,-5324,-3241,-1151,361,2025-01-29 11:59:51,0.0
-11136,-2300,-5684,-3034,-137,327,2025-01-29 11:59:51,0.0
-11388,-2892,-6332,-2693,1368,451,2025-01-29 11:59:51,0.0
-11860,-2880,-6544,-2080,2336,689,2025-01-29 11:59:51,0.0
-12156,-2180,-6360,-1576,2364,848,2025-01-29 11:59:51,0.0
-12572,-1388,-6156,-1081,1492,1051,2025-01-29 11:59:51,0.0
-12160,-952,-5852,-618,239,1140,2025-01-29 11:59:51,0.0
-11380,-780,-5360,21,-939,605,2025-01-29 11:59:51,0.0
-10936,-936,-5844,457,-1011,-75,2025-01-29 11:59:51,0.0
-10868,-860,-6012,576,-534,-323,2025-01-29 11:59:51,0.0
-10700,-884,-6144,495,94,-605,2025-01-29 11:59:51,0.0
-10852,-640,-6268,244,642,-934,2025-01-29 11:59:51,0.0
-11404,-484,-5908,22,1100,-973,2025-01-29 11:59:51,0.0
-12076,-528,-6336,-233,1974,-803,2025-01-29 11:59:52,0.0
-12764,-528,-6636,-527,2811,-485,2025-01-29 11:59:52,0.0
-13412,-636,-6320,-737,2605,-302,2025-01-29 11:59:52,0.0
-13428,-1016,-5316,-761,876,-391,2025-01-29 11:59:52,0.0
-12836,-1080,-5136,-161,-1300,-660,2025-01-29 11:59:52,0.0
-12220,-856,-6040,301,-1620,-818,2025-01-29 11:59:52,0.0
-11760,-520,-6924,431,-1069,-768,2025-01-29 11:59:52,0.0
-11564,-168,-7168,132,-198,-475,2025-01-29 11:59:52,0.0
-11304,-116,-6432,-262,489,-331,2025-01-29 11:59:52,0.0
-11856,-436,-6060,-483,1188,-310,2025-01-29 11:59:52,0.0
-12364,-1056,-5956,-719,1495,-243,2025-01-29 11:59:52,0.0
-12460,-1452,-5808,-614,966,-317,2025-01-29 11:59:52,0.0
-12616,-1416,-5960,-340,176,-336,2025-01-29 11:59:52,0.0
-12508,-1108,-5964,-169,-395,-414,2025-01-29 11:59:52,0.0
-12092,-884,-5708,-140,-810,-432,2025-01-29 11:59:52,0.0
-11992,-772,-5336,-105,-779,-285,2025-01-29 11:59:52,0.0
-11528,-804,-5456,-104,-448,-273,2025-01-29 11:59:52,0.0
-11116,-1096,-5788,-63,266,-451,2025-01-29 11:59:52,0.0
-11404,-1536,-5656,-32,965,-520,2025-01-29 11:59:52,0.0
-11700,-1672,-6048,74,1476,-473,2025-01-29 11:59:52,0.0
-12152,-1364,-6180,128,1401,-346,2025-01-29 11:59:52,0.0
-12292,-1004,-6364,-34,1060,-280,2025-01-29 11:59:52,0.0
-12300,-908,-6580,-347,695,-216,2025-01-29 11:59:52,0.0
-12360,-864,-6300,-451,478,-110,2025-01-29 11:59:52,
-12132,-1060,-6264,-436,367,-57,2025-01-29 11:59:52,0.0
-12112,-1256,-5952,-347,252,-115,2025-01-29 11:59:52,0.0
-12056,-1532,-5880,-152,110,-77,2025-01-29 11:59:52,0.0
-12068,-1464,-5840,28,-112,-22,2025-01-29 11:59:52,0.0
-11892,-1468,-5876,100,-189,-29,2025-01-29 11:59:52,0.0
-11856,-1376,-5780,199,-17,-44,2025-01-29 11:59:52,0.0
-11748,-1288,-5772,225,401,-66,2025-01-29 11:59:52,0.0
-11960,-1168,-5816,217,632,-84,2025-01-29 11:59:52,0.0
-12000,-1152,-6204,155,736,-89,2025-01-29 11:59:52,0.0
-12248,-1032,-6148,64,527,-52,2025-01-29 11:59:52,0.0
-12272,-976,-6108,24,152,-14,2025-01-29 11:59:52,0.0
-12104,-1052,-6324,-8,-156,28,2025-01-29 11:59:52,0.0
-11852,-1108,-6408,-84,-171,39,2025-01-29 11:59:52,0.0
-11664,-1276,-6112,-51,12,33,2025-01-29 11:59:52,0.0
-11792,-1348,-6184,-41,309,-57,2025-01-29 11:59:52,0.0
-11772,-1408,-6380,-21,448,-105,2025-01-29 11:59:52,0.0
-11872,-1336,-6264,-6,486,-112,2025-01-29 11:59:52,0.0
-11896,-1172,-6064,-58,408,-96,2025-01-29 11:59:52,0.0
-11976,-1088,-5888,-63,216,-126,2025-01-29 11:59:52,0.0
-11960,-948,-5960,-81,106,-117,2025-01-29 11:59:52,0.0
-11788,-1080,-6040,-157,142,-136,2025-01-29 11:59:52,0.0
-11788,-1152,-6104,-210,235,-157,2025-01-29 11:59:52,0.0
-11896,-1032,-6208,-235,353,-198,2025-01-29 11:59:52,0.0
-11876,-1152,-6364,-284,356,-235,2025-01-29 11:59:52,0.0
-11920,-1216,-6440,-342,336,-274,2025-01-29 11:59:52,0.0
-11948,-1064,-6468,-325,311,-239,2025-01-29 11:59:52,0.0
-11896,-984,-6228,-393,312,-238,2025-01-29 11:59:52,0.0
-11836,-1072,-6136,-423,320,-253,2025-01-29 11:59:52,0.0
-11752,-1000,-6244,-399,367,-286,2025-01-29 11:59:52,0.0
-11764,-1176,-6048,-425,380,-323,2025-01-29 11:59:52,0.0
-11852,-1036,-6212,-401,361,-311,2025-01-29 11:59:52,0.0
-11772,-980,-6136,-374,435,-363,2025-01-29 11:59:52,0.0
-11932,-992,-6244,-315,518,-425,2025-01-29 11:59:52,0.0
-12068,-964,-6180,-310,646,-366,2025-01-29 11:59:52,0.0
-11996,-1188,-6080,-228,810,-320,2025-01-29 11:59:52,0.0
-12036,-1148,-5948,-150,732,-199,2025-01-29 11:59:52,0.0
-12008,-1248,-6084,11,576,-222,2025-01-29 11:59:53,0.0
-12036,-1064,-6152,149,443,-206,2025-01-29 11:59:53,0.0
-11988,-1092,-6020,242,331,-197,2025-01-29 11:59:53,0.0
-12072,-988,-5920,278,351,-209,2025-01-29 11:59:53,0.0
-12076,-948,-6020,350,387,-166,2025-01-29 11:59:53,0.0
-12156,-852,-6192,410,330,-144,2025-01-29 11:59:53,0.0
-12392,-744,-6216,374,250,-160,2025-01-29 11:59:53,0.0
-12396,-760,-5916,358,95,-237,2025-01-29 11:59:53,0.0
-12372,-884,-5964,387,-173,-276,2025-01-29 11:59:53,0.0
-12444,-836,-6068,510,-718,-305,2025-01-29 11:59:53,0.0
-12164,-892,-5876,598,-840,-299,2025-01-29 11:59:53,0.0
-11824,-1040,-5664,700,-780,-283,2025-01-29 11:59:53,0.0
-11684,-880,-5724,742,-572,-225,2025-01-29 11:59:53,0.0
-11452,-728,-5780,827,-192,-240,2025-01-29 11:59:53,0.0
-11416,-868,-5996,722,159,-339,2025-01-29 11:59:53,0.0
-11452,-1020,-5776,814,540,-361,2025-01-29 11:59:53,0.0
-11472,-1012,-5840,922,917,-294,2025-01-29 11:59:53,0.0
-11624,-908,-6064,899,1066,-231,2025-01-29 11:59:53,0.0
-11684,-972,-6000,872,1156,-175,2025-01-29 11:59:53,0.0
-11748,-1004,-6140,821,1218,-123,2025-01-29 11:59:53,0.0
-12000,-1068,-6488,863,1169,-198,2025-01-29 11:59:53,0.0
-12352,-1268,-6392,964,930,-271,2025-01-29 11:59:53,0.0
-12720,-1220,-6604,1069,472,-299,2025-01-29 11:59:53,0.0
-12696,-1328,-6656,1195,-313,-370,2025-01-29 11:59:53,0.0
-12464,-1412,-6808,1323,-1141,-505,2025-01-29 11:59:53,0.0
-12276,-1492,-6432,1545,-1820,-763,2025-01-29 11:59:53,0.0
-11924,-1936,-6140,1878,-2246,-1076,2025-01-29 11:59:53,0.0
-11576,-2236,-5940,2372,-2331,-1378,2025-01-29 11:59:53,0.0
-11196,-2764,-5812,2923,-1887,-1599,2025-01-29 11:59:53,0.0
-10988,-3372,-5580,3011,-978,-1785,2025-01-29 11:59:53,0.0
-11432,-3456,-4800,3070,-199,-1700,2025-01-29 11:59:53,0.0
-12328,-2900,-4632,2703,519,-921,2025-01-29 11:59:53,0.0
-12524,-2200,-4576,2078,899,-326,2025-01-29 11:59:53,0.0
-12216,-1720,-4400,1514,721,-473,2025-01-29 11:59:53,0.0
-12156,-1896,-4584,1126,884,-967,2025-01-29 11:59:53,0.0
-11972,-2340,-4576,1013,1170,-1450,2025-01-29 11:59:53,0.0
-12172,-2984,-4564,1027,1224,-1626,2025-01-29 11:59:53,0.0
-12060,-3404,-4920,1220,1154,-1642,2025-01-29 11:59:53,0.0
-12000,-3608,-4872,1526,1217,-1676,2025-01-29 11:59:53,0.0
-12100,-3448,-4724,1630,1188,-1609,2025-01-29 11:59:53,0.0
-12336,-3136,-4820,1423,975,-1138,2025-01-29 11:59:53,0.0
-12096,-3164,-4888,1170,900,-728,2025-01-29 11:59:53,0.0
-11712,-3136,-4520,894,1002,-620,2025-01-29 11:59:53,0.0
-11824,-2944,-4396,639,1085,-572,2025-01-29 11:59:53,0.0
-12156,-2564,-4228,175,1137,-341,2025-01-29 11:59:53,0.0
-12300,-2296,-4264,-262,988,50,2025-01-29 11:59:53,0.0
-12356,-2184,-4424,-759,737,330,2025-01-29 11:59:53,0.0
-12248,-2500,-4476,-1199,645,428,2025-01-29 11:59:53,0.0
-12328,-2460,-4744,-1497,727,416,2025-01-29 11:59:53,0.0
-12792,-2300,-5072,-1884,844,426,2025-01-29 11:59:53,0.0
-13120,-2204,-5536,-2371,589,459,2025-01-29 11:59:53,0.0
-13108,-2468,-5744,-2642,132,306,2025-01-29 11:59:53,0.0
-13156,-2672,-5428,-2729,-249,38,2025-01-29 11:59:53,0.0
-13356,-2072,-4488,-3022,-1122,23,2025-01-29 11:59:53,0.0
-12280,-3120,-3620,-3077,-1232,-227,2025-01-29 11:59:53,0.0
-12140,-4212,-3552,-2706,-653,-750,2025-01-29 11:59:53,0.0
-12712,-3808,-3904,-2594,35,-1156,2025-01-29 11:59:53,0.0
-13336,-2836,-4032,-2954,117,-1176,2025-01-29 11:59:53,0.0
-13784,-2028,-4140,-3773,-358,-1402,2025-01-29 11:59:53,0.0
-13444,-2388,-5268,-4433,-797,-2252,2025-01-29 11:59:53,0.0
-12948,-3332,-6616,-4649,-1059,-3114,2025-01-29 11:59:54,0.0
-12412,-3688,-6036,-4062,-739,-3836,2025-01-29 11:59:54,0.0
-12352,-4152,-4912,-3168,-839,-4135,2025-01-29 11:59:54,0.0
-12516,-4128,-5492,-2537,-1464,-3473,2025-01-29 11:59:54,
-12492,-4288,-6740,-2360,-1031,-2462,2025-01-29 11:59:54,0.0
-12588,-4772,-7112,-2400,1030,-1949,2025-01-29 11:59:54,0.0
-13272,-5224,-6404,-2366,2605,-1726,2025-01-29 11:59:54,0.0
-14468,-5064,-5832,-2039,2379,-1366,2025-01-29 11:59:54,0.0
-15612,-5036,-5732,-1783,370,105,2025-01-29 11:59:54,0.0
-14864,-4796,-6508,-1491,-2486,2739,2025-01-29 11:59:54,0.0
-13640,-3756,-6916,-1070,-3870,3732,2025-01-29 11:59:54,0.0
-12700,-2700,-7056,-778,-4266,4321,2025-01-29 11:59:54,0.0
-11352,-1868,-7180,-454,-4140,4585,2025-01-29 11:59:54,0.0
-10104,-1184,-7560,-272,-3806,4504,2025-01-29 11:59:54,0.0
-9008,-720,-7300,-291,-3144,4052,2025-01-29 11:59:54,0.0
-7784,-440,-6784,-529,-2177,3149,2025-01-29 11:59:54,0.0
-7360,-392,-6276,-709,-657,2136,2025-01-29 11:59:54,0.0
-8172,-36,-6292,-854,1744,1344,2025-01-29 11:59:54,0.0
-9700,-84,-6180,-946,3650,1028,2025-01-29 11:59:54,0.0
-11204,-104,-6532,-956,4659,1024,2025-01-29 11:59:54,0.0
-13000,-180,-6724,-1076,4958,1222,2025-01-29 11:59:54,0.0
-14464,-552,-6404,-1079,3798,1484,2025-01-29 11:59:54,0.0
-15284,-1016,-6308,-742,1667,1888,2025-01-29 11:59:54,0.0
-15048,-1612,-6116,-446,-1135,2564,2025-01-29 11:59:54,0.0
-14196,-1392,-5572,-277,-3058,3045,2025-01-29 11:59:54,0.0
-12632,-804,-5360,-99,-4245,3451,2025-01-29 11:59:54,0.0
-10836,-176,-5220,38,-4494,3597,2025-01-29 11:59:54,0.0
-9336,376,-5008,207,-3626,3305,2025-01-29 11:59:54,0.0
-8608,504,-4756,327,-1597,2650,2025-01-29 11:59:54,0.0
-8992,532,-4200,508,580,1982,2025-01-29 11:59:54,0.0
-9980,140,-3804,687,2096,1497,2025-01-29 11:59:54,0.0
-11372,124,-3884,902,2716,1333,2025-01-29 11:59:54,0.0
-12100,272,-4072,1174,2281,1330,2025-01-29 11:59:54,0.0
-12184,468,-4392,1357,1478,1111,2025-01-29 11:59:54,0.0
-11864,536,-4244,1535,440,487,2025-01-29 11:59:54,0.0
-11580,452,-4516,1681,-347,-242,2025-01-29 11:59:54,0.0
-11404,348,-4212,1689,-699,-766,2025-01-29 11:59:54,0.0
-11408,264,-3828,1368,-401,-1267,2025-01-29 11:59:54,0.0
-11960,860,-3884,1222,-263,-1710,2025-01-29 11:59:54,0.0
-12568,1140,-4712,1000,-335,-2159,2025-01-29 11:59:54,0.0
-13024,1080,-4824,575,-741,-2276,2025-01-29 11:59:54,0.0
-13148,392,-4128,238,-1594,-1884,2025-01-29 11:59:54,0.0
-12992,-140,-3184,430,-1588,-1409,2025-01-29 11:59:54,0.0
-13060,-996,-3184,537,-567,-1264,2025-01-29 11:59:54,0.0
-14384,-1516,-2932,629,1138,-1182,2025-01-29 11:59:54,0.0
-16356,-1708,-3368,856,2235,-370,2025-01-29 11:59:54,0.0
-17228,-1724,-3748,1184,1580,1226,2025-01-29 11:59:54,0.0
-16432,-1496,-4104,1759,-1405,3267,2025-01-29 11:59:54,0.0
-15452,-1716,-4616,2144,-2528,4550,2025-01-29 11:59:54,0.0
-14292,-1800,-4744,2310,-1621,5566,2025-01-29 11:59:54,0.0
-13392,-888,-4664,2827,-587,6111,2025-01-29 11:59:54,0.0
-13280,572,-5864,3305,521,6034,2025-01-29 11:59:54,0.0
-13672,2728,-8272,3252,2567,5735,2025-01-29 11:59:54,0.0
-13120,5240,-10612,2437,3777,4730,2025-01-29 11:59:54,0.0
-10456,5392,-10476,1322,1378,1970,2025-01-29 11:59:54,0.0
-9604,3476,-9224,741,-2318,-2209,2025-01-29 11:59:54,0.0
-10248,1524,-8564,488,-3646,-4585,2025-01-29 11:59:54,0.0
-10232,-348,-7696,590,-4044,-5010,2025-01-29 11:59:54,0.0
-9932,-2028,-6976,904,-3518,-4214,2025-01-29 11:59:54,0.0
-9452,-2752,-6788,683,-1692,-3135,2025-01-29 11:59:54,0.0
-9620,-2104,-6276,244,941,-2483,2025-01-29 11:59:55,0.0
-9988,-1820,-6076,188,2602,-2522,2025-01-29 11:59:55,0.0
-10824,-2024,-5548,99,2782,-3089,2025-01-29 11:59:55,0.0
-12204,-2412,-5348,31,2327,-3421,2025-01-29 11:59:55,0.0
-13800,-2764,-5240,254,895,-3237,2025-01-29 11:59:55,0.0
-13904,-2580,-5872,629,-932,-2662,2025-01-29 11:59:55,0.0
-12632,-1592,-6484,691,-2109,-2436,2025-01-29 11:59:55,0.0
-11588,-928,-6208,532,-2478,-2487,2025-01-29 11:59:55,0.0
-10844,-568,-6128,40,-1754,-2457,2025-01-29 11:59:55,0.0
-10256,-576,-5356,-882,-373,-2457,2025-01-29 11:59:55,0.0
-10304,-1128,-4716,-1421,682,-2405,2025-01-29 11:59:55,0.0
-10668,-1828,-3792,-1636,1541,-2632,2025-01-29 11:59:55,0.0
-11368,-2532,-3480,-1572,2055,-2733,2025-01-29 11:59:55,0.0
-11928,-3164,-3492,-1278,2315,-2598,2025-01-29 11:59:55,0.0
-12652,-3788,-3408,-862,2214,-2193,2025-01-29 11:59:55,0.0
-13136,-3716,-3512,-512,1676,-1579,2025-01-29 11:59:55,0.0
-12900,-3068,-3680,-280,763,-586,2025-01-29 11:59:55,0.0
-12564,-2696,-3728,-320,400,-183,2025-01-29 11:59:55,0.0
-12308,-2264,-3960,-543,266,109,2025-01-29 11:59:55,0.0
-12020,-1936,-3948,-794,288,438,2025-01-29 11:59:55,0.0
-11164,-1652,-4484,-1001,428,790,2025-01-29 11:59:55,0.0
-11180,-1652,-4464,-1263,1215,847,2025-01-29 11:59:55,0.0
-11432,-1832,-4304,-1623,2381,499,2025-01-29 11:59:55,0.0
-12208,-2580,-4692,-1742,2975,89,2025-01-29 11:59:55,0.0
-12780,-2624,-5352,-1660,3050,-240,2025-01-29 11:59:55,0.0
-13860,-2096,-5552,-1817,2204,-632,2025-01-29 11:59:55,0.0
-14216,-2224,-4880,-1779,1135,-942,2025-01-29 11:59:55,0.0
-13816,-2536,-5160,-1831,-231,-1450,2025-01-29 11:59:55,0.0
-13948,-2412,-4612,-2300,-1525,-1581,2025-01-29 11:59:55,0.0
-13280,-2132,-4996,-2663,-2107,-1831,2025-01-29 11:59:55,0.0
-12628,-1048,-6272,-3101,-1934,-2719,2025-01-29 11:59:55,0.0
-12960,-1064,-6744,-3798,-1230,-3457,2025-01-29 11:59:55,0.0
-12868,-2248,-5408,-3695,-752,-3751,2025-01-29 11:59:55,0.0
-13144,-4108,-4624,-3098,-392,-3839,2025-01-29 11:59:55,0.0
-14076,-5384,-5104,-2714,178,-3167,2025-01-29 11:59:55,0.0
-15680,-6392,-6284,-2516,1430,-1919,2025-01-29 11:59:55,0.0
-15116,-7028,-7568,-1445,1622,-478,2025-01-29 11:59:55,0.0
-15264,-5840,-7684,197,-431,341,2025-01-29 11:59:55,0.0
-15152,-3408,-8340,149,-3782,1778,2025-01-29 11:59:55,0.0
-13892,-1756,-7596,-718,-5806,3097,2025-01-29 11:59:55,0.0
-12024,-512,-7364,-1322,-6811,4469,2025-01-29 11:59:55,0.0
-9316,904,-7724,-2107,-6269,5409,2025-01-29 11:59:55,0.0
-6472,1820,-7128,-2933,-4304,4795,2025-01-29 11:59:55,0.0
-4960,1632,-5420,-2951,-846,2064,2025-01-29 11:59:55,
-6488,552,-5148,-2529,2800,-459,2025-01-29 11:59:55,0.0
-9488,-252,-5024,-2075,5335,-1030,2025-01-29 11:59:55,0.0
-11804,-752,-5756,-1580,6794,-1167,2025-01-29 11:59:55,0.0
-14588,-836,-6224,-1119,6651,-984,2025-01-29 11:59:55,0.0
-16628,-592,-6336,-797,4444,-66,2025-01-29 11:59:55,0.0
-16744,-372,-6504,-672,245,1287,2025-01-29 11:59:55,0.0
-15128,-12,-6524,-650,-3153,1970,2025-01-29 11:59:55,0.0
-12812,0,-6148,-726,-4558,2194,2025-01-29 11:59:55,0.0
-9836,-824,-5084,-701,-4309,2089,2025-01-29 11:59:55,0.0
-8744,-1256,-4224,-244,-2416,1918,2025-01-29 11:59:55,0.0
-8576,-1268,-3668,368,240,1738,2025-01-29 11:59:55,0.0
-9148,-1028,-3768,864,1978,1533,2025-01-29 11:59:55,0.0
-10240,-276,-3980,1236,2866,1567,2025-01-29 11:59:55,0.0
-11692,532,-4404,1413,3224,1885,2025-01-29 11:59:55,0.0
-12156,1236,-4964,1486,2880,1994,2025-01-29 11:59:55,0.0
-12140,1852,-4796,1461,1730,1192,2025-01-29 11:59:56,0.0
-12052,1448,-4964,1411,412,151,2025-01-29 11:59:56,0.0
-12472,836,-4780,1355,-398,-273,2025-01-29 11:59:56,0.0
-11792,408,-4456,1381,-695,-422,2025-01-29 11:59:56,0.0
-11300,384,-4684,1168,-566,-747,2025-01-29 11:59:56,0.0
-11248,300,-4084,835,233,-1063,2025-01-29 11:59:56,0.0
-11504,-52,-3700,633,836,-1206,2025-01-29 11:59:56,0.0
-11976,-456,-3292,923,1015,-1393,2025-01-29 11:59:56,0.0
-12992,-444,-3584,1232,1001,-1426,2025-01-29 11:59:56,0.0
-13756,-124,-3948,1284,693,-1159,2025-01-29 11:59:56,0.0
-14312,328,-4400,1332,-553,-516,2025-01-29 11:59:56,0.0
-14428,228,-4284,1623,-1402,308,2025-01-29 11:59:56,0.0
-13524,-900,-3752,1706,-1163,817,2025-01-29 11:59:56,0.0
-13304,-1656,-2828,2002,-677,948,2025-01-29 11:59:56,0.0
-13500,-1224,-2544,2530,-48,983,2025-01-29 11:59:56,0.0
-14064,-476,-3528,2965,733,1360,2025-01-29 11:59:56,0.0
-14912,-308,-4932,3204,1448,2216,2025-01-29 11:59:56,0.0
-14884,-940,-6116,3086,2105,2713,2025-01-29 11:59:56,0.0
-15212,-844,-6924,3017,2497,2605,2025-01-29 11:59:56,0.0
-15996,-100,-7904,3168,2614,2514,2025-01-29 11:59:56,0.0
-16856,1496,-10896,2860,2294,2872,2025-01-29 11:59:56,0.0
-15732,3104,-11936,1663,522,2918,2025-01-29 11:59:56,0.0
-12328,3584,-11460,606,-4190,1437,2025-01-29 11:59:56,0.0
-9896,2136,-8524,347,-8613,-1520,2025-01-29 11:59:56,0.0
-8168,-44,-7464,347,-8523,-3131,2025-01-29 11:59:56,0.0
-6612,-2500,-5072,1133,-7046,-3500,2025-01-29 11:59:56,0.0
-6316,-4220,-3964,1897,-4550,-3029,2025-01-29 11:59:56,0.0
-7120,-4652,-4796,1965,-581,-1939,2025-01-29 11:59:56,0.0
-8664,-3228,-5720,1394,5226,-490,2025-01-29 11:59:56,0.0
-9656,-1980,-6196,980,8429,-666,2025-01-29 11:59:56,0.0
-12120,-1332,-5812,648,9637,-1712,2025-01-29 11:59:56,0.0
-14800,-1024,-5896,843,7901,-2551,2025-01-29 11:59:56,0.0
-16024,-1212,-6708,846,3290,-2727,2025-01-29 11:59:56,0.0
-15296,-1564,-8060,475,-2596,-2581,2025-01-29 11:59:56,0.0
-13480,-1720,-7112,278,-5374,-2297,2025-01-29 11:59:56,0.0
-11408,-1628,-6640,6,-4876,-2230,2025-01-29 11:59:56,0.0
-9664,-1264,-6496,-368,-3353,-2303,2025-01-29 11:59:56,0.0
-8740,-1180,-6156,-911,-1114,-2619,2025-01-29 11:59:56,0.0
-8832,-1472,-5172,-1527,1592,-2943,2025-01-29 11:59:56,0.0
-9844,-2436,-4268,-1582,3535,-3422,2025-01-29 11:59:56,0.0
-11300,-3332,-3908,-1353,4022,-3985,2025-01-29 11:59:56,0.0
-12540,-3756,-3948,-1056,3678,-4175,2025-01-29 11:59:56,0.0
-13724,-3940,-3892,-664,2709,-3748,2025-01-29 11:59:56,0.0
-14104,-4048,-3992,-368,1402,-2959,2025-01-29 11:59:56,0.0
-13132,-3640,-4628,-143,-29,-1941,2025-01-29 11:59:56,0.0
-12048,-2636,-4936,-365,-425,-1410,2025-01-29 11:59:56,0.0
-11396,-2068,-4948,-742,-294,-1204,2025-01-29 11:59:56,0.0
-10760,-1764,-5204,-1152,499,-1054,2025-01-29 11:59:56,0.0
-10876,-1576,-4956,-1469,1624,-1041,2025-01-29 11:59:56,0.0
-11240,-1892,-4736,-1812,2349,-909,2025-01-29 11:59:56,0.0
-11916,-2200,-4356,-2055,2879,-932,2025-01-29 11:59:56,0.0
-12508,-2544,-3752,-2063,2891,-1004,2025-01-29 11:59:56,0.0
-13112,-2764,-3952,-2010,2211,-900,2025-01-29 11:59:56,0.0
-13164,-3264,-3944,-1891,1256,-571,2025-01-29 11:59:56,0.0
-13224,-3160,-3692,-1963,395,-364,2025-01-29 11:59:56,0.0
-13012,-3092,-3332,-1957,-260,-115,2025-01-29 11:59:56,0.0
-12456,-3304,-3184,-2003,-311,74,2025-01-29 11:59:56,0.0
-12040,-2940,-3172,-2032,99,215,2025-01-29 11:59:56,0.0
-11424,-2996,-3672,-2228,732,239,2025-01-29 11:59:56,0.0
-10844,-2932,-3716,-2403,1006,71,2025-01-29 11:59:56,0.0
-10820,-2716,-3100,-2473,1562,-225,2025-01-29 11:59:56,0.0
-11316,-2108,-3348,-2381,2533,-545,2025-01-29 11:59:57,0.0
-11692,-1368,-4368,-3061,2817,-851,2025-01-29 11:59:57,0.0
-12096,-332,-3828,-3694,1056,-1021,2025-01-29 11:59:57,0.0
-11668,-60,-4116,-3400,-1643,-857,2025-01-29 11:59:57,0.0
-9188,1236,-6524,-4118,-2978,-663,2025-01-29 11:59:57,0.0
-6596,1872,-6224,-4391,-1629,-1371,2025-01-29 11:59:57,0.0
-3528,240,-12584,-5046,-244,-1850,2025-01-29 11:59:57,0.0
-1268,-1448,-16660,-4983,1433,-2669,2025-01-29 11:59:57,0.0
-1588,-3996,-14928,-2980,8093,-4380,2025-01-29 11:59:57,0.0
-4564,-2988,-9932,-1855,12855,-5082,2025-01-29 11:59:57,0.0
-6236,-1012,-10568,-3740,11842,-3741,2025-01-29 11:59:57,0.0
-5856,1688,-10216,-5529,6891,-2695,2025-01-29 11:59:57,0.0
-8184,2860,-8560,-6298,2758,-3085,2025-01-29 11:59:57,0.0
-10632,2904,-5924,-6848,-2743,-3210,2025-01-29 11:59:57,0.0
-11728,660,-6112,-7876,-5991,-636,2025-01-29 11:59:57,0.0
-12712,-3676,-6092,-5619,-3074,-940,2025-01-29 11:59:57,0.0
-14384,-7004,-4560,-348,1289,-4791,2025-01-29 11:59:57,0.0
-16484,-11184,-7772,4283,487,-7797,2025-01-29 11:59:57,0.0
-16204,-11176,-10980,3751,-3454,-6320,2025-01-29 11:59:57,0.0
-14304,-8028,-11160,2973,-5425,-3578,2025-01-29 11:59:57,0.0
-11840,-4660,-12572,1439,-2383,-2457,2025-01-29 11:59:57,0.0
-11084,-704,-12076,-2125,1897,-4719,2025-01-29 11:59:57,0.0
-15676,696,-11992,-4427,1274,-6732,2025-01-29 11:59:57,0.0
-20344,-868,-9700,-6194,-1323,-4870,2025-01-29 11:59:57,
-17440,-3496,-8024,-6088,-1295,-3278,2025-01-29 11:59:57,0.0
-16444,-6400,-8308,-5723,1106,-3693,2025-01-29 11:59:57,0.0
-18852,-7444,-8036,-5397,4272,-4205,2025-01-29 11:59:57,0.0
-22380,-7636,-6272,-4083,4546,-3270,2025-01-29 11:59:57,0.0
-21276,-6780,-6596,-2734,1324,-667,2025-01-29 11:59:57,0.0
-18576,-5308,-6404,-1628,-635,997,2025-01-29 11:59:57,0.0
-16524,-4536,-5836,-571,-722,2526,2025-01-29 11:59:57,0.0
-14384,-3852,-5844,203,324,3469,2025-01-29 11:59:57,0.0
-11752,-3152,-7560,607,1539,3552,2025-01-29 11:59:57,0.0
-10096,-2336,-9476,517,2253,2838,2025-01-29 11:59:57,0.0
-10944,-2248,-10028,209,3311,2098,2025-01-29 11:59:57,0.0
-12588,-3148,-10460,-32,3973,2095,2025-01-29 11:59:57,0.0
-13840,-3636,-10800,-356,3401,2918,2025-01-29 11:59:57,0.0
-13468,-3368,-10424,-622,1426,3872,2025-01-29 11:59:57,0.0
-12084,-2348,-9016,-577,-1300,4657,2025-01-29 11:59:57,0.0
-9780,-268,-8136,-480,-4389,5618,2025-01-29 11:59:57,0.0
-8068,616,-7856,-214,-5526,5779,2025-01-29 11:59:57,0.0
-6584,1092,-7416,489,-5441,4529,2025-01-29 11:59:57,0.0
-6400,1028,-8268,825,-4067,3015,2025-01-29 11:59:57,0.0
-7916,988,-9188,27,-1475,2378,2025-01-29 11:59:57,0.0
-8712,980,-8984,-687,525,2127,2025-01-29 11:59:57,0.0
-10060,956,-8208,-1070,1907,2048,2025-01-29 11:59:57,0.0
-11528,668,-7388,-1310,2104,2262,2025-01-29 11:59:57,0.0
-12316,-44,-5972,-1273,235,3082,2025-01-29 11:59:57,0.0
-11632,-356,-6112,-773,-1823,3483,2025-01-29 11:59:57,0.0
-10584,-80,-6308,-385,-3123,3700,2025-01-29 11:59:57,0.0
-9328,424,-5892,254,-3460,3423,2025-01-29 11:59:57,0.0
-8820,1176,-4712,1256,-2727,2836,2025-01-29 11:59:57,0.0
-9044,1400,-3432,2063,-1321,1899,2025-01-29 11:59:57,0.0
-9136,1124,-2812,2434,-283,807,2025-01-29 11:59:57,0.0
-10128,792,-1976,2917,200,-285,2025-01-29 11:59:57,0.0
-11208,212,-2620,3787,727,-726,2025-01-29 11:59:57,0.0
-11668,-104,-3436,4727,1171,-630,2025-01-29 11:59:57,0.0
-12012,-764,-3612,5744,1564,-535,2025-01-29 11:59:57,0.0
-11660,-1488,-3772,6858,1409,-909,2025-01-29 11:59:57,0.0
-11536,-996,-4640,7994,-161,-1549,2025-01-29 11:59:57,0.0
-11640,-792,-6564,8736,-2434,-1742,2025-01-29 11:59:57,0.0
-12556,-1252,-7152,9515,-3796,-1291,2025-01-29 11:59:58,0.0
-12188,-2784,-9964,9820,-4533,-38,2025-01-29 11:59:58,0.0
-11572,-4552,-11144,9791,-4196,1562,2025-01-29 11:59:58,0.0
-10692,-3584,-11152,8681,-2919,3503,2025-01-29 11:59:58,0.0
-9516,-620,-8648,6778,-1254,4814,2025-01-29 11:59:58,0.0
-8008,1036,-8400,4613,796,4339,2025-01-29 11:59:58,0.0
-8224,1956,-8744,2516,3544,2736,2025-01-29 11:59:58,0.0
-9640,1388,-8412,1280,5828,1327,2025-01-29 11:59:58,0.0
-11124,64,-7288,1497,5850,363,2025-01-29 11:59:58,0.0
-12164,-1776,-7132,1897,4399,-54,2025-01-29 11:59:58,0.0
-12332,-2816,-7796,1407,1748,-501,2025-01-29 11:59:58,0.0
-13284,-2936,-6872,644,-815,-705,2025-01-29 11:59:58,0.0
-12740,-3148,-6060,199,-3109,-526,2025-01-29 11:59:58,0.0
-11304,-3392,-5592,559,-5015,-326,2025-01-29 11:59:58,0.0
-9920,-3780,-5752,1127,-5836,-253,2025-01-29 11:59:58,0.0
-9156,-3456,-6092,1519,-4777,-103,2025-01-29 11:59:58,0.0
-8780,-2356,-6488,1304,-2046,268,2025-01-29 11:59:58,0.0
-8864,-2020,-6752,490,505,195,2025-01-29 11:59:58,0.0
-9364,-2020,-6092,-18,2559,-178,2025-01-29 11:59:58,0.0
-10704,-1460,-6988,-15,3488,-188,2025-01-29 11:59:58,0.0
-11912,-1132,-7200,-260,3492,93,2025-01-29 11:59:58,0.0
-12460,-1428,-7160,-615,2495,198,2025-01-29 11:59:58,0.0
-12668,-2652,-6084,-599,1059,-217,2025-01-29 11:59:58,0.0
-12692,-3480,-5556,-317,-107,-588,2025-01-29 11:59:58,0.0
-12576,-3528,-6064,-296,-1406,-420,2025-01-29 11:59:58,0.0
-12092,-3076,-6568,-251,-2022,381,2025-01-29 11:59:58,0.0
-10876,-2248,-7064,-156,-1519,964,2025-01-29 11:59:58,0.0
-10264,-1660,-7512,-448,-65,969,2025-01-29 11:59:58,0.0
-9932,-1248,-8184,-788,1223,780,2025-01-29 11:59:58,0.0
-10064,-1704,-7980,-963,1996,559,2025-01-29 11:59:58,0.0
-10692,-2316,-7256,-790,2454,343,2025-01-29 11:59:58,0.0
-11408,-2404,-7124,-468,2471,213,2025-01-29 11:59:58,0.0
-12256,-2472,-6352,-7,2159,48,2025-01-29 11:59:58,0.0
-12328,-2644,-7460,316,1499,-187,2025-01-29 11:59:58,0.0
-12208,-2684,-7844,332,806,-454,2025-01-29 11:59:58,0.0
-12164,-2880,-7788,434,112,-564,2025-01-29 11:59:58,0.0
-11808,-2288,-7312,646,-209,-502,2025-01-29 11:59:58,0.0
-11512,-1720,-6960,806,-263,-628,2025-01-29 11:59:58,0.0
-11416,-1388,-7144,748,-257,-706,2025-01-29 11:59:58,0.0
-11100,-1268,-7168,466,-273,-704,2025-01-29 11:59:58,0.0
-10952,-1836,-7288,308,10,-777,2025-01-29 11:59:58,0.0
-10788,-2320,-7516,178,480,-902,2025-01-29 11:59:58,0.0
-11692,-2472,-6732,81,559,-941,2025-01-29 11:59:58,0.0
-11904,-2284,-6396,-10,166,-701,2025-01-29 11:59:58,0.0
-11952,-2128,-6016,-187,-266,-535,2025-01-29 11:59:58,0.0
-11652,-2224,-6264,-330,-405,-726,2025-01-29 11:59:58,0.0
-11112,-2328,-6600,-286,-641,-851,2025-01-29 11:59:58,0.0
-10904,-2844,-7040,-178,-390,-1037,2025-01-29 11:59:58,0.0
-11140,-2976,-6904,-9,-352,-1179,2025-01-29 11:59:58,0.0
-11184,-3192,-6776,-77,62,-1178,2025-01-29 11:59:58,0.0
-11336,-3132,-6276,14,856,-1314,2025-01-29 11:59:58,0.0
-11792,-2920,-6132,216,1216,-1573,2025-01-29 11:59:58,0.0
-12252,-2604,-6116,303,928,-1731,2025-01-29 11:59:58,0.0
-12704,-2292,-5964,288,271,-1673,2025-01-29 11:59:58,0.0
-12480,-2096,-6080,119,-349,-1612,2025-01-29 11:59:58,0.0
-12248,-2208,-6272,-150,-885,-1788,2025-01-29 11:59:58,0.0
-11948,-2372,-5892,-232,-1580,-2092,2025-01-29 11:59:58,0.0
-11984,-2888,-5288,-276,-1866,-2416,2025-01-29 11:59:58,0.0
-11936,-2924,-5124,-359,-1730,-2276,2025-01-29 11:59:58,0.0
-11848,-2972,-4716,-446,-1441,-1721,2025-01-29 11:59:58,0.0
-11392,-2652,-5072,-577,-902,-1517,2025-01-29 11:59:58,0.0
-11124,-2656,-5380,-708,-167,-1606,2025-01-29 11:59:58,0.0
-11056,-2620,-5404,-863,466,-1823,2025-01-29 11:59:58,
-11520,-2904,-5104,-1008,877,-2119,2025-01-29 11:59:58,0.0
-12076,-3196,-4884,-1072,734,-2105,2025-01-29 11:59:59,0.0
-12372,-3108,-4892,-1192,308,-1592,2025-01-29 11:59:59,0.0
-12612,-2856,-4664,-1392,184,-843,2025-01-29 11:59:59,0.0
-12256,-2624,-4436,-1564,38,-590,2025-01-29 11:59:59,0.0
-12180,-2700,-4288,-1696,-256,-431,2025-01-29 11:59:59,0.0
-12052,-2744,-3976,-1864,-529,-189,2025-01-29 11:59:59,0.0
-11836,-2680,-4264,-1969,-588,41,2025-01-29 11:59:59,0.0
-11812,-2748,-4252,-2133,-298,195,2025-01-29 11:59:59,0.0
-11744,-3040,-4560,-2271,99,258,2025-01-29 11:59:59,0.0
-12408,-2524,-4704,-2510,406,406,2025-01-29 11:59:59,0.0
-12916,-2488,-5024,-2809,133,549,2025-01-29 11:59:59,0.0
-13076,-2372,-5260,-3077,-214,554,2025-01-29 11:59:59,0.0
-13100,-2428,-5524,-3218,-863,357,2025-01-29 11:59:59,0.0
-13288,-2560,-4908,-3194,-1733,69,2025-01-29 11:59:59,0.0
-13040,-2404,-4420,-3359,-2291,-409,2025-01-29 11:59:59,0.0
-13200,-2184,-4372,-3648,-2393,-881,2025-01-29 11:59:59,0.0
-13152,-2260,-4412,-3991,-2066,-1034,2025-01-29 11:59:59,0.0
-12728,-2768,-4260,-4264,-1825,-1199,2025-01-29 11:59:59,0.0
-12572,-3020,-5736,-3959,-876,-1798,2025-01-29 11:59:59,0.0
-12640,-3484,-7628,-3801,278,-2738,2025-01-29 11:59:59,0.0
-11712,-5500,-6428,-2986,1383,-3793,2025-01-29 11:59:59,0.0
-14844,-6704,-4096,-1510,1359,-3607,2025-01-29 11:59:59,0.0
-15236,-6828,-5628,-372,104,-2007,2025-01-29 11:59:59,0.0
-14668,-6156,-6660,445,-1065,77,2025-01-29 11:59:59,0.0
-13096,-4336,-6604,976,-1218,401,2025-01-29 11:59:59,0.0
-12812,-2536,-5160,748,-2120,-12,2025-01-29 11:59:59,0.0
-14000,-1400,-3992,380,-3373,697,2025-01-29 11:59:59,0.0
-12384,-1404,-5536,-177,-4122,1886,2025-01-29 11:59:59,0.0
-9784,-1892,-6780,-606,-2614,2348,2025-01-29 11:59:59,0.0
-9804,-2424,-7012,-647,-461,1725,2025-01-29 11:59:59,0.0
-10856,-3036,-6516,-451,1123,1392,2025-01-29 11:59:59,0.0
-11656,-2912,-6344,226,1508,1361,2025-01-29 11:59:59,0.0
-11852,-2212,-7500,328,716,1271,2025-01-29 11:59:59,0.0
-11484,-1556,-8300,-286,-410,1220,2025-01-29 11:59:59,0.0
-10144,-852,-10268,-1023,-1211,1172,2025-01-29 11:59:59,0.0
-11460,336,-8580,-1677,-1247,1005,2025-01-29 11:59:59,0.0
-10584,820,-9016,-2286,-896,1054,2025-01-29 11:59:59,0.0
-9892,628,-8352,-2706,-463,736,2025-01-29 11:59:59,0.0
-9992,-500,-7352,-2708,-223,178,2025-01-29 11:59:59,0.0
-10352,-1936,-6616,-2497,328,87,2025-01-29 11:59:59,0.0
-10784,-2736,-6048,-1983,1193,253,2025-01-29 11:59:59,0.0
-11168,-2888,-5728,-1410,1782,536,2025-01-29 11:59:59,0.0
-11964,-2472,-6044,-886,1994,888,2025-01-29 11:59:59,0.0
-12656,-1900,-5524,-297,1740,1308,2025-01-29 11:59:59,0.0
-13200,-940,-6044,202,990,1954,2025-01-29 11:59:59,0.0
-12752,-216,-7080,242,173,2612,2025-01-29 11:59:59,0.0
-12352,352,-7268,54,-615,2876,2025-01-29 11:59:59,0.0
-12080,656,-6680,-124,-988,2897,2025-01-29 11:59:59,0.0
-11564,496,-6448,-371,-1174,2873,2025-01-29 11:59:59,0.0
-10972,504,-5804,-427,-1132,2593,2025-01-29 11:59:59,0.0
-10624,156,-5528,-300,-856,2004,2025-01-29 11:59:59,0.0
-10780,-124,-5456,-155,-358,1719,2025-01-29 11:59:59,0.0
-10972,-152,-5384,39,87,1630,2025-01-29 11:59:59,0.0
-11204,-156,-5288,66,207,1346,2025-01-29 11:59:59,0.0
-11276,20,-5208,260,78,1000,2025-01-29 11:59:59,0.0
-11400,92,-5484,505,-151,677,2025-01-29 11:59:59,0.0
-11360,196,-5404,627,-353,330,2025-01-29 11:59:59,0.0
-11284,176,-5484,509,-242,27,2025-01-29 11:59:59,0.0
-11700,-76,-5052,543,-14,-162,2025-01-29 11:59:59,0.0
-11904,-444,-5408,575,67,-124,2025-01-29 12:00:00,0.0
-12140,-500,-5272,612,139,-247,2025-01-29 12:00:00,0.0
-12632,-796,-5408,845,-1,-292,2025-01-29 12:00:00,0.0
-12980,-632,-5492,1056,-667,-286,2025-01-29 12:00:00,0.0
-13008,-564,-5212,1329,-1209,55,2025-01-29 12:00:00,0.0
-12284,-300,-4572,1525,-1497,323,2025-01-29 12:00:00,0.0
-11860,216,-4556,1582,-1233,357,2025-01-29 12:00:00,0.0
-11660,-76,-4780,1572,-670,289,2025-01-29 12:00:00,0.0
-11800,-244,-4220,1782,0,246,2025-01-29 12:00:00,0.0
-11948,-148,-3720,2017,331,234,2025-01-29 12:00:00,0.0
-12312,-108,-3920,2162,504,173,2025-01-29 12:00:00,0.0
-12648,120,-4000,2172,274,31,2025-01-29 12:00:00,0.0
-13016,12,-4340,2149,-86,-75,2025-01-29 12:00:00,0.0
-12836,-104,-4516,2159,-367,-87,2025-01-29 12:00:00,0.0
-12772,-204,-4284,2271,-518,-107,2025-01-29 12:00:00,0.0
-12616,-296,-4260,2408,-432,10,2025-01-29 12:00:00,0.0
-12932,-440,-4280,2568,96,193,2025-01-29 12:00:00,0.0
-13512,-480,-4864,2819,653,605,2025-01-29 12:00:00,0.0
-13992,-516,-5440,2820,1063,1093,2025-01-29 12:00:00,0.0
-13968,-488,-5968,2679,1075,1385,2025-01-29 12:00:00,0.0
-13700,-364,-6568,2275,900,1677,2025-01-29 12:00:00,0.0
-13288,204,-6160,1969,819,2157,2025-01-29 12:00:00,0.0
-12676,1148,-6924,1495,893,2630,2025-01-29 12:00:00,0.0
-11544,1800,-7092,515,1387,2574,2025-01-29 12:00:00,0.0
-11056,2284,-6900,222,2112,1615,2025-01-29 12:00:00,0.0
-11076,2208,-6840,305,2821,147,2025-01-29 12:00:00,0.0
-11548,1032,-6448,585,3065,-1830,2025-01-29 12:00:00,0.0
-12688,-480,-6864,613,2271,-2949,2025-01-29 12:00:00,0.0
-12804,-1708,-7296,749,1153,-3765,2025-01-29 12:00:00,0.0
-12372,-2816,-7476,1230,442,-5038,2025-01-29 12:00:00,0.0
-12468,-2672,-7660,2181,-1099,-5634,2025-01-29 12:00:00,0.0
-12140,-3032,-8040,2485,-2317,-5083,2025-01-29 12:00:00,0.0
-11328,-3404,-7756,1970,-2895,-3967,2025-01-29 12:00:00,0.0
-10268,-3360,-6504,1664,-3100,-2902,2025-01-29 12:00:00,0.0
-9304,-3384,-5704,1048,-2217,-2515,2025-01-29 12:00:00,0.0
-9456,-3068,-5200,233,-302,-2328,2025-01-29 12:00:00,0.0
-10120,-2932,-5524,-658,1540,-2263,2025-01-29 12:00:00,0.0
-11092,-3352,-5544,-1067,2696,-2437,2025-01-29 12:00:00,0.0
-12512,-4044,-4964,-721,3185,-2931,2025-01-29 12:00:00,0.0
-13956,-4484,-4408,52,2419,-2811,2025-01-29 12:00:00,
-13976,-4728,-5276,750,29,-2010,2025-01-29 12:00:00,0.0
-12964,-4776,-5720,1393,-2278,-1067,2025-01-29 12:00:00,0.0
-11224,-4384,-5748,1770,-2687,-619,2025-01-29 12:00:00,0.0
-9516,-3924,-5868,1491,-2124,-642,2025-01-29 12:00:00,0.0
-8736,-3592,-5852,1119,-539,-748,2025-01-29 12:00:00,0.0
-8620,-3468,-6036,826,1659,-776,2025-01-29 12:00:00,0.0
-8868,-3100,-6232,561,3468,-712,2025-01-29 12:00:00,0.0
-9332,-2864,-6592,216,4704,-733,2025-01-29 12:00:00,0.0
-10380,-2520,-6548,-206,5397,-629,2025-01-29 12:00:00,0.0
-11772,-1772,-6600,-1027,5636,-68,2025-01-29 12:00:00,0.0
-12800,-1424,-6708,-1921,5582,565,2025-01-29 12:00:00,0.0
-13416,-1712,-7080,-2436,5071,931,2025-01-29 12:00:00,0.0
-13804,-2292,-7016,-2808,3582,800,2025-01-29 12:00:00,0.0
-13884,-3084,-6476,-2759,1705,501,2025-01-29 12:00:00,0.0
-13460,-3816,-6676,-2400,-479,567,2025-01-29 12:00:00,0.0
-12904,-3436,-6552,-2093,-1542,1053,2025-01-29 12:00:00,0.0
-11776,-2936,-6260,-1941,-1575,1483,2025-01-29 12:00:00,0.0
-11024,-2820,-6200,-2066,-1212,1736,2025-01-29 12:00:00,0.0
-10588,-2800,-5996,-2199,-556,1782,2025-01-29 12:00:00,0.0
-10520,-3076,-6484,-2266,670,1551,2025-01-29 12:00:00,0.0
-10680,-3400,-7408,-2194,1685,881,2025-01-29 12:00:00,0.0
-11592,-3692,-7348,-1881,2056,191,2025-01-29 12:00:00,0.0
-12500,-3700,-6916,-1150,1562,-22,2025-01-29 12:00:01,0.0
-12964,-3380,-7316,-432,507,265,2025-01-29 12:00:01,0.0
-12496,-2624,-7400,52,-566,472,2025-01-29 12:00:01,0.0
-11828,-2100,-7680,115,-1302,418,2025-01-29 12:00:01,0.0
-11172,-1704,-7276,-35,-1582,447,2025-01-29 12:00:01,0.0
-10212,-1608,-6692,-323,-1270,479,2025-01-29 12:00:01,0.0
-9728,-1652,-6156,-485,-276,208,2025-01-29 12:00:01,0.0
-10056,-1788,-6240,-421,991,-21,2025-01-29 12:00:01,0.0
-10544,-1876,-6528,-329,2069,-89,2025-01-29 12:00:01,0.0
-11436,-1720,-6740,-302,2499,-208,2025-01-29 12:00:01,0.0
-12212,-1444,-6876,-317,2089,-165,2025-01-29 12:00:01,0.0
-12504,-1312,-7088,-370,1072,-65,2025-01-29 12:00:01,0.0
-12156,-1320,-7100,-431,47,82,2025-01-29 12:00:01,0.0
-11392,-1320,-6928,-424,-309,66,2025-01-29 12:00:01,0.0
-10756,-1404,-6996,-430,23,-54,2025-01-29 12:00:01,0.0
-10676,-1360,-7120,-394,948,-216,2025-01-29 12:00:01,0.0
-10892,-1456,-7524,-391,1742,-262,2025-01-29 12:00:01,0.0
-11480,-1376,-7656,-441,1877,-265,2025-01-29 12:00:01,0.0
-11584,-1524,-7760,-472,1376,-259,2025-01-29 12:00:01,0.0
-11648,-1444,-7788,-439,863,-264,2025-01-29 12:00:01,0.0
-11364,-1584,-7368,-472,629,-285,2025-01-29 12:00:01,0.0
-11196,-1548,-7100,-465,573,-323,2025-01-29 12:00:01,0.0
-11120,-1384,-7452,-404,801,-357,2025-01-29 12:00:01,0.0
-10984,-1224,-8000,-434,1114,-421,2025-01-29 12:00:01,0.0
-11152,-1056,-8488,-537,1224,-393,2025-01-29 12:00:01,0.0
-11140,-1196,-8772,-742,981,-245,2025-01-29 12:00:01,0.0
-11064,-1088,-9000,-954,621,-82,2025-01-29 12:00:01,0.0
-11044,-876,-9296,-1337,74,208,2025-01-29 12:00:01,0.0
-10908,-1080,-8736,-1653,-540,398,2025-01-29 12:00:01,0.0
-10488,-1224,-9236,-1892,-1583,520,2025-01-29 12:00:01,0.0
-9792,-1400,-9400,-2185,-3129,852,2025-01-29 12:00:01,0.0
-8784,-1312,-8760,-2673,-5229,1363,2025-01-29 12:00:01,0.0
-6184,-1156,-6896,-3202,-8726,1635,2025-01-29 12:00:01,0.0
-4008,-772,-4504,-3276,-11474,1510,2025-01-29 12:00:01,0.0
-1988,-384,-2280,-2819,-13724,1273,2025-01-29 12:00:01,0.0
-668,-500,132,-2157,-14824,807,2025-01-29 12:00:01,0.0
-260,-1108,2084,-1055,-13832,3,2025-01-29 12:00:01,0.0
-648,-1712,3396,-352,-10852,-128,2025-01-29 12:00:01,0.0
-304,-1876,3004,-255,-8122,52,2025-01-29 12:00:01,0.0
-192,-1764,3340,293,-5550,124,2025-01-29 12:00:01,0.0
-592,-2128,2776,1252,-1748,-98,2025-01-29 12:00:01,0.0
-1428,-2008,1324,1529,2953,-161,2025-01-29 12:00:01,0.0
-4364,-488,-272,1076,6840,-631,2025-01-29 12:00:01,0.0
-7716,796,-1764,383,9157,-24,2025-01-29 12:00:01,0.0
-8960,128,-4452,141,9889,830,2025-01-29 12:00:01,0.0
-9308,-216,-6204,-107,6779,734,2025-01-29 12:00:01,0.0
-11320,-228,-6356,-794,3251,5,2025-01-29 12:00:01,0.0
-14664,-888,-4032,-485,2636,-866,2025-01-29 12:00:01,0.0
-18116,-1584,-2444,534,3280,-527,2025-01-29 12:00:01,0.0
-19156,-1504,-4160,620,2985,439,2025-01-29 12:00:01,0.0
-19216,-308,-5976,3,2457,1821,2025-01-29 12:00:01,0.0
-16968,288,-6608,-206,1788,2112,2025-01-29 12:00:01,0.0
-16264,480,-5248,205,-1340,1492,2025-01-29 12:00:01,0.0
-12848,-80,-7564,637,-4074,812,2025-01-29 12:00:01,0.0
-16532,80,-4352,-142,-4452,530,2025-01-29 12:00:01,0.0
-19484,-1556,-4632,128,-4440,1291,2025-01-29 12:00:01,0.0
-20148,-1628,-4900,313,-5729,1492,2025-01-29 12:00:01,0.0
-19200,-708,-7008,955,-9555,710,2025-01-29 12:00:01,0.0
-19348,68,-7056,757,-12930,191,2025-01-29 12:00:01,0.0
-20084,416,-5632,248,-12325,924,2025-01-29 12:00:01,0.0
-19556,-540,-4280,230,-9249,1239,2025-01-29 12:00:02,0.0
-18632,-856,-5956,595,-6884,622,2025-01-29 12:00:02,0.0
-18840,-868,-7364,321,-7430,79,2025-01-29 12:00:02,0.0
-18788,208,-4508,-372,-9507,414,2025-01-29 12:00:02,0.0
-18960,340,-1836,-919,-6679,-405,2025-01-29 12:00:02,0.0
-19688,-1300,-1300,-890,-7101,-1669,2025-01-29 12:00:02,0.0
-19432,-816,-1344,-123,-9477,-2353,2025-01-29 12:00:02,0.0
-19620,-236,-544,868,-7939,-2595,2025-01-29 12:00:02,0.0
-19460,-1208,-3660,1083,-6412,-2303,2025-01-29 12:00:02,0.0
-18956,-1212,-3792,665,-5190,-1066,2025-01-29 12:00:02,0.0
-20580,-424,-2444,440,-4830,-488,2025-01-29 12:00:02,0.0
-20024,-516,-2428,310,-4889,-168,2025-01-29 12:00:02,0.0
-17880,-1624,-936,262,-4693,98,2025-01-29 12:00:02,0.0
-16492,-2896,552,333,-2046,-300,2025-01-29 12:00:02,0.0
-15680,-4236,1992,1536,944,-1121,2025-01-29 12:00:02,0.0
-15564,-4800,1044,2635,1834,-1481,2025-01-29 12:00:02,0.0
-15408,-1852,948,2385,541,-1830,2025-01-29 12:00:02,0.0
-16396,1268,1336,1131,368,-1750,2025-01-29 12:00:02,
-14960,2244,1180,85,1458,-1461,2025-01-29 12:00:02,0.0
-14328,456,1624,-437,1263,-1147,2025-01-29 12:00:02,0.0
-13112,-612,1584,-628,1142,-785,2025-01-29 12:00:02,0.0
-11504,-996,2116,-268,1798,-601,2025-01-29 12:00:02,0.0
-10828,-1368,1508,-115,2381,-629,2025-01-29 12:00:02,0.0
-10564,-1692,640,282,2302,-958,2025-01-29 12:00:02,0.0
-11064,-2140,-284,822,2141,-1009,2025-01-29 12:00:02,0.0
-11448,-2496,-964,1100,1315,-562,2025-01-29 12:00:02,0.0
-12188,-2480,-1332,1149,1134,190,2025-01-29 12:00:02,0.0
-12468,-2440,-1568,1393,841,170,2025-01-29 12:00:02,0.0
-12896,-1404,-1024,1304,283,39,2025-01-29 12:00:02,0.0
-13036,-536,-1012,1066,-734,-77,2025-01-29 12:00:02,0.0
-13944,-300,64,718,-1993,-238,2025-01-29 12:00:02,0.0
-13444,120,-520,270,-2081,-299,2025-01-29 12:00:02,0.0
-13784,-260,-904,-247,-1690,-302,2025-01-29 12:00:02,0.0
-14432,-1920,-208,-477,-584,-425,2025-01-29 12:00:02,0.0
-14356,-2456,-420,-590,-52,-367,2025-01-29 12:00:02,0.0
-14892,-1212,496,-849,-378,-311,2025-01-29 12:00:02,0.0
-14352,-568,68,-1146,-1290,-230,2025-01-29 12:00:02,0.0
-13828,-884,40,-1216,-1459,-243,2025-01-29 12:00:02,0.0
-13864,-1520,-124,-1233,-234,-80,2025-01-29 12:00:02,0.0
-14060,-2264,-272,-1195,1209,174,2025-01-29 12:00:02,0.0
-14148,-1940,-324,-1094,1036,318,2025-01-29 12:00:02,0.0
-14352,-1396,-676,-1060,523,287,2025-01-29 12:00:02,0.0
-14144,-1108,-596,-1096,-71,109,2025-01-29 12:00:02,0.0
-13916,-1148,-480,-960,-69,-35,2025-01-29 12:00:02,0.0
-13680,-1180,-364,-811,-188,-144,2025-01-29 12:00:02,0.0
-13460,-1088,-340,-728,-111,-243,2025-01-29 12:00:02,0.0
-13556,-1020,-64,-715,417,-310,2025-01-29 12:00:02,0.0
-13884,-1076,64,-662,663,-300,2025-01-29 12:00:02,0.0
-14020,-1256,-52,-599,462,-286,2025-01-29 12:00:02,0.0
-14264,-1252,-76,-502,217,-230,2025-01-29 12:00:02,0.0
-13988,-1124,-76,-488,227,-246,2025-01-29 12:00:02,0.0
-13704,-996,52,-554,412,-458,2025-01-29 12:00:02,0.0
-13592,-908,156,-638,642,-756,2025-01-29 12:00:02,0.0
-13536,-1060,236,-627,1031,-947,2025-01-29 12:00:02,0.0
-13488,-1304,128,-646,1496,-875,2025-01-29 12:00:02,0.0
-13528,-1648,40,-548,1663,-799,2025-01-29 12:00:02,0.0
-13984,-1836,-404,-130,1442,-782,2025-01-29 12:00:02,0.0
-14276,-2036,-944,399,1073,-671,2025-01-29 12:00:02,0.0
-14128,-1900,-1568,530,644,-501,2025-01-29 12:00:03,0.0
-13656,-1608,-1548,439,59,-418,2025-01-29 12:00:03,0.0
-13060,-1460,-1348,317,-260,-361,2025-01-29 12:00:03,0.0
-12668,-1144,-1052,149,-114,-222,2025-01-29 12:00:03,0.0
-12504,-916,-720,-82,404,-64,2025-01-29 12:00:03,0.0
-12772,-848,-272,-294,664,20,2025-01-29 12:00:03,0.0
-13360,-1148,-456,-431,606,57,2025-01-29 12:00:03,0.0
-13832,-1504,-316,-483,387,19,2025-01-29 12:00:03,0.0
-13944,-1660,-280,-386,289,-95,2025-01-29 12:00:03,0.0
-14148,-2068,-124,-193,208,-194,2025-01-29 12:00:03,0.0
-14312,-1992,-144,-72,-94,-110,2025-01-29 12:00:03,0.0
-14300,-1520,-456,-78,-409,63,2025-01-29 12:00:03,0.0
-13988,-816,-680,-143,-514,169,2025-01-29 12:00:03,0.0
-13692,-524,-804,-268,-511,170,2025-01-29 12:00:03,0.0
-13836,-1124,-540,-404,-241,239,2025-01-29 12:00:03,0.0
-13788,-1440,-536,-410,-44,273,2025-01-29 12:00:03,0.0
-13788,-1548,-760,-417,54,237,2025-01-29 12:00:03,0.0
-13756,-1404,-636,-389,209,184,2025-01-29 12:00:03,0.0
-13828,-1460,-416,-379,371,75,2025-01-29 12:00:03,0.0
-13832,-1544,-556,-292,454,14,2025-01-29 12:00:03,0.0
-13972,-1532,-644,-257,458,34,2025-01-29 12:00:03,0.0
-13952,-1196,-592,-261,367,-31,2025-01-29 12:00:03,0.0
-13824,-1068,-672,-285,302,-72,2025-01-29 12:00:03,0.0
-13748,-1008,-616,-311,195,-87,2025-01-29 12:00:03,0.0
-13568,-1128,-588,-439,160,-107,2025-01-29 12:00:03,0.0
-13348,-1016,-432,-454,330,-131,2025-01-29 12:00:03,0.0
-13244,-1176,-136,-411,469,-94,2025-01-29 12:00:03,0.0
-13068,-1520,-4,-431,621,-118,2025-01-29 12:00:03,0.0
-13140,-1484,-236,-478,881,-145,2025-01-29 12:00:03,0.0
-13492,-1164,-192,-572,833,-117,2025-01-29 12:00:03,0.0
-13692,-1220,-492,-600,633,-2,2025-01-29 12:00:03,0.0
-13716,-1240,-316,-589,488,114,2025-01-29 12:00:03,0.0
-13676,-1264,-140,-496,418,154,2025-01-29 12:00:03,0.0
-13724,-1108,-256,-439,242,93,2025-01-29 12:00:03,0.0
-13784,-1176,-468,-372,157,28,2025-01-29 12:00:03,0.0
-13764,-1052,-548,-323,77,-66,2025-01-29 12:00:03,0.0
-13652,-1156,-428,-272,87,-178,2025-01-29 12:00:03,0.0
-13904,-1504,-476,-157,49,-164,2025-01-29 12:00:03,0.0
-13860,-1440,-796,-96,-63,-35,2025-01-29 12:00:03,0.0
-13700,-1132,-784,-103,-152,22,2025-01-29 12:00:03,0.0
-13640,-1052,-764,-102,-84,-86,2025-01-29 12:00:03,0.0
-13828,-1136,-840,-130,-212,-192,2025-01-29 12:00:03,0.0
-13896,-1140,-708,-172,-297,-202,2025-01-29 12:00:03,0.0
-13688,-1056,-444,-270,-198,-152,2025-01-29 12:00:03,0.0
-13732,-1240,-208,-322,-66,-149,2025-01-29 12:00:03,0.0
-13792,-1472,-392,-246,13,-70,2025-01-29 12:00:03,0.0
-13724,-1348,-464,-232,-25,-13,2025-01-29 12:00:03,0.0
-13704,-1220,-620,-176,-78,56,2025-01-29 12:00:03,0.0
-13700,-1220,-712,-209,-98,70,2025-01-29 12:00:03,0.0
-13844,-1096,-508,-215,-102,146,2025-01-29 12:00:03,0.0
-13900,-1036,-472,-257,-99,313,2025-01-29 12:00:03,0.0
-13584,-888,-388,-301,-215,273,2025-01-29 12:00:03,0.0
-13320,-964,-236,-291,-180,79,2025-01-29 12:00:03,0.0
-13628,-1012,-232,-279,64,-9,2025-01-29 12:00:03,0.0
-13776,-1136,-176,-206,119,20,2025-01-29 12:00:03,0.0
-13856,-1100,-368,-197,-47,-41,2025-01-29 12:00:03,0.0
-13856,-1136,-204,-125,-84,-45,2025-01-29 12:00:03,0.0
-13744,-1020,-484,-106,-74,-68,2025-01-29 12:00:03,0.0
-13632,-980,-352,-12,-162,-85,2025-01-29 12:00:03,0.0
-13492,-988,-344,-40,-231,-107,2025-01-29 12:00:03,
-13512,-984,-308,-33,-142,-154,2025-01-29 12:00:03,0.0
-13472,-1108,-140,-26,3,-147,2025-01-29 12:00:03,0.0
-13748,-1088,-308,-25,188,-108,2025-01-29 12:00:03,0.0
-13800,-1000,-464,-62,145,-68,2025-01-29 12:00:04,0.0
-13740,-1008,-464,-125,-5,-52,2025-01-29 12:00:04,0.0
-13660,-844,-372,-141,-233,-102,2025-01-29 12:00:04,0.0
-13612,-992,-56,-194,-251,-84,2025-01-29 12:00:04,0.0
-13612,-1116,-112,-125,-151,-122,2025-01-29 12:00:04,0.0
-13752,-1172,-100,-94,35,-137,2025-01-29 12:00:04,0.0
-13852,-1176,-292,-69,163,-71,2025-01-29 12:00:04,0.0
-13648,-1040,-320,21,288,-67,2025-01-29 12:00:04,0.0
-13772,-1468,24,90,462,-15,2025-01-29 12:00:04,0.0
-14088,-1640,-52,226,647,115,2025-01-29 12:00:04,0.0
-14028,-1500,-284,157,776,306,2025-01-29 12:00:04,0.0
-13896,-948,-928,-51,707,504,2025-01-29 12:00:04,0.0
-13240,-332,-684,-359,258,267,2025-01-29 12:00:04,0.0
-13288,-408,-516,-488,-239,-143,2025-01-29 12:00:04,0.0
-13480,-796,-192,-457,-386,-365,2025-01-29 12:00:04,0.0
-13640,-1128,72,-379,-49,-372,2025-01-29 12:00:04,0.0
-13800,-1264,-24,-231,342,-341,2025-01-29 12:00:04,0.0
-14116,-1356,-60,-104,461,-244,2025-01-29 12:00:04,0.0
-14176,-1048,-196,-26,137,-134,2025-01-29 12:00:04,0.0
-13932,-844,-216,-6,-106,-172,2025-01-29 12:00:04,0.0
-13896,-704,-260,-44,-144,-117,2025-01-29 12:00:04,0.0
-13756,-524,-328,-114,-214,-149,2025-01-29 12:00:04,0.0
-13624,-584,-60,-216,-154,-204,2025-01-29 12:00:04,0.0
-13572,-928,-128,-222,-15,-264,2025-01-29 12:00:04,0.0
-13508,-1120,-144,-173,87,-289,2025-01-29 12:00:04,0.0
-13652,-1116,-68,-58,159,-293,2025-01-29 12:00:04,0.0
-13752,-988,-220,-19,96,-225,2025-01-29 12:00:04,0.0
-13832,-968,-288,-41,-35,-187,2025-01-29 12:00:04,0.0
-13800,-844,-228,-105,-56,-182,2025-01-29 12:00:04,0.0
-13656,-788,-232,-221,-96,-222,2025-01-29 12:00:04,0.0
-13528,-744,-340,-239,-73,-269,2025-01-29 12:00:04,0.0
-13540,-1036,-168,-247,56,-290,2025-01-29 12:00:04,0.0
-13484,-1080,-140,-195,125,-292,2025-01-29 12:00:04,0.0
-13624,-952,-40,-135,170,-305,2025-01-29 12:00:04,0.0
-13800,-948,-120,-72,131,-318,2025-01-29 12:00:04,0.0
-13764,-880,-348,-49,47,-283,2025-01-29 12:00:04,0.0
-13840,-984,-300,-52,10,-257,2025-01-29 12:00:04,0.0
-13832,-940,-244,-99,-59,-260,2025-01-29 12:00:04,0.0
-13544,-800,-312,-153,-110,-249,2025-01-29 12:00:04,0.0
-13688,-764,-68,-195,33,-238,2025-01-29 12:00:04,0.0
-13772,-1056,48,-195,381,-289,2025-01-29 12:00:04,0.0
-13852,-1264,636,-92,1226,-474,2025-01-29 12:00:04,0.0
-15184,-1500,408,204,2647,-817,2025-01-29 12:00:04,0.0
-17032,-1448,-56,388,3412,-691,2025-01-29 12:00:04,0.0
-17992,-1316,-652,263,4132,-574,2025-01-29 12:00:04,0.0
-19052,-1536,-1436,179,5008,-706,2025-01-29 12:00:04,0.0
-20156,-2856,-1588,333,5510,-850,2025-01-29 12:00:04,0.0
-20320,-4444,-2896,526,6099,-1159,2025-01-29 12:00:04,0.0
-21672,-4788,-3352,479,7632,-1369,2025-01-29 12:00:04,0.0
-22236,-3204,-4056,493,9113,-1035,2025-01-29 12:00:04,0.0
-21808,-1980,-5276,354,8548,-246,2025-01-29 12:00:04,0.0
-20584,-1352,-5104,76,7090,79,2025-01-29 12:00:04,0.0
-19356,-1076,-5288,204,5909,-173,2025-01-29 12:00:04,0.0
-19060,-320,-4920,229,4748,-470,2025-01-29 12:00:04,0.0
-16992,-332,-4800,-10,3004,-788,2025-01-29 12:00:04,0.0
-17872,-688,-3468,-291,2471,-715,2025-01-29 12:00:04,0.0
-15592,-968,-3076,-303,2422,-408,2025-01-29 12:00:04,0.0
-15124,-916,-1964,-135,1924,-536,2025-01-29 12:00:04,0.0
-14516,-1292,-1384,206,1951,-625,2025-01-29 12:00:04,0.0
-13900,-1472,-1616,134,3090,-460,2025-01-29 12:00:04,0.0
-13792,-1512,-1204,136,3917,226,2025-01-29 12:00:04,0.0
-14080,-1700,-828,250,4886,960,2025-01-29 12:00:04,0.0
-13448,-1136,-1740,94,5445,1055,2025-01-29 12:00:05,0.0
-13948,-520,-2064,164,6032,615,2025-01-29 12:00:05,0.0
-14732,-560,-2220,192,5929,297,2025-01-29 12:00:05,0.0
-14512,-944,-3624,317,4754,593,2025-01-29 12:00:05,0.0
-14544,-1296,-4076,49,3982,1183,2025-01-29 12:00:05,0.0
-13076,-1300,-5708,-213,3576,1598,2025-01-29 12:00:05,0.0
-13292,-848,-5256,-620,3359,1301,2025-01-29 12:00:05,0.0
-12268,-824,-5432,-703,2100,637,2025-01-29 12:00:05,0.0
-13408,-140,-4448,-493,1331,228,2025-01-29 12:00:05,0.0
-14008,260,-4376,-403,984,138,2025-01-29 12:00:05,0.0
-14292,392,-4200,-844,538,449,2025-01-29 12:00:05,0.0
-13356,-372,-5028,-1456,78,579,2025-01-29 12:00:05,0.0
-13520,-680,-3636,-1625,-985,406,2025-01-29 12:00:05,0.0
-12776,-492,-4040,-1657,-1825,227,2025-01-29 12:00:05,0.0
-12128,-120,-3748,-1298,-961,264,2025-01-29 12:00:05,0.0
-11048,-236,-3712,-1206,1037,566,2025-01-29 12:00:05,0.0
-9872,-4,-4448,-1609,2003,699,2025-01-29 12:00:05,0.0
-10248,-8,-3260,-1850,1803,472,2025-01-29 12:00:05,0.0
-9388,-76,-3656,-1648,1686,150,2025-01-29 12:00:05,0.0
-9136,-212,-3732,-1521,1736,-225,2025-01-29 12:00:05,0.0
-9080,-192,-3800,-1553,1705,-266,2025-01-29 12:00:05,0.0
-8720,12,-3776,-1759,986,-13,2025-01-29 12:00:05,0.0
-8208,44,-3200,-1642,29,234,2025-01-29 12:00:05,0.0
-7236,-540,-3612,-1407,-1063,461,2025-01-29 12:00:05,0.0
-7360,-568,-2040,-1099,-1905,622,2025-01-29 12:00:05,0.0
-6860,-1044,-1444,-698,-2404,706,2025-01-29 12:00:05,0.0
-6924,-1340,-1232,-436,-2346,841,2025-01-29 12:00:05,0.0
-6532,-1264,-624,-246,-1836,922,2025-01-29 12:00:05,0.0
-6188,-1052,-596,113,-1057,839,2025-01-29 12:00:05,0.0
-5640,-892,-848,526,-479,617,2025-01-29 12:00:05,0.0
-4592,-580,-2184,1051,-405,127,2025-01-29 12:00:05,0.0
-3620,-956,-3348,1254,-1462,-618,2025-01-29 12:00:05,0.0
-3888,-804,-3280,1460,-1798,-1409,2025-01-29 12:00:05,0.0
-4724,-880,-3192,1411,-75,-1910,2025-01-29 12:00:05,0.0
-6056,-620,-3496,1145,3797,-2024,2025-01-29 12:00:05,
-7052,-932,-3996,567,8785,-1851,2025-01-29 12:00:05,0.0
-7280,-1552,-4528,414,11132,-1624,2025-01-29 12:00:05,0.0
-7584,-2380,-6840,986,11129,-1834,2025-01-29 12:00:05,0.0
-9336,-2812,-8476,1567,10096,-2284,2025-01-29 12:00:05,0.0
-9620,-2816,-10572,2029,8901,-2287,2025-01-29 12:00:05,0.0
-12156,-3092,-10424,2094,8268,-1502,2025-01-29 12:00:05,0.0
-14704,-3092,-9416,1509,7934,-293,2025-01-29 12:00:05,0.0
-16588,-1792,-7100,812,6249,1153,2025-01-29 12:00:05,0.0
-18524,16,-4396,904,1976,2083,2025-01-29 12:00:05,0.0
-10808,2196,-5756,2124,-2360,1356,2025-01-29 12:00:05,0.0
-22036,2276,-6004,3925,6351,-1039,2025-01-29 12:00:05,0.0
-22496,248,-13484,3232,21667,-3006,2025-01-29 12:00:05,0.0
-13700,-944,-16504,-557,22168,-2328,2025-01-29 12:00:05,0.0
-7716,-1340,-15256,-3392,752,-7,2025-01-29 12:00:05,0.0
-6572,-1180,-11720,-2807,-24729,1579,2025-01-29 12:00:05,0.0
-9060,-380,-9164,-2581,-32768,1154,2025-01-29 12:00:05,0.0
-10444,512,14292,-2228,-32768,379,2025-01-29 12:00:05,0.0
-11764,-1444,1772,-1293,-18708,-217,2025-01-29 12:00:05,0.0
-8240,-2052,-2652,-767,-4484,295,2025-01-29 12:00:05,0.0
-7308,-896,-2280,-245,3559,-124,2025-01-29 12:00:05,0.0
-8532,-56,-2904,226,7904,-1816,2025-01-29 12:00:05,0.0
-10748,-496,-3964,-186,9379,-2692,2025-01-29 12:00:05,0.0
-12992,-1484,-4676,-208,8830,-2364,2025-01-29 12:00:05,0.0
-14220,-2584,-5800,36,7102,-1514,2025-01-29 12:00:05,0.0
-15440,-3276,-7072,341,5736,-407,2025-01-29 12:00:05,0.0
-15828,-2712,-7056,772,4636,531,2025-01-29 12:00:05,0.0
-15752,-1472,-6220,1160,1521,1034,2025-01-29 12:00:05,0.0
-13256,-356,-6720,1318,-3734,970,2025-01-29 12:00:05,0.0
-11884,-216,-4700,1558,-6104,358,2025-01-29 12:00:06,0.0
-10764,-1004,-5272,1190,-3307,132,2025-01-29 12:00:06,0.0
-10196,-1612,-5648,883,658,143,2025-01-29 12:00:06,0.0
-10680,-1500,-5668,888,3627,174,2025-01-29 12:00:06,0.0
-11756,-1120,-5244,825,4183,-111,2025-01-29 12:00:06,0.0
-13556,-536,-4960,899,3116,-394,2025-01-29 12:00:06,0.0
-14636,-40,-5264,711,735,-78,2025-01-29 12:00:06,0.0
-14404,-32,-5612,225,-1764,436,2025-01-29 12:00:06,0.0
-13236,-356,-5548,-38,-3045,547,2025-01-29 12:00:06,0.0
-12120,-824,-5524,-213,-2880,490,2025-01-29 12:00:06,0.0
-11180,-1220,-5220,-221,-1692,315,2025-01-29 12:00:06,0.0
-10864,-1564,-5256,-104,-104,77,2025-01-29 12:00:06,0.0
-11324,-1568,-5256,-14,1108,44,2025-01-29 12:00:06,0.0
-12240,-1188,-5344,0,1371,35,2025-01-29 12:00:06,0.0
-12716,-832,-5724,-14,1072,98,2025-01-29 12:00:06,0.0
-13092,-616,-5648,-150,494,133,2025-01-29 12:00:06,0.0
-12964,-676,-5472,-294,-311,67,2025-01-29 12:00:06,0.0
-12608,-928,-5556,-383,-906,132,2025-01-29 12:00:06,0.0
-11952,-1256,-5396,-437,-921,134,2025-01-29 12:00:06,0.0
-11568,-1376,-5104,-459,-344,156,2025-01-29 12:00:06,0.0
-11332,-1432,-5180,-422,518,188,2025-01-29 12:00:06,0.0
-11636,-904,-5104,-513,1395,245,2025-01-29 12:00:06,0.0
-11988,-192,-5900,-849,1869,399,2025-01-29 12:00:06,0.0
-12096,412,-6668,-1404,1978,716,2025-01-29 12:00:06,0.0
-11692,708,-6540,-1806,2175,785,2025-01-29 12:00:06,0.0
-11452,1164,-7104,-2250,2845,598,2025-01-29 12:00:06,0.0
-11340,1120,-7636,-2562,3534,296,2025-01-29 12:00:06,0.0
-11540,332,-7768,-2887,3800,-384,2025-01-29 12:00:06,0.0
-12612,-580,-6364,-2738,3675,-819,2025-01-29 12:00:06,0.0
-13616,-1404,-5700,-2312,2742,-666,2025-01-29 12:00:06,0.0
-13648,-1428,-5364,-2153,739,-164,2025-01-29 12:00:06,0.0
-12848,-812,-4860,-1638,-1086,-80,2025-01-29 12:00:06,0.0
-12472,-132,-4204,-1265,-2015,-210,2025-01-29 12:00:06,0.0
-11412,616,-4156,-1012,-2401,-813,2025-01-29 12:00:06,0.0
-10192,1856,-4756,-1718,-2611,-1705,2025-01-29 12:00:06,0.0
-9280,1908,-4036,-1678,-2230,-3222,2025-01-29 12:00:06,0.0
-9996,756,-4032,-1984,-951,-4661,2025-01-29 12:00:06,0.0
-11056,-852,-3632,-2332,597,-5217,2025-01-29 12:00:06,0.0
-12112,-2640,-3756,-2259,2080,-5768,2025-01-29 12:00:06,0.0
-13696,-2940,-4992,-2068,2581,-5539,2025-01-29 12:00:06,0.0
-14560,-1380,-7160,-2397,2268,-4338,2025-01-29 12:00:06,0.0
-14344,108,-9012,-2884,2224,-3308,2025-01-29 12:00:06,0.0
-13200,984,-9664,-3464,1529,-2792,2025-01-29 12:00:06,0.0
-11776,1016,-8260,-4045,-399,-3485,2025-01-29 12:00:06,0.0
-10588,-3132,-5716,-3837,-368,-4570,2025-01-29 12:00:06,0.0
-10308,-3592,-5552,-3304,811,-4034,2025-01-29 12:00:06,0.0
-10028,-2832,-5852,-2923,2416,-3741,2025-01-29 12:00:06,0.0
-10268,-1516,-6868,-3140,3599,-4102,2025-01-29 12:00:06,0.0
-12084,-20,-7692,-4263,3945,-4644,2025-01-29 12:00:06,0.0
-13028,732,-7848,-5512,3159,-4780,2025-01-29 12:00:06,0.0
-14096,736,-7100,-6871,1201,-5224,2025-01-29 12:00:06,0.0
-14180,152,-7208,-7995,-997,-5890,2025-01-29 12:00:06,0.0
-13920,-888,-7176,-8902,-3074,-6375,2025-01-29 12:00:06,0.0
-13080,-2052,-6636,-9519,-4556,-6639,2025-01-29 12:00:06,0.0
-11736,-2908,-6628,-10031,-4839,-6881,2025-01-29 12:00:06,0.0
-10728,-3128,-6496,-10296,-3871,-6982,2025-01-29 12:00:07,0.0
-9940,-3076,-6352,-10418,-2257,-7124,2025-01-29 12:00:07,0.0
-9796,-2896,-6276,-10528,-530,-7406,2025-01-29 12:00:07,0.0
-10332,-2888,-6392,-10640,566,-7696,2025-01-29 12:00:07,0.0
-10996,-3224,-6684,-10841,936,-8031,2025-01-29 12:00:07,0.0
-11740,-3668,-6756,-11082,455,-8234,2025-01-29 12:00:07,0.0
-11868,-3772,-7004,-11098,-461,-8038,2025-01-29 12:00:07,0.0
-12264,-3416,-6580,-11092,-1153,-7538,2025-01-29 12:00:07,0.0
-11432,-2992,-6696,-11179,-1566,-7226,2025-01-29 12:00:07,0.0
-10860,-2756,-6688,-11363,-1593,-7221,2025-01-29 12:00:07,0.0
