acceleration_x,acceleration_y,acceleration_z,gyroscope_x,gyroscope_y,gyroscope_z,timestamp,label
1076,8,18624,-79,62,-234,2025-01-29 11:11:27,0.0
648,92,18636,29,-29,-279,2025-01-29 11:11:27,0.0
672,84,18456,20,69,-113,2025-01-29 11:11:27,0.0
836,32,18316,-58,130,-101,2025-01-29 11:11:27,0.0
940,-92,18352,-250,281,-88,2025-01-29 11:11:27,0.0
908,-60,18464,-395,205,-44,2025-01-29 11:11:27,0.0
1176,36,18740,-353,161,-157,2025-01-29 11:11:27,0.0
1064,-60,18640,-232,168,-215,2025-01-29 11:11:27,0.0
900,-8,18440,-276,125,-183,2025-01-29 11:11:27,0.0
924,-44,18592,-354,142,-115,2025-01-29 11:11:27,0.0
792,20,18500,-279,135,-131,2025-01-29 11:11:27,0.0
740,44,18292,-217,104,-43,2025-01-29 11:11:27,0.0
808,92,18416,-212,68,-47,2025-01-29 11:11:27,0.0
740,60,18404,-204,67,-36,2025-01-29 11:11:27,0.0
800,4,18688,-56,220,-103,2025-01-29 11:11:27,0.0
796,12,18548,143,182,-144,2025-01-29 11:11:27,0.0
904,8,18568,168,-30,-95,2025-01-29 11:11:27,0.0
964,-40,18604,55,-10,-73,2025-01-29 11:11:27,0.0
972,-28,18400,-129,204,-60,2025-01-29 11:11:27,0.0
1016,12,18456,-274,202,-45,2025-01-29 11:11:27,0.0
992,36,18708,-298,106,-41,2025-01-29 11:11:27,0.0
1044,-4,18640,-217,119,-79,2025-01-29 11:11:27,0.0
816,84,18612,-112,211,-69,2025-01-29 11:11:27,0.0
980,116,18412,-52,137,-134,2025-01-29 11:11:27,0.0
780,-8,18456,-76,111,-136,2025-01-29 11:11:27,0.0
864,24,18284,-65,72,-116,2025-01-29 11:11:27,0.0
872,32,18400,-121,107,-91,2025-01-29 11:11:27,0.0
1008,100,18472,-97,96,-92,2025-01-29 11:11:27,0.0
1028,60,18556,-70,274,-132,2025-01-29 11:11:27,0.0
1084,168,18632,-39,283,-162,2025-01-29 11:11:27,0.0
944,120,18560,-19,89,-182,2025-01-29 11:11:27,0.0
764,-20,18456,50,31,-157,2025-01-29 11:11:27,0.0
868,28,18384,-50,31,-129,2025-01-29 11:11:27,0.0
876,-4,18432,-122,199,-107,2025-01-29 11:11:27,0.0
1076,52,18556,-182,326,-116,2025-01-29 11:11:27,0.0
1208,184,18504,-138,238,-180,2025-01-29 11:11:27,0.0
944,68,18624,-166,68,-150,2025-01-29 11:11:27,0.0
852,56,18544,-223,99,-75,2025-01-29 11:11:27,0.0
832,68,18684,-252,133,-115,2025-01-29 11:11:27,0.0
1048,32,18400,-97,9,-147,2025-01-29 11:11:27,0.0
1032,-20,18620,97,85,-239,2025-01-29 11:11:27,0.0
928,120,18552,301,216,-371,2025-01-29 11:11:27,0.0
792,116,18440,273,81,-298,2025-01-29 11:11:27,0.0
788,116,18252,18,82,-164,2025-01-29 11:11:27,0.0
888,84,18352,-339,256,-95,2025-01-29 11:11:27,0.0
984,152,18672,-399,321,-28,2025-01-29 11:11:27,0.0
1236,152,18844,-371,261,-59,2025-01-29 11:11:27,0.0
1228,148,18580,-157,-46,-226,2025-01-29 11:11:27,0.0
1016,284,18308,-124,-49,-309,2025-01-29 11:11:27,0.0
884,216,17956,-176,-196,-261,2025-01-29 11:11:27,0.0
1000,24,18232,-131,-83,-184,2025-01-29 11:11:27,0.0
680,100,18444,-176,34,-103,2025-01-29 11:11:27,0.0
584,-40,17892,-340,-447,131,2025-01-29 11:11:28,0.0
744,-132,17620,-861,-1395,208,2025-01-29 11:11:28,0.0
920,-152,18260,-800,-1373,146,2025-01-29 11:11:28,0.0
976,-248,18432,-545,68,42,2025-01-29 11:11:28,0.0
1660,-144,18328,-346,857,-299,2025-01-29 11:11:28,0.0
1804,-256,18352,-529,-967,-553,2025-01-29 11:11:28,0.0
648,-16,19112,-423,-1175,-209,2025-01-29 11:11:28,0.0
496,72,18808,-507,203,160,2025-01-29 11:11:28,0.0
1120,-224,18532,-773,345,274,2025-01-29 11:11:28,0.0
1092,-100,19040,-745,-450,266,2025-01-29 11:11:28,0.0
1088,-120,19488,-232,-481,283,2025-01-29 11:11:28,0.0
1088,-116,18844,57,-354,268,2025-01-29 11:11:28,0.0
932,-12,18736,109,-991,272,2025-01-29 11:11:28,0.0
856,160,18680,294,-1604,569,2025-01-29 11:11:28,0.0
1268,268,18580,479,-1610,755,2025-01-29 11:11:28,0.0
1972,80,17780,262,-1462,616,2025-01-29 11:11:28,0.0
2096,92,17644,-203,-941,239,2025-01-29 11:11:28,0.0
2052,-36,17968,-532,147,-68,2025-01-29 11:11:28,0.0
1940,120,18528,-586,1354,-288,2025-01-29 11:11:28,0.0
1404,128,18944,-330,2362,-286,2025-01-29 11:11:28,0.0
1316,-96,19096,-139,2609,-425,2025-01-29 11:11:28,0.0
1244,8,18880,-152,2075,-502,2025-01-29 11:11:28,0.0
1096,-104,18768,-181,1386,-375,2025-01-29 11:11:28,0.0
1248,96,18524,-309,434,-392,2025-01-29 11:11:28,0.0
1344,40,18388,-623,-453,-430,2025-01-29 11:11:28,0.0
1120,176,18460,-620,-512,-381,2025-01-29 11:11:28,0.0
1196,152,19192,-192,423,-390,2025-01-29 11:11:28,0.0
1544,188,19536,405,1291,-582,2025-01-29 11:11:28,0.0
1720,152,19632,1101,1320,-800,2025-01-29 11:11:28,0.0
1280,320,19488,1668,1025,-863,2025-01-29 11:11:28,0.0
916,548,18516,1701,865,-803,2025-01-29 11:11:28,0.0
508,480,17364,1170,665,-524,2025-01-29 11:11:28,0.0
368,700,17584,536,557,-134,2025-01-29 11:11:28,0.0
488,480,18716,744,778,218,2025-01-29 11:11:28,0.0
300,284,19332,1210,1085,467,2025-01-29 11:11:28,0.0
740,136,18540,1110,996,618,2025-01-29 11:11:28,0.0
1436,12,17528,211,445,408,2025-01-29 11:11:28,0.0
1408,-156,17172,-541,1148,231,2025-01-29 11:11:28,0.0
1216,-280,17756,-1191,2254,279,2025-01-29 11:11:28,0.0
1224,40,18380,-1291,2850,30,2025-01-29 11:11:28,0.0
844,136,19480,-692,3201,-286,2025-01-29 11:11:28,0.0
732,440,20060,271,3155,-453,2025-01-29 11:11:28,0.0
992,304,19464,1257,1904,-603,2025-01-29 11:11:28,0.0
1132,244,18360,1222,213,-746,2025-01-29 11:11:28,0.0
692,380,18176,867,-220,-916,2025-01-29 11:11:28,0.0
524,348,19024,1179,948,-949,2025-01-29 11:11:28,0.0
780,728,19940,2100,2019,-921,2025-01-29 11:11:28,0.0
1144,820,20200,3010,1288,-1146,2025-01-29 11:11:28,
508,276,17792,2723,592,-1048,2025-01-29 11:11:28,0.0
32,860,16660,1550,789,-752,2025-01-29 11:11:28,0.0
-72,832,17344,878,1756,-526,2025-01-29 11:11:28,0.0
424,968,18156,911,2178,-641,2025-01-29 11:11:28,0.0
496,912,18580,1151,1465,-985,2025-01-29 11:11:28,0.0
244,572,17656,876,713,-1000,2025-01-29 11:11:28,0.0
-60,640,17144,14,395,-937,2025-01-29 11:11:28,0.0
-52,856,17456,-538,515,-895,2025-01-29 11:11:28,0.0
512,836,17168,-899,145,-962,2025-01-29 11:11:28,0.0
432,944,17956,-1029,-853,-1061,2025-01-29 11:11:28,0.0
356,828,19240,-473,-1694,-1069,2025-01-29 11:11:28,0.0
-256,700,18548,-360,-1964,-965,2025-01-29 11:11:28,0.0
-228,572,16980,-1091,-1520,-711,2025-01-29 11:11:28,0.0
-4,596,17056,-1595,-1026,-692,2025-01-29 11:11:28,0.0
196,436,18208,-1281,-1282,-625,2025-01-29 11:11:29,0.0
-40,464,19164,-560,-1199,-475,2025-01-29 11:11:29,0.0
-48,344,18812,-219,-441,-455,2025-01-29 11:11:29,0.0
104,440,18024,-503,-41,-291,2025-01-29 11:11:29,0.0
380,668,17848,-1068,46,21,2025-01-29 11:11:29,0.0
752,724,18240,-1231,57,108,2025-01-29 11:11:29,0.0
652,596,18984,-852,204,25,2025-01-29 11:11:29,0.0
492,396,19004,-503,1033,74,2025-01-29 11:11:29,0.0
584,372,18808,-423,1113,-163,2025-01-29 11:11:29,0.0
448,500,18584,-449,457,-250,2025-01-29 11:11:29,0.0
252,432,18684,-261,-25,-175,2025-01-29 11:11:29,0.0
144,576,18816,-35,273,-5,2025-01-29 11:11:29,0.0
352,504,18948,34,1093,91,2025-01-29 11:11:29,0.0
756,400,18780,-80,1127,-67,2025-01-29 11:11:29,0.0
572,500,19040,111,639,-226,2025-01-29 11:11:29,0.0
-52,644,18604,391,89,-96,2025-01-29 11:11:29,0.0
16,580,18068,313,175,46,2025-01-29 11:11:29,0.0
196,576,18276,276,347,28,2025-01-29 11:11:29,0.0
368,584,18108,233,490,98,2025-01-29 11:11:29,0.0
88,684,18336,236,831,248,2025-01-29 11:11:29,0.0
400,456,18244,208,887,109,2025-01-29 11:11:29,0.0
420,656,18180,241,37,-118,2025-01-29 11:11:29,0.0
52,632,18228,21,-548,-2,2025-01-29 11:11:29,0.0
320,708,18208,-226,-577,31,2025-01-29 11:11:29,0.0
584,616,17844,-398,-625,-78,2025-01-29 11:11:29,0.0
468,720,18044,-649,-543,-78,2025-01-29 11:11:29,0.0
372,612,18076,-785,-345,-63,2025-01-29 11:11:29,0.0
568,472,18496,-765,-379,-152,2025-01-29 11:11:29,0.0
356,536,18552,-736,-805,-228,2025-01-29 11:11:29,0.0
-68,584,18640,-616,-620,-254,2025-01-29 11:11:29,0.0
620,676,18820,-167,204,-260,2025-01-29 11:11:29,0.0
824,648,19244,279,570,-416,2025-01-29 11:11:29,0.0
684,716,19132,472,407,-305,2025-01-29 11:11:29,0.0
416,544,18548,240,87,-85,2025-01-29 11:11:29,0.0
564,704,18380,33,60,20,2025-01-29 11:11:29,0.0
488,468,18076,-143,505,7,2025-01-29 11:11:29,0.0
624,488,18472,26,871,-165,2025-01-29 11:11:29,0.0
432,348,18436,271,1119,-271,2025-01-29 11:11:29,0.0
352,464,18340,279,865,-305,2025-01-29 11:11:29,0.0
148,480,18140,160,271,-194,2025-01-29 11:11:29,0.0
108,460,18008,21,-15,-13,2025-01-29 11:11:29,0.0
324,636,17908,-141,-129,0,2025-01-29 11:11:29,0.0
0,692,17996,-384,231,-9,2025-01-29 11:11:29,0.0
-8,688,18264,-336,587,58,2025-01-29 11:11:29,0.0
72,684,18476,-182,258,104,2025-01-29 11:11:29,0.0
412,500,18556,-97,-219,74,2025-01-29 11:11:29,0.0
336,676,18740,55,-346,88,2025-01-29 11:11:29,0.0
612,728,18416,51,-249,47,2025-01-29 11:11:29,0.0
220,800,18308,-51,277,55,2025-01-29 11:11:29,0.0
448,820,18408,115,615,0,2025-01-29 11:11:29,0.0
424,632,18684,259,100,11,2025-01-29 11:11:29,0.0
364,636,18440,91,-443,217,2025-01-29 11:11:29,0.0
528,612,17940,-326,-69,289,2025-01-29 11:11:29,0.0
520,852,18256,-448,633,201,2025-01-29 11:11:29,0.0
816,912,18624,-246,905,-4,2025-01-29 11:11:29,0.0
976,740,18592,-115,686,-455,2025-01-29 11:11:29,0.0
392,508,18736,-110,-241,-626,2025-01-29 11:11:29,0.0
292,680,18828,-97,-1039,-546,2025-01-29 11:11:29,0.0
-120,772,18396,-191,-988,-325,2025-01-29 11:11:29,0.0
-72,944,18512,-27,-922,115,2025-01-29 11:11:29,0.0
380,600,18728,-19,-1693,218,2025-01-29 11:11:30,0.0
328,592,18792,-47,-3831,140,2025-01-29 11:11:30,0.0
548,420,18884,-227,-6604,193,2025-01-29 11:11:30,0.0
880,176,18776,-805,-12569,282,2025-01-29 11:11:30,0.0
940,428,18784,-1872,-21870,688,2025-01-29 11:11:30,0.0
2784,708,19528,-2718,-30428,420,2025-01-29 11:11:30,0.0
5004,-336,19932,-3590,-32768,-224,2025-01-29 11:11:30,0.0
5012,-376,19560,-4960,-32768,-248,2025-01-29 11:11:30,0.0
5684,-1268,21012,-6632,-32768,170,2025-01-29 11:11:30,0.0
5072,-1348,19500,-6345,-32768,968,2025-01-29 11:11:30,0.0
8164,-308,18868,-4928,-32768,763,2025-01-29 11:11:30,0.0
10564,2004,15196,-4991,-32768,74,2025-01-29 11:11:30,0.0
11720,-148,12952,-5965,-32768,1786,2025-01-29 11:11:30,0.0
18028,-324,12200,-5005,-32768,1700,2025-01-29 11:11:30,0.0
16972,420,9276,-5433,-32768,2288,2025-01-29 11:11:30,0.0
19292,1052,3312,-6818,-32768,3348,2025-01-29 11:11:30,0.0
20760,-1556,-1708,-12483,-32768,2556,2025-01-29 11:11:30,0.0
17712,-152,-480,-14687,-32768,652,2025-01-29 11:11:30,0.0
14236,1708,-532,-14711,-32768,-2666,2025-01-29 11:11:30,0.0
5260,-112,844,-10244,-32768,-7097,2025-01-29 11:11:30,0.0
1424,-3372,-276,-2900,-32768,-13207,2025-01-29 11:11:30,0.0
-2396,-4012,-12292,396,-32768,-13848,2025-01-29 11:11:30,0.0
2424,1888,-23712,-5064,-32650,-9004,2025-01-29 11:11:30,0.0
8116,4072,-16724,-4954,-26285,-5957,2025-01-29 11:11:30,0.0
5840,1032,-13248,1595,-25834,-4874,2025-01-29 11:11:30,0.0
816,812,-13456,5553,-27030,-2516,2025-01-29 11:11:30,
376,288,-13940,3982,-26470,-1285,2025-01-29 11:11:30,0.0
2724,2348,-18676,-82,-24622,-2044,2025-01-29 11:11:30,0.0
1676,1628,-20036,-1685,-18521,-3513,2025-01-29 11:11:30,0.0
-604,1100,-17708,-21,-14195,-3372,2025-01-29 11:11:30,0.0
-2296,460,-16792,2128,-11889,-2128,2025-01-29 11:11:30,0.0
-1684,20,-15292,3989,-6341,-2163,2025-01-29 11:11:30,0.0
-136,444,-16940,4172,-5165,-2981,2025-01-29 11:11:30,0.0
-100,336,-17292,2686,-6285,-2418,2025-01-29 11:11:30,0.0
-244,-300,-16132,2514,-5718,-1961,2025-01-29 11:11:30,0.0
-1316,-596,-16540,1812,-7291,-1917,2025-01-29 11:11:30,0.0
-2332,-1028,-16908,1069,-7482,-2393,2025-01-29 11:11:30,0.0
-2344,-308,-15692,1437,-4902,-2642,2025-01-29 11:11:30,0.0
-1360,-376,-15268,2073,-1644,-2128,2025-01-29 11:11:30,0.0
-996,-940,-15484,1731,820,-1186,2025-01-29 11:11:30,0.0
-1540,-900,-14736,1075,1630,-147,2025-01-29 11:11:30,0.0
-2184,-932,-15288,166,1239,533,2025-01-29 11:11:30,0.0
-1856,-832,-15468,-365,1710,391,2025-01-29 11:11:30,0.0
-1004,-488,-14788,-82,1741,289,2025-01-29 11:11:30,0.0
-256,-304,-14648,505,1281,-63,2025-01-29 11:11:30,0.0
-856,-504,-14324,1271,1907,-121,2025-01-29 11:11:30,0.0
-896,-780,-14744,1308,2751,-53,2025-01-29 11:11:30,0.0
-1256,-676,-14428,775,1764,152,2025-01-29 11:11:30,0.0
-1484,-780,-15100,-195,853,-1,2025-01-29 11:11:30,0.0
-856,-284,-15260,-792,1684,-272,2025-01-29 11:11:30,0.0
-508,-676,-15284,-640,1638,-435,2025-01-29 11:11:30,0.0
-888,-820,-14708,45,2167,-220,2025-01-29 11:11:30,0.0
-1296,-592,-14008,280,2188,-182,2025-01-29 11:11:30,0.0
-1036,-868,-14280,207,2405,-212,2025-01-29 11:11:30,0.0
-968,-732,-14812,-198,2730,-201,2025-01-29 11:11:30,0.0
-656,-644,-15432,-554,3355,-159,2025-01-29 11:11:30,0.0
-332,-444,-14992,-626,3037,-163,2025-01-29 11:11:30,0.0
88,-724,-14344,-284,1685,-385,2025-01-29 11:11:30,0.0
-560,-952,-14304,-229,605,-435,2025-01-29 11:11:30,0.0
-656,-1228,-14620,-255,385,-397,2025-01-29 11:11:30,0.0
-256,-912,-14780,-409,552,-411,2025-01-29 11:11:30,0.0
260,-792,-15212,-343,1236,-259,2025-01-29 11:11:31,0.0
496,-476,-15020,-24,1365,-221,2025-01-29 11:11:31,0.0
320,-484,-14768,150,948,-197,2025-01-29 11:11:31,0.0
56,-664,-14660,63,404,-114,2025-01-29 11:11:31,0.0
-368,-768,-15020,-285,-239,-15,2025-01-29 11:11:31,0.0
-292,-544,-14756,-639,-588,17,2025-01-29 11:11:31,0.0
-412,-16,-14860,-974,-366,17,2025-01-29 11:11:31,0.0
400,-836,-15132,-1317,-708,246,2025-01-29 11:11:31,0.0
-124,-508,-14804,-869,-244,-145,2025-01-29 11:11:31,0.0
-28,-460,-14856,-468,293,-175,2025-01-29 11:11:31,0.0
-464,-684,-14948,-308,925,-245,2025-01-29 11:11:31,0.0
-428,-368,-14960,-537,1827,-180,2025-01-29 11:11:31,0.0
-344,-380,-14976,-827,2324,-109,2025-01-29 11:11:31,0.0
-824,-436,-16292,-1390,5384,0,2025-01-29 11:11:31,0.0
-576,-256,-17428,-1954,9804,307,2025-01-29 11:11:31,0.0
-848,-264,-16248,-1798,13103,568,2025-01-29 11:11:31,0.0
-772,-172,-17556,-1657,19719,979,2025-01-29 11:11:31,0.0
-760,-116,-18760,-1292,27782,1370,2025-01-29 11:11:31,0.0
504,16,-19032,-1140,32767,1835,2025-01-29 11:11:31,0.0
4300,808,-19000,-758,32767,1509,2025-01-29 11:11:31,0.0
6040,1472,-17548,-316,32767,1983,2025-01-29 11:11:31,0.0
8032,1204,-15364,1614,32767,5658,2025-01-29 11:11:31,0.0
10280,-1072,-15200,1255,32767,7859,2025-01-29 11:11:31,0.0
11776,-2124,-11152,-1180,32767,9104,2025-01-29 11:11:31,0.0
12768,-2384,-5384,-2751,32767,8824,2025-01-29 11:11:31,0.0
14448,-1392,1644,-2213,32767,5314,2025-01-29 11:11:31,0.0
15460,-1232,7364,41,32767,2443,2025-01-29 11:11:31,0.0
12108,-1032,6980,4624,32767,3766,2025-01-29 11:11:31,0.0
12060,564,10116,8275,32767,3314,2025-01-29 11:11:31,0.0
13124,812,12344,13412,32767,1909,2025-01-29 11:11:31,0.0
12588,824,15276,19066,32767,1562,2025-01-29 11:11:31,0.0
11312,-1400,15956,20702,32767,1956,2025-01-29 11:11:31,0.0
12344,-1664,15584,7921,32767,376,2025-01-29 11:11:31,0.0
9884,-2968,22468,1692,32767,-5573,2025-01-29 11:11:31,0.0
8836,-1716,21632,3292,22535,-10574,2025-01-29 11:11:31,0.0
3780,372,17596,1177,1174,-13168,2025-01-29 11:11:31,0.0
-844,1136,17192,-1661,-2491,-11470,2025-01-29 11:11:31,0.0
1728,168,15420,-1145,7018,-9566,2025-01-29 11:11:31,0.0
-1108,-752,14484,-439,23417,-6556,2025-01-29 11:11:31,0.0
0,432,17344,-647,27312,-2826,2025-01-29 11:11:31,0.0
-3192,1204,20344,1276,23106,56,2025-01-29 11:11:31,0.0
-3672,956,19904,2718,16923,1568,2025-01-29 11:11:31,0.0
-960,308,18368,2542,7328,1447,2025-01-29 11:11:31,0.0
-860,-832,17564,2175,-493,380,2025-01-29 11:11:31,0.0
-1816,292,17820,1092,-4276,-416,2025-01-29 11:11:31,0.0
-2800,1332,18788,666,-5344,383,2025-01-29 11:11:31,0.0
-1576,1672,18368,629,-5285,2052,2025-01-29 11:11:31,0.0
-96,1548,17880,192,-4628,2862,2025-01-29 11:11:31,0.0
1276,752,18112,-529,-2785,3039,2025-01-29 11:11:31,0.0
1976,352,18252,-1195,-1237,2091,2025-01-29 11:11:31,0.0
728,384,18584,-1497,-641,1061,2025-01-29 11:11:31,0.0
-136,784,18548,-1681,-1882,782,2025-01-29 11:11:31,0.0
-620,924,18244,-1669,-2860,1061,2025-01-29 11:11:31,0.0
-368,708,17956,-1675,-2978,1769,2025-01-29 11:11:31,0.0
424,476,17556,-1716,-2915,2293,2025-01-29 11:11:31,0.0
1320,232,17980,-1861,-3366,2012,2025-01-29 11:11:31,0.0
972,240,18216,-1635,-4129,1673,2025-01-29 11:11:31,0.0
-180,456,17888,-1973,-4103,1944,2025-01-29 11:11:31,0.0
320,432,18500,-2197,-4775,2380,2025-01-29 11:11:31,0.0
1232,180,18460,-1917,-4167,2575,2025-01-29 11:11:31,0.0
2880,-248,19044,-1027,-2595,1804,2025-01-29 11:11:31,0.0
2784,72,19108,130,-872,569,2025-01-29 11:11:32,0.0
2076,24,18808,673,1544,-272,2025-01-29 11:11:32,0.0
1844,24,19052,667,2000,-777,2025-01-29 11:11:32,0.0
1172,132,18692,471,1165,-971,2025-01-29 11:11:32,
448,428,18824,295,251,-574,2025-01-29 11:11:32,0.0
1268,792,18852,355,-737,-133,2025-01-29 11:11:32,0.0
1464,436,18508,431,-867,-126,2025-01-29 11:11:32,0.0
1460,372,18412,265,358,-101,2025-01-29 11:11:32,0.0
1568,296,18424,87,1278,-248,2025-01-29 11:11:32,0.0
1092,412,18416,-25,782,-47,2025-01-29 11:11:32,0.0
968,444,18628,-262,139,127,2025-01-29 11:11:32,0.0
1496,224,18748,-494,-648,16,2025-01-29 11:11:32,0.0
1660,332,18412,-751,-684,-334,2025-01-29 11:11:32,0.0
1236,420,18308,-805,223,-376,2025-01-29 11:11:32,0.0
1340,568,18700,-364,1147,-27,2025-01-29 11:11:32,0.0
1336,304,18556,-133,1136,-103,2025-01-29 11:11:32,0.0
1368,256,18476,-196,1207,-425,2025-01-29 11:11:32,0.0
1096,252,18720,-200,335,-634,2025-01-29 11:11:32,0.0
932,512,18420,-110,-281,-430,2025-01-29 11:11:32,0.0
1096,480,18364,-131,-241,-214,2025-01-29 11:11:32,0.0
1364,576,18360,-279,70,-164,2025-01-29 11:11:32,0.0
1728,336,18768,-215,313,-446,2025-01-29 11:11:32,0.0
1160,396,18332,-275,858,-304,2025-01-29 11:11:32,0.0
1096,392,18440,-436,622,-147,2025-01-29 11:11:32,0.0
1100,284,18276,-558,-2,-203,2025-01-29 11:11:32,0.0
1316,288,18488,-517,-136,-413,2025-01-29 11:11:32,0.0
1232,416,18432,-532,683,-510,2025-01-29 11:11:32,0.0
1244,448,18696,-519,1236,-371,2025-01-29 11:11:32,0.0
1064,484,18736,-483,851,-186,2025-01-29 11:11:32,0.0
744,340,18424,-576,8,38,2025-01-29 11:11:32,0.0
772,324,18364,-706,-322,69,2025-01-29 11:11:32,0.0
1172,216,18656,-611,-93,-130,2025-01-29 11:11:32,0.0
1528,276,18512,-368,285,-313,2025-01-29 11:11:32,0.0
1452,228,18536,-255,837,-379,2025-01-29 11:11:32,0.0
1308,184,18628,-240,897,-232,2025-01-29 11:11:32,0.0
1032,224,18308,-430,260,-163,2025-01-29 11:11:32,0.0
896,256,18316,-807,-457,-32,2025-01-29 11:11:32,0.0
1144,104,18424,-917,-944,-53,2025-01-29 11:11:32,0.0
1384,136,18560,-833,-954,-211,2025-01-29 11:11:32,0.0
1248,164,18336,-617,-539,-333,2025-01-29 11:11:32,0.0
820,200,18148,-401,-437,-146,2025-01-29 11:11:32,0.0
1040,168,17992,-459,-728,86,2025-01-29 11:11:32,0.0
984,52,18336,-413,-836,123,2025-01-29 11:11:32,0.0
1552,28,18296,-338,-1009,86,2025-01-29 11:11:32,0.0
1576,-112,18584,-266,-758,-108,2025-01-29 11:11:32,0.0
1668,-64,18508,-203,128,-208,2025-01-29 11:11:32,0.0
1740,-96,18744,27,747,-444,2025-01-29 11:11:32,0.0
1376,-112,18860,285,1082,-468,2025-01-29 11:11:32,0.0
1200,68,18816,240,820,-348,2025-01-29 11:11:32,0.0
1276,-44,18516,208,56,-335,2025-01-29 11:11:32,0.0
1468,-124,18504,20,-37,-415,2025-01-29 11:11:32,0.0
1776,-88,18416,5,291,-694,2025-01-29 11:11:32,0.0
1120,20,18284,-12,1171,-898,2025-01-29 11:11:32,0.0
812,204,18384,-58,878,-648,2025-01-29 11:11:32,0.0
556,252,18236,-307,-186,-179,2025-01-29 11:11:32,0.0
1148,212,18384,-396,-768,-108,2025-01-29 11:11:32,0.0
1408,124,18504,-378,-470,-198,2025-01-29 11:11:32,0.0
1192,188,18192,-378,294,-276,2025-01-29 11:11:32,0.0
1324,212,18444,-296,147,-204,2025-01-29 11:11:32,0.0
1444,20,18544,-181,-803,-180,2025-01-29 11:11:32,0.0
1480,204,18572,-14,-1300,-292,2025-01-29 11:11:32,0.0
1632,216,18232,-29,-1016,-385,2025-01-29 11:11:32,0.0
1580,236,18264,3,-421,-498,2025-01-29 11:11:33,0.0
1788,448,18788,253,80,-478,2025-01-29 11:11:33,0.0
1540,492,18948,312,64,-385,2025-01-29 11:11:33,0.0
1456,276,18608,-78,166,-122,2025-01-29 11:11:33,0.0
1532,128,18548,-852,696,35,2025-01-29 11:11:33,0.0
1480,-76,18908,-1505,739,200,2025-01-29 11:11:33,0.0
1444,-120,18616,-1777,356,387,2025-01-29 11:11:33,0.0
1340,-164,18916,-1667,-101,579,2025-01-29 11:11:33,0.0
1544,-204,18716,-1052,-275,525,2025-01-29 11:11:33,0.0
1564,-380,18724,-283,261,163,2025-01-29 11:11:33,0.0
1512,-532,18532,325,1093,-323,2025-01-29 11:11:33,0.0
1608,-340,18504,683,1453,-903,2025-01-29 11:11:33,0.0
1328,96,18476,875,1214,-978,2025-01-29 11:11:33,0.0
924,292,18352,967,772,-561,2025-01-29 11:11:33,0.0
1000,304,18308,793,631,-43,2025-01-29 11:11:33,0.0
1160,236,18212,508,607,131,2025-01-29 11:11:33,0.0
1132,248,18144,147,399,106,2025-01-29 11:11:33,0.0
1600,144,18624,-70,-205,13,2025-01-29 11:11:33,0.0
1464,80,18764,-120,-577,-110,2025-01-29 11:11:33,0.0
1448,28,18572,-431,-492,-120,2025-01-29 11:11:33,0.0
1428,164,18744,-660,-260,-220,2025-01-29 11:11:33,0.0
1540,-32,18636,-658,-340,-124,2025-01-29 11:11:33,0.0
1324,-108,18584,-594,-481,-57,2025-01-29 11:11:33,0.0
1104,-144,18336,-659,-554,-56,2025-01-29 11:11:33,0.0
1656,-176,18632,-648,-823,-186,2025-01-29 11:11:33,0.0
1624,-208,18484,-538,-718,-427,2025-01-29 11:11:33,0.0
1380,-24,18392,-321,16,-356,2025-01-29 11:11:33,0.0
1644,-116,18392,-10,436,-224,2025-01-29 11:11:33,0.0
1540,68,18320,121,980,-155,2025-01-29 11:11:33,0.0
1384,8,18492,117,1020,-148,2025-01-29 11:11:33,0.0
1160,-20,18512,-45,133,164,2025-01-29 11:11:33,0.0
1268,108,18520,-406,-926,592,2025-01-29 11:11:33,0.0
2000,-136,18624,-600,-1442,505,2025-01-29 11:11:33,0.0
1836,-104,18588,-732,-436,59,2025-01-29 11:11:33,0.0
1572,-104,18472,-555,931,-233,2025-01-29 11:11:33,0.0
1236,0,18600,-261,1289,-330,2025-01-29 11:11:33,0.0
1224,-8,19000,43,758,-555,2025-01-29 11:11:33,0.0
1532,-20,18652,160,-48,-743,2025-01-29 11:11:33,0.0
1704,-48,18624,98,-65,-914,2025-01-29 11:11:33,0.0
1576,136,18668,-31,207,-931,2025-01-29 11:11:33,0.0
1312,168,18356,93,-418,-639,2025-01-29 11:11:33,0.0
924,196,18320,-272,-159,-310,2025-01-29 11:11:33,
928,200,18424,-423,162,78,2025-01-29 11:11:33,0.0
1632,148,18612,-351,150,188,2025-01-29 11:11:33,0.0
1868,16,18544,-42,-28,235,2025-01-29 11:11:33,0.0
1864,-220,18336,-121,878,-28,2025-01-29 11:11:33,0.0
1632,-52,18524,-302,1032,-330,2025-01-29 11:11:33,0.0
1460,48,18844,-257,573,-328,2025-01-29 11:11:33,0.0
1232,68,18480,-200,-59,-104,2025-01-29 11:11:33,0.0
1556,20,18536,-158,-221,-13,2025-01-29 11:11:33,0.0
1700,-12,18524,-111,42,3,2025-01-29 11:11:33,0.0
1536,68,18400,-259,259,0,2025-01-29 11:11:33,0.0
1404,40,18812,-244,222,-56,2025-01-29 11:11:33,0.0
1308,32,18752,-143,324,-120,2025-01-29 11:11:33,0.0
1436,-20,18644,-57,422,-136,2025-01-29 11:11:33,0.0
1712,44,18392,3,152,-264,2025-01-29 11:11:33,0.0
1444,-68,18572,122,287,-271,2025-01-29 11:11:33,0.0
1548,40,18676,210,402,-278,2025-01-29 11:11:33,0.0
1380,-20,18528,70,176,-238,2025-01-29 11:11:33,0.0
1256,-48,18188,-101,0,-82,2025-01-29 11:11:33,0.0
1272,72,18408,-344,201,-45,2025-01-29 11:11:34,0.0
1720,-4,18596,-140,6,-129,2025-01-29 11:11:34,0.0
1340,16,18740,217,-87,-131,2025-01-29 11:11:34,0.0
1572,84,18472,248,-1,-69,2025-01-29 11:11:34,0.0
1068,136,18632,-16,-451,23,2025-01-29 11:11:34,0.0
1348,40,18540,-194,42,226,2025-01-29 11:11:34,0.0
1856,-108,18520,-173,368,256,2025-01-29 11:11:34,0.0
1644,-76,18756,-24,14,324,2025-01-29 11:11:34,0.0
1364,-48,19084,241,-328,143,2025-01-29 11:11:34,0.0
1288,72,19192,607,-663,51,2025-01-29 11:11:34,0.0
1016,300,19884,1571,-1192,775,2025-01-29 11:11:34,0.0
956,24,20484,2822,-1399,1687,2025-01-29 11:11:34,0.0
728,256,21856,4217,-954,2338,2025-01-29 11:11:34,0.0
96,592,24112,6791,-1446,3114,2025-01-29 11:11:34,0.0
-1144,1044,26244,10320,-2939,4160,2025-01-29 11:11:34,0.0
-1396,1408,27180,14841,-4773,5387,2025-01-29 11:11:34,0.0
-720,948,26848,19527,-6779,5998,2025-01-29 11:11:34,0.0
604,672,25432,24418,-8457,5832,2025-01-29 11:11:34,0.0
1552,1136,26728,30958,-10191,5255,2025-01-29 11:11:34,0.0
3408,1808,24416,32767,-11207,3937,2025-01-29 11:11:34,0.0
4236,2436,21788,32767,-10737,1974,2025-01-29 11:11:34,0.0
4332,3240,16632,32767,-11441,-499,2025-01-29 11:11:34,0.0
4768,3572,14220,32767,-14504,-2742,2025-01-29 11:11:34,0.0
7284,3924,10280,32767,-19634,-4690,2025-01-29 11:11:34,0.0
7556,5600,7396,32767,-20273,-6337,2025-01-29 11:11:34,0.0
7284,6976,8000,32767,-13039,-7819,2025-01-29 11:11:34,0.0
7956,8228,9960,32767,-4501,-9655,2025-01-29 11:11:34,0.0
6792,8556,12072,32767,174,-10118,2025-01-29 11:11:34,0.0
5360,8688,8564,32767,1498,-8645,2025-01-29 11:11:34,0.0
5100,10096,4508,32767,1373,-7047,2025-01-29 11:11:34,0.0
4948,11812,388,32767,3876,-6353,2025-01-29 11:11:34,0.0
2688,11824,-1368,32767,7276,-5525,2025-01-29 11:11:34,0.0
3180,13164,-5848,28959,6665,-5429,2025-01-29 11:11:34,0.0
1388,14488,-10352,20743,5147,-5456,2025-01-29 11:11:34,0.0
-984,15244,-10300,12981,6237,-4496,2025-01-29 11:11:34,0.0
-700,15488,-8656,6549,7538,-2285,2025-01-29 11:11:34,0.0
2204,13772,-7792,1258,5350,-1283,2025-01-29 11:11:34,0.0
3924,14404,-7440,-3056,5295,-802,2025-01-29 11:11:34,0.0
4668,14612,-4008,-5627,3980,-331,2025-01-29 11:11:34,0.0
4852,14596,-2292,-6510,2190,-178,2025-01-29 11:11:34,0.0
4936,14836,-2364,-6683,1382,6,2025-01-29 11:11:34,0.0
4476,14904,-1464,-6629,564,-51,2025-01-29 11:11:34,0.0
3668,14888,-1848,-6912,688,-279,2025-01-29 11:11:34,0.0
3096,14940,-388,-7055,1584,-539,2025-01-29 11:11:34,0.0
2716,15516,2136,-5776,2004,-466,2025-01-29 11:11:34,0.0
3308,15920,2644,-3833,1323,-28,2025-01-29 11:11:34,0.0
4072,15772,2200,-2340,599,125,2025-01-29 11:11:34,0.0
4840,16144,840,-1888,930,-446,2025-01-29 11:11:34,0.0
4300,16404,952,-1713,1744,-1075,2025-01-29 11:11:34,0.0
4212,16268,616,-1386,1895,-1481,2025-01-29 11:11:34,0.0
4176,16052,364,-941,2450,-1747,2025-01-29 11:11:34,0.0
4000,16060,460,-544,2506,-1814,2025-01-29 11:11:34,0.0
3296,16412,876,-156,2303,-1596,2025-01-29 11:11:34,0.0
3116,16228,836,124,1339,-1356,2025-01-29 11:11:34,0.0
2844,16040,-128,-115,617,-1130,2025-01-29 11:11:34,0.0
3144,15680,-132,-423,843,-1149,2025-01-29 11:11:34,0.0
3584,15736,88,-637,1312,-1389,2025-01-29 11:11:34,0.0
4212,15856,1356,-559,2287,-2014,2025-01-29 11:11:34,0.0
3848,16096,236,-65,2216,-2237,2025-01-29 11:11:34,0.0
3336,16156,276,-85,1834,-2254,2025-01-29 11:11:34,0.0
2336,16560,76,-261,779,-1789,2025-01-29 11:11:34,0.0
1972,16660,132,-551,447,-1126,2025-01-29 11:11:35,0.0
2376,15980,148,-647,252,-716,2025-01-29 11:11:35,0.0
2096,15772,812,-533,109,-413,2025-01-29 11:11:35,0.0
2640,15820,1056,-17,-43,-187,2025-01-29 11:11:35,0.0
2632,16020,504,70,410,-170,2025-01-29 11:11:35,0.0
2700,15956,224,124,383,-108,2025-01-29 11:11:35,0.0
2552,15948,-68,-3,481,88,2025-01-29 11:11:35,0.0
2756,15776,204,-150,457,186,2025-01-29 11:11:35,0.0
2720,15664,448,-181,560,184,2025-01-29 11:11:35,0.0
2692,15532,712,65,594,347,2025-01-29 11:11:35,0.0
2992,15648,576,233,589,499,2025-01-29 11:11:35,0.0
3280,15644,684,338,431,497,2025-01-29 11:11:35,0.0
3620,15636,792,458,680,302,2025-01-29 11:11:35,0.0
3728,15616,412,593,963,-35,2025-01-29 11:11:35,0.0
3700,15656,76,696,1350,-430,2025-01-29 11:11:35,0.0
3660,15936,216,726,1811,-717,2025-01-29 11:11:35,0.0
3332,16196,156,807,1809,-865,2025-01-29 11:11:35,0.0
3140,16020,-424,680,1349,-810,2025-01-29 11:11:35,0.0
2816,15948,-1148,-25,1114,-794,2025-01-29 11:11:35,0.0
2192,16056,-1836,-1197,887,-749,2025-01-29 11:11:35,0.0
1888,15892,-2252,-3264,631,-645,2025-01-29 11:11:35,
1540,15464,-2324,-5933,958,-861,2025-01-29 11:11:35,0.0
1596,15596,-1888,-9444,1352,-1388,2025-01-29 11:11:35,0.0
1312,15996,-1160,-12989,1824,-1760,2025-01-29 11:11:35,0.0
672,16132,-588,-16709,2001,-1797,2025-01-29 11:11:37,0.0
768,15676,-1084,-20547,1539,-1675,2025-01-29 11:11:37,0.0
1280,14440,-2660,-24827,1676,-1771,2025-01-29 11:11:37,0.0
2472,13372,-3736,-29679,2033,-2173,2025-01-29 11:11:37,0.0
3516,12796,-1036,-32768,32,-2770,2025-01-29 11:11:37,0.0
3204,12196,1708,-32768,-946,-2563,2025-01-29 11:11:37,0.0
6584,10852,1480,-32768,-6379,-2248,2025-01-29 11:11:37,0.0
2244,10076,5088,-32768,-17593,2038,2025-01-29 11:11:37,0.0
1988,-972,19176,4952,2312,-2265,2025-01-29 11:11:37,0.0
4168,688,17260,2496,7269,126,2025-01-29 11:11:37,0.0
4180,508,18512,2372,7020,-274,2025-01-29 11:11:37,0.0
4204,340,19240,2411,5431,-656,2025-01-29 11:11:37,0.0
3132,692,19436,3194,1867,-1180,2025-01-29 11:11:37,0.0
2100,308,18716,3576,-123,-1014,2025-01-29 11:11:37,0.0
1484,1040,18272,3504,-280,-144,2025-01-29 11:11:37,0.0
1256,1080,17392,2742,582,310,2025-01-29 11:11:37,0.0
1312,820,16320,1843,459,1081,2025-01-29 11:11:37,0.0
364,824,17588,809,-2122,1809,2025-01-29 11:11:37,0.0
2536,948,15628,5,-7042,2308,2025-01-29 11:11:37,0.0
3260,932,15620,-1181,-10784,2504,2025-01-29 11:11:37,0.0
4500,548,15584,-2530,-10392,2231,2025-01-29 11:11:37,0.0
5884,388,18024,-3200,-8393,1400,2025-01-29 11:11:37,0.0
6592,12,23488,-1244,-11813,17,2025-01-29 11:11:37,0.0
2904,528,21012,1210,-8595,-103,2025-01-29 11:11:37,0.0
2160,80,15988,263,3264,2094,2025-01-29 11:11:37,0.0
6040,592,15676,-1392,9066,2456,2025-01-29 11:11:37,0.0
4972,876,17964,-1812,10335,2064,2025-01-29 11:11:37,0.0
4676,1300,18992,-1290,10664,2247,2025-01-29 11:11:37,0.0
4548,1364,18224,-1617,7624,1717,2025-01-29 11:11:37,0.0
4736,1656,17632,-1740,2890,1645,2025-01-29 11:11:38,0.0
2560,784,20040,-1387,-357,1429,2025-01-29 11:11:38,0.0
3412,564,18700,-1330,-1532,1164,2025-01-29 11:11:38,0.0
4304,356,17968,-1715,-1280,854,2025-01-29 11:11:38,0.0
4728,268,17748,-2478,-39,482,2025-01-29 11:11:38,0.0
4232,-412,18336,-2998,2057,274,2025-01-29 11:11:38,0.0
4088,-1016,18440,-3267,4758,122,2025-01-29 11:11:38,0.0
3572,68,18740,-3893,6646,-146,2025-01-29 11:11:38,0.0
3632,188,18940,-3481,5391,-994,2025-01-29 11:11:38,0.0
2156,132,18660,-2409,6480,-1156,2025-01-29 11:11:38,0.0
1700,916,17444,-2070,5765,-847,2025-01-29 11:11:38,0.0
520,-92,17312,-2578,4638,72,2025-01-29 11:11:38,0.0
1652,-580,18472,-3468,1538,338,2025-01-29 11:11:38,0.0
2300,-656,19528,-3550,-2034,132,2025-01-29 11:11:38,0.0
2924,-488,18804,-3100,-4129,-26,2025-01-29 11:11:38,0.0
2720,48,18116,-2773,-3618,-44,2025-01-29 11:11:38,0.0
3084,364,17484,-2636,-3019,-120,2025-01-29 11:11:38,0.0
2844,436,17360,-2896,-985,-52,2025-01-29 11:11:38,0.0
2768,224,17708,-3021,983,117,2025-01-29 11:11:38,0.0
2908,-8,18272,-3035,2357,163,2025-01-29 11:11:38,0.0
4428,-236,19484,-2844,2935,-102,2025-01-29 11:11:38,0.0
2292,-932,19964,-2782,3044,-340,2025-01-29 11:11:38,0.0
2772,-936,20916,-2077,2463,-237,2025-01-29 11:11:38,0.0
2152,-1304,20984,-399,930,-649,2025-01-29 11:11:38,0.0
1936,-1060,19876,692,-71,-690,2025-01-29 11:11:38,0.0
2008,-1056,18788,1169,-132,-390,2025-01-29 11:11:38,0.0
2524,-904,18304,1128,565,-391,2025-01-29 11:11:38,0.0
2356,-948,18744,1136,716,-358,2025-01-29 11:11:38,0.0
2260,-896,18976,1319,332,-301,2025-01-29 11:11:38,0.0
2248,-884,18740,1364,-488,-320,2025-01-29 11:11:38,0.0
2244,-848,18560,1446,-862,-321,2025-01-29 11:11:38,0.0
2292,-788,18068,1360,-422,-301,2025-01-29 11:11:38,0.0
2296,-676,17816,1075,135,-291,2025-01-29 11:11:38,0.0
2260,-620,18080,783,770,-182,2025-01-29 11:11:38,0.0
2324,-844,18124,466,947,-108,2025-01-29 11:11:38,0.0
2320,-772,18580,243,423,-136,2025-01-29 11:11:38,0.0
2268,-524,18924,186,-358,-150,2025-01-29 11:11:38,0.0
2736,-448,18920,382,-461,-223,2025-01-29 11:11:38,0.0
2856,-376,18572,470,107,-339,2025-01-29 11:11:38,0.0
2740,-636,18240,340,767,-415,2025-01-29 11:11:38,0.0
2384,-704,18484,245,1320,-518,2025-01-29 11:11:38,0.0
2376,-784,18160,74,1501,-583,2025-01-29 11:11:38,0.0
2092,-392,18468,-20,1265,-594,2025-01-29 11:11:38,0.0
2104,-332,18600,-93,866,-616,2025-01-29 11:11:38,0.0
2100,-480,18808,-154,266,-660,2025-01-29 11:11:38,0.0
2216,-652,18948,-85,-181,-715,2025-01-29 11:11:38,0.0
2132,-476,18540,26,-379,-684,2025-01-29 11:11:38,0.0
1936,-436,18036,-58,-275,-557,2025-01-29 11:11:38,0.0
2128,-440,18228,-443,-86,-354,2025-01-29 11:11:38,0.0
2072,-568,18568,-582,88,-240,2025-01-29 11:11:38,0.0
2144,-628,18700,-481,149,-222,2025-01-29 11:11:38,0.0
2044,-584,18772,-369,17,-182,2025-01-29 11:11:38,0.0
2148,-636,18584,-274,64,-216,2025-01-29 11:11:38,0.0
2196,-720,18364,-337,289,-261,2025-01-29 11:11:38,0.0
2428,-680,18800,-50,408,-397,2025-01-29 11:11:38,0.0
2128,-668,18576,92,391,-440,2025-01-29 11:11:38,0.0
2288,-636,18356,56,510,-259,2025-01-29 11:11:38,0.0
2160,-724,18304,-115,496,-144,2025-01-29 11:11:38,0.0
2032,-592,18644,-286,227,-103,2025-01-29 11:11:38,0.0
2340,-544,18788,-3,-10,-129,2025-01-29 11:11:38,0.0
2508,-444,19036,421,-150,-367,2025-01-29 11:11:38,0.0
2476,-372,18720,601,-37,-412,2025-01-29 11:11:39,0.0
2296,-408,18304,518,245,-458,2025-01-29 11:11:39,0.0
2056,-392,17948,168,804,-286,2025-01-29 11:11:39,0.0
2040,-464,18004,-345,1273,-167,2025-01-29 11:11:39,0.0
1912,-368,18400,-579,1251,-52,2025-01-29 11:11:39,0.0
2200,-324,18696,-376,655,-71,2025-01-29 11:11:39,0.0
2100,-344,18740,-212,374,-164,2025-01-29 11:11:39,
2100,-424,18676,4,922,-150,2025-01-29 11:11:39,0.0
1896,-276,18988,201,1116,72,2025-01-29 11:11:39,0.0
1616,-548,18872,322,1487,525,2025-01-29 11:11:39,0.0
2204,-504,19344,435,1173,694,2025-01-29 11:11:39,0.0
1692,-696,19544,734,637,784,2025-01-29 11:11:39,0.0
1244,-924,19048,1046,76,1325,2025-01-29 11:11:39,0.0
988,-244,19828,1572,-924,1761,2025-01-29 11:11:39,0.0
336,-520,20520,2443,-2009,2519,2025-01-29 11:11:39,0.0
1596,-408,20628,3319,-3560,3508,2025-01-29 11:11:39,0.0
416,480,20316,3740,-4530,4748,2025-01-29 11:11:39,0.0
-420,1240,18632,3241,-5026,7326,2025-01-29 11:11:39,0.0
-2228,2532,15468,1117,-5927,12029,2025-01-29 11:11:39,0.0
-2868,2272,15612,-1872,-5801,18318,2025-01-29 11:11:39,0.0
-2660,1308,16536,-4916,-8873,24810,2025-01-29 11:11:39,0.0
-3204,-100,16868,-7309,-13425,32406,2025-01-29 11:11:39,0.0
-4804,-1192,15920,-7915,-16069,32767,2025-01-29 11:11:39,0.0
-5600,-5180,14584,-7858,-15862,32767,2025-01-29 11:11:39,0.0
-5128,-8172,17576,-5582,-16263,32767,2025-01-29 11:11:39,0.0
-3280,-11760,18356,-8,-10367,32767,2025-01-29 11:11:39,0.0
3176,-14676,13164,5053,2572,32767,2025-01-29 11:11:39,0.0
3640,-13732,14620,2505,19041,32767,2025-01-29 11:11:39,0.0
-2304,-12828,17372,-1063,26237,32767,2025-01-29 11:11:39,0.0
-5160,-13740,18900,-3183,20811,32767,2025-01-29 11:11:39,0.0
-3528,-13624,15904,-5376,17052,32767,2025-01-29 11:11:39,0.0
-4764,-12680,16852,-8128,16999,32767,2025-01-29 11:11:39,0.0
-4296,-13484,21172,-9401,16589,32767,2025-01-29 11:11:39,0.0
11076,-16360,17408,-20195,6033,32767,2025-01-29 11:11:39,0.0
-1184,-12332,14916,-24235,-20,32767,2025-01-29 11:11:39,0.0
-1644,-8272,22828,-19703,-5250,32767,2025-01-29 11:11:39,0.0
-184,-7184,25620,-9381,-17078,32767,2025-01-29 11:11:39,0.0
424,-9968,22216,-1070,-19838,32767,2025-01-29 11:11:39,0.0
4264,-9960,18172,2501,-20191,31017,2025-01-29 11:11:39,0.0
-4212,-7916,14024,1478,-24585,29113,2025-01-29 11:11:39,0.0
-2832,-8336,14508,-962,-24397,32767,2025-01-29 11:11:39,0.0
660,-7592,19696,-330,-21925,32767,2025-01-29 11:11:39,0.0
5128,-7208,23624,3308,-18335,32767,2025-01-29 11:11:39,0.0
9008,-3828,22804,5095,-15207,27601,2025-01-29 11:11:39,0.0
5228,-1984,20200,7302,-12082,25529,2025-01-29 11:11:39,0.0
5560,-1940,16836,5748,-6792,25535,2025-01-29 11:11:39,0.0
10496,-1236,16012,3156,-7833,23416,2025-01-29 11:11:39,0.0
14148,-56,18828,2307,-8178,17093,2025-01-29 11:11:39,0.0
11728,-788,18632,2768,-4183,9617,2025-01-29 11:11:39,0.0
8444,-704,17456,2588,354,6288,2025-01-29 11:11:39,0.0
6500,-368,15868,1697,2781,5797,2025-01-29 11:11:39,0.0
6632,-104,15528,404,1996,5126,2025-01-29 11:11:39,0.0
6788,52,15924,-627,-471,2934,2025-01-29 11:11:39,0.0
6076,180,17020,-1414,-1485,1242,2025-01-29 11:11:39,0.0
5128,-116,17772,-1409,207,-397,2025-01-29 11:11:39,0.0
3848,-704,17832,-1457,957,-602,2025-01-29 11:11:39,0.0
3012,-412,18296,-1203,911,37,2025-01-29 11:11:39,0.0
3692,-268,17896,-1385,-85,115,2025-01-29 11:11:39,0.0
4180,-196,17880,-1749,-444,-647,2025-01-29 11:11:39,0.0
3664,-108,17880,-2197,-473,-1207,2025-01-29 11:11:39,0.0
2664,-528,18256,-2614,-65,-997,2025-01-29 11:11:39,0.0
2152,-724,19136,-2508,604,-367,2025-01-29 11:11:39,0.0
2812,-1080,19620,-1677,101,297,2025-01-29 11:11:40,0.0
3244,-1316,19476,-623,-524,412,2025-01-29 11:11:40,0.0
3216,-1464,18928,123,-587,759,2025-01-29 11:11:40,0.0
3800,-1280,18676,332,-674,879,2025-01-29 11:11:40,0.0
3672,-1536,19172,267,-754,523,2025-01-29 11:11:40,0.0
3844,-1304,19540,552,-525,330,2025-01-29 11:11:40,0.0
4252,-916,19116,986,-845,116,2025-01-29 11:11:40,0.0
4448,-564,18728,1126,-1376,13,2025-01-29 11:11:40,0.0
4448,-228,18316,938,-1150,3,2025-01-29 11:11:40,0.0
4036,-376,17884,427,-256,41,2025-01-29 11:11:40,0.0
3912,-236,18044,22,375,190,2025-01-29 11:11:40,0.0
4320,0,18088,-321,318,-99,2025-01-29 11:11:40,0.0
4464,-520,18240,-560,36,-769,2025-01-29 11:11:40,0.0
4784,-616,18384,-688,219,-1260,2025-01-29 11:11:40,0.0
4412,-724,17968,-823,401,-1514,2025-01-29 11:11:40,0.0
3536,-912,17924,-972,802,-1404,2025-01-29 11:11:40,0.0
3412,-588,18316,-945,257,-1153,2025-01-29 11:11:40,0.0
3404,-572,18532,-856,-618,-985,2025-01-29 11:11:40,0.0
3852,-708,18572,-730,-829,-1007,2025-01-29 11:11:40,0.0
4372,-476,18772,-625,-889,-1304,2025-01-29 11:11:40,0.0
4464,-640,18572,-623,-17,-1545,2025-01-29 11:11:40,0.0
3000,-980,18148,-1071,1891,-1308,2025-01-29 11:11:40,0.0
2656,-1108,18628,-1172,2393,-685,2025-01-29 11:11:40,0.0
2520,-1044,18700,-876,1616,82,2025-01-29 11:11:40,0.0
2960,-848,18948,-535,244,566,2025-01-29 11:11:40,0.0
3704,-860,19056,-59,-1397,705,2025-01-29 11:11:40,0.0
4392,-992,18888,-2,-1388,233,2025-01-29 11:11:40,0.0
4048,-972,19000,203,-791,-140,2025-01-29 11:11:40,0.0
3632,-1144,18500,80,305,46,2025-01-29 11:11:40,0.0
3872,-944,18360,-187,1078,330,2025-01-29 11:11:40,0.0
3540,-972,18520,-114,373,294,2025-01-29 11:11:40,0.0
3428,-896,18476,-151,-489,472,2025-01-29 11:11:40,0.0
3872,-764,18500,63,-967,585,2025-01-29 11:11:40,0.0
4236,-996,18616,69,-1199,404,2025-01-29 11:11:40,0.0
4728,-952,18312,57,-807,10,2025-01-29 11:11:40,0.0
4592,-1008,17752,-39,-461,-391,2025-01-29 11:11:40,0.0
4464,-996,18120,-207,-528,-623,2025-01-29 11:11:40,0.0
4864,-908,18096,-368,-833,-954,2025-01-29 11:11:40,0.0
6040,-800,18416,-604,-1050,-1933,2025-01-29 11:11:40,0.0
7780,-896,19016,-648,-1733,-3712,2025-01-29 11:11:40,0.0
9828,-952,19388,-722,-3114,-6550,2025-01-29 11:11:40,0.0
11340,-488,19104,-532,-3852,-9869,2025-01-29 11:11:40,0.0
13992,-1004,18904,-883,-4913,-14504,2025-01-29 11:11:40,0.0
15916,-1408,19524,-1588,-6307,-20914,2025-01-29 11:11:40,0.0
17712,-2492,19120,-2340,-6407,-28631,2025-01-29 11:11:40,
17456,-2880,16816,-4908,-6787,-32768,2025-01-29 11:11:40,0.0
16428,-6100,13228,-8311,-384,-32768,2025-01-29 11:11:40,0.0
15556,-9244,11940,-11333,9213,-32768,2025-01-29 11:11:40,0.0
12204,-10552,16228,-12151,15230,-32768,2025-01-29 11:11:40,0.0
9896,-11948,22276,-10381,10006,-32768,2025-01-29 11:11:40,0.0
12256,-16308,22512,-7537,2484,-32768,2025-01-29 11:11:40,0.0
13608,-21084,18996,-7714,1844,-32768,2025-01-29 11:11:40,0.0
13476,-25440,14576,-8384,6033,-32768,2025-01-29 11:11:40,0.0
8748,-30828,15716,-10332,2179,-32768,2025-01-29 11:11:40,0.0
-4,-31332,14732,-13540,-1214,-32768,2025-01-29 11:11:40,0.0
-6332,-25160,17168,-13626,5648,-32768,2025-01-29 11:11:40,0.0
-6976,-19348,15808,-12963,14480,-32768,2025-01-29 11:11:40,0.0
-5212,-17884,15008,-11481,16398,-32768,2025-01-29 11:11:40,0.0
-7416,-17112,12760,-9122,16350,-32768,2025-01-29 11:11:40,0.0
-11384,-16000,16032,-3384,18566,-32768,2025-01-29 11:11:40,0.0
-12584,-11732,17940,1208,19439,-32768,2025-01-29 11:11:40,0.0
-10344,-4240,19912,4297,14999,-32768,2025-01-29 11:11:41,0.0
-9660,628,23244,7956,8964,-21618,2025-01-29 11:11:41,0.0
-4992,780,21748,10250,3424,-11392,2025-01-29 11:11:41,0.0
-944,-140,16384,8256,3385,-5752,2025-01-29 11:11:41,0.0
468,-32,14976,3399,4583,-3381,2025-01-29 11:11:41,0.0
948,264,16320,-967,5074,-3067,2025-01-29 11:11:41,0.0
1536,1012,19280,-2998,3691,-5728,2025-01-29 11:11:41,0.0
-2968,3856,19296,-2431,2658,-9130,2025-01-29 11:11:41,0.0
-5096,2388,20804,536,-941,-7452,2025-01-29 11:11:41,0.0
-6544,1180,18408,1146,-3265,-2445,2025-01-29 11:11:41,0.0
-3596,72,16608,-1076,-6666,2716,2025-01-29 11:11:41,0.0
-308,292,17112,-3474,-7649,6046,2025-01-29 11:11:41,0.0
1732,-416,19312,-3528,-6479,6232,2025-01-29 11:11:41,0.0
2168,-108,20196,-1758,-5070,5311,2025-01-29 11:11:41,0.0
2888,-244,20168,535,-3728,3826,2025-01-29 11:11:41,0.0
3156,-764,18540,1204,-3660,2145,2025-01-29 11:11:41,0.0
2664,-1324,17336,353,-2808,1547,2025-01-29 11:11:41,0.0
2164,-1484,17152,-733,-1543,1736,2025-01-29 11:11:41,0.0
2384,-1144,18352,-901,-1083,1489,2025-01-29 11:11:41,0.0
2564,-524,18992,-119,-1706,597,2025-01-29 11:11:41,0.0
2472,-884,17820,-269,-2091,359,2025-01-29 11:11:41,0.0
3260,-1072,17388,-1226,-1768,231,2025-01-29 11:11:41,0.0
3660,-704,18164,-1909,-852,-385,2025-01-29 11:11:41,0.0
2988,-272,18588,-2153,351,-841,2025-01-29 11:11:41,0.0
2128,-220,19344,-1804,350,-859,2025-01-29 11:11:41,0.0
1276,-456,19424,-1184,-34,-249,2025-01-29 11:11:41,0.0
1556,-632,18976,-721,-708,434,2025-01-29 11:11:41,0.0
2028,-1164,18400,-611,-1247,580,2025-01-29 11:11:41,0.0
2964,-992,19112,-156,-201,-22,2025-01-29 11:11:41,0.0
2776,-632,19884,642,259,-221,2025-01-29 11:11:41,0.0
2532,-556,19492,1047,997,152,2025-01-29 11:11:41,0.0
2380,-776,19052,1124,963,204,2025-01-29 11:11:41,0.0
2180,-768,18656,1193,871,266,2025-01-29 11:11:41,0.0
2144,-688,18324,781,380,416,2025-01-29 11:11:41,0.0
2500,-524,18544,473,-284,229,2025-01-29 11:11:41,0.0
2668,-548,18716,337,-144,-22,2025-01-29 11:11:41,0.0
3024,-732,18420,124,775,-357,2025-01-29 11:11:41,0.0
2272,-612,18128,-233,1342,-556,2025-01-29 11:11:41,0.0
1880,-856,17988,-800,999,-513,2025-01-29 11:11:41,0.0
1376,-844,18164,-971,739,-304,2025-01-29 11:11:41,0.0
1432,-800,18744,-984,-121,67,2025-01-29 11:11:41,0.0
1596,-928,18616,-892,-417,404,2025-01-29 11:11:41,0.0
1956,-920,18412,-719,-401,414,2025-01-29 11:11:41,0.0
2200,-792,18332,-379,-145,305,2025-01-29 11:11:41,0.0
2528,-628,18692,149,264,77,2025-01-29 11:11:41,0.0
2564,-588,18444,522,500,-210,2025-01-29 11:11:41,0.0
2352,-680,18584,526,712,-287,2025-01-29 11:11:41,0.0
2584,-764,18544,304,499,-331,2025-01-29 11:11:41,0.0
2344,-620,18768,153,477,-364,2025-01-29 11:11:41,0.0
2128,-536,18692,142,133,-331,2025-01-29 11:11:41,0.0
2376,-600,18840,86,-254,-99,2025-01-29 11:11:41,0.0
2712,-496,18644,171,151,-101,2025-01-29 11:11:41,0.0
2696,-596,18624,118,777,-284,2025-01-29 11:11:41,0.0
2296,-628,18552,1,871,-405,2025-01-29 11:11:41,0.0
2124,-620,18396,-211,710,-405,2025-01-29 11:11:41,0.0
1984,-476,18572,-320,678,-511,2025-01-29 11:11:41,0.0
1800,-516,18832,-276,293,-415,2025-01-29 11:11:41,0.0
1864,-256,18760,-288,285,-168,2025-01-29 11:11:41,0.0
2284,-436,18388,-402,167,-85,2025-01-29 11:11:41,0.0
2164,-708,18284,-526,404,-121,2025-01-29 11:11:41,0.0
1896,-552,18320,-625,314,-157,2025-01-29 11:11:41,0.0
1816,-488,18348,-826,168,-13,2025-01-29 11:11:42,0.0
1896,-668,18568,-820,-182,24,2025-01-29 11:11:42,0.0
2184,-684,18888,-631,-276,-83,2025-01-29 11:11:42,0.0
2076,-708,18624,-382,-253,-224,2025-01-29 11:11:42,0.0
2072,-772,18604,-254,-220,-200,2025-01-29 11:11:42,0.0
2184,-608,18668,-204,-80,-335,2025-01-29 11:11:42,0.0
2352,-644,18848,182,274,-474,2025-01-29 11:11:42,0.0
2052,-488,18748,572,471,-442,2025-01-29 11:11:42,0.0
1796,-168,18480,605,206,-268,2025-01-29 11:11:42,0.0
2376,-592,18356,289,646,-89,2025-01-29 11:11:42,0.0
2228,-824,18240,45,456,-216,2025-01-29 11:11:42,0.0
2388,-592,18560,-125,778,-403,2025-01-29 11:11:42,0.0
2108,-652,18384,-320,506,-447,2025-01-29 11:11:42,0.0
2028,-524,18764,-410,117,-248,2025-01-29 11:11:42,0.0
2148,-644,18588,-399,165,-160,2025-01-29 11:11:42,0.0
2068,-408,18700,-334,-57,-168,2025-01-29 11:11:42,0.0
1952,-608,18816,-75,-37,-157,2025-01-29 11:11:42,0.0
2232,-736,18784,270,267,-328,2025-01-29 11:11:42,0.0
2080,-680,18704,304,274,-492,2025-01-29 11:11:42,0.0
2132,-624,18788,216,255,-365,2025-01-29 11:11:42,0.0
2260,-652,18600,188,313,-312,2025-01-29 11:11:42,0.0
2416,-612,18520,194,462,-492,2025-01-29 11:11:42,0.0
2164,-564,18812,351,707,-601,2025-01-29 11:11:42,
1912,-560,18500,318,693,-579,2025-01-29 11:11:42,0.0
1960,-420,18272,-76,446,-317,2025-01-29 11:11:42,0.0
1832,-544,18416,-251,488,-159,2025-01-29 11:11:42,0.0
2028,-612,18484,-166,460,-246,2025-01-29 11:11:42,0.0
1876,-504,18316,-199,409,-288,2025-01-29 11:11:42,0.0
1744,-580,18428,-277,291,-144,2025-01-29 11:11:42,0.0
1864,-644,18236,-355,170,28,2025-01-29 11:11:42,0.0
1748,-520,18276,-402,284,72,2025-01-29 11:11:42,0.0
1984,-500,18556,-258,-2,8,2025-01-29 11:11:42,0.0
2056,-496,18636,-89,-105,-82,2025-01-29 11:11:42,0.0
2204,-396,18564,-122,-172,-166,2025-01-29 11:11:42,0.0
2224,-436,18500,-244,40,-99,2025-01-29 11:11:42,0.0
2148,-504,18348,-365,205,-188,2025-01-29 11:11:42,0.0
1988,-372,18680,-242,174,-285,2025-01-29 11:11:42,0.0
2092,-548,18660,-96,115,-266,2025-01-29 11:11:42,0.0
2100,-616,18280,-340,151,-221,2025-01-29 11:11:42,0.0
2060,-532,18592,-424,145,-250,2025-01-29 11:11:42,0.0
1684,-380,18448,-418,140,-127,2025-01-29 11:11:42,0.0
2092,-656,18488,-612,201,-44,2025-01-29 11:11:42,0.0
2320,-612,19224,-270,375,-257,2025-01-29 11:11:42,0.0
2192,-536,18956,128,315,-431,2025-01-29 11:11:42,0.0
1996,-540,18268,158,449,-448,2025-01-29 11:11:42,0.0
1784,-572,18276,227,543,-407,2025-01-29 11:11:42,0.0
1628,-420,18356,266,399,-459,2025-01-29 11:11:42,0.0
1916,-480,18452,152,131,-261,2025-01-29 11:11:42,0.0
1984,-532,18424,-99,93,-33,2025-01-29 11:11:42,0.0
2156,-576,18840,-68,203,-10,2025-01-29 11:11:42,0.0
2196,-404,18600,-71,466,-33,2025-01-29 11:11:42,0.0
1992,-340,18528,-166,449,-38,2025-01-29 11:11:42,0.0
1968,-512,18472,-71,552,50,2025-01-29 11:11:42,0.0
1668,-468,18156,-121,405,68,2025-01-29 11:11:42,0.0
1296,-492,18280,-286,223,369,2025-01-29 11:11:42,0.0
1640,-588,18324,-432,-94,508,2025-01-29 11:11:42,0.0
2144,-524,18568,-460,-247,443,2025-01-29 11:11:42,0.0
2480,-720,18832,-262,-132,196,2025-01-29 11:11:42,0.0
2608,-540,18816,-185,264,-137,2025-01-29 11:11:42,0.0
2244,-532,18560,-133,530,-434,2025-01-29 11:11:42,0.0
1876,-368,18732,-193,378,-349,2025-01-29 11:11:43,0.0
1796,-380,18736,-292,346,-79,2025-01-29 11:11:43,0.0
2004,-524,18468,-364,271,-22,2025-01-29 11:11:43,0.0
1980,-560,18576,-372,347,-158,2025-01-29 11:11:43,0.0
1928,-584,18560,-216,473,-291,2025-01-29 11:11:43,0.0
1944,-644,18604,-93,565,-370,2025-01-29 11:11:43,0.0
1792,-504,18564,-75,446,-370,2025-01-29 11:11:43,0.0
1680,-504,18528,-45,253,-241,2025-01-29 11:11:43,0.0
1776,-552,18392,-73,28,-177,2025-01-29 11:11:43,0.0
1940,-392,18488,-188,-89,-76,2025-01-29 11:11:43,0.0
2220,-624,18320,-197,315,-136,2025-01-29 11:11:43,0.0
1896,-612,18452,-131,329,-323,2025-01-29 11:11:43,0.0
1580,-612,18652,-110,63,-330,2025-01-29 11:11:43,0.0
1716,-360,18576,-116,-227,-157,2025-01-29 11:11:43,0.0
2212,-592,18116,-314,332,-138,2025-01-29 11:11:43,0.0
2084,-548,18492,-482,246,-336,2025-01-29 11:11:43,0.0
1816,-500,18456,-489,100,-249,2025-01-29 11:11:43,0.0
1844,-348,18468,-520,63,-182,2025-01-29 11:11:43,0.0
1904,-500,18564,-524,137,-93,2025-01-29 11:11:43,0.0
1812,-800,18456,-538,-45,-60,2025-01-29 11:11:43,0.0
1776,-680,18340,-579,-416,-32,2025-01-29 11:11:43,0.0
1808,-616,18680,-583,-209,102,2025-01-29 11:11:43,0.0
2152,-692,18916,-350,-85,-75,2025-01-29 11:11:43,0.0
2048,-608,18728,-31,268,-294,2025-01-29 11:11:43,0.0
2196,-508,18764,219,622,-457,2025-01-29 11:11:43,0.0
2016,-432,18744,330,666,-494,2025-01-29 11:11:43,0.0
2008,-616,18716,318,527,-373,2025-01-29 11:11:43,0.0
2040,-540,18620,156,632,-275,2025-01-29 11:11:43,0.0
2116,-500,18640,-16,607,-282,2025-01-29 11:11:43,0.0
1956,-428,18652,15,620,-314,2025-01-29 11:11:43,0.0
1724,-436,18568,13,512,-252,2025-01-29 11:11:43,0.0
1612,-640,18380,-79,563,-164,2025-01-29 11:11:43,0.0
1572,-612,18532,-72,272,-77,2025-01-29 11:11:43,0.0
1680,-552,18620,-13,82,19,2025-01-29 11:11:43,0.0
2064,-664,18488,92,300,-122,2025-01-29 11:11:43,0.0
2052,-656,18632,52,290,-347,2025-01-29 11:11:43,0.0
1756,-404,18696,204,346,-373,2025-01-29 11:11:43,0.0
2012,-588,18252,123,827,-455,2025-01-29 11:11:43,0.0
1720,-608,18384,-128,582,-491,2025-01-29 11:11:43,0.0
1536,-316,18208,-308,323,-372,2025-01-29 11:11:43,0.0
1708,-488,18172,-417,120,-217,2025-01-29 11:11:43,0.0
1852,-480,18512,-501,270,-207,2025-01-29 11:11:43,0.0
1776,-544,18648,-444,147,-338,2025-01-29 11:11:43,0.0
1816,-616,18584,-387,-10,-241,2025-01-29 11:11:43,0.0
1740,-656,18560,-395,60,-256,2025-01-29 11:11:43,0.0
1716,-588,18428,-268,99,-346,2025-01-29 11:11:43,0.0
1752,-440,18652,-75,-7,-405,2025-01-29 11:11:43,0.0
1960,-432,18740,132,225,-428,2025-01-29 11:11:43,0.0
1876,-552,18356,51,390,-485,2025-01-29 11:11:43,0.0
1628,-616,18408,-150,241,-481,2025-01-29 11:11:43,0.0
1516,-576,18248,-309,71,-372,2025-01-29 11:11:43,0.0
1436,-648,18332,-428,-231,-278,2025-01-29 11:11:43,0.0
1684,-380,18792,-271,-547,-202,2025-01-29 11:11:43,0.0
2076,-572,18668,-165,-235,-181,2025-01-29 11:11:43,0.0
2048,-532,18728,-87,-84,-352,2025-01-29 11:11:43,0.0
2048,-456,18932,9,-157,-394,2025-01-29 11:11:43,0.0
2160,-728,18236,-229,302,-390,2025-01-29 11:11:43,0.0
2092,-584,18748,-366,258,-627,2025-01-29 11:11:43,0.0
1928,-180,18732,-108,324,-653,2025-01-29 11:11:43,0.0
2020,-568,18424,-157,490,-631,2025-01-29 11:11:43,0.0
1740,-596,18628,-265,374,-552,2025-01-29 11:11:44,0.0
1400,-656,18508,-474,205,-205,2025-01-29 11:11:44,0.0
1960,-620,18392,-527,185,-40,2025-01-29 11:11:44,
2168,-776,18600,-334,176,-186,2025-01-29 11:11:44,0.0
2116,-796,18392,-62,502,-396,2025-01-29 11:11:44,0.0
1820,-816,18264,-8,520,-658,2025-01-29 11:11:44,0.0
1836,-796,18328,13,642,-772,2025-01-29 11:11:44,0.0
1580,-660,17792,-146,763,-853,2025-01-29 11:11:44,0.0
1404,-460,18316,-387,396,-733,2025-01-29 11:11:44,0.0
1400,-372,18772,-363,20,-509,2025-01-29 11:11:44,0.0
1752,-476,18888,-364,-204,-279,2025-01-29 11:11:44,0.0
1988,-532,18760,-333,-153,-363,2025-01-29 11:11:44,0.0
1928,-632,18416,-379,104,-419,2025-01-29 11:11:44,0.0
1956,-732,18380,-494,394,-491,2025-01-29 11:11:44,0.0
1396,-836,18428,-537,365,-429,2025-01-29 11:11:44,0.0
1296,-628,18708,-413,-74,-194,2025-01-29 11:11:44,0.0
1684,-832,18568,-269,-268,-124,2025-01-29 11:11:44,0.0
1860,-848,18544,-259,-291,-188,2025-01-29 11:11:44,0.0
2044,-744,18792,-181,-47,-244,2025-01-29 11:11:44,0.0
1796,-704,18752,-34,67,-188,2025-01-29 11:11:44,0.0
1700,-560,18716,68,-28,-68,2025-01-29 11:11:44,0.0
1992,-540,18648,68,192,43,2025-01-29 11:11:44,0.0
2268,-1004,18160,-115,414,-72,2025-01-29 11:11:44,0.0
1736,-852,18484,-291,537,-109,2025-01-29 11:11:44,0.0
1676,-684,18828,-107,86,-95,2025-01-29 11:11:44,0.0
1784,-744,18320,-35,556,0,2025-01-29 11:11:44,0.0
1840,-1048,18272,-79,499,-207,2025-01-29 11:11:44,0.0
1388,-896,18416,-15,344,-190,2025-01-29 11:11:44,0.0
1208,-532,18428,25,-368,81,2025-01-29 11:11:44,0.0
2004,-712,18564,-69,-354,177,2025-01-29 11:11:44,0.0
2020,-720,18700,-114,-302,59,2025-01-29 11:11:44,0.0
1964,-472,18700,-81,-48,43,2025-01-29 11:11:44,0.0
2112,-660,18428,-109,158,-117,2025-01-29 11:11:44,0.0
1932,-700,18592,-80,202,-145,2025-01-29 11:11:44,0.0
1808,-512,18460,-70,120,-156,2025-01-29 11:11:44,0.0
1884,-568,18476,-93,-77,-204,2025-01-29 11:11:44,0.0
2052,-772,18396,-178,-28,-222,2025-01-29 11:11:44,0.0
2120,-660,18136,-399,84,-287,2025-01-29 11:11:44,0.0
1692,-448,18476,-558,137,-278,2025-01-29 11:11:44,0.0
1872,-500,18964,-255,-15,-103,2025-01-29 11:11:44,0.0
1860,-596,18728,-108,2,-36,2025-01-29 11:11:44,0.0
1992,-720,18404,-228,130,-71,2025-01-29 11:11:44,0.0
2012,-708,18404,-278,267,-213,2025-01-29 11:11:44,0.0
1864,-608,18416,-201,354,-353,2025-01-29 11:11:44,0.0
1608,-624,18432,-276,216,-220,2025-01-29 11:11:44,0.0
1580,-792,18500,-305,17,-94,2025-01-29 11:11:44,0.0
1692,-788,18472,-226,-98,-29,2025-01-29 11:11:44,0.0
1832,-652,18544,-128,-244,-12,2025-01-29 11:11:44,0.0
1964,-676,18728,36,-6,42,2025-01-29 11:11:44,0.0
2144,-816,18684,149,-104,-131,2025-01-29 11:11:44,0.0
2080,-568,18552,136,72,-257,2025-01-29 11:11:44,0.0
1916,-532,18396,43,452,-173,2025-01-29 11:11:44,0.0
1404,-452,18528,-75,273,-52,2025-01-29 11:11:44,0.0
1564,-388,18256,-266,-9,198,2025-01-29 11:11:44,0.0
1840,-576,18240,-356,-132,293,2025-01-29 11:11:44,0.0
2148,-460,18632,-281,-247,146,2025-01-29 11:11:44,0.0
2452,-400,19044,-83,-213,-26,2025-01-29 11:11:44,0.0
2536,-564,19024,105,391,-261,2025-01-29 11:11:44,0.0
2364,-816,18868,35,768,-492,2025-01-29 11:11:44,0.0
1976,-888,18756,-109,657,-543,2025-01-29 11:11:44,0.0
1556,-840,18720,-238,454,-341,2025-01-29 11:11:44,0.0
1676,-744,18756,-221,151,-182,2025-01-29 11:11:44,0.0
1712,-748,18788,-75,131,-191,2025-01-29 11:11:45,0.0
2040,-848,18740,146,324,-376,2025-01-29 11:11:45,0.0
1828,-624,18556,311,367,-488,2025-01-29 11:11:45,0.0
1828,-552,18392,181,374,-372,2025-01-29 11:11:45,0.0
1896,-492,18280,-63,485,-303,2025-01-29 11:11:45,0.0
1784,-600,18356,-85,402,-355,2025-01-29 11:11:45,0.0
1656,-596,18188,-184,122,-243,2025-01-29 11:11:45,0.0
1764,-664,17984,-399,15,-117,2025-01-29 11:11:45,0.0
1880,-696,18100,-590,-124,-66,2025-01-29 11:11:45,0.0
1868,-564,18544,-589,-291,-33,2025-01-29 11:11:45,0.0
2096,-596,18644,-369,23,-83,2025-01-29 11:11:45,0.0
1844,-712,18976,-100,24,-184,2025-01-29 11:11:45,0.0
1816,-500,18660,6,-46,9,2025-01-29 11:11:45,0.0
2020,-880,18716,-32,-362,109,2025-01-29 11:11:45,0.0
2148,-636,18568,-145,-293,217,2025-01-29 11:11:45,0.0
2324,-812,18520,-201,149,43,2025-01-29 11:11:45,0.0
2024,-700,18792,-187,52,-69,2025-01-29 11:11:45,0.0
2076,-504,18856,30,-41,-49,2025-01-29 11:11:45,0.0
2212,-612,18516,63,374,-151,2025-01-29 11:11:45,0.0
1920,-616,18496,-3,455,-192,2025-01-29 11:11:45,0.0
1616,-412,18316,-2,452,-28,2025-01-29 11:11:45,0.0
1640,-544,18200,-125,71,102,2025-01-29 11:11:45,0.0
1808,-508,17944,-269,-169,187,2025-01-29 11:11:45,0.0
1924,-316,18320,-274,-404,121,2025-01-29 11:11:45,0.0
2384,-388,18680,-140,-337,-8,2025-01-29 11:11:45,0.0
2652,-596,18780,-79,96,-238,2025-01-29 11:11:45,0.0
2476,-584,18636,-127,435,-493,2025-01-29 11:11:45,0.0
2268,-428,18704,-226,637,-593,2025-01-29 11:11:45,0.0
1856,-332,18644,-265,537,-549,2025-01-29 11:11:45,0.0
1784,-436,18456,-312,477,-415,2025-01-29 11:11:45,0.0
1672,-500,18432,-342,236,-416,2025-01-29 11:11:45,0.0
1712,-368,18432,-209,305,-368,2025-01-29 11:11:45,0.0
1688,-512,18528,-223,307,-296,2025-01-29 11:11:45,0.0
1652,-636,18500,-234,133,-197,2025-01-29 11:11:45,0.0
1768,-656,18716,-238,-63,8,2025-01-29 11:11:45,0.0
1960,-612,18720,-78,-105,-46,2025-01-29 11:11:45,0.0
2212,-820,18556,77,129,-231,2025-01-29 11:11:45,0.0
2228,-588,18740,173,250,-452,2025-01-29 11:11:45,0.0
1996,-552,18756,176,293,-500,2025-01-29 11:11:45,0.0
1856,-596,18280,94,268,-409,2025-01-29 11:11:45,0.0
1812,-540,18344,-151,-124,-288,2025-01-29 11:11:45,
