acceleration_x,acceleration_y,acceleration_z,gyroscope_x,gyroscope_y,gyroscope_z,timestamp,label
2104,180,18556,-171,161,-197,2025-01-29 10:29:42,0.0
2212,168,18504,-144,146,-163,2025-01-29 10:29:42,0.0
2184,108,18600,-167,155,-171,2025-01-29 10:29:42,0.0
2088,108,18532,-156,162,-172,2025-01-29 10:29:42,0.0
2072,52,18592,-158,152,-166,2025-01-29 10:29:42,0.0
2188,152,18644,-157,152,-177,2025-01-29 10:29:42,0.0
2076,188,18596,-155,145,-166,2025-01-29 10:29:42,0.0
2168,128,18488,-148,181,-166,2025-01-29 10:29:42,0.0
2172,208,18532,-140,166,-180,2025-01-29 10:29:42,0.0
2120,160,18568,-163,169,-184,2025-01-29 10:29:42,0.0
2024,104,18560,-162,166,-167,2025-01-29 10:29:42,0.0
2096,216,18564,-170,170,-190,2025-01-29 10:29:42,0.0
2024,112,18560,-176,141,-192,2025-01-29 10:29:42,0.0
2108,80,18512,-174,155,-162,2025-01-29 10:29:42,0.0
2060,148,18544,-147,145,-166,2025-01-29 10:29:42,0.0
2156,136,18580,-170,163,-150,2025-01-29 10:29:42,0.0
2144,128,18504,-148,156,-177,2025-01-29 10:29:42,0.0
2132,116,18464,-177,159,-163,2025-01-29 10:29:42,0.0
2188,152,18544,-138,144,-165,2025-01-29 10:29:43,0.0
2096,56,18608,-185,145,-167,2025-01-29 10:29:43,0.0
2124,112,18600,-162,177,-200,2025-01-29 10:29:43,0.0
2128,148,18576,-178,129,-189,2025-01-29 10:29:43,0.0
2188,92,18596,-144,156,-197,2025-01-29 10:29:43,0.0
2104,144,18428,-164,160,-149,2025-01-29 10:29:43,0.0
2132,116,18424,-162,162,-157,2025-01-29 10:29:43,0.0
2200,120,18532,-156,156,-161,2025-01-29 10:29:43,0.0
2156,92,18564,-164,156,-168,2025-01-29 10:29:43,0.0
2128,108,18568,-162,169,-194,2025-01-29 10:29:43,0.0
2120,212,18640,-181,176,-160,2025-01-29 10:29:43,0.0
2144,132,18712,-135,149,-173,2025-01-29 10:29:43,0.0
2124,76,18584,-152,180,-169,2025-01-29 10:29:43,0.0
2172,128,18524,-168,152,-172,2025-01-29 10:29:43,0.0
2092,56,18640,-174,165,-176,2025-01-29 10:29:43,0.0
2208,128,18512,-173,186,-182,2025-01-29 10:29:43,0.0
2120,188,18524,-173,150,-177,2025-01-29 10:29:43,0.0
2152,140,18540,-165,146,-181,2025-01-29 10:29:43,0.0
2176,104,18688,-170,174,-162,2025-01-29 10:29:43,0.0
2176,184,18596,-164,145,-176,2025-01-29 10:29:43,0.0
2116,64,18668,-147,161,-170,2025-01-29 10:29:43,0.0
2092,184,18620,-189,166,-177,2025-01-29 10:29:43,0.0
2112,104,18580,-160,163,-169,2025-01-29 10:29:43,0.0
2100,100,18620,-179,169,-190,2025-01-29 10:29:43,0.0
2176,108,18636,-139,159,-187,2025-01-29 10:29:43,0.0
2088,132,18532,-161,159,-202,2025-01-29 10:29:43,0.0
2156,168,18588,-145,154,-173,2025-01-29 10:29:43,0.0
2084,96,18684,-169,161,-200,2025-01-29 10:29:43,0.0
2128,112,18552,-164,167,-177,2025-01-29 10:29:43,0.0
2200,132,18556,-158,154,-193,2025-01-29 10:29:43,0.0
2068,124,18656,-175,160,-169,2025-01-29 10:29:43,0.0
2160,144,18524,-164,158,-180,2025-01-29 10:29:43,0.0
2100,132,18664,-159,166,-180,2025-01-29 10:29:43,0.0
2032,160,18676,-171,159,-172,2025-01-29 10:29:43,0.0
2196,124,18616,-161,163,-159,2025-01-29 10:29:43,0.0
2104,168,18416,-150,148,-165,2025-01-29 10:29:43,0.0
2216,112,18540,-139,154,-174,2025-01-29 10:29:43,0.0
2092,96,18612,-146,154,-186,2025-01-29 10:29:43,0.0
2168,176,18440,-170,162,-197,2025-01-29 10:29:43,0.0
2080,108,18628,-134,188,-182,2025-01-29 10:29:43,0.0
2132,204,18556,-162,153,-183,2025-01-29 10:29:43,0.0
2116,276,18672,-150,161,-180,2025-01-29 10:29:43,0.0
2072,240,18512,-184,145,-183,2025-01-29 10:29:43,0.0
2024,112,18624,-154,156,-161,2025-01-29 10:29:43,0.0
2104,168,18520,-151,160,-180,2025-01-29 10:29:43,0.0
2104,64,18472,-156,147,-159,2025-01-29 10:29:43,0.0
2068,72,18636,-160,148,-160,2025-01-29 10:29:43,0.0
2108,136,18564,-160,128,-183,2025-01-29 10:29:43,0.0
2200,76,18756,-134,164,-186,2025-01-29 10:29:43,0.0
2124,136,18568,-189,186,-186,2025-01-29 10:29:43,0.0
2108,84,18472,-170,158,-167,2025-01-29 10:29:43,0.0
2156,124,18496,-151,143,-190,2025-01-29 10:29:43,0.0
2064,84,18520,-134,156,-184,2025-01-29 10:29:43,0.0
2072,104,18596,-170,148,-177,2025-01-29 10:29:43,0.0
1988,96,18504,-139,189,-192,2025-01-29 10:29:43,0.0
2068,44,18544,-154,161,-159,2025-01-29 10:29:43,0.0
2172,164,18584,-137,160,-186,2025-01-29 10:29:43,0.0
2144,52,18520,-169,152,-192,2025-01-29 10:29:43,0.0
2172,104,18556,-166,160,-178,2025-01-29 10:29:43,0.0
2060,96,18496,-185,161,-185,2025-01-29 10:29:43,0.0
2236,172,18592,-164,162,-181,2025-01-29 10:29:44,0.0
2060,60,18640,-139,148,-172,2025-01-29 10:29:44,0.0
2100,52,18464,-146,159,-169,2025-01-29 10:29:44,0.0
2052,76,18392,-144,174,-176,2025-01-29 10:29:44,0.0
2172,180,18540,-177,160,-190,2025-01-29 10:29:44,0.0
2096,184,18632,-153,170,-177,2025-01-29 10:29:44,0.0
2192,64,18504,-162,161,-177,2025-01-29 10:29:44,0.0
2012,40,18508,-165,146,-161,2025-01-29 10:29:44,0.0
2156,48,18672,-160,162,-184,2025-01-29 10:29:44,0.0
2124,116,18536,-157,159,-199,2025-01-29 10:29:44,0.0
2164,136,18420,-135,167,-165,2025-01-29 10:29:44,0.0
2040,112,18444,-165,147,-168,2025-01-29 10:29:44,0.0
2188,148,18628,-150,161,-163,2025-01-29 10:29:44,0.0
2116,124,18504,-164,166,-181,2025-01-29 10:29:44,0.0
2132,156,18656,-146,152,-195,2025-01-29 10:29:44,0.0
2164,92,18488,-159,151,-184,2025-01-29 10:29:44,0.0
2152,116,18412,-176,146,-172,2025-01-29 10:29:44,0.0
2180,76,18472,-156,179,-177,2025-01-29 10:29:44,0.0
2084,88,18648,-169,160,-176,2025-01-29 10:29:44,0.0
2176,156,18676,-168,158,-162,2025-01-29 10:29:44,0.0
2108,64,18584,-155,139,-171,2025-01-29 10:29:44,0.0
2156,104,18548,-162,145,-184,2025-01-29 10:29:44,
2204,136,18508,-160,146,-186,2025-01-29 10:29:44,0.0
2080,156,18492,-180,150,-172,2025-01-29 10:29:44,0.0
2140,120,18456,-178,156,-171,2025-01-29 10:29:44,0.0
2084,148,18504,-182,173,-197,2025-01-29 10:29:44,0.0
2064,48,18532,-167,179,-185,2025-01-29 10:29:44,0.0
2184,88,18600,-139,143,-176,2025-01-29 10:29:44,0.0
2136,160,18496,-153,180,-176,2025-01-29 10:29:44,0.0
2096,132,18480,-155,175,-182,2025-01-29 10:29:44,0.0
2072,160,18664,-183,152,-169,2025-01-29 10:29:44,0.0
2124,104,18640,-148,149,-174,2025-01-29 10:29:44,0.0
2128,156,18484,-148,166,-182,2025-01-29 10:29:44,0.0
2156,84,18564,-160,169,-181,2025-01-29 10:29:44,0.0
2216,140,18640,-146,170,-190,2025-01-29 10:29:44,0.0
2132,172,18548,-154,141,-173,2025-01-29 10:29:44,0.0
2088,156,18556,-166,149,-170,2025-01-29 10:29:44,0.0
2124,208,18584,-186,163,-159,2025-01-29 10:29:44,0.0
2076,220,18760,-132,149,-179,2025-01-29 10:29:44,0.0
2112,68,18576,-167,145,-182,2025-01-29 10:29:44,0.0
2064,156,18472,-155,164,-186,2025-01-29 10:29:44,0.0
2124,108,18568,-149,149,-170,2025-01-29 10:29:44,0.0
2096,148,18552,-139,158,-162,2025-01-29 10:29:44,0.0
2044,100,18528,-146,160,-169,2025-01-29 10:29:44,0.0
2088,124,18548,-154,148,-170,2025-01-29 10:29:44,0.0
2160,80,18584,-150,145,-163,2025-01-29 10:29:44,0.0
2056,124,18448,-146,152,-191,2025-01-29 10:29:44,0.0
2080,144,18584,-160,158,-164,2025-01-29 10:29:44,0.0
2228,144,18456,-162,142,-163,2025-01-29 10:29:44,0.0
2104,232,18560,-147,144,-178,2025-01-29 10:29:44,0.0
2168,72,18568,-171,155,-169,2025-01-29 10:29:44,0.0
2064,76,18508,-165,141,-179,2025-01-29 10:29:44,0.0
2196,232,18516,-165,165,-173,2025-01-29 10:29:44,0.0
2008,172,18584,-156,148,-180,2025-01-29 10:29:44,0.0
2100,184,18684,-153,175,-172,2025-01-29 10:29:44,0.0
2116,148,18336,-179,167,-175,2025-01-29 10:29:44,0.0
2124,92,18476,-154,154,-166,2025-01-29 10:29:44,0.0
2252,208,18656,-165,149,-168,2025-01-29 10:29:44,0.0
2128,140,18564,-154,157,-175,2025-01-29 10:29:44,0.0
2096,104,18624,-131,178,-173,2025-01-29 10:29:44,0.0
2160,164,18572,-144,152,-174,2025-01-29 10:29:45,0.0
2080,60,18668,-152,155,-203,2025-01-29 10:29:45,0.0
2124,36,18504,-142,171,-173,2025-01-29 10:29:45,0.0
2200,80,18648,-159,151,-194,2025-01-29 10:29:45,0.0
2116,132,18576,-143,177,-168,2025-01-29 10:29:45,0.0
2156,120,18564,-157,166,-162,2025-01-29 10:29:45,0.0
2028,116,18588,-174,157,-166,2025-01-29 10:29:45,0.0
2000,132,18456,-149,166,-164,2025-01-29 10:29:45,0.0
2096,44,18484,-140,175,-171,2025-01-29 10:29:45,0.0
2112,192,18696,-172,162,-178,2025-01-29 10:29:45,0.0
2140,180,18516,-175,171,-180,2025-01-29 10:29:45,0.0
2144,120,18320,-159,160,-164,2025-01-29 10:29:45,0.0
2216,124,18580,-151,164,-171,2025-01-29 10:29:45,0.0
2076,156,18572,-156,188,-174,2025-01-29 10:29:45,0.0
2108,136,18564,-155,166,-170,2025-01-29 10:29:45,0.0
2112,164,18624,-150,161,-188,2025-01-29 10:29:45,0.0
2140,68,18548,-151,172,-187,2025-01-29 10:29:45,0.0
2092,128,18380,-150,164,-183,2025-01-29 10:29:45,0.0
2036,164,18468,-145,159,-160,2025-01-29 10:29:45,0.0
2112,52,18380,-153,149,-190,2025-01-29 10:29:45,0.0
2044,124,18460,-160,164,-156,2025-01-29 10:29:45,0.0
2044,116,18536,-137,164,-188,2025-01-29 10:29:45,0.0
2112,144,18368,-165,153,-177,2025-01-29 10:29:45,0.0
2132,220,18560,-168,174,-177,2025-01-29 10:29:45,0.0
2048,172,18548,-172,148,-149,2025-01-29 10:29:45,0.0
2048,108,18444,-160,142,-150,2025-01-29 10:29:45,0.0
2160,184,18652,-139,140,-180,2025-01-29 10:29:45,0.0
2152,116,18576,-159,150,-168,2025-01-29 10:29:45,0.0
2100,120,18556,-148,141,-183,2025-01-29 10:29:45,0.0
2128,84,18624,-164,176,-182,2025-01-29 10:29:45,0.0
2176,80,18492,-156,172,-177,2025-01-29 10:29:45,0.0
2060,176,18584,-161,153,-165,2025-01-29 10:29:45,0.0
2136,12,18524,-160,143,-163,2025-01-29 10:29:45,0.0
2104,188,18452,-160,168,-175,2025-01-29 10:29:45,0.0
2220,132,18524,-172,168,-164,2025-01-29 10:29:45,0.0
2224,228,18456,-168,163,-164,2025-01-29 10:29:45,0.0
2164,96,18564,-152,150,-185,2025-01-29 10:29:45,0.0
2112,144,18488,-163,176,-182,2025-01-29 10:29:45,0.0
2120,84,18588,-137,143,-181,2025-01-29 10:29:45,0.0
2132,164,18564,-156,168,-173,2025-01-29 10:29:45,0.0
2032,148,18576,-166,163,-161,2025-01-29 10:29:45,0.0
2104,92,18596,-139,142,-187,2025-01-29 10:29:45,0.0
2132,44,18512,-167,156,-164,2025-01-29 10:29:45,0.0
2052,152,18504,-158,155,-163,2025-01-29 10:29:45,0.0
2092,76,18552,-178,149,-157,2025-01-29 10:29:45,0.0
2076,112,18748,-165,153,-182,2025-01-29 10:29:45,0.0
2120,160,18540,-155,139,-173,2025-01-29 10:29:45,0.0
2120,136,18596,-173,153,-169,2025-01-29 10:29:45,0.0
2128,120,18536,-186,169,-165,2025-01-29 10:29:45,0.0
2164,108,18536,-144,135,-172,2025-01-29 10:29:45,0.0
2132,232,18520,-181,176,-189,2025-01-29 10:29:45,0.0
2200,196,18548,-142,152,-175,2025-01-29 10:29:45,0.0
2252,96,18548,-158,156,-164,2025-01-29 10:29:45,0.0
2088,128,18564,-161,157,-162,2025-01-29 10:29:45,0.0
2160,56,18572,-160,160,-179,2025-01-29 10:29:45,0.0
2132,32,18492,-168,161,-180,2025-01-29 10:29:45,0.0
2220,256,18660,-147,156,-182,2025-01-29 10:29:45,0.0
2164,196,18464,-142,149,-199,2025-01-29 10:29:45,0.0
2092,180,18668,-161,169,-175,2025-01-29 10:29:45,0.0
2140,144,18540,-157,174,-165,2025-01-29 10:29:45,0.0
2184,140,18620,-145,149,-169,2025-01-29 10:29:46,0.0
2080,132,18612,-164,162,-182,2025-01-29 10:29:46,
2120,72,18600,-142,159,-184,2025-01-29 10:29:46,0.0
2188,136,18444,-167,152,-172,2025-01-29 10:29:46,0.0
2140,196,18600,-156,160,-173,2025-01-29 10:29:46,0.0
2184,84,18472,-155,152,-170,2025-01-29 10:29:46,0.0
2252,156,18612,-160,146,-179,2025-01-29 10:29:46,0.0
2136,176,18688,-159,154,-165,2025-01-29 10:29:46,0.0
2016,76,18684,-137,169,-178,2025-01-29 10:29:46,0.0
2216,144,18456,-152,164,-185,2025-01-29 10:29:46,0.0
2108,84,18580,-167,157,-165,2025-01-29 10:29:46,0.0
2112,168,18532,-155,178,-181,2025-01-29 10:29:46,0.0
2152,160,18628,-161,141,-169,2025-01-29 10:29:46,0.0
2148,96,18600,-141,161,-167,2025-01-29 10:29:46,0.0
2080,60,18544,-167,151,-178,2025-01-29 10:29:46,0.0
2068,188,18488,-160,147,-172,2025-01-29 10:29:46,0.0
2164,48,18512,-152,178,-182,2025-01-29 10:29:46,0.0
2156,196,18576,-149,157,-185,2025-01-29 10:29:46,0.0
2056,68,18456,-152,154,-162,2025-01-29 10:29:46,0.0
2000,176,18552,-145,144,-162,2025-01-29 10:29:46,0.0
2120,180,18548,-157,148,-184,2025-01-29 10:29:46,0.0
2120,240,18648,-130,165,-189,2025-01-29 10:29:46,0.0
2132,100,18484,-143,155,-165,2025-01-29 10:29:46,0.0
2132,196,18632,-154,152,-187,2025-01-29 10:29:46,0.0
2152,144,18508,-168,170,-173,2025-01-29 10:29:46,0.0
2112,144,18572,-146,171,-173,2025-01-29 10:29:46,0.0
2152,108,18592,-160,154,-174,2025-01-29 10:29:46,0.0
2036,184,18776,-157,137,-177,2025-01-29 10:29:46,0.0
2140,88,18456,-157,157,-162,2025-01-29 10:29:46,0.0
2128,132,18528,-173,168,-197,2025-01-29 10:29:46,0.0
2232,200,18568,-164,165,-156,2025-01-29 10:29:46,0.0
2140,116,18468,-178,166,-164,2025-01-29 10:29:46,0.0
2048,160,18648,-180,142,-161,2025-01-29 10:29:46,0.0
2160,140,18476,-160,154,-165,2025-01-29 10:29:46,0.0
2040,92,18588,-148,161,-183,2025-01-29 10:29:46,0.0
2140,208,18428,-161,158,-160,2025-01-29 10:29:46,0.0
2124,100,18380,-142,153,-197,2025-01-29 10:29:46,0.0
2204,116,18544,-171,153,-177,2025-01-29 10:29:46,0.0
2104,140,18460,-164,181,-173,2025-01-29 10:29:46,0.0
2116,192,18664,-146,166,-188,2025-01-29 10:29:46,0.0
2088,116,18540,-162,151,-184,2025-01-29 10:29:46,0.0
2092,208,18572,-153,165,-189,2025-01-29 10:29:46,0.0
2132,100,18552,-170,153,-167,2025-01-29 10:29:46,0.0
2168,164,18652,-162,140,-171,2025-01-29 10:29:46,0.0
2144,124,18600,-159,152,-168,2025-01-29 10:29:46,0.0
2068,160,18596,-153,150,-166,2025-01-29 10:29:46,0.0
2172,192,18496,-135,146,-185,2025-01-29 10:29:46,0.0
2088,148,18600,-159,173,-171,2025-01-29 10:29:46,0.0
2012,188,18580,-174,173,-180,2025-01-29 10:29:46,0.0
2164,88,18540,-165,164,-182,2025-01-29 10:29:46,0.0
2176,136,18540,-166,174,-176,2025-01-29 10:29:46,0.0
2072,60,18468,-153,177,-182,2025-01-29 10:29:46,0.0
2172,156,18580,-146,155,-195,2025-01-29 10:29:46,0.0
2164,124,18564,-157,142,-174,2025-01-29 10:29:46,0.0
2112,144,18608,-151,144,-182,2025-01-29 10:29:46,0.0
2128,72,18684,-153,177,-172,2025-01-29 10:29:46,0.0
2212,108,18496,-133,148,-177,2025-01-29 10:29:46,0.0
2172,140,18440,-156,151,-185,2025-01-29 10:29:46,0.0
2164,184,18544,-154,133,-171,2025-01-29 10:29:46,0.0
2032,124,18588,-168,166,-178,2025-01-29 10:29:46,0.0
2144,96,18388,-178,160,-168,2025-01-29 10:29:46,0.0
2172,152,18608,-153,153,-173,2025-01-29 10:29:46,0.0
2140,224,18484,-153,139,-183,2025-01-29 10:29:47,0.0
2100,80,18568,-172,179,-178,2025-01-29 10:29:47,0.0
2072,24,18504,-156,143,-168,2025-01-29 10:29:47,0.0
2044,100,18532,-180,141,-180,2025-01-29 10:29:47,0.0
2176,180,18568,-154,168,-196,2025-01-29 10:29:47,0.0
2184,12,18600,-163,137,-168,2025-01-29 10:29:47,0.0
2104,120,18624,-161,146,-181,2025-01-29 10:29:47,0.0
2136,116,18464,-137,165,-176,2025-01-29 10:29:47,0.0
2112,144,18600,-156,169,-174,2025-01-29 10:29:47,0.0
2176,72,18552,-180,160,-180,2025-01-29 10:29:47,0.0
2144,164,18560,-145,160,-164,2025-01-29 10:29:47,0.0
2144,128,18472,-168,167,-187,2025-01-29 10:29:47,0.0
2112,132,18552,-160,138,-179,2025-01-29 10:29:47,0.0
2112,140,18580,-125,157,-170,2025-01-29 10:29:47,0.0
2116,160,18444,-151,153,-171,2025-01-29 10:29:47,0.0
2120,80,18492,-170,159,-152,2025-01-29 10:29:47,0.0
2112,128,18620,-161,157,-185,2025-01-29 10:29:47,0.0
2076,200,18552,-157,147,-160,2025-01-29 10:29:47,0.0
2176,60,18560,-159,149,-191,2025-01-29 10:29:47,0.0
2092,104,18456,-166,165,-180,2025-01-29 10:29:47,0.0
2072,-16,18612,-164,157,-178,2025-01-29 10:29:47,0.0
2064,60,18536,-174,152,-158,2025-01-29 10:29:47,0.0
2052,96,18700,-150,150,-172,2025-01-29 10:29:47,0.0
2040,0,18460,-134,174,-179,2025-01-29 10:29:47,0.0
2152,68,18708,-160,160,-167,2025-01-29 10:29:47,0.0
2236,92,18612,-165,170,-171,2025-01-29 10:29:47,0.0
2188,232,18616,-138,144,-198,2025-01-29 10:29:47,0.0
2168,200,18664,-168,141,-173,2025-01-29 10:29:47,0.0
2064,84,18464,-143,157,-167,2025-01-29 10:29:47,0.0
2092,104,18448,-148,155,-173,2025-01-29 10:29:47,0.0
2144,176,18544,-143,122,-186,2025-01-29 10:29:47,0.0
2220,112,18504,-176,161,-135,2025-01-29 10:29:47,0.0
2112,64,18584,-136,175,-162,2025-01-29 10:29:47,0.0
2132,144,18520,-157,164,-192,2025-01-29 10:29:47,0.0
2096,80,18468,-168,156,-196,2025-01-29 10:29:47,0.0
2096,204,18600,-132,147,-179,2025-01-29 10:29:47,0.0
2100,232,18592,-161,164,-172,2025-01-29 10:29:47,0.0
2152,128,18640,-149,182,-162,2025-01-29 10:29:47,0.0
2108,124,18556,-160,147,-170,2025-01-29 10:29:47,0.0
2192,160,18556,-165,157,-199,2025-01-29 10:29:47,
2084,88,18500,-137,164,-160,2025-01-29 10:29:47,0.0
2208,216,18540,-164,169,-163,2025-01-29 10:29:47,0.0
2136,196,18596,-150,149,-194,2025-01-29 10:29:47,0.0
2064,144,18596,-160,147,-176,2025-01-29 10:29:47,0.0
2116,180,18620,-156,188,-178,2025-01-29 10:29:47,0.0
2116,184,18512,-167,149,-141,2025-01-29 10:29:47,0.0
2112,140,18436,-164,141,-189,2025-01-29 10:29:47,0.0
2144,116,18552,-167,147,-170,2025-01-29 10:29:47,0.0
2164,176,18624,-157,167,-169,2025-01-29 10:29:47,0.0
2208,48,18608,-165,136,-167,2025-01-29 10:29:47,0.0
2084,72,18508,-181,142,-182,2025-01-29 10:29:47,0.0
2156,192,18356,-154,141,-190,2025-01-29 10:29:47,0.0
2028,88,18656,-144,152,-174,2025-01-29 10:29:47,0.0
2124,96,18544,-158,164,-160,2025-01-29 10:29:47,0.0
2060,172,18432,-179,151,-174,2025-01-29 10:29:47,0.0
2156,104,18640,-173,152,-172,2025-01-29 10:29:47,0.0
2128,84,18540,-156,157,-174,2025-01-29 10:29:47,0.0
2112,128,18608,-130,137,-186,2025-01-29 10:29:47,0.0
2136,76,18556,-162,163,-183,2025-01-29 10:29:47,0.0
2124,80,18536,-156,146,-168,2025-01-29 10:29:47,0.0
2196,100,18548,-173,167,-185,2025-01-29 10:29:47,0.0
2188,108,18492,-154,142,-178,2025-01-29 10:29:48,0.0
2120,120,18528,-176,149,-171,2025-01-29 10:29:48,0.0
2192,144,18620,-168,156,-172,2025-01-29 10:29:48,0.0
2088,136,18696,-148,155,-193,2025-01-29 10:29:48,0.0
2092,104,18592,-138,148,-174,2025-01-29 10:29:48,0.0
2136,96,18508,-144,142,-178,2025-01-29 10:29:48,0.0
2080,136,18604,-175,150,-151,2025-01-29 10:29:48,0.0
2140,120,18676,-181,168,-164,2025-01-29 10:29:48,0.0
2132,132,18608,-154,164,-199,2025-01-29 10:29:48,0.0
2120,148,18500,-175,174,-182,2025-01-29 10:29:48,0.0
2100,96,18556,-161,155,-155,2025-01-29 10:29:48,0.0
2072,144,18560,-146,158,-182,2025-01-29 10:29:48,0.0
2152,200,18564,-140,166,-152,2025-01-29 10:29:48,0.0
2156,164,18528,-142,161,-163,2025-01-29 10:29:48,0.0
2080,140,18488,-148,147,-196,2025-01-29 10:29:48,0.0
2152,76,18648,-156,148,-172,2025-01-29 10:29:48,0.0
2156,144,18476,-151,164,-181,2025-01-29 10:29:48,0.0
2212,176,18528,-160,152,-176,2025-01-29 10:29:48,0.0
2072,72,18604,-155,142,-193,2025-01-29 10:29:48,0.0
2232,116,18532,-155,156,-196,2025-01-29 10:29:48,0.0
2096,116,18664,-171,163,-180,2025-01-29 10:29:48,0.0
2252,104,18540,-153,164,-168,2025-01-29 10:29:48,0.0
2172,104,18532,-149,154,-174,2025-01-29 10:29:48,0.0
2120,128,18644,-172,179,-158,2025-01-29 10:29:48,0.0
2060,136,18736,-171,164,-172,2025-01-29 10:29:48,0.0
2092,48,18616,-176,156,-170,2025-01-29 10:29:48,0.0
2068,104,18528,-172,169,-176,2025-01-29 10:29:48,0.0
2080,160,18632,-152,173,-202,2025-01-29 10:29:48,0.0
2184,68,18500,-149,159,-159,2025-01-29 10:29:48,0.0
2100,100,18492,-137,155,-177,2025-01-29 10:29:48,0.0
2164,152,18604,-149,147,-137,2025-01-29 10:29:48,0.0
2080,148,18628,-161,148,-160,2025-01-29 10:29:48,0.0
2040,100,18532,-160,167,-181,2025-01-29 10:29:48,0.0
2216,56,18620,-164,150,-164,2025-01-29 10:29:48,0.0
2104,144,18640,-156,143,-162,2025-01-29 10:29:48,0.0
2032,56,18616,-138,168,-172,2025-01-29 10:29:48,0.0
2208,112,18736,-157,165,-178,2025-01-29 10:29:48,0.0
2108,152,18728,-145,159,-174,2025-01-29 10:29:48,0.0
2104,52,18584,-162,160,-176,2025-01-29 10:29:48,0.0
2084,92,18536,-166,175,-180,2025-01-29 10:29:48,0.0
2124,144,18504,-159,175,-174,2025-01-29 10:29:48,0.0
2104,136,18596,-162,156,-165,2025-01-29 10:29:48,0.0
2224,160,18556,-149,162,-166,2025-01-29 10:29:48,0.0
2148,172,18572,-153,164,-162,2025-01-29 10:29:48,0.0
2076,48,18544,-147,151,-171,2025-01-29 10:29:48,0.0
2128,216,18620,-169,160,-158,2025-01-29 10:29:48,0.0
2160,88,18420,-166,151,-176,2025-01-29 10:29:48,0.0
2256,144,18532,-141,147,-185,2025-01-29 10:29:48,0.0
2132,184,18492,-151,154,-178,2025-01-29 10:29:48,0.0
2116,140,18540,-169,141,-174,2025-01-29 10:29:48,0.0
2096,116,18524,-130,164,-178,2025-01-29 10:29:48,0.0
2152,52,18472,-163,153,-199,2025-01-29 10:29:48,0.0
2148,200,18508,-165,149,-186,2025-01-29 10:29:48,0.0
2212,272,18536,-166,149,-176,2025-01-29 10:29:48,0.0
2108,120,18620,-149,148,-162,2025-01-29 10:29:48,0.0
2132,140,18572,-152,157,-167,2025-01-29 10:29:48,0.0
2084,192,18476,-144,163,-181,2025-01-29 10:29:48,0.0
2152,188,18592,-155,154,-185,2025-01-29 10:29:48,0.0
2148,-40,18704,-150,164,-177,2025-01-29 10:29:48,0.0
2144,60,18628,-155,161,-190,2025-01-29 10:29:48,0.0
2060,136,18652,-162,174,-171,2025-01-29 10:29:49,0.0
2136,148,18520,-154,148,-168,2025-01-29 10:29:49,0.0
2040,144,18544,-164,153,-176,2025-01-29 10:29:49,0.0
2096,96,18476,-150,161,-178,2025-01-29 10:29:49,0.0
2200,132,18664,-153,145,-162,2025-01-29 10:29:49,0.0
2192,156,18580,-168,152,-157,2025-01-29 10:29:49,0.0
2140,92,18556,-144,157,-184,2025-01-29 10:29:49,0.0
2160,236,18592,-139,161,-192,2025-01-29 10:29:49,0.0
2112,64,18440,-142,150,-177,2025-01-29 10:29:49,0.0
2088,268,18700,-165,143,-196,2025-01-29 10:29:49,0.0
2104,152,18664,-148,165,-193,2025-01-29 10:29:49,0.0
2156,56,18512,-174,145,-192,2025-01-29 10:29:49,0.0
2116,96,18456,-147,144,-170,2025-01-29 10:29:49,0.0
2172,144,18420,-154,141,-175,2025-01-29 10:29:49,0.0
2176,188,18652,-136,167,-176,2025-01-29 10:29:49,0.0
2136,152,18488,-144,147,-174,2025-01-29 10:29:49,0.0
2172,192,18632,-160,145,-173,2025-01-29 10:29:49,0.0
2188,132,18520,-170,152,-166,2025-01-29 10:29:49,0.0
2036,96,18496,-164,146,-174,2025-01-29 10:29:49,
