acceleration_x,acceleration_y,acceleration_z,gyroscope_x,gyroscope_y,gyroscope_z,timestamp,label
-13608,-640,-1600,-175,180,-192,2025-01-29 12:35:09,0.0
-13600,-628,-1668,-157,173,-181,2025-01-29 12:35:09,0.0
-13464,-652,-1468,-179,153,-177,2025-01-29 12:35:09,0.0
-13592,-648,-1500,-150,157,-178,2025-01-29 12:35:09,0.0
-13460,-576,-1492,-163,170,-179,2025-01-29 12:35:09,0.0
-13548,-552,-1532,-168,170,-162,2025-01-29 12:35:09,0.0
-13492,-608,-1512,-152,163,-169,2025-01-29 12:35:09,0.0
-13624,-512,-1592,-143,153,-182,2025-01-29 12:35:09,0.0
-13584,-588,-1448,-158,154,-172,2025-01-29 12:35:09,0.0
-13548,-636,-1468,-163,166,-174,2025-01-29 12:35:09,0.0
-13520,-636,-1444,-154,155,-184,2025-01-29 12:35:09,0.0
-13512,-576,-1448,-139,150,-171,2025-01-29 12:35:09,0.0
-13548,-680,-1528,-176,175,-172,2025-01-29 12:35:09,0.0
-13532,-604,-1456,-177,157,-174,2025-01-29 12:35:09,0.0
-13452,-636,-1500,-141,151,-189,2025-01-29 12:35:09,0.0
-13620,-600,-1480,-159,177,-179,2025-01-29 12:35:09,0.0
-13624,-644,-1416,-148,176,-162,2025-01-29 12:35:09,0.0
-13548,-620,-1436,-141,153,-185,2025-01-29 12:35:09,0.0
-13452,-624,-1304,-148,146,-169,2025-01-29 12:35:09,0.0
-13448,-596,-1420,-159,169,-167,2025-01-29 12:35:09,0.0
-13580,-652,-1528,-158,145,-158,2025-01-29 12:35:09,0.0
-13504,-656,-1420,-136,184,-189,2025-01-29 12:35:10,0.0
-13580,-684,-1480,-160,177,-171,2025-01-29 12:35:10,0.0
-13472,-604,-1472,-178,174,-174,2025-01-29 12:35:10,0.0
-13448,-612,-1360,-174,149,-177,2025-01-29 12:35:10,0.0
-13512,-672,-1512,-180,152,-166,2025-01-29 12:35:10,0.0
-13472,-592,-1280,-161,155,-166,2025-01-29 12:35:10,0.0
-13528,-572,-1468,-166,163,-183,2025-01-29 12:35:10,0.0
-13496,-552,-1504,-130,150,-173,2025-01-29 12:35:10,0.0
-13448,-612,-1608,-160,158,-155,2025-01-29 12:35:10,0.0
-13512,-664,-1480,-143,150,-164,2025-01-29 12:35:10,0.0
-13476,-644,-1424,-146,148,-184,2025-01-29 12:35:10,0.0
-13504,-576,-1392,-157,182,-183,2025-01-29 12:35:10,0.0
-13504,-644,-1492,-171,167,-170,2025-01-29 12:35:10,0.0
-13608,-624,-1592,-151,161,-177,2025-01-29 12:35:10,0.0
-13628,-592,-1512,-153,153,-176,2025-01-29 12:35:10,0.0
-13636,-592,-1456,-158,173,-178,2025-01-29 12:35:10,0.0
-13600,-628,-1616,-159,155,-182,2025-01-29 12:35:10,0.0
-13476,-560,-1468,-146,167,-180,2025-01-29 12:35:10,0.0
-13456,-596,-1460,-153,146,-186,2025-01-29 12:35:10,0.0
-13620,-652,-1504,-148,155,-168,2025-01-29 12:35:10,0.0
-13492,-636,-1496,-157,145,-166,2025-01-29 12:35:10,0.0
-13620,-640,-1488,-168,163,-168,2025-01-29 12:35:10,0.0
-13488,-640,-1420,-166,173,-171,2025-01-29 12:35:10,0.0
-13476,-728,-1548,-175,169,-170,2025-01-29 12:35:10,0.0
-13516,-616,-1560,-157,164,-164,2025-01-29 12:35:10,0.0
-13512,-636,-1444,-159,158,-173,2025-01-29 12:35:10,0.0
-13548,-672,-1464,-159,146,-166,2025-01-29 12:35:10,0.0
-13584,-568,-1492,-141,168,-172,2025-01-29 12:35:10,0.0
-13616,-636,-1388,-184,159,-172,2025-01-29 12:35:10,0.0
-13548,-588,-1568,-181,173,-174,2025-01-29 12:35:10,0.0
-13588,-592,-1384,-156,169,-167,2025-01-29 12:35:10,0.0
-13600,-580,-1412,-165,155,-185,2025-01-29 12:35:10,0.0
-13552,-600,-1472,-149,150,-169,2025-01-29 12:35:10,0.0
-13516,-636,-1464,-154,170,-162,2025-01-29 12:35:10,0.0
-13508,-548,-1504,-169,173,-178,2025-01-29 12:35:10,0.0
-13564,-572,-1548,-167,153,-170,2025-01-29 12:35:10,0.0
-13600,-604,-1468,-179,183,-161,2025-01-29 12:35:10,0.0
-13616,-648,-1292,-170,160,-185,2025-01-29 12:35:10,0.0
-13496,-676,-1488,-157,176,-167,2025-01-29 12:35:10,0.0
-13472,-512,-1476,-152,164,-181,2025-01-29 12:35:10,0.0
-13660,-588,-1448,-159,156,-180,2025-01-29 12:35:10,0.0
-13580,-604,-1536,-168,165,-170,2025-01-29 12:35:10,0.0
-13576,-580,-1500,-155,140,-177,2025-01-29 12:35:10,0.0
-13612,-672,-1528,-174,161,-176,2025-01-29 12:35:10,0.0
-13616,-656,-1460,-153,168,-185,2025-01-29 12:35:10,0.0
-13604,-512,-1584,-162,167,-187,2025-01-29 12:35:10,0.0
-13548,-644,-1384,-195,173,-181,2025-01-29 12:35:10,0.0
-13524,-564,-1380,-183,166,-178,2025-01-29 12:35:10,0.0
-13572,-572,-1532,-154,164,-190,2025-01-29 12:35:10,0.0
-13480,-668,-1328,-160,161,-179,2025-01-29 12:35:10,0.0
-13540,-588,-1552,-165,152,-160,2025-01-29 12:35:10,0.0
-13572,-796,-1524,-151,161,-176,2025-01-29 12:35:10,0.0
-13528,-532,-1440,-177,146,-173,2025-01-29 12:35:10,0.0
-13540,-584,-1460,-155,153,-162,2025-01-29 12:35:10,0.0
-13444,-576,-1372,-177,163,-167,2025-01-29 12:35:10,0.0
-13560,-700,-1404,-156,161,-185,2025-01-29 12:35:10,0.0
-13596,-608,-1488,-159,160,-154,2025-01-29 12:35:10,0.0
-13508,-600,-1436,-161,174,-162,2025-01-29 12:35:10,0.0
-13464,-620,-1456,-165,156,-183,2025-01-29 12:35:10,0.0
-13560,-652,-1456,-186,164,-169,2025-01-29 12:35:10,0.0
-13608,-576,-1432,-167,153,-168,2025-01-29 12:35:10,0.0
-13488,-664,-1592,-138,179,-182,2025-01-29 12:35:10,0.0
-13504,-680,-1608,-156,167,-165,2025-01-29 12:35:10,0.0
-13616,-600,-1604,-156,159,-174,2025-01-29 12:35:10,0.0
-13544,-588,-1528,-185,159,-173,2025-01-29 12:35:10,0.0
-13608,-508,-1492,-158,159,-176,2025-01-29 12:35:11,0.0
-13628,-604,-1484,-141,156,-185,2025-01-29 12:35:11,0.0
-13528,-552,-1404,-156,155,-192,2025-01-29 12:35:11,0.0
-13520,-680,-1472,-151,176,-175,2025-01-29 12:35:11,0.0
-13512,-640,-1364,-150,169,-178,2025-01-29 12:35:11,0.0
-13544,-608,-1520,-189,174,-177,2025-01-29 12:35:11,0.0
-13600,-624,-1516,-146,160,-169,2025-01-29 12:35:11,0.0
-13556,-540,-1504,-165,166,-177,2025-01-29 12:35:11,0.0
-13488,-492,-1388,-164,157,-182,2025-01-29 12:35:11,0.0
-13508,-572,-1440,-153,156,-207,2025-01-29 12:35:11,0.0
-13532,-636,-1596,-183,150,-200,2025-01-29 12:35:11,0.0
-13552,-652,-1520,-175,157,-174,2025-01-29 12:35:11,0.0
-13468,-548,-1628,-175,148,-168,2025-01-29 12:35:11,0.0
-13568,-652,-1468,-178,168,-177,2025-01-29 12:35:11,
-13572,-604,-1440,-170,153,-173,2025-01-29 12:35:11,0.0
-13592,-624,-1612,-161,164,-172,2025-01-29 12:35:11,0.0
-13524,-596,-1540,-165,155,-189,2025-01-29 12:35:11,0.0
-13584,-616,-1376,-162,153,-181,2025-01-29 12:35:11,0.0
-13536,-664,-1504,-157,166,-183,2025-01-29 12:35:11,0.0
-13516,-660,-1480,-182,162,-180,2025-01-29 12:35:11,0.0
-13536,-616,-1440,-155,157,-177,2025-01-29 12:35:11,0.0
-13608,-660,-1576,-158,155,-190,2025-01-29 12:35:11,0.0
-13520,-516,-1324,-167,160,-180,2025-01-29 12:35:11,0.0
-13636,-592,-1492,-185,165,-163,2025-01-29 12:35:11,0.0
-13604,-600,-1476,-169,144,-182,2025-01-29 12:35:11,0.0
-13540,-548,-1512,-157,162,-174,2025-01-29 12:35:11,0.0
-13456,-556,-1564,-177,175,-196,2025-01-29 12:35:11,0.0
-13504,-588,-1528,-193,169,-186,2025-01-29 12:35:11,0.0
-13528,-668,-1492,-151,159,-185,2025-01-29 12:35:11,0.0
-13532,-596,-1564,-170,161,-187,2025-01-29 12:35:11,0.0
-13616,-588,-1520,-183,175,-167,2025-01-29 12:35:11,0.0
-13548,-588,-1548,-145,161,-146,2025-01-29 12:35:11,0.0
-13580,-664,-1528,-175,167,-175,2025-01-29 12:35:11,0.0
-13592,-532,-1512,-143,163,-197,2025-01-29 12:35:11,0.0
-13580,-616,-1416,-160,165,-191,2025-01-29 12:35:11,0.0
-13512,-548,-1576,-166,146,-167,2025-01-29 12:35:11,0.0
-13552,-548,-1416,-156,168,-160,2025-01-29 12:35:11,0.0
-13532,-540,-1420,-156,147,-181,2025-01-29 12:35:11,0.0
-13660,-644,-1524,-157,180,-176,2025-01-29 12:35:11,0.0
-13548,-572,-1512,-174,175,-181,2025-01-29 12:35:11,0.0
-13548,-640,-1384,-150,185,-186,2025-01-29 12:35:11,0.0
-13540,-564,-1472,-161,174,-166,2025-01-29 12:35:11,0.0
-13520,-576,-1512,-140,172,-181,2025-01-29 12:35:11,0.0
-13496,-620,-1368,-179,157,-167,2025-01-29 12:35:11,0.0
-13568,-532,-1456,-166,162,-199,2025-01-29 12:35:11,0.0
-13560,-552,-1484,-170,153,-179,2025-01-29 12:35:11,0.0
-13516,-536,-1568,-164,165,-161,2025-01-29 12:35:11,0.0
-13572,-600,-1640,-160,151,-172,2025-01-29 12:35:11,0.0
-13548,-636,-1388,-161,152,-175,2025-01-29 12:35:11,0.0
-13572,-584,-1412,-152,168,-163,2025-01-29 12:35:11,0.0
-13552,-532,-1496,-150,168,-181,2025-01-29 12:35:11,0.0
-13532,-668,-1344,-149,158,-183,2025-01-29 12:35:11,0.0
-13568,-592,-1472,-150,169,-168,2025-01-29 12:35:11,0.0
-13576,-620,-1376,-144,167,-185,2025-01-29 12:35:11,0.0
-13532,-664,-1424,-170,138,-189,2025-01-29 12:35:11,0.0
-13560,-672,-1432,-172,160,-187,2025-01-29 12:35:11,0.0
-13568,-620,-1516,-181,172,-180,2025-01-29 12:35:11,0.0
-13552,-596,-1452,-160,172,-171,2025-01-29 12:35:11,0.0
-13660,-644,-1508,-158,153,-181,2025-01-29 12:35:11,0.0
-13560,-620,-1420,-170,164,-184,2025-01-29 12:35:11,0.0
-13480,-616,-1460,-154,158,-176,2025-01-29 12:35:11,0.0
-13456,-680,-1508,-145,180,-174,2025-01-29 12:35:11,0.0
-13564,-596,-1524,-149,159,-182,2025-01-29 12:35:12,0.0
-13560,-576,-1576,-165,164,-169,2025-01-29 12:35:12,0.0
-13480,-596,-1484,-148,153,-202,2025-01-29 12:35:12,0.0
-13548,-548,-1420,-136,157,-183,2025-01-29 12:35:12,0.0
-13512,-608,-1348,-148,157,-192,2025-01-29 12:35:12,0.0
-13568,-588,-1540,-161,182,-182,2025-01-29 12:35:12,0.0
-13580,-540,-1592,-157,156,-203,2025-01-29 12:35:12,0.0
-13516,-632,-1412,-160,161,-197,2025-01-29 12:35:12,0.0
-13548,-556,-1456,-167,157,-166,2025-01-29 12:35:12,0.0
-13580,-552,-1440,-153,180,-174,2025-01-29 12:35:12,0.0
-13616,-672,-1432,-168,166,-182,2025-01-29 12:35:12,0.0
-13556,-692,-1444,-154,144,-180,2025-01-29 12:35:12,0.0
-13592,-616,-1388,-150,143,-176,2025-01-29 12:35:12,0.0
-13544,-588,-1336,-159,170,-170,2025-01-29 12:35:12,0.0
-13508,-620,-1472,-165,171,-169,2025-01-29 12:35:12,0.0
-13672,-660,-1372,-148,154,-166,2025-01-29 12:35:12,0.0
-13628,-684,-1588,-143,183,-188,2025-01-29 12:35:12,0.0
-13596,-516,-1384,-171,159,-187,2025-01-29 12:35:12,0.0
-13696,-664,-1468,-148,146,-180,2025-01-29 12:35:12,0.0
-13608,-640,-1456,-178,172,-194,2025-01-29 12:35:12,0.0
-13560,-668,-1484,-158,161,-156,2025-01-29 12:35:12,0.0
-13540,-776,-1500,-136,175,-163,2025-01-29 12:35:12,0.0
-13528,-632,-1328,-194,149,-196,2025-01-29 12:35:12,0.0
-13592,-584,-1480,-150,164,-189,2025-01-29 12:35:12,0.0
-13524,-548,-1576,-155,181,-172,2025-01-29 12:35:12,0.0
-13636,-580,-1444,-135,136,-162,2025-01-29 12:35:12,0.0
-13516,-612,-1488,-170,170,-174,2025-01-29 12:35:12,0.0
-13548,-636,-1528,-167,160,-168,2025-01-29 12:35:12,0.0
-13548,-520,-1520,-142,186,-185,2025-01-29 12:35:12,0.0
-13504,-612,-1504,-177,154,-167,2025-01-29 12:35:12,0.0
-13588,-672,-1512,-177,170,-161,2025-01-29 12:35:12,0.0
-13528,-512,-1396,-170,175,-164,2025-01-29 12:35:12,0.0
-13528,-584,-1516,-163,177,-191,2025-01-29 12:35:12,0.0
-13540,-540,-1584,-157,181,-162,2025-01-29 12:35:12,0.0
-13512,-596,-1432,-177,165,-176,2025-01-29 12:35:12,0.0
-13500,-636,-1632,-181,170,-158,2025-01-29 12:35:12,0.0
-13536,-588,-1404,-154,169,-174,2025-01-29 12:35:12,0.0
-13456,-560,-1516,-161,177,-148,2025-01-29 12:35:12,0.0
-13468,-540,-1368,-166,166,-197,2025-01-29 12:35:12,0.0
-13608,-592,-1500,-163,168,-176,2025-01-29 12:35:12,0.0
-13548,-568,-1396,-155,171,-169,2025-01-29 12:35:12,0.0
-13576,-596,-1448,-154,150,-187,2025-01-29 12:35:12,0.0
-13556,-604,-1452,-163,173,-178,2025-01-29 12:35:12,0.0
-13524,-512,-1476,-153,183,-177,2025-01-29 12:35:12,0.0
-13588,-768,-1436,-183,176,-195,2025-01-29 12:35:12,0.0
-13504,-580,-1532,-141,167,-169,2025-01-29 12:35:12,0.0
-13492,-548,-1432,-178,170,-164,2025-01-29 12:35:12,0.0
-13416,-656,-1384,-164,170,-170,2025-01-29 12:35:12,0.0
-13480,-548,-1600,-146,173,-171,2025-01-29 12:35:12,0.0
-13560,-600,-1420,-166,164,-171,2025-01-29 12:35:12,0.0
-13444,-664,-1444,-163,133,-171,2025-01-29 12:35:12,0.0
-13512,-568,-1688,-135,159,-175,2025-01-29 12:35:12,
-13516,-620,-1540,-149,164,-169,2025-01-29 12:35:12,0.0
-13576,-628,-1476,-165,161,-182,2025-01-29 12:35:12,0.0
-13476,-628,-1580,-154,156,-161,2025-01-29 12:35:12,0.0
-13464,-700,-1420,-135,168,-185,2025-01-29 12:35:12,0.0
-13640,-568,-1532,-160,173,-173,2025-01-29 12:35:12,0.0
-13568,-616,-1592,-154,162,-194,2025-01-29 12:35:12,0.0
-13636,-596,-1404,-180,152,-175,2025-01-29 12:35:12,0.0
-13468,-612,-1412,-155,178,-173,2025-01-29 12:35:12,0.0
-13472,-608,-1544,-163,157,-188,2025-01-29 12:35:13,0.0
-13496,-620,-1572,-165,151,-180,2025-01-29 12:35:13,0.0
-13536,-524,-1580,-167,146,-185,2025-01-29 12:35:13,0.0
-13668,-664,-1416,-166,164,-175,2025-01-29 12:35:13,0.0
-13616,-620,-1460,-150,142,-169,2025-01-29 12:35:13,0.0
-13496,-636,-1456,-164,176,-176,2025-01-29 12:35:13,0.0
-13592,-628,-1424,-172,188,-180,2025-01-29 12:35:13,0.0
-13520,-648,-1528,-169,177,-193,2025-01-29 12:35:13,0.0
-13556,-608,-1440,-160,141,-169,2025-01-29 12:35:13,0.0
-13560,-612,-1512,-138,161,-162,2025-01-29 12:35:13,0.0
-13596,-552,-1520,-170,153,-172,2025-01-29 12:35:13,0.0
-13556,-584,-1588,-189,171,-180,2025-01-29 12:35:13,0.0
-13440,-676,-1532,-164,169,-189,2025-01-29 12:35:13,0.0
-13584,-540,-1524,-157,179,-177,2025-01-29 12:35:13,0.0
-13460,-596,-1544,-157,187,-195,2025-01-29 12:35:13,0.0
-13556,-564,-1360,-150,179,-199,2025-01-29 12:35:13,0.0
-13528,-544,-1400,-145,174,-186,2025-01-29 12:35:13,0.0
-13536,-680,-1448,-135,174,-168,2025-01-29 12:35:13,0.0
-13468,-680,-1468,-168,169,-174,2025-01-29 12:35:13,0.0
-13536,-644,-1588,-181,154,-187,2025-01-29 12:35:13,0.0
-13512,-680,-1392,-160,156,-186,2025-01-29 12:35:13,0.0
-13548,-636,-1460,-154,150,-179,2025-01-29 12:35:13,0.0
-13536,-620,-1464,-172,173,-197,2025-01-29 12:35:13,0.0
-13540,-644,-1496,-156,158,-189,2025-01-29 12:35:13,0.0
-13564,-644,-1460,-147,175,-191,2025-01-29 12:35:13,0.0
-13608,-600,-1432,-161,170,-161,2025-01-29 12:35:13,0.0
-13484,-540,-1520,-132,169,-169,2025-01-29 12:35:13,0.0
-13524,-652,-1392,-161,129,-177,2025-01-29 12:35:13,0.0
-13504,-616,-1528,-148,156,-183,2025-01-29 12:35:13,0.0
-13584,-576,-1424,-172,194,-181,2025-01-29 12:35:13,0.0
-13480,-580,-1464,-154,160,-199,2025-01-29 12:35:13,0.0
-13552,-588,-1480,-142,171,-174,2025-01-29 12:35:13,0.0
-13532,-640,-1548,-139,159,-192,2025-01-29 12:35:13,0.0
-13480,-616,-1400,-146,176,-159,2025-01-29 12:35:13,0.0
-13540,-580,-1368,-166,154,-193,2025-01-29 12:35:13,0.0
-13448,-636,-1364,-176,147,-165,2025-01-29 12:35:13,0.0
-13508,-596,-1416,-176,146,-167,2025-01-29 12:35:13,0.0
-13444,-632,-1308,-145,161,-167,2025-01-29 12:35:13,0.0
-13592,-644,-1368,-164,139,-174,2025-01-29 12:35:13,0.0
-13536,-644,-1424,-139,170,-165,2025-01-29 12:35:13,0.0
-13596,-624,-1520,-160,181,-173,2025-01-29 12:35:13,0.0
-13564,-596,-1488,-154,181,-167,2025-01-29 12:35:13,0.0
-13608,-572,-1516,-153,158,-176,2025-01-29 12:35:13,0.0
-13592,-584,-1524,-166,162,-184,2025-01-29 12:35:13,0.0
-13484,-640,-1516,-134,181,-199,2025-01-29 12:35:13,0.0
-13592,-600,-1368,-141,158,-180,2025-01-29 12:35:13,0.0
-13596,-632,-1440,-150,150,-169,2025-01-29 12:35:13,0.0
-13516,-588,-1408,-147,143,-190,2025-01-29 12:35:13,0.0
-13600,-592,-1444,-155,175,-191,2025-01-29 12:35:13,0.0
-13576,-580,-1392,-162,169,-175,2025-01-29 12:35:13,0.0
-13596,-680,-1416,-163,151,-162,2025-01-29 12:35:13,0.0
-13636,-672,-1480,-161,159,-181,2025-01-29 12:35:13,0.0
-13584,-584,-1512,-154,181,-193,2025-01-29 12:35:13,0.0
-13564,-632,-1552,-182,153,-177,2025-01-29 12:35:13,0.0
-13560,-572,-1416,-164,157,-203,2025-01-29 12:35:13,0.0
-13520,-532,-1596,-182,174,-173,2025-01-29 12:35:13,0.0
-13616,-604,-1420,-132,179,-185,2025-01-29 12:35:13,0.0
-13560,-616,-1588,-136,159,-156,2025-01-29 12:35:13,0.0
-13556,-600,-1440,-149,160,-179,2025-01-29 12:35:13,0.0
-13508,-660,-1512,-150,143,-174,2025-01-29 12:35:13,0.0
-13636,-548,-1584,-144,164,-170,2025-01-29 12:35:14,0.0
-13528,-580,-1580,-169,140,-184,2025-01-29 12:35:14,0.0
-13540,-640,-1700,-150,160,-168,2025-01-29 12:35:14,0.0
-13576,-676,-1596,-194,180,-196,2025-01-29 12:35:14,0.0
-13592,-604,-1452,-143,162,-172,2025-01-29 12:35:14,0.0
-13548,-684,-1436,-163,140,-173,2025-01-29 12:35:14,0.0
-13408,-564,-1500,-160,184,-168,2025-01-29 12:35:14,0.0
-13600,-556,-1464,-153,155,-183,2025-01-29 12:35:14,0.0
-13620,-620,-1596,-148,173,-146,2025-01-29 12:35:14,0.0
-13532,-592,-1508,-168,157,-184,2025-01-29 12:35:14,0.0
-13532,-576,-1520,-144,146,-173,2025-01-29 12:35:14,0.0
-13608,-568,-1492,-150,147,-169,2025-01-29 12:35:14,0.0
-13556,-536,-1456,-171,181,-188,2025-01-29 12:35:14,0.0
-13512,-644,-1444,-154,182,-157,2025-01-29 12:35:14,0.0
-13428,-616,-1520,-162,156,-183,2025-01-29 12:35:14,0.0
-13452,-584,-1416,-146,131,-167,2025-01-29 12:35:14,0.0
-13560,-576,-1500,-153,161,-169,2025-01-29 12:35:14,0.0
-13516,-556,-1552,-143,181,-175,2025-01-29 12:35:14,0.0
-13596,-608,-1480,-143,165,-175,2025-01-29 12:35:14,0.0
-13584,-612,-1416,-144,168,-162,2025-01-29 12:35:14,0.0
-13576,-568,-1424,-156,159,-163,2025-01-29 12:35:14,0.0
-13508,-588,-1408,-149,175,-158,2025-01-29 12:35:14,0.0
-13560,-616,-1560,-163,198,-163,2025-01-29 12:35:14,0.0
-13540,-564,-1484,-162,172,-176,2025-01-29 12:35:14,0.0
-13576,-660,-1620,-156,165,-163,2025-01-29 12:35:14,0.0
-13548,-532,-1620,-139,169,-147,2025-01-29 12:35:14,0.0
-13480,-548,-1560,-149,179,-159,2025-01-29 12:35:14,0.0
-13396,-536,-1504,-170,176,-184,2025-01-29 12:35:14,0.0
-13520,-636,-1620,-167,166,-175,2025-01-29 12:35:14,0.0
-13556,-512,-1476,-134,154,-175,2025-01-29 12:35:14,0.0
-13532,-624,-1500,-154,161,-190,2025-01-29 12:35:14,0.0
-13624,-664,-1444,-159,163,-200,2025-01-29 12:35:14,
-13508,-632,-1472,-161,147,-183,2025-01-29 12:35:14,0.0
-13568,-540,-1468,-167,155,-153,2025-01-29 12:35:14,0.0
-13496,-676,-1432,-160,152,-160,2025-01-29 12:35:14,0.0
-13452,-532,-1620,-169,160,-171,2025-01-29 12:35:14,0.0
-13524,-532,-1444,-150,151,-178,2025-01-29 12:35:14,0.0
-13432,-588,-1584,-155,174,-187,2025-01-29 12:35:14,0.0
-13596,-584,-1524,-168,180,-176,2025-01-29 12:35:14,0.0
-13544,-532,-1472,-147,161,-156,2025-01-29 12:35:14,0.0
-13516,-616,-1552,-152,146,-168,2025-01-29 12:35:14,0.0
-13540,-580,-1448,-147,168,-181,2025-01-29 12:35:14,0.0
-13548,-596,-1536,-188,165,-190,2025-01-29 12:35:14,0.0
-13452,-572,-1356,-154,141,-190,2025-01-29 12:35:14,0.0
-13528,-644,-1472,-179,173,-191,2025-01-29 12:35:14,0.0
-13480,-612,-1508,-166,165,-178,2025-01-29 12:35:14,0.0
-13572,-484,-1548,-151,183,-182,2025-01-29 12:35:14,0.0
-13512,-600,-1508,-156,152,-182,2025-01-29 12:35:14,0.0
-13600,-568,-1556,-182,156,-173,2025-01-29 12:35:14,0.0
-13464,-652,-1452,-174,170,-172,2025-01-29 12:35:14,0.0
-13488,-692,-1520,-144,156,-183,2025-01-29 12:35:14,0.0
-13472,-616,-1412,-141,161,-180,2025-01-29 12:35:14,0.0
-13452,-552,-1396,-175,175,-186,2025-01-29 12:35:14,0.0
-13600,-580,-1536,-168,172,-183,2025-01-29 12:35:14,0.0
-13568,-640,-1444,-167,175,-167,2025-01-29 12:35:14,0.0
-13548,-592,-1496,-121,134,-173,2025-01-29 12:35:14,0.0
-13512,-540,-1436,-148,150,-166,2025-01-29 12:35:14,0.0
-13640,-696,-1564,-188,150,-177,2025-01-29 12:35:14,0.0
-13580,-524,-1520,-164,167,-169,2025-01-29 12:35:14,0.0
-13504,-588,-1500,-142,137,-184,2025-01-29 12:35:14,0.0
-13488,-584,-1428,-151,167,-183,2025-01-29 12:35:14,0.0
-13480,-600,-1620,-168,160,-162,2025-01-29 12:35:15,0.0
-13524,-608,-1392,-156,156,-177,2025-01-29 12:35:15,0.0
-13516,-604,-1472,-168,161,-181,2025-01-29 12:35:15,0.0
-13536,-660,-1500,-151,184,-167,2025-01-29 12:35:15,0.0
-13500,-640,-1476,-165,162,-175,2025-01-29 12:35:15,0.0
-13684,-532,-1584,-171,167,-178,2025-01-29 12:35:15,0.0
-13588,-572,-1456,-157,160,-170,2025-01-29 12:35:15,0.0
-13532,-552,-1432,-147,160,-189,2025-01-29 12:35:15,0.0
-13508,-608,-1436,-156,168,-180,2025-01-29 12:35:15,0.0
-13420,-596,-1520,-154,160,-178,2025-01-29 12:35:15,0.0
-13548,-576,-1460,-167,167,-178,2025-01-29 12:35:15,0.0
-13536,-580,-1584,-149,169,-161,2025-01-29 12:35:15,0.0
-13552,-656,-1600,-144,140,-188,2025-01-29 12:35:15,0.0
-13584,-676,-1528,-168,162,-190,2025-01-29 12:35:15,0.0
-13544,-556,-1500,-166,160,-186,2025-01-29 12:35:15,0.0
-13468,-628,-1456,-156,179,-166,2025-01-29 12:35:15,0.0
-13476,-552,-1432,-139,158,-183,2025-01-29 12:35:15,0.0
-13564,-700,-1492,-155,150,-172,2025-01-29 12:35:15,0.0
-13544,-628,-1524,-170,177,-183,2025-01-29 12:35:15,0.0
-13524,-616,-1476,-156,183,-172,2025-01-29 12:35:15,0.0
-13552,-604,-1516,-151,163,-152,2025-01-29 12:35:15,0.0
-13644,-612,-1460,-167,156,-176,2025-01-29 12:35:15,0.0
-13552,-568,-1296,-157,170,-174,2025-01-29 12:35:15,0.0
-13476,-620,-1460,-171,151,-192,2025-01-29 12:35:15,0.0
-13484,-692,-1372,-153,167,-163,2025-01-29 12:35:15,0.0
-13540,-540,-1416,-173,162,-190,2025-01-29 12:35:15,0.0
-13544,-792,-1416,-179,171,-178,2025-01-29 12:35:15,0.0
-13644,-664,-1584,-162,162,-178,2025-01-29 12:35:15,0.0
-13552,-620,-1404,-163,163,-185,2025-01-29 12:35:15,0.0
-13556,-576,-1460,-147,154,-177,2025-01-29 12:35:15,0.0
-13552,-580,-1540,-135,159,-182,2025-01-29 12:35:15,0.0
-13476,-600,-1480,-162,189,-179,2025-01-29 12:35:15,0.0
-13480,-640,-1508,-149,165,-191,2025-01-29 12:35:15,0.0
-13548,-608,-1552,-139,170,-187,2025-01-29 12:35:15,0.0
-13456,-568,-1488,-148,166,-168,2025-01-29 12:35:15,0.0
-13572,-672,-1408,-179,184,-159,2025-01-29 12:35:15,0.0
-13548,-580,-1464,-151,159,-172,2025-01-29 12:35:15,0.0
-13640,-576,-1464,-158,159,-171,2025-01-29 12:35:15,0.0
-13524,-556,-1356,-139,158,-188,2025-01-29 12:35:15,0.0
-13436,-632,-1468,-165,167,-180,2025-01-29 12:35:15,0.0
-13568,-584,-1640,-163,176,-168,2025-01-29 12:35:15,0.0
-13600,-652,-1516,-164,148,-183,2025-01-29 12:35:15,0.0
-13576,-644,-1564,-162,146,-176,2025-01-29 12:35:15,0.0
-13592,-660,-1548,-162,137,-177,2025-01-29 12:35:15,0.0
-13556,-660,-1500,-131,159,-189,2025-01-29 12:35:15,0.0
-13628,-612,-1440,-164,174,-171,2025-01-29 12:35:15,0.0
-13536,-612,-1452,-172,184,-165,2025-01-29 12:35:15,0.0
-13532,-556,-1488,-129,148,-186,2025-01-29 12:35:15,0.0
-13592,-580,-1364,-172,154,-164,2025-01-29 12:35:15,0.0
-13540,-504,-1512,-148,148,-166,2025-01-29 12:35:15,0.0
-13456,-552,-1476,-160,148,-175,2025-01-29 12:35:15,0.0
-13600,-652,-1552,-162,161,-192,2025-01-29 12:35:15,0.0
-13612,-536,-1440,-172,169,-189,2025-01-29 12:35:15,0.0
-13496,-632,-1440,-161,154,-180,2025-01-29 12:35:15,0.0
-13528,-644,-1544,-151,152,-205,2025-01-29 12:35:15,0.0
-13572,-552,-1552,-154,145,-174,2025-01-29 12:35:15,0.0
-13576,-612,-1492,-149,158,-183,2025-01-29 12:35:15,0.0
-13532,-668,-1556,-131,150,-160,2025-01-29 12:35:15,0.0
-13656,-692,-1548,-157,170,-163,2025-01-29 12:35:15,0.0
-13540,-624,-1464,-179,156,-175,2025-01-29 12:35:15,0.0
-13564,-652,-1532,-167,174,-183,2025-01-29 12:35:15,0.0
-13572,-552,-1368,-164,170,-167,2025-01-29 12:35:16,0.0
-13476,-488,-1564,-166,169,-175,2025-01-29 12:35:16,0.0
-13572,-612,-1540,-165,170,-178,2025-01-29 12:35:16,0.0
-13676,-556,-1520,-151,163,-180,2025-01-29 12:35:16,0.0
-13580,-712,-1508,-156,161,-161,2025-01-29 12:35:16,0.0
-13424,-584,-1424,-174,145,-164,2025-01-29 12:35:16,0.0
-13500,-664,-1664,-163,151,-172,2025-01-29 12:35:16,0.0
-13524,-608,-1604,-208,165,-179,2025-01-29 12:35:16,0.0
-13468,-588,-1568,-158,160,-190,2025-01-29 12:35:16,0.0
-13448,-588,-1444,-163,154,-197,2025-01-29 12:35:16,
-13576,-560,-1448,-173,172,-179,2025-01-29 12:35:16,0.0
-13548,-640,-1552,-162,181,-188,2025-01-29 12:35:16,0.0
-13600,-540,-1292,-150,176,-182,2025-01-29 12:35:16,0.0
-13476,-672,-1468,-165,155,-195,2025-01-29 12:35:16,0.0
-13372,-596,-1452,-172,135,-166,2025-01-29 12:35:16,0.0
-13464,-624,-1644,-164,169,-179,2025-01-29 12:35:16,0.0
-13480,-556,-1468,-157,164,-174,2025-01-29 12:35:16,0.0
-13604,-592,-1428,-135,178,-163,2025-01-29 12:35:16,0.0
-13564,-612,-1532,-138,167,-147,2025-01-29 12:35:16,0.0
-13576,-536,-1396,-176,149,-180,2025-01-29 12:35:16,0.0
-13536,-596,-1480,-149,159,-180,2025-01-29 12:35:16,0.0
-13488,-564,-1416,-183,158,-166,2025-01-29 12:35:16,0.0
-13524,-616,-1536,-149,151,-178,2025-01-29 12:35:16,0.0
-13524,-596,-1372,-161,171,-169,2025-01-29 12:35:16,0.0
-13508,-556,-1416,-160,153,-194,2025-01-29 12:35:16,0.0
-13632,-708,-1592,-173,161,-170,2025-01-29 12:35:16,0.0
-13584,-640,-1456,-165,186,-160,2025-01-29 12:35:16,0.0
-13524,-596,-1572,-177,157,-167,2025-01-29 12:35:16,0.0
-13540,-648,-1628,-137,182,-166,2025-01-29 12:35:16,0.0
-13492,-424,-1364,-153,154,-167,2025-01-29 12:35:16,0.0
-13612,-572,-1524,-158,164,-171,2025-01-29 12:35:16,0.0
-13464,-616,-1396,-151,144,-197,2025-01-29 12:35:16,0.0
-13496,-636,-1512,-166,158,-178,2025-01-29 12:35:16,0.0
-13552,-616,-1380,-152,142,-178,2025-01-29 12:35:16,0.0
-13524,-672,-1656,-175,145,-171,2025-01-29 12:35:16,0.0
-13456,-672,-1516,-147,166,-155,2025-01-29 12:35:16,0.0
-13756,-604,-1176,-172,135,-163,2025-01-29 12:35:16,0.0
-13396,-688,-1628,-173,203,-170,2025-01-29 12:35:16,0.0
-13792,-564,-1292,-157,208,-174,2025-01-29 12:35:16,0.0
-13592,-560,-1460,-149,166,-173,2025-01-29 12:35:16,0.0
-13420,-608,-1632,-173,171,-186,2025-01-29 12:35:16,0.0
-13548,-652,-1556,-182,123,-195,2025-01-29 12:35:16,0.0
-13588,-672,-1488,-184,173,-155,2025-01-29 12:35:16,0.0
-13520,-620,-1440,-164,170,-156,2025-01-29 12:35:16,0.0
-13584,-564,-1404,-172,121,-156,2025-01-29 12:35:16,0.0
-13456,-600,-1600,-150,169,-178,2025-01-29 12:35:16,0.0
-13656,-616,-1648,-140,146,-177,2025-01-29 12:35:16,0.0
-13492,-660,-1564,-145,156,-164,2025-01-29 12:35:16,0.0
-13500,-536,-1576,-156,165,-160,2025-01-29 12:35:16,0.0
-13604,-560,-1464,-167,145,-175,2025-01-29 12:35:16,0.0
-13496,-620,-1416,-143,165,-190,2025-01-29 12:35:16,0.0
-13588,-684,-1456,-166,165,-154,2025-01-29 12:35:16,0.0
-13564,-620,-1448,-178,139,-182,2025-01-29 12:35:16,0.0
-13536,-656,-1580,-170,178,-157,2025-01-29 12:35:16,0.0
-13520,-580,-1644,-156,160,-179,2025-01-29 12:35:16,0.0
-13492,-608,-1460,-181,161,-167,2025-01-29 12:35:16,0.0
-13492,-624,-1620,-144,167,-157,2025-01-29 12:35:16,0.0
-13516,-604,-1464,-171,167,-185,2025-01-29 12:35:16,0.0
-13472,-624,-1372,-141,146,-158,2025-01-29 12:35:16,0.0
-13528,-504,-1572,-164,156,-168,2025-01-29 12:35:16,0.0
-13660,-592,-1480,-165,174,-187,2025-01-29 12:35:16,0.0
-13560,-600,-1464,-166,186,-161,2025-01-29 12:35:16,0.0
-13504,-628,-1440,-159,166,-179,2025-01-29 12:35:16,0.0
-13556,-676,-1496,-173,147,-168,2025-01-29 12:35:16,0.0
-13584,-524,-1592,-167,175,-169,2025-01-29 12:35:17,0.0
-13516,-664,-1384,-166,178,-171,2025-01-29 12:35:17,0.0
-13612,-568,-1484,-165,180,-179,2025-01-29 12:35:17,0.0
-13456,-636,-1420,-170,159,-173,2025-01-29 12:35:17,0.0
-13612,-668,-1600,-157,139,-178,2025-01-29 12:35:17,0.0
-13536,-620,-1400,-172,171,-177,2025-01-29 12:35:17,0.0
-13524,-648,-1584,-184,169,-175,2025-01-29 12:35:17,0.0
-13464,-576,-1556,-157,174,-170,2025-01-29 12:35:17,0.0
-13440,-596,-1480,-154,165,-179,2025-01-29 12:35:17,0.0
-13704,-652,-1436,-158,159,-176,2025-01-29 12:35:17,0.0
-13480,-568,-1592,-166,172,-194,2025-01-29 12:35:17,0.0
-13524,-572,-1504,-184,166,-184,2025-01-29 12:35:17,0.0
-13544,-468,-1424,-187,167,-198,2025-01-29 12:35:17,0.0
-13584,-624,-1428,-182,156,-179,2025-01-29 12:35:17,0.0
-13616,-628,-1500,-165,188,-164,2025-01-29 12:35:17,0.0
-13568,-616,-1500,-143,169,-180,2025-01-29 12:35:17,0.0
-13592,-616,-1400,-161,160,-167,2025-01-29 12:35:17,0.0
-13556,-548,-1468,-156,158,-190,2025-01-29 12:35:17,0.0
-13616,-600,-1272,-149,171,-156,2025-01-29 12:35:17,0.0
-13600,-620,-1400,-172,153,-182,2025-01-29 12:35:17,0.0
-13400,-564,-1492,-155,162,-188,2025-01-29 12:35:17,0.0
-13480,-624,-1480,-170,162,-183,2025-01-29 12:35:17,0.0
-13552,-620,-1492,-155,157,-190,2025-01-29 12:35:17,0.0
-13456,-516,-1348,-157,149,-175,2025-01-29 12:35:17,0.0
-13548,-548,-1632,-178,162,-158,2025-01-29 12:35:17,0.0
-13488,-624,-1452,-136,162,-168,2025-01-29 12:35:17,0.0
-13524,-624,-1508,-144,165,-185,2025-01-29 12:35:17,0.0
-13604,-624,-1560,-161,174,-187,2025-01-29 12:35:17,0.0
-13560,-672,-1432,-152,173,-169,2025-01-29 12:35:17,0.0
-13564,-604,-1412,-167,174,-192,2025-01-29 12:35:17,0.0
-13548,-584,-1480,-164,150,-184,2025-01-29 12:35:17,0.0
-13484,-600,-1456,-182,172,-181,2025-01-29 12:35:17,0.0
-13536,-596,-1588,-175,152,-171,2025-01-29 12:35:17,0.0
-13600,-704,-1644,-152,146,-179,2025-01-29 12:35:17,0.0
-13464,-676,-1568,-163,156,-183,2025-01-29 12:35:17,0.0
-13592,-660,-1600,-156,158,-183,2025-01-29 12:35:17,0.0
-13520,-572,-1560,-180,171,-169,2025-01-29 12:35:17,0.0
-13408,-580,-1432,-173,175,-174,2025-01-29 12:35:17,0.0
-13496,-552,-1392,-160,170,-191,2025-01-29 12:35:17,0.0
-13656,-648,-1284,-138,187,-172,2025-01-29 12:35:17,0.0
-13544,-692,-1416,-164,169,-175,2025-01-29 12:35:17,0.0
-13528,-612,-1476,-151,153,-197,2025-01-29 12:35:17,0.0
-13524,-676,-1652,-163,160,-197,2025-01-29 12:35:17,0.0
-13496,-536,-1448,-179,170,-157,2025-01-29 12:35:17,0.0
-13608,-652,-1424,-138,154,-178,2025-01-29 12:35:17,0.0
-13476,-564,-1484,-148,158,-174,2025-01-29 12:35:17,
-13592,-716,-1552,-168,156,-172,2025-01-29 12:35:17,0.0
-13508,-672,-1560,-165,193,-161,2025-01-29 12:35:17,0.0
-13596,-612,-1360,-160,143,-161,2025-01-29 12:35:17,0.0
-13456,-692,-1392,-154,152,-159,2025-01-29 12:35:17,0.0
-13616,-612,-1400,-139,177,-160,2025-01-29 12:35:17,0.0
-13616,-576,-1396,-171,167,-179,2025-01-29 12:35:17,0.0
-13472,-616,-1336,-149,182,-187,2025-01-29 12:35:17,0.0
-13528,-592,-1516,-176,170,-168,2025-01-29 12:35:17,0.0
-13512,-548,-1416,-152,165,-174,2025-01-29 12:35:17,0.0
-13492,-580,-1516,-163,150,-192,2025-01-29 12:35:17,0.0
-13556,-676,-1324,-162,136,-180,2025-01-29 12:35:17,0.0
-13524,-608,-1544,-173,143,-175,2025-01-29 12:35:17,0.0
-13476,-588,-1520,-163,158,-165,2025-01-29 12:35:17,0.0
-13644,-580,-1596,-178,161,-172,2025-01-29 12:35:17,0.0
-13528,-584,-1568,-164,167,-175,2025-01-29 12:35:18,0.0
-13536,-528,-1452,-169,166,-170,2025-01-29 12:35:18,0.0
-13632,-604,-1404,-171,169,-162,2025-01-29 12:35:18,0.0
-13612,-612,-1404,-154,164,-187,2025-01-29 12:35:18,0.0
-13512,-668,-1536,-162,153,-198,2025-01-29 12:35:18,0.0
-13648,-548,-1456,-146,148,-195,2025-01-29 12:35:18,0.0
-13616,-676,-1528,-166,179,-189,2025-01-29 12:35:18,0.0
-13568,-644,-1444,-188,178,-189,2025-01-29 12:35:18,0.0
-13596,-612,-1516,-164,153,-185,2025-01-29 12:35:18,0.0
-13580,-608,-1520,-159,161,-166,2025-01-29 12:35:18,0.0
-13572,-652,-1428,-158,182,-175,2025-01-29 12:35:18,0.0
-13464,-620,-1524,-154,169,-182,2025-01-29 12:35:18,0.0
-13624,-628,-1588,-159,155,-189,2025-01-29 12:35:18,0.0
-13592,-660,-1504,-159,168,-180,2025-01-29 12:35:18,0.0
-13476,-668,-1408,-169,170,-164,2025-01-29 12:35:18,0.0
-13576,-596,-1492,-145,182,-180,2025-01-29 12:35:18,0.0
-13600,-608,-1484,-161,173,-187,2025-01-29 12:35:18,0.0
-13460,-592,-1500,-162,168,-181,2025-01-29 12:35:18,0.0
-13548,-616,-1636,-159,154,-190,2025-01-29 12:35:18,0.0
-13516,-544,-1648,-149,183,-179,2025-01-29 12:35:18,0.0
-13756,-628,-1472,-155,195,-177,2025-01-29 12:35:18,0.0
-13480,-640,-1460,-146,187,-178,2025-01-29 12:35:18,0.0
-13604,-588,-1468,-159,165,-168,2025-01-29 12:35:18,0.0
-13440,-616,-1760,-142,141,-176,2025-01-29 12:35:18,0.0
-13436,-580,-1516,-163,149,-171,2025-01-29 12:35:18,0.0
-13548,-672,-1548,-151,158,-175,2025-01-29 12:35:18,0.0
-13528,-680,-1400,-158,160,-161,2025-01-29 12:35:18,0.0
-13584,-552,-1556,-155,149,-176,2025-01-29 12:35:18,0.0
-13440,-628,-1408,-163,168,-167,2025-01-29 12:35:18,0.0
-13472,-628,-1476,-162,161,-176,2025-01-29 12:35:18,0.0
-13584,-612,-1544,-155,143,-165,2025-01-29 12:35:18,0.0
-13468,-680,-1504,-161,150,-178,2025-01-29 12:35:18,0.0
-13496,-548,-1500,-160,180,-179,2025-01-29 12:35:18,0.0
-13528,-652,-1520,-171,156,-178,2025-01-29 12:35:18,0.0
-13556,-588,-1468,-158,169,-184,2025-01-29 12:35:18,0.0
-13512,-532,-1560,-159,143,-195,2025-01-29 12:35:18,0.0
-13500,-628,-1528,-168,171,-160,2025-01-29 12:35:18,0.0
-13568,-544,-1516,-174,166,-185,2025-01-29 12:35:18,0.0
-13564,-556,-1540,-159,152,-191,2025-01-29 12:35:18,0.0
-13652,-584,-1548,-169,157,-186,2025-01-29 12:35:18,0.0
-13620,-636,-1520,-145,167,-171,2025-01-29 12:35:18,0.0
-13508,-564,-1520,-167,172,-180,2025-01-29 12:35:18,0.0
-13496,-604,-1508,-157,183,-185,2025-01-29 12:35:18,0.0
-13488,-616,-1420,-156,163,-202,2025-01-29 12:35:18,0.0
-13608,-608,-1644,-163,158,-168,2025-01-29 12:35:18,0.0
-13572,-532,-1452,-143,174,-184,2025-01-29 12:35:18,0.0
-13440,-484,-1512,-153,165,-172,2025-01-29 12:35:18,0.0
-13548,-676,-1496,-161,153,-182,2025-01-29 12:35:18,0.0
-13548,-564,-1452,-185,164,-191,2025-01-29 12:35:18,0.0
-13444,-600,-1548,-161,170,-183,2025-01-29 12:35:18,0.0
-13508,-716,-1388,-179,159,-155,2025-01-29 12:35:18,0.0
-13504,-576,-1436,-168,154,-189,2025-01-29 12:35:18,0.0
-13508,-624,-1512,-166,165,-175,2025-01-29 12:35:18,0.0
-13600,-620,-1416,-147,156,-180,2025-01-29 12:35:18,0.0
-13612,-588,-1500,-157,144,-176,2025-01-29 12:35:18,0.0
-13488,-624,-1448,-150,184,-172,2025-01-29 12:35:18,0.0
-13428,-604,-1456,-161,169,-163,2025-01-29 12:35:18,0.0
-13472,-512,-1368,-169,186,-179,2025-01-29 12:35:18,0.0
-13476,-640,-1380,-184,165,-182,2025-01-29 12:35:18,0.0
-13540,-624,-1396,-146,166,-173,2025-01-29 12:35:18,0.0
-13604,-560,-1576,-193,159,-190,2025-01-29 12:35:18,0.0
-13564,-628,-1524,-160,129,-186,2025-01-29 12:35:19,0.0
-13576,-576,-1436,-154,149,-175,2025-01-29 12:35:19,0.0
-13440,-592,-1412,-170,171,-163,2025-01-29 12:35:19,0.0
-13536,-660,-1456,-173,156,-183,2025-01-29 12:35:19,0.0
-13556,-616,-1436,-165,160,-187,2025-01-29 12:35:19,0.0
-13592,-532,-1564,-167,165,-185,2025-01-29 12:35:19,0.0
-13584,-572,-1516,-149,169,-172,2025-01-29 12:35:19,0.0
-13520,-612,-1504,-163,180,-171,2025-01-29 12:35:19,0.0
-13540,-648,-1360,-160,154,-164,2025-01-29 12:35:19,0.0
-13548,-540,-1616,-157,166,-195,2025-01-29 12:35:19,0.0
-13448,-684,-1628,-142,180,-175,2025-01-29 12:35:19,0.0
-13396,-660,-1672,-163,169,-182,2025-01-29 12:35:19,0.0
-13604,-672,-1348,-144,148,-182,2025-01-29 12:35:19,0.0
-13524,-564,-1536,-135,179,-172,2025-01-29 12:35:19,0.0
-13556,-564,-1480,-180,177,-179,2025-01-29 12:35:19,0.0
-13636,-604,-1456,-152,170,-187,2025-01-29 12:35:19,0.0
-13516,-528,-1492,-179,173,-171,2025-01-29 12:35:19,0.0
-13580,-672,-1332,-140,184,-183,2025-01-29 12:35:19,0.0
-13628,-672,-1520,-178,157,-145,2025-01-29 12:35:19,0.0
-13564,-668,-1468,-162,155,-158,2025-01-29 12:35:19,0.0
-13444,-588,-1544,-171,148,-169,2025-01-29 12:35:19,0.0
-13544,-612,-1472,-149,157,-176,2025-01-29 12:35:19,0.0
-13540,-640,-1544,-170,172,-166,2025-01-29 12:35:19,0.0
-13444,-612,-1412,-172,162,-181,2025-01-29 12:35:19,0.0
-13556,-656,-1424,-153,172,-184,2025-01-29 12:35:19,
-13580,-704,-1480,-178,153,-169,2025-01-29 12:35:19,0.0
-13528,-608,-1408,-190,158,-182,2025-01-29 12:35:19,0.0
-13484,-652,-1512,-140,156,-186,2025-01-29 12:35:19,0.0
-13500,-676,-1576,-174,168,-193,2025-01-29 12:35:19,0.0
-13476,-564,-1652,-146,151,-197,2025-01-29 12:35:19,0.0
-13656,-564,-1492,-183,148,-166,2025-01-29 12:35:19,0.0
-13616,-656,-1516,-141,168,-176,2025-01-29 12:35:19,0.0
-13504,-624,-1504,-177,159,-192,2025-01-29 12:35:19,0.0
-13536,-632,-1360,-140,170,-166,2025-01-29 12:35:19,0.0
-13528,-672,-1488,-118,187,-196,2025-01-29 12:35:19,0.0
-13472,-580,-1472,-146,151,-202,2025-01-29 12:35:19,0.0
-13704,-640,-1348,-161,164,-171,2025-01-29 12:35:19,0.0
-13716,-480,-1484,-161,171,-186,2025-01-29 12:35:19,0.0
-13556,-616,-1436,-165,176,-196,2025-01-29 12:35:19,0.0
-13544,-604,-1524,-150,174,-168,2025-01-29 12:35:19,0.0
-13488,-624,-1692,-157,162,-168,2025-01-29 12:35:19,0.0
-13632,-548,-1492,-176,158,-170,2025-01-29 12:35:19,0.0
-13512,-656,-1392,-158,170,-184,2025-01-29 12:35:19,0.0
-13616,-656,-1480,-164,161,-172,2025-01-29 12:35:19,0.0
-13492,-680,-1724,-173,187,-171,2025-01-29 12:35:19,0.0
-13564,-648,-1532,-156,166,-179,2025-01-29 12:35:19,0.0
-13476,-548,-1396,-162,158,-166,2025-01-29 12:35:19,0.0
-13492,-616,-1408,-172,161,-161,2025-01-29 12:35:19,0.0
-13592,-628,-1520,-150,169,-183,2025-01-29 12:35:19,0.0
-13580,-564,-1564,-173,160,-184,2025-01-29 12:35:19,0.0
-13564,-612,-1412,-142,168,-186,2025-01-29 12:35:19,0.0
-13604,-636,-1444,-161,167,-177,2025-01-29 12:35:19,0.0
-13548,-568,-1556,-151,158,-168,2025-01-29 12:35:19,0.0
-13464,-580,-1372,-195,165,-154,2025-01-29 12:35:19,0.0
-13660,-568,-1400,-172,165,-188,2025-01-29 12:35:19,0.0
-13592,-596,-1536,-159,172,-171,2025-01-29 12:35:19,0.0
-13500,-592,-1356,-174,166,-179,2025-01-29 12:35:19,0.0
-13536,-644,-1512,-161,170,-155,2025-01-29 12:35:19,0.0
-13592,-568,-1380,-142,168,-165,2025-01-29 12:35:20,0.0
-13552,-592,-1400,-160,163,-183,2025-01-29 12:35:20,0.0
-13508,-636,-1516,-151,155,-169,2025-01-29 12:35:20,0.0
-13560,-592,-1324,-148,160,-165,2025-01-29 12:35:20,0.0
-13436,-592,-1376,-187,149,-164,2025-01-29 12:35:20,0.0
-13568,-568,-1480,-153,155,-178,2025-01-29 12:35:20,0.0
-13588,-596,-1528,-160,177,-185,2025-01-29 12:35:20,0.0
-13504,-644,-1472,-156,182,-192,2025-01-29 12:35:20,0.0
-13600,-580,-1608,-142,140,-169,2025-01-29 12:35:20,0.0
-13580,-572,-1432,-152,168,-200,2025-01-29 12:35:20,0.0
-13540,-664,-1480,-159,166,-192,2025-01-29 12:35:20,0.0
-13540,-552,-1520,-172,169,-188,2025-01-29 12:35:20,0.0
-13528,-536,-1404,-147,151,-185,2025-01-29 12:35:20,0.0
-13504,-528,-1572,-164,174,-167,2025-01-29 12:35:20,0.0
-13548,-644,-1588,-184,139,-166,2025-01-29 12:35:20,0.0
-13516,-744,-1620,-192,194,-164,2025-01-29 12:35:20,0.0
-13564,-664,-1348,-149,148,-187,2025-01-29 12:35:20,0.0
-13612,-620,-1476,-164,177,-185,2025-01-29 12:35:20,0.0
-13536,-668,-1328,-167,154,-159,2025-01-29 12:35:20,0.0
-13476,-632,-1540,-149,183,-166,2025-01-29 12:35:20,0.0
-13516,-568,-1472,-161,160,-168,2025-01-29 12:35:20,0.0
-13500,-604,-1564,-166,151,-178,2025-01-29 12:35:20,0.0
-13588,-628,-1532,-154,154,-168,2025-01-29 12:35:20,0.0
-13460,-608,-1368,-142,171,-177,2025-01-29 12:35:20,0.0
-13596,-604,-1548,-167,161,-167,2025-01-29 12:35:20,0.0
-13592,-620,-1476,-157,170,-188,2025-01-29 12:35:20,0.0
-13576,-600,-1432,-163,153,-184,2025-01-29 12:35:20,0.0
-13488,-560,-1492,-168,166,-178,2025-01-29 12:35:20,0.0
-13596,-512,-1548,-171,174,-178,2025-01-29 12:35:20,0.0
-13532,-560,-1484,-154,172,-172,2025-01-29 12:35:20,0.0
-13584,-528,-1432,-159,162,-176,2025-01-29 12:35:20,0.0
-13512,-596,-1640,-178,155,-189,2025-01-29 12:35:20,0.0
-13564,-604,-1444,-169,168,-185,2025-01-29 12:35:20,0.0
-13600,-680,-1484,-147,176,-169,2025-01-29 12:35:20,0.0
-13480,-680,-1492,-173,164,-152,2025-01-29 12:35:20,0.0
-13520,-596,-1520,-161,151,-169,2025-01-29 12:35:20,0.0
-13564,-600,-1536,-166,180,-178,2025-01-29 12:35:20,0.0
-13616,-552,-1468,-174,173,-198,2025-01-29 12:35:20,0.0
-13544,-656,-1544,-168,168,-198,2025-01-29 12:35:20,0.0
-13528,-580,-1488,-164,162,-164,2025-01-29 12:35:20,0.0
-13532,-624,-1424,-165,142,-176,2025-01-29 12:35:20,0.0
-13488,-644,-1336,-163,165,-177,2025-01-29 12:35:20,0.0
-13488,-572,-1508,-173,173,-181,2025-01-29 12:35:20,0.0
-13644,-552,-1496,-171,154,-163,2025-01-29 12:35:20,0.0
-13600,-604,-1400,-159,155,-172,2025-01-29 12:35:20,0.0
-13540,-576,-1460,-159,156,-183,2025-01-29 12:35:20,0.0
-13576,-612,-1528,-164,165,-183,2025-01-29 12:35:20,0.0
-13540,-580,-1448,-153,168,-171,2025-01-29 12:35:20,0.0
-13492,-608,-1544,-161,150,-187,2025-01-29 12:35:20,0.0
-13576,-560,-1620,-160,147,-167,2025-01-29 12:35:20,0.0
-13556,-632,-1432,-170,149,-195,2025-01-29 12:35:20,0.0
-13596,-556,-1632,-145,178,-176,2025-01-29 12:35:20,0.0
-13540,-548,-1436,-152,162,-176,2025-01-29 12:35:20,0.0
-13536,-624,-1360,-165,158,-153,2025-01-29 12:35:20,0.0
-13592,-632,-1428,-148,155,-173,2025-01-29 12:35:20,0.0
-13524,-636,-1420,-162,165,-174,2025-01-29 12:35:20,0.0
-13564,-596,-1640,-160,172,-184,2025-01-29 12:35:20,0.0
-13600,-524,-1516,-138,183,-158,2025-01-29 12:35:20,0.0
-13624,-720,-1476,-168,165,-171,2025-01-29 12:35:20,0.0
-13584,-776,-1444,-169,152,-167,2025-01-29 12:35:20,0.0
-13604,-636,-1536,-172,166,-180,2025-01-29 12:35:20,0.0
-13508,-568,-1516,-163,174,-180,2025-01-29 12:35:20,0.0
-13572,-584,-1568,-144,142,-189,2025-01-29 12:35:21,0.0
-13516,-588,-1536,-134,168,-167,2025-01-29 12:35:21,0.0
-13620,-624,-1444,-182,160,-157,2025-01-29 12:35:21,0.0
-13488,-632,-1408,-163,161,-187,2025-01-29 12:35:21,0.0
-13532,-548,-1524,-165,164,-163,2025-01-29 12:35:21,
-13564,-576,-1488,-158,162,-188,2025-01-29 12:35:21,0.0
-13524,-552,-1472,-156,158,-176,2025-01-29 12:35:21,0.0
-13508,-564,-1588,-184,138,-171,2025-01-29 12:35:21,0.0
-13484,-572,-1384,-147,192,-164,2025-01-29 12:35:21,0.0
-13608,-652,-1460,-147,148,-179,2025-01-29 12:35:21,0.0
-13612,-644,-1628,-153,161,-165,2025-01-29 12:35:21,0.0
-13688,-632,-1316,-140,163,-170,2025-01-29 12:35:21,0.0
-13528,-596,-1520,-160,171,-194,2025-01-29 12:35:21,0.0
-13524,-592,-1484,-162,157,-176,2025-01-29 12:35:21,0.0
-13488,-580,-1496,-145,169,-166,2025-01-29 12:35:21,0.0
-13680,-628,-1612,-120,160,-174,2025-01-29 12:35:21,0.0
-13552,-572,-1424,-180,165,-174,2025-01-29 12:35:21,0.0
-13560,-584,-1504,-146,167,-173,2025-01-29 12:35:21,0.0
-13528,-652,-1596,-150,165,-175,2025-01-29 12:35:21,0.0
-13564,-612,-1412,-166,169,-171,2025-01-29 12:35:21,0.0
-13560,-596,-1528,-165,169,-157,2025-01-29 12:35:21,0.0
-13576,-648,-1512,-179,174,-178,2025-01-29 12:35:21,0.0
-13544,-596,-1468,-138,153,-196,2025-01-29 12:35:21,0.0
-13592,-640,-1524,-163,175,-172,2025-01-29 12:35:21,0.0
-13484,-664,-1620,-164,159,-185,2025-01-29 12:35:21,0.0
-13564,-596,-1500,-149,159,-154,2025-01-29 12:35:21,0.0
-13480,-592,-1432,-167,156,-183,2025-01-29 12:35:21,0.0
-13564,-540,-1460,-158,177,-161,2025-01-29 12:35:21,0.0
-13608,-564,-1368,-175,152,-201,2025-01-29 12:35:21,0.0
-13492,-616,-1576,-159,156,-164,2025-01-29 12:35:21,0.0
-13436,-588,-1576,-170,165,-177,2025-01-29 12:35:21,0.0
-13560,-644,-1536,-159,167,-180,2025-01-29 12:35:21,0.0
-13560,-616,-1488,-158,175,-214,2025-01-29 12:35:21,0.0
-13500,-624,-1392,-156,153,-147,2025-01-29 12:35:21,0.0
-13548,-604,-1516,-150,170,-189,2025-01-29 12:35:21,0.0
-13628,-600,-1480,-165,177,-168,2025-01-29 12:35:21,0.0
-13536,-644,-1500,-139,154,-166,2025-01-29 12:35:21,0.0
-13560,-520,-1500,-150,165,-161,2025-01-29 12:35:21,0.0
-13592,-568,-1420,-169,189,-153,2025-01-29 12:35:21,0.0
-13544,-652,-1460,-172,173,-180,2025-01-29 12:35:21,0.0
-13508,-584,-1584,-149,150,-178,2025-01-29 12:35:21,0.0
-13500,-536,-1456,-168,178,-194,2025-01-29 12:35:21,0.0
-13568,-544,-1568,-127,161,-185,2025-01-29 12:35:21,0.0
-13508,-588,-1444,-162,162,-177,2025-01-29 12:35:22,0.0
-13440,-560,-1584,-174,166,-160,2025-01-29 12:35:22,0.0
-13600,-632,-1512,-174,160,-176,2025-01-29 12:35:22,0.0
-13520,-672,-1476,-137,172,-166,2025-01-29 12:35:22,0.0
-13556,-580,-1472,-152,165,-171,2025-01-29 12:35:22,0.0
-13480,-656,-1404,-165,151,-172,2025-01-29 12:35:22,0.0
-13492,-632,-1592,-184,182,-188,2025-01-29 12:35:22,0.0
-13580,-596,-1540,-131,177,-173,2025-01-29 12:35:22,0.0
-13580,-556,-1392,-148,146,-173,2025-01-29 12:35:22,0.0
-13592,-568,-1516,-163,167,-166,2025-01-29 12:35:22,0.0
-13432,-664,-1648,-164,177,-184,2025-01-29 12:35:22,0.0
-13616,-608,-1568,-160,180,-172,2025-01-29 12:35:22,0.0
-13600,-664,-1492,-171,155,-173,2025-01-29 12:35:22,0.0
-13524,-652,-1564,-170,172,-178,2025-01-29 12:35:22,0.0
-13584,-632,-1464,-173,166,-186,2025-01-29 12:35:22,0.0
-13652,-592,-1508,-146,170,-166,2025-01-29 12:35:22,0.0
-13512,-632,-1588,-172,150,-187,2025-01-29 12:35:22,0.0
-13496,-628,-1516,-149,157,-187,2025-01-29 12:35:22,0.0
-13528,-608,-1520,-162,199,-186,2025-01-29 12:35:22,0.0
-13552,-552,-1400,-144,156,-152,2025-01-29 12:35:22,0.0
-13532,-624,-1556,-165,167,-164,2025-01-29 12:35:22,0.0
-13556,-620,-1480,-144,151,-166,2025-01-29 12:35:22,0.0
-13536,-576,-1432,-177,158,-171,2025-01-29 12:35:22,0.0
-13596,-564,-1508,-170,137,-185,2025-01-29 12:35:22,0.0
-13312,-604,-1700,-176,159,-178,2025-01-29 12:35:22,0.0
-13660,-552,-1256,-161,203,-161,2025-01-29 12:35:22,0.0
-13592,-552,-1520,-165,165,-189,2025-01-29 12:35:22,0.0
-13480,-580,-1524,-166,155,-167,2025-01-29 12:35:22,0.0
-13484,-648,-1400,-168,149,-172,2025-01-29 12:35:22,0.0
-13548,-536,-1488,-160,150,-188,2025-01-29 12:35:22,0.0
-13540,-512,-1740,-159,160,-167,2025-01-29 12:35:22,0.0
-13692,-692,-1616,-165,170,-173,2025-01-29 12:35:22,0.0
-13588,-588,-1444,-153,147,-177,2025-01-29 12:35:22,0.0
-13584,-548,-1340,-174,160,-178,2025-01-29 12:35:22,0.0
-13484,-696,-1608,-168,148,-174,2025-01-29 12:35:22,0.0
-13572,-640,-1592,-151,170,-179,2025-01-29 12:35:22,0.0
-13520,-536,-1464,-161,149,-154,2025-01-29 12:35:22,0.0
-13548,-620,-1516,-191,159,-173,2025-01-29 12:35:22,0.0
-13448,-604,-1560,-155,167,-179,2025-01-29 12:35:22,0.0
-13504,-588,-1368,-151,159,-161,2025-01-29 12:35:22,0.0
-13492,-548,-1560,-146,160,-189,2025-01-29 12:35:22,0.0
-13652,-696,-1344,-144,185,-173,2025-01-29 12:35:22,0.0
-13548,-628,-1424,-158,169,-164,2025-01-29 12:35:22,0.0
-13492,-504,-1476,-158,139,-188,2025-01-29 12:35:22,0.0
-13516,-624,-1520,-170,162,-197,2025-01-29 12:35:22,0.0
-13500,-616,-1608,-152,142,-167,2025-01-29 12:35:22,0.0
-13516,-592,-1484,-156,168,-185,2025-01-29 12:35:22,0.0
-13544,-696,-1568,-166,146,-174,2025-01-29 12:35:22,0.0
-13592,-656,-1352,-155,170,-174,2025-01-29 12:35:22,0.0
-13508,-596,-1596,-151,166,-175,2025-01-29 12:35:22,0.0
-13404,-572,-1496,-153,161,-162,2025-01-29 12:35:22,0.0
-13532,-612,-1384,-173,177,-186,2025-01-29 12:35:22,0.0
-13588,-600,-1384,-180,173,-160,2025-01-29 12:35:22,0.0
-13568,-616,-1512,-174,157,-161,2025-01-29 12:35:22,0.0
-13468,-616,-1528,-175,157,-165,2025-01-29 12:35:22,0.0
-13536,-608,-1552,-177,177,-169,2025-01-29 12:35:22,0.0
-13572,-604,-1484,-168,163,-196,2025-01-29 12:35:22,0.0
-13488,-628,-1500,-169,154,-169,2025-01-29 12:35:22,0.0
-13512,-560,-1412,-180,148,-184,2025-01-29 12:35:22,0.0
-13520,-600,-1492,-155,172,-171,2025-01-29 12:35:22,0.0
-13512,-616,-1544,-137,162,-171,2025-01-29 12:35:22,0.0
-13488,-736,-1432,-172,162,-185,2025-01-29 12:35:23,
