acceleration_x,acceleration_y,acceleration_z,gyroscope_x,gyroscope_y,gyroscope_z,timestamp,label
1808,4,18408,-191,174,-163,2025-01-29 12:39:02,0.0
1956,24,18620,-172,161,-173,2025-01-29 12:39:02,0.0
1916,28,18380,-166,163,-173,2025-01-29 12:39:02,0.0
1792,28,18540,-170,183,-169,2025-01-29 12:39:02,0.0
1828,-32,18632,-156,152,-184,2025-01-29 12:39:02,0.0
1852,68,18672,-152,167,-173,2025-01-29 12:39:02,0.0
1916,0,18640,-171,172,-188,2025-01-29 12:39:02,0.0
1816,84,18592,-145,172,-150,2025-01-29 12:39:02,0.0
1852,-32,18696,-163,160,-188,2025-01-29 12:39:02,0.0
1816,12,18584,-154,161,-172,2025-01-29 12:39:02,0.0
1864,-12,18612,-172,164,-183,2025-01-29 12:39:02,0.0
1896,100,18636,-154,153,-163,2025-01-29 12:39:02,0.0
1800,40,18564,-170,172,-169,2025-01-29 12:39:02,0.0
1940,96,18456,-164,167,-183,2025-01-29 12:39:02,0.0
1796,0,18576,-146,170,-170,2025-01-29 12:39:02,0.0
1888,32,18420,-187,164,-167,2025-01-29 12:39:02,0.0
1868,48,18632,-136,156,-165,2025-01-29 12:39:02,0.0
1884,-56,18620,-162,175,-163,2025-01-29 12:39:02,0.0
1856,24,18652,-153,195,-167,2025-01-29 12:39:02,0.0
1804,0,18476,-153,171,-185,2025-01-29 12:39:02,0.0
1896,24,18508,-157,145,-169,2025-01-29 12:39:02,0.0
1872,32,18532,-179,156,-158,2025-01-29 12:39:02,0.0
1864,68,18520,-157,160,-162,2025-01-29 12:39:02,0.0
1836,44,18592,-143,163,-173,2025-01-29 12:39:02,0.0
1820,72,18492,-165,150,-194,2025-01-29 12:39:02,0.0
1904,68,18508,-168,179,-176,2025-01-29 12:39:02,0.0
1868,48,18444,-148,146,-174,2025-01-29 12:39:02,0.0
1872,40,18564,-153,155,-177,2025-01-29 12:39:02,0.0
1912,40,18608,-153,178,-175,2025-01-29 12:39:02,0.0
1884,-12,18548,-169,157,-189,2025-01-29 12:39:02,0.0
1836,-8,18488,-158,167,-158,2025-01-29 12:39:02,0.0
1816,112,18704,-153,177,-184,2025-01-29 12:39:02,0.0
1852,-56,18616,-156,165,-174,2025-01-29 12:39:02,0.0
1848,-36,18464,-157,171,-174,2025-01-29 12:39:02,0.0
1896,-44,18556,-167,168,-173,2025-01-29 12:39:02,0.0
1868,20,18508,-160,185,-178,2025-01-29 12:39:02,0.0
1864,4,18672,-139,143,-187,2025-01-29 12:39:02,0.0
1848,36,18476,-153,184,-173,2025-01-29 12:39:02,0.0
1876,4,18564,-172,177,-171,2025-01-29 12:39:02,0.0
1852,-68,18536,-163,150,-178,2025-01-29 12:39:02,0.0
1964,-84,18464,-157,181,-180,2025-01-29 12:39:02,0.0
1888,36,18584,-176,163,-184,2025-01-29 12:39:02,0.0
1756,-36,18716,-175,159,-169,2025-01-29 12:39:02,0.0
1928,-60,18556,-172,183,-181,2025-01-29 12:39:02,0.0
1904,24,18592,-179,165,-165,2025-01-29 12:39:02,0.0
1856,-16,18568,-165,167,-168,2025-01-29 12:39:03,0.0
1856,92,18644,-144,164,-172,2025-01-29 12:39:03,0.0
1904,-8,18444,-164,173,-184,2025-01-29 12:39:03,0.0
1888,-40,18712,-162,165,-176,2025-01-29 12:39:03,0.0
1840,40,18652,-157,157,-180,2025-01-29 12:39:03,0.0
1976,64,18640,-157,187,-178,2025-01-29 12:39:03,0.0
1840,0,18576,-157,150,-181,2025-01-29 12:39:03,0.0
1860,-56,18660,-172,148,-171,2025-01-29 12:39:03,0.0
1844,56,18564,-155,168,-170,2025-01-29 12:39:03,0.0
1760,68,18520,-147,182,-164,2025-01-29 12:39:03,0.0
1928,-36,18492,-163,161,-181,2025-01-29 12:39:03,0.0
1920,56,18504,-169,136,-165,2025-01-29 12:39:03,0.0
1792,80,18464,-139,172,-166,2025-01-29 12:39:03,0.0
1924,-32,18776,-152,156,-186,2025-01-29 12:39:03,0.0
1944,68,18632,-173,138,-167,2025-01-29 12:39:03,0.0
1728,-28,18456,-175,167,-180,2025-01-29 12:39:03,0.0
1904,100,18456,-156,177,-160,2025-01-29 12:39:03,0.0
1840,4,18460,-166,155,-167,2025-01-29 12:39:03,0.0
1864,-20,18456,-165,165,-181,2025-01-29 12:39:03,0.0
1832,4,18580,-163,173,-151,2025-01-29 12:39:03,0.0
1912,56,18424,-164,175,-198,2025-01-29 12:39:03,0.0
1944,128,18616,-169,159,-170,2025-01-29 12:39:03,0.0
1916,-8,18508,-169,185,-166,2025-01-29 12:39:03,0.0
1944,60,18624,-185,165,-174,2025-01-29 12:39:03,0.0
1924,24,18608,-160,171,-170,2025-01-29 12:39:03,0.0
1924,48,18552,-169,154,-173,2025-01-29 12:39:03,0.0
1860,24,18488,-159,162,-171,2025-01-29 12:39:03,0.0
1816,72,18500,-171,174,-182,2025-01-29 12:39:03,0.0
1900,68,18572,-147,192,-177,2025-01-29 12:39:03,0.0
1868,68,18484,-151,188,-184,2025-01-29 12:39:03,0.0
1892,68,18540,-157,164,-180,2025-01-29 12:39:03,0.0
1760,-20,18508,-156,156,-174,2025-01-29 12:39:03,0.0
1824,-12,18548,-158,183,-182,2025-01-29 12:39:03,0.0
1984,-76,18628,-162,149,-188,2025-01-29 12:39:03,0.0
1836,48,18484,-163,152,-180,2025-01-29 12:39:03,0.0
1952,36,18544,-159,176,-182,2025-01-29 12:39:03,0.0
1908,-20,18620,-178,163,-174,2025-01-29 12:39:03,0.0
1816,56,18580,-174,183,-184,2025-01-29 12:39:03,0.0
1924,-8,18712,-170,157,-184,2025-01-29 12:39:03,0.0
1976,12,18580,-175,152,-160,2025-01-29 12:39:03,0.0
1880,84,18540,-153,180,-188,2025-01-29 12:39:03,0.0
1764,72,18496,-156,168,-153,2025-01-29 12:39:03,0.0
1880,-28,18588,-160,170,-178,2025-01-29 12:39:03,0.0
1884,32,18544,-162,149,-177,2025-01-29 12:39:03,0.0
1820,24,18648,-170,168,-171,2025-01-29 12:39:03,0.0
1800,40,18616,-137,170,-182,2025-01-29 12:39:03,0.0
1812,76,18688,-145,174,-169,2025-01-29 12:39:03,0.0
1792,48,18588,-160,173,-175,2025-01-29 12:39:03,0.0
1856,-40,18548,-154,151,-177,2025-01-29 12:39:03,0.0
1904,68,18492,-154,165,-186,2025-01-29 12:39:03,0.0
1920,48,18696,-169,169,-159,2025-01-29 12:39:03,0.0
1800,40,18700,-164,177,-166,2025-01-29 12:39:03,0.0
1900,-76,18608,-158,162,-163,2025-01-29 12:39:04,0.0
1932,68,18448,-162,165,-170,2025-01-29 12:39:04,0.0
1820,-40,18476,-151,175,-179,2025-01-29 12:39:04,
1920,48,18648,-161,162,-152,2025-01-29 12:39:04,0.0
1916,60,18640,-150,165,-179,2025-01-29 12:39:04,0.0
1856,12,18668,-172,144,-188,2025-01-29 12:39:04,0.0
1848,-20,18640,-165,177,-188,2025-01-29 12:39:04,0.0
1788,-4,18532,-179,171,-184,2025-01-29 12:39:04,0.0
1828,32,18560,-161,176,-164,2025-01-29 12:39:04,0.0
1852,-4,18652,-148,159,-171,2025-01-29 12:39:04,0.0
1868,52,18544,-150,180,-191,2025-01-29 12:39:04,0.0
1868,128,18456,-141,178,-176,2025-01-29 12:39:04,0.0
1888,-8,18632,-165,149,-172,2025-01-29 12:39:04,0.0
1796,8,18700,-152,151,-176,2025-01-29 12:39:04,0.0
1880,-12,18588,-155,159,-182,2025-01-29 12:39:04,0.0
1908,-56,18652,-161,154,-177,2025-01-29 12:39:04,0.0
1868,48,18448,-182,171,-164,2025-01-29 12:39:04,0.0
1840,-16,18640,-152,165,-188,2025-01-29 12:39:04,0.0
1804,104,18432,-152,173,-185,2025-01-29 12:39:04,0.0
1912,-40,18516,-157,166,-168,2025-01-29 12:39:04,0.0
1812,52,18528,-173,170,-173,2025-01-29 12:39:04,0.0
1892,12,18544,-169,168,-182,2025-01-29 12:39:04,0.0
1764,16,18496,-157,151,-163,2025-01-29 12:39:04,0.0
1844,64,18604,-175,176,-172,2025-01-29 12:39:04,0.0
1900,0,18556,-144,147,-185,2025-01-29 12:39:04,0.0
1904,20,18604,-151,129,-181,2025-01-29 12:39:04,0.0
1836,56,18660,-150,148,-160,2025-01-29 12:39:04,0.0
1872,4,18576,-147,177,-166,2025-01-29 12:39:04,0.0
1868,-8,18700,-164,152,-187,2025-01-29 12:39:04,0.0
1832,76,18600,-153,159,-182,2025-01-29 12:39:04,0.0
1880,24,18400,-141,157,-166,2025-01-29 12:39:04,0.0
1912,80,18532,-170,166,-178,2025-01-29 12:39:04,0.0
1920,36,18456,-157,181,-185,2025-01-29 12:39:04,0.0
1860,12,18412,-160,168,-158,2025-01-29 12:39:04,0.0
1844,40,18584,-141,169,-179,2025-01-29 12:39:04,0.0
1908,32,18396,-161,161,-155,2025-01-29 12:39:04,0.0
1908,12,18480,-181,153,-170,2025-01-29 12:39:04,0.0
1928,40,18616,-171,146,-158,2025-01-29 12:39:04,0.0
1848,80,18580,-164,168,-188,2025-01-29 12:39:04,0.0
1964,0,18500,-178,156,-164,2025-01-29 12:39:04,0.0
1968,20,18732,-169,169,-162,2025-01-29 12:39:04,0.0
1848,56,18520,-178,160,-170,2025-01-29 12:39:04,0.0
1832,-16,18480,-160,158,-167,2025-01-29 12:39:04,0.0
1944,-20,18612,-152,172,-173,2025-01-29 12:39:04,0.0
1876,-88,18620,-148,161,-188,2025-01-29 12:39:04,0.0
1880,124,18432,-153,174,-172,2025-01-29 12:39:04,0.0
1772,-72,18624,-140,173,-179,2025-01-29 12:39:04,0.0
1820,-36,18596,-179,164,-178,2025-01-29 12:39:04,0.0
1828,-44,18500,-146,165,-186,2025-01-29 12:39:04,0.0
1860,-4,18720,-181,184,-173,2025-01-29 12:39:04,0.0
1740,104,18552,-170,185,-182,2025-01-29 12:39:05,0.0
1912,12,18632,-163,168,-178,2025-01-29 12:39:05,0.0
1868,80,18576,-171,153,-188,2025-01-29 12:39:05,0.0
1924,104,18632,-185,172,-191,2025-01-29 12:39:05,0.0
1760,-96,18520,-148,177,-197,2025-01-29 12:39:05,0.0
1884,-28,18508,-164,176,-161,2025-01-29 12:39:05,0.0
1836,28,18636,-162,162,-172,2025-01-29 12:39:05,0.0
1896,40,18512,-174,152,-145,2025-01-29 12:39:05,0.0
1876,4,18680,-146,156,-182,2025-01-29 12:39:05,0.0
1772,-72,18544,-150,160,-175,2025-01-29 12:39:05,0.0
1888,24,18620,-168,170,-193,2025-01-29 12:39:05,0.0
1884,-12,18548,-159,168,-178,2025-01-29 12:39:05,0.0
1832,0,18572,-171,184,-169,2025-01-29 12:39:05,0.0
1784,24,18596,-141,173,-181,2025-01-29 12:39:05,0.0
1872,68,18592,-170,160,-176,2025-01-29 12:39:05,0.0
1964,116,18428,-167,178,-183,2025-01-29 12:39:05,0.0
1904,32,18604,-176,172,-173,2025-01-29 12:39:05,0.0
1852,32,18520,-161,146,-187,2025-01-29 12:39:05,0.0
1816,-36,18520,-129,164,-187,2025-01-29 12:39:05,0.0
1776,76,18512,-166,169,-183,2025-01-29 12:39:05,0.0
1972,-24,18588,-151,161,-178,2025-01-29 12:39:05,0.0
1912,48,18612,-125,157,-186,2025-01-29 12:39:05,0.0
1828,-12,18516,-137,151,-188,2025-01-29 12:39:05,0.0
1860,68,18508,-150,167,-161,2025-01-29 12:39:05,0.0
1912,60,18648,-165,166,-182,2025-01-29 12:39:05,0.0
1884,56,18528,-161,175,-179,2025-01-29 12:39:05,0.0
1824,24,18716,-166,162,-164,2025-01-29 12:39:05,0.0
1868,40,18588,-196,172,-174,2025-01-29 12:39:05,0.0
1828,-36,18532,-162,164,-193,2025-01-29 12:39:05,0.0
1868,-16,18544,-161,141,-163,2025-01-29 12:39:05,0.0
1836,72,18412,-159,159,-158,2025-01-29 12:39:05,0.0
1952,-36,18500,-167,158,-160,2025-01-29 12:39:05,0.0
1848,56,18588,-155,164,-162,2025-01-29 12:39:05,0.0
1896,24,18484,-191,179,-166,2025-01-29 12:39:05,0.0
1772,48,18524,-159,167,-165,2025-01-29 12:39:05,0.0
1876,32,18624,-167,176,-160,2025-01-29 12:39:05,0.0
1812,36,18488,-163,182,-165,2025-01-29 12:39:05,0.0
1840,24,18592,-176,161,-166,2025-01-29 12:39:05,0.0
1736,0,18460,-171,184,-189,2025-01-29 12:39:05,0.0
1784,0,18504,-145,158,-166,2025-01-29 12:39:05,0.0
1888,52,18676,-136,159,-174,2025-01-29 12:39:05,0.0
1860,-24,18540,-164,159,-165,2025-01-29 12:39:05,0.0
1800,-52,18688,-158,171,-203,2025-01-29 12:39:05,0.0
1876,20,18584,-141,180,-164,2025-01-29 12:39:05,0.0
1876,8,18572,-163,164,-172,2025-01-29 12:39:05,0.0
1896,64,18456,-158,167,-174,2025-01-29 12:39:05,0.0
1928,-52,18544,-158,156,-175,2025-01-29 12:39:05,0.0
1840,28,18448,-166,163,-164,2025-01-29 12:39:05,0.0
1876,-16,18588,-167,160,-145,2025-01-29 12:39:05,0.0
1812,116,18628,-170,149,-193,2025-01-29 12:39:05,0.0
1864,-16,18584,-144,166,-157,2025-01-29 12:39:05,0.0
1852,176,18616,-175,163,-171,2025-01-29 12:39:05,0.0
1864,24,18580,-165,160,-177,2025-01-29 12:39:05,
1844,48,18552,-162,166,-187,2025-01-29 12:39:05,0.0
1892,48,18564,-157,162,-187,2025-01-29 12:39:05,0.0
1952,72,18592,-158,170,-169,2025-01-29 12:39:05,0.0
1844,-48,18508,-140,162,-173,2025-01-29 12:39:05,0.0
1900,24,18588,-130,172,-176,2025-01-29 12:39:05,0.0
1912,-68,18468,-154,171,-181,2025-01-29 12:39:05,0.0
1840,40,18576,-143,178,-175,2025-01-29 12:39:05,0.0
1896,-40,18628,-163,176,-166,2025-01-29 12:39:06,0.0
1852,24,18628,-175,167,-178,2025-01-29 12:39:06,0.0
1880,-64,18608,-147,183,-196,2025-01-29 12:39:06,0.0
1924,36,18548,-143,159,-162,2025-01-29 12:39:06,0.0
1872,52,18640,-182,153,-174,2025-01-29 12:39:06,0.0
1872,24,18588,-146,152,-195,2025-01-29 12:39:06,0.0
1832,12,18612,-149,192,-162,2025-01-29 12:39:06,0.0
1888,-36,18600,-160,176,-180,2025-01-29 12:39:06,0.0
1920,8,18472,-167,184,-184,2025-01-29 12:39:06,0.0
1896,48,18448,-157,174,-184,2025-01-29 12:39:06,0.0
1844,16,18540,-171,168,-185,2025-01-29 12:39:06,0.0
1936,108,18516,-167,144,-174,2025-01-29 12:39:06,0.0
1856,-88,18472,-157,173,-175,2025-01-29 12:39:06,0.0
1900,72,18484,-170,171,-181,2025-01-29 12:39:06,0.0
1800,8,18496,-157,163,-181,2025-01-29 12:39:06,0.0
1864,8,18592,-174,151,-161,2025-01-29 12:39:06,0.0
1936,8,18620,-176,175,-179,2025-01-29 12:39:06,0.0
1832,32,18444,-156,182,-170,2025-01-29 12:39:06,0.0
1768,-12,18612,-182,169,-175,2025-01-29 12:39:06,0.0
1912,-16,18428,-157,154,-163,2025-01-29 12:39:06,0.0
1828,-12,18468,-170,151,-176,2025-01-29 12:39:06,0.0
1868,48,18400,-180,158,-156,2025-01-29 12:39:06,0.0
1868,36,18508,-164,170,-172,2025-01-29 12:39:06,0.0
1896,-80,18512,-175,173,-150,2025-01-29 12:39:06,0.0
1912,56,18564,-169,149,-185,2025-01-29 12:39:06,0.0
1808,-24,18496,-176,157,-153,2025-01-29 12:39:06,0.0
1924,84,18504,-165,142,-173,2025-01-29 12:39:06,0.0
1868,-8,18412,-162,170,-187,2025-01-29 12:39:06,0.0
1956,32,18628,-173,145,-166,2025-01-29 12:39:06,0.0
1896,12,18484,-162,153,-179,2025-01-29 12:39:06,0.0
1880,-32,18560,-164,192,-183,2025-01-29 12:39:06,0.0
1896,-4,18528,-150,169,-158,2025-01-29 12:39:06,0.0
1900,-52,18572,-149,166,-180,2025-01-29 12:39:06,0.0
1832,52,18612,-145,170,-166,2025-01-29 12:39:06,0.0
1932,0,18680,-145,182,-181,2025-01-29 12:39:06,0.0
1844,12,18572,-170,182,-151,2025-01-29 12:39:06,0.0
1840,40,18412,-155,164,-187,2025-01-29 12:39:06,0.0
1860,-56,18492,-140,177,-184,2025-01-29 12:39:06,0.0
1992,24,18444,-160,160,-184,2025-01-29 12:39:06,0.0
1916,-36,18560,-167,170,-177,2025-01-29 12:39:06,0.0
1880,-12,18620,-154,174,-188,2025-01-29 12:39:06,0.0
1828,8,18608,-153,148,-169,2025-01-29 12:39:06,0.0
1936,116,18636,-174,169,-192,2025-01-29 12:39:06,0.0
1828,64,18528,-151,175,-180,2025-01-29 12:39:06,0.0
1908,-4,18512,-184,175,-156,2025-01-29 12:39:06,0.0
1976,4,18476,-171,145,-161,2025-01-29 12:39:06,0.0
1912,12,18608,-156,180,-189,2025-01-29 12:39:06,0.0
1812,12,18508,-178,170,-182,2025-01-29 12:39:06,0.0
1860,76,18652,-161,153,-164,2025-01-29 12:39:06,0.0
1972,68,18652,-161,164,-165,2025-01-29 12:39:06,0.0
1896,124,18476,-159,160,-165,2025-01-29 12:39:06,0.0
1828,28,18592,-174,164,-186,2025-01-29 12:39:06,0.0
1792,-28,18532,-176,159,-174,2025-01-29 12:39:06,0.0
1904,32,18672,-183,170,-176,2025-01-29 12:39:06,0.0
1868,68,18592,-162,152,-159,2025-01-29 12:39:06,0.0
1908,72,18596,-175,142,-178,2025-01-29 12:39:06,0.0
1852,8,18512,-157,167,-165,2025-01-29 12:39:06,0.0
1876,48,18560,-169,175,-168,2025-01-29 12:39:06,0.0
1984,-16,18520,-166,175,-183,2025-01-29 12:39:06,0.0
1860,36,18408,-156,156,-178,2025-01-29 12:39:06,0.0
1836,48,18596,-139,168,-165,2025-01-29 12:39:07,0.0
1780,80,18660,-170,175,-156,2025-01-29 12:39:07,0.0
1836,-16,18440,-144,171,-180,2025-01-29 12:39:07,0.0
1828,72,18532,-190,165,-163,2025-01-29 12:39:07,0.0
1828,80,18548,-160,169,-182,2025-01-29 12:39:07,0.0
1996,56,18508,-171,165,-159,2025-01-29 12:39:07,0.0
1812,88,18520,-165,162,-168,2025-01-29 12:39:07,0.0
1848,56,18608,-173,157,-183,2025-01-29 12:39:07,0.0
1832,92,18484,-155,166,-190,2025-01-29 12:39:07,0.0
1880,72,18556,-168,149,-171,2025-01-29 12:39:07,0.0
1912,8,18540,-152,196,-167,2025-01-29 12:39:07,0.0
1904,-8,18560,-168,160,-196,2025-01-29 12:39:07,0.0
1804,64,18492,-160,178,-178,2025-01-29 12:39:07,0.0
1908,0,18604,-148,180,-163,2025-01-29 12:39:07,0.0
1892,76,18496,-170,169,-171,2025-01-29 12:39:07,0.0
1792,-56,18612,-157,159,-169,2025-01-29 12:39:07,0.0
1860,68,18540,-161,173,-196,2025-01-29 12:39:07,0.0
1796,24,18464,-159,165,-177,2025-01-29 12:39:07,0.0
1776,-16,18620,-188,173,-202,2025-01-29 12:39:07,0.0
1904,-24,18620,-154,164,-164,2025-01-29 12:39:07,0.0
1872,48,18580,-138,171,-180,2025-01-29 12:39:07,0.0
1820,12,18596,-152,155,-180,2025-01-29 12:39:07,0.0
1812,84,18444,-131,159,-169,2025-01-29 12:39:07,0.0
1840,-68,18492,-168,186,-189,2025-01-29 12:39:07,0.0
1808,120,18476,-188,177,-167,2025-01-29 12:39:07,0.0
1748,12,18532,-151,168,-181,2025-01-29 12:39:07,0.0
1876,36,18700,-141,155,-169,2025-01-29 12:39:07,0.0
1908,-96,18380,-161,164,-191,2025-01-29 12:39:07,0.0
1896,96,18476,-153,180,-177,2025-01-29 12:39:07,0.0
1860,12,18496,-146,148,-187,2025-01-29 12:39:07,0.0
1860,-40,18672,-154,155,-173,2025-01-29 12:39:07,0.0
1876,-72,18616,-153,176,-169,2025-01-29 12:39:07,0.0
1868,28,18652,-165,160,-174,2025-01-29 12:39:07,
