acceleration_x,acceleration_y,acceleration_z,gyroscope_x,gyroscope_y,gyroscope_z,timestamp,label
-13245.25,-764.3,-26069.0,4.675000000000011,98.6525,-52.817499999999995,2025-01-29 11:49:01,0.0
-13317.25,-792.3,-26105.0,4.675000000000011,43.6525,-65.8175,2025-01-29 11:49:01,0.0
-13181.25,-840.3,-26141.0,21.67500000000001,14.652500000000003,-30.817499999999995,2025-01-29 11:49:01,0.0
-13313.25,-756.3,-26009.0,2.6750000000000114,5.652500000000003,-16.817499999999995,2025-01-29 11:49:01,0.0
-13245.25,-660.3,-26013.0,-22.32499999999999,86.6525,-30.817499999999995,2025-01-29 11:49:01,0.0
-13249.25,-744.3,-25953.0,-50.32499999999999,167.6525,-41.817499999999995,2025-01-29 11:49:01,0.0
-13253.25,-808.3,-26009.0,-61.32499999999999,176.6525,-14.817499999999995,2025-01-29 11:49:01,0.0
-13309.25,-796.3,-26029.0,-32.32499999999999,160.6525,-27.817499999999995,2025-01-29 11:49:01,0.0
-13289.25,-864.3,-26021.0,-23.32499999999999,103.6525,19.182500000000005,2025-01-29 11:49:01,0.0
-13289.25,-880.3,-25973.0,-5.324999999999989,85.6525,5.1825000000000045,2025-01-29 11:49:01,0.0
-13177.25,-824.3,-26193.0,0.6750000000000114,90.6525,9.182500000000005,2025-01-29 11:49:01,0.0
-13189.25,-840.3,-26041.0,-1.3249999999999886,140.6525,25.182500000000005,2025-01-29 11:49:01,0.0
-13301.25,-864.3,-26169.0,32.67500000000001,160.6525,11.182500000000005,2025-01-29 11:49:01,0.0
-13217.25,-872.3,-26085.0,50.67500000000001,194.6525,13.182500000000005,2025-01-29 11:49:01,0.0
-13269.25,-772.3,-26177.0,54.67500000000001,159.6525,22.182500000000005,2025-01-29 11:49:01,0.0
-13349.25,-832.3,-26141.0,71.67500000000001,103.6525,19.182500000000005,2025-01-29 11:49:02,0.0
-13325.25,-800.3,-26277.0,23.67500000000001,47.6525,21.182500000000005,2025-01-29 11:49:02,0.0
-13321.25,-812.3,-26081.0,28.67500000000001,-37.3475,-21.817499999999995,2025-01-29 11:49:02,0.0
-13301.25,-736.3,-26009.0,3.6750000000000114,-45.3475,-30.817499999999995,2025-01-29 11:49:02,0.0
-13361.25,-748.3,-25993.0,-23.32499999999999,-11.347499999999997,-3.8174999999999955,2025-01-29 11:49:02,0.0
-13073.25,-892.3,-26089.0,9.675000000000011,-108.3475,-10.817499999999995,2025-01-29 11:49:02,0.0
-13173.25,-924.3,-25977.0,35.67500000000001,8.652500000000003,11.182500000000005,2025-01-29 11:49:02,0.0
-13141.25,-1012.3,-26041.0,79.67500000000001,112.6525,18.182500000000005,2025-01-29 11:49:02,0.0
-13213.25,-912.3,-26037.0,70.67500000000001,193.6525,24.182500000000005,2025-01-29 11:49:02,0.0
-13201.25,-852.3,-26113.0,21.67500000000001,-19.347499999999997,13.182500000000005,2025-01-29 11:49:02,0.0
-13217.25,-720.3,-26117.0,54.67500000000001,28.652500000000003,6.1825000000000045,2025-01-29 11:49:02,0.0
-13213.25,-796.3,-26213.0,54.67500000000001,13.652500000000003,-8.817499999999995,2025-01-29 11:49:02,0.0
-13157.25,-696.3,-26197.0,38.67500000000001,17.652500000000003,0.18250000000000455,2025-01-29 11:49:02,0.0
-13297.25,-700.3,-26269.0,26.67500000000001,9.652500000000003,15.182500000000005,2025-01-29 11:49:02,0.0
-13269.25,-780.3,-26229.0,-66.32499999999999,-4.347499999999997,-17.817499999999995,2025-01-29 11:49:02,0.0
-13217.25,-812.3,-26285.0,-18.32499999999999,-94.3475,17.182500000000005,2025-01-29 11:49:02,0.0
-13225.25,-880.3,-25905.0,-52.32499999999999,-52.3475,8.182500000000005,2025-01-29 11:49:02,0.0
-13105.25,-900.3,-26065.0,0.6750000000000114,-34.3475,14.182500000000005,2025-01-29 11:49:02,0.0
-13213.25,-812.3,-26169.0,2.6750000000000114,8.652500000000003,15.182500000000005,2025-01-29 11:49:02,0.0
-13253.25,-856.3,-26153.0,-16.32499999999999,58.6525,-15.817499999999995,2025-01-29 11:49:02,0.0
-13317.25,-812.3,-26069.0,4.675000000000011,48.6525,1.1825000000000045,2025-01-29 11:49:02,0.0
-13209.25,-916.3,-26089.0,-18.32499999999999,-5.347499999999997,-24.817499999999995,2025-01-29 11:49:02,0.0
-13181.25,-880.3,-26105.0,-25.32499999999999,-24.347499999999997,9.182500000000005,2025-01-29 11:49:02,0.0
-13245.25,-948.3,-26221.0,-3.3249999999999886,95.6525,-8.817499999999995,2025-01-29 11:49:02,0.0
-13329.25,-872.3,-26253.0,-48.32499999999999,45.6525,-20.817499999999995,2025-01-29 11:49:02,0.0
-13305.25,-760.3,-26105.0,-45.32499999999999,11.652500000000003,10.182500000000005,2025-01-29 11:49:02,0.0
-13253.25,-768.3,-26209.0,-36.32499999999999,-160.3475,-8.817499999999995,2025-01-29 11:49:02,0.0
-13237.25,-944.3,-26289.0,-32.32499999999999,-178.3475,-13.817499999999995,2025-01-29 11:49:02,0.0
-13141.25,-868.3,-26021.0,-4.324999999999989,-79.3475,3.1825000000000045,2025-01-29 11:49:02,0.0
-13125.25,-948.3,-26021.0,42.67500000000001,36.6525,33.182500000000005,2025-01-29 11:49:02,0.0
-13289.25,-740.3,-25961.0,47.67500000000001,74.6525,61.182500000000005,2025-01-29 11:49:02,0.0
-13333.25,-740.3,-25949.0,10.675000000000011,43.6525,54.182500000000005,2025-01-29 11:49:02,0.0
-13325.25,-684.3,-26029.0,26.67500000000001,30.652500000000003,46.182500000000005,2025-01-29 11:49:02,0.0
-13349.25,-848.3,-26205.0,-0.32499999999998863,21.652500000000003,46.182500000000005,2025-01-29 11:49:02,0.0
-13317.25,-756.3,-26093.0,17.67500000000001,-3.3474999999999966,27.182500000000005,2025-01-29 11:49:02,0.0
-13189.25,-740.3,-26029.0,24.67500000000001,19.652500000000003,8.182500000000005,2025-01-29 11:49:02,0.0
-13237.25,-768.3,-26125.0,-47.32499999999999,9.652500000000003,-21.817499999999995,2025-01-29 11:49:02,0.0
-13245.25,-804.3,-26033.0,-83.32499999999999,35.6525,-9.817499999999995,2025-01-29 11:49:02,0.0
-13377.25,-712.3,-26193.0,-88.32499999999999,54.6525,17.182500000000005,2025-01-29 11:49:02,0.0
-13245.25,-836.3,-26001.0,-99.32499999999999,113.6525,-15.817499999999995,2025-01-29 11:49:02,0.0
-13209.25,-836.3,-26101.0,-56.32499999999999,71.6525,-17.817499999999995,2025-01-29 11:49:02,0.0
-13273.25,-736.3,-25993.0,-75.32499999999999,30.652500000000003,-45.817499999999995,2025-01-29 11:49:02,0.0
-13365.25,-788.3,-25873.0,-48.32499999999999,10.652500000000003,-22.817499999999995,2025-01-29 11:49:02,0.0
-13253.25,-744.3,-26109.0,-59.32499999999999,8.652500000000003,-8.817499999999995,2025-01-29 11:49:02,0.0
-13197.25,-860.3,-26117.0,-49.32499999999999,16.652500000000003,-20.817499999999995,2025-01-29 11:49:02,0.0
-13313.25,-752.3,-25941.0,-49.32499999999999,28.652500000000003,-26.817499999999995,2025-01-29 11:49:02,0.0
-13281.25,-860.3,-26253.0,-10.324999999999989,89.6525,-2.8174999999999955,2025-01-29 11:49:02,0.0
-13233.25,-852.3,-26125.0,-20.32499999999999,62.6525,-26.817499999999995,2025-01-29 11:49:02,0.0
-13197.25,-760.3,-26085.0,-36.32499999999999,65.6525,-2.8174999999999955,2025-01-29 11:49:02,0.0
-13225.25,-820.3,-26329.0,-9.324999999999989,36.6525,-44.817499999999995,2025-01-29 11:49:02,0.0
-13149.25,-752.3,-26237.0,-11.324999999999989,30.652500000000003,-40.817499999999995,2025-01-29 11:49:02,0.0
-13349.25,-828.3,-26221.0,-4.324999999999989,-22.347499999999997,-44.817499999999995,2025-01-29 11:49:02,0.0
-13313.25,-792.3,-26137.0,26.67500000000001,-11.347499999999997,-29.817499999999995,2025-01-29 11:49:03,0.0
-13213.25,-760.3,-26193.0,65.67500000000001,-17.347499999999997,-32.817499999999995,2025-01-29 11:49:03,0.0
-13181.25,-860.3,-26049.0,129.675,14.652500000000003,-50.817499999999995,2025-01-29 11:49:03,0.0
-13137.25,-928.3,-26245.0,136.675,-22.347499999999997,-132.8175,2025-01-29 11:49:03,0.0
-13273.25,-1032.3,-26081.0,281.675,-57.3475,-227.8175,2025-01-29 11:49:03,0.0
-13269.25,-1020.3,-26221.0,257.675,-209.3475,-362.8175,2025-01-29 11:49:03,0.0
-13429.25,-1020.3,-26005.0,206.675,-435.34749999999997,-421.8175,2025-01-29 11:49:03,0.0
-13297.25,-964.3,-26025.0,148.675,-552.3475,-419.8175,2025-01-29 11:49:03,0.0
-13313.25,-800.3,-25957.0,75.67500000000001,-495.34749999999997,-375.8175,2025-01-29 11:49:03,0.0
-13237.25,-1472.3,-25953.0,-1715.325,303.65250000000003,-476.8175,2025-01-29 11:49:03,0.0
-13445.25,-1560.3,-25789.0,-1636.325,206.6525,-441.8175,2025-01-29 11:49:03,0.0
-13657.25,-1540.3,-26029.0,-1435.325,-72.3475,-426.8175,2025-01-29 11:49:03,0.0
-13605.25,-1572.3,-25925.0,-1259.325,-297.34749999999997,-340.8175,2025-01-29 11:49:03,0.0
-13541.25,-1776.3,-25873.0,-866.325,-62.3475,-107.8175,2025-01-29 11:49:03,0.0
-12997.25,-1864.3,-26729.0,-262.325,779.6525,184.1825,2025-01-29 11:49:03,0.0
-12217.25,-1988.3,-26909.0,7.675000000000011,1647.6525,-2.8174999999999955,2025-01-29 11:49:03,0.0
-12701.25,-2380.3,-26393.0,52.67500000000001,1335.6525,69.1825,2025-01-29 11:49:03,0.0
-13313.25,-1816.3,-25809.0,347.675,1080.6525,466.1825,2025-01-29 11:49:03,0.0
-13665.25,-1164.3,-25609.0,285.675,1057.6525,638.1825,2025-01-29 11:49:03,0.0
-14085.25,-1156.3,-25897.0,-196.325,751.6525,658.1825,2025-01-29 11:49:03,0.0
-14433.25,-1284.3,-26529.0,-595.325,-824.3475,730.1825,2025-01-29 11:49:03,0.0
-14085.25,-1016.3,-26877.0,-662.325,-2034.3475,680.1825,2025-01-29 11:49:03,0.0
-13777.25,-548.3,-26741.0,-786.325,-2536.3475,725.1825,2025-01-29 11:49:03,0.0
-13245.25,-356.3,-26305.0,-1045.325,-2476.3475,825.1825,2025-01-29 11:49:03,0.0
-12761.25,-344.3,-25801.0,-1427.325,-1832.3475,937.1825,2025-01-29 11:49:03,0.0
-12449.25,-352.3,-25413.0,-1768.325,-869.3475,950.1825,2025-01-29 11:49:03,0.0
-12425.25,-352.3,-25289.0,-2146.325,399.65250000000003,792.1825,2025-01-29 11:49:03,0.0
-12877.25,-460.3,-25297.0,-2393.325,1193.6525,506.1825,2025-01-29 11:49:03,0.0
-13693.25,-656.3,-25317.0,-2385.325,1428.6525,361.1825,2025-01-29 11:49:03,0.0
-14149.25,-524.3,-25317.0,-2261.325,1342.6525,374.1825,2025-01-29 11:49:03,0.0
-13821.25,-380.3,-25517.0,-2353.325,590.6525,320.1825,2025-01-29 11:49:03,0.0
-12297.25,-36.30000000000001,-25949.0,-2507.325,-156.3475,-183.8175,2025-01-29 11:49:03,0.0
-11277.25,715.7,-26485.0,-2670.325,350.65250000000003,-444.8175,2025-01-29 11:49:03,
-10929.25,1859.7,-26261.0,-2810.325,1634.6525,-551.8175,2025-01-29 11:49:03,0.0
-10885.25,2255.7,-26093.0,-3233.325,3047.6525,-989.8175,2025-01-29 11:49:03,0.0
-11869.25,1503.7,-25889.0,-3655.325,3923.6525,-1621.8175,2025-01-29 11:49:03,0.0
-13733.25,-120.30000000000001,-25589.0,-3726.325,4236.6525,-1727.8175,2025-01-29 11:49:03,0.0
-15429.25,-888.3,-25077.0,-3280.325,4055.6525,-1335.8175,2025-01-29 11:49:03,0.0
-17057.25,-984.3,-23889.0,-2736.325,3818.6525,-643.8175,2025-01-29 11:49:03,0.0
-18153.25,-512.3,-23505.0,-2010.325,3034.6525,339.1825,2025-01-29 11:49:03,0.0
-14949.25,751.7,-23881.0,-691.325,-2459.3475,1713.1825,2025-01-29 11:49:03,0.0
-12837.25,1115.7,-23749.0,-103.32499999999999,-2419.3475,1996.1825,2025-01-29 11:49:03,0.0
-12021.25,1619.7,-23669.0,27.67500000000001,-1608.3475,1907.1825,2025-01-29 11:49:03,0.0
-11497.25,1779.7,-23293.0,182.675,-513.3475,1598.1825,2025-01-29 11:49:03,0.0
-12025.25,1583.7,-23313.0,478.675,432.65250000000003,1326.1825,2025-01-29 11:49:03,0.0
-13141.25,903.7,-23805.0,890.675,1169.6525,1333.1825,2025-01-29 11:49:03,0.0
-14009.25,287.7,-23417.0,1383.675,1214.6525,1483.1825,2025-01-29 11:49:03,0.0
-14825.25,-136.3,-23629.0,2036.675,357.65250000000003,1620.1825,2025-01-29 11:49:04,0.0
-15045.25,155.7,-24149.0,2649.675,-801.3475,1758.1825,2025-01-29 11:49:04,0.0
-14709.25,923.7,-24333.0,2956.675,-1508.3475,1911.1825,2025-01-29 11:49:04,0.0
-14545.25,1659.7,-24153.0,3095.675,-1501.3475,2143.1825,2025-01-29 11:49:04,0.0
-13833.25,1815.7,-23821.0,3273.675,-996.3475,2141.1825,2025-01-29 11:49:04,0.0
-13409.25,1539.7,-23441.0,3332.675,-110.3475,1768.1825,2025-01-29 11:49:04,0.0
-13585.25,1235.7,-23029.0,3410.675,1280.6525,1895.1825,2025-01-29 11:49:04,0.0
-14061.25,1043.7,-23041.0,3586.675,2515.6525,2347.1825,2025-01-29 11:49:04,0.0
-14713.25,879.7,-23609.0,3583.675,3102.6525,2790.1825,2025-01-29 11:49:04,0.0
-16745.25,-180.3,-24469.0,4664.675,2269.6525,3706.1825,2025-01-29 11:49:04,0.0
-17025.25,-672.3,-24477.0,5480.675,130.6525,4348.1825,2025-01-29 11:49:04,0.0
-16797.25,-408.3,-24441.0,5998.675,-2131.3475,5189.1825,2025-01-29 11:49:04,0.0
-14181.25,1475.7,-24921.0,6024.675,-4311.3475,5239.1825,2025-01-29 11:49:04,0.0
-11889.25,5415.7,-27549.0,5218.675,-4589.3475,4236.1825,2025-01-29 11:49:04,0.0
-11929.25,8127.7,-29977.0,3891.675,-959.3475,3022.1825,2025-01-29 11:49:04,0.0
-12481.25,7967.7,-32017.0,2111.675,2998.6525,1575.1825,2025-01-29 11:49:04,0.0
-12889.25,4723.7,-31905.0,653.675,3126.6525,-1309.8175,2025-01-29 11:49:04,0.0
-14997.25,2159.7,-29545.0,65.67500000000001,249.6525,-3178.8175,2025-01-29 11:49:04,0.0
-14637.25,215.7,-28321.0,138.675,-2220.3475,-3801.8175,2025-01-29 11:49:04,0.0
-13157.25,-1592.3,-27945.0,233.675,-3680.3475,-4433.8175,2025-01-29 11:49:04,0.0
-12317.25,-2696.3,-27333.0,603.675,-3458.3475,-4595.8175,2025-01-29 11:49:04,0.0
-12045.25,-3244.3,-26721.0,939.675,-1574.3475,-3736.8175,2025-01-29 11:49:04,0.0
-11589.25,-3120.3,-26689.0,868.675,282.65250000000003,-2592.8175,2025-01-29 11:49:04,0.0
-11517.25,-2644.3,-26769.0,905.675,1285.6525,-2111.8175,2025-01-29 11:49:04,0.0
-11605.25,-2144.3,-26861.0,932.675,1476.6525,-2225.8175,2025-01-29 11:49:04,0.0
-12365.25,-1792.3,-26937.0,912.675,1435.6525,-2516.8175,2025-01-29 11:49:04,0.0
-12837.25,-1068.3,-26573.0,823.675,1099.6525,-2772.8175,2025-01-29 11:49:04,0.0
-12785.25,-452.3,-26773.0,792.675,350.65250000000003,-2782.8175,2025-01-29 11:49:04,0.0
-12341.25,-220.3,-26761.0,512.675,-735.3475,-2556.8175,2025-01-29 11:49:04,0.0
-11853.25,-316.3,-26445.0,107.67500000000001,-1062.3475,-2473.8175,2025-01-29 11:49:04,0.0
-11497.25,-720.3,-26401.0,-87.32499999999999,-891.3475,-2427.8175,2025-01-29 11:49:04,0.0
-11373.25,-1248.3,-26049.0,-166.325,-447.34749999999997,-2475.8175,2025-01-29 11:49:04,0.0
-11377.25,-2048.3,-25893.0,-276.325,180.6525,-2584.8175,2025-01-29 11:49:04,0.0
-11653.25,-2420.3,-25965.0,-338.325,593.6525,-2622.8175,2025-01-29 11:49:04,0.0
-11921.25,-2772.3,-25889.0,-346.325,703.6525,-2572.8175,2025-01-29 11:49:04,0.0
-12249.25,-3020.3,-25649.0,-235.325,858.6525,-2425.8175,2025-01-29 11:49:04,0.0
-12513.25,-3272.3,-25857.0,147.675,618.6525,-2164.8175,2025-01-29 11:49:04,0.0
-12893.25,-3072.3,-26125.0,478.675,338.65250000000003,-1961.8175,2025-01-29 11:49:04,0.0
-13845.25,-2648.3,-25353.0,539.675,207.6525,-1541.8175,2025-01-29 11:49:04,0.0
-13353.25,-2448.3,-25605.0,597.675,-129.3475,-1370.8175,2025-01-29 11:49:04,0.0
-13461.25,-2236.3,-25285.0,599.675,-547.3475,-1345.8175,2025-01-29 11:49:04,0.0
-13461.25,-2192.3,-25353.0,491.675,-1058.3475,-1268.8175,2025-01-29 11:49:04,0.0
-13141.25,-2272.3,-25553.0,345.675,-1424.3475,-1096.8175,2025-01-29 11:49:04,0.0
-12929.25,-2304.3,-25701.0,171.675,-1294.3475,-867.8175,2025-01-29 11:49:04,0.0
-12365.25,-2196.3,-25245.0,-0.32499999999998863,-970.3475,-716.8175,2025-01-29 11:49:04,0.0
-12273.25,-2168.3,-25021.0,-235.325,-645.3475,-666.8175,2025-01-29 11:49:04,0.0
-12297.25,-2064.3,-24709.0,-552.325,-251.3475,-518.8175,2025-01-29 11:49:04,0.0
-12345.25,-1872.3,-24993.0,-1129.325,41.6525,-528.8175,2025-01-29 11:49:04,0.0
-12565.25,-2132.3,-24633.0,-1586.325,337.65250000000003,-640.8175,2025-01-29 11:49:04,0.0
-12825.25,-2736.3,-25213.0,-1695.325,553.6525,-703.8175,2025-01-29 11:49:04,0.0
-13077.25,-3316.3,-25597.0,-1941.325,958.6525,-667.8175,2025-01-29 11:49:04,0.0
-13617.25,-3288.3,-25453.0,-2218.325,1472.6525,-656.8175,2025-01-29 11:49:04,0.0
-14193.25,-2612.3,-25189.0,-2545.325,1480.6525,-684.8175,2025-01-29 11:49:04,0.0
-14689.25,-1548.3,-25293.0,-2657.325,1027.6525,-1018.8175,2025-01-29 11:49:04,0.0
-15541.25,-1196.3,-25733.0,-2854.325,592.6525,-1164.8175,2025-01-29 11:49:04,0.0
-14965.25,-2400.3,-25737.0,-3022.325,856.6525,-1752.8175,2025-01-29 11:49:04,0.0
-15237.25,-3336.3,-25273.0,-3044.325,764.6525,-2445.8175,2025-01-29 11:49:04,0.0
-15833.25,-3604.3,-24385.0,-2932.325,96.6525,-2610.8175,2025-01-29 11:49:04,0.0
-15845.25,-2680.3,-24169.0,-2912.325,-551.3475,-1866.8175,2025-01-29 11:49:04,0.0
-14801.25,-2144.3,-24493.0,-3447.325,-31.347499999999997,-1390.8175,2025-01-29 11:49:04,0.0
-13925.25,-2556.3,-26953.0,-3239.325,1263.6525,-2010.8175,2025-01-29 11:49:04,0.0
-14917.25,-3864.3,-27917.0,-3011.325,3078.6525,-2722.8175,2025-01-29 11:49:05,0.0
-16505.25,-5932.3,-27713.0,-1294.325,3768.6525,-3298.8175,2025-01-29 11:49:05,0.0
-18569.25,-7076.3,-27737.0,1004.675,1695.6525,-2510.8175,2025-01-29 11:49:05,0.0
-19197.25,-6508.3,-28229.0,3034.675,-3319.3475,989.1825,2025-01-29 11:49:05,0.0
-15721.25,-4992.3,-28589.0,3907.675,-5092.3475,2748.1825,2025-01-29 11:49:05,0.0
-12897.25,-3780.3,-29549.0,3754.675,-5277.3475,3071.1825,2025-01-29 11:49:05,0.0
-11397.25,-2168.3,-29549.0,3289.675,-4923.3475,3720.1825,2025-01-29 11:49:05,0.0
-10225.25,-376.3,-29665.0,2410.675,-4067.3475,4556.1825,2025-01-29 11:49:05,0.0
-9441.25,2023.7,-29117.0,749.675,-2273.3475,5397.1825,2025-01-29 11:49:05,0.0
-8681.25,3171.7,-28633.0,-269.325,-545.3475,5160.1825,2025-01-29 11:49:05,0.0
-8737.25,2179.7,-27865.0,-415.325,1572.6525,3467.1825,2025-01-29 11:49:05,0.0
-10757.25,91.69999999999999,-27173.0,-247.325,2713.6525,1735.1825,2025-01-29 11:49:05,0.0
-13241.25,-1112.3,-26145.0,78.67500000000001,2689.6525,1640.1825,2025-01-29 11:49:05,0.0
-14417.25,-1656.3,-26149.0,455.675,1643.6525,2247.1825,2025-01-29 11:49:05,0.0
-14241.25,-1576.3,-26193.0,584.675,-39.3475,2801.1825,2025-01-29 11:49:05,0.0
-14193.25,-1084.3,-27253.0,793.675,-1568.3475,3039.1825,2025-01-29 11:49:05,0.0
-13061.25,-284.3,-27129.0,787.675,-2371.3475,3289.1825,2025-01-29 11:49:05,0.0
-12301.25,199.7,-26713.0,913.675,-2574.3475,3572.1825,2025-01-29 11:49:05,0.0
-11301.25,263.7,-26045.0,1145.675,-2505.3475,3670.1825,2025-01-29 11:49:05,0.0
-10817.25,155.7,-25501.0,1397.675,-2156.3475,3560.1825,2025-01-29 11:49:05,0.0
-10593.25,35.69999999999999,-25329.0,1703.675,-817.3475,3466.1825,2025-01-29 11:49:05,0.0
-11389.25,183.7,-24969.0,1955.675,514.6525,3488.1825,2025-01-29 11:49:05,0.0
-12393.25,687.7,-25093.0,2141.675,1294.6525,3622.1825,2025-01-29 11:49:05,0.0
-12649.25,1111.7,-25621.0,2250.675,1208.6525,3620.1825,2025-01-29 11:49:05,0.0
-12873.25,1483.7,-25629.0,2140.675,675.6525,3374.1825,2025-01-29 11:49:05,
-12925.25,1575.7,-25529.0,1871.675,-85.3475,3053.1825,2025-01-29 11:49:05,0.0
-12493.25,1547.7,-25365.0,1690.675,-1010.3475,2709.1825,2025-01-29 11:49:05,0.0
-12117.25,1399.7,-25213.0,1698.675,-1401.3475,2251.1825,2025-01-29 11:49:05,0.0
-11337.25,999.7,-25425.0,1621.675,-809.3475,1889.1825,2025-01-29 11:49:05,0.0
-10981.25,487.7,-25045.0,1673.675,6.652500000000003,1388.1825,2025-01-29 11:49:05,0.0
-11469.25,51.69999999999999,-24665.0,1982.675,579.6525,1029.1825,2025-01-29 11:49:05,0.0
-11793.25,-72.30000000000001,-24125.0,2132.675,769.6525,816.1825,2025-01-29 11:49:05,0.0
-11965.25,51.69999999999999,-24401.0,2201.675,850.6525,624.1825,2025-01-29 11:49:05,0.0
-12473.25,871.7,-24813.0,2036.675,611.6525,300.1825,2025-01-29 11:49:05,0.0
-13309.25,1415.7,-25029.0,1687.675,281.65250000000003,-10.817499999999995,2025-01-29 11:49:05,0.0
-13965.25,2339.7,-24529.0,1425.675,303.65250000000003,-230.8175,2025-01-29 11:49:05,0.0
-13941.25,2775.7,-24981.0,1019.675,49.6525,-955.8175,2025-01-29 11:49:05,0.0
-13773.25,1987.7,-24929.0,833.675,-1009.3475,-1664.8175,2025-01-29 11:49:05,0.0
-13385.25,1107.7,-24829.0,679.675,-1541.3475,-1851.8175,2025-01-29 11:49:05,0.0
-13013.25,707.7,-24997.0,692.675,-774.3475,-1742.8175,2025-01-29 11:49:05,0.0
-13113.25,139.7,-24965.0,555.675,468.65250000000003,-1500.8175,2025-01-29 11:49:05,0.0
-13761.25,-188.3,-24757.0,381.675,871.6525,-913.8175,2025-01-29 11:49:05,0.0
-14165.25,27.69999999999999,-25481.0,578.675,408.65250000000003,-123.8175,2025-01-29 11:49:05,0.0
-14609.25,-488.3,-25553.0,907.675,594.6525,383.1825,2025-01-29 11:49:05,0.0
-16169.25,-1552.3,-23809.0,1492.675,1499.6525,907.1825,2025-01-29 11:49:05,0.0
-17077.25,-1988.3,-22673.0,2527.675,2001.6525,1529.1825,2025-01-29 11:49:05,0.0
-18225.25,-1208.3,-23041.0,3407.675,693.6525,2489.1825,2025-01-29 11:49:05,0.0
-18237.25,-728.3,-26537.0,3040.675,286.65250000000003,3555.1825,2025-01-29 11:49:05,0.0
-18253.25,-64.30000000000001,-28813.0,2929.675,1545.6525,4598.1825,2025-01-29 11:49:05,0.0
-19061.25,1631.7,-30093.0,1953.675,2959.6525,6280.1825,2025-01-29 11:49:05,0.0
-17665.25,2207.7,-30429.0,918.675,2814.6525,6852.1825,2025-01-29 11:49:05,0.0
-15537.25,2119.7,-30669.0,109.67500000000001,1315.6525,5602.1825,2025-01-29 11:49:05,0.0
-13521.25,1971.7,-30113.0,-78.32499999999999,-1589.3475,2145.1825,2025-01-29 11:49:05,0.0
-12669.25,1327.7,-28681.0,-77.32499999999999,-3553.3475,99.1825,2025-01-29 11:49:05,0.0
-10817.25,827.7,-26385.0,571.675,-5263.3475,-814.8175,2025-01-29 11:49:05,0.0
-9217.25,587.7,-25617.0,1196.675,-5536.3475,-1113.8175,2025-01-29 11:49:05,0.0
-7897.25,135.7,-25485.0,1467.675,-4402.3475,-1457.8175,2025-01-29 11:49:05,0.0
-7313.25,-632.3,-26029.0,1220.675,-1773.3475,-1975.8175,2025-01-29 11:49:05,0.0
-8205.25,-672.3,-27197.0,535.675,2119.6525,-2561.8175,2025-01-29 11:49:05,0.0
-10273.25,-612.3,-28285.0,-32.32499999999999,5642.6525,-2700.8175,2025-01-29 11:49:05,0.0
-12409.25,-1088.3,-28573.0,-360.325,6865.6525,-2609.8175,2025-01-29 11:49:06,0.0
-14173.25,-1892.3,-27413.0,-350.325,5647.6525,-2583.8175,2025-01-29 11:49:06,0.0
-15385.25,-2292.3,-26993.0,138.675,2827.6525,-2405.8175,2025-01-29 11:49:06,0.0
-15317.25,-1756.3,-27733.0,386.675,-300.34749999999997,-1957.8175,2025-01-29 11:49:06,0.0
-14441.25,-1052.3,-27981.0,199.675,-2223.3475,-1687.8175,2025-01-29 11:49:06,0.0
-12817.25,-704.3,-27337.0,61.67500000000001,-3213.3475,-2094.8175,2025-01-29 11:49:06,0.0
-11793.25,-768.3,-26677.0,89.67500000000001,-3412.3475,-3003.8175,2025-01-29 11:49:06,0.0
-11125.25,-640.3,-26525.0,140.675,-3343.3475,-3871.8175,2025-01-29 11:49:06,0.0
-10981.25,-600.3,-26225.0,180.675,-3227.3475,-4340.8175,2025-01-29 11:49:06,0.0
-11389.25,-1080.3,-26169.0,81.67500000000001,-2334.3475,-4294.8175,2025-01-29 11:49:06,0.0
-11709.25,-1976.3,-25569.0,-121.32499999999999,-1325.3475,-4016.8175,2025-01-29 11:49:06,0.0
-11933.25,-2892.3,-24861.0,61.67500000000001,-1024.3475,-3822.8175,2025-01-29 11:49:06,0.0
-12317.25,-3364.3,-24241.0,753.675,-773.3475,-3489.8175,2025-01-29 11:49:06,0.0
-12773.25,-3524.3,-24041.0,1342.675,-506.34749999999997,-3140.8175,2025-01-29 11:49:06,0.0
-12789.25,-3568.3,-24497.0,1511.675,-90.3475,-2860.8175,2025-01-29 11:49:06,0.0
-12621.25,-2928.3,-24837.0,1525.675,-527.3475,-2643.8175,2025-01-29 11:49:06,0.0
-12965.25,-2392.3,-25645.0,1291.675,-694.3475,-2155.8175,2025-01-29 11:49:06,0.0
-12565.25,-1900.3,-25789.0,632.675,-499.34749999999997,-1619.8175,2025-01-29 11:49:06,0.0
-12517.25,-856.3,-24573.0,-1621.325,717.6525,-595.8175,2025-01-29 11:49:06,0.0
-12961.25,-1012.3,-24429.0,-2481.325,643.6525,-499.8175,2025-01-29 11:49:06,0.0
-13833.25,-1596.3,-24009.0,-3461.325,321.65250000000003,-492.8175,2025-01-29 11:49:06,0.0
-13957.25,-1876.3,-24109.0,-3916.325,-402.34749999999997,-595.8175,2025-01-29 11:49:06,0.0
-14525.25,-2016.3,-24753.0,-4188.325,-1430.3475,-688.8175,2025-01-29 11:49:06,0.0
-14301.25,-1720.3,-25085.0,-4352.325,-2617.3475,-736.8175,2025-01-29 11:49:06,0.0
-13661.25,-1436.3,-24613.0,-4286.325,-3401.3475,-883.8175,2025-01-29 11:49:06,0.0
-12929.25,-1920.3,-23785.0,-3977.325,-3405.3475,-917.8175,2025-01-29 11:49:06,0.0
-12249.25,-3268.3,-23437.0,-3328.325,-1712.3475,-1360.8175,2025-01-29 11:49:06,0.0
-11845.25,-4824.3,-23017.0,-2814.325,371.65250000000003,-2662.8175,2025-01-29 11:49:06,0.0
-13769.25,-5216.3,-23065.0,-2246.325,1878.6525,-4493.8175,2025-01-29 11:49:06,0.0
-16789.25,-3360.3,-22953.0,-1978.325,1374.6525,-4439.8175,2025-01-29 11:49:06,0.0
-18161.25,-1708.3,-24621.0,-2375.325,566.6525,-4087.8175,2025-01-29 11:49:06,0.0
-18005.25,-2792.3,-27953.0,-2799.325,320.65250000000003,-4657.8175,2025-01-29 11:49:06,0.0
-17989.25,-5528.3,-27561.0,-2099.325,360.65250000000003,-5111.8175,2025-01-29 11:49:06,0.0
-18809.25,-7772.3,-27293.0,-471.325,-1304.3475,-4675.8175,2025-01-29 11:49:06,0.0
-19217.25,-8120.3,-28257.0,1313.675,-3135.3475,-2393.8175,2025-01-29 11:49:06,0.0
-17969.25,-4916.3,-29617.0,1638.675,-3569.3475,547.1825,2025-01-29 11:49:06,0.0
-15149.25,-1940.3,-30961.0,1244.675,-3724.3475,1497.1825,2025-01-29 11:49:06,0.0
-13785.25,-24.30000000000001,-30741.0,-49.32499999999999,-4523.3475,2419.1825,2025-01-29 11:49:06,0.0
-12129.25,1055.7,-29485.0,-1148.325,-5124.3475,3373.1825,2025-01-29 11:49:06,0.0
-9125.25,1431.7,-28645.0,-2153.325,-5066.3475,3386.1825,2025-01-29 11:49:06,0.0
-7677.25,955.7,-27509.0,-2896.325,-3258.3475,2238.1825,2025-01-29 11:49:06,0.0
-7885.25,599.7,-26357.0,-2927.325,339.65250000000003,746.1825,2025-01-29 11:49:06,0.0
-10001.25,79.69999999999999,-26189.0,-2520.325,3784.6525,6.1825000000000045,2025-01-29 11:49:06,0.0
-13081.25,-236.3,-25897.0,-2189.325,5591.6525,559.1825,2025-01-29 11:49:06,0.0
-14905.25,-652.3,-26561.0,-1927.325,5830.6525,1307.1825,2025-01-29 11:49:06,0.0
-15653.25,-1028.3,-26969.0,-1867.325,4577.6525,1852.1825,2025-01-29 11:49:06,0.0
-15821.25,-1400.3,-26601.0,-1700.325,1911.6525,2440.1825,2025-01-29 11:49:06,0.0
-14889.25,-1952.3,-25893.0,-1041.325,-1088.3475,2664.1825,2025-01-29 11:49:06,0.0
-13869.25,-2100.3,-25489.0,-529.325,-2312.3475,2710.1825,2025-01-29 11:49:06,0.0
-12957.25,-1828.3,-25241.0,-119.32499999999999,-2795.3475,2920.1825,2025-01-29 11:49:06,0.0
-11833.25,-740.3,-24841.0,328.675,-2265.3475,3402.1825,2025-01-29 11:49:06,0.0
-10897.25,-4.300000000000011,-24693.0,500.675,-1380.3475,3367.1825,2025-01-29 11:49:06,0.0
-11509.25,555.7,-24137.0,502.675,-195.3475,3337.1825,2025-01-29 11:49:06,0.0
-11397.25,675.7,-24645.0,443.675,869.6525,3313.1825,2025-01-29 11:49:06,0.0
-11877.25,551.7,-24781.0,439.675,1444.6525,3035.1825,2025-01-29 11:49:06,0.0
-12345.25,127.69999999999999,-24337.0,600.675,1415.6525,2567.1825,2025-01-29 11:49:06,0.0
-12993.25,-188.3,-24217.0,877.675,1064.6525,2142.1825,2025-01-29 11:49:06,0.0
-13449.25,-180.3,-24045.0,1113.675,467.65250000000003,1925.1825,2025-01-29 11:49:06,0.0
-13337.25,-176.3,-24405.0,1315.675,-281.34749999999997,1409.1825,2025-01-29 11:49:06,0.0
-13325.25,75.69999999999999,-24465.0,1392.675,-821.3475,986.1825,2025-01-29 11:49:06,0.0
-13429.25,-8.300000000000011,-24229.0,1527.675,-919.3475,637.1825,2025-01-29 11:49:06,0.0
-13397.25,-120.30000000000001,-23921.0,1543.675,-828.3475,481.1825,2025-01-29 11:49:07,0.0
-13721.25,303.7,-23841.0,1571.675,-825.3475,413.1825,2025-01-29 11:49:07,0.0
-14393.25,499.7,-23917.0,1603.675,-851.3475,525.1825,2025-01-29 11:49:07,0.0
-14589.25,167.7,-23345.0,1711.675,-1019.3475,704.1825,2025-01-29 11:49:07,
-14593.25,-176.3,-23065.0,1896.675,-1417.3475,750.1825,2025-01-29 11:49:07,0.0
-13921.25,-392.3,-23329.0,2110.675,-2032.3475,599.1825,2025-01-29 11:49:07,0.0
-13733.25,-384.3,-23401.0,2286.675,-2487.3475,212.1825,2025-01-29 11:49:07,0.0
-14041.25,207.7,-23497.0,2435.675,-2997.3475,71.1825,2025-01-29 11:49:07,0.0
-14201.25,551.7,-23137.0,2664.675,-2989.3475,274.1825,2025-01-29 11:49:07,0.0
-14309.25,727.7,-23641.0,2893.675,-2476.3475,409.1825,2025-01-29 11:49:07,0.0
-14761.25,83.69999999999999,-24049.0,2952.675,-1519.3475,763.1825,2025-01-29 11:49:07,0.0
-14805.25,11.699999999999989,-23637.0,2975.675,-547.3475,1566.1825,2025-01-29 11:49:07,0.0
-14637.25,491.7,-23585.0,3088.675,-27.347499999999997,2274.1825,2025-01-29 11:49:07,0.0
-14793.25,287.7,-23001.0,3236.675,421.65250000000003,2805.1825,2025-01-29 11:49:07,0.0
-15205.25,-640.3,-22105.0,3619.675,875.6525,3232.1825,2025-01-29 11:49:07,0.0
-15585.25,-1120.3,-21969.0,4178.675,1068.6525,3569.1825,2025-01-29 11:49:07,0.0
-15829.25,-1004.3,-24029.0,4772.675,2451.6525,3853.1825,2025-01-29 11:49:07,0.0
-16625.25,503.7,-26897.0,4890.675,4685.6525,4141.1825,2025-01-29 11:49:07,0.0
-17701.25,2711.7,-29117.0,3742.675,5882.6525,4672.1825,2025-01-29 11:49:07,0.0
-18217.25,4163.7,-29109.0,2008.675,5155.6525,5133.1825,2025-01-29 11:49:07,0.0
-17333.25,4507.7,-29145.0,373.675,2792.6525,4535.1825,2025-01-29 11:49:07,0.0
-16245.25,4027.7,-29189.0,-915.325,-345.34749999999997,2783.1825,2025-01-29 11:49:07,0.0
-15397.25,2903.7,-28265.0,-1518.325,-2551.3475,933.1825,2025-01-29 11:49:07,0.0
-13893.25,543.7,-27081.0,-1073.325,-3178.3475,-217.8175,2025-01-29 11:49:07,0.0
-11949.25,-716.3,-25637.0,273.675,-4240.3475,-1596.8175,2025-01-29 11:49:07,0.0
-11073.25,-1224.3,-25181.0,878.675,-4410.3475,-2380.8175,2025-01-29 11:49:07,0.0
-10269.25,-1724.3,-25053.0,1231.675,-3831.3475,-2768.8175,2025-01-29 11:49:07,0.0
-10293.25,-1676.3,-25293.0,1207.675,-2256.3475,-2562.8175,2025-01-29 11:49:07,0.0
-10181.25,-1156.3,-25973.0,781.675,-205.3475,-1676.8175,2025-01-29 11:49:07,0.0
-9953.25,-1100.3,-26201.0,85.67500000000001,2136.6525,-839.8175,2025-01-29 11:49:07,0.0
-10737.25,-1652.3,-25989.0,-322.325,3993.6525,-542.8175,2025-01-29 11:49:07,0.0
-12293.25,-2292.3,-25709.0,-408.325,4043.6525,-320.8175,2025-01-29 11:49:07,0.0
-13617.25,-2808.3,-25405.0,114.67500000000001,2804.6525,-120.8175,2025-01-29 11:49:07,0.0
-13897.25,-1172.3,-26477.0,1905.675,-628.3475,-803.8175,2025-01-29 11:49:07,0.0
-13257.25,-552.3,-26285.0,1968.675,-513.3475,-1728.8175,2025-01-29 11:49:07,0.0
-12993.25,-100.30000000000001,-26673.0,1678.675,-780.3475,-2460.8175,2025-01-29 11:49:07,0.0
-12957.25,103.69999999999999,-26549.0,1077.675,-1085.3475,-2605.8175,2025-01-29 11:49:07,0.0
-11909.25,303.7,-26317.0,383.675,-896.3475,-2661.8175,2025-01-29 11:49:07,0.0
-11517.25,-44.30000000000001,-25669.0,-463.325,-158.3475,-2847.8175,2025-01-29 11:49:07,0.0
-11361.25,-932.3,-24613.0,-850.325,952.6525,-3258.8175,2025-01-29 11:49:07,0.0
-11957.25,-2080.3,-24025.0,-845.325,2103.6525,-3541.8175,2025-01-29 11:49:07,0.0
-12881.25,-3144.3,-23637.0,-526.325,2859.6525,-3445.8175,2025-01-29 11:49:07,0.0
-13497.25,-3948.3,-23557.0,-101.32499999999999,2960.6525,-3164.8175,2025-01-29 11:49:07,0.0
-13873.25,-4408.3,-23745.0,174.675,2639.6525,-2787.8175,2025-01-29 11:49:07,0.0
-14213.25,-4348.3,-24161.0,516.675,1891.6525,-2013.8175,2025-01-29 11:49:07,0.0
-13893.25,-3540.3,-24673.0,693.675,1287.6525,-1192.8175,2025-01-29 11:49:07,0.0
-13445.25,-2180.3,-24529.0,535.675,1098.6525,-708.8175,2025-01-29 11:49:07,0.0
-13489.25,-1236.3,-24357.0,36.67500000000001,1131.6525,-279.8175,2025-01-29 11:49:07,0.0
-13513.25,-808.3,-24409.0,-522.325,1184.6525,210.1825,2025-01-29 11:49:07,0.0
-13465.25,-1364.3,-24341.0,-1043.325,1227.6525,548.1825,2025-01-29 11:49:07,0.0
-13489.25,-2332.3,-24077.0,-1279.325,1259.6525,913.1825,2025-01-29 11:49:07,0.0
-13757.25,-2652.3,-23785.0,-1316.325,1264.6525,1017.1825,2025-01-29 11:49:07,0.0
-14285.25,-2380.3,-24645.0,-1290.325,1259.6525,918.1825,2025-01-29 11:49:07,0.0
-14397.25,-2192.3,-25301.0,-1254.325,855.6525,551.1825,2025-01-29 11:49:07,0.0
-14613.25,-1680.3,-25069.0,-1161.325,175.6525,-82.8175,2025-01-29 11:49:07,0.0
-14821.25,-1436.3,-24841.0,-1268.325,-214.3475,-307.8175,2025-01-29 11:49:07,0.0
-14601.25,-1348.3,-25129.0,-1673.325,-453.34749999999997,-622.8175,2025-01-29 11:49:07,0.0
-14445.25,-1196.3,-25257.0,-2455.325,-945.3475,-861.8175,2025-01-29 11:49:07,0.0
-14149.25,-1108.3,-24905.0,-3059.325,-1358.3475,-1241.8175,2025-01-29 11:49:08,0.0
-13433.25,-660.3,-25873.0,-3324.325,-1114.3475,-2270.8175,2025-01-29 11:49:08,0.0
-13741.25,-1068.3,-26973.0,-3454.325,-434.34749999999997,-3169.8175,2025-01-29 11:49:08,0.0
-14153.25,-2928.3,-26249.0,-3066.325,525.6525,-3580.8175,2025-01-29 11:49:08,0.0
-14985.25,-4928.3,-26669.0,-2256.325,1192.6525,-3576.8175,2025-01-29 11:49:08,0.0
-16397.25,-6276.3,-27513.0,-1334.325,1515.6525,-2392.8175,2025-01-29 11:49:08,0.0
-17029.25,-6648.3,-29045.0,6.675000000000011,621.6525,-158.8175,2025-01-29 11:49:08,0.0
-16073.25,-5572.3,-28885.0,1558.675,-842.3475,1148.1825,2025-01-29 11:49:08,0.0
-14801.25,-4056.3,-28273.0,2239.675,-2478.3475,1209.1825,2025-01-29 11:49:08,0.0
-13429.25,-2300.3,-27761.0,2317.675,-4237.3475,1151.1825,2025-01-29 11:49:08,0.0
-12313.25,-740.3,-26845.0,1916.675,-4277.3475,1542.1825,2025-01-29 11:49:08,0.0
-10705.25,1335.7,-26773.0,924.675,-3074.3475,1997.1825,2025-01-29 11:49:08,0.0
-9445.25,2871.7,-26873.0,-23.32499999999999,-1323.3475,1932.1825,2025-01-29 11:49:08,0.0
-9349.25,3315.7,-25957.0,-465.325,811.6525,1275.1825,2025-01-29 11:49:08,0.0
-10929.25,1935.7,-25977.0,-579.325,2865.6525,429.1825,2025-01-29 11:49:08,0.0
-12665.25,347.7,-26593.0,-696.325,4252.6525,476.1825,2025-01-29 11:49:08,0.0
-14265.25,-816.3,-26929.0,-655.325,4701.6525,752.1825,2025-01-29 11:49:08,0.0
-15577.25,-1156.3,-27361.0,-863.325,3034.6525,1136.1825,2025-01-29 11:49:08,0.0
-15821.25,-864.3,-27365.0,-1009.325,-242.3475,1692.1825,2025-01-29 11:49:08,0.0
-15017.25,-556.3,-26833.0,-956.325,-2390.3475,1977.1825,2025-01-29 11:49:08,0.0
-13825.25,-236.3,-26257.0,-768.325,-3463.3475,2174.1825,2025-01-29 11:49:08,0.0
-12581.25,-124.30000000000001,-25753.0,-577.325,-3376.3475,2376.1825,2025-01-29 11:49:08,0.0
-11241.25,-392.3,-25165.0,-389.325,-2584.3475,2337.1825,2025-01-29 11:49:08,0.0
-10653.25,-720.3,-24537.0,-166.325,-1220.3475,2175.1825,2025-01-29 11:49:08,0.0
-10657.25,-832.3,-23945.0,311.675,573.6525,2025.1825,2025-01-29 11:49:08,0.0
-11113.25,-420.3,-24133.0,755.675,1799.6525,1894.1825,2025-01-29 11:49:08,0.0
-12073.25,31.69999999999999,-24473.0,1057.675,2536.6525,1813.1825,2025-01-29 11:49:08,0.0
-12757.25,679.7,-24785.0,1318.675,2320.6525,1459.1825,2025-01-29 11:49:08,0.0
-13253.25,947.7,-24849.0,1458.675,1599.6525,982.1825,2025-01-29 11:49:08,0.0
-13569.25,859.7,-25013.0,1562.675,935.6525,521.1825,2025-01-29 11:49:08,0.0
-13749.25,531.7,-24781.0,1682.675,503.65250000000003,212.1825,2025-01-29 11:49:08,0.0
-13293.25,-24.30000000000001,-24977.0,1702.675,227.6525,-129.8175,2025-01-29 11:49:08,0.0
-13425.25,-468.3,-24897.0,1675.675,444.65250000000003,-247.8175,2025-01-29 11:49:08,0.0
-13517.25,-664.3,-25189.0,1614.675,959.6525,-112.8175,2025-01-29 11:49:08,0.0
-13925.25,-704.3,-25209.0,1545.675,1467.6525,97.1825,2025-01-29 11:49:08,0.0
-14453.25,-744.3,-24965.0,1458.675,1633.6525,306.1825,2025-01-29 11:49:08,0.0
-15213.25,-644.3,-24417.0,1509.675,1317.6525,549.1825,2025-01-29 11:49:08,0.0
-15357.25,-460.3,-23797.0,1634.675,601.6525,640.1825,2025-01-29 11:49:08,0.0
-15033.25,-440.3,-23989.0,1842.675,-593.3475,606.1825,2025-01-29 11:49:08,0.0
-14657.25,-648.3,-23557.0,2003.675,-1576.3475,410.1825,2025-01-29 11:49:08,0.0
-13857.25,-724.3,-22669.0,2433.675,-2093.3475,335.1825,2025-01-29 11:49:08,0.0
-13253.25,-844.3,-22261.0,2804.675,-2045.3475,231.1825,2025-01-29 11:49:08,0.0
-13025.25,-928.3,-22773.0,3133.675,-1259.3475,240.1825,2025-01-29 11:49:08,0.0
-13585.25,-776.3,-23337.0,3509.675,225.6525,613.1825,2025-01-29 11:49:08,0.0
-14249.25,-580.3,-25237.0,3466.675,1225.6525,874.1825,2025-01-29 11:49:08,0.0
-15125.25,19.69999999999999,-27813.0,2855.675,1815.6525,1308.1825,2025-01-29 11:49:08,
-15837.25,559.7,-30885.0,2014.675,2042.6525,2188.1825,2025-01-29 11:49:08,0.0
-15737.25,1099.7,-33381.0,625.675,1696.6525,3182.1825,2025-01-29 11:49:08,0.0
-15593.25,1639.7,-31865.0,-1075.325,-27.347499999999997,4031.1825,2025-01-29 11:49:08,0.0
-13393.25,1439.7,-27717.0,-1431.325,-2405.3475,3971.1825,2025-01-29 11:49:08,0.0
-9685.25,759.7,-26065.0,-513.325,-4114.3475,1207.1825,2025-01-29 11:49:08,0.0
-9397.25,-52.30000000000001,-27033.0,474.675,-1690.3475,-1362.8175,2025-01-29 11:49:08,0.0
-10593.25,-936.3,-27613.0,1342.675,1697.6525,-1960.8175,2025-01-29 11:49:08,0.0
-11205.25,-1264.3,-28413.0,1348.675,3654.6525,-2053.8175,2025-01-29 11:49:08,0.0
-12149.25,-428.3,-28233.0,313.675,3857.6525,-2078.8175,2025-01-29 11:49:08,0.0
-12433.25,1371.7,-27941.0,-1560.325,3308.6525,-2609.8175,2025-01-29 11:49:08,0.0
-12477.25,2339.7,-28081.0,-3472.325,3259.6525,-3952.8175,2025-01-29 11:49:08,0.0
-12917.25,1567.7,-28185.0,-4646.325,2863.6525,-5384.8175,2025-01-29 11:49:08,0.0
-13457.25,-328.3,-28173.0,-5189.325,2168.6525,-6462.8175,2025-01-29 11:49:08,0.0
-13669.25,-2188.3,-28029.0,-5464.325,1117.6525,-7308.8175,2025-01-29 11:49:08,0.0
-13873.25,-3516.3,-27725.0,-5670.325,-467.34749999999997,-7651.8175,2025-01-29 11:49:08,0.0
-13837.25,-3852.3,-27033.0,-5787.325,-1980.3475,-7377.8175,2025-01-29 11:49:08,0.0
-12485.25,-3420.3,-26841.0,-5758.325,-2162.3475,-6750.8175,2025-01-29 11:49:09,0.0
-11405.25,-2804.3,-26873.0,-5908.325,-1336.3475,-6415.8175,2025-01-29 11:49:09,0.0
-10561.25,-2336.3,-26625.0,-6149.325,-265.34749999999997,-6155.8175,2025-01-29 11:49:09,0.0
-10225.25,-1900.3,-27129.0,-6461.325,798.6525,-6147.8175,2025-01-29 11:49:09,0.0
-10793.25,-1568.3,-27221.0,-6939.325,1779.6525,-6239.8175,2025-01-29 11:49:09,0.0
-11721.25,-1408.3,-27429.0,-7437.325,2405.6525,-6415.8175,2025-01-29 11:49:09,0.0
-12521.25,-1536.3,-27713.0,-7860.325,2261.6525,-6466.8175,2025-01-29 11:49:09,0.0
-13009.25,-1848.3,-27541.0,-8373.325,1603.6525,-6633.8175,2025-01-29 11:49:09,0.0
-13321.25,-2168.3,-27125.0,-8893.325,479.65250000000003,-6926.8175,2025-01-29 11:49:09,0.0
-13221.25,-2548.3,-27069.0,-9266.325,-794.3475,-7051.8175,2025-01-29 11:49:09,0.0
-12433.25,-2588.3,-27577.0,-9618.325,-1378.3475,-7324.8175,2025-01-29 11:49:09,0.0
-11893.25,-2460.3,-27133.0,-10050.325,-1299.3475,-7446.8175,2025-01-29 11:49:09,0.0
-11597.25,-2488.3,-27001.0,-10353.325,-844.3475,-7394.8175,2025-01-29 11:49:09,0.0
-11357.25,-2576.3,-27065.0,-10462.325,-17.347499999999997,-7501.8175,2025-01-29 11:49:09,0.0
-11873.25,-2660.3,-27229.0,-10643.325,889.6525,-7736.8175,2025-01-29 11:49:09,0.0
-12117.25,-2708.3,-27521.0,-11075.325,921.6525,-8031.8175,2025-01-29 11:49:09,0.0
-12765.25,-2728.3,-27613.0,-11413.325,11.652500000000003,-8035.8175,2025-01-29 11:49:09,0.0
-12781.25,-2552.3,-27705.0,-11668.325,-1039.3475,-7873.8175,2025-01-29 11:49:09,0.0
-11957.25,-2592.3,-27649.0,-12163.325,-1974.3475,-7787.8175,2025-01-29 11:49:09,0.0
-11245.25,-2700.3,-27433.0,-12818.325,-2226.3475,-7957.8175,2025-01-29 11:49:09,0.0
-10753.25,-2500.3,-27105.0,-13705.325,-1854.3475,-8398.8175,2025-01-29 11:49:09,0.0
-10689.25,-2456.3,-27181.0,-14675.325,-1296.3475,-8913.8175,2025-01-29 11:49:09,0.0
-10961.25,-2652.3,-26897.0,-15413.325,-846.3475,-9476.8175,2025-01-29 11:49:09,0.0
-11285.25,-2616.3,-26709.0,-16125.325,-757.3475,-9956.8175,2025-01-29 11:49:09,0.0
-11545.25,-2860.3,-27057.0,-16977.325,-990.3475,-10319.8175,2025-01-29 11:49:09,0.0
-11729.25,-3492.3,-27133.0,-17748.325,-1404.3475,-10566.8175,2025-01-29 11:49:09,0.0
-12281.25,-3912.3,-27349.0,-18159.325,-1854.3475,-10503.8175,2025-01-29 11:49:09,0.0
-12569.25,-4456.3,-27097.0,-18649.325,-2170.3475,-10013.8175,2025-01-29 11:49:09,0.0
-12165.25,-4944.3,-27233.0,-19041.325,-2296.3475,-9552.8175,2025-01-29 11:49:09,0.0
-11793.25,-5180.3,-27609.0,-19297.325,-2185.3475,-9286.8175,2025-01-29 11:49:09,0.0
-11681.25,-4836.3,-28525.0,-19459.325,-2039.3475,-9051.8175,2025-01-29 11:49:09,0.0
-11633.25,-4808.3,-29493.0,-19598.325,-1659.3475,-8959.8175,2025-01-29 11:49:09,0.0
-12053.25,-4864.3,-29577.0,-19159.325,-1312.3475,-9146.8175,2025-01-29 11:49:09,0.0
-12029.25,-5128.3,-30417.0,-18522.325,-1347.3475,-9473.8175,2025-01-29 11:49:09,0.0
-11661.25,-5260.3,-31917.0,-17737.325,-1490.3475,-9898.8175,2025-01-29 11:49:09,0.0
-11517.25,-3636.3,-32173.0,-16586.325,-2110.3475,-9815.8175,2025-01-29 11:49:09,0.0
-10225.25,-1652.3,-31629.0,-15195.325,-1599.3475,-10311.8175,2025-01-29 11:49:09,0.0
-9665.25,1235.7,-29165.0,-15032.325,-518.3475,-11553.8175,2025-01-29 11:49:09,0.0
-11189.25,2627.7,-26169.0,-16062.325,838.6525,-11616.8175,2025-01-29 11:49:09,0.0
-11793.25,2107.7,-25445.0,-17699.325,2662.6525,-10656.8175,2025-01-29 11:49:09,0.0
-11789.25,1515.7,-26041.0,-18653.325,3736.6525,-9565.8175,2025-01-29 11:49:09,0.0
-13017.25,863.7,-28553.0,-18958.325,4932.6525,-8408.8175,2025-01-29 11:49:09,0.0
-13877.25,-272.3,-30033.0,-19235.325,6280.6525,-7504.8175,2025-01-29 11:49:09,0.0
-14301.25,-472.3,-28845.0,-19332.325,5612.6525,-8123.8175,2025-01-29 11:49:09,0.0
-15157.25,-60.30000000000001,-27001.0,-18841.325,3254.6525,-9069.8175,2025-01-29 11:49:09,0.0
-15293.25,-92.30000000000001,-25193.0,-17186.325,563.6525,-9263.8175,2025-01-29 11:49:09,0.0
-14025.25,-596.3,-24393.0,-15330.325,-1464.3475,-9162.8175,2025-01-29 11:49:09,0.0
-12781.25,-1684.3,-24577.0,-14011.325,-2131.3475,-8975.8175,2025-01-29 11:49:09,0.0
-11577.25,-2208.3,-24285.0,-12830.325,-1007.3475,-8600.8175,2025-01-29 11:49:09,0.0
-11341.25,-2964.3,-24329.0,-11556.325,1704.6525,-7873.8175,2025-01-29 11:49:09,0.0
-11409.25,-2752.3,-24281.0,-10386.325,3844.6525,-7182.8175,2025-01-29 11:49:09,0.0
-12141.25,-1808.3,-25213.0,-9109.325,4855.6525,-6581.8175,2025-01-29 11:49:09,0.0
-12757.25,-908.3,-26353.0,-8330.325,4869.6525,-6239.8175,2025-01-29 11:49:09,0.0
-12785.25,3.6999999999999886,-26917.0,-7759.325,4021.6525,-6217.8175,2025-01-29 11:49:09,0.0
-12673.25,771.7,-27049.0,-7368.325,3034.6525,-6259.8175,2025-01-29 11:49:09,0.0
-11957.25,1575.7,-27329.0,-7510.325,2462.6525,-6208.8175,2025-01-29 11:49:09,0.0
-11109.25,1959.7,-27529.0,-7717.325,2458.6525,-6569.8175,2025-01-29 11:49:09,0.0
-11169.25,2663.7,-28417.0,-7936.325,2844.6525,-6881.8175,2025-01-29 11:49:09,0.0
-11205.25,3623.7,-28665.0,-8388.325,3294.6525,-7073.8175,2025-01-29 11:49:09,0.0
-11453.25,3807.7,-28677.0,-9003.325,2780.6525,-7247.8175,2025-01-29 11:49:09,0.0
-11409.25,2651.7,-28049.0,-9328.325,1135.6525,-7226.8175,2025-01-29 11:49:09,0.0
-10229.25,911.7,-27421.0,-9311.325,-128.3475,-7065.8175,2025-01-29 11:49:10,0.0
-9061.25,-916.3,-25525.0,-8574.325,-319.34749999999997,-6934.8175,2025-01-29 11:49:10,0.0
-8177.25,-1684.3,-25237.0,-7476.325,400.65250000000003,-7081.8175,2025-01-29 11:49:10,0.0
-8293.25,-1832.3,-25385.0,-6218.325,1680.6525,-7118.8175,2025-01-29 11:49:10,0.0
-9005.25,-1608.3,-25425.0,-4566.325,2976.6525,-6453.8175,2025-01-29 11:49:10,0.0
-9657.25,-1980.3,-25237.0,-3050.325,3376.6525,-5033.8175,2025-01-29 11:49:10,0.0
-9441.25,-2740.3,-25061.0,-1809.325,3373.6525,-3863.8175,2025-01-29 11:49:10,0.0
-8993.25,-3760.3,-24993.0,-599.325,3370.6525,-3340.8175,2025-01-29 11:49:10,0.0
-8229.25,-3852.3,-26049.0,371.675,3369.6525,-3466.8175,2025-01-29 11:49:10,0.0
-8397.25,-2172.3,-28101.0,1109.675,3617.6525,-3566.8175,2025-01-29 11:49:10,0.0
-9369.25,-748.3,-28925.0,1287.675,3813.6525,-2978.8175,2025-01-29 11:49:10,0.0
-11373.25,-628.3,-28917.0,926.675,4375.6525,-1885.8175,2025-01-29 11:49:10,0.0
-13277.25,-840.3,-27685.0,524.675,5377.6525,-840.8175,2025-01-29 11:49:10,0.0
-14529.25,-776.3,-27669.0,123.67500000000001,5540.6525,-34.817499999999995,2025-01-29 11:49:10,0.0
-16045.25,-3872.3,-38973.0,-3161.325,7212.6525,-78.8175,2025-01-29 11:49:10,0.0
-12293.25,891.7,-26893.0,-1745.325,1360.6525,160.1825,2025-01-29 11:49:10,0.0
-10833.25,891.7,-27421.0,-1230.325,-2502.3475,-134.8175,2025-01-29 11:49:10,0.0
-11649.25,-316.3,-27269.0,-900.325,-3750.3475,-927.8175,2025-01-29 11:49:10,0.0
-9581.25,-1908.3,-27745.0,-393.325,-1901.3475,-1381.8175,2025-01-29 11:49:10,0.0
-9725.25,-2672.3,-27309.0,104.67500000000001,-89.3475,-2102.8175,2025-01-29 11:49:10,0.0
-10153.25,-1884.3,-27177.0,-163.325,1679.6525,-3173.8175,2025-01-29 11:49:10,0.0
-10953.25,-460.3,-28157.0,-1524.325,-654.3475,-3159.8175,2025-01-29 11:49:10,0.0
-13077.25,287.7,-28405.0,-1566.325,-12.347499999999997,-2049.8175,2025-01-29 11:49:10,
-13373.25,-632.3,-28897.0,-1598.325,-1024.3475,-958.8175,2025-01-29 11:49:10,0.0
-13445.25,-1724.3,-28229.0,-1130.325,-2892.3475,-805.8175,2025-01-29 11:49:10,0.0
-12837.25,-1700.3,-27929.0,-1105.325,-5252.3475,-1350.8175,2025-01-29 11:49:10,0.0
-11181.25,-520.3,-28229.0,-1427.325,-7513.3475,-1281.8175,2025-01-29 11:49:10,0.0
-11909.25,-52.30000000000001,-28277.0,-1636.325,-5331.3475,-1101.8175,2025-01-29 11:49:10,0.0
-10057.25,-776.3,-28137.0,-1298.325,-5341.3475,-1535.8175,2025-01-29 11:49:10,0.0
-13053.25,-1388.3,-26609.0,-1501.325,-6441.3475,-1958.8175,2025-01-29 11:49:10,0.0
-13393.25,-1688.3,-27693.0,-960.325,-6154.3475,-1802.8175,2025-01-29 11:49:10,0.0
-13401.25,-1064.3,-27945.0,-1241.325,-5974.3475,-1150.8175,2025-01-29 11:49:10,0.0
-13149.25,-1256.3,-27585.0,-836.325,-7237.3475,-761.8175,2025-01-29 11:49:10,0.0
-13293.25,-932.3,-27409.0,-410.325,-8507.3475,-694.8175,2025-01-29 11:49:10,0.0
-13169.25,311.7,-27769.0,-525.325,-7227.3475,-1010.8175,2025-01-29 11:49:10,0.0
-13825.25,3.6999999999999886,-27025.0,-700.325,-5952.3475,-1489.8175,2025-01-29 11:49:10,0.0
-14209.25,775.7,-26381.0,-1210.325,-6591.3475,-700.8175,2025-01-29 11:49:10,0.0
-16297.25,-1244.3,-27649.0,-1186.325,-8492.3475,-558.8175,2025-01-29 11:49:10,0.0
-14737.25,-1136.3,-25565.0,-1059.325,-8304.3475,-150.8175,2025-01-29 11:49:10,0.0
-14073.25,-44.30000000000001,-24785.0,-661.325,-7601.3475,-741.8175,2025-01-29 11:49:10,0.0
-14005.25,331.7,-24849.0,-344.325,-6621.3475,-1921.8175,2025-01-29 11:49:10,0.0
-16513.25,-344.3,-25429.0,-272.325,-5789.3475,-1998.8175,2025-01-29 11:49:10,0.0
-16581.25,-968.3,-27369.0,-1025.325,-6865.3475,-952.8175,2025-01-29 11:49:10,0.0
-15717.25,-1468.3,-25105.0,-1255.325,-9256.3475,-172.8175,2025-01-29 11:49:10,0.0
-14089.25,-1532.3,-22661.0,-583.325,-10300.3475,104.1825,2025-01-29 11:49:10,0.0
-13245.25,-1064.3,-22585.0,58.67500000000001,-10015.3475,-52.817499999999995,2025-01-29 11:49:10,0.0
-13357.25,55.69999999999999,-22713.0,-1.3249999999999886,-8649.3475,-358.8175,2025-01-29 11:49:10,0.0
-14837.25,-24.30000000000001,-22757.0,-437.325,-7093.3475,-379.8175,2025-01-29 11:49:10,0.0
-15329.25,-536.3,-22981.0,-486.325,-6725.3475,-748.8175,2025-01-29 11:49:10,0.0
-17745.25,-1236.3,-22265.0,-339.325,-7557.3475,-803.8175,2025-01-29 11:49:10,0.0
-18169.25,-992.3,-22637.0,-170.325,-8818.3475,-21.817499999999995,2025-01-29 11:49:10,0.0
-17577.25,-472.3,-22909.0,33.67500000000001,-9879.3475,863.1825,2025-01-29 11:49:10,0.0
-17137.25,71.69999999999999,-22177.0,-34.32499999999999,-10585.3475,1060.1825,2025-01-29 11:49:10,0.0
-17969.25,-284.3,-20521.0,-95.32499999999999,-9313.3475,1455.1825,2025-01-29 11:49:10,0.0
-18277.25,-504.3,-20685.0,-175.325,-6970.3475,613.1825,2025-01-29 11:49:10,0.0
-19565.25,-628.3,-20753.0,156.675,-5750.3475,-113.8175,2025-01-29 11:49:10,0.0
-19241.25,-1272.3,-22501.0,269.675,-5849.3475,-389.8175,2025-01-29 11:49:10,0.0
-19425.25,-888.3,-21137.0,364.675,-6520.3475,-82.8175,2025-01-29 11:49:10,0.0
-18845.25,-628.3,-19961.0,769.675,-8341.3475,118.1825,2025-01-29 11:49:10,0.0
-16529.25,-860.3,-19965.0,733.675,-6803.3475,-47.817499999999995,2025-01-29 11:49:10,0.0
-16773.25,-1148.3,-20429.0,424.675,-3433.3475,-334.8175,2025-01-29 11:49:11,0.0
-16789.25,-904.3,-20825.0,334.675,-1912.3475,-113.8175,2025-01-29 11:49:11,0.0
-17289.25,-880.3,-21301.0,299.675,-1500.3475,7.1825000000000045,2025-01-29 11:49:11,0.0
-17173.25,-380.3,-21293.0,335.675,-2820.3475,200.1825,2025-01-29 11:49:11,0.0
-15637.25,-172.3,-20349.0,340.675,-5497.3475,24.182500000000005,2025-01-29 11:49:11,0.0
-14009.25,-96.30000000000001,-18889.0,355.675,-6576.3475,-278.8175,2025-01-29 11:49:11,0.0
-12745.25,-608.3,-18461.0,438.675,-5308.3475,-494.8175,2025-01-29 11:49:11,0.0
-14125.25,-1012.3,-18057.0,476.675,-1847.3475,-569.8175,2025-01-29 11:49:11,0.0
-15573.25,-1148.3,-18653.0,508.675,438.65250000000003,-205.8175,2025-01-29 11:49:11,0.0
-17077.25,-1248.3,-20005.0,379.675,617.6525,383.1825,2025-01-29 11:49:11,0.0
-17285.25,-940.3,-21021.0,241.675,-1147.3475,977.1825,2025-01-29 11:49:11,0.0
-16433.25,-392.3,-20421.0,151.675,-3974.3475,1156.1825,2025-01-29 11:49:11,0.0
-15117.25,-568.3,-19237.0,199.675,-4953.3475,636.1825,2025-01-29 11:49:11,0.0
-14805.25,-1400.3,-18189.0,333.675,-4587.3475,235.1825,2025-01-29 11:49:11,0.0
-15305.25,-1424.3,-17681.0,381.675,-2892.3475,196.1825,2025-01-29 11:49:11,0.0
-16113.25,-984.3,-17813.0,489.675,-850.3475,341.1825,2025-01-29 11:49:11,0.0
-17245.25,-564.3,-18241.0,454.675,-196.3475,862.1825,2025-01-29 11:49:11,0.0
-17297.25,-500.3,-19229.0,189.675,-1446.3475,1060.1825,2025-01-29 11:49:11,0.0
-17213.25,147.7,-18985.0,20.67500000000001,-2730.3475,1110.1825,2025-01-29 11:49:11,0.0
-16801.25,439.7,-18385.0,-153.325,-3092.3475,1171.1825,2025-01-29 11:49:11,0.0
-15873.25,595.7,-17709.0,-220.325,-2645.3475,1064.1825,2025-01-29 11:49:11,0.0
-15177.25,899.7,-17961.0,-109.32499999999999,-1338.3475,485.1825,2025-01-29 11:49:11,0.0
-15433.25,615.7,-18461.0,-24.32499999999999,-669.3475,-95.8175,2025-01-29 11:49:11,0.0
-16137.25,71.69999999999999,-18829.0,37.67500000000001,-1378.3475,-308.8175,2025-01-29 11:49:11,0.0
-15945.25,-304.3,-18213.0,37.67500000000001,-2342.3475,-145.8175,2025-01-29 11:49:11,0.0
-15625.25,-628.3,-17453.0,146.675,-2535.3475,-62.817499999999995,2025-01-29 11:49:11,0.0
-15125.25,-624.3,-17041.0,159.675,-1948.3475,-31.817499999999995,2025-01-29 11:49:11,0.0
-15161.25,-448.3,-17261.0,189.675,-1021.3475,-182.8175,2025-01-29 11:49:11,0.0
-15269.25,-424.3,-17613.0,151.675,-376.34749999999997,-435.8175,2025-01-29 11:49:11,0.0
-15677.25,-660.3,-17873.0,222.675,-404.34749999999997,-725.8175,2025-01-29 11:49:11,0.0
-15813.25,-656.3,-17985.0,158.675,-567.3475,-697.8175,2025-01-29 11:49:11,0.0
-15765.25,-596.3,-17889.0,201.675,-674.3475,-749.8175,2025-01-29 11:49:11,0.0
-15565.25,-416.3,-17865.0,200.675,-729.3475,-754.8175,2025-01-29 11:49:11,0.0
-15421.25,-364.3,-17881.0,186.675,-712.3475,-803.8175,2025-01-29 11:49:11,0.0
-15497.25,-604.3,-17769.0,148.675,-635.3475,-888.8175,2025-01-29 11:49:11,0.0
-15693.25,-588.3,-17569.0,124.67500000000001,-513.3475,-1001.8175,2025-01-29 11:49:11,0.0
-15753.25,-692.3,-17541.0,203.675,-382.34749999999997,-1084.8175,2025-01-29 11:49:11,0.0
-16185.25,-948.3,-17429.0,301.675,-371.34749999999997,-1043.8175,2025-01-29 11:49:11,0.0
-16029.25,-1036.3,-17309.0,351.675,-189.3475,-1008.8175,2025-01-29 11:49:11,0.0
-16129.25,-860.3,-17541.0,406.675,-41.3475,-1016.8175,2025-01-29 11:49:11,0.0
-15909.25,-856.3,-17621.0,473.675,-62.3475,-964.8175,2025-01-29 11:49:11,0.0
-15873.25,-980.3,-17581.0,491.675,-101.3475,-891.8175,2025-01-29 11:49:11,0.0
-15789.25,-952.3,-17405.0,528.675,3.6525000000000034,-891.8175,2025-01-29 11:49:11,0.0
-15901.25,-984.3,-17281.0,522.675,163.6525,-856.8175,2025-01-29 11:49:11,0.0
-15913.25,-1140.3,-17409.0,533.675,458.65250000000003,-785.8175,2025-01-29 11:49:11,0.0
-16165.25,-856.3,-17581.0,527.675,588.6525,-659.8175,2025-01-29 11:49:11,0.0
-16321.25,-1020.3,-17685.0,410.675,521.6525,-564.8175,2025-01-29 11:49:11,0.0
-16533.25,-1132.3,-17953.0,385.675,176.6525,-315.8175,2025-01-29 11:49:11,0.0
-16213.25,-1124.3,-17605.0,333.675,-41.3475,-86.8175,2025-01-29 11:49:11,0.0
-15913.25,-1136.3,-17389.0,254.675,-35.3475,45.182500000000005,2025-01-29 11:49:11,0.0
-15701.25,-1128.3,-17513.0,148.675,139.6525,171.1825,2025-01-29 11:49:11,0.0
-15697.25,-1240.3,-17537.0,44.67500000000001,299.65250000000003,229.1825,2025-01-29 11:49:11,0.0
-15805.25,-1188.3,-17513.0,-9.324999999999989,326.65250000000003,138.1825,2025-01-29 11:49:11,0.0
-15761.25,-1276.3,-17485.0,-8.324999999999989,297.65250000000003,27.182500000000005,2025-01-29 11:49:11,0.0
-15917.25,-1388.3,-17777.0,67.67500000000001,26.652500000000003,-142.8175,2025-01-29 11:49:11,0.0
-16173.25,-1360.3,-17449.0,151.675,58.6525,-293.8175,2025-01-29 11:49:11,0.0
-16217.25,-1188.3,-17669.0,191.675,169.6525,-373.8175,2025-01-29 11:49:11,0.0
-16229.25,-1172.3,-17689.0,194.675,212.6525,-375.8175,2025-01-29 11:49:11,0.0
-15873.25,-1012.3,-18093.0,123.67500000000001,82.6525,-181.8175,2025-01-29 11:49:12,0.0
-15893.25,-1080.3,-18093.0,98.67500000000001,-14.347499999999997,-175.8175,2025-01-29 11:49:12,0.0
-15705.25,-1124.3,-18157.0,92.67500000000001,-79.3475,-218.8175,2025-01-29 11:49:12,0.0
-15933.25,-1104.3,-18157.0,97.67500000000001,34.6525,-181.8175,2025-01-29 11:49:12,0.0
-16025.25,-1120.3,-18053.0,107.67500000000001,42.6525,-156.8175,2025-01-29 11:49:12,
-16145.25,-1128.3,-17889.0,105.67500000000001,-29.347499999999997,-63.817499999999995,2025-01-29 11:49:12,0.0
-16029.25,-1100.3,-17893.0,130.675,-108.3475,47.182500000000005,2025-01-29 11:49:12,0.0
-15933.25,-1036.3,-17721.0,103.67500000000001,-91.3475,151.1825,2025-01-29 11:49:12,0.0
-15945.25,-1068.3,-17785.0,114.67500000000001,-47.3475,141.1825,2025-01-29 11:49:12,0.0
-15905.25,-1192.3,-17913.0,68.67500000000001,-45.3475,132.1825,2025-01-29 11:49:12,0.0
-15821.25,-1128.3,-17825.0,48.67500000000001,-176.3475,77.1825,2025-01-29 11:49:12,0.0
-15805.25,-1088.3,-17737.0,21.67500000000001,-173.3475,65.1825,2025-01-29 11:49:12,0.0
-16005.25,-1116.3,-17661.0,44.67500000000001,-81.3475,56.182500000000005,2025-01-29 11:49:12,0.0
-16101.25,-1076.3,-17773.0,46.67500000000001,13.652500000000003,-1.8174999999999955,2025-01-29 11:49:12,0.0
-16081.25,-1092.3,-18101.0,49.67500000000001,-106.3475,40.182500000000005,2025-01-29 11:49:12,0.0
-15861.25,-1036.3,-17893.0,63.67500000000001,-257.34749999999997,66.1825,2025-01-29 11:49:12,0.0
-15901.25,-1044.3,-17973.0,53.67500000000001,-245.3475,80.1825,2025-01-29 11:49:12,0.0
-15945.25,-1096.3,-17709.0,53.67500000000001,-301.34749999999997,92.1825,2025-01-29 11:49:12,0.0
-15901.25,-1076.3,-17689.0,63.67500000000001,-281.34749999999997,71.1825,2025-01-29 11:49:12,0.0
-15873.25,-1020.3,-17617.0,50.67500000000001,-164.3475,2.1825000000000045,2025-01-29 11:49:12,0.0
-15917.25,-1044.3,-17689.0,40.67500000000001,-23.347499999999997,-4.8174999999999955,2025-01-29 11:49:12,0.0
-15773.25,-1052.3,-17677.0,16.67500000000001,29.652500000000003,31.182500000000005,2025-01-29 11:49:12,0.0
-15953.25,-1076.3,-17769.0,12.675000000000011,18.652500000000003,36.182500000000005,2025-01-29 11:49:12,0.0
-15849.25,-1052.3,-17785.0,-15.324999999999989,-31.347499999999997,75.1825,2025-01-29 11:49:12,0.0
-15885.25,-1068.3,-17641.0,-28.32499999999999,-42.3475,99.1825,2025-01-29 11:49:12,0.0
-15877.25,-1096.3,-17781.0,-32.32499999999999,-105.3475,84.1825,2025-01-29 11:49:12,0.0
-15941.25,-1156.3,-17861.0,12.675000000000011,-110.3475,28.182500000000005,2025-01-29 11:49:12,0.0
-15853.25,-1160.3,-17589.0,-22.32499999999999,-74.3475,-5.8174999999999955,2025-01-29 11:49:12,0.0
-15953.25,-1124.3,-17669.0,7.675000000000011,-10.347499999999997,-10.817499999999995,2025-01-29 11:49:12,0.0
-15889.25,-1132.3,-17777.0,-17.32499999999999,40.6525,45.182500000000005,2025-01-29 11:49:12,0.0
-15933.25,-992.3,-17913.0,-15.324999999999989,63.6525,79.1825,2025-01-29 11:49:12,0.0
-15985.25,-1052.3,-17797.0,-12.324999999999989,22.652500000000003,91.1825,2025-01-29 11:49:12,0.0
-16081.25,-1104.3,-17701.0,-1.3249999999999886,-38.3475,94.1825,2025-01-29 11:49:12,0.0
-15869.25,-1040.3,-17897.0,8.675000000000011,-46.3475,42.182500000000005,2025-01-29 11:49:12,0.0
-15837.25,-1064.3,-17641.0,13.675000000000011,-49.3475,14.182500000000005,2025-01-29 11:49:12,0.0
-15905.25,-1040.3,-17633.0,41.67500000000001,-29.347499999999997,-16.817499999999995,2025-01-29 11:49:12,0.0
-15873.25,-988.3,-17677.0,23.67500000000001,27.652500000000003,-5.8174999999999955,2025-01-29 11:49:12,0.0
-15917.25,-1064.3,-17725.0,-8.324999999999989,50.6525,30.182500000000005,2025-01-29 11:49:12,0.0
-16073.25,-1008.3,-17829.0,27.67500000000001,42.6525,36.182500000000005,2025-01-29 11:49:12,0.0
-15989.25,-1004.3,-17717.0,14.675000000000011,69.6525,33.182500000000005,2025-01-29 11:49:12,0.0
-15865.25,-996.3,-17689.0,20.67500000000001,24.652500000000003,7.1825000000000045,2025-01-29 11:49:12,0.0
-15837.25,-968.3,-17701.0,36.67500000000001,38.6525,-27.817499999999995,2025-01-29 11:49:12,0.0
-15925.25,-1072.3,-17773.0,-4.324999999999989,23.652500000000003,-25.817499999999995,2025-01-29 11:49:12,0.0
-15977.25,-1128.3,-17833.0,-34.32499999999999,15.652500000000003,-8.817499999999995,2025-01-29 11:49:12,0.0
-15977.25,-1032.3,-17677.0,-9.324999999999989,22.652500000000003,13.182500000000005,2025-01-29 11:49:12,0.0
-15961.25,-1080.3,-17657.0,0.6750000000000114,-24.347499999999997,0.18250000000000455,2025-01-29 11:49:12,0.0
-16069.25,-1076.3,-17717.0,-11.324999999999989,16.652500000000003,-9.817499999999995,2025-01-29 11:49:12,0.0
-15949.25,-948.3,-17741.0,-36.32499999999999,-12.347499999999997,1.1825000000000045,2025-01-29 11:49:12,0.0
-15861.25,-984.3,-17817.0,6.675000000000011,28.652500000000003,-1.8174999999999955,2025-01-29 11:49:12,0.0
-15985.25,-1132.3,-17605.0,-8.324999999999989,8.652500000000003,-17.817499999999995,2025-01-29 11:49:12,0.0
-15917.25,-1144.3,-17701.0,4.675000000000011,30.652500000000003,1.1825000000000045,2025-01-29 11:49:12,0.0
-16021.25,-1096.3,-17745.0,-5.324999999999989,18.652500000000003,1.1825000000000045,2025-01-29 11:49:12,0.0
-15957.25,-1084.3,-17745.0,-12.324999999999989,25.652500000000003,-21.817499999999995,2025-01-29 11:49:12,0.0
-15997.25,-1012.3,-17929.0,-31.32499999999999,16.652500000000003,-16.817499999999995,2025-01-29 11:49:12,0.0
-15953.25,-968.3,-17769.0,-5.324999999999989,1.6525000000000034,26.182500000000005,2025-01-29 11:49:12,0.0
-15929.25,-1060.3,-17977.0,-6.324999999999989,22.652500000000003,24.182500000000005,2025-01-29 11:49:12,0.0
-15945.25,-1004.3,-17761.0,-25.32499999999999,91.6525,-0.8174999999999955,2025-01-29 11:49:12,0.0
-15873.25,-1012.3,-17801.0,-23.32499999999999,101.6525,2.1825000000000045,2025-01-29 11:49:12,0.0
-15881.25,-972.3,-17805.0,-44.32499999999999,43.6525,8.182500000000005,2025-01-29 11:49:13,0.0
-15893.25,-1060.3,-17757.0,-27.32499999999999,4.652500000000003,14.182500000000005,2025-01-29 11:49:13,0.0
-15853.25,-1120.3,-17645.0,-52.32499999999999,-2.3474999999999966,-36.817499999999995,2025-01-29 11:49:13,0.0
-16029.25,-1056.3,-17721.0,-46.32499999999999,66.6525,-83.8175,2025-01-29 11:49:13,0.0
-16061.25,-1020.3,-17821.0,-10.324999999999989,25.652500000000003,-74.8175,2025-01-29 11:49:13,0.0
-15945.25,-1044.3,-17825.0,-2.3249999999999886,-157.3475,-0.8174999999999955,2025-01-29 11:49:13,0.0
-15937.25,-1020.3,-17849.0,-7.324999999999989,-164.3475,41.182500000000005,2025-01-29 11:49:13,0.0
-15917.25,-1000.3,-17569.0,-34.32499999999999,-180.3475,34.182500000000005,2025-01-29 11:49:13,0.0
-15937.25,-1020.3,-17517.0,-27.32499999999999,-173.3475,17.182500000000005,2025-01-29 11:49:13,0.0
-15949.25,-1024.3,-17593.0,-10.324999999999989,-92.3475,-12.817499999999995,2025-01-29 11:49:13,0.0
-15869.25,-1076.3,-17729.0,-10.324999999999989,-34.3475,-33.817499999999995,2025-01-29 11:49:13,0.0
-15961.25,-1128.3,-17665.0,-12.324999999999989,18.652500000000003,-19.817499999999995,2025-01-29 11:49:13,0.0
-15941.25,-1128.3,-17765.0,-45.32499999999999,32.6525,-28.817499999999995,2025-01-29 11:49:13,0.0
-15945.25,-1104.3,-17761.0,-44.32499999999999,2.6525000000000034,-1.8174999999999955,2025-01-29 11:49:13,0.0
-15789.25,-1076.3,-17765.0,-60.32499999999999,-25.347499999999997,-4.8174999999999955,2025-01-29 11:49:13,0.0
-15937.25,-1116.3,-17837.0,-30.32499999999999,-39.3475,7.1825000000000045,2025-01-29 11:49:13,0.0
-15973.25,-1140.3,-17677.0,-26.32499999999999,-74.3475,1.1825000000000045,2025-01-29 11:49:13,0.0
-15945.25,-1152.3,-17629.0,-12.324999999999989,-41.3475,-13.817499999999995,2025-01-29 11:49:13,0.0
-15973.25,-1064.3,-17609.0,-18.32499999999999,-13.347499999999997,5.1825000000000045,2025-01-29 11:49:13,0.0
-15957.25,-1148.3,-17701.0,-36.32499999999999,34.6525,-33.817499999999995,2025-01-29 11:49:13,0.0
-15961.25,-1096.3,-17669.0,-40.32499999999999,20.652500000000003,-15.817499999999995,2025-01-29 11:49:13,0.0
-15949.25,-964.3,-17753.0,-4.324999999999989,39.6525,24.182500000000005,2025-01-29 11:49:13,0.0
-15917.25,-1076.3,-17709.0,-23.32499999999999,8.652500000000003,42.182500000000005,2025-01-29 11:49:13,0.0
-15857.25,-1052.3,-17589.0,-16.32499999999999,36.6525,10.182500000000005,2025-01-29 11:49:13,0.0
-15829.25,-1080.3,-17577.0,16.67500000000001,56.6525,-1.8174999999999955,2025-01-29 11:49:13,0.0
-15913.25,-976.3,-17765.0,5.675000000000011,60.6525,-12.817499999999995,2025-01-29 11:49:13,0.0
-15937.25,-1072.3,-17593.0,2.6750000000000114,85.6525,-26.817499999999995,2025-01-29 11:49:13,0.0
-15949.25,-1116.3,-17765.0,-2.3249999999999886,67.6525,-10.817499999999995,2025-01-29 11:49:13,0.0
-16021.25,-1060.3,-17837.0,7.675000000000011,64.6525,-7.8174999999999955,2025-01-29 11:49:13,0.0
-15925.25,-1004.3,-17705.0,-9.324999999999989,85.6525,27.182500000000005,2025-01-29 11:49:13,0.0
-15949.25,-1056.3,-17713.0,-15.324999999999989,106.6525,24.182500000000005,2025-01-29 11:49:13,0.0
-15965.25,-1036.3,-17885.0,-31.32499999999999,88.6525,42.182500000000005,2025-01-29 11:49:13,0.0
-15781.25,-1092.3,-17705.0,-21.32499999999999,77.6525,73.1825,2025-01-29 11:49:13,0.0
-15925.25,-1048.3,-17677.0,-18.32499999999999,50.6525,38.182500000000005,2025-01-29 11:49:13,0.0
-16041.25,-1108.3,-17885.0,-45.32499999999999,0.6525000000000034,19.182500000000005,2025-01-29 11:49:13,0.0
-15945.25,-1088.3,-17613.0,-50.32499999999999,11.652500000000003,-19.817499999999995,2025-01-29 11:49:13,0.0
-15909.25,-1152.3,-17925.0,-31.32499999999999,17.652500000000003,-2.8174999999999955,2025-01-29 11:49:13,0.0
-16009.25,-1060.3,-17777.0,-49.32499999999999,59.6525,32.182500000000005,2025-01-29 11:49:13,0.0
-15861.25,-1044.3,-17669.0,-65.32499999999999,68.6525,51.182500000000005,2025-01-29 11:49:13,0.0
-15865.25,-948.3,-17761.0,-58.32499999999999,64.6525,14.182500000000005,2025-01-29 11:49:13,0.0
-15829.25,-1036.3,-17641.0,-56.32499999999999,56.6525,-3.8174999999999955,2025-01-29 11:49:13,0.0
-15945.25,-1112.3,-17733.0,-51.32499999999999,65.6525,-20.817499999999995,2025-01-29 11:49:13,0.0
-15821.25,-1084.3,-17821.0,-46.32499999999999,73.6525,-13.817499999999995,2025-01-29 11:49:13,0.0
-15985.25,-1120.3,-17821.0,-36.32499999999999,51.6525,5.1825000000000045,2025-01-29 11:49:13,0.0
-16049.25,-1052.3,-17821.0,-38.32499999999999,59.6525,7.1825000000000045,2025-01-29 11:49:13,0.0
-16037.25,-1100.3,-17693.0,-40.32499999999999,68.6525,14.182500000000005,2025-01-29 11:49:13,0.0
-15965.25,-1104.3,-17685.0,-44.32499999999999,41.6525,43.182500000000005,2025-01-29 11:49:13,
-15921.25,-1100.3,-17717.0,-49.32499999999999,47.6525,17.182500000000005,2025-01-29 11:49:13,0.0
-15993.25,-1020.3,-17649.0,-30.32499999999999,77.6525,11.182500000000005,2025-01-29 11:49:13,0.0
-15893.25,-1108.3,-17857.0,-16.32499999999999,109.6525,-8.817499999999995,2025-01-29 11:49:13,0.0
-15917.25,-1032.3,-17857.0,-3.3249999999999886,58.6525,17.182500000000005,2025-01-29 11:49:13,0.0
-15805.25,-1044.3,-17737.0,-33.32499999999999,25.652500000000003,35.182500000000005,2025-01-29 11:49:13,0.0
-15977.25,-1040.3,-17853.0,-22.32499999999999,74.6525,10.182500000000005,2025-01-29 11:49:13,0.0
-15925.25,-1120.3,-17733.0,-11.324999999999989,156.6525,-4.8174999999999955,2025-01-29 11:49:13,0.0
-16033.25,-944.3,-17921.0,22.67500000000001,-16.347499999999997,17.182500000000005,2025-01-29 11:49:13,0.0
-15917.25,-944.3,-17753.0,13.675000000000011,-103.3475,91.1825,2025-01-29 11:49:13,0.0
-15881.25,-960.3,-17893.0,9.675000000000011,-146.3475,67.1825,2025-01-29 11:49:13,0.0
-15849.25,-1048.3,-17925.0,11.675000000000011,-192.3475,59.182500000000005,2025-01-29 11:49:13,0.0
-15905.25,-1080.3,-17589.0,28.67500000000001,-128.3475,-2.8174999999999955,2025-01-29 11:49:13,0.0
-15889.25,-932.3,-17745.0,40.67500000000001,9.652500000000003,8.182500000000005,2025-01-29 11:49:13,0.0
-15845.25,-1092.3,-17757.0,34.67500000000001,70.6525,-30.817499999999995,2025-01-29 11:49:13,0.0
-15901.25,-1120.3,-17813.0,-32.32499999999999,69.6525,-46.817499999999995,2025-01-29 11:49:13,0.0
-15929.25,-1072.3,-17913.0,-24.32499999999999,81.6525,-4.8174999999999955,2025-01-29 11:49:13,0.0
-15905.25,-1152.3,-17985.0,-54.32499999999999,44.6525,-5.8174999999999955,2025-01-29 11:49:14,0.0
-16033.25,-1080.3,-17741.0,-45.32499999999999,-0.3474999999999966,26.182500000000005,2025-01-29 11:49:14,0.0
-15881.25,-1048.3,-17897.0,-2.3249999999999886,-63.3475,51.182500000000005,2025-01-29 11:49:14,0.0
-15797.25,-972.3,-17641.0,-25.32499999999999,-29.347499999999997,29.182500000000005,2025-01-29 11:49:14,0.0
-15893.25,-996.3,-17757.0,-40.32499999999999,41.6525,9.182500000000005,2025-01-29 11:49:14,0.0
-16017.25,-1020.3,-17729.0,-14.324999999999989,77.6525,-9.817499999999995,2025-01-29 11:49:14,0.0
-15941.25,-1116.3,-17749.0,-5.324999999999989,50.6525,1.1825000000000045,2025-01-29 11:49:14,0.0
-15917.25,-1036.3,-17829.0,-20.32499999999999,16.652500000000003,21.182500000000005,2025-01-29 11:49:14,0.0
-15897.25,-1004.3,-17809.0,-36.32499999999999,21.652500000000003,8.182500000000005,2025-01-29 11:49:14,0.0
-15973.25,-1008.3,-17701.0,-11.324999999999989,-5.347499999999997,0.18250000000000455,2025-01-29 11:49:14,0.0
-15897.25,-992.3,-17661.0,-22.32499999999999,3.6525000000000034,1.1825000000000045,2025-01-29 11:49:14,0.0
-15925.25,-1024.3,-17725.0,-2.3249999999999886,17.652500000000003,-18.817499999999995,2025-01-29 11:49:14,0.0
-16001.25,-1012.3,-17837.0,-6.324999999999989,-2.3474999999999966,5.1825000000000045,2025-01-29 11:49:14,0.0
-15913.25,-1020.3,-17689.0,-7.324999999999989,-7.347499999999997,10.182500000000005,2025-01-29 11:49:14,0.0
-15833.25,-1084.3,-17781.0,-2.3249999999999886,8.652500000000003,20.182500000000005,2025-01-29 11:49:14,0.0
-15921.25,-1004.3,-17873.0,-19.32499999999999,2.6525000000000034,20.182500000000005,2025-01-29 11:49:14,0.0
-15893.25,-1076.3,-17845.0,21.67500000000001,-16.347499999999997,-5.8174999999999955,2025-01-29 11:49:14,0.0
-15825.25,-1052.3,-17717.0,19.67500000000001,-2.3474999999999966,-39.817499999999995,2025-01-29 11:49:14,0.0
-15837.25,-1024.3,-17889.0,21.67500000000001,-29.347499999999997,-55.817499999999995,2025-01-29 11:49:14,0.0
-15897.25,-956.3,-17993.0,-0.32499999999998863,-11.347499999999997,-30.817499999999995,2025-01-29 11:49:14,0.0
-16013.25,-1168.3,-17873.0,-1.3249999999999886,-9.347499999999997,-19.817499999999995,2025-01-29 11:49:14,0.0
-16045.25,-1088.3,-17929.0,-16.32499999999999,12.652500000000003,-31.817499999999995,2025-01-29 11:49:14,0.0
-15909.25,-1064.3,-17925.0,31.67500000000001,-42.3475,-74.8175,2025-01-29 11:49:14,0.0
-15925.25,-984.3,-17881.0,87.67500000000001,-107.3475,-99.8175,2025-01-29 11:49:14,0.0
-15953.25,-1112.3,-17917.0,140.675,-119.3475,-177.8175,2025-01-29 11:49:14,0.0
-15961.25,-784.3,-18133.0,200.675,-285.34749999999997,-181.8175,2025-01-29 11:49:14,0.0
-16073.25,-708.3,-18097.0,173.675,-437.34749999999997,-164.8175,2025-01-29 11:49:14,0.0
-15893.25,-736.3,-18025.0,140.675,-426.34749999999997,-128.8175,2025-01-29 11:49:14,0.0
-15773.25,-948.3,-18069.0,93.67500000000001,-627.3475,-32.817499999999995,2025-01-29 11:49:14,0.0
-15673.25,-1108.3,-17645.0,18.67500000000001,-609.3475,-25.817499999999995,2025-01-29 11:49:14,0.0
-15661.25,-1184.3,-17649.0,114.67500000000001,-586.3475,-47.817499999999995,2025-01-29 11:49:14,0.0
-15853.25,-1292.3,-17533.0,68.67500000000001,-383.34749999999997,-21.817499999999995,2025-01-29 11:49:14,0.0
-15981.25,-1172.3,-17393.0,71.67500000000001,-307.34749999999997,11.182500000000005,2025-01-29 11:49:14,0.0
-16265.25,-1156.3,-17365.0,113.67500000000001,-393.34749999999997,50.182500000000005,2025-01-29 11:49:14,0.0
-16133.25,-1108.3,-17421.0,60.67500000000001,-433.34749999999997,53.182500000000005,2025-01-29 11:49:14,0.0
-15913.25,-1040.3,-17553.0,18.67500000000001,-371.34749999999997,112.1825,2025-01-29 11:49:14,0.0
-15753.25,-1028.3,-17605.0,-34.32499999999999,-268.34749999999997,101.1825,2025-01-29 11:49:14,0.0
-15797.25,-1008.3,-17417.0,-39.32499999999999,-120.3475,98.1825,2025-01-29 11:49:14,0.0
-15813.25,-1272.3,-17453.0,-27.32499999999999,-138.3475,152.1825,2025-01-29 11:49:14,0.0
-15885.25,-1380.3,-17529.0,-84.32499999999999,-440.34749999999997,222.1825,2025-01-29 11:49:14,0.0
-15705.25,-1248.3,-17833.0,-145.325,-697.3475,225.1825,2025-01-29 11:49:14,0.0
-15569.25,-1212.3,-17401.0,-85.32499999999999,-485.34749999999997,122.1825,2025-01-29 11:49:14,0.0
-15489.25,-1168.3,-17269.0,26.67500000000001,-296.34749999999997,-74.8175,2025-01-29 11:49:14,0.0
-15529.25,-1052.3,-17417.0,206.675,-386.34749999999997,-2.8174999999999955,2025-01-29 11:49:14,0.0
-15749.25,-1048.3,-17233.0,286.675,-411.34749999999997,114.1825,2025-01-29 11:49:14,0.0
-15889.25,-960.3,-17233.0,251.675,-287.34749999999997,267.1825,2025-01-29 11:49:14,0.0
-16229.25,-636.3,-17205.0,-66.32499999999999,44.6525,259.1825,2025-01-29 11:49:14,0.0
-16261.25,-600.3,-17285.0,-306.325,324.65250000000003,-14.817499999999995,2025-01-29 11:49:14,0.0
-15837.25,-936.3,-17401.0,-304.325,521.6525,-206.8175,2025-01-29 11:49:14,0.0
-15677.25,-1180.3,-17489.0,-220.325,588.6525,-198.8175,2025-01-29 11:49:14,0.0
-15789.25,-1404.3,-17521.0,-110.32499999999999,437.65250000000003,-79.8175,2025-01-29 11:49:14,0.0
-15905.25,-1300.3,-17573.0,-68.32499999999999,257.65250000000003,204.1825,2025-01-29 11:49:14,0.0
-15705.25,-1212.3,-17697.0,-115.32499999999999,360.65250000000003,569.1825,2025-01-29 11:49:14,0.0
-16081.25,-1180.3,-17693.0,-329.325,216.6525,1009.1825,2025-01-29 11:49:14,0.0
-14937.25,-1212.3,-17941.0,-509.325,705.6525,938.1825,2025-01-29 11:49:14,0.0
-14957.25,-1056.3,-17381.0,-583.325,1182.6525,815.1825,2025-01-29 11:49:14,0.0
-14993.25,-1232.3,-17925.0,-576.325,1865.6525,744.1825,2025-01-29 11:49:14,0.0
-15753.25,-1108.3,-17997.0,-380.325,2521.6525,781.1825,2025-01-29 11:49:14,0.0
-16329.25,-908.3,-18021.0,-255.325,3089.6525,948.1825,2025-01-29 11:49:14,0.0
-15625.25,-892.3,-18165.0,-305.325,2752.6525,1061.1825,2025-01-29 11:49:14,0.0
-15049.25,-664.3,-18297.0,-487.325,2488.6525,1044.1825,2025-01-29 11:49:14,0.0
-14745.25,-632.3,-18217.0,-722.325,2409.6525,890.1825,2025-01-29 11:49:15,0.0
-15045.25,-568.3,-17505.0,-769.325,2907.6525,601.1825,2025-01-29 11:49:15,0.0
-16621.25,-512.3,-17865.0,-396.325,3792.6525,152.1825,2025-01-29 11:49:15,0.0
-17937.25,-624.3,-18177.0,218.675,3748.6525,-13.817499999999995,2025-01-29 11:49:15,0.0
-17585.25,-1432.3,-18029.0,486.675,2130.6525,61.182500000000005,2025-01-29 11:49:15,0.0
-17517.25,-992.3,-17349.0,400.675,2616.6525,33.182500000000005,2025-01-29 11:49:15,0.0
-16593.25,-628.3,-16681.0,443.675,3897.6525,-14.817499999999995,2025-01-29 11:49:15,0.0
-15589.25,-100.30000000000001,-16445.0,622.675,5783.6525,-16.817499999999995,2025-01-29 11:49:15,0.0
-15313.25,99.69999999999999,-17317.0,611.675,7525.6525,192.1825,2025-01-29 11:49:15,0.0
-15765.25,543.7,-18113.0,302.675,8532.6525,285.1825,2025-01-29 11:49:15,0.0
-16125.25,-260.3,-19233.0,141.675,8995.6525,610.1825,2025-01-29 11:49:15,0.0
-16317.25,-756.3,-19653.0,87.67500000000001,8924.6525,820.1825,2025-01-29 11:49:15,0.0
-15961.25,-1372.3,-19341.0,214.675,8701.6525,635.1825,2025-01-29 11:49:15,0.0
-23413.25,-2032.3,-15921.0,-38.32499999999999,12247.6525,-283.8175,2025-01-29 11:49:15,0.0
-18125.25,-968.3,-21973.0,157.675,7588.6525,657.1825,2025-01-29 11:49:15,0.0
-18757.25,-1076.3,-21053.0,278.675,6577.6525,884.1825,2025-01-29 11:49:15,0.0
-21009.25,-1972.3,-19721.0,591.675,7273.6525,631.1825,2025-01-29 11:49:15,0.0
-19057.25,-1892.3,-20685.0,1274.675,6672.6525,177.1825,2025-01-29 11:49:15,0.0
-17793.25,-1128.3,-21773.0,1794.675,7127.6525,-655.8175,2025-01-29 11:49:15,0.0
-19353.25,-580.3,-22901.0,1813.675,4920.6525,-738.8175,2025-01-29 11:49:15,0.0
-18597.25,-400.3,-23433.0,1361.675,4233.6525,-369.8175,2025-01-29 11:49:15,0.0
-17285.25,-124.30000000000001,-22801.0,962.675,4945.6525,-265.8175,2025-01-29 11:49:15,0.0
-17029.25,-912.3,-22577.0,790.675,6072.6525,158.1825,2025-01-29 11:49:15,
-16713.25,-848.3,-22933.0,685.675,7127.6525,311.1825,2025-01-29 11:49:15,0.0
-16905.25,-688.3,-23289.0,581.675,7331.6525,122.1825,2025-01-29 11:49:15,0.0
-16329.25,-820.3,-22901.0,521.675,6923.6525,44.182500000000005,2025-01-29 11:49:15,0.0
-15125.25,-880.3,-23009.0,528.675,7756.6525,-84.8175,2025-01-29 11:49:15,0.0
-15301.25,-648.3,-23997.0,549.675,8167.6525,-92.8175,2025-01-29 11:49:15,0.0
-15253.25,-472.3,-24413.0,472.675,7889.6525,21.182500000000005,2025-01-29 11:49:15,0.0
-15073.25,-388.3,-24481.0,356.675,7104.6525,141.1825,2025-01-29 11:49:15,0.0
-13949.25,-304.3,-24853.0,227.675,6357.6525,250.1825,2025-01-29 11:49:15,0.0
-14221.25,-204.3,-24449.0,125.67500000000001,6114.6525,417.1825,2025-01-29 11:49:15,0.0
-14305.25,-260.3,-24833.0,143.675,5540.6525,387.1825,2025-01-29 11:49:15,0.0
-14345.25,-260.3,-24877.0,91.67500000000001,4746.6525,427.1825,2025-01-29 11:49:15,0.0
-14241.25,-360.3,-24961.0,73.67500000000001,4116.6525,553.1825,2025-01-29 11:49:15,0.0
-14221.25,-776.3,-24609.0,114.67500000000001,3824.6525,690.1825,2025-01-29 11:49:15,0.0
-14013.25,-796.3,-24445.0,234.675,3855.6525,662.1825,2025-01-29 11:49:15,0.0
-14177.25,-1036.3,-24681.0,523.675,3987.6525,542.1825,2025-01-29 11:49:15,0.0
-14209.25,-888.3,-25301.0,732.675,3034.6525,603.1825,2025-01-29 11:49:15,0.0
-13829.25,-676.3,-25077.0,675.675,3546.6525,477.1825,2025-01-29 11:49:15,0.0
-13653.25,-596.3,-25373.0,480.675,4648.6525,582.1825,2025-01-29 11:49:15,0.0
-13281.25,-828.3,-25733.0,392.675,5300.6525,450.1825,2025-01-29 11:49:15,0.0
-12965.25,-504.3,-26185.0,389.675,5178.6525,-3.8174999999999955,2025-01-29 11:49:15,0.0
-13245.25,-504.3,-27293.0,188.675,4457.6525,-87.8175,2025-01-29 11:49:15,0.0
-13757.25,-128.3,-27441.0,-185.325,3489.6525,90.1825,2025-01-29 11:49:15,0.0
-13653.25,-336.3,-28081.0,-707.325,2405.6525,-14.817499999999995,2025-01-29 11:49:15,0.0
-12537.25,-500.3,-27869.0,-745.325,-752.3475,336.1825,2025-01-29 11:49:15,0.0
-13897.25,-420.3,-27429.0,-721.325,125.6525,-229.8175,2025-01-29 11:49:15,0.0
-12629.25,-152.3,-26729.0,-664.325,-734.3475,-405.8175,2025-01-29 11:49:15,0.0
-12857.25,-324.3,-25657.0,-587.325,-1886.3475,-354.8175,2025-01-29 11:49:15,0.0
-12329.25,-632.3,-26093.0,-363.325,-518.3475,-542.8175,2025-01-29 11:49:15,0.0
-12173.25,-864.3,-25749.0,-196.325,-358.34749999999997,-426.8175,2025-01-29 11:49:15,0.0
-11841.25,-1096.3,-25717.0,338.675,-230.3475,-171.8175,2025-01-29 11:49:15,0.0
-11713.25,-1264.3,-26517.0,550.675,953.6525,-208.8175,2025-01-29 11:49:15,0.0
-11717.25,-1144.3,-26813.0,856.675,1843.6525,-7.8174999999999955,2025-01-29 11:49:15,0.0
-12121.25,-748.3,-26853.0,855.675,3085.6525,-22.817499999999995,2025-01-29 11:49:15,0.0
-12001.25,-360.3,-26545.0,811.675,3847.6525,-465.8175,2025-01-29 11:49:15,0.0
-12153.25,-232.3,-26497.0,767.675,4287.6525,-872.8175,2025-01-29 11:49:15,0.0
-12225.25,-380.3,-26805.0,856.675,5153.6525,-1291.8175,2025-01-29 11:49:15,0.0
-11781.25,-480.3,-27753.0,639.675,6279.6525,-2014.8175,2025-01-29 11:49:15,0.0
-11153.25,-428.3,-28877.0,521.675,6495.6525,-2732.8175,2025-01-29 11:49:15,0.0
-10761.25,-460.3,-29489.0,460.675,5494.6525,-3064.8175,2025-01-29 11:49:15,0.0
-11061.25,-712.3,-29317.0,102.67500000000001,4542.6525,-3279.8175,2025-01-29 11:49:16,0.0
-12409.25,-920.3,-28401.0,-333.325,4173.6525,-3482.8175,2025-01-29 11:49:16,0.0
-13157.25,-1544.3,-27585.0,-935.325,4464.6525,-3728.8175,2025-01-29 11:49:16,0.0
-12509.25,-1872.3,-27713.0,-1324.325,2812.6525,-3929.8175,2025-01-29 11:49:16,0.0
-12189.25,-2136.3,-28545.0,-1291.325,682.6525,-3904.8175,2025-01-29 11:49:16,0.0
-12221.25,-2224.3,-28897.0,-1515.325,-2025.3475,-3664.8175,2025-01-29 11:49:16,0.0
-12461.25,-2048.3,-28329.0,-1599.325,-3909.3475,-3132.8175,2025-01-29 11:49:16,0.0
-11505.25,-2228.3,-27557.0,-1923.325,-7677.3475,-1684.8175,2025-01-29 11:49:16,0.0
-12385.25,-1640.3,-26485.0,-1813.325,-5489.3475,-1767.8175,2025-01-29 11:49:16,0.0
-11905.25,-1492.3,-26613.0,-1837.325,-6383.3475,-1380.8175,2025-01-29 11:49:16,0.0
-11729.25,-1564.3,-26401.0,-1844.325,-7003.3475,-1215.8175,2025-01-29 11:49:16,0.0
-11633.25,-1676.3,-26349.0,-1874.325,-6944.3475,-1107.8175,2025-01-29 11:49:16,0.0
-11813.25,-1788.3,-26249.0,-1776.325,-6611.3475,-773.8175,2025-01-29 11:49:16,0.0
-11433.25,-2044.3,-26005.0,-1559.325,-6358.3475,-259.8175,2025-01-29 11:49:16,0.0
-11645.25,-2496.3,-25413.0,-1079.325,-5114.3475,41.182500000000005,2025-01-29 11:49:16,0.0
-11781.25,-2572.3,-24757.0,-517.325,-4385.3475,59.182500000000005,2025-01-29 11:49:16,0.0
-12269.25,-2816.3,-24173.0,255.675,-4083.3475,-50.817499999999995,2025-01-29 11:49:16,0.0
-12245.25,-2612.3,-24741.0,898.675,-4364.3475,-223.8175,2025-01-29 11:49:16,0.0
-13093.25,-2452.3,-25777.0,1061.675,-4981.3475,115.1825,2025-01-29 11:49:16,0.0
-12973.25,-2176.3,-26449.0,1204.675,-5775.3475,825.1825,2025-01-29 11:49:16,0.0
-12725.25,-1824.3,-26925.0,1255.675,-6969.3475,1659.1825,2025-01-29 11:49:16,0.0
-11333.25,-2084.3,-26385.0,1299.675,-8326.3475,2122.1825,2025-01-29 11:49:16,0.0
-9505.25,-1604.3,-25237.0,1787.675,-5715.3475,1889.1825,2025-01-29 11:49:16,0.0
-9425.25,-1108.3,-25365.0,1603.675,-3677.3475,2173.1825,2025-01-29 11:49:16,0.0
-9809.25,-616.3,-26201.0,1332.675,-1229.3475,2318.1825,2025-01-29 11:49:16,0.0
-10781.25,-252.3,-26653.0,741.675,1204.6525,2286.1825,2025-01-29 11:49:16,0.0
-11957.25,59.69999999999999,-26749.0,-58.32499999999999,3029.6525,2470.1825,2025-01-29 11:49:16,0.0
-12205.25,779.7,-27465.0,-769.325,3458.6525,2600.1825,2025-01-29 11:49:16,0.0
-12513.25,2107.7,-28005.0,-1874.325,2855.6525,2648.1825,2025-01-29 11:49:16,0.0
-12605.25,3587.7,-28145.0,-2957.325,2040.6525,2571.1825,2025-01-29 11:49:16,0.0
-12801.25,4483.7,-26801.0,-3716.325,1997.6525,1991.1825,2025-01-29 11:49:16,0.0
-10461.25,2575.7,-24009.0,-4382.325,371.65250000000003,892.1825,2025-01-29 11:49:16,0.0
-13457.25,1667.7,-23609.0,-4438.325,1923.6525,-1039.8175,2025-01-29 11:49:16,0.0
-14369.25,-204.3,-23365.0,-4162.325,1162.6525,-892.8175,2025-01-29 11:49:16,0.0
-14421.25,-1120.3,-23673.0,-3679.325,1768.6525,-153.8175,2025-01-29 11:49:16,0.0
-14401.25,-1104.3,-23537.0,-3102.325,2430.6525,329.1825,2025-01-29 11:49:16,0.0
-14429.25,-252.3,-24345.0,-2626.325,2910.6525,509.1825,2025-01-29 11:49:16,0.0
-14309.25,711.7,-24829.0,-2755.325,2511.6525,386.1825,2025-01-29 11:49:16,0.0
-14249.25,1827.7,-24481.0,-3027.325,1403.6525,122.1825,2025-01-29 11:49:16,0.0
-13677.25,2507.7,-24489.0,-3463.325,217.6525,-183.8175,2025-01-29 11:49:16,0.0
-13461.25,2863.7,-23889.0,-3901.325,-546.3475,-638.8175,2025-01-29 11:49:16,0.0
-13077.25,2647.7,-22945.0,-4034.325,-987.3475,-1172.8175,2025-01-29 11:49:16,0.0
-13197.25,1331.7,-22621.0,-3880.325,-983.3475,-1689.8175,2025-01-29 11:49:16,0.0
-13061.25,103.69999999999999,-22621.0,-3206.325,-851.3475,-1812.8175,2025-01-29 11:49:16,0.0
-12573.25,-620.3,-22869.0,-2378.325,-756.3475,-1847.8175,2025-01-29 11:49:16,0.0
-12157.25,-720.3,-21993.0,-1382.325,-157.3475,-1964.8175,2025-01-29 11:49:16,0.0
-12157.25,71.69999999999999,-21465.0,-898.325,984.6525,-2557.8175,2025-01-29 11:49:16,0.0
-13133.25,1571.7,-21509.0,-524.325,1842.6525,-2944.8175,2025-01-29 11:49:16,0.0
-13797.25,2571.7,-24109.0,-342.325,2533.6525,-2985.8175,2025-01-29 11:49:16,0.0
-14773.25,2323.7,-25153.0,-717.325,3547.6525,-3022.8175,2025-01-29 11:49:16,0.0
-15409.25,1187.7,-24509.0,-794.325,3821.6525,-2864.8175,2025-01-29 11:49:16,0.0
-16385.25,59.69999999999999,-23737.0,-254.325,3409.6525,-2662.8175,2025-01-29 11:49:16,0.0
-16917.25,-764.3,-23533.0,905.675,2741.6525,-2122.8175,2025-01-29 11:49:16,0.0
-16785.25,-1508.3,-23429.0,2132.675,2031.6525,-1827.8175,2025-01-29 11:49:16,0.0
-17157.25,-1600.3,-23225.0,3094.675,1640.6525,-1631.8175,2025-01-29 11:49:16,0.0
-17377.25,-212.3,-22661.0,3386.675,891.6525,-1251.8175,2025-01-29 11:49:16,0.0
-17241.25,1691.7,-22981.0,2982.675,346.65250000000003,-1069.8175,2025-01-29 11:49:16,0.0
-17301.25,3295.7,-23817.0,2013.675,356.65250000000003,-980.8175,2025-01-29 11:49:16,0.0
-17241.25,4063.7,-26217.0,186.675,1752.6525,-800.8175,2025-01-29 11:49:17,0.0
-18397.25,4099.7,-26389.0,-1061.325,3693.6525,-900.8175,2025-01-29 11:49:17,0.0
-19089.25,4527.7,-27629.0,-2236.325,5135.6525,-1183.8175,2025-01-29 11:49:17,
-14361.25,4123.7,-29257.0,-3659.325,3655.6525,-1222.8175,2025-01-29 11:49:17,0.0
-17441.25,3947.7,-30877.0,-4573.325,3801.6525,-2096.8175,2025-01-29 11:49:17,0.0
-16417.25,2675.7,-29905.0,-5445.325,-9.347499999999997,-2615.8175,2025-01-29 11:49:17,0.0
-12985.25,1595.7,-28061.0,-5667.325,-4352.3475,-3462.8175,2025-01-29 11:49:17,0.0
-9913.25,483.7,-24505.0,-4298.325,-7348.3475,-4519.8175,2025-01-29 11:49:17,0.0
-7245.25,-1132.3,-24605.0,-2520.325,-8416.3475,-5441.8175,2025-01-29 11:49:17,0.0
-5857.25,-2380.3,-26705.0,-1612.325,-7354.3475,-5860.8175,2025-01-29 11:49:17,0.0
-5681.25,-2544.3,-29093.0,-1718.325,-4239.3475,-5902.8175,2025-01-29 11:49:17,0.0
-6525.25,-1272.3,-30241.0,-2676.325,1688.6525,-5784.8175,2025-01-29 11:49:17,0.0
-7973.25,-304.3,-29597.0,-3883.325,6686.6525,-5999.8175,2025-01-29 11:49:17,0.0
-10485.25,-180.3,-28569.0,-4957.325,9092.6525,-6136.8175,2025-01-29 11:49:17,0.0
-12321.25,-1144.3,-28829.0,-5826.325,8436.6525,-6629.8175,2025-01-29 11:49:17,0.0
-13289.25,-1592.3,-29809.0,-5894.325,6384.6525,-7099.8175,2025-01-29 11:49:17,0.0
-14409.25,-2260.3,-29877.0,-5704.325,3181.6525,-7003.8175,2025-01-29 11:49:17,0.0
-14481.25,-2916.3,-28337.0,-5441.325,-1150.3475,-6735.8175,2025-01-29 11:49:17,0.0
-13609.25,-3168.3,-27145.0,-5129.325,-4401.3475,-6531.8175,2025-01-29 11:49:17,0.0
-12025.25,-3212.3,-26277.0,-4980.325,-5543.3475,-6447.8175,2025-01-29 11:49:17,0.0
-10873.25,-2944.3,-26053.0,-5139.325,-5206.3475,-6254.8175,2025-01-29 11:49:17,0.0
-9649.25,-2592.3,-26449.0,-5274.325,-3808.3475,-5960.8175,2025-01-29 11:49:17,0.0
-8689.25,-2220.3,-27017.0,-5569.325,-737.3475,-5950.8175,2025-01-29 11:49:17,0.0
-8697.25,-2616.3,-27045.0,-6039.325,2029.6525,-6535.8175,2025-01-29 11:49:17,0.0
-10009.25,-2844.3,-26713.0,-6151.325,3646.6525,-7000.8175,2025-01-29 11:49:17,0.0
-11529.25,-3076.3,-26141.0,-6218.325,3880.6525,-6967.8175,2025-01-29 11:49:17,0.0
-12733.25,-2908.3,-25673.0,-6249.325,3026.6525,-6707.8175,2025-01-29 11:49:17,0.0
-13549.25,-2844.3,-25777.0,-6346.325,1593.6525,-6290.8175,2025-01-29 11:49:17,0.0
-13421.25,-3036.3,-26429.0,-6464.325,14.652500000000003,-5598.8175,2025-01-29 11:49:17,0.0
-12821.25,-3200.3,-26741.0,-6373.325,-797.3475,-5100.8175,2025-01-29 11:49:17,0.0
-12257.25,-3512.3,-26661.0,-6265.325,-826.3475,-4737.8175,2025-01-29 11:49:17,0.0
-11477.25,-3400.3,-26389.0,-5890.325,-97.3475,-4560.8175,2025-01-29 11:49:17,0.0
-11885.25,-3156.3,-25881.0,-5598.325,434.65250000000003,-4005.8175,2025-01-29 11:49:17,0.0
-12097.25,-2800.3,-25613.0,-5491.325,1303.6525,-3257.8175,2025-01-29 11:49:17,0.0
-12561.25,-2768.3,-25869.0,-5423.325,2409.6525,-2932.8175,2025-01-29 11:49:17,0.0
-13017.25,-3036.3,-26125.0,-5358.325,2846.6525,-2816.8175,2025-01-29 11:49:17,0.0
-13529.25,-3412.3,-26217.0,-5180.325,2443.6525,-2737.8175,2025-01-29 11:49:17,0.0
-13953.25,-3688.3,-26029.0,-4798.325,1089.6525,-2448.8175,2025-01-29 11:49:17,0.0
-14189.25,-3780.3,-25617.0,-4311.325,-409.34749999999997,-1793.8175,2025-01-29 11:49:17,0.0
-13285.25,-2848.3,-25457.0,-4024.325,-1093.3475,-1193.8175,2025-01-29 11:49:17,0.0
-12781.25,-1752.3,-25833.0,-4158.325,-753.3475,-1440.8175,2025-01-29 11:49:17,0.0
-12785.25,-1072.3,-26241.0,-4661.325,-170.3475,-1471.8175,2025-01-29 11:49:17,0.0
-12861.25,-608.3,-26269.0,-5239.325,601.6525,-1483.8175,2025-01-29 11:49:17,0.0
-12665.25,-612.3,-26705.0,-5606.325,1154.6525,-1741.8175,2025-01-29 11:49:17,0.0
-13253.25,-1124.3,-26765.0,-5993.325,1680.6525,-2348.8175,2025-01-29 11:49:17,0.0
-13949.25,-1152.3,-26789.0,-6094.325,2128.6525,-3482.8175,2025-01-29 11:49:17,0.0
-14993.25,-1072.3,-26165.0,-6258.325,2078.6525,-4695.8175,2025-01-29 11:49:17,0.0
-15957.25,-1148.3,-25409.0,-6305.325,873.6525,-5531.8175,2025-01-29 11:49:17,0.0
-16033.25,-2176.3,-26185.0,-6060.325,-459.34749999999997,-5998.8175,2025-01-29 11:49:17,0.0
-14889.25,-3592.3,-29121.0,-5512.325,-1238.3475,-6471.8175,2025-01-29 11:49:17,0.0
-15961.25,-5740.3,-29673.0,-4914.325,-420.34749999999997,-7214.8175,2025-01-29 11:49:17,0.0
-16845.25,-7416.3,-29285.0,-1971.325,479.65250000000003,-7880.8175,2025-01-29 11:49:17,0.0
-18625.25,-7864.3,-30733.0,-278.325,-2173.3475,-5855.8175,2025-01-29 11:49:17,0.0
-19229.25,-7208.3,-31413.0,198.675,-6756.3475,-2226.8175,2025-01-29 11:49:17,0.0
-15517.25,-6028.3,-31721.0,249.675,-10015.3475,823.1825,2025-01-29 11:49:17,0.0
-10309.25,-3280.3,-30065.0,645.675,-12825.3475,1865.1825,2025-01-29 11:49:17,0.0
-7025.25,-628.3,-28985.0,391.675,-14084.3475,1832.1825,2025-01-29 11:49:17,0.0
-5261.25,2371.7,-28801.0,-647.325,-12495.3475,1453.1825,2025-01-29 11:49:17,0.0
-5693.25,4015.7,-29941.0,-2924.325,-6858.3475,916.1825,2025-01-29 11:49:17,0.0
-6937.25,3067.7,-29749.0,-4808.325,1874.6525,236.1825,2025-01-29 11:49:17,0.0
-8301.25,-536.3,-28517.0,-5530.325,9156.6525,-982.8175,2025-01-29 11:49:17,0.0
-11413.25,-3148.3,-27285.0,-4825.325,12404.6525,-1462.8175,2025-01-29 11:49:17,0.0
-14253.25,-4704.3,-26641.0,-3285.325,11942.6525,-1015.8175,2025-01-29 11:49:18,0.0
-16793.25,-4852.3,-26781.0,-1971.325,7548.6525,957.1825,2025-01-29 11:49:18,0.0
-17113.25,-4524.3,-27337.0,-1009.325,1953.6525,3254.1825,2025-01-29 11:49:18,0.0
-15265.25,-3620.3,-27461.0,-287.325,-3039.3475,4466.1825,2025-01-29 11:49:18,0.0
-12917.25,-2400.3,-27717.0,135.675,-5997.3475,4474.1825,2025-01-29 11:49:18,0.0
-11249.25,-1132.3,-26897.0,590.675,-7466.3475,4278.1825,2025-01-29 11:49:18,0.0
-10557.25,-40.30000000000001,-25637.0,948.675,-7082.3475,4443.1825,2025-01-29 11:49:18,0.0
-9393.25,255.7,-25025.0,1092.675,-5464.3475,4728.1825,2025-01-29 11:49:18,0.0
-9057.25,455.7,-24353.0,1033.675,-2848.3475,4618.1825,2025-01-29 11:49:18,0.0
-8849.25,451.7,-24237.0,1129.675,399.65250000000003,3970.1825,2025-01-29 11:49:18,0.0
-10037.25,335.7,-23969.0,1471.675,2664.6525,2953.1825,2025-01-29 11:49:18,0.0
-11669.25,-44.30000000000001,-24541.0,1694.675,2970.6525,2405.1825,2025-01-29 11:49:18,0.0
-12989.25,-204.3,-24865.0,1736.675,2057.6525,2253.1825,2025-01-29 11:49:18,0.0
-13577.25,-372.3,-24693.0,1954.675,577.6525,2057.1825,2025-01-29 11:49:18,0.0
-13401.25,-192.3,-24637.0,2382.675,-1084.3475,1178.1825,2025-01-29 11:49:18,0.0
-13505.25,-588.3,-24573.0,2650.675,-2663.3475,465.1825,2025-01-29 11:49:18,0.0
-13585.25,-712.3,-24101.0,2864.675,-3884.3475,237.1825,2025-01-29 11:49:18,0.0
-12865.25,-848.3,-23381.0,3040.675,-4911.3475,-71.8175,2025-01-29 11:49:18,0.0
-12869.25,-132.3,-23185.0,2920.675,-4831.3475,-405.8175,2025-01-29 11:49:18,0.0
-13061.25,415.7,-23549.0,2801.675,-4026.3475,-587.8175,2025-01-29 11:49:18,0.0
-13401.25,515.7,-24301.0,2491.675,-2835.3475,-512.8175,2025-01-29 11:49:18,0.0
-12909.25,-204.3,-24481.0,2274.675,-2189.3475,-29.817499999999995,2025-01-29 11:49:18,0.0
-12869.25,-1192.3,-24117.0,2342.675,-1060.3475,590.1825,2025-01-29 11:49:18,0.0
-13437.25,-2032.3,-23737.0,2577.675,774.6525,1275.1825,2025-01-29 11:49:18,0.0
-14177.25,-2480.3,-24065.0,2903.675,3543.6525,2030.1825,2025-01-29 11:49:18,0.0
-15045.25,-1804.3,-24873.0,3336.675,5303.6525,2538.1825,2025-01-29 11:49:18,0.0
-16825.25,-544.3,-25129.0,3610.675,5810.6525,2876.1825,2025-01-29 11:49:18,0.0
-18569.25,331.7,-24425.0,3747.675,5126.6525,2813.1825,2025-01-29 11:49:18,0.0
-19613.25,-296.3,-24097.0,3984.675,3324.6525,2744.1825,2025-01-29 11:49:18,0.0
-19989.25,-940.3,-25269.0,3783.675,515.6525,3125.1825,2025-01-29 11:49:18,0.0
-18581.25,-1308.3,-27529.0,3739.675,-1527.3475,3469.1825,2025-01-29 11:49:18,0.0
-17949.25,111.69999999999999,-29737.0,3253.675,-1623.3475,3696.1825,2025-01-29 11:49:18,0.0
-17441.25,2655.7,-30757.0,1691.675,-157.3475,4328.1825,2025-01-29 11:49:18,0.0
-15621.25,3723.7,-31429.0,-479.325,413.65250000000003,3741.1825,2025-01-29 11:49:18,0.0
-14293.25,2879.7,-29989.0,-2035.325,-1606.3475,1640.1825,2025-01-29 11:49:18,0.0
-13393.25,475.7,-30645.0,-2260.325,-4005.3475,309.1825,2025-01-29 11:49:18,0.0
-12425.25,-2268.3,-29025.0,-2112.325,-5877.3475,567.1825,2025-01-29 11:49:18,0.0
-9853.25,-4696.3,-26549.0,-476.325,-7243.3475,899.1825,2025-01-29 11:49:18,0.0
-7837.25,-4940.3,-25201.0,2094.675,-6166.3475,930.1825,2025-01-29 11:49:18,0.0
-6965.25,-3968.3,-25953.0,3146.675,-2666.3475,356.1825,2025-01-29 11:49:18,0.0
-6921.25,-1720.3,-26829.0,3325.675,725.6525,-922.8175,2025-01-29 11:49:18,
-8317.25,111.69999999999999,-27809.0,2672.675,2975.6525,-1941.8175,2025-01-29 11:49:18,0.0
-10469.25,735.7,-28245.0,914.675,5045.6525,-2290.8175,2025-01-29 11:49:18,0.0
-12013.25,-340.3,-27221.0,-1046.325,5600.6525,-2775.8175,2025-01-29 11:49:18,0.0
-12629.25,-1956.3,-26337.0,-1085.325,3011.6525,-3819.8175,2025-01-29 11:49:18,0.0
-13725.25,-2980.3,-27373.0,-532.325,402.65250000000003,-4120.8175,2025-01-29 11:49:18,0.0
-13517.25,-3452.3,-27929.0,-620.325,-1321.3475,-3547.8175,2025-01-29 11:49:18,0.0
-12517.25,-3488.3,-27277.0,-594.325,-2032.3475,-2634.8175,2025-01-29 11:49:18,0.0
-10969.25,-3236.3,-26609.0,-473.325,-1889.3475,-2286.8175,2025-01-29 11:49:18,0.0
-9981.25,-3152.3,-26137.0,-205.325,-953.3475,-2342.8175,2025-01-29 11:49:18,0.0
-9473.25,-3380.3,-25465.0,89.67500000000001,1089.6525,-2530.8175,2025-01-29 11:49:18,0.0
-9885.25,-3488.3,-25125.0,140.675,3049.6525,-2691.8175,2025-01-29 11:49:18,0.0
-10953.25,-2852.3,-25665.0,147.675,4210.6525,-2612.8175,2025-01-29 11:49:18,0.0
-11569.25,-2304.3,-26617.0,-186.325,4561.6525,-2277.8175,2025-01-29 11:49:18,0.0
-12205.25,-1728.3,-26629.0,-604.325,4475.6525,-2176.8175,2025-01-29 11:49:18,0.0
-12977.25,-1332.3,-26205.0,-1239.325,3764.6525,-2304.8175,2025-01-29 11:49:18,0.0
-13457.25,-1532.3,-26401.0,-1810.325,2720.6525,-2393.8175,2025-01-29 11:49:18,0.0
-13533.25,-1476.3,-25861.0,-2371.325,1510.6525,-2333.8175,2025-01-29 11:49:18,0.0
-13473.25,-1852.3,-25493.0,-2664.325,589.6525,-2147.8175,2025-01-29 11:49:18,0.0
-13097.25,-1744.3,-25113.0,-3082.325,206.6525,-2064.8175,2025-01-29 11:49:18,0.0
-12373.25,-1748.3,-25745.0,-3493.325,214.6525,-1905.8175,2025-01-29 11:49:18,0.0
-12941.25,-1816.3,-25045.0,-4025.325,372.65250000000003,-1862.8175,2025-01-29 11:49:19,0.0
-12621.25,-1952.3,-25389.0,-4375.325,356.65250000000003,-1725.8175,2025-01-29 11:49:19,0.0
-13725.25,-2188.3,-25009.0,-4681.325,238.6525,-1619.8175,2025-01-29 11:49:19,0.0
-13661.25,-2416.3,-25213.0,-4990.325,-7.347499999999997,-1652.8175,2025-01-29 11:49:19,0.0
-13241.25,-2504.3,-25641.0,-4920.325,-547.3475,-2012.8175,2025-01-29 11:49:19,0.0
-12841.25,-2100.3,-26321.0,-4766.325,-1062.3475,-2424.8175,2025-01-29 11:49:19,0.0
-12913.25,-2468.3,-26237.0,-4726.325,-504.34749999999997,-2446.8175,2025-01-29 11:49:19,0.0
-13105.25,-3304.3,-25745.0,-4569.325,553.6525,-2814.8175,2025-01-29 11:49:19,0.0
-14585.25,-4156.3,-24205.0,-4371.325,1827.6525,-3518.8175,2025-01-29 11:49:19,0.0
-16317.25,-4256.3,-23653.0,-4218.325,2528.6525,-3960.8175,2025-01-29 11:49:19,0.0
-17629.25,-3776.3,-24785.0,-4093.325,2442.6525,-4135.8175,2025-01-29 11:49:19,0.0
-17677.25,-3252.3,-28073.0,-3926.325,1970.6525,-4089.8175,2025-01-29 11:49:19,0.0
-16921.25,-3696.3,-30717.0,-3399.325,1768.6525,-4333.8175,2025-01-29 11:49:19,0.0
-16777.25,-5768.3,-29713.0,-2412.325,1600.6525,-5115.8175,2025-01-29 11:49:19,0.0
-19941.25,-7016.3,-28293.0,496.675,-4155.3475,-983.8175,2025-01-29 11:49:19,0.0
-17409.25,-4684.3,-29541.0,-151.325,-5904.3475,3164.1825,2025-01-29 11:49:19,0.0
-12633.25,-3256.3,-30041.0,-480.325,-7392.3475,3900.1825,2025-01-29 11:49:19,0.0
-9449.25,-1876.3,-30113.0,-629.325,-9004.3475,3176.1825,2025-01-29 11:49:19,0.0
-7469.25,-628.3,-29113.0,-770.325,-9729.3475,2095.1825,2025-01-29 11:49:19,0.0
-6417.25,1143.7,-27145.0,-643.325,-8761.3475,1217.1825,2025-01-29 11:49:19,0.0
-6253.25,2039.7,-26885.0,-742.325,-5288.3475,398.1825,2025-01-29 11:49:19,0.0
-6889.25,1083.7,-27477.0,-1705.325,1629.6525,-717.8175,2025-01-29 11:49:19,0.0
-9157.25,-560.3,-26769.0,-2065.325,6236.6525,-907.8175,2025-01-29 11:49:19,0.0
-11429.25,-1836.3,-26373.0,-1902.325,8837.6525,-395.8175,2025-01-29 11:49:19,0.0
-14089.25,-2480.3,-26741.0,-1865.325,9765.6525,148.1825,2025-01-29 11:49:19,0.0
-16085.25,-2068.3,-27413.0,-1714.325,7360.6525,944.1825,2025-01-29 11:49:19,0.0
-16981.25,-1596.3,-28225.0,-1399.325,2652.6525,1892.1825,2025-01-29 11:49:19,0.0
-16597.25,-948.3,-28477.0,-1068.325,-2393.3475,2597.1825,2025-01-29 11:49:19,0.0
-15361.25,-356.3,-27797.0,-830.325,-5716.3475,2827.1825,2025-01-29 11:49:19,0.0
-13497.25,-384.3,-26777.0,-448.325,-7479.3475,2753.1825,2025-01-29 11:49:19,0.0
-11553.25,-864.3,-25733.0,-48.32499999999999,-7653.3475,2571.1825,2025-01-29 11:49:19,0.0
-9777.25,-1256.3,-24553.0,428.675,-6214.3475,2777.1825,2025-01-29 11:49:19,0.0
-9013.25,-1440.3,-23785.0,730.675,-3115.3475,2919.1825,2025-01-29 11:49:19,0.0
-9113.25,-1016.3,-23365.0,1075.675,328.65250000000003,2718.1825,2025-01-29 11:49:19,0.0
-10109.25,-236.3,-23805.0,1168.675,2596.6525,2423.1825,2025-01-29 11:49:19,0.0
-11893.25,279.7,-24365.0,1291.675,2985.6525,2546.1825,2025-01-29 11:49:19,0.0
-12613.25,739.7,-25309.0,1390.675,2538.6525,2774.1825,2025-01-29 11:49:19,0.0
-12861.25,1083.7,-25785.0,1216.675,1757.6525,2490.1825,2025-01-29 11:49:19,0.0
-12869.25,883.7,-25445.0,1402.675,762.6525,1584.1825,2025-01-29 11:49:19,0.0
-13473.25,-0.30000000000001137,-25153.0,1706.675,-3.3474999999999966,965.1825,2025-01-29 11:49:19,0.0
-13133.25,-484.3,-25065.0,2002.675,-618.3475,808.1825,2025-01-29 11:49:19,0.0
-12849.25,-816.3,-24561.0,2308.675,-846.3475,617.1825,2025-01-29 11:49:19,0.0
-12853.25,-748.3,-24345.0,2522.675,-724.3475,533.1825,2025-01-29 11:49:19,0.0
-12761.25,-480.3,-24393.0,2704.675,-683.3475,477.1825,2025-01-29 11:49:19,0.0
-13001.25,291.7,-24505.0,2813.675,-785.3475,321.1825,2025-01-29 11:49:19,0.0
-13749.25,895.7,-24717.0,2715.675,-863.3475,314.1825,2025-01-29 11:49:19,0.0
-13861.25,1067.7,-25041.0,2588.675,-936.3475,479.1825,2025-01-29 11:49:19,0.0
-13761.25,787.7,-25093.0,2662.675,-1153.3475,518.1825,2025-01-29 11:49:19,0.0
-13617.25,7.699999999999989,-25137.0,2731.675,-1045.3475,309.1825,2025-01-29 11:49:19,0.0
-13401.25,-644.3,-25221.0,2865.675,-435.34749999999997,319.1825,2025-01-29 11:49:19,0.0
-13489.25,-1020.3,-25225.0,2871.675,448.65250000000003,454.1825,2025-01-29 11:49:19,0.0
-14281.25,-968.3,-25033.0,2611.675,1544.6525,759.1825,2025-01-29 11:49:19,0.0
-14917.25,-292.3,-24409.0,2345.675,1903.6525,1117.1825,2025-01-29 11:49:19,0.0
-15749.25,67.69999999999999,-24129.0,2221.675,1384.6525,1410.1825,2025-01-29 11:49:19,0.0
-17073.25,-112.30000000000001,-24933.0,2074.675,1450.6525,2018.1825,2025-01-29 11:49:19,0.0
-18185.25,-684.3,-26205.0,2206.675,2714.6525,2995.1825,2025-01-29 11:49:19,0.0
-18741.25,-212.3,-27889.0,2216.675,3484.6525,3905.1825,2025-01-29 11:49:19,0.0
-17805.25,515.7,-29285.0,1387.675,2212.6525,4326.1825,2025-01-29 11:49:19,0.0
-16173.25,1631.7,-29525.0,661.675,-570.3475,3529.1825,2025-01-29 11:49:19,0.0
-14713.25,1783.7,-29933.0,78.67500000000001,-3606.3475,1700.1825,2025-01-29 11:49:20,0.0
-13973.25,995.7,-29433.0,-185.325,-4480.3475,958.1825,2025-01-29 11:49:20,0.0
-12381.25,-264.3,-28189.0,-327.325,-4886.3475,870.1825,2025-01-29 11:49:20,0.0
-9961.25,-1796.3,-26345.0,258.675,-5335.3475,758.1825,2025-01-29 11:49:20,0.0
-8141.25,-3352.3,-26601.0,1745.675,-4110.3475,653.1825,2025-01-29 11:49:20,0.0
-7621.25,-4624.3,-27625.0,2618.675,-330.34749999999997,195.1825,2025-01-29 11:49:20,0.0
-8561.25,-5008.3,-28189.0,2899.675,3734.6525,-281.8175,2025-01-29 11:49:20,0.0
-10821.25,-4132.3,-28305.0,2746.675,5961.6525,55.182500000000005,2025-01-29 11:49:20,0.0
-12161.25,-2356.3,-27665.0,2576.675,6538.6525,601.1825,2025-01-29 11:49:20,0.0
-12945.25,-884.3,-27357.0,2125.675,6162.6525,125.1825,2025-01-29 11:49:20,0.0
-14253.25,251.7,-27485.0,1443.675,3999.6525,-933.8175,2025-01-29 11:49:20,0.0
-14449.25,-148.3,-28581.0,848.675,878.6525,-1377.8175,2025-01-29 11:49:20,0.0
-13941.25,-684.3,-28741.0,506.675,-1382.3475,-1546.8175,2025-01-29 11:49:20,0.0
-13497.25,-1284.3,-27937.0,189.675,-2572.3475,-1682.8175,2025-01-29 11:49:20,0.0
-12697.25,-1840.3,-27221.0,-175.325,-3053.3475,-1655.8175,2025-01-29 11:49:20,0.0
-11661.25,-2824.3,-25921.0,-188.325,-2936.3475,-1513.8175,2025-01-29 11:49:20,0.0
-10701.25,-3840.3,-25201.0,8.675000000000011,-2044.3475,-1468.8175,2025-01-29 11:49:20,0.0
-10685.25,-4064.3,-25045.0,240.675,-544.3475,-1355.8175,2025-01-29 11:49:20,0.0
-11369.25,-3760.3,-25473.0,380.675,841.6525,-1107.8175,2025-01-29 11:49:20,0.0
-11709.25,-3100.3,-25837.0,522.675,1643.6525,-975.8175,2025-01-29 11:49:20,0.0
-12693.25,-2396.3,-25897.0,574.675,1791.6525,-939.8175,2025-01-29 11:49:20,
-13533.25,-1720.3,-26341.0,582.675,1033.6525,-870.8175,2025-01-29 11:49:20,0.0
-14557.25,-1760.3,-26101.0,367.675,-522.3475,-418.8175,2025-01-29 11:49:20,0.0
-14541.25,-2260.3,-25865.0,200.675,-1915.3475,51.182500000000005,2025-01-29 11:49:20,0.0
-14073.25,-2720.3,-24633.0,62.67500000000001,-3313.3475,334.1825,2025-01-29 11:49:20,0.0
-12961.25,-2552.3,-23697.0,328.675,-3918.3475,408.1825,2025-01-29 11:49:20,0.0
-11937.25,-1964.3,-23641.0,573.675,-3514.3475,370.1825,2025-01-29 11:49:20,0.0
-11521.25,-1200.3,-24069.0,330.675,-2357.3475,302.1825,2025-01-29 11:49:20,0.0
-11965.25,-924.3,-24585.0,-421.325,-628.3475,331.1825,2025-01-29 11:49:20,0.0
-12053.25,-1132.3,-25025.0,-1249.325,686.6525,337.1825,2025-01-29 11:49:20,0.0
-11889.25,-1152.3,-25877.0,-2127.325,1441.6525,191.1825,2025-01-29 11:49:20,0.0
-12065.25,-1116.3,-26809.0,-3294.325,2161.6525,-581.8175,2025-01-29 11:49:20,0.0
-12901.25,-1156.3,-26437.0,-3934.325,2035.6525,-1520.8175,2025-01-29 11:49:20,0.0
-13409.25,-932.3,-26441.0,-4172.325,1230.6525,-2202.8175,2025-01-29 11:49:20,0.0
-13877.25,-1132.3,-26753.0,-4526.325,262.65250000000003,-2550.8175,2025-01-29 11:49:20,0.0
-13993.25,-2080.3,-25729.0,-4516.325,-348.34749999999997,-2702.8175,2025-01-29 11:49:20,0.0
-14213.25,-3004.3,-25777.0,-4624.325,-613.3475,-2694.8175,2025-01-29 11:49:20,0.0
-14997.25,-3688.3,-24409.0,-4795.325,-827.3475,-2449.8175,2025-01-29 11:49:20,0.0
-15421.25,-4112.3,-25021.0,-4950.325,-1266.3475,-2171.8175,2025-01-29 11:49:20,0.0
-15449.25,-2724.3,-26737.0,-4994.325,-1623.3475,-2154.8175,2025-01-29 11:49:20,0.0
-15553.25,-2628.3,-27313.0,-4621.325,-1685.3475,-2067.8175,2025-01-29 11:49:20,0.0
-15533.25,-3744.3,-26561.0,-3865.325,-1939.3475,-1529.8175,2025-01-29 11:49:20,0.0
-14693.25,-4460.3,-26553.0,-2541.325,-2336.3475,-953.8175,2025-01-29 11:49:20,0.0
-13701.25,-4696.3,-27813.0,-1457.325,-2258.3475,-588.8175,2025-01-29 11:49:20,0.0
-13513.25,-4776.3,-27293.0,104.67500000000001,-988.3475,-790.8175,2025-01-29 11:49:20,0.0
-12805.25,-4040.3,-27901.0,1385.675,-314.34749999999997,-1343.8175,2025-01-29 11:49:20,0.0
-13517.25,-2292.3,-27397.0,1668.675,-613.3475,-1581.8175,2025-01-29 11:49:20,0.0
-13753.25,319.7,-27965.0,1046.675,-1583.3475,-581.8175,2025-01-29 11:49:20,0.0
-12441.25,815.7,-28713.0,-499.325,-2312.3475,315.1825,2025-01-29 11:49:20,0.0
-10985.25,1435.7,-27773.0,-1287.325,-2326.3475,593.1825,2025-01-29 11:49:20,0.0
-10353.25,1831.7,-26993.0,-1643.325,-1673.3475,508.1825,2025-01-29 11:49:20,0.0
-10153.25,1311.7,-26425.0,-1954.325,-216.3475,70.1825,2025-01-29 11:49:20,0.0
-10893.25,-680.3,-26381.0,-1767.325,1741.6525,-289.8175,2025-01-29 11:49:20,0.0
-11749.25,-1840.3,-26233.0,-1012.325,3116.6525,-109.8175,2025-01-29 11:49:20,0.0
-12345.25,-1952.3,-27097.0,-580.325,3534.6525,206.1825,2025-01-29 11:49:20,0.0
-12761.25,-868.3,-28437.0,-606.325,3001.6525,259.1825,2025-01-29 11:49:20,0.0
-13397.25,283.7,-28981.0,-1071.325,2385.6525,58.182500000000005,2025-01-29 11:49:20,0.0
-14217.25,1239.7,-28789.0,-1675.325,1397.6525,105.1825,2025-01-29 11:49:20,0.0
-13669.25,2051.7,-28829.0,-2388.325,-256.34749999999997,197.1825,2025-01-29 11:49:20,0.0
-12841.25,1787.7,-27809.0,-3089.325,-1122.3475,-290.8175,2025-01-29 11:49:20,0.0
-12129.25,1323.7,-27113.0,-3549.325,-919.3475,-620.8175,2025-01-29 11:49:20,0.0
-11157.25,795.7,-26733.0,-3865.325,-78.3475,-884.8175,2025-01-29 11:49:21,0.0
-10573.25,347.7,-26553.0,-4155.325,923.6525,-1470.8175,2025-01-29 11:49:21,0.0
-10789.25,47.69999999999999,-26201.0,-4232.325,2052.6525,-2012.8175,2025-01-29 11:49:21,0.0
-11333.25,-280.3,-26081.0,-4336.325,2951.6525,-2331.8175,2025-01-29 11:49:21,0.0
-11941.25,-252.3,-25885.0,-4445.325,3038.6525,-2578.8175,2025-01-29 11:49:21,0.0
-12649.25,75.69999999999999,-26537.0,-4578.325,2686.6525,-2743.8175,2025-01-29 11:49:21,0.0
-13069.25,547.7,-26617.0,-4994.325,1837.6525,-3015.8175,2025-01-29 11:49:21,0.0
-13201.25,719.7,-26821.0,-5199.325,1170.6525,-3215.8175,2025-01-29 11:49:21,0.0
-12909.25,483.7,-26713.0,-5522.325,721.6525,-3523.8175,2025-01-29 11:49:21,0.0
-12653.25,431.7,-26525.0,-5702.325,367.65250000000003,-3903.8175,2025-01-29 11:49:21,0.0
-12525.25,475.7,-26433.0,-5899.325,306.65250000000003,-4107.8175,2025-01-29 11:49:21,0.0
-12277.25,391.7,-26273.0,-6147.325,461.65250000000003,-4237.8175,2025-01-29 11:49:21,0.0
-12189.25,-8.300000000000011,-26177.0,-6351.325,723.6525,-4381.8175,2025-01-29 11:49:21,0.0
-12217.25,-216.3,-26505.0,-6419.325,948.6525,-4590.8175,2025-01-29 11:49:21,0.0
-12781.25,-448.3,-26665.0,-6273.325,802.6525,-4648.8175,2025-01-29 11:49:21,0.0
-13153.25,-380.3,-26605.0,-5901.325,386.65250000000003,-4837.8175,2025-01-29 11:49:21,0.0
-13393.25,-312.3,-26757.0,-5709.325,15.652500000000003,-5291.8175,2025-01-29 11:49:21,0.0
-13797.25,375.7,-26885.0,-5686.325,-649.3475,-5818.8175,2025-01-29 11:49:21,0.0
-14101.25,959.7,-27053.0,-5982.325,-1326.3475,-6101.8175,2025-01-29 11:49:21,0.0
-13837.25,1379.7,-26721.0,-6699.325,-1973.3475,-6398.8175,2025-01-29 11:49:21,0.0
-13417.25,1095.7,-25953.0,-7386.325,-2394.3475,-6615.8175,2025-01-29 11:49:21,0.0
-12829.25,727.7,-24861.0,-7609.325,-2408.3475,-6982.8175,2025-01-29 11:49:21,0.0
-12661.25,-36.30000000000001,-24629.0,-7458.325,-1907.3475,-7164.8175,2025-01-29 11:49:21,0.0
-12581.25,-860.3,-25145.0,-6986.325,-1192.3475,-7093.8175,2025-01-29 11:49:21,0.0
-12541.25,-1316.3,-25857.0,-6399.325,-472.34749999999997,-7041.8175,2025-01-29 11:49:21,0.0
-13417.25,-1612.3,-26633.0,-5971.325,362.65250000000003,-6800.8175,2025-01-29 11:49:21,0.0
-14389.25,-2724.3,-27105.0,-5751.325,1308.6525,-6377.8175,2025-01-29 11:49:21,0.0
-15153.25,-3136.3,-28781.0,-5481.325,1249.6525,-5494.8175,2025-01-29 11:49:21,0.0
-15165.25,-2372.3,-30049.0,-5348.325,283.65250000000003,-4360.8175,2025-01-29 11:49:21,0.0
-13917.25,-804.3,-29621.0,-5171.325,-1188.3475,-3688.8175,2025-01-29 11:49:21,0.0
-12777.25,879.7,-28077.0,-5287.325,-2791.3475,-3318.8175,2025-01-29 11:49:21,0.0
-11257.25,1567.7,-26389.0,-5223.325,-3474.3475,-3368.8175,2025-01-29 11:49:21,0.0
-10069.25,495.7,-25813.0,-5324.325,-2135.3475,-4299.8175,2025-01-29 11:49:21,0.0
-10709.25,-1048.3,-25609.0,-5554.325,-226.3475,-4693.8175,2025-01-29 11:49:21,0.0
-10889.25,-1684.3,-27193.0,-5356.325,1115.6525,-4708.8175,2025-01-29 11:49:21,0.0
-11217.25,-1712.3,-28877.0,-5710.325,2362.6525,-4961.8175,2025-01-29 11:49:21,0.0
-12181.25,-1852.3,-28625.0,-6395.325,2836.6525,-5355.8175,2025-01-29 11:49:21,0.0
-13249.25,-1964.3,-27885.0,-7092.325,2341.6525,-5642.8175,2025-01-29 11:49:21,0.0
-13529.25,-2256.3,-27001.0,-7960.325,493.65250000000003,-6071.8175,2025-01-29 11:49:21,0.0
-12909.25,-2436.3,-27321.0,-8461.325,-696.3475,-6696.8175,2025-01-29 11:49:21,0.0
-12301.25,-2564.3,-27617.0,-8889.325,-694.3475,-7248.8175,2025-01-29 11:49:21,0.0
-12097.25,-2684.3,-27509.0,-9224.325,-314.34749999999997,-7638.8175,2025-01-29 11:49:21,0.0
-11925.25,-2444.3,-27437.0,-9562.325,178.6525,-8249.8175,2025-01-29 11:49:21,0.0
-12205.25,-2364.3,-27721.0,-9896.325,197.6525,-8606.8175,2025-01-29 11:49:21,0.0
-12485.25,-2580.3,-27717.0,-10208.325,-211.3475,-8692.8175,2025-01-29 11:49:21,0.0
-12457.25,-2532.3,-27657.0,-10542.325,-795.3475,-8511.8175,2025-01-29 11:49:21,0.0
-12245.25,-2500.3,-27813.0,-10745.325,-1388.3475,-8258.8175,2025-01-29 11:49:21,0.0
-11965.25,-2560.3,-27957.0,-11085.325,-1793.3475,-7872.8175,2025-01-29 11:49:21,0.0
-11705.25,-3100.3,-27961.0,-11567.325,-1819.3475,-7592.8175,2025-01-29 11:49:21,0.0
-11721.25,-3644.3,-28061.0,-11969.325,-1797.3475,-7569.8175,2025-01-29 11:49:21,0.0
-11913.25,-3692.3,-28101.0,-12252.325,-1960.3475,-7708.8175,2025-01-29 11:49:21,0.0
-12041.25,-3412.3,-28373.0,-12327.325,-2146.3475,-7895.8175,2025-01-29 11:49:21,0.0
-12421.25,-2708.3,-28325.0,-12421.325,-2536.3475,-8003.8175,2025-01-29 11:49:21,0.0
-12565.25,-2500.3,-27809.0,-12547.325,-2670.3475,-7961.8175,2025-01-29 11:49:21,0.0
-12321.25,-2400.3,-27565.0,-12810.325,-2407.3475,-8255.8175,2025-01-29 11:49:21,0.0
-12077.25,-2216.3,-27521.0,-13360.325,-2274.3475,-8803.8175,2025-01-29 11:49:21,0.0
-12217.25,-2668.3,-27229.0,-14008.325,-2264.3475,-9022.8175,2025-01-29 11:49:21,0.0
-11817.25,-3240.3,-27321.0,-14186.325,-2056.3475,-9207.8175,2025-01-29 11:49:21,0.0
-11417.25,-3836.3,-27409.0,-14633.325,-1669.3475,-9547.8175,2025-01-29 11:49:21,0.0
-11761.25,-4156.3,-27221.0,-15047.325,-943.3475,-9965.8175,2025-01-29 11:49:21,
-12329.25,-3756.3,-27221.0,-15399.325,-446.34749999999997,-10222.8175,2025-01-29 11:49:22,0.0
-12837.25,-3072.3,-27133.0,-15902.325,-901.3475,-10296.8175,2025-01-29 11:49:22,0.0
-13297.25,-2564.3,-26953.0,-16578.325,-2239.3475,-10225.8175,2025-01-29 11:49:22,0.0
-13009.25,-2648.3,-27201.0,-17345.325,-3979.3475,-9946.8175,2025-01-29 11:49:22,0.0
-12021.25,-2996.3,-27485.0,-18208.325,-5116.3475,-9777.8175,2025-01-29 11:49:22,0.0
-11545.25,-3376.3,-27677.0,-18964.325,-5209.3475,-9612.8175,2025-01-29 11:49:22,0.0
-11161.25,-3760.3,-27481.0,-19349.325,-4664.3475,-9581.8175,2025-01-29 11:49:22,0.0
-10729.25,-4008.3,-27241.0,-19574.325,-3843.3475,-9448.8175,2025-01-29 11:49:22,0.0
-10981.25,-4320.3,-27077.0,-19519.325,-2812.3475,-8945.8175,2025-01-29 11:49:22,0.0
-11369.25,-5172.3,-27397.0,-18735.325,-1593.3475,-8033.8175,2025-01-29 11:49:22,0.0
-12057.25,-5736.3,-27681.0,-17201.325,-100.3475,-7696.8175,2025-01-29 11:49:22,0.0
-13089.25,-5448.3,-27629.0,-15518.325,1205.6525,-7546.8175,2025-01-29 11:49:22,0.0
-14165.25,-3848.3,-27897.0,-14569.325,1228.6525,-7262.8175,2025-01-29 11:49:22,0.0
-14053.25,-1508.3,-27829.0,-14342.325,21.652500000000003,-6627.8175,2025-01-29 11:49:22,0.0
-12169.25,435.7,-27205.0,-14600.325,-1788.3475,-6918.8175,2025-01-29 11:49:22,0.0
-11433.25,1663.7,-26309.0,-15083.325,-1734.3475,-7295.8175,2025-01-29 11:49:22,0.0
-11085.25,2411.7,-26109.0,-15828.325,-458.34749999999997,-7622.8175,2025-01-29 11:49:22,0.0
-10965.25,1867.7,-26309.0,-16641.325,1853.6525,-8425.8175,2025-01-29 11:49:22,0.0
-12249.25,859.7,-26657.0,-16901.325,3348.6525,-9007.8175,2025-01-29 11:49:22,0.0
-14229.25,179.7,-27637.0,-16901.325,3753.6525,-9275.8175,2025-01-29 11:49:22,0.0
-15501.25,-100.30000000000001,-28405.0,-16932.325,2665.6525,-9088.8175,2025-01-29 11:49:22,0.0
-15845.25,-820.3,-27873.0,-16765.325,506.65250000000003,-8764.8175,2025-01-29 11:49:22,0.0
-15689.25,-1392.3,-26593.0,-16253.325,-1559.3475,-8406.8175,2025-01-29 11:49:22,0.0
-14573.25,-1568.3,-26013.0,-15722.325,-2462.3475,-8121.8175,2025-01-29 11:49:22,0.0
-13189.25,-1584.3,-25469.0,-15161.325,-2667.3475,-7996.8175,2025-01-29 11:49:22,0.0
-12261.25,-1348.3,-24933.0,-14334.325,-1748.3475,-7715.8175,2025-01-29 11:49:22,0.0
-12049.25,-824.3,-24537.0,-13601.325,-327.34749999999997,-7508.8175,2025-01-29 11:49:22,0.0
-12033.25,-572.3,-24929.0,-12843.325,643.6525,-7428.8175,2025-01-29 11:49:22,0.0
-12529.25,-296.3,-25125.0,-12260.325,883.6525,-7256.8175,2025-01-29 11:49:22,0.0
-12529.25,43.69999999999999,-25601.0,-11770.325,857.6525,-7153.8175,2025-01-29 11:49:22,0.0
-13109.25,287.7,-25509.0,-11343.325,793.6525,-7192.8175,2025-01-29 11:49:22,0.0
-13437.25,427.7,-25465.0,-10954.325,520.6525,-7227.8175,2025-01-29 11:49:22,0.0
-13369.25,551.7,-25621.0,-10571.325,53.6525,-7219.8175,2025-01-29 11:49:22,0.0
-13493.25,591.7,-25877.0,-10228.325,-197.3475,-7089.8175,2025-01-29 11:49:22,0.0
-13597.25,555.7,-25961.0,-9999.325,-253.3475,-6959.8175,2025-01-29 11:49:22,0.0
-13477.25,719.7,-25917.0,-9848.325,-453.34749999999997,-6773.8175,2025-01-29 11:49:22,0.0
-13433.25,715.7,-25765.0,-9514.325,-611.3475,-6582.8175,2025-01-29 11:49:22,0.0
-12953.25,847.7,-25697.0,-9148.325,-756.3475,-6466.8175,2025-01-29 11:49:22,0.0
-13093.25,543.7,-25677.0,-8909.325,-824.3475,-6380.8175,2025-01-29 11:49:22,0.0
-13053.25,99.69999999999999,-25357.0,-8448.325,-401.34749999999997,-6163.8175,2025-01-29 11:49:22,0.0
-13129.25,-80.30000000000001,-25089.0,-7907.325,36.6525,-5868.8175,2025-01-29 11:49:22,0.0
-13517.25,-0.30000000000001137,-24877.0,-7346.325,329.65250000000003,-5548.8175,2025-01-29 11:49:22,0.0
-13849.25,-32.30000000000001,-24837.0,-6756.325,595.6525,-5249.8175,2025-01-29 11:49:22,0.0
-13901.25,63.69999999999999,-24733.0,-6082.325,763.6525,-4902.8175,2025-01-29 11:49:22,0.0
-13625.25,-44.30000000000001,-25129.0,-5256.325,704.6525,-4613.8175,2025-01-29 11:49:22,0.0
-13185.25,715.7,-26273.0,-4461.325,113.6525,-4304.8175,2025-01-29 11:49:22,0.0
-12729.25,1523.7,-26801.0,-4304.325,-630.3475,-4199.8175,2025-01-29 11:49:22,0.0
-12493.25,1419.7,-25605.0,-3782.325,-752.3475,-3883.8175,2025-01-29 11:49:22,0.0
-11493.25,383.7,-24601.0,-3258.325,-169.3475,-3886.8175,2025-01-29 11:49:22,0.0
-10469.25,-436.3,-24185.0,-2749.325,-546.3475,-5273.8175,2025-01-29 11:49:22,0.0
-11081.25,-1188.3,-24501.0,-2358.325,-796.3475,-6646.8175,2025-01-29 11:49:22,0.0
-11729.25,-1372.3,-25057.0,-1637.325,65.6525,-7028.8175,2025-01-29 11:49:22,0.0
-12453.25,-1316.3,-27329.0,-1349.325,1717.6525,-6963.8175,2025-01-29 11:49:22,0.0
-15073.25,-1220.3,-29233.0,-2088.325,4294.6525,-6318.8175,2025-01-29 11:49:22,0.0
-16753.25,-2084.3,-30085.0,-3152.325,5898.6525,-5156.8175,2025-01-29 11:49:22,0.0
-16905.25,-3688.3,-27669.0,-3504.325,3642.6525,-4510.8175,2025-01-29 11:49:22,0.0
-16441.25,-4616.3,-25189.0,-2084.325,-1667.3475,-4155.8175,2025-01-29 11:49:22,0.0
-15185.25,-4432.3,-25409.0,-806.325,-5223.3475,-3725.8175,2025-01-29 11:49:22,0.0
-12869.25,-4116.3,-26005.0,-941.325,-5388.3475,-3536.8175,2025-01-29 11:49:22,0.0
-11825.25,-3672.3,-25393.0,-939.325,-3376.3475,-3361.8175,2025-01-29 11:49:22,0.0
-10809.25,-3032.3,-25657.0,-816.325,-814.3475,-3175.8175,2025-01-29 11:49:22,0.0
-10949.25,-2180.3,-26301.0,-909.325,1732.6525,-3449.8175,2025-01-29 11:49:23,0.0
-11945.25,-1968.3,-26257.0,-1129.325,3547.6525,-3831.8175,2025-01-29 11:49:23,0.0
-13717.25,-2440.3,-26485.0,-1427.325,3720.6525,-4013.8175,2025-01-29 11:49:23,0.0
-15233.25,-2948.3,-26473.0,-1356.325,1628.6525,-4033.8175,2025-01-29 11:49:23,0.0
-15517.25,-3496.3,-27005.0,-1452.325,-531.3475,-3897.8175,2025-01-29 11:49:23,0.0
-14709.25,-3676.3,-27217.0,-1634.325,-2229.3475,-3803.8175,2025-01-29 11:49:23,0.0
-13885.25,-3528.3,-26893.0,-1802.325,-2901.3475,-3561.8175,2025-01-29 11:49:23,0.0
-12201.25,-3144.3,-26725.0,-1968.325,-2878.3475,-3212.8175,2025-01-29 11:49:23,0.0
-11053.25,-2912.3,-26013.0,-2324.325,-1670.3475,-3053.8175,2025-01-29 11:49:23,0.0
-10909.25,-2680.3,-25805.0,-2711.325,-167.3475,-3070.8175,2025-01-29 11:49:23,0.0
-11477.25,-2560.3,-25753.0,-2926.325,1153.6525,-2884.8175,2025-01-29 11:49:23,0.0
-12305.25,-2908.3,-25665.0,-3156.325,1592.6525,-2565.8175,2025-01-29 11:49:23,0.0
-12997.25,-3560.3,-25473.0,-3209.325,1405.6525,-2075.8175,2025-01-29 11:49:23,0.0
-13061.25,-4236.3,-25457.0,-2979.325,882.6525,-1531.8175,2025-01-29 11:49:23,0.0
-13073.25,-4708.3,-25245.0,-2511.325,355.65250000000003,-987.8175,2025-01-29 11:49:23,0.0
-13517.25,-4628.3,-25057.0,-1957.325,290.65250000000003,-245.8175,2025-01-29 11:49:23,0.0
-13253.25,-4264.3,-25329.0,-1564.325,223.6525,292.1825,2025-01-29 11:49:23,0.0
-13197.25,-3952.3,-25757.0,-1397.325,229.6525,826.1825,2025-01-29 11:49:23,0.0
-13129.25,-3928.3,-25837.0,-1319.325,348.65250000000003,1363.1825,2025-01-29 11:49:23,0.0
-13465.25,-3560.3,-26101.0,-1261.325,344.65250000000003,2157.1825,2025-01-29 11:49:23,0.0
-13365.25,-3572.3,-26269.0,-1317.325,18.652500000000003,3005.1825,2025-01-29 11:49:23,0.0
-13281.25,-3332.3,-26417.0,-1173.325,-424.34749999999997,3437.1825,2025-01-29 11:49:23,0.0
-13381.25,-2928.3,-26649.0,-1051.325,-334.34749999999997,3296.1825,2025-01-29 11:49:23,0.0
-13941.25,-2448.3,-27457.0,-734.325,-126.3475,2860.1825,2025-01-29 11:49:23,0.0
-14253.25,-1904.3,-28245.0,-167.325,157.6525,2047.1825,2025-01-29 11:49:23,0.0
-14337.25,-1024.3,-28329.0,473.675,-1257.3475,972.1825,2025-01-29 11:49:23,0.0
-14009.25,-928.3,-27225.0,457.675,-3623.3475,786.1825,2025-01-29 11:49:23,0.0
-12409.25,-1188.3,-26517.0,285.675,-4571.3475,1025.1825,2025-01-29 11:49:23,0.0
-10621.25,-1396.3,-26269.0,-94.32499999999999,-3995.3475,807.1825,2025-01-29 11:49:23,0.0
-9961.25,-1640.3,-26269.0,-662.325,-1693.3475,404.1825,2025-01-29 11:49:23,0.0
-10537.25,-2044.3,-26221.0,-1036.325,1372.6525,304.1825,2025-01-29 11:49:23,0.0
-11601.25,-2220.3,-25997.0,-896.325,2907.6525,380.1825,2025-01-29 11:49:23,0.0
-12721.25,-1976.3,-26145.0,-730.325,3107.6525,322.1825,2025-01-29 11:49:23,0.0
-13757.25,-1712.3,-26329.0,-547.325,2218.6525,240.1825,2025-01-29 11:49:23,0.0
-14325.25,-1396.3,-26505.0,-313.325,746.6525,258.1825,2025-01-29 11:49:23,0.0
-14153.25,-1124.3,-26477.0,-224.325,-632.3475,277.1825,2025-01-29 11:49:23,0.0
-13533.25,-1020.3,-26161.0,-278.325,-1038.3475,290.1825,2025-01-29 11:49:23,0.0
-12945.25,-1300.3,-26133.0,-195.325,-724.3475,320.1825,2025-01-29 11:49:23,0.0
-12553.25,-1496.3,-26361.0,-53.32499999999999,337.65250000000003,357.1825,2025-01-29 11:49:23,
-12345.25,-1520.3,-27033.0,90.67500000000001,1198.6525,250.1825,2025-01-29 11:49:23,0.0
-12625.25,-1264.3,-26961.0,205.675,1583.6525,-51.817499999999995,2025-01-29 11:49:23,0.0
-13185.25,-852.3,-26589.0,143.675,1272.6525,-153.8175,2025-01-29 11:49:23,0.0
-13649.25,-616.3,-26121.0,111.67500000000001,659.6525,-101.8175,2025-01-29 11:49:23,0.0
-13757.25,-488.3,-26437.0,-43.32499999999999,48.6525,-27.817499999999995,2025-01-29 11:49:23,0.0
-13725.25,-496.3,-26725.0,-223.325,-149.3475,-41.817499999999995,2025-01-29 11:49:23,0.0
-13193.25,-564.3,-26657.0,-348.325,-301.34749999999997,-98.8175,2025-01-29 11:49:23,0.0
-12913.25,-1116.3,-26029.0,-410.325,-489.34749999999997,-248.8175,2025-01-29 11:49:23,0.0
-12865.25,-1472.3,-25669.0,-348.325,-292.34749999999997,-227.8175,2025-01-29 11:49:23,0.0
-12645.25,-1520.3,-25865.0,-202.325,114.6525,-194.8175,2025-01-29 11:49:23,0.0
-12765.25,-1404.3,-25957.0,-104.32499999999999,509.65250000000003,-199.8175,2025-01-29 11:49:23,0.0
-13069.25,-1412.3,-26265.0,-27.32499999999999,769.6525,-142.8175,2025-01-29 11:49:23,0.0
-13133.25,-1352.3,-26417.0,105.67500000000001,826.6525,-125.8175,2025-01-29 11:49:23,0.0
-13225.25,-1352.3,-26597.0,173.675,632.6525,-141.8175,2025-01-29 11:49:23,0.0
-13345.25,-1524.3,-26945.0,214.675,95.6525,-97.8175,2025-01-29 11:49:23,0.0
-13113.25,-1860.3,-26697.0,347.675,-144.3475,-20.817499999999995,2025-01-29 11:49:23,0.0
-13009.25,-1784.3,-26601.0,355.675,-45.3475,3.1825000000000045,2025-01-29 11:49:23,0.0
-12953.25,-1772.3,-26561.0,372.675,129.6525,16.182500000000005,2025-01-29 11:49:23,0.0
-13073.25,-1532.3,-26309.0,323.675,262.65250000000003,31.182500000000005,2025-01-29 11:49:23,0.0
-13173.25,-1280.3,-26309.0,281.675,233.6525,1.1825000000000045,2025-01-29 11:49:23,0.0
-13173.25,-1264.3,-26329.0,197.675,-57.3475,-14.817499999999995,2025-01-29 11:49:23,0.0
-13193.25,-1376.3,-26461.0,112.67500000000001,-367.34749999999997,19.182500000000005,2025-01-29 11:49:24,0.0
-12849.25,-1332.3,-26365.0,84.67500000000001,-400.34749999999997,-2.8174999999999955,2025-01-29 11:49:24,0.0
-12677.25,-1424.3,-26305.0,44.67500000000001,-221.3475,6.1825000000000045,2025-01-29 11:49:24,0.0
-12689.25,-1644.3,-26349.0,45.67500000000001,57.6525,13.182500000000005,2025-01-29 11:49:24,0.0
-12749.25,-1744.3,-26529.0,31.67500000000001,402.65250000000003,14.182500000000005,2025-01-29 11:49:24,0.0
-13021.25,-1676.3,-26773.0,42.67500000000001,602.6525,-46.817499999999995,2025-01-29 11:49:24,0.0
-13229.25,-1572.3,-26729.0,7.675000000000011,418.65250000000003,-66.8175,2025-01-29 11:49:24,0.0
-13305.25,-1372.3,-26721.0,-4.324999999999989,57.6525,-59.817499999999995,2025-01-29 11:49:24,0.0
-13201.25,-1460.3,-26649.0,-80.32499999999999,-339.34749999999997,-33.817499999999995,2025-01-29 11:49:24,0.0
-12849.25,-1576.3,-26461.0,-111.32499999999999,-345.34749999999997,4.1825000000000045,2025-01-29 11:49:24,0.0
-12733.25,-1744.3,-26321.0,-68.32499999999999,-85.3475,10.182500000000005,2025-01-29 11:49:24,0.0
-12633.25,-1736.3,-26457.0,1.6750000000000114,199.6525,-20.817499999999995,2025-01-29 11:49:24,0.0
-12921.25,-1820.3,-26577.0,78.67500000000001,364.65250000000003,-46.817499999999995,2025-01-29 11:49:24,0.0
-13113.25,-1616.3,-26397.0,96.67500000000001,337.65250000000003,-38.817499999999995,2025-01-29 11:49:24,0.0
-13053.25,-1668.3,-26553.0,97.67500000000001,111.6525,-3.8174999999999955,2025-01-29 11:49:24,0.0
-13149.25,-1464.3,-26465.0,79.67500000000001,-35.3475,54.182500000000005,2025-01-29 11:49:24,0.0
-12909.25,-1540.3,-26501.0,79.67500000000001,-15.347499999999997,114.1825,2025-01-29 11:49:24,0.0
-12741.25,-1504.3,-26373.0,88.67500000000001,139.6525,132.1825,2025-01-29 11:49:24,0.0
-12765.25,-1716.3,-26489.0,103.67500000000001,307.65250000000003,72.1825,2025-01-29 11:49:24,0.0
-12973.25,-1732.3,-26381.0,164.675,333.65250000000003,37.182500000000005,2025-01-29 11:49:24,0.0
-13113.25,-1760.3,-26553.0,207.675,279.65250000000003,0.18250000000000455,2025-01-29 11:49:24,0.0
-13013.25,-1568.3,-26705.0,233.675,79.6525,33.182500000000005,2025-01-29 11:49:24,0.0
-13097.25,-1424.3,-26589.0,207.675,-0.3474999999999966,54.182500000000005,2025-01-29 11:49:24,0.0
-13045.25,-1416.3,-26625.0,142.675,17.652500000000003,79.1825,2025-01-29 11:49:24,0.0
-13017.25,-1424.3,-26517.0,90.67500000000001,55.6525,93.1825,2025-01-29 11:49:24,0.0
-12797.25,-1540.3,-26693.0,18.67500000000001,71.6525,68.1825,2025-01-29 11:49:24,0.0
-13089.25,-1596.3,-26445.0,68.67500000000001,119.6525,39.182500000000005,2025-01-29 11:49:24,0.0
-13057.25,-1648.3,-26517.0,45.67500000000001,110.6525,20.182500000000005,2025-01-29 11:49:24,0.0
-13013.25,-1532.3,-26269.0,83.67500000000001,14.652500000000003,69.1825,2025-01-29 11:49:24,0.0
-13025.25,-1624.3,-26597.0,76.67500000000001,21.652500000000003,98.1825,2025-01-29 11:49:24,0.0
-12993.25,-1512.3,-26397.0,75.67500000000001,46.6525,72.1825,2025-01-29 11:49:24,0.0
-13005.25,-1636.3,-26277.0,106.67500000000001,31.652500000000003,95.1825,2025-01-29 11:49:24,0.0
-13033.25,-1692.3,-26469.0,156.675,-126.3475,112.1825,2025-01-29 11:49:24,0.0
-13025.25,-1660.3,-26537.0,216.675,-49.3475,138.1825,2025-01-29 11:49:24,0.0
-12861.25,-1496.3,-26601.0,187.675,18.652500000000003,144.1825,2025-01-29 11:49:24,0.0
-13001.25,-1280.3,-26709.0,48.67500000000001,79.6525,127.1825,2025-01-29 11:49:24,0.0
-13173.25,-1392.3,-26473.0,-41.32499999999999,89.6525,131.1825,2025-01-29 11:49:24,0.0
-13121.25,-1240.3,-26441.0,10.675000000000011,79.6525,192.1825,2025-01-29 11:49:24,0.0
-12937.25,-1280.3,-26573.0,-11.324999999999989,85.6525,161.1825,2025-01-29 11:49:24,0.0
-12825.25,-1340.3,-26297.0,88.67500000000001,197.6525,165.1825,2025-01-29 11:49:24,0.0
-12621.25,-1536.3,-26049.0,280.675,489.65250000000003,189.1825,2025-01-29 11:49:24,0.0
-12929.25,-2040.3,-26097.0,616.675,755.6525,424.1825,2025-01-29 11:49:24,0.0
-12797.25,-2400.3,-26433.0,1021.675,1043.6525,599.1825,2025-01-29 11:49:24,0.0
-13233.25,-1992.3,-26521.0,1486.675,1345.6525,684.1825,2025-01-29 11:49:24,0.0
-13521.25,-1636.3,-26829.0,1788.675,1248.6525,710.1825,2025-01-29 11:49:24,0.0
-13817.25,-932.3,-27361.0,1940.675,816.6525,801.1825,2025-01-29 11:49:24,0.0
-13817.25,-296.3,-27405.0,1833.675,85.6525,894.1825,2025-01-29 11:49:24,0.0
-13633.25,119.69999999999999,-27021.0,1568.675,-735.3475,950.1825,2025-01-29 11:49:24,0.0
-12677.25,-100.30000000000001,-26149.0,1430.675,-1532.3475,837.1825,2025-01-29 11:49:24,0.0
-11985.25,-260.3,-25881.0,1412.675,-2163.3475,566.1825,2025-01-29 11:49:24,0.0
-11449.25,-620.3,-25873.0,1504.675,-1628.3475,410.1825,2025-01-29 11:49:24,0.0
-11405.25,-664.3,-25889.0,1458.675,-78.3475,404.1825,2025-01-29 11:49:24,0.0
-12277.25,-200.3,-26129.0,1049.675,1404.6525,200.1825,2025-01-29 11:49:24,0.0
-13361.25,-156.3,-26449.0,590.675,1551.6525,57.182500000000005,2025-01-29 11:49:24,0.0
-14149.25,15.699999999999989,-26953.0,343.675,763.6525,-113.8175,2025-01-29 11:49:24,0.0
-14221.25,3.6999999999999886,-27641.0,193.675,-586.3475,-448.8175,2025-01-29 11:49:24,0.0
-14053.25,-384.3,-27429.0,25.67500000000001,-1347.3475,-702.8175,2025-01-29 11:49:24,0.0
-13565.25,-764.3,-26597.0,-44.32499999999999,-1434.3475,-840.8175,2025-01-29 11:49:24,0.0
-12853.25,-1528.3,-25181.0,-16.32499999999999,-1297.3475,-1028.8175,2025-01-29 11:49:24,0.0
-12601.25,-2012.3,-24941.0,407.675,-1008.3475,-1143.8175,2025-01-29 11:49:24,0.0
-12189.25,-2380.3,-25777.0,766.675,-390.34749999999997,-1231.8175,2025-01-29 11:49:24,0.0
-12249.25,-2316.3,-25637.0,891.675,730.6525,-1418.8175,2025-01-29 11:49:24,0.0
-12553.25,-2892.3,-24965.0,1028.675,1751.6525,-1730.8175,2025-01-29 11:49:24,0.0
-13549.25,-3188.3,-24433.0,1115.675,2442.6525,-1981.8175,2025-01-29 11:49:24,0.0
-14577.25,-3488.3,-24117.0,888.675,2633.6525,-2122.8175,2025-01-29 11:49:25,0.0
-15801.25,-3332.3,-24069.0,658.675,1621.6525,-2121.8175,2025-01-29 11:49:25,0.0
-16341.25,-3108.3,-24325.0,638.675,266.65250000000003,-1647.8175,2025-01-29 11:49:25,0.0
-15585.25,-2808.3,-24349.0,692.675,-942.3475,-1184.8175,2025-01-29 11:49:25,0.0
-14553.25,-2864.3,-24189.0,753.675,-1737.3475,-1254.8175,2025-01-29 11:49:25,0.0
-13569.25,-3224.3,-24025.0,886.675,-2013.3475,-1475.8175,2025-01-29 11:49:25,0.0
-13137.25,-3320.3,-23841.0,1161.675,-1681.3475,-1549.8175,2025-01-29 11:49:25,0.0
-12753.25,-3048.3,-24065.0,1119.675,-1103.3475,-1436.8175,2025-01-29 11:49:25,0.0
