acceleration_x,acceleration_y,acceleration_z,gyroscope_x,gyroscope_y,gyroscope_z,timestamp,label
24.0,26.399999999999977,-36.80000000000018,20.80000000000001,4.300000000000011,-27.099999999999994,2025-01-29 11:49:01,0.0
-48.0,-1.6000000000000227,-72.80000000000018,20.80000000000001,-50.69999999999999,-40.099999999999994,2025-01-29 11:49:01,0.0
88.0,-49.60000000000002,-108.80000000000018,37.80000000000001,-79.69999999999999,-5.099999999999994,2025-01-29 11:49:01,0.0
-44.0,34.39999999999998,23.199999999999818,18.80000000000001,-88.69999999999999,8.900000000000006,2025-01-29 11:49:01,0.0
24.0,130.39999999999998,19.199999999999818,-6.199999999999989,-7.699999999999989,-5.099999999999994,2025-01-29 11:49:01,0.0
20.0,46.39999999999998,79.19999999999982,-34.19999999999999,73.30000000000001,-16.099999999999994,2025-01-29 11:49:01,0.0
16.0,-17.600000000000023,23.199999999999818,-45.19999999999999,82.30000000000001,10.900000000000006,2025-01-29 11:49:01,0.0
-40.0,-5.600000000000023,3.199999999999818,-16.19999999999999,66.30000000000001,-2.0999999999999943,2025-01-29 11:49:01,0.0
-20.0,-73.60000000000002,11.199999999999818,-7.199999999999989,9.300000000000011,44.900000000000006,2025-01-29 11:49:01,0.0
-20.0,-89.60000000000002,59.19999999999982,10.800000000000011,-8.699999999999989,30.900000000000006,2025-01-29 11:49:01,0.0
92.0,-33.60000000000002,-160.80000000000018,16.80000000000001,-3.6999999999999886,34.900000000000006,2025-01-29 11:49:01,0.0
80.0,-49.60000000000002,-8.800000000000182,14.800000000000011,46.30000000000001,50.900000000000006,2025-01-29 11:49:01,0.0
-32.0,-73.60000000000002,-136.80000000000018,48.80000000000001,66.30000000000001,36.900000000000006,2025-01-29 11:49:01,0.0
52.0,-81.60000000000002,-52.80000000000018,66.80000000000001,100.30000000000001,38.900000000000006,2025-01-29 11:49:01,0.0
0.0,18.399999999999977,-144.80000000000018,70.80000000000001,65.30000000000001,47.900000000000006,2025-01-29 11:49:01,0.0
-80.0,-41.60000000000002,-108.80000000000018,87.80000000000001,9.300000000000011,44.900000000000006,2025-01-29 11:49:02,0.0
-56.0,-9.600000000000023,-244.80000000000018,39.80000000000001,-46.69999999999999,46.900000000000006,2025-01-29 11:49:02,0.0
-52.0,-21.600000000000023,-48.80000000000018,44.80000000000001,-131.7,3.9000000000000057,2025-01-29 11:49:02,0.0
-32.0,54.39999999999998,23.199999999999818,19.80000000000001,-139.7,-5.099999999999994,2025-01-29 11:49:02,0.0
-92.0,42.39999999999998,39.19999999999982,-7.199999999999989,-105.69999999999999,21.900000000000006,2025-01-29 11:49:02,0.0
196.0,-101.60000000000002,-56.80000000000018,25.80000000000001,-202.7,14.900000000000006,2025-01-29 11:49:02,0.0
96.0,-133.60000000000002,55.19999999999982,51.80000000000001,-85.69999999999999,36.900000000000006,2025-01-29 11:49:02,0.0
128.0,-221.60000000000002,-8.800000000000182,95.80000000000001,18.30000000000001,43.900000000000006,2025-01-29 11:49:02,0.0
56.0,-121.60000000000002,-4.800000000000182,86.80000000000001,99.30000000000001,49.900000000000006,2025-01-29 11:49:02,0.0
68.0,-61.60000000000002,-80.80000000000018,37.80000000000001,-113.69999999999999,38.900000000000006,2025-01-29 11:49:02,0.0
52.0,70.39999999999998,-84.80000000000018,70.80000000000001,-65.69999999999999,31.900000000000006,2025-01-29 11:49:02,0.0
56.0,-5.600000000000023,-180.80000000000018,70.80000000000001,-80.69999999999999,16.900000000000006,2025-01-29 11:49:02,0.0
112.0,94.39999999999998,-164.80000000000018,54.80000000000001,-76.69999999999999,25.900000000000006,2025-01-29 11:49:02,0.0
-28.0,90.39999999999998,-236.80000000000018,42.80000000000001,-84.69999999999999,40.900000000000006,2025-01-29 11:49:02,0.0
0.0,10.399999999999977,-196.80000000000018,-50.19999999999999,-98.69999999999999,7.900000000000006,2025-01-29 11:49:02,0.0
52.0,-21.600000000000023,-252.80000000000018,-2.1999999999999886,-188.7,42.900000000000006,2025-01-29 11:49:02,0.0
44.0,-89.60000000000002,127.19999999999982,-36.19999999999999,-146.7,33.900000000000006,2025-01-29 11:49:02,0.0
164.0,-109.60000000000002,-32.80000000000018,16.80000000000001,-128.7,39.900000000000006,2025-01-29 11:49:02,0.0
56.0,-21.600000000000023,-136.80000000000018,18.80000000000001,-85.69999999999999,40.900000000000006,2025-01-29 11:49:02,0.0
16.0,-65.60000000000002,-120.80000000000018,-0.19999999999998863,-35.69999999999999,9.900000000000006,2025-01-29 11:49:02,0.0
-48.0,-21.600000000000023,-36.80000000000018,20.80000000000001,-45.69999999999999,26.900000000000006,2025-01-29 11:49:02,0.0
60.0,-125.60000000000002,-56.80000000000018,-2.1999999999999886,-99.69999999999999,0.9000000000000057,2025-01-29 11:49:02,0.0
88.0,-89.60000000000002,-72.80000000000018,-9.199999999999989,-118.69999999999999,34.900000000000006,2025-01-29 11:49:02,0.0
24.0,-157.60000000000002,-188.80000000000018,12.800000000000011,1.3000000000000114,16.900000000000006,2025-01-29 11:49:02,0.0
-60.0,-81.60000000000002,-220.80000000000018,-32.19999999999999,-48.69999999999999,4.900000000000006,2025-01-29 11:49:02,0.0
-36.0,30.399999999999977,-72.80000000000018,-29.19999999999999,-82.69999999999999,35.900000000000006,2025-01-29 11:49:02,0.0
16.0,22.399999999999977,-176.80000000000018,-20.19999999999999,-254.7,16.900000000000006,2025-01-29 11:49:02,0.0
32.0,-153.60000000000002,-256.8000000000002,-16.19999999999999,-272.7,11.900000000000006,2025-01-29 11:49:02,0.0
128.0,-77.60000000000002,11.199999999999818,11.800000000000011,-173.7,28.900000000000006,2025-01-29 11:49:02,0.0
144.0,-157.60000000000002,11.199999999999818,58.80000000000001,-57.69999999999999,58.900000000000006,2025-01-29 11:49:02,0.0
-20.0,50.39999999999998,71.19999999999982,63.80000000000001,-19.69999999999999,86.9,2025-01-29 11:49:02,0.0
-64.0,50.39999999999998,83.19999999999982,26.80000000000001,-50.69999999999999,79.9,2025-01-29 11:49:02,0.0
-56.0,106.39999999999998,3.199999999999818,42.80000000000001,-63.69999999999999,71.9,2025-01-29 11:49:02,0.0
-80.0,-57.60000000000002,-172.80000000000018,15.800000000000011,-72.69999999999999,71.9,2025-01-29 11:49:02,0.0
-48.0,34.39999999999998,-60.80000000000018,33.80000000000001,-97.69999999999999,52.900000000000006,2025-01-29 11:49:02,0.0
80.0,50.39999999999998,3.199999999999818,40.80000000000001,-74.69999999999999,33.900000000000006,2025-01-29 11:49:02,0.0
32.0,22.399999999999977,-92.80000000000018,-31.19999999999999,-84.69999999999999,3.9000000000000057,2025-01-29 11:49:02,0.0
24.0,-13.600000000000023,-0.8000000000001819,-67.19999999999999,-58.69999999999999,15.900000000000006,2025-01-29 11:49:02,0.0
-108.0,78.39999999999998,-160.80000000000018,-72.19999999999999,-39.69999999999999,42.900000000000006,2025-01-29 11:49:02,0.0
24.0,-45.60000000000002,31.199999999999818,-83.19999999999999,19.30000000000001,9.900000000000006,2025-01-29 11:49:02,0.0
60.0,-45.60000000000002,-68.80000000000018,-40.19999999999999,-22.69999999999999,7.900000000000006,2025-01-29 11:49:02,0.0
-4.0,54.39999999999998,39.19999999999982,-59.19999999999999,-63.69999999999999,-20.099999999999994,2025-01-29 11:49:02,0.0
-96.0,2.3999999999999773,159.19999999999982,-32.19999999999999,-83.69999999999999,2.9000000000000057,2025-01-29 11:49:02,0.0
16.0,46.39999999999998,-76.80000000000018,-43.19999999999999,-85.69999999999999,16.900000000000006,2025-01-29 11:49:02,0.0
72.0,-69.60000000000002,-84.80000000000018,-33.19999999999999,-77.69999999999999,4.900000000000006,2025-01-29 11:49:02,0.0
-44.0,38.39999999999998,91.19999999999982,-33.19999999999999,-65.69999999999999,-1.0999999999999943,2025-01-29 11:49:02,0.0
-12.0,-69.60000000000002,-220.80000000000018,5.800000000000011,-4.699999999999989,22.900000000000006,2025-01-29 11:49:02,0.0
36.0,-61.60000000000002,-92.80000000000018,-4.199999999999989,-31.69999999999999,-1.0999999999999943,2025-01-29 11:49:02,0.0
72.0,30.399999999999977,-52.80000000000018,-20.19999999999999,-28.69999999999999,22.900000000000006,2025-01-29 11:49:02,0.0
44.0,-29.600000000000023,-296.8000000000002,6.800000000000011,-57.69999999999999,-19.099999999999994,2025-01-29 11:49:02,0.0
120.0,38.39999999999998,-204.80000000000018,4.800000000000011,-63.69999999999999,-15.099999999999994,2025-01-29 11:49:02,0.0
-80.0,-37.60000000000002,-188.80000000000018,11.800000000000011,-116.69999999999999,-19.099999999999994,2025-01-29 11:49:02,0.0
-44.0,-1.6000000000000227,-104.80000000000018,42.80000000000001,-105.69999999999999,-4.099999999999994,2025-01-29 11:49:03,0.0
56.0,30.399999999999977,-160.80000000000018,81.80000000000001,-111.69999999999999,-7.099999999999994,2025-01-29 11:49:03,0.0
88.0,-69.60000000000002,-16.800000000000182,145.8,-79.69999999999999,-25.099999999999994,2025-01-29 11:49:03,0.0
132.0,-137.60000000000002,-212.80000000000018,152.8,-116.69999999999999,-107.1,2025-01-29 11:49:03,0.0
-4.0,-241.60000000000002,-48.80000000000018,297.8,-151.7,-202.1,2025-01-29 11:49:03,0.0
0.0,-229.60000000000002,-188.80000000000018,273.8,-303.7,-337.1,2025-01-29 11:49:03,0.0
-160.0,-229.60000000000002,27.199999999999818,222.8,-529.7,-396.1,2025-01-29 11:49:03,0.0
-28.0,-173.60000000000002,7.199999999999818,164.8,-646.7,-394.1,2025-01-29 11:49:03,0.0
-44.0,-9.600000000000023,75.19999999999982,91.80000000000001,-589.7,-350.1,2025-01-29 11:49:03,0.0
32.0,-681.6,79.19999999999982,-1699.2,209.3,-451.1,2025-01-29 11:49:03,0.0
-176.0,-769.6,243.19999999999982,-1620.2,112.30000000000001,-416.1,2025-01-29 11:49:03,0.0
-388.0,-749.6,3.199999999999818,-1419.2,-166.7,-401.1,2025-01-29 11:49:03,0.0
-336.0,-781.6,107.19999999999982,-1243.2,-391.7,-315.1,2025-01-29 11:49:03,0.0
-272.0,-985.6,159.19999999999982,-850.2,-156.7,-82.1,2025-01-29 11:49:03,0.0
272.0,-1073.6,-696.8000000000002,-246.2,685.3,209.9,2025-01-29 11:49:03,0.0
1052.0,-1197.6,-876.8000000000002,23.80000000000001,1553.3,22.900000000000006,2025-01-29 11:49:03,0.0
568.0,-1589.6,-360.8000000000002,68.80000000000001,1241.3,94.9,2025-01-29 11:49:03,0.0
-44.0,-1025.6,223.19999999999982,363.8,986.3,491.9,2025-01-29 11:49:03,0.0
-396.0,-373.6,423.1999999999998,301.8,963.3,663.9,2025-01-29 11:49:03,0.0
-816.0,-365.6,135.19999999999982,-180.2,657.3,683.9,2025-01-29 11:49:03,0.0
-1164.0,-493.6,-496.8000000000002,-579.2,-918.7,755.9,2025-01-29 11:49:03,0.0
-816.0,-225.60000000000002,-844.8000000000002,-646.2,-2128.7,705.9,2025-01-29 11:49:03,0.0
-508.0,242.39999999999998,-708.8000000000002,-770.2,-2630.7,750.9,2025-01-29 11:49:03,0.0
24.0,434.4,-272.8000000000002,-1029.2,-2570.7,850.9,2025-01-29 11:49:03,0.0
508.0,446.4,231.19999999999982,-1411.2,-1926.7,962.9,2025-01-29 11:49:03,0.0
820.0,438.4,619.1999999999998,-1752.2,-963.7,975.9,2025-01-29 11:49:03,0.0
844.0,438.4,743.1999999999998,-2130.2,305.3,817.9,2025-01-29 11:49:03,0.0
392.0,330.4,735.1999999999998,-2377.2,1099.3,531.9,2025-01-29 11:49:03,0.0
-424.0,134.39999999999998,715.1999999999998,-2369.2,1334.3,386.9,2025-01-29 11:49:03,0.0
-880.0,266.4,715.1999999999998,-2245.2,1248.3,399.9,2025-01-29 11:49:03,0.0
-552.0,410.4,515.1999999999998,-2337.2,496.3,345.9,2025-01-29 11:49:03,0.0
972.0,754.4,83.19999999999982,-2491.2,-250.7,-158.1,2025-01-29 11:49:03,0.0
1992.0,1506.4,-452.8000000000002,-2654.2,256.3,-419.1,2025-01-29 11:49:03,
2340.0,2650.4,-228.80000000000018,-2794.2,1540.3,-526.1,2025-01-29 11:49:03,0.0
2384.0,3046.4,-60.80000000000018,-3217.2,2953.3,-964.1,2025-01-29 11:49:03,0.0
1400.0,2294.4,143.19999999999982,-3639.2,3829.3,-1596.1,2025-01-29 11:49:03,0.0
-464.0,670.4,443.1999999999998,-3710.2,4142.3,-1702.1,2025-01-29 11:49:03,0.0
-2160.0,-97.60000000000002,955.1999999999998,-3264.2,3961.3,-1310.1,2025-01-29 11:49:03,0.0
-3788.0,-193.60000000000002,2143.2,-2720.2,3724.3,-618.1,2025-01-29 11:49:03,0.0
-4884.0,278.4,2527.2,-1994.2,2940.3,364.9,2025-01-29 11:49:03,0.0
-1680.0,1542.4,2151.2,-675.2,-2553.7,1738.9,2025-01-29 11:49:03,0.0
432.0,1906.4,2283.2,-87.19999999999999,-2513.7,2021.9,2025-01-29 11:49:03,0.0
1248.0,2410.4,2363.2,43.80000000000001,-1702.7,1932.9,2025-01-29 11:49:03,0.0
1772.0,2570.4,2739.2,198.8,-607.7,1623.9,2025-01-29 11:49:03,0.0
1244.0,2374.4,2719.2,494.8,338.3,1351.9,2025-01-29 11:49:03,0.0
128.0,1694.4,2227.2,906.8,1075.3,1358.9,2025-01-29 11:49:03,0.0
-740.0,1078.4,2615.2,1399.8,1120.3,1508.9,2025-01-29 11:49:03,0.0
-1556.0,654.4,2403.2,2052.8,263.3,1645.9,2025-01-29 11:49:04,0.0
-1776.0,946.4,1883.1999999999998,2665.8,-895.7,1783.9,2025-01-29 11:49:04,0.0
-1440.0,1714.4,1699.1999999999998,2972.8,-1602.7,1936.9,2025-01-29 11:49:04,0.0
-1276.0,2450.4,1879.1999999999998,3111.8,-1595.7,2168.9,2025-01-29 11:49:04,0.0
-564.0,2606.4,2211.2,3289.8,-1090.7,2166.9,2025-01-29 11:49:04,0.0
-140.0,2330.4,2591.2,3348.8,-204.7,1793.9,2025-01-29 11:49:04,0.0
-316.0,2026.4,3003.2,3426.8,1186.3,1920.9,2025-01-29 11:49:04,0.0
-792.0,1834.4,2991.2,3602.8,2421.3,2372.9,2025-01-29 11:49:04,0.0
-1444.0,1670.4,2423.2,3599.8,3008.3,2815.9,2025-01-29 11:49:04,0.0
-3476.0,610.4,1563.1999999999998,4680.8,2175.3,3731.9,2025-01-29 11:49:04,0.0
-3756.0,118.39999999999998,1555.1999999999998,5496.8,36.30000000000001,4373.9,2025-01-29 11:49:04,0.0
-3528.0,382.4,1591.1999999999998,6014.8,-2225.7,5214.9,2025-01-29 11:49:04,0.0
-912.0,2266.4,1111.1999999999998,6040.8,-4405.7,5264.9,2025-01-29 11:49:04,0.0
1380.0,6206.4,-1516.8000000000002,5234.8,-4683.7,4261.9,2025-01-29 11:49:04,0.0
1340.0,8918.4,-3944.8,3907.8,-1053.7,3047.9,2025-01-29 11:49:04,0.0
788.0,8758.4,-5984.8,2127.8,2904.3,1600.9,2025-01-29 11:49:04,0.0
380.0,5514.4,-5872.8,669.8,3032.3,-1284.1,2025-01-29 11:49:04,0.0
-1728.0,2950.4,-3512.8,81.80000000000001,155.3,-3153.1,2025-01-29 11:49:04,0.0
-1368.0,1006.4,-2288.8,154.8,-2314.7,-3776.1,2025-01-29 11:49:04,0.0
112.0,-801.6,-1912.8000000000002,249.8,-3774.7,-4408.1,2025-01-29 11:49:04,0.0
952.0,-1905.6,-1300.8000000000002,619.8,-3552.7,-4570.1,2025-01-29 11:49:04,0.0
1224.0,-2453.6,-688.8000000000002,955.8,-1668.7,-3711.1,2025-01-29 11:49:04,0.0
1680.0,-2329.6,-656.8000000000002,884.8,188.3,-2567.1,2025-01-29 11:49:04,0.0
1752.0,-1853.6,-736.8000000000002,921.8,1191.3,-2086.1,2025-01-29 11:49:04,0.0
1664.0,-1353.6,-828.8000000000002,948.8,1382.3,-2200.1,2025-01-29 11:49:04,0.0
904.0,-1001.6,-904.8000000000002,928.8,1341.3,-2491.1,2025-01-29 11:49:04,0.0
432.0,-277.6,-540.8000000000002,839.8,1005.3,-2747.1,2025-01-29 11:49:04,0.0
484.0,338.4,-740.8000000000002,808.8,256.3,-2757.1,2025-01-29 11:49:04,0.0
928.0,570.4,-728.8000000000002,528.8,-829.7,-2531.1,2025-01-29 11:49:04,0.0
1416.0,474.4,-412.8000000000002,123.80000000000001,-1156.7,-2448.1,2025-01-29 11:49:04,0.0
1772.0,70.39999999999998,-368.8000000000002,-71.19999999999999,-985.7,-2402.1,2025-01-29 11:49:04,0.0
1896.0,-457.6,-16.800000000000182,-150.2,-541.7,-2450.1,2025-01-29 11:49:04,0.0
1892.0,-1257.6,139.19999999999982,-260.2,86.30000000000001,-2559.1,2025-01-29 11:49:04,0.0
1616.0,-1629.6,67.19999999999982,-322.2,499.3,-2597.1,2025-01-29 11:49:04,0.0
1348.0,-1981.6,143.19999999999982,-330.2,609.3,-2547.1,2025-01-29 11:49:04,0.0
1020.0,-2229.6,383.1999999999998,-219.2,764.3,-2400.1,2025-01-29 11:49:04,0.0
756.0,-2481.6,175.19999999999982,163.8,524.3,-2139.1,2025-01-29 11:49:04,0.0
376.0,-2281.6,-92.80000000000018,494.8,244.3,-1936.1,2025-01-29 11:49:04,0.0
-576.0,-1857.6,679.1999999999998,555.8,113.30000000000001,-1516.1,2025-01-29 11:49:04,0.0
-84.0,-1657.6,427.1999999999998,613.8,-223.7,-1345.1,2025-01-29 11:49:04,0.0
-192.0,-1445.6,747.1999999999998,615.8,-641.7,-1320.1,2025-01-29 11:49:04,0.0
-192.0,-1401.6,679.1999999999998,507.8,-1152.7,-1243.1,2025-01-29 11:49:04,0.0
128.0,-1481.6,479.1999999999998,361.8,-1518.7,-1071.1,2025-01-29 11:49:04,0.0
340.0,-1513.6,331.1999999999998,187.8,-1388.7,-842.1,2025-01-29 11:49:04,0.0
904.0,-1405.6,787.1999999999998,15.800000000000011,-1064.7,-691.1,2025-01-29 11:49:04,0.0
996.0,-1377.6,1011.1999999999998,-219.2,-739.7,-641.1,2025-01-29 11:49:04,0.0
972.0,-1273.6,1323.1999999999998,-536.2,-345.7,-493.1,2025-01-29 11:49:04,0.0
924.0,-1081.6,1039.1999999999998,-1113.2,-52.69999999999999,-503.1,2025-01-29 11:49:04,0.0
704.0,-1341.6,1399.1999999999998,-1570.2,243.3,-615.1,2025-01-29 11:49:04,0.0
444.0,-1945.6,819.1999999999998,-1679.2,459.3,-678.1,2025-01-29 11:49:04,0.0
192.0,-2525.6,435.1999999999998,-1925.2,864.3,-642.1,2025-01-29 11:49:04,0.0
-348.0,-2497.6,579.1999999999998,-2202.2,1378.3,-631.1,2025-01-29 11:49:04,0.0
-924.0,-1821.6,843.1999999999998,-2529.2,1386.3,-659.1,2025-01-29 11:49:04,0.0
-1420.0,-757.6,739.1999999999998,-2641.2,933.3,-993.1,2025-01-29 11:49:04,0.0
-2272.0,-405.6,299.1999999999998,-2838.2,498.3,-1139.1,2025-01-29 11:49:04,0.0
-1696.0,-1609.6,295.1999999999998,-3006.2,762.3,-1727.1,2025-01-29 11:49:04,0.0
-1968.0,-2545.6,759.1999999999998,-3028.2,670.3,-2420.1,2025-01-29 11:49:04,0.0
-2564.0,-2813.6,1647.1999999999998,-2916.2,2.3000000000000114,-2585.1,2025-01-29 11:49:04,0.0
-2576.0,-1889.6,1863.1999999999998,-2896.2,-645.7,-1841.1,2025-01-29 11:49:04,0.0
-1532.0,-1353.6,1539.1999999999998,-3431.2,-125.69999999999999,-1365.1,2025-01-29 11:49:04,0.0
-656.0,-1765.6,-920.8000000000002,-3223.2,1169.3,-1985.1,2025-01-29 11:49:04,0.0
-1648.0,-3073.6,-1884.8000000000002,-2995.2,2984.3,-2697.1,2025-01-29 11:49:05,0.0
-3236.0,-5141.6,-1680.8000000000002,-1278.2,3674.3,-3273.1,2025-01-29 11:49:05,0.0
-5300.0,-6285.6,-1704.8000000000002,1020.8,1601.3,-2485.1,2025-01-29 11:49:05,0.0
-5928.0,-5717.6,-2196.8,3050.8,-3413.7,1014.9,2025-01-29 11:49:05,0.0
-2452.0,-4201.6,-2556.8,3923.8,-5186.7,2773.9,2025-01-29 11:49:05,0.0
372.0,-2989.6,-3516.8,3770.8,-5371.7,3096.9,2025-01-29 11:49:05,0.0
1872.0,-1377.6,-3516.8,3305.8,-5017.7,3745.9,2025-01-29 11:49:05,0.0
3044.0,414.4,-3632.8,2426.8,-4161.7,4581.9,2025-01-29 11:49:05,0.0
3828.0,2814.4,-3084.8,765.8,-2367.7,5422.9,2025-01-29 11:49:05,0.0
4588.0,3962.4,-2600.8,-253.2,-639.7,5185.9,2025-01-29 11:49:05,0.0
4532.0,2970.4,-1832.8000000000002,-399.2,1478.3,3492.9,2025-01-29 11:49:05,0.0
2512.0,882.4,-1140.8000000000002,-231.2,2619.3,1760.9,2025-01-29 11:49:05,0.0
28.0,-321.6,-112.80000000000018,94.80000000000001,2595.3,1665.9,2025-01-29 11:49:05,0.0
-1148.0,-865.6,-116.80000000000018,471.8,1549.3,2272.9,2025-01-29 11:49:05,0.0
-972.0,-785.6,-160.80000000000018,600.8,-133.7,2826.9,2025-01-29 11:49:05,0.0
-924.0,-293.6,-1220.8000000000002,809.8,-1662.7,3064.9,2025-01-29 11:49:05,0.0
208.0,506.4,-1096.8000000000002,803.8,-2465.7,3314.9,2025-01-29 11:49:05,0.0
968.0,990.4,-680.8000000000002,929.8,-2668.7,3597.9,2025-01-29 11:49:05,0.0
1968.0,1054.4,-12.800000000000182,1161.8,-2599.7,3695.9,2025-01-29 11:49:05,0.0
2452.0,946.4,531.1999999999998,1413.8,-2250.7,3585.9,2025-01-29 11:49:05,0.0
2676.0,826.4,703.1999999999998,1719.8,-911.7,3491.9,2025-01-29 11:49:05,0.0
1880.0,974.4,1063.1999999999998,1971.8,420.3,3513.9,2025-01-29 11:49:05,0.0
876.0,1478.4,939.1999999999998,2157.8,1200.3,3647.9,2025-01-29 11:49:05,0.0
620.0,1902.4,411.1999999999998,2266.8,1114.3,3645.9,2025-01-29 11:49:05,0.0
396.0,2274.4,403.1999999999998,2156.8,581.3,3399.9,2025-01-29 11:49:05,
344.0,2366.4,503.1999999999998,1887.8,-179.7,3078.9,2025-01-29 11:49:05,0.0
776.0,2338.4,667.1999999999998,1706.8,-1104.7,2734.9,2025-01-29 11:49:05,0.0
1152.0,2190.4,819.1999999999998,1714.8,-1495.7,2276.9,2025-01-29 11:49:05,0.0
1932.0,1790.4,607.1999999999998,1637.8,-903.7,1914.9,2025-01-29 11:49:05,0.0
2288.0,1278.4,987.1999999999998,1689.8,-87.69999999999999,1413.9,2025-01-29 11:49:05,0.0
1800.0,842.4,1367.1999999999998,1998.8,485.3,1054.9,2025-01-29 11:49:05,0.0
1476.0,718.4,1907.1999999999998,2148.8,675.3,841.9,2025-01-29 11:49:05,0.0
1304.0,842.4,1631.1999999999998,2217.8,756.3,649.9,2025-01-29 11:49:05,0.0
796.0,1662.4,1219.1999999999998,2052.8,517.3,325.9,2025-01-29 11:49:05,0.0
-40.0,2206.4,1003.1999999999998,1703.8,187.3,14.900000000000006,2025-01-29 11:49:05,0.0
-696.0,3130.4,1503.1999999999998,1441.8,209.3,-205.1,2025-01-29 11:49:05,0.0
-672.0,3566.4,1051.1999999999998,1035.8,-44.69999999999999,-930.1,2025-01-29 11:49:05,0.0
-504.0,2778.4,1103.1999999999998,849.8,-1103.7,-1639.1,2025-01-29 11:49:05,0.0
-116.0,1898.4,1203.1999999999998,695.8,-1635.7,-1826.1,2025-01-29 11:49:05,0.0
256.0,1498.4,1035.1999999999998,708.8,-868.7,-1717.1,2025-01-29 11:49:05,0.0
156.0,930.4,1067.1999999999998,571.8,374.3,-1475.1,2025-01-29 11:49:05,0.0
-492.0,602.4,1275.1999999999998,397.8,777.3,-888.1,2025-01-29 11:49:05,0.0
-896.0,818.4,551.1999999999998,594.8,314.3,-98.1,2025-01-29 11:49:05,0.0
-1340.0,302.4,479.1999999999998,923.8,500.3,408.9,2025-01-29 11:49:05,0.0
-2900.0,-761.6,2223.2,1508.8,1405.3,932.9,2025-01-29 11:49:05,0.0
-3808.0,-1197.6,3359.2,2543.8,1907.3,1554.9,2025-01-29 11:49:05,0.0
-4956.0,-417.6,2991.2,3423.8,599.3,2514.9,2025-01-29 11:49:05,0.0
-4968.0,62.39999999999998,-504.8000000000002,3056.8,192.3,3580.9,2025-01-29 11:49:05,0.0
-4984.0,726.4,-2780.8,2945.8,1451.3,4623.9,2025-01-29 11:49:05,0.0
-5792.0,2422.4,-4060.8,1969.8,2865.3,6305.9,2025-01-29 11:49:05,0.0
-4396.0,2998.4,-4396.8,934.8,2720.3,6877.9,2025-01-29 11:49:05,0.0
-2268.0,2910.4,-4636.8,125.80000000000001,1221.3,5627.9,2025-01-29 11:49:05,0.0
-252.0,2762.4,-4080.8,-62.19999999999999,-1683.7,2170.9,2025-01-29 11:49:05,0.0
600.0,2118.4,-2648.8,-61.19999999999999,-3647.7,124.9,2025-01-29 11:49:05,0.0
2452.0,1618.4,-352.8000000000002,587.8,-5357.7,-789.1,2025-01-29 11:49:05,0.0
4052.0,1378.4,415.1999999999998,1212.8,-5630.7,-1088.1,2025-01-29 11:49:05,0.0
5372.0,926.4,547.1999999999998,1483.8,-4496.7,-1432.1,2025-01-29 11:49:05,0.0
5956.0,158.39999999999998,3.199999999999818,1236.8,-1867.7,-1950.1,2025-01-29 11:49:05,0.0
5064.0,118.39999999999998,-1164.8000000000002,551.8,2025.3,-2536.1,2025-01-29 11:49:05,0.0
2996.0,178.39999999999998,-2252.8,-16.19999999999999,5548.3,-2675.1,2025-01-29 11:49:05,0.0
860.0,-297.6,-2540.8,-344.2,6771.3,-2584.1,2025-01-29 11:49:06,0.0
-904.0,-1101.6,-1380.8000000000002,-334.2,5553.3,-2558.1,2025-01-29 11:49:06,0.0
-2116.0,-1501.6,-960.8000000000002,154.8,2733.3,-2380.1,2025-01-29 11:49:06,0.0
-2048.0,-965.6,-1700.8000000000002,402.8,-394.7,-1932.1,2025-01-29 11:49:06,0.0
-1172.0,-261.6,-1948.8000000000002,215.8,-2317.7,-1662.1,2025-01-29 11:49:06,0.0
452.0,86.39999999999998,-1304.8000000000002,77.80000000000001,-3307.7,-2069.1,2025-01-29 11:49:06,0.0
1476.0,22.399999999999977,-644.8000000000002,105.80000000000001,-3506.7,-2978.1,2025-01-29 11:49:06,0.0
2144.0,150.39999999999998,-492.8000000000002,156.8,-3437.7,-3846.1,2025-01-29 11:49:06,0.0
2288.0,190.39999999999998,-192.80000000000018,196.8,-3321.7,-4315.1,2025-01-29 11:49:06,0.0
1880.0,-289.6,-136.80000000000018,97.80000000000001,-2428.7,-4269.1,2025-01-29 11:49:06,0.0
1560.0,-1185.6,463.1999999999998,-105.19999999999999,-1419.7,-3991.1,2025-01-29 11:49:06,0.0
1336.0,-2101.6,1171.1999999999998,77.80000000000001,-1118.7,-3797.1,2025-01-29 11:49:06,0.0
952.0,-2573.6,1791.1999999999998,769.8,-867.7,-3464.1,2025-01-29 11:49:06,0.0
496.0,-2733.6,1991.1999999999998,1358.8,-600.7,-3115.1,2025-01-29 11:49:06,0.0
480.0,-2777.6,1535.1999999999998,1527.8,-184.7,-2835.1,2025-01-29 11:49:06,0.0
648.0,-2137.6,1195.1999999999998,1541.8,-621.7,-2618.1,2025-01-29 11:49:06,0.0
304.0,-1601.6,387.1999999999998,1307.8,-788.7,-2130.1,2025-01-29 11:49:06,0.0
704.0,-1109.6,243.19999999999982,648.8,-593.7,-1594.1,2025-01-29 11:49:06,0.0
752.0,-65.60000000000002,1459.1999999999998,-1605.2,623.3,-570.1,2025-01-29 11:49:06,0.0
308.0,-221.60000000000002,1603.1999999999998,-2465.2,549.3,-474.1,2025-01-29 11:49:06,0.0
-564.0,-805.6,2023.1999999999998,-3445.2,227.3,-467.1,2025-01-29 11:49:06,0.0
-688.0,-1085.6,1923.1999999999998,-3900.2,-496.7,-570.1,2025-01-29 11:49:06,0.0
-1256.0,-1225.6,1279.1999999999998,-4172.2,-1524.7,-663.1,2025-01-29 11:49:06,0.0
-1032.0,-929.6,947.1999999999998,-4336.2,-2711.7,-711.1,2025-01-29 11:49:06,0.0
-392.0,-645.6,1419.1999999999998,-4270.2,-3495.7,-858.1,2025-01-29 11:49:06,0.0
340.0,-1129.6,2247.2,-3961.2,-3499.7,-892.1,2025-01-29 11:49:06,0.0
1020.0,-2477.6,2595.2,-3312.2,-1806.7,-1335.1,2025-01-29 11:49:06,0.0
1424.0,-4033.6,3015.2,-2798.2,277.3,-2637.1,2025-01-29 11:49:06,0.0
-500.0,-4425.6,2967.2,-2230.2,1784.3,-4468.1,2025-01-29 11:49:06,0.0
-3520.0,-2569.6,3079.2,-1962.2,1280.3,-4414.1,2025-01-29 11:49:06,0.0
-4892.0,-917.6,1411.1999999999998,-2359.2,472.3,-4062.1,2025-01-29 11:49:06,0.0
-4736.0,-2001.6,-1920.8000000000002,-2783.2,226.3,-4632.1,2025-01-29 11:49:06,0.0
-4720.0,-4737.6,-1528.8000000000002,-2083.2,266.3,-5086.1,2025-01-29 11:49:06,0.0
-5540.0,-6981.6,-1260.8000000000002,-455.2,-1398.7,-4650.1,2025-01-29 11:49:06,0.0
-5948.0,-7329.6,-2224.8,1329.8,-3229.7,-2368.1,2025-01-29 11:49:06,0.0
-4700.0,-4125.6,-3584.8,1654.8,-3663.7,572.9,2025-01-29 11:49:06,0.0
-1880.0,-1149.6,-4928.8,1260.8,-3818.7,1522.9,2025-01-29 11:49:06,0.0
-516.0,766.4,-4708.8,-33.19999999999999,-4617.7,2444.9,2025-01-29 11:49:06,0.0
1140.0,1846.4,-3452.8,-1132.2,-5218.7,3398.9,2025-01-29 11:49:06,0.0
4144.0,2222.4,-2612.8,-2137.2,-5160.7,3411.9,2025-01-29 11:49:06,0.0
5592.0,1746.4,-1476.8000000000002,-2880.2,-3352.7,2263.9,2025-01-29 11:49:06,0.0
5384.0,1390.4,-324.8000000000002,-2911.2,245.3,771.9,2025-01-29 11:49:06,0.0
3268.0,870.4,-156.80000000000018,-2504.2,3690.3,31.900000000000006,2025-01-29 11:49:06,0.0
188.0,554.4,135.19999999999982,-2173.2,5497.3,584.9,2025-01-29 11:49:06,0.0
-1636.0,138.39999999999998,-528.8000000000002,-1911.2,5736.3,1332.9,2025-01-29 11:49:06,0.0
-2384.0,-237.60000000000002,-936.8000000000002,-1851.2,4483.3,1877.9,2025-01-29 11:49:06,0.0
-2552.0,-609.6,-568.8000000000002,-1684.2,1817.3,2465.9,2025-01-29 11:49:06,0.0
-1620.0,-1161.6,139.19999999999982,-1025.2,-1182.7,2689.9,2025-01-29 11:49:06,0.0
-600.0,-1309.6,543.1999999999998,-513.2,-2406.7,2735.9,2025-01-29 11:49:06,0.0
312.0,-1037.6,791.1999999999998,-103.19999999999999,-2889.7,2945.9,2025-01-29 11:49:06,0.0
1436.0,50.39999999999998,1191.1999999999998,344.8,-2359.7,3427.9,2025-01-29 11:49:06,0.0
2372.0,786.4,1339.1999999999998,516.8,-1474.7,3392.9,2025-01-29 11:49:06,0.0
1760.0,1346.4,1895.1999999999998,518.8,-289.7,3362.9,2025-01-29 11:49:06,0.0
1872.0,1466.4,1387.1999999999998,459.8,775.3,3338.9,2025-01-29 11:49:06,0.0
1392.0,1342.4,1251.1999999999998,455.8,1350.3,3060.9,2025-01-29 11:49:06,0.0
924.0,918.4,1695.1999999999998,616.8,1321.3,2592.9,2025-01-29 11:49:06,0.0
276.0,602.4,1815.1999999999998,893.8,970.3,2167.9,2025-01-29 11:49:06,0.0
-180.0,610.4,1987.1999999999998,1129.8,373.3,1950.9,2025-01-29 11:49:06,0.0
-68.0,614.4,1627.1999999999998,1331.8,-375.7,1434.9,2025-01-29 11:49:06,0.0
-56.0,866.4,1567.1999999999998,1408.8,-915.7,1011.9,2025-01-29 11:49:06,0.0
-160.0,782.4,1803.1999999999998,1543.8,-1013.7,662.9,2025-01-29 11:49:06,0.0
-128.0,670.4,2111.2,1559.8,-922.7,506.9,2025-01-29 11:49:07,0.0
-452.0,1094.4,2191.2,1587.8,-919.7,438.9,2025-01-29 11:49:07,0.0
-1124.0,1290.4,2115.2,1619.8,-945.7,550.9,2025-01-29 11:49:07,0.0
-1320.0,958.4,2687.2,1727.8,-1113.7,729.9,2025-01-29 11:49:07,
-1324.0,614.4,2967.2,1912.8,-1511.7,775.9,2025-01-29 11:49:07,0.0
-652.0,398.4,2703.2,2126.8,-2126.7,624.9,2025-01-29 11:49:07,0.0
-464.0,406.4,2631.2,2302.8,-2581.7,237.9,2025-01-29 11:49:07,0.0
-772.0,998.4,2535.2,2451.8,-3091.7,96.9,2025-01-29 11:49:07,0.0
-932.0,1342.4,2895.2,2680.8,-3083.7,299.9,2025-01-29 11:49:07,0.0
-1040.0,1518.4,2391.2,2909.8,-2570.7,434.9,2025-01-29 11:49:07,0.0
-1492.0,874.4,1983.1999999999998,2968.8,-1613.7,788.9,2025-01-29 11:49:07,0.0
-1536.0,802.4,2395.2,2991.8,-641.7,1591.9,2025-01-29 11:49:07,0.0
-1368.0,1282.4,2447.2,3104.8,-121.69999999999999,2299.9,2025-01-29 11:49:07,0.0
-1524.0,1078.4,3031.2,3252.8,327.3,2830.9,2025-01-29 11:49:07,0.0
-1936.0,150.39999999999998,3927.2,3635.8,781.3,3257.9,2025-01-29 11:49:07,0.0
-2316.0,-329.6,4063.2,4194.8,974.3,3594.9,2025-01-29 11:49:07,0.0
-2560.0,-213.60000000000002,2003.1999999999998,4788.8,2357.3,3878.9,2025-01-29 11:49:07,0.0
-3356.0,1294.4,-864.8000000000002,4906.8,4591.3,4166.9,2025-01-29 11:49:07,0.0
-4432.0,3502.4,-3084.8,3758.8,5788.3,4697.9,2025-01-29 11:49:07,0.0
-4948.0,4954.4,-3076.8,2024.8,5061.3,5158.9,2025-01-29 11:49:07,0.0
-4064.0,5298.4,-3112.8,389.8,2698.3,4560.9,2025-01-29 11:49:07,0.0
-2976.0,4818.4,-3156.8,-899.2,-439.7,2808.9,2025-01-29 11:49:07,0.0
-2128.0,3694.4,-2232.8,-1502.2,-2645.7,958.9,2025-01-29 11:49:07,0.0
-624.0,1334.4,-1048.8000000000002,-1057.2,-3272.7,-192.1,2025-01-29 11:49:07,0.0
1320.0,74.39999999999998,395.1999999999998,289.8,-4334.7,-1571.1,2025-01-29 11:49:07,0.0
2196.0,-433.6,851.1999999999998,894.8,-4504.7,-2355.1,2025-01-29 11:49:07,0.0
3000.0,-933.6,979.1999999999998,1247.8,-3925.7,-2743.1,2025-01-29 11:49:07,0.0
2976.0,-885.6,739.1999999999998,1223.8,-2350.7,-2537.1,2025-01-29 11:49:07,0.0
3088.0,-365.6,59.19999999999982,797.8,-299.7,-1651.1,2025-01-29 11:49:07,0.0
3316.0,-309.6,-168.80000000000018,101.80000000000001,2042.3,-814.1,2025-01-29 11:49:07,0.0
2532.0,-861.6,43.19999999999982,-306.2,3899.3,-517.1,2025-01-29 11:49:07,0.0
976.0,-1501.6,323.1999999999998,-392.2,3949.3,-295.1,2025-01-29 11:49:07,0.0
-348.0,-2017.6,627.1999999999998,130.8,2710.3,-95.1,2025-01-29 11:49:07,0.0
-628.0,-381.6,-444.8000000000002,1921.8,-722.7,-778.1,2025-01-29 11:49:07,0.0
12.0,238.39999999999998,-252.80000000000018,1984.8,-607.7,-1703.1,2025-01-29 11:49:07,0.0
276.0,690.4,-640.8000000000002,1694.8,-874.7,-2435.1,2025-01-29 11:49:07,0.0
312.0,894.4,-516.8000000000002,1093.8,-1179.7,-2580.1,2025-01-29 11:49:07,0.0
1360.0,1094.4,-284.8000000000002,399.8,-990.7,-2636.1,2025-01-29 11:49:07,0.0
1752.0,746.4,363.1999999999998,-447.2,-252.7,-2822.1,2025-01-29 11:49:07,0.0
1908.0,-141.60000000000002,1419.1999999999998,-834.2,858.3,-3233.1,2025-01-29 11:49:07,0.0
1312.0,-1289.6,2007.1999999999998,-829.2,2009.3,-3516.1,2025-01-29 11:49:07,0.0
388.0,-2353.6,2395.2,-510.2,2765.3,-3420.1,2025-01-29 11:49:07,0.0
-228.0,-3157.6,2475.2,-85.19999999999999,2866.3,-3139.1,2025-01-29 11:49:07,0.0
-604.0,-3617.6,2287.2,190.8,2545.3,-2762.1,2025-01-29 11:49:07,0.0
-944.0,-3557.6,1871.1999999999998,532.8,1797.3,-1988.1,2025-01-29 11:49:07,0.0
-624.0,-2749.6,1359.1999999999998,709.8,1193.3,-1167.1,2025-01-29 11:49:07,0.0
-176.0,-1389.6,1503.1999999999998,551.8,1004.3,-683.1,2025-01-29 11:49:07,0.0
-220.0,-445.6,1675.1999999999998,52.80000000000001,1037.3,-254.1,2025-01-29 11:49:07,0.0
-244.0,-17.600000000000023,1623.1999999999998,-506.2,1090.3,235.9,2025-01-29 11:49:07,0.0
-196.0,-573.6,1691.1999999999998,-1027.2,1133.3,573.9,2025-01-29 11:49:07,0.0
-220.0,-1541.6,1955.1999999999998,-1263.2,1165.3,938.9,2025-01-29 11:49:07,0.0
-488.0,-1861.6,2247.2,-1300.2,1170.3,1042.9,2025-01-29 11:49:07,0.0
-1016.0,-1589.6,1387.1999999999998,-1274.2,1165.3,943.9,2025-01-29 11:49:07,0.0
-1128.0,-1401.6,731.1999999999998,-1238.2,761.3,576.9,2025-01-29 11:49:07,0.0
-1344.0,-889.6,963.1999999999998,-1145.2,81.30000000000001,-57.099999999999994,2025-01-29 11:49:07,0.0
-1552.0,-645.6,1191.1999999999998,-1252.2,-308.7,-282.1,2025-01-29 11:49:07,0.0
-1332.0,-557.6,903.1999999999998,-1657.2,-547.7,-597.1,2025-01-29 11:49:07,0.0
-1176.0,-405.6,775.1999999999998,-2439.2,-1039.7,-836.1,2025-01-29 11:49:07,0.0
-880.0,-317.6,1127.1999999999998,-3043.2,-1452.7,-1216.1,2025-01-29 11:49:08,0.0
-164.0,130.39999999999998,159.19999999999982,-3308.2,-1208.7,-2245.1,2025-01-29 11:49:08,0.0
-472.0,-277.6,-940.8000000000002,-3438.2,-528.7,-3144.1,2025-01-29 11:49:08,0.0
-884.0,-2137.6,-216.80000000000018,-3050.2,431.3,-3555.1,2025-01-29 11:49:08,0.0
-1716.0,-4137.6,-636.8000000000002,-2240.2,1098.3,-3551.1,2025-01-29 11:49:08,0.0
-3128.0,-5485.6,-1480.8000000000002,-1318.2,1421.3,-2367.1,2025-01-29 11:49:08,0.0
-3760.0,-5857.6,-3012.8,22.80000000000001,527.3,-133.1,2025-01-29 11:49:08,0.0
-2804.0,-4781.6,-2852.8,1574.8,-936.7,1173.9,2025-01-29 11:49:08,0.0
-1532.0,-3265.6,-2240.8,2255.8,-2572.7,1234.9,2025-01-29 11:49:08,0.0
-160.0,-1509.6,-1728.8000000000002,2333.8,-4331.7,1176.9,2025-01-29 11:49:08,0.0
956.0,50.39999999999998,-812.8000000000002,1932.8,-4371.7,1567.9,2025-01-29 11:49:08,0.0
2564.0,2126.4,-740.8000000000002,940.8,-3168.7,2022.9,2025-01-29 11:49:08,0.0
3824.0,3662.4,-840.8000000000002,-7.199999999999989,-1417.7,1957.9,2025-01-29 11:49:08,0.0
3920.0,4106.4,75.19999999999982,-449.2,717.3,1300.9,2025-01-29 11:49:08,0.0
2340.0,2726.4,55.19999999999982,-563.2,2771.3,454.9,2025-01-29 11:49:08,0.0
604.0,1138.4,-560.8000000000002,-680.2,4158.3,501.9,2025-01-29 11:49:08,0.0
-996.0,-25.600000000000023,-896.8000000000002,-639.2,4607.3,777.9,2025-01-29 11:49:08,0.0
-2308.0,-365.6,-1328.8000000000002,-847.2,2940.3,1161.9,2025-01-29 11:49:08,0.0
-2552.0,-73.60000000000002,-1332.8000000000002,-993.2,-336.7,1717.9,2025-01-29 11:49:08,0.0
-1748.0,234.39999999999998,-800.8000000000002,-940.2,-2484.7,2002.9,2025-01-29 11:49:08,0.0
-556.0,554.4,-224.80000000000018,-752.2,-3557.7,2199.9,2025-01-29 11:49:08,0.0
688.0,666.4,279.1999999999998,-561.2,-3470.7,2401.9,2025-01-29 11:49:08,0.0
2028.0,398.4,867.1999999999998,-373.2,-2678.7,2362.9,2025-01-29 11:49:08,0.0
2616.0,70.39999999999998,1495.1999999999998,-150.2,-1314.7,2200.9,2025-01-29 11:49:08,0.0
2612.0,-41.60000000000002,2087.2,327.8,479.3,2050.9,2025-01-29 11:49:08,0.0
2156.0,370.4,1899.1999999999998,771.8,1705.3,1919.9,2025-01-29 11:49:08,0.0
1196.0,822.4,1559.1999999999998,1073.8,2442.3,1838.9,2025-01-29 11:49:08,0.0
512.0,1470.4,1247.1999999999998,1334.8,2226.3,1484.9,2025-01-29 11:49:08,0.0
16.0,1738.4,1183.1999999999998,1474.8,1505.3,1007.9,2025-01-29 11:49:08,0.0
-300.0,1650.4,1019.1999999999998,1578.8,841.3,546.9,2025-01-29 11:49:08,0.0
-480.0,1322.4,1251.1999999999998,1698.8,409.3,237.9,2025-01-29 11:49:08,0.0
-24.0,766.4,1055.1999999999998,1718.8,133.3,-104.1,2025-01-29 11:49:08,0.0
-156.0,322.4,1135.1999999999998,1691.8,350.3,-222.1,2025-01-29 11:49:08,0.0
-248.0,126.39999999999998,843.1999999999998,1630.8,865.3,-87.1,2025-01-29 11:49:08,0.0
-656.0,86.39999999999998,823.1999999999998,1561.8,1373.3,122.9,2025-01-29 11:49:08,0.0
-1184.0,46.39999999999998,1067.1999999999998,1474.8,1539.3,331.9,2025-01-29 11:49:08,0.0
-1944.0,146.39999999999998,1615.1999999999998,1525.8,1223.3,574.9,2025-01-29 11:49:08,0.0
-2088.0,330.4,2235.2,1650.8,507.3,665.9,2025-01-29 11:49:08,0.0
-1764.0,350.4,2043.1999999999998,1858.8,-687.7,631.9,2025-01-29 11:49:08,0.0
-1388.0,142.39999999999998,2475.2,2019.8,-1670.7,435.9,2025-01-29 11:49:08,0.0
-588.0,66.39999999999998,3363.2,2449.8,-2187.7,360.9,2025-01-29 11:49:08,0.0
16.0,-53.60000000000002,3771.2,2820.8,-2139.7,256.9,2025-01-29 11:49:08,0.0
244.0,-137.60000000000002,3259.2,3149.8,-1353.7,265.9,2025-01-29 11:49:08,0.0
-316.0,14.399999999999977,2695.2,3525.8,131.3,638.9,2025-01-29 11:49:08,0.0
-980.0,210.39999999999998,795.1999999999998,3482.8,1131.3,899.9,2025-01-29 11:49:08,0.0
-1856.0,810.4,-1780.8000000000002,2871.8,1721.3,1333.9,2025-01-29 11:49:08,
-2568.0,1350.4,-4852.8,2030.8,1948.3,2213.9,2025-01-29 11:49:08,0.0
-2468.0,1890.4,-7348.8,641.8,1602.3,3207.9,2025-01-29 11:49:08,0.0
-2324.0,2430.4,-5832.8,-1059.2,-121.69999999999999,4056.9,2025-01-29 11:49:08,0.0
-124.0,2230.4,-1684.8000000000002,-1415.2,-2499.7,3996.9,2025-01-29 11:49:08,0.0
3584.0,1550.4,-32.80000000000018,-497.2,-4208.7,1232.9,2025-01-29 11:49:08,0.0
3872.0,738.4,-1000.8000000000002,490.8,-1784.7,-1337.1,2025-01-29 11:49:08,0.0
2676.0,-145.60000000000002,-1580.8000000000002,1358.8,1603.3,-1935.1,2025-01-29 11:49:08,0.0
2064.0,-473.6,-2380.8,1364.8,3560.3,-2028.1,2025-01-29 11:49:08,0.0
1120.0,362.4,-2200.8,329.8,3763.3,-2053.1,2025-01-29 11:49:08,0.0
836.0,2162.4,-1908.8000000000002,-1544.2,3214.3,-2584.1,2025-01-29 11:49:08,0.0
792.0,3130.4,-2048.8,-3456.2,3165.3,-3927.1,2025-01-29 11:49:08,0.0
352.0,2358.4,-2152.8,-4630.2,2769.3,-5359.1,2025-01-29 11:49:08,0.0
-188.0,462.4,-2140.8,-5173.2,2074.3,-6437.1,2025-01-29 11:49:08,0.0
-400.0,-1397.6,-1996.8000000000002,-5448.2,1023.3,-7283.1,2025-01-29 11:49:08,0.0
-604.0,-2725.6,-1692.8000000000002,-5654.2,-561.7,-7626.1,2025-01-29 11:49:08,0.0
-568.0,-3061.6,-1000.8000000000002,-5771.2,-2074.7,-7352.1,2025-01-29 11:49:08,0.0
784.0,-2629.6,-808.8000000000002,-5742.2,-2256.7,-6725.1,2025-01-29 11:49:09,0.0
1864.0,-2013.6,-840.8000000000002,-5892.2,-1430.7,-6390.1,2025-01-29 11:49:09,0.0
2708.0,-1545.6,-592.8000000000002,-6133.2,-359.7,-6130.1,2025-01-29 11:49:09,0.0
3044.0,-1109.6,-1096.8000000000002,-6445.2,704.3,-6122.1,2025-01-29 11:49:09,0.0
2476.0,-777.6,-1188.8000000000002,-6923.2,1685.3,-6214.1,2025-01-29 11:49:09,0.0
1548.0,-617.6,-1396.8000000000002,-7421.2,2311.3,-6390.1,2025-01-29 11:49:09,0.0
748.0,-745.6,-1680.8000000000002,-7844.2,2167.3,-6441.1,2025-01-29 11:49:09,0.0
260.0,-1057.6,-1508.8000000000002,-8357.2,1509.3,-6608.1,2025-01-29 11:49:09,0.0
-52.0,-1377.6,-1092.8000000000002,-8877.2,385.3,-6901.1,2025-01-29 11:49:09,0.0
48.0,-1757.6,-1036.8000000000002,-9250.2,-888.7,-7026.1,2025-01-29 11:49:09,0.0
836.0,-1797.6,-1544.8000000000002,-9602.2,-1472.7,-7299.1,2025-01-29 11:49:09,0.0
1376.0,-1669.6,-1100.8000000000002,-10034.2,-1393.7,-7421.1,2025-01-29 11:49:09,0.0
1672.0,-1697.6,-968.8000000000002,-10337.2,-938.7,-7369.1,2025-01-29 11:49:09,0.0
1912.0,-1785.6,-1032.8000000000002,-10446.2,-111.69999999999999,-7476.1,2025-01-29 11:49:09,0.0
1396.0,-1869.6,-1196.8000000000002,-10627.2,795.3,-7711.1,2025-01-29 11:49:09,0.0
1152.0,-1917.6,-1488.8000000000002,-11059.2,827.3,-8006.1,2025-01-29 11:49:09,0.0
504.0,-1937.6,-1580.8000000000002,-11397.2,-82.69999999999999,-8010.1,2025-01-29 11:49:09,0.0
488.0,-1761.6,-1672.8000000000002,-11652.2,-1133.7,-7848.1,2025-01-29 11:49:09,0.0
1312.0,-1801.6,-1616.8000000000002,-12147.2,-2068.7,-7762.1,2025-01-29 11:49:09,0.0
2024.0,-1909.6,-1400.8000000000002,-12802.2,-2320.7,-7932.1,2025-01-29 11:49:09,0.0
2516.0,-1709.6,-1072.8000000000002,-13689.2,-1948.7,-8373.1,2025-01-29 11:49:09,0.0
2580.0,-1665.6,-1148.8000000000002,-14659.2,-1390.7,-8888.1,2025-01-29 11:49:09,0.0
2308.0,-1861.6,-864.8000000000002,-15397.2,-940.7,-9451.1,2025-01-29 11:49:09,0.0
1984.0,-1825.6,-676.8000000000002,-16109.2,-851.7,-9931.1,2025-01-29 11:49:09,0.0
1724.0,-2069.6,-1024.8000000000002,-16961.2,-1084.7,-10294.1,2025-01-29 11:49:09,0.0
1540.0,-2701.6,-1100.8000000000002,-17732.2,-1498.7,-10541.1,2025-01-29 11:49:09,0.0
988.0,-3121.6,-1316.8000000000002,-18143.2,-1948.7,-10478.1,2025-01-29 11:49:09,0.0
700.0,-3665.6,-1064.8000000000002,-18633.2,-2264.7,-9988.1,2025-01-29 11:49:09,0.0
1104.0,-4153.6,-1200.8000000000002,-19025.2,-2390.7,-9527.1,2025-01-29 11:49:09,0.0
1476.0,-4389.6,-1576.8000000000002,-19281.2,-2279.7,-9261.1,2025-01-29 11:49:09,0.0
1588.0,-4045.6,-2492.8,-19443.2,-2133.7,-9026.1,2025-01-29 11:49:09,0.0
1636.0,-4017.6,-3460.8,-19582.2,-1753.7,-8934.1,2025-01-29 11:49:09,0.0
1216.0,-4073.6,-3544.8,-19143.2,-1406.7,-9121.1,2025-01-29 11:49:09,0.0
1240.0,-4337.6,-4384.8,-18506.2,-1441.7,-9448.1,2025-01-29 11:49:09,0.0
1608.0,-4469.6,-5884.8,-17721.2,-1584.7,-9873.1,2025-01-29 11:49:09,0.0
1752.0,-2845.6,-6140.8,-16570.2,-2204.7,-9790.1,2025-01-29 11:49:09,0.0
3044.0,-861.6,-5596.8,-15179.2,-1693.7,-10286.1,2025-01-29 11:49:09,0.0
3604.0,2026.4,-3132.8,-15016.2,-612.7,-11528.1,2025-01-29 11:49:09,0.0
2080.0,3418.4,-136.80000000000018,-16046.2,744.3,-11591.1,2025-01-29 11:49:09,0.0
1476.0,2898.4,587.1999999999998,-17683.2,2568.3,-10631.1,2025-01-29 11:49:09,0.0
1480.0,2306.4,-8.800000000000182,-18637.2,3642.3,-9540.1,2025-01-29 11:49:09,0.0
252.0,1654.4,-2520.8,-18942.2,4838.3,-8383.1,2025-01-29 11:49:09,0.0
-608.0,518.4,-4000.8,-19219.2,6186.3,-7479.1,2025-01-29 11:49:09,0.0
-1032.0,318.4,-2812.8,-19316.2,5518.3,-8098.1,2025-01-29 11:49:09,0.0
-1888.0,730.4,-968.8000000000002,-18825.2,3160.3,-9044.1,2025-01-29 11:49:09,0.0
-2024.0,698.4,839.1999999999998,-17170.2,469.3,-9238.1,2025-01-29 11:49:09,0.0
-756.0,194.39999999999998,1639.1999999999998,-15314.2,-1558.7,-9137.1,2025-01-29 11:49:09,0.0
488.0,-893.6,1455.1999999999998,-13995.2,-2225.7,-8950.1,2025-01-29 11:49:09,0.0
1692.0,-1417.6,1747.1999999999998,-12814.2,-1101.7,-8575.1,2025-01-29 11:49:09,0.0
1928.0,-2173.6,1703.1999999999998,-11540.2,1610.3,-7848.1,2025-01-29 11:49:09,0.0
1860.0,-1961.6,1751.1999999999998,-10370.2,3750.3,-7157.1,2025-01-29 11:49:09,0.0
1128.0,-1017.6,819.1999999999998,-9093.2,4761.3,-6556.1,2025-01-29 11:49:09,0.0
512.0,-117.60000000000002,-320.8000000000002,-8314.2,4775.3,-6214.1,2025-01-29 11:49:09,0.0
484.0,794.4,-884.8000000000002,-7743.2,3927.3,-6192.1,2025-01-29 11:49:09,0.0
596.0,1562.4,-1016.8000000000002,-7352.2,2940.3,-6234.1,2025-01-29 11:49:09,0.0
1312.0,2366.4,-1296.8000000000002,-7494.2,2368.3,-6183.1,2025-01-29 11:49:09,0.0
2160.0,2750.4,-1496.8000000000002,-7701.2,2364.3,-6544.1,2025-01-29 11:49:09,0.0
2100.0,3454.4,-2384.8,-7920.2,2750.3,-6856.1,2025-01-29 11:49:09,0.0
2064.0,4414.4,-2632.8,-8372.2,3200.3,-7048.1,2025-01-29 11:49:09,0.0
1816.0,4598.4,-2644.8,-8987.2,2686.3,-7222.1,2025-01-29 11:49:09,0.0
1860.0,3442.4,-2016.8000000000002,-9312.2,1041.3,-7201.1,2025-01-29 11:49:09,0.0
3040.0,1702.4,-1388.8000000000002,-9295.2,-222.7,-7040.1,2025-01-29 11:49:10,0.0
4208.0,-125.60000000000002,507.1999999999998,-8558.2,-413.7,-6909.1,2025-01-29 11:49:10,0.0
5092.0,-893.6,795.1999999999998,-7460.2,306.3,-7056.1,2025-01-29 11:49:10,0.0
4976.0,-1041.6,647.1999999999998,-6202.2,1586.3,-7093.1,2025-01-29 11:49:10,0.0
4264.0,-817.6,607.1999999999998,-4550.2,2882.3,-6428.1,2025-01-29 11:49:10,0.0
3612.0,-1189.6,795.1999999999998,-3034.2,3282.3,-5008.1,2025-01-29 11:49:10,0.0
3828.0,-1949.6,971.1999999999998,-1793.2,3279.3,-3838.1,2025-01-29 11:49:10,0.0
4276.0,-2969.6,1039.1999999999998,-583.2,3276.3,-3315.1,2025-01-29 11:49:10,0.0
5040.0,-3061.6,-16.800000000000182,387.8,3275.3,-3441.1,2025-01-29 11:49:10,0.0
4872.0,-1381.6,-2068.8,1125.8,3523.3,-3541.1,2025-01-29 11:49:10,0.0
3900.0,42.39999999999998,-2892.8,1303.8,3719.3,-2953.1,2025-01-29 11:49:10,0.0
1896.0,162.39999999999998,-2884.8,942.8,4281.3,-1860.1,2025-01-29 11:49:10,0.0
-8.0,-49.60000000000002,-1652.8000000000002,540.8,5283.3,-815.1,2025-01-29 11:49:10,0.0
-1260.0,14.399999999999977,-1636.8000000000002,139.8,5446.3,-9.099999999999994,2025-01-29 11:49:10,0.0
-2776.0,-3081.6,-12940.8,-3145.2,7118.3,-53.099999999999994,2025-01-29 11:49:10,0.0
976.0,1682.4,-860.8000000000002,-1729.2,1266.3,185.9,2025-01-29 11:49:10,0.0
2436.0,1682.4,-1388.8000000000002,-1214.2,-2596.7,-109.1,2025-01-29 11:49:10,0.0
1620.0,474.4,-1236.8000000000002,-884.2,-3844.7,-902.1,2025-01-29 11:49:10,0.0
3688.0,-1117.6,-1712.8000000000002,-377.2,-1995.7,-1356.1,2025-01-29 11:49:10,0.0
3544.0,-1881.6,-1276.8000000000002,120.80000000000001,-183.7,-2077.1,2025-01-29 11:49:10,0.0
3116.0,-1093.6,-1144.8000000000002,-147.2,1585.3,-3148.1,2025-01-29 11:49:10,0.0
2316.0,330.4,-2124.8,-1508.2,-748.7,-3134.1,2025-01-29 11:49:10,0.0
192.0,1078.4,-2372.8,-1550.2,-106.69999999999999,-2024.1,2025-01-29 11:49:10,
-104.0,158.39999999999998,-2864.8,-1582.2,-1118.7,-933.1,2025-01-29 11:49:10,0.0
-176.0,-933.6,-2196.8,-1114.2,-2986.7,-780.1,2025-01-29 11:49:10,0.0
432.0,-909.6,-1896.8000000000002,-1089.2,-5346.7,-1325.1,2025-01-29 11:49:10,0.0
2088.0,270.4,-2196.8,-1411.2,-7607.7,-1256.1,2025-01-29 11:49:10,0.0
1360.0,738.4,-2244.8,-1620.2,-5425.7,-1076.1,2025-01-29 11:49:10,0.0
3212.0,14.399999999999977,-2104.8,-1282.2,-5435.7,-1510.1,2025-01-29 11:49:10,0.0
216.0,-597.6,-576.8000000000002,-1485.2,-6535.7,-1933.1,2025-01-29 11:49:10,0.0
-124.0,-897.6,-1660.8000000000002,-944.2,-6248.7,-1777.1,2025-01-29 11:49:10,0.0
-132.0,-273.6,-1912.8000000000002,-1225.2,-6068.7,-1125.1,2025-01-29 11:49:10,0.0
120.0,-465.6,-1552.8000000000002,-820.2,-7331.7,-736.1,2025-01-29 11:49:10,0.0
-24.0,-141.60000000000002,-1376.8000000000002,-394.2,-8601.7,-669.1,2025-01-29 11:49:10,0.0
100.0,1102.4,-1736.8000000000002,-509.2,-7321.7,-985.1,2025-01-29 11:49:10,0.0
-556.0,794.4,-992.8000000000002,-684.2,-6046.7,-1464.1,2025-01-29 11:49:10,0.0
-940.0,1566.4,-348.8000000000002,-1194.2,-6685.7,-675.1,2025-01-29 11:49:10,0.0
-3028.0,-453.6,-1616.8000000000002,-1170.2,-8586.7,-533.1,2025-01-29 11:49:10,0.0
-1468.0,-345.6,467.1999999999998,-1043.2,-8398.7,-125.1,2025-01-29 11:49:10,0.0
-804.0,746.4,1247.1999999999998,-645.2,-7695.7,-716.1,2025-01-29 11:49:10,0.0
-736.0,1122.4,1183.1999999999998,-328.2,-6715.7,-1896.1,2025-01-29 11:49:10,0.0
-3244.0,446.4,603.1999999999998,-256.2,-5883.7,-1973.1,2025-01-29 11:49:10,0.0
-3312.0,-177.60000000000002,-1336.8000000000002,-1009.2,-6959.7,-927.1,2025-01-29 11:49:10,0.0
-2448.0,-677.6,927.1999999999998,-1239.2,-9350.7,-147.1,2025-01-29 11:49:10,0.0
-820.0,-741.6,3371.2,-567.2,-10394.7,129.9,2025-01-29 11:49:10,0.0
24.0,-273.6,3447.2,74.80000000000001,-10109.7,-27.099999999999994,2025-01-29 11:49:10,0.0
-88.0,846.4,3319.2,14.800000000000011,-8743.7,-333.1,2025-01-29 11:49:10,0.0
-1568.0,766.4,3275.2,-421.2,-7187.7,-354.1,2025-01-29 11:49:10,0.0
-2060.0,254.39999999999998,3051.2,-470.2,-6819.7,-723.1,2025-01-29 11:49:10,0.0
-4476.0,-445.6,3767.2,-323.2,-7651.7,-778.1,2025-01-29 11:49:10,0.0
-4900.0,-201.60000000000002,3395.2,-154.2,-8912.7,3.9000000000000057,2025-01-29 11:49:10,0.0
-4308.0,318.4,3123.2,49.80000000000001,-9973.7,888.9,2025-01-29 11:49:10,0.0
-3868.0,862.4,3855.2,-18.19999999999999,-10679.7,1085.9,2025-01-29 11:49:10,0.0
-4700.0,506.4,5511.2,-79.19999999999999,-9407.7,1480.9,2025-01-29 11:49:10,0.0
-5008.0,286.4,5347.2,-159.2,-7064.7,638.9,2025-01-29 11:49:10,0.0
-6296.0,162.39999999999998,5279.2,172.8,-5844.7,-88.1,2025-01-29 11:49:10,0.0
-5972.0,-481.6,3531.2,285.8,-5943.7,-364.1,2025-01-29 11:49:10,0.0
-6156.0,-97.60000000000002,4895.2,380.8,-6614.7,-57.099999999999994,2025-01-29 11:49:10,0.0
-5576.0,162.39999999999998,6071.2,785.8,-8435.7,143.9,2025-01-29 11:49:10,0.0
-3260.0,-69.60000000000002,6067.2,749.8,-6897.7,-22.099999999999994,2025-01-29 11:49:10,0.0
-3504.0,-357.6,5603.2,440.8,-3527.7,-309.1,2025-01-29 11:49:11,0.0
-3520.0,-113.60000000000002,5207.2,350.8,-2006.7,-88.1,2025-01-29 11:49:11,0.0
-4020.0,-89.60000000000002,4731.2,315.8,-1594.7,32.900000000000006,2025-01-29 11:49:11,0.0
-3904.0,410.4,4739.2,351.8,-2914.7,225.9,2025-01-29 11:49:11,0.0
-2368.0,618.4,5683.2,356.8,-5591.7,49.900000000000006,2025-01-29 11:49:11,0.0
-740.0,694.4,7143.2,371.8,-6670.7,-253.1,2025-01-29 11:49:11,0.0
524.0,182.39999999999998,7571.2,454.8,-5402.7,-469.1,2025-01-29 11:49:11,0.0
-856.0,-221.60000000000002,7975.2,492.8,-1941.7,-544.1,2025-01-29 11:49:11,0.0
-2304.0,-357.6,7379.2,524.8,344.3,-180.1,2025-01-29 11:49:11,0.0
-3808.0,-457.6,6027.2,395.8,523.3,408.9,2025-01-29 11:49:11,0.0
-4016.0,-149.60000000000002,5011.2,257.8,-1241.7,1002.9,2025-01-29 11:49:11,0.0
-3164.0,398.4,5611.2,167.8,-4068.7,1181.9,2025-01-29 11:49:11,0.0
-1848.0,222.39999999999998,6795.2,215.8,-5047.7,661.9,2025-01-29 11:49:11,0.0
-1536.0,-609.6,7843.2,349.8,-4681.7,260.9,2025-01-29 11:49:11,0.0
-2036.0,-633.6,8351.2,397.8,-2986.7,221.9,2025-01-29 11:49:11,0.0
-2844.0,-193.60000000000002,8219.2,505.8,-944.7,366.9,2025-01-29 11:49:11,0.0
-3976.0,226.39999999999998,7791.2,470.8,-290.7,887.9,2025-01-29 11:49:11,0.0
-4028.0,290.4,6803.2,205.8,-1540.7,1085.9,2025-01-29 11:49:11,0.0
-3944.0,938.4,7047.2,36.80000000000001,-2824.7,1135.9,2025-01-29 11:49:11,0.0
-3532.0,1230.4,7647.2,-137.2,-3186.7,1196.9,2025-01-29 11:49:11,0.0
-2604.0,1386.4,8323.2,-204.2,-2739.7,1089.9,2025-01-29 11:49:11,0.0
-1908.0,1690.4,8071.2,-93.19999999999999,-1432.7,510.9,2025-01-29 11:49:11,0.0
-2164.0,1406.4,7571.2,-8.199999999999989,-763.7,-70.1,2025-01-29 11:49:11,0.0
-2868.0,862.4,7203.2,53.80000000000001,-1472.7,-283.1,2025-01-29 11:49:11,0.0
-2676.0,486.4,7819.2,53.80000000000001,-2436.7,-120.1,2025-01-29 11:49:11,0.0
-2356.0,162.39999999999998,8579.2,162.8,-2629.7,-37.099999999999994,2025-01-29 11:49:11,0.0
-1856.0,166.39999999999998,8991.2,175.8,-2042.7,-6.099999999999994,2025-01-29 11:49:11,0.0
-1892.0,342.4,8771.2,205.8,-1115.7,-157.1,2025-01-29 11:49:11,0.0
-2000.0,366.4,8419.2,167.8,-470.7,-410.1,2025-01-29 11:49:11,0.0
-2408.0,130.39999999999998,8159.2,238.8,-498.7,-700.1,2025-01-29 11:49:11,0.0
-2544.0,134.39999999999998,8047.2,174.8,-661.7,-672.1,2025-01-29 11:49:11,0.0
-2496.0,194.39999999999998,8143.2,217.8,-768.7,-724.1,2025-01-29 11:49:11,0.0
-2296.0,374.4,8167.2,216.8,-823.7,-729.1,2025-01-29 11:49:11,0.0
-2152.0,426.4,8151.2,202.8,-806.7,-778.1,2025-01-29 11:49:11,0.0
-2228.0,186.39999999999998,8263.2,164.8,-729.7,-863.1,2025-01-29 11:49:11,0.0
-2424.0,202.39999999999998,8463.2,140.8,-607.7,-976.1,2025-01-29 11:49:11,0.0
-2484.0,98.39999999999998,8491.2,219.8,-476.7,-1059.1,2025-01-29 11:49:11,0.0
-2916.0,-157.60000000000002,8603.2,317.8,-465.7,-1018.1,2025-01-29 11:49:11,0.0
-2760.0,-245.60000000000002,8723.2,367.8,-283.7,-983.1,2025-01-29 11:49:11,0.0
-2860.0,-69.60000000000002,8491.2,422.8,-135.7,-991.1,2025-01-29 11:49:11,0.0
-2640.0,-65.60000000000002,8411.2,489.8,-156.7,-939.1,2025-01-29 11:49:11,0.0
-2604.0,-189.60000000000002,8451.2,507.8,-195.7,-866.1,2025-01-29 11:49:11,0.0
-2520.0,-161.60000000000002,8627.2,544.8,-90.69999999999999,-866.1,2025-01-29 11:49:11,0.0
-2632.0,-193.60000000000002,8751.2,538.8,69.30000000000001,-831.1,2025-01-29 11:49:11,0.0
-2644.0,-349.6,8623.2,549.8,364.3,-760.1,2025-01-29 11:49:11,0.0
-2896.0,-65.60000000000002,8451.2,543.8,494.3,-634.1,2025-01-29 11:49:11,0.0
-3052.0,-229.60000000000002,8347.2,426.8,427.3,-539.1,2025-01-29 11:49:11,0.0
-3264.0,-341.6,8079.2,401.8,82.30000000000001,-290.1,2025-01-29 11:49:11,0.0
-2944.0,-333.6,8427.2,349.8,-135.7,-61.099999999999994,2025-01-29 11:49:11,0.0
-2644.0,-345.6,8643.2,270.8,-129.7,70.9,2025-01-29 11:49:11,0.0
-2432.0,-337.6,8519.2,164.8,45.30000000000001,196.9,2025-01-29 11:49:11,0.0
-2428.0,-449.6,8495.2,60.80000000000001,205.3,254.9,2025-01-29 11:49:11,0.0
-2536.0,-397.6,8519.2,6.800000000000011,232.3,163.9,2025-01-29 11:49:11,0.0
-2492.0,-485.6,8547.2,7.800000000000011,203.3,52.900000000000006,2025-01-29 11:49:11,0.0
-2648.0,-597.6,8255.2,83.80000000000001,-67.69999999999999,-117.1,2025-01-29 11:49:11,0.0
-2904.0,-569.6,8583.2,167.8,-35.69999999999999,-268.1,2025-01-29 11:49:11,0.0
-2948.0,-397.6,8363.2,207.8,75.30000000000001,-348.1,2025-01-29 11:49:11,0.0
-2960.0,-381.6,8343.2,210.8,118.30000000000001,-350.1,2025-01-29 11:49:11,0.0
-2604.0,-221.60000000000002,7939.2,139.8,-11.699999999999989,-156.1,2025-01-29 11:49:12,0.0
-2624.0,-289.6,7939.2,114.80000000000001,-108.69999999999999,-150.1,2025-01-29 11:49:12,0.0
-2436.0,-333.6,7875.2,108.80000000000001,-173.7,-193.1,2025-01-29 11:49:12,0.0
-2664.0,-313.6,7875.2,113.80000000000001,-59.69999999999999,-156.1,2025-01-29 11:49:12,0.0
-2756.0,-329.6,7979.2,123.80000000000001,-51.69999999999999,-131.1,2025-01-29 11:49:12,
-2876.0,-337.6,8143.2,121.80000000000001,-123.69999999999999,-38.099999999999994,2025-01-29 11:49:12,0.0
-2760.0,-309.6,8139.2,146.8,-202.7,72.9,2025-01-29 11:49:12,0.0
-2664.0,-245.60000000000002,8311.2,119.80000000000001,-185.7,176.9,2025-01-29 11:49:12,0.0
-2676.0,-277.6,8247.2,130.8,-141.7,166.9,2025-01-29 11:49:12,0.0
-2636.0,-401.6,8119.2,84.80000000000001,-139.7,157.9,2025-01-29 11:49:12,0.0
-2552.0,-337.6,8207.2,64.80000000000001,-270.7,102.9,2025-01-29 11:49:12,0.0
-2536.0,-297.6,8295.2,37.80000000000001,-267.7,90.9,2025-01-29 11:49:12,0.0
-2736.0,-325.6,8371.2,60.80000000000001,-175.7,81.9,2025-01-29 11:49:12,0.0
-2832.0,-285.6,8259.2,62.80000000000001,-80.69999999999999,23.900000000000006,2025-01-29 11:49:12,0.0
-2812.0,-301.6,7931.2,65.80000000000001,-200.7,65.9,2025-01-29 11:49:12,0.0
-2592.0,-245.60000000000002,8139.2,79.80000000000001,-351.7,91.9,2025-01-29 11:49:12,0.0
-2632.0,-253.60000000000002,8059.2,69.80000000000001,-339.7,105.9,2025-01-29 11:49:12,0.0
-2676.0,-305.6,8323.2,69.80000000000001,-395.7,117.9,2025-01-29 11:49:12,0.0
-2632.0,-285.6,8343.2,79.80000000000001,-375.7,96.9,2025-01-29 11:49:12,0.0
-2604.0,-229.60000000000002,8415.2,66.80000000000001,-258.7,27.900000000000006,2025-01-29 11:49:12,0.0
-2648.0,-253.60000000000002,8343.2,56.80000000000001,-117.69999999999999,20.900000000000006,2025-01-29 11:49:12,0.0
-2504.0,-261.6,8355.2,32.80000000000001,-64.69999999999999,56.900000000000006,2025-01-29 11:49:12,0.0
-2684.0,-285.6,8263.2,28.80000000000001,-75.69999999999999,61.900000000000006,2025-01-29 11:49:12,0.0
-2580.0,-261.6,8247.2,0.8000000000000114,-125.69999999999999,100.9,2025-01-29 11:49:12,0.0
-2616.0,-277.6,8391.2,-12.199999999999989,-136.7,124.9,2025-01-29 11:49:12,0.0
-2608.0,-305.6,8251.2,-16.19999999999999,-199.7,109.9,2025-01-29 11:49:12,0.0
-2672.0,-365.6,8171.2,28.80000000000001,-204.7,53.900000000000006,2025-01-29 11:49:12,0.0
-2584.0,-369.6,8443.2,-6.199999999999989,-168.7,19.900000000000006,2025-01-29 11:49:12,0.0
-2684.0,-333.6,8363.2,23.80000000000001,-104.69999999999999,14.900000000000006,2025-01-29 11:49:12,0.0
-2620.0,-341.6,8255.2,-1.1999999999999886,-53.69999999999999,70.9,2025-01-29 11:49:12,0.0
-2664.0,-201.60000000000002,8119.2,0.8000000000000114,-30.69999999999999,104.9,2025-01-29 11:49:12,0.0
-2716.0,-261.6,8235.2,3.8000000000000114,-71.69999999999999,116.9,2025-01-29 11:49:12,0.0
-2812.0,-313.6,8331.2,14.800000000000011,-132.7,119.9,2025-01-29 11:49:12,0.0
-2600.0,-249.60000000000002,8135.2,24.80000000000001,-140.7,67.9,2025-01-29 11:49:12,0.0
-2568.0,-273.6,8391.2,29.80000000000001,-143.7,39.900000000000006,2025-01-29 11:49:12,0.0
-2636.0,-249.60000000000002,8399.2,57.80000000000001,-123.69999999999999,8.900000000000006,2025-01-29 11:49:12,0.0
-2604.0,-197.60000000000002,8355.2,39.80000000000001,-66.69999999999999,19.900000000000006,2025-01-29 11:49:12,0.0
-2648.0,-273.6,8307.2,7.800000000000011,-43.69999999999999,55.900000000000006,2025-01-29 11:49:12,0.0
-2804.0,-217.60000000000002,8203.2,43.80000000000001,-51.69999999999999,61.900000000000006,2025-01-29 11:49:12,0.0
-2720.0,-213.60000000000002,8315.2,30.80000000000001,-24.69999999999999,58.900000000000006,2025-01-29 11:49:12,0.0
-2596.0,-205.60000000000002,8343.2,36.80000000000001,-69.69999999999999,32.900000000000006,2025-01-29 11:49:12,0.0
-2568.0,-177.60000000000002,8331.2,52.80000000000001,-55.69999999999999,-2.0999999999999943,2025-01-29 11:49:12,0.0
-2656.0,-281.6,8259.2,11.800000000000011,-70.69999999999999,-0.09999999999999432,2025-01-29 11:49:12,0.0
-2708.0,-337.6,8199.2,-18.19999999999999,-78.69999999999999,16.900000000000006,2025-01-29 11:49:12,0.0
-2708.0,-241.60000000000002,8355.2,6.800000000000011,-71.69999999999999,38.900000000000006,2025-01-29 11:49:12,0.0
-2692.0,-289.6,8375.2,16.80000000000001,-118.69999999999999,25.900000000000006,2025-01-29 11:49:12,0.0
-2800.0,-285.6,8315.2,4.800000000000011,-77.69999999999999,15.900000000000006,2025-01-29 11:49:12,0.0
-2680.0,-157.60000000000002,8291.2,-20.19999999999999,-106.69999999999999,26.900000000000006,2025-01-29 11:49:12,0.0
-2592.0,-193.60000000000002,8215.2,22.80000000000001,-65.69999999999999,23.900000000000006,2025-01-29 11:49:12,0.0
-2716.0,-341.6,8427.2,7.800000000000011,-85.69999999999999,7.900000000000006,2025-01-29 11:49:12,0.0
-2648.0,-353.6,8331.2,20.80000000000001,-63.69999999999999,26.900000000000006,2025-01-29 11:49:12,0.0
-2752.0,-305.6,8287.2,10.800000000000011,-75.69999999999999,26.900000000000006,2025-01-29 11:49:12,0.0
-2688.0,-293.6,8287.2,3.8000000000000114,-68.69999999999999,3.9000000000000057,2025-01-29 11:49:12,0.0
-2728.0,-221.60000000000002,8103.2,-15.199999999999989,-77.69999999999999,8.900000000000006,2025-01-29 11:49:12,0.0
-2684.0,-177.60000000000002,8263.2,10.800000000000011,-92.69999999999999,51.900000000000006,2025-01-29 11:49:12,0.0
-2660.0,-269.6,8055.2,9.800000000000011,-71.69999999999999,49.900000000000006,2025-01-29 11:49:12,0.0
-2676.0,-213.60000000000002,8271.2,-9.199999999999989,-2.6999999999999886,24.900000000000006,2025-01-29 11:49:12,0.0
-2604.0,-221.60000000000002,8231.2,-7.199999999999989,7.300000000000011,27.900000000000006,2025-01-29 11:49:12,0.0
-2612.0,-181.60000000000002,8227.2,-28.19999999999999,-50.69999999999999,33.900000000000006,2025-01-29 11:49:13,0.0
-2624.0,-269.6,8275.2,-11.199999999999989,-89.69999999999999,39.900000000000006,2025-01-29 11:49:13,0.0
-2584.0,-329.6,8387.2,-36.19999999999999,-96.69999999999999,-11.099999999999994,2025-01-29 11:49:13,0.0
-2760.0,-265.6,8311.2,-30.19999999999999,-27.69999999999999,-58.099999999999994,2025-01-29 11:49:13,0.0
-2792.0,-229.60000000000002,8211.2,5.800000000000011,-68.69999999999999,-49.099999999999994,2025-01-29 11:49:13,0.0
-2676.0,-253.60000000000002,8207.2,13.800000000000011,-251.7,24.900000000000006,2025-01-29 11:49:13,0.0
-2668.0,-229.60000000000002,8183.2,8.800000000000011,-258.7,66.9,2025-01-29 11:49:13,0.0
-2648.0,-209.60000000000002,8463.2,-18.19999999999999,-274.7,59.900000000000006,2025-01-29 11:49:13,0.0
-2668.0,-229.60000000000002,8515.2,-11.199999999999989,-267.7,42.900000000000006,2025-01-29 11:49:13,0.0
-2680.0,-233.60000000000002,8439.2,5.800000000000011,-186.7,12.900000000000006,2025-01-29 11:49:13,0.0
-2600.0,-285.6,8303.2,5.800000000000011,-128.7,-8.099999999999994,2025-01-29 11:49:13,0.0
-2692.0,-337.6,8367.2,3.8000000000000114,-75.69999999999999,5.900000000000006,2025-01-29 11:49:13,0.0
-2672.0,-337.6,8267.2,-29.19999999999999,-61.69999999999999,-3.0999999999999943,2025-01-29 11:49:13,0.0
-2676.0,-313.6,8271.2,-28.19999999999999,-91.69999999999999,23.900000000000006,2025-01-29 11:49:13,0.0
-2520.0,-285.6,8267.2,-44.19999999999999,-119.69999999999999,20.900000000000006,2025-01-29 11:49:13,0.0
-2668.0,-325.6,8195.2,-14.199999999999989,-133.7,32.900000000000006,2025-01-29 11:49:13,0.0
-2704.0,-349.6,8355.2,-10.199999999999989,-168.7,26.900000000000006,2025-01-29 11:49:13,0.0
-2676.0,-361.6,8403.2,3.8000000000000114,-135.7,11.900000000000006,2025-01-29 11:49:13,0.0
-2704.0,-273.6,8423.2,-2.1999999999999886,-107.69999999999999,30.900000000000006,2025-01-29 11:49:13,0.0
-2688.0,-357.6,8331.2,-20.19999999999999,-59.69999999999999,-8.099999999999994,2025-01-29 11:49:13,0.0
-2692.0,-305.6,8363.2,-24.19999999999999,-73.69999999999999,9.900000000000006,2025-01-29 11:49:13,0.0
-2680.0,-173.60000000000002,8279.2,11.800000000000011,-54.69999999999999,49.900000000000006,2025-01-29 11:49:13,0.0
-2648.0,-285.6,8323.2,-7.199999999999989,-85.69999999999999,67.9,2025-01-29 11:49:13,0.0
-2588.0,-261.6,8443.2,-0.19999999999998863,-57.69999999999999,35.900000000000006,2025-01-29 11:49:13,0.0
-2560.0,-289.6,8455.2,32.80000000000001,-37.69999999999999,23.900000000000006,2025-01-29 11:49:13,0.0
-2644.0,-185.60000000000002,8267.2,21.80000000000001,-33.69999999999999,12.900000000000006,2025-01-29 11:49:13,0.0
-2668.0,-281.6,8439.2,18.80000000000001,-8.699999999999989,-1.0999999999999943,2025-01-29 11:49:13,0.0
-2680.0,-325.6,8267.2,13.800000000000011,-26.69999999999999,14.900000000000006,2025-01-29 11:49:13,0.0
-2752.0,-269.6,8195.2,23.80000000000001,-29.69999999999999,17.900000000000006,2025-01-29 11:49:13,0.0
-2656.0,-213.60000000000002,8327.2,6.800000000000011,-8.699999999999989,52.900000000000006,2025-01-29 11:49:13,0.0
-2680.0,-265.6,8319.2,0.8000000000000114,12.300000000000011,49.900000000000006,2025-01-29 11:49:13,0.0
-2696.0,-245.60000000000002,8147.2,-15.199999999999989,-5.699999999999989,67.9,2025-01-29 11:49:13,0.0
-2512.0,-301.6,8327.2,-5.199999999999989,-16.69999999999999,98.9,2025-01-29 11:49:13,0.0
-2656.0,-257.6,8355.2,-2.1999999999999886,-43.69999999999999,63.900000000000006,2025-01-29 11:49:13,0.0
-2772.0,-317.6,8147.2,-29.19999999999999,-93.69999999999999,44.900000000000006,2025-01-29 11:49:13,0.0
-2676.0,-297.6,8419.2,-34.19999999999999,-82.69999999999999,5.900000000000006,2025-01-29 11:49:13,0.0
-2640.0,-361.6,8107.2,-15.199999999999989,-76.69999999999999,22.900000000000006,2025-01-29 11:49:13,0.0
-2740.0,-269.6,8255.2,-33.19999999999999,-34.69999999999999,57.900000000000006,2025-01-29 11:49:13,0.0
-2592.0,-253.60000000000002,8363.2,-49.19999999999999,-25.69999999999999,76.9,2025-01-29 11:49:13,0.0
-2596.0,-157.60000000000002,8271.2,-42.19999999999999,-29.69999999999999,39.900000000000006,2025-01-29 11:49:13,0.0
-2560.0,-245.60000000000002,8391.2,-40.19999999999999,-37.69999999999999,21.900000000000006,2025-01-29 11:49:13,0.0
-2676.0,-321.6,8299.2,-35.19999999999999,-28.69999999999999,4.900000000000006,2025-01-29 11:49:13,0.0
-2552.0,-293.6,8211.2,-30.19999999999999,-20.69999999999999,11.900000000000006,2025-01-29 11:49:13,0.0
-2716.0,-329.6,8211.2,-20.19999999999999,-42.69999999999999,30.900000000000006,2025-01-29 11:49:13,0.0
-2780.0,-261.6,8211.2,-22.19999999999999,-34.69999999999999,32.900000000000006,2025-01-29 11:49:13,0.0
-2768.0,-309.6,8339.2,-24.19999999999999,-25.69999999999999,39.900000000000006,2025-01-29 11:49:13,0.0
-2696.0,-313.6,8347.2,-28.19999999999999,-52.69999999999999,68.9,2025-01-29 11:49:13,
-2652.0,-309.6,8315.2,-33.19999999999999,-46.69999999999999,42.900000000000006,2025-01-29 11:49:13,0.0
-2724.0,-229.60000000000002,8383.2,-14.199999999999989,-16.69999999999999,36.900000000000006,2025-01-29 11:49:13,0.0
-2624.0,-317.6,8175.2,-0.19999999999998863,15.300000000000011,16.900000000000006,2025-01-29 11:49:13,0.0
-2648.0,-241.60000000000002,8175.2,12.800000000000011,-35.69999999999999,42.900000000000006,2025-01-29 11:49:13,0.0
-2536.0,-253.60000000000002,8295.2,-17.19999999999999,-68.69999999999999,60.900000000000006,2025-01-29 11:49:13,0.0
-2708.0,-249.60000000000002,8179.2,-6.199999999999989,-19.69999999999999,35.900000000000006,2025-01-29 11:49:13,0.0
-2656.0,-329.6,8299.2,4.800000000000011,62.30000000000001,20.900000000000006,2025-01-29 11:49:13,0.0
-2764.0,-153.60000000000002,8111.2,38.80000000000001,-110.69999999999999,42.900000000000006,2025-01-29 11:49:13,0.0
-2648.0,-153.60000000000002,8279.2,29.80000000000001,-197.7,116.9,2025-01-29 11:49:13,0.0
-2612.0,-169.60000000000002,8139.2,25.80000000000001,-240.7,92.9,2025-01-29 11:49:13,0.0
-2580.0,-257.6,8107.2,27.80000000000001,-286.7,84.9,2025-01-29 11:49:13,0.0
-2636.0,-289.6,8443.2,44.80000000000001,-222.7,22.900000000000006,2025-01-29 11:49:13,0.0
-2620.0,-141.60000000000002,8287.2,56.80000000000001,-84.69999999999999,33.900000000000006,2025-01-29 11:49:13,0.0
-2576.0,-301.6,8275.2,50.80000000000001,-23.69999999999999,-5.099999999999994,2025-01-29 11:49:13,0.0
-2632.0,-329.6,8219.2,-16.19999999999999,-24.69999999999999,-21.099999999999994,2025-01-29 11:49:13,0.0
-2660.0,-281.6,8119.2,-8.199999999999989,-12.699999999999989,20.900000000000006,2025-01-29 11:49:13,0.0
-2636.0,-361.6,8047.2,-38.19999999999999,-49.69999999999999,19.900000000000006,2025-01-29 11:49:14,0.0
-2764.0,-289.6,8291.2,-29.19999999999999,-94.69999999999999,51.900000000000006,2025-01-29 11:49:14,0.0
-2612.0,-257.6,8135.2,13.800000000000011,-157.7,76.9,2025-01-29 11:49:14,0.0
-2528.0,-181.60000000000002,8391.2,-9.199999999999989,-123.69999999999999,54.900000000000006,2025-01-29 11:49:14,0.0
-2624.0,-205.60000000000002,8275.2,-24.19999999999999,-52.69999999999999,34.900000000000006,2025-01-29 11:49:14,0.0
-2748.0,-229.60000000000002,8303.2,1.8000000000000114,-16.69999999999999,15.900000000000006,2025-01-29 11:49:14,0.0
-2672.0,-325.6,8283.2,10.800000000000011,-43.69999999999999,26.900000000000006,2025-01-29 11:49:14,0.0
-2648.0,-245.60000000000002,8203.2,-4.199999999999989,-77.69999999999999,46.900000000000006,2025-01-29 11:49:14,0.0
-2628.0,-213.60000000000002,8223.2,-20.19999999999999,-72.69999999999999,33.900000000000006,2025-01-29 11:49:14,0.0
-2704.0,-217.60000000000002,8331.2,4.800000000000011,-99.69999999999999,25.900000000000006,2025-01-29 11:49:14,0.0
-2628.0,-201.60000000000002,8371.2,-6.199999999999989,-90.69999999999999,26.900000000000006,2025-01-29 11:49:14,0.0
-2656.0,-233.60000000000002,8307.2,13.800000000000011,-76.69999999999999,6.900000000000006,2025-01-29 11:49:14,0.0
-2732.0,-221.60000000000002,8195.2,9.800000000000011,-96.69999999999999,30.900000000000006,2025-01-29 11:49:14,0.0
-2644.0,-229.60000000000002,8343.2,8.800000000000011,-101.69999999999999,35.900000000000006,2025-01-29 11:49:14,0.0
-2564.0,-293.6,8251.2,13.800000000000011,-85.69999999999999,45.900000000000006,2025-01-29 11:49:14,0.0
-2652.0,-213.60000000000002,8159.2,-3.1999999999999886,-91.69999999999999,45.900000000000006,2025-01-29 11:49:14,0.0
-2624.0,-285.6,8187.2,37.80000000000001,-110.69999999999999,19.900000000000006,2025-01-29 11:49:14,0.0
-2556.0,-261.6,8315.2,35.80000000000001,-96.69999999999999,-14.099999999999994,2025-01-29 11:49:14,0.0
-2568.0,-233.60000000000002,8143.2,37.80000000000001,-123.69999999999999,-30.099999999999994,2025-01-29 11:49:14,0.0
-2628.0,-165.60000000000002,8039.2,15.800000000000011,-105.69999999999999,-5.099999999999994,2025-01-29 11:49:14,0.0
-2744.0,-377.6,8159.2,14.800000000000011,-103.69999999999999,5.900000000000006,2025-01-29 11:49:14,0.0
-2776.0,-297.6,8103.2,-0.19999999999998863,-81.69999999999999,-6.099999999999994,2025-01-29 11:49:14,0.0
-2640.0,-273.6,8107.2,47.80000000000001,-136.7,-49.099999999999994,2025-01-29 11:49:14,0.0
-2656.0,-193.60000000000002,8151.2,103.80000000000001,-201.7,-74.1,2025-01-29 11:49:14,0.0
-2684.0,-321.6,8115.2,156.8,-213.7,-152.1,2025-01-29 11:49:14,0.0
-2692.0,6.399999999999977,7899.2,216.8,-379.7,-156.1,2025-01-29 11:49:14,0.0
-2804.0,82.39999999999998,7935.2,189.8,-531.7,-139.1,2025-01-29 11:49:14,0.0
-2624.0,54.39999999999998,8007.2,156.8,-520.7,-103.1,2025-01-29 11:49:14,0.0
-2504.0,-157.60000000000002,7963.2,109.80000000000001,-721.7,-7.099999999999994,2025-01-29 11:49:14,0.0
-2404.0,-317.6,8387.2,34.80000000000001,-703.7,-0.09999999999999432,2025-01-29 11:49:14,0.0
-2392.0,-393.6,8383.2,130.8,-680.7,-22.099999999999994,2025-01-29 11:49:14,0.0
-2584.0,-501.6,8499.2,84.80000000000001,-477.7,3.9000000000000057,2025-01-29 11:49:14,0.0
-2712.0,-381.6,8639.2,87.80000000000001,-401.7,36.900000000000006,2025-01-29 11:49:14,0.0
-2996.0,-365.6,8667.2,129.8,-487.7,75.9,2025-01-29 11:49:14,0.0
-2864.0,-317.6,8611.2,76.80000000000001,-527.7,78.9,2025-01-29 11:49:14,0.0
-2644.0,-249.60000000000002,8479.2,34.80000000000001,-465.7,137.9,2025-01-29 11:49:14,0.0
-2484.0,-237.60000000000002,8427.2,-18.19999999999999,-362.7,126.9,2025-01-29 11:49:14,0.0
-2528.0,-217.60000000000002,8615.2,-23.19999999999999,-214.7,123.9,2025-01-29 11:49:14,0.0
-2544.0,-481.6,8579.2,-11.199999999999989,-232.7,177.9,2025-01-29 11:49:14,0.0
-2616.0,-589.6,8503.2,-68.19999999999999,-534.7,247.9,2025-01-29 11:49:14,0.0
-2436.0,-457.6,8199.2,-129.2,-791.7,250.9,2025-01-29 11:49:14,0.0
-2300.0,-421.6,8631.2,-69.19999999999999,-579.7,147.9,2025-01-29 11:49:14,0.0
-2220.0,-377.6,8763.2,42.80000000000001,-390.7,-49.099999999999994,2025-01-29 11:49:14,0.0
-2260.0,-261.6,8615.2,222.8,-480.7,22.900000000000006,2025-01-29 11:49:14,0.0
-2480.0,-257.6,8799.2,302.8,-505.7,139.9,2025-01-29 11:49:14,0.0
-2620.0,-169.60000000000002,8799.2,267.8,-381.7,292.9,2025-01-29 11:49:14,0.0
-2960.0,154.39999999999998,8827.2,-50.19999999999999,-49.69999999999999,284.9,2025-01-29 11:49:14,0.0
-2992.0,190.39999999999998,8747.2,-290.2,230.3,10.900000000000006,2025-01-29 11:49:14,0.0
-2568.0,-145.60000000000002,8631.2,-288.2,427.3,-181.1,2025-01-29 11:49:14,0.0
-2408.0,-389.6,8543.2,-204.2,494.3,-173.1,2025-01-29 11:49:14,0.0
-2520.0,-613.6,8511.2,-94.19999999999999,343.3,-54.099999999999994,2025-01-29 11:49:14,0.0
-2636.0,-509.6,8459.2,-52.19999999999999,163.3,229.9,2025-01-29 11:49:14,0.0
-2436.0,-421.6,8335.2,-99.19999999999999,266.3,594.9,2025-01-29 11:49:14,0.0
-2812.0,-389.6,8339.2,-313.2,122.30000000000001,1034.9,2025-01-29 11:49:14,0.0
-1668.0,-421.6,8091.2,-493.2,611.3,963.9,2025-01-29 11:49:14,0.0
-1688.0,-265.6,8651.2,-567.2,1088.3,840.9,2025-01-29 11:49:14,0.0
-1724.0,-441.6,8107.2,-560.2,1771.3,769.9,2025-01-29 11:49:14,0.0
-2484.0,-317.6,8035.2,-364.2,2427.3,806.9,2025-01-29 11:49:14,0.0
-3060.0,-117.60000000000002,8011.2,-239.2,2995.3,973.9,2025-01-29 11:49:14,0.0
-2356.0,-101.60000000000002,7867.2,-289.2,2658.3,1086.9,2025-01-29 11:49:14,0.0
-1780.0,126.39999999999998,7735.2,-471.2,2394.3,1069.9,2025-01-29 11:49:14,0.0
-1476.0,158.39999999999998,7815.2,-706.2,2315.3,915.9,2025-01-29 11:49:15,0.0
-1776.0,222.39999999999998,8527.2,-753.2,2813.3,626.9,2025-01-29 11:49:15,0.0
-3352.0,278.4,8167.2,-380.2,3698.3,177.9,2025-01-29 11:49:15,0.0
-4668.0,166.39999999999998,7855.2,234.8,3654.3,11.900000000000006,2025-01-29 11:49:15,0.0
-4316.0,-641.6,8003.2,502.8,2036.3,86.9,2025-01-29 11:49:15,0.0
-4248.0,-201.60000000000002,8683.2,416.8,2522.3,58.900000000000006,2025-01-29 11:49:15,0.0
-3324.0,162.39999999999998,9351.2,459.8,3803.3,10.900000000000006,2025-01-29 11:49:15,0.0
-2320.0,690.4,9587.2,638.8,5689.3,8.900000000000006,2025-01-29 11:49:15,0.0
-2044.0,890.4,8715.2,627.8,7431.3,217.9,2025-01-29 11:49:15,0.0
-2496.0,1334.4,7919.2,318.8,8438.3,310.9,2025-01-29 11:49:15,0.0
-2856.0,530.4,6799.2,157.8,8901.3,635.9,2025-01-29 11:49:15,0.0
-3048.0,34.39999999999998,6379.2,103.80000000000001,8830.3,845.9,2025-01-29 11:49:15,0.0
-2692.0,-581.6,6691.2,230.8,8607.3,660.9,2025-01-29 11:49:15,0.0
-10144.0,-1241.6,10111.2,-22.19999999999999,12153.3,-258.1,2025-01-29 11:49:15,0.0
-4856.0,-177.60000000000002,4059.2,173.8,7494.3,682.9,2025-01-29 11:49:15,0.0
-5488.0,-285.6,4979.2,294.8,6483.3,909.9,2025-01-29 11:49:15,0.0
-7740.0,-1181.6,6311.2,607.8,7179.3,656.9,2025-01-29 11:49:15,0.0
-5788.0,-1101.6,5347.2,1290.8,6578.3,202.9,2025-01-29 11:49:15,0.0
-4524.0,-337.6,4259.2,1810.8,7033.3,-630.1,2025-01-29 11:49:15,0.0
-6084.0,210.39999999999998,3131.2,1829.8,4826.3,-713.1,2025-01-29 11:49:15,0.0
-5328.0,390.4,2599.2,1377.8,4139.3,-344.1,2025-01-29 11:49:15,0.0
-4016.0,666.4,3231.2,978.8,4851.3,-240.1,2025-01-29 11:49:15,0.0
-3760.0,-121.60000000000002,3455.2,806.8,5978.3,183.9,2025-01-29 11:49:15,
-3444.0,-57.60000000000002,3099.2,701.8,7033.3,336.9,2025-01-29 11:49:15,0.0
-3636.0,102.39999999999998,2743.2,597.8,7237.3,147.9,2025-01-29 11:49:15,0.0
-3060.0,-29.600000000000023,3131.2,537.8,6829.3,69.9,2025-01-29 11:49:15,0.0
-1856.0,-89.60000000000002,3023.2,544.8,7662.3,-59.099999999999994,2025-01-29 11:49:15,0.0
-2032.0,142.39999999999998,2035.1999999999998,565.8,8073.3,-67.1,2025-01-29 11:49:15,0.0
-1984.0,318.4,1619.1999999999998,488.8,7795.3,46.900000000000006,2025-01-29 11:49:15,0.0
-1804.0,402.4,1551.1999999999998,372.8,7010.3,166.9,2025-01-29 11:49:15,0.0
-680.0,486.4,1179.1999999999998,243.8,6263.3,275.9,2025-01-29 11:49:15,0.0
-952.0,586.4,1583.1999999999998,141.8,6020.3,442.9,2025-01-29 11:49:15,0.0
-1036.0,530.4,1199.1999999999998,159.8,5446.3,412.9,2025-01-29 11:49:15,0.0
-1076.0,530.4,1155.1999999999998,107.80000000000001,4652.3,452.9,2025-01-29 11:49:15,0.0
-972.0,430.4,1071.1999999999998,89.80000000000001,4022.3,578.9,2025-01-29 11:49:15,0.0
-952.0,14.399999999999977,1423.1999999999998,130.8,3730.3,715.9,2025-01-29 11:49:15,0.0
-744.0,-5.600000000000023,1587.1999999999998,250.8,3761.3,687.9,2025-01-29 11:49:15,0.0
-908.0,-245.60000000000002,1351.1999999999998,539.8,3893.3,567.9,2025-01-29 11:49:15,0.0
-940.0,-97.60000000000002,731.1999999999998,748.8,2940.3,628.9,2025-01-29 11:49:15,0.0
-560.0,114.39999999999998,955.1999999999998,691.8,3452.3,502.9,2025-01-29 11:49:15,0.0
-384.0,194.39999999999998,659.1999999999998,496.8,4554.3,607.9,2025-01-29 11:49:15,0.0
-12.0,-37.60000000000002,299.1999999999998,408.8,5206.3,475.9,2025-01-29 11:49:15,0.0
304.0,286.4,-152.80000000000018,405.8,5084.3,21.900000000000006,2025-01-29 11:49:15,0.0
24.0,286.4,-1260.8000000000002,204.8,4363.3,-62.099999999999994,2025-01-29 11:49:15,0.0
-488.0,662.4,-1408.8000000000002,-169.2,3395.3,115.9,2025-01-29 11:49:15,0.0
-384.0,454.4,-2048.8,-691.2,2311.3,10.900000000000006,2025-01-29 11:49:15,0.0
732.0,290.4,-1836.8000000000002,-729.2,-846.7,361.9,2025-01-29 11:49:15,0.0
-628.0,370.4,-1396.8000000000002,-705.2,31.30000000000001,-204.1,2025-01-29 11:49:15,0.0
640.0,638.4,-696.8000000000002,-648.2,-828.7,-380.1,2025-01-29 11:49:15,0.0
412.0,466.4,375.1999999999998,-571.2,-1980.7,-329.1,2025-01-29 11:49:15,0.0
940.0,158.39999999999998,-60.80000000000018,-347.2,-612.7,-517.1,2025-01-29 11:49:15,0.0
1096.0,-73.60000000000002,283.1999999999998,-180.2,-452.7,-401.1,2025-01-29 11:49:15,0.0
1428.0,-305.6,315.1999999999998,354.8,-324.7,-146.1,2025-01-29 11:49:15,0.0
1556.0,-473.6,-484.8000000000002,566.8,859.3,-183.1,2025-01-29 11:49:15,0.0
1552.0,-353.6,-780.8000000000002,872.8,1749.3,17.900000000000006,2025-01-29 11:49:15,0.0
1148.0,42.39999999999998,-820.8000000000002,871.8,2991.3,2.9000000000000057,2025-01-29 11:49:15,0.0
1268.0,430.4,-512.8000000000002,827.8,3753.3,-440.1,2025-01-29 11:49:15,0.0
1116.0,558.4,-464.8000000000002,783.8,4193.3,-847.1,2025-01-29 11:49:15,0.0
1044.0,410.4,-772.8000000000002,872.8,5059.3,-1266.1,2025-01-29 11:49:15,0.0
1488.0,310.4,-1720.8000000000002,655.8,6185.3,-1989.1,2025-01-29 11:49:15,0.0
2116.0,362.4,-2844.8,537.8,6401.3,-2707.1,2025-01-29 11:49:15,0.0
2508.0,330.4,-3456.8,476.8,5400.3,-3039.1,2025-01-29 11:49:15,0.0
2208.0,78.39999999999998,-3284.8,118.80000000000001,4448.3,-3254.1,2025-01-29 11:49:16,0.0
860.0,-129.60000000000002,-2368.8,-317.2,4079.3,-3457.1,2025-01-29 11:49:16,0.0
112.0,-753.6,-1552.8000000000002,-919.2,4370.3,-3703.1,2025-01-29 11:49:16,0.0
760.0,-1081.6,-1680.8000000000002,-1308.2,2718.3,-3904.1,2025-01-29 11:49:16,0.0
1080.0,-1345.6,-2512.8,-1275.2,588.3,-3879.1,2025-01-29 11:49:16,0.0
1048.0,-1433.6,-2864.8,-1499.2,-2119.7,-3639.1,2025-01-29 11:49:16,0.0
808.0,-1257.6,-2296.8,-1583.2,-4003.7,-3107.1,2025-01-29 11:49:16,0.0
1764.0,-1437.6,-1524.8000000000002,-1907.2,-7771.7,-1659.1,2025-01-29 11:49:16,0.0
884.0,-849.6,-452.8000000000002,-1797.2,-5583.7,-1742.1,2025-01-29 11:49:16,0.0
1364.0,-701.6,-580.8000000000002,-1821.2,-6477.7,-1355.1,2025-01-29 11:49:16,0.0
1540.0,-773.6,-368.8000000000002,-1828.2,-7097.7,-1190.1,2025-01-29 11:49:16,0.0
1636.0,-885.6,-316.8000000000002,-1858.2,-7038.7,-1082.1,2025-01-29 11:49:16,0.0
1456.0,-997.6,-216.80000000000018,-1760.2,-6705.7,-748.1,2025-01-29 11:49:16,0.0
1836.0,-1253.6,27.199999999999818,-1543.2,-6452.7,-234.1,2025-01-29 11:49:16,0.0
1624.0,-1705.6,619.1999999999998,-1063.2,-5208.7,66.9,2025-01-29 11:49:16,0.0
1488.0,-1781.6,1275.1999999999998,-501.2,-4479.7,84.9,2025-01-29 11:49:16,0.0
1000.0,-2025.6,1859.1999999999998,271.8,-4177.7,-25.099999999999994,2025-01-29 11:49:16,0.0
1024.0,-1821.6,1291.1999999999998,914.8,-4458.7,-198.1,2025-01-29 11:49:16,0.0
176.0,-1661.6,255.19999999999982,1077.8,-5075.7,140.9,2025-01-29 11:49:16,0.0
296.0,-1385.6,-416.8000000000002,1220.8,-5869.7,850.9,2025-01-29 11:49:16,0.0
544.0,-1033.6,-892.8000000000002,1271.8,-7063.7,1684.9,2025-01-29 11:49:16,0.0
1936.0,-1293.6,-352.8000000000002,1315.8,-8420.7,2147.9,2025-01-29 11:49:16,0.0
3764.0,-813.6,795.1999999999998,1803.8,-5809.7,1914.9,2025-01-29 11:49:16,0.0
3844.0,-317.6,667.1999999999998,1619.8,-3771.7,2198.9,2025-01-29 11:49:16,0.0
3460.0,174.39999999999998,-168.80000000000018,1348.8,-1323.7,2343.9,2025-01-29 11:49:16,0.0
2488.0,538.4,-620.8000000000002,757.8,1110.3,2311.9,2025-01-29 11:49:16,0.0
1312.0,850.4,-716.8000000000002,-42.19999999999999,2935.3,2495.9,2025-01-29 11:49:16,0.0
1064.0,1570.4,-1432.8000000000002,-753.2,3364.3,2625.9,2025-01-29 11:49:16,0.0
756.0,2898.4,-1972.8000000000002,-1858.2,2761.3,2673.9,2025-01-29 11:49:16,0.0
664.0,4378.4,-2112.8,-2941.2,1946.3,2596.9,2025-01-29 11:49:16,0.0
468.0,5274.4,-768.8000000000002,-3700.2,1903.3,2016.9,2025-01-29 11:49:16,0.0
2808.0,3366.4,2023.1999999999998,-4366.2,277.3,917.9,2025-01-29 11:49:16,0.0
-188.0,2458.4,2423.2,-4422.2,1829.3,-1014.1,2025-01-29 11:49:16,0.0
-1100.0,586.4,2667.2,-4146.2,1068.3,-867.1,2025-01-29 11:49:16,0.0
-1152.0,-329.6,2359.2,-3663.2,1674.3,-128.1,2025-01-29 11:49:16,0.0
-1132.0,-313.6,2495.2,-3086.2,2336.3,354.9,2025-01-29 11:49:16,0.0
-1160.0,538.4,1687.1999999999998,-2610.2,2816.3,534.9,2025-01-29 11:49:16,0.0
-1040.0,1502.4,1203.1999999999998,-2739.2,2417.3,411.9,2025-01-29 11:49:16,0.0
-980.0,2618.4,1551.1999999999998,-3011.2,1309.3,147.9,2025-01-29 11:49:16,0.0
-408.0,3298.4,1543.1999999999998,-3447.2,123.30000000000001,-158.1,2025-01-29 11:49:16,0.0
-192.0,3654.4,2143.2,-3885.2,-640.7,-613.1,2025-01-29 11:49:16,0.0
192.0,3438.4,3087.2,-4018.2,-1081.7,-1147.1,2025-01-29 11:49:16,0.0
72.0,2122.4,3411.2,-3864.2,-1077.7,-1664.1,2025-01-29 11:49:16,0.0
208.0,894.4,3411.2,-3190.2,-945.7,-1787.1,2025-01-29 11:49:16,0.0
696.0,170.39999999999998,3163.2,-2362.2,-850.7,-1822.1,2025-01-29 11:49:16,0.0
1112.0,70.39999999999998,4039.2,-1366.2,-251.7,-1939.1,2025-01-29 11:49:16,0.0
1112.0,862.4,4567.2,-882.2,890.3,-2532.1,2025-01-29 11:49:16,0.0
136.0,2362.4,4523.2,-508.2,1748.3,-2919.1,2025-01-29 11:49:16,0.0
-528.0,3362.4,1923.1999999999998,-326.2,2439.3,-2960.1,2025-01-29 11:49:16,0.0
-1504.0,3114.4,879.1999999999998,-701.2,3453.3,-2997.1,2025-01-29 11:49:16,0.0
-2140.0,1978.4,1523.1999999999998,-778.2,3727.3,-2839.1,2025-01-29 11:49:16,0.0
-3116.0,850.4,2295.2,-238.2,3315.3,-2637.1,2025-01-29 11:49:16,0.0
-3648.0,26.399999999999977,2499.2,921.8,2647.3,-2097.1,2025-01-29 11:49:16,0.0
-3516.0,-717.6,2603.2,2148.8,1937.3,-1802.1,2025-01-29 11:49:16,0.0
-3888.0,-809.6,2807.2,3110.8,1546.3,-1606.1,2025-01-29 11:49:16,0.0
-4108.0,578.4,3371.2,3402.8,797.3,-1226.1,2025-01-29 11:49:16,0.0
-3972.0,2482.4,3051.2,2998.8,252.3,-1044.1,2025-01-29 11:49:16,0.0
-4032.0,4086.4,2215.2,2029.8,262.3,-955.1,2025-01-29 11:49:16,0.0
-3972.0,4854.4,-184.80000000000018,202.8,1658.3,-775.1,2025-01-29 11:49:17,0.0
-5128.0,4890.4,-356.8000000000002,-1045.2,3599.3,-875.1,2025-01-29 11:49:17,0.0
-5820.0,5318.4,-1596.8000000000002,-2220.2,5041.3,-1158.1,2025-01-29 11:49:17,
-1092.0,4914.4,-3224.8,-3643.2,3561.3,-1197.1,2025-01-29 11:49:17,0.0
-4172.0,4738.4,-4844.8,-4557.2,3707.3,-2071.1,2025-01-29 11:49:17,0.0
-3148.0,3466.4,-3872.8,-5429.2,-103.69999999999999,-2590.1,2025-01-29 11:49:17,0.0
284.0,2386.4,-2028.8000000000002,-5651.2,-4446.7,-3437.1,2025-01-29 11:49:17,0.0
3356.0,1274.4,1527.1999999999998,-4282.2,-7442.7,-4494.1,2025-01-29 11:49:17,0.0
6024.0,-341.6,1427.1999999999998,-2504.2,-8510.7,-5416.1,2025-01-29 11:49:17,0.0
7412.0,-1589.6,-672.8000000000002,-1596.2,-7448.7,-5835.1,2025-01-29 11:49:17,0.0
7588.0,-1753.6,-3060.8,-1702.2,-4333.7,-5877.1,2025-01-29 11:49:17,0.0
6744.0,-481.6,-4208.8,-2660.2,1594.3,-5759.1,2025-01-29 11:49:17,0.0
5296.0,486.4,-3564.8,-3867.2,6592.3,-5974.1,2025-01-29 11:49:17,0.0
2784.0,610.4,-2536.8,-4941.2,8998.3,-6111.1,2025-01-29 11:49:17,0.0
948.0,-353.6,-2796.8,-5810.2,8342.3,-6604.1,2025-01-29 11:49:17,0.0
-20.0,-801.6,-3776.8,-5878.2,6290.3,-7074.1,2025-01-29 11:49:17,0.0
-1140.0,-1469.6,-3844.8,-5688.2,3087.3,-6978.1,2025-01-29 11:49:17,0.0
-1212.0,-2125.6,-2304.8,-5425.2,-1244.7,-6710.1,2025-01-29 11:49:17,0.0
-340.0,-2377.6,-1112.8000000000002,-5113.2,-4495.7,-6506.1,2025-01-29 11:49:17,0.0
1244.0,-2421.6,-244.80000000000018,-4964.2,-5637.7,-6422.1,2025-01-29 11:49:17,0.0
2396.0,-2153.6,-20.800000000000182,-5123.2,-5300.7,-6229.1,2025-01-29 11:49:17,0.0
3620.0,-1801.6,-416.8000000000002,-5258.2,-3902.7,-5935.1,2025-01-29 11:49:17,0.0
4580.0,-1429.6,-984.8000000000002,-5553.2,-831.7,-5925.1,2025-01-29 11:49:17,0.0
4572.0,-1825.6,-1012.8000000000002,-6023.2,1935.3,-6510.1,2025-01-29 11:49:17,0.0
3260.0,-2053.6,-680.8000000000002,-6135.2,3552.3,-6975.1,2025-01-29 11:49:17,0.0
1740.0,-2285.6,-108.80000000000018,-6202.2,3786.3,-6942.1,2025-01-29 11:49:17,0.0
536.0,-2117.6,359.1999999999998,-6233.2,2932.3,-6682.1,2025-01-29 11:49:17,0.0
-280.0,-2053.6,255.19999999999982,-6330.2,1499.3,-6265.1,2025-01-29 11:49:17,0.0
-152.0,-2245.6,-396.8000000000002,-6448.2,-79.69999999999999,-5573.1,2025-01-29 11:49:17,0.0
448.0,-2409.6,-708.8000000000002,-6357.2,-891.7,-5075.1,2025-01-29 11:49:17,0.0
1012.0,-2721.6,-628.8000000000002,-6249.2,-920.7,-4712.1,2025-01-29 11:49:17,0.0
1792.0,-2609.6,-356.8000000000002,-5874.2,-191.7,-4535.1,2025-01-29 11:49:17,0.0
1384.0,-2365.6,151.19999999999982,-5582.2,340.3,-3980.1,2025-01-29 11:49:17,0.0
1172.0,-2009.6,419.1999999999998,-5475.2,1209.3,-3232.1,2025-01-29 11:49:17,0.0
708.0,-1977.6,163.19999999999982,-5407.2,2315.3,-2907.1,2025-01-29 11:49:17,0.0
252.0,-2245.6,-92.80000000000018,-5342.2,2752.3,-2791.1,2025-01-29 11:49:17,0.0
-260.0,-2621.6,-184.80000000000018,-5164.2,2349.3,-2712.1,2025-01-29 11:49:17,0.0
-684.0,-2897.6,3.199999999999818,-4782.2,995.3,-2423.1,2025-01-29 11:49:17,0.0
-920.0,-2989.6,415.1999999999998,-4295.2,-503.7,-1768.1,2025-01-29 11:49:17,0.0
-16.0,-2057.6,575.1999999999998,-4008.2,-1187.7,-1168.1,2025-01-29 11:49:17,0.0
488.0,-961.6,199.19999999999982,-4142.2,-847.7,-1415.1,2025-01-29 11:49:17,0.0
484.0,-281.6,-208.80000000000018,-4645.2,-264.7,-1446.1,2025-01-29 11:49:17,0.0
408.0,182.39999999999998,-236.80000000000018,-5223.2,507.3,-1458.1,2025-01-29 11:49:17,0.0
604.0,178.39999999999998,-672.8000000000002,-5590.2,1060.3,-1716.1,2025-01-29 11:49:17,0.0
16.0,-333.6,-732.8000000000002,-5977.2,1586.3,-2323.1,2025-01-29 11:49:17,0.0
-680.0,-361.6,-756.8000000000002,-6078.2,2034.3,-3457.1,2025-01-29 11:49:17,0.0
-1724.0,-281.6,-132.80000000000018,-6242.2,1984.3,-4670.1,2025-01-29 11:49:17,0.0
-2688.0,-357.6,623.1999999999998,-6289.2,779.3,-5506.1,2025-01-29 11:49:17,0.0
-2764.0,-1385.6,-152.80000000000018,-6044.2,-553.7,-5973.1,2025-01-29 11:49:17,0.0
-1620.0,-2801.6,-3088.8,-5496.2,-1332.7,-6446.1,2025-01-29 11:49:17,0.0
-2692.0,-4949.6,-3640.8,-4898.2,-514.7,-7189.1,2025-01-29 11:49:17,0.0
-3576.0,-6625.6,-3252.8,-1955.2,385.3,-7855.1,2025-01-29 11:49:17,0.0
-5356.0,-7073.6,-4700.8,-262.2,-2267.7,-5830.1,2025-01-29 11:49:17,0.0
-5960.0,-6417.6,-5380.8,214.8,-6850.7,-2201.1,2025-01-29 11:49:17,0.0
-2248.0,-5237.6,-5688.8,265.8,-10109.7,848.9,2025-01-29 11:49:17,0.0
2960.0,-2489.6,-4032.8,661.8,-12919.7,1890.9,2025-01-29 11:49:17,0.0
6244.0,162.39999999999998,-2952.8,407.8,-14178.7,1857.9,2025-01-29 11:49:17,0.0
8008.0,3162.4,-2768.8,-631.2,-12589.7,1478.9,2025-01-29 11:49:17,0.0
7576.0,4806.4,-3908.8,-2908.2,-6952.7,941.9,2025-01-29 11:49:17,0.0
6332.0,3858.4,-3716.8,-4792.2,1780.3,261.9,2025-01-29 11:49:17,0.0
4968.0,254.39999999999998,-2484.8,-5514.2,9062.3,-957.1,2025-01-29 11:49:17,0.0
1856.0,-2357.6,-1252.8000000000002,-4809.2,12310.3,-1437.1,2025-01-29 11:49:17,0.0
-984.0,-3913.6,-608.8000000000002,-3269.2,11848.3,-990.1,2025-01-29 11:49:18,0.0
-3524.0,-4061.6,-748.8000000000002,-1955.2,7454.3,982.9,2025-01-29 11:49:18,0.0
-3844.0,-3733.6,-1304.8000000000002,-993.2,1859.3,3279.9,2025-01-29 11:49:18,0.0
-1996.0,-2829.6,-1428.8000000000002,-271.2,-3133.7,4491.9,2025-01-29 11:49:18,0.0
352.0,-1609.6,-1684.8000000000002,151.8,-6091.7,4499.9,2025-01-29 11:49:18,0.0
2020.0,-341.6,-864.8000000000002,606.8,-7560.7,4303.9,2025-01-29 11:49:18,0.0
2712.0,750.4,395.1999999999998,964.8,-7176.7,4468.9,2025-01-29 11:49:18,0.0
3876.0,1046.4,1007.1999999999998,1108.8,-5558.7,4753.9,2025-01-29 11:49:18,0.0
4212.0,1246.4,1679.1999999999998,1049.8,-2942.7,4643.9,2025-01-29 11:49:18,0.0
4420.0,1242.4,1795.1999999999998,1145.8,305.3,3995.9,2025-01-29 11:49:18,0.0
3232.0,1126.4,2063.2,1487.8,2570.3,2978.9,2025-01-29 11:49:18,0.0
1600.0,746.4,1491.1999999999998,1710.8,2876.3,2430.9,2025-01-29 11:49:18,0.0
280.0,586.4,1167.1999999999998,1752.8,1963.3,2278.9,2025-01-29 11:49:18,0.0
-308.0,418.4,1339.1999999999998,1970.8,483.3,2082.9,2025-01-29 11:49:18,0.0
-132.0,598.4,1395.1999999999998,2398.8,-1178.7,1203.9,2025-01-29 11:49:18,0.0
-236.0,202.39999999999998,1459.1999999999998,2666.8,-2757.7,490.9,2025-01-29 11:49:18,0.0
-316.0,78.39999999999998,1931.1999999999998,2880.8,-3978.7,262.9,2025-01-29 11:49:18,0.0
404.0,-57.60000000000002,2651.2,3056.8,-5005.7,-46.099999999999994,2025-01-29 11:49:18,0.0
400.0,658.4,2847.2,2936.8,-4925.7,-380.1,2025-01-29 11:49:18,0.0
208.0,1206.4,2483.2,2817.8,-4120.7,-562.1,2025-01-29 11:49:18,0.0
-132.0,1306.4,1731.1999999999998,2507.8,-2929.7,-487.1,2025-01-29 11:49:18,0.0
360.0,586.4,1551.1999999999998,2290.8,-2283.7,-4.099999999999994,2025-01-29 11:49:18,0.0
400.0,-401.6,1915.1999999999998,2358.8,-1154.7,615.9,2025-01-29 11:49:18,0.0
-168.0,-1241.6,2295.2,2593.8,680.3,1300.9,2025-01-29 11:49:18,0.0
-908.0,-1689.6,1967.1999999999998,2919.8,3449.3,2055.9,2025-01-29 11:49:18,0.0
-1776.0,-1013.6,1159.1999999999998,3352.8,5209.3,2563.9,2025-01-29 11:49:18,0.0
-3556.0,246.39999999999998,903.1999999999998,3626.8,5716.3,2901.9,2025-01-29 11:49:18,0.0
-5300.0,1122.4,1607.1999999999998,3763.8,5032.3,2838.9,2025-01-29 11:49:18,0.0
-6344.0,494.4,1935.1999999999998,4000.8,3230.3,2769.9,2025-01-29 11:49:18,0.0
-6720.0,-149.60000000000002,763.1999999999998,3799.8,421.3,3150.9,2025-01-29 11:49:18,0.0
-5312.0,-517.6,-1496.8000000000002,3755.8,-1621.7,3494.9,2025-01-29 11:49:18,0.0
-4680.0,902.4,-3704.8,3269.8,-1717.7,3721.9,2025-01-29 11:49:18,0.0
-4172.0,3446.4,-4724.8,1707.8,-251.7,4353.9,2025-01-29 11:49:18,0.0
-2352.0,4514.4,-5396.8,-463.2,319.3,3766.9,2025-01-29 11:49:18,0.0
-1024.0,3670.4,-3956.8,-2019.2,-1700.7,1665.9,2025-01-29 11:49:18,0.0
-124.0,1266.4,-4612.8,-2244.2,-4099.7,334.9,2025-01-29 11:49:18,0.0
844.0,-1477.6,-2992.8,-2096.2,-5971.7,592.9,2025-01-29 11:49:18,0.0
3416.0,-3905.6,-516.8000000000002,-460.2,-7337.7,924.9,2025-01-29 11:49:18,0.0
5432.0,-4149.6,831.1999999999998,2110.8,-6260.7,955.9,2025-01-29 11:49:18,0.0
6304.0,-3177.6,79.19999999999982,3162.8,-2760.7,381.9,2025-01-29 11:49:18,0.0
6348.0,-929.6,-796.8000000000002,3341.8,631.3,-897.1,2025-01-29 11:49:18,
4952.0,902.4,-1776.8000000000002,2688.8,2881.3,-1916.1,2025-01-29 11:49:18,0.0
2800.0,1526.4,-2212.8,930.8,4951.3,-2265.1,2025-01-29 11:49:18,0.0
1256.0,450.4,-1188.8000000000002,-1030.2,5506.3,-2750.1,2025-01-29 11:49:18,0.0
640.0,-1165.6,-304.8000000000002,-1069.2,2917.3,-3794.1,2025-01-29 11:49:18,0.0
-456.0,-2189.6,-1340.8000000000002,-516.2,308.3,-4095.1,2025-01-29 11:49:18,0.0
-248.0,-2661.6,-1896.8000000000002,-604.2,-1415.7,-3522.1,2025-01-29 11:49:18,0.0
752.0,-2697.6,-1244.8000000000002,-578.2,-2126.7,-2609.1,2025-01-29 11:49:18,0.0
2300.0,-2445.6,-576.8000000000002,-457.2,-1983.7,-2261.1,2025-01-29 11:49:18,0.0
3288.0,-2361.6,-104.80000000000018,-189.2,-1047.7,-2317.1,2025-01-29 11:49:18,0.0
3796.0,-2589.6,567.1999999999998,105.80000000000001,995.3,-2505.1,2025-01-29 11:49:18,0.0
3384.0,-2697.6,907.1999999999998,156.8,2955.3,-2666.1,2025-01-29 11:49:18,0.0
2316.0,-2061.6,367.1999999999998,163.8,4116.3,-2587.1,2025-01-29 11:49:18,0.0
1700.0,-1513.6,-584.8000000000002,-170.2,4467.3,-2252.1,2025-01-29 11:49:18,0.0
1064.0,-937.6,-596.8000000000002,-588.2,4381.3,-2151.1,2025-01-29 11:49:18,0.0
292.0,-541.6,-172.80000000000018,-1223.2,3670.3,-2279.1,2025-01-29 11:49:18,0.0
-188.0,-741.6,-368.8000000000002,-1794.2,2626.3,-2368.1,2025-01-29 11:49:18,0.0
-264.0,-685.6,171.19999999999982,-2355.2,1416.3,-2308.1,2025-01-29 11:49:18,0.0
-204.0,-1061.6,539.1999999999998,-2648.2,495.3,-2122.1,2025-01-29 11:49:18,0.0
172.0,-953.6,919.1999999999998,-3066.2,112.30000000000001,-2039.1,2025-01-29 11:49:18,0.0
896.0,-957.6,287.1999999999998,-3477.2,120.30000000000001,-1880.1,2025-01-29 11:49:18,0.0
328.0,-1025.6,987.1999999999998,-4009.2,278.3,-1837.1,2025-01-29 11:49:19,0.0
648.0,-1161.6,643.1999999999998,-4359.2,262.3,-1700.1,2025-01-29 11:49:19,0.0
-456.0,-1397.6,1023.1999999999998,-4665.2,144.3,-1594.1,2025-01-29 11:49:19,0.0
-392.0,-1625.6,819.1999999999998,-4974.2,-101.69999999999999,-1627.1,2025-01-29 11:49:19,0.0
28.0,-1713.6,391.1999999999998,-4904.2,-641.7,-1987.1,2025-01-29 11:49:19,0.0
428.0,-1309.6,-288.8000000000002,-4750.2,-1156.7,-2399.1,2025-01-29 11:49:19,0.0
356.0,-1677.6,-204.80000000000018,-4710.2,-598.7,-2421.1,2025-01-29 11:49:19,0.0
164.0,-2513.6,287.1999999999998,-4553.2,459.3,-2789.1,2025-01-29 11:49:19,0.0
-1316.0,-3365.6,1827.1999999999998,-4355.2,1733.3,-3493.1,2025-01-29 11:49:19,0.0
-3048.0,-3465.6,2379.2,-4202.2,2434.3,-3935.1,2025-01-29 11:49:19,0.0
-4360.0,-2985.6,1247.1999999999998,-4077.2,2348.3,-4110.1,2025-01-29 11:49:19,0.0
-4408.0,-2461.6,-2040.8000000000002,-3910.2,1876.3,-4064.1,2025-01-29 11:49:19,0.0
-3652.0,-2905.6,-4684.8,-3383.2,1674.3,-4308.1,2025-01-29 11:49:19,0.0
-3508.0,-4977.6,-3680.8,-2396.2,1506.3,-5090.1,2025-01-29 11:49:19,0.0
-6672.0,-6225.6,-2260.8,512.8,-4249.7,-958.1,2025-01-29 11:49:19,0.0
-4140.0,-3893.6,-3508.8,-135.2,-5998.7,3189.9,2025-01-29 11:49:19,0.0
636.0,-2465.6,-4008.8,-464.2,-7486.7,3925.9,2025-01-29 11:49:19,0.0
3820.0,-1085.6,-4080.8,-613.2,-9098.7,3201.9,2025-01-29 11:49:19,0.0
5800.0,162.39999999999998,-3080.8,-754.2,-9823.7,2120.9,2025-01-29 11:49:19,0.0
6852.0,1934.4,-1112.8000000000002,-627.2,-8855.7,1242.9,2025-01-29 11:49:19,0.0
7016.0,2830.4,-852.8000000000002,-726.2,-5382.7,423.9,2025-01-29 11:49:19,0.0
6380.0,1874.4,-1444.8000000000002,-1689.2,1535.3,-692.1,2025-01-29 11:49:19,0.0
4112.0,230.39999999999998,-736.8000000000002,-2049.2,6142.3,-882.1,2025-01-29 11:49:19,0.0
1840.0,-1045.6,-340.8000000000002,-1886.2,8743.3,-370.1,2025-01-29 11:49:19,0.0
-820.0,-1689.6,-708.8000000000002,-1849.2,9671.3,173.9,2025-01-29 11:49:19,0.0
-2816.0,-1277.6,-1380.8000000000002,-1698.2,7266.3,969.9,2025-01-29 11:49:19,0.0
-3712.0,-805.6,-2192.8,-1383.2,2558.3,1917.9,2025-01-29 11:49:19,0.0
-3328.0,-157.60000000000002,-2444.8,-1052.2,-2487.7,2622.9,2025-01-29 11:49:19,0.0
-2092.0,434.4,-1764.8000000000002,-814.2,-5810.7,2852.9,2025-01-29 11:49:19,0.0
-228.0,406.4,-744.8000000000002,-432.2,-7573.7,2778.9,2025-01-29 11:49:19,0.0
1716.0,-73.60000000000002,299.1999999999998,-32.19999999999999,-7747.7,2596.9,2025-01-29 11:49:19,0.0
3492.0,-465.6,1479.1999999999998,444.8,-6308.7,2802.9,2025-01-29 11:49:19,0.0
4256.0,-649.6,2247.2,746.8,-3209.7,2944.9,2025-01-29 11:49:19,0.0
4156.0,-225.60000000000002,2667.2,1091.8,234.3,2743.9,2025-01-29 11:49:19,0.0
3160.0,554.4,2227.2,1184.8,2502.3,2448.9,2025-01-29 11:49:19,0.0
1376.0,1070.4,1667.1999999999998,1307.8,2891.3,2571.9,2025-01-29 11:49:19,0.0
656.0,1530.4,723.1999999999998,1406.8,2444.3,2799.9,2025-01-29 11:49:19,0.0
408.0,1874.4,247.19999999999982,1232.8,1663.3,2515.9,2025-01-29 11:49:19,0.0
400.0,1674.4,587.1999999999998,1418.8,668.3,1609.9,2025-01-29 11:49:19,0.0
-204.0,790.4,879.1999999999998,1722.8,-97.69999999999999,990.9,2025-01-29 11:49:19,0.0
136.0,306.4,967.1999999999998,2018.8,-712.7,833.9,2025-01-29 11:49:19,0.0
420.0,-25.600000000000023,1471.1999999999998,2324.8,-940.7,642.9,2025-01-29 11:49:19,0.0
416.0,42.39999999999998,1687.1999999999998,2538.8,-818.7,558.9,2025-01-29 11:49:19,0.0
508.0,310.4,1639.1999999999998,2720.8,-777.7,502.9,2025-01-29 11:49:19,0.0
268.0,1082.4,1527.1999999999998,2829.8,-879.7,346.9,2025-01-29 11:49:19,0.0
-480.0,1686.4,1315.1999999999998,2731.8,-957.7,339.9,2025-01-29 11:49:19,0.0
-592.0,1858.4,991.1999999999998,2604.8,-1030.7,504.9,2025-01-29 11:49:19,0.0
-492.0,1578.4,939.1999999999998,2678.8,-1247.7,543.9,2025-01-29 11:49:19,0.0
-348.0,798.4,895.1999999999998,2747.8,-1139.7,334.9,2025-01-29 11:49:19,0.0
-132.0,146.39999999999998,811.1999999999998,2881.8,-529.7,344.9,2025-01-29 11:49:19,0.0
-220.0,-229.60000000000002,807.1999999999998,2887.8,354.3,479.9,2025-01-29 11:49:19,0.0
-1012.0,-177.60000000000002,999.1999999999998,2627.8,1450.3,784.9,2025-01-29 11:49:19,0.0
-1648.0,498.4,1623.1999999999998,2361.8,1809.3,1142.9,2025-01-29 11:49:19,0.0
-2480.0,858.4,1903.1999999999998,2237.8,1290.3,1435.9,2025-01-29 11:49:19,0.0
-3804.0,678.4,1099.1999999999998,2090.8,1356.3,2043.9,2025-01-29 11:49:19,0.0
-4916.0,106.39999999999998,-172.80000000000018,2222.8,2620.3,3020.9,2025-01-29 11:49:19,0.0
-5472.0,578.4,-1856.8000000000002,2232.8,3390.3,3930.9,2025-01-29 11:49:19,0.0
-4536.0,1306.4,-3252.8,1403.8,2118.3,4351.9,2025-01-29 11:49:19,0.0
-2904.0,2422.4,-3492.8,677.8,-664.7,3554.9,2025-01-29 11:49:19,0.0
-1444.0,2574.4,-3900.8,94.80000000000001,-3700.7,1725.9,2025-01-29 11:49:20,0.0
-704.0,1786.4,-3400.8,-169.2,-4574.7,983.9,2025-01-29 11:49:20,0.0
888.0,526.4,-2156.8,-311.2,-4980.7,895.9,2025-01-29 11:49:20,0.0
3308.0,-1005.6,-312.8000000000002,274.8,-5429.7,783.9,2025-01-29 11:49:20,0.0
5128.0,-2561.6,-568.8000000000002,1761.8,-4204.7,678.9,2025-01-29 11:49:20,0.0
5648.0,-3833.6,-1592.8000000000002,2634.8,-424.7,220.9,2025-01-29 11:49:20,0.0
4708.0,-4217.6,-2156.8,2915.8,3640.3,-256.1,2025-01-29 11:49:20,0.0
2448.0,-3341.6,-2272.8,2762.8,5867.3,80.9,2025-01-29 11:49:20,0.0
1108.0,-1565.6,-1632.8000000000002,2592.8,6444.3,626.9,2025-01-29 11:49:20,0.0
324.0,-93.60000000000002,-1324.8000000000002,2141.8,6068.3,150.9,2025-01-29 11:49:20,0.0
-984.0,1042.4,-1452.8000000000002,1459.8,3905.3,-908.1,2025-01-29 11:49:20,0.0
-1180.0,642.4,-2548.8,864.8,784.3,-1352.1,2025-01-29 11:49:20,0.0
-672.0,106.39999999999998,-2708.8,522.8,-1476.7,-1521.1,2025-01-29 11:49:20,0.0
-228.0,-493.6,-1904.8000000000002,205.8,-2666.7,-1657.1,2025-01-29 11:49:20,0.0
572.0,-1049.6,-1188.8000000000002,-159.2,-3147.7,-1630.1,2025-01-29 11:49:20,0.0
1608.0,-2033.6,111.19999999999982,-172.2,-3030.7,-1488.1,2025-01-29 11:49:20,0.0
2568.0,-3049.6,831.1999999999998,24.80000000000001,-2138.7,-1443.1,2025-01-29 11:49:20,0.0
2584.0,-3273.6,987.1999999999998,256.8,-638.7,-1330.1,2025-01-29 11:49:20,0.0
1900.0,-2969.6,559.1999999999998,396.8,747.3,-1082.1,2025-01-29 11:49:20,0.0
1560.0,-2309.6,195.19999999999982,538.8,1549.3,-950.1,2025-01-29 11:49:20,0.0
576.0,-1605.6,135.19999999999982,590.8,1697.3,-914.1,2025-01-29 11:49:20,
-264.0,-929.6,-308.8000000000002,598.8,939.3,-845.1,2025-01-29 11:49:20,0.0
-1288.0,-969.6,-68.80000000000018,383.8,-616.7,-393.1,2025-01-29 11:49:20,0.0
-1272.0,-1469.6,167.19999999999982,216.8,-2009.7,76.9,2025-01-29 11:49:20,0.0
-804.0,-1929.6,1399.1999999999998,78.80000000000001,-3407.7,359.9,2025-01-29 11:49:20,0.0
308.0,-1761.6,2335.2,344.8,-4012.7,433.9,2025-01-29 11:49:20,0.0
1332.0,-1173.6,2391.2,589.8,-3608.7,395.9,2025-01-29 11:49:20,0.0
1748.0,-409.6,1963.1999999999998,346.8,-2451.7,327.9,2025-01-29 11:49:20,0.0
1304.0,-133.60000000000002,1447.1999999999998,-405.2,-722.7,356.9,2025-01-29 11:49:20,0.0
1216.0,-341.6,1007.1999999999998,-1233.2,592.3,362.9,2025-01-29 11:49:20,0.0
1380.0,-361.6,155.19999999999982,-2111.2,1347.3,216.9,2025-01-29 11:49:20,0.0
1204.0,-325.6,-776.8000000000002,-3278.2,2067.3,-556.1,2025-01-29 11:49:20,0.0
368.0,-365.6,-404.8000000000002,-3918.2,1941.3,-1495.1,2025-01-29 11:49:20,0.0
-140.0,-141.60000000000002,-408.8000000000002,-4156.2,1136.3,-2177.1,2025-01-29 11:49:20,0.0
-608.0,-341.6,-720.8000000000002,-4510.2,168.3,-2525.1,2025-01-29 11:49:20,0.0
-724.0,-1289.6,303.1999999999998,-4500.2,-442.7,-2677.1,2025-01-29 11:49:20,0.0
-944.0,-2213.6,255.19999999999982,-4608.2,-707.7,-2669.1,2025-01-29 11:49:20,0.0
-1728.0,-2897.6,1623.1999999999998,-4779.2,-921.7,-2424.1,2025-01-29 11:49:20,0.0
-2152.0,-3321.6,1011.1999999999998,-4934.2,-1360.7,-2146.1,2025-01-29 11:49:20,0.0
-2180.0,-1933.6,-704.8000000000002,-4978.2,-1717.7,-2129.1,2025-01-29 11:49:20,0.0
-2284.0,-1837.6,-1280.8000000000002,-4605.2,-1779.7,-2042.1,2025-01-29 11:49:20,0.0
-2264.0,-2953.6,-528.8000000000002,-3849.2,-2033.7,-1504.1,2025-01-29 11:49:20,0.0
-1424.0,-3669.6,-520.8000000000002,-2525.2,-2430.7,-928.1,2025-01-29 11:49:20,0.0
-432.0,-3905.6,-1780.8000000000002,-1441.2,-2352.7,-563.1,2025-01-29 11:49:20,0.0
-244.0,-3985.6,-1260.8000000000002,120.80000000000001,-1082.7,-765.1,2025-01-29 11:49:20,0.0
464.0,-3249.6,-1868.8000000000002,1401.8,-408.7,-1318.1,2025-01-29 11:49:20,0.0
-248.0,-1501.6,-1364.8000000000002,1684.8,-707.7,-1556.1,2025-01-29 11:49:20,0.0
-484.0,1110.4,-1932.8000000000002,1062.8,-1677.7,-556.1,2025-01-29 11:49:20,0.0
828.0,1606.4,-2680.8,-483.2,-2406.7,340.9,2025-01-29 11:49:20,0.0
2284.0,2226.4,-1740.8000000000002,-1271.2,-2420.7,618.9,2025-01-29 11:49:20,0.0
2916.0,2622.4,-960.8000000000002,-1627.2,-1767.7,533.9,2025-01-29 11:49:20,0.0
3116.0,2102.4,-392.8000000000002,-1938.2,-310.7,95.9,2025-01-29 11:49:20,0.0
2376.0,110.39999999999998,-348.8000000000002,-1751.2,1647.3,-264.1,2025-01-29 11:49:20,0.0
1520.0,-1049.6,-200.80000000000018,-996.2,3022.3,-84.1,2025-01-29 11:49:20,0.0
924.0,-1161.6,-1064.8000000000002,-564.2,3440.3,231.9,2025-01-29 11:49:20,0.0
508.0,-77.60000000000002,-2404.8,-590.2,2907.3,284.9,2025-01-29 11:49:20,0.0
-128.0,1074.4,-2948.8,-1055.2,2291.3,83.9,2025-01-29 11:49:20,0.0
-948.0,2030.4,-2756.8,-1659.2,1303.3,130.9,2025-01-29 11:49:20,0.0
-400.0,2842.4,-2796.8,-2372.2,-350.7,222.9,2025-01-29 11:49:20,0.0
428.0,2578.4,-1776.8000000000002,-3073.2,-1216.7,-265.1,2025-01-29 11:49:20,0.0
1140.0,2114.4,-1080.8000000000002,-3533.2,-1013.7,-595.1,2025-01-29 11:49:20,0.0
2112.0,1586.4,-700.8000000000002,-3849.2,-172.7,-859.1,2025-01-29 11:49:21,0.0
2696.0,1138.4,-520.8000000000002,-4139.2,829.3,-1445.1,2025-01-29 11:49:21,0.0
2480.0,838.4,-168.80000000000018,-4216.2,1958.3,-1987.1,2025-01-29 11:49:21,0.0
1936.0,510.4,-48.80000000000018,-4320.2,2857.3,-2306.1,2025-01-29 11:49:21,0.0
1328.0,538.4,147.19999999999982,-4429.2,2944.3,-2553.1,2025-01-29 11:49:21,0.0
620.0,866.4,-504.8000000000002,-4562.2,2592.3,-2718.1,2025-01-29 11:49:21,0.0
200.0,1338.4,-584.8000000000002,-4978.2,1743.3,-2990.1,2025-01-29 11:49:21,0.0
68.0,1510.4,-788.8000000000002,-5183.2,1076.3,-3190.1,2025-01-29 11:49:21,0.0
360.0,1274.4,-680.8000000000002,-5506.2,627.3,-3498.1,2025-01-29 11:49:21,0.0
616.0,1222.4,-492.8000000000002,-5686.2,273.3,-3878.1,2025-01-29 11:49:21,0.0
744.0,1266.4,-400.8000000000002,-5883.2,212.3,-4082.1,2025-01-29 11:49:21,0.0
992.0,1182.4,-240.80000000000018,-6131.2,367.3,-4212.1,2025-01-29 11:49:21,0.0
1080.0,782.4,-144.80000000000018,-6335.2,629.3,-4356.1,2025-01-29 11:49:21,0.0
1052.0,574.4,-472.8000000000002,-6403.2,854.3,-4565.1,2025-01-29 11:49:21,0.0
488.0,342.4,-632.8000000000002,-6257.2,708.3,-4623.1,2025-01-29 11:49:21,0.0
116.0,410.4,-572.8000000000002,-5885.2,292.3,-4812.1,2025-01-29 11:49:21,0.0
-124.0,478.4,-724.8000000000002,-5693.2,-78.69999999999999,-5266.1,2025-01-29 11:49:21,0.0
-528.0,1166.4,-852.8000000000002,-5670.2,-743.7,-5793.1,2025-01-29 11:49:21,0.0
-832.0,1750.4,-1020.8000000000002,-5966.2,-1420.7,-6076.1,2025-01-29 11:49:21,0.0
-568.0,2170.4,-688.8000000000002,-6683.2,-2067.7,-6373.1,2025-01-29 11:49:21,0.0
-148.0,1886.4,79.19999999999982,-7370.2,-2488.7,-6590.1,2025-01-29 11:49:21,0.0
440.0,1518.4,1171.1999999999998,-7593.2,-2502.7,-6957.1,2025-01-29 11:49:21,0.0
608.0,754.4,1403.1999999999998,-7442.2,-2001.7,-7139.1,2025-01-29 11:49:21,0.0
688.0,-69.60000000000002,887.1999999999998,-6970.2,-1286.7,-7068.1,2025-01-29 11:49:21,0.0
728.0,-525.6,175.19999999999982,-6383.2,-566.7,-7016.1,2025-01-29 11:49:21,0.0
-148.0,-821.6,-600.8000000000002,-5955.2,268.3,-6775.1,2025-01-29 11:49:21,0.0
-1120.0,-1933.6,-1072.8000000000002,-5735.2,1214.3,-6352.1,2025-01-29 11:49:21,0.0
-1884.0,-2345.6,-2748.8,-5465.2,1155.3,-5469.1,2025-01-29 11:49:21,0.0
-1896.0,-1581.6,-4016.8,-5332.2,189.3,-4335.1,2025-01-29 11:49:21,0.0
-648.0,-13.600000000000023,-3588.8,-5155.2,-1282.7,-3663.1,2025-01-29 11:49:21,0.0
492.0,1670.4,-2044.8000000000002,-5271.2,-2885.7,-3293.1,2025-01-29 11:49:21,0.0
2012.0,2358.4,-356.8000000000002,-5207.2,-3568.7,-3343.1,2025-01-29 11:49:21,0.0
3200.0,1286.4,219.19999999999982,-5308.2,-2229.7,-4274.1,2025-01-29 11:49:21,0.0
2560.0,-257.6,423.1999999999998,-5538.2,-320.7,-4668.1,2025-01-29 11:49:21,0.0
2380.0,-893.6,-1160.8000000000002,-5340.2,1021.3,-4683.1,2025-01-29 11:49:21,0.0
2052.0,-921.6,-2844.8,-5694.2,2268.3,-4936.1,2025-01-29 11:49:21,0.0
1088.0,-1061.6,-2592.8,-6379.2,2742.3,-5330.1,2025-01-29 11:49:21,0.0
20.0,-1173.6,-1852.8000000000002,-7076.2,2247.3,-5617.1,2025-01-29 11:49:21,0.0
-260.0,-1465.6,-968.8000000000002,-7944.2,399.3,-6046.1,2025-01-29 11:49:21,0.0
360.0,-1645.6,-1288.8000000000002,-8445.2,-790.7,-6671.1,2025-01-29 11:49:21,0.0
968.0,-1773.6,-1584.8000000000002,-8873.2,-788.7,-7223.1,2025-01-29 11:49:21,0.0
1172.0,-1893.6,-1476.8000000000002,-9208.2,-408.7,-7613.1,2025-01-29 11:49:21,0.0
1344.0,-1653.6,-1404.8000000000002,-9546.2,84.30000000000001,-8224.1,2025-01-29 11:49:21,0.0
1064.0,-1573.6,-1688.8000000000002,-9880.2,103.30000000000001,-8581.1,2025-01-29 11:49:21,0.0
784.0,-1789.6,-1684.8000000000002,-10192.2,-305.7,-8667.1,2025-01-29 11:49:21,0.0
812.0,-1741.6,-1624.8000000000002,-10526.2,-889.7,-8486.1,2025-01-29 11:49:21,0.0
1024.0,-1709.6,-1780.8000000000002,-10729.2,-1482.7,-8233.1,2025-01-29 11:49:21,0.0
1304.0,-1769.6,-1924.8000000000002,-11069.2,-1887.7,-7847.1,2025-01-29 11:49:21,0.0
1564.0,-2309.6,-1928.8000000000002,-11551.2,-1913.7,-7567.1,2025-01-29 11:49:21,0.0
1548.0,-2853.6,-2028.8000000000002,-11953.2,-1891.7,-7544.1,2025-01-29 11:49:21,0.0
1356.0,-2901.6,-2068.8,-12236.2,-2054.7,-7683.1,2025-01-29 11:49:21,0.0
1228.0,-2621.6,-2340.8,-12311.2,-2240.7,-7870.1,2025-01-29 11:49:21,0.0
848.0,-1917.6,-2292.8,-12405.2,-2630.7,-7978.1,2025-01-29 11:49:21,0.0
704.0,-1709.6,-1776.8000000000002,-12531.2,-2764.7,-7936.1,2025-01-29 11:49:21,0.0
948.0,-1609.6,-1532.8000000000002,-12794.2,-2501.7,-8230.1,2025-01-29 11:49:21,0.0
1192.0,-1425.6,-1488.8000000000002,-13344.2,-2368.7,-8778.1,2025-01-29 11:49:21,0.0
1052.0,-1877.6,-1196.8000000000002,-13992.2,-2358.7,-8997.1,2025-01-29 11:49:21,0.0
1452.0,-2449.6,-1288.8000000000002,-14170.2,-2150.7,-9182.1,2025-01-29 11:49:21,0.0
1852.0,-3045.6,-1376.8000000000002,-14617.2,-1763.7,-9522.1,2025-01-29 11:49:21,0.0
1508.0,-3365.6,-1188.8000000000002,-15031.2,-1037.7,-9940.1,2025-01-29 11:49:21,
940.0,-2965.6,-1188.8000000000002,-15383.2,-540.7,-10197.1,2025-01-29 11:49:22,0.0
432.0,-2281.6,-1100.8000000000002,-15886.2,-995.7,-10271.1,2025-01-29 11:49:22,0.0
-28.0,-1773.6,-920.8000000000002,-16562.2,-2333.7,-10200.1,2025-01-29 11:49:22,0.0
260.0,-1857.6,-1168.8000000000002,-17329.2,-4073.7,-9921.1,2025-01-29 11:49:22,0.0
1248.0,-2205.6,-1452.8000000000002,-18192.2,-5210.7,-9752.1,2025-01-29 11:49:22,0.0
1724.0,-2585.6,-1644.8000000000002,-18948.2,-5303.7,-9587.1,2025-01-29 11:49:22,0.0
2108.0,-2969.6,-1448.8000000000002,-19333.2,-4758.7,-9556.1,2025-01-29 11:49:22,0.0
2540.0,-3217.6,-1208.8000000000002,-19558.2,-3937.7,-9423.1,2025-01-29 11:49:22,0.0
2288.0,-3529.6,-1044.8000000000002,-19503.2,-2906.7,-8920.1,2025-01-29 11:49:22,0.0
1900.0,-4381.6,-1364.8000000000002,-18719.2,-1687.7,-8008.1,2025-01-29 11:49:22,0.0
1212.0,-4945.6,-1648.8000000000002,-17185.2,-194.7,-7671.1,2025-01-29 11:49:22,0.0
180.0,-4657.6,-1596.8000000000002,-15502.2,1111.3,-7521.1,2025-01-29 11:49:22,0.0
-896.0,-3057.6,-1864.8000000000002,-14553.2,1134.3,-7237.1,2025-01-29 11:49:22,0.0
-784.0,-717.6,-1796.8000000000002,-14326.2,-72.69999999999999,-6602.1,2025-01-29 11:49:22,0.0
1100.0,1226.4,-1172.8000000000002,-14584.2,-1882.7,-6893.1,2025-01-29 11:49:22,0.0
1836.0,2454.4,-276.8000000000002,-15067.2,-1828.7,-7270.1,2025-01-29 11:49:22,0.0
2184.0,3202.4,-76.80000000000018,-15812.2,-552.7,-7597.1,2025-01-29 11:49:22,0.0
2304.0,2658.4,-276.8000000000002,-16625.2,1759.3,-8400.1,2025-01-29 11:49:22,0.0
1020.0,1650.4,-624.8000000000002,-16885.2,3254.3,-8982.1,2025-01-29 11:49:22,0.0
-960.0,970.4,-1604.8000000000002,-16885.2,3659.3,-9250.1,2025-01-29 11:49:22,0.0
-2232.0,690.4,-2372.8,-16916.2,2571.3,-9063.1,2025-01-29 11:49:22,0.0
-2576.0,-29.600000000000023,-1840.8000000000002,-16749.2,412.3,-8739.1,2025-01-29 11:49:22,0.0
-2420.0,-601.6,-560.8000000000002,-16237.2,-1653.7,-8381.1,2025-01-29 11:49:22,0.0
-1304.0,-777.6,19.199999999999818,-15706.2,-2556.7,-8096.1,2025-01-29 11:49:22,0.0
80.0,-793.6,563.1999999999998,-15145.2,-2761.7,-7971.1,2025-01-29 11:49:22,0.0
1008.0,-557.6,1099.1999999999998,-14318.2,-1842.7,-7690.1,2025-01-29 11:49:22,0.0
1220.0,-33.60000000000002,1495.1999999999998,-13585.2,-421.7,-7483.1,2025-01-29 11:49:22,0.0
1236.0,218.39999999999998,1103.1999999999998,-12827.2,549.3,-7403.1,2025-01-29 11:49:22,0.0
740.0,494.4,907.1999999999998,-12244.2,789.3,-7231.1,2025-01-29 11:49:22,0.0
740.0,834.4,431.1999999999998,-11754.2,763.3,-7128.1,2025-01-29 11:49:22,0.0
160.0,1078.4,523.1999999999998,-11327.2,699.3,-7167.1,2025-01-29 11:49:22,0.0
-168.0,1218.4,567.1999999999998,-10938.2,426.3,-7202.1,2025-01-29 11:49:22,0.0
-100.0,1342.4,411.1999999999998,-10555.2,-40.69999999999999,-7194.1,2025-01-29 11:49:22,0.0
-224.0,1382.4,155.19999999999982,-10212.2,-291.7,-7064.1,2025-01-29 11:49:22,0.0
-328.0,1346.4,71.19999999999982,-9983.2,-347.7,-6934.1,2025-01-29 11:49:22,0.0
-208.0,1510.4,115.19999999999982,-9832.2,-547.7,-6748.1,2025-01-29 11:49:22,0.0
-164.0,1506.4,267.1999999999998,-9498.2,-705.7,-6557.1,2025-01-29 11:49:22,0.0
316.0,1638.4,335.1999999999998,-9132.2,-850.7,-6441.1,2025-01-29 11:49:22,0.0
176.0,1334.4,355.1999999999998,-8893.2,-918.7,-6355.1,2025-01-29 11:49:22,0.0
216.0,890.4,675.1999999999998,-8432.2,-495.7,-6138.1,2025-01-29 11:49:22,0.0
140.0,710.4,943.1999999999998,-7891.2,-57.69999999999999,-5843.1,2025-01-29 11:49:22,0.0
-248.0,790.4,1155.1999999999998,-7330.2,235.3,-5523.1,2025-01-29 11:49:22,0.0
-580.0,758.4,1195.1999999999998,-6740.2,501.3,-5224.1,2025-01-29 11:49:22,0.0
-632.0,854.4,1299.1999999999998,-6066.2,669.3,-4877.1,2025-01-29 11:49:22,0.0
-356.0,746.4,903.1999999999998,-5240.2,610.3,-4588.1,2025-01-29 11:49:22,0.0
84.0,1506.4,-240.80000000000018,-4445.2,19.30000000000001,-4279.1,2025-01-29 11:49:22,0.0
540.0,2314.4,-768.8000000000002,-4288.2,-724.7,-4174.1,2025-01-29 11:49:22,0.0
776.0,2210.4,427.1999999999998,-3766.2,-846.7,-3858.1,2025-01-29 11:49:22,0.0
1776.0,1174.4,1431.1999999999998,-3242.2,-263.7,-3861.1,2025-01-29 11:49:22,0.0
2800.0,354.4,1847.1999999999998,-2733.2,-640.7,-5248.1,2025-01-29 11:49:22,0.0
2188.0,-397.6,1531.1999999999998,-2342.2,-890.7,-6621.1,2025-01-29 11:49:22,0.0
1540.0,-581.6,975.1999999999998,-1621.2,-28.69999999999999,-7003.1,2025-01-29 11:49:22,0.0
816.0,-525.6,-1296.8000000000002,-1333.2,1623.3,-6938.1,2025-01-29 11:49:22,0.0
-1804.0,-429.6,-3200.8,-2072.2,4200.3,-6293.1,2025-01-29 11:49:22,0.0
-3484.0,-1293.6,-4052.8,-3136.2,5804.3,-5131.1,2025-01-29 11:49:22,0.0
-3636.0,-2897.6,-1636.8000000000002,-3488.2,3548.3,-4485.1,2025-01-29 11:49:22,0.0
-3172.0,-3825.6,843.1999999999998,-2068.2,-1761.7,-4130.1,2025-01-29 11:49:22,0.0
-1916.0,-3641.6,623.1999999999998,-790.2,-5317.7,-3700.1,2025-01-29 11:49:22,0.0
400.0,-3325.6,27.199999999999818,-925.2,-5482.7,-3511.1,2025-01-29 11:49:22,0.0
1444.0,-2881.6,639.1999999999998,-923.2,-3470.7,-3336.1,2025-01-29 11:49:22,0.0
2460.0,-2241.6,375.1999999999998,-800.2,-908.7,-3150.1,2025-01-29 11:49:22,0.0
2320.0,-1389.6,-268.8000000000002,-893.2,1638.3,-3424.1,2025-01-29 11:49:23,0.0
1324.0,-1177.6,-224.80000000000018,-1113.2,3453.3,-3806.1,2025-01-29 11:49:23,0.0
-448.0,-1649.6,-452.8000000000002,-1411.2,3626.3,-3988.1,2025-01-29 11:49:23,0.0
-1964.0,-2157.6,-440.8000000000002,-1340.2,1534.3,-4008.1,2025-01-29 11:49:23,0.0
-2248.0,-2705.6,-972.8000000000002,-1436.2,-625.7,-3872.1,2025-01-29 11:49:23,0.0
-1440.0,-2885.6,-1184.8000000000002,-1618.2,-2323.7,-3778.1,2025-01-29 11:49:23,0.0
-616.0,-2737.6,-860.8000000000002,-1786.2,-2995.7,-3536.1,2025-01-29 11:49:23,0.0
1068.0,-2353.6,-692.8000000000002,-1952.2,-2972.7,-3187.1,2025-01-29 11:49:23,0.0
2216.0,-2121.6,19.199999999999818,-2308.2,-1764.7,-3028.1,2025-01-29 11:49:23,0.0
2360.0,-1889.6,227.19999999999982,-2695.2,-261.7,-3045.1,2025-01-29 11:49:23,0.0
1792.0,-1769.6,279.1999999999998,-2910.2,1059.3,-2859.1,2025-01-29 11:49:23,0.0
964.0,-2117.6,367.1999999999998,-3140.2,1498.3,-2540.1,2025-01-29 11:49:23,0.0
272.0,-2769.6,559.1999999999998,-3193.2,1311.3,-2050.1,2025-01-29 11:49:23,0.0
208.0,-3445.6,575.1999999999998,-2963.2,788.3,-1506.1,2025-01-29 11:49:23,0.0
196.0,-3917.6,787.1999999999998,-2495.2,261.3,-962.1,2025-01-29 11:49:23,0.0
-248.0,-3837.6,975.1999999999998,-1941.2,196.3,-220.1,2025-01-29 11:49:23,0.0
16.0,-3473.6,703.1999999999998,-1548.2,129.3,317.9,2025-01-29 11:49:23,0.0
72.0,-3161.6,275.1999999999998,-1381.2,135.3,851.9,2025-01-29 11:49:23,0.0
140.0,-3137.6,195.19999999999982,-1303.2,254.3,1388.9,2025-01-29 11:49:23,0.0
-196.0,-2769.6,-68.80000000000018,-1245.2,250.3,2182.9,2025-01-29 11:49:23,0.0
-96.0,-2781.6,-236.80000000000018,-1301.2,-75.69999999999999,3030.9,2025-01-29 11:49:23,0.0
-12.0,-2541.6,-384.8000000000002,-1157.2,-518.7,3462.9,2025-01-29 11:49:23,0.0
-112.0,-2137.6,-616.8000000000002,-1035.2,-428.7,3321.9,2025-01-29 11:49:23,0.0
-672.0,-1657.6,-1424.8000000000002,-718.2,-220.7,2885.9,2025-01-29 11:49:23,0.0
-984.0,-1113.6,-2212.8,-151.2,63.30000000000001,2072.9,2025-01-29 11:49:23,0.0
-1068.0,-233.60000000000002,-2296.8,489.8,-1351.7,997.9,2025-01-29 11:49:23,0.0
-740.0,-137.60000000000002,-1192.8000000000002,473.8,-3717.7,811.9,2025-01-29 11:49:23,0.0
860.0,-397.6,-484.8000000000002,301.8,-4665.7,1050.9,2025-01-29 11:49:23,0.0
2648.0,-605.6,-236.80000000000018,-78.19999999999999,-4089.7,832.9,2025-01-29 11:49:23,0.0
3308.0,-849.6,-236.80000000000018,-646.2,-1787.7,429.9,2025-01-29 11:49:23,0.0
2732.0,-1253.6,-188.80000000000018,-1020.2,1278.3,329.9,2025-01-29 11:49:23,0.0
1668.0,-1429.6,35.19999999999982,-880.2,2813.3,405.9,2025-01-29 11:49:23,0.0
548.0,-1185.6,-112.80000000000018,-714.2,3013.3,347.9,2025-01-29 11:49:23,0.0
-488.0,-921.6,-296.8000000000002,-531.2,2124.3,265.9,2025-01-29 11:49:23,0.0
-1056.0,-605.6,-472.8000000000002,-297.2,652.3,283.9,2025-01-29 11:49:23,0.0
-884.0,-333.6,-444.8000000000002,-208.2,-726.7,302.9,2025-01-29 11:49:23,0.0
-264.0,-229.60000000000002,-128.80000000000018,-262.2,-1132.7,315.9,2025-01-29 11:49:23,0.0
324.0,-509.6,-100.80000000000018,-179.2,-818.7,345.9,2025-01-29 11:49:23,0.0
716.0,-705.6,-328.8000000000002,-37.19999999999999,243.3,382.9,2025-01-29 11:49:23,
924.0,-729.6,-1000.8000000000002,106.80000000000001,1104.3,275.9,2025-01-29 11:49:23,0.0
644.0,-473.6,-928.8000000000002,221.8,1489.3,-26.099999999999994,2025-01-29 11:49:23,0.0
84.0,-61.60000000000002,-556.8000000000002,159.8,1178.3,-128.1,2025-01-29 11:49:23,0.0
-380.0,174.39999999999998,-88.80000000000018,127.80000000000001,565.3,-76.1,2025-01-29 11:49:23,0.0
-488.0,302.4,-404.8000000000002,-27.19999999999999,-45.69999999999999,-2.0999999999999943,2025-01-29 11:49:23,0.0
-456.0,294.4,-692.8000000000002,-207.2,-243.7,-16.099999999999994,2025-01-29 11:49:23,0.0
76.0,226.39999999999998,-624.8000000000002,-332.2,-395.7,-73.1,2025-01-29 11:49:23,0.0
356.0,-325.6,3.199999999999818,-394.2,-583.7,-223.1,2025-01-29 11:49:23,0.0
404.0,-681.6,363.1999999999998,-332.2,-386.7,-202.1,2025-01-29 11:49:23,0.0
624.0,-729.6,167.19999999999982,-186.2,20.30000000000001,-169.1,2025-01-29 11:49:23,0.0
504.0,-613.6,75.19999999999982,-88.19999999999999,415.3,-174.1,2025-01-29 11:49:23,0.0
200.0,-621.6,-232.80000000000018,-11.199999999999989,675.3,-117.1,2025-01-29 11:49:23,0.0
136.0,-561.6,-384.8000000000002,121.80000000000001,732.3,-100.1,2025-01-29 11:49:23,0.0
44.0,-561.6,-564.8000000000002,189.8,538.3,-116.1,2025-01-29 11:49:23,0.0
-76.0,-733.6,-912.8000000000002,230.8,1.3000000000000114,-72.1,2025-01-29 11:49:23,0.0
156.0,-1069.6,-664.8000000000002,363.8,-238.7,4.900000000000006,2025-01-29 11:49:23,0.0
260.0,-993.6,-568.8000000000002,371.8,-139.7,28.900000000000006,2025-01-29 11:49:23,0.0
316.0,-981.6,-528.8000000000002,388.8,35.30000000000001,41.900000000000006,2025-01-29 11:49:23,0.0
196.0,-741.6,-276.8000000000002,339.8,168.3,56.900000000000006,2025-01-29 11:49:23,0.0
96.0,-489.6,-276.8000000000002,297.8,139.3,26.900000000000006,2025-01-29 11:49:23,0.0
96.0,-473.6,-296.8000000000002,213.8,-151.7,10.900000000000006,2025-01-29 11:49:23,0.0
76.0,-585.6,-428.8000000000002,128.8,-461.7,44.900000000000006,2025-01-29 11:49:24,0.0
420.0,-541.6,-332.8000000000002,100.80000000000001,-494.7,22.900000000000006,2025-01-29 11:49:24,0.0
592.0,-633.6,-272.8000000000002,60.80000000000001,-315.7,31.900000000000006,2025-01-29 11:49:24,0.0
580.0,-853.6,-316.8000000000002,61.80000000000001,-36.69999999999999,38.900000000000006,2025-01-29 11:49:24,0.0
520.0,-953.6,-496.8000000000002,47.80000000000001,308.3,39.900000000000006,2025-01-29 11:49:24,0.0
248.0,-885.6,-740.8000000000002,58.80000000000001,508.3,-21.099999999999994,2025-01-29 11:49:24,0.0
40.0,-781.6,-696.8000000000002,23.80000000000001,324.3,-41.099999999999994,2025-01-29 11:49:24,0.0
-36.0,-581.6,-688.8000000000002,11.800000000000011,-36.69999999999999,-34.099999999999994,2025-01-29 11:49:24,0.0
68.0,-669.6,-616.8000000000002,-64.19999999999999,-433.7,-8.099999999999994,2025-01-29 11:49:24,0.0
420.0,-785.6,-428.8000000000002,-95.19999999999999,-439.7,29.900000000000006,2025-01-29 11:49:24,0.0
536.0,-953.6,-288.8000000000002,-52.19999999999999,-179.7,35.900000000000006,2025-01-29 11:49:24,0.0
636.0,-945.6,-424.8000000000002,17.80000000000001,105.30000000000001,4.900000000000006,2025-01-29 11:49:24,0.0
348.0,-1029.6,-544.8000000000002,94.80000000000001,270.3,-21.099999999999994,2025-01-29 11:49:24,0.0
156.0,-825.6,-364.8000000000002,112.80000000000001,243.3,-13.099999999999994,2025-01-29 11:49:24,0.0
216.0,-877.6,-520.8000000000002,113.80000000000001,17.30000000000001,21.900000000000006,2025-01-29 11:49:24,0.0
120.0,-673.6,-432.8000000000002,95.80000000000001,-129.7,79.9,2025-01-29 11:49:24,0.0
360.0,-749.6,-468.8000000000002,95.80000000000001,-109.69999999999999,139.9,2025-01-29 11:49:24,0.0
528.0,-713.6,-340.8000000000002,104.80000000000001,45.30000000000001,157.9,2025-01-29 11:49:24,0.0
504.0,-925.6,-456.8000000000002,119.80000000000001,213.3,97.9,2025-01-29 11:49:24,0.0
296.0,-941.6,-348.8000000000002,180.8,239.3,62.900000000000006,2025-01-29 11:49:24,0.0
156.0,-969.6,-520.8000000000002,223.8,185.3,25.900000000000006,2025-01-29 11:49:24,0.0
256.0,-777.6,-672.8000000000002,249.8,-14.699999999999989,58.900000000000006,2025-01-29 11:49:24,0.0
172.0,-633.6,-556.8000000000002,223.8,-94.69999999999999,79.9,2025-01-29 11:49:24,0.0
224.0,-625.6,-592.8000000000002,158.8,-76.69999999999999,104.9,2025-01-29 11:49:24,0.0
252.0,-633.6,-484.8000000000002,106.80000000000001,-38.69999999999999,118.9,2025-01-29 11:49:24,0.0
472.0,-749.6,-660.8000000000002,34.80000000000001,-22.69999999999999,93.9,2025-01-29 11:49:24,0.0
180.0,-805.6,-412.8000000000002,84.80000000000001,25.30000000000001,64.9,2025-01-29 11:49:24,0.0
212.0,-857.6,-484.8000000000002,61.80000000000001,16.30000000000001,45.900000000000006,2025-01-29 11:49:24,0.0
256.0,-741.6,-236.80000000000018,99.80000000000001,-79.69999999999999,94.9,2025-01-29 11:49:24,0.0
244.0,-833.6,-564.8000000000002,92.80000000000001,-72.69999999999999,123.9,2025-01-29 11:49:24,0.0
276.0,-721.6,-364.8000000000002,91.80000000000001,-47.69999999999999,97.9,2025-01-29 11:49:24,0.0
264.0,-845.6,-244.80000000000018,122.80000000000001,-62.69999999999999,120.9,2025-01-29 11:49:24,0.0
236.0,-901.6,-436.8000000000002,172.8,-220.7,137.9,2025-01-29 11:49:24,0.0
244.0,-869.6,-504.8000000000002,232.8,-143.7,163.9,2025-01-29 11:49:24,0.0
408.0,-705.6,-568.8000000000002,203.8,-75.69999999999999,169.9,2025-01-29 11:49:24,0.0
268.0,-489.6,-676.8000000000002,64.80000000000001,-14.699999999999989,152.9,2025-01-29 11:49:24,0.0
96.0,-601.6,-440.8000000000002,-25.19999999999999,-4.699999999999989,156.9,2025-01-29 11:49:24,0.0
148.0,-449.6,-408.8000000000002,26.80000000000001,-14.699999999999989,217.9,2025-01-29 11:49:24,0.0
332.0,-489.6,-540.8000000000002,4.800000000000011,-8.699999999999989,186.9,2025-01-29 11:49:24,0.0
444.0,-549.6,-264.8000000000002,104.80000000000001,103.30000000000001,190.9,2025-01-29 11:49:24,0.0
648.0,-745.6,-16.800000000000182,296.8,395.3,214.9,2025-01-29 11:49:24,0.0
340.0,-1249.6,-64.80000000000018,632.8,661.3,449.9,2025-01-29 11:49:24,0.0
472.0,-1609.6,-400.8000000000002,1037.8,949.3,624.9,2025-01-29 11:49:24,0.0
36.0,-1201.6,-488.8000000000002,1502.8,1251.3,709.9,2025-01-29 11:49:24,0.0
-252.0,-845.6,-796.8000000000002,1804.8,1154.3,735.9,2025-01-29 11:49:24,0.0
-548.0,-141.60000000000002,-1328.8000000000002,1956.8,722.3,826.9,2025-01-29 11:49:24,0.0
-548.0,494.4,-1372.8000000000002,1849.8,-8.699999999999989,919.9,2025-01-29 11:49:24,0.0
-364.0,910.4,-988.8000000000002,1584.8,-829.7,975.9,2025-01-29 11:49:24,0.0
592.0,690.4,-116.80000000000018,1446.8,-1626.7,862.9,2025-01-29 11:49:24,0.0
1284.0,530.4,151.19999999999982,1428.8,-2257.7,591.9,2025-01-29 11:49:24,0.0
1820.0,170.39999999999998,159.19999999999982,1520.8,-1722.7,435.9,2025-01-29 11:49:24,0.0
1864.0,126.39999999999998,143.19999999999982,1474.8,-172.7,429.9,2025-01-29 11:49:24,0.0
992.0,590.4,-96.80000000000018,1065.8,1310.3,225.9,2025-01-29 11:49:24,0.0
-92.0,634.4,-416.8000000000002,606.8,1457.3,82.9,2025-01-29 11:49:24,0.0
-880.0,806.4,-920.8000000000002,359.8,669.3,-88.1,2025-01-29 11:49:24,0.0
-952.0,794.4,-1608.8000000000002,209.8,-680.7,-423.1,2025-01-29 11:49:24,0.0
-784.0,406.4,-1396.8000000000002,41.80000000000001,-1441.7,-677.1,2025-01-29 11:49:24,0.0
-296.0,26.399999999999977,-564.8000000000002,-28.19999999999999,-1528.7,-815.1,2025-01-29 11:49:24,0.0
416.0,-737.6,851.1999999999998,-0.19999999999998863,-1391.7,-1003.1,2025-01-29 11:49:24,0.0
668.0,-1221.6,1091.1999999999998,423.8,-1102.7,-1118.1,2025-01-29 11:49:24,0.0
1080.0,-1589.6,255.19999999999982,782.8,-484.7,-1206.1,2025-01-29 11:49:24,0.0
1020.0,-1525.6,395.1999999999998,907.8,636.3,-1393.1,2025-01-29 11:49:24,0.0
716.0,-2101.6,1067.1999999999998,1044.8,1657.3,-1705.1,2025-01-29 11:49:24,0.0
-280.0,-2397.6,1599.1999999999998,1131.8,2348.3,-1956.1,2025-01-29 11:49:24,0.0
-1308.0,-2697.6,1915.1999999999998,904.8,2539.3,-2097.1,2025-01-29 11:49:25,0.0
-2532.0,-2541.6,1963.1999999999998,674.8,1527.3,-2096.1,2025-01-29 11:49:25,0.0
-3072.0,-2317.6,1707.1999999999998,654.8,172.3,-1622.1,2025-01-29 11:49:25,0.0
-2316.0,-2017.6,1683.1999999999998,708.8,-1036.7,-1159.1,2025-01-29 11:49:25,0.0
-1284.0,-2073.6,1843.1999999999998,769.8,-1831.7,-1229.1,2025-01-29 11:49:25,0.0
-300.0,-2433.6,2007.1999999999998,902.8,-2107.7,-1450.1,2025-01-29 11:49:25,0.0
132.0,-2529.6,2191.2,1177.8,-1775.7,-1524.1,2025-01-29 11:49:25,0.0
516.0,-2257.6,1967.1999999999998,1135.8,-1197.7,-1411.1,2025-01-29 11:49:25,0.0
688.0,-1633.6,2011.1999999999998,800.8,-668.7,-1224.1,2025-01-29 11:49:25,0.0
412.0,-1193.6,1903.1999999999998,340.8,-10.699999999999989,-1022.1,2025-01-29 11:49:25,0.0
252.0,-1297.6,1847.1999999999998,-239.2,484.3,-791.1,2025-01-29 11:49:25,0.0
304.0,-1825.6,1839.1999999999998,-686.2,768.3,-747.1,2025-01-29 11:49:25,0.0
0.0,-2269.6,1919.1999999999998,-1050.2,1024.3,-633.1,2025-01-29 11:49:25,0.0
-772.0,-2317.6,2295.2,-1429.2,1016.3,-243.1,2025-01-29 11:49:25,0.0
-856.0,-2173.6,2443.2,-1654.2,764.3,131.9,2025-01-29 11:49:25,
-828.0,-2081.6,2131.2,-1944.2,461.3,351.9,2025-01-29 11:49:25,0.0
-488.0,-2241.6,1887.1999999999998,-2282.2,439.3,410.9,2025-01-29 11:49:25,0.0
-308.0,-2697.6,1751.1999999999998,-2356.2,597.3,228.9,2025-01-29 11:49:25,0.0
52.0,-2677.6,1595.1999999999998,-2101.2,839.3,-31.099999999999994,2025-01-29 11:49:25,0.0
376.0,-1957.6,1271.1999999999998,-2002.2,1152.3,-577.1,2025-01-29 11:49:25,0.0
-124.0,-1041.6,1327.1999999999998,-2218.2,1587.3,-1128.1,2025-01-29 11:49:25,0.0
-1000.0,-485.6,1703.1999999999998,-2657.2,1623.3,-1386.1,2025-01-29 11:49:25,0.0
-1612.0,-1741.6,1187.1999999999998,-3130.2,1155.3,-1416.1,2025-01-29 11:49:25,0.0
-1396.0,-3293.6,1427.1999999999998,-2606.2,885.3,-1726.1,2025-01-29 11:49:25,0.0
-1516.0,-3545.6,1175.1999999999998,-2113.2,115.30000000000001,-2571.1,2025-01-29 11:49:25,0.0
-1544.0,-2993.6,267.1999999999998,-2059.2,-408.7,-3191.1,2025-01-29 11:49:25,0.0
-812.0,-1845.6,-1780.8000000000002,-1955.2,-300.7,-4462.1,2025-01-29 11:49:25,0.0
-1424.0,-1193.6,-3076.8,-2072.2,399.3,-5971.1,2025-01-29 11:49:25,0.0
-2460.0,-1781.6,-1740.8000000000002,-1786.2,792.3,-6721.1,2025-01-29 11:49:25,0.0
-3336.0,-3561.6,-468.8000000000002,-1289.2,7.300000000000011,-6998.1,2025-01-29 11:49:25,0.0
-4152.0,-5541.6,-464.8000000000002,-1091.2,-1182.7,-5728.1,2025-01-29 11:49:25,0.0
-3848.0,-6857.6,-680.8000000000002,-988.2,-1549.7,-3324.1,2025-01-29 11:49:25,0.0
-2136.0,-7661.6,-704.8000000000002,-431.2,-1282.7,-1166.1,2025-01-29 11:49:25,0.0
-944.0,-6701.6,-1084.8000000000002,177.8,-541.7,-102.1,2025-01-29 11:49:25,0.0
-1680.0,-4657.6,-844.8000000000002,-109.19999999999999,-374.7,1060.9,2025-01-29 11:49:25,0.0
-1640.0,-3765.6,-636.8000000000002,-599.2,-1220.7,2751.9,2025-01-29 11:49:25,0.0
-548.0,-2809.6,-1808.8000000000002,-466.2,-2508.7,4025.9,2025-01-29 11:49:25,0.0
748.0,-2033.6,-2852.8,-450.2,-3445.7,4747.9,2025-01-29 11:49:25,0.0
2828.0,-1693.6,-3104.8,-183.2,-3969.7,4913.9,2025-01-29 11:49:25,0.0
4580.0,-989.6,-2584.8,146.8,-3869.7,4228.9,2025-01-29 11:49:25,0.0
4896.0,126.39999999999998,-1260.8000000000002,-30.19999999999999,-3285.7,3004.9,2025-01-29 11:49:25,0.0
4492.0,1078.4,-660.8000000000002,-253.2,-2035.7,2153.9,2025-01-29 11:49:25,0.0
3660.0,1566.4,-1224.8000000000002,-670.2,-266.7,1900.9,2025-01-29 11:49:25,0.0
2440.0,966.4,-1548.8000000000002,-1281.2,1836.3,1847.9,2025-01-29 11:49:25,0.0
