acceleration_x,acceleration_y,acceleration_z,gyroscope_x,gyroscope_y,gyroscope_z,timestamp,label
-13140,-1388,-2844,-81,484,-263,2025-02-03 17:24:21,0.0
-13252,-1416,-2772,-20,494,-223,2025-02-03 17:24:21,0.0
-13232,-1436,-2688,-59,461,-223,2025-02-03 17:24:21,0.0
-13056,-1224,-2796,-38,443,-254,2025-02-03 17:24:21,0.0
-13108,-1276,-2648,-64,584,-275,2025-02-03 17:24:21,0.0
-13252,-1280,-2644,-37,553,-258,2025-02-03 17:24:21,0.0
-13272,-1468,-2780,-31,382,-190,2025-02-03 17:24:21,0.0
-13236,-1420,-2552,23,419,-145,2025-02-03 17:24:21,0.0
-13184,-1416,-2748,53,458,-156,2025-02-03 17:24:21,0.0
-13292,-1332,-2480,147,422,-197,2025-02-03 17:24:21,0.0
-13184,-1312,-2736,138,299,-219,2025-02-03 17:24:21,0.0
-13156,-1256,-2520,176,274,-242,2025-02-03 17:24:21,0.0
-13216,-1236,-2752,158,361,-223,2025-02-03 17:24:21,0.0
-13256,-1144,-2732,131,398,-198,2025-02-03 17:24:21,0.0
-13224,-1032,-2744,127,373,-171,2025-02-03 17:24:21,0.0
-13328,-1032,-2768,35,298,-156,2025-02-03 17:24:21,0.0
-13276,-1080,-2960,-77,220,-185,2025-02-03 17:24:21,0.0
-13316,-1020,-2948,-98,191,-192,2025-02-03 17:24:21,0.0
-13264,-1000,-2800,-166,109,-183,2025-02-03 17:24:21,0.0
-13216,-1124,-2880,-197,-2,-211,2025-02-03 17:24:21,0.0
-13216,-1084,-2692,-227,-37,-256,2025-02-03 17:24:21,0.0
-13316,-1260,-2796,-238,-106,-280,2025-02-03 17:24:21,0.0
-13276,-1176,-2696,-296,-243,-274,2025-02-03 17:24:21,0.0
-13228,-1116,-2856,-336,-256,-259,2025-02-03 17:24:21,0.0
-13216,-1128,-2772,-402,-255,-258,2025-02-03 17:24:21,0.0
-13028,-1276,-2720,-431,-154,-283,2025-02-03 17:24:21,0.0
-13112,-1344,-2760,-373,3,-232,2025-02-03 17:24:21,0.0
-13216,-1416,-2724,-295,143,-248,2025-02-03 17:24:21,0.0
-13256,-1456,-2804,-264,192,-249,2025-02-03 17:24:21,0.0
-13228,-1360,-3004,-276,180,-242,2025-02-03 17:24:21,0.0
-13200,-1316,-2736,-283,190,-244,2025-02-03 17:24:21,0.0
-13196,-1320,-3000,-209,218,-225,2025-02-03 17:24:21,0.0
-13028,-1264,-2904,-234,232,-181,2025-02-03 17:24:21,0.0
-13200,-1324,-2832,-272,206,-151,2025-02-03 17:24:21,0.0
-13136,-1284,-3188,-267,142,-163,2025-02-03 17:24:21,0.0
-13160,-1308,-2868,-273,167,-160,2025-02-03 17:24:21,0.0
-12996,-1180,-2816,-271,305,-153,2025-02-03 17:24:21,0.0
-13172,-1312,-2728,-248,402,-187,2025-02-03 17:24:21,0.0
-13260,-1328,-3032,-210,219,-134,2025-02-03 17:24:21,0.0
-13300,-1328,-2976,-231,92,-141,2025-02-03 17:24:21,0.0
-13220,-1284,-2844,-240,40,-150,2025-02-03 17:24:21,0.0
-13232,-1268,-2868,-242,-74,-153,2025-02-03 17:24:21,0.0
-13188,-1156,-2752,-261,-90,-159,2025-02-03 17:24:21,0.0
-13172,-1072,-2972,-288,25,-190,2025-02-03 17:24:21,0.0
-13236,-1124,-2992,-340,101,-159,2025-02-03 17:24:22,0.0
-13196,-1256,-2868,-324,165,-146,2025-02-03 17:24:22,0.0
-13204,-1344,-2864,-318,182,-157,2025-02-03 17:24:22,0.0
-13132,-1156,-2824,-347,194,-149,2025-02-03 17:24:22,0.0
-13120,-1264,-2760,-370,186,-162,2025-02-03 17:24:22,0.0
-13084,-1300,-2836,-370,221,-177,2025-02-03 17:24:22,0.0
-13172,-1316,-2864,-356,274,-172,2025-02-03 17:24:22,0.0
-13160,-1364,-2824,-317,285,-188,2025-02-03 17:24:22,0.0
-13208,-1332,-2788,-316,237,-161,2025-02-03 17:24:22,0.0
-13160,-1280,-2844,-316,209,-165,2025-02-03 17:24:22,0.0
-13096,-1164,-2912,-298,200,-172,2025-02-03 17:24:22,0.0
-13084,-1264,-2912,-284,240,-184,2025-02-03 17:24:22,0.0
-13132,-1168,-2872,-243,317,-153,2025-02-03 17:24:22,0.0
-13248,-1160,-2888,-221,311,-138,2025-02-03 17:24:22,0.0
-13276,-1240,-2732,-194,281,-108,2025-02-03 17:24:22,0.0
-13156,-1200,-2852,-189,233,-180,2025-02-03 17:24:22,0.0
-13160,-1264,-2928,-131,200,-213,2025-02-03 17:24:22,0.0
-13208,-1264,-2904,-78,147,-244,2025-02-03 17:24:22,0.0
-13076,-1352,-2956,-75,123,-279,2025-02-03 17:24:22,0.0
-13148,-1012,-3204,-89,143,-284,2025-02-03 17:24:22,0.0
-13140,-1036,-3068,-168,54,-262,2025-02-03 17:24:22,0.0
-13208,-1052,-2904,-211,35,-235,2025-02-03 17:24:22,0.0
-13228,-1196,-2932,-186,111,-238,2025-02-03 17:24:22,0.0
-13116,-1340,-2928,-109,5,-153,2025-02-03 17:24:22,0.0
-13216,-1328,-3244,-80,24,-134,2025-02-03 17:24:22,0.0
-13024,-1168,-3072,-47,141,-133,2025-02-03 17:24:22,0.0
-13132,-1076,-2952,-34,211,-125,2025-02-03 17:24:22,0.0
-13196,-1004,-3096,-54,231,-104,2025-02-03 17:24:22,0.0
-13144,-1088,-2948,-63,221,-112,2025-02-03 17:24:22,0.0
-13136,-1176,-2984,-12,162,-129,2025-02-03 17:24:22,0.0
-13200,-1160,-2924,-17,67,-131,2025-02-03 17:24:22,0.0
-13196,-1136,-3080,11,75,-137,2025-02-03 17:24:22,0.0
-13200,-1172,-3012,-26,79,-110,2025-02-03 17:24:22,0.0
-13208,-1148,-2880,-22,96,-95,2025-02-03 17:24:22,0.0
-13228,-1092,-2924,-50,97,-67,2025-02-03 17:24:22,0.0
-13168,-1100,-2964,-105,109,-108,2025-02-03 17:24:22,0.0
-13280,-1104,-2960,-100,102,-80,2025-02-03 17:24:22,0.0
-13188,-1204,-2892,-87,9,-45,2025-02-03 17:24:22,0.0
-13152,-1236,-2904,18,31,-14,2025-02-03 17:24:22,0.0
-13184,-1348,-2772,92,-12,-22,2025-02-03 17:24:22,0.0
-13288,-1388,-2736,168,-6,-76,2025-02-03 17:24:22,0.0
-13556,-1616,-2748,293,-113,-36,2025-02-03 17:24:22,0.0
-13712,-1516,-2756,466,-228,109,2025-02-03 17:24:22,0.0
-13652,-1188,-2644,578,-426,114,2025-02-03 17:24:22,0.0
-13304,-928,-2532,585,-749,109,2025-02-03 17:24:22,0.0
-13332,-1240,-3088,764,-556,118,2025-02-03 17:24:22,0.0
-13420,-1128,-2520,748,-582,154,2025-02-03 17:24:22,0.0
-13216,-1400,-2468,818,-1003,142,2025-02-03 17:24:22,0.0
-12892,-1252,-2856,819,-1576,71,2025-02-03 17:24:22,0.0
-12984,-972,-2952,896,-1414,58,2025-02-03 17:24:22,0.0
-13156,-524,-2644,951,-636,169,2025-02-03 17:24:22,0.0
-13236,-104,-2368,882,16,251,2025-02-03 17:24:22,0.0
-13560,28,-2296,642,33,279,2025-02-03 17:24:23,0.0
-13580,-644,-2384,-2,-1430,30,2025-02-03 17:24:23,0.0
-13576,-776,-2440,-145,-1798,-52,2025-02-03 17:24:23,0.0
-13384,-664,-2128,-70,-1597,96,2025-02-03 17:24:23,
-13180,-496,-2180,-42,-1019,149,2025-02-03 17:24:23,0.0
-13128,-400,-2000,-65,-427,6,2025-02-03 17:24:23,0.0
-13240,-332,-1512,-15,-293,-141,2025-02-03 17:24:23,0.0
-13312,-704,-1260,41,-406,-312,2025-02-03 17:24:23,0.0
-13300,-804,-1104,95,-467,-420,2025-02-03 17:24:23,0.0
-13348,-816,-1112,145,-425,-470,2025-02-03 17:24:23,0.0
-13348,-684,-1044,243,-167,-444,2025-02-03 17:24:23,0.0
-13248,-524,-1148,262,282,-426,2025-02-03 17:24:23,0.0
-13472,-344,-1108,216,536,-425,2025-02-03 17:24:23,0.0
-13640,-392,-1120,187,462,-469,2025-02-03 17:24:23,0.0
-13760,-436,-888,215,134,-550,2025-02-03 17:24:23,0.0
-13748,-640,-1068,210,-316,-665,2025-02-03 17:24:23,0.0
-13304,-992,-1520,278,-1248,-1439,2025-02-03 17:24:23,0.0
-13296,-876,-1508,242,-903,-1645,2025-02-03 17:24:23,0.0
-13288,-796,-1752,66,-483,-1763,2025-02-03 17:24:23,0.0
-13600,-532,-2064,-143,-461,-1810,2025-02-03 17:24:23,0.0
-13556,-480,-2488,-464,-617,-1817,2025-02-03 17:24:23,0.0
-13424,-556,-2236,-752,-773,-2017,2025-02-03 17:24:23,0.0
-13464,-1104,-2096,-845,-698,-2281,2025-02-03 17:24:23,0.0
-13356,-1640,-1888,-714,-166,-2467,2025-02-03 17:24:23,0.0
-13448,-2968,-1672,101,529,-3261,2025-02-03 17:24:23,0.0
-13256,-3216,-1248,520,198,-3184,2025-02-03 17:24:23,0.0
-13072,-3332,-1180,811,-227,-2902,2025-02-03 17:24:23,0.0
-12632,-3492,-884,973,-478,-2537,2025-02-03 17:24:23,0.0
-13180,-2428,-600,660,1846,-1445,2025-02-03 17:24:23,0.0
-13624,-2024,-1016,123,2150,-1716,2025-02-03 17:24:23,0.0
-14096,-1784,-1556,-600,1767,-2338,2025-02-03 17:24:23,0.0
-14520,-1852,-1468,-1242,788,-2765,2025-02-03 17:24:23,0.0
-14368,-2204,-1368,-1787,-439,-2939,2025-02-03 17:24:23,0.0
-13772,-2848,-1000,-2282,-1491,-3040,2025-02-03 17:24:23,0.0
-13312,-3324,-948,-2679,-2172,-3051,2025-02-03 17:24:23,0.0
-13180,-3632,-512,-2870,-2299,-2931,2025-02-03 17:24:23,0.0
-12512,-3392,-264,-1972,-414,417,2025-02-03 17:24:23,0.0
-12296,-3400,-680,-1970,220,917,2025-02-03 17:24:23,0.0
-12024,-3568,-812,-1837,1085,1316,2025-02-03 17:24:23,0.0
-12220,-3648,-824,-1808,2126,1507,2025-02-03 17:24:23,0.0
-12864,-3576,-664,-1860,2730,1494,2025-02-03 17:24:23,0.0
-13652,-3484,-308,-2089,2908,1374,2025-02-03 17:24:23,0.0
-14548,-3128,-92,-2375,2520,1276,2025-02-03 17:24:23,0.0
-15068,-2980,-312,-2689,1349,1137,2025-02-03 17:24:23,0.0
-14692,-3268,-500,-2744,-688,810,2025-02-03 17:24:24,0.0
-12408,-3784,632,-2453,-2223,-125,2025-02-03 17:24:24,0.0
-12488,-3504,232,-2533,-714,-314,2025-02-03 17:24:24,0.0
-13096,-3260,-428,-2861,793,-492,2025-02-03 17:24:24,0.0
-13448,-2944,-744,-3441,1856,-784,2025-02-03 17:24:24,0.0
-12836,-384,-3104,3164,-9284,5240,2025-02-03 17:24:24,0.0
-11168,-1068,-2592,3640,-8074,5068,2025-02-03 17:24:24,0.0
-10356,-1264,-1248,4056,-4846,4764,2025-02-03 17:24:24,0.0
-10776,124,496,2724,-2797,1471,2025-02-03 17:24:24,0.0
-10068,8,612,2942,-1980,965,2025-02-03 17:24:25,0.0
-10192,144,456,3090,-459,225,2025-02-03 17:24:25,0.0
-10624,824,100,2953,1001,-698,2025-02-03 17:24:25,0.0
-11944,1456,-404,2497,1607,-1442,2025-02-03 17:24:25,0.0
-13568,2260,-456,1864,1585,-1738,2025-02-03 17:24:25,0.0
-14976,2876,-396,1283,1131,-1369,2025-02-03 17:24:25,0.0
-15544,2752,712,1002,-697,-578,2025-02-03 17:24:25,0.0
-14532,1428,1184,968,-2849,-147,2025-02-03 17:24:25,0.0
-13444,-148,1016,1237,-4321,-465,2025-02-03 17:24:25,0.0
-14600,236,-3464,-1977,-10865,-5378,2025-02-03 17:24:25,0.0
-13208,-764,-3088,-2566,-11285,-5189,2025-02-03 17:24:25,0.0
-11868,-1560,-1904,-2898,-8304,-4951,2025-02-03 17:24:25,0.0
-11040,-2060,-1448,-3106,-5199,-4533,2025-02-03 17:24:25,0.0
-10740,-2052,-1556,-3059,-1683,-3922,2025-02-03 17:24:25,0.0
-10216,-2256,-1300,-2757,747,-3502,2025-02-03 17:24:25,0.0
-10816,-2288,-640,-2537,1966,-3142,2025-02-03 17:24:25,0.0
-11528,-2636,284,-2393,2529,-2530,2025-02-03 17:24:25,0.0
-12268,-3060,-4,-2456,2664,-2099,2025-02-03 17:24:25,0.0
-13320,-3628,-532,-2729,2973,-2148,2025-02-03 17:24:25,0.0
-14252,-3384,-1028,-2888,2787,-2219,2025-02-03 17:24:25,0.0
-14664,-2904,-988,-2520,962,-1732,2025-02-03 17:24:25,0.0
-13952,-2448,-448,-2020,-1745,-745,2025-02-03 17:24:25,0.0
-13004,-2536,-632,-1837,-2912,6,2025-02-03 17:24:25,0.0
-12252,-2436,-844,-1847,-2601,413,2025-02-03 17:24:25,0.0
-12412,-2216,-1208,-2065,-1135,604,2025-02-03 17:24:25,0.0
-12724,-1888,-1228,-2579,257,611,2025-02-03 17:24:25,0.0
-13352,-1740,-920,-3151,911,487,2025-02-03 17:24:25,0.0
-13284,-1772,-472,-3560,630,392,2025-02-03 17:24:25,0.0
-13800,-2308,-12,-3760,-329,407,2025-02-03 17:24:25,0.0
-13992,-3120,-80,-3882,-1356,667,2025-02-03 17:24:25,0.0
-13888,-3736,-532,-4022,-2016,916,2025-02-03 17:24:25,0.0
-13472,-3856,-480,-4052,-1995,679,2025-02-03 17:24:25,0.0
-13224,-3844,-756,-3985,-1591,79,2025-02-03 17:24:25,0.0
-13208,-3484,-968,-3940,-1090,-530,2025-02-03 17:24:25,0.0
-13456,-2788,-652,-3905,-374,-779,2025-02-03 17:24:25,0.0
-13628,-2188,-240,-4143,167,-747,2025-02-03 17:24:25,0.0
-14240,-2000,424,-4470,599,-630,2025-02-03 17:24:25,0.0
-15104,-2452,896,-4868,799,-454,2025-02-03 17:24:25,0.0
-15368,-3164,1160,-5226,672,-297,2025-02-03 17:24:25,0.0
-15472,-3924,468,-5421,275,-213,2025-02-03 17:24:25,0.0
-15720,-4080,-372,-5167,325,-173,2025-02-03 17:24:25,0.0
-16152,-4008,-1228,-4259,1425,-175,2025-02-03 17:24:25,0.0
-16680,-4524,-1120,-2922,2758,-310,2025-02-03 17:24:25,0.0
-16996,-5608,-828,-1647,2820,-392,2025-02-03 17:24:25,0.0
-17832,-6028,-804,-435,1314,540,2025-02-03 17:24:25,0.0
-16812,-5200,-2088,499,-1247,2203,2025-02-03 17:24:26,0.0
-19212,-888,-3584,-2161,10783,3721,2025-02-03 17:24:26,0.0
-16568,-68,-4620,-2214,981,4546,2025-02-03 17:24:26,0.0
-13288,372,-4840,-2882,-7789,3732,2025-02-03 17:24:26,0.0
-11956,220,-3332,-3549,-11366,2640,2025-02-03 17:24:26,0.0
-9896,-208,-1860,-3215,-9251,2093,2025-02-03 17:24:26,
-8952,-252,-1068,-2056,-5124,1747,2025-02-03 17:24:26,0.0
-8756,32,-1180,-925,-1090,1479,2025-02-03 17:24:26,0.0
-8788,68,-1768,-309,2802,807,2025-02-03 17:24:26,0.0
-10084,-120,-1520,13,5433,-183,2025-02-03 17:24:26,0.0
-12380,-132,-972,310,5770,-1303,2025-02-03 17:24:26,0.0
-13632,40,-1324,502,3697,-1679,2025-02-03 17:24:26,0.0
-14356,368,-1924,746,969,-1663,2025-02-03 17:24:26,0.0
-14388,324,-2276,1081,-564,-1465,2025-02-03 17:24:26,0.0
-13752,-48,-2312,1363,-791,-1384,2025-02-03 17:24:26,0.0
-13096,-712,-1480,1458,-701,-1493,2025-02-03 17:24:26,0.0
-12304,-1120,-816,1740,-592,-1734,2025-02-03 17:24:26,0.0
-11912,-1336,-712,2213,-530,-2196,2025-02-03 17:24:26,0.0
-12452,-1196,-1344,2415,-148,-2496,2025-02-03 17:24:26,0.0
-12580,-668,-2408,2682,680,-2684,2025-02-03 17:24:26,0.0
-13272,-96,-3692,2753,1733,-2554,2025-02-03 17:24:26,0.0
-13876,624,-4496,2455,2525,-2250,2025-02-03 17:24:26,0.0
-14600,952,-3964,1920,2278,-1955,2025-02-03 17:24:26,0.0
-14400,264,-4052,1081,1220,-1671,2025-02-03 17:24:26,0.0
-14036,-632,-3536,699,595,-1400,2025-02-03 17:24:26,0.0
-13604,-940,-3612,665,456,-1005,2025-02-03 17:24:26,0.0
-12964,-996,-3888,632,923,-628,2025-02-03 17:24:26,0.0
-12536,-1000,-3984,611,2028,-391,2025-02-03 17:24:26,0.0
-12432,-1056,-3976,640,3048,-330,2025-02-03 17:24:26,0.0
-12372,-1328,-3652,579,3532,-376,2025-02-03 17:24:26,0.0
-12600,-1252,-3144,531,3512,-562,2025-02-03 17:24:26,0.0
-12600,-1480,-2508,567,3049,-751,2025-02-03 17:24:26,0.0
-12992,-1680,-2004,660,2567,-847,2025-02-03 17:24:26,0.0
-13052,-1760,-2828,728,2171,-863,2025-02-03 17:24:26,0.0
-12940,-1640,-2584,912,2245,-767,2025-02-03 17:24:26,0.0
-12824,-1476,-2604,1246,2832,-658,2025-02-03 17:24:26,0.0
-12572,-1360,-3048,1261,3382,-791,2025-02-03 17:24:26,0.0
-13004,-1412,-3088,1069,3440,-916,2025-02-03 17:24:26,0.0
-13356,-1256,-3128,934,3214,-807,2025-02-03 17:24:26,0.0
-13272,-1316,-3408,663,2817,-684,2025-02-03 17:24:26,0.0
-13040,-1312,-3092,327,2438,-746,2025-02-03 17:24:26,0.0
-12672,-1548,-2636,201,2204,-845,2025-02-03 17:24:26,0.0
-12264,-1792,-2348,247,2061,-965,2025-02-03 17:24:26,0.0
-12036,-1768,-2096,305,2458,-1246,2025-02-03 17:24:26,0.0
-11960,-1824,-1936,333,2894,-1634,2025-02-03 17:24:26,0.0
-12592,-1756,-2044,404,3062,-1941,2025-02-03 17:24:26,0.0
-13428,-1740,-2488,402,3112,-2066,2025-02-03 17:24:26,0.0
-14220,-1660,-3036,320,3036,-1909,2025-02-03 17:24:26,0.0
-9096,-1296,-6772,4638,-2849,2339,2025-02-03 17:24:26,0.0
-7036,-332,-6144,4157,-6057,2628,2025-02-03 17:24:26,0.0
-4528,416,-5224,2629,-9705,2731,2025-02-03 17:24:26,0.0
-1504,1200,-2968,224,-13669,2942,2025-02-03 17:24:26,0.0
2000,2396,1304,-2254,-17067,2818,2025-02-03 17:24:26,0.0
3412,2432,5988,-3899,-16266,2329,2025-02-03 17:24:26,0.0
2796,1424,8876,-4174,-10343,1797,2025-02-03 17:24:27,0.0
444,-256,9200,-3051,-1462,1338,2025-02-03 17:24:27,0.0
-2568,-1060,6224,-1702,7280,1652,2025-02-03 17:24:27,0.0
-4976,-1392,3504,-568,14042,2116,2025-02-03 17:24:27,0.0
-8368,-896,4068,408,19780,2634,2025-02-03 17:24:27,0.0
-10748,320,5076,1158,20732,3769,2025-02-03 17:24:27,0.0
-12360,1512,4480,90,16626,5000,2025-02-03 17:24:27,0.0
-14744,2196,4968,-1862,10202,5431,2025-02-03 17:24:27,0.0
-16468,1272,4652,-2443,2697,5196,2025-02-03 17:24:27,0.0
-9556,-1480,-3272,-3807,-23529,4081,2025-02-03 17:24:27,0.0
-7336,-944,-2072,-4761,-25401,2169,2025-02-03 17:24:27,0.0
-6628,764,-184,-4957,-23805,1063,2025-02-03 17:24:27,0.0
-6836,1424,-796,-4719,-20694,1137,2025-02-03 17:24:27,0.0
-6580,-296,-3292,-4948,-14330,2115,2025-02-03 17:24:27,0.0
-5672,-2796,-1588,-4724,-10064,2730,2025-02-03 17:24:27,0.0
-6460,-4860,1252,-3600,-6357,3821,2025-02-03 17:24:27,0.0
-8396,-4568,4344,-710,3318,3878,2025-02-03 17:24:27,0.0
-12568,-2240,3368,1907,14828,1656,2025-02-03 17:24:27,0.0
-21120,392,1120,2009,28969,-1604,2025-02-03 17:24:27,0.0
-32768,6204,-304,-41,32767,-7727,2025-02-03 17:24:27,0.0
-32768,8812,940,1652,32767,-9854,2025-02-03 17:24:27,0.0
-32768,2708,-21532,4563,32767,-11165,2025-02-03 17:24:27,0.0
-32768,-4888,-32768,924,32767,-11334,2025-02-03 17:24:27,0.0
-32668,-7120,-32768,-470,32767,-9418,2025-02-03 17:24:27,0.0
-8504,-7336,-32768,-4582,32767,-3960,2025-02-03 17:24:27,0.0
-2592,2504,-17424,-5271,11682,3918,2025-02-03 17:24:27,0.0
-1444,4452,-14452,-116,27715,1377,2025-02-03 17:24:27,0.0
-2196,588,-21652,2686,32767,-5624,2025-02-03 17:24:27,0.0
-11808,3436,-13204,-3579,1723,-43,2025-02-03 17:24:27,0.0
-8468,2212,-7632,-4316,-8443,2607,2025-02-03 17:24:28,0.0
-3264,-304,-4904,-3620,-11212,2882,2025-02-03 17:24:31,0.0
-1384,-2400,-5256,-1217,-10740,2801,2025-02-03 17:24:31,0.0
-36,-4444,-7712,279,-10065,2918,2025-02-03 17:24:31,0.0
-9128,700,-17836,-4801,7848,-2882,2025-02-03 17:24:31,0.0
-12236,-1368,-17396,-4318,4881,-1536,2025-02-03 17:24:31,0.0
-12080,-3788,-17768,-4246,1317,-139,2025-02-03 17:24:31,0.0
-6164,1712,-12676,-359,-1602,81,2025-02-03 17:24:31,0.0
-5472,2000,-12212,-587,-1823,91,2025-02-03 17:24:31,0.0
-11372,-2408,-12028,1704,-5890,-317,2025-02-03 17:24:31,0.0
-14608,1240,-660,-16725,3537,1114,2025-02-03 17:24:31,0.0
-14132,1320,796,-16545,-424,-401,2025-02-03 17:24:31,0.0
-14096,392,444,-16536,-2408,-1390,2025-02-03 17:24:31,0.0
-12932,32,-356,-16591,-2845,-1889,2025-02-03 17:24:31,0.0
-12120,452,-1024,-16577,-2491,-2119,2025-02-03 17:24:31,0.0
-11376,668,-1268,-16577,-1470,-1925,2025-02-03 17:24:31,0.0
-11164,620,-640,-16577,587,-1718,2025-02-03 17:24:31,0.0
-11412,592,84,-16470,3257,-1861,2025-02-03 17:24:32,0.0
-11920,796,-64,-16341,5026,-2202,2025-02-03 17:24:32,0.0
-12772,1128,-304,-16212,5633,-2629,2025-02-03 17:24:32,0.0
-13760,1260,-784,-16155,5179,-2939,2025-02-03 17:24:32,0.0
-13740,348,-1840,-16221,660,-2920,2025-02-03 17:24:32,0.0
-13536,-4,-1152,-15921,907,-2708,2025-02-03 17:24:32,
-13712,-44,-696,-15580,1023,-2590,2025-02-03 17:24:32,0.0
-13788,0,-504,-15208,1096,-2531,2025-02-03 17:24:32,0.0
-13748,204,-724,-14714,840,-2583,2025-02-03 17:24:32,0.0
-12600,168,-396,-13653,861,-4832,2025-02-03 17:24:32,0.0
-12816,-660,8,-12998,1840,-5190,2025-02-03 17:24:32,0.0
-13336,-1444,804,-12134,2410,-5423,2025-02-03 17:24:32,0.0
-14200,-1864,1668,-10471,2623,-5137,2025-02-03 17:24:32,0.0
-14388,-2680,1844,-7917,2220,-4730,2025-02-03 17:24:32,0.0
-14652,-3880,1812,-5557,1823,-4444,2025-02-03 17:24:32,0.0
-14352,-5536,2032,-3441,1455,-4116,2025-02-03 17:24:32,0.0
-15576,-6780,2508,-1139,1523,-3476,2025-02-03 17:24:32,0.0
-16460,-6024,1060,970,3032,-1782,2025-02-03 17:24:32,0.0
-15760,-3292,-896,3053,5307,200,2025-02-03 17:24:32,0.0
-14868,-600,-2268,4048,6638,1294,2025-02-03 17:24:32,0.0
-13824,2256,-2668,3989,6172,1517,2025-02-03 17:24:32,0.0
-13260,4156,-2432,3241,4280,928,2025-02-03 17:24:32,0.0
-13052,3972,-1404,1824,1733,-57,2025-02-03 17:24:32,0.0
-12556,40,-1848,-328,-800,-1798,2025-02-03 17:24:32,0.0
-13028,520,-2384,-578,496,-1919,2025-02-03 17:24:32,0.0
-12972,-692,-3084,-7455,-3537,-5407,2025-02-03 17:24:32,0.0
-12188,-372,-2776,-8058,-3856,-5552,2025-02-03 17:24:32,0.0
-12076,-536,-2864,-8863,-3670,-5541,2025-02-03 17:24:32,0.0
-12488,-1012,-2272,-9554,-2799,-5274,2025-02-03 17:24:32,0.0
-12804,-1524,-1572,-9843,-1582,-4730,2025-02-03 17:24:32,0.0
-12844,-2068,-936,-9755,-349,-4354,2025-02-03 17:24:32,0.0
-12916,-2900,-996,-9452,541,-4402,2025-02-03 17:24:32,0.0
-13004,-3644,-1496,-9074,718,-4562,2025-02-03 17:24:32,0.0
-13412,-4528,-1720,-8561,466,-4639,2025-02-03 17:24:32,0.0
-13724,-4876,-1872,-8119,-182,-4430,2025-02-03 17:24:32,0.0
-14088,-4496,-1584,-7710,-988,-3698,2025-02-03 17:24:32,0.0
-13112,-1628,-1700,-7258,-1779,-2943,2025-02-03 17:24:32,0.0
-13312,-1416,-1868,-7652,-2071,-3081,2025-02-03 17:24:32,0.0
-13492,-1844,-1660,-7864,-2214,-3043,2025-02-03 17:24:33,0.0
-13684,-2044,-1364,-7734,-2226,-2974,2025-02-03 17:24:33,0.0
-13648,-2268,-1100,-7768,-2303,-2998,2025-02-03 17:24:33,0.0
-13196,-2708,-804,-7963,-2627,-3217,2025-02-03 17:24:33,0.0
-13036,-3112,-132,-7994,-3133,-3466,2025-02-03 17:24:33,0.0
-13216,-3208,108,-7769,-3793,-3281,2025-02-03 17:24:33,0.0
-13248,-3152,-4,-7392,-3603,-2454,2025-02-03 17:24:33,0.0
-12772,-2656,160,-6993,-2434,-1554,2025-02-03 17:24:33,0.0
-12068,-2412,420,-6714,-1148,-1197,2025-02-03 17:24:33,0.0
-11864,-2792,804,-6648,-210,-1261,2025-02-03 17:24:33,0.0
-12296,-3080,1076,-6438,105,-1179,2025-02-03 17:24:33,0.0
-13016,-3300,1300,-5882,29,-672,2025-02-03 17:24:33,0.0
-13072,-3320,1316,-5184,240,176,2025-02-03 17:24:33,0.0
-12764,-3864,1740,-4540,933,734,2025-02-03 17:24:33,0.0
-12280,-4672,1172,-3993,1251,639,2025-02-03 17:24:33,0.0
-12448,-5084,1192,-3700,1200,242,2025-02-03 17:24:33,0.0
-13108,-4140,1788,-3448,515,179,2025-02-03 17:24:33,0.0
-13976,-2300,2108,-3251,-635,581,2025-02-03 17:24:33,0.0
-14084,-732,1156,-2947,-1553,1077,2025-02-03 17:24:33,0.0
-13584,-948,-940,-2628,-1553,1458,2025-02-03 17:24:33,0.0
-11980,-2164,-2556,-3328,-808,874,2025-02-03 17:24:33,0.0
-11076,-2352,-1308,-4323,177,-435,2025-02-03 17:24:33,0.0
-12072,-2724,-700,-4744,1867,-1540,2025-02-03 17:24:33,0.0
-13332,-3252,-792,-4751,3925,-2010,2025-02-03 17:24:33,0.0
-14072,-3700,-800,-4981,5677,-2504,2025-02-03 17:24:33,0.0
-14988,-3340,-80,-5510,5118,-2825,2025-02-03 17:24:33,0.0
-15704,-2580,628,-5669,3095,-2772,2025-02-03 17:24:33,0.0
-15168,-3316,356,-5565,279,-2717,2025-02-03 17:24:33,0.0
-15064,-4316,716,-5284,-2530,-2448,2025-02-03 17:24:33,0.0
-15288,-5740,1468,-4995,-2629,-1751,2025-02-03 17:24:33,0.0
-15912,-6724,2308,-4521,-210,-858,2025-02-03 17:24:33,0.0
-16328,-7564,3212,-3337,2814,-44,2025-02-03 17:24:33,0.0
-16492,-7572,2284,-1829,4191,-101,2025-02-03 17:24:33,0.0
-16092,-7464,-1708,253,5196,-1302,2025-02-03 17:24:33,0.0
-16244,-7828,-4148,2288,7008,-3094,2025-02-03 17:24:33,0.0
-16204,-7444,-4320,3681,7597,-4517,2025-02-03 17:24:33,0.0
-21448,-4940,-1880,4163,5187,-3105,2025-02-03 17:24:33,0.0
-22024,-2016,-2748,3744,-9,1071,2025-02-03 17:24:33,0.0
-18972,104,-5524,2505,-6000,4357,2025-02-03 17:24:33,0.0
-15820,1448,-8256,932,-11294,6765,2025-02-03 17:24:33,0.0
-11116,1984,-10496,-550,-15131,7767,2025-02-03 17:24:33,0.0
-7884,2232,-9724,-1554,-16348,6793,2025-02-03 17:24:33,0.0
-6056,2080,-7172,-2196,-13663,4233,2025-02-03 17:24:33,0.0
-7068,1080,-3500,-3101,-3097,479,2025-02-03 17:24:33,0.0
-10172,-968,-820,-3217,7504,-946,2025-02-03 17:24:33,0.0
-14028,-2156,616,-1092,13483,26,2025-02-03 17:24:33,0.0
-16152,-2928,-892,1012,12778,2446,2025-02-03 17:24:33,0.0
-16296,-3444,-2608,1866,7459,4820,2025-02-03 17:24:33,0.0
-14944,-2968,-3204,2121,386,5915,2025-02-03 17:24:33,0.0
-13300,-2016,-3596,2418,-5171,5817,2025-02-03 17:24:33,0.0
-12304,-1224,-3168,2776,-8296,5392,2025-02-03 17:24:33,0.0
-11144,-576,-2576,2849,-8349,5080,2025-02-03 17:24:33,0.0
-10420,-108,-1168,3162,-6949,4869,2025-02-03 17:24:33,0.0
-10396,600,352,3636,-4830,4834,2025-02-03 17:24:33,0.0
-10836,1188,16,4014,-2056,4887,2025-02-03 17:24:33,0.0
-11076,1708,-684,4082,586,4955,2025-02-03 17:24:33,0.0
-12112,1936,-1104,3919,2828,4511,2025-02-03 17:24:33,0.0
-13060,1868,-1328,3435,2621,4037,2025-02-03 17:24:33,0.0
-13668,1648,-1044,3140,660,3475,2025-02-03 17:24:33,0.0
-13184,832,-236,2938,-2397,2952,2025-02-03 17:24:33,0.0
-12660,144,468,2796,-4644,2224,2025-02-03 17:24:34,0.0
-11688,-200,520,2785,-6120,1351,2025-02-03 17:24:34,0.0
-10808,-76,308,3034,-6368,461,2025-02-03 17:24:34,0.0
-10464,24,748,3266,-5612,-389,2025-02-03 17:24:34,0.0
-10436,252,868,3524,-3932,-1153,2025-02-03 17:24:34,0.0
-10656,448,596,3807,-1645,-1654,2025-02-03 17:24:34,0.0
-11472,808,-400,3960,485,-1711,2025-02-03 17:24:34,0.0
-12324,1000,-1080,4078,1469,-1346,2025-02-03 17:24:34,
-12804,1148,-1100,3991,1759,-883,2025-02-03 17:24:34,0.0
-13740,732,-1464,3068,-1575,-1107,2025-02-03 17:24:34,0.0
-12980,276,-1660,3283,-2557,-1081,2025-02-03 17:24:34,0.0
-12152,-440,-920,3532,-2933,-1064,2025-02-03 17:24:34,0.0
-11464,-1272,468,3702,-1592,-1138,2025-02-03 17:24:34,0.0
-11536,-780,1564,4091,1691,-1281,2025-02-03 17:24:34,0.0
-12436,732,1624,5158,5121,-1150,2025-02-03 17:24:34,0.0
-14028,2384,0,5338,7254,-760,2025-02-03 17:24:34,0.0
-15756,2712,-516,4637,7804,-499,2025-02-03 17:24:34,0.0
-17224,1444,516,3996,6803,-109,2025-02-03 17:24:34,0.0
-17048,-560,964,3728,3955,173,2025-02-03 17:24:34,0.0
-15784,-1152,1648,3539,88,-213,2025-02-03 17:24:34,0.0
-15160,-332,2012,3474,-1591,-691,2025-02-03 17:24:34,0.0
-15256,756,1544,3574,-671,-663,2025-02-03 17:24:34,0.0
-16860,2452,-716,3928,3147,96,2025-02-03 17:24:34,0.0
-24556,2312,-8708,2421,17386,6145,2025-02-03 17:24:34,0.0
-23072,1764,-11716,-2532,18577,9664,2025-02-03 17:24:34,0.0
-16780,3352,-9228,-6489,10975,9207,2025-02-03 17:24:34,0.0
-10668,5324,-3952,-5502,-2624,3493,2025-02-03 17:24:34,0.0
-8588,2364,-2420,-2511,-14138,-3867,2025-02-03 17:24:34,0.0
-10620,-1264,-3704,-3110,-21335,-7117,2025-02-03 17:24:34,0.0
-10996,-2968,-1592,-4454,-22140,-6830,2025-02-03 17:24:34,0.0
-10444,-2440,472,-3561,-17436,-5093,2025-02-03 17:24:34,0.0
-10284,-848,-360,-988,-7239,-2790,2025-02-03 17:24:34,0.0
-9752,308,-3500,327,2733,-1421,2025-02-03 17:24:34,0.0
-9756,620,-4432,-402,9556,-1390,2025-02-03 17:24:34,0.0
-10216,356,-3756,-1498,12399,-2191,2025-02-03 17:24:34,0.0
-12092,180,-1900,-1956,11665,-2871,2025-02-03 17:24:34,0.0
-13984,364,-2292,-2217,7929,-3180,2025-02-03 17:24:34,0.0
-14392,228,-4048,-3142,2988,-3290,2025-02-03 17:24:34,0.0
-14364,-436,-4008,-3977,-634,-3717,2025-02-03 17:24:34,0.0
-14056,-1356,-3928,-4686,-2243,-4246,2025-02-03 17:24:34,0.0
-13540,-1996,-3412,-5641,-2858,-4487,2025-02-03 17:24:34,0.0
-12340,-2812,-2384,-5771,-3198,-4787,2025-02-03 17:24:34,0.0
-11584,-4044,-1784,-5118,-3322,-5362,2025-02-03 17:24:34,0.0
-11652,-4712,-1736,-4163,-3088,-5517,2025-02-03 17:24:34,0.0
-11964,-4476,-2216,-3365,-2317,-5088,2025-02-03 17:24:34,0.0
-12484,-3596,-2300,-2820,-693,-4290,2025-02-03 17:24:34,0.0
-12304,-1868,-2700,-2471,515,-3595,2025-02-03 17:24:34,0.0
-12796,-276,-2288,-2542,1103,-3204,2025-02-03 17:24:34,0.0
-12832,560,-2092,-3161,325,-2970,2025-02-03 17:24:34,0.0
-12836,396,-1888,-3734,-1248,-2808,2025-02-03 17:24:34,0.0
-12748,-444,-1380,-4126,-2675,-2570,2025-02-03 17:24:34,0.0
-12804,-992,-532,-4405,-3870,-2047,2025-02-03 17:24:34,0.0
-12820,-1452,204,-4334,-4677,-1082,2025-02-03 17:24:34,0.0
-12804,-1416,388,-4138,-4889,-89,2025-02-03 17:24:34,0.0
-12932,-1508,768,-3991,-4627,726,2025-02-03 17:24:34,0.0
-11680,-1860,-304,-4237,-4191,922,2025-02-03 17:24:34,0.0
-11248,-1872,-928,-4195,-4068,949,2025-02-03 17:24:34,0.0
-11156,-1360,-368,-4229,-3553,1141,2025-02-03 17:24:34,0.0
-11208,-1112,-676,-4484,-2141,1539,2025-02-03 17:24:34,0.0
-11008,-1200,-740,-4580,485,2031,2025-02-03 17:24:35,0.0
-10964,-1172,-1396,-4752,2371,2436,2025-02-03 17:24:35,0.0
-11212,-696,-2268,-4877,3806,2279,2025-02-03 17:24:35,0.0
-12140,-320,-2404,-5286,4994,1508,2025-02-03 17:24:35,0.0
-13404,-480,-1964,-6293,5949,320,2025-02-03 17:24:35,0.0
-15048,-576,-400,-7053,5944,-907,2025-02-03 17:24:35,0.0
-17020,-652,332,-7175,4928,-1404,2025-02-03 17:24:35,0.0
-17380,-1512,-924,-7161,2621,-979,2025-02-03 17:24:35,0.0
-16624,-2500,-1800,-7520,348,-644,2025-02-03 17:24:35,0.0
-15720,-2296,-628,-8193,-100,-808,2025-02-03 17:24:35,0.0
-15888,-2152,628,-8450,1310,-1105,2025-02-03 17:24:35,0.0
-16400,-2528,1324,-8029,2136,-779,2025-02-03 17:24:35,0.0
-17172,-2920,2044,-6861,1559,-15,2025-02-03 17:24:35,0.0
-16576,-4152,2048,-6386,1112,-31,2025-02-03 17:24:35,0.0
-15880,-5456,3016,-5988,145,-819,2025-02-03 17:24:35,0.0
-15780,-5816,2708,-5091,-532,-1089,2025-02-03 17:24:35,0.0
-15600,-5000,-252,-3223,544,-754,2025-02-03 17:24:35,0.0
-15288,-3440,-3820,-1329,3684,-1051,2025-02-03 17:24:35,0.0
-14368,-3916,-5288,23,6681,-2603,2025-02-03 17:24:35,0.0
-14740,-4252,-4460,985,7192,-4482,2025-02-03 17:24:35,0.0
-16292,-4244,-2988,2041,6056,-5766,2025-02-03 17:24:35,0.0
-17900,-4072,-2784,2745,3287,-5769,2025-02-03 17:24:35,0.0
-14696,2168,-7636,1177,-12167,2939,2025-02-03 17:24:35,0.0
-10120,2712,-9628,-396,-15856,4418,2025-02-03 17:24:35,0.0
-7876,3828,-8956,-2346,-14307,3789,2025-02-03 17:24:35,0.0
-7488,4596,-6864,-3578,-5907,1955,2025-02-03 17:24:35,0.0
-11844,1304,-2488,587,-517,1202,2025-02-03 17:24:35,0.0
-11696,1904,-3152,1013,-1016,1554,2025-02-03 17:24:35,0.0
-11552,2120,-3952,1260,-819,1708,2025-02-03 17:24:35,0.0
-11336,1744,-4176,1362,12,1388,2025-02-03 17:24:35,0.0
-11472,1112,-3416,1144,730,599,2025-02-03 17:24:35,0.0
-12192,204,-2220,1286,762,83,2025-02-03 17:24:35,0.0
-12812,-424,-2108,1493,502,-101,2025-02-03 17:24:35,0.0
-12672,52,-2484,1634,-315,-514,2025-02-03 17:24:35,0.0
-11460,-376,-2340,1936,2082,-3119,2025-02-03 17:24:35,0.0
-11852,-320,-1596,1769,3008,-4019,2025-02-03 17:24:35,0.0
-12628,-232,-1176,1753,2718,-4794,2025-02-03 17:24:35,0.0
-14144,72,-2056,1967,1451,-4744,2025-02-03 17:24:35,0.0
-15268,188,-4332,2191,686,-3687,2025-02-03 17:24:36,0.0
-12544,-320,-2860,-5597,-4569,-2887,2025-02-03 17:24:36,0.0
-12240,16,-3120,-6089,-3798,-2988,2025-02-03 17:24:36,0.0
-12056,208,-3648,-6654,-2089,-3125,2025-02-03 17:24:36,0.0
-12272,148,-3500,-7069,-452,-3297,2025-02-03 17:24:36,0.0
-12588,-532,-3168,-7417,351,-3502,2025-02-03 17:24:36,0.0
-12744,-1240,-3020,-7617,292,-3862,2025-02-03 17:24:36,0.0
-12964,-1456,-3600,-7768,-200,-4233,2025-02-03 17:24:36,0.0
-13088,-1548,-3944,-8008,-864,-4420,2025-02-03 17:24:36,0.0
-13024,-1524,-3996,-8279,-1661,-4193,2025-02-03 17:24:36,0.0
-12832,-1356,-3236,-8706,-1713,-3520,2025-02-03 17:24:36,
-12328,-1480,-2988,-9330,-1119,-3121,2025-02-03 17:24:36,0.0
-11988,-1828,-2660,-10201,-265,-3008,2025-02-03 17:24:36,0.0
-12260,-2288,-2804,-11045,1021,-3124,2025-02-03 17:24:36,0.0
-12864,-2556,-3116,-11609,2169,-3434,2025-02-03 17:24:36,0.0
-13344,-2660,-3564,-12264,3136,-4055,2025-02-03 17:24:36,0.0
-14172,-2600,-3276,-13050,3094,-4766,2025-02-03 17:24:36,0.0
-14928,-2524,-3268,-13745,1785,-5186,2025-02-03 17:24:36,0.0
-15156,-2144,-3572,-14351,-513,-5271,2025-02-03 17:24:36,0.0
-14512,-2132,-3964,-15107,-3402,-5262,2025-02-03 17:24:36,0.0
-13372,-1808,-3964,-15884,-5701,-5249,2025-02-03 17:24:36,0.0
-11892,-1860,-3928,-17176,-6870,-4704,2025-02-03 17:24:36,0.0
-11356,-2220,-3664,-17643,-5879,-4345,2025-02-03 17:24:36,0.0
-11380,-3148,-3464,-18147,-2784,-4136,2025-02-03 17:24:36,0.0
-11772,-4240,-3276,-18493,-352,-4444,2025-02-03 17:24:36,0.0
-12752,-4924,-3216,-18590,577,-4711,2025-02-03 17:24:36,0.0
-13684,-5032,-3200,-18629,361,-4686,2025-02-03 17:24:36,0.0
-14292,-4408,-2920,-18489,-621,-4426,2025-02-03 17:24:36,0.0
-14180,-3832,-2696,-18209,-2238,-4149,2025-02-03 17:24:36,0.0
-13692,-3932,-3100,-18074,-3581,-4061,2025-02-03 17:24:36,0.0
-12768,-4832,-2776,-17960,-4448,-4247,2025-02-03 17:24:36,0.0
-12688,-5548,-2252,-17560,-4975,-4295,2025-02-03 17:24:36,0.0
-12892,-5848,-1596,-16922,-5099,-4004,2025-02-03 17:24:36,0.0
-12832,-5244,-1440,-16259,-4896,-3474,2025-02-03 17:24:36,0.0
-12964,-3996,-1540,-15725,-3855,-2819,2025-02-03 17:24:36,0.0
-12880,-2736,-1840,-15921,-2422,-2089,2025-02-03 17:24:36,0.0
-12764,-2220,-1728,-16619,-1387,-1566,2025-02-03 17:24:36,0.0
-13052,-2444,-1636,-17231,-1011,-993,2025-02-03 17:24:36,0.0
-13288,-2824,-1600,-17287,-829,-495,2025-02-03 17:24:36,0.0
-13508,-3300,-1568,-16937,-701,-155,2025-02-03 17:24:36,0.0
-13496,-3940,-1412,-16541,-756,82,2025-02-03 17:24:36,0.0
-13444,-4496,-1356,-16119,-1231,249,2025-02-03 17:24:36,0.0
-13532,-4352,-676,-15595,-2119,547,2025-02-03 17:24:36,0.0
-13652,-3980,-528,-15113,-2816,1011,2025-02-03 17:24:36,0.0
-13736,-3804,-1016,-14764,-3154,1413,2025-02-03 17:24:37,0.0
-13796,-4332,-2488,-14411,-2938,1736,2025-02-03 17:24:37,0.0
-14060,-4476,-3188,-14188,-2535,1764,2025-02-03 17:24:37,0.0
-13660,-4748,-3756,-13597,-2190,1683,2025-02-03 17:24:37,0.0
-12972,-5672,-4256,-12971,-2501,1360,2025-02-03 17:24:37,0.0
-12756,-5372,-4748,-12312,-2314,750,2025-02-03 17:24:37,0.0
-12736,-3776,-6092,-11759,-683,-202,2025-02-03 17:24:37,0.0
-13024,-608,-5520,-11638,1687,-1184,2025-02-03 17:24:37,0.0
-13268,2576,-4168,-11851,2435,-1555,2025-02-03 17:24:37,0.0
-14228,4868,-4196,-13159,864,-934,2025-02-03 17:24:37,0.0
-13612,6704,-5008,-15515,-1176,395,2025-02-03 17:24:37,0.0
-11420,6548,-6148,-17390,-1120,843,2025-02-03 17:24:37,0.0
-10428,3116,-5888,-19588,1898,-578,2025-02-03 17:24:37,0.0
-11832,464,-3876,-20632,5078,-1757,2025-02-03 17:24:37,0.0
-14320,-1260,-2096,-20269,7011,-2326,2025-02-03 17:24:37,0.0
-16040,-2168,-1884,-19452,6600,-2150,2025-02-03 17:24:37,0.0
-16780,-1684,-1688,-18907,2929,-1547,2025-02-03 17:24:37,0.0
-15092,-716,-2192,-19275,-1656,-1531,2025-02-03 17:24:37,0.0
-13864,288,-1140,-19714,-5030,-1967,2025-02-03 17:24:37,0.0
-12976,1000,-304,-19620,-5934,-2110,2025-02-03 17:24:37,0.0
-12040,1240,-788,-19218,-4567,-1864,2025-02-03 17:24:37,0.0
-13440,512,-1536,-17156,1612,-5800,2025-02-03 17:24:37,0.0
-13372,1044,-2212,-16717,1670,-5223,2025-02-03 17:24:37,0.0
-12812,1928,-3352,-16550,2243,-4416,2025-02-03 17:24:37,0.0
-11872,2768,-4292,-16615,3866,-4008,2025-02-03 17:24:37,0.0
-11504,2524,-3996,-16881,5476,-4182,2025-02-03 17:24:37,0.0
-11836,1640,-3188,-17062,6939,-4786,2025-02-03 17:24:37,0.0
-13052,656,-2224,-16739,7512,-5431,2025-02-03 17:24:37,0.0
-14240,8,-1776,-16137,7211,-5926,2025-02-03 17:24:37,0.0
-15080,-900,-1124,-15249,5889,-6276,2025-02-03 17:24:37,0.0
-15888,-1328,-1012,-14019,3524,-6311,2025-02-03 17:24:37,0.0
-15664,-1684,-844,-12693,12,-5942,2025-02-03 17:24:37,0.0
-14836,-1984,-928,-11367,-3847,-5425,2025-02-03 17:24:37,0.0
-13700,-2200,-1044,-10055,-6587,-4997,2025-02-03 17:24:37,0.0
-12784,-3396,-2548,-6664,1468,-5765,2025-02-03 17:24:37,0.0
-14820,-1680,-5332,-5791,6238,-4353,2025-02-03 17:24:37,0.0
-15804,-824,-5432,-4988,9332,-1897,2025-02-03 17:24:37,0.0
-13752,-1212,-2052,-4656,6927,-1620,2025-02-03 17:24:37,0.0
-13820,-2004,388,-4480,3358,-2948,2025-02-03 17:24:37,0.0
-15292,-2792,656,-4365,628,-3654,2025-02-03 17:24:37,0.0
-15464,-2868,-460,-3886,-1256,-3365,2025-02-03 17:24:37,0.0
-14924,-2544,-1272,-3360,-2651,-2780,2025-02-03 17:24:38,0.0
-12064,-1156,-2208,-2876,-1833,-1488,2025-02-03 17:24:38,0.0
-13860,-2212,-3400,1244,-3120,448,2025-02-03 17:24:38,0.0
-13184,-1584,-3696,1205,-2678,615,2025-02-03 17:24:38,0.0
-12528,-1008,-3544,1082,-1833,552,2025-02-03 17:24:38,0.0
-11944,-924,-3212,895,-950,345,2025-02-03 17:24:38,0.0
-11932,-1000,-3232,630,-314,216,2025-02-03 17:24:38,0.0
-12136,-1160,-3420,497,261,219,2025-02-03 17:24:38,0.0
-11988,-1216,-3956,276,798,247,2025-02-03 17:24:38,0.0
-12548,-1104,-4116,-64,1692,200,2025-02-03 17:24:38,0.0
-12972,-904,-4188,-361,2722,197,2025-02-03 17:24:38,0.0
-13188,-744,-4248,-802,2765,-142,2025-02-03 17:24:38,0.0
-13256,-772,-4368,-1253,1489,-586,2025-02-03 17:24:38,0.0
-13412,-480,-4072,-1462,9,-599,2025-02-03 17:24:38,0.0
-12776,-480,-3328,-1435,-475,-482,2025-02-03 17:24:38,0.0
-12532,-396,-2632,-1385,488,-487,2025-02-03 17:24:38,0.0
-12512,-876,-2204,-1457,2000,-633,2025-02-03 17:24:38,0.0
-12968,-1268,-1932,-1374,2649,-774,2025-02-03 17:24:38,0.0
-13568,-1508,-1832,-1122,2449,-808,2025-02-03 17:24:38,0.0
-13780,-1476,-1868,-869,1473,-765,2025-02-03 17:24:38,0.0
-13864,-1152,-1904,-702,788,-652,2025-02-03 17:24:38,0.0
-13592,-968,-1976,-516,486,-526,2025-02-03 17:24:38,0.0
-13560,-1044,-1840,-294,690,-387,2025-02-03 17:24:38,0.0
-13496,-1064,-2496,-83,1017,-331,2025-02-03 17:24:38,0.0
-13428,-972,-2556,6,1126,-381,2025-02-03 17:24:38,0.0
-13500,-988,-2544,89,1017,-304,2025-02-03 17:24:38,
-13616,-936,-2560,186,814,-182,2025-02-03 17:24:38,0.0
-13460,-596,-2564,-923,559,-275,2025-02-03 17:24:38,0.0
-13508,-564,-2528,-1131,160,-353,2025-02-03 17:24:38,0.0
-13768,-524,-2548,-1168,-318,-406,2025-02-03 17:24:38,0.0
-13848,-736,-2440,-1079,-737,-496,2025-02-03 17:24:38,0.0
-13888,-1192,-2428,-1131,-1292,-586,2025-02-03 17:24:38,0.0
-13732,-1472,-1456,-1041,-1859,-713,2025-02-03 17:24:38,0.0
-13576,-1308,-1220,-991,-2229,-851,2025-02-03 17:24:38,0.0
-13332,-1160,-1396,-916,-2184,-1065,2025-02-03 17:24:38,0.0
-13140,-848,-2200,-820,-1660,-1425,2025-02-03 17:24:38,0.0
-13008,-1476,-2672,-595,-129,-2508,2025-02-03 17:24:38,0.0
-13048,-1968,-2676,-273,362,-2691,2025-02-03 17:24:38,0.0
-13196,-2444,-2524,39,525,-2745,2025-02-03 17:24:38,0.0
-13364,-2640,-1992,257,257,-2595,2025-02-03 17:24:38,0.0
-13380,-2484,-1408,346,-576,-2119,2025-02-03 17:24:38,0.0
-13296,-2140,-736,339,-1234,-1601,2025-02-03 17:24:39,0.0
-14020,-2372,-1304,-1136,2526,-2864,2025-02-03 17:24:39,0.0
-14248,-3096,-824,-844,1852,-2864,2025-02-03 17:24:39,0.0
-14296,-3288,-608,-701,533,-2699,2025-02-03 17:24:39,0.0
-14012,-3144,-632,-547,-1004,-2712,2025-02-03 17:24:39,0.0
-13596,-2612,-680,-523,-2264,-2652,2025-02-03 17:24:39,0.0
-13288,-2072,-532,-669,-3027,-2534,2025-02-03 17:24:39,0.0
-13040,-1640,-592,-888,-3041,-2401,2025-02-03 17:24:39,0.0
-12916,-1368,-452,-1213,-2401,-2194,2025-02-03 17:24:39,0.0
-13064,-1292,-276,-1663,-1482,-1865,2025-02-03 17:24:39,0.0
-13456,-1452,1048,-2866,-1872,164,2025-02-03 17:24:39,0.0
-12756,-1428,184,-3243,-1388,1233,2025-02-03 17:24:39,0.0
-12424,-1576,196,-3695,-258,1353,2025-02-03 17:24:39,0.0
-12196,-1836,328,-4023,795,1331,2025-02-03 17:24:39,0.0
-12168,-2804,296,-4057,1976,1294,2025-02-03 17:24:39,0.0
-12044,-3456,16,-4088,2811,993,2025-02-03 17:24:39,0.0
-12136,-3560,176,-3924,3213,509,2025-02-03 17:24:39,0.0
-12696,-3272,-208,-3717,3540,134,2025-02-03 17:24:39,0.0
-13452,-2876,-1152,-3746,3647,-108,2025-02-03 17:24:39,0.0
-13904,-2440,-1308,-4596,557,-490,2025-02-03 17:24:39,0.0
-13472,-2900,-1308,-4966,-130,-815,2025-02-03 17:24:39,0.0
-13372,-3224,-1480,-5018,-159,-1139,2025-02-03 17:24:39,0.0
-13384,-3716,-1756,-4974,234,-1350,2025-02-03 17:24:39,0.0
-13636,-4344,-1112,-4656,799,-1434,2025-02-03 17:24:39,0.0
-15300,-5124,-220,-4112,1775,-1009,2025-02-03 17:24:39,0.0
-16860,-5584,572,-3780,3472,-273,2025-02-03 17:24:39,0.0
-17924,-5888,1084,-3366,4467,119,2025-02-03 17:24:39,0.0
-17964,-5728,1588,-2559,2665,-8,2025-02-03 17:24:39,0.0
-18340,-5984,1444,-1406,-1531,-8,2025-02-03 17:24:39,0.0
-18072,-6040,-172,267,-3903,12,2025-02-03 17:24:39,0.0
-16252,-7000,-1152,2695,-2920,-1817,2025-02-03 17:24:39,0.0
-16400,-7336,-436,4256,-2601,-3256,2025-02-03 17:24:39,0.0
-17636,-5600,-868,5045,-3820,-2156,2025-02-03 17:24:39,0.0
-17036,-3148,-2148,5149,-5158,337,2025-02-03 17:24:39,0.0
-14944,-1412,-4104,5023,-6166,2047,2025-02-03 17:24:39,0.0
-13108,-464,-5796,4210,-6629,2927,2025-02-03 17:24:39,0.0
-10696,-84,-7040,2741,-6629,3226,2025-02-03 17:24:39,0.0
-9440,176,-7092,2070,-6071,3097,2025-02-03 17:24:39,0.0
-9476,12,-6616,1907,-3395,2671,2025-02-03 17:24:39,0.0
-9752,-316,-5652,1656,531,1998,2025-02-03 17:24:39,0.0
-10728,-168,-3500,1327,4158,1027,2025-02-03 17:24:39,0.0
-12872,284,-2300,1403,5228,662,2025-02-03 17:24:39,0.0
-14764,648,-2176,1876,4174,1367,2025-02-03 17:24:39,0.0
-15404,580,-3120,1994,1889,2644,2025-02-03 17:24:39,0.0
-14720,120,-3460,1656,-1006,3700,2025-02-03 17:24:41,0.0
-14168,-356,-2684,1459,-2637,3988,2025-02-03 17:24:41,0.0
-13896,-1104,-1520,1741,-2872,4045,2025-02-03 17:24:41,0.0
-13168,-1644,-708,2884,-2676,4006,2025-02-03 17:24:41,0.0
-12848,-696,-1000,3068,-3517,4250,2025-02-03 17:24:41,0.0
-12780,560,-1248,3176,-3648,4838,2025-02-03 17:24:41,0.0
-12132,1592,-1156,3236,-3469,5287,2025-02-03 17:24:41,0.0
-11272,2264,-1276,3280,-3290,5158,2025-02-03 17:24:41,0.0
-10456,2160,-1160,3053,-2661,4519,2025-02-03 17:24:41,0.0
-9784,-1688,-3224,798,-5838,-1141,2025-02-03 17:24:41,0.0
-9260,-1840,-4408,-87,-286,-1270,2025-02-03 17:24:42,0.0
-11108,-2420,-3424,-954,3617,-1330,2025-02-03 17:24:42,0.0
-12460,-2960,-2660,-1229,5162,-903,2025-02-03 17:24:42,0.0
-13720,-3044,-1872,-1145,4820,-277,2025-02-03 17:24:42,0.0
-14304,-2672,-1632,-1036,3229,499,2025-02-03 17:24:42,0.0
-13640,-2144,-1800,-954,1574,923,2025-02-03 17:24:42,0.0
-13988,-2320,-1708,-1129,311,1056,2025-02-03 17:24:42,0.0
-13808,-2772,-1840,-1332,-300,1194,2025-02-03 17:24:42,0.0
-10344,-1000,-5064,2304,-4963,1455,2025-02-03 17:24:42,0.0
-9192,-1096,-5752,2299,-5444,2078,2025-02-03 17:24:42,0.0
-7620,-976,-5660,1981,-5882,2595,2025-02-03 17:24:42,0.0
-5784,-536,-4432,1569,-7038,2899,2025-02-03 17:24:42,0.0
-3708,-76,-3136,1019,-9321,2868,2025-02-03 17:24:42,0.0
-1228,216,-1232,386,-12511,2475,2025-02-03 17:24:42,0.0
760,224,1016,6,-14704,1706,2025-02-03 17:24:43,0.0
1808,-416,3048,-111,-14173,626,2025-02-03 17:24:43,0.0
976,-544,4612,206,-8485,-425,2025-02-03 17:24:43,0.0
-1264,-64,5844,1573,3632,-1343,2025-02-03 17:24:43,0.0
-4708,428,5232,2784,17162,-1008,2025-02-03 17:24:43,0.0
-7312,1256,4924,3005,27232,709,2025-02-03 17:24:43,0.0
-12896,1980,-4172,-2555,-6168,1123,2025-02-03 17:24:43,0.0
-12720,1928,-1908,-3878,-11336,2117,2025-02-03 17:24:43,0.0
-12268,1036,-848,-4366,-10374,3008,2025-02-03 17:24:43,0.0
-11152,96,-1080,-3696,-7818,3340,2025-02-03 17:24:43,0.0
-9720,-1020,-2908,-2740,-6405,3400,2025-02-03 17:24:43,0.0
-7316,-2732,-3324,-2303,-6888,2863,2025-02-03 17:24:43,0.0
-5600,-4512,-1748,-2365,-8255,1690,2025-02-03 17:24:43,0.0
-6088,-5232,-116,-2400,-7506,158,2025-02-03 17:24:43,0.0
-7744,532,4960,-265,5531,-2071,2025-02-03 17:24:43,0.0
-11668,2600,6508,-460,15294,-2419,2025-02-03 17:24:43,0.0
-14284,2648,1572,-89,21013,-2555,2025-02-03 17:24:43,
-18468,2164,-6056,206,19962,-2795,2025-02-03 17:24:43,0.0
-31908,1700,-13236,430,32767,-7020,2025-02-03 17:24:43,0.0
-32768,-5332,-18216,1411,32767,-6679,2025-02-03 17:24:43,0.0
-32768,-10996,-32768,-3452,32767,-9475,2025-02-03 17:24:43,0.0
-32768,-6312,-32768,-17392,32767,-9631,2025-02-03 17:24:43,0.0
16344,14476,-15228,4569,32767,1791,2025-02-03 17:24:43,0.0
20988,7992,-27584,13023,15594,1352,2025-02-03 17:24:43,0.0
-2196,-848,-32768,-1958,30960,-4419,2025-02-03 17:24:43,0.0
-4552,-3704,-21288,-6052,29715,-4396,2025-02-03 17:24:43,0.0
-4304,-312,-15740,-5235,5205,-1164,2025-02-03 17:24:43,0.0
-5992,1388,-12420,-4756,-2472,111,2025-02-03 17:24:43,0.0
-4224,1136,-9120,-3249,607,389,2025-02-03 17:24:43,0.0
-244,464,-10444,-2197,1067,-83,2025-02-03 17:24:43,0.0
884,180,-10528,-1359,-198,-785,2025-02-03 17:24:43,0.0
2072,-1264,-10060,585,-3659,-1340,2025-02-03 17:24:43,0.0
2928,-2456,-10732,1775,-8858,-2015,2025-02-03 17:24:43,0.0
2924,-2116,-10236,1336,-14027,-2202,2025-02-03 17:24:43,0.0
1752,-884,-9308,240,-17000,-1739,2025-02-03 17:24:43,0.0
692,388,-8192,-923,-15719,-605,2025-02-03 17:24:43,0.0
164,1364,-6452,-1191,-10987,674,2025-02-03 17:24:43,0.0
1068,2048,-5964,-358,-6074,1725,2025-02-03 17:24:43,0.0
3096,1636,-7608,570,-3778,1739,2025-02-03 17:24:43,0.0
3844,348,-9376,245,-5256,659,2025-02-03 17:24:43,0.0
3064,-672,-10156,-321,-7073,-113,2025-02-03 17:24:43,0.0
1892,-1044,-10684,-471,-7165,-381,2025-02-03 17:24:43,0.0
1424,-220,-12488,-470,-5413,-244,2025-02-03 17:24:43,0.0
2064,760,-15016,-1114,-3869,-69,2025-02-03 17:24:43,0.0
1784,1092,-17060,-2225,-2849,41,2025-02-03 17:24:43,0.0
940,1372,-18116,-2994,-1748,58,2025-02-03 17:24:43,0.0
-296,1428,-18128,-3077,789,71,2025-02-03 17:24:43,0.0
-1444,1004,-17968,-2459,4144,-72,2025-02-03 17:24:43,0.0
-3424,512,-17896,-1799,7609,82,2025-02-03 17:24:43,0.0
-5180,-52,-17668,-1612,9087,833,2025-02-03 17:24:43,0.0
-7552,-616,-16712,-1410,8763,2449,2025-02-03 17:24:47,0.0
-6692,-1184,-15852,-947,5547,3772,2025-02-03 17:24:47,0.0
-5008,-984,-15376,-203,304,2278,2025-02-03 17:24:47,0.0
-5300,280,-14784,501,-2932,503,2025-02-03 17:24:47,0.0
-3924,688,-14548,952,-4687,-323,2025-02-03 17:24:47,0.0
-2844,1304,-13988,1064,-4720,-713,2025-02-03 17:24:47,0.0
-3788,488,-14188,605,-3698,-1003,2025-02-03 17:24:47,0.0
-4264,-40,-15884,647,-4811,-1138,2025-02-03 17:24:47,0.0
-5116,-672,-15648,618,-6071,-1043,2025-02-03 17:24:48,0.0
-13336,1488,-4076,-17310,1073,-4733,2025-02-03 17:24:48,0.0
-13132,1372,-3516,-17624,1129,-4709,2025-02-03 17:24:48,0.0
-13260,1264,-3160,-17611,1150,-4681,2025-02-03 17:24:48,0.0
-13228,1104,-3204,-17439,974,-4445,2025-02-03 17:24:48,0.0
-13304,732,-2920,-17023,809,-4245,2025-02-03 17:24:48,0.0
-13032,92,-2836,-16488,352,-4262,2025-02-03 17:24:48,0.0
-12624,-744,-2064,-15733,-247,-4565,2025-02-03 17:24:48,0.0
-12260,-1276,-988,-14713,-1093,-4922,2025-02-03 17:24:48,0.0
-17168,-484,-3232,-6678,7280,-1585,2025-02-03 17:24:48,0.0
-16352,-944,-512,-5441,5210,-490,2025-02-03 17:24:48,0.0
-13916,-3728,2308,-3163,-2040,-1082,2025-02-03 17:24:48,0.0
-12800,-5072,2192,-1145,-6657,-2194,2025-02-03 17:24:48,0.0
-13268,-4768,608,708,-6822,-2495,2025-02-03 17:24:48,0.0
-13888,-3088,-600,2698,-3575,-1313,2025-02-03 17:24:48,0.0
-12600,-752,-2228,4483,1780,493,2025-02-03 17:24:48,0.0
-11772,148,-2276,4306,4558,565,2025-02-03 17:24:48,0.0
-12440,1148,-1816,3499,4827,43,2025-02-03 17:24:48,0.0
-13844,3144,-2228,2398,807,124,2025-02-03 17:24:48,0.0
-13568,4204,-2996,1212,-822,235,2025-02-03 17:24:48,0.0
-12708,3780,-4416,-3260,1564,-1946,2025-02-03 17:24:48,0.0
-13236,2564,-4520,-4581,3167,-3062,2025-02-03 17:24:48,0.0
-14096,440,-3944,-5357,2408,-3620,2025-02-03 17:24:48,0.0
-13924,-1324,-3936,-5697,210,-3548,2025-02-03 17:24:48,0.0
-13384,-2496,-3452,-5869,-1653,-3346,2025-02-03 17:24:48,0.0
-12896,-3272,-3144,-5649,-2267,-3372,2025-02-03 17:24:48,0.0
-12452,-3804,-2756,-5464,-2334,-3650,2025-02-03 17:24:48,0.0
-12584,-1488,-2804,-7339,1895,-3498,2025-02-03 17:24:48,0.0
-12108,-2148,-3848,-7377,1948,-3428,2025-02-03 17:24:48,0.0
-12920,-2896,-2652,-7365,2263,-3796,2025-02-03 17:24:48,0.0
-12860,-3372,-2476,-7282,2472,-4589,2025-02-03 17:24:48,0.0
-13536,-3344,-2392,-7260,2213,-5202,2025-02-03 17:24:48,0.0
-14604,-2528,-2144,-7210,905,-5304,2025-02-03 17:24:48,0.0
-14760,-1556,-2136,-7239,-886,-5013,2025-02-03 17:24:48,0.0
-14424,-1108,-1984,-7463,-2383,-4781,2025-02-03 17:24:49,0.0
-13256,-1812,-644,-8412,-4216,-5075,2025-02-03 17:24:49,0.0
-12760,-2788,-596,-8189,-4355,-5136,2025-02-03 17:24:49,0.0
-12568,-3872,-412,-7861,-4252,-4792,2025-02-03 17:24:49,0.0
-12548,-4224,272,-7645,-3911,-3916,2025-02-03 17:24:49,0.0
-12092,-3552,1512,-7011,-3162,-2859,2025-02-03 17:24:49,0.0
-11964,-3400,1556,-6142,-1979,-2037,2025-02-03 17:24:49,0.0
-11952,-3192,1148,-5274,-816,-1185,2025-02-03 17:24:49,0.0
-12284,-3284,972,-4746,153,-747,2025-02-03 17:24:49,0.0
-12836,-2772,-1500,-5312,-849,-560,2025-02-03 17:24:49,0.0
-13256,-3492,-1532,-5262,1116,-1191,2025-02-03 17:24:49,0.0
-13892,-4232,-1068,-5050,3233,-1677,2025-02-03 17:24:49,0.0
-15412,-5008,536,-4716,4631,-1819,2025-02-03 17:24:49,0.0
-16420,-5432,956,-4167,4877,-2165,2025-02-03 17:24:49,0.0
-17472,-5704,-476,-3214,5077,-2772,2025-02-03 17:24:49,0.0
-17760,-6448,-2172,-1579,5036,-3890,2025-02-03 17:24:49,0.0
-18204,-7984,-2800,333,3539,-4877,2025-02-03 17:24:49,0.0
-20820,-8572,-1348,1886,-196,-4303,2025-02-03 17:24:49,0.0
-23644,-7932,-1172,2586,-4168,-870,2025-02-03 17:24:49,0.0
-16852,-3808,-2924,3548,-10929,4027,2025-02-03 17:24:49,0.0
-13604,-2352,-6300,3841,-14041,4966,2025-02-03 17:24:49,0.0
-10804,-1376,-8360,3334,-14252,5197,2025-02-03 17:24:49,0.0
-9048,-512,-8852,2448,-11667,4642,2025-02-03 17:24:49,0.0
-8428,612,-7692,983,-6822,3490,2025-02-03 17:24:49,0.0
-8284,1592,-5820,-480,-554,2192,2025-02-03 17:24:49,
-9684,2284,-4656,-1513,5053,1180,2025-02-03 17:24:49,0.0
-11620,2136,-4132,-2142,8178,863,2025-02-03 17:24:49,0.0
-13336,1380,-3760,-2452,8758,1142,2025-02-03 17:24:49,0.0
-11592,156,-244,943,-1833,1698,2025-02-03 17:24:49,0.0
-11216,-216,108,1245,-2150,1226,2025-02-03 17:24:49,0.0
-11260,-372,220,1530,-2354,570,2025-02-03 17:24:49,0.0
-11100,-160,100,1763,-2526,-181,2025-02-03 17:24:49,0.0
-11528,232,192,2071,-2126,-755,2025-02-03 17:24:49,0.0
-12096,660,304,2385,-1595,-1082,2025-02-03 17:24:49,0.0
-12364,504,288,2486,-1511,-1373,2025-02-03 17:24:49,0.0
-12952,812,36,2444,-1694,-1468,2025-02-03 17:24:49,0.0
-13472,1284,-768,2286,1103,-279,2025-02-03 17:24:49,0.0
-13524,708,-424,2592,2278,104,2025-02-03 17:24:49,0.0
-13660,144,172,2933,3034,320,2025-02-03 17:24:49,0.0
-14440,-172,504,3639,3773,370,2025-02-03 17:24:49,0.0
-15796,-152,596,4571,4648,552,2025-02-03 17:24:49,0.0
-16596,496,-252,5236,4872,977,2025-02-03 17:24:49,0.0
-16328,960,-892,4928,3678,1091,2025-02-03 17:24:49,0.0
-16524,1372,-12,4404,2142,1016,2025-02-03 17:24:50,0.0
-16048,1744,1148,4409,1055,1185,2025-02-03 17:24:50,0.0
-14500,2440,356,4213,588,966,2025-02-03 17:24:50,0.0
-14148,3164,-1980,3226,1677,503,2025-02-03 17:24:50,0.0
-15664,3680,-4420,1964,4458,684,2025-02-03 17:24:50,0.0
-18400,3176,-6272,194,7318,2189,2025-02-03 17:24:50,0.0
-19508,3004,-6852,-2594,7979,4301,2025-02-03 17:24:50,0.0
-18248,3344,-3764,-4576,4615,5295,2025-02-03 17:24:50,0.0
-14436,2616,-1312,-4433,-1778,3288,2025-02-03 17:24:50,0.0
-14688,-1176,-3556,577,-354,-5992,2025-02-03 17:24:50,0.0
-14900,-1572,-4224,101,-4498,-6709,2025-02-03 17:24:50,0.0
-14104,-1540,-4064,-69,-7159,-5906,2025-02-03 17:24:50,0.0
-12648,-1224,-3076,19,-7541,-4517,2025-02-03 17:24:50,0.0
-11588,-1396,-2164,-35,-6074,-3319,2025-02-03 17:24:50,0.0
-9300,-1800,-2368,-376,-3963,-2923,2025-02-03 17:24:50,0.0
-9344,-2176,-1228,-571,-1302,-3206,2025-02-03 17:24:50,0.0
-9668,-1984,-2024,-738,858,-3493,2025-02-03 17:24:50,0.0
-10936,-1752,-1676,-730,3040,-3237,2025-02-03 17:24:50,0.0
-12652,-1668,-812,-478,4345,-2700,2025-02-03 17:24:50,0.0
-13856,-1724,-720,-551,3894,-2292,2025-02-03 17:24:50,0.0
-14304,-2184,-1048,-784,1819,-1902,2025-02-03 17:24:50,0.0
-14496,-2600,-1464,-907,-692,-1273,2025-02-03 17:24:50,0.0
-14528,-2800,-1172,-728,-3247,-283,2025-02-03 17:24:50,0.0
-13724,-2600,8,-474,-4823,617,2025-02-03 17:24:50,0.0
-13024,-1960,-488,-652,-5420,1182,2025-02-03 17:24:50,0.0
-11656,-1460,-896,-966,-5585,1475,2025-02-03 17:24:50,0.0
-12052,-1216,-744,-1370,-4996,1665,2025-02-03 17:24:50,0.0
-12072,-1112,-1080,-1944,-4067,1791,2025-02-03 17:24:50,0.0
-12064,-1000,-1612,-2503,-3239,1812,2025-02-03 17:24:50,0.0
-12424,-708,-1516,-3196,-2989,1849,2025-02-03 17:24:50,0.0
-12184,-688,-2032,-3764,-3001,1642,2025-02-03 17:24:50,0.0
-11780,-1460,-2440,-4126,-2589,1112,2025-02-03 17:24:50,0.0
-11284,-2236,-2348,-4382,-1355,385,2025-02-03 17:24:50,0.0
-11824,-2548,-1388,-4373,751,-502,2025-02-03 17:24:50,0.0
-12876,-2724,-1364,-4476,3231,-1337,2025-02-03 17:24:50,0.0
-14212,-2552,-1192,-4886,5676,-1963,2025-02-03 17:24:50,0.0
-15980,-2552,-548,-5310,7144,-2439,2025-02-03 17:24:50,0.0
-17216,-2736,368,-5704,7020,-2777,2025-02-03 17:24:50,0.0
-17808,-3400,536,-5972,4551,-3275,2025-02-03 17:24:50,0.0
-18284,-5052,908,-6036,1271,-3608,2025-02-03 17:24:50,0.0
-18328,-6504,1020,-5574,-1644,-3031,2025-02-03 17:24:50,0.0
-18236,-6832,168,-4307,-2484,-1943,2025-02-03 17:24:50,0.0
-16752,-5888,-596,-1744,-909,-1659,2025-02-03 17:24:50,0.0
-16508,-6048,-956,35,559,-2091,2025-02-03 17:24:50,0.0
-17360,-4756,-440,1044,353,-1819,2025-02-03 17:24:50,0.0
-17952,-2900,-1184,1356,-1492,-530,2025-02-03 17:24:50,0.0
-17036,-512,-2868,1325,-4494,1626,2025-02-03 17:24:50,0.0
-14564,784,-5712,1107,-6179,2969,2025-02-03 17:24:50,0.0
-11448,908,-8688,333,-6218,2729,2025-02-03 17:24:50,0.0
-8864,876,-8708,-1094,-5120,1095,2025-02-03 17:24:50,0.0
-8528,1264,-6396,-2224,-3086,-39,2025-02-03 17:24:50,0.0
-10136,1256,-2496,-2799,3827,-78,2025-02-03 17:24:50,0.0
-12520,-460,-1840,-1870,9502,485,2025-02-03 17:24:51,0.0
-14700,-1732,-2392,-717,12432,1448,2025-02-03 17:24:51,0.0
-15772,-1980,-2904,130,10864,2451,2025-02-03 17:24:51,0.0
-16192,-1356,-3048,638,5834,3461,2025-02-03 17:24:51,0.0
-15540,-472,-3468,723,-282,4307,2025-02-03 17:24:51,0.0
-13576,20,-4088,605,-4985,4317,2025-02-03 17:24:51,0.0
-12016,448,-4312,508,-6644,3789,2025-02-03 17:24:51,0.0
-10996,716,-3952,417,-6010,3595,2025-02-03 17:24:51,0.0
-10032,868,-3460,446,-4342,3538,2025-02-03 17:24:51,0.0
-9492,868,-3104,565,-2490,3393,2025-02-03 17:24:51,0.0
-9528,968,-2724,653,-212,3248,2025-02-03 17:24:51,0.0
-10084,932,-2576,623,2449,2788,2025-02-03 17:24:51,0.0
-11220,1156,-3532,93,4417,2333,2025-02-03 17:24:51,0.0
-12544,1920,-4040,-852,4923,2246,2025-02-03 17:24:51,0.0
-13004,2644,-3508,-1518,3449,2380,2025-02-03 17:24:51,0.0
-12652,2708,-2440,-1887,1010,2089,2025-02-03 17:24:51,0.0
-12576,2220,-2836,-2369,-1838,1336,2025-02-03 17:24:51,0.0
-12588,1400,-2936,-3118,-3338,661,2025-02-03 17:24:51,0.0
-12584,532,-1628,-3393,-3633,-87,2025-02-03 17:24:51,0.0
-12260,-288,-1144,-3094,-3202,-875,2025-02-03 17:24:51,0.0
-10036,-1020,-4440,-8423,8220,-2874,2025-02-03 17:24:51,0.0
-13516,396,-2740,-8838,15064,-3274,2025-02-03 17:24:51,0.0
-13044,744,-4652,-9658,17260,-3995,2025-02-03 17:24:51,0.0
-14984,552,-4848,-10811,14531,-4954,2025-02-03 17:24:51,0.0
-15920,192,-6904,-12307,7827,-6115,2025-02-03 17:24:51,0.0
-15248,-356,-8356,-13653,-233,-7138,2025-02-03 17:24:51,0.0
-14544,-1052,-7844,-14771,-8520,-7644,2025-02-03 17:24:51,0.0
-13268,-1800,-6048,-16337,-13813,-6990,2025-02-03 17:24:51,0.0
-11944,-2028,-4644,-17551,-13676,-6269,2025-02-03 17:24:51,0.0
-10900,-2040,-4028,-18301,-10290,-5754,2025-02-03 17:24:51,
-9708,-1908,-4888,-19047,-4910,-5614,2025-02-03 17:24:51,0.0
-9476,-2024,-6372,-19997,-1178,-5716,2025-02-03 17:24:51,0.0
-10464,-2120,-6024,-20752,508,-5547,2025-02-03 17:24:51,0.0
-11484,-2412,-5284,-20989,1569,-5295,2025-02-03 17:24:51,0.0
-12384,-2664,-4768,-21236,2112,-5191,2025-02-03 17:24:51,0.0
-12976,-3280,-5108,-21637,2103,-5456,2025-02-03 17:24:51,0.0
-13712,-3972,-5464,-22004,1369,-6111,2025-02-03 17:24:51,0.0
-14212,-4508,-5776,-22032,-317,-6428,2025-02-03 17:24:52,0.0
-14052,-5068,-5320,-21759,-2358,-6211,2025-02-03 17:24:52,0.0
-13336,-5012,-4104,-21428,-3898,-6012,2025-02-03 17:24:52,0.0
-12732,-4372,-2704,-20926,-4692,-5947,2025-02-03 17:24:52,0.0
-12232,-3856,-2200,-20680,-4653,-5929,2025-02-03 17:24:52,0.0
-12108,-3760,-2220,-20527,-4212,-5887,2025-02-03 17:24:52,0.0
-12128,-4084,-2676,-20254,-3499,-5618,2025-02-03 17:24:52,0.0
-12140,-4484,-3344,-19912,-2705,-5294,2025-02-03 17:24:52,0.0
-12376,-4888,-3548,-19664,-1653,-5041,2025-02-03 17:24:52,0.0
-12636,-1932,-3192,-20161,-5912,-3267,2025-02-03 17:24:52,0.0
-11908,-1836,-2824,-20409,-6313,-2344,2025-02-03 17:24:52,0.0
-11832,-2072,-2384,-20424,-5706,-1471,2025-02-03 17:24:52,0.0
-12136,-3300,-2560,-20204,-4115,-561,2025-02-03 17:24:52,0.0
-12580,-4424,-2936,-19533,-2745,242,2025-02-03 17:24:52,0.0
-12900,-5172,-3540,-18477,-1714,607,2025-02-03 17:24:52,0.0
-13408,-5204,-3296,-17160,-626,464,2025-02-03 17:24:52,0.0
-13616,-4652,-3184,-16048,-514,193,2025-02-03 17:24:52,0.0
-13956,-3956,-3316,-15206,-1388,-30,2025-02-03 17:24:52,0.0
-13796,-3204,-3552,-14385,-2534,-300,2025-02-03 17:24:52,0.0
-13624,-2564,-4740,-13546,-2698,-601,2025-02-03 17:24:52,0.0
-13716,-1496,-6364,-12875,-1249,-1167,2025-02-03 17:24:52,0.0
-13844,316,-6620,-12863,-317,-964,2025-02-03 17:24:52,0.0
-13328,2256,-6032,-13167,-240,-48,2025-02-03 17:24:52,0.0
-12732,3628,-5264,-13852,-263,874,2025-02-03 17:24:52,0.0
-11936,4192,-4492,-14775,608,883,2025-02-03 17:24:52,0.0
-13192,1896,-3932,-17505,4715,-1201,2025-02-03 17:24:52,0.0
-14152,1148,-2404,-18264,4994,-1419,2025-02-03 17:24:52,0.0
-14392,632,-1592,-18593,3145,-1711,2025-02-03 17:24:52,0.0
-14168,-68,-2180,-18883,-454,-2354,2025-02-03 17:24:52,0.0
-13724,-568,-1980,-18935,-2764,-2934,2025-02-03 17:24:52,0.0
-12536,-844,-2544,-18994,-3931,-3401,2025-02-03 17:24:52,0.0
-11096,-732,-2248,-19072,-3951,-3996,2025-02-03 17:24:52,0.0
-11116,-708,-980,-18734,-2621,-4339,2025-02-03 17:24:52,0.0
-11200,-1216,64,-17748,762,-4116,2025-02-03 17:24:52,0.0
-12304,-1256,1224,-16786,3502,-4100,2025-02-03 17:24:52,0.0
-13024,-636,656,-15565,5088,-4627,2025-02-03 17:24:52,0.0
-13744,608,-1080,-14513,5304,-4932,2025-02-03 17:24:52,0.0
-14416,2304,-2796,-13381,4393,-4461,2025-02-03 17:24:52,0.0
-14752,3844,-3408,-12715,3601,-3568,2025-02-03 17:24:52,0.0
-14332,4108,-3820,-12655,3016,-2938,2025-02-03 17:24:52,0.0
-13576,2968,-3508,-13148,1859,-3016,2025-02-03 17:24:52,0.0
-13408,1504,-2580,-13238,531,-3541,2025-02-03 17:24:52,0.0
-13424,160,-2244,-12711,-363,-3800,2025-02-03 17:24:52,0.0
-13468,-1624,-1640,-11560,-972,-3770,2025-02-03 17:24:52,0.0
-12884,-3220,-1808,-9854,-1620,-3686,2025-02-03 17:24:52,0.0
-13164,-3528,-1360,-8168,-1729,-3232,2025-02-03 17:24:52,0.0
-12812,-2680,-920,-6365,-941,-2618,2025-02-03 17:24:52,0.0
-12708,-1036,-1640,-5021,81,-2493,2025-02-03 17:24:52,0.0
-12536,-172,-2232,-4742,702,-2527,2025-02-03 17:24:52,0.0
-14052,396,-980,-4287,469,-2535,2025-02-03 17:24:52,0.0
-14280,608,-1024,-3917,-287,-2285,2025-02-03 17:24:52,0.0
-14100,944,-1640,-3850,-1305,-2178,2025-02-03 17:24:52,0.0
-13576,1088,-1708,-4030,-1968,-2123,2025-02-03 17:24:52,0.0
-12872,680,-1640,-4063,-2196,-2300,2025-02-03 17:24:53,0.0
-12564,348,-1628,-3873,-1935,-2481,2025-02-03 17:24:53,0.0
-12168,-140,-1936,-3616,-502,-2266,2025-02-03 17:24:53,0.0
-13400,-156,-1276,-3403,880,-2047,2025-02-03 17:24:53,0.0
-13876,-1084,-1976,-3147,1901,-1634,2025-02-03 17:24:53,0.0
-13920,-1676,-2000,-2503,2051,-1194,2025-02-03 17:24:53,0.0
-13616,-1788,-2692,-1796,1480,-945,2025-02-03 17:24:53,0.0
-13672,-1912,-3012,-1352,1144,-940,2025-02-03 17:24:53,0.0
-13188,-2152,-2980,-1003,1243,-1169,2025-02-03 17:24:53,0.0
-12888,-2124,-2660,-514,1637,-1463,2025-02-03 17:24:53,0.0
-14004,-1252,-2156,-34,1941,-1345,2025-02-03 17:24:53,0.0
-13768,-280,-2840,363,1942,-667,2025-02-03 17:24:53,0.0
-13288,196,-3244,350,1759,-365,2025-02-03 17:24:53,0.0
-13220,-104,-3260,-126,898,-622,2025-02-03 17:24:53,0.0
-13628,-176,-2552,-281,583,-530,2025-02-03 17:24:53,0.0
-13384,-364,-2044,-276,431,-455,2025-02-03 17:24:53,0.0
-13076,-776,-1936,-58,-63,-516,2025-02-03 17:24:53,0.0
-13604,-976,-1728,77,-52,-532,2025-02-03 17:24:53,0.0
-13236,-972,-2844,179,445,-515,2025-02-03 17:24:53,0.0
-13444,-784,-2976,215,1268,-322,2025-02-03 17:24:53,0.0
-13584,-600,-2992,145,1535,-47,2025-02-03 17:24:53,0.0
-13500,-524,-2696,-122,1284,78,2025-02-03 17:24:53,0.0
-13608,-608,-2020,-320,744,27,2025-02-03 17:24:53,0.0
-13468,-824,-1812,-212,124,-225,2025-02-03 17:24:53,0.0
-13576,-1064,-2344,-53,-584,-454,2025-02-03 17:24:53,0.0
-12676,-1260,-3444,180,-1311,-575,2025-02-03 17:24:53,0.0
-13088,-992,-2788,353,-1169,-576,2025-02-03 17:24:53,0.0
-12968,-276,-2588,377,-499,-405,2025-02-03 17:24:53,0.0
-12804,72,-3132,348,226,-202,2025-02-03 17:24:53,0.0
-12816,156,-3092,70,813,-149,2025-02-03 17:24:53,0.0
-13164,-108,-3172,-162,1035,-134,2025-02-03 17:24:53,0.0
-13052,-252,-3564,-202,981,-40,2025-02-03 17:24:53,0.0
-13436,-300,-2856,-86,717,173,2025-02-03 17:24:53,0.0
-13652,-500,-2600,94,646,341,2025-02-03 17:24:53,0.0
-13252,-812,-3104,246,774,420,2025-02-03 17:24:53,0.0
-13584,-724,-3220,291,903,520,2025-02-03 17:24:53,0.0
-13104,-212,-3536,433,1118,606,2025-02-03 17:24:53,0.0
-13028,224,-3156,447,1119,616,2025-02-03 17:24:53,0.0
-13264,60,-2712,407,1027,573,2025-02-03 17:24:53,0.0
-13644,116,-2492,532,855,631,2025-02-03 17:24:53,
-13560,-236,-2036,797,249,687,2025-02-03 17:24:53,0.0
-12772,-988,-2284,1031,-1176,213,2025-02-03 17:24:53,0.0
-12780,-1088,-1628,1436,-2031,-459,2025-02-03 17:24:53,0.0
-13852,-852,-892,2276,-1681,-209,2025-02-03 17:24:53,0.0
-13732,-392,-980,2956,-282,268,2025-02-03 17:24:53,0.0
-13488,-8,-948,3253,689,245,2025-02-03 17:24:53,0.0
-13428,296,-1244,3086,249,3,2025-02-03 17:24:53,0.0
-13192,100,-1952,2813,-698,-172,2025-02-03 17:24:53,0.0
-12996,180,-2700,2619,-782,-174,2025-02-03 17:24:53,0.0
-12924,756,-3436,2408,169,-42,2025-02-03 17:24:53,0.0
-12396,952,-3580,2275,1601,-64,2025-02-03 17:24:53,0.0
-12184,1072,-3524,1879,2350,-296,2025-02-03 17:24:53,0.0
-13136,1020,-2684,1301,2535,-530,2025-02-03 17:24:53,0.0
-14204,784,-2032,732,2173,-747,2025-02-03 17:24:53,0.0
-14560,596,-2336,166,969,-913,2025-02-03 17:24:53,0.0
-14420,524,-2508,-364,-947,-1307,2025-02-03 17:24:53,0.0
-14292,324,-2772,-765,-3085,-1609,2025-02-03 17:24:53,0.0
-13972,56,-2624,-1117,-4530,-1747,2025-02-03 17:24:53,0.0
-12928,-756,-2416,-1330,-4788,-1835,2025-02-03 17:24:53,0.0
-12200,-1140,-2940,-1234,-3823,-2027,2025-02-03 17:24:53,0.0
-11852,-1080,-3256,-1063,-2468,-2003,2025-02-03 17:24:53,0.0
-11576,-1104,-3664,-852,-1284,-1836,2025-02-03 17:24:53,0.0
-11528,-1344,-3372,-705,-460,-1505,2025-02-03 17:24:53,0.0
-12052,-1716,-2896,-491,537,-1057,2025-02-03 17:24:54,0.0
-12696,-2088,-2732,-237,2680,-667,2025-02-03 17:24:54,0.0
-13392,-2048,-2272,-82,4643,-832,2025-02-03 17:24:54,0.0
-14132,-1948,-1648,45,4953,-1301,2025-02-03 17:24:54,0.0
-14780,-1820,-1216,-103,3110,-1580,2025-02-03 17:24:54,0.0
-15024,-1648,-1184,-330,-36,-1504,2025-02-03 17:24:54,0.0
-14448,-1192,-828,-634,-2020,-1570,2025-02-03 17:24:54,0.0
-13436,-772,-1044,-1027,-2137,-1924,2025-02-03 17:24:54,0.0
-12544,-164,-1784,-1272,-842,-2361,2025-02-03 17:24:54,0.0
-11936,-592,-2372,-1570,157,-2653,2025-02-03 17:24:54,0.0
-12320,-1196,-1984,-1914,1191,-2707,2025-02-03 17:24:54,0.0
-13236,-1912,-1280,-2331,2452,-2573,2025-02-03 17:24:54,0.0
-13936,-1916,-1036,-2544,3458,-2506,2025-02-03 17:24:54,0.0
-14396,-1768,-1088,-2789,3357,-2587,2025-02-03 17:24:54,0.0
-14392,-1764,-1008,-3253,1800,-2880,2025-02-03 17:24:54,0.0
-14232,-1912,-532,-3508,-531,-2986,2025-02-03 17:24:54,0.0
-13364,-2232,108,-3489,-3952,-1964,2025-02-03 17:24:54,0.0
-13236,-1976,316,-3645,-3473,-1555,2025-02-03 17:24:54,0.0
-13132,-1524,20,-4043,-2499,-1070,2025-02-03 17:24:54,0.0
-13240,-1204,-36,-4534,-2481,-544,2025-02-03 17:24:54,0.0
-13100,-1148,256,-4837,-2957,72,2025-02-03 17:24:54,0.0
-12700,-1712,336,-4776,-3095,615,2025-02-03 17:24:54,0.0
-12232,-2440,284,-4613,-2595,940,2025-02-03 17:24:54,0.0
-12156,-3004,348,-4277,-1354,892,2025-02-03 17:24:54,0.0
-12560,-3304,-52,-3880,365,568,2025-02-03 17:24:54,0.0
-13432,-3244,-392,-3606,1482,128,2025-02-03 17:24:54,0.0
-13872,-3224,-268,-3261,1636,-386,2025-02-03 17:24:54,0.0
-13848,-3528,-780,-2970,941,-877,2025-02-03 17:24:54,0.0
-13740,-4052,-296,-2508,-265,-1545,2025-02-03 17:24:54,0.0
-13604,-4096,-128,-2110,-1092,-2083,2025-02-03 17:24:54,0.0
-13392,-4104,-116,-1951,-1599,-2530,2025-02-03 17:24:54,0.0
-13316,-3560,44,-2006,-1746,-2819,2025-02-03 17:24:54,0.0
-13368,-2960,32,-2088,-1276,-2830,2025-02-03 17:24:54,0.0
-13240,-2448,-348,-2300,-225,-2602,2025-02-03 17:24:54,0.0
-12840,-2356,-244,-2735,1036,-2441,2025-02-03 17:24:54,0.0
-13272,-2480,824,-3232,2159,-2065,2025-02-03 17:24:54,0.0
-19508,-8032,-1780,3580,5988,-5953,2025-02-03 17:24:54,0.0
-23768,-5508,-472,3618,1969,-3699,2025-02-03 17:24:54,0.0
-22892,-1928,-652,3485,-3251,703,2025-02-03 17:24:54,0.0
-18980,260,-3400,3564,-9123,4055,2025-02-03 17:24:54,0.0
-14328,96,-6856,2437,-13109,6165,2025-02-03 17:24:54,0.0
-10464,-620,-7868,1128,-13665,6331,2025-02-03 17:24:54,0.0
-7860,-1904,-7460,375,-9908,4603,2025-02-03 17:24:54,0.0
-7168,-2608,-5864,451,-4370,2382,2025-02-03 17:24:54,0.0
-8020,-1964,-3348,851,1204,535,2025-02-03 17:24:54,0.0
-10012,-504,-1604,1272,4689,122,2025-02-03 17:24:54,0.0
-12112,716,-1868,1526,5995,894,2025-02-03 17:24:54,0.0
-13476,1324,-3024,1698,5813,2428,2025-02-03 17:24:54,0.0
-13632,1000,-4332,1424,4203,3571,2025-02-03 17:24:54,0.0
-13776,-136,-4416,942,3352,3597,2025-02-03 17:24:54,0.0
-14224,-1692,-3572,755,3586,3168,2025-02-03 17:24:54,0.0
-14888,-2724,-2808,995,3862,3052,2025-02-03 17:24:54,0.0
-11048,1408,-2712,3388,-2724,5194,2025-02-03 17:24:55,0.0
-10912,884,-1592,3311,-294,4941,2025-02-03 17:24:55,0.0
-10624,192,-856,3483,870,4657,2025-02-03 17:24:55,0.0
-11668,-80,-232,3731,1048,4455,2025-02-03 17:24:55,0.0
-11700,-260,268,3935,138,3950,2025-02-03 17:24:55,0.0
-12120,-176,952,3994,-1689,3097,2025-02-03 17:24:55,0.0
-11940,192,1060,4223,-3729,2120,2025-02-03 17:24:55,0.0
-11936,496,892,4460,-5394,954,2025-02-03 17:24:56,0.0
-12212,256,980,4627,-6486,64,2025-02-03 17:24:56,0.0
-11836,140,728,4867,-7329,-802,2025-02-03 17:24:56,0.0
-11492,216,-212,4769,-7688,-1442,2025-02-03 17:24:59,0.0
-16636,7184,-1936,1682,689,4120,2025-02-03 17:24:59,0.0
-18200,5508,-3316,404,5416,4994,2025-02-03 17:24:59,0.0
-20052,2820,-3012,-1853,8283,6009,2025-02-03 17:24:59,0.0
-18424,764,-1124,-3545,6368,5947,2025-02-03 17:24:59,0.0
-13616,-604,-1184,-3936,-941,2547,2025-02-03 17:24:59,0.0
-16200,-2332,-2024,-1996,-6694,-2739,2025-02-03 17:24:59,0.0
-15108,-3940,-700,-1258,-7065,-2849,2025-02-03 17:24:59,0.0
-13924,-3824,-1360,-539,-5864,-2827,2025-02-03 17:24:59,0.0
-6836,-256,-18032,-1798,4218,967,2025-02-03 17:24:59,0.0
-7528,-416,-16488,-2050,3169,204,2025-02-03 17:24:59,0.0
-8236,-296,-15384,-2254,677,-160,2025-02-03 17:24:59,0.0
-8168,240,-14960,-2273,-2349,-11,2025-02-03 17:24:59,0.0
-7472,464,-14840,-2341,-3766,146,2025-02-03 17:24:59,0.0
-7344,812,-14660,-2401,-3870,617,2025-02-03 17:24:59,
-6212,1016,-14168,-2572,-3102,1469,2025-02-03 17:24:59,0.0
-3668,716,-13440,-2510,-3146,1447,2025-02-03 17:24:59,0.0
-6208,1120,-11656,-320,-6070,-116,2025-02-03 17:25:00,0.0
-6252,1020,-11128,-227,-5596,-171,2025-02-03 17:25:00,0.0
-6328,888,-10980,-196,-5145,-188,2025-02-03 17:25:01,0.0
-6748,960,-10728,-178,-4354,-45,2025-02-03 17:25:03,0.0
-7084,904,-10652,-11,-3483,159,2025-02-03 17:25:03,0.0
-7260,924,-10616,140,-3291,331,2025-02-03 17:25:03,0.0
-7420,816,-10788,169,-3345,287,2025-02-03 17:25:03,0.0
-7704,1080,-10872,149,-3341,173,2025-02-03 17:25:03,0.0
-13556,-372,-4648,3833,-14898,-1756,2025-02-03 17:25:03,0.0
-13164,-72,-1508,4408,-16238,-3054,2025-02-03 17:25:03,0.0
-13508,-852,-1908,4027,-16082,-2849,2025-02-03 17:25:03,0.0
-8976,-752,-1748,-2083,-5004,-1082,2025-02-03 17:25:03,0.0
-12260,-1528,-1432,-15740,943,-1925,2025-02-03 17:25:03,0.0
-12200,-868,-904,-15751,338,-1909,2025-02-03 17:25:04,0.0
-14584,-100,0,-14945,3544,-1824,2025-02-03 17:25:04,0.0
-17264,412,-1032,-13898,8402,-1138,2025-02-03 17:25:04,0.0
-17840,912,-1820,-13737,9898,-379,2025-02-03 17:25:04,0.0
-17392,1264,-2276,-14197,8162,-2,2025-02-03 17:25:04,0.0
-16136,1096,-2208,-15107,3586,-417,2025-02-03 17:25:04,0.0
-12600,2464,-4532,-16954,844,-3955,2025-02-03 17:25:04,0.0
-12708,2116,-4396,-17517,1548,-4137,2025-02-03 17:25:04,0.0
-12652,-664,-1540,-14737,-2008,-3500,2025-02-03 17:25:04,0.0
-12520,-720,-1272,-13880,-1414,-3498,2025-02-03 17:25:04,0.0
-12244,-744,-1368,-13207,-508,-3481,2025-02-03 17:25:04,0.0
-12328,-448,-848,-12556,189,-3433,2025-02-03 17:25:04,0.0
-12844,148,-448,-11833,1078,-3380,2025-02-03 17:25:04,0.0
-13420,284,-400,-11050,1747,-3234,2025-02-03 17:25:04,0.0
-14020,-232,-768,-10432,1785,-2987,2025-02-03 17:25:04,0.0
-14268,-840,-764,-9712,1135,-2815,2025-02-03 17:25:04,0.0
-14212,-1760,-328,-8014,-498,-2852,2025-02-03 17:25:04,0.0
-14012,-2168,-112,-6709,-862,-2854,2025-02-03 17:25:04,0.0
-14076,-2116,108,-5474,-712,-2567,2025-02-03 17:25:04,0.0
-14412,-1972,380,-4469,2,-2110,2025-02-03 17:25:04,0.0
-14472,-1924,440,-3730,899,-1712,2025-02-03 17:25:04,0.0
-14512,-1052,8,-3268,884,-1478,2025-02-03 17:25:04,0.0
-14476,416,-312,-2878,-225,-1410,2025-02-03 17:25:04,0.0
-14460,1548,-1144,-2899,-1417,-1219,2025-02-03 17:25:04,0.0
-13932,2192,-1736,-3268,-2159,-1203,2025-02-03 17:25:04,0.0
-13356,1776,-1996,-3821,-2600,-1274,2025-02-03 17:25:04,0.0
-12444,460,-1172,-4100,-2655,-1292,2025-02-03 17:25:04,0.0
-12176,-1252,-684,-3655,-1795,-1283,2025-02-03 17:25:04,0.0
-12032,-2320,-244,-2726,-194,-1330,2025-02-03 17:25:04,0.0
-12424,-2464,-272,-1601,1546,-1295,2025-02-03 17:25:04,0.0
-13212,-1624,-500,-405,2765,-965,2025-02-03 17:25:04,0.0
-13992,-1000,-564,415,3385,-669,2025-02-03 17:25:04,0.0
-14732,-992,-1048,1002,3680,-591,2025-02-03 17:25:04,0.0
-13820,2392,-3112,273,-1238,-521,2025-02-03 17:25:04,0.0
-13460,3344,-3052,-1137,-236,3,2025-02-03 17:25:04,0.0
-12472,3564,-2688,-2648,551,-106,2025-02-03 17:25:04,0.0
-12480,2824,-2324,-4200,1127,-841,2025-02-03 17:25:04,0.0
-13288,1872,-1112,-5082,1974,-1286,2025-02-03 17:25:04,0.0
-13924,1088,-628,-5241,2430,-1254,2025-02-03 17:25:04,0.0
-14180,648,-728,-5196,2032,-1159,2025-02-03 17:25:04,0.0
-14224,188,-880,-5066,1137,-1140,2025-02-03 17:25:04,0.0
-14140,-256,-1028,-4962,89,-1147,2025-02-03 17:25:04,0.0
-13500,-484,-848,-4582,-973,-1167,2025-02-03 17:25:05,0.0
-13268,-172,-1928,-4054,1080,-2693,2025-02-03 17:25:05,0.0
-13200,-304,-2016,-3921,1348,-2821,2025-02-03 17:25:05,0.0
-13048,-620,-1640,-3957,1512,-2830,2025-02-03 17:25:05,0.0
-13040,-1012,-868,-3860,1692,-2834,2025-02-03 17:25:05,0.0
-13176,-1412,-640,-3730,1780,-2773,2025-02-03 17:25:05,0.0
-13592,-1800,-160,-3705,1679,-2730,2025-02-03 17:25:05,0.0
-12752,-2232,-912,-3661,1513,-2785,2025-02-03 17:25:05,0.0
-13100,-2956,-776,-3431,1345,-2806,2025-02-03 17:25:05,0.0
-13552,-3556,-656,-3146,1448,-2605,2025-02-03 17:25:05,0.0
-14004,-3336,508,-2709,2228,-2313,2025-02-03 17:25:05,0.0
-13704,-3012,276,-2135,2782,-2239,2025-02-03 17:25:05,0.0
-13776,-2868,-108,-1885,3016,-2487,2025-02-03 17:25:05,0.0
-14052,-3292,-36,-1726,2661,-2870,2025-02-03 17:25:05,0.0
-14024,-3560,-140,-1468,2185,-3012,2025-02-03 17:25:05,0.0
-14324,-3360,-132,-1207,1548,-2830,2025-02-03 17:25:05,0.0
-14080,-2768,-388,-1047,659,-2461,2025-02-03 17:25:05,0.0
-13732,-2076,-452,-1162,-341,-2295,2025-02-03 17:25:05,0.0
-13228,-1732,-544,-1473,-857,-2374,2025-02-03 17:25:05,0.0
-13068,-1392,-516,-1814,-1071,-2541,2025-02-03 17:25:05,0.0
-13060,-1108,-392,-2243,-1353,-2576,2025-02-03 17:25:05,0.0
-12920,-1076,4,-2717,-1541,-2485,2025-02-03 17:25:05,0.0
-12672,-1396,472,-3065,-1617,-2344,2025-02-03 17:25:05,0.0
-12764,-1868,640,-3298,-1739,-2071,2025-02-03 17:25:05,0.0
-12868,-2160,860,-3397,-2018,-1518,2025-02-03 17:25:05,0.0
-13164,-1816,992,-3327,-2031,-781,2025-02-03 17:25:05,0.0
-12704,-1408,696,-3263,-1737,-104,2025-02-03 17:25:05,0.0
-12308,-1892,516,-3225,-1601,456,2025-02-03 17:25:05,0.0
-11624,-2944,196,-2933,-943,801,2025-02-03 17:25:05,0.0
-11624,-4288,128,-2516,769,799,2025-02-03 17:25:05,0.0
-12120,-5008,-168,-2086,2966,600,2025-02-03 17:25:05,0.0
-12776,-4344,56,-1673,4492,311,2025-02-03 17:25:05,0.0
-13596,-3136,184,-1699,4724,-127,2025-02-03 17:25:05,0.0
-14296,-2028,-124,-2155,4014,-653,2025-02-03 17:25:05,0.0
-14352,-1588,-580,-2783,2792,-1439,2025-02-03 17:25:05,0.0
-14656,-1784,-1496,-3981,682,-2376,2025-02-03 17:25:05,0.0
-14644,-2372,-1612,-4424,314,-2200,2025-02-03 17:25:05,0.0
-14520,-2964,-768,-4439,847,-1974,2025-02-03 17:25:05,0.0
-14340,-3660,-84,-4460,2140,-1850,2025-02-03 17:25:05,0.0
-14496,-3988,-220,-4628,3885,-1709,2025-02-03 17:25:05,0.0
-15276,-4452,-68,-4762,5494,-1552,2025-02-03 17:25:05,0.0
-15600,-4552,-260,-4857,6157,-1674,2025-02-03 17:25:05,0.0
-16408,-4332,368,-5045,5224,-2001,2025-02-03 17:25:05,
-17280,-4408,1220,-4778,3053,-1929,2025-02-03 17:25:05,0.0
-17420,-5088,1080,-3957,1289,-1481,2025-02-03 17:25:05,0.0
-16880,-5740,-268,-2566,240,-1071,2025-02-03 17:25:05,0.0
-15768,-6664,-2028,-649,47,-1688,2025-02-03 17:25:05,0.0
-15836,-6960,-2816,912,104,-2837,2025-02-03 17:25:05,0.0
-17448,-6364,-2824,2015,-633,-2348,2025-02-03 17:25:05,0.0
-18188,-5256,-3108,2554,-1811,-105,2025-02-03 17:25:05,0.0
-15864,-2984,-3144,3023,-5161,2192,2025-02-03 17:25:05,0.0
-13776,-1116,-4184,2888,-8903,3403,2025-02-03 17:25:05,0.0
-11460,-268,-5608,2398,-11241,3771,2025-02-03 17:25:05,0.0
-9268,-352,-6692,1836,-12200,3536,2025-02-03 17:25:06,0.0
-8644,248,-6440,1358,-10456,3026,2025-02-03 17:25:06,0.0
-9400,1324,-5216,773,-5338,2583,2025-02-03 17:25:06,0.0
-14916,-172,-2952,-951,11969,909,2025-02-03 17:25:06,0.0
-17636,-508,-1584,-309,10066,1585,2025-02-03 17:25:06,0.0
-18340,-852,-2620,921,4313,3213,2025-02-03 17:25:06,0.0
-17284,-1516,-4256,1400,-2349,4787,2025-02-03 17:25:06,0.0
-14460,-2068,-3588,1444,-7559,5160,2025-02-03 17:25:06,0.0
-12856,-2456,-2116,1915,-9649,4628,2025-02-03 17:25:06,0.0
-12260,-2500,-1344,2772,-7830,4209,2025-02-03 17:25:06,0.0
-11736,-2012,-1400,3797,-4133,4291,2025-02-03 17:25:06,0.0
-11508,-1084,-2132,4389,-1576,4848,2025-02-03 17:25:06,0.0
-12028,44,-2120,4656,-394,5691,2025-02-03 17:25:06,0.0
-11668,1028,-1900,4795,-816,6292,2025-02-03 17:25:06,0.0
-11376,1496,-1608,4771,-2049,6401,2025-02-03 17:25:06,0.0
-10676,1688,-1364,4778,-2830,5838,2025-02-03 17:25:06,0.0
-9920,1196,-1244,4497,-4081,4630,2025-02-03 17:25:06,0.0
-9856,820,-1008,4187,-4795,3626,2025-02-03 17:25:06,0.0
-10112,672,452,4297,-4776,2799,2025-02-03 17:25:06,0.0
-9392,540,668,4549,-4301,1944,2025-02-03 17:25:06,0.0
-9272,404,1084,4672,-3729,714,2025-02-03 17:25:06,0.0
-9820,572,596,4374,-2667,-509,2025-02-03 17:25:06,0.0
-10256,544,-52,4039,-1910,-1657,2025-02-03 17:25:06,0.0
-10404,452,-800,3665,-1961,-2562,2025-02-03 17:25:06,0.0
-11860,772,284,4090,-1152,-2783,2025-02-03 17:25:06,0.0
-11988,728,1248,4762,-24,-2554,2025-02-03 17:25:06,0.0
-12652,116,1020,5093,322,-2540,2025-02-03 17:25:06,0.0
-14144,-856,308,4975,188,-2323,2025-02-03 17:25:06,0.0
-16080,-1184,716,5491,731,-1371,2025-02-03 17:25:06,0.0
-17692,-1328,996,6755,1951,364,2025-02-03 17:25:06,0.0
-18092,-1524,1316,7888,3102,2067,2025-02-03 17:25:06,0.0
-17764,-1016,1840,8507,3460,2872,2025-02-03 17:25:06,0.0
-16692,116,1020,8367,3383,2616,2025-02-03 17:25:06,0.0
-15680,1088,508,7590,2600,1573,2025-02-03 17:25:06,0.0
-15276,2000,1300,6989,1734,1046,2025-02-03 17:25:06,0.0
-15504,3284,1388,6444,1891,1252,2025-02-03 17:25:06,0.0
-15140,4572,576,5566,2561,1713,2025-02-03 17:25:06,0.0
-15228,4836,-532,4351,3453,1807,2025-02-03 17:25:06,0.0
-16380,4160,-2044,2994,4495,1989,2025-02-03 17:25:06,0.0
-17840,3292,-3624,1571,5411,2397,2025-02-03 17:25:06,0.0
-18600,2600,-4824,-123,5233,3150,2025-02-03 17:25:06,0.0
-18200,2088,-5096,-2007,2952,3821,2025-02-03 17:25:06,0.0
-15288,2188,-4448,-3596,-796,3198,2025-02-03 17:25:06,0.0
-11920,2464,-3068,-4096,-4607,775,2025-02-03 17:25:06,0.0
-9508,1540,-3676,-4180,-7872,-2244,2025-02-03 17:25:06,0.0
-8836,456,-4632,-4802,-10381,-3987,2025-02-03 17:25:06,0.0
-9140,-132,-5192,-4986,-10748,-3800,2025-02-03 17:25:06,0.0
-10580,-740,-6108,-4432,-6931,-2565,2025-02-03 17:25:06,0.0
-11896,-1072,-6396,-3480,1419,-1280,2025-02-03 17:25:06,0.0
-12696,-1308,-5116,-2748,10058,-845,2025-02-03 17:25:06,0.0
-13372,-1512,-3388,-2344,14965,-1019,2025-02-03 17:25:06,0.0
-13884,-1652,-2040,-2278,14310,-1666,2025-02-03 17:25:06,0.0
-14276,-1852,-1620,-2508,9193,-2891,2025-02-03 17:25:06,0.0
-14264,-2000,-1772,-2936,2876,-4647,2025-02-03 17:25:06,0.0
-14932,-1928,-2620,-3340,-5489,-7050,2025-02-03 17:25:06,0.0
-14132,-1328,-2908,-3413,-5928,-6266,2025-02-03 17:25:06,0.0
-12836,-772,-1836,-3174,-4654,-4858,2025-02-03 17:25:06,0.0
-11200,-1088,-1608,-3012,-3216,-3982,2025-02-03 17:25:06,0.0
-9876,-2084,-1356,-2868,-1773,-3903,2025-02-03 17:25:06,0.0
-9800,-2940,-1160,-2743,-310,-4322,2025-02-03 17:25:06,0.0
-10672,-3096,-804,-2626,887,-4408,2025-02-03 17:25:06,0.0
-11740,-2700,-392,-2384,2130,-4054,2025-02-03 17:25:07,0.0
-12728,-1960,0,-2298,2520,-3529,2025-02-03 17:25:07,0.0
-13204,-1340,-44,-2409,2204,-3002,2025-02-03 17:25:07,0.0
-13860,-948,-232,-2681,1156,-2401,2025-02-03 17:25:07,0.0
-14044,-916,-88,-3182,-239,-1621,2025-02-03 17:25:07,0.0
-13748,-700,296,-3632,-2111,-715,2025-02-03 17:25:07,0.0
-13888,-664,728,-3971,-3634,19,2025-02-03 17:25:07,0.0
-13040,-816,212,-4215,-4922,760,2025-02-03 17:25:07,0.0
-13224,-1040,596,-4387,-6011,1285,2025-02-03 17:25:07,0.0
-12896,-1540,-164,-5556,-7177,3120,2025-02-03 17:25:07,0.0
-11916,-1824,-692,-5582,-6482,3661,2025-02-03 17:25:07,0.0
-10540,-3016,-1716,-5439,-5321,3420,2025-02-03 17:25:07,0.0
-9680,-4560,-2248,-5063,-4152,2603,2025-02-03 17:25:07,0.0
-9288,-4772,-1708,-4346,-1967,1490,2025-02-03 17:25:07,0.0
-9984,-3144,-748,-3333,2559,369,2025-02-03 17:25:07,0.0
-12324,-1748,-320,-3000,8029,-529,2025-02-03 17:25:07,0.0
-14700,-928,-132,-3430,12620,-1220,2025-02-03 17:25:07,0.0
-17464,-728,520,-4016,13972,-1629,2025-02-03 17:25:07,0.0
-19492,-1012,200,-4790,11793,-1667,2025-02-03 17:25:07,0.0
-20572,-2012,440,-5291,5509,-1334,2025-02-03 17:25:07,0.0
-20596,-3572,1184,-5016,-774,-559,2025-02-03 17:25:07,0.0
-19296,-4276,2396,-4773,-6121,846,2025-02-03 17:25:07,0.0
-16812,-4188,3984,-4345,-8184,1399,2025-02-03 17:25:07,0.0
-13952,-4680,3488,-3777,-6345,738,2025-02-03 17:25:07,0.0
-12372,-4888,1040,-2717,-2304,-979,2025-02-03 17:25:07,0.0
-13012,-5016,-1544,-883,2606,-3010,2025-02-03 17:25:07,0.0
-15056,-4668,-2168,772,6510,-4201,2025-02-03 17:25:07,0.0
-14960,2928,-4908,-2524,17221,1072,2025-02-03 17:25:07,0.0
-17368,3344,-2960,-4109,11871,1878,2025-02-03 17:25:07,
-18112,2160,-2956,-4324,3818,3140,2025-02-03 17:25:07,0.0
-16392,-288,-3856,-4454,-4090,4138,2025-02-03 17:25:07,0.0
-14008,-1664,-2840,-4302,-9241,4164,2025-02-03 17:25:07,0.0
-11912,-2144,-1752,-3419,-10470,3380,2025-02-03 17:25:07,0.0
-10848,-2228,-1224,-2436,-8895,2553,2025-02-03 17:25:07,0.0
-10616,-1468,-780,-1362,-6061,2050,2025-02-03 17:25:08,0.0
-13564,-2596,-1648,744,-1544,-921,2025-02-03 17:25:08,0.0
-12652,-2604,-2380,1061,-1099,-1020,2025-02-03 17:25:08,0.0
-12372,-2308,-2196,1404,-187,-962,2025-02-03 17:25:08,0.0
-12280,-1892,-2292,1613,1084,-951,2025-02-03 17:25:08,0.0
-12864,-1624,-2420,1635,2154,-1150,2025-02-03 17:25:08,0.0
-13536,-1560,-2544,1496,2605,-1236,2025-02-03 17:25:08,0.0
-14264,-1136,-2348,1465,2322,-1055,2025-02-03 17:25:08,0.0
-14644,-644,-2016,1432,1565,-697,2025-02-03 17:25:08,0.0
-14556,-668,-1932,1251,405,-380,2025-02-03 17:25:08,0.0
-14000,-1324,-2076,1135,-892,-294,2025-02-03 17:25:08,0.0
-13504,-1956,-1728,1237,-1146,-332,2025-02-03 17:25:08,0.0
-13180,-2228,-1864,1449,-575,-362,2025-02-03 17:25:08,0.0
-12956,-2168,-2136,1604,195,-341,2025-02-03 17:25:08,0.0
-12844,-1648,-2432,1643,947,-229,2025-02-03 17:25:08,0.0
-13008,-1256,-2576,1689,1339,-212,2025-02-03 17:25:08,0.0
-13340,-984,-2544,1589,1408,-86,2025-02-03 17:25:08,0.0
-13576,-524,-2404,1460,1133,159,2025-02-03 17:25:08,0.0
-13352,-444,-1912,1313,767,342,2025-02-03 17:25:08,0.0
-13416,-568,-1884,1076,594,328,2025-02-03 17:25:08,0.0
-13340,-684,-2196,743,597,190,2025-02-03 17:25:08,0.0
-13504,-740,-2280,512,525,104,2025-02-03 17:25:08,0.0
-13556,-376,-2608,243,338,164,2025-02-03 17:25:08,0.0
-13280,-484,-2660,-213,222,96,2025-02-03 17:25:08,0.0
-13372,-244,-3176,-548,317,91,2025-02-03 17:25:08,0.0
-13140,-52,-3224,-876,507,241,2025-02-03 17:25:08,0.0
-12908,-68,-3092,-1202,868,228,2025-02-03 17:25:08,0.0
-12872,-168,-2824,-1493,1448,-4,2025-02-03 17:25:08,0.0
-13144,-212,-2596,-1755,1911,-382,2025-02-03 17:25:08,0.0
-13500,-76,-2532,-2044,1663,-754,2025-02-03 17:25:08,0.0
-13904,84,-2744,-2463,922,-1206,2025-02-03 17:25:08,0.0
-13976,-96,-2744,-3103,-6,-1600,2025-02-03 17:25:08,0.0
-14244,148,-2576,-3615,-597,-1962,2025-02-03 17:25:08,0.0
-14168,280,-2864,-4153,-743,-2154,2025-02-03 17:25:09,0.0
-13812,348,-2916,-4849,-918,-2320,2025-02-03 17:25:09,0.0
-13624,312,-2732,-5612,-1144,-2600,2025-02-03 17:25:09,0.0
-13504,212,-2980,-6389,-1311,-2872,2025-02-03 17:25:09,0.0
-13536,52,-2860,-7115,-1591,-3141,2025-02-03 17:25:09,0.0
-12236,-2568,-3068,-16559,-669,-3256,2025-02-03 17:25:09,0.0
-12556,-2876,-2764,-16893,133,-3533,2025-02-03 17:25:09,0.0
-12868,-3388,-2272,-17033,1,-3857,2025-02-03 17:25:09,0.0
-13264,-3956,-1984,-17094,-818,-4137,2025-02-03 17:25:09,0.0
-13396,-4528,-1956,-16951,-2094,-4261,2025-02-03 17:25:09,0.0
-13636,-4692,-1824,-16812,-3523,-4113,2025-02-03 17:25:09,0.0
-13912,-4544,-2032,-16726,-3713,-3783,2025-02-03 17:25:09,0.0
-13892,-3420,-2256,-16572,-3426,-3264,2025-02-03 17:25:09,0.0
-13884,-2396,-2348,-16596,-3476,-2709,2025-02-03 17:25:09,0.0
-13460,-1136,-2356,-16951,-3971,-2098,2025-02-03 17:25:09,0.0
-12636,-948,-2032,-17446,-4152,-1860,2025-02-03 17:25:09,0.0
-12136,-1820,-1748,-17968,-3986,-2002,2025-02-03 17:25:09,0.0
-12248,-3076,-1564,-18039,-3984,-2147,2025-02-03 17:25:09,0.0
-12760,-4124,-1848,-17644,-3249,-2096,2025-02-03 17:25:09,0.0
-13608,-4924,-1860,-17510,-1308,-1814,2025-02-03 17:25:09,0.0
-13528,-4204,-1488,-17554,109,-1642,2025-02-03 17:25:09,0.0
-13508,-3228,-1632,-17786,-18,-1622,2025-02-03 17:25:09,0.0
-13412,-2516,-1252,-17946,-1483,-1487,2025-02-03 17:25:09,0.0
-13088,-2496,-920,-18028,-2845,-1137,2025-02-03 17:25:09,0.0
-12624,-2696,-956,-18028,-3444,-905,2025-02-03 17:25:09,0.0
-12372,-2904,-656,-17647,-3380,-656,2025-02-03 17:25:09,0.0
-12320,-2872,-480,-17105,-2929,-175,2025-02-03 17:25:09,0.0
-12356,-2680,-896,-16824,-2622,360,2025-02-03 17:25:09,0.0
-12240,-2932,-1304,-16719,-2578,629,2025-02-03 17:25:09,0.0
-12496,-3432,-1956,-16641,-3167,599,2025-02-03 17:25:09,0.0
-12992,-4096,-2908,-16223,-3849,376,2025-02-03 17:25:09,0.0
-13236,-4720,-3404,-15450,-4156,0,2025-02-03 17:25:09,0.0
-13284,-5044,-2944,-14191,-4240,-521,2025-02-03 17:25:09,0.0
-13360,-4968,-2368,-13062,-3934,-621,2025-02-03 17:25:09,0.0
-13848,-4520,-1644,-11892,-2374,-333,2025-02-03 17:25:09,0.0
-14548,-3924,-2980,-10918,880,-220,2025-02-03 17:25:09,0.0
-15620,-2528,-4256,-10175,4124,-107,2025-02-03 17:25:09,0.0
-16712,188,-5392,-9632,6717,390,2025-02-03 17:25:09,0.0
-16704,3348,-5480,-9775,7534,971,2025-02-03 17:25:09,0.0
-16508,5440,-5488,-10886,5870,1225,2025-02-03 17:25:10,0.0
-15620,5204,-5792,-12995,1975,1428,2025-02-03 17:25:10,0.0
-14440,3016,-5644,-15245,-1618,1724,2025-02-03 17:25:10,0.0
-12796,1456,-3788,-16840,-3024,1467,2025-02-03 17:25:10,0.0
-11432,912,-2020,-17692,-2191,886,2025-02-03 17:25:10,0.0
-10856,1296,-284,-17527,685,339,2025-02-03 17:25:10,0.0
-10472,1284,-1016,-17026,3770,-318,2025-02-03 17:25:10,0.0
-13808,1344,-2440,-17515,5146,-1451,2025-02-03 17:25:10,0.0
-13440,2184,-2528,-18345,3406,-1625,2025-02-03 17:25:10,0.0
-12532,2240,-2440,-19558,1597,-2329,2025-02-03 17:25:10,0.0
-11796,1496,-2500,-20739,633,-3375,2025-02-03 17:25:10,0.0
-11928,468,-1560,-21189,702,-4114,2025-02-03 17:25:10,0.0
-12224,-904,-1028,-21044,1156,-4525,2025-02-03 17:25:10,0.0
-12520,-1924,-1232,-20831,1853,-4710,2025-02-03 17:25:10,0.0
-12728,-2028,-940,-20526,2582,-4834,2025-02-03 17:25:10,0.0
-13020,-1396,-208,-19750,2575,-5039,2025-02-03 17:25:10,0.0
-13444,-128,-700,-19070,1953,-5311,2025-02-03 17:25:10,0.0
-13888,820,-1416,-18882,1339,-5392,2025-02-03 17:25:10,0.0
-14044,1320,-1744,-18930,742,-5336,2025-02-03 17:25:10,0.0
-13956,1276,-2740,-19123,394,-5098,2025-02-03 17:25:10,0.0
-13948,976,-2740,-19319,737,-4781,2025-02-03 17:25:10,0.0
-13784,344,-2104,-19184,1581,-4593,2025-02-03 17:25:10,0.0
-13764,-496,-1288,-18735,2402,-4712,2025-02-03 17:25:10,
-13920,-1040,-1000,-18105,2376,-4824,2025-02-03 17:25:10,0.0
-14384,-1352,-1012,-17233,1575,-4531,2025-02-03 17:25:10,0.0
-14488,-1444,-1164,-16167,529,-3817,2025-02-03 17:25:10,0.0
-13812,-1388,-1132,-15066,-296,-3057,2025-02-03 17:25:10,0.0
-12652,-1244,-1088,-14126,-602,-2670,2025-02-03 17:25:10,0.0
-13236,572,-2040,-11656,3462,-3824,2025-02-03 17:25:10,0.0
-13804,1256,-2216,-11556,2964,-3645,2025-02-03 17:25:10,0.0
-14036,1424,-2328,-11641,1618,-3604,2025-02-03 17:25:10,0.0
-13732,648,-2328,-11854,108,-3802,2025-02-03 17:25:10,0.0
-13636,4,-2208,-11896,-805,-3918,2025-02-03 17:25:10,0.0
-13800,-952,-1056,-11240,-589,-3687,2025-02-03 17:25:10,0.0
-13772,-2464,204,-10170,169,-3499,2025-02-03 17:25:10,0.0
-14172,-3332,1264,-8958,480,-3406,2025-02-03 17:25:10,0.0
-14520,-2832,1940,-7596,-159,-3423,2025-02-03 17:25:10,0.0
-14712,-1356,1544,-6532,-1387,-3363,2025-02-03 17:25:10,0.0
-14156,-804,396,-5972,-3124,-3294,2025-02-03 17:25:10,0.0
-12992,-1176,-860,-5203,-4662,-3312,2025-02-03 17:25:10,0.0
-12208,-2528,-1456,-4258,-4330,-3397,2025-02-03 17:25:10,0.0
-12276,-4236,-1888,-3332,-1652,-3470,2025-02-03 17:25:10,0.0
-14248,-5400,-1520,-2084,3040,-2838,2025-02-03 17:25:10,0.0
-15416,-4792,-1656,-1185,6212,-1538,2025-02-03 17:25:10,0.0
-15540,-2844,-944,-267,6352,-401,2025-02-03 17:25:10,0.0
-14532,-760,-1328,217,3324,181,2025-02-03 17:25:10,0.0
-13680,176,-1996,-150,-634,-236,2025-02-03 17:25:10,0.0
-13240,228,-2064,-489,-3445,-890,2025-02-03 17:25:10,0.0
-13416,-584,-1796,-374,-3480,-854,2025-02-03 17:25:10,0.0
-12912,-1764,-1708,188,-1624,-566,2025-02-03 17:25:10,0.0
-12904,-2544,-1596,1101,1374,-484,2025-02-03 17:25:10,0.0
-13216,-1840,-1688,1088,397,-608,2025-02-03 17:25:10,0.0
-13360,-1440,-1916,957,-152,-510,2025-02-03 17:25:10,0.0
-13204,-1172,-2108,1098,157,-53,2025-02-03 17:25:10,0.0
-12668,-1316,-2400,1283,722,389,2025-02-03 17:25:10,0.0
-12400,-1380,-2368,1311,1397,475,2025-02-03 17:25:11,0.0
-11940,-1328,-2768,1324,1672,258,2025-02-03 17:25:11,0.0
-13164,-1036,-2720,1228,1986,22,2025-02-03 17:25:11,0.0
-14192,528,-4184,310,3292,479,2025-02-03 17:25:11,0.0
-14016,428,-3624,60,3128,771,2025-02-03 17:25:11,0.0
-13688,180,-2860,-202,2459,898,2025-02-03 17:25:12,0.0
-13248,-444,-2176,-454,1733,743,2025-02-03 17:25:12,0.0
-13304,-888,-1780,-473,1039,472,2025-02-03 17:25:12,0.0
-14164,-1132,-1696,-293,736,310,2025-02-03 17:25:12,0.0
-13480,-932,-2464,40,557,195,2025-02-03 17:25:12,0.0
-13460,-528,-2552,106,223,-102,2025-02-03 17:25:12,0.0
-13316,-328,-2396,-449,416,-285,2025-02-03 17:25:12,0.0
-13412,-240,-2608,-609,263,-339,2025-02-03 17:25:12,0.0
-13576,-168,-2568,-742,78,-364,2025-02-03 17:25:12,0.0
-12956,-912,-1836,514,-135,-2088,2025-02-03 17:25:12,0.0
-12804,-1076,-2236,953,114,-2362,2025-02-03 17:25:12,0.0
-12904,-1268,-2916,1336,461,-2600,2025-02-03 17:25:12,0.0
-13112,-1528,-2768,1731,1436,-2621,2025-02-03 17:25:12,0.0
-13364,-2060,-1556,1986,2140,-2408,2025-02-03 17:25:12,0.0
-13528,-2140,-800,1834,1629,-1980,2025-02-03 17:25:12,0.0
-13792,-1996,-32,1285,539,-1488,2025-02-03 17:25:12,0.0
-13740,-1564,-328,592,-805,-1151,2025-02-03 17:25:12,0.0
-13664,-1528,-1460,19,-1456,-1201,2025-02-03 17:25:12,0.0
-13388,-1688,-1944,-453,-1041,-1718,2025-02-03 17:25:12,0.0
-13908,-1736,-1408,-744,1006,-2707,2025-02-03 17:25:12,0.0
-13964,-1824,-1396,-902,546,-2798,2025-02-03 17:25:12,0.0
-14196,-1844,-1024,-1046,-1071,-2590,2025-02-03 17:25:12,0.0
-13624,-1960,-1092,-1191,-2430,-2227,2025-02-03 17:25:12,0.0
-13160,-2104,-1296,-1475,-2287,-2178,2025-02-03 17:25:12,0.0
-12544,-2192,-1476,-1719,-1658,-2235,2025-02-03 17:25:12,0.0
-12388,-2148,-1092,-1836,-796,-2208,2025-02-03 17:25:12,0.0
-12500,-2164,-820,-1892,-28,-2070,2025-02-03 17:25:12,0.0
-12768,-2388,-420,-1934,712,-1942,2025-02-03 17:25:12,0.0
-13132,-2536,-92,-2124,1047,-1880,2025-02-03 17:25:12,0.0
-13632,-2600,296,-2300,423,-1698,2025-02-03 17:25:12,0.0
-13852,-2540,732,-2408,-883,-1368,2025-02-03 17:25:12,0.0
-13692,-2492,652,-2325,-2052,-804,2025-02-03 17:25:12,0.0
-13104,-2300,520,-2348,-2679,-127,2025-02-03 17:25:12,0.0
-12392,-2236,372,-2590,-2561,451,2025-02-03 17:25:12,0.0
-12092,-2084,8,-2790,-1733,1085,2025-02-03 17:25:12,0.0
-11620,-1692,-412,-3223,-291,1560,2025-02-03 17:25:12,0.0
-11588,-904,-840,-3920,812,2031,2025-02-03 17:25:12,0.0
-11700,24,-428,-4597,1572,2911,2025-02-03 17:25:12,0.0
-11544,512,-948,-5144,2071,4400,2025-02-03 17:25:12,0.0
-11144,16,-1412,-5476,2674,6006,2025-02-03 17:25:12,0.0
-10396,-1716,-872,-5572,4372,6703,2025-02-03 17:25:12,0.0
-10812,-3508,-748,-5476,7915,5908,2025-02-03 17:25:12,0.0
-11904,-4676,-1752,-5124,11838,4080,2025-02-03 17:25:12,0.0
-19384,-2688,-1856,-2553,-912,-2519,2025-02-03 17:25:13,0.0
-17692,-2164,-2504,-3359,-6815,-2985,2025-02-03 17:25:13,0.0
-16304,-2556,-2140,-3984,-8833,-2910,2025-02-03 17:25:13,0.0
-15112,-3424,-1324,-4178,-6780,-2274,2025-02-03 17:25:13,0.0
-14648,-4252,-924,-4046,-1695,-1320,2025-02-03 17:25:13,0.0
-14704,-3904,-940,-3483,3414,-439,2025-02-03 17:25:13,0.0
-15332,-3560,-216,-2756,5257,-21,2025-02-03 17:25:13,0.0
-16044,-3872,980,-2368,4131,-26,2025-02-03 17:25:13,0.0
-16568,-4232,1800,-1879,1476,-315,2025-02-03 17:25:13,0.0
-17040,-4092,980,-1240,-1719,-541,2025-02-03 17:25:13,0.0
-16612,-3836,-564,-496,-3982,-643,2025-02-03 17:25:13,0.0
-14964,-3936,-2576,713,-4154,-951,2025-02-03 17:25:13,0.0
-13744,-5116,-3020,1667,-2810,-2654,2025-02-03 17:25:13,0.0
-14812,-5420,-2964,3119,-2140,-4666,2025-02-03 17:25:13,0.0
-18504,-4224,-4380,4175,-1675,-4005,2025-02-03 17:25:13,0.0
-17560,-492,-4292,4428,-2695,-239,2025-02-03 17:25:13,0.0
-13312,1516,-5256,4623,-5325,2033,2025-02-03 17:25:13,0.0
-10176,1548,-7708,3537,-7687,2298,2025-02-03 17:25:13,0.0
-9392,1404,-8632,1843,-8022,1771,2025-02-03 17:25:13,0.0
-9796,1468,-8036,837,-4938,1334,2025-02-03 17:25:13,
-11180,1608,-6340,463,1719,961,2025-02-03 17:25:13,0.0
-13004,1044,-5072,380,5819,1323,2025-02-03 17:25:13,0.0
-14524,568,-3420,345,6222,2041,2025-02-03 17:25:13,0.0
-15612,188,-2032,686,3659,2727,2025-02-03 17:25:13,0.0
-16256,-376,-1784,1506,-254,3694,2025-02-03 17:25:13,0.0
-15252,-924,-3128,2291,-4479,4724,2025-02-03 17:25:13,0.0
-12200,-1628,-3932,2818,-8089,5349,2025-02-03 17:25:13,0.0
-9988,-1956,-3392,3488,-9039,5111,2025-02-03 17:25:13,0.0
-8840,-2192,-2860,4249,-7976,4625,2025-02-03 17:25:13,0.0
-9076,-1712,-1860,4752,-4166,4246,2025-02-03 17:25:13,0.0
-10664,-460,228,5382,718,3979,2025-02-03 17:25:13,0.0
-11756,1084,-888,5656,4404,4282,2025-02-03 17:25:13,0.0
-13508,2100,-956,5718,5443,5204,2025-02-03 17:25:13,0.0
-14716,2704,-1736,5671,4001,5985,2025-02-03 17:25:13,0.0
-14212,2456,-2504,5308,1271,6066,2025-02-03 17:25:13,0.0
-13512,1860,-1384,4834,-2746,5232,2025-02-03 17:25:13,0.0
-13532,948,-1016,4219,-6327,4158,2025-02-03 17:25:13,0.0
-11948,48,316,4035,-8513,3338,2025-02-03 17:25:13,0.0
-10044,-56,-8,4264,-9306,2033,2025-02-03 17:25:13,0.0
-9232,568,-512,4240,-8561,809,2025-02-03 17:25:13,0.0
-9052,1196,-568,4059,-6934,-165,2025-02-03 17:25:13,0.0
-9100,1216,-284,3690,-5075,-1154,2025-02-03 17:25:13,0.0
-9728,1400,-208,3362,-3361,-1949,2025-02-03 17:25:13,0.0
-10692,1872,-84,3283,-2554,-2531,2025-02-03 17:25:13,0.0
-11184,2276,108,3304,-2894,-2937,2025-02-03 17:25:13,0.0
-10948,2460,-176,3432,-4145,-3223,2025-02-03 17:25:13,0.0
-10528,2072,-584,3684,-5089,-3506,2025-02-03 17:25:13,0.0
-9900,1016,-268,3981,-4713,-3779,2025-02-03 17:25:13,0.0
-10284,-552,128,4206,-2830,-3871,2025-02-03 17:25:13,0.0
-18028,-392,-12,7265,10620,-14,2025-02-03 17:25:13,0.0
-19880,512,100,7566,11210,2358,2025-02-03 17:25:13,0.0
-19900,1648,696,6941,7944,3554,2025-02-03 17:25:13,0.0
-19476,2348,1196,6242,3297,3572,2025-02-03 17:25:13,0.0
-18548,2264,1048,5703,-314,3074,2025-02-03 17:25:13,0.0
-17604,2248,1688,5185,-1326,2830,2025-02-03 17:25:13,0.0
-16296,2764,3300,5023,-799,2683,2025-02-03 17:25:14,0.0
-16100,3560,3080,4740,500,2448,2025-02-03 17:25:14,0.0
-10084,-2472,-1524,-5205,-9451,-4650,2025-02-03 17:25:14,0.0
-8740,-2268,-540,-4203,-3584,-3787,2025-02-03 17:25:14,0.0
-8008,-1796,-1836,-4132,1885,-3886,2025-02-03 17:25:14,0.0
-9460,-1332,-2220,-4629,5782,-4255,2025-02-03 17:25:14,0.0
-11420,-1208,-1636,-5036,7773,-4273,2025-02-03 17:25:14,0.0
-13432,-1372,-732,-5212,8000,-3836,2025-02-03 17:25:14,0.0
-15060,-1160,-316,-5392,5934,-2951,2025-02-03 17:25:14,0.0
-15552,-836,-384,-5659,2440,-1868,2025-02-03 17:25:14,0.0
-15064,-360,-892,-6206,-1658,-1006,2025-02-03 17:25:14,0.0
-17908,-2752,-348,-6227,6741,-712,2025-02-03 17:25:14,0.0
-17152,-4736,1584,-5315,3254,-1227,2025-02-03 17:25:14,0.0
-17180,-5744,2000,-4048,-29,-2236,2025-02-03 17:25:14,0.0
-17528,-5340,2964,-2944,-1207,-2078,2025-02-03 17:25:14,0.0
-15716,-4112,3940,-1562,-1332,-1878,2025-02-03 17:25:14,0.0
-14328,-3176,2016,-834,-216,-2015,2025-02-03 17:25:14,0.0
-14364,-2664,-108,-640,1562,-2124,2025-02-03 17:25:14,0.0
-14240,-1972,-3440,16,3352,-2411,2025-02-03 17:25:14,0.0
-20220,-1764,-6164,3267,2946,-3691,2025-02-03 17:25:14,0.0
-18580,1152,-5648,3101,-4546,229,2025-02-03 17:25:14,0.0
-13992,2792,-6852,3254,-12359,2715,2025-02-03 17:25:14,0.0
-9616,3260,-8868,1790,-15888,2998,2025-02-03 17:25:14,0.0
-7536,3748,-9036,230,-12730,1789,2025-02-03 17:25:14,0.0
-7968,3188,-9100,-1073,-4335,55,2025-02-03 17:25:14,0.0
-10416,1948,-8036,-2219,6870,-744,2025-02-03 17:25:14,0.0
-12052,104,-5896,-2575,14271,-526,2025-02-03 17:25:14,0.0
-14244,-1104,-2856,-2352,16436,-20,2025-02-03 17:25:14,0.0
-16988,-1948,-1392,-1439,12004,1728,2025-02-03 17:25:14,0.0
-17624,-2092,-1664,-1151,3984,3841,2025-02-03 17:25:14,0.0
-15200,-1092,-2744,-910,-4853,4627,2025-02-03 17:25:15,0.0
-12208,400,-3740,-1021,-9743,4083,2025-02-03 17:25:15,0.0
-10508,1972,-3228,-533,-8809,3414,2025-02-03 17:25:15,0.0
-9460,2552,-3544,85,-4291,2776,2025-02-03 17:25:15,0.0
-9580,2000,-2256,251,513,2182,2025-02-03 17:25:15,0.0
-10768,1460,-1608,493,4186,1597,2025-02-03 17:25:15,0.0
-13112,1204,-1420,932,5020,1807,2025-02-03 17:25:15,0.0
-14360,428,-1592,1518,3709,2334,2025-02-03 17:25:15,0.0
-14748,-200,-1532,1782,1135,2555,2025-02-03 17:25:15,0.0
-14400,-292,-1428,2299,-2136,2491,2025-02-03 17:25:15,0.0
-14236,-244,-1524,3276,-4225,2404,2025-02-03 17:25:15,0.0
-13568,-380,-2356,4192,-5196,2438,2025-02-03 17:25:15,0.0
-12284,108,-3384,4734,-5551,2198,2025-02-03 17:25:15,0.0
-11636,344,-3212,5060,-4963,1847,2025-02-03 17:25:15,0.0
-11264,640,-2680,5417,-3823,1508,2025-02-03 17:25:15,0.0
-10872,868,-2260,5776,-2142,1230,2025-02-03 17:25:15,0.0
-10728,952,-2296,5821,-374,954,2025-02-03 17:25:15,0.0
-10884,1012,-3176,5572,642,378,2025-02-03 17:25:15,0.0
-11260,1152,-3856,5377,912,-439,2025-02-03 17:25:15,0.0
-12076,1552,-3876,5163,832,-1064,2025-02-03 17:25:15,0.0
-11852,1916,-4176,4826,661,-1388,2025-02-03 17:25:15,0.0
-12288,1736,-3888,4498,586,-1669,2025-02-03 17:25:15,0.0
-12272,1192,-3976,3981,634,-1891,2025-02-03 17:25:15,0.0
-12432,628,-4172,3566,1261,-2176,2025-02-03 17:25:15,0.0
-12740,312,-5556,2948,2416,-2182,2025-02-03 17:25:15,0.0
-13304,504,-5740,2475,3104,-1949,2025-02-03 17:25:15,0.0
-13932,504,-5176,2090,2903,-1512,2025-02-03 17:25:15,0.0
-14088,588,-3964,1662,1655,-807,2025-02-03 17:25:15,0.0
-13688,600,-3372,1255,167,-149,2025-02-03 17:25:15,0.0
-12864,532,-3820,517,-774,262,2025-02-03 17:25:15,0.0
-11776,100,-4688,-46,-375,-113,2025-02-03 17:25:15,0.0
-11828,-1168,-4356,-274,1363,-1040,2025-02-03 17:25:15,0.0
-12640,-2156,-3612,182,3201,-1656,2025-02-03 17:25:15,0.0
-13504,-2448,-3364,736,3969,-1522,2025-02-03 17:25:15,0.0
-14172,-1968,-3112,1121,3633,-1122,2025-02-03 17:25:15,
-14376,-1192,-3464,1269,2325,-622,2025-02-03 17:25:15,0.0
-14040,-392,-3652,899,405,34,2025-02-03 17:25:15,0.0
-12964,-580,-3380,437,-576,426,2025-02-03 17:25:15,0.0
-11748,-1452,-3396,367,1441,-168,2025-02-03 17:25:15,0.0
-12316,-1984,-3716,588,2139,-669,2025-02-03 17:25:15,0.0
-13156,-2008,-3440,1028,1952,-661,2025-02-03 17:25:15,0.0
-13568,-1568,-3248,1341,1514,-172,2025-02-03 17:25:15,0.0
-13460,-664,-2952,1339,1406,119,2025-02-03 17:25:15,0.0
-13356,-272,-2824,860,1492,221,2025-02-03 17:25:15,0.0
-13312,-320,-3324,416,1122,-76,2025-02-03 17:25:15,0.0
-13280,-276,-3488,-11,451,-391,2025-02-03 17:25:15,0.0
-13228,-676,-3348,-381,-36,-612,2025-02-03 17:25:15,0.0
-13168,-864,-3428,-435,-431,-616,2025-02-03 17:25:15,0.0
-13400,-892,-3664,-407,-135,-393,2025-02-03 17:25:15,0.0
-13220,-732,-3600,-437,699,-86,2025-02-03 17:25:15,0.0
-13064,-884,-3308,-516,1601,91,2025-02-03 17:25:15,0.0
-13060,-832,-3280,-640,1816,23,2025-02-03 17:25:15,0.0
-13176,-940,-2728,-652,1283,-141,2025-02-03 17:25:15,0.0
-13164,-1084,-2392,-613,549,-376,2025-02-03 17:25:15,0.0
-13228,-1128,-2348,-462,29,-399,2025-02-03 17:25:15,0.0
-13184,-1020,-2488,-197,-142,-286,2025-02-03 17:25:15,0.0
-13108,-1112,-2560,49,158,-122,2025-02-03 17:25:15,0.0
-13296,-972,-2540,245,644,-5,2025-02-03 17:25:15,0.0
-13184,-920,-2528,322,1023,160,2025-02-03 17:25:15,0.0
-13060,-752,-2720,350,1190,332,2025-02-03 17:25:15,0.0
-12932,-728,-2852,365,1334,529,2025-02-03 17:25:15,0.0
-12960,-540,-2760,319,1970,706,2025-02-03 17:25:16,0.0
-13236,-324,-2752,291,2962,511,2025-02-03 17:25:16,0.0
-13844,-396,-2712,281,3577,235,2025-02-03 17:25:16,0.0
-14292,-732,-2644,349,3355,70,2025-02-03 17:25:16,0.0
-14396,-980,-2072,543,2019,164,2025-02-03 17:25:16,0.0
-13828,-928,-2020,836,500,332,2025-02-03 17:25:16,0.0
-12984,-896,-2556,884,-803,337,2025-02-03 17:25:16,0.0
-12240,-1076,-2788,807,-1140,239,2025-02-03 17:25:16,0.0
-12096,-1072,-2948,875,-421,175,2025-02-03 17:25:16,0.0
-12000,-780,-2564,972,1533,-45,2025-02-03 17:25:16,0.0
-12660,-392,-2636,992,2924,-315,2025-02-03 17:25:16,0.0
-13364,-316,-2488,952,3129,-381,2025-02-03 17:25:16,0.0
-13896,-300,-2216,943,2333,-180,2025-02-03 17:25:16,0.0
-13832,-372,-2316,915,1199,25,2025-02-03 17:25:16,0.0
-13320,-512,-2580,785,307,137,2025-02-03 17:25:16,0.0
-12880,-568,-2952,681,-104,176,2025-02-03 17:25:16,0.0
-12416,-804,-3260,736,220,142,2025-02-03 17:25:16,0.0
-12156,-1092,-3332,852,1192,33,2025-02-03 17:25:16,0.0
-12404,-1084,-3636,978,2187,-21,2025-02-03 17:25:16,0.0
-13420,-644,-3876,1324,2044,305,2025-02-03 17:25:16,0.0
-13604,-456,-4140,1337,667,585,2025-02-03 17:25:16,0.0
-13192,-696,-4156,1354,-1079,896,2025-02-03 17:25:16,0.0
-12144,-720,-3764,1340,-2667,1295,2025-02-03 17:25:16,0.0
-10900,-540,-3436,1428,-3947,1807,2025-02-03 17:25:16,0.0
-9792,-220,-2896,1475,-4715,2224,2025-02-03 17:25:16,0.0
-8668,68,-2376,1483,-5457,2499,2025-02-03 17:25:16,0.0
-7568,488,-2180,1468,-5570,2548,2025-02-03 17:25:16,0.0
-6256,244,-2088,1376,-5546,2236,2025-02-03 17:25:16,0.0
-4876,-200,-1532,1320,-5571,1528,2025-02-03 17:25:16,0.0
-3852,-1080,-812,1494,-5499,655,2025-02-03 17:25:16,0.0
-5308,-1016,-524,4004,7030,-2021,2025-02-03 17:25:16,0.0
-5712,544,-1624,3999,9797,-2189,2025-02-03 17:25:16,0.0
-6652,1716,-1888,3318,9863,-2136,2025-02-03 17:25:16,0.0
-9012,1876,96,2687,10038,-958,2025-02-03 17:25:16,0.0
-10216,1640,3944,2568,10365,856,2025-02-03 17:25:16,0.0
-12592,1732,7260,2945,10738,2540,2025-02-03 17:25:16,0.0
-13452,2444,6464,2206,9529,3077,2025-02-03 17:25:16,0.0
-12492,4184,4612,761,3960,1727,2025-02-03 17:25:16,0.0
-10328,2376,-2148,-653,-10795,179,2025-02-03 17:25:16,0.0
-8292,-608,-2960,-984,-17896,24,2025-02-03 17:25:16,0.0
-6536,-2320,-3312,-1003,-20216,-39,2025-02-03 17:25:16,0.0
-29616,-2292,-12944,-4627,32767,-572,2025-02-03 17:25:17,0.0
-32768,-6972,-29168,-6105,32767,-3324,2025-02-03 17:25:17,0.0
-32768,-11388,-32768,-11944,32767,-824,2025-02-03 17:25:17,0.0
-18832,-8072,-32768,-15062,32767,-987,2025-02-03 17:25:17,0.0
16108,4620,-22352,-5121,32767,602,2025-02-03 17:25:17,0.0
3340,1012,-26172,4111,11358,-295,2025-02-03 17:25:17,0.0
-6068,-4076,-28520,2027,18808,-979,2025-02-03 17:25:17,0.0
-1592,-5760,-20380,3180,11714,-1859,2025-02-03 17:25:17,0.0
388,-1628,-17064,5985,-307,-2801,2025-02-03 17:25:18,0.0
-820,-208,-12344,3695,-7184,-1417,2025-02-03 17:25:18,0.0
-1056,284,-12540,3589,-6056,-2269,2025-02-03 17:25:18,0.0
-2180,740,-14280,3653,-4666,-2984,2025-02-03 17:25:18,0.0
-3916,704,-16836,3210,-2840,-3291,2025-02-03 17:25:18,0.0
-5600,152,-18536,2253,-2000,-2859,2025-02-03 17:25:18,0.0
-6324,-748,-18232,1038,-3962,-1925,2025-02-03 17:25:18,0.0
-6728,-1144,-15768,-132,-7620,-964,2025-02-03 17:25:18,0.0
-5964,-1088,-13576,-598,-9663,-431,2025-02-03 17:25:18,0.0
-13892,-272,-1376,-268,-4420,457,2025-02-03 17:25:18,0.0
-14132,172,-948,-372,-3333,680,2025-02-03 17:25:18,0.0
-13480,632,-32,-266,-1186,765,2025-02-03 17:25:18,0.0
-12540,896,-288,179,401,175,2025-02-03 17:25:18,0.0
-15328,928,-4784,505,2428,-1385,2025-02-03 17:25:19,0.0
-14960,1116,-4788,56,341,-2269,2025-02-03 17:25:19,0.0
-14812,1028,-4380,-439,-1910,-2675,2025-02-03 17:25:19,0.0
-14536,1188,-4044,-917,-4224,-2319,2025-02-03 17:25:19,0.0
-13804,1120,-3884,-1381,-5926,-1697,2025-02-03 17:25:19,0.0
-12676,980,-3652,-1466,-6792,-1214,2025-02-03 17:25:19,0.0
-12000,740,-3340,-1627,-6446,-1119,2025-02-03 17:25:19,0.0
-11324,324,-2716,-1795,-5566,-1361,2025-02-03 17:25:19,0.0
-11084,168,-1608,-1606,-4314,-1638,2025-02-03 17:25:19,0.0
-11064,-96,-632,-1325,-2444,-1831,2025-02-03 17:25:19,0.0
-11280,200,-508,-986,-1053,-1737,2025-02-03 17:25:19,0.0
-10048,32,-1544,-157,-1638,-545,2025-02-03 17:25:19,
-9732,-200,-1788,-40,-2194,-299,2025-02-03 17:25:19,0.0
-9408,-368,-1552,59,-2756,-432,2025-02-03 17:25:19,0.0
-9020,-184,-1624,207,-3996,-679,2025-02-03 17:25:19,0.0
-9104,120,-2336,49,-5568,-790,2025-02-03 17:25:19,0.0
-9248,320,-2392,-274,-6581,-429,2025-02-03 17:25:19,0.0
-9160,368,-2316,-305,-6365,20,2025-02-03 17:25:19,0.0
-8628,128,-2292,-27,-5500,66,2025-02-03 17:25:19,0.0
-8172,-444,-2340,140,-4199,-581,2025-02-03 17:25:19,0.0
-11560,1172,-1004,-822,614,-2157,2025-02-03 17:25:19,0.0
-12044,-68,-1664,-1039,-342,-1092,2025-02-03 17:25:19,0.0
-12100,-1168,-1356,-1094,-631,-669,2025-02-03 17:25:19,0.0
-12732,-1316,-552,-838,-147,-476,2025-02-03 17:25:19,0.0
-13216,-1084,300,-391,354,-218,2025-02-03 17:25:19,0.0
-13228,-956,-432,-18,256,-194,2025-02-03 17:25:19,0.0
-13192,-628,-1816,276,-721,-361,2025-02-03 17:25:19,0.0
-13452,-320,-2732,282,-2476,-289,2025-02-03 17:25:19,0.0
-11068,424,-1152,-159,-5865,241,2025-02-03 17:25:20,0.0
-12860,-1144,-936,704,262,-395,2025-02-03 17:25:20,0.0
-13036,-1528,-564,722,782,-188,2025-02-03 17:25:20,0.0
-13212,-1648,-512,922,967,28,2025-02-03 17:25:20,0.0
-13340,-1328,-724,1036,793,44,2025-02-03 17:25:20,0.0
-13160,-936,-1168,878,734,-257,2025-02-03 17:25:20,0.0
-13548,-916,-2020,693,869,-592,2025-02-03 17:25:20,0.0
-14012,-764,-2072,569,907,-617,2025-02-03 17:25:20,0.0
-14220,-1012,-2136,303,1017,-266,2025-02-03 17:25:20,0.0
-14180,-1040,-1728,117,1258,-107,2025-02-03 17:25:20,0.0
-13220,308,-1848,-4970,1357,-1504,2025-02-03 17:25:20,0.0
-13336,-16,-2548,-5804,1849,-1571,2025-02-03 17:25:20,0.0
-13364,-748,-2592,-6521,2041,-1947,2025-02-03 17:25:20,0.0
-13460,-1356,-2544,-7073,1597,-2309,2025-02-03 17:25:20,0.0
-14184,-1252,-2124,-7405,1300,-2416,2025-02-03 17:25:20,0.0
-13912,-1020,-1900,-7685,1095,-2418,2025-02-03 17:25:20,0.0
-13792,-1236,-2064,-7972,530,-2402,2025-02-03 17:25:20,0.0
-13756,-1592,-2588,-8349,202,-2303,2025-02-03 17:25:20,0.0
-13412,-1748,-2860,-8785,59,-2238,2025-02-03 17:25:20,0.0
-13036,-1796,-2244,-9337,-83,-2307,2025-02-03 17:25:20,0.0
-12804,-1508,-1668,-9989,-100,-2535,2025-02-03 17:25:20,0.0
-13336,-3048,-2032,-15130,-1915,-2910,2025-02-03 17:25:20,0.0
-12704,-2848,-2632,-15431,-2805,-2926,2025-02-03 17:25:20,0.0
-12304,-3052,-2992,-15586,-3117,-2799,2025-02-03 17:25:20,0.0
-12028,-3136,-2968,-15888,-2702,-2764,2025-02-03 17:25:20,0.0
-11772,-2864,-2624,-16239,-1629,-2858,2025-02-03 17:25:20,0.0
-11732,-2428,-2052,-16553,-251,-3022,2025-02-03 17:25:20,0.0
-12268,-2588,-1616,-16748,839,-3225,2025-02-03 17:25:20,0.0
-12912,-3380,-1484,-16815,914,-3269,2025-02-03 17:25:20,0.0
-13284,-4200,-1552,-16847,355,-3183,2025-02-03 17:25:20,0.0
-13584,-4036,-2072,-17006,-714,-2848,2025-02-03 17:25:20,0.0
-13760,-3276,-2548,-17100,-1538,-2264,2025-02-03 17:25:20,0.0
-13436,-2516,-2292,-17492,-1702,-1589,2025-02-03 17:25:20,0.0
-12844,-2196,-1756,-17855,-1774,-1090,2025-02-03 17:25:21,0.0
-12748,-1948,-1576,-17918,-1677,-704,2025-02-03 17:25:21,0.0
-12772,-1932,-2276,-17756,-1527,-503,2025-02-03 17:25:21,0.0
-12664,-2628,-3640,-17580,-1272,-636,2025-02-03 17:25:21,0.0
-13096,-3268,-4708,-17391,-565,-1006,2025-02-03 17:25:21,0.0
-13384,-3900,-4852,-17124,-116,-1473,2025-02-03 17:25:21,0.0
-13528,-4040,-4560,-16811,-342,-1841,2025-02-03 17:25:21,0.0
-13604,-4068,-4340,-16425,-1175,-2186,2025-02-03 17:25:21,0.0
-13840,-3556,-4168,-15881,-1937,-2544,2025-02-03 17:25:21,0.0
-13992,3332,-3912,-14713,-2469,1159,2025-02-03 17:25:21,0.0
-12340,3100,-4096,-14637,-591,1190,2025-02-03 17:25:21,0.0
-11528,872,-4248,-15445,2048,-628,2025-02-03 17:25:21,0.0
-12652,-1196,-2564,-16513,3407,-1935,2025-02-03 17:25:21,0.0
-14436,-1640,-512,-16215,3597,-1924,2025-02-03 17:25:21,0.0
-15804,-1248,-328,-15251,3408,-785,2025-02-03 17:25:21,0.0
-15932,28,-896,-14755,2847,66,2025-02-03 17:25:21,0.0
-14964,1236,-1796,-14793,1997,76,2025-02-03 17:25:21,0.0
-12476,2436,-3940,-15069,951,-3990,2025-02-03 17:25:21,0.0
-13004,2176,-3792,-15770,1345,-4266,2025-02-03 17:25:21,0.0
-13160,2004,-3512,-16433,1646,-4465,2025-02-03 17:25:21,0.0
-13652,2064,-3172,-16847,1464,-4636,2025-02-03 17:25:21,0.0
-13944,2064,-3304,-17205,1157,-4629,2025-02-03 17:25:21,0.0
-13964,1832,-3652,-17711,548,-4623,2025-02-03 17:25:21,0.0
-13584,1452,-4068,-18444,-252,-4815,2025-02-03 17:25:21,0.0
-13444,712,-3724,-19193,-990,-5220,2025-02-03 17:25:21,0.0
-13296,-20,-2352,-19343,-1795,-5570,2025-02-03 17:25:21,0.0
-12752,-600,-1884,-18675,-2374,-5536,2025-02-03 17:25:21,0.0
-12264,-980,-2032,-17503,-1942,-5189,2025-02-03 17:25:21,0.0
-11784,-1964,-1888,-16091,-373,-4928,2025-02-03 17:25:21,0.0
-11808,-2680,-1292,-14591,1825,-4935,2025-02-03 17:25:21,0.0
-12408,-3148,-632,-12889,4365,-5052,2025-02-03 17:25:21,0.0
-13332,-2904,-504,-11139,5847,-5335,2025-02-03 17:25:21,0.0
-14248,-2216,-1116,-9532,6123,-5616,2025-02-03 17:25:21,0.0
-16352,-1604,-340,-8245,4875,-5441,2025-02-03 17:25:21,0.0
-17744,-1272,-588,-7309,2391,-4553,2025-02-03 17:25:21,0.0
-18780,-1068,-920,-6559,99,-3052,2025-02-03 17:25:21,0.0
-16892,-256,-1308,-5776,-3381,-533,2025-02-03 17:25:21,0.0
-14268,496,-696,-5168,-5756,-62,2025-02-03 17:25:21,0.0
-11816,1100,-468,-4835,-6810,-372,2025-02-03 17:25:21,0.0
-11164,1124,-188,-4831,-5746,-815,2025-02-03 17:25:21,0.0
-10756,408,-420,-4861,-2742,-1120,2025-02-03 17:25:21,0.0
-10968,-324,-872,-4376,1205,-1261,2025-02-03 17:25:21,0.0
-11632,-900,-1576,-3662,3863,-1146,2025-02-03 17:25:21,0.0
-12244,-1484,-1620,-3049,5274,-1050,2025-02-03 17:25:21,0.0
-12712,-1920,-1032,-2452,5722,-1120,2025-02-03 17:25:22,0.0
-13484,-1452,-804,-1601,5665,-1261,2025-02-03 17:25:22,0.0
-13888,-392,-1856,-1089,5253,-1263,2025-02-03 17:25:22,0.0
-13724,408,-2860,-1193,4204,-1195,2025-02-03 17:25:22,0.0
-13596,776,-3312,-1427,3061,-1274,2025-02-03 17:25:22,0.0
-13424,456,-3388,-1640,2253,-1529,2025-02-03 17:25:22,0.0
-13604,-304,-2988,-1905,1919,-1815,2025-02-03 17:25:22,
-13720,-524,-2496,-1646,1677,-2097,2025-02-03 17:25:22,0.0
-13880,-724,-2792,-1415,1194,-2270,2025-02-03 17:25:22,0.0
-13740,-896,-2168,-1455,443,-2608,2025-02-03 17:25:22,0.0
-13496,-1076,-1760,-1419,-259,-3126,2025-02-03 17:25:22,0.0
-14128,-764,-1804,-1407,-400,-3411,2025-02-03 17:25:22,0.0
-13372,-3620,-1284,-4238,3184,-3162,2025-02-03 17:25:22,0.0
-13736,-3376,-1440,-3869,3470,-3421,2025-02-03 17:25:22,0.0
-13940,-3060,-1312,-3562,2590,-3562,2025-02-03 17:25:22,0.0
-14184,-2912,-984,-3326,771,-3534,2025-02-03 17:25:22,0.0
-14036,-2828,-772,-3198,-713,-3495,2025-02-03 17:25:22,0.0
-13616,-2456,-1044,-3197,-1756,-3315,2025-02-03 17:25:22,0.0
-13172,-2240,-1272,-3322,-2169,-3053,2025-02-03 17:25:22,0.0
-12840,-2004,-1716,-3515,-1950,-2704,2025-02-03 17:25:22,0.0
-12452,-1744,-2016,-3917,-1677,-2246,2025-02-03 17:25:22,0.0
-12284,-1388,-1664,-4330,-735,-1940,2025-02-03 17:25:22,0.0
-12560,-1504,-1172,-4642,87,-1857,2025-02-03 17:25:22,0.0
-12988,-1756,-608,-4869,471,-1787,2025-02-03 17:25:22,0.0
-13524,-2076,-316,-4956,358,-1736,2025-02-03 17:25:22,0.0
-13964,-2640,-332,-5026,-323,-1668,2025-02-03 17:25:22,0.0
-14136,-2808,-392,-4956,-1341,-1419,2025-02-03 17:25:22,0.0
-13976,-2816,-448,-4641,-2221,-1076,2025-02-03 17:25:22,0.0
-13440,-2988,-384,-4476,-2857,-732,2025-02-03 17:25:22,0.0
-13004,-2976,-256,-4304,-3071,-292,2025-02-03 17:25:22,0.0
-12508,-3232,-220,-4008,-2490,191,2025-02-03 17:25:22,0.0
-12248,-3592,-228,-3583,-1485,587,2025-02-03 17:25:22,0.0
-11920,-3864,-564,-2977,-413,955,2025-02-03 17:25:22,0.0
-11508,-4280,-860,-2366,925,962,2025-02-03 17:25:22,0.0
-11544,-4684,-484,-1920,2436,341,2025-02-03 17:25:22,0.0
-12648,-4736,-428,-1602,3379,-269,2025-02-03 17:25:22,0.0
-13640,-4500,-32,-1265,3310,-443,2025-02-03 17:25:22,0.0
-14388,-3812,48,-988,2495,-609,2025-02-03 17:25:22,0.0
-14636,-1492,-796,-730,442,-880,2025-02-03 17:25:22,0.0
-14344,-156,-1876,-1160,-1052,-772,2025-02-03 17:25:22,0.0
-13540,-364,-2696,-2016,-1748,-609,2025-02-03 17:25:22,0.0
-13096,-1004,-2580,-2769,-1266,-583,2025-02-03 17:25:22,0.0
-12972,-1920,-2264,-3413,645,-701,2025-02-03 17:25:22,0.0
-13368,-2872,-2488,-3865,3414,-996,2025-02-03 17:25:22,0.0
-14992,-3172,-2028,-4078,6462,-1218,2025-02-03 17:25:22,0.0
-16444,-3120,-924,-3910,7757,-1416,2025-02-03 17:25:22,0.0
-17228,-3328,-316,-3464,7450,-1900,2025-02-03 17:25:22,0.0
-18208,-4556,-440,-2717,5914,-2615,2025-02-03 17:25:22,0.0
-17916,-6004,-1520,-1864,4263,-3441,2025-02-03 17:25:22,0.0
-17652,-7928,-2480,-310,2556,-4623,2025-02-03 17:25:22,0.0
-18516,-9104,-2080,1739,439,-5331,2025-02-03 17:25:22,0.0
-21652,-7920,-1776,3467,-2299,-2829,2025-02-03 17:25:22,0.0
-19708,-3776,-108,4204,-5318,1393,2025-02-03 17:25:22,0.0
-15756,-1324,-1656,4253,-8154,3425,2025-02-03 17:25:22,0.0
-13112,-84,-4684,2700,-9273,3872,2025-02-03 17:25:22,0.0
-11224,352,-6300,791,-8818,3948,2025-02-03 17:25:22,0.0
-8940,-472,-6220,-270,-7524,3852,2025-02-03 17:25:23,0.0
-7228,-2060,-6204,-25,-5532,3318,2025-02-03 17:25:23,0.0
-6436,-3696,-6364,598,-2134,2204,2025-02-03 17:25:23,0.0
-7612,-4004,-5612,1467,3809,684,2025-02-03 17:25:23,0.0
-10192,-2748,-4500,2254,9359,-162,2025-02-03 17:25:23,0.0
-13744,-1296,-3640,3062,13365,522,2025-02-03 17:25:23,0.0
-16196,-280,-3908,3258,13106,1916,2025-02-03 17:25:23,0.0
-17388,64,-4556,3002,9144,3598,2025-02-03 17:25:23,0.0
-16988,-480,-5128,2470,2388,4855,2025-02-03 17:25:23,0.0
-16064,-1484,-4004,2224,-4361,5531,2025-02-03 17:25:23,0.0
-14624,-2268,-3072,2395,-8201,5762,2025-02-03 17:25:23,0.0
-12808,-2328,-2500,2773,-9873,5781,2025-02-03 17:25:23,0.0
-11652,-1684,-1348,3404,-9427,5721,2025-02-03 17:25:23,0.0
-10964,-768,-1412,4012,-7822,5844,2025-02-03 17:25:23,0.0
-10172,420,-2844,4465,-5302,6182,2025-02-03 17:25:23,0.0
-10144,1196,-3208,4663,-2289,6467,2025-02-03 17:25:23,0.0
-12032,24,-1324,3506,798,3899,2025-02-03 17:25:23,0.0
-12984,-120,-1776,3246,-1067,3540,2025-02-03 17:25:23,0.0
-11396,-104,-1900,2993,-3001,2737,2025-02-03 17:25:23,0.0
-10292,68,-1628,2781,-4399,1571,2025-02-03 17:25:23,0.0
-9616,268,-764,2697,-4215,213,2025-02-03 17:25:23,0.0
-9488,196,-428,2784,-3261,-757,2025-02-03 17:25:23,0.0
-9808,272,-120,3106,-1963,-1602,2025-02-03 17:25:23,0.0
-10604,72,-624,3634,-670,-2066,2025-02-03 17:25:23,0.0
-11572,80,-980,4152,212,-2235,2025-02-03 17:25:23,0.0
-12516,-232,-1136,4660,-184,-2450,2025-02-03 17:25:23,0.0
-13724,-256,-560,5146,-1026,-2428,2025-02-03 17:25:23,0.0
-14856,-24,-344,5754,-1584,-1871,2025-02-03 17:25:23,0.0
-15432,76,-1052,6309,-1814,-901,2025-02-03 17:25:23,0.0
-15124,48,-1912,6554,-1631,201,2025-02-03 17:25:23,0.0
-14296,-288,-2132,6422,-1363,1014,2025-02-03 17:25:23,0.0
-14064,-696,-1560,5965,-249,1323,2025-02-03 17:25:23,0.0
-14680,-112,-1016,5594,2284,1417,2025-02-03 17:25:23,0.0
-15768,1064,-436,5484,5355,1632,2025-02-03 17:25:23,0.0
-17480,2820,-1324,3014,-1430,873,2025-02-03 17:25:23,0.0
-18164,2792,-5616,2207,-369,1923,2025-02-03 17:25:23,0.0
-19552,3272,-9024,-63,2995,4478,2025-02-03 17:25:23,0.0
-17908,3676,-9084,-3856,4398,6573,2025-02-03 17:25:23,0.0
-14368,3868,-5284,-6482,875,6541,2025-02-03 17:25:23,0.0
-9928,3000,-1112,-6740,-6473,3124,2025-02-03 17:25:23,0.0
-6712,32,-2952,-6552,-13355,-2233,2025-02-03 17:25:23,0.0
-6996,-1468,-4616,-7462,-17043,-5114,2025-02-03 17:25:23,0.0
-9028,-1092,-3672,-6698,-15817,-5172,2025-02-03 17:25:23,0.0
-11360,-1680,-3068,-3539,-9820,-3181,2025-02-03 17:25:23,0.0
-12980,-3704,-5192,-308,1101,-1102,2025-02-03 17:25:23,0.0
-14316,-4912,-7408,270,12662,-202,2025-02-03 17:25:23,0.0
-15604,-3484,-5964,-699,19652,-151,2025-02-03 17:25:23,0.0
-16352,-872,-3948,-1623,19268,-190,2025-02-03 17:25:23,0.0
-11860,2848,-4240,-2777,-7242,-5424,2025-02-03 17:25:23,0.0
-12780,1788,-4948,-3498,-11892,-6189,2025-02-03 17:25:23,0.0
-11672,408,-5184,-4657,-11020,-6023,2025-02-03 17:25:23,
-11668,-768,-2844,-5180,-6525,-5760,2025-02-03 17:25:24,0.0
-9876,-2132,-2960,-4830,-967,-5430,2025-02-03 17:25:24,0.0
-10940,-3276,-1048,-4407,3724,-5508,2025-02-03 17:25:24,0.0
-10580,-3568,-1416,-4128,5132,-5637,2025-02-03 17:25:24,0.0
-11488,-3056,-1152,-3724,3558,-5612,2025-02-03 17:25:24,0.0
-11496,-1096,-708,-2596,-1199,-1999,2025-02-03 17:25:24,0.0
-12024,-1852,-912,-2912,7,-1578,2025-02-03 17:25:24,0.0
-12424,-1748,-484,-3392,-123,-1205,2025-02-03 17:25:24,0.0
-13024,-1176,-164,-3091,-1938,-582,2025-02-03 17:25:24,0.0
-14080,-364,-268,-2774,-3970,710,2025-02-03 17:25:24,0.0
-13336,160,-828,-3128,-5219,1905,2025-02-03 17:25:24,0.0
-13120,560,-888,-3955,-5631,2413,2025-02-03 17:25:24,0.0
-13288,332,-332,-5148,-5232,2463,2025-02-03 17:25:24,0.0
-12532,-428,-272,-6045,-5072,2331,2025-02-03 17:25:24,0.0
-12768,-568,-2216,-6758,-4688,2394,2025-02-03 17:25:24,0.0
-11812,-780,-2680,-7389,-4273,2252,2025-02-03 17:25:24,0.0
-11184,-496,-2068,-7754,-2540,1607,2025-02-03 17:25:24,0.0
-10512,-384,-1640,-8339,400,406,2025-02-03 17:25:24,0.0
-11600,-996,-1136,-8771,3953,-870,2025-02-03 17:25:24,0.0
-14624,-1904,-656,-8775,8029,-1702,2025-02-03 17:25:24,0.0
-16784,-2464,384,-8414,10675,-2142,2025-02-03 17:25:24,0.0
-18724,-3412,2092,-7640,10539,-2768,2025-02-03 17:25:24,0.0
-19328,-4244,2428,-7026,6790,-3500,2025-02-03 17:25:24,0.0
-19880,-5248,2548,-6252,465,-3558,2025-02-03 17:25:24,0.0
-14324,-2608,-844,-2976,-4733,4600,2025-02-03 17:25:24,0.0
-12284,-1516,-2024,-1886,-4472,3987,2025-02-03 17:25:24,0.0
-11124,116,-2456,-1073,-3512,3381,2025-02-03 17:25:24,0.0
-10764,868,-1988,-538,-2210,2636,2025-02-03 17:25:24,0.0
-10504,1324,-2544,-560,-1164,2209,2025-02-03 17:25:24,0.0
-10548,1468,-2640,-758,177,1961,2025-02-03 17:25:24,0.0
-10872,1456,-2240,-919,1536,1587,2025-02-03 17:25:24,0.0
-11392,1152,-2580,-1074,2521,1207,2025-02-03 17:25:24,0.0
-13340,624,-1596,-958,2047,610,2025-02-03 17:25:24,0.0
-14240,536,-1592,-797,551,473,2025-02-03 17:25:24,0.0
-14140,464,-2500,-866,-1510,337,2025-02-03 17:25:24,0.0
-13680,872,-2780,-1220,-3463,34,2025-02-03 17:25:24,0.0
-12896,1148,-3172,-1393,-4350,-282,2025-02-03 17:25:24,0.0
-12020,1416,-2780,-1453,-3985,-540,2025-02-03 17:25:24,0.0
-11736,1520,-1992,-1197,-2789,-490,2025-02-03 17:25:24,0.0
-11528,1084,-1660,-800,-1266,-323,2025-02-03 17:25:24,0.0
-11772,116,-1260,-221,218,-299,2025-02-03 17:25:25,0.0
-12376,-952,-1128,614,911,-369,2025-02-03 17:25:25,0.0
-13372,-1448,-500,1496,655,-342,2025-02-03 17:25:25,0.0
-13436,-1780,-60,2822,-167,-468,2025-02-03 17:25:25,0.0
-13360,-1488,-556,3935,-828,-673,2025-02-03 17:25:25,0.0
-12852,-1060,-1608,4709,-1467,-920,2025-02-03 17:25:25,0.0
-12828,-456,-1744,5296,-1678,-1170,2025-02-03 17:25:25,0.0
-12608,-320,-2024,5777,-1424,-1333,2025-02-03 17:25:25,0.0
-12468,296,-2740,5855,-786,-1290,2025-02-03 17:25:25,0.0
-13392,48,-3380,-8262,-829,-3655,2025-02-03 17:25:25,0.0
-13592,208,-3824,-8828,-1357,-3967,2025-02-03 17:25:25,0.0
-13696,220,-3456,-9392,-1677,-4247,2025-02-03 17:25:25,0.0
-13548,-276,-3472,-9783,-2038,-4497,2025-02-03 17:25:25,0.0
-13064,-1288,-3424,-9994,-2795,-4760,2025-02-03 17:25:26,0.0
-12580,-2344,-3244,-9979,-3306,-4942,2025-02-03 17:25:26,0.0
-12236,-2560,-2892,-9809,-3147,-4888,2025-02-03 17:25:26,0.0
-12220,-1976,-2888,-9512,-2260,-4526,2025-02-03 17:25:26,0.0
-11864,-1488,-3192,-9398,-1064,-4017,2025-02-03 17:25:26,0.0
-12024,-1156,-3012,-9652,444,-3649,2025-02-03 17:25:26,0.0
-12724,-1412,-3228,-10458,1751,-3450,2025-02-03 17:25:26,0.0
-13560,-1692,-2920,-11260,2292,-3460,2025-02-03 17:25:26,0.0
-14048,-2132,-2828,-11822,1938,-3532,2025-02-03 17:25:26,0.0
-14276,-2604,-2880,-12171,844,-3591,2025-02-03 17:25:26,0.0
-14344,-2876,-2948,-12372,-668,-3716,2025-02-03 17:25:26,0.0
-14040,-3096,-2924,-12524,-1927,-3960,2025-02-03 17:25:26,0.0
-13764,-3284,-2648,-12602,-2642,-4237,2025-02-03 17:25:26,0.0
-13552,-3264,-2556,-12678,-2917,-4325,2025-02-03 17:25:26,0.0
-13152,-3016,-2880,-12821,-2898,-4274,2025-02-03 17:25:26,0.0
-12836,-2064,-3068,-13513,-2115,-3774,2025-02-03 17:25:26,0.0
-12620,-2252,-3368,-13927,-1637,-3603,2025-02-03 17:25:26,0.0
-12508,-2648,-3464,-14349,-1330,-3644,2025-02-03 17:25:26,0.0
-12776,-2972,-3664,-14729,-1037,-3693,2025-02-03 17:25:26,0.0
-13128,-3044,-3340,-15069,-777,-3768,2025-02-03 17:25:26,0.0
-13556,-3000,-3152,-15347,-939,-3772,2025-02-03 17:25:26,0.0
-13788,-2612,-2680,-15688,-1601,-3477,2025-02-03 17:25:26,0.0
-13800,-1908,-2356,-15987,-2344,-3139,2025-02-03 17:25:26,0.0
-13772,-1700,-2480,-16353,-3386,-2811,2025-02-03 17:25:26,0.0
-13244,-2180,-2664,-16638,-4435,-2618,2025-02-03 17:25:26,0.0
-13104,-3200,-1096,-16698,-4570,-2440,2025-02-03 17:25:26,0.0
-12804,-3176,-876,-16522,-4033,-2155,2025-02-03 17:25:26,0.0
-12672,-3544,-1368,-16573,-3232,-1871,2025-02-03 17:25:26,0.0
-13208,-3720,-1976,-16786,-2289,-1547,2025-02-03 17:25:26,0.0
-13768,-3080,-2140,-16963,-1579,-966,2025-02-03 17:25:26,0.0
-13764,-1832,-2608,-17150,-1044,-496,2025-02-03 17:25:26,0.0
-13648,-1320,-2704,-17689,-810,-318,2025-02-03 17:25:26,0.0
-13104,-1556,-2516,-18068,-1102,-383,2025-02-03 17:25:26,0.0
-12776,-2260,-2048,-18382,-1867,-516,2025-02-03 17:25:26,0.0
-12800,-2620,-1596,-18477,-2532,-469,2025-02-03 17:25:26,0.0
-12620,-2856,-3300,-17567,-2435,-287,2025-02-03 17:25:26,0.0
-12292,-4084,-3524,-17012,-2393,-475,2025-02-03 17:25:26,0.0
-12096,-5536,-3344,-16258,-2267,-835,2025-02-03 17:25:26,0.0
-12472,-6816,-2880,-14910,-2164,-1459,2025-02-03 17:25:26,0.0
-13108,-6104,-1956,-13585,-1796,-1562,2025-02-03 17:25:26,0.0
-14084,-5376,-1956,-12388,-895,-1497,2025-02-03 17:25:26,0.0
-14668,-3448,-3184,-11606,-79,-1025,2025-02-03 17:25:26,0.0
-14912,-756,-4384,-10937,857,-303,2025-02-03 17:25:26,0.0
-13756,3772,-4716,-10184,2379,405,2025-02-03 17:25:26,0.0
-13576,3540,-4160,-11501,2029,19,2025-02-03 17:25:26,0.0
-13900,1676,-2684,-13632,1695,-196,2025-02-03 17:25:26,0.0
-14572,504,-2012,-14061,1841,97,2025-02-03 17:25:26,
-14444,68,-2356,-14442,1733,464,2025-02-03 17:25:26,0.0
-13468,400,-2168,-15121,1285,232,2025-02-03 17:25:26,0.0
-13172,1080,-772,-15473,571,-272,2025-02-03 17:25:27,0.0
-13192,1844,-468,-15669,-555,-626,2025-02-03 17:25:27,0.0
-12108,2464,-1808,-16204,-1420,-919,2025-02-03 17:25:28,0.0
-12184,2376,-1732,-16598,-1072,-1340,2025-02-03 17:25:28,0.0
-12688,84,-1340,-18290,1372,-4005,2025-02-03 17:25:28,0.0
-12936,112,-1232,-18305,1548,-4577,2025-02-03 17:25:28,0.0
-13044,400,-1384,-17860,1909,-4684,2025-02-03 17:25:28,0.0
-13728,-2224,-568,-1012,307,-822,2025-02-03 17:25:28,0.0
-14364,-2432,-448,-390,-160,-657,2025-02-03 17:25:28,0.0
-14540,-2156,-1008,157,-896,-315,2025-02-03 17:25:28,0.0
-13996,-1576,-1468,431,-1714,-77,2025-02-03 17:25:28,0.0
-13036,-224,-2008,-3,-1540,-665,2025-02-03 17:25:28,0.0
-12828,24,-2048,-242,-916,-730,2025-02-03 17:25:28,0.0
-12912,-76,-1576,-505,-179,-834,2025-02-03 17:25:28,0.0
-12968,144,-1848,-776,350,-845,2025-02-03 17:25:28,0.0
-12840,-1616,-224,-1908,-2036,451,2025-02-03 17:25:28,0.0
-12324,-1712,-104,-2115,-1300,431,2025-02-03 17:25:29,0.0
-12536,-1984,112,-2302,38,353,2025-02-03 17:25:29,0.0
-13248,-2216,168,-2346,867,502,2025-02-03 17:25:29,0.0
-13600,-1968,200,-2319,815,649,2025-02-03 17:25:29,0.0
-13248,-2000,36,-2313,223,556,2025-02-03 17:25:29,0.0
-12596,-2148,-12,-2420,-408,302,2025-02-03 17:25:29,0.0
-12272,-2296,0,-2522,-415,-109,2025-02-03 17:25:29,0.0
-12376,-2420,488,-2746,642,-473,2025-02-03 17:25:29,0.0
-12912,-2232,648,-2901,1823,-642,2025-02-03 17:25:29,0.0
-13244,-3272,32,-3471,2533,-587,2025-02-03 17:25:29,0.0
-13324,-3528,-112,-3334,3040,-888,2025-02-03 17:25:29,0.0
-14020,-3388,-244,-3143,3808,-993,2025-02-03 17:25:29,0.0
-14644,-3264,-212,-2826,4513,-789,2025-02-03 17:25:29,0.0
-15044,-3260,-412,-2514,5022,-509,2025-02-03 17:25:29,0.0
-15376,-3224,-740,-2324,5163,-531,2025-02-03 17:25:29,0.0
-16024,-3488,-832,-2252,5212,-1053,2025-02-03 17:25:29,0.0
-16632,-4076,-336,-2118,4738,-1688,2025-02-03 17:25:29,0.0
-17556,-4456,380,-1559,3272,-1692,2025-02-03 17:25:29,0.0
-18156,-4492,388,-745,1175,-810,2025-02-03 17:25:29,0.0
-17568,-4072,-556,87,138,39,2025-02-03 17:25:29,0.0
-16656,-3924,-2000,751,324,-123,2025-02-03 17:25:29,0.0
-16312,-4004,-2312,1280,938,-1100,2025-02-03 17:25:29,0.0
-16636,-4136,-2116,1890,653,-1954,2025-02-03 17:25:29,0.0
-17640,-3756,-1564,2368,-767,-1468,2025-02-03 17:25:29,0.0
-17132,-2620,-964,2558,-2634,-23,2025-02-03 17:25:29,0.0
-14968,-1916,-1344,2596,-4505,990,2025-02-03 17:25:29,0.0
-12852,-1868,-2532,2292,-6200,1655,2025-02-03 17:25:29,0.0
-10584,-1772,-3596,1957,-7298,2444,2025-02-03 17:25:29,0.0
-8924,-1796,-4420,2032,-6750,2690,2025-02-03 17:25:29,0.0
-7988,-2084,-5260,2390,-4171,2173,2025-02-03 17:25:29,0.0
-8272,-2104,-5992,2762,342,1015,2025-02-03 17:25:29,0.0
-10352,-1260,-5940,2878,5773,-182,2025-02-03 17:25:29,0.0
-13452,-308,-4424,2687,8457,-366,2025-02-03 17:25:29,0.0
-15796,368,-3496,2443,7525,345,2025-02-03 17:25:29,0.0
-17132,640,-3224,2050,3650,1544,2025-02-03 17:25:29,0.0
-17236,836,-3836,1655,-1118,2679,2025-02-03 17:25:29,0.0
-15984,584,-4532,1276,-4497,3343,2025-02-03 17:25:29,0.0
-14720,244,-4644,1028,-5534,3725,2025-02-03 17:25:29,0.0
-13008,-368,-3280,1025,-4965,3920,2025-02-03 17:25:29,0.0
-11592,-936,-2436,1228,-4166,4114,2025-02-03 17:25:29,0.0
-10820,-1304,-1700,1734,-3074,4202,2025-02-03 17:25:29,0.0
-10684,-1300,-1684,2317,-1724,4356,2025-02-03 17:25:29,0.0
-10976,-1188,-1744,2745,-120,4523,2025-02-03 17:25:29,0.0
-11480,-824,-1928,2914,1175,4490,2025-02-03 17:25:29,0.0
-12468,-72,-1456,2981,1848,4477,2025-02-03 17:25:29,0.0
-12916,668,-1268,3010,1364,4356,2025-02-03 17:25:29,0.0
-13060,1484,-1072,2938,-212,4058,2025-02-03 17:25:29,0.0
-12820,2080,-1216,2731,-2150,3590,2025-02-03 17:25:29,0.0
-12080,1928,-1260,2328,-4157,3012,2025-02-03 17:25:29,0.0
-11660,1204,-992,1966,-5073,2390,2025-02-03 17:25:30,0.0
-15832,2176,724,4056,1012,2432,2025-02-03 17:25:30,0.0
-15220,2600,1380,3347,333,1865,2025-02-03 17:25:30,0.0
-15048,2668,1580,2753,940,1383,2025-02-03 17:25:30,0.0
-15000,2580,-296,2165,2188,1217,2025-02-03 17:25:30,0.0
